key_resp1.keys,key_resp1.rt,participant,session,date,expName,psychopyVersion,OS,frameRate,key_resp_6.keys,key_resp_6.rt,key_resp_10.keys,key_resp_10.rt,key_ressp2.keys,key_ressp2.rt,key_resp_9.keys,key_resp_9.rt,key_resp_3.keys,key_resp_3.rt,key_resp1_2.keys,key_resp1_2.rt,key_resp1_3.keys,key_resp1_3.rt,key_resp_11.keys,key_resp_11.rt,key_resp_12.keys,key_resp_12.rt,key_resp_18.keys,key_resp_18.rt,key_resp_7.keys,key_resp_7.rt,key_resp1_4.keys,key_resp1_4.rt,syllable_catch.keys,syllable_catch.rt,audio1.thisRepN,audio1.thisTrialN,audio1.thisN,audio1.thisIndex,audio1.ran,dirs,time,Conj_unsync_online.thisRepN,Conj_unsync_online.thisTrialN,Conj_unsync_online.thisN,Conj_unsync_online.thisIndex,Conj_unsync_online.ran,cond,ord,colour,key_resp4.keys,key_resp4.rt,key_resp_4.keys,key_resp_4.rt,Partz_no_partm.keys,Partz_no_partm.rt,security_1_7.keys,security_1_7.rt,Conj_unsync_test.thisRepN,Conj_unsync_test.thisTrialN,Conj_unsync_test.thisN,Conj_unsync_test.thisIndex,Conj_unsync_test.ran,test,key_resp_13.keys,key_resp_13.rt,trials.thisRepN,trials.thisTrialN,trials.thisN,trials.thisIndex,trials.ran,seq,online_dir,test_dir,audio_offline
space,1.6025,083571,001,2023-06-06_16h09.59.614,Unsyncopated1,2022.2.5,Win32,60.60238773,,,,,,,,,,,,,,,,,,,,,,,,,,,,,,,,,,,,,,,,,,,,,,,,,,,,,,,,,,,,,,,,,,
,,083571,001,2023-06-06_16h09.59.614,Unsyncopated1,2022.2.5,Win32,60.60238773,space,0.2605,,,,,,,,,,,,,,,,,,,,,,,,,,,,,,,,,,,,,,,,,,,,,,,,,,,,,,,,,,,,,,,,
,,083571,001,2023-06-06_16h09.59.614,Unsyncopated1,2022.2.5,Win32,60.60238773,,,space,0.2833,,,,,,,,,,,,,,,,,,,,,,,,,,,,,,,,,,,,,,,,,,,,,,,,,,,,,,,,,,,,,,
,,083571,001,2023-06-06_16h09.59.614,Unsyncopated1,2022.2.5,Win32,60.60238773,,,,,space,1.8855,,,,,,,,,,,,,,,,,,,,,,,,,,,,,,,,,,,,,,,,,,,,,,,,,,,,,,,,,,,,
,,083571,001,2023-06-06_16h09.59.614,Unsyncopated1,2022.2.5,Win32,60.60238773,,,,,,,space,0.4261,,,,,,,,,,,,,,,,,,,,,,,,,,,,,,,,,,,,,,,,,,,,,,,,,,,,,,,,,,
,,083571,001,2023-06-06_16h09.59.614,Unsyncopated1,2022.2.5,Win32,60.60238773,,,,,,,,,space,1.3887,,,,,,,,,,,,,,,,,,,,,,,,,,,,,,,,,,,,,,,,,,,,,,,,,,,,,,,,
,,083571,001,2023-06-06_16h09.59.614,Unsyncopated1,2022.2.5,Win32,60.60238773,,,,,,,,,,,space,1.9741,,,,,,,,,,,,,,,,,,,,,,,,,,,,,,,,,,,,,,,,,,,,,,,,,,,,,,
,,083571,001,2023-06-06_16h09.59.614,Unsyncopated1,2022.2.5,Win32,60.60238773,,,,,,,,,,,,,space,1.3041,,,,,,,,,,,,,,,,,,,,,,,,,,,,,,,,,,,,,,,,,,,,,,,,,,,,
,,083571,001,2023-06-06_16h09.59.614,Unsyncopated1,2022.2.5,Win32,60.60238773,,,,,,,,,,,,,,,space,2.7213,,,,,,,,,,,,,,,,,,,,,,,,,,,,,,,,,,,,,,,,,,,,,,,,,,
,,083571,001,2023-06-06_16h09.59.614,Unsyncopated1,2022.2.5,Win32,60.60238773,,,,,,,,,,,,,,,,,space,1.4564,,,,,,,,,,,,,,,,,,,,,,,,,,,,,,,,,,,,,,,,,,,,,,,,
,,083571,001,2023-06-06_16h09.59.614,Unsyncopated1,2022.2.5,Win32,60.60238773,,,,,,,,,,,,,,,,,,,space,0.8343,space,2.1581,space,1.9828,space,2.2026,0,0,0,1,1,Online_conjL1_un//aKI29.1776.wav,1776,,,,,,,,,,,,,,,,,,,,,,,,,,,,,,,,,
,,083571,001,2023-06-06_16h09.59.614,Unsyncopated1,2022.2.5,Win32,60.60238773,,,,,,,,,,,,,,,,,,,,,,,,,,,0,1,1,0,1,Online_conjL1_un//aKI28.none.wav,none,,,,,,,,,,,,,,,,,,,,,,,,,,,,,,,,,
,,083571,001,2023-06-06_16h09.59.614,Unsyncopated1,2022.2.5,Win32,60.60238773,,,,,,,,,,,,,,,,,,,,,,,,,space,1.2545,0,2,2,3,1,Online_conjL1_un//aKI31.888.wav,888,,,,,,,,,,,,,,,,,,,,,,,,,,,,,,,,,
,,083571,001,2023-06-06_16h09.59.614,Unsyncopated1,2022.2.5,Win32,60.60238773,,,,,,,,,,,,,,,,,,,,,,,,,space,1.8842,0,3,3,2,1,Online_conjL1_un//aKI30.none.wav,none,,,,,,,,,,,,,,,,,,,,,,,,,,,,,,,,,
,,083571,001,2023-06-06_16h09.59.614,Unsyncopated1,2022.2.5,Win32,60.60238773,,,,,,,,,,,,,,,,,,,,,,,,,,,,,,,,,,0,0,0,6,1,ki,28:32,red,,,,,,,,,,,,,,,,,,,,,,,,,
,,083571,001,2023-06-06_16h09.59.614,Unsyncopated1,2022.2.5,Win32,60.60238773,,,,,,,,,,,,,,,,,,,,,,,,,space,1.5406,0,0,0,2,1,Online_conjL1_un//cRO2.1110.wav,1110,,,,,,,,,,,,,,,,,,,,,,,,,,,,,,,,,
,,083571,001,2023-06-06_16h09.59.614,Unsyncopated1,2022.2.5,Win32,60.60238773,,,,,,,,,,,,,,,,,,,,,,,,,space,2.1726,0,1,1,0,1,Online_conjL1_un//cRO0.1332.wav,1332,,,,,,,,,,,,,,,,,,,,,,,,,,,,,,,,,
,,083571,001,2023-06-06_16h09.59.614,Unsyncopated1,2022.2.5,Win32,60.60238773,,,,,,,,,,,,,,,,,,,,,,,,,,,0,2,2,1,1,Online_conjL1_un//cRO1.none.wav,none,,,,,,,,,,,,,,,,,,,,,,,,,,,,,,,,,
,,083571,001,2023-06-06_16h09.59.614,Unsyncopated1,2022.2.5,Win32,60.60238773,,,,,,,,,,,,,,,,,,,,,,,,,space,0.867,0,3,3,3,1,Online_conjL1_un//cRO3.444.wav,444,,,,,,,,,,,,,,,,,,,,,,,,,,,,,,,,,
,,083571,001,2023-06-06_16h09.59.614,Unsyncopated1,2022.2.5,Win32,60.60238773,,,,,,,,,,,,,,,,,,,,,,,,,,,,,,,,,,0,1,1,7,1,ro,64:68,green,,,,,,,,,,,,,,,,,,,,,,,,,
,,083571,001,2023-06-06_16h09.59.614,Unsyncopated1,2022.2.5,Win32,60.60238773,,,,,,,,,,,,,,,,,,,,,,,,,space,0.8419,0,0,0,0,1,Online_conjL1_un//dNE20.none.wav,none,,,,,,,,,,,,,,,,,,,,,,,,,,,,,,,,,
,,083571,001,2023-06-06_16h09.59.614,Unsyncopated1,2022.2.5,Win32,60.60238773,,,,,,,,,,,,,,,,,,,,,,,,,,,0,1,1,2,1,Online_conjL1_un//dNE22.none.wav,none,,,,,,,,,,,,,,,,,,,,,,,,,,,,,,,,,
,,083571,001,2023-06-06_16h09.59.614,Unsyncopated1,2022.2.5,Win32,60.60238773,,,,,,,,,,,,,,,,,,,,,,,,,,,0,2,2,3,1,Online_conjL1_un//dNE23.none.wav,none,,,,,,,,,,,,,,,,,,,,,,,,,,,,,,,,,
,,083571,001,2023-06-06_16h09.59.614,Unsyncopated1,2022.2.5,Win32,60.60238773,,,,,,,,,,,,,,,,,,,,,,,,,space,2.105,0,3,3,1,1,Online_conjL1_un//dNE21.1776.wav,1776,,,,,,,,,,,,,,,,,,,,,,,,,,,,,,,,,
,,083571,001,2023-06-06_16h09.59.614,Unsyncopated1,2022.2.5,Win32,60.60238773,,,,,,,,,,,,,,,,,,,,,,,,,,,,,,,,,,0,2,2,0,1,ne,116:120,orange,,,,,,,,,,,,,,,,,,,,,,,,,
,,083571,001,2023-06-06_16h09.59.614,Unsyncopated1,2022.2.5,Win32,60.60238773,,,,,,,,,,,,,,,,,,,,,,,,,space,0.6152,0,0,0,2,1,Online_conjL1_un//bTA2.0.wav,0,,,,,,,,,,,,,,,,,,,,,,,,,,,,,,,,,
,,083571,001,2023-06-06_16h09.59.614,Unsyncopated1,2022.2.5,Win32,60.60238773,,,,,,,,,,,,,,,,,,,,,,,,,,,0,1,1,0,1,Online_conjL1_un//bTA0.none.wav,none,,,,,,,,,,,,,,,,,,,,,,,,,,,,,,,,,
,,083571,001,2023-06-06_16h09.59.614,Unsyncopated1,2022.2.5,Win32,60.60238773,,,,,,,,,,,,,,,,,,,,,,,,,,,0,2,2,3,1,Online_conjL1_un//bTA3.0.wav,0,,,,,,,,,,,,,,,,,,,,,,,,,,,,,,,,,
,,083571,001,2023-06-06_16h09.59.614,Unsyncopated1,2022.2.5,Win32,60.60238773,,,,,,,,,,,,,,,,,,,,,,,,,space,2.301,0,3,3,1,1,Online_conjL1_un//bTA1.none.wav,none,,,,,,,,,,,,,,,,,,,,,,,,,,,,,,,,,
,,083571,001,2023-06-06_16h09.59.614,Unsyncopated1,2022.2.5,Win32,60.60238773,,,,,,,,,,,,,,,,,,,,,,,,,,,,,,,,,,0,3,3,4,1,ta,32:36,blue,,,,,,,,,,,,,,,,,,,,,,,,,
,,083571,001,2023-06-06_16h09.59.614,Unsyncopated1,2022.2.5,Win32,60.60238773,,,,,,,,,,,,,,,,,,,,,,,,,space,0.3211,0,0,0,1,1,Online_conjL1_un//dNE5.222.wav,222,,,,,,,,,,,,,,,,,,,,,,,,,,,,,,,,,
,,083571,001,2023-06-06_16h09.59.614,Unsyncopated1,2022.2.5,Win32,60.60238773,,,,,,,,,,,,,,,,,,,,,,,,,space,1.8854,0,1,1,2,1,Online_conjL1_un//dNE6.1332.wav,1332,,,,,,,,,,,,,,,,,,,,,,,,,,,,,,,,,
,,083571,001,2023-06-06_16h09.59.614,Unsyncopated1,2022.2.5,Win32,60.60238773,,,,,,,,,,,,,,,,,,,,,,,,,space,0.9353,0,2,2,3,1,Online_conjL1_un//dNE7.none.wav,none,,,,,,,,,,,,,,,,,,,,,,,,,,,,,,,,,
,,083571,001,2023-06-06_16h09.59.614,Unsyncopated1,2022.2.5,Win32,60.60238773,,,,,,,,,,,,,,,,,,,,,,,,,,,0,3,3,0,1,Online_conjL1_un//dNE4.222.wav,222,,,,,,,,,,,,,,,,,,,,,,,,,,,,,,,,,
,,083571,001,2023-06-06_16h09.59.614,Unsyncopated1,2022.2.5,Win32,60.60238773,,,,,,,,,,,,,,,,,,,,,,,,,,,,,,,,,,0,4,4,24,1,ne,100:104,orange,,,,,,,,,,,,,,,,,,,,,,,,,
,,083571,001,2023-06-06_16h09.59.614,Unsyncopated1,2022.2.5,Win32,60.60238773,,,,,,,,,,,,,,,,,,,,,,,,,,,0,0,0,3,1,Online_conjL1_un//bTA27.none.wav,none,,,,,,,,,,,,,,,,,,,,,,,,,,,,,,,,,
,,083571,001,2023-06-06_16h09.59.614,Unsyncopated1,2022.2.5,Win32,60.60238773,,,,,,,,,,,,,,,,,,,,,,,,,space,1.2178,0,1,1,2,1,Online_conjL1_un//bTA26.888.wav,888,,,,,,,,,,,,,,,,,,,,,,,,,,,,,,,,,
,,083571,001,2023-06-06_16h09.59.614,Unsyncopated1,2022.2.5,Win32,60.60238773,,,,,,,,,,,,,,,,,,,,,,,,,space,0.6688,0,2,2,0,1,Online_conjL1_un//bTA24.0.wav,0,,,,,,,,,,,,,,,,,,,,,,,,,,,,,,,,,
,,083571,001,2023-06-06_16h09.59.614,Unsyncopated1,2022.2.5,Win32,60.60238773,,,,,,,,,,,,,,,,,,,,,,,,,,,0,3,3,1,1,Online_conjL1_un//bTA25.none.wav,none,,,,,,,,,,,,,,,,,,,,,,,,,,,,,,,,,
,,083571,001,2023-06-06_16h09.59.614,Unsyncopated1,2022.2.5,Win32,60.60238773,,,,,,,,,,,,,,,,,,,,,,,,,,,,,,,,,,0,5,5,28,1,ta,56:60,blue,,,,,,,,,,,,,,,,,,,,,,,,,
,,083571,001,2023-06-06_16h09.59.614,Unsyncopated1,2022.2.5,Win32,60.60238773,,,,,,,,,,,,,,,,,,,,,,,,,,,0,0,0,2,1,Online_conjL1_un//cRO6.none.wav,none,,,,,,,,,,,,,,,,,,,,,,,,,,,,,,,,,
,,083571,001,2023-06-06_16h09.59.614,Unsyncopated1,2022.2.5,Win32,60.60238773,,,,,,,,,,,,,,,,,,,,,,,,,,,0,1,1,1,1,Online_conjL1_un//cRO5.none.wav,none,,,,,,,,,,,,,,,,,,,,,,,,,,,,,,,,,
,,083571,001,2023-06-06_16h09.59.614,Unsyncopated1,2022.2.5,Win32,60.60238773,,,,,,,,,,,,,,,,,,,,,,,,,,,0,2,2,3,1,Online_conjL1_un//cRO7.222.wav,222,,,,,,,,,,,,,,,,,,,,,,,,,,,,,,,,,
,,083571,001,2023-06-06_16h09.59.614,Unsyncopated1,2022.2.5,Win32,60.60238773,,,,,,,,,,,,,,,,,,,,,,,,,,,0,3,3,0,1,Online_conjL1_un//cRO4.none.wav,none,,,,,,,,,,,,,,,,,,,,,,,,,,,,,,,,,
,,083571,001,2023-06-06_16h09.59.614,Unsyncopated1,2022.2.5,Win32,60.60238773,,,,,,,,,,,,,,,,,,,,,,,,,,,,,,,,,,0,6,6,9,1,ro,68:72,green,,,,,,,,,,,,,,,,,,,,,,,,,
,,083571,001,2023-06-06_16h09.59.614,Unsyncopated1,2022.2.5,Win32,60.60238773,,,,,,,,,,,,,,,,,,,,,,,,,,,0,0,0,1,1,Online_conjL1_un//cRO25.none.wav,none,,,,,,,,,,,,,,,,,,,,,,,,,,,,,,,,,
,,083571,001,2023-06-06_16h09.59.614,Unsyncopated1,2022.2.5,Win32,60.60238773,,,,,,,,,,,,,,,,,,,,,,,,,,,0,1,1,0,1,Online_conjL1_un//cRO24.444.wav,444,,,,,,,,,,,,,,,,,,,,,,,,,,,,,,,,,
,,083571,001,2023-06-06_16h09.59.614,Unsyncopated1,2022.2.5,Win32,60.60238773,,,,,,,,,,,,,,,,,,,,,,,,,,,0,2,2,2,1,Online_conjL1_un//cRO26.none.wav,none,,,,,,,,,,,,,,,,,,,,,,,,,,,,,,,,,
,,083571,001,2023-06-06_16h09.59.614,Unsyncopated1,2022.2.5,Win32,60.60238773,,,,,,,,,,,,,,,,,,,,,,,,,space,0.8013,0,3,3,3,1,Online_conjL1_un//cRO27.222.wav,222,,,,,,,,,,,,,,,,,,,,,,,,,,,,,,,,,
,,083571,001,2023-06-06_16h09.59.614,Unsyncopated1,2022.2.5,Win32,60.60238773,,,,,,,,,,,,,,,,,,,,,,,,,,,,,,,,,,0,7,7,20,1,ro,88:92,green,,,,,,,,,,,,,,,,,,,,,,,,,
,,083571,001,2023-06-06_16h09.59.614,Unsyncopated1,2022.2.5,Win32,60.60238773,,,,,,,,,,,,,,,,,,,,,,,,,space,1.0374,0,0,0,1,1,Online_conjL1_un//dNE1.444.wav,444,,,,,,,,,,,,,,,,,,,,,,,,,,,,,,,,,
,,083571,001,2023-06-06_16h09.59.614,Unsyncopated1,2022.2.5,Win32,60.60238773,,,,,,,,,,,,,,,,,,,,,,,,,,,0,1,1,3,1,Online_conjL1_un//dNE3.222.wav,222,,,,,,,,,,,,,,,,,,,,,,,,,,,,,,,,,
,,083571,001,2023-06-06_16h09.59.614,Unsyncopated1,2022.2.5,Win32,60.60238773,,,,,,,,,,,,,,,,,,,,,,,,,,,0,2,2,0,1,Online_conjL1_un//dNE0.none.wav,none,,,,,,,,,,,,,,,,,,,,,,,,,,,,,,,,,
,,083571,001,2023-06-06_16h09.59.614,Unsyncopated1,2022.2.5,Win32,60.60238773,,,,,,,,,,,,,,,,,,,,,,,,,space,1.5082,0,3,3,2,1,Online_conjL1_un//dNE2.222.wav,222,,,,,,,,,,,,,,,,,,,,,,,,,,,,,,,,,
,,083571,001,2023-06-06_16h09.59.614,Unsyncopated1,2022.2.5,Win32,60.60238773,,,,,,,,,,,,,,,,,,,,,,,,,,,,,,,,,,0,8,8,8,1,ne,96:100,orange,,,,,,,,,,,,,,,,,,,,,,,,,
,,083571,001,2023-06-06_16h09.59.614,Unsyncopated1,2022.2.5,Win32,60.60238773,,,,,,,,,,,,,,,,,,,,,,,,,,,0,0,0,2,1,Online_conjL1_un//bTA30.none.wav,none,,,,,,,,,,,,,,,,,,,,,,,,,,,,,,,,,
,,083571,001,2023-06-06_16h09.59.614,Unsyncopated1,2022.2.5,Win32,60.60238773,,,,,,,,,,,,,,,,,,,,,,,,,,,0,1,1,3,1,Online_conjL1_un//bTA31.none.wav,none,,,,,,,,,,,,,,,,,,,,,,,,,,,,,,,,,
,,083571,001,2023-06-06_16h09.59.614,Unsyncopated1,2022.2.5,Win32,60.60238773,,,,,,,,,,,,,,,,,,,,,,,,,space,1.3688,0,2,2,0,1,Online_conjL1_un//bTA28.888.wav,888,,,,,,,,,,,,,,,,,,,,,,,,,,,,,,,,,
,,083571,001,2023-06-06_16h09.59.614,Unsyncopated1,2022.2.5,Win32,60.60238773,,,,,,,,,,,,,,,,,,,,,,,,,space,1.4035,0,3,3,1,1,Online_conjL1_un//bTA29.888.wav,888,,,,,,,,,,,,,,,,,,,,,,,,,,,,,,,,,
,,083571,001,2023-06-06_16h09.59.614,Unsyncopated1,2022.2.5,Win32,60.60238773,,,,,,,,,,,,,,,,,,,,,,,,,,,,,,,,,,0,9,9,25,1,ta,60:64,blue,,,,,,,,,,,,,,,,,,,,,,,,,
,,083571,001,2023-06-06_16h09.59.614,Unsyncopated1,2022.2.5,Win32,60.60238773,,,,,,,,,,,,,,,,,,,,,,,,,,,0,0,0,1,1,Online_conjL1_un//aKI5.none.wav,none,,,,,,,,,,,,,,,,,,,,,,,,,,,,,,,,,
,,083571,001,2023-06-06_16h09.59.614,Unsyncopated1,2022.2.5,Win32,60.60238773,,,,,,,,,,,,,,,,,,,,,,,,,,,0,1,1,2,1,Online_conjL1_un//aKI6.1776.wav,1776,,,,,,,,,,,,,,,,,,,,,,,,,,,,,,,,,
,,083571,001,2023-06-06_16h09.59.614,Unsyncopated1,2022.2.5,Win32,60.60238773,,,,,,,,,,,,,,,,,,,,,,,,,,,0,2,2,0,1,Online_conjL1_un//aKI4.none.wav,none,,,,,,,,,,,,,,,,,,,,,,,,,,,,,,,,,
,,083571,001,2023-06-06_16h09.59.614,Unsyncopated1,2022.2.5,Win32,60.60238773,,,,,,,,,,,,,,,,,,,,,,,,,,,0,3,3,3,1,Online_conjL1_un//aKI7.none.wav,none,,,,,,,,,,,,,,,,,,,,,,,,,,,,,,,,,
,,083571,001,2023-06-06_16h09.59.614,Unsyncopated1,2022.2.5,Win32,60.60238773,,,,,,,,,,,,,,,,,,,,,,,,,,,,,,,,,,0,10,10,29,1,ki,4:8,red,,,,,,,,,,,,,,,,,,,,,,,,,
,,083571,001,2023-06-06_16h09.59.614,Unsyncopated1,2022.2.5,Win32,60.60238773,,,,,,,,,,,,,,,,,,,,,,,,,space,0.9484,0,0,0,3,1,Online_conjL1_un//cRO11.444.wav,444,,,,,,,,,,,,,,,,,,,,,,,,,,,,,,,,,
,,083571,001,2023-06-06_16h09.59.614,Unsyncopated1,2022.2.5,Win32,60.60238773,,,,,,,,,,,,,,,,,,,,,,,,,,,0,1,1,0,1,Online_conjL1_un//cRO8.none.wav,none,,,,,,,,,,,,,,,,,,,,,,,,,,,,,,,,,
,,083571,001,2023-06-06_16h09.59.614,Unsyncopated1,2022.2.5,Win32,60.60238773,,,,,,,,,,,,,,,,,,,,,,,,,,,0,2,2,2,1,Online_conjL1_un//cRO10.none.wav,none,,,,,,,,,,,,,,,,,,,,,,,,,,,,,,,,,
,,083571,001,2023-06-06_16h09.59.614,Unsyncopated1,2022.2.5,Win32,60.60238773,,,,,,,,,,,,,,,,,,,,,,,,,space,2.1542,0,3,3,1,1,Online_conjL1_un//cRO9.1776.wav,1776,,,,,,,,,,,,,,,,,,,,,,,,,,,,,,,,,
,,083571,001,2023-06-06_16h09.59.614,Unsyncopated1,2022.2.5,Win32,60.60238773,,,,,,,,,,,,,,,,,,,,,,,,,,,,,,,,,,0,11,11,12,1,ro,72:76,green,,,,,,,,,,,,,,,,,,,,,,,,,
,,083571,001,2023-06-06_16h09.59.614,Unsyncopated1,2022.2.5,Win32,60.60238773,,,,,,,,,,,,,,,,,,,,,,,,,,,0,0,0,0,1,Online_conjL1_un//cRO16.none.wav,none,,,,,,,,,,,,,,,,,,,,,,,,,,,,,,,,,
,,083571,001,2023-06-06_16h09.59.614,Unsyncopated1,2022.2.5,Win32,60.60238773,,,,,,,,,,,,,,,,,,,,,,,,,space,0.6363,0,1,1,1,1,Online_conjL1_un//cRO17.222.wav,222,,,,,,,,,,,,,,,,,,,,,,,,,,,,,,,,,
,,083571,001,2023-06-06_16h09.59.614,Unsyncopated1,2022.2.5,Win32,60.60238773,,,,,,,,,,,,,,,,,,,,,,,,,,,0,2,2,2,1,Online_conjL1_un//cRO18.1110.wav,1110,,,,,,,,,,,,,,,,,,,,,,,,,,,,,,,,,
,,083571,001,2023-06-06_16h09.59.614,Unsyncopated1,2022.2.5,Win32,60.60238773,,,,,,,,,,,,,,,,,,,,,,,,,,,0,3,3,3,1,Online_conjL1_un//cRO19.none.wav,none,,,,,,,,,,,,,,,,,,,,,,,,,,,,,,,,,
,,083571,001,2023-06-06_16h09.59.614,Unsyncopated1,2022.2.5,Win32,60.60238773,,,,,,,,,,,,,,,,,,,,,,,,,,,,,,,,,,0,12,12,26,1,ro,80:84,green,,,,,,,,,,,,,,,,,,,,,,,,,
,,083571,001,2023-06-06_16h09.59.614,Unsyncopated1,2022.2.5,Win32,60.60238773,,,,,,,,,,,,,,,,,,,,,,,,,,,0,0,0,1,1,Online_conjL1_un//bTA9.0.wav,0,,,,,,,,,,,,,,,,,,,,,,,,,,,,,,,,,
,,083571,001,2023-06-06_16h09.59.614,Unsyncopated1,2022.2.5,Win32,60.60238773,,,,,,,,,,,,,,,,,,,,,,,,,,,0,1,1,3,1,Online_conjL1_un//bTA11.none.wav,none,,,,,,,,,,,,,,,,,,,,,,,,,,,,,,,,,
,,083571,001,2023-06-06_16h09.59.614,Unsyncopated1,2022.2.5,Win32,60.60238773,,,,,,,,,,,,,,,,,,,,,,,,,,,0,2,2,2,1,Online_conjL1_un//bTA10.888.wav,888,,,,,,,,,,,,,,,,,,,,,,,,,,,,,,,,,
,,083571,001,2023-06-06_16h09.59.614,Unsyncopated1,2022.2.5,Win32,60.60238773,,,,,,,,,,,,,,,,,,,,,,,,,,,0,3,3,0,1,Online_conjL1_un//bTA8.none.wav,none,,,,,,,,,,,,,,,,,,,,,,,,,,,,,,,,,
,,083571,001,2023-06-06_16h09.59.614,Unsyncopated1,2022.2.5,Win32,60.60238773,,,,,,,,,,,,,,,,,,,,,,,,,,,,,,,,,,0,13,13,23,1,ta,40:44,blue,,,,,,,,,,,,,,,,,,,,,,,,,
,,083571,001,2023-06-06_16h09.59.614,Unsyncopated1,2022.2.5,Win32,60.60238773,,,,,,,,,,,,,,,,,,,,,,,,,,,0,0,0,2,1,Online_conjL1_un//cRO14.none.wav,none,,,,,,,,,,,,,,,,,,,,,,,,,,,,,,,,,
,,083571,001,2023-06-06_16h09.59.614,Unsyncopated1,2022.2.5,Win32,60.60238773,,,,,,,,,,,,,,,,,,,,,,,,,space,1.231,0,1,1,3,1,Online_conjL1_un//cRO15.none.wav,none,,,,,,,,,,,,,,,,,,,,,,,,,,,,,,,,,
,,083571,001,2023-06-06_16h09.59.614,Unsyncopated1,2022.2.5,Win32,60.60238773,,,,,,,,,,,,,,,,,,,,,,,,,,,0,2,2,0,1,Online_conjL1_un//cRO12.1110.wav,1110,,,,,,,,,,,,,,,,,,,,,,,,,,,,,,,,,
,,083571,001,2023-06-06_16h09.59.614,Unsyncopated1,2022.2.5,Win32,60.60238773,,,,,,,,,,,,,,,,,,,,,,,,,,,0,3,3,1,1,Online_conjL1_un//cRO13.none.wav,none,,,,,,,,,,,,,,,,,,,,,,,,,,,,,,,,,
,,083571,001,2023-06-06_16h09.59.614,Unsyncopated1,2022.2.5,Win32,60.60238773,,,,,,,,,,,,,,,,,,,,,,,,,,,,,,,,,,0,14,14,10,1,ro,76:80,green,,,,,,,,,,,,,,,,,,,,,,,,,
,,083571,001,2023-06-06_16h09.59.614,Unsyncopated1,2022.2.5,Win32,60.60238773,,,,,,,,,,,,,,,,,,,,,,,,,,,0,0,0,3,1,Online_conjL1_un//aKI11.none.wav,none,,,,,,,,,,,,,,,,,,,,,,,,,,,,,,,,,
,,083571,001,2023-06-06_16h09.59.614,Unsyncopated1,2022.2.5,Win32,60.60238773,,,,,,,,,,,,,,,,,,,,,,,,,,,0,1,1,1,1,Online_conjL1_un//aKI9.1776.wav,1776,,,,,,,,,,,,,,,,,,,,,,,,,,,,,,,,,
,,083571,001,2023-06-06_16h09.59.614,Unsyncopated1,2022.2.5,Win32,60.60238773,,,,,,,,,,,,,,,,,,,,,,,,,,,0,2,2,0,1,Online_conjL1_un//aKI8.none.wav,none,,,,,,,,,,,,,,,,,,,,,,,,,,,,,,,,,
,,083571,001,2023-06-06_16h09.59.614,Unsyncopated1,2022.2.5,Win32,60.60238773,,,,,,,,,,,,,,,,,,,,,,,,,space,2.0357,0,3,3,2,1,Online_conjL1_un//aKI10.888.wav,888,,,,,,,,,,,,,,,,,,,,,,,,,,,,,,,,,
,,083571,001,2023-06-06_16h09.59.614,Unsyncopated1,2022.2.5,Win32,60.60238773,,,,,,,,,,,,,,,,,,,,,,,,,,,,,,,,,,0,15,15,2,1,ki,8:12,red,,,,,,,,,,,,,,,,,,,,,,,,,
,,083571,001,2023-06-06_16h09.59.614,Unsyncopated1,2022.2.5,Win32,60.60238773,,,,,,,,,,,,,,,,,,,,,,,,,,,0,0,0,2,1,Online_conjL1_un//bTA6.none.wav,none,,,,,,,,,,,,,,,,,,,,,,,,,,,,,,,,,
,,083571,001,2023-06-06_16h09.59.614,Unsyncopated1,2022.2.5,Win32,60.60238773,,,,,,,,,,,,,,,,,,,,,,,,,,,0,1,1,0,1,Online_conjL1_un//bTA4.none.wav,none,,,,,,,,,,,,,,,,,,,,,,,,,,,,,,,,,
,,083571,001,2023-06-06_16h09.59.614,Unsyncopated1,2022.2.5,Win32,60.60238773,,,,,,,,,,,,,,,,,,,,,,,,,space,1.454,0,2,2,3,1,Online_conjL1_un//bTA7.888.wav,888,,,,,,,,,,,,,,,,,,,,,,,,,,,,,,,,,
,,083571,001,2023-06-06_16h09.59.614,Unsyncopated1,2022.2.5,Win32,60.60238773,,,,,,,,,,,,,,,,,,,,,,,,,,,0,3,3,1,1,Online_conjL1_un//bTA5.888.wav,888,,,,,,,,,,,,,,,,,,,,,,,,,,,,,,,,,
,,083571,001,2023-06-06_16h09.59.614,Unsyncopated1,2022.2.5,Win32,60.60238773,,,,,,,,,,,,,,,,,,,,,,,,,,,,,,,,,,0,16,16,15,1,ta,36:40,blue,,,,,,,,,,,,,,,,,,,,,,,,,
,,083571,001,2023-06-06_16h09.59.614,Unsyncopated1,2022.2.5,Win32,60.60238773,,,,,,,,,,,,,,,,,,,,,,,,,space,0.5667,0,0,0,1,1,Online_conjL1_un//cRO29.0.wav,0,,,,,,,,,,,,,,,,,,,,,,,,,,,,,,,,,
,,083571,001,2023-06-06_16h09.59.614,Unsyncopated1,2022.2.5,Win32,60.60238773,,,,,,,,,,,,,,,,,,,,,,,,,space,0.9334,0,1,1,3,1,Online_conjL1_un//cRO31.222.wav,222,,,,,,,,,,,,,,,,,,,,,,,,,,,,,,,,,
,,083571,001,2023-06-06_16h09.59.614,Unsyncopated1,2022.2.5,Win32,60.60238773,,,,,,,,,,,,,,,,,,,,,,,,,space,1.4027,0,2,2,2,1,Online_conjL1_un//cRO30.none.wav,none,,,,,,,,,,,,,,,,,,,,,,,,,,,,,,,,,
,,083571,001,2023-06-06_16h09.59.614,Unsyncopated1,2022.2.5,Win32,60.60238773,,,,,,,,,,,,,,,,,,,,,,,,,space,1.0556,0,3,3,0,1,Online_conjL1_un//cRO28.444.wav,444,,,,,,,,,,,,,,,,,,,,,,,,,,,,,,,,,
,,083571,001,2023-06-06_16h09.59.614,Unsyncopated1,2022.2.5,Win32,60.60238773,,,,,,,,,,,,,,,,,,,,,,,,,,,,,,,,,,0,17,17,18,1,ro,92:96,green,,,,,,,,,,,,,,,,,,,,,,,,,
,,083571,001,2023-06-06_16h09.59.614,Unsyncopated1,2022.2.5,Win32,60.60238773,,,,,,,,,,,,,,,,,,,,,,,,,space,0.5778,0,0,0,1,1,Online_conjL1_un//bTA13.none.wav,none,,,,,,,,,,,,,,,,,,,,,,,,,,,,,,,,,
,,083571,001,2023-06-06_16h09.59.614,Unsyncopated1,2022.2.5,Win32,60.60238773,,,,,,,,,,,,,,,,,,,,,,,,,,,0,1,1,2,1,Online_conjL1_un//bTA14.888.wav,888,,,,,,,,,,,,,,,,,,,,,,,,,,,,,,,,,
,,083571,001,2023-06-06_16h09.59.614,Unsyncopated1,2022.2.5,Win32,60.60238773,,,,,,,,,,,,,,,,,,,,,,,,,,,0,2,2,3,1,Online_conjL1_un//bTA15.0.wav,0,,,,,,,,,,,,,,,,,,,,,,,,,,,,,,,,,
,,083571,001,2023-06-06_16h09.59.614,Unsyncopated1,2022.2.5,Win32,60.60238773,,,,,,,,,,,,,,,,,,,,,,,,,,,0,3,3,0,1,Online_conjL1_un//bTA12.0.wav,0,,,,,,,,,,,,,,,,,,,,,,,,,,,,,,,,,
,,083571,001,2023-06-06_16h09.59.614,Unsyncopated1,2022.2.5,Win32,60.60238773,,,,,,,,,,,,,,,,,,,,,,,,,,,,,,,,,,0,18,18,11,1,ta,44:48,blue,,,,,,,,,,,,,,,,,,,,,,,,,
,,083571,001,2023-06-06_16h09.59.614,Unsyncopated1,2022.2.5,Win32,60.60238773,,,,,,,,,,,,,,,,,,,,,,,,,,,0,0,0,3,1,Online_conjL1_un//bTA23.none.wav,none,,,,,,,,,,,,,,,,,,,,,,,,,,,,,,,,,
,,083571,001,2023-06-06_16h09.59.614,Unsyncopated1,2022.2.5,Win32,60.60238773,,,,,,,,,,,,,,,,,,,,,,,,,,,0,1,1,1,1,Online_conjL1_un//bTA21.0.wav,0,,,,,,,,,,,,,,,,,,,,,,,,,,,,,,,,,
,,083571,001,2023-06-06_16h09.59.614,Unsyncopated1,2022.2.5,Win32,60.60238773,,,,,,,,,,,,,,,,,,,,,,,,,,,0,2,2,2,1,Online_conjL1_un//bTA22.888.wav,888,,,,,,,,,,,,,,,,,,,,,,,,,,,,,,,,,
,,083571,001,2023-06-06_16h09.59.614,Unsyncopated1,2022.2.5,Win32,60.60238773,,,,,,,,,,,,,,,,,,,,,,,,,,,0,3,3,0,1,Online_conjL1_un//bTA20.0.wav,0,,,,,,,,,,,,,,,,,,,,,,,,,,,,,,,,,
,,083571,001,2023-06-06_16h09.59.614,Unsyncopated1,2022.2.5,Win32,60.60238773,,,,,,,,,,,,,,,,,,,,,,,,,,,,,,,,,,0,19,19,31,1,ta,52:56,blue,,,,,,,,,,,,,,,,,,,,,,,,,
,,083571,001,2023-06-06_16h09.59.614,Unsyncopated1,2022.2.5,Win32,60.60238773,,,,,,,,,,,,,,,,,,,,,,,,,,,0,0,0,1,1,Online_conjL1_un//aKI1.1776.wav,1776,,,,,,,,,,,,,,,,,,,,,,,,,,,,,,,,,
,,083571,001,2023-06-06_16h09.59.614,Unsyncopated1,2022.2.5,Win32,60.60238773,,,,,,,,,,,,,,,,,,,,,,,,,,,0,1,1,3,1,Online_conjL1_un//aKI3.none.wav,none,,,,,,,,,,,,,,,,,,,,,,,,,,,,,,,,,
,,083571,001,2023-06-06_16h09.59.614,Unsyncopated1,2022.2.5,Win32,60.60238773,,,,,,,,,,,,,,,,,,,,,,,,,,,0,2,2,0,1,Online_conjL1_un//aKI0.1776.wav,1776,,,,,,,,,,,,,,,,,,,,,,,,,,,,,,,,,
,,083571,001,2023-06-06_16h09.59.614,Unsyncopated1,2022.2.5,Win32,60.60238773,,,,,,,,,,,,,,,,,,,,,,,,,,,0,3,3,2,1,Online_conjL1_un//aKI2.none.wav,none,,,,,,,,,,,,,,,,,,,,,,,,,,,,,,,,,
,,083571,001,2023-06-06_16h09.59.614,Unsyncopated1,2022.2.5,Win32,60.60238773,,,,,,,,,,,,,,,,,,,,,,,,,,,,,,,,,,0,20,20,3,1,ki,0:4,red,,,,,,,,,,,,,,,,,,,,,,,,,
,,083571,001,2023-06-06_16h09.59.614,Unsyncopated1,2022.2.5,Win32,60.60238773,,,,,,,,,,,,,,,,,,,,,,,,,,,0,0,0,3,1,Online_conjL1_un//aKI27.888.wav,888,,,,,,,,,,,,,,,,,,,,,,,,,,,,,,,,,
,,083571,001,2023-06-06_16h09.59.614,Unsyncopated1,2022.2.5,Win32,60.60238773,,,,,,,,,,,,,,,,,,,,,,,,,space,2.0408,0,1,1,0,1,Online_conjL1_un//aKI24.1776.wav,1776,,,,,,,,,,,,,,,,,,,,,,,,,,,,,,,,,
,,083571,001,2023-06-06_16h09.59.614,Unsyncopated1,2022.2.5,Win32,60.60238773,,,,,,,,,,,,,,,,,,,,,,,,,space,2.0889,0,2,2,1,1,Online_conjL1_un//aKI25.none.wav,none,,,,,,,,,,,,,,,,,,,,,,,,,,,,,,,,,
,,083571,001,2023-06-06_16h09.59.614,Unsyncopated1,2022.2.5,Win32,60.60238773,,,,,,,,,,,,,,,,,,,,,,,,,space,1.2482,0,3,3,2,1,Online_conjL1_un//aKI26.888.wav,888,,,,,,,,,,,,,,,,,,,,,,,,,,,,,,,,,
,,083571,001,2023-06-06_16h09.59.614,Unsyncopated1,2022.2.5,Win32,60.60238773,,,,,,,,,,,,,,,,,,,,,,,,,,,,,,,,,,0,21,21,16,1,ki,24:28,red,,,,,,,,,,,,,,,,,,,,,,,,,
,,083571,001,2023-06-06_16h09.59.614,Unsyncopated1,2022.2.5,Win32,60.60238773,,,,,,,,,,,,,,,,,,,,,,,,,space,0.1977,0,0,0,2,1,Online_conjL1_un//dNE30.222.wav,222,,,,,,,,,,,,,,,,,,,,,,,,,,,,,,,,,
,,083571,001,2023-06-06_16h09.59.614,Unsyncopated1,2022.2.5,Win32,60.60238773,,,,,,,,,,,,,,,,,,,,,,,,,,,0,1,1,3,1,Online_conjL1_un//dNE31.none.wav,none,,,,,,,,,,,,,,,,,,,,,,,,,,,,,,,,,
,,083571,001,2023-06-06_16h09.59.614,Unsyncopated1,2022.2.5,Win32,60.60238773,,,,,,,,,,,,,,,,,,,,,,,,,,,0,2,2,0,1,Online_conjL1_un//dNE28.0.wav,0,,,,,,,,,,,,,,,,,,,,,,,,,,,,,,,,,
,,083571,001,2023-06-06_16h09.59.614,Unsyncopated1,2022.2.5,Win32,60.60238773,,,,,,,,,,,,,,,,,,,,,,,,,,,0,3,3,1,1,Online_conjL1_un//dNE29.1110.wav,1110,,,,,,,,,,,,,,,,,,,,,,,,,,,,,,,,,
,,083571,001,2023-06-06_16h09.59.614,Unsyncopated1,2022.2.5,Win32,60.60238773,,,,,,,,,,,,,,,,,,,,,,,,,,,,,,,,,,0,22,22,13,1,ne,124:128,orange,,,,,,,,,,,,,,,,,,,,,,,,,
,,083571,001,2023-06-06_16h09.59.614,Unsyncopated1,2022.2.5,Win32,60.60238773,,,,,,,,,,,,,,,,,,,,,,,,,,,0,0,0,3,1,Online_conjL1_un//dNE27.444.wav,444,,,,,,,,,,,,,,,,,,,,,,,,,,,,,,,,,
,,083571,001,2023-06-06_16h09.59.614,Unsyncopated1,2022.2.5,Win32,60.60238773,,,,,,,,,,,,,,,,,,,,,,,,,,,0,1,1,0,1,Online_conjL1_un//dNE24.none.wav,none,,,,,,,,,,,,,,,,,,,,,,,,,,,,,,,,,
,,083571,001,2023-06-06_16h09.59.614,Unsyncopated1,2022.2.5,Win32,60.60238773,,,,,,,,,,,,,,,,,,,,,,,,,,,0,2,2,2,1,Online_conjL1_un//dNE26.none.wav,none,,,,,,,,,,,,,,,,,,,,,,,,,,,,,,,,,
,,083571,001,2023-06-06_16h09.59.614,Unsyncopated1,2022.2.5,Win32,60.60238773,,,,,,,,,,,,,,,,,,,,,,,,,,,0,3,3,1,1,Online_conjL1_un//dNE25.none.wav,none,,,,,,,,,,,,,,,,,,,,,,,,,,,,,,,,,
,,083571,001,2023-06-06_16h09.59.614,Unsyncopated1,2022.2.5,Win32,60.60238773,,,,,,,,,,,,,,,,,,,,,,,,,,,,,,,,,,0,23,23,19,1,ne,120:124,orange,,,,,,,,,,,,,,,,,,,,,,,,,
,,083571,001,2023-06-06_16h09.59.614,Unsyncopated1,2022.2.5,Win32,60.60238773,,,,,,,,,,,,,,,,,,,,,,,,,,,0,0,0,0,1,Online_conjL1_un//bTA16.none.wav,none,,,,,,,,,,,,,,,,,,,,,,,,,,,,,,,,,
,,083571,001,2023-06-06_16h09.59.614,Unsyncopated1,2022.2.5,Win32,60.60238773,,,,,,,,,,,,,,,,,,,,,,,,,,,0,1,1,3,1,Online_conjL1_un//bTA19.none.wav,none,,,,,,,,,,,,,,,,,,,,,,,,,,,,,,,,,
,,083571,001,2023-06-06_16h09.59.614,Unsyncopated1,2022.2.5,Win32,60.60238773,,,,,,,,,,,,,,,,,,,,,,,,,,,0,2,2,1,1,Online_conjL1_un//bTA17.none.wav,none,,,,,,,,,,,,,,,,,,,,,,,,,,,,,,,,,
,,083571,001,2023-06-06_16h09.59.614,Unsyncopated1,2022.2.5,Win32,60.60238773,,,,,,,,,,,,,,,,,,,,,,,,,,,0,3,3,2,1,Online_conjL1_un//bTA18.none.wav,none,,,,,,,,,,,,,,,,,,,,,,,,,,,,,,,,,
,,083571,001,2023-06-06_16h09.59.614,Unsyncopated1,2022.2.5,Win32,60.60238773,,,,,,,,,,,,,,,,,,,,,,,,,,,,,,,,,,0,24,24,14,1,ta,48:52,blue,,,,,,,,,,,,,,,,,,,,,,,,,
,,083571,001,2023-06-06_16h09.59.614,Unsyncopated1,2022.2.5,Win32,60.60238773,,,,,,,,,,,,,,,,,,,,,,,,,,,0,0,0,1,1,Online_conjL1_un//aKI13.none.wav,none,,,,,,,,,,,,,,,,,,,,,,,,,,,,,,,,,
,,083571,001,2023-06-06_16h09.59.614,Unsyncopated1,2022.2.5,Win32,60.60238773,,,,,,,,,,,,,,,,,,,,,,,,,space,1.215,0,1,1,0,1,Online_conjL1_un//aKI12.888.wav,888,,,,,,,,,,,,,,,,,,,,,,,,,,,,,,,,,
,,083571,001,2023-06-06_16h09.59.614,Unsyncopated1,2022.2.5,Win32,60.60238773,,,,,,,,,,,,,,,,,,,,,,,,,,,0,2,2,2,1,Online_conjL1_un//aKI14.1776.wav,1776,,,,,,,,,,,,,,,,,,,,,,,,,,,,,,,,,
,,083571,001,2023-06-06_16h09.59.614,Unsyncopated1,2022.2.5,Win32,60.60238773,,,,,,,,,,,,,,,,,,,,,,,,,space,0.3007,0,3,3,3,1,Online_conjL1_un//aKI15.none.wav,none,,,,,,,,,,,,,,,,,,,,,,,,,,,,,,,,,
,,083571,001,2023-06-06_16h09.59.614,Unsyncopated1,2022.2.5,Win32,60.60238773,,,,,,,,,,,,,,,,,,,,,,,,,,,,,,,,,,0,25,25,5,1,ki,12:16,red,,,,,,,,,,,,,,,,,,,,,,,,,
,,083571,001,2023-06-06_16h09.59.614,Unsyncopated1,2022.2.5,Win32,60.60238773,,,,,,,,,,,,,,,,,,,,,,,,,,,0,0,0,3,1,Online_conjL1_un//dNE15.none.wav,none,,,,,,,,,,,,,,,,,,,,,,,,,,,,,,,,,
,,083571,001,2023-06-06_16h09.59.614,Unsyncopated1,2022.2.5,Win32,60.60238773,,,,,,,,,,,,,,,,,,,,,,,,,,,0,1,1,2,1,Online_conjL1_un//dNE14.222.wav,222,,,,,,,,,,,,,,,,,,,,,,,,,,,,,,,,,
,,083571,001,2023-06-06_16h09.59.614,Unsyncopated1,2022.2.5,Win32,60.60238773,,,,,,,,,,,,,,,,,,,,,,,,,,,0,2,2,0,1,Online_conjL1_un//dNE12.1776.wav,1776,,,,,,,,,,,,,,,,,,,,,,,,,,,,,,,,,
,,083571,001,2023-06-06_16h09.59.614,Unsyncopated1,2022.2.5,Win32,60.60238773,,,,,,,,,,,,,,,,,,,,,,,,,,,0,3,3,1,1,Online_conjL1_un//dNE13.none.wav,none,,,,,,,,,,,,,,,,,,,,,,,,,,,,,,,,,
,,083571,001,2023-06-06_16h09.59.614,Unsyncopated1,2022.2.5,Win32,60.60238773,,,,,,,,,,,,,,,,,,,,,,,,,,,,,,,,,,0,26,26,1,1,ne,108:112,orange,,,,,,,,,,,,,,,,,,,,,,,,,
,,083571,001,2023-06-06_16h09.59.614,Unsyncopated1,2022.2.5,Win32,60.60238773,,,,,,,,,,,,,,,,,,,,,,,,,space,1.4013,0,0,0,1,1,Online_conjL1_un//aKI17.888.wav,888,,,,,,,,,,,,,,,,,,,,,,,,,,,,,,,,,
,,083571,001,2023-06-06_16h09.59.614,Unsyncopated1,2022.2.5,Win32,60.60238773,,,,,,,,,,,,,,,,,,,,,,,,,space,2.1349,0,1,1,0,1,Online_conjL1_un//aKI16.888.wav,888,,,,,,,,,,,,,,,,,,,,,,,,,,,,,,,,,
,,083571,001,2023-06-06_16h09.59.614,Unsyncopated1,2022.2.5,Win32,60.60238773,,,,,,,,,,,,,,,,,,,,,,,,,,,0,2,2,2,1,Online_conjL1_un//aKI18.none.wav,none,,,,,,,,,,,,,,,,,,,,,,,,,,,,,,,,,
,,083571,001,2023-06-06_16h09.59.614,Unsyncopated1,2022.2.5,Win32,60.60238773,,,,,,,,,,,,,,,,,,,,,,,,,space,1.351,0,3,3,3,1,Online_conjL1_un//aKI19.888.wav,888,,,,,,,,,,,,,,,,,,,,,,,,,,,,,,,,,
,,083571,001,2023-06-06_16h09.59.614,Unsyncopated1,2022.2.5,Win32,60.60238773,,,,,,,,,,,,,,,,,,,,,,,,,,,,,,,,,,0,27,27,22,1,ki,16:20,red,,,,,,,,,,,,,,,,,,,,,,,,,
,,083571,001,2023-06-06_16h09.59.614,Unsyncopated1,2022.2.5,Win32,60.60238773,,,,,,,,,,,,,,,,,,,,,,,,,space,2.359,0,0,0,2,1,Online_conjL1_un//cRO22.0.wav,0,,,,,,,,,,,,,,,,,,,,,,,,,,,,,,,,,
,,083571,001,2023-06-06_16h09.59.614,Unsyncopated1,2022.2.5,Win32,60.60238773,,,,,,,,,,,,,,,,,,,,,,,,,space,1.1348,0,1,1,0,1,Online_conjL1_un//cRO20.0.wav,0,,,,,,,,,,,,,,,,,,,,,,,,,,,,,,,,,
,,083571,001,2023-06-06_16h09.59.614,Unsyncopated1,2022.2.5,Win32,60.60238773,,,,,,,,,,,,,,,,,,,,,,,,,,,0,2,2,3,1,Online_conjL1_un//cRO23.none.wav,none,,,,,,,,,,,,,,,,,,,,,,,,,,,,,,,,,
,,083571,001,2023-06-06_16h09.59.614,Unsyncopated1,2022.2.5,Win32,60.60238773,,,,,,,,,,,,,,,,,,,,,,,,,space,0.0321,0,3,3,1,1,Online_conjL1_un//cRO21.none.wav,none,,,,,,,,,,,,,,,,,,,,,,,,,,,,,,,,,
,,083571,001,2023-06-06_16h09.59.614,Unsyncopated1,2022.2.5,Win32,60.60238773,,,,,,,,,,,,,,,,,,,,,,,,,,,,,,,,,,0,28,28,30,1,ro,84:88,green,,,,,,,,,,,,,,,,,,,,,,,,,
,,083571,001,2023-06-06_16h09.59.614,Unsyncopated1,2022.2.5,Win32,60.60238773,,,,,,,,,,,,,,,,,,,,,,,,,,,0,0,0,2,1,Online_conjL1_un//aKI22.none.wav,none,,,,,,,,,,,,,,,,,,,,,,,,,,,,,,,,,
,,083571,001,2023-06-06_16h09.59.614,Unsyncopated1,2022.2.5,Win32,60.60238773,,,,,,,,,,,,,,,,,,,,,,,,,,,0,1,1,3,1,Online_conjL1_un//aKI23.none.wav,none,,,,,,,,,,,,,,,,,,,,,,,,,,,,,,,,,
,,083571,001,2023-06-06_16h09.59.614,Unsyncopated1,2022.2.5,Win32,60.60238773,,,,,,,,,,,,,,,,,,,,,,,,,,,0,2,2,0,1,Online_conjL1_un//aKI20.none.wav,none,,,,,,,,,,,,,,,,,,,,,,,,,,,,,,,,,
,,083571,001,2023-06-06_16h09.59.614,Unsyncopated1,2022.2.5,Win32,60.60238773,,,,,,,,,,,,,,,,,,,,,,,,,space,1.9132,0,3,3,1,1,Online_conjL1_un//aKI21.1776.wav,1776,,,,,,,,,,,,,,,,,,,,,,,,,,,,,,,,,
,,083571,001,2023-06-06_16h09.59.614,Unsyncopated1,2022.2.5,Win32,60.60238773,,,,,,,,,,,,,,,,,,,,,,,,,,,,,,,,,,0,29,29,17,1,ki,20:24,red,,,,,,,,,,,,,,,,,,,,,,,,,
,,083571,001,2023-06-06_16h09.59.614,Unsyncopated1,2022.2.5,Win32,60.60238773,,,,,,,,,,,,,,,,,,,,,,,,,,,0,0,0,0,1,Online_conjL1_un//dNE16.222.wav,222,,,,,,,,,,,,,,,,,,,,,,,,,,,,,,,,,
,,083571,001,2023-06-06_16h09.59.614,Unsyncopated1,2022.2.5,Win32,60.60238773,,,,,,,,,,,,,,,,,,,,,,,,,,,0,1,1,3,1,Online_conjL1_un//dNE19.none.wav,none,,,,,,,,,,,,,,,,,,,,,,,,,,,,,,,,,
,,083571,001,2023-06-06_16h09.59.614,Unsyncopated1,2022.2.5,Win32,60.60238773,,,,,,,,,,,,,,,,,,,,,,,,,,,0,2,2,1,1,Online_conjL1_un//dNE17.none.wav,none,,,,,,,,,,,,,,,,,,,,,,,,,,,,,,,,,
,,083571,001,2023-06-06_16h09.59.614,Unsyncopated1,2022.2.5,Win32,60.60238773,,,,,,,,,,,,,,,,,,,,,,,,,,,0,3,3,2,1,Online_conjL1_un//dNE18.none.wav,none,,,,,,,,,,,,,,,,,,,,,,,,,,,,,,,,,
,,083571,001,2023-06-06_16h09.59.614,Unsyncopated1,2022.2.5,Win32,60.60238773,,,,,,,,,,,,,,,,,,,,,,,,,,,,,,,,,,0,30,30,27,1,ne,112:116,orange,,,,,,,,,,,,,,,,,,,,,,,,,
,,083571,001,2023-06-06_16h09.59.614,Unsyncopated1,2022.2.5,Win32,60.60238773,,,,,,,,,,,,,,,,,,,,,,,,,space,1.9006,0,0,0,0,1,Online_conjL1_un//dNE8.1110.wav,1110,,,,,,,,,,,,,,,,,,,,,,,,,,,,,,,,,
,,083571,001,2023-06-06_16h09.59.614,Unsyncopated1,2022.2.5,Win32,60.60238773,,,,,,,,,,,,,,,,,,,,,,,,,space,2.075,0,1,1,3,1,Online_conjL1_un//dNE11.1332.wav,1332,,,,,,,,,,,,,,,,,,,,,,,,,,,,,,,,,
,,083571,001,2023-06-06_16h09.59.614,Unsyncopated1,2022.2.5,Win32,60.60238773,,,,,,,,,,,,,,,,,,,,,,,,,,,0,2,2,1,1,Online_conjL1_un//dNE9.none.wav,none,,,,,,,,,,,,,,,,,,,,,,,,,,,,,,,,,
,,083571,001,2023-06-06_16h09.59.614,Unsyncopated1,2022.2.5,Win32,60.60238773,,,,,,,,,,,,,,,,,,,,,,,,,,,0,3,3,2,1,Online_conjL1_un//dNE10.none.wav,none,,,,,,,,,,,,,,,,,,,,,,,,,,,,,,,,,
,,083571,001,2023-06-06_16h09.59.614,Unsyncopated1,2022.2.5,Win32,60.60238773,,,,,,,,,,,,,,,,,,,,,,,,,,,,,,,,,,0,31,31,21,1,ne,104:108,orange,,,,,,,,,,,,,,,,,,,,,,,,,
,,083571,001,2023-06-06_16h09.59.614,Unsyncopated1,2022.2.5,Win32,60.60238773,,,,,,,,,,,,,,,,,,,,,,,,,,,,,,,,,,,,,,,,,,space,0.6722,space,0.5595,z,1.1634,2,0.3679,0,0,0,14,1,testConjL1Uns//r2.s1.0.wav,,,,,,,,,,,
,,083571,001,2023-06-06_16h09.59.614,Unsyncopated1,2022.2.5,Win32,60.60238773,,,,,,,,,,,,,,,,,,,,,,,,,,,,,,,,,,,,,,,,,,,,,,z,0.3507,2,0.1549,0,1,1,1,1,testConjL1Uns//cat_viol.r1.s2.0.wav,,,,,,,,,,,
,,083571,001,2023-06-06_16h09.59.614,Unsyncopated1,2022.2.5,Win32,60.60238773,,,,,,,,,,,,,,,,,,,,,,,,,,,,,,,,,,,,,,,,,,,,,,z,0.237,2,0.1504,0,2,2,0,1,testConjL1Uns//cat_viol.r1.s1.0.wav,,,,,,,,,,,
,,083571,001,2023-06-06_16h09.59.614,Unsyncopated1,2022.2.5,Win32,60.60238773,,,,,,,,,,,,,,,,,,,,,,,,,,,,,,,,,,,,,,,,,,,,,,z,0.4017,2,0.1694,0,3,3,18,1,testConjL1Uns//r2.s2.1.wav,,,,,,,,,,,
,,083571,001,2023-06-06_16h09.59.614,Unsyncopated1,2022.2.5,Win32,60.60238773,,,,,,,,,,,,,,,,,,,,,,,,,,,,,,,,,,,,,,,,,,,,,,z,0.5679,2,0.2026,0,4,4,20,1,testConjL1Uns//time_viol.r1.s1.0.wav,,,,,,,,,,,
,,083571,001,2023-06-06_16h09.59.614,Unsyncopated1,2022.2.5,Win32,60.60238773,,,,,,,,,,,,,,,,,,,,,,,,,,,,,,,,,,,,,,,,,,,,,,z,0.0503,2,0.2153,0,5,5,11,1,testConjL1Uns//r1.s2.0.wav,,,,,,,,,,,
,,083571,001,2023-06-06_16h09.59.614,Unsyncopated1,2022.2.5,Win32,60.60238773,,,,,,,,,,,,,,,,,,,,,,,,,,,,,,,,,,,,,,,,,,,,,,z,0.2997,2,0.2184,0,6,6,16,1,testConjL1Uns//r2.s1.2.wav,,,,,,,,,,,
,,083571,001,2023-06-06_16h09.59.614,Unsyncopated1,2022.2.5,Win32,60.60238773,,,,,,,,,,,,,,,,,,,,,,,,,,,,,,,,,,,,,,,,,,,,,,z,0.2868,2,0.1672,0,7,7,5,1,testConjL1Uns//dep_viol.r1.s2.0.wav,,,,,,,,,,,
,,083571,001,2023-06-06_16h09.59.614,Unsyncopated1,2022.2.5,Win32,60.60238773,,,,,,,,,,,,,,,,,,,,,,,,,,,,,,,,,,,,,,,,,,,,,,z,0.2512,2,0.1678,0,8,8,10,1,testConjL1Uns//r1.s1.2.wav,,,,,,,,,,,
,,083571,001,2023-06-06_16h09.59.614,Unsyncopated1,2022.2.5,Win32,60.60238773,,,,,,,,,,,,,,,,,,,,,,,,,,,,,,,,,,,,,,,,,,,,,,z,0.4147,2,0.1708,0,9,9,19,1,testConjL1Uns//r2.s2.2.wav,,,,,,,,,,,
,,083571,001,2023-06-06_16h09.59.614,Unsyncopated1,2022.2.5,Win32,60.60238773,,,,,,,,,,,,,,,,,,,,,,,,,,,,,,,,,,,,,,,,,,,,,,z,0.3841,2,0.1515,0,10,10,12,1,testConjL1Uns//r1.s2.1.wav,,,,,,,,,,,
,,083571,001,2023-06-06_16h09.59.614,Unsyncopated1,2022.2.5,Win32,60.60238773,,,,,,,,,,,,,,,,,,,,,,,,,,,,,,,,,,,,,,,,,,,,,,z,0.4687,2,0.2184,0,11,11,6,1,testConjL1Uns//dep_viol.r2.s1.0.wav,,,,,,,,,,,
,,083571,001,2023-06-06_16h09.59.614,Unsyncopated1,2022.2.5,Win32,60.60238773,,,,,,,,,,,,,,,,,,,,,,,,,,,,,,,,,,,,,,,,,,,,,,z,0.4447,2,0.1852,0,12,12,17,1,testConjL1Uns//r2.s2.0.wav,,,,,,,,,,,
,,083571,001,2023-06-06_16h09.59.614,Unsyncopated1,2022.2.5,Win32,60.60238773,,,,,,,,,,,,,,,,,,,,,,,,,,,,,,,,,,,,,,,,,,,,,,z,0.5346,2,0.2012,0,13,13,3,1,testConjL1Uns//cat_viol.r2.s2.0.wav,,,,,,,,,,,
,,083571,001,2023-06-06_16h09.59.614,Unsyncopated1,2022.2.5,Win32,60.60238773,,,,,,,,,,,,,,,,,,,,,,,,,,,,,,,,,,,,,,,,,,,,,,z,0.3187,2,0.1498,0,14,14,21,1,testConjL1Uns//time_viol.r1.s2.0.wav,,,,,,,,,,,
,,083571,001,2023-06-06_16h09.59.614,Unsyncopated1,2022.2.5,Win32,60.60238773,,,,,,,,,,,,,,,,,,,,,,,,,,,,,,,,,,,,,,,,,,,,,,z,0.1857,2,0.1669,0,15,15,4,1,testConjL1Uns//dep_viol.r1.s1.0.wav,,,,,,,,,,,
,,083571,001,2023-06-06_16h09.59.614,Unsyncopated1,2022.2.5,Win32,60.60238773,,,,,,,,,,,,,,,,,,,,,,,,,,,,,,,,,,,,,,,,,,,,,,z,0.1339,2,0.1354,0,16,16,22,1,testConjL1Uns//time_viol.r2.s1.0.wav,,,,,,,,,,,
,,083571,001,2023-06-06_16h09.59.614,Unsyncopated1,2022.2.5,Win32,60.60238773,,,,,,,,,,,,,,,,,,,,,,,,,,,,,,,,,,,,,,,,,,,,,,z,0.0343,2,0.1965,0,17,17,2,1,testConjL1Uns//cat_viol.r2.s1.0.wav,,,,,,,,,,,
,,083571,001,2023-06-06_16h09.59.614,Unsyncopated1,2022.2.5,Win32,60.60238773,,,,,,,,,,,,,,,,,,,,,,,,,,,,,,,,,,,,,,,,,,,,,,z,0.5575,2,0.1724,0,18,18,15,1,testConjL1Uns//r2.s1.1.wav,,,,,,,,,,,
,,083571,001,2023-06-06_16h09.59.614,Unsyncopated1,2022.2.5,Win32,60.60238773,,,,,,,,,,,,,,,,,,,,,,,,,,,,,,,,,,,,,,,,,,,,,,z,0.5521,2,0.1398,0,19,19,13,1,testConjL1Uns//r1.s2.2.wav,,,,,,,,,,,
,,083571,001,2023-06-06_16h09.59.614,Unsyncopated1,2022.2.5,Win32,60.60238773,,,,,,,,,,,,,,,,,,,,,,,,,,,,,,,,,,,,,,,,,,,,,,z,0.8026,2,0.201,0,20,20,8,1,testConjL1Uns//r1.s1.0.wav,,,,,,,,,,,
,,083571,001,2023-06-06_16h09.59.614,Unsyncopated1,2022.2.5,Win32,60.60238773,,,,,,,,,,,,,,,,,,,,,,,,,,,,,,,,,,,,,,,,,,,,,,z,0.4857,2,0.1674,0,21,21,9,1,testConjL1Uns//r1.s1.1.wav,,,,,,,,,,,
,,083571,001,2023-06-06_16h09.59.614,Unsyncopated1,2022.2.5,Win32,60.60238773,,,,,,,,,,,,,,,,,,,,,,,,,,,,,,,,,,,,,,,,,,,,,,z,0.2201,2,0.1338,0,22,22,23,1,testConjL1Uns//time_viol.r2.s2.0.wav,,,,,,,,,,,
,,083571,001,2023-06-06_16h09.59.614,Unsyncopated1,2022.2.5,Win32,60.60238773,,,,,,,,,,,,,,,,,,,,,,,,,,,,,,,,,,,,,,,,,,,,,,z,0.0174,2,0.1855,0,23,23,7,1,testConjL1Uns//dep_viol.r2.s2.0.wav,,,,,,,,,,,
,,083571,001,2023-06-06_16h09.59.614,Unsyncopated1,2022.2.5,Win32,60.60238773,,,,,,,,,,,,,,,,,,,,,,,,,,,,,,,,,,,,,,,,,,,,,,,,,,,,,,,,space,2.0646,0,0,0,0,1,ConjL1_uns.csv,dir_Online_conjL1_un.csv,Test_Conj_UnsyncL1.csv,ConjL1_unsync.wav
