seq,online_dir,test_dir,audio_offline,cond,ord,colour,dirs,time,test,dirs_what,trials.thisRepN,trials.thisTrialN,trials.thisN,trials.thisIndex,Conj_unsync_online.thisRepN,Conj_unsync_online.thisTrialN,Conj_unsync_online.thisN,Conj_unsync_online.thisIndex,audio1.thisRepN,audio1.thisTrialN,audio1.thisN,audio1.thisIndex,Conj_unsync_test.thisRepN,Conj_unsync_test.thisTrialN,Conj_unsync_test.thisN,Conj_unsync_test.thisIndex,text_21.started,key_resp1.started,key_resp1.keys,key_resp1.rt,text_23.started,key_resp_6.started,key_resp_6.keys,key_resp_6.rt,text_26.started,key_resp_10.started,key_resp_10.keys,key_resp_10.rt,volume_set.started,key_ressp2.started,text_27.started,key_ressp2.keys,key_ressp2.rt,text_24.started,key_resp_9.started,key_resp_9.keys,key_resp_9.rt,text_22.started,key_resp1_2.started,key_resp1_2.keys,key_resp1_2.rt,text_25.started,key_resp1_3.started,key_resp1_3.keys,key_resp1_3.rt,text_28.started,key_resp_11.started,key_resp_11.keys,key_resp_11.rt,text_29.started,key_resp_12.started,key_resp_12.keys,key_resp_12.rt,text_36.started,key_resp_18.started,key_resp_18.keys,key_resp_18.rt,learning.started,text_19.started,key_resp_7.started,key_resp_7.keys,key_resp_7.rt,text_31.started,key_resp1_4.started,key_resp1_4.keys,key_resp1_4.rt,text_2.started,text_2.stopped,seqs.started,text_13.started,syllable_catch.started,key_resp_3.started,syllable_catch.keys,key_resp_3.keys,key_resp_3.rt,text_12.started,key_resp4.started,key_resp4.keys,key_resp4.rt,text_14.started,key_resp_4.started,key_resp_4.keys,key_resp_4.rt,text_15.started,key_resp_5.started,key_resp_5.keys,key_resp_5.rt,text_17.started,key_resp_16.started,test_sounds.started,text_17.stopped,key_resp_16.keys,key_resp_16.rt,text_18.started,Partz_no_partm.started,Partz_no_partm.keys,Partz_no_partm.rt,text_32.started,image_2.started,text_33.started,security_1_7.started,security_1_7.keys,security_1_7.rt,text_30.started,key_resp_13.started,key_resp_13.keys,key_resp_13.rt,syllable_catch.rt,participant,session,date,expName,psychopyVersion,frameRate,
,,,,,,,,,,,,,,,,,,,,,,,,,,,30.491106900008162,30.491106900008162,space,1.2968856999941636,,,,,,,,,,,,,,,,,,,,,,,,,,,,,,,,,,,,,,,,,,,,,,,,,,,,,,,,,,,,,,,,,,,,,,,,,,,,,,,,,,,,,,,,,193839,001,2023-06-02_16h56.25.443,Pilot_online_tryings,2022.2.5,None,
,,,,,,,,,,,,,,,,,,,,,,,,,,,,,,,31.864189100000658,31.864189100000658,space,0.5230263999837916,,,,,,,,,,,,,,,,,,,,,,,,,,,,,,,,,,,,,,,,,,,,,,,,,,,,,,,,,,,,,,,,,,,,,,,,,,,,,,,,,,,,,193839,001,2023-06-02_16h56.25.443,Pilot_online_tryings,2022.2.5,None,
,,,,,,,,,,,,,,,,,,,,,,,,,,,,,,,,,,,32.427185599997756,32.427185599997756,space,0.5758741999889025,,,,,,,,,,,,,,,,,,,,,,,,,,,,,,,,,,,,,,,,,,,,,,,,,,,,,,,,,,,,,,,,,,,,,,,,,,,,,,,,,193839,001,2023-06-02_16h56.25.443,Pilot_online_tryings,2022.2.5,None,
,,,,,,,,,,,,,,,,,,,,,,,,,,,,,,,,,,,,,,,33.147675019994495,33.145199400009005,33.145199400009005,space,0.6324449999956414,,,,,,,,,,,,,,,,,,,,,,,,,,,,,,,,,,,,,,,,,,,,,,,,,,,,,,,,,,,,,,,,,,,,,,,,,,,,193839,001,2023-06-02_16h56.25.443,Pilot_online_tryings,2022.2.5,None,
,,,,,,,,,,,,,,,,,,,,,,,,,,,,,,,,,,,,,,,,,,,,33.833142600007704,33.833142600007704,space,0.7490924999874551,,,,,,,,,,,,,,,,,,,,,,,,,,,,,,,,,,,,,,,,,,,,,,,,,,,,,,,,,,,,,,,,,,,,,,,,193839,001,2023-06-02_16h56.25.443,Pilot_online_tryings,2022.2.5,None,
,,,,,,,,,,,,,,,,,,,,,,,,,,,,,,,,,,,,,,,,,,,,,,,,34.64529300000868,34.64529300000868,space,0.4461299999820767,,,,,,,,,,,,,,,,,,,,,,,,,,,,,,,,,,,,,,,,,,,,,,,,,,,,,,,,,,,,,,,,,,,,193839,001,2023-06-02_16h56.25.443,Pilot_online_tryings,2022.2.5,None,
,,,,,,,,,,,,,,,,,,,,,,,,,,,,,,,,,,,,,,,,,,,,,,,,,,,,35.14563959999941,35.14563959999941,space,0.5484319999814034,,,,,,,,,,,,,,,,,,,,,,,,,,,,,,,,,,,,,,,,,,,,,,,,,,,,,,,,,,,,,,,,193839,001,2023-06-02_16h56.25.443,Pilot_online_tryings,2022.2.5,None,
,,,,,,,,,,,,,,,,,,,,,,,,,,,,,,,,,,,,,,,,,,,,,,,,,,,,,,,,35.77124400000321,35.77124400000321,space,0.48997769998095464,,,,,,,,,,,,,,,,,,,,,,,,,,,,,,,,,,,,,,,,,,,,,,,,,,,,,,,,,,,,193839,001,2023-06-02_16h56.25.443,Pilot_online_tryings,2022.2.5,None,
,,,,,,,,,,,,,,,,,,,,,,,,,,,,,,,,,,,,,,,,,,,,,,,,,,,,,,,,,,,,36.30489739999757,36.30489739999757,space,1.0261736999818822,,,,,,,,,,,,,,,,,,,,,,,,,,,,,,,,,,,,,,,,,,,,,,,,,,,,,,,,193839,001,2023-06-02_16h56.25.443,Pilot_online_tryings,2022.2.5,None,
ConjL4_syn.csv,directory_online_conj_L4_syn.csv,Test_Conj_SyncL4.csv,ConjL4_sync_norm.wav,pe,112:116,red,Online_conjL4_syn//dPE19.0.wav,0.0,,,0,0,0,3,0,0,0,1,0,0,0,3,,,,,,,,,,,,,,,,,,,,,,,,,,,,,,,,,,,,,,,,,,37.414743900008034,37.414743900008034,space,1.146157699986361,39.17714116998104,39.16250800000853,39.16250800000853,space,2.1925369999953546,41.394777699999395,41.394777699999395,space,1.330155099989497,42.856213200007915,42.856213200007915,0.0677566999947885,42.856213200007915,42.856213200007915,42.856213200007915,None,y,1.1057389999914449,,,,,,,,,,,,,,,,,,,,,,,,,,,,,,,,,,193839,001,2023-06-02_16h56.25.443,Pilot_online_tryings,2022.2.5,None,
ConjL4_syn.csv,directory_online_conj_L4_syn.csv,Test_Conj_SyncL4.csv,ConjL4_sync_norm.wav,pe,112:116,red,Online_conjL4_syn//dPE17.none.wav,none,,,0,0,0,3,0,0,0,1,0,1,1,1,,,,,,,,,,,,,,,,,,,,,,,,,,,,,,,,,,,,,,,,,,,,,,,,,,,,,,,,,0.011586000007810071,44.01995149999857,44.01995149999857,44.01995149999857,None,y,0.11732559998927172,,,,,,,,,,,,,,,,,,,,,,,,,,,,,,,,,,193839,001,2023-06-02_16h56.25.443,Pilot_online_tryings,2022.2.5,None,
ConjL4_syn.csv,directory_online_conj_L4_syn.csv,Test_Conj_SyncL4.csv,ConjL4_sync_norm.wav,pe,112:116,red,Online_conjL4_syn//dPE18.none.wav,none,,,0,0,0,3,0,0,0,1,0,2,2,2,,,,,,,,,,,,,,,,,,,,,,,,,,,,,,,,,,,,,,,,,,,,,,,,,,,,,,,,,0.013065999999525957,44.17591320000065,44.17591320000065,44.17591320000065,None,y,0.08725919999415055,,,,,,,,,,,,,,,,,,,,,,,,,,,,,,,,,,193839,001,2023-06-02_16h56.25.443,Pilot_online_tryings,2022.2.5,None,
ConjL4_syn.csv,directory_online_conj_L4_syn.csv,Test_Conj_SyncL4.csv,ConjL4_sync_norm.wav,pe,112:116,red,Online_conjL4_syn//dPE16.none.wav,none,,,0,0,0,3,0,0,0,1,0,3,3,0,,,,,,,,,,,,,,,,,,,,,,,,,,,,,,,,,,,,,,,,,,,,,,,,,,,,,,,,,0.021041299987700768,44.30628509999951,44.30628509999951,44.30628509999951,None,y,0.09450579999247566,,,,,,,,,,,,,,,,,,,,,,,,,,,,,,,,,,193839,001,2023-06-02_16h56.25.443,Pilot_online_tryings,2022.2.5,None,
ConjL4_syn.csv,directory_online_conj_L4_syn.csv,Test_Conj_SyncL4.csv,ConjL4_sync_norm.wav,pe,112:116,red,,,,,0,0,0,3,0,0,0,1,,,,,,,,,,,,,,,,,,,,,,,,,,,,,,,,,,,,,,,,,,,,,,,,,,,,,,,,,,,,,,,,,,,,,,,,,,,,,,,,,,,,,,,,,,,,,,,,,,,,,193839,001,2023-06-02_16h56.25.443,Pilot_online_tryings,2022.2.5,None,
ConjL4_syn.csv,directory_online_conj_L4_syn.csv,Test_Conj_SyncL4.csv,ConjL4_sync_norm.wav,lo,4:8,blue,Online_conjL4_syn//aLO5.none.wav,none,,,0,0,0,3,0,1,1,10,0,0,0,1,,,,,,,,,,,,,,,,,,,,,,,,,,,,,,,,,,,,,,,,,,,,,,,,,,,,,,,44.458764700000756,44.458764700000756,0.01957070000935346,44.458764700000756,44.458764700000756,44.458764700000756,None,y,0.07421029999386519,,,,,,,,,,,,,,,,,,,,,,,,,,,,,,,,,,193839,001,2023-06-02_16h56.25.443,Pilot_online_tryings,2022.2.5,None,
ConjL4_syn.csv,directory_online_conj_L4_syn.csv,Test_Conj_SyncL4.csv,ConjL4_sync_norm.wav,lo,4:8,blue,Online_conjL4_syn//aLO7.1554.wav,1554.0,,,0,0,0,3,0,1,1,10,0,1,1,3,,,,,,,,,,,,,,,,,,,,,,,,,,,,,,,,,,,,,,,,,,,,,,,,,,,,,,,,,0.019069999994826503,44.58395480000763,44.58395480000763,44.58395480000763,None,y,0.08792869999888353,,,,,,,,,,,,,,,,,,,,,,,,,,,,,,,,,,193839,001,2023-06-02_16h56.25.443,Pilot_online_tryings,2022.2.5,None,
ConjL4_syn.csv,directory_online_conj_L4_syn.csv,Test_Conj_SyncL4.csv,ConjL4_sync_norm.wav,lo,4:8,blue,Online_conjL4_syn//aLO4.666.wav,666.0,,,0,0,0,3,0,1,1,10,0,2,2,0,,,,,,,,,,,,,,,,,,,,,,,,,,,,,,,,,,,,,,,,,,,,,,,,,,,,,,,,,0.013609500005259179,44.708988400001545,44.708988400001545,44.708988400001545,None,y,0.10344949999125674,,,,,,,,,,,,,,,,,,,,,,,,,,,,,,,,,,193839,001,2023-06-02_16h56.25.443,Pilot_online_tryings,2022.2.5,None,
ConjL4_syn.csv,directory_online_conj_L4_syn.csv,Test_Conj_SyncL4.csv,ConjL4_sync_norm.wav,lo,4:8,blue,Online_conjL4_syn//aLO6.1554.wav,1554.0,,,0,0,0,3,0,1,1,10,0,3,3,2,,,,,,,,,,,,,,,,,,,,,,,,,,,,,,,,,,,,,,,,,,,,,,,,,,,,,,,,,0.014986300011514686,44.86359990001074,44.86359990001074,44.86359990001074,None,y,0.08905579999554902,,,,,,,,,,,,,,,,,,,,,,,,,,,,,,,,,,193839,001,2023-06-02_16h56.25.443,Pilot_online_tryings,2022.2.5,None,
ConjL4_syn.csv,directory_online_conj_L4_syn.csv,Test_Conj_SyncL4.csv,ConjL4_sync_norm.wav,lo,4:8,blue,,,,,0,0,0,3,0,1,1,10,,,,,,,,,,,,,,,,,,,,,,,,,,,,,,,,,,,,,,,,,,,,,,,,,,,,,,,,,,,,,,,,,,,,,,,,,,,,,,,,,,,,,,,,,,,,,,,,,,,,,193839,001,2023-06-02_16h56.25.443,Pilot_online_tryings,2022.2.5,None,
ConjL4_syn.csv,directory_online_conj_L4_syn.csv,Test_Conj_SyncL4.csv,ConjL4_sync_norm.wav,bu,84:88,orange,Online_conjL4_syn//cBU20.none.wav,none,,,0,0,0,3,0,2,2,3,0,0,0,0,,,,,,,,,,,,,,,,,,,,,,,,,,,,,,,,,,,,,,,,,,,,,,,,,,,,,,,45.0169317000109,45.0169317000109,0.03816460000234656,45.0169317000109,45.0169317000109,45.0169317000109,None,y,0.07240479998290539,,,,,,,,,,,,,,,,,,,,,,,,,,,,,,,,,,193839,001,2023-06-02_16h56.25.443,Pilot_online_tryings,2022.2.5,None,
ConjL4_syn.csv,directory_online_conj_L4_syn.csv,Test_Conj_SyncL4.csv,ConjL4_sync_norm.wav,bu,84:88,orange,Online_conjL4_syn//cBU21.none.wav,none,,,0,0,0,3,0,2,2,3,0,1,1,1,,,,,,,,,,,,,,,,,,,,,,,,,,,,,,,,,,,,,,,,,,,,,,,,,,,,,,,,,0.007066999998642132,45.14577620000637,45.14577620000637,45.14577620000637,None,y,0.08672759997716639,,,,,,,,,,,,,,,,,,,,,,,,,,,,,,,,,,193839,001,2023-06-02_16h56.25.443,Pilot_online_tryings,2022.2.5,None,
ConjL4_syn.csv,directory_online_conj_L4_syn.csv,Test_Conj_SyncL4.csv,ConjL4_sync_norm.wav,bu,84:88,orange,Online_conjL4_syn//cBU23.none.wav,none,,,0,0,0,3,0,2,2,3,0,2,2,3,,,,,,,,,,,,,,,,,,,,,,,,,,,,,,,,,,,,,,,,,,,,,,,,,,,,,,,,,0.01364639999519568,45.270403300004546,45.270403300004546,45.270403300004546,None,y,0.11351419998391066,,,,,,,,,,,,,,,,,,,,,,,,,,,,,,,,,,193839,001,2023-06-02_16h56.25.443,Pilot_online_tryings,2022.2.5,None,
ConjL4_syn.csv,directory_online_conj_L4_syn.csv,Test_Conj_SyncL4.csv,ConjL4_sync_norm.wav,bu,84:88,orange,Online_conjL4_syn//cBU22.0.wav,0.0,,,0,0,0,3,0,2,2,3,0,3,3,2,,,,,,,,,,,,,,,,,,,,,,,,,,,,,,,,,,,,,,,,,,,,,,,,,,,,,,,,,0.010783999998238869,45.42939220000699,45.42939220000699,45.42939220000699,None,y,0.09264869999606162,,,,,,,,,,,,,,,,,,,,,,,,,,,,,,,,,,193839,001,2023-06-02_16h56.25.443,Pilot_online_tryings,2022.2.5,None,
ConjL4_syn.csv,directory_online_conj_L4_syn.csv,Test_Conj_SyncL4.csv,ConjL4_sync_norm.wav,bu,84:88,orange,,,,,0,0,0,3,0,2,2,3,,,,,,,,,,,,,,,,,,,,,,,,,,,,,,,,,,,,,,,,,,,,,,,,,,,,,,,,,,,,,,,,,,,,,,,,,,,,,,,,,,,,,,,,,,,,,,,,,,,,,193839,001,2023-06-02_16h56.25.443,Pilot_online_tryings,2022.2.5,None,
ConjL4_syn.csv,directory_online_conj_L4_syn.csv,Test_Conj_SyncL4.csv,ConjL4_sync_norm.wav,ja,44:48,green,Online_conjL4_syn//bJA12.666.wav,666.0,,,0,0,0,3,0,3,3,19,0,0,0,0,,,,,,,,,,,,,,,,,,,,,,,,,,,,,,,,,,,,,,,,,,,,,,,,,,,,,,,45.56870680001157,45.56870680001157,0.03342009999323636,45.56870680001157,45.56870680001157,45.56870680001157,None,y,0.09723859999212436,,,,,,,,,,,,,,,,,,,,,,,,,,,,,,,,,,193839,001,2023-06-02_16h56.25.443,Pilot_online_tryings,2022.2.5,None,
ConjL4_syn.csv,directory_online_conj_L4_syn.csv,Test_Conj_SyncL4.csv,ConjL4_sync_norm.wav,ja,44:48,green,Online_conjL4_syn//bJA14.none.wav,none,,,0,0,0,3,0,3,3,19,0,1,1,2,,,,,,,,,,,,,,,,,,,,,,,,,,,,,,,,,,,,,,,,,,,,,,,,,,,,,,,,,0.014198899996699765,45.707301500006,45.707301500006,45.707301500006,None,y,0.10256749999825843,,,,,,,,,,,,,,,,,,,,,,,,,,,,,,,,,,193839,001,2023-06-02_16h56.25.443,Pilot_online_tryings,2022.2.5,None,
ConjL4_syn.csv,directory_online_conj_L4_syn.csv,Test_Conj_SyncL4.csv,ConjL4_sync_norm.wav,ja,44:48,green,Online_conjL4_syn//bJA13.none.wav,none,,,0,0,0,3,0,3,3,19,0,2,2,1,,,,,,,,,,,,,,,,,,,,,,,,,,,,,,,,,,,,,,,,,,,,,,,,,,,,,,,,,0.007434099999954924,45.86432780000905,45.86432780000905,45.86432780000905,None,y,0.09096769998723175,,,,,,,,,,,,,,,,,,,,,,,,,,,,,,,,,,193839,001,2023-06-02_16h56.25.443,Pilot_online_tryings,2022.2.5,None,
ConjL4_syn.csv,directory_online_conj_L4_syn.csv,Test_Conj_SyncL4.csv,ConjL4_sync_norm.wav,ja,44:48,green,Online_conjL4_syn//bJA15.none.wav,none,,,0,0,0,3,0,3,3,19,0,3,3,3,,,,,,,,,,,,,,,,,,,,,,,,,,,,,,,,,,,,,,,,,,,,,,,,,,,,,,,,,0.0160531000001356,45.98869850000483,45.98869850000483,45.98869850000483,None,y,0.11284399998839945,,,,,,,,,,,,,,,,,,,,,,,,,,,,,,,,,,193839,001,2023-06-02_16h56.25.443,Pilot_online_tryings,2022.2.5,None,
ConjL4_syn.csv,directory_online_conj_L4_syn.csv,Test_Conj_SyncL4.csv,ConjL4_sync_norm.wav,ja,44:48,green,,,,,0,0,0,3,0,3,3,19,,,,,,,,,,,,,,,,,,,,,,,,,,,,,,,,,,,,,,,,,,,,,,,,,,,,,,,,,,,,,,,,,,,,,,,,,,,,,,,,,,,,,,,,,,,,,,,,,,,,,193839,001,2023-06-02_16h56.25.443,Pilot_online_tryings,2022.2.5,None,
ConjL4_syn.csv,directory_online_conj_L4_syn.csv,Test_Conj_SyncL4.csv,ConjL4_sync_norm.wav,ja,40:44,green,Online_conjL4_syn//bJA8.none.wav,none,,,0,0,0,3,0,4,4,21,0,0,0,0,,,,,,,,,,,,,,,,,,,,,,,,,,,,,,,,,,,,,,,,,,,,,,,,,,,,,,,46.151377400005,46.151377400005,0.027014600011170842,46.151377400005,46.151377400005,46.151377400005,None,y,0.09681309998268262,,,,,,,,,,,,,,,,,,,,,,,,,,,,,,,,,,193839,001,2023-06-02_16h56.25.443,Pilot_online_tryings,2022.2.5,None,
ConjL4_syn.csv,directory_online_conj_L4_syn.csv,Test_Conj_SyncL4.csv,ConjL4_sync_norm.wav,ja,40:44,green,Online_conjL4_syn//bJA11.666.wav,666.0,,,0,0,0,3,0,4,4,21,0,1,1,3,,,,,,,,,,,,,,,,,,,,,,,,,,,,,,,,,,,,,,,,,,,,,,,,,,,,,,,,,0.009687700003269129,46.30121360000339,46.30121360000339,46.30121360000339,None,y,0.09472689998801798,,,,,,,,,,,,,,,,,,,,,,,,,,,,,,,,,,193839,001,2023-06-02_16h56.25.443,Pilot_online_tryings,2022.2.5,None,
ConjL4_syn.csv,directory_online_conj_L4_syn.csv,Test_Conj_SyncL4.csv,ConjL4_sync_norm.wav,ja,40:44,green,Online_conjL4_syn//bJA10.0.wav,0.0,,,0,0,0,3,0,4,4,21,0,2,2,2,,,,,,,,,,,,,,,,,,,,,,,,,,,,,,,,,,,,,,,,,,,,,,,,,,,,,,,,,0.0204202000022633,46.489558000001125,46.489558000001125,46.489558000001125,None,y,0.05920609999157023,,,,,,,,,,,,,,,,,,,,,,,,,,,,,,,,,,193839,001,2023-06-02_16h56.25.443,Pilot_online_tryings,2022.2.5,None,
ConjL4_syn.csv,directory_online_conj_L4_syn.csv,Test_Conj_SyncL4.csv,ConjL4_sync_norm.wav,ja,40:44,green,Online_conjL4_syn//bJA9.none.wav,none,,,0,0,0,3,0,4,4,21,0,3,3,1,,,,,,,,,,,,,,,,,,,,,,,,,,,,,,,,,,,,,,,,,,,,,,,,,,,,,,,,,0.027898000000277534,46.58774610000546,46.58774610000546,46.58774610000546,None,y,0.11248679998971056,,,,,,,,,,,,,,,,,,,,,,,,,,,,,,,,,,193839,001,2023-06-02_16h56.25.443,Pilot_online_tryings,2022.2.5,None,
ConjL4_syn.csv,directory_online_conj_L4_syn.csv,Test_Conj_SyncL4.csv,ConjL4_sync_norm.wav,ja,40:44,green,,,,,0,0,0,3,0,4,4,21,,,,,,,,,,,,,,,,,,,,,,,,,,,,,,,,,,,,,,,,,,,,,,,,,,,,,,,,,,,,,,,,,,,,,,,,,,,,,,,,,,,,,,,,,,,,,,,,,,,,,193839,001,2023-06-02_16h56.25.443,Pilot_online_tryings,2022.2.5,None,
ConjL4_syn.csv,directory_online_conj_L4_syn.csv,Test_Conj_SyncL4.csv,ConjL4_sync_norm.wav,lo,0:4,blue,Online_conjL4_syn//aLO0.none.wav,none,,,0,0,0,3,0,5,5,13,0,0,0,0,,,,,,,,,,,,,,,,,,,,,,,,,,,,,,,,,,,,,,,,,,,,,,,,,,,,,,,46.79040900000837,46.79040900000837,0.03756279998924583,46.79040900000837,46.79040900000837,46.79040900000837,None,y,0.0552373999817064,,,,,,,,,,,,,,,,,,,,,,,,,,,,,,,,,,193839,001,2023-06-02_16h56.25.443,Pilot_online_tryings,2022.2.5,None,
ConjL4_syn.csv,directory_online_conj_L4_syn.csv,Test_Conj_SyncL4.csv,ConjL4_sync_norm.wav,lo,0:4,blue,Online_conjL4_syn//aLO2.none.wav,none,,,0,0,0,3,0,5,5,13,0,1,1,2,,,,,,,,,,,,,,,,,,,,,,,,,,,,,,,,,,,,,,,,,,,,,,,,,,,,,,,,,0.010563000003458,46.926824599999236,46.926824599999236,46.926824599999236,None,y,0.07167569999000989,,,,,,,,,,,,,,,,,,,,,,,,,,,,,,,,,,193839,001,2023-06-02_16h56.25.443,Pilot_online_tryings,2022.2.5,None,
ConjL4_syn.csv,directory_online_conj_L4_syn.csv,Test_Conj_SyncL4.csv,ConjL4_sync_norm.wav,lo,0:4,blue,Online_conjL4_syn//aLO1.1554.wav,1554.0,,,0,0,0,3,0,5,5,13,0,2,2,1,,,,,,,,,,,,,,,,,,,,,,,,,,,,,,,,,,,,,,,,,,,,,,,,,,,,,,,,,0.018430099997203797,47.05140080000274,47.05140080000274,47.05140080000274,None,y,0.09532399999443442,,,,,,,,,,,,,,,,,,,,,,,,,,,,,,,,,,193839,001,2023-06-02_16h56.25.443,Pilot_online_tryings,2022.2.5,None,
ConjL4_syn.csv,directory_online_conj_L4_syn.csv,Test_Conj_SyncL4.csv,ConjL4_sync_norm.wav,lo,0:4,blue,Online_conjL4_syn//aLO3.none.wav,none,,,0,0,0,3,0,5,5,13,0,3,3,3,,,,,,,,,,,,,,,,,,,,,,,,,,,,,,,,,,,,,,,,,,,,,,,,,,,,,,,,,0.013985800003865734,47.180228000011994,47.180228000011994,47.180228000011994,None,y,0.11392739998700563,,,,,,,,,,,,,,,,,,,,,,,,,,,,,,,,,,193839,001,2023-06-02_16h56.25.443,Pilot_online_tryings,2022.2.5,None,
ConjL4_syn.csv,directory_online_conj_L4_syn.csv,Test_Conj_SyncL4.csv,ConjL4_sync_norm.wav,lo,0:4,blue,,,,,0,0,0,3,0,5,5,13,,,,,,,,,,,,,,,,,,,,,,,,,,,,,,,,,,,,,,,,,,,,,,,,,,,,,,,,,,,,,,,,,,,,,,,,,,,,,,,,,,,,,,,,,,,,,,,,,,,,,193839,001,2023-06-02_16h56.25.443,Pilot_online_tryings,2022.2.5,None,
ConjL4_syn.csv,directory_online_conj_L4_syn.csv,Test_Conj_SyncL4.csv,ConjL4_sync_norm.wav,bu,76:80,orange,Online_conjL4_syn//cBU14.none.wav,none,,,0,0,0,3,0,6,6,30,0,0,0,2,,,,,,,,,,,,,,,,,,,,,,,,,,,,,,,,,,,,,,,,,,,,,,,,,,,,,,,47.346795300007216,47.346795300007216,0.02401359999203123,47.346795300007216,47.346795300007216,47.346795300007216,None,y,0.09193019999656826,,,,,,,,,,,,,,,,,,,,,,,,,,,,,,,,,,193839,001,2023-06-02_16h56.25.443,Pilot_online_tryings,2022.2.5,None,
ConjL4_syn.csv,directory_online_conj_L4_syn.csv,Test_Conj_SyncL4.csv,ConjL4_sync_norm.wav,bu,76:80,orange,Online_conjL4_syn//cBU12.222.wav,222.0,,,0,0,0,3,0,6,6,30,0,1,1,0,,,,,,,,,,,,,,,,,,,,,,,,,,,,,,,,,,,,,,,,,,,,,,,,,,,,,,,,,0.030475599996862,47.49854140001116,47.49854140001116,47.49854140001116,None,y,0.09708719998889137,,,,,,,,,,,,,,,,,,,,,,,,,,,,,,,,,,193839,001,2023-06-02_16h56.25.443,Pilot_online_tryings,2022.2.5,None,
ConjL4_syn.csv,directory_online_conj_L4_syn.csv,Test_Conj_SyncL4.csv,ConjL4_sync_norm.wav,bu,76:80,orange,Online_conjL4_syn//cBU15.222.wav,222.0,,,0,0,0,3,0,6,6,30,0,2,2,3,,,,,,,,,,,,,,,,,,,,,,,,,,,,,,,,,,,,,,,,,,,,,,,,,,,,,,,,,0.01785030000610277,47.6454822000087,47.6454822000087,47.6454822000087,None,y,0.09862959999009036,,,,,,,,,,,,,,,,,,,,,,,,,,,,,,,,,,193839,001,2023-06-02_16h56.25.443,Pilot_online_tryings,2022.2.5,None,
ConjL4_syn.csv,directory_online_conj_L4_syn.csv,Test_Conj_SyncL4.csv,ConjL4_sync_norm.wav,bu,76:80,orange,Online_conjL4_syn//cBU13.0.wav,0.0,,,0,0,0,3,0,6,6,30,0,3,3,1,,,,,,,,,,,,,,,,,,,,,,,,,,,,,,,,,,,,,,,,,,,,,,,,,,,,,,,,,0.007339200004935265,47.80163860000903,47.80163860000903,47.80163860000903,None,y,0.10326249997888226,,,,,,,,,,,,,,,,,,,,,,,,,,,,,,,,,,193839,001,2023-06-02_16h56.25.443,Pilot_online_tryings,2022.2.5,None,
ConjL4_syn.csv,directory_online_conj_L4_syn.csv,Test_Conj_SyncL4.csv,ConjL4_sync_norm.wav,bu,76:80,orange,,,,,0,0,0,3,0,6,6,30,,,,,,,,,,,,,,,,,,,,,,,,,,,,,,,,,,,,,,,,,,,,,,,,,,,,,,,,,,,,,,,,,,,,,,,,,,,,,,,,,,,,,,,,,,,,,,,,,,,,,193839,001,2023-06-02_16h56.25.443,Pilot_online_tryings,2022.2.5,None,
ConjL4_syn.csv,directory_online_conj_L4_syn.csv,Test_Conj_SyncL4.csv,ConjL4_sync_norm.wav,pe,96:100,red,Online_conjL4_syn//dPE3.none.wav,none,,,0,0,0,3,0,7,7,29,0,0,0,3,,,,,,,,,,,,,,,,,,,,,,,,,,,,,,,,,,,,,,,,,,,,,,,,,,,,,,,47.98888070000976,47.98888070000976,0.0435258000070462,47.98888070000976,47.98888070000976,47.98888070000976,None,y,0.07223929998872336,,,,,,,,,,,,,,,,,,,,,,,,,,,,,,,,,,193839,001,2023-06-02_16h56.25.443,Pilot_online_tryings,2022.2.5,None,
ConjL4_syn.csv,directory_online_conj_L4_syn.csv,Test_Conj_SyncL4.csv,ConjL4_sync_norm.wav,pe,96:100,red,Online_conjL4_syn//dPE2.none.wav,none,,,0,0,0,3,0,7,7,29,0,1,1,2,,,,,,,,,,,,,,,,,,,,,,,,,,,,,,,,,,,,,,,,,,,,,,,,,,,,,,,,,0.010461199999554083,48.11615590000292,48.11615590000292,48.11615590000292,None,y,0.1102874999778578,,,,,,,,,,,,,,,,,,,,,,,,,,,,,,,,,,193839,001,2023-06-02_16h56.25.443,Pilot_online_tryings,2022.2.5,None,
ConjL4_syn.csv,directory_online_conj_L4_syn.csv,Test_Conj_SyncL4.csv,ConjL4_sync_norm.wav,pe,96:100,red,Online_conjL4_syn//dPE1.none.wav,none,,,0,0,0,3,0,7,7,29,0,2,2,1,,,,,,,,,,,,,,,,,,,,,,,,,,,,,,,,,,,,,,,,,,,,,,,,,,,,,,,,,0.01696799999626819,48.298417800004245,48.298417800004245,48.298417800004245,None,y,0.06966629998350982,,,,,,,,,,,,,,,,,,,,,,,,,,,,,,,,,,193839,001,2023-06-02_16h56.25.443,Pilot_online_tryings,2022.2.5,None,
ConjL4_syn.csv,directory_online_conj_L4_syn.csv,Test_Conj_SyncL4.csv,ConjL4_sync_norm.wav,pe,96:100,red,Online_conjL4_syn//dPE0.1554.wav,1554.0,,,0,0,0,3,0,7,7,29,0,3,3,0,,,,,,,,,,,,,,,,,,,,,,,,,,,,,,,,,,,,,,,,,,,,,,,,,,,,,,,,,0.017126599996117875,48.42607919999864,48.42607919999864,48.42607919999864,None,y,0.10191979998489842,,,,,,,,,,,,,,,,,,,,,,,,,,,,,,,,,,193839,001,2023-06-02_16h56.25.443,Pilot_online_tryings,2022.2.5,None,
ConjL4_syn.csv,directory_online_conj_L4_syn.csv,Test_Conj_SyncL4.csv,ConjL4_sync_norm.wav,pe,96:100,red,,,,,0,0,0,3,0,7,7,29,,,,,,,,,,,,,,,,,,,,,,,,,,,,,,,,,,,,,,,,,,,,,,,,,,,,,,,,,,,,,,,,,,,,,,,,,,,,,,,,,,,,,,,,,,,,,,,,,,,,,193839,001,2023-06-02_16h56.25.443,Pilot_online_tryings,2022.2.5,None,
ConjL4_syn.csv,directory_online_conj_L4_syn.csv,Test_Conj_SyncL4.csv,ConjL4_sync_norm.wav,lo,12:16,blue,Online_conjL4_syn//aLO15.none.wav,none,,,0,0,0,3,0,8,8,15,0,0,0,3,,,,,,,,,,,,,,,,,,,,,,,,,,,,,,,,,,,,,,,,,,,,,,,,,,,,,,,48.590792200004216,48.590792200004216,0.026341099990531802,48.590792200004216,48.590792200004216,48.590792200004216,None,y,0.10512049999670126,,,,,,,,,,,,,,,,,,,,,,,,,,,,,,,,,,193839,001,2023-06-02_16h56.25.443,Pilot_online_tryings,2022.2.5,None,
ConjL4_syn.csv,directory_online_conj_L4_syn.csv,Test_Conj_SyncL4.csv,ConjL4_sync_norm.wav,lo,12:16,blue,Online_conjL4_syn//aLO12.666.wav,666.0,,,0,0,0,3,0,8,8,15,0,1,1,0,,,,,,,,,,,,,,,,,,,,,,,,,,,,,,,,,,,,,,,,,,,,,,,,,,,,,,,,,0.019483500000205822,48.77459960000124,48.77459960000124,48.77459960000124,None,y,0.07467299998097587,,,,,,,,,,,,,,,,,,,,,,,,,,,,,,,,,,193839,001,2023-06-02_16h56.25.443,Pilot_online_tryings,2022.2.5,None,
ConjL4_syn.csv,directory_online_conj_L4_syn.csv,Test_Conj_SyncL4.csv,ConjL4_sync_norm.wav,lo,12:16,blue,Online_conjL4_syn//aLO13.none.wav,none,,,0,0,0,3,0,8,8,15,0,2,2,1,,,,,,,,,,,,,,,,,,,,,,,,,,,,,,,,,,,,,,,,,,,,,,,,,,,,,,,,,0.007345200006966479,48.894635300006485,48.894635300006485,48.894635300006485,None,y,0.11835639998025727,,,,,,,,,,,,,,,,,,,,,,,,,,,,,,,,,,193839,001,2023-06-02_16h56.25.443,Pilot_online_tryings,2022.2.5,None,
ConjL4_syn.csv,directory_online_conj_L4_syn.csv,Test_Conj_SyncL4.csv,ConjL4_sync_norm.wav,lo,12:16,blue,Online_conjL4_syn//aLO14.1554.wav,1554.0,,,0,0,0,3,0,8,8,15,0,3,3,2,,,,,,,,,,,,,,,,,,,,,,,,,,,,,,,,,,,,,,,,,,,,,,,,,,,,,,,,,0.008212700005969964,49.051344999999856,49.051344999999856,49.051344999999856,None,y,0.124529699984123,,,,,,,,,,,,,,,,,,,,,,,,,,,,,,,,,,193839,001,2023-06-02_16h56.25.443,Pilot_online_tryings,2022.2.5,None,
ConjL4_syn.csv,directory_online_conj_L4_syn.csv,Test_Conj_SyncL4.csv,ConjL4_sync_norm.wav,lo,12:16,blue,,,,,0,0,0,3,0,8,8,15,,,,,,,,,,,,,,,,,,,,,,,,,,,,,,,,,,,,,,,,,,,,,,,,,,,,,,,,,,,,,,,,,,,,,,,,,,,,,,,,,,,,,,,,,,,,,,,,,,,,,193839,001,2023-06-02_16h56.25.443,Pilot_online_tryings,2022.2.5,None,
ConjL4_syn.csv,directory_online_conj_L4_syn.csv,Test_Conj_SyncL4.csv,ConjL4_sync_norm.wav,pe,124:128,red,Online_conjL4_syn//dPE31.1332.wav,1332.0,,,0,0,0,3,0,9,9,20,0,0,0,3,,,,,,,,,,,,,,,,,,,,,,,,,,,,,,,,,,,,,,,,,,,,,,,,,,,,,,,49.24165619999985,49.24165619999985,0.04431109999131877,49.24165619999985,49.24165619999985,49.24165619999985,None,y,0.09535309999773744,,,,,,,,,,,,,,,,,,,,,,,,,,,,,,,,,,193839,001,2023-06-02_16h56.25.443,Pilot_online_tryings,2022.2.5,None,
ConjL4_syn.csv,directory_online_conj_L4_syn.csv,Test_Conj_SyncL4.csv,ConjL4_sync_norm.wav,pe,124:128,red,Online_conjL4_syn//dPE29.1110.wav,1110.0,,,0,0,0,3,0,9,9,20,0,1,1,1,,,,,,,,,,,,,,,,,,,,,,,,,,,,,,,,,,,,,,,,,,,,,,,,,,,,,,,,,0.010927499999525025,49.395794600000954,49.395794600000954,49.395794600000954,None,y,0.09573959998670034,,,,,,,,,,,,,,,,,,,,,,,,,,,,,,,,,,193839,001,2023-06-02_16h56.25.443,Pilot_online_tryings,2022.2.5,None,
ConjL4_syn.csv,directory_online_conj_L4_syn.csv,Test_Conj_SyncL4.csv,ConjL4_sync_norm.wav,pe,124:128,red,Online_conjL4_syn//dPE30.222.wav,222.0,,,0,0,0,3,0,9,9,20,0,2,2,2,,,,,,,,,,,,,,,,,,,,,,,,,,,,,,,,,,,,,,,,,,,,,,,,,,,,,,,,,0.008282300012069754,49.520010400010506,49.520010400010506,49.520010400010506,None,y,0.13637869998638052,,,,,,,,,,,,,,,,,,,,,,,,,,,,,,,,,,193839,001,2023-06-02_16h56.25.443,Pilot_online_tryings,2022.2.5,None,
ConjL4_syn.csv,directory_online_conj_L4_syn.csv,Test_Conj_SyncL4.csv,ConjL4_sync_norm.wav,pe,124:128,red,Online_conjL4_syn//dPE28.none.wav,none,,,0,0,0,3,0,9,9,20,0,3,3,0,,,,,,,,,,,,,,,,,,,,,,,,,,,,,,,,,,,,,,,,,,,,,,,,,,,,,,,,,0.012763300008373335,49.7119173000101,49.7119173000101,49.7119173000101,None,y,0.12135529998340644,,,,,,,,,,,,,,,,,,,,,,,,,,,,,,,,,,193839,001,2023-06-02_16h56.25.443,Pilot_online_tryings,2022.2.5,None,
ConjL4_syn.csv,directory_online_conj_L4_syn.csv,Test_Conj_SyncL4.csv,ConjL4_sync_norm.wav,pe,124:128,red,,,,,0,0,0,3,0,9,9,20,,,,,,,,,,,,,,,,,,,,,,,,,,,,,,,,,,,,,,,,,,,,,,,,,,,,,,,,,,,,,,,,,,,,,,,,,,,,,,,,,,,,,,,,,,,,,,,,,,,,,193839,001,2023-06-02_16h56.25.443,Pilot_online_tryings,2022.2.5,None,
ConjL4_syn.csv,directory_online_conj_L4_syn.csv,Test_Conj_SyncL4.csv,ConjL4_sync_norm.wav,ja,56:60,green,Online_conjL4_syn//bJA26.none.wav,none,,,0,0,0,3,0,10,10,4,0,0,0,2,,,,,,,,,,,,,,,,,,,,,,,,,,,,,,,,,,,,,,,,,,,,,,,,,,,,,,,49.87911310000345,49.87911310000345,0.03079589999106247,49.87911310000345,49.87911310000345,49.87911310000345,None,y,0.09404479998920579,,,,,,,,,,,,,,,,,,,,,,,,,,,,,,,,,,193839,001,2023-06-02_16h56.25.443,Pilot_online_tryings,2022.2.5,None,
ConjL4_syn.csv,directory_online_conj_L4_syn.csv,Test_Conj_SyncL4.csv,ConjL4_sync_norm.wav,ja,56:60,green,Online_conjL4_syn//bJA27.666.wav,666.0,,,0,0,0,3,0,10,10,4,0,1,1,3,,,,,,,,,,,,,,,,,,,,,,,,,,,,,,,,,,,,,,,,,,,,,,,,,,,,,,,,,0.009255900004063733,50.020089099998586,50.020089099998586,50.020089099998586,None,y,0.10887289998936467,,,,,,,,,,,,,,,,,,,,,,,,,,,,,,,,,,193839,001,2023-06-02_16h56.25.443,Pilot_online_tryings,2022.2.5,None,
ConjL4_syn.csv,directory_online_conj_L4_syn.csv,Test_Conj_SyncL4.csv,ConjL4_sync_norm.wav,ja,56:60,green,Online_conjL4_syn//bJA25.none.wav,none,,,0,0,0,3,0,10,10,4,0,2,2,1,,,,,,,,,,,,,,,,,,,,,,,,,,,,,,,,,,,,,,,,,,,,,,,,,,,,,,,,,0.010548599995672703,50.17632009999943,50.17632009999943,50.17632009999943,None,y,0.11109909998776857,,,,,,,,,,,,,,,,,,,,,,,,,,,,,,,,,,193839,001,2023-06-02_16h56.25.443,Pilot_online_tryings,2022.2.5,None,
ConjL4_syn.csv,directory_online_conj_L4_syn.csv,Test_Conj_SyncL4.csv,ConjL4_sync_norm.wav,ja,56:60,green,Online_conjL4_syn//bJA24.0.wav,0.0,,,0,0,0,3,0,10,10,4,0,3,3,0,,,,,,,,,,,,,,,,,,,,,,,,,,,,,,,,,,,,,,,,,,,,,,,,,,,,,,,,,0.006726599996909499,50.33257090000552,50.33257090000552,50.33257090000552,None,y,0.12175359998946078,,,,,,,,,,,,,,,,,,,,,,,,,,,,,,,,,,193839,001,2023-06-02_16h56.25.443,Pilot_online_tryings,2022.2.5,None,
ConjL4_syn.csv,directory_online_conj_L4_syn.csv,Test_Conj_SyncL4.csv,ConjL4_sync_norm.wav,ja,56:60,green,,,,,0,0,0,3,0,10,10,4,,,,,,,,,,,,,,,,,,,,,,,,,,,,,,,,,,,,,,,,,,,,,,,,,,,,,,,,,,,,,,,,,,,,,,,,,,,,,,,,,,,,,,,,,,,,,,,,,,,,,193839,001,2023-06-02_16h56.25.443,Pilot_online_tryings,2022.2.5,None,
ConjL4_syn.csv,directory_online_conj_L4_syn.csv,Test_Conj_SyncL4.csv,ConjL4_sync_norm.wav,ja,52:56,green,Online_conjL4_syn//bJA22.0.wav,0.0,,,0,0,0,3,0,11,11,5,0,0,0,2,,,,,,,,,,,,,,,,,,,,,,,,,,,,,,,,,,,,,,,,,,,,,,,,,,,,,,,50.51198530000693,50.51198530000693,0.04556629998842254,50.51198530000693,50.51198530000693,50.51198530000693,None,y,0.08882169998832978,,,,,,,,,,,,,,,,,,,,,,,,,,,,,,,,,,193839,001,2023-06-02_16h56.25.443,Pilot_online_tryings,2022.2.5,None,
ConjL4_syn.csv,directory_online_conj_L4_syn.csv,Test_Conj_SyncL4.csv,ConjL4_sync_norm.wav,ja,52:56,green,Online_conjL4_syn//bJA21.666.wav,666.0,,,0,0,0,3,0,11,11,5,0,1,1,1,,,,,,,,,,,,,,,,,,,,,,,,,,,,,,,,,,,,,,,,,,,,,,,,,,,,,,,,,0.010346700000809506,50.6453976000048,50.6453976000048,50.6453976000048,None,y,0.11298059999535326,,,,,,,,,,,,,,,,,,,,,,,,,,,,,,,,,,193839,001,2023-06-02_16h56.25.443,Pilot_online_tryings,2022.2.5,None,
ConjL4_syn.csv,directory_online_conj_L4_syn.csv,Test_Conj_SyncL4.csv,ConjL4_sync_norm.wav,ja,52:56,green,Online_conjL4_syn//bJA23.0.wav,0.0,,,0,0,0,3,0,11,11,5,0,2,2,3,,,,,,,,,,,,,,,,,,,,,,,,,,,,,,,,,,,,,,,,,,,,,,,,,,,,,,,,,0.017034100004821084,50.80157770001097,50.80157770001097,50.80157770001097,None,y,0.10816979999071918,,,,,,,,,,,,,,,,,,,,,,,,,,,,,,,,,,193839,001,2023-06-02_16h56.25.443,Pilot_online_tryings,2022.2.5,None,
ConjL4_syn.csv,directory_online_conj_L4_syn.csv,Test_Conj_SyncL4.csv,ConjL4_sync_norm.wav,ja,52:56,green,Online_conjL4_syn//bJA20.none.wav,none,,,0,0,0,3,0,11,11,5,0,3,3,0,,,,,,,,,,,,,,,,,,,,,,,,,,,,,,,,,,,,,,,,,,,,,,,,,,,,,,,,,0.02091870000003837,50.95906600001035,50.95906600001035,50.95906600001035,None,y,0.11354759999085218,,,,,,,,,,,,,,,,,,,,,,,,,,,,,,,,,,193839,001,2023-06-02_16h56.25.443,Pilot_online_tryings,2022.2.5,None,
ConjL4_syn.csv,directory_online_conj_L4_syn.csv,Test_Conj_SyncL4.csv,ConjL4_sync_norm.wav,ja,52:56,green,,,,,0,0,0,3,0,11,11,5,,,,,,,,,,,,,,,,,,,,,,,,,,,,,,,,,,,,,,,,,,,,,,,,,,,,,,,,,,,,,,,,,,,,,,,,,,,,,,,,,,,,,,,,,,,,,,,,,,,,,193839,001,2023-06-02_16h56.25.443,Pilot_online_tryings,2022.2.5,None,
ConjL4_syn.csv,directory_online_conj_L4_syn.csv,Test_Conj_SyncL4.csv,ConjL4_sync_norm.wav,ja,32:36,green,Online_conjL4_syn//bJA0.0.wav,0.0,,,0,0,0,3,0,12,12,28,0,0,0,0,,,,,,,,,,,,,,,,,,,,,,,,,,,,,,,,,,,,,,,,,,,,,,,,,,,,,,,51.12848379999923,51.12848379999923,0.034619300000485964,51.12848379999923,51.12848379999923,51.12848379999923,None,y,0.09976619998633396,,,,,,,,,,,,,,,,,,,,,,,,,,,,,,,,,,193839,001,2023-06-02_16h56.25.443,Pilot_online_tryings,2022.2.5,None,
ConjL4_syn.csv,directory_online_conj_L4_syn.csv,Test_Conj_SyncL4.csv,ConjL4_sync_norm.wav,ja,32:36,green,Online_conjL4_syn//bJA2.666.wav,666.0,,,0,0,0,3,0,12,12,28,0,1,1,2,,,,,,,,,,,,,,,,,,,,,,,,,,,,,,,,,,,,,,,,,,,,,,,,,,,,,,,,,0.005935199995292351,51.30430470001011,51.30430470001011,51.30430470001011,None,y,0.07363559999794234,,,,,,,,,,,,,,,,,,,,,,,,,,,,,,,,,,193839,001,2023-06-02_16h56.25.443,Pilot_online_tryings,2022.2.5,None,
ConjL4_syn.csv,directory_online_conj_L4_syn.csv,Test_Conj_SyncL4.csv,ConjL4_sync_norm.wav,ja,32:36,green,Online_conjL4_syn//bJA1.666.wav,666.0,,,0,0,0,3,0,12,12,28,0,2,2,1,,,,,,,,,,,,,,,,,,,,,,,,,,,,,,,,,,,,,,,,,,,,,,,,,,,,,,,,,0.0058794000069610775,51.45701840000402,51.45701840000402,51.45701840000402,None,y,0.07233429998450447,,,,,,,,,,,,,,,,,,,,,,,,,,,,,,,,,,193839,001,2023-06-02_16h56.25.443,Pilot_online_tryings,2022.2.5,None,
ConjL4_syn.csv,directory_online_conj_L4_syn.csv,Test_Conj_SyncL4.csv,ConjL4_sync_norm.wav,ja,32:36,green,Online_conjL4_syn//bJA3.0.wav,0.0,,,0,0,0,3,0,12,12,28,0,3,3,3,,,,,,,,,,,,,,,,,,,,,,,,,,,,,,,,,,,,,,,,,,,,,,,,,,,,,,,,,0.006814799999119714,51.58335780000198,51.58335780000198,51.58335780000198,None,y,0.08625609999580774,,,,,,,,,,,,,,,,,,,,,,,,,,,,,,,,,,193839,001,2023-06-02_16h56.25.443,Pilot_online_tryings,2022.2.5,None,
ConjL4_syn.csv,directory_online_conj_L4_syn.csv,Test_Conj_SyncL4.csv,ConjL4_sync_norm.wav,ja,32:36,green,,,,,0,0,0,3,0,12,12,28,,,,,,,,,,,,,,,,,,,,,,,,,,,,,,,,,,,,,,,,,,,,,,,,,,,,,,,,,,,,,,,,,,,,,,,,,,,,,,,,,,,,,,,,,,,,,,,,,,,,,193839,001,2023-06-02_16h56.25.443,Pilot_online_tryings,2022.2.5,None,
ConjL4_syn.csv,directory_online_conj_L4_syn.csv,Test_Conj_SyncL4.csv,ConjL4_sync_norm.wav,pe,104:108,red,Online_conjL4_syn//dPE9.444.wav,444.0,,,0,0,0,3,0,13,13,27,0,0,0,1,,,,,,,,,,,,,,,,,,,,,,,,,,,,,,,,,,,,,,,,,,,,,,,,,,,,,,,51.74920000000566,51.74920000000566,0.028466000003390945,51.74920000000566,51.74920000000566,51.74920000000566,None,y,0.06836369998927694,,,,,,,,,,,,,,,,,,,,,,,,,,,,,,,,,,193839,001,2023-06-02_16h56.25.443,Pilot_online_tryings,2022.2.5,None,
ConjL4_syn.csv,directory_online_conj_L4_syn.csv,Test_Conj_SyncL4.csv,ConjL4_sync_norm.wav,pe,104:108,red,Online_conjL4_syn//dPE8.1332.wav,1332.0,,,0,0,0,3,0,13,13,27,0,1,1,0,,,,,,,,,,,,,,,,,,,,,,,,,,,,,,,,,,,,,,,,,,,,,,,,,,,,,,,,,0.011721499991836026,51.86331880000944,51.86331880000944,51.86331880000944,None,y,0.09774359998118598,,,,,,,,,,,,,,,,,,,,,,,,,,,,,,,,,,193839,001,2023-06-02_16h56.25.443,Pilot_online_tryings,2022.2.5,None,
ConjL4_syn.csv,directory_online_conj_L4_syn.csv,Test_Conj_SyncL4.csv,ConjL4_sync_norm.wav,pe,104:108,red,Online_conjL4_syn//dPE11.1110.wav,1110.0,,,0,0,0,3,0,13,13,27,0,2,2,3,,,,,,,,,,,,,,,,,,,,,,,,,,,,,,,,,,,,,,,,,,,,,,,,,,,,,,,,,0.02674289999413304,52.02691739999864,52.02691739999864,52.02691739999864,None,y,0.08877789997495711,,,,,,,,,,,,,,,,,,,,,,,,,,,,,,,,,,193839,001,2023-06-02_16h56.25.443,Pilot_online_tryings,2022.2.5,None,
ConjL4_syn.csv,directory_online_conj_L4_syn.csv,Test_Conj_SyncL4.csv,ConjL4_sync_norm.wav,pe,104:108,red,Online_conjL4_syn//dPE10.1110.wav,1110.0,,,0,0,0,3,0,13,13,27,0,3,3,2,,,,,,,,,,,,,,,,,,,,,,,,,,,,,,,,,,,,,,,,,,,,,,,,,,,,,,,,,0.007127599994419143,52.175686000002315,52.175686000002315,52.175686000002315,None,y,0.08016959998349193,,,,,,,,,,,,,,,,,,,,,,,,,,,,,,,,,,193839,001,2023-06-02_16h56.25.443,Pilot_online_tryings,2022.2.5,None,
ConjL4_syn.csv,directory_online_conj_L4_syn.csv,Test_Conj_SyncL4.csv,ConjL4_sync_norm.wav,pe,104:108,red,,,,,0,0,0,3,0,13,13,27,,,,,,,,,,,,,,,,,,,,,,,,,,,,,,,,,,,,,,,,,,,,,,,,,,,,,,,,,,,,,,,,,,,,,,,,,,,,,,,,,,,,,,,,,,,,,,,,,,,,,193839,001,2023-06-02_16h56.25.443,Pilot_online_tryings,2022.2.5,None,
ConjL4_syn.csv,directory_online_conj_L4_syn.csv,Test_Conj_SyncL4.csv,ConjL4_sync_norm.wav,lo,8:12,blue,Online_conjL4_syn//aLO10.none.wav,none,,,0,0,0,3,0,14,14,2,0,0,0,2,,,,,,,,,,,,,,,,,,,,,,,,,,,,,,,,,,,,,,,,,,,,,,,,,,,,,,,52.33300680000684,52.33300680000684,0.04361809999682009,52.33300680000684,52.33300680000684,52.33300680000684,None,y,0.06582359998719767,,,,,,,,,,,,,,,,,,,,,,,,,,,,,,,,,,193839,001,2023-06-02_16h56.25.443,Pilot_online_tryings,2022.2.5,None,
ConjL4_syn.csv,directory_online_conj_L4_syn.csv,Test_Conj_SyncL4.csv,ConjL4_sync_norm.wav,lo,8:12,blue,Online_conjL4_syn//aLO11.666.wav,666.0,,,0,0,0,3,0,14,14,2,0,1,1,3,,,,,,,,,,,,,,,,,,,,,,,,,,,,,,,,,,,,,,,,,,,,,,,,,,,,,,,,,0.01070530001015868,52.45689120001043,52.45689120001043,52.45689120001043,None,y,0.11102529999334365,,,,,,,,,,,,,,,,,,,,,,,,,,,,,,,,,,193839,001,2023-06-02_16h56.25.443,Pilot_online_tryings,2022.2.5,None,
ConjL4_syn.csv,directory_online_conj_L4_syn.csv,Test_Conj_SyncL4.csv,ConjL4_sync_norm.wav,lo,8:12,blue,Online_conjL4_syn//aLO8.none.wav,none,,,0,0,0,3,0,14,14,2,0,2,2,0,,,,,,,,,,,,,,,,,,,,,,,,,,,,,,,,,,,,,,,,,,,,,,,,,,,,,,,,,0.01700870000058785,52.647866400002385,52.647866400002385,52.647866400002385,None,y,0.09421029998338781,,,,,,,,,,,,,,,,,,,,,,,,,,,,,,,,,,193839,001,2023-06-02_16h56.25.443,Pilot_online_tryings,2022.2.5,None,
ConjL4_syn.csv,directory_online_conj_L4_syn.csv,Test_Conj_SyncL4.csv,ConjL4_sync_norm.wav,lo,8:12,blue,Online_conjL4_syn//aLO9.none.wav,none,,,0,0,0,3,0,14,14,2,0,3,3,1,,,,,,,,,,,,,,,,,,,,,,,,,,,,,,,,,,,,,,,,,,,,,,,,,,,,,,,,,0.0054385999974329025,52.770146800001385,52.770146800001385,52.770146800001385,None,y,0.10362259998510126,,,,,,,,,,,,,,,,,,,,,,,,,,,,,,,,,,193839,001,2023-06-02_16h56.25.443,Pilot_online_tryings,2022.2.5,None,
ConjL4_syn.csv,directory_online_conj_L4_syn.csv,Test_Conj_SyncL4.csv,ConjL4_sync_norm.wav,lo,8:12,blue,,,,,0,0,0,3,0,14,14,2,,,,,,,,,,,,,,,,,,,,,,,,,,,,,,,,,,,,,,,,,,,,,,,,,,,,,,,,,,,,,,,,,,,,,,,,,,,,,,,,,,,,,,,,,,,,,,,,,,,,,193839,001,2023-06-02_16h56.25.443,Pilot_online_tryings,2022.2.5,None,
ConjL4_syn.csv,directory_online_conj_L4_syn.csv,Test_Conj_SyncL4.csv,ConjL4_sync_norm.wav,pe,120:124,red,Online_conjL4_syn//dPE25.222.wav,222.0,,,0,0,0,3,0,15,15,24,0,0,0,1,,,,,,,,,,,,,,,,,,,,,,,,,,,,,,,,,,,,,,,,,,,,,,,,,,,,,,,52.93692750000628,52.93692750000628,0.030433299994911067,52.93692750000628,52.93692750000628,52.93692750000628,None,y,0.08925449999514967,,,,,,,,,,,,,,,,,,,,,,,,,,,,,,,,,,193839,001,2023-06-02_16h56.25.443,Pilot_online_tryings,2022.2.5,None,
ConjL4_syn.csv,directory_online_conj_L4_syn.csv,Test_Conj_SyncL4.csv,ConjL4_sync_norm.wav,pe,120:124,red,Online_conjL4_syn//dPE27.1332.wav,1332.0,,,0,0,0,3,0,15,15,24,0,1,1,3,,,,,,,,,,,,,,,,,,,,,,,,,,,,,,,,,,,,,,,,,,,,,,,,,,,,,,,,,0.015222799993352965,53.11647600001015,53.11647600001015,53.11647600001015,None,y,0.06837089998589363,,,,,,,,,,,,,,,,,,,,,,,,,,,,,,,,,,193839,001,2023-06-02_16h56.25.443,Pilot_online_tryings,2022.2.5,None,
ConjL4_syn.csv,directory_online_conj_L4_syn.csv,Test_Conj_SyncL4.csv,ConjL4_sync_norm.wav,pe,120:124,red,Online_conjL4_syn//dPE24.none.wav,none,,,0,0,0,3,0,15,15,24,0,2,2,0,,,,,,,,,,,,,,,,,,,,,,,,,,,,,,,,,,,,,,,,,,,,,,,,,,,,,,,,,0.015761699993163347,53.239543100004084,53.239543100004084,53.239543100004084,None,y,0.10154739998688456,,,,,,,,,,,,,,,,,,,,,,,,,,,,,,,,,,193839,001,2023-06-02_16h56.25.443,Pilot_online_tryings,2022.2.5,None,
ConjL4_syn.csv,directory_online_conj_L4_syn.csv,Test_Conj_SyncL4.csv,ConjL4_sync_norm.wav,pe,120:124,red,Online_conjL4_syn//dPE26.none.wav,none,,,0,0,0,3,0,15,15,24,0,3,3,2,,,,,,,,,,,,,,,,,,,,,,,,,,,,,,,,,,,,,,,,,,,,,,,,,,,,,,,,,0.013659999996889383,53.395185400004266,53.395185400004266,53.395185400004266,None,y,0.08404129998234566,,,,,,,,,,,,,,,,,,,,,,,,,,,,,,,,,,193839,001,2023-06-02_16h56.25.443,Pilot_online_tryings,2022.2.5,None,
ConjL4_syn.csv,directory_online_conj_L4_syn.csv,Test_Conj_SyncL4.csv,ConjL4_sync_norm.wav,pe,120:124,red,,,,,0,0,0,3,0,15,15,24,,,,,,,,,,,,,,,,,,,,,,,,,,,,,,,,,,,,,,,,,,,,,,,,,,,,,,,,,,,,,,,,,,,,,,,,,,,,,,,,,,,,,,,,,,,,,,,,,,,,,193839,001,2023-06-02_16h56.25.443,Pilot_online_tryings,2022.2.5,None,
ConjL4_syn.csv,directory_online_conj_L4_syn.csv,Test_Conj_SyncL4.csv,ConjL4_sync_norm.wav,lo,28:32,blue,Online_conjL4_syn//aLO28.1554.wav,1554.0,,,0,0,0,3,0,16,16,6,0,0,0,0,,,,,,,,,,,,,,,,,,,,,,,,,,,,,,,,,,,,,,,,,,,,,,,,,,,,,,,53.56191420000687,53.56191420000687,0.04871119999734219,53.56191420000687,53.56191420000687,53.56191420000687,None,y,0.07582119999278802,,,,,,,,,,,,,,,,,,,,,,,,,,,,,,,,,,193839,001,2023-06-02_16h56.25.443,Pilot_online_tryings,2022.2.5,None,
ConjL4_syn.csv,directory_online_conj_L4_syn.csv,Test_Conj_SyncL4.csv,ConjL4_sync_norm.wav,lo,28:32,blue,Online_conjL4_syn//aLO31.none.wav,none,,,0,0,0,3,0,16,16,6,0,1,1,3,,,,,,,,,,,,,,,,,,,,,,,,,,,,,,,,,,,,,,,,,,,,,,,,,,,,,,,,,0.017155200010165572,53.677702200002386,53.677702200002386,53.677702200002386,None,y,0.1219705999828875,,,,,,,,,,,,,,,,,,,,,,,,,,,,,,,,,,193839,001,2023-06-02_16h56.25.443,Pilot_online_tryings,2022.2.5,None,
ConjL4_syn.csv,directory_online_conj_L4_syn.csv,Test_Conj_SyncL4.csv,ConjL4_sync_norm.wav,lo,28:32,blue,Online_conjL4_syn//aLO30.666.wav,666.0,,,0,0,0,3,0,16,16,6,0,2,2,2,,,,,,,,,,,,,,,,,,,,,,,,,,,,,,,,,,,,,,,,,,,,,,,,,,,,,,,,,0.022231299997656606,53.83904400000756,53.83904400000756,53.83904400000756,None,y,0.11918529999093153,,,,,,,,,,,,,,,,,,,,,,,,,,,,,,,,,,193839,001,2023-06-02_16h56.25.443,Pilot_online_tryings,2022.2.5,None,
ConjL4_syn.csv,directory_online_conj_L4_syn.csv,Test_Conj_SyncL4.csv,ConjL4_sync_norm.wav,lo,28:32,blue,Online_conjL4_syn//aLO29.1554.wav,1554.0,,,0,0,0,3,0,16,16,6,0,3,3,1,,,,,,,,,,,,,,,,,,,,,,,,,,,,,,,,,,,,,,,,,,,,,,,,,,,,,,,,,0.006688199995551258,54.019559699998354,54.019559699998354,54.019559699998354,None,y,0.10033399998792447,,,,,,,,,,,,,,,,,,,,,,,,,,,,,,,,,,193839,001,2023-06-02_16h56.25.443,Pilot_online_tryings,2022.2.5,None,
ConjL4_syn.csv,directory_online_conj_L4_syn.csv,Test_Conj_SyncL4.csv,ConjL4_sync_norm.wav,lo,28:32,blue,,,,,0,0,0,3,0,16,16,6,,,,,,,,,,,,,,,,,,,,,,,,,,,,,,,,,,,,,,,,,,,,,,,,,,,,,,,,,,,,,,,,,,,,,,,,,,,,,,,,,,,,,,,,,,,,,,,,,,,,,193839,001,2023-06-02_16h56.25.443,Pilot_online_tryings,2022.2.5,None,
ConjL4_syn.csv,directory_online_conj_L4_syn.csv,Test_Conj_SyncL4.csv,ConjL4_sync_norm.wav,bu,88:92,orange,Online_conjL4_syn//cBU26.222.wav,222.0,,,0,0,0,3,0,17,17,8,0,0,0,2,,,,,,,,,,,,,,,,,,,,,,,,,,,,,,,,,,,,,,,,,,,,,,,,,,,,,,,54.2357359000016,54.2357359000016,0.029760300007183105,54.2357359000016,54.2357359000016,54.2357359000016,None,y,0.03500139998504892,,,,,,,,,,,,,,,,,,,,,,,,,,,,,,,,,,193839,001,2023-06-02_16h56.25.443,Pilot_online_tryings,2022.2.5,None,
ConjL4_syn.csv,directory_online_conj_L4_syn.csv,Test_Conj_SyncL4.csv,ConjL4_sync_norm.wav,bu,88:92,orange,Online_conjL4_syn//cBU24.444.wav,444.0,,,0,0,0,3,0,17,17,8,0,1,1,0,,,,,,,,,,,,,,,,,,,,,,,,,,,,,,,,,,,,,,,,,,,,,,,,,,,,,,,,,0.008053400000790134,54.301387100000284,54.301387100000284,54.301387100000284,None,y,0.12810289998014923,,,,,,,,,,,,,,,,,,,,,,,,,,,,,,,,,,193839,001,2023-06-02_16h56.25.443,Pilot_online_tryings,2022.2.5,None,
ConjL4_syn.csv,directory_online_conj_L4_syn.csv,Test_Conj_SyncL4.csv,ConjL4_sync_norm.wav,bu,88:92,orange,Online_conjL4_syn//cBU25.none.wav,none,,,0,0,0,3,0,17,17,8,0,2,2,1,,,,,,,,,,,,,,,,,,,,,,,,,,,,,,,,,,,,,,,,,,,,,,,,,,,,,,,,,0.009174500009976327,54.48882450000383,54.48882450000383,54.48882450000383,None,y,0.0980825000006007,,,,,,,,,,,,,,,,,,,,,,,,,,,,,,,,,,193839,001,2023-06-02_16h56.25.443,Pilot_online_tryings,2022.2.5,None,
ConjL4_syn.csv,directory_online_conj_L4_syn.csv,Test_Conj_SyncL4.csv,ConjL4_sync_norm.wav,bu,88:92,orange,Online_conjL4_syn//cBU27.none.wav,none,,,0,0,0,3,0,17,17,8,0,3,3,3,,,,,,,,,,,,,,,,,,,,,,,,,,,,,,,,,,,,,,,,,,,,,,,,,,,,,,,,,0.02749999999650754,54.65609810000751,54.65609810000751,54.65609810000751,None,y,0.08938699998543598,,,,,,,,,,,,,,,,,,,,,,,,,,,,,,,,,,193839,001,2023-06-02_16h56.25.443,Pilot_online_tryings,2022.2.5,None,
ConjL4_syn.csv,directory_online_conj_L4_syn.csv,Test_Conj_SyncL4.csv,ConjL4_sync_norm.wav,bu,88:92,orange,,,,,0,0,0,3,0,17,17,8,,,,,,,,,,,,,,,,,,,,,,,,,,,,,,,,,,,,,,,,,,,,,,,,,,,,,,,,,,,,,,,,,,,,,,,,,,,,,,,,,,,,,,,,,,,,,,,,,,,,,193839,001,2023-06-02_16h56.25.443,Pilot_online_tryings,2022.2.5,None,
ConjL4_syn.csv,directory_online_conj_L4_syn.csv,Test_Conj_SyncL4.csv,ConjL4_sync_norm.wav,lo,24:28,blue,Online_conjL4_syn//aLO24.none.wav,none,,,0,0,0,3,0,18,18,26,0,0,0,0,,,,,,,,,,,,,,,,,,,,,,,,,,,,,,,,,,,,,,,,,,,,,,,,,,,,,,,54.82790020000539,54.82790020000539,0.03233200000249781,54.82790020000539,54.82790020000539,54.82790020000539,None,y,0.06005869999353308,,,,,,,,,,,,,,,,,,,,,,,,,,,,,,,,,,193839,001,2023-06-02_16h56.25.443,Pilot_online_tryings,2022.2.5,None,
ConjL4_syn.csv,directory_online_conj_L4_syn.csv,Test_Conj_SyncL4.csv,ConjL4_sync_norm.wav,lo,24:28,blue,Online_conjL4_syn//aLO26.none.wav,none,,,0,0,0,3,0,18,18,26,0,1,1,2,,,,,,,,,,,,,,,,,,,,,,,,,,,,,,,,,,,,,,,,,,,,,,,,,,,,,,,,,0.00857710000127554,54.92947480001021,54.92947480001021,54.92947480001021,None,y,0.10251389999757521,,,,,,,,,,,,,,,,,,,,,,,,,,,,,,,,,,193839,001,2023-06-02_16h56.25.443,Pilot_online_tryings,2022.2.5,None,
ConjL4_syn.csv,directory_online_conj_L4_syn.csv,Test_Conj_SyncL4.csv,ConjL4_sync_norm.wav,lo,24:28,blue,Online_conjL4_syn//aLO27.1554.wav,1554.0,,,0,0,0,3,0,18,18,26,0,2,2,3,,,,,,,,,,,,,,,,,,,,,,,,,,,,,,,,,,,,,,,,,,,,,,,,,,,,,,,,,0.009059300005901605,55.081937499999185,55.081937499999185,55.081937499999185,None,y,0.11020869998901617,,,,,,,,,,,,,,,,,,,,,,,,,,,,,,,,,,193839,001,2023-06-02_16h56.25.443,Pilot_online_tryings,2022.2.5,None,
ConjL4_syn.csv,directory_online_conj_L4_syn.csv,Test_Conj_SyncL4.csv,ConjL4_sync_norm.wav,lo,24:28,blue,Online_conjL4_syn//aLO25.666.wav,666.0,,,0,0,0,3,0,18,18,26,0,3,3,1,,,,,,,,,,,,,,,,,,,,,,,,,,,,,,,,,,,,,,,,,,,,,,,,,,,,,,,,,0.007148899996536784,55.23843599999964,55.23843599999964,55.23843599999964,None,y,0.1235710999899311,,,,,,,,,,,,,,,,,,,,,,,,,,,,,,,,,,193839,001,2023-06-02_16h56.25.443,Pilot_online_tryings,2022.2.5,None,
ConjL4_syn.csv,directory_online_conj_L4_syn.csv,Test_Conj_SyncL4.csv,ConjL4_sync_norm.wav,lo,24:28,blue,,,,,0,0,0,3,0,18,18,26,,,,,,,,,,,,,,,,,,,,,,,,,,,,,,,,,,,,,,,,,,,,,,,,,,,,,,,,,,,,,,,,,,,,,,,,,,,,,,,,,,,,,,,,,,,,,,,,,,,,,193839,001,2023-06-02_16h56.25.443,Pilot_online_tryings,2022.2.5,None,
ConjL4_syn.csv,directory_online_conj_L4_syn.csv,Test_Conj_SyncL4.csv,ConjL4_sync_norm.wav,bu,80:84,orange,Online_conjL4_syn//cBU17.1332.wav,1332.0,,,0,0,0,3,0,19,19,11,0,0,0,1,,,,,,,,,,,,,,,,,,,,,,,,,,,,,,,,,,,,,,,,,,,,,,,,,,,,,,,55.40704650001135,55.40704650001135,0.02350700000533834,55.40704650001135,55.40704650001135,55.40704650001135,None,y,0.15257809998001903,,,,,,,,,,,,,,,,,,,,,,,,,,,,,,,,,,193839,001,2023-06-02_16h56.25.443,Pilot_online_tryings,2022.2.5,None,
ConjL4_syn.csv,directory_online_conj_L4_syn.csv,Test_Conj_SyncL4.csv,ConjL4_sync_norm.wav,bu,80:84,orange,Online_conjL4_syn//cBU18.none.wav,none,,,0,0,0,3,0,19,19,11,0,1,1,2,,,,,,,,,,,,,,,,,,,,,,,,,,,,,,,,,,,,,,,,,,,,,,,,,,,,,,,,,0.011075600006734021,55.616481400007615,55.616481400007615,55.616481400007615,None,y,0.06476359999214765,,,,,,,,,,,,,,,,,,,,,,,,,,,,,,,,,,193839,001,2023-06-02_16h56.25.443,Pilot_online_tryings,2022.2.5,None,
ConjL4_syn.csv,directory_online_conj_L4_syn.csv,Test_Conj_SyncL4.csv,ConjL4_sync_norm.wav,bu,80:84,orange,Online_conjL4_syn//cBU16.1110.wav,1110.0,,,0,0,0,3,0,19,19,11,0,2,2,0,,,,,,,,,,,,,,,,,,,,,,,,,,,,,,,,,,,,,,,,,,,,,,,,,,,,,,,,,0.008587200005422346,55.738308900006814,55.738308900006814,55.738308900006814,None,y,0.10489249999227468,,,,,,,,,,,,,,,,,,,,,,,,,,,,,,,,,,193839,001,2023-06-02_16h56.25.443,Pilot_online_tryings,2022.2.5,None,
ConjL4_syn.csv,directory_online_conj_L4_syn.csv,Test_Conj_SyncL4.csv,ConjL4_sync_norm.wav,bu,80:84,orange,Online_conjL4_syn//cBU19.none.wav,none,,,0,0,0,3,0,19,19,11,0,3,3,3,,,,,,,,,,,,,,,,,,,,,,,,,,,,,,,,,,,,,,,,,,,,,,,,,,,,,,,,,0.015145299999858253,55.895271400004276,55.895271400004276,55.895271400004276,None,y,0.10346949998347554,,,,,,,,,,,,,,,,,,,,,,,,,,,,,,,,,,193839,001,2023-06-02_16h56.25.443,Pilot_online_tryings,2022.2.5,None,
ConjL4_syn.csv,directory_online_conj_L4_syn.csv,Test_Conj_SyncL4.csv,ConjL4_sync_norm.wav,bu,80:84,orange,,,,,0,0,0,3,0,19,19,11,,,,,,,,,,,,,,,,,,,,,,,,,,,,,,,,,,,,,,,,,,,,,,,,,,,,,,,,,,,,,,,,,,,,,,,,,,,,,,,,,,,,,,,,,,,,,,,,,,,,,193839,001,2023-06-02_16h56.25.443,Pilot_online_tryings,2022.2.5,None,
ConjL4_syn.csv,directory_online_conj_L4_syn.csv,Test_Conj_SyncL4.csv,ConjL4_sync_norm.wav,ja,36:40,green,Online_conjL4_syn//bJA7.none.wav,none,,,0,0,0,3,0,20,20,16,0,0,0,3,,,,,,,,,,,,,,,,,,,,,,,,,,,,,,,,,,,,,,,,,,,,,,,,,,,,,,,56.081179900007555,56.081179900007555,0.04048789999797009,56.081179900007555,56.081179900007555,56.081179900007555,None,y,0.06209799999487586,,,,,,,,,,,,,,,,,,,,,,,,,,,,,,,,,,193839,001,2023-06-02_16h56.25.443,Pilot_online_tryings,2022.2.5,None,
ConjL4_syn.csv,directory_online_conj_L4_syn.csv,Test_Conj_SyncL4.csv,ConjL4_sync_norm.wav,ja,36:40,green,Online_conjL4_syn//bJA4.0.wav,0.0,,,0,0,0,3,0,20,20,16,0,1,1,0,,,,,,,,,,,,,,,,,,,,,,,,,,,,,,,,,,,,,,,,,,,,,,,,,,,,,,,,,0.026419500005431473,56.18329030000314,56.18329030000314,56.18329030000314,None,y,0.14352769999823067,,,,,,,,,,,,,,,,,,,,,,,,,,,,,,,,,,193839,001,2023-06-02_16h56.25.443,Pilot_online_tryings,2022.2.5,None,
ConjL4_syn.csv,directory_online_conj_L4_syn.csv,Test_Conj_SyncL4.csv,ConjL4_sync_norm.wav,ja,36:40,green,Online_conjL4_syn//bJA6.666.wav,666.0,,,0,0,0,3,0,20,20,16,0,2,2,2,,,,,,,,,,,,,,,,,,,,,,,,,,,,,,,,,,,,,,,,,,,,,,,,,,,,,,,,,0.015232299992931075,56.365199899999425,56.365199899999425,56.365199899999425,None,y,0.24825799999234732,,,,,,,,,,,,,,,,,,,,,,,,,,,,,,,,,,193839,001,2023-06-02_16h56.25.443,Pilot_online_tryings,2022.2.5,None,
ConjL4_syn.csv,directory_online_conj_L4_syn.csv,Test_Conj_SyncL4.csv,ConjL4_sync_norm.wav,ja,36:40,green,Online_conjL4_syn//bJA5.none.wav,none,,,0,0,0,3,0,20,20,16,0,3,3,1,,,,,,,,,,,,,,,,,,,,,,,,,,,,,,,,,,,,,,,,,,,,,,,,,,,,,,,,,0.00546050000411924,56.64568830000644,56.64568830000644,56.64568830000644,None,y,0.11818989997846074,,,,,,,,,,,,,,,,,,,,,,,,,,,,,,,,,,193839,001,2023-06-02_16h56.25.443,Pilot_online_tryings,2022.2.5,None,
ConjL4_syn.csv,directory_online_conj_L4_syn.csv,Test_Conj_SyncL4.csv,ConjL4_sync_norm.wav,ja,36:40,green,,,,,0,0,0,3,0,20,20,16,,,,,,,,,,,,,,,,,,,,,,,,,,,,,,,,,,,,,,,,,,,,,,,,,,,,,,,,,,,,,,,,,,,,,,,,,,,,,,,,,,,,,,,,,,,,,,,,,,,,,193839,001,2023-06-02_16h56.25.443,Pilot_online_tryings,2022.2.5,None,
ConjL4_syn.csv,directory_online_conj_L4_syn.csv,Test_Conj_SyncL4.csv,ConjL4_sync_norm.wav,lo,16:20,blue,Online_conjL4_syn//aLO17.666.wav,666.0,,,0,0,0,3,0,21,21,17,0,0,0,1,,,,,,,,,,,,,,,,,,,,,,,,,,,,,,,,,,,,,,,,,,,,,,,,,,,,,,,56.81097230000887,56.81097230000887,0.028779799991752952,56.81097230000887,56.81097230000887,56.81097230000887,None,y,0.10551449998456519,,,,,,,,,,,,,,,,,,,,,,,,,,,,,,,,,,193839,001,2023-06-02_16h56.25.443,Pilot_online_tryings,2022.2.5,None,
ConjL4_syn.csv,directory_online_conj_L4_syn.csv,Test_Conj_SyncL4.csv,ConjL4_sync_norm.wav,lo,16:20,blue,Online_conjL4_syn//aLO18.none.wav,none,,,0,0,0,3,0,21,21,17,0,1,1,2,,,,,,,,,,,,,,,,,,,,,,,,,,,,,,,,,,,,,,,,,,,,,,,,,,,,,,,,,0.020927299992763437,56.970707900007255,56.970707900007255,56.970707900007255,None,y,0.1362100999976974,,,,,,,,,,,,,,,,,,,,,,,,,,,,,,,,,,193839,001,2023-06-02_16h56.25.443,Pilot_online_tryings,2022.2.5,None,
ConjL4_syn.csv,directory_online_conj_L4_syn.csv,Test_Conj_SyncL4.csv,ConjL4_sync_norm.wav,lo,16:20,blue,Online_conjL4_syn//aLO16.1554.wav,1554.0,,,0,0,0,3,0,21,21,17,0,2,2,0,,,,,,,,,,,,,,,,,,,,,,,,,,,,,,,,,,,,,,,,,,,,,,,,,,,,,,,,,0.005752299999585375,57.14599720000115,57.14599720000115,57.14599720000115,None,y,0.1535258999938378,,,,,,,,,,,,,,,,,,,,,,,,,,,,,,,,,,193839,001,2023-06-02_16h56.25.443,Pilot_online_tryings,2022.2.5,None,
ConjL4_syn.csv,directory_online_conj_L4_syn.csv,Test_Conj_SyncL4.csv,ConjL4_sync_norm.wav,lo,16:20,blue,Online_conjL4_syn//aLO19.none.wav,none,,,0,0,0,3,0,21,21,17,0,3,3,3,,,,,,,,,,,,,,,,,,,,,,,,,,,,,,,,,,,,,,,,,,,,,,,,,,,,,,,,,0.019151300002704374,57.332978999998886,57.332978999998886,57.332978999998886,None,y,0.09777389997907449,,,,,,,,,,,,,,,,,,,,,,,,,,,,,,,,,,193839,001,2023-06-02_16h56.25.443,Pilot_online_tryings,2022.2.5,None,
ConjL4_syn.csv,directory_online_conj_L4_syn.csv,Test_Conj_SyncL4.csv,ConjL4_sync_norm.wav,lo,16:20,blue,,,,,0,0,0,3,0,21,21,17,,,,,,,,,,,,,,,,,,,,,,,,,,,,,,,,,,,,,,,,,,,,,,,,,,,,,,,,,,,,,,,,,,,,,,,,,,,,,,,,,,,,,,,,,,,,,,,,,,,,,193839,001,2023-06-02_16h56.25.443,Pilot_online_tryings,2022.2.5,None,
ConjL4_syn.csv,directory_online_conj_L4_syn.csv,Test_Conj_SyncL4.csv,ConjL4_sync_norm.wav,pe,100:104,red,Online_conjL4_syn//dPE4.none.wav,none,,,0,0,0,3,0,22,22,9,0,0,0,0,,,,,,,,,,,,,,,,,,,,,,,,,,,,,,,,,,,,,,,,,,,,,,,,,,,,,,,57.50108300001011,57.50108300001011,0.03238190000411123,57.50108300001011,57.50108300001011,57.50108300001011,None,y,0.11526729998877272,,,,,,,,,,,,,,,,,,,,,,,,,,,,,,,,,,193839,001,2023-06-02_16h56.25.443,Pilot_online_tryings,2022.2.5,None,
ConjL4_syn.csv,directory_online_conj_L4_syn.csv,Test_Conj_SyncL4.csv,ConjL4_sync_norm.wav,pe,100:104,red,Online_conjL4_syn//dPE6.none.wav,none,,,0,0,0,3,0,22,22,9,0,1,1,2,,,,,,,,,,,,,,,,,,,,,,,,,,,,,,,,,,,,,,,,,,,,,,,,,,,,,,,,,0.011980000010225922,57.64514190000773,57.64514190000773,57.64514190000773,None,y,0.14298399999097455,,,,,,,,,,,,,,,,,,,,,,,,,,,,,,,,,,193839,001,2023-06-02_16h56.25.443,Pilot_online_tryings,2022.2.5,None,
ConjL4_syn.csv,directory_online_conj_L4_syn.csv,Test_Conj_SyncL4.csv,ConjL4_sync_norm.wav,pe,100:104,red,Online_conjL4_syn//dPE5.none.wav,none,,,0,0,0,3,0,22,22,9,0,2,2,1,,,,,,,,,,,,,,,,,,,,,,,,,,,,,,,,,,,,,,,,,,,,,,,,,,,,,,,,,0.027463099992019124,57.8416930000094,57.8416930000094,57.8416930000094,None,y,0.11410149998846464,,,,,,,,,,,,,,,,,,,,,,,,,,,,,,,,,,193839,001,2023-06-02_16h56.25.443,Pilot_online_tryings,2022.2.5,None,
ConjL4_syn.csv,directory_online_conj_L4_syn.csv,Test_Conj_SyncL4.csv,ConjL4_sync_norm.wav,pe,100:104,red,Online_conjL4_syn//dPE7.222.wav,222.0,,,0,0,0,3,0,22,22,9,0,3,3,3,,,,,,,,,,,,,,,,,,,,,,,,,,,,,,,,,,,,,,,,,,,,,,,,,,,,,,,,,0.02116570000362117,57.99463749999995,57.99463749999995,57.99463749999995,None,y,0.0941700999828754,,,,,,,,,,,,,,,,,,,,,,,,,,,,,,,,,,193839,001,2023-06-02_16h56.25.443,Pilot_online_tryings,2022.2.5,None,
ConjL4_syn.csv,directory_online_conj_L4_syn.csv,Test_Conj_SyncL4.csv,ConjL4_sync_norm.wav,pe,100:104,red,,,,,0,0,0,3,0,22,22,9,,,,,,,,,,,,,,,,,,,,,,,,,,,,,,,,,,,,,,,,,,,,,,,,,,,,,,,,,,,,,,,,,,,,,,,,,,,,,,,,,,,,,,,,,,,,,,,,,,,,,193839,001,2023-06-02_16h56.25.443,Pilot_online_tryings,2022.2.5,None,
ConjL4_syn.csv,directory_online_conj_L4_syn.csv,Test_Conj_SyncL4.csv,ConjL4_sync_norm.wav,ja,60:64,green,Online_conjL4_syn//bJA29.none.wav,none,,,0,0,0,3,0,23,23,7,0,0,0,1,,,,,,,,,,,,,,,,,,,,,,,,,,,,,,,,,,,,,,,,,,,,,,,,,,,,,,,58.15546660000109,58.15546660000109,0.022926100005861372,58.15546660000109,58.15546660000109,58.15546660000109,None,y,0.10302439998486079,,,,,,,,,,,,,,,,,,,,,,,,,,,,,,,,,,193839,001,2023-06-02_16h56.25.443,Pilot_online_tryings,2022.2.5,None,
ConjL4_syn.csv,directory_online_conj_L4_syn.csv,Test_Conj_SyncL4.csv,ConjL4_sync_norm.wav,ja,60:64,green,Online_conjL4_syn//bJA30.none.wav,none,,,0,0,0,3,0,23,23,7,0,1,1,2,,,,,,,,,,,,,,,,,,,,,,,,,,,,,,,,,,,,,,,,,,,,,,,,,,,,,,,,,0.010981200000969693,58.30110060000152,58.30110060000152,58.30110060000152,None,y,0.10983859999396373,,,,,,,,,,,,,,,,,,,,,,,,,,,,,,,,,,193839,001,2023-06-02_16h56.25.443,Pilot_online_tryings,2022.2.5,None,
ConjL4_syn.csv,directory_online_conj_L4_syn.csv,Test_Conj_SyncL4.csv,ConjL4_sync_norm.wav,ja,60:64,green,Online_conjL4_syn//bJA31.none.wav,none,,,0,0,0,3,0,23,23,7,0,2,2,3,,,,,,,,,,,,,,,,,,,,,,,,,,,,,,,,,,,,,,,,,,,,,,,,,,,,,,,,,0.016373100006603636,58.457825400008005,58.457825400008005,58.457825400008005,None,y,0.12462389998836443,,,,,,,,,,,,,,,,,,,,,,,,,,,,,,,,,,193839,001,2023-06-02_16h56.25.443,Pilot_online_tryings,2022.2.5,None,
ConjL4_syn.csv,directory_online_conj_L4_syn.csv,Test_Conj_SyncL4.csv,ConjL4_sync_norm.wav,ja,60:64,green,Online_conjL4_syn//bJA28.0.wav,0.0,,,0,0,0,3,0,23,23,7,0,3,3,0,,,,,,,,,,,,,,,,,,,,,,,,,,,,,,,,,,,,,,,,,,,,,,,,,,,,,,,,,0.03049640000972431,58.62522510001145,58.62522510001145,58.62522510001145,None,y,0.10003659999347292,,,,,,,,,,,,,,,,,,,,,,,,,,,,,,,,,,193839,001,2023-06-02_16h56.25.443,Pilot_online_tryings,2022.2.5,None,
ConjL4_syn.csv,directory_online_conj_L4_syn.csv,Test_Conj_SyncL4.csv,ConjL4_sync_norm.wav,ja,60:64,green,,,,,0,0,0,3,0,23,23,7,,,,,,,,,,,,,,,,,,,,,,,,,,,,,,,,,,,,,,,,,,,,,,,,,,,,,,,,,,,,,,,,,,,,,,,,,,,,,,,,,,,,,,,,,,,,,,,,,,,,,193839,001,2023-06-02_16h56.25.443,Pilot_online_tryings,2022.2.5,None,
ConjL4_syn.csv,directory_online_conj_L4_syn.csv,Test_Conj_SyncL4.csv,ConjL4_sync_norm.wav,bu,72:76,orange,Online_conjL4_syn//cBU10.1332.wav,1332.0,,,0,0,0,3,0,24,24,14,0,0,0,2,,,,,,,,,,,,,,,,,,,,,,,,,,,,,,,,,,,,,,,,,,,,,,,,,,,,,,,58.79863320000004,58.79863320000004,0.03883389999100473,58.79863320000004,58.79863320000004,58.79863320000004,None,y,0.10766249998414423,,,,,,,,,,,,,,,,,,,,,,,,,,,,,,,,,,193839,001,2023-06-02_16h56.25.443,Pilot_online_tryings,2022.2.5,None,
ConjL4_syn.csv,directory_online_conj_L4_syn.csv,Test_Conj_SyncL4.csv,ConjL4_sync_norm.wav,bu,72:76,orange,Online_conjL4_syn//cBU8.1110.wav,1110.0,,,0,0,0,3,0,24,24,14,0,1,1,0,,,,,,,,,,,,,,,,,,,,,,,,,,,,,,,,,,,,,,,,,,,,,,,,,,,,,,,,,0.019995800001197495,58.9571178000042,58.9571178000042,58.9571178000042,None,y,0.08515789998637047,,,,,,,,,,,,,,,,,,,,,,,,,,,,,,,,,,193839,001,2023-06-02_16h56.25.443,Pilot_online_tryings,2022.2.5,None,
ConjL4_syn.csv,directory_online_conj_L4_syn.csv,Test_Conj_SyncL4.csv,ConjL4_sync_norm.wav,bu,72:76,orange,Online_conjL4_syn//cBU9.none.wav,none,,,0,0,0,3,0,24,24,14,0,2,2,1,,,,,,,,,,,,,,,,,,,,,,,,,,,,,,,,,,,,,,,,,,,,,,,,,,,,,,,,,0.008963599990238436,59.08246420000796,59.08246420000796,59.08246420000796,None,y,0.12283489998662844,,,,,,,,,,,,,,,,,,,,,,,,,,,,,,,,,,193839,001,2023-06-02_16h56.25.443,Pilot_online_tryings,2022.2.5,None,
ConjL4_syn.csv,directory_online_conj_L4_syn.csv,Test_Conj_SyncL4.csv,ConjL4_sync_norm.wav,bu,72:76,orange,Online_conjL4_syn//cBU11.none.wav,none,,,0,0,0,3,0,24,24,14,0,3,3,3,,,,,,,,,,,,,,,,,,,,,,,,,,,,,,,,,,,,,,,,,,,,,,,,,,,,,,,,,0.03780189999088179,59.25683060000301,59.25683060000301,59.25683060000301,None,y,0.18056319998868275,,,,,,,,,,,,,,,,,,,,,,,,,,,,,,,,,,193839,001,2023-06-02_16h56.25.443,Pilot_online_tryings,2022.2.5,None,
ConjL4_syn.csv,directory_online_conj_L4_syn.csv,Test_Conj_SyncL4.csv,ConjL4_sync_norm.wav,bu,72:76,orange,,,,,0,0,0,3,0,24,24,14,,,,,,,,,,,,,,,,,,,,,,,,,,,,,,,,,,,,,,,,,,,,,,,,,,,,,,,,,,,,,,,,,,,,,,,,,,,,,,,,,,,,,,,,,,,,,,,,,,,,,193839,001,2023-06-02_16h56.25.443,Pilot_online_tryings,2022.2.5,None,
ConjL4_syn.csv,directory_online_conj_L4_syn.csv,Test_Conj_SyncL4.csv,ConjL4_sync_norm.wav,bu,68:72,orange,Online_conjL4_syn//cBU6.none.wav,none,,,0,0,0,3,0,25,25,18,0,0,0,2,,,,,,,,,,,,,,,,,,,,,,,,,,,,,,,,,,,,,,,,,,,,,,,,,,,,,,,59.49702180000895,59.49702180000895,0.029582899995148182,59.49702180000895,59.49702180000895,59.49702180000895,None,y,0.017450599974836223,,,,,,,,,,,,,,,,,,,,,,,,,,,,,,,,,,193839,001,2023-06-02_16h56.25.443,Pilot_online_tryings,2022.2.5,None,
ConjL4_syn.csv,directory_online_conj_L4_syn.csv,Test_Conj_SyncL4.csv,ConjL4_sync_norm.wav,bu,68:72,orange,Online_conjL4_syn//cBU5.none.wav,none,,,0,0,0,3,0,25,25,18,0,1,1,1,,,,,,,,,,,,,,,,,,,,,,,,,,,,,,,,,,,,,,,,,,,,,,,,,,,,,,,,,0.019340300001204014,59.553463900010684,59.553463900010684,59.553463900010684,None,y,0.12199559999862686,,,,,,,,,,,,,,,,,,,,,,,,,,,,,,,,,,193839,001,2023-06-02_16h56.25.443,Pilot_online_tryings,2022.2.5,None,
ConjL4_syn.csv,directory_online_conj_L4_syn.csv,Test_Conj_SyncL4.csv,ConjL4_sync_norm.wav,bu,68:72,orange,Online_conjL4_syn//cBU4.none.wav,none,,,0,0,0,3,0,25,25,18,0,2,2,0,,,,,,,,,,,,,,,,,,,,,,,,,,,,,,,,,,,,,,,,,,,,,,,,,,,,,,,,,0.006263100003707223,59.70764410000993,59.70764410000993,59.70764410000993,None,y,0.11101089998555835,,,,,,,,,,,,,,,,,,,,,,,,,,,,,,,,,,193839,001,2023-06-02_16h56.25.443,Pilot_online_tryings,2022.2.5,None,
ConjL4_syn.csv,directory_online_conj_L4_syn.csv,Test_Conj_SyncL4.csv,ConjL4_sync_norm.wav,bu,68:72,orange,Online_conjL4_syn//cBU7.none.wav,none,,,0,0,0,3,0,25,25,18,0,3,3,3,,,,,,,,,,,,,,,,,,,,,,,,,,,,,,,,,,,,,,,,,,,,,,,,,,,,,,,,,0.024283099992317148,59.870676700011245,59.870676700011245,59.870676700011245,None,y,0.10180819997913204,,,,,,,,,,,,,,,,,,,,,,,,,,,,,,,,,,193839,001,2023-06-02_16h56.25.443,Pilot_online_tryings,2022.2.5,None,
ConjL4_syn.csv,directory_online_conj_L4_syn.csv,Test_Conj_SyncL4.csv,ConjL4_sync_norm.wav,bu,68:72,orange,,,,,0,0,0,3,0,25,25,18,,,,,,,,,,,,,,,,,,,,,,,,,,,,,,,,,,,,,,,,,,,,,,,,,,,,,,,,,,,,,,,,,,,,,,,,,,,,,,,,,,,,,,,,,,,,,,,,,,,,,193839,001,2023-06-02_16h56.25.443,Pilot_online_tryings,2022.2.5,None,
ConjL4_syn.csv,directory_online_conj_L4_syn.csv,Test_Conj_SyncL4.csv,ConjL4_sync_norm.wav,bu,64:68,orange,Online_conjL4_syn//cBU1.444.wav,444.0,,,0,0,0,3,0,26,26,23,0,0,0,1,,,,,,,,,,,,,,,,,,,,,,,,,,,,,,,,,,,,,,,,,,,,,,,,,,,,,,,60.030522400003974,60.030522400003974,0.027263600000878796,60.030522400003974,60.030522400003974,60.030522400003974,None,y,0.0980771999747958,,,,,,,,,,,,,,,,,,,,,,,,,,,,,,,,,,193839,001,2023-06-02_16h56.25.443,Pilot_online_tryings,2022.2.5,None,
ConjL4_syn.csv,directory_online_conj_L4_syn.csv,Test_Conj_SyncL4.csv,ConjL4_sync_norm.wav,bu,64:68,orange,Online_conjL4_syn//cBU2.1332.wav,1332.0,,,0,0,0,3,0,26,26,23,0,1,1,2,,,,,,,,,,,,,,,,,,,,,,,,,,,,,,,,,,,,,,,,,,,,,,,,,,,,,,,,,0.019212300001527183,60.176828299998306,60.176828299998306,60.176828299998306,None,y,0.11269559999345802,,,,,,,,,,,,,,,,,,,,,,,,,,,,,,,,,,193839,001,2023-06-02_16h56.25.443,Pilot_online_tryings,2022.2.5,None,
ConjL4_syn.csv,directory_online_conj_L4_syn.csv,Test_Conj_SyncL4.csv,ConjL4_sync_norm.wav,bu,64:68,orange,Online_conjL4_syn//cBU0.444.wav,444.0,,,0,0,0,3,0,26,26,23,0,2,2,0,,,,,,,,,,,,,,,,,,,,,,,,,,,,,,,,,,,,,,,,,,,,,,,,,,,,,,,,,0.0088304000091739,60.33502589999989,60.33502589999989,60.33502589999989,None,y,0.10932789999060333,,,,,,,,,,,,,,,,,,,,,,,,,,,,,,,,,,193839,001,2023-06-02_16h56.25.443,Pilot_online_tryings,2022.2.5,None,
ConjL4_syn.csv,directory_online_conj_L4_syn.csv,Test_Conj_SyncL4.csv,ConjL4_sync_norm.wav,bu,64:68,orange,Online_conjL4_syn//cBU3.444.wav,444.0,,,0,0,0,3,0,26,26,23,0,3,3,3,,,,,,,,,,,,,,,,,,,,,,,,,,,,,,,,,,,,,,,,,,,,,,,,,,,,,,,,,0.01993120000406634,60.48845440000878,60.48845440000878,60.48845440000878,None,y,0.10866769998392556,,,,,,,,,,,,,,,,,,,,,,,,,,,,,,,,,,193839,001,2023-06-02_16h56.25.443,Pilot_online_tryings,2022.2.5,None,
ConjL4_syn.csv,directory_online_conj_L4_syn.csv,Test_Conj_SyncL4.csv,ConjL4_sync_norm.wav,bu,64:68,orange,,,,,0,0,0,3,0,26,26,23,,,,,,,,,,,,,,,,,,,,,,,,,,,,,,,,,,,,,,,,,,,,,,,,,,,,,,,,,,,,,,,,,,,,,,,,,,,,,,,,,,,,,,,,,,,,,,,,,,,,,193839,001,2023-06-02_16h56.25.443,Pilot_online_tryings,2022.2.5,None,
ConjL4_syn.csv,directory_online_conj_L4_syn.csv,Test_Conj_SyncL4.csv,ConjL4_sync_norm.wav,pe,108:112,red,Online_conjL4_syn//dPE15.none.wav,none,,,0,0,0,3,0,27,27,0,0,0,0,3,,,,,,,,,,,,,,,,,,,,,,,,,,,,,,,,,,,,,,,,,,,,,,,,,,,,,,,60.661375100011355,60.661375100011355,0.032584699991275556,60.661375100011355,60.661375100011355,60.661375100011355,None,y,0.0900087999907555,,,,,,,,,,,,,,,,,,,,,,,,,,,,,,,,,,193839,001,2023-06-02_16h56.25.443,Pilot_online_tryings,2022.2.5,None,
ConjL4_syn.csv,directory_online_conj_L4_syn.csv,Test_Conj_SyncL4.csv,ConjL4_sync_norm.wav,pe,108:112,red,Online_conjL4_syn//dPE13.none.wav,none,,,0,0,0,3,0,27,27,0,0,1,1,1,,,,,,,,,,,,,,,,,,,,,,,,,,,,,,,,,,,,,,,,,,,,,,,,,,,,,,,,,0.02765289999661036,60.81214880000334,60.81214880000334,60.81214880000334,None,y,0.09470509998209309,,,,,,,,,,,,,,,,,,,,,,,,,,,,,,,,,,193839,001,2023-06-02_16h56.25.443,Pilot_online_tryings,2022.2.5,None,
ConjL4_syn.csv,directory_online_conj_L4_syn.csv,Test_Conj_SyncL4.csv,ConjL4_sync_norm.wav,pe,108:112,red,Online_conjL4_syn//dPE12.none.wav,none,,,0,0,0,3,0,27,27,0,0,2,2,0,,,,,,,,,,,,,,,,,,,,,,,,,,,,,,,,,,,,,,,,,,,,,,,,,,,,,,,,,0.005895900001632981,60.95795480000379,60.95795480000379,60.95795480000379,None,y,0.11403119999158662,,,,,,,,,,,,,,,,,,,,,,,,,,,,,,,,,,193839,001,2023-06-02_16h56.25.443,Pilot_online_tryings,2022.2.5,None,
ConjL4_syn.csv,directory_online_conj_L4_syn.csv,Test_Conj_SyncL4.csv,ConjL4_sync_norm.wav,pe,108:112,red,Online_conjL4_syn//dPE14.222.wav,222.0,,,0,0,0,3,0,27,27,0,0,3,3,2,,,,,,,,,,,,,,,,,,,,,,,,,,,,,,,,,,,,,,,,,,,,,,,,,,,,,,,,,0.02993160000187345,61.12483900001098,61.12483900001098,61.12483900001098,None,y,0.08513939997646958,,,,,,,,,,,,,,,,,,,,,,,,,,,,,,,,,,193839,001,2023-06-02_16h56.25.443,Pilot_online_tryings,2022.2.5,None,
ConjL4_syn.csv,directory_online_conj_L4_syn.csv,Test_Conj_SyncL4.csv,ConjL4_sync_norm.wav,pe,108:112,red,,,,,0,0,0,3,0,27,27,0,,,,,,,,,,,,,,,,,,,,,,,,,,,,,,,,,,,,,,,,,,,,,,,,,,,,,,,,,,,,,,,,,,,,,,,,,,,,,,,,,,,,,,,,,,,,,,,,,,,,,193839,001,2023-06-02_16h56.25.443,Pilot_online_tryings,2022.2.5,None,
ConjL4_syn.csv,directory_online_conj_L4_syn.csv,Test_Conj_SyncL4.csv,ConjL4_sync_norm.wav,pe,116:120,red,Online_conjL4_syn//dPE23.none.wav,none,,,0,0,0,3,0,28,28,25,0,0,0,3,,,,,,,,,,,,,,,,,,,,,,,,,,,,,,,,,,,,,,,,,,,,,,,,,,,,,,,61.272197700003744,61.272197700003744,0.04333829999086447,61.272197700003744,61.272197700003744,61.272197700003744,None,y,0.08225179999135435,,,,,,,,,,,,,,,,,,,,,,,,,,,,,,,,,,193839,001,2023-06-02_16h56.25.443,Pilot_online_tryings,2022.2.5,None,
ConjL4_syn.csv,directory_online_conj_L4_syn.csv,Test_Conj_SyncL4.csv,ConjL4_sync_norm.wav,pe,116:120,red,Online_conjL4_syn//dPE21.1554.wav,1554.0,,,0,0,0,3,0,28,28,25,0,1,1,1,,,,,,,,,,,,,,,,,,,,,,,,,,,,,,,,,,,,,,,,,,,,,,,,,,,,,,,,,0.024788300012005493,61.410459000006085,61.410459000006085,61.410459000006085,None,y,0.09995219997654203,,,,,,,,,,,,,,,,,,,,,,,,,,,,,,,,,,193839,001,2023-06-02_16h56.25.443,Pilot_online_tryings,2022.2.5,None,
ConjL4_syn.csv,directory_online_conj_L4_syn.csv,Test_Conj_SyncL4.csv,ConjL4_sync_norm.wav,pe,116:120,red,Online_conjL4_syn//dPE20.222.wav,222.0,,,0,0,0,3,0,28,28,25,0,2,2,0,,,,,,,,,,,,,,,,,,,,,,,,,,,,,,,,,,,,,,,,,,,,,,,,,,,,,,,,,0.018384700000751764,61.55299029999878,61.55299029999878,61.55299029999878,None,y,0.1234373999905074,,,,,,,,,,,,,,,,,,,,,,,,,,,,,,,,,,193839,001,2023-06-02_16h56.25.443,Pilot_online_tryings,2022.2.5,None,
ConjL4_syn.csv,directory_online_conj_L4_syn.csv,Test_Conj_SyncL4.csv,ConjL4_sync_norm.wav,pe,116:120,red,Online_conjL4_syn//dPE22.222.wav,222.0,,,0,0,0,3,0,28,28,25,0,3,3,2,,,,,,,,,,,,,,,,,,,,,,,,,,,,,,,,,,,,,,,,,,,,,,,,,,,,,,,,,0.028210100004798733,61.724595699997735,61.724595699997735,61.724595699997735,None,y,0.11017489999358077,,,,,,,,,,,,,,,,,,,,,,,,,,,,,,,,,,193839,001,2023-06-02_16h56.25.443,Pilot_online_tryings,2022.2.5,None,
ConjL4_syn.csv,directory_online_conj_L4_syn.csv,Test_Conj_SyncL4.csv,ConjL4_sync_norm.wav,pe,116:120,red,,,,,0,0,0,3,0,28,28,25,,,,,,,,,,,,,,,,,,,,,,,,,,,,,,,,,,,,,,,,,,,,,,,,,,,,,,,,,,,,,,,,,,,,,,,,,,,,,,,,,,,,,,,,,,,,,,,,,,,,,193839,001,2023-06-02_16h56.25.443,Pilot_online_tryings,2022.2.5,None,
ConjL4_syn.csv,directory_online_conj_L4_syn.csv,Test_Conj_SyncL4.csv,ConjL4_sync_norm.wav,ja,48:52,green,Online_conjL4_syn//bJA19.666.wav,666.0,,,0,0,0,3,0,29,29,12,0,0,0,3,,,,,,,,,,,,,,,,,,,,,,,,,,,,,,,,,,,,,,,,,,,,,,,,,,,,,,,61.87555670000438,61.87555670000438,0.025398500001756474,61.87555670000438,61.87555670000438,61.87555670000438,None,y,0.12014669999189209,,,,,,,,,,,,,,,,,,,,,,,,,,,,,,,,,,193839,001,2023-06-02_16h56.25.443,Pilot_online_tryings,2022.2.5,None,
ConjL4_syn.csv,directory_online_conj_L4_syn.csv,Test_Conj_SyncL4.csv,ConjL4_sync_norm.wav,ja,48:52,green,Online_conjL4_syn//bJA18.none.wav,none,,,0,0,0,3,0,29,29,12,0,1,1,2,,,,,,,,,,,,,,,,,,,,,,,,,,,,,,,,,,,,,,,,,,,,,,,,,,,,,,,,,0.028350399996270426,62.062511399999494,62.062511399999494,62.062511399999494,None,y,0.07866499999363441,,,,,,,,,,,,,,,,,,,,,,,,,,,,,,,,,,193839,001,2023-06-02_16h56.25.443,Pilot_online_tryings,2022.2.5,None,
ConjL4_syn.csv,directory_online_conj_L4_syn.csv,Test_Conj_SyncL4.csv,ConjL4_sync_norm.wav,ja,48:52,green,Online_conjL4_syn//bJA17.none.wav,none,,,0,0,0,3,0,29,29,12,0,2,2,1,,,,,,,,,,,,,,,,,,,,,,,,,,,,,,,,,,,,,,,,,,,,,,,,,,,,,,,,,0.006728999986080453,62.17567580001196,62.17567580001196,62.17567580001196,None,y,0.11973549997492228,,,,,,,,,,,,,,,,,,,,,,,,,,,,,,,,,,193839,001,2023-06-02_16h56.25.443,Pilot_online_tryings,2022.2.5,None,
ConjL4_syn.csv,directory_online_conj_L4_syn.csv,Test_Conj_SyncL4.csv,ConjL4_sync_norm.wav,ja,48:52,green,Online_conjL4_syn//bJA16.none.wav,none,,,0,0,0,3,0,29,29,12,0,3,3,0,,,,,,,,,,,,,,,,,,,,,,,,,,,,,,,,,,,,,,,,,,,,,,,,,,,,,,,,,0.014708399990922771,62.33269219999784,62.33269219999784,62.33269219999784,None,y,0.1312144999828888,,,,,,,,,,,,,,,,,,,,,,,,,,,,,,,,,,193839,001,2023-06-02_16h56.25.443,Pilot_online_tryings,2022.2.5,None,
ConjL4_syn.csv,directory_online_conj_L4_syn.csv,Test_Conj_SyncL4.csv,ConjL4_sync_norm.wav,ja,48:52,green,,,,,0,0,0,3,0,29,29,12,,,,,,,,,,,,,,,,,,,,,,,,,,,,,,,,,,,,,,,,,,,,,,,,,,,,,,,,,,,,,,,,,,,,,,,,,,,,,,,,,,,,,,,,,,,,,,,,,,,,,193839,001,2023-06-02_16h56.25.443,Pilot_online_tryings,2022.2.5,None,
ConjL4_syn.csv,directory_online_conj_L4_syn.csv,Test_Conj_SyncL4.csv,ConjL4_sync_norm.wav,lo,20:24,blue,Online_conjL4_syn//aLO23.none.wav,none,,,0,0,0,3,0,30,30,31,0,0,0,3,,,,,,,,,,,,,,,,,,,,,,,,,,,,,,,,,,,,,,,,,,,,,,,,,,,,,,,62.543453700011014,62.543453700011014,0.03628420000313781,62.543453700011014,62.543453700011014,62.543453700011014,None,y,0.07941009999194648,,,,,,,,,,,,,,,,,,,,,,,,,,,,,,,,,,193839,001,2023-06-02_16h56.25.443,Pilot_online_tryings,2022.2.5,None,
ConjL4_syn.csv,directory_online_conj_L4_syn.csv,Test_Conj_SyncL4.csv,ConjL4_sync_norm.wav,lo,20:24,blue,Online_conjL4_syn//aLO22.none.wav,none,,,0,0,0,3,0,30,30,31,0,1,1,2,,,,,,,,,,,,,,,,,,,,,,,,,,,,,,,,,,,,,,,,,,,,,,,,,,,,,,,,,0.011640400000032969,62.705621000000974,62.705621000000974,62.705621000000974,None,y,0.07959299998765346,,,,,,,,,,,,,,,,,,,,,,,,,,,,,,,,,,193839,001,2023-06-02_16h56.25.443,Pilot_online_tryings,2022.2.5,None,
ConjL4_syn.csv,directory_online_conj_L4_syn.csv,Test_Conj_SyncL4.csv,ConjL4_sync_norm.wav,lo,20:24,blue,Online_conjL4_syn//aLO20.666.wav,666.0,,,0,0,0,3,0,30,30,31,0,2,2,0,,,,,,,,,,,,,,,,,,,,,,,,,,,,,,,,,,,,,,,,,,,,,,,,,,,,,,,,,0.02301449999504257,62.83839380000427,62.83839380000427,62.83839380000427,None,y,0.1031782999925781,,,,,,,,,,,,,,,,,,,,,,,,,,,,,,,,,,193839,001,2023-06-02_16h56.25.443,Pilot_online_tryings,2022.2.5,None,
ConjL4_syn.csv,directory_online_conj_L4_syn.csv,Test_Conj_SyncL4.csv,ConjL4_sync_norm.wav,lo,20:24,blue,Online_conjL4_syn//aLO21.666.wav,666.0,,,0,0,0,3,0,30,30,31,0,3,3,1,,,,,,,,,,,,,,,,,,,,,,,,,,,,,,,,,,,,,,,,,,,,,,,,,,,,,,,,,0.017446199999540113,62.988621199998306,62.988621199998306,62.988621199998306,None,y,0.1203137999837054,,,,,,,,,,,,,,,,,,,,,,,,,,,,,,,,,,193839,001,2023-06-02_16h56.25.443,Pilot_online_tryings,2022.2.5,None,
ConjL4_syn.csv,directory_online_conj_L4_syn.csv,Test_Conj_SyncL4.csv,ConjL4_sync_norm.wav,lo,20:24,blue,,,,,0,0,0,3,0,30,30,31,,,,,,,,,,,,,,,,,,,,,,,,,,,,,,,,,,,,,,,,,,,,,,,,,,,,,,,,,,,,,,,,,,,,,,,,,,,,,,,,,,,,,,,,,,,,,,,,,,,,,193839,001,2023-06-02_16h56.25.443,Pilot_online_tryings,2022.2.5,None,
ConjL4_syn.csv,directory_online_conj_L4_syn.csv,Test_Conj_SyncL4.csv,ConjL4_sync_norm.wav,bu,92:96,orange,Online_conjL4_syn//cBU28.none.wav,none,,,0,0,0,3,0,31,31,22,0,0,0,0,,,,,,,,,,,,,,,,,,,,,,,,,,,,,,,,,,,,,,,,,,,,,,,,,,,,,,,63.160524999999325,63.160524999999325,0.029119099999661557,63.160524999999325,63.160524999999325,63.160524999999325,None,y,0.12165029998868704,,,,,,,,,,,,,,,,,,,,,,,,,,,,,,,,,,193839,001,2023-06-02_16h56.25.443,Pilot_online_tryings,2022.2.5,None,
ConjL4_syn.csv,directory_online_conj_L4_syn.csv,Test_Conj_SyncL4.csv,ConjL4_sync_norm.wav,bu,92:96,orange,Online_conjL4_syn//cBU31.444.wav,444.0,,,0,0,0,3,0,31,31,22,0,1,1,3,,,,,,,,,,,,,,,,,,,,,,,,,,,,,,,,,,,,,,,,,,,,,,,,,,,,,,,,,0.014403799999854527,63.332552799998666,63.332552799998666,63.332552799998666,None,y,0.11820469998929184,,,,,,,,,,,,,,,,,,,,,,,,,,,,,,,,,,193839,001,2023-06-02_16h56.25.443,Pilot_online_tryings,2022.2.5,None,
ConjL4_syn.csv,directory_online_conj_L4_syn.csv,Test_Conj_SyncL4.csv,ConjL4_sync_norm.wav,bu,92:96,orange,Online_conjL4_syn//cBU30.0.wav,0.0,,,0,0,0,3,0,31,31,22,0,2,2,2,,,,,,,,,,,,,,,,,,,,,,,,,,,,,,,,,,,,,,,,,,,,,,,,,,,,,,,,,0.00829389999853447,63.48924350000743,63.48924350000743,63.48924350000743,None,y,0.12550789999659173,,,,,,,,,,,,,,,,,,,,,,,,,,,,,,,,,,193839,001,2023-06-02_16h56.25.443,Pilot_online_tryings,2022.2.5,None,
ConjL4_syn.csv,directory_online_conj_L4_syn.csv,Test_Conj_SyncL4.csv,ConjL4_sync_norm.wav,bu,92:96,orange,Online_conjL4_syn//cBU29.none.wav,none,,,0,0,0,3,0,31,31,22,0,3,3,1,,,,,,,,,,,,,,,,,,,,,,,,,,,,,,,,,,,,,,,,,,,,,,,,,,,,,,,,,0.46516930000507273,64.12116200001037,64.12116200001037,64.12116200001037,None,y,0.16018009999243077,,,,,,,,,,,,,,,,,,,,,,,,,,,,,,,,,,193839,001,2023-06-02_16h56.25.443,Pilot_online_tryings,2022.2.5,None,
ConjL4_syn.csv,directory_online_conj_L4_syn.csv,Test_Conj_SyncL4.csv,ConjL4_sync_norm.wav,bu,92:96,orange,,,,,0,0,0,3,0,31,31,22,,,,,,,,,,,,,,,,,,,,,,,,,,,,,,,,,,,,,,,,,,,,,,,,,,,,,,,,,,,,,,,,,,,,,,,,,,,,,,,,,,,,,,,,,,,,,,,,,,,,,193839,001,2023-06-02_16h56.25.443,Pilot_online_tryings,2022.2.5,None,
ConjL4_syn.csv,directory_online_conj_L4_syn.csv,Test_Conj_SyncL4.csv,ConjL4_sync_norm.wav,,,,,,testConjL4Syn//r1.s2.1.wav,,0,0,0,3,,,,,,,,,0,0,0,12,,,,,,,,,,,,,,,,,,,,,,,,,,,,,,,,,,,,,,,,,,,,,,,,,,,,,,,,,,,,64.33257790000062,64.33257790000062,space,0.9428711999789812,65.3327857000113,65.3327857000113,space,0.5516719999868656,65.92643269999826,65.92643269999826,space,0.4438948999886634,66.45668050000677,66.45668050000677,66.61462183000549,69.36424560000887,y,3.4850064999918686,69.98987000000488,69.98987000000488,z,1.2476876999862725,71.29642410000088,71.29642410000088,71.29642410000088,71.29642410000088,2,0.18886989998281933,,,,,,193839,001,2023-06-02_16h56.25.443,Pilot_online_tryings,2022.2.5,None,
ConjL4_syn.csv,directory_online_conj_L4_syn.csv,Test_Conj_SyncL4.csv,ConjL4_sync_norm.wav,,,,,,testConjL4Syn//r2.s1.0.wav,,0,0,0,3,,,,,,,,,0,1,1,14,,,,,,,,,,,,,,,,,,,,,,,,,,,,,,,,,,,,,,,,,,,,,,,,,,,,,,,,,,,,,,,,,,,,,,,,71.52506960000028,71.52506960000028,71.70808032999776,,y,0.15088939999986906,71.7074724999984,71.7074724999984,z,0.1647779999912018,71.9259877000004,71.9259877000004,71.9259877000004,71.9259877000004,2,0.10866499997791834,,,,,,193839,001,2023-06-02_16h56.25.443,Pilot_online_tryings,2022.2.5,None,
ConjL4_syn.csv,directory_online_conj_L4_syn.csv,Test_Conj_SyncL4.csv,ConjL4_sync_norm.wav,,,,,,testConjL4Syn//time_viol.r2.s2.0.wav,,0,0,0,3,,,,,,,,,0,2,2,23,,,,,,,,,,,,,,,,,,,,,,,,,,,,,,,,,,,,,,,,,,,,,,,,,,,,,,,,,,,,,,,,,,,,,,,,72.12571580000804,72.12571580000804,72.30123392999667,,y,0.09450089998426847,72.30120560000069,72.30120560000069,z,0.07909439998911694,72.42605170000752,72.42605170000752,72.42605170000752,72.42605170000752,2,0.06693589998758398,,,,,,193839,001,2023-06-02_16h56.25.443,Pilot_online_tryings,2022.2.5,None,
ConjL4_syn.csv,directory_online_conj_L4_syn.csv,Test_Conj_SyncL4.csv,ConjL4_sync_norm.wav,,,,,,testConjL4Syn//r2.s2.0.wav,,0,0,0,3,,,,,,,,,0,3,3,17,,,,,,,,,,,,,,,,,,,,,,,,,,,,,,,,,,,,,,,,,,,,,,,,,,,,,,,,,,,,,,,,,,,,,,,,72.55168330000015,72.55168330000015,,,y,0.08924889998161234,72.70839530001103,72.70839530001103,z,0.05435999998007901,72.80176729999948,72.80176729999948,72.80176729999948,72.80176729999948,2,0.08467069998732768,,,,,,193839,001,2023-06-02_16h56.25.443,Pilot_online_tryings,2022.2.5,None,
ConjL4_syn.csv,directory_online_conj_L4_syn.csv,Test_Conj_SyncL4.csv,ConjL4_sync_norm.wav,,,,,,testConjL4Syn//cat_viol.r2.s2.0.wav,,0,0,0,3,,,,,,,,,0,4,4,3,,,,,,,,,,,,,,,,,,,,,,,,,,,,,,,,,,,,,,,,,,,,,,,,,,,,,,,,,,,,,,,,,,,,,,,,72.93109189999814,72.93109189999814,,,y,0.0999036999855889,73.08229900000151,73.08229900000151,z,0.06471659998351242,73.20848739999929,73.20848739999929,73.20848739999929,73.20848739999929,2,0.03204149998782668,,,,,,193839,001,2023-06-02_16h56.25.443,Pilot_online_tryings,2022.2.5,None,
ConjL4_syn.csv,directory_online_conj_L4_syn.csv,Test_Conj_SyncL4.csv,ConjL4_sync_norm.wav,,,,,,testConjL4Syn//r1.s2.0.wav,,0,0,0,3,,,,,,,,,0,5,5,11,,,,,,,,,,,,,,,,,,,,,,,,,,,,,,,,,,,,,,,,,,,,,,,,,,,,,,,,,,,,,,,,,,,,,,,,73.30220260001079,73.30220260001079,,,y,0.08810159999120515,73.42730830000073,73.42730830000073,z,0.06592019999516197,73.58250270001008,73.58250270001008,73.58250270001008,73.58250270001008,2,0.38472649999312125,,,,,,193839,001,2023-06-02_16h56.25.443,Pilot_online_tryings,2022.2.5,None,
ConjL4_syn.csv,directory_online_conj_L4_syn.csv,Test_Conj_SyncL4.csv,ConjL4_sync_norm.wav,,,,,,testConjL4Syn//time_viol.r2.s1.0.wav,,0,0,0,3,,,,,,,,,0,6,6,22,,,,,,,,,,,,,,,,,,,,,,,,,,,,,,,,,,,,,,,,,,,,,,,,,,,,,,,,,,,,,,,,,,,,,,,,74.02560600001016,74.02560600001016,,,y,0.051207699987571687,74.11480860000302,74.11480860000302,z,0.13556079998670612,74.30162050000217,74.30162050000217,74.30162050000217,74.30162050000217,2,0.06300109998846892,,,,,,193839,001,2023-06-02_16h56.25.443,Pilot_online_tryings,2022.2.5,None,
ConjL4_syn.csv,directory_online_conj_L4_syn.csv,Test_Conj_SyncL4.csv,ConjL4_sync_norm.wav,,,,,,testConjL4Syn//r2.s1.2.wav,,0,0,0,3,,,,,,,,,0,7,7,16,,,,,,,,,,,,,,,,,,,,,,,,,,,,,,,,,,,,,,,,,,,,,,,,,,,,,,,,,,,,,,,,,,,,,,,,74.42756470000313,74.42756470000313,74.58263633000752,,y,0.15992789999290835,74.6451756000024,74.6451756000024,z,0.11462999999639578,74.80156250001164,74.80156250001164,74.80156250001164,74.80156250001164,2,0.08256149999215268,,,,,,193839,001,2023-06-02_16h56.25.443,Pilot_online_tryings,2022.2.5,None,
ConjL4_syn.csv,directory_online_conj_L4_syn.csv,Test_Conj_SyncL4.csv,ConjL4_sync_norm.wav,,,,,,testConjL4Syn//r1.s1.2.wav,,0,0,0,3,,,,,,,,,0,8,8,10,,,,,,,,,,,,,,,,,,,,,,,,,,,,,,,,,,,,,,,,,,,,,,,,,,,,,,,,,,,,,,,,,,,,,,,,74.93161330001021,74.93161330001021,75.11354073000984,,y,0.12675189999572467,75.1134607999993,75.1134607999993,z,0.08186839998234063,75.23845970000548,75.23845970000548,75.23845970000548,75.23845970000548,2,0.07210149998718407,,,,,,193839,001,2023-06-02_16h56.25.443,Pilot_online_tryings,2022.2.5,None,
ConjL4_syn.csv,directory_online_conj_L4_syn.csv,Test_Conj_SyncL4.csv,ConjL4_sync_norm.wav,,,,,,testConjL4Syn//cat_viol.r1.s2.0.wav,,0,0,0,3,,,,,,,,,0,9,9,1,,,,,,,,,,,,,,,,,,,,,,,,,,,,,,,,,,,,,,,,,,,,,,,,,,,,,,,,,,,,,,,,,,,,,,,,75.3642181000032,75.3642181000032,75.55175772999792,,y,0.1520952999853762,75.551211900005,75.551211900005,z,0.10943419998511672,75.70782450000115,75.70782450000115,75.70782450000115,75.70782450000115,2,0.07543339997937437,,,,,,193839,001,2023-06-02_16h56.25.443,Pilot_online_tryings,2022.2.5,None,
ConjL4_syn.csv,directory_online_conj_L4_syn.csv,Test_Conj_SyncL4.csv,ConjL4_sync_norm.wav,,,,,,testConjL4Syn//r1.s2.2.wav,,0,0,0,3,,,,,,,,,0,10,10,13,,,,,,,,,,,,,,,,,,,,,,,,,,,,,,,,,,,,,,,,,,,,,,,,,,,,,,,,,,,,,,,,,,,,,,,,75.83236949999991,75.83236949999991,76.05428543000744,,y,0.14165479999792296,76.05420520000916,76.05420520000916,z,0.06153809998068027,76.14456480000808,76.14456480000808,76.14456480000808,76.14456480000808,2,0.06041789999289904,,,,,,193839,001,2023-06-02_16h56.25.443,Pilot_online_tryings,2022.2.5,None,
ConjL4_syn.csv,directory_online_conj_L4_syn.csv,Test_Conj_SyncL4.csv,ConjL4_sync_norm.wav,,,,,,testConjL4Syn//r2.s1.1.wav,,0,0,0,3,,,,,,,,,0,11,11,15,,,,,,,,,,,,,,,,,,,,,,,,,,,,,,,,,,,,,,,,,,,,,,,,,,,,,,,,,,,,,,,,,,,,,,,,76.2391357000015,76.2391357000015,76.42617593000614,,y,0.17643259999749716,76.45789250000962,76.45789250000962,z,0.06878370000049472,76.61434140001074,76.61434140001074,76.61434140001074,76.61434140001074,2,0.3636044999875594,,,,,,193839,001,2023-06-02_16h56.25.443,Pilot_online_tryings,2022.2.5,None,
ConjL4_syn.csv,directory_online_conj_L4_syn.csv,Test_Conj_SyncL4.csv,ConjL4_sync_norm.wav,,,,,,testConjL4Syn//r1.s1.1.wav,,0,0,0,3,,,,,,,,,0,12,12,9,,,,,,,,,,,,,,,,,,,,,,,,,,,,,,,,,,,,,,,,,,,,,,,,,,,,,,,,,,,,,,,,,,,,,,,,77.0219264000043,77.0219264000043,77.20720453000831,,y,0.2237744999874849,77.30321460000414,77.30321460000414,z,0.4582055999926524,77.8325690000056,77.8325690000056,77.8325690000056,77.8325690000056,2,0.013718599977437407,,,,,,193839,001,2023-06-02_16h56.25.443,Pilot_online_tryings,2022.2.5,None,
ConjL4_syn.csv,directory_online_conj_L4_syn.csv,Test_Conj_SyncL4.csv,ConjL4_sync_norm.wav,,,,,,testConjL4Syn//r2.s2.2.wav,,0,0,0,3,,,,,,,,,0,13,13,19,,,,,,,,,,,,,,,,,,,,,,,,,,,,,,,,,,,,,,,,,,,,,,,,,,,,,,,,,,,,,,,,,,,,,,,,77.90073300000222,77.90073300000222,78.08187203000853,,y,0.2265233999787597,78.17639690000215,78.17639690000215,z,0.14782449998892844,78.36483869999938,78.36483869999938,78.36483869999938,78.36483869999938,2,0.10189299998455681,,,,,,193839,001,2023-06-02_16h56.25.443,Pilot_online_tryings,2022.2.5,None,
ConjL4_syn.csv,directory_online_conj_L4_syn.csv,Test_Conj_SyncL4.csv,ConjL4_sync_norm.wav,,,,,,testConjL4Syn//dep_viol.r2.s1.0.wav,,0,0,0,3,,,,,,,,,0,14,14,6,,,,,,,,,,,,,,,,,,,,,,,,,,,,,,,,,,,,,,,,,,,,,,,,,,,,,,,,,,,,,,,,,,,,,,,,78.55689140000322,78.55689140000322,78.738826230001,,y,0.26159529999131337,78.89533569999912,78.89533569999912,z,0.27140689999214374,79.20806119999907,79.20806119999907,79.20806119999907,79.20806119999907,2,1.2495500999939395,,,,,,193839,001,2023-06-02_16h56.25.443,Pilot_online_tryings,2022.2.5,None,
ConjL4_syn.csv,directory_online_conj_L4_syn.csv,Test_Conj_SyncL4.csv,ConjL4_sync_norm.wav,,,,,,testConjL4Syn//time_viol.r1.s1.0.wav,,0,0,0,3,,,,,,,,,0,15,15,20,,,,,,,,,,,,,,,,,,,,,,,,,,,,,,,,,,,,,,,,,,,,,,,,,,,,,,,,,,,,,,,,,,,,,,,,80.48798420000821,80.48798420000821,80.67617122999945,,y,0.413563999987673,80.95754129999841,80.95754129999841,z,1.0061065999907441,82.051709700012,82.051709700012,82.051709700012,82.051709700012,2,0.22658469997986685,,,,,,193839,001,2023-06-02_16h56.25.443,Pilot_online_tryings,2022.2.5,None,
ConjL4_syn.csv,directory_online_conj_L4_syn.csv,Test_Conj_SyncL4.csv,ConjL4_sync_norm.wav,,,,,,testConjL4Syn//dep_viol.r2.s2.0.wav,,0,0,0,3,,,,,,,,,0,16,16,7,,,,,,,,,,,,,,,,,,,,,,,,,,,,,,,,,,,,,,,,,,,,,,,,,,,,,,,,,,,,,,,,,,,,,,,,82.33234940000693,82.33234940000693,82.52095223000651,,y,0.3894016999838641,82.80456129999948,82.80456129999948,z,0.11599629998090677,82.95777320000343,82.95777320000343,82.95777320000343,82.95777320000343,2,0.18026469998585526,,,,,,193839,001,2023-06-02_16h56.25.443,Pilot_online_tryings,2022.2.5,None,
ConjL4_syn.csv,directory_online_conj_L4_syn.csv,Test_Conj_SyncL4.csv,ConjL4_sync_norm.wav,,,,,,testConjL4Syn//r1.s1.0.wav,,0,0,0,3,,,,,,,,,0,17,17,8,,,,,,,,,,,,,,,,,,,,,,,,,,,,,,,,,,,,,,,,,,,,,,,,,,,,,,,,,,,,,,,,,,,,,,,,83.17590840000776,83.17590840000776,83.36445943000581,,y,0.18428649997804314,83.39980600000126,83.39980600000126,z,0.10672289998910856,83.55194330000086,83.55194330000086,83.55194330000086,83.55194330000086,2,0.06614509997598361,,,,,,193839,001,2023-06-02_16h56.25.443,Pilot_online_tryings,2022.2.5,None,
ConjL4_syn.csv,directory_online_conj_L4_syn.csv,Test_Conj_SyncL4.csv,ConjL4_sync_norm.wav,,,,,,testConjL4Syn//cat_viol.r1.s1.0.wav,,0,0,0,3,,,,,,,,,0,18,18,0,,,,,,,,,,,,,,,,,,,,,,,,,,,,,,,,,,,,,,,,,,,,,,,,,,,,,,,,,,,,,,,,,,,,,,,,83.6761952000088,83.6761952000088,83.86843463000696,,y,0.25246659998083487,83.98827020000317,83.98827020000317,z,0.008121999984723516,84.05189420000534,84.05189420000534,84.05189420000534,84.05189420000534,2,0.11248949999571778,,,,,,193839,001,2023-06-02_16h56.25.443,Pilot_online_tryings,2022.2.5,None,
ConjL4_syn.csv,directory_online_conj_L4_syn.csv,Test_Conj_SyncL4.csv,ConjL4_sync_norm.wav,,,,,,testConjL4Syn//dep_viol.r1.s1.0.wav,,0,0,0,3,,,,,,,,,0,19,19,4,,,,,,,,,,,,,,,,,,,,,,,,,,,,,,,,,,,,,,,,,,,,,,,,,,,,,,,,,,,,,,,,,,,,,,,,84.20683350000763,84.20683350000763,84.39525653000601,,y,0.18160619998525362,84.42590719999862,84.42590719999862,z,0.062283799998112954,84.51958040001045,84.51958040001045,84.51958040001045,84.51958040001045,2,0.0513300999882631,,,,,,193839,001,2023-06-02_16h56.25.443,Pilot_online_tryings,2022.2.5,None,
ConjL4_syn.csv,directory_online_conj_L4_syn.csv,Test_Conj_SyncL4.csv,ConjL4_sync_norm.wav,,,,,,testConjL4Syn//cat_viol.r2.s1.0.wav,,0,0,0,3,,,,,,,,,0,20,20,2,,,,,,,,,,,,,,,,,,,,,,,,,,,,,,,,,,,,,,,,,,,,,,,,,,,,,,,,,,,,,,,,,,,,,,,,84.61693230000674,84.61693230000674,84.80499753000186,,y,0.19855949998600408,84.86506779999763,84.86506779999763,z,0.09094209999602754,84.99150390000432,84.99150390000432,84.99150390000432,84.99150390000432,2,0.013072699992335401,,,,,,193839,001,2023-06-02_16h56.25.443,Pilot_online_tryings,2022.2.5,None,
ConjL4_syn.csv,directory_online_conj_L4_syn.csv,Test_Conj_SyncL4.csv,ConjL4_sync_norm.wav,,,,,,testConjL4Syn//time_viol.r1.s2.0.wav,,0,0,0,3,,,,,,,,,0,21,21,21,,,,,,,,,,,,,,,,,,,,,,,,,,,,,,,,,,,,,,,,,,,,,,,,,,,,,,,,,,,,,,,,,,,,,,,,85.11438500000804,85.11438500000804,85.23948023000412,,y,0.10640529998636339,85.26975920000405,85.26975920000405,z,0.10353589997976087,85.42699639999773,85.42699639999773,85.42699639999773,85.42699639999773,2,0.035162199987098575,,,,,,193839,001,2023-06-02_16h56.25.443,Pilot_online_tryings,2022.2.5,None,
ConjL4_syn.csv,directory_online_conj_L4_syn.csv,Test_Conj_SyncL4.csv,ConjL4_sync_norm.wav,,,,,,testConjL4Syn//r2.s2.1.wav,,0,0,0,3,,,,,,,,,0,22,22,18,,,,,,,,,,,,,,,,,,,,,,,,,,,,,,,,,,,,,,,,,,,,,,,,,,,,,,,,,,,,,,,,,,,,,,,,85.52271270001074,85.52271270001074,85.70783192999806,,y,0.145731499986141,85.71089320001192,85.71089320001192,z,0.09519689998705871,85.89558070000203,85.89558070000203,85.89558070000203,85.89558070000203,2,0.04395859998476226,,,,,,193839,001,2023-06-02_16h56.25.443,Pilot_online_tryings,2022.2.5,None,
ConjL4_syn.csv,directory_online_conj_L4_syn.csv,Test_Conj_SyncL4.csv,ConjL4_sync_norm.wav,,,,,,testConjL4Syn//dep_viol.r1.s2.0.wav,,0,0,0,3,,,,,,,,,0,23,23,5,,,,,,,,,,,,,,,,,,,,,,,,,,,,,,,,,,,,,,,,,,,,,,,,,,,,,,,,,,,,,,,,,,,,,,,,85.98912900000869,85.98912900000869,,,y,0.11614459998963866,86.14561920000415,86.14561920000415,z,0.11125389998778701,86.33336000000418,86.33336000000418,86.33336000000418,86.33336000000418,2,0.14970029999676626,,,,,,193839,001,2023-06-02_16h56.25.443,Pilot_online_tryings,2022.2.5,None,
ConjL4_syn.csv,directory_online_conj_L4_syn.csv,Test_Conj_SyncL4.csv,ConjL4_sync_norm.wav,,,,,,,,0,0,0,3,,,,,,,,,,,,,,,,,,,,,,,,,,,,,,,,,,,,,,,,,,,,,,,,,,,,,,,,,,,,,,,,,,,,,,,,,,,,,,,,,,,,,,,,,,,,,,,,,,,,86.5212915000011,86.5212915000011,space,0.8293879999982892,,193839,001,2023-06-02_16h56.25.443,Pilot_online_tryings,2022.2.5,None,
WhatL2_uns.csv,directory_online_WHAT_L2_uns.csv,What_UnsyncL2_testdirs.csv,WhatL2_unsync_norm.wav,du,8:12,orange,Online_whatL2//aDU9.1776.wav,1776.0,,,0,1,1,1,0,0,0,19,0,0,0,1,,,,,,,,,,,,,,,,,,,,,,,,,,,,,,,,,,,,,,,,,,87.39470430000802,87.39470430000802,space,0.5513453999883495,88.26827509999566,88.26279400000931,88.26279400000931,space,0.44462969998130575,88.73925389999931,88.73925389999931,space,0.6182579999876907,89.45076200000767,89.45076200000767,0.05691800000204239,89.45076200000767,89.45076200000767,89.45076200000767,space,y,0.7278368999977829,,,,,,,,,,,,,,,,,,,,,,,,,,,,,,,,,0.47288029998890124,193839,001,2023-06-02_16h56.25.443,Pilot_online_tryings,2022.2.5,None,
WhatL2_uns.csv,directory_online_WHAT_L2_uns.csv,What_UnsyncL2_testdirs.csv,WhatL2_unsync_norm.wav,du,8:12,orange,Online_whatL2//aDU10.888.wav,888.0,,,0,1,1,1,0,0,0,19,0,1,1,2,,,,,,,,,,,,,,,,,,,,,,,,,,,,,,,,,,,,,,,,,,,,,,,,,,,,,,,,,0.024512500007404014,90.21556190001138,90.21556190001138,90.21556190001138,None,y,0.12636929997825064,,,,,,,,,,,,,,,,,,,,,,,,,,,,,,,,,,193839,001,2023-06-02_16h56.25.443,Pilot_online_tryings,2022.2.5,None,
WhatL2_uns.csv,directory_online_WHAT_L2_uns.csv,What_UnsyncL2_testdirs.csv,WhatL2_unsync_norm.wav,du,8:12,orange,Online_whatL2//aDU11.888.wav,888.0,,,0,1,1,1,0,0,0,19,0,2,2,3,,,,,,,,,,,,,,,,,,,,,,,,,,,,,,,,,,,,,,,,,,,,,,,,,,,,,,,,,0.010779799995361827,90.3955227000115,90.3955227000115,90.3955227000115,None,y,0.09733399997639935,,,,,,,,,,,,,,,,,,,,,,,,,,,,,,,,,,193839,001,2023-06-02_16h56.25.443,Pilot_online_tryings,2022.2.5,None,
WhatL2_uns.csv,directory_online_WHAT_L2_uns.csv,What_UnsyncL2_testdirs.csv,WhatL2_unsync_norm.wav,du,8:12,orange,Online_whatL2//aDU8.none.wav,none,,,0,1,1,1,0,0,0,19,0,3,3,0,,,,,,,,,,,,,,,,,,,,,,,,,,,,,,,,,,,,,,,,,,,,,,,,,,,,,,,,,0.009276799988583662,90.55144150000706,90.55144150000706,90.55144150000706,None,y,0.0819498999917414,,,,,,,,,,,,,,,,,,,,,,,,,,,,,,,,,,193839,001,2023-06-02_16h56.25.443,Pilot_online_tryings,2022.2.5,None,
WhatL2_uns.csv,directory_online_WHAT_L2_uns.csv,What_UnsyncL2_testdirs.csv,WhatL2_unsync_norm.wav,du,8:12,orange,,,,,0,1,1,1,0,0,0,19,,,,,,,,,,,,,,,,,,,,,,,,,,,,,,,,,,,,,,,,,,,,,,,,,,,,,,,,,,,,,,,,,,,,,,,,,,,,,,,,,,,,,,,,,,,,,,,,,,,,,193839,001,2023-06-02_16h56.25.443,Pilot_online_tryings,2022.2.5,None,
WhatL2_uns.csv,directory_online_WHAT_L2_uns.csv,What_UnsyncL2_testdirs.csv,WhatL2_unsync_norm.wav,du,28:32,orange,Online_whatL2//aDU31.1110.wav,1110.0,,,0,1,1,1,0,1,1,1,0,0,0,3,,,,,,,,,,,,,,,,,,,,,,,,,,,,,,,,,,,,,,,,,,,,,,,,,,,,,,,90.71493139999802,90.71493139999802,0.024377099995035678,90.71493139999802,90.71493139999802,90.71493139999802,None,y,0.06231129998923279,,,,,,,,,,,,,,,,,,,,,,,,,,,,,,,,,,193839,001,2023-06-02_16h56.25.443,Pilot_online_tryings,2022.2.5,None,
WhatL2_uns.csv,directory_online_WHAT_L2_uns.csv,What_UnsyncL2_testdirs.csv,WhatL2_unsync_norm.wav,du,28:32,orange,Online_whatL2//aDU29.none.wav,none,,,0,1,1,1,0,1,1,1,0,1,1,1,,,,,,,,,,,,,,,,,,,,,,,,,,,,,,,,,,,,,,,,,,,,,,,,,,,,,,,,,0.01602890000503976,90.86431620000803,90.86431620000803,90.86431620000803,None,y,0.06722889999218751,,,,,,,,,,,,,,,,,,,,,,,,,,,,,,,,,,193839,001,2023-06-02_16h56.25.443,Pilot_online_tryings,2022.2.5,None,
WhatL2_uns.csv,directory_online_WHAT_L2_uns.csv,What_UnsyncL2_testdirs.csv,WhatL2_unsync_norm.wav,du,28:32,orange,Online_whatL2//aDU30.1998.wav,1998.0,,,0,1,1,1,0,1,1,1,0,2,2,2,,,,,,,,,,,,,,,,,,,,,,,,,,,,,,,,,,,,,,,,,,,,,,,,,,,,,,,,,0.007984199997736141,90.98832699999912,90.98832699999912,90.98832699999912,None,y,0.08369559998391196,,,,,,,,,,,,,,,,,,,,,,,,,,,,,,,,,,193839,001,2023-06-02_16h56.25.443,Pilot_online_tryings,2022.2.5,None,
WhatL2_uns.csv,directory_online_WHAT_L2_uns.csv,What_UnsyncL2_testdirs.csv,WhatL2_unsync_norm.wav,du,28:32,orange,Online_whatL2//aDU28.none.wav,none,,,0,1,1,1,0,1,1,1,0,3,3,0,,,,,,,,,,,,,,,,,,,,,,,,,,,,,,,,,,,,,,,,,,,,,,,,,,,,,,,,,0.010476600000401959,91.14496370000415,91.14496370000415,91.14496370000415,None,y,0.08039049997751135,,,,,,,,,,,,,,,,,,,,,,,,,,,,,,,,,,193839,001,2023-06-02_16h56.25.443,Pilot_online_tryings,2022.2.5,None,
WhatL2_uns.csv,directory_online_WHAT_L2_uns.csv,What_UnsyncL2_testdirs.csv,WhatL2_unsync_norm.wav,du,28:32,orange,,,,,0,1,1,1,0,1,1,1,,,,,,,,,,,,,,,,,,,,,,,,,,,,,,,,,,,,,,,,,,,,,,,,,,,,,,,,,,,,,,,,,,,,,,,,,,,,,,,,,,,,,,,,,,,,,,,,,,,,,193839,001,2023-06-02_16h56.25.443,Pilot_online_tryings,2022.2.5,None,
WhatL2_uns.csv,directory_online_WHAT_L2_uns.csv,What_UnsyncL2_testdirs.csv,WhatL2_unsync_norm.wav,cha,72:76,blue,Online_whatL2//cCHA9.none.wav,none,,,0,1,1,1,0,2,2,17,0,0,0,1,,,,,,,,,,,,,,,,,,,,,,,,,,,,,,,,,,,,,,,,,,,,,,,,,,,,,,,91.30872349999845,91.30872349999845,0.049900300000444986,91.30872349999845,91.30872349999845,91.30872349999845,None,y,0.09956229999079369,,,,,,,,,,,,,,,,,,,,,,,,,,,,,,,,,,193839,001,2023-06-02_16h56.25.443,Pilot_online_tryings,2022.2.5,None,
WhatL2_uns.csv,directory_online_WHAT_L2_uns.csv,What_UnsyncL2_testdirs.csv,WhatL2_unsync_norm.wav,cha,72:76,blue,Online_whatL2//cCHA8.none.wav,none,,,0,1,1,1,0,2,2,17,0,1,1,0,,,,,,,,,,,,,,,,,,,,,,,,,,,,,,,,,,,,,,,,,,,,,,,,,,,,,,,,,0.008746100007556379,91.45788270000776,91.45788270000776,91.45788270000776,None,y,0.07241669998620637,,,,,,,,,,,,,,,,,,,,,,,,,,,,,,,,,,193839,001,2023-06-02_16h56.25.443,Pilot_online_tryings,2022.2.5,None,
WhatL2_uns.csv,directory_online_WHAT_L2_uns.csv,What_UnsyncL2_testdirs.csv,WhatL2_unsync_norm.wav,cha,72:76,blue,Online_whatL2//cCHA10.444.wav,444.0,,,0,1,1,1,0,2,2,17,0,2,2,2,,,,,,,,,,,,,,,,,,,,,,,,,,,,,,,,,,,,,,,,,,,,,,,,,,,,,,,,,0.025979500001994893,91.59104120000848,91.59104120000848,91.59104120000848,None,y,0.08472529998107348,,,,,,,,,,,,,,,,,,,,,,,,,,,,,,,,,,193839,001,2023-06-02_16h56.25.443,Pilot_online_tryings,2022.2.5,None,
WhatL2_uns.csv,directory_online_WHAT_L2_uns.csv,What_UnsyncL2_testdirs.csv,WhatL2_unsync_norm.wav,cha,72:76,blue,Online_whatL2//cCHA11.none.wav,none,,,0,1,1,1,0,2,2,17,0,3,3,3,,,,,,,,,,,,,,,,,,,,,,,,,,,,,,,,,,,,,,,,,,,,,,,,,,,,,,,,,0.007412599996314384,91.7080241000076,91.7080241000076,91.7080241000076,None,y,0.11614389998430852,,,,,,,,,,,,,,,,,,,,,,,,,,,,,,,,,,193839,001,2023-06-02_16h56.25.443,Pilot_online_tryings,2022.2.5,None,
WhatL2_uns.csv,directory_online_WHAT_L2_uns.csv,What_UnsyncL2_testdirs.csv,WhatL2_unsync_norm.wav,cha,72:76,blue,,,,,0,1,1,1,0,2,2,17,,,,,,,,,,,,,,,,,,,,,,,,,,,,,,,,,,,,,,,,,,,,,,,,,,,,,,,,,,,,,,,,,,,,,,,,,,,,,,,,,,,,,,,,,,,,,,,,,,,,,193839,001,2023-06-02_16h56.25.443,Pilot_online_tryings,2022.2.5,None,
WhatL2_uns.csv,directory_online_WHAT_L2_uns.csv,What_UnsyncL2_testdirs.csv,WhatL2_unsync_norm.wav,du,16:20,orange,Online_whatL2//aDU18.1110.wav,1110.0,,,0,1,1,1,0,3,3,22,0,0,0,2,,,,,,,,,,,,,,,,,,,,,,,,,,,,,,,,,,,,,,,,,,,,,,,,,,,,,,,91.89882880001096,91.89882880001096,0.04242690000683069,91.89882880001096,91.89882880001096,91.89882880001096,None,y,0.07210479999775998,,,,,,,,,,,,,,,,,,,,,,,,,,,,,,,,,,193839,001,2023-06-02_16h56.25.443,Pilot_online_tryings,2022.2.5,None,
WhatL2_uns.csv,directory_online_WHAT_L2_uns.csv,What_UnsyncL2_testdirs.csv,WhatL2_unsync_norm.wav,du,16:20,orange,Online_whatL2//aDU17.none.wav,none,,,0,1,1,1,0,3,3,22,0,1,1,1,,,,,,,,,,,,,,,,,,,,,,,,,,,,,,,,,,,,,,,,,,,,,,,,,,,,,,,,,0.016199699995922856,92.02028280000377,92.02028280000377,92.02028280000377,None,y,0.09780799999134615,,,,,,,,,,,,,,,,,,,,,,,,,,,,,,,,,,193839,001,2023-06-02_16h56.25.443,Pilot_online_tryings,2022.2.5,None,
WhatL2_uns.csv,directory_online_WHAT_L2_uns.csv,What_UnsyncL2_testdirs.csv,WhatL2_unsync_norm.wav,du,16:20,orange,Online_whatL2//aDU16.1110.wav,1110.0,,,0,1,1,1,0,3,3,22,0,2,2,0,,,,,,,,,,,,,,,,,,,,,,,,,,,,,,,,,,,,,,,,,,,,,,,,,,,,,,,,,0.005692500009899959,92.17942530001164,92.17942530001164,92.17942530001164,None,y,0.09737559998757206,,,,,,,,,,,,,,,,,,,,,,,,,,,,,,,,,,193839,001,2023-06-02_16h56.25.443,Pilot_online_tryings,2022.2.5,None,
WhatL2_uns.csv,directory_online_WHAT_L2_uns.csv,What_UnsyncL2_testdirs.csv,WhatL2_unsync_norm.wav,du,16:20,orange,Online_whatL2//aDU19.1998.wav,1998.0,,,0,1,1,1,0,3,3,22,0,3,3,3,,,,,,,,,,,,,,,,,,,,,,,,,,,,,,,,,,,,,,,,,,,,,,,,,,,,,,,,,0.01706460000423249,92.33329330000561,92.33329330000561,92.33329330000561,None,y,0.09093919998849742,,,,,,,,,,,,,,,,,,,,,,,,,,,,,,,,,,193839,001,2023-06-02_16h56.25.443,Pilot_online_tryings,2022.2.5,None,
WhatL2_uns.csv,directory_online_WHAT_L2_uns.csv,What_UnsyncL2_testdirs.csv,WhatL2_unsync_norm.wav,du,16:20,orange,,,,,0,1,1,1,0,3,3,22,,,,,,,,,,,,,,,,,,,,,,,,,,,,,,,,,,,,,,,,,,,,,,,,,,,,,,,,,,,,,,,,,,,,,,,,,,,,,,,,,,,,,,,,,,,,,,,,,,,,,193839,001,2023-06-02_16h56.25.443,Pilot_online_tryings,2022.2.5,None,
WhatL2_uns.csv,directory_online_WHAT_L2_uns.csv,What_UnsyncL2_testdirs.csv,WhatL2_unsync_norm.wav,fe,48:52,red,Online_whatL2//bFE16.none.wav,none,,,0,1,1,1,0,4,4,23,0,0,0,0,,,,,,,,,,,,,,,,,,,,,,,,,,,,,,,,,,,,,,,,,,,,,,,,,,,,,,,92.49453589999757,92.49453589999757,0.0427689000061946,92.49453589999757,92.49453589999757,92.49453589999757,None,y,0.0751614999899175,,,,,,,,,,,,,,,,,,,,,,,,,,,,,,,,,,193839,001,2023-06-02_16h56.25.443,Pilot_online_tryings,2022.2.5,None,
WhatL2_uns.csv,directory_online_WHAT_L2_uns.csv,What_UnsyncL2_testdirs.csv,WhatL2_unsync_norm.wav,fe,48:52,red,Online_whatL2//bFE18.none.wav,none,,,0,1,1,1,0,4,4,23,0,1,1,2,,,,,,,,,,,,,,,,,,,,,,,,,,,,,,,,,,,,,,,,,,,,,,,,,,,,,,,,,0.006800599992857315,92.61469950000173,92.61469950000173,92.61469950000173,None,y,0.10606549998919945,,,,,,,,,,,,,,,,,,,,,,,,,,,,,,,,,,193839,001,2023-06-02_16h56.25.443,Pilot_online_tryings,2022.2.5,None,
WhatL2_uns.csv,directory_online_WHAT_L2_uns.csv,What_UnsyncL2_testdirs.csv,WhatL2_unsync_norm.wav,fe,48:52,red,Online_whatL2//bFE17.none.wav,none,,,0,1,1,1,0,4,4,23,0,2,2,1,,,,,,,,,,,,,,,,,,,,,,,,,,,,,,,,,,,,,,,,,,,,,,,,,,,,,,,,,0.005858399992575869,92.76986790000228,92.76986790000228,92.76986790000228,None,y,0.10039369999140035,,,,,,,,,,,,,,,,,,,,,,,,,,,,,,,,,,193839,001,2023-06-02_16h56.25.443,Pilot_online_tryings,2022.2.5,None,
WhatL2_uns.csv,directory_online_WHAT_L2_uns.csv,What_UnsyncL2_testdirs.csv,WhatL2_unsync_norm.wav,fe,48:52,red,Online_whatL2//bFE19.0.wav,0.0,,,0,1,1,1,0,4,4,23,0,3,3,3,,,,,,,,,,,,,,,,,,,,,,,,,,,,,,,,,,,,,,,,,,,,,,,,,,,,,,,,,0.008169299995643087,92.92681420000736,92.92681420000736,92.92681420000736,None,y,0.09750209999037907,,,,,,,,,,,,,,,,,,,,,,,,,,,,,,,,,,193839,001,2023-06-02_16h56.25.443,Pilot_online_tryings,2022.2.5,None,
WhatL2_uns.csv,directory_online_WHAT_L2_uns.csv,What_UnsyncL2_testdirs.csv,WhatL2_unsync_norm.wav,fe,48:52,red,,,,,0,1,1,1,0,4,4,23,,,,,,,,,,,,,,,,,,,,,,,,,,,,,,,,,,,,,,,,,,,,,,,,,,,,,,,,,,,,,,,,,,,,,,,,,,,,,,,,,,,,,,,,,,,,,,,,,,,,,193839,001,2023-06-02_16h56.25.443,Pilot_online_tryings,2022.2.5,None,
WhatL2_uns.csv,directory_online_WHAT_L2_uns.csv,What_UnsyncL2_testdirs.csv,WhatL2_unsync_norm.wav,fe,52:56,red,Online_whatL2//bFE22.none.wav,none,,,0,1,1,1,0,5,5,2,0,0,0,2,,,,,,,,,,,,,,,,,,,,,,,,,,,,,,,,,,,,,,,,,,,,,,,,,,,,,,,93.0966516000044,93.0966516000044,0.03151570000045467,93.0966516000044,93.0966516000044,93.0966516000044,None,y,0.08132879999175202,,,,,,,,,,,,,,,,,,,,,,,,,,,,,,,,,,193839,001,2023-06-02_16h56.25.443,Pilot_online_tryings,2022.2.5,None,
WhatL2_uns.csv,directory_online_WHAT_L2_uns.csv,What_UnsyncL2_testdirs.csv,WhatL2_unsync_norm.wav,fe,52:56,red,Online_whatL2//bFE23.1110.wav,1110.0,,,0,1,1,1,0,5,5,2,0,1,1,3,,,,,,,,,,,,,,,,,,,,,,,,,,,,,,,,,,,,,,,,,,,,,,,,,,,,,,,,,0.01710740000999067,93.23848920001183,93.23848920001183,93.23848920001183,None,y,0.10015989998646546,,,,,,,,,,,,,,,,,,,,,,,,,,,,,,,,,,193839,001,2023-06-02_16h56.25.443,Pilot_online_tryings,2022.2.5,None,
WhatL2_uns.csv,directory_online_WHAT_L2_uns.csv,What_UnsyncL2_testdirs.csv,WhatL2_unsync_norm.wav,fe,52:56,red,Online_whatL2//bFE20.888.wav,888.0,,,0,1,1,1,0,5,5,2,0,2,2,0,,,,,,,,,,,,,,,,,,,,,,,,,,,,,,,,,,,,,,,,,,,,,,,,,,,,,,,,,0.014527399995131418,93.39529140001105,93.39529140001105,93.39529140001105,None,y,0.09122219998971559,,,,,,,,,,,,,,,,,,,,,,,,,,,,,,,,,,193839,001,2023-06-02_16h56.25.443,Pilot_online_tryings,2022.2.5,None,
WhatL2_uns.csv,directory_online_WHAT_L2_uns.csv,What_UnsyncL2_testdirs.csv,WhatL2_unsync_norm.wav,fe,52:56,red,Online_whatL2//bFE21.none.wav,none,,,0,1,1,1,0,5,5,2,0,3,3,1,,,,,,,,,,,,,,,,,,,,,,,,,,,,,,,,,,,,,,,,,,,,,,,,,,,,,,,,,0.011686300000292249,93.51981769999838,93.51981769999838,93.51981769999838,None,y,0.128177799997502,,,,,,,,,,,,,,,,,,,,,,,,,,,,,,,,,,193839,001,2023-06-02_16h56.25.443,Pilot_online_tryings,2022.2.5,None,
WhatL2_uns.csv,directory_online_WHAT_L2_uns.csv,What_UnsyncL2_testdirs.csv,WhatL2_unsync_norm.wav,fe,52:56,red,,,,,0,1,1,1,0,5,5,2,,,,,,,,,,,,,,,,,,,,,,,,,,,,,,,,,,,,,,,,,,,,,,,,,,,,,,,,,,,,,,,,,,,,,,,,,,,,,,,,,,,,,,,,,,,,,,,,,,,,,193839,001,2023-06-02_16h56.25.443,Pilot_online_tryings,2022.2.5,None,
WhatL2_uns.csv,directory_online_WHAT_L2_uns.csv,What_UnsyncL2_testdirs.csv,WhatL2_unsync_norm.wav,si,116:120,green,Online_whatL2//dSI22.none.wav,none,,,0,1,1,1,0,6,6,27,0,0,0,2,,,,,,,,,,,,,,,,,,,,,,,,,,,,,,,,,,,,,,,,,,,,,,,,,,,,,,,93.70850400000927,93.70850400000927,0.03966779999609571,93.70850400000927,93.70850400000927,93.70850400000927,None,y,0.09379139998054598,,,,,,,,,,,,,,,,,,,,,,,,,,,,,,,,,,193839,001,2023-06-02_16h56.25.443,Pilot_online_tryings,2022.2.5,None,
WhatL2_uns.csv,directory_online_WHAT_L2_uns.csv,What_UnsyncL2_testdirs.csv,WhatL2_unsync_norm.wav,si,116:120,green,Online_whatL2//dSI21.none.wav,none,,,0,1,1,1,0,6,6,27,0,1,1,1,,,,,,,,,,,,,,,,,,,,,,,,,,,,,,,,,,,,,,,,,,,,,,,,,,,,,,,,,0.007054499990772456,93.89560360000178,93.89560360000178,93.89560360000178,None,y,0.07576919998973608,,,,,,,,,,,,,,,,,,,,,,,,,,,,,,,,,,193839,001,2023-06-02_16h56.25.443,Pilot_online_tryings,2022.2.5,None,
WhatL2_uns.csv,directory_online_WHAT_L2_uns.csv,What_UnsyncL2_testdirs.csv,WhatL2_unsync_norm.wav,si,116:120,green,Online_whatL2//dSI23.1554.wav,1554.0,,,0,1,1,1,0,6,6,27,0,2,2,3,,,,,,,,,,,,,,,,,,,,,,,,,,,,,,,,,,,,,,,,,,,,,,,,,,,,,,,,,0.007145600000512786,94.02439669999876,94.02439669999876,94.02439669999876,None,y,0.11561660000006668,,,,,,,,,,,,,,,,,,,,,,,,,,,,,,,,,,193839,001,2023-06-02_16h56.25.443,Pilot_online_tryings,2022.2.5,None,
WhatL2_uns.csv,directory_online_WHAT_L2_uns.csv,What_UnsyncL2_testdirs.csv,WhatL2_unsync_norm.wav,si,116:120,green,Online_whatL2//dSI20.1332.wav,1332.0,,,0,1,1,1,0,6,6,27,0,3,3,0,,,,,,,,,,,,,,,,,,,,,,,,,,,,,,,,,,,,,,,,,,,,,,,,,,,,,,,,,0.010523500008275732,94.17601500000455,94.17601500000455,94.17601500000455,None,y,0.1228648999822326,,,,,,,,,,,,,,,,,,,,,,,,,,,,,,,,,,193839,001,2023-06-02_16h56.25.443,Pilot_online_tryings,2022.2.5,None,
WhatL2_uns.csv,directory_online_WHAT_L2_uns.csv,What_UnsyncL2_testdirs.csv,WhatL2_unsync_norm.wav,si,116:120,green,,,,,0,1,1,1,0,6,6,27,,,,,,,,,,,,,,,,,,,,,,,,,,,,,,,,,,,,,,,,,,,,,,,,,,,,,,,,,,,,,,,,,,,,,,,,,,,,,,,,,,,,,,,,,,,,,,,,,,,,,193839,001,2023-06-02_16h56.25.443,Pilot_online_tryings,2022.2.5,None,
WhatL2_uns.csv,directory_online_WHAT_L2_uns.csv,What_UnsyncL2_testdirs.csv,WhatL2_unsync_norm.wav,cha,92:96,blue,Online_whatL2//cCHA31.1332.wav,1332.0,,,0,1,1,1,0,7,7,8,0,0,0,3,,,,,,,,,,,,,,,,,,,,,,,,,,,,,,,,,,,,,,,,,,,,,,,,,,,,,,,94.36733649999951,94.36733649999951,0.0449265000061132,94.36733649999951,94.36733649999951,94.36733649999951,None,y,0.09743969998089597,,,,,,,,,,,,,,,,,,,,,,,,,,,,,,,,,,193839,001,2023-06-02_16h56.25.443,Pilot_online_tryings,2022.2.5,None,
WhatL2_uns.csv,directory_online_WHAT_L2_uns.csv,What_UnsyncL2_testdirs.csv,WhatL2_unsync_norm.wav,cha,92:96,blue,Online_whatL2//cCHA28.1332.wav,1332.0,,,0,1,1,1,0,7,7,8,0,1,1,0,,,,,,,,,,,,,,,,,,,,,,,,,,,,,,,,,,,,,,,,,,,,,,,,,,,,,,,,,0.016149199989740737,94.52119730001141,94.52119730001141,94.52119730001141,None,y,0.1010896999941906,,,,,,,,,,,,,,,,,,,,,,,,,,,,,,,,,,193839,001,2023-06-02_16h56.25.443,Pilot_online_tryings,2022.2.5,None,
WhatL2_uns.csv,directory_online_WHAT_L2_uns.csv,What_UnsyncL2_testdirs.csv,WhatL2_unsync_norm.wav,cha,92:96,blue,Online_whatL2//cCHA29.none.wav,none,,,0,1,1,1,0,7,7,8,0,2,2,1,,,,,,,,,,,,,,,,,,,,,,,,,,,,,,,,,,,,,,,,,,,,,,,,,,,,,,,,,0.00797700000111945,94.67661360000784,94.67661360000784,94.67661360000784,None,y,0.08805379997647833,,,,,,,,,,,,,,,,,,,,,,,,,,,,,,,,,,193839,001,2023-06-02_16h56.25.443,Pilot_online_tryings,2022.2.5,None,
