seq,online_dir,test_dir,audio_offline,cond,ord,colour,dirs,time,test,trials.thisRepN,trials.thisTrialN,trials.thisN,trials.thisIndex,Conj_unsync_online.thisRepN,Conj_unsync_online.thisTrialN,Conj_unsync_online.thisN,Conj_unsync_online.thisIndex,audio1.thisRepN,audio1.thisTrialN,audio1.thisN,audio1.thisIndex,Conj_unsync_test.thisRepN,Conj_unsync_test.thisTrialN,Conj_unsync_test.thisN,Conj_unsync_test.thisIndex,text_21.started,key_resp1.started,key_resp1.keys,key_resp1.rt,text_23.started,key_resp_6.started,key_resp_6.keys,key_resp_6.rt,text_26.started,key_resp_10.started,key_resp_10.keys,key_resp_10.rt,volume_set.started,key_ressp2.started,text_27.started,key_ressp2.keys,key_ressp2.rt,text_24.started,key_resp_9.started,key_resp_9.keys,key_resp_9.rt,text_22.started,key_resp1_2.started,key_resp1_2.keys,key_resp1_2.rt,text_25.started,key_resp1_3.started,key_resp1_3.keys,key_resp1_3.rt,text_28.started,key_resp_11.started,key_resp_11.keys,key_resp_11.rt,text_29.started,key_resp_12.started,key_resp_12.keys,key_resp_12.rt,text_36.started,key_resp_18.started,key_resp_18.keys,key_resp_18.rt,learning.started,text_19.started,key_resp_7.started,key_resp_7.keys,key_resp_7.rt,text_31.started,key_resp1_4.started,key_resp1_4.keys,key_resp1_4.rt,text_2.started,text_2.stopped,seqs.started,text_13.started,key_resp_3.started,key_resp_16.started,key_resp_3.keys,key_resp_3.rt,key_resp_16.keys,key_resp_16.rt,text_12.started,key_resp4.started,key_resp4.keys,key_resp4.rt,text_14.started,key_resp_4.started,key_resp_4.keys,key_resp_4.rt,text_15.started,key_resp_5.started,key_resp_5.keys,key_resp_5.rt,text_17.started,key_resp_17.started,test_sounds.started,key_resp_17.keys,key_resp_17.rt,text_18.started,Partz_no_partm.started,Partz_no_partm.keys,Partz_no_partm.rt,text_32.started,image_2.started,text_33.started,likelihood_1_7.started,likelihood_1_7.keys,likelihood_1_7.rt,text_30.started,key_resp_13.started,key_resp_13.keys,key_resp_13.rt,participant,session,date,expName,psychopyVersion,frameRate,
,,,,,,,,,,,,,,,,,,,,,,,,,,21.32333440000366,21.32333440000366,space,1.7880314999929396,,,,,,,,,,,,,,,,,,,,,,,,,,,,,,,,,,,,,,,,,,,,,,,,,,,,,,,,,,,,,,,,,,,,,,,,,,,,,,,,,,,,,,,,203764,001,2023-05-26_12h11.41.081,Pilot_online_tryings,2022.2.5,60.08297459195749,
,,,,,,,,,,,,,,,,,,,,,,,,,,,,,,23.142152599990368,23.142152599990368,space,0.6100134000007529,,,,,,,,,,,,,,,,,,,,,,,,,,,,,,,,,,,,,,,,,,,,,,,,,,,,,,,,,,,,,,,,,,,,,,,,,,,,,,,,,,,,203764,001,2023-05-26_12h11.41.081,Pilot_online_tryings,2022.2.5,60.08297459195749,
,,,,,,,,,,,,,,,,,,,,,,,,,,,,,,,,,,23.776295299991034,23.776295299991034,space,0.47044969999114983,,,,,,,,,,,,,,,,,,,,,,,,,,,,,,,,,,,,,,,,,,,,,,,,,,,,,,,,,,,,,,,,,,,,,,,,,,,,,,,,203764,001,2023-05-26_12h11.41.081,Pilot_online_tryings,2022.2.5,60.08297459195749,
,,,,,,,,,,,,,,,,,,,,,,,,,,,,,,,,,,,,,,24.310406759992475,24.315440999998827,24.315440999998827,space,0.7957687000016449,,,,,,,,,,,,,,,,,,,,,,,,,,,,,,,,,,,,,,,,,,,,,,,,,,,,,,,,,,,,,,,,,,,,,,,,,,,203764,001,2023-05-26_12h11.41.081,Pilot_online_tryings,2022.2.5,60.08297459195749,
,,,,,,,,,,,,,,,,,,,,,,,,,,,,,,,,,,,,,,,,,,,25.143422799999826,25.143422799999826,space,0.3998525999923004,,,,,,,,,,,,,,,,,,,,,,,,,,,,,,,,,,,,,,,,,,,,,,,,,,,,,,,,,,,,,,,,,,,,,,,203764,001,2023-05-26_12h11.41.081,Pilot_online_tryings,2022.2.5,60.08297459195749,
,,,,,,,,,,,,,,,,,,,,,,,,,,,,,,,,,,,,,,,,,,,,,,,25.561125599997467,25.561125599997467,space,0.4301144000055501,,,,,,,,,,,,,,,,,,,,,,,,,,,,,,,,,,,,,,,,,,,,,,,,,,,,,,,,,,,,,,,,,,,203764,001,2023-05-26_12h11.41.081,Pilot_online_tryings,2022.2.5,60.08297459195749,
,,,,,,,,,,,,,,,,,,,,,,,,,,,,,,,,,,,,,,,,,,,,,,,,,,,26.011904699989827,26.011904699989827,space,0.4601884000003338,,,,,,,,,,,,,,,,,,,,,,,,,,,,,,,,,,,,,,,,,,,,,,,,,,,,,,,,,,,,,,,203764,001,2023-05-26_12h11.41.081,Pilot_online_tryings,2022.2.5,60.08297459195749,
,,,,,,,,,,,,,,,,,,,,,,,,,,,,,,,,,,,,,,,,,,,,,,,,,,,,,,,26.495433099989896,26.495433099989896,space,0.43915210000704974,,,,,,,,,,,,,,,,,,,,,,,,,,,,,,,,,,,,,,,,,,,,,,,,,,,,,,,,,,,203764,001,2023-05-26_12h11.41.081,Pilot_online_tryings,2022.2.5,60.08297459195749,
,,,,,,,,,,,,,,,,,,,,,,,,,,,,,,,,,,,,,,,,,,,,,,,,,,,,,,,,,,,26.961070099991048,26.961070099991048,space,0.4226039000059245,,,,,,,,,,,,,,,,,,,,,,,,,,,,,,,,,,,,,,,,,,,,,,,,,,,,,,,203764,001,2023-05-26_12h11.41.081,Pilot_online_tryings,2022.2.5,60.08297459195749,
ConjL4_syn.csv,directory_online_conj_L4_syn.csv,Test_Conj_SyncL4.csv,Conj_syncL4_norm.wav,lo,8:12,red,Online_conjL4_syn//aLO9.none.wav,none,,0,0,0,3,0,0,0,20,0,0,0,1,,,,,,,,,,,,,,,,,,,,,,,,,,,,,,,,,,,,,,,,,,27.43729170000006,27.43729170000006,space,0.4576824999967357,28.179385840005125,28.180370399990352,28.180370399990352,space,1.3794744000042556,29.580633199992008,29.580633199992008,space,0.3636434000072768,30.01473629999964,30.01473629999964,0.04545579999103211,30.01473629999964,30.01473629999964,30.01473629999964,space,0.377153300010832,y,1.6251072000013664,,,,,,,,,,,,,,,,,,,,,,,,,,,,,,,,203764,001,2023-05-26_12h11.41.081,Pilot_online_tryings,2022.2.5,60.08297459195749,
ConjL4_syn.csv,directory_online_conj_L4_syn.csv,Test_Conj_SyncL4.csv,Conj_syncL4_norm.wav,lo,8:12,red,Online_conjL4_syn//aLO10.1554.wav,1554.0,,0,0,0,3,0,0,0,20,0,1,1,2,,,,,,,,,,,,,,,,,,,,,,,,,,,,,,,,,,,,,,,,,,,,,,,,,,,,,,,,,0.024885399994673207,31.680673900002148,31.680673900002148,31.680673900002148,None,,y,0.2945642999984557,,,,,,,,,,,,,,,,,,,,,,,,,,,,,,,,203764,001,2023-05-26_12h11.41.081,Pilot_online_tryings,2022.2.5,60.08297459195749,
ConjL4_syn.csv,directory_online_conj_L4_syn.csv,Test_Conj_SyncL4.csv,Conj_syncL4_norm.wav,lo,8:12,red,Online_conjL4_syn//aLO11.666.wav,666.0,,0,0,0,3,0,0,0,20,0,2,2,3,,,,,,,,,,,,,,,,,,,,,,,,,,,,,,,,,,,,,,,,,,,,,,,,,,,,,,,,,0.006137400006991811,31.999335599990445,31.999335599990445,31.999335599990445,None,,y,0.16772309999214485,,,,,,,,,,,,,,,,,,,,,,,,,,,,,,,,203764,001,2023-05-26_12h11.41.081,Pilot_online_tryings,2022.2.5,60.08297459195749,
ConjL4_syn.csv,directory_online_conj_L4_syn.csv,Test_Conj_SyncL4.csv,Conj_syncL4_norm.wav,lo,8:12,red,Online_conjL4_syn//aLO8.1554.wav,1554.0,,0,0,0,3,0,0,0,20,0,3,3,0,,,,,,,,,,,,,,,,,,,,,,,,,,,,,,,,,,,,,,,,,,,,,,,,,,,,,,,,,0.02457700000377372,32.21251179999672,32.21251179999672,32.21251179999672,None,,y,0.1462788999924669,,,,,,,,,,,,,,,,,,,,,,,,,,,,,,,,203764,001,2023-05-26_12h11.41.081,Pilot_online_tryings,2022.2.5,60.08297459195749,
ConjL4_syn.csv,directory_online_conj_L4_syn.csv,Test_Conj_SyncL4.csv,Conj_syncL4_norm.wav,lo,8:12,red,,,,0,0,0,3,0,0,0,20,,,,,,,,,,,,,,,,,,,,,,,,,,,,,,,,,,,,,,,,,,,,,,,,,,,,,,,,,,,,,,,,,,,,,,,,,,,,,,,,,,,,,,,,,,,,,,,,,,,,203764,001,2023-05-26_12h11.41.081,Pilot_online_tryings,2022.2.5,60.08297459195749,
ConjL4_syn.csv,directory_online_conj_L4_syn.csv,Test_Conj_SyncL4.csv,Conj_syncL4_norm.wav,pe,100:104,orange,Online_conjL4_syn//dPE6.none.wav,none,,0,0,0,3,0,1,1,2,0,0,0,2,,,,,,,,,,,,,,,,,,,,,,,,,,,,,,,,,,,,,,,,,,,,,,,,,,,,,,,32.4014593000029,32.4014593000029,0.02477450000878889,32.4014593000029,32.4014593000029,32.4014593000029,None,,y,0.14887950000411365,,,,,,,,,,,,,,,,,,,,,,,,,,,,,,,,203764,001,2023-05-26_12h11.41.081,Pilot_online_tryings,2022.2.5,60.08297459195749,
ConjL4_syn.csv,directory_online_conj_L4_syn.csv,Test_Conj_SyncL4.csv,Conj_syncL4_norm.wav,pe,100:104,orange,Online_conjL4_syn//dPE4.none.wav,none,,0,0,0,3,0,1,1,2,0,1,1,0,,,,,,,,,,,,,,,,,,,,,,,,,,,,,,,,,,,,,,,,,,,,,,,,,,,,,,,,,0.010920699991402216,32.566574999989825,32.566574999989825,32.566574999989825,None,,y,0.19252580001193564,,,,,,,,,,,,,,,,,,,,,,,,,,,,,,,,203764,001,2023-05-26_12h11.41.081,Pilot_online_tryings,2022.2.5,60.08297459195749,
ConjL4_syn.csv,directory_online_conj_L4_syn.csv,Test_Conj_SyncL4.csv,Conj_syncL4_norm.wav,pe,100:104,orange,Online_conjL4_syn//dPE7.none.wav,none,,0,0,0,3,0,1,1,2,0,2,2,3,,,,,,,,,,,,,,,,,,,,,,,,,,,,,,,,,,,,,,,,,,,,,,,,,,,,,,,,,0.015253699995810166,32.7875742999895,32.7875742999895,32.7875742999895,None,,y,0.18034049999550916,,,,,,,,,,,,,,,,,,,,,,,,,,,,,,,,203764,001,2023-05-26_12h11.41.081,Pilot_online_tryings,2022.2.5,60.08297459195749,
ConjL4_syn.csv,directory_online_conj_L4_syn.csv,Test_Conj_SyncL4.csv,Conj_syncL4_norm.wav,pe,100:104,orange,Online_conjL4_syn//dPE5.1554.wav,1554.0,,0,0,0,3,0,1,1,2,0,3,3,1,,,,,,,,,,,,,,,,,,,,,,,,,,,,,,,,,,,,,,,,,,,,,,,,,,,,,,,,,0.011749400000553578,33.000866100002895,33.000866100002895,33.000866100002895,None,,y,0.15738109999801964,,,,,,,,,,,,,,,,,,,,,,,,,,,,,,,,203764,001,2023-05-26_12h11.41.081,Pilot_online_tryings,2022.2.5,60.08297459195749,
ConjL4_syn.csv,directory_online_conj_L4_syn.csv,Test_Conj_SyncL4.csv,Conj_syncL4_norm.wav,pe,100:104,orange,,,,0,0,0,3,0,1,1,2,,,,,,,,,,,,,,,,,,,,,,,,,,,,,,,,,,,,,,,,,,,,,,,,,,,,,,,,,,,,,,,,,,,,,,,,,,,,,,,,,,,,,,,,,,,,,,,,,,,,203764,001,2023-05-26_12h11.41.081,Pilot_online_tryings,2022.2.5,60.08297459195749,
ConjL4_syn.csv,directory_online_conj_L4_syn.csv,Test_Conj_SyncL4.csv,Conj_syncL4_norm.wav,bu,80:84,green,Online_conjL4_syn//cBU19.444.wav,444.0,,0,0,0,3,0,2,2,6,0,0,0,3,,,,,,,,,,,,,,,,,,,,,,,,,,,,,,,,,,,,,,,,,,,,,,,,,,,,,,,33.20170959999086,33.20170959999086,0.022230700007639825,33.20170959999086,33.20170959999086,33.20170959999086,None,,y,0.13304459999199025,,,,,,,,,,,,,,,,,,,,,,,,,,,,,,,,203764,001,2023-05-26_12h11.41.081,Pilot_online_tryings,2022.2.5,60.08297459195749,
ConjL4_syn.csv,directory_online_conj_L4_syn.csv,Test_Conj_SyncL4.csv,Conj_syncL4_norm.wav,bu,80:84,green,Online_conjL4_syn//cBU16.1110.wav,1110.0,,0,0,0,3,0,2,2,6,0,1,1,0,,,,,,,,,,,,,,,,,,,,,,,,,,,,,,,,,,,,,,,,,,,,,,,,,,,,,,,,,0.01877720000629779,33.36021830000391,33.36021830000391,33.36021830000391,None,,y,0.16675709999981336,,,,,,,,,,,,,,,,,,,,,,,,,,,,,,,,203764,001,2023-05-26_12h11.41.081,Pilot_online_tryings,2022.2.5,60.08297459195749,
ConjL4_syn.csv,directory_online_conj_L4_syn.csv,Test_Conj_SyncL4.csv,Conj_syncL4_norm.wav,bu,80:84,green,Online_conjL4_syn//cBU17.1110.wav,1110.0,,0,0,0,3,0,2,2,6,0,2,2,1,,,,,,,,,,,,,,,,,,,,,,,,,,,,,,,,,,,,,,,,,,,,,,,,,,,,,,,,,0.006200399991939776,33.55076489999192,33.55076489999192,33.55076489999192,None,,y,0.1520604999968782,,,,,,,,,,,,,,,,,,,,,,,,,,,,,,,,203764,001,2023-05-26_12h11.41.081,Pilot_online_tryings,2022.2.5,60.08297459195749,
ConjL4_syn.csv,directory_online_conj_L4_syn.csv,Test_Conj_SyncL4.csv,Conj_syncL4_norm.wav,bu,80:84,green,Online_conjL4_syn//cBU18.none.wav,none,,0,0,0,3,0,2,2,6,0,3,3,2,,,,,,,,,,,,,,,,,,,,,,,,,,,,,,,,,,,,,,,,,,,,,,,,,,,,,,,,,0.016390400007367134,33.739744899998186,33.739744899998186,33.739744899998186,None,,y,0.1392894000018714,,,,,,,,,,,,,,,,,,,,,,,,,,,,,,,,203764,001,2023-05-26_12h11.41.081,Pilot_online_tryings,2022.2.5,60.08297459195749,
ConjL4_syn.csv,directory_online_conj_L4_syn.csv,Test_Conj_SyncL4.csv,Conj_syncL4_norm.wav,bu,80:84,green,,,,0,0,0,3,0,2,2,6,,,,,,,,,,,,,,,,,,,,,,,,,,,,,,,,,,,,,,,,,,,,,,,,,,,,,,,,,,,,,,,,,,,,,,,,,,,,,,,,,,,,,,,,,,,,,,,,,,,,203764,001,2023-05-26_12h11.41.081,Pilot_online_tryings,2022.2.5,60.08297459195749,
ConjL4_syn.csv,directory_online_conj_L4_syn.csv,Test_Conj_SyncL4.csv,Conj_syncL4_norm.wav,pe,108:112,orange,Online_conjL4_syn//dPE14.none.wav,none,,0,0,0,3,0,3,3,13,0,0,0,2,,,,,,,,,,,,,,,,,,,,,,,,,,,,,,,,,,,,,,,,,,,,,,,,,,,,,,,33.920738499989966,33.920738499989966,0.019540399996913038,33.920738499989966,33.920738499989966,33.920738499989966,None,,y,0.11911069999041501,,,,,,,,,,,,,,,,,,,,,,,,,,,,,,,,203764,001,2023-05-26_12h11.41.081,Pilot_online_tryings,2022.2.5,60.08297459195749,
ConjL4_syn.csv,directory_online_conj_L4_syn.csv,Test_Conj_SyncL4.csv,Conj_syncL4_norm.wav,pe,108:112,orange,Online_conjL4_syn//dPE12.1110.wav,1110.0,,0,0,0,3,0,3,3,13,0,1,1,0,,,,,,,,,,,,,,,,,,,,,,,,,,,,,,,,,,,,,,,,,,,,,,,,,,,,,,,,,0.006012500001816079,34.06795019999845,34.06795019999845,34.06795019999845,None,,y,0.14815930000622757,,,,,,,,,,,,,,,,,,,,,,,,,,,,,,,,203764,001,2023-05-26_12h11.41.081,Pilot_online_tryings,2022.2.5,60.08297459195749,
ConjL4_syn.csv,directory_online_conj_L4_syn.csv,Test_Conj_SyncL4.csv,Conj_syncL4_norm.wav,pe,108:112,orange,Online_conjL4_syn//dPE15.none.wav,none,,0,0,0,3,0,3,3,13,0,2,2,3,,,,,,,,,,,,,,,,,,,,,,,,,,,,,,,,,,,,,,,,,,,,,,,,,,,,,,,,,0.010667299997294322,34.234920999995666,34.234920999995666,34.234920999995666,None,,y,0.14071559999138117,,,,,,,,,,,,,,,,,,,,,,,,,,,,,,,,203764,001,2023-05-26_12h11.41.081,Pilot_online_tryings,2022.2.5,60.08297459195749,
ConjL4_syn.csv,directory_online_conj_L4_syn.csv,Test_Conj_SyncL4.csv,Conj_syncL4_norm.wav,pe,108:112,orange,Online_conjL4_syn//dPE13.none.wav,none,,0,0,0,3,0,3,3,13,0,3,3,1,,,,,,,,,,,,,,,,,,,,,,,,,,,,,,,,,,,,,,,,,,,,,,,,,,,,,,,,,0.005889699998078868,34.401528100002906,34.401528100002906,34.401528100002906,None,,y,0.13457690000359435,,,,,,,,,,,,,,,,,,,,,,,,,,,,,,,,203764,001,2023-05-26_12h11.41.081,Pilot_online_tryings,2022.2.5,60.08297459195749,
ConjL4_syn.csv,directory_online_conj_L4_syn.csv,Test_Conj_SyncL4.csv,Conj_syncL4_norm.wav,pe,108:112,orange,,,,0,0,0,3,0,3,3,13,,,,,,,,,,,,,,,,,,,,,,,,,,,,,,,,,,,,,,,,,,,,,,,,,,,,,,,,,,,,,,,,,,,,,,,,,,,,,,,,,,,,,,,,,,,,,,,,,,,,203764,001,2023-05-26_12h11.41.081,Pilot_online_tryings,2022.2.5,60.08297459195749,
ConjL4_syn.csv,directory_online_conj_L4_syn.csv,Test_Conj_SyncL4.csv,Conj_syncL4_norm.wav,pe,104:108,orange,Online_conjL4_syn//dPE9.444.wav,444.0,,0,0,0,3,0,4,4,3,0,0,0,1,,,,,,,,,,,,,,,,,,,,,,,,,,,,,,,,,,,,,,,,,,,,,,,,,,,,,,,34.580578900000546,34.580578900000546,0.02279469999484718,34.580578900000546,34.580578900000546,34.580578900000546,None,,y,0.11375699999916833,,,,,,,,,,,,,,,,,,,,,,,,,,,,,,,,203764,001,2023-05-26_12h11.41.081,Pilot_online_tryings,2022.2.5,60.08297459195749,
ConjL4_syn.csv,directory_online_conj_L4_syn.csv,Test_Conj_SyncL4.csv,Conj_syncL4_norm.wav,pe,104:108,orange,Online_conjL4_syn//dPE10.222.wav,222.0,,0,0,0,3,0,4,4,3,0,1,1,2,,,,,,,,,,,,,,,,,,,,,,,,,,,,,,,,,,,,,,,,,,,,,,,,,,,,,,,,,0.00688869999430608,34.71861139999237,34.71861139999237,34.71861139999237,None,,y,0.1361052000138443,,,,,,,,,,,,,,,,,,,,,,,,,,,,,,,,203764,001,2023-05-26_12h11.41.081,Pilot_online_tryings,2022.2.5,60.08297459195749,
ConjL4_syn.csv,directory_online_conj_L4_syn.csv,Test_Conj_SyncL4.csv,Conj_syncL4_norm.wav,pe,104:108,orange,Online_conjL4_syn//dPE11.444.wav,444.0,,0,0,0,3,0,4,4,3,0,2,2,3,,,,,,,,,,,,,,,,,,,,,,,,,,,,,,,,,,,,,,,,,,,,,,,,,,,,,,,,,0.006074699995224364,34.885633199999575,34.885633199999575,34.885633199999575,None,,y,0.14625900000100955,,,,,,,,,,,,,,,,,,,,,,,,,,,,,,,,203764,001,2023-05-26_12h11.41.081,Pilot_online_tryings,2022.2.5,60.08297459195749,
ConjL4_syn.csv,directory_online_conj_L4_syn.csv,Test_Conj_SyncL4.csv,Conj_syncL4_norm.wav,pe,104:108,orange,Online_conjL4_syn//dPE8.none.wav,none,,0,0,0,3,0,4,4,3,0,3,3,0,,,,,,,,,,,,,,,,,,,,,,,,,,,,,,,,,,,,,,,,,,,,,,,,,,,,,,,,,0.019120400000247173,35.060484999994515,35.060484999994515,35.060484999994515,None,,y,0.1304490999900736,,,,,,,,,,,,,,,,,,,,,,,,,,,,,,,,203764,001,2023-05-26_12h11.41.081,Pilot_online_tryings,2022.2.5,60.08297459195749,
ConjL4_syn.csv,directory_online_conj_L4_syn.csv,Test_Conj_SyncL4.csv,Conj_syncL4_norm.wav,pe,104:108,orange,,,,0,0,0,3,0,4,4,3,,,,,,,,,,,,,,,,,,,,,,,,,,,,,,,,,,,,,,,,,,,,,,,,,,,,,,,,,,,,,,,,,,,,,,,,,,,,,,,,,,,,,,,,,,,,,,,,,,,,203764,001,2023-05-26_12h11.41.081,Pilot_online_tryings,2022.2.5,60.08297459195749,
ConjL4_syn.csv,directory_online_conj_L4_syn.csv,Test_Conj_SyncL4.csv,Conj_syncL4_norm.wav,pe,112:116,orange,Online_conjL4_syn//dPE16.222.wav,222.0,,0,0,0,3,0,5,5,4,0,0,0,0,,,,,,,,,,,,,,,,,,,,,,,,,,,,,,,,,,,,,,,,,,,,,,,,,,,,,,,35.22624229999201,35.22624229999201,0.017269000003580004,35.22624229999201,35.22624229999201,35.22624229999201,None,,y,0.30133860000933055,,,,,,,,,,,,,,,,,,,,,,,,,,,,,,,,203764,001,2023-05-26_12h11.41.081,Pilot_online_tryings,2022.2.5,60.08297459195749,
ConjL4_syn.csv,directory_online_conj_L4_syn.csv,Test_Conj_SyncL4.csv,Conj_syncL4_norm.wav,pe,112:116,orange,Online_conjL4_syn//dPE17.none.wav,none,,0,0,0,3,0,5,5,4,0,1,1,1,,,,,,,,,,,,,,,,,,,,,,,,,,,,,,,,,,,,,,,,,,,,,,,,,,,,,,,,,0.014117300001089461,35.55822730000364,35.55822730000364,35.55822730000364,space,0.38446709999698214,y,1.0401757000072394,,,,,,,,,,,,,,,,,,,,,,,,,,,,,,,,203764,001,2023-05-26_12h11.41.081,Pilot_online_tryings,2022.2.5,60.08297459195749,
ConjL4_syn.csv,directory_online_conj_L4_syn.csv,Test_Conj_SyncL4.csv,Conj_syncL4_norm.wav,pe,112:116,orange,Online_conjL4_syn//dPE19.1332.wav,1332.0,,0,0,0,3,0,5,5,4,0,2,2,3,,,,,,,,,,,,,,,,,,,,,,,,,,,,,,,,,,,,,,,,,,,,,,,,,,,,,,,,,0.02067929999611806,36.630273599992506,36.630273599992506,36.630273599992506,None,,y,0.7695001999964006,,,,,,,,,,,,,,,,,,,,,,,,,,,,,,,,203764,001,2023-05-26_12h11.41.081,Pilot_online_tryings,2022.2.5,60.08297459195749,
ConjL4_syn.csv,directory_online_conj_L4_syn.csv,Test_Conj_SyncL4.csv,Conj_syncL4_norm.wav,pe,112:116,orange,Online_conjL4_syn//dPE18.none.wav,none,,0,0,0,3,0,5,5,4,0,3,3,2,,,,,,,,,,,,,,,,,,,,,,,,,,,,,,,,,,,,,,,,,,,,,,,,,,,,,,,,,0.0071494000003440306,37.421313400001964,37.421313400001964,37.421313400001964,None,,y,0.2491195000038715,,,,,,,,,,,,,,,,,,,,,,,,,,,,,,,,203764,001,2023-05-26_12h11.41.081,Pilot_online_tryings,2022.2.5,60.08297459195749,
ConjL4_syn.csv,directory_online_conj_L4_syn.csv,Test_Conj_SyncL4.csv,Conj_syncL4_norm.wav,pe,112:116,orange,,,,0,0,0,3,0,5,5,4,,,,,,,,,,,,,,,,,,,,,,,,,,,,,,,,,,,,,,,,,,,,,,,,,,,,,,,,,,,,,,,,,,,,,,,,,,,,,,,,,,,,,,,,,,,,,,,,,,,,203764,001,2023-05-26_12h11.41.081,Pilot_online_tryings,2022.2.5,60.08297459195749,
ConjL4_syn.csv,directory_online_conj_L4_syn.csv,Test_Conj_SyncL4.csv,Conj_syncL4_norm.wav,bu,84:88,green,Online_conjL4_syn//cBU23.444.wav,444.0,,0,0,0,3,0,6,6,5,0,0,0,3,,,,,,,,,,,,,,,,,,,,,,,,,,,,,,,,,,,,,,,,,,,,,,,,,,,,,,,37.71267179999268,37.71267179999268,0.030208399999537505,37.71267179999268,37.71267179999268,37.71267179999268,None,,y,0.23118780000368133,,,,,,,,,,,,,,,,,,,,,,,,,,,,,,,,203764,001,2023-05-26_12h11.41.081,Pilot_online_tryings,2022.2.5,60.08297459195749,
ConjL4_syn.csv,directory_online_conj_L4_syn.csv,Test_Conj_SyncL4.csv,Conj_syncL4_norm.wav,bu,84:88,green,Online_conjL4_syn//cBU22.none.wav,none,,0,0,0,3,0,6,6,5,0,1,1,2,,,,,,,,,,,,,,,,,,,,,,,,,,,,,,,,,,,,,,,,,,,,,,,,,,,,,,,,,0.006891600001836196,37.971909599989885,37.971909599989885,37.971909599989885,None,,y,0.19550439999147784,,,,,,,,,,,,,,,,,,,,,,,,,,,,,,,,203764,001,2023-05-26_12h11.41.081,Pilot_online_tryings,2022.2.5,60.08297459195749,
ConjL4_syn.csv,directory_online_conj_L4_syn.csv,Test_Conj_SyncL4.csv,Conj_syncL4_norm.wav,bu,84:88,green,Online_conjL4_syn//cBU20.none.wav,none,,0,0,0,3,0,6,6,5,0,2,2,0,,,,,,,,,,,,,,,,,,,,,,,,,,,,,,,,,,,,,,,,,,,,,,,,,,,,,,,,,0.005965100004686974,38.188790100000915,38.188790100000915,38.188790100000915,None,,y,0.15443939999386203,,,,,,,,,,,,,,,,,,,,,,,,,,,,,,,,203764,001,2023-05-26_12h11.41.081,Pilot_online_tryings,2022.2.5,60.08297459195749,
ConjL4_syn.csv,directory_online_conj_L4_syn.csv,Test_Conj_SyncL4.csv,Conj_syncL4_norm.wav,bu,84:88,green,Online_conjL4_syn//cBU21.222.wav,222.0,,0,0,0,3,0,6,6,5,0,3,3,1,,,,,,,,,,,,,,,,,,,,,,,,,,,,,,,,,,,,,,,,,,,,,,,,,,,,,,,,,0.0059920000057900324,38.37227609999536,38.37227609999536,38.37227609999536,None,,y,0.13069770000583958,,,,,,,,,,,,,,,,,,,,,,,,,,,,,,,,203764,001,2023-05-26_12h11.41.081,Pilot_online_tryings,2022.2.5,60.08297459195749,
ConjL4_syn.csv,directory_online_conj_L4_syn.csv,Test_Conj_SyncL4.csv,Conj_syncL4_norm.wav,bu,84:88,green,,,,0,0,0,3,0,6,6,5,,,,,,,,,,,,,,,,,,,,,,,,,,,,,,,,,,,,,,,,,,,,,,,,,,,,,,,,,,,,,,,,,,,,,,,,,,,,,,,,,,,,,,,,,,,,,,,,,,,,203764,001,2023-05-26_12h11.41.081,Pilot_online_tryings,2022.2.5,60.08297459195749,
ConjL4_syn.csv,directory_online_conj_L4_syn.csv,Test_Conj_SyncL4.csv,Conj_syncL4_norm.wav,ja,52:56,blue,Online_conjL4_syn//bJA22.none.wav,none,,0,0,0,3,0,7,7,16,0,0,0,2,,,,,,,,,,,,,,,,,,,,,,,,,,,,,,,,,,,,,,,,,,,,,,,,,,,,,,,38.5390708999912,38.5390708999912,0.022140699991723523,38.5390708999912,38.5390708999912,38.5390708999912,space,0.9731468000099994,y,2.3811786000151187,,,,,,,,,,,,,,,,,,,,,,,,,,,,,,,,203764,001,2023-05-26_12h11.41.081,Pilot_online_tryings,2022.2.5,60.08297459195749,
ConjL4_syn.csv,directory_online_conj_L4_syn.csv,Test_Conj_SyncL4.csv,Conj_syncL4_norm.wav,ja,52:56,blue,Online_conjL4_syn//bJA21.none.wav,none,,0,0,0,3,0,7,7,16,0,1,1,1,,,,,,,,,,,,,,,,,,,,,,,,,,,,,,,,,,,,,,,,,,,,,,,,,,,,,,,,,0.0058572999987518415,40.941531999997096,40.941531999997096,40.941531999997096,space,1.257187100010924,y,2.1694713000033516,,,,,,,,,,,,,,,,,,,,,,,,,,,,,,,,203764,001,2023-05-26_12h11.41.081,Pilot_online_tryings,2022.2.5,60.08297459195749,
ConjL4_syn.csv,directory_online_conj_L4_syn.csv,Test_Conj_SyncL4.csv,Conj_syncL4_norm.wav,ja,52:56,blue,Online_conjL4_syn//bJA20.0.wav,0.0,,0,0,0,3,0,7,7,16,0,2,2,0,,,,,,,,,,,,,,,,,,,,,,,,,,,,,,,,,,,,,,,,,,,,,,,,,,,,,,,,,0.006340300009469502,43.14381179999327,43.14381179999327,43.14381179999327,None,,y,0.3830550000129733,,,,,,,,,,,,,,,,,,,,,,,,,,,,,,,,203764,001,2023-05-26_12h11.41.081,Pilot_online_tryings,2022.2.5,60.08297459195749,
ConjL4_syn.csv,directory_online_conj_L4_syn.csv,Test_Conj_SyncL4.csv,Conj_syncL4_norm.wav,ja,52:56,blue,Online_conjL4_syn//bJA23.666.wav,666.0,,0,0,0,3,0,7,7,16,0,3,3,3,,,,,,,,,,,,,,,,,,,,,,,,,,,,,,,,,,,,,,,,,,,,,,,,,,,,,,,,,0.01838829999906011,43.553127599996515,43.553127599996515,43.553127599996515,None,,y,0.14917250000871718,,,,,,,,,,,,,,,,,,,,,,,,,,,,,,,,203764,001,2023-05-26_12h11.41.081,Pilot_online_tryings,2022.2.5,60.08297459195749,
ConjL4_syn.csv,directory_online_conj_L4_syn.csv,Test_Conj_SyncL4.csv,Conj_syncL4_norm.wav,ja,52:56,blue,,,,0,0,0,3,0,7,7,16,,,,,,,,,,,,,,,,,,,,,,,,,,,,,,,,,,,,,,,,,,,,,,,,,,,,,,,,,,,,,,,,,,,,,,,,,,,,,,,,,,,,,,,,,,,,,,,,,,,,203764,001,2023-05-26_12h11.41.081,Pilot_online_tryings,2022.2.5,60.08297459195749,
ConjL4_syn.csv,directory_online_conj_L4_syn.csv,Test_Conj_SyncL4.csv,Conj_syncL4_norm.wav,ja,40:44,blue,Online_conjL4_syn//bJA10.none.wav,none,,0,0,0,3,0,8,8,0,0,0,0,2,,,,,,,,,,,,,,,,,,,,,,,,,,,,,,,,,,,,,,,,,,,,,,,,,,,,,,,43.77701530000195,43.77701530000195,0.052510800000163727,43.77701530000195,43.77701530000195,43.77701530000195,None,,y,0.10103259999596048,,,,,,,,,,,,,,,,,,,,,,,,,,,,,,,,203764,001,2023-05-26_12h11.41.081,Pilot_online_tryings,2022.2.5,60.08297459195749,
ConjL4_syn.csv,directory_online_conj_L4_syn.csv,Test_Conj_SyncL4.csv,Conj_syncL4_norm.wav,ja,40:44,blue,Online_conjL4_syn//bJA9.none.wav,none,,0,0,0,3,0,8,8,0,0,1,1,1,,,,,,,,,,,,,,,,,,,,,,,,,,,,,,,,,,,,,,,,,,,,,,,,,,,,,,,,,0.01061929999559652,43.89457439999387,43.89457439999387,43.89457439999387,None,,y,0.1923679000028642,,,,,,,,,,,,,,,,,,,,,,,,,,,,,,,,203764,001,2023-05-26_12h11.41.081,Pilot_online_tryings,2022.2.5,60.08297459195749,
ConjL4_syn.csv,directory_online_conj_L4_syn.csv,Test_Conj_SyncL4.csv,Conj_syncL4_norm.wav,ja,40:44,blue,Online_conjL4_syn//bJA11.0.wav,0.0,,0,0,0,3,0,8,8,0,0,2,2,3,,,,,,,,,,,,,,,,,,,,,,,,,,,,,,,,,,,,,,,,,,,,,,,,,,,,,,,,,0.00847690000955481,44.11148629999661,44.11148629999661,44.11148629999661,None,,y,0.16798660000495147,,,,,,,,,,,,,,,,,,,,,,,,,,,,,,,,203764,001,2023-05-26_12h11.41.081,Pilot_online_tryings,2022.2.5,60.08297459195749,
ConjL4_syn.csv,directory_online_conj_L4_syn.csv,Test_Conj_SyncL4.csv,Conj_syncL4_norm.wav,ja,40:44,blue,Online_conjL4_syn//bJA8.666.wav,666.0,,0,0,0,3,0,8,8,0,0,3,3,0,,,,,,,,,,,,,,,,,,,,,,,,,,,,,,,,,,,,,,,,,,,,,,,,,,,,,,,,,0.011119999995571561,44.31324869999662,44.31324869999662,44.31324869999662,None,,y,0.14198949999990873,,,,,,,,,,,,,,,,,,,,,,,,,,,,,,,,203764,001,2023-05-26_12h11.41.081,Pilot_online_tryings,2022.2.5,60.08297459195749,
ConjL4_syn.csv,directory_online_conj_L4_syn.csv,Test_Conj_SyncL4.csv,Conj_syncL4_norm.wav,ja,40:44,blue,,,,0,0,0,3,0,8,8,0,,,,,,,,,,,,,,,,,,,,,,,,,,,,,,,,,,,,,,,,,,,,,,,,,,,,,,,,,,,,,,,,,,,,,,,,,,,,,,,,,,,,,,,,,,,,,,,,,,,,203764,001,2023-05-26_12h11.41.081,Pilot_online_tryings,2022.2.5,60.08297459195749,
ConjL4_syn.csv,directory_online_conj_L4_syn.csv,Test_Conj_SyncL4.csv,Conj_syncL4_norm.wav,bu,68:72,green,Online_conjL4_syn//cBU4.1110.wav,1110.0,,0,0,0,3,0,9,9,30,0,0,0,0,,,,,,,,,,,,,,,,,,,,,,,,,,,,,,,,,,,,,,,,,,,,,,,,,,,,,,,44.499583700002404,44.499583700002404,0.02464630000758916,44.499583700002404,44.499583700002404,44.499583700002404,None,,y,0.11472670000512153,,,,,,,,,,,,,,,,,,,,,,,,,,,,,,,,203764,001,2023-05-26_12h11.41.081,Pilot_online_tryings,2022.2.5,60.08297459195749,
ConjL4_syn.csv,directory_online_conj_L4_syn.csv,Test_Conj_SyncL4.csv,Conj_syncL4_norm.wav,bu,68:72,green,Online_conjL4_syn//cBU6.none.wav,none,,0,0,0,3,0,9,9,30,0,1,1,2,,,,,,,,,,,,,,,,,,,,,,,,,,,,,,,,,,,,,,,,,,,,,,,,,,,,,,,,,0.00682579999556765,44.64529790000233,44.64529790000233,44.64529790000233,None,,y,0.11300490000576247,,,,,,,,,,,,,,,,,,,,,,,,,,,,,,,,203764,001,2023-05-26_12h11.41.081,Pilot_online_tryings,2022.2.5,60.08297459195749,
ConjL4_syn.csv,directory_online_conj_L4_syn.csv,Test_Conj_SyncL4.csv,Conj_syncL4_norm.wav,bu,68:72,green,Online_conjL4_syn//cBU7.1554.wav,1554.0,,0,0,0,3,0,9,9,30,0,2,2,3,,,,,,,,,,,,,,,,,,,,,,,,,,,,,,,,,,,,,,,,,,,,,,,,,,,,,,,,,0.006082300009438768,44.77876410000317,44.77876410000317,44.77876410000317,None,,y,0.12332769999920856,,,,,,,,,,,,,,,,,,,,,,,,,,,,,,,,203764,001,2023-05-26_12h11.41.081,Pilot_online_tryings,2022.2.5,60.08297459195749,
ConjL4_syn.csv,directory_online_conj_L4_syn.csv,Test_Conj_SyncL4.csv,Conj_syncL4_norm.wav,bu,68:72,green,Online_conjL4_syn//cBU5.1110.wav,1110.0,,0,0,0,3,0,9,9,30,0,3,3,1,,,,,,,,,,,,,,,,,,,,,,,,,,,,,,,,,,,,,,,,,,,,,,,,,,,,,,,,,0.005516300007002428,44.928772500003106,44.928772500003106,44.928772500003106,None,,y,0.13486599999305326,,,,,,,,,,,,,,,,,,,,,,,,,,,,,,,,203764,001,2023-05-26_12h11.41.081,Pilot_online_tryings,2022.2.5,60.08297459195749,
ConjL4_syn.csv,directory_online_conj_L4_syn.csv,Test_Conj_SyncL4.csv,Conj_syncL4_norm.wav,bu,68:72,green,,,,0,0,0,3,0,9,9,30,,,,,,,,,,,,,,,,,,,,,,,,,,,,,,,,,,,,,,,,,,,,,,,,,,,,,,,,,,,,,,,,,,,,,,,,,,,,,,,,,,,,,,,,,,,,,,,,,,,,203764,001,2023-05-26_12h11.41.081,Pilot_online_tryings,2022.2.5,60.08297459195749,
ConjL4_syn.csv,directory_online_conj_L4_syn.csv,Test_Conj_SyncL4.csv,Conj_syncL4_norm.wav,ja,44:48,blue,Online_conjL4_syn//bJA13.666.wav,666.0,,0,0,0,3,0,10,10,10,0,0,0,1,,,,,,,,,,,,,,,,,,,,,,,,,,,,,,,,,,,,,,,,,,,,,,,,,,,,,,,45.105944900002214,45.105944900002214,0.016264200006844476,45.105944900002214,45.105944900002214,45.105944900002214,None,,y,0.10154009998950642,,,,,,,,,,,,,,,,,,,,,,,,,,,,,,,,203764,001,2023-05-26_12h11.41.081,Pilot_online_tryings,2022.2.5,60.08297459195749,
ConjL4_syn.csv,directory_online_conj_L4_syn.csv,Test_Conj_SyncL4.csv,Conj_syncL4_norm.wav,ja,44:48,blue,Online_conjL4_syn//bJA15.666.wav,666.0,,0,0,0,3,0,10,10,10,0,1,1,3,,,,,,,,,,,,,,,,,,,,,,,,,,,,,,,,,,,,,,,,,,,,,,,,,,,,,,,,,0.016695300000719726,45.23508289999154,45.23508289999154,45.23508289999154,None,,y,0.14817739999853075,,,,,,,,,,,,,,,,,,,,,,,,,,,,,,,,203764,001,2023-05-26_12h11.41.081,Pilot_online_tryings,2022.2.5,60.08297459195749,
ConjL4_syn.csv,directory_online_conj_L4_syn.csv,Test_Conj_SyncL4.csv,Conj_syncL4_norm.wav,ja,44:48,blue,Online_conjL4_syn//bJA12.0.wav,0.0,,0,0,0,3,0,10,10,10,0,2,2,0,,,,,,,,,,,,,,,,,,,,,,,,,,,,,,,,,,,,,,,,,,,,,,,,,,,,,,,,,0.0052691000018967316,45.412466399997356,45.412466399997356,45.412466399997356,None,,y,0.13003990000288468,,,,,,,,,,,,,,,,,,,,,,,,,,,,,,,,203764,001,2023-05-26_12h11.41.081,Pilot_online_tryings,2022.2.5,60.08297459195749,
ConjL4_syn.csv,directory_online_conj_L4_syn.csv,Test_Conj_SyncL4.csv,Conj_syncL4_norm.wav,ja,44:48,blue,Online_conjL4_syn//bJA14.none.wav,none,,0,0,0,3,0,10,10,10,0,3,3,2,,,,,,,,,,,,,,,,,,,,,,,,,,,,,,,,,,,,,,,,,,,,,,,,,,,,,,,,,0.005002899997634813,45.56261069999891,45.56261069999891,45.56261069999891,None,,y,0.1564723000046797,,,,,,,,,,,,,,,,,,,,,,,,,,,,,,,,203764,001,2023-05-26_12h11.41.081,Pilot_online_tryings,2022.2.5,60.08297459195749,
ConjL4_syn.csv,directory_online_conj_L4_syn.csv,Test_Conj_SyncL4.csv,Conj_syncL4_norm.wav,ja,44:48,blue,,,,0,0,0,3,0,10,10,10,,,,,,,,,,,,,,,,,,,,,,,,,,,,,,,,,,,,,,,,,,,,,,,,,,,,,,,,,,,,,,,,,,,,,,,,,,,,,,,,,,,,,,,,,,,,,,,,,,,,203764,001,2023-05-26_12h11.41.081,Pilot_online_tryings,2022.2.5,60.08297459195749,
ConjL4_syn.csv,directory_online_conj_L4_syn.csv,Test_Conj_SyncL4.csv,Conj_syncL4_norm.wav,pe,116:120,orange,Online_conjL4_syn//dPE20.none.wav,none,,0,0,0,3,0,11,11,8,0,0,0,0,,,,,,,,,,,,,,,,,,,,,,,,,,,,,,,,,,,,,,,,,,,,,,,,,,,,,,,45.7678850999946,45.7678850999946,0.027532100008102134,45.7678850999946,45.7678850999946,45.7678850999946,None,,y,0.1107590000028722,,,,,,,,,,,,,,,,,,,,,,,,,,,,,,,,203764,001,2023-05-26_12h11.41.081,Pilot_online_tryings,2022.2.5,60.08297459195749,
ConjL4_syn.csv,directory_online_conj_L4_syn.csv,Test_Conj_SyncL4.csv,Conj_syncL4_norm.wav,pe,116:120,orange,Online_conjL4_syn//dPE23.none.wav,none,,0,0,0,3,0,11,11,8,0,1,1,3,,,,,,,,,,,,,,,,,,,,,,,,,,,,,,,,,,,,,,,,,,,,,,,,,,,,,,,,,0.017075399999157526,45.90277359999891,45.90277359999891,45.90277359999891,None,,y,0.13554269999440294,,,,,,,,,,,,,,,,,,,,,,,,,,,,,,,,203764,001,2023-05-26_12h11.41.081,Pilot_online_tryings,2022.2.5,60.08297459195749,
ConjL4_syn.csv,directory_online_conj_L4_syn.csv,Test_Conj_SyncL4.csv,Conj_syncL4_norm.wav,pe,116:120,orange,Online_conjL4_syn//dPE21.none.wav,none,,0,0,0,3,0,11,11,8,0,2,2,1,,,,,,,,,,,,,,,,,,,,,,,,,,,,,,,,,,,,,,,,,,,,,,,,,,,,,,,,,0.004883699992205948,46.06306629999017,46.06306629999017,46.06306629999017,None,,y,0.1512215999973705,,,,,,,,,,,,,,,,,,,,,,,,,,,,,,,,203764,001,2023-05-26_12h11.41.081,Pilot_online_tryings,2022.2.5,60.08297459195749,
ConjL4_syn.csv,directory_online_conj_L4_syn.csv,Test_Conj_SyncL4.csv,Conj_syncL4_norm.wav,pe,116:120,orange,Online_conjL4_syn//dPE22.none.wav,none,,0,0,0,3,0,11,11,8,0,3,3,2,,,,,,,,,,,,,,,,,,,,,,,,,,,,,,,,,,,,,,,,,,,,,,,,,,,,,,,,,0.0052890999941155314,46.24669329999597,46.24669329999597,46.24669329999597,None,,y,0.1444093000027351,,,,,,,,,,,,,,,,,,,,,,,,,,,,,,,,203764,001,2023-05-26_12h11.41.081,Pilot_online_tryings,2022.2.5,60.08297459195749,
ConjL4_syn.csv,directory_online_conj_L4_syn.csv,Test_Conj_SyncL4.csv,Conj_syncL4_norm.wav,pe,116:120,orange,,,,0,0,0,3,0,11,11,8,,,,,,,,,,,,,,,,,,,,,,,,,,,,,,,,,,,,,,,,,,,,,,,,,,,,,,,,,,,,,,,,,,,,,,,,,,,,,,,,,,,,,,,,,,,,,,,,,,,,203764,001,2023-05-26_12h11.41.081,Pilot_online_tryings,2022.2.5,60.08297459195749,
ConjL4_syn.csv,directory_online_conj_L4_syn.csv,Test_Conj_SyncL4.csv,Conj_syncL4_norm.wav,ja,60:64,blue,Online_conjL4_syn//bJA28.none.wav,none,,0,0,0,3,0,12,12,15,0,0,0,0,,,,,,,,,,,,,,,,,,,,,,,,,,,,,,,,,,,,,,,,,,,,,,,,,,,,,,,46.4295984999917,46.4295984999917,0.020999100001063198,46.4295984999917,46.4295984999917,46.4295984999917,None,,y,0.13717099999485072,,,,,,,,,,,,,,,,,,,,,,,,,,,,,,,,203764,001,2023-05-26_12h11.41.081,Pilot_online_tryings,2022.2.5,60.08297459195749,
ConjL4_syn.csv,directory_online_conj_L4_syn.csv,Test_Conj_SyncL4.csv,Conj_syncL4_norm.wav,ja,60:64,blue,Online_conjL4_syn//bJA30.none.wav,none,,0,0,0,3,0,12,12,15,0,1,1,2,,,,,,,,,,,,,,,,,,,,,,,,,,,,,,,,,,,,,,,,,,,,,,,,,,,,,,,,,0.021911799994995818,46.60839310000301,46.60839310000301,46.60839310000301,None,,y,0.1664768000046024,,,,,,,,,,,,,,,,,,,,,,,,,,,,,,,,203764,001,2023-05-26_12h11.41.081,Pilot_online_tryings,2022.2.5,60.08297459195749,
ConjL4_syn.csv,directory_online_conj_L4_syn.csv,Test_Conj_SyncL4.csv,Conj_syncL4_norm.wav,ja,60:64,blue,Online_conjL4_syn//bJA29.none.wav,none,,0,0,0,3,0,12,12,15,0,2,2,1,,,,,,,,,,,,,,,,,,,,,,,,,,,,,,,,,,,,,,,,,,,,,,,,,,,,,,,,,0.014128399998298846,46.80058569999528,46.80058569999528,46.80058569999528,None,,y,0.11920590000227094,,,,,,,,,,,,,,,,,,,,,,,,,,,,,,,,203764,001,2023-05-26_12h11.41.081,Pilot_online_tryings,2022.2.5,60.08297459195749,
ConjL4_syn.csv,directory_online_conj_L4_syn.csv,Test_Conj_SyncL4.csv,Conj_syncL4_norm.wav,ja,60:64,blue,Online_conjL4_syn//bJA31.none.wav,none,,0,0,0,3,0,12,12,15,0,3,3,3,,,,,,,,,,,,,,,,,,,,,,,,,,,,,,,,,,,,,,,,,,,,,,,,,,,,,,,,,0.007996099986485206,46.94748809999146,46.94748809999146,46.94748809999146,None,,y,0.1637925999966683,,,,,,,,,,,,,,,,,,,,,,,,,,,,,,,,203764,001,2023-05-26_12h11.41.081,Pilot_online_tryings,2022.2.5,60.08297459195749,
ConjL4_syn.csv,directory_online_conj_L4_syn.csv,Test_Conj_SyncL4.csv,Conj_syncL4_norm.wav,ja,60:64,blue,,,,0,0,0,3,0,12,12,15,,,,,,,,,,,,,,,,,,,,,,,,,,,,,,,,,,,,,,,,,,,,,,,,,,,,,,,,,,,,,,,,,,,,,,,,,,,,,,,,,,,,,,,,,,,,,,,,,,,,203764,001,2023-05-26_12h11.41.081,Pilot_online_tryings,2022.2.5,60.08297459195749,
ConjL4_syn.csv,directory_online_conj_L4_syn.csv,Test_Conj_SyncL4.csv,Conj_syncL4_norm.wav,lo,12:16,red,Online_conjL4_syn//aLO14.1554.wav,1554.0,,0,0,0,3,0,13,13,19,0,0,0,2,,,,,,,,,,,,,,,,,,,,,,,,,,,,,,,,,,,,,,,,,,,,,,,,,,,,,,,47.15603459998965,47.15603459998965,0.03194699999585282,47.15603459998965,47.15603459998965,47.15603459998965,None,,y,0.1143997000035597,,,,,,,,,,,,,,,,,,,,,,,,,,,,,,,,203764,001,2023-05-26_12h11.41.081,Pilot_online_tryings,2022.2.5,60.08297459195749,
ConjL4_syn.csv,directory_online_conj_L4_syn.csv,Test_Conj_SyncL4.csv,Conj_syncL4_norm.wav,lo,12:16,red,Online_conjL4_syn//aLO13.666.wav,666.0,,0,0,0,3,0,13,13,19,0,1,1,1,,,,,,,,,,,,,,,,,,,,,,,,,,,,,,,,,,,,,,,,,,,,,,,,,,,,,,,,,0.005492600001161918,47.29774399999587,47.29774399999587,47.29774399999587,None,,y,0.16557759999705013,,,,,,,,,,,,,,,,,,,,,,,,,,,,,,,,203764,001,2023-05-26_12h11.41.081,Pilot_online_tryings,2022.2.5,60.08297459195749,
ConjL4_syn.csv,directory_online_conj_L4_syn.csv,Test_Conj_SyncL4.csv,Conj_syncL4_norm.wav,lo,12:16,red,Online_conjL4_syn//aLO12.1554.wav,1554.0,,0,0,0,3,0,13,13,19,0,2,2,0,,,,,,,,,,,,,,,,,,,,,,,,,,,,,,,,,,,,,,,,,,,,,,,,,,,,,,,,,0.006086099994718097,47.48146339999221,47.48146339999221,47.48146339999221,None,,y,0.17478459999256302,,,,,,,,,,,,,,,,,,,,,,,,,,,,,,,,203764,001,2023-05-26_12h11.41.081,Pilot_online_tryings,2022.2.5,60.08297459195749,
ConjL4_syn.csv,directory_online_conj_L4_syn.csv,Test_Conj_SyncL4.csv,Conj_syncL4_norm.wav,lo,12:16,red,Online_conjL4_syn//aLO15.none.wav,none,,0,0,0,3,0,13,13,19,0,3,3,3,,,,,,,,,,,,,,,,,,,,,,,,,,,,,,,,,,,,,,,,,,,,,,,,,,,,,,,,,0.015099600001121871,47.68590719999338,47.68590719999338,47.68590719999338,None,,y,0.14452889999665786,,,,,,,,,,,,,,,,,,,,,,,,,,,,,,,,203764,001,2023-05-26_12h11.41.081,Pilot_online_tryings,2022.2.5,60.08297459195749,
ConjL4_syn.csv,directory_online_conj_L4_syn.csv,Test_Conj_SyncL4.csv,Conj_syncL4_norm.wav,lo,12:16,red,,,,0,0,0,3,0,13,13,19,,,,,,,,,,,,,,,,,,,,,,,,,,,,,,,,,,,,,,,,,,,,,,,,,,,,,,,,,,,,,,,,,,,,,,,,,,,,,,,,,,,,,,,,,,,,,,,,,,,,203764,001,2023-05-26_12h11.41.081,Pilot_online_tryings,2022.2.5,60.08297459195749,
ConjL4_syn.csv,directory_online_conj_L4_syn.csv,Test_Conj_SyncL4.csv,Conj_syncL4_norm.wav,pe,124:128,orange,Online_conjL4_syn//dPE28.1110.wav,1110.0,,0,0,0,3,0,14,14,26,0,0,0,0,,,,,,,,,,,,,,,,,,,,,,,,,,,,,,,,,,,,,,,,,,,,,,,,,,,,,,,47.87348949999432,47.87348949999432,0.03139099999680184,47.87348949999432,47.87348949999432,47.87348949999432,None,,y,0.13399309999658726,,,,,,,,,,,,,,,,,,,,,,,,,,,,,,,,203764,001,2023-05-26_12h11.41.081,Pilot_online_tryings,2022.2.5,60.08297459195749,
ConjL4_syn.csv,directory_online_conj_L4_syn.csv,Test_Conj_SyncL4.csv,Conj_syncL4_norm.wav,pe,124:128,orange,Online_conjL4_syn//dPE31.444.wav,444.0,,0,0,0,3,0,14,14,26,0,1,1,3,,,,,,,,,,,,,,,,,,,,,,,,,,,,,,,,,,,,,,,,,,,,,,,,,,,,,,,,,0.007174700003815815,48.03181729999778,48.03181729999778,48.03181729999778,None,,y,0.13432789999933448,,,,,,,,,,,,,,,,,,,,,,,,,,,,,,,,203764,001,2023-05-26_12h11.41.081,Pilot_online_tryings,2022.2.5,60.08297459195749,
ConjL4_syn.csv,directory_online_conj_L4_syn.csv,Test_Conj_SyncL4.csv,Conj_syncL4_norm.wav,pe,124:128,orange,Online_conjL4_syn//dPE29.444.wav,444.0,,0,0,0,3,0,14,14,26,0,2,2,1,,,,,,,,,,,,,,,,,,,,,,,,,,,,,,,,,,,,,,,,,,,,,,,,,,,,,,,,,0.005723200010834262,48.198763299995335,48.198763299995335,48.198763299995335,None,,y,0.14466200000606477,,,,,,,,,,,,,,,,,,,,,,,,,,,,,,,,203764,001,2023-05-26_12h11.41.081,Pilot_online_tryings,2022.2.5,60.08297459195749,
ConjL4_syn.csv,directory_online_conj_L4_syn.csv,Test_Conj_SyncL4.csv,Conj_syncL4_norm.wav,pe,124:128,orange,Online_conjL4_syn//dPE30.222.wav,222.0,,0,0,0,3,0,14,14,26,0,3,3,2,,,,,,,,,,,,,,,,,,,,,,,,,,,,,,,,,,,,,,,,,,,,,,,,,,,,,,,,,0.006388699999661185,48.36569259999669,48.36569259999669,48.36569259999669,None,,y,0.1526857000135351,,,,,,,,,,,,,,,,,,,,,,,,,,,,,,,,203764,001,2023-05-26_12h11.41.081,Pilot_online_tryings,2022.2.5,60.08297459195749,
ConjL4_syn.csv,directory_online_conj_L4_syn.csv,Test_Conj_SyncL4.csv,Conj_syncL4_norm.wav,pe,124:128,orange,,,,0,0,0,3,0,14,14,26,,,,,,,,,,,,,,,,,,,,,,,,,,,,,,,,,,,,,,,,,,,,,,,,,,,,,,,,,,,,,,,,,,,,,,,,,,,,,,,,,,,,,,,,,,,,,,,,,,,,203764,001,2023-05-26_12h11.41.081,Pilot_online_tryings,2022.2.5,60.08297459195749,
ConjL4_syn.csv,directory_online_conj_L4_syn.csv,Test_Conj_SyncL4.csv,Conj_syncL4_norm.wav,ja,32:36,blue,Online_conjL4_syn//bJA1.none.wav,none,,0,0,0,3,0,15,15,17,0,0,0,1,,,,,,,,,,,,,,,,,,,,,,,,,,,,,,,,,,,,,,,,,,,,,,,,,,,,,,,48.55900159999146,48.55900159999146,0.015278600010788068,48.55900159999146,48.55900159999146,48.55900159999146,None,,y,0.1521424999955343,,,,,,,,,,,,,,,,,,,,,,,,,,,,,,,,203764,001,2023-05-26_12h11.41.081,Pilot_online_tryings,2022.2.5,60.08297459195749,
ConjL4_syn.csv,directory_online_conj_L4_syn.csv,Test_Conj_SyncL4.csv,Conj_syncL4_norm.wav,ja,32:36,blue,Online_conjL4_syn//bJA3.none.wav,none,,0,0,0,3,0,15,15,17,0,1,1,3,,,,,,,,,,,,,,,,,,,,,,,,,,,,,,,,,,,,,,,,,,,,,,,,,,,,,,,,,0.006003799993777648,48.73255600000266,48.73255600000266,48.73255600000266,None,,y,0.12323139999352861,,,,,,,,,,,,,,,,,,,,,,,,,,,,,,,,203764,001,2023-05-26_12h11.41.081,Pilot_online_tryings,2022.2.5,60.08297459195749,
ConjL4_syn.csv,directory_online_conj_L4_syn.csv,Test_Conj_SyncL4.csv,Conj_syncL4_norm.wav,ja,32:36,blue,Online_conjL4_syn//bJA2.666.wav,666.0,,0,0,0,3,0,15,15,17,0,2,2,2,,,,,,,,,,,,,,,,,,,,,,,,,,,,,,,,,,,,,,,,,,,,,,,,,,,,,,,,,0.0059674000076483935,48.88286279999011,48.88286279999011,48.88286279999011,None,,y,0.14747960001113825,,,,,,,,,,,,,,,,,,,,,,,,,,,,,,,,203764,001,2023-05-26_12h11.41.081,Pilot_online_tryings,2022.2.5,60.08297459195749,
ConjL4_syn.csv,directory_online_conj_L4_syn.csv,Test_Conj_SyncL4.csv,Conj_syncL4_norm.wav,ja,32:36,blue,Online_conjL4_syn//bJA0.none.wav,none,,0,0,0,3,0,15,15,17,0,3,3,0,,,,,,,,,,,,,,,,,,,,,,,,,,,,,,,,,,,,,,,,,,,,,,,,,,,,,,,,,0.005078100002720021,49.04959229999804,49.04959229999804,49.04959229999804,None,,y,0.15713870000035968,,,,,,,,,,,,,,,,,,,,,,,,,,,,,,,,203764,001,2023-05-26_12h11.41.081,Pilot_online_tryings,2022.2.5,60.08297459195749,
ConjL4_syn.csv,directory_online_conj_L4_syn.csv,Test_Conj_SyncL4.csv,Conj_syncL4_norm.wav,ja,32:36,blue,,,,0,0,0,3,0,15,15,17,,,,,,,,,,,,,,,,,,,,,,,,,,,,,,,,,,,,,,,,,,,,,,,,,,,,,,,,,,,,,,,,,,,,,,,,,,,,,,,,,,,,,,,,,,,,,,,,,,,,203764,001,2023-05-26_12h11.41.081,Pilot_online_tryings,2022.2.5,60.08297459195749,
ConjL4_syn.csv,directory_online_conj_L4_syn.csv,Test_Conj_SyncL4.csv,Conj_syncL4_norm.wav,lo,24:28,red,Online_conjL4_syn//aLO24.666.wav,666.0,,0,0,0,3,0,16,16,29,0,0,0,0,,,,,,,,,,,,,,,,,,,,,,,,,,,,,,,,,,,,,,,,,,,,,,,,,,,,,,,49.25469289999455,49.25469289999455,0.022739799998817034,49.25469289999455,49.25469289999455,49.25469289999455,None,,y,0.16092710000521038,,,,,,,,,,,,,,,,,,,,,,,,,,,,,,,,203764,001,2023-05-26_12h11.41.081,Pilot_online_tryings,2022.2.5,60.08297459195749,
ConjL4_syn.csv,directory_online_conj_L4_syn.csv,Test_Conj_SyncL4.csv,Conj_syncL4_norm.wav,lo,24:28,red,Online_conjL4_syn//aLO25.none.wav,none,,0,0,0,3,0,16,16,29,0,1,1,1,,,,,,,,,,,,,,,,,,,,,,,,,,,,,,,,,,,,,,,,,,,,,,,,,,,,,,,,,0.007492499993531965,49.433304399994086,49.433304399994086,49.433304399994086,None,,y,0.14206040000135545,,,,,,,,,,,,,,,,,,,,,,,,,,,,,,,,203764,001,2023-05-26_12h11.41.081,Pilot_online_tryings,2022.2.5,60.08297459195749,
ConjL4_syn.csv,directory_online_conj_L4_syn.csv,Test_Conj_SyncL4.csv,Conj_syncL4_norm.wav,lo,24:28,red,Online_conjL4_syn//aLO27.666.wav,666.0,,0,0,0,3,0,16,16,29,0,2,2,3,,,,,,,,,,,,,,,,,,,,,,,,,,,,,,,,,,,,,,,,,,,,,,,,,,,,,,,,,0.0062572000024374574,49.60014589999628,49.60014589999628,49.60014589999628,None,,y,0.15154290001373738,,,,,,,,,,,,,,,,,,,,,,,,,,,,,,,,203764,001,2023-05-26_12h11.41.081,Pilot_online_tryings,2022.2.5,60.08297459195749,
ConjL4_syn.csv,directory_online_conj_L4_syn.csv,Test_Conj_SyncL4.csv,Conj_syncL4_norm.wav,lo,24:28,red,Online_conjL4_syn//aLO26.666.wav,666.0,,0,0,0,3,0,16,16,29,0,3,3,2,,,,,,,,,,,,,,,,,,,,,,,,,,,,,,,,,,,,,,,,,,,,,,,,,,,,,,,,,0.00475380000716541,49.783626699994784,49.783626699994784,49.783626699994784,None,,y,0.12793140001303982,,,,,,,,,,,,,,,,,,,,,,,,,,,,,,,,203764,001,2023-05-26_12h11.41.081,Pilot_online_tryings,2022.2.5,60.08297459195749,
ConjL4_syn.csv,directory_online_conj_L4_syn.csv,Test_Conj_SyncL4.csv,Conj_syncL4_norm.wav,lo,24:28,red,,,,0,0,0,3,0,16,16,29,,,,,,,,,,,,,,,,,,,,,,,,,,,,,,,,,,,,,,,,,,,,,,,,,,,,,,,,,,,,,,,,,,,,,,,,,,,,,,,,,,,,,,,,,,,,,,,,,,,,203764,001,2023-05-26_12h11.41.081,Pilot_online_tryings,2022.2.5,60.08297459195749,
ConjL4_syn.csv,directory_online_conj_L4_syn.csv,Test_Conj_SyncL4.csv,Conj_syncL4_norm.wav,lo,4:8,red,Online_conjL4_syn//aLO4.666.wav,666.0,,0,0,0,3,0,17,17,1,0,0,0,0,,,,,,,,,,,,,,,,,,,,,,,,,,,,,,,,,,,,,,,,,,,,,,,,,,,,,,,49.93929139999091,49.93929139999091,0.015758599998662248,49.93929139999091,49.93929139999091,49.93929139999091,None,,y,0.11650679999729618,,,,,,,,,,,,,,,,,,,,,,,,,,,,,,,,203764,001,2023-05-26_12h11.41.081,Pilot_online_tryings,2022.2.5,60.08297459195749,
ConjL4_syn.csv,directory_online_conj_L4_syn.csv,Test_Conj_SyncL4.csv,Conj_syncL4_norm.wav,lo,4:8,red,Online_conjL4_syn//aLO6.none.wav,none,,0,0,0,3,0,17,17,1,0,1,1,2,,,,,,,,,,,,,,,,,,,,,,,,,,,,,,,,,,,,,,,,,,,,,,,,,,,,,,,,,0.02228399999148678,50.095166099999915,50.095166099999915,50.095166099999915,None,,y,0.11978590000944678,,,,,,,,,,,,,,,,,,,,,,,,,,,,,,,,203764,001,2023-05-26_12h11.41.081,Pilot_online_tryings,2022.2.5,60.08297459195749,
ConjL4_syn.csv,directory_online_conj_L4_syn.csv,Test_Conj_SyncL4.csv,Conj_syncL4_norm.wav,lo,4:8,red,Online_conjL4_syn//aLO5.666.wav,666.0,,0,0,0,3,0,17,17,1,0,2,2,1,,,,,,,,,,,,,,,,,,,,,,,,,,,,,,,,,,,,,,,,,,,,,,,,,,,,,,,,,0.006082599997171201,50.234047799996915,50.234047799996915,50.234047799996915,None,,y,0.1405473000049824,,,,,,,,,,,,,,,,,,,,,,,,,,,,,,,,203764,001,2023-05-26_12h11.41.081,Pilot_online_tryings,2022.2.5,60.08297459195749,
ConjL4_syn.csv,directory_online_conj_L4_syn.csv,Test_Conj_SyncL4.csv,Conj_syncL4_norm.wav,lo,4:8,red,Online_conjL4_syn//aLO7.1554.wav,1554.0,,0,0,0,3,0,17,17,1,0,3,3,3,,,,,,,,,,,,,,,,,,,,,,,,,,,,,,,,,,,,,,,,,,,,,,,,,,,,,,,,,0.014370499993674457,50.40448019999894,50.40448019999894,50.40448019999894,None,,y,0.11378539999714121,,,,,,,,,,,,,,,,,,,,,,,,,,,,,,,,203764,001,2023-05-26_12h11.41.081,Pilot_online_tryings,2022.2.5,60.08297459195749,
ConjL4_syn.csv,directory_online_conj_L4_syn.csv,Test_Conj_SyncL4.csv,Conj_syncL4_norm.wav,lo,4:8,red,,,,0,0,0,3,0,17,17,1,,,,,,,,,,,,,,,,,,,,,,,,,,,,,,,,,,,,,,,,,,,,,,,,,,,,,,,,,,,,,,,,,,,,,,,,,,,,,,,,,,,,,,,,,,,,,,,,,,,,203764,001,2023-05-26_12h11.41.081,Pilot_online_tryings,2022.2.5,60.08297459195749,
ConjL4_syn.csv,directory_online_conj_L4_syn.csv,Test_Conj_SyncL4.csv,Conj_syncL4_norm.wav,bu,64:68,green,Online_conjL4_syn//cBU3.444.wav,444.0,,0,0,0,3,0,18,18,28,0,0,0,3,,,,,,,,,,,,,,,,,,,,,,,,,,,,,,,,,,,,,,,,,,,,,,,,,,,,,,,50.54512429999886,50.54512429999886,0.016303099997458048,50.54512429999886,50.54512429999886,50.54512429999886,None,,y,0.11853180000616703,,,,,,,,,,,,,,,,,,,,,,,,,,,,,,,,203764,001,2023-05-26_12h11.41.081,Pilot_online_tryings,2022.2.5,60.08297459195749,
ConjL4_syn.csv,directory_online_conj_L4_syn.csv,Test_Conj_SyncL4.csv,Conj_syncL4_norm.wav,bu,64:68,green,Online_conjL4_syn//cBU1.none.wav,none,,0,0,0,3,0,18,18,28,0,1,1,1,,,,,,,,,,,,,,,,,,,,,,,,,,,,,,,,,,,,,,,,,,,,,,,,,,,,,,,,,0.019617900004959665,50.69327180000255,50.69327180000255,50.69327180000255,None,,y,0.11430950000067241,,,,,,,,,,,,,,,,,,,,,,,,,,,,,,,,203764,001,2023-05-26_12h11.41.081,Pilot_online_tryings,2022.2.5,60.08297459195749,
ConjL4_syn.csv,directory_online_conj_L4_syn.csv,Test_Conj_SyncL4.csv,Conj_syncL4_norm.wav,bu,64:68,green,Online_conjL4_syn//cBU0.none.wav,none,,0,0,0,3,0,18,18,28,0,2,2,0,,,,,,,,,,,,,,,,,,,,,,,,,,,,,,,,,,,,,,,,,,,,,,,,,,,,,,,,,0.00635830000101123,50.83479979999538,50.83479979999538,50.83479979999538,None,,y,0.14855009999882895,,,,,,,,,,,,,,,,,,,,,,,,,,,,,,,,203764,001,2023-05-26_12h11.41.081,Pilot_online_tryings,2022.2.5,60.08297459195749,
ConjL4_syn.csv,directory_online_conj_L4_syn.csv,Test_Conj_SyncL4.csv,Conj_syncL4_norm.wav,bu,64:68,green,Online_conjL4_syn//cBU2.1554.wav,1554.0,,0,0,0,3,0,18,18,28,0,3,3,2,,,,,,,,,,,,,,,,,,,,,,,,,,,,,,,,,,,,,,,,,,,,,,,,,,,,,,,,,0.012323300004936755,51.003073500003666,51.003073500003666,51.003073500003666,None,,y,0.15526139999565203,,,,,,,,,,,,,,,,,,,,,,,,,,,,,,,,203764,001,2023-05-26_12h11.41.081,Pilot_online_tryings,2022.2.5,60.08297459195749,
ConjL4_syn.csv,directory_online_conj_L4_syn.csv,Test_Conj_SyncL4.csv,Conj_syncL4_norm.wav,bu,64:68,green,,,,0,0,0,3,0,18,18,28,,,,,,,,,,,,,,,,,,,,,,,,,,,,,,,,,,,,,,,,,,,,,,,,,,,,,,,,,,,,,,,,,,,,,,,,,,,,,,,,,,,,,,,,,,,,,,,,,,,,203764,001,2023-05-26_12h11.41.081,Pilot_online_tryings,2022.2.5,60.08297459195749,
ConjL4_syn.csv,directory_online_conj_L4_syn.csv,Test_Conj_SyncL4.csv,Conj_syncL4_norm.wav,ja,56:60,blue,Online_conjL4_syn//bJA24.none.wav,none,,0,0,0,3,0,19,19,18,0,0,0,0,,,,,,,,,,,,,,,,,,,,,,,,,,,,,,,,,,,,,,,,,,,,,,,,,,,,,,,51.1937168000004,51.1937168000004,0.014683200002764352,51.1937168000004,51.1937168000004,51.1937168000004,None,,y,0.14082240000425372,,,,,,,,,,,,,,,,,,,,,,,,,,,,,,,,203764,001,2023-05-26_12h11.41.081,Pilot_online_tryings,2022.2.5,60.08297459195749,
ConjL4_syn.csv,directory_online_conj_L4_syn.csv,Test_Conj_SyncL4.csv,Conj_syncL4_norm.wav,ja,56:60,blue,Online_conjL4_syn//bJA27.none.wav,none,,0,0,0,3,0,19,19,18,0,1,1,3,,,,,,,,,,,,,,,,,,,,,,,,,,,,,,,,,,,,,,,,,,,,,,,,,,,,,,,,,0.006223799995495938,51.35198890000174,51.35198890000174,51.35198890000174,None,,y,0.15959090000251308,,,,,,,,,,,,,,,,,,,,,,,,,,,,,,,,203764,001,2023-05-26_12h11.41.081,Pilot_online_tryings,2022.2.5,60.08297459195749,
ConjL4_syn.csv,directory_online_conj_L4_syn.csv,Test_Conj_SyncL4.csv,Conj_syncL4_norm.wav,ja,56:60,blue,Online_conjL4_syn//bJA26.none.wav,none,,0,0,0,3,0,19,19,18,0,2,2,2,,,,,,,,,,,,,,,,,,,,,,,,,,,,,,,,,,,,,,,,,,,,,,,,,,,,,,,,,0.006060300001990981,51.53555069999129,51.53555069999129,51.53555069999129,None,,y,0.15124500000092667,,,,,,,,,,,,,,,,,,,,,,,,,,,,,,,,203764,001,2023-05-26_12h11.41.081,Pilot_online_tryings,2022.2.5,60.08297459195749,
ConjL4_syn.csv,directory_online_conj_L4_syn.csv,Test_Conj_SyncL4.csv,Conj_syncL4_norm.wav,ja,56:60,blue,Online_conjL4_syn//bJA25.666.wav,666.0,,0,0,0,3,0,19,19,18,0,3,3,1,,,,,,,,,,,,,,,,,,,,,,,,,,,,,,,,,,,,,,,,,,,,,,,,,,,,,,,,,0.007295899995369837,51.719054200002574,51.719054200002574,51.719054200002574,None,,y,0.1432686000043759,,,,,,,,,,,,,,,,,,,,,,,,,,,,,,,,203764,001,2023-05-26_12h11.41.081,Pilot_online_tryings,2022.2.5,60.08297459195749,
ConjL4_syn.csv,directory_online_conj_L4_syn.csv,Test_Conj_SyncL4.csv,Conj_syncL4_norm.wav,ja,56:60,blue,,,,0,0,0,3,0,19,19,18,,,,,,,,,,,,,,,,,,,,,,,,,,,,,,,,,,,,,,,,,,,,,,,,,,,,,,,,,,,,,,,,,,,,,,,,,,,,,,,,,,,,,,,,,,,,,,,,,,,,203764,001,2023-05-26_12h11.41.081,Pilot_online_tryings,2022.2.5,60.08297459195749,
ConjL4_syn.csv,directory_online_conj_L4_syn.csv,Test_Conj_SyncL4.csv,Conj_syncL4_norm.wav,bu,76:80,green,Online_conjL4_syn//cBU15.none.wav,none,,0,0,0,3,0,20,20,21,0,0,0,3,,,,,,,,,,,,,,,,,,,,,,,,,,,,,,,,,,,,,,,,,,,,,,,,,,,,,,,51.90027299999201,51.90027299999201,0.020617000001948327,51.90027299999201,51.90027299999201,51.90027299999201,None,,y,0.1392117000068538,,,,,,,,,,,,,,,,,,,,,,,,,,,,,,,,203764,001,2023-05-26_12h11.41.081,Pilot_online_tryings,2022.2.5,60.08297459195749,
ConjL4_syn.csv,directory_online_conj_L4_syn.csv,Test_Conj_SyncL4.csv,Conj_syncL4_norm.wav,bu,76:80,green,Online_conjL4_syn//cBU12.none.wav,none,,0,0,0,3,0,20,20,21,0,1,1,0,,,,,,,,,,,,,,,,,,,,,,,,,,,,,,,,,,,,,,,,,,,,,,,,,,,,,,,,,0.0249716999969678,52.08364359999541,52.08364359999541,52.08364359999541,None,,y,0.11471900000469759,,,,,,,,,,,,,,,,,,,,,,,,,,,,,,,,203764,001,2023-05-26_12h11.41.081,Pilot_online_tryings,2022.2.5,60.08297459195749,
ConjL4_syn.csv,directory_online_conj_L4_syn.csv,Test_Conj_SyncL4.csv,Conj_syncL4_norm.wav,bu,76:80,green,Online_conjL4_syn//cBU13.222.wav,222.0,,0,0,0,3,0,20,20,21,0,2,2,1,,,,,,,,,,,,,,,,,,,,,,,,,,,,,,,,,,,,,,,,,,,,,,,,,,,,,,,,,0.005903899989789352,52.219244099993375,52.219244099993375,52.219244099993375,None,,y,0.2995886000135215,,,,,,,,,,,,,,,,,,,,,,,,,,,,,,,,203764,001,2023-05-26_12h11.41.081,Pilot_online_tryings,2022.2.5,60.08297459195749,
ConjL4_syn.csv,directory_online_conj_L4_syn.csv,Test_Conj_SyncL4.csv,Conj_syncL4_norm.wav,bu,76:80,green,Online_conjL4_syn//cBU14.none.wav,none,,0,0,0,3,0,20,20,21,0,3,3,2,,,,,,,,,,,,,,,,,,,,,,,,,,,,,,,,,,,,,,,,,,,,,,,,,,,,,,,,,0.007501999993110076,52.53651369998988,52.53651369998988,52.53651369998988,None,,y,0.18989439999859314,,,,,,,,,,,,,,,,,,,,,,,,,,,,,,,,203764,001,2023-05-26_12h11.41.081,Pilot_online_tryings,2022.2.5,60.08297459195749,
ConjL4_syn.csv,directory_online_conj_L4_syn.csv,Test_Conj_SyncL4.csv,Conj_syncL4_norm.wav,bu,76:80,green,,,,0,0,0,3,0,20,20,21,,,,,,,,,,,,,,,,,,,,,,,,,,,,,,,,,,,,,,,,,,,,,,,,,,,,,,,,,,,,,,,,,,,,,,,,,,,,,,,,,,,,,,,,,,,,,,,,,,,,203764,001,2023-05-26_12h11.41.081,Pilot_online_tryings,2022.2.5,60.08297459195749,
ConjL4_syn.csv,directory_online_conj_L4_syn.csv,Test_Conj_SyncL4.csv,Conj_syncL4_norm.wav,bu,92:96,green,Online_conjL4_syn//cBU30.1554.wav,1554.0,,0,0,0,3,0,21,21,22,0,0,0,2,,,,,,,,,,,,,,,,,,,,,,,,,,,,,,,,,,,,,,,,,,,,,,,,,,,,,,,52.75692509999499,52.75692509999499,0.013543199995183386,52.75692509999499,52.75692509999499,52.75692509999499,None,,y,0.16212850000010803,,,,,,,,,,,,,,,,,,,,,,,,,,,,,,,,203764,001,2023-05-26_12h11.41.081,Pilot_online_tryings,2022.2.5,60.08297459195749,
ConjL4_syn.csv,directory_online_conj_L4_syn.csv,Test_Conj_SyncL4.csv,Conj_syncL4_norm.wav,bu,92:96,green,Online_conjL4_syn//cBU28.none.wav,none,,0,0,0,3,0,21,21,22,0,1,1,0,,,,,,,,,,,,,,,,,,,,,,,,,,,,,,,,,,,,,,,,,,,,,,,,,,,,,,,,,0.005985099996905774,52.93688130000373,52.93688130000373,52.93688130000373,None,,y,0.15864069999952335,,,,,,,,,,,,,,,,,,,,,,,,,,,,,,,,203764,001,2023-05-26_12h11.41.081,Pilot_online_tryings,2022.2.5,60.08297459195749,
ConjL4_syn.csv,directory_online_conj_L4_syn.csv,Test_Conj_SyncL4.csv,Conj_syncL4_norm.wav,bu,92:96,green,Online_conjL4_syn//cBU31.0.wav,0.0,,0,0,0,3,0,21,21,22,0,2,2,3,,,,,,,,,,,,,,,,,,,,,,,,,,,,,,,,,,,,,,,,,,,,,,,,,,,,,,,,,0.007680599999730475,53.120337300002575,53.120337300002575,53.120337300002575,None,,y,0.11826780000410508,,,,,,,,,,,,,,,,,,,,,,,,,,,,,,,,203764,001,2023-05-26_12h11.41.081,Pilot_online_tryings,2022.2.5,60.08297459195749,
ConjL4_syn.csv,directory_online_conj_L4_syn.csv,Test_Conj_SyncL4.csv,Conj_syncL4_norm.wav,bu,92:96,green,Online_conjL4_syn//cBU29.none.wav,none,,0,0,0,3,0,21,21,22,0,3,3,1,,,,,,,,,,,,,,,,,,,,,,,,,,,,,,,,,,,,,,,,,,,,,,,,,,,,,,,,,0.005613300003460608,53.27052659999754,53.27052659999754,53.27052659999754,None,,y,0.1436013000056846,,,,,,,,,,,,,,,,,,,,,,,,,,,,,,,,203764,001,2023-05-26_12h11.41.081,Pilot_online_tryings,2022.2.5,60.08297459195749,
ConjL4_syn.csv,directory_online_conj_L4_syn.csv,Test_Conj_SyncL4.csv,Conj_syncL4_norm.wav,bu,92:96,green,,,,0,0,0,3,0,21,21,22,,,,,,,,,,,,,,,,,,,,,,,,,,,,,,,,,,,,,,,,,,,,,,,,,,,,,,,,,,,,,,,,,,,,,,,,,,,,,,,,,,,,,,,,,,,,,,,,,,,,203764,001,2023-05-26_12h11.41.081,Pilot_online_tryings,2022.2.5,60.08297459195749,
ConjL4_syn.csv,directory_online_conj_L4_syn.csv,Test_Conj_SyncL4.csv,Conj_syncL4_norm.wav,pe,96:100,orange,Online_conjL4_syn//dPE3.1110.wav,1110.0,,0,0,0,3,0,22,22,23,0,0,0,3,,,,,,,,,,,,,,,,,,,,,,,,,,,,,,,,,,,,,,,,,,,,,,,,,,,,,,,53.44567479999387,53.44567479999387,0.01501970000390429,53.44567479999387,53.44567479999387,53.44567479999387,None,,y,0.11243260001356248,,,,,,,,,,,,,,,,,,,,,,,,,,,,,,,,203764,001,2023-05-26_12h11.41.081,Pilot_online_tryings,2022.2.5,60.08297459195749,
ConjL4_syn.csv,directory_online_conj_L4_syn.csv,Test_Conj_SyncL4.csv,Conj_syncL4_norm.wav,pe,96:100,orange,Online_conjL4_syn//dPE0.1332.wav,1332.0,,0,0,0,3,0,22,22,23,0,1,1,0,,,,,,,,,,,,,,,,,,,,,,,,,,,,,,,,,,,,,,,,,,,,,,,,,,,,,,,,,0.011089599996921606,53.58794689999195,53.58794689999195,53.58794689999195,None,,y,0.16407369999797083,,,,,,,,,,,,,,,,,,,,,,,,,,,,,,,,203764,001,2023-05-26_12h11.41.081,Pilot_online_tryings,2022.2.5,60.08297459195749,
ConjL4_syn.csv,directory_online_conj_L4_syn.csv,Test_Conj_SyncL4.csv,Conj_syncL4_norm.wav,pe,96:100,orange,Online_conjL4_syn//dPE2.444.wav,444.0,,0,0,0,3,0,22,22,23,0,2,2,2,,,,,,,,,,,,,,,,,,,,,,,,,,,,,,,,,,,,,,,,,,,,,,,,,,,,,,,,,0.009394099994096905,53.77098259999184,53.77098259999184,53.77098259999184,None,,y,0.124339100002544,,,,,,,,,,,,,,,,,,,,,,,,,,,,,,,,203764,001,2023-05-26_12h11.41.081,Pilot_online_tryings,2022.2.5,60.08297459195749,
ConjL4_syn.csv,directory_online_conj_L4_syn.csv,Test_Conj_SyncL4.csv,Conj_syncL4_norm.wav,pe,96:100,orange,Online_conjL4_syn//dPE1.0.wav,0.0,,0,0,0,3,0,22,22,23,0,3,3,1,,,,,,,,,,,,,,,,,,,,,,,,,,,,,,,,,,,,,,,,,,,,,,,,,,,,,,,,,0.010244700009934604,53.9211701000022,53.9211701000022,53.9211701000022,None,,y,0.13488969999889378,,,,,,,,,,,,,,,,,,,,,,,,,,,,,,,,203764,001,2023-05-26_12h11.41.081,Pilot_online_tryings,2022.2.5,60.08297459195749,
ConjL4_syn.csv,directory_online_conj_L4_syn.csv,Test_Conj_SyncL4.csv,Conj_syncL4_norm.wav,pe,96:100,orange,,,,0,0,0,3,0,22,22,23,,,,,,,,,,,,,,,,,,,,,,,,,,,,,,,,,,,,,,,,,,,,,,,,,,,,,,,,,,,,,,,,,,,,,,,,,,,,,,,,,,,,,,,,,,,,,,,,,,,,203764,001,2023-05-26_12h11.41.081,Pilot_online_tryings,2022.2.5,60.08297459195749,
ConjL4_syn.csv,directory_online_conj_L4_syn.csv,Test_Conj_SyncL4.csv,Conj_syncL4_norm.wav,lo,0:4,red,Online_conjL4_syn//aLO3.none.wav,none,,0,0,0,3,0,23,23,27,0,0,0,3,,,,,,,,,,,,,,,,,,,,,,,,,,,,,,,,,,,,,,,,,,,,,,,,,,,,,,,54.098442999995314,54.098442999995314,0.01467679999768734,54.098442999995314,54.098442999995314,54.098442999995314,None,,y,0.116289899990079,,,,,,,,,,,,,,,,,,,,,,,,,,,,,,,,203764,001,2023-05-26_12h11.41.081,Pilot_online_tryings,2022.2.5,60.08297459195749,
ConjL4_syn.csv,directory_online_conj_L4_syn.csv,Test_Conj_SyncL4.csv,Conj_syncL4_norm.wav,lo,0:4,red,Online_conjL4_syn//aLO1.none.wav,none,,0,0,0,3,0,23,23,27,0,1,1,1,,,,,,,,,,,,,,,,,,,,,,,,,,,,,,,,,,,,,,,,,,,,,,,,,,,,,,,,,0.01161139999749139,54.23967670000275,54.23967670000275,54.23967670000275,None,,y,0.15189579999423586,,,,,,,,,,,,,,,,,,,,,,,,,,,,,,,,203764,001,2023-05-26_12h11.41.081,Pilot_online_tryings,2022.2.5,60.08297459195749,
ConjL4_syn.csv,directory_online_conj_L4_syn.csv,Test_Conj_SyncL4.csv,Conj_syncL4_norm.wav,lo,0:4,red,Online_conjL4_syn//aLO2.none.wav,none,,0,0,0,3,0,23,23,27,0,2,2,2,,,,,,,,,,,,,,,,,,,,,,,,,,,,,,,,,,,,,,,,,,,,,,,,,,,,,,,,,0.006733300004270859,54.4217054000037,54.4217054000037,54.4217054000037,None,,y,0.1605797999945935,,,,,,,,,,,,,,,,,,,,,,,,,,,,,,,,203764,001,2023-05-26_12h11.41.081,Pilot_online_tryings,2022.2.5,60.08297459195749,
ConjL4_syn.csv,directory_online_conj_L4_syn.csv,Test_Conj_SyncL4.csv,Conj_syncL4_norm.wav,lo,0:4,red,Online_conjL4_syn//aLO0.none.wav,none,,0,0,0,3,0,23,23,27,0,3,3,0,,,,,,,,,,,,,,,,,,,,,,,,,,,,,,,,,,,,,,,,,,,,,,,,,,,,,,,,,0.018889500002842396,54.613248299996485,54.613248299996485,54.613248299996485,None,,y,0.12906929999007843,,,,,,,,,,,,,,,,,,,,,,,,,,,,,,,,203764,001,2023-05-26_12h11.41.081,Pilot_online_tryings,2022.2.5,60.08297459195749,
ConjL4_syn.csv,directory_online_conj_L4_syn.csv,Test_Conj_SyncL4.csv,Conj_syncL4_norm.wav,lo,0:4,red,,,,0,0,0,3,0,23,23,27,,,,,,,,,,,,,,,,,,,,,,,,,,,,,,,,,,,,,,,,,,,,,,,,,,,,,,,,,,,,,,,,,,,,,,,,,,,,,,,,,,,,,,,,,,,,,,,,,,,,203764,001,2023-05-26_12h11.41.081,Pilot_online_tryings,2022.2.5,60.08297459195749,
ConjL4_syn.csv,directory_online_conj_L4_syn.csv,Test_Conj_SyncL4.csv,Conj_syncL4_norm.wav,lo,28:32,red,Online_conjL4_syn//aLO29.none.wav,none,,0,0,0,3,0,24,24,9,0,0,0,1,,,,,,,,,,,,,,,,,,,,,,,,,,,,,,,,,,,,,,,,,,,,,,,,,,,,,,,54.77579679999326,54.77579679999326,0.014288300008047372,54.77579679999326,54.77579679999326,54.77579679999326,None,,y,0.3197366999957012,,,,,,,,,,,,,,,,,,,,,,,,,,,,,,,,203764,001,2023-05-26_12h11.41.081,Pilot_online_tryings,2022.2.5,60.08297459195749,
ConjL4_syn.csv,directory_online_conj_L4_syn.csv,Test_Conj_SyncL4.csv,Conj_syncL4_norm.wav,lo,28:32,red,Online_conjL4_syn//aLO28.1554.wav,1554.0,,0,0,0,3,0,24,24,9,0,1,1,0,,,,,,,,,,,,,,,,,,,,,,,,,,,,,,,,,,,,,,,,,,,,,,,,,,,,,,,,,0.006226700003026053,55.12239750000299,55.12239750000299,55.12239750000299,None,,y,0.18145689999801107,,,,,,,,,,,,,,,,,,,,,,,,,,,,,,,,203764,001,2023-05-26_12h11.41.081,Pilot_online_tryings,2022.2.5,60.08297459195749,
ConjL4_syn.csv,directory_online_conj_L4_syn.csv,Test_Conj_SyncL4.csv,Conj_syncL4_norm.wav,lo,28:32,red,Online_conjL4_syn//aLO30.none.wav,none,,0,0,0,3,0,24,24,9,0,2,2,2,,,,,,,,,,,,,,,,,,,,,,,,,,,,,,,,,,,,,,,,,,,,,,,,,,,,,,,,,0.006035500002326444,55.322417100003804,55.322417100003804,55.322417100003804,None,,y,0.1558281000034185,,,,,,,,,,,,,,,,,,,,,,,,,,,,,,,,203764,001,2023-05-26_12h11.41.081,Pilot_online_tryings,2022.2.5,60.08297459195749,
ConjL4_syn.csv,directory_online_conj_L4_syn.csv,Test_Conj_SyncL4.csv,Conj_syncL4_norm.wav,lo,28:32,red,Online_conjL4_syn//aLO31.none.wav,none,,0,0,0,3,0,24,24,9,0,3,3,3,,,,,,,,,,,,,,,,,,,,,,,,,,,,,,,,,,,,,,,,,,,,,,,,,,,,,,,,,0.005642099989927374,55.506135299991,55.506135299991,55.506135299991,None,,y,0.1978656000137562,,,,,,,,,,,,,,,,,,,,,,,,,,,,,,,,203764,001,2023-05-26_12h11.41.081,Pilot_online_tryings,2022.2.5,60.08297459195749,
ConjL4_syn.csv,directory_online_conj_L4_syn.csv,Test_Conj_SyncL4.csv,Conj_syncL4_norm.wav,lo,28:32,red,,,,0,0,0,3,0,24,24,9,,,,,,,,,,,,,,,,,,,,,,,,,,,,,,,,,,,,,,,,,,,,,,,,,,,,,,,,,,,,,,,,,,,,,,,,,,,,,,,,,,,,,,,,,,,,,,,,,,,,203764,001,2023-05-26_12h11.41.081,Pilot_online_tryings,2022.2.5,60.08297459195749,
ConjL4_syn.csv,directory_online_conj_L4_syn.csv,Test_Conj_SyncL4.csv,Conj_syncL4_norm.wav,ja,36:40,blue,Online_conjL4_syn//bJA7.0.wav,0.0,,0,0,0,3,0,25,25,14,0,0,0,3,,,,,,,,,,,,,,,,,,,,,,,,,,,,,,,,,,,,,,,,,,,,,,,,,,,,,,,55.731414900001255,55.731414900001255,0.014445200009504333,55.731414900001255,55.731414900001255,55.731414900001255,None,,y,0.14826830000674818,,,,,,,,,,,,,,,,,,,,,,,,,,,,,,,,203764,001,2023-05-26_12h11.41.081,Pilot_online_tryings,2022.2.5,60.08297459195749,
ConjL4_syn.csv,directory_online_conj_L4_syn.csv,Test_Conj_SyncL4.csv,Conj_syncL4_norm.wav,ja,36:40,blue,Online_conjL4_syn//bJA4.0.wav,0.0,,0,0,0,3,0,25,25,14,0,1,1,0,,,,,,,,,,,,,,,,,,,,,,,,,,,,,,,,,,,,,,,,,,,,,,,,,,,,,,,,,0.007701800001086667,55.906411399992066,55.906411399992066,55.906411399992066,None,,y,0.1491257999878144,,,,,,,,,,,,,,,,,,,,,,,,,,,,,,,,203764,001,2023-05-26_12h11.41.081,Pilot_online_tryings,2022.2.5,60.08297459195749,
ConjL4_syn.csv,directory_online_conj_L4_syn.csv,Test_Conj_SyncL4.csv,Conj_syncL4_norm.wav,ja,36:40,blue,Online_conjL4_syn//bJA5.0.wav,0.0,,0,0,0,3,0,25,25,14,0,2,2,1,,,,,,,,,,,,,,,,,,,,,,,,,,,,,,,,,,,,,,,,,,,,,,,,,,,,,,,,,0.013949000000138767,56.07638179999776,56.07638179999776,56.07638179999776,None,,y,0.1557016000006115,,,,,,,,,,,,,,,,,,,,,,,,,,,,,,,,203764,001,2023-05-26_12h11.41.081,Pilot_online_tryings,2022.2.5,60.08297459195749,
ConjL4_syn.csv,directory_online_conj_L4_syn.csv,Test_Conj_SyncL4.csv,Conj_syncL4_norm.wav,ja,36:40,blue,Online_conjL4_syn//bJA6.none.wav,none,,0,0,0,3,0,25,25,14,0,3,3,2,,,,,,,,,,,,,,,,,,,,,,,,,,,,,,,,,,,,,,,,,,,,,,,,,,,,,,,,,0.006143200007500127,56.25674739999522,56.25674739999522,56.25674739999522,None,,y,0.1661956000025384,,,,,,,,,,,,,,,,,,,,,,,,,,,,,,,,203764,001,2023-05-26_12h11.41.081,Pilot_online_tryings,2022.2.5,60.08297459195749,
ConjL4_syn.csv,directory_online_conj_L4_syn.csv,Test_Conj_SyncL4.csv,Conj_syncL4_norm.wav,ja,36:40,blue,,,,0,0,0,3,0,25,25,14,,,,,,,,,,,,,,,,,,,,,,,,,,,,,,,,,,,,,,,,,,,,,,,,,,,,,,,,,,,,,,,,,,,,,,,,,,,,,,,,,,,,,,,,,,,,,,,,,,,,203764,001,2023-05-26_12h11.41.081,Pilot_online_tryings,2022.2.5,60.08297459195749,
ConjL4_syn.csv,directory_online_conj_L4_syn.csv,Test_Conj_SyncL4.csv,Conj_syncL4_norm.wav,ja,48:52,blue,Online_conjL4_syn//bJA17.666.wav,666.0,,0,0,0,3,0,26,26,24,0,0,0,1,,,,,,,,,,,,,,,,,,,,,,,,,,,,,,,,,,,,,,,,,,,,,,,,,,,,,,,56.44423850000021,56.44423850000021,0.014306500001112,56.44423850000021,56.44423850000021,56.44423850000021,None,,y,0.17134549999900628,,,,,,,,,,,,,,,,,,,,,,,,,,,,,,,,203764,001,2023-05-26_12h11.41.081,Pilot_online_tryings,2022.2.5,60.08297459195749,
ConjL4_syn.csv,directory_online_conj_L4_syn.csv,Test_Conj_SyncL4.csv,Conj_syncL4_norm.wav,ja,48:52,blue,Online_conjL4_syn//bJA19.666.wav,666.0,,0,0,0,3,0,26,26,24,0,1,1,3,,,,,,,,,,,,,,,,,,,,,,,,,,,,,,,,,,,,,,,,,,,,,,,,,,,,,,,,,0.007692200000747107,56.64058730000397,56.64058730000397,56.64058730000397,None,,y,0.13439700000162702,,,,,,,,,,,,,,,,,,,,,,,,,,,,,,,,203764,001,2023-05-26_12h11.41.081,Pilot_online_tryings,2022.2.5,60.08297459195749,
ConjL4_syn.csv,directory_online_conj_L4_syn.csv,Test_Conj_SyncL4.csv,Conj_syncL4_norm.wav,ja,48:52,blue,Online_conjL4_syn//bJA18.0.wav,0.0,,0,0,0,3,0,26,26,24,0,2,2,2,,,,,,,,,,,,,,,,,,,,,,,,,,,,,,,,,,,,,,,,,,,,,,,,,,,,,,,,,0.006269400008022785,56.80734879999363,56.80734879999363,56.80734879999363,None,,y,0.1447790999955032,,,,,,,,,,,,,,,,,,,,,,,,,,,,,,,,203764,001,2023-05-26_12h11.41.081,Pilot_online_tryings,2022.2.5,60.08297459195749,
ConjL4_syn.csv,directory_online_conj_L4_syn.csv,Test_Conj_SyncL4.csv,Conj_syncL4_norm.wav,ja,48:52,blue,Online_conjL4_syn//bJA16.0.wav,0.0,,0,0,0,3,0,26,26,24,0,3,3,0,,,,,,,,,,,,,,,,,,,,,,,,,,,,,,,,,,,,,,,,,,,,,,,,,,,,,,,,,0.006271600010222755,56.97418849999667,56.97418849999667,56.97418849999667,None,,y,0.12005430000135675,,,,,,,,,,,,,,,,,,,,,,,,,,,,,,,,203764,001,2023-05-26_12h11.41.081,Pilot_online_tryings,2022.2.5,60.08297459195749,
ConjL4_syn.csv,directory_online_conj_L4_syn.csv,Test_Conj_SyncL4.csv,Conj_syncL4_norm.wav,ja,48:52,blue,,,,0,0,0,3,0,26,26,24,,,,,,,,,,,,,,,,,,,,,,,,,,,,,,,,,,,,,,,,,,,,,,,,,,,,,,,,,,,,,,,,,,,,,,,,,,,,,,,,,,,,,,,,,,,,,,,,,,,,203764,001,2023-05-26_12h11.41.081,Pilot_online_tryings,2022.2.5,60.08297459195749,
ConjL4_syn.csv,directory_online_conj_L4_syn.csv,Test_Conj_SyncL4.csv,Conj_syncL4_norm.wav,pe,120:124,orange,Online_conjL4_syn//dPE24.none.wav,none,,0,0,0,3,0,27,27,31,0,0,0,0,,,,,,,,,,,,,,,,,,,,,,,,,,,,,,,,,,,,,,,,,,,,,,,,,,,,,,,57.14981049999187,57.14981049999187,0.031758100012666546,57.14981049999187,57.14981049999187,57.14981049999187,None,,y,0.12120519999007229,,,,,,,,,,,,,,,,,,,,,,,,,,,,,,,,203764,001,2023-05-26_12h11.41.081,Pilot_online_tryings,2022.2.5,60.08297459195749,
ConjL4_syn.csv,directory_online_conj_L4_syn.csv,Test_Conj_SyncL4.csv,Conj_syncL4_norm.wav,pe,120:124,orange,Online_conjL4_syn//dPE26.1110.wav,1110.0,,0,0,0,3,0,27,27,31,0,1,1,2,,,,,,,,,,,,,,,,,,,,,,,,,,,,,,,,,,,,,,,,,,,,,,,,,,,,,,,,,0.006588399992324412,57.29120140000305,57.29120140000305,57.29120140000305,None,,y,0.15651590000197757,,,,,,,,,,,,,,,,,,,,,,,,,,,,,,,,203764,001,2023-05-26_12h11.41.081,Pilot_online_tryings,2022.2.5,60.08297459195749,
ConjL4_syn.csv,directory_online_conj_L4_syn.csv,Test_Conj_SyncL4.csv,Conj_syncL4_norm.wav,pe,120:124,orange,Online_conjL4_syn//dPE25.none.wav,none,,0,0,0,3,0,27,27,31,0,2,2,1,,,,,,,,,,,,,,,,,,,,,,,,,,,,,,,,,,,,,,,,,,,,,,,,,,,,,,,,,0.006043600005796179,57.47467959999631,57.47467959999631,57.47467959999631,None,,y,0.14940159999241587,,,,,,,,,,,,,,,,,,,,,,,,,,,,,,,,203764,001,2023-05-26_12h11.41.081,Pilot_online_tryings,2022.2.5,60.08297459195749,
ConjL4_syn.csv,directory_online_conj_L4_syn.csv,Test_Conj_SyncL4.csv,Conj_syncL4_norm.wav,pe,120:124,orange,Online_conjL4_syn//dPE27.none.wav,none,,0,0,0,3,0,27,27,31,0,3,3,3,,,,,,,,,,,,,,,,,,,,,,,,,,,,,,,,,,,,,,,,,,,,,,,,,,,,,,,,,0.005175800004508346,57.64135579999129,57.64135579999129,57.64135579999129,None,,y,0.14269829999830108,,,,,,,,,,,,,,,,,,,,,,,,,,,,,,,,203764,001,2023-05-26_12h11.41.081,Pilot_online_tryings,2022.2.5,60.08297459195749,
ConjL4_syn.csv,directory_online_conj_L4_syn.csv,Test_Conj_SyncL4.csv,Conj_syncL4_norm.wav,pe,120:124,orange,,,,0,0,0,3,0,27,27,31,,,,,,,,,,,,,,,,,,,,,,,,,,,,,,,,,,,,,,,,,,,,,,,,,,,,,,,,,,,,,,,,,,,,,,,,,,,,,,,,,,,,,,,,,,,,,,,,,,,,203764,001,2023-05-26_12h11.41.081,Pilot_online_tryings,2022.2.5,60.08297459195749,
ConjL4_syn.csv,directory_online_conj_L4_syn.csv,Test_Conj_SyncL4.csv,Conj_syncL4_norm.wav,bu,88:92,green,Online_conjL4_syn//cBU24.222.wav,222.0,,0,0,0,3,0,28,28,12,0,0,0,0,,,,,,,,,,,,,,,,,,,,,,,,,,,,,,,,,,,,,,,,,,,,,,,,,,,,,,,57.834461999998894,57.834461999998894,0.031718400001409464,57.834461999998894,57.834461999998894,57.834461999998894,None,,y,0.12407350000285078,,,,,,,,,,,,,,,,,,,,,,,,,,,,,,,,203764,001,2023-05-26_12h11.41.081,Pilot_online_tryings,2022.2.5,60.08297459195749,
ConjL4_syn.csv,directory_online_conj_L4_syn.csv,Test_Conj_SyncL4.csv,Conj_syncL4_norm.wav,bu,88:92,green,Online_conjL4_syn//cBU25.1554.wav,1554.0,,0,0,0,3,0,28,28,12,0,1,1,1,,,,,,,,,,,,,,,,,,,,,,,,,,,,,,,,,,,,,,,,,,,,,,,,,,,,,,,,,0.006095300006563775,57.97530619999452,57.97530619999452,57.97530619999452,None,,y,0.16018539998913184,,,,,,,,,,,,,,,,,,,,,,,,,,,,,,,,203764,001,2023-05-26_12h11.41.081,Pilot_online_tryings,2022.2.5,60.08297459195749,
ConjL4_syn.csv,directory_online_conj_L4_syn.csv,Test_Conj_SyncL4.csv,Conj_syncL4_norm.wav,bu,88:92,green,Online_conjL4_syn//cBU26.none.wav,none,,0,0,0,3,0,28,28,12,0,2,2,2,,,,,,,,,,,,,,,,,,,,,,,,,,,,,,,,,,,,,,,,,,,,,,,,,,,,,,,,,0.005700599998817779,58.15877290000208,58.15877290000208,58.15877290000208,None,,y,0.16831409999576863,,,,,,,,,,,,,,,,,,,,,,,,,,,,,,,,203764,001,2023-05-26_12h11.41.081,Pilot_online_tryings,2022.2.5,60.08297459195749,
ConjL4_syn.csv,directory_online_conj_L4_syn.csv,Test_Conj_SyncL4.csv,Conj_syncL4_norm.wav,bu,88:92,green,Online_conjL4_syn//cBU27.none.wav,none,,0,0,0,3,0,28,28,12,0,3,3,3,,,,,,,,,,,,,,,,,,,,,,,,,,,,,,,,,,,,,,,,,,,,,,,,,,,,,,,,,0.00925479999568779,58.358873699995456,58.358873699995456,58.358873699995456,None,,y,0.1607986000017263,,,,,,,,,,,,,,,,,,,,,,,,,,,,,,,,203764,001,2023-05-26_12h11.41.081,Pilot_online_tryings,2022.2.5,60.08297459195749,
ConjL4_syn.csv,directory_online_conj_L4_syn.csv,Test_Conj_SyncL4.csv,Conj_syncL4_norm.wav,bu,88:92,green,,,,0,0,0,3,0,28,28,12,,,,,,,,,,,,,,,,,,,,,,,,,,,,,,,,,,,,,,,,,,,,,,,,,,,,,,,,,,,,,,,,,,,,,,,,,,,,,,,,,,,,,,,,,,,,,,,,,,,,203764,001,2023-05-26_12h11.41.081,Pilot_online_tryings,2022.2.5,60.08297459195749,
ConjL4_syn.csv,directory_online_conj_L4_syn.csv,Test_Conj_SyncL4.csv,Conj_syncL4_norm.wav,lo,20:24,red,Online_conjL4_syn//aLO21.1554.wav,1554.0,,0,0,0,3,0,29,29,7,0,0,0,1,,,,,,,,,,,,,,,,,,,,,,,,,,,,,,,,,,,,,,,,,,,,,,,,,,,,,,,58.5511739999929,58.5511739999929,0.014743699997779913,58.5511739999929,58.5511739999929,58.5511739999929,None,,y,0.14347249999991618,,,,,,,,,,,,,,,,,,,,,,,,,,,,,,,,203764,001,2023-05-26_12h11.41.081,Pilot_online_tryings,2022.2.5,60.08297459195749,
ConjL4_syn.csv,directory_online_conj_L4_syn.csv,Test_Conj_SyncL4.csv,Conj_syncL4_norm.wav,lo,20:24,red,Online_conjL4_syn//aLO20.none.wav,none,,0,0,0,3,0,29,29,7,0,1,1,0,,,,,,,,,,,,,,,,,,,,,,,,,,,,,,,,,,,,,,,,,,,,,,,,,,,,,,,,,0.006172099994728342,58.72605319999275,58.72605319999275,58.72605319999275,None,,y,0.16032070000073873,,,,,,,,,,,,,,,,,,,,,,,,,,,,,,,,203764,001,2023-05-26_12h11.41.081,Pilot_online_tryings,2022.2.5,60.08297459195749,
ConjL4_syn.csv,directory_online_conj_L4_syn.csv,Test_Conj_SyncL4.csv,Conj_syncL4_norm.wav,lo,20:24,red,Online_conjL4_syn//aLO23.none.wav,none,,0,0,0,3,0,29,29,7,0,2,2,3,,,,,,,,,,,,,,,,,,,,,,,,,,,,,,,,,,,,,,,,,,,,,,,,,,,,,,,,,0.005882400000700727,58.90955099998973,58.90955099998973,58.90955099998973,None,,y,0.1691304999985732,,,,,,,,,,,,,,,,,,,,,,,,,,,,,,,,203764,001,2023-05-26_12h11.41.081,Pilot_online_tryings,2022.2.5,60.08297459195749,
ConjL4_syn.csv,directory_online_conj_L4_syn.csv,Test_Conj_SyncL4.csv,Conj_syncL4_norm.wav,lo,20:24,red,Online_conjL4_syn//aLO22.666.wav,666.0,,0,0,0,3,0,29,29,7,0,3,3,2,,,,,,,,,,,,,,,,,,,,,,,,,,,,,,,,,,,,,,,,,,,,,,,,,,,,,,,,,0.005728300006012432,59.109710299992,59.109710299992,59.109710299992,None,,y,0.16249689999676775,,,,,,,,,,,,,,,,,,,,,,,,,,,,,,,,203764,001,2023-05-26_12h11.41.081,Pilot_online_tryings,2022.2.5,60.08297459195749,
ConjL4_syn.csv,directory_online_conj_L4_syn.csv,Test_Conj_SyncL4.csv,Conj_syncL4_norm.wav,lo,20:24,red,,,,0,0,0,3,0,29,29,7,,,,,,,,,,,,,,,,,,,,,,,,,,,,,,,,,,,,,,,,,,,,,,,,,,,,,,,,,,,,,,,,,,,,,,,,,,,,,,,,,,,,,,,,,,,,,,,,,,,,203764,001,2023-05-26_12h11.41.081,Pilot_online_tryings,2022.2.5,60.08297459195749,
ConjL4_syn.csv,directory_online_conj_L4_syn.csv,Test_Conj_SyncL4.csv,Conj_syncL4_norm.wav,bu,72:76,green,Online_conjL4_syn//cBU10.none.wav,none,,0,0,0,3,0,30,30,11,0,0,0,2,,,,,,,,,,,,,,,,,,,,,,,,,,,,,,,,,,,,,,,,,,,,,,,,,,,,,,,59.30682389999856,59.30682389999856,0.016542900004424155,59.30682389999856,59.30682389999856,59.30682389999856,None,,y,0.1566508999967482,,,,,,,,,,,,,,,,,,,,,,,,,,,,,,,,203764,001,2023-05-26_12h11.41.081,Pilot_online_tryings,2022.2.5,60.08297459195749,
ConjL4_syn.csv,directory_online_conj_L4_syn.csv,Test_Conj_SyncL4.csv,Conj_syncL4_norm.wav,bu,72:76,green,Online_conjL4_syn//cBU11.none.wav,none,,0,0,0,3,0,30,30,11,0,1,1,3,,,,,,,,,,,,,,,,,,,,,,,,,,,,,,,,,,,,,,,,,,,,,,,,,,,,,,,,,0.019547100004274398,59.50243919999048,59.50243919999048,59.50243919999048,None,,y,0.13682949999929406,,,,,,,,,,,,,,,,,,,,,,,,,,,,,,,,203764,001,2023-05-26_12h11.41.081,Pilot_online_tryings,2022.2.5,60.08297459195749,
ConjL4_syn.csv,directory_online_conj_L4_syn.csv,Test_Conj_SyncL4.csv,Conj_syncL4_norm.wav,bu,72:76,green,Online_conjL4_syn//cBU9.1332.wav,1332.0,,0,0,0,3,0,30,30,11,0,2,2,1,,,,,,,,,,,,,,,,,,,,,,,,,,,,,,,,,,,,,,,,,,,,,,,,,,,,,,,,,0.00473670000792481,59.660278199997265,59.660278199997265,59.660278199997265,None,,y,0.16999150000629015,,,,,,,,,,,,,,,,,,,,,,,,,,,,,,,,203764,001,2023-05-26_12h11.41.081,Pilot_online_tryings,2022.2.5,60.08297459195749,
ConjL4_syn.csv,directory_online_conj_L4_syn.csv,Test_Conj_SyncL4.csv,Conj_syncL4_norm.wav,bu,72:76,green,Online_conjL4_syn//cBU8.none.wav,none,,0,0,0,3,0,30,30,11,0,3,3,0,,,,,,,,,,,,,,,,,,,,,,,,,,,,,,,,,,,,,,,,,,,,,,,,,,,,,,,,,0.005832800001371652,59.86045799999556,59.86045799999556,59.86045799999556,None,,y,0.14595030000782572,,,,,,,,,,,,,,,,,,,,,,,,,,,,,,,,203764,001,2023-05-26_12h11.41.081,Pilot_online_tryings,2022.2.5,60.08297459195749,
ConjL4_syn.csv,directory_online_conj_L4_syn.csv,Test_Conj_SyncL4.csv,Conj_syncL4_norm.wav,bu,72:76,green,,,,0,0,0,3,0,30,30,11,,,,,,,,,,,,,,,,,,,,,,,,,,,,,,,,,,,,,,,,,,,,,,,,,,,,,,,,,,,,,,,,,,,,,,,,,,,,,,,,,,,,,,,,,,,,,,,,,,,,203764,001,2023-05-26_12h11.41.081,Pilot_online_tryings,2022.2.5,60.08297459195749,
ConjL4_syn.csv,directory_online_conj_L4_syn.csv,Test_Conj_SyncL4.csv,Conj_syncL4_norm.wav,lo,16:20,red,Online_conjL4_syn//aLO17.none.wav,none,,0,0,0,3,0,31,31,25,0,0,0,1,,,,,,,,,,,,,,,,,,,,,,,,,,,,,,,,,,,,,,,,,,,,,,,,,,,,,,,60.03497320000315,60.03497320000315,0.014800799996010028,60.03497320000315,60.03497320000315,60.03497320000315,None,,y,0.1472564000141574,,,,,,,,,,,,,,,,,,,,,,,,,,,,,,,,203764,001,2023-05-26_12h11.41.081,Pilot_online_tryings,2022.2.5,60.08297459195749,
ConjL4_syn.csv,directory_online_conj_L4_syn.csv,Test_Conj_SyncL4.csv,Conj_syncL4_norm.wav,lo,16:20,red,Online_conjL4_syn//aLO18.none.wav,none,,0,0,0,3,0,31,31,25,0,1,1,2,,,,,,,,,,,,,,,,,,,,,,,,,,,,,,,,,,,,,,,,,,,,,,,,,,,,,,,,,0.005793600008473732,60.21072309999727,60.21072309999727,60.21072309999727,None,,y,0.13216219999594614,,,,,,,,,,,,,,,,,,,,,,,,,,,,,,,,203764,001,2023-05-26_12h11.41.081,Pilot_online_tryings,2022.2.5,60.08297459195749,
ConjL4_syn.csv,directory_online_conj_L4_syn.csv,Test_Conj_SyncL4.csv,Conj_syncL4_norm.wav,lo,16:20,red,Online_conjL4_syn//aLO19.none.wav,none,,0,0,0,3,0,31,31,25,0,2,2,3,,,,,,,,,,,,,,,,,,,,,,,,,,,,,,,,,,,,,,,,,,,,,,,,,,,,,,,,,0.005928700004005805,60.360913399999845,60.360913399999845,60.360913399999845,None,,y,0.15740619999996852,,,,,,,,,,,,,,,,,,,,,,,,,,,,,,,,203764,001,2023-05-26_12h11.41.081,Pilot_online_tryings,2022.2.5,60.08297459195749,
ConjL4_syn.csv,directory_online_conj_L4_syn.csv,Test_Conj_SyncL4.csv,Conj_syncL4_norm.wav,lo,16:20,red,Online_conjL4_syn//aLO16.1554.wav,1554.0,,0,0,0,3,0,31,31,25,0,3,3,0,,,,,,,,,,,,,,,,,,,,,,,,,,,,,,,,,,,,,,,,,,,,,,,,,,,,,,,,,0.005952699997578748,60.544292199992924,60.544292199992924,60.544292199992924,None,,y,0.1659986000013305,,,,,,,,,,,,,,,,,,,,,,,,,,,,,,,,203764,001,2023-05-26_12h11.41.081,Pilot_online_tryings,2022.2.5,60.08297459195749,
ConjL4_syn.csv,directory_online_conj_L4_syn.csv,Test_Conj_SyncL4.csv,Conj_syncL4_norm.wav,lo,16:20,red,,,,0,0,0,3,0,31,31,25,,,,,,,,,,,,,,,,,,,,,,,,,,,,,,,,,,,,,,,,,,,,,,,,,,,,,,,,,,,,,,,,,,,,,,,,,,,,,,,,,,,,,,,,,,,,,,,,,,,,203764,001,2023-05-26_12h11.41.081,Pilot_online_tryings,2022.2.5,60.08297459195749,
ConjL4_syn.csv,directory_online_conj_L4_syn.csv,Test_Conj_SyncL4.csv,Conj_syncL4_norm.wav,,,,,,testConjL4Syn//dep_viol.r2.s2.0.wav,0,0,0,3,,,,,,,,,0,0,0,7,,,,,,,,,,,,,,,,,,,,,,,,,,,,,,,,,,,,,,,,,,,,,,,,,,,,,,,,,,,,,60.72912489999726,60.72912489999726,space,1.0228800000040792,61.78077640000265,61.78077640000265,space,2.6590160000050673,64.46538599999622,64.46538599999622,space,2.7425609000056284,67.29144089999318,67.29144089999318,67.43457542000397,y,1.54735539999092,68.86977720000141,68.86977720000141,z,1.2337665000086417,70.14991149998968,70.14991149998968,70.14991149998968,70.14991149998968,4,0.6901149000041187,,,,,203764,001,2023-05-26_12h11.41.081,Pilot_online_tryings,2022.2.5,60.08297459195749,
ConjL4_syn.csv,directory_online_conj_L4_syn.csv,Test_Conj_SyncL4.csv,Conj_syncL4_norm.wav,,,,,,testConjL4Syn//dep_viol.r1.s2.0.wav,0,0,0,3,,,,,,,,,0,1,1,5,,,,,,,,,,,,,,,,,,,,,,,,,,,,,,,,,,,,,,,,,,,,,,,,,,,,,,,,,,,,,,,,,,,,,,,,,70.87135800000397,70.87135800000397,71.07165302000067,y,1.0564175000035902,71.95634140000038,71.95634140000038,z,0.5796817000082228,72.55713739999919,72.55713739999919,72.55713739999919,72.55713739999919,3,0.8906709000148112,,,,,203764,001,2023-05-26_12h11.41.081,Pilot_online_tryings,2022.2.5,60.08297459195749,
ConjL4_syn.csv,directory_online_conj_L4_syn.csv,Test_Conj_SyncL4.csv,Conj_syncL4_norm.wav,,,,,,testConjL4Syn//r2.s1.1.wav,0,0,0,3,,,,,,,,,0,2,2,15,,,,,,,,,,,,,,,,,,,,,,,,,,,,,,,,,,,,,,,,,,,,,,,,,,,,,,,,,,,,,,,,,,,,,,,,,73.48046880000038,73.48046880000038,73.67427951999707,y,0.43093360000057146,73.94152130000293,73.94152130000293,z,0.35470470000291243,74.32549560000189,74.32549560000189,74.32549560000189,74.32549560000189,4,0.37080609999247827,,,,,203764,001,2023-05-26_12h11.41.081,Pilot_online_tryings,2022.2.5,60.08297459195749,
ConjL4_syn.csv,directory_online_conj_L4_syn.csv,Test_Conj_SyncL4.csv,Conj_syncL4_norm.wav,,,,,,testConjL4Syn//cat_viol.r2.s2.0.wav,0,0,0,3,,,,,,,,,0,3,3,3,,,,,,,,,,,,,,,,,,,,,,,,,,,,,,,,,,,,,,,,,,,,,,,,,,,,,,,,,,,,,,,,,,,,,,,,,74.72603730000264,74.72603730000264,74.92538371999399,y,0.38610429999243934,75.14265019999584,75.14265019999584,z,0.4322917999961646,75.59343909999006,75.59343909999006,75.59343909999006,75.59343909999006,2,0.8307342000043718,,,,,203764,001,2023-05-26_12h11.41.081,Pilot_online_tryings,2022.2.5,60.08297459195749,
ConjL4_syn.csv,directory_online_conj_L4_syn.csv,Test_Conj_SyncL4.csv,Conj_syncL4_norm.wav,,,,,,testConjL4Syn//r2.s2.1.wav,0,0,0,3,,,,,,,,,0,4,4,18,,,,,,,,,,,,,,,,,,,,,,,,,,,,,,,,,,,,,,,,,,,,,,,,,,,,,,,,,,,,,,,,,,,,,,,,,76.44358869999996,76.44358869999996,76.64377962000435,y,0.5085812999896007,76.97788589999254,76.97788589999254,z,0.4383827999990899,77.44541279999248,77.44541279999248,77.44541279999248,77.44541279999248,5,1.1380348000093363,,,,,203764,001,2023-05-26_12h11.41.081,Pilot_online_tryings,2022.2.5,60.08297459195749,
ConjL4_syn.csv,directory_online_conj_L4_syn.csv,Test_Conj_SyncL4.csv,Conj_syncL4_norm.wav,,,,,,testConjL4Syn//r2.s2.2.wav,0,0,0,3,,,,,,,,,0,5,5,19,,,,,,,,,,,,,,,,,,,,,,,,,,,,,,,,,,,,,,,,,,,,,,,,,,,,,,,,,,,,,,,,,,,,,,,,,78.61742660000164,78.61742660000164,78.8127310199925,y,0.5748201999958837,79.2134659000003,79.2134659000003,z,0.6830976000055671,79.91438409998955,79.91438409998955,79.91438409998955,79.91438409998955,3,0.6055149000021629,,,,,203764,001,2023-05-26_12h11.41.081,Pilot_online_tryings,2022.2.5,60.08297459195749,
ConjL4_syn.csv,directory_online_conj_L4_syn.csv,Test_Conj_SyncL4.csv,Conj_syncL4_norm.wav,,,,,,testConjL4Syn//cat_viol.r1.s1.0.wav,0,0,0,3,,,,,,,,,0,6,6,0,,,,,,,,,,,,,,,,,,,,,,,,,,,,,,,,,,,,,,,,,,,,,,,,,,,,,,,,,,,,,,,,,,,,,,,,,80.5477494999941,80.5477494999941,80.74798391999502,y,0.7396738000097685,81.31560119999631,81.31560119999631,z,0.6910640999994939,82.03318739999668,82.03318739999668,82.03318739999668,82.03318739999668,5,0.6774952999985544,,,,,203764,001,2023-05-26_12h11.41.081,Pilot_online_tryings,2022.2.5,60.08297459195749,
ConjL4_syn.csv,directory_online_conj_L4_syn.csv,Test_Conj_SyncL4.csv,Conj_syncL4_norm.wav,,,,,,testConjL4Syn//time_viol.r2.s2.0.wav,0,0,0,3,,,,,,,,,0,7,7,23,,,,,,,,,,,,,,,,,,,,,,,,,,,,,,,,,,,,,,,,,,,,,,,,,,,,,,,,,,,,,,,,,,,,,,,,,82.74032250000164,82.74032250000164,82.93331511999713,y,0.8184921000065515,83.58448510000017,83.58448510000017,z,0.6475574000069173,84.25210230000084,84.25210230000084,84.25210230000084,84.25210230000084,2,0.6040701000019908,,,,,203764,001,2023-05-26_12h11.41.081,Pilot_online_tryings,2022.2.5,60.08297459195749,
ConjL4_syn.csv,directory_online_conj_L4_syn.csv,Test_Conj_SyncL4.csv,Conj_syncL4_norm.wav,,,,,,testConjL4Syn//dep_viol.r1.s1.0.wav,0,0,0,3,,,,,,,,,0,8,8,4,,,,,,,,,,,,,,,,,,,,,,,,,,,,,,,,,,,,,,,,,,,,,,,,,,,,,,,,,,,,,,,,,,,,,,,,,84.88546599999245,84.88546599999245,85.08551111999259,y,0.7224435999960406,85.63644689999637,85.63644689999637,z,0.643796200005454,86.30405029999383,86.30405029999383,86.30405029999383,86.30405029999383,5,0.6965328999940539,,,,,203764,001,2023-05-26_12h11.41.081,Pilot_online_tryings,2022.2.5,60.08297459195749,
ConjL4_syn.csv,directory_online_conj_L4_syn.csv,Test_Conj_SyncL4.csv,Conj_syncL4_norm.wav,,,,,,testConjL4Syn//cat_viol.r1.s2.0.wav,0,0,0,3,,,,,,,,,0,9,9,1,,,,,,,,,,,,,,,,,,,,,,,,,,,,,,,,,,,,,,,,,,,,,,,,,,,,,,,,,,,,,,,,,,,,,,,,,87.02077200000349,87.02077200000349,87.22098981999443,y,0.5550343000068096,87.60515200000373,87.60515200000373,z,0.4655320000019856,88.08928499999456,88.08928499999456,88.08928499999456,88.08928499999456,3,0.6224704000051133,,,,,203764,001,2023-05-26_12h11.41.081,Pilot_online_tryings,2022.2.5,60.08297459195749,
ConjL4_syn.csv,directory_online_conj_L4_syn.csv,Test_Conj_SyncL4.csv,Conj_syncL4_norm.wav,,,,,,testConjL4Syn//time_viol.r1.s2.0.wav,0,0,0,3,,,,,,,,,0,10,10,21,,,,,,,,,,,,,,,,,,,,,,,,,,,,,,,,,,,,,,,,,,,,,,,,,,,,,,,,,,,,,,,,,,,,,,,,,88.73916679999093,88.73916679999093,88.93923891999293,y,1.0122353000042494,89.7739023000031,89.7739023000031,z,0.6020894000102999,90.4082064999966,90.4082064999966,90.4082064999966,90.4082064999966,2,0.5263856000092346,,,,,203764,001,2023-05-26_12h11.41.081,Pilot_online_tryings,2022.2.5,60.08297459195749,
ConjL4_syn.csv,directory_online_conj_L4_syn.csv,Test_Conj_SyncL4.csv,Conj_syncL4_norm.wav,,,,,,testConjL4Syn//r2.s2.0.wav,0,0,0,3,,,,,,,,,0,11,11,17,,,,,,,,,,,,,,,,,,,,,,,,,,,,,,,,,,,,,,,,,,,,,,,,,,,,,,,,,,,,,,,,,,,,,,,,,90.95963450000272,90.95963450000272,91.15837181999814,y,0.648352000003797,91.6259155000007,91.6259155000007,z,0.6373516999883577,92.29334589999053,92.29334589999053,92.29334589999053,92.29334589999053,5,0.514088099997025,,,,,203764,001,2023-05-26_12h11.41.081,Pilot_online_tryings,2022.2.5,60.08297459195749,
ConjL4_syn.csv,directory_online_conj_L4_syn.csv,Test_Conj_SyncL4.csv,Conj_syncL4_norm.wav,,,,,,testConjL4Syn//r2.s1.0.wav,0,0,0,3,,,,,,,,,0,12,12,14,,,,,,,,,,,,,,,,,,,,,,,,,,,,,,,,,,,,,,,,,,,,,,,,,,,,,,,,,,,,,,,,,,,,,,,,,92.82660020000185,92.82660020000185,93.02687901999161,y,0.734039600007236,93.57768360000046,93.57768360000046,z,1.133971199989901,94.72926999999618,94.72926999999618,94.72926999999618,94.72926999999618,1,0.5743314999999711,,,,,203764,001,2023-05-26_12h11.41.081,Pilot_online_tryings,2022.2.5,60.08297459195749,
ConjL4_syn.csv,directory_online_conj_L4_syn.csv,Test_Conj_SyncL4.csv,Conj_syncL4_norm.wav,,,,,,testConjL4Syn//r1.s2.1.wav,0,0,0,3,,,,,,,,,0,13,13,12,,,,,,,,,,,,,,,,,,,,,,,,,,,,,,,,,,,,,,,,,,,,,,,,,,,,,,,,,,,,,,,,,,,,,,,,,95.32909630000358,95.32909630000358,95.52929841999139,y,0.5495073999918532,95.89687159999448,95.89687159999448,z,0.6390819999942323,96.56463619999704,96.56463619999704,96.56463619999704,96.56463619999704,5,0.8356365000072401,,,,,203764,001,2023-05-26_12h11.41.081,Pilot_online_tryings,2022.2.5,60.08297459195749,
ConjL4_syn.csv,directory_online_conj_L4_syn.csv,Test_Conj_SyncL4.csv,Conj_syncL4_norm.wav,,,,,,testConjL4Syn//cat_viol.r2.s1.0.wav,0,0,0,3,,,,,,,,,0,14,14,2,,,,,,,,,,,,,,,,,,,,,,,,,,,,,,,,,,,,,,,,,,,,,,,,,,,,,,,,,,,,,,,,,,,,,,,,,97.43117889999121,97.43117889999121,97.6314905199979,y,0.8328763000026811,98.2825104999938,98.2825104999938,z,0.4132454999926267,98.71651440000278,98.71651440000278,98.71651440000278,98.71651440000278,5,0.9232187000015983,,,,,203764,001,2023-05-26_12h11.41.081,Pilot_online_tryings,2022.2.5,60.08297459195749,
ConjL4_syn.csv,directory_online_conj_L4_syn.csv,Test_Conj_SyncL4.csv,Conj_syncL4_norm.wav,,,,,,testConjL4Syn//dep_viol.r2.s1.0.wav,0,0,0,3,,,,,,,,,0,15,15,6,,,,,,,,,,,,,,,,,,,,,,,,,,,,,,,,,,,,,,,,,,,,,,,,,,,,,,,,,,,,,,,,,,,,,,,,,99.6668467999989,99.6668467999989,99.86675282000215,y,0.43628809999790974,100.1342394999956,100.1342394999956,z,0.5619825000030687,100.71868179999001,100.71868179999001,100.71868179999001,100.71868179999001,3,0.697330700000748,,,,,203764,001,2023-05-26_12h11.41.081,Pilot_online_tryings,2022.2.5,60.08297459195749,
ConjL4_syn.csv,directory_online_conj_L4_syn.csv,Test_Conj_SyncL4.csv,Conj_syncL4_norm.wav,,,,,,testConjL4Syn//time_viol.r1.s1.0.wav,0,0,0,3,,,,,,,,,0,16,16,20,,,,,,,,,,,,,,,,,,,,,,,,,,,,,,,,,,,,,,,,,,,,,,,,,,,,,,,,,,,,,,,,,,,,,,,,,101.44048239999393,101.44048239999393,101.63533822000318,y,1.3020715999882668,102.770228399997,102.770228399997,z,0.4853466000058688,103.28767979999247,103.28767979999247,103.28767979999247,103.28767979999247,2,0.4477346000057878,,,,,203764,001,2023-05-26_12h11.41.081,Pilot_online_tryings,2022.2.5,60.08297459195749,
ConjL4_syn.csv,directory_online_conj_L4_syn.csv,Test_Conj_SyncL4.csv,Conj_syncL4_norm.wav,,,,,,testConjL4Syn//time_viol.r2.s1.0.wav,0,0,0,3,,,,,,,,,0,17,17,22,,,,,,,,,,,,,,,,,,,,,,,,,,,,,,,,,,,,,,,,,,,,,,,,,,,,,,,,,,,,,,,,,,,,,,,,,103.7579856999946,103.7579856999946,103.95425631999387,y,1.2886169999983395,105.0725509999902,105.0725509999902,z,0.5024255000025732,105.60694099999091,105.60694099999091,105.60694099999091,105.60694099999091,4,0.6087857000093209,,,,,203764,001,2023-05-26_12h11.41.081,Pilot_online_tryings,2022.2.5,60.08297459195749,
ConjL4_syn.csv,directory_online_conj_L4_syn.csv,Test_Conj_SyncL4.csv,Conj_syncL4_norm.wav,,,,,,testConjL4Syn//r1.s1.1.wav,0,0,0,3,,,,,,,,,0,18,18,9,,,,,,,,,,,,,,,,,,,,,,,,,,,,,,,,,,,,,,,,,,,,,,,,,,,,,,,,,,,,,,,,,,,,,,,,,106.24496359999466,106.24496359999466,106.44002421999176,y,0.7222726000036346,106.99090910000086,106.99090910000086,z,0.5678925999964122,107.57555239999783,107.57555239999783,107.57555239999783,107.57555239999783,1,0.7349596999993082,,,,,203764,001,2023-05-26_12h11.41.081,Pilot_online_tryings,2022.2.5,60.08297459195749,
ConjL4_syn.csv,directory_online_conj_L4_syn.csv,Test_Conj_SyncL4.csv,Conj_syncL4_norm.wav,,,,,,testConjL4Syn//r1.s1.2.wav,0,0,0,3,,,,,,,,,0,19,19,10,,,,,,,,,,,,,,,,,,,,,,,,,,,,,,,,,,,,,,,,,,,,,,,,,,,,,,,,,,,,,,,,,,,,,,,,,108.34207929999684,108.34207929999684,108.54224142000021,y,0.9137424000073224,109.27679969999008,109.27679969999008,z,0.5551577000005636,109.86093619999883,109.86093619999883,109.86093619999883,109.86093619999883,4,0.5954041999939363,,,,,203764,001,2023-05-26_12h11.41.081,Pilot_online_tryings,2022.2.5,60.08297459195749,
ConjL4_syn.csv,directory_online_conj_L4_syn.csv,Test_Conj_SyncL4.csv,Conj_syncL4_norm.wav,,,,,,testConjL4Syn//r2.s1.2.wav,0,0,0,3,,,,,,,,,0,20,20,16,,,,,,,,,,,,,,,,,,,,,,,,,,,,,,,,,,,,,,,,,,,,,,,,,,,,,,,,,,,,,,,,,,,,,,,,,110.4782123999903,110.4782123999903,110.67775452000205,y,0.9684779000090202,111.47895180000341,111.47895180000341,z,2.0325960000045598,113.5314156999957,113.5314156999957,113.5314156999957,113.5314156999957,3,0.25180560001172125,,,,,203764,001,2023-05-26_12h11.41.081,Pilot_online_tryings,2022.2.5,60.08297459195749,
ConjL4_syn.csv,directory_online_conj_L4_syn.csv,Test_Conj_SyncL4.csv,Conj_syncL4_norm.wav,,,,,,testConjL4Syn//r1.s2.0.wav,0,0,0,3,,,,,,,,,0,21,21,11,,,,,,,,,,,,,,,,,,,,,,,,,,,,,,,,,,,,,,,,,,,,,,,,,,,,,,,,,,,,,,,,,,,,,,,,,113.81427799999074,113.81427799999074,114.01450042000215,y,0.7530485000024782,114.59871059999568,114.59871059999568,z,0.6735419000033289,115.29971320000186,115.29971320000186,115.29971320000186,115.29971320000186,4,0.772083300005761,,,,,203764,001,2023-05-26_12h11.41.081,Pilot_online_tryings,2022.2.5,60.08297459195749,
ConjL4_syn.csv,directory_online_conj_L4_syn.csv,Test_Conj_SyncL4.csv,Conj_syncL4_norm.wav,,,,,,testConjL4Syn//r1.s2.2.wav,0,0,0,3,,,,,,,,,0,22,22,13,,,,,,,,,,,,,,,,,,,,,,,,,,,,,,,,,,,,,,,,,,,,,,,,,,,,,,,,,,,,,,,,,,,,,,,,,116.09973689999606,116.09973689999606,116.30000082000333,y,0.6283868000027724,116.75083589999122,116.75083589999122,m,1.6093383000115864,118.38618400000269,118.38618400000269,118.38618400000269,118.38618400000269,2,0.35758630000054836,,,,,203764,001,2023-05-26_12h11.41.081,Pilot_online_tryings,2022.2.5,60.08297459195749,
ConjL4_syn.csv,directory_online_conj_L4_syn.csv,Test_Conj_SyncL4.csv,Conj_syncL4_norm.wav,,,,,,testConjL4Syn//r1.s1.0.wav,0,0,0,3,,,,,,,,,0,23,23,8,,,,,,,,,,,,,,,,,,,,,,,,,,,,,,,,,,,,,,,,,,,,,,,,,,,,,,,,,,,,,,,,,,,,,,,,,118.76928090000001,118.76928090000001,118.96934542000236,y,1.2546228999999585,120.0542037999985,120.0542037999985,m,0.6257202999986475,120.70515319998958,120.70515319998958,120.70515319998958,120.70515319998958,3,0.6946349000063492,,,,,203764,001,2023-05-26_12h11.41.081,Pilot_online_tryings,2022.2.5,60.08297459195749,
ConjL4_syn.csv,directory_online_conj_L4_syn.csv,Test_Conj_SyncL4.csv,Conj_syncL4_norm.wav,,,,,,,0,0,0,3,,,,,,,,,,,,,,,,,,,,,,,,,,,,,,,,,,,,,,,,,,,,,,,,,,,,,,,,,,,,,,,,,,,,,,,,,,,,,,,,,,,,,,,,,,,,,,,,,,,,121.42219399999885,121.42219399999885,space,1.2417440000135684,203764,001,2023-05-26_12h11.41.081,Pilot_online_tryings,2022.2.5,60.08297459195749,
,,,,,,,,,,,,,,,,,,,,,,,,,,,,,,,,,,,,,,,,,,,,,,,,,,,,,,,,,,,,,,,122.69014379999135,122.69014379999135,,,,,,,,,,,,,,,,,,,,,,,,,,,,,,,,,,,,,,,,,,,,,,,,,,,,,,,,,,,
