seq,online_dir,test_dir,audio_offline,cond,ord,colour,dirs,time,test,trials.thisRepN,trials.thisTrialN,trials.thisN,trials.thisIndex,Conj_unsync_online.thisRepN,Conj_unsync_online.thisTrialN,Conj_unsync_online.thisN,Conj_unsync_online.thisIndex,audio1.thisRepN,audio1.thisTrialN,audio1.thisN,audio1.thisIndex,Conj_unsync_test.thisRepN,Conj_unsync_test.thisTrialN,Conj_unsync_test.thisN,Conj_unsync_test.thisIndex,text_21.started,key_resp1.started,key_resp1.keys,key_resp1.rt,text_23.started,key_resp_6.started,key_resp_6.keys,key_resp_6.rt,text_26.started,key_resp_10.started,key_resp_10.keys,key_resp_10.rt,volume_set.started,key_ressp2.started,text_27.started,key_ressp2.keys,key_ressp2.rt,text_24.started,key_resp_9.started,key_resp_9.keys,key_resp_9.rt,text_37.started,key_resp_3.started,key_resp_3.keys,key_resp_3.rt,text_22.started,key_resp1_2.started,key_resp1_2.keys,key_resp1_2.rt,text_25.started,key_resp1_3.started,key_resp1_3.keys,key_resp1_3.rt,text_28.started,key_resp_11.started,key_resp_11.keys,key_resp_11.rt,text_29.started,key_resp_12.started,key_resp_12.keys,key_resp_12.rt,text_36.started,key_resp_18.started,key_resp_18.keys,key_resp_18.rt,learning.started,text_19.started,key_resp_7.started,key_resp_7.keys,key_resp_7.rt,text_31.started,key_resp1_4.started,key_resp1_4.keys,key_resp1_4.rt,text_2.started,text_2.stopped,seqs.started,text_13.started,syllable_catch.started,key_resp_16.started,seqs.stopped,text_13.stopped,syllable_catch.stopped,syllable_catch.keys,key_resp_16.keys,key_resp_16.rt,text_12.started,key_resp4.started,key_resp4.keys,key_resp4.rt,text_14.started,key_resp_4.started,key_resp_4.keys,key_resp_4.rt,text_17.started,key_resp_17.started,test_sounds.started,key_resp_17.keys,key_resp_17.rt,text_18.started,Partz_no_partm.started,Partz_no_partm.keys,Partz_no_partm.rt,text_32.started,image_2.started,text_33.started,security_1_7.started,security_1_7.keys,security_1_7.rt,text_30.started,key_resp_13.started,key_resp_13.keys,key_resp_13.rt,participant,session,date,expName,psychopyVersion,frameRate,
,,,,,,,,,,,,,,,,,,,,,,,,,,21.35002600000007,21.35002600000007,space,4.886373299988918,,,,,,,,,,,,,,,,,,,,,,,,,,,,,,,,,,,,,,,,,,,,,,,,,,,,,,,,,,,,,,,,,,,,,,,,,,,,,,,,,,,,,,,,,,258382,001,2023-06-06_15h51.08.833,Pilot_online_tryings,2022.2.5,59.82224417423577,
,,,,,,,,,,,,,,,,,,,,,,,,,,,,,,26.269099899975117,26.269099899975117,space,0.4775345000089146,,,,,,,,,,,,,,,,,,,,,,,,,,,,,,,,,,,,,,,,,,,,,,,,,,,,,,,,,,,,,,,,,,,,,,,,,,,,,,,,,,,,,,258382,001,2023-06-06_15h51.08.833,Pilot_online_tryings,2022.2.5,59.82224417423577,
,,,,,,,,,,,,,,,,,,,,,,,,,,,,,,,,,,26.771192399959546,26.771192399959546,space,0.4391916999593377,,,,,,,,,,,,,,,,,,,,,,,,,,,,,,,,,,,,,,,,,,,,,,,,,,,,,,,,,,,,,,,,,,,,,,,,,,,,,,,,,,258382,001,2023-06-06_15h51.08.833,Pilot_online_tryings,2022.2.5,59.82224417423577,
,,,,,,,,,,,,,,,,,,,,,,,,,,,,,,,,,,,,,,27.60554128996446,27.60370649996912,27.60370649996912,space,1.494175300002098,,,,,,,,,,,,,,,,,,,,,,,,,,,,,,,,,,,,,,,,,,,,,,,,,,,,,,,,,,,,,,,,,,,,,,,,,,,,,258382,001,2023-06-06_15h51.08.833,Pilot_online_tryings,2022.2.5,59.82224417423577,
,,,,,,,,,,,,,,,,,,,,,,,,,,,,,,,,,,,,,,,,,,,29.121942099998705,29.121942099998705,space,0.42509699997026473,,,,,,,,,,,,,,,,,,,,,,,,,,,,,,,,,,,,,,,,,,,,,,,,,,,,,,,,,,,,,,,,,,,,,,,,,258382,001,2023-06-06_15h51.08.833,Pilot_online_tryings,2022.2.5,59.82224417423577,
,,,,,,,,,,,,,,,,,,,,,,,,,,,,,,,,,,,,,,,,,,,,,,,29.572853399964515,29.572853399964515,space,0.645331299980171,,,,,,,,,,,,,,,,,,,,,,,,,,,,,,,,,,,,,,,,,,,,,,,,,,,,,,,,,,,,,,,,,,,,,258382,001,2023-06-06_15h51.08.833,Pilot_online_tryings,2022.2.5,59.82224417423577,
,,,,,,,,,,,,,,,,,,,,,,,,,,,,,,,,,,,,,,,,,,,,,,,,,,,30.240745199960656,30.240745199960656,space,0.3139366999967024,,,,,,,,,,,,,,,,,,,,,,,,,,,,,,,,,,,,,,,,,,,,,,,,,,,,,,,,,,,,,,,,,258382,001,2023-06-06_15h51.08.833,Pilot_online_tryings,2022.2.5,59.82224417423577,
,,,,,,,,,,,,,,,,,,,,,,,,,,,,,,,,,,,,,,,,,,,,,,,,,,,,,,,30.57561609998811,30.57561609998811,space,0.3471220000064932,,,,,,,,,,,,,,,,,,,,,,,,,,,,,,,,,,,,,,,,,,,,,,,,,,,,,,,,,,,,,258382,001,2023-06-06_15h51.08.833,Pilot_online_tryings,2022.2.5,59.82224417423577,
,,,,,,,,,,,,,,,,,,,,,,,,,,,,,,,,,,,,,,,,,,,,,,,,,,,,,,,,,,,30.941061499994248,30.941061499994248,space,0.44573770003626123,,,,,,,,,,,,,,,,,,,,,,,,,,,,,,,,,,,,,,,,,,,,,,,,,,,,,,,,,258382,001,2023-06-06_15h51.08.833,Pilot_online_tryings,2022.2.5,59.82224417423577,
,,,,,,,,,,,,,,,,,,,,,,,,,,,,,,,,,,,,,,,,,,,,,,,,,,,,,,,,,,,,,,,31.407173299987335,31.407173299987335,space,0.4116167000029236,,,,,,,,,,,,,,,,,,,,,,,,,,,,,,,,,,,,,,,,,,,,,,,,,,,,,258382,001,2023-06-06_15h51.08.833,Pilot_online_tryings,2022.2.5,59.82224417423577,
WhatL2_uns.csv,directory_online_WHAT_L2_uns.csv,What_UnsyncL2_testdirs.csv,WhatL2_unsync.wav,du,8:12,orange,Online_whatL2//aDU8.none.wav,none,,0,0,0,1,0,0,0,0,0,0,0,0,,,,,,,,,,,,,,,,,,,,,,,,,,,,,,,,,,,,,,,,,,,,,,31.86477379995631,31.86477379995631,space,0.4191380000556819,33.410179109888844,33.40456210001139,33.40456210001139,space,5.022617399983574,38.44857690000208,38.44857690000208,space,2.762675100006163,41.371727899997495,41.371727899997495,0.10538540000561625,41.371727899997495,41.371727899997495,41.371727899997495,2.759675200039055,44.08614159998251,44.08614159998251,None,y,4.04648439999437,,,,,,,,,,,,,,,,,,,,,,,,,,,,258382,001,2023-06-06_15h51.08.833,Pilot_online_tryings,2022.2.5,59.82224417423577,
WhatL2_uns.csv,directory_online_WHAT_L2_uns.csv,What_UnsyncL2_testdirs.csv,WhatL2_unsync.wav,du,8:12,orange,Online_whatL2//aDU9.888.wav,888.0,,0,0,0,1,0,0,0,0,0,1,1,1,,,,,,,,,,,,,,,,,,,,,,,,,,,,,,,,,,,,,,,,,,,,,,,,,,,,,,,,,,,,,0.01866380003048107,45.459641099965665,45.459641099965665,45.459641099965665,,,,None,y,0.7901827999739908,,,,,,,,,,,,,,,,,,,,,,,,,,,,258382,001,2023-06-06_15h51.08.833,Pilot_online_tryings,2022.2.5,59.82224417423577,
WhatL2_uns.csv,directory_online_WHAT_L2_uns.csv,What_UnsyncL2_testdirs.csv,WhatL2_unsync.wav,du,8:12,orange,Online_whatL2//aDU11.none.wav,none,,0,0,0,1,0,0,0,0,0,2,2,3,,,,,,,,,,,,,,,,,,,,,,,,,,,,,,,,,,,,,,,,,,,,,,,,,,,,,,,,,,,,,0.0253544999868609,46.28807969996706,46.28807969996706,46.28807969996706,,,,None,y,0.1856121000018902,,,,,,,,,,,,,,,,,,,,,,,,,,,,258382,001,2023-06-06_15h51.08.833,Pilot_online_tryings,2022.2.5,59.82224417423577,
WhatL2_uns.csv,directory_online_WHAT_L2_uns.csv,What_UnsyncL2_testdirs.csv,WhatL2_unsync.wav,du,8:12,orange,Online_whatL2//aDU10.1998.wav,1998.0,,0,0,0,1,0,0,0,0,0,3,3,2,,,,,,,,,,,,,,,,,,,,,,,,,,,,,,,,,,,,,,,,,,,,,,,,,,,,,,,,,,,,,0.027118299971334636,46.522185200010426,46.522185200010426,46.522185200010426,,,,None,y,0.14339310000650585,,,,,,,,,,,,,,,,,,,,,,,,,,,,258382,001,2023-06-06_15h51.08.833,Pilot_online_tryings,2022.2.5,59.82224417423577,
WhatL2_uns.csv,directory_online_WHAT_L2_uns.csv,What_UnsyncL2_testdirs.csv,WhatL2_unsync.wav,du,8:12,orange,,,,0,0,0,1,0,0,0,0,,,,,,,,,,,,,,,,,,,,,,,,,,,,,,,,,,,,,,,,,,,,,,,,,,,,,,,,,,,,,,,,,,,,,,,,,,,,,,,,,,,,,,,,,,,,,,,,,,,,,,258382,001,2023-06-06_15h51.08.833,Pilot_online_tryings,2022.2.5,59.82224417423577,
WhatL2_uns.csv,directory_online_WHAT_L2_uns.csv,What_UnsyncL2_testdirs.csv,WhatL2_unsync.wav,du,12:16,orange,Online_whatL2//aDU15.1776.wav,1776.0,,0,0,0,1,0,1,1,15,0,0,0,3,,,,,,,,,,,,,,,,,,,,,,,,,,,,,,,,,,,,,,,,,,,,,,,,,,,,,,,,,,,46.71749859995907,46.71749859995907,0.03848729998571798,46.71749859995907,46.71749859995907,46.71749859995907,,,,None,y,0.14045379997696728,,,,,,,,,,,,,,,,,,,,,,,,,,,,258382,001,2023-06-06_15h51.08.833,Pilot_online_tryings,2022.2.5,59.82224417423577,
WhatL2_uns.csv,directory_online_WHAT_L2_uns.csv,What_UnsyncL2_testdirs.csv,WhatL2_unsync.wav,du,12:16,orange,Online_whatL2//aDU13.1998.wav,1998.0,,0,0,0,1,0,1,1,15,0,1,1,1,,,,,,,,,,,,,,,,,,,,,,,,,,,,,,,,,,,,,,,,,,,,,,,,,,,,,,,,,,,,,0.02318700001342222,46.90290039998945,46.90290039998945,46.90290039998945,,,,None,y,0.13227719999849796,,,,,,,,,,,,,,,,,,,,,,,,,,,,258382,001,2023-06-06_15h51.08.833,Pilot_online_tryings,2022.2.5,59.82224417423577,
WhatL2_uns.csv,directory_online_WHAT_L2_uns.csv,What_UnsyncL2_testdirs.csv,WhatL2_unsync.wav,du,12:16,orange,Online_whatL2//aDU14.888.wav,888.0,,0,0,0,1,0,1,1,15,0,2,2,2,,,,,,,,,,,,,,,,,,,,,,,,,,,,,,,,,,,,,,,,,,,,,,,,,,,,,,,,,,,,,0.00866439996752888,47.05582690000301,47.05582690000301,47.05582690000301,,,,None,y,0.1712112999521196,,,,,,,,,,,,,,,,,,,,,,,,,,,,258382,001,2023-06-06_15h51.08.833,Pilot_online_tryings,2022.2.5,59.82224417423577,
WhatL2_uns.csv,directory_online_WHAT_L2_uns.csv,What_UnsyncL2_testdirs.csv,WhatL2_unsync.wav,du,12:16,orange,Online_whatL2//aDU12.888.wav,888.0,,0,0,0,1,0,1,1,15,0,3,3,0,,,,,,,,,,,,,,,,,,,,,,,,,,,,,,,,,,,,,,,,,,,,,,,,,,,,,,,,,,,,,0.017009700008202344,47.2628516999539,47.2628516999539,47.2628516999539,,,,None,y,0.12274010002147406,,,,,,,,,,,,,,,,,,,,,,,,,,,,258382,001,2023-06-06_15h51.08.833,Pilot_online_tryings,2022.2.5,59.82224417423577,
WhatL2_uns.csv,directory_online_WHAT_L2_uns.csv,What_UnsyncL2_testdirs.csv,WhatL2_unsync.wav,du,12:16,orange,,,,0,0,0,1,0,1,1,15,,,,,,,,,,,,,,,,,,,,,,,,,,,,,,,,,,,,,,,,,,,,,,,,,,,,,,,,,,,,,,,,,,,,,,,,,,,,,,,,,,,,,,,,,,,,,,,,,,,,,,258382,001,2023-06-06_15h51.08.833,Pilot_online_tryings,2022.2.5,59.82224417423577,
WhatL2_uns.csv,directory_online_WHAT_L2_uns.csv,What_UnsyncL2_testdirs.csv,WhatL2_unsync.wav,si,124:128,green,Online_whatL2//dSI30.1332.wav,1332.0,,0,0,0,1,0,2,2,3,0,0,0,2,,,,,,,,,,,,,,,,,,,,,,,,,,,,,,,,,,,,,,,,,,,,,,,,,,,,,,,,,,,47.44349299999885,47.44349299999885,0.04169560002628714,47.44349299999885,47.44349299999885,47.44349299999885,,,,None,y,0.10336750000715256,,,,,,,,,,,,,,,,,,,,,,,,,,,,258382,001,2023-06-06_15h51.08.833,Pilot_online_tryings,2022.2.5,59.82224417423577,
WhatL2_uns.csv,directory_online_WHAT_L2_uns.csv,What_UnsyncL2_testdirs.csv,WhatL2_unsync.wav,si,124:128,green,Online_whatL2//dSI29.none.wav,none,,0,0,0,1,0,2,2,3,0,1,1,1,,,,,,,,,,,,,,,,,,,,,,,,,,,,,,,,,,,,,,,,,,,,,,,,,,,,,,,,,,,,,0.013409600011073053,47.576755699992646,47.576755699992646,47.576755699992646,,,,None,y,0.1448886999860406,,,,,,,,,,,,,,,,,,,,,,,,,,,,258382,001,2023-06-06_15h51.08.833,Pilot_online_tryings,2022.2.5,59.82224417423577,
WhatL2_uns.csv,directory_online_WHAT_L2_uns.csv,What_UnsyncL2_testdirs.csv,WhatL2_unsync.wav,si,124:128,green,Online_whatL2//dSI28.none.wav,none,,0,0,0,1,0,2,2,3,0,2,2,0,,,,,,,,,,,,,,,,,,,,,,,,,,,,,,,,,,,,,,,,,,,,,,,,,,,,,,,,,,,,,0.030181300011463463,47.76171799999429,47.76171799999429,47.76171799999429,,,,None,y,0.1367274000076577,,,,,,,,,,,,,,,,,,,,,,,,,,,,258382,001,2023-06-06_15h51.08.833,Pilot_online_tryings,2022.2.5,59.82224417423577,
WhatL2_uns.csv,directory_online_WHAT_L2_uns.csv,What_UnsyncL2_testdirs.csv,WhatL2_unsync.wav,si,124:128,green,Online_whatL2//dSI31.222.wav,222.0,,0,0,0,1,0,2,2,3,0,3,3,3,,,,,,,,,,,,,,,,,,,,,,,,,,,,,,,,,,,,,,,,,,,,,,,,,,,,,,,,,,,,,0.06149280001409352,47.97597949998453,47.97597949998453,47.97597949998453,,,,None,y,0.0985845000250265,,,,,,,,,,,,,,,,,,,,,,,,,,,,258382,001,2023-06-06_15h51.08.833,Pilot_online_tryings,2022.2.5,59.82224417423577,
WhatL2_uns.csv,directory_online_WHAT_L2_uns.csv,What_UnsyncL2_testdirs.csv,WhatL2_unsync.wav,si,124:128,green,,,,0,0,0,1,0,2,2,3,,,,,,,,,,,,,,,,,,,,,,,,,,,,,,,,,,,,,,,,,,,,,,,,,,,,,,,,,,,,,,,,,,,,,,,,,,,,,,,,,,,,,,,,,,,,,,,,,,,,,,258382,001,2023-06-06_15h51.08.833,Pilot_online_tryings,2022.2.5,59.82224417423577,
WhatL2_uns.csv,directory_online_WHAT_L2_uns.csv,What_UnsyncL2_testdirs.csv,WhatL2_unsync.wav,du,24:28,orange,Online_whatL2//aDU25.1998.wav,1998.0,,0,0,0,1,0,3,3,1,0,0,0,1,,,,,,,,,,,,,,,,,,,,,,,,,,,,,,,,,,,,,,,,,,,,,,,,,,,,,,,,,,,48.14809949998744,48.14809949998744,0.04536509996978566,48.14809949998744,48.14809949998744,48.14809949998744,,,,None,y,0.0854041000129655,,,,,,,,,,,,,,,,,,,,,,,,,,,,258382,001,2023-06-06_15h51.08.833,Pilot_online_tryings,2022.2.5,59.82224417423577,
WhatL2_uns.csv,directory_online_WHAT_L2_uns.csv,What_UnsyncL2_testdirs.csv,WhatL2_unsync.wav,du,24:28,orange,Online_whatL2//aDU24.888.wav,888.0,,0,0,0,1,0,3,3,1,0,1,1,0,,,,,,,,,,,,,,,,,,,,,,,,,,,,,,,,,,,,,,,,,,,,,,,,,,,,,,,,,,,,,0.008080999949015677,48.25696629995946,48.25696629995946,48.25696629995946,,,,None,y,0.15299700002651662,,,,,,,,,,,,,,,,,,,,,,,,,,,,258382,001,2023-06-06_15h51.08.833,Pilot_online_tryings,2022.2.5,59.82224417423577,
WhatL2_uns.csv,directory_online_WHAT_L2_uns.csv,What_UnsyncL2_testdirs.csv,WhatL2_unsync.wav,du,24:28,orange,Online_whatL2//aDU27.none.wav,none,,0,0,0,1,0,3,3,1,0,2,2,3,,,,,,,,,,,,,,,,,,,,,,,,,,,,,,,,,,,,,,,,,,,,,,,,,,,,,,,,,,,,,0.014861000003293157,48.44474499998614,48.44474499998614,48.44474499998614,,,,None,y,0.15689969999948516,,,,,,,,,,,,,,,,,,,,,,,,,,,,258382,001,2023-06-06_15h51.08.833,Pilot_online_tryings,2022.2.5,59.82224417423577,
WhatL2_uns.csv,directory_online_WHAT_L2_uns.csv,What_UnsyncL2_testdirs.csv,WhatL2_unsync.wav,du,24:28,orange,Online_whatL2//aDU26.1110.wav,1110.0,,0,0,0,1,0,3,3,1,0,3,3,2,,,,,,,,,,,,,,,,,,,,,,,,,,,,,,,,,,,,,,,,,,,,,,,,,,,,,,,,,,,,,0.006985299987718463,48.62403919995995,48.62403919995995,48.62403919995995,,,,None,y,0.15393719996791333,,,,,,,,,,,,,,,,,,,,,,,,,,,,258382,001,2023-06-06_15h51.08.833,Pilot_online_tryings,2022.2.5,59.82224417423577,
WhatL2_uns.csv,directory_online_WHAT_L2_uns.csv,What_UnsyncL2_testdirs.csv,WhatL2_unsync.wav,du,24:28,orange,,,,0,0,0,1,0,3,3,1,,,,,,,,,,,,,,,,,,,,,,,,,,,,,,,,,,,,,,,,,,,,,,,,,,,,,,,,,,,,,,,,,,,,,,,,,,,,,,,,,,,,,,,,,,,,,,,,,,,,,,258382,001,2023-06-06_15h51.08.833,Pilot_online_tryings,2022.2.5,59.82224417423577,
WhatL2_uns.csv,directory_online_WHAT_L2_uns.csv,What_UnsyncL2_testdirs.csv,WhatL2_unsync.wav,du,16:20,orange,Online_whatL2//aDU18.none.wav,none,,0,0,0,1,0,4,4,27,0,0,0,2,,,,,,,,,,,,,,,,,,,,,,,,,,,,,,,,,,,,,,,,,,,,,,,,,,,,,,,,,,,48.86838349996833,48.86838349996833,0.07068950001848862,48.86838349996833,48.86838349996833,48.86838349996833,,,,None,y,0.08525770000414923,,,,,,,,,,,,,,,,,,,,,,,,,,,,258382,001,2023-06-06_15h51.08.833,Pilot_online_tryings,2022.2.5,59.82224417423577,
WhatL2_uns.csv,directory_online_WHAT_L2_uns.csv,What_UnsyncL2_testdirs.csv,WhatL2_unsync.wav,du,16:20,orange,Online_whatL2//aDU16.none.wav,none,,0,0,0,1,0,4,4,27,0,1,1,0,,,,,,,,,,,,,,,,,,,,,,,,,,,,,,,,,,,,,,,,,,,,,,,,,,,,,,,,,,,,,0.008326400013174862,48.97427939996123,48.97427939996123,48.97427939996123,,,,None,y,0.14011310000205413,,,,,,,,,,,,,,,,,,,,,,,,,,,,258382,001,2023-06-06_15h51.08.833,Pilot_online_tryings,2022.2.5,59.82224417423577,
WhatL2_uns.csv,directory_online_WHAT_L2_uns.csv,What_UnsyncL2_testdirs.csv,WhatL2_unsync.wav,du,16:20,orange,Online_whatL2//aDU19.888.wav,888.0,,0,0,0,1,0,4,4,27,0,2,2,3,,,,,,,,,,,,,,,,,,,,,,,,,,,,,,,,,,,,,,,,,,,,,,,,,,,,,,,,,,,,,0.0207323000067845,49.15284870000323,49.15284870000323,49.15284870000323,,,,None,y,0.15275450004264712,,,,,,,,,,,,,,,,,,,,,,,,,,,,258382,001,2023-06-06_15h51.08.833,Pilot_online_tryings,2022.2.5,59.82224417423577,
WhatL2_uns.csv,directory_online_WHAT_L2_uns.csv,What_UnsyncL2_testdirs.csv,WhatL2_unsync.wav,du,16:20,orange,Online_whatL2//aDU17.none.wav,none,,0,0,0,1,0,4,4,27,0,3,3,1,,,,,,,,,,,,,,,,,,,,,,,,,,,,,,,,,,,,,,,,,,,,,,,,,,,,,,,,,,,,,0.039065999968443066,49.35414169996511,49.35414169996511,49.35414169996511,,,,None,y,0.1439997999696061,,,,,,,,,,,,,,,,,,,,,,,,,,,,258382,001,2023-06-06_15h51.08.833,Pilot_online_tryings,2022.2.5,59.82224417423577,
WhatL2_uns.csv,directory_online_WHAT_L2_uns.csv,What_UnsyncL2_testdirs.csv,WhatL2_unsync.wav,du,16:20,orange,,,,0,0,0,1,0,4,4,27,,,,,,,,,,,,,,,,,,,,,,,,,,,,,,,,,,,,,,,,,,,,,,,,,,,,,,,,,,,,,,,,,,,,,,,,,,,,,,,,,,,,,,,,,,,,,,,,,,,,,,258382,001,2023-06-06_15h51.08.833,Pilot_online_tryings,2022.2.5,59.82224417423577,
WhatL2_uns.csv,directory_online_WHAT_L2_uns.csv,What_UnsyncL2_testdirs.csv,WhatL2_unsync.wav,fe,36:40,red,Online_whatL2//bFE5.1110.wav,1110.0,,0,0,0,1,0,5,5,18,0,0,0,1,,,,,,,,,,,,,,,,,,,,,,,,,,,,,,,,,,,,,,,,,,,,,,,,,,,,,,,,,,,49.58396829996491,49.58396829996491,0.06448030000319704,49.58396829996491,49.58396829996491,49.58396829996491,,,,None,y,0.0899216000107117,,,,,,,,,,,,,,,,,,,,,,,,,,,,258382,001,2023-06-06_15h51.08.833,Pilot_online_tryings,2022.2.5,59.82224417423577,
WhatL2_uns.csv,directory_online_WHAT_L2_uns.csv,What_UnsyncL2_testdirs.csv,WhatL2_unsync.wav,fe,36:40,red,Online_whatL2//bFE7.none.wav,none,,0,0,0,1,0,5,5,18,0,1,1,3,,,,,,,,,,,,,,,,,,,,,,,,,,,,,,,,,,,,,,,,,,,,,,,,,,,,,,,,,,,,,0.023956900055054575,49.70666839997284,49.70666839997284,49.70666839997284,,,,None,y,0.14336660003755242,,,,,,,,,,,,,,,,,,,,,,,,,,,,258382,001,2023-06-06_15h51.08.833,Pilot_online_tryings,2022.2.5,59.82224417423577,
WhatL2_uns.csv,directory_online_WHAT_L2_uns.csv,What_UnsyncL2_testdirs.csv,WhatL2_unsync.wav,fe,36:40,red,Online_whatL2//bFE4.none.wav,none,,0,0,0,1,0,5,5,18,0,2,2,0,,,,,,,,,,,,,,,,,,,,,,,,,,,,,,,,,,,,,,,,,,,,,,,,,,,,,,,,,,,,,0.0275458000251092,49.89500369998859,49.89500369998859,49.89500369998859,,,,None,y,0.13044619996799156,,,,,,,,,,,,,,,,,,,,,,,,,,,,258382,001,2023-06-06_15h51.08.833,Pilot_online_tryings,2022.2.5,59.82224417423577,
WhatL2_uns.csv,directory_online_WHAT_L2_uns.csv,What_UnsyncL2_testdirs.csv,WhatL2_unsync.wav,fe,36:40,red,Online_whatL2//bFE6.none.wav,none,,0,0,0,1,0,5,5,18,0,3,3,2,,,,,,,,,,,,,,,,,,,,,,,,,,,,,,,,,,,,,,,,,,,,,,,,,,,,,,,,,,,,,0.024874199996702373,50.060174499987625,50.060174499987625,50.060174499987625,,,,None,y,0.14201910002157092,,,,,,,,,,,,,,,,,,,,,,,,,,,,258382,001,2023-06-06_15h51.08.833,Pilot_online_tryings,2022.2.5,59.82224417423577,
WhatL2_uns.csv,directory_online_WHAT_L2_uns.csv,What_UnsyncL2_testdirs.csv,WhatL2_unsync.wav,fe,36:40,red,,,,0,0,0,1,0,5,5,18,,,,,,,,,,,,,,,,,,,,,,,,,,,,,,,,,,,,,,,,,,,,,,,,,,,,,,,,,,,,,,,,,,,,,,,,,,,,,,,,,,,,,,,,,,,,,,,,,,,,,,258382,001,2023-06-06_15h51.08.833,Pilot_online_tryings,2022.2.5,59.82224417423577,
WhatL2_uns.csv,directory_online_WHAT_L2_uns.csv,What_UnsyncL2_testdirs.csv,WhatL2_unsync.wav,fe,40:44,red,Online_whatL2//bFE8.1110.wav,1110.0,,0,0,0,1,0,6,6,23,0,0,0,0,,,,,,,,,,,,,,,,,,,,,,,,,,,,,,,,,,,,,,,,,,,,,,,,,,,,,,,,,,,50.255323499965016,50.255323499965016,0.03861370001686737,50.255323499965016,50.255323499965016,50.255323499965016,,,,None,y,0.12254330003634095,,,,,,,,,,,,,,,,,,,,,,,,,,,,258382,001,2023-06-06_15h51.08.833,Pilot_online_tryings,2022.2.5,59.82224417423577,
WhatL2_uns.csv,directory_online_WHAT_L2_uns.csv,What_UnsyncL2_testdirs.csv,WhatL2_unsync.wav,fe,40:44,red,Online_whatL2//bFE9.888.wav,888.0,,0,0,0,1,0,6,6,23,0,1,1,1,,,,,,,,,,,,,,,,,,,,,,,,,,,,,,,,,,,,,,,,,,,,,,,,,,,,,,,,,,,,,0.024988099990878254,50.417392599978484,50.417392599978484,50.417392599978484,,,,None,y,0.15274230000795797,,,,,,,,,,,,,,,,,,,,,,,,,,,,258382,001,2023-06-06_15h51.08.833,Pilot_online_tryings,2022.2.5,59.82224417423577,
WhatL2_uns.csv,directory_online_WHAT_L2_uns.csv,What_UnsyncL2_testdirs.csv,WhatL2_unsync.wav,fe,40:44,red,Online_whatL2//bFE10.none.wav,none,,0,0,0,1,0,6,6,23,0,2,2,2,,,,,,,,,,,,,,,,,,,,,,,,,,,,,,,,,,,,,,,,,,,,,,,,,,,,,,,,,,,,,0.0559410999994725,50.64038459997391,50.64038459997391,50.64038459997391,,,,None,y,0.08932159998221323,,,,,,,,,,,,,,,,,,,,,,,,,,,,258382,001,2023-06-06_15h51.08.833,Pilot_online_tryings,2022.2.5,59.82224417423577,
WhatL2_uns.csv,directory_online_WHAT_L2_uns.csv,What_UnsyncL2_testdirs.csv,WhatL2_unsync.wav,fe,40:44,red,Online_whatL2//bFE11.none.wav,none,,0,0,0,1,0,6,6,23,0,3,3,3,,,,,,,,,,,,,,,,,,,,,,,,,,,,,,,,,,,,,,,,,,,,,,,,,,,,,,,,,,,,,0.05712330003734678,50.81205409998074,50.81205409998074,50.81205409998074,,,,None,y,0.10922939999727532,,,,,,,,,,,,,,,,,,,,,,,,,,,,258382,001,2023-06-06_15h51.08.833,Pilot_online_tryings,2022.2.5,59.82224417423577,
WhatL2_uns.csv,directory_online_WHAT_L2_uns.csv,What_UnsyncL2_testdirs.csv,WhatL2_unsync.wav,fe,40:44,red,,,,0,0,0,1,0,6,6,23,,,,,,,,,,,,,,,,,,,,,,,,,,,,,,,,,,,,,,,,,,,,,,,,,,,,,,,,,,,,,,,,,,,,,,,,,,,,,,,,,,,,,,,,,,,,,,,,,,,,,,258382,001,2023-06-06_15h51.08.833,Pilot_online_tryings,2022.2.5,59.82224417423577,
WhatL2_uns.csv,directory_online_WHAT_L2_uns.csv,What_UnsyncL2_testdirs.csv,WhatL2_unsync.wav,si,104:108,green,Online_whatL2//dSI8.none.wav,none,,0,0,0,1,0,7,7,10,0,0,0,0,,,,,,,,,,,,,,,,,,,,,,,,,,,,,,,,,,,,,,,,,,,,,,,,,,,,,,,,,,,51.104753499967046,51.104753499967046,0.01883130002534017,51.104753499967046,51.104753499967046,51.104753499967046,,,,None,y,1.4499218999990262,,,,,,,,,,,,,,,,,,,,,,,,,,,,258382,001,2023-06-06_15h51.08.833,Pilot_online_tryings,2022.2.5,59.82224417423577,
WhatL2_uns.csv,directory_online_WHAT_L2_uns.csv,What_UnsyncL2_testdirs.csv,WhatL2_unsync.wav,si,104:108,green,Online_whatL2//dSI11.none.wav,none,,0,0,0,1,0,7,7,10,0,1,1,3,,,,,,,,,,,,,,,,,,,,,,,,,,,,,,,,,,,,,,,,,,,,,,,,,,,,,,,,,,,,,0.05565200001001358,52.62538389995461,52.62538389995461,52.62538389995461,,,,None,y,0.39244919997872785,,,,,,,,,,,,,,,,,,,,,,,,,,,,258382,001,2023-06-06_15h51.08.833,Pilot_online_tryings,2022.2.5,59.82224417423577,
WhatL2_uns.csv,directory_online_WHAT_L2_uns.csv,What_UnsyncL2_testdirs.csv,WhatL2_unsync.wav,si,104:108,green,Online_whatL2//dSI9.none.wav,none,,0,0,0,1,0,7,7,10,0,2,2,1,,,,,,,,,,,,,,,,,,,,,,,,,,,,,,,,,,,,,,,,,,,,,,,,,,,,,,,,,,,,,0.02787169994553551,53.06302559998585,53.06302559998585,53.06302559998585,,,,None,y,0.29060490004485473,,,,,,,,,,,,,,,,,,,,,,,,,,,,258382,001,2023-06-06_15h51.08.833,Pilot_online_tryings,2022.2.5,59.82224417423577,
WhatL2_uns.csv,directory_online_WHAT_L2_uns.csv,What_UnsyncL2_testdirs.csv,WhatL2_unsync.wav,si,104:108,green,Online_whatL2//dSI10.1554.wav,1554.0,,0,0,0,1,0,7,7,10,0,3,3,2,,,,,,,,,,,,,,,,,,,,,,,,,,,,,,,,,,,,,,,,,,,,,,,,,,,,,,,,,,,,,0.018883899960201234,53.38828439998906,53.38828439998906,53.38828439998906,,,,None,y,0.3023358000209555,,,,,,,,,,,,,,,,,,,,,,,,,,,,258382,001,2023-06-06_15h51.08.833,Pilot_online_tryings,2022.2.5,59.82224417423577,
WhatL2_uns.csv,directory_online_WHAT_L2_uns.csv,What_UnsyncL2_testdirs.csv,WhatL2_unsync.wav,si,104:108,green,,,,0,0,0,1,0,7,7,10,,,,,,,,,,,,,,,,,,,,,,,,,,,,,,,,,,,,,,,,,,,,,,,,,,,,,,,,,,,,,,,,,,,,,,,,,,,,,,,,,,,,,,,,,,,,,,,,,,,,,,258382,001,2023-06-06_15h51.08.833,Pilot_online_tryings,2022.2.5,59.82224417423577,
WhatL2_uns.csv,directory_online_WHAT_L2_uns.csv,What_UnsyncL2_testdirs.csv,WhatL2_unsync.wav,fe,48:52,red,Online_whatL2//bFE16.888.wav,888.0,,0,0,0,1,0,8,8,20,0,0,0,0,,,,,,,,,,,,,,,,,,,,,,,,,,,,,,,,,,,,,,,,,,,,,,,,,,,,,,,,,,,53.77424399997108,53.77424399997108,0.06357580004259944,53.77424399997108,53.77424399997108,53.77424399997108,,,,None,y,0.1396029000170529,,,,,,,,,,,,,,,,,,,,,,,,,,,,258382,001,2023-06-06_15h51.08.833,Pilot_online_tryings,2022.2.5,59.82224417423577,
WhatL2_uns.csv,directory_online_WHAT_L2_uns.csv,What_UnsyncL2_testdirs.csv,WhatL2_unsync.wav,fe,48:52,red,Online_whatL2//bFE19.none.wav,none,,0,0,0,1,0,8,8,20,0,1,1,3,,,,,,,,,,,,,,,,,,,,,,,,,,,,,,,,,,,,,,,,,,,,,,,,,,,,,,,,,,,,,0.0133670000359416,53.950345399964135,53.950345399964135,53.950345399964135,,,,None,y,0.1400681000086479,,,,,,,,,,,,,,,,,,,,,,,,,,,,258382,001,2023-06-06_15h51.08.833,Pilot_online_tryings,2022.2.5,59.82224417423577,
WhatL2_uns.csv,directory_online_WHAT_L2_uns.csv,What_UnsyncL2_testdirs.csv,WhatL2_unsync.wav,fe,48:52,red,Online_whatL2//bFE18.0.wav,0.0,,0,0,0,1,0,8,8,20,0,2,2,2,,,,,,,,,,,,,,,,,,,,,,,,,,,,,,,,,,,,,,,,,,,,,,,,,,,,,,,,,,,,,0.017752100015059114,54.12868629995501,54.12868629995501,54.12868629995501,,,,None,y,0.12242899998091161,,,,,,,,,,,,,,,,,,,,,,,,,,,,258382,001,2023-06-06_15h51.08.833,Pilot_online_tryings,2022.2.5,59.82224417423577,
WhatL2_uns.csv,directory_online_WHAT_L2_uns.csv,What_UnsyncL2_testdirs.csv,WhatL2_unsync.wav,fe,48:52,red,Online_whatL2//bFE17.0.wav,0.0,,0,0,0,1,0,8,8,20,0,3,3,1,,,,,,,,,,,,,,,,,,,,,,,,,,,,,,,,,,,,,,,,,,,,,,,,,,,,,,,,,,,,,0.07248309999704361,54.344321899989154,54.344321899989154,54.344321899989154,,,,None,y,0.06576750002568588,,,,,,,,,,,,,,,,,,,,,,,,,,,,258382,001,2023-06-06_15h51.08.833,Pilot_online_tryings,2022.2.5,59.82224417423577,
WhatL2_uns.csv,directory_online_WHAT_L2_uns.csv,What_UnsyncL2_testdirs.csv,WhatL2_unsync.wav,fe,48:52,red,,,,0,0,0,1,0,8,8,20,,,,,,,,,,,,,,,,,,,,,,,,,,,,,,,,,,,,,,,,,,,,,,,,,,,,,,,,,,,,,,,,,,,,,,,,,,,,,,,,,,,,,,,,,,,,,,,,,,,,,,258382,001,2023-06-06_15h51.08.833,Pilot_online_tryings,2022.2.5,59.82224417423577,
WhatL2_uns.csv,directory_online_WHAT_L2_uns.csv,What_UnsyncL2_testdirs.csv,WhatL2_unsync.wav,si,112:116,green,Online_whatL2//dSI18.444.wav,444.0,,0,0,0,1,0,9,9,24,0,0,0,2,,,,,,,,,,,,,,,,,,,,,,,,,,,,,,,,,,,,,,,,,,,,,,,,,,,,,,,,,,,54.503957199980505,54.503957199980505,0.07223240000894293,54.503957199980505,54.503957199980505,54.503957199980505,,,,None,y,0.06684179999865592,,,,,,,,,,,,,,,,,,,,,,,,,,,,258382,001,2023-06-06_15h51.08.833,Pilot_online_tryings,2022.2.5,59.82224417423577,
WhatL2_uns.csv,directory_online_WHAT_L2_uns.csv,What_UnsyncL2_testdirs.csv,WhatL2_unsync.wav,si,112:116,green,Online_whatL2//dSI17.444.wav,444.0,,0,0,0,1,0,9,9,24,0,1,1,1,,,,,,,,,,,,,,,,,,,,,,,,,,,,,,,,,,,,,,,,,,,,,,,,,,,,,,,,,,,,,0.009992300008889288,54.59829940000782,54.59829940000782,54.59829940000782,,,,None,y,0.14771990000735968,,,,,,,,,,,,,,,,,,,,,,,,,,,,258382,001,2023-06-06_15h51.08.833,Pilot_online_tryings,2022.2.5,59.82224417423577,
WhatL2_uns.csv,directory_online_WHAT_L2_uns.csv,What_UnsyncL2_testdirs.csv,WhatL2_unsync.wav,si,112:116,green,Online_whatL2//dSI19.444.wav,444.0,,0,0,0,1,0,9,9,24,0,2,2,3,,,,,,,,,,,,,,,,,,,,,,,,,,,,,,,,,,,,,,,,,,,,,,,,,,,,,,,,,,,,,0.03445300000021234,54.788498499954585,54.788498499954585,54.788498499954585,,,,None,y,0.13349119998747483,,,,,,,,,,,,,,,,,,,,,,,,,,,,258382,001,2023-06-06_15h51.08.833,Pilot_online_tryings,2022.2.5,59.82224417423577,
WhatL2_uns.csv,directory_online_WHAT_L2_uns.csv,What_UnsyncL2_testdirs.csv,WhatL2_unsync.wav,si,112:116,green,Online_whatL2//dSI16.1110.wav,1110.0,,0,0,0,1,0,9,9,24,0,3,3,0,,,,,,,,,,,,,,,,,,,,,,,,,,,,,,,,,,,,,,,,,,,,,,,,,,,,,,,,,,,,,0.023709800036158413,54.961132299969904,54.961132299969904,54.961132299969904,,,,None,y,0.13670610002009198,,,,,,,,,,,,,,,,,,,,,,,,,,,,258382,001,2023-06-06_15h51.08.833,Pilot_online_tryings,2022.2.5,59.82224417423577,
WhatL2_uns.csv,directory_online_WHAT_L2_uns.csv,What_UnsyncL2_testdirs.csv,WhatL2_unsync.wav,si,112:116,green,,,,0,0,0,1,0,9,9,24,,,,,,,,,,,,,,,,,,,,,,,,,,,,,,,,,,,,,,,,,,,,,,,,,,,,,,,,,,,,,,,,,,,,,,,,,,,,,,,,,,,,,,,,,,,,,,,,,,,,,,258382,001,2023-06-06_15h51.08.833,Pilot_online_tryings,2022.2.5,59.82224417423577,
WhatL2_uns.csv,directory_online_WHAT_L2_uns.csv,What_UnsyncL2_testdirs.csv,WhatL2_unsync.wav,fe,52:56,red,Online_whatL2//bFE23.none.wav,none,,0,0,0,1,0,10,10,31,0,0,0,3,,,,,,,,,,,,,,,,,,,,,,,,,,,,,,,,,,,,,,,,,,,,,,,,,,,,,,,,,,,55.15289309999207,55.15289309999207,0.04066090000560507,55.15289309999207,55.15289309999207,55.15289309999207,,,,None,y,0.10560710000572726,,,,,,,,,,,,,,,,,,,,,,,,,,,,258382,001,2023-06-06_15h51.08.833,Pilot_online_tryings,2022.2.5,59.82224417423577,
WhatL2_uns.csv,directory_online_WHAT_L2_uns.csv,What_UnsyncL2_testdirs.csv,WhatL2_unsync.wav,fe,52:56,red,Online_whatL2//bFE22.none.wav,none,,0,0,0,1,0,10,10,31,0,1,1,2,,,,,,,,,,,,,,,,,,,,,,,,,,,,,,,,,,,,,,,,,,,,,,,,,,,,,,,,,,,,,0.03492190001998097,55.30600649997359,55.30600649997359,55.30600649997359,,,,None,y,0.12819519999902695,,,,,,,,,,,,,,,,,,,,,,,,,,,,258382,001,2023-06-06_15h51.08.833,Pilot_online_tryings,2022.2.5,59.82224417423577,
WhatL2_uns.csv,directory_online_WHAT_L2_uns.csv,What_UnsyncL2_testdirs.csv,WhatL2_unsync.wav,fe,52:56,red,Online_whatL2//bFE21.888.wav,888.0,,0,0,0,1,0,10,10,31,0,2,2,1,,,,,,,,,,,,,,,,,,,,,,,,,,,,,,,,,,,,,,,,,,,,,,,,,,,,,,,,,,,,,0.026795700017828494,55.482113700010814,55.482113700010814,55.482113700010814,,,,None,y,0.12846140004694462,,,,,,,,,,,,,,,,,,,,,,,,,,,,258382,001,2023-06-06_15h51.08.833,Pilot_online_tryings,2022.2.5,59.82224417423577,
WhatL2_uns.csv,directory_online_WHAT_L2_uns.csv,What_UnsyncL2_testdirs.csv,WhatL2_unsync.wav,fe,52:56,red,Online_whatL2//bFE20.none.wav,none,,0,0,0,1,0,10,10,31,0,3,3,0,,,,,,,,,,,,,,,,,,,,,,,,,,,,,,,,,,,,,,,,,,,,,,,,,,,,,,,,,,,,,0.019939200021326542,55.64135309995618,55.64135309995618,55.64135309995618,,,,None,y,0.14504519995534793,,,,,,,,,,,,,,,,,,,,,,,,,,,,258382,001,2023-06-06_15h51.08.833,Pilot_online_tryings,2022.2.5,59.82224417423577,
WhatL2_uns.csv,directory_online_WHAT_L2_uns.csv,What_UnsyncL2_testdirs.csv,WhatL2_unsync.wav,fe,52:56,red,,,,0,0,0,1,0,10,10,31,,,,,,,,,,,,,,,,,,,,,,,,,,,,,,,,,,,,,,,,,,,,,,,,,,,,,,,,,,,,,,,,,,,,,,,,,,,,,,,,,,,,,,,,,,,,,,,,,,,,,,258382,001,2023-06-06_15h51.08.833,Pilot_online_tryings,2022.2.5,59.82224417423577,
WhatL2_uns.csv,directory_online_WHAT_L2_uns.csv,What_UnsyncL2_testdirs.csv,WhatL2_unsync.wav,si,96:100,green,Online_whatL2//dSI2.1110.wav,1110.0,,0,0,0,1,0,11,11,6,0,0,0,2,,,,,,,,,,,,,,,,,,,,,,,,,,,,,,,,,,,,,,,,,,,,,,,,,,,,,,,,,,,55.84314799995627,55.84314799995627,0.03410699998494238,55.84314799995627,55.84314799995627,55.84314799995627,,,,None,y,0.10270639997906983,,,,,,,,,,,,,,,,,,,,,,,,,,,,258382,001,2023-06-06_15h51.08.833,Pilot_online_tryings,2022.2.5,59.82224417423577,
WhatL2_uns.csv,directory_online_WHAT_L2_uns.csv,What_UnsyncL2_testdirs.csv,WhatL2_unsync.wav,si,96:100,green,Online_whatL2//dSI3.none.wav,none,,0,0,0,1,0,11,11,6,0,1,1,3,,,,,,,,,,,,,,,,,,,,,,,,,,,,,,,,,,,,,,,,,,,,,,,,,,,,,,,,,,,,,0.04706020001322031,56.00228989997413,56.00228989997413,56.00228989997413,,,,None,y,0.1354249000432901,,,,,,,,,,,,,,,,,,,,,,,,,,,,258382,001,2023-06-06_15h51.08.833,Pilot_online_tryings,2022.2.5,59.82224417423577,
WhatL2_uns.csv,directory_online_WHAT_L2_uns.csv,What_UnsyncL2_testdirs.csv,WhatL2_unsync.wav,si,96:100,green,Online_whatL2//dSI0.none.wav,none,,0,0,0,1,0,11,11,6,0,2,2,0,,,,,,,,,,,,,,,,,,,,,,,,,,,,,,,,,,,,,,,,,,,,,,,,,,,,,,,,,,,,,0.03289149998454377,56.189194999984466,56.189194999984466,56.189194999984466,,,,None,y,0.12485279998509213,,,,,,,,,,,,,,,,,,,,,,,,,,,,258382,001,2023-06-06_15h51.08.833,Pilot_online_tryings,2022.2.5,59.82224417423577,
WhatL2_uns.csv,directory_online_WHAT_L2_uns.csv,What_UnsyncL2_testdirs.csv,WhatL2_unsync.wav,si,96:100,green,Online_whatL2//dSI1.none.wav,none,,0,0,0,1,0,11,11,6,0,3,3,1,,,,,,,,,,,,,,,,,,,,,,,,,,,,,,,,,,,,,,,,,,,,,,,,,,,,,,,,,,,,,0.032622499973513186,56.35458089999156,56.35458089999156,56.35458089999156,,,,None,y,0.13673920003930107,,,,,,,,,,,,,,,,,,,,,,,,,,,,258382,001,2023-06-06_15h51.08.833,Pilot_online_tryings,2022.2.5,59.82224417423577,
WhatL2_uns.csv,directory_online_WHAT_L2_uns.csv,What_UnsyncL2_testdirs.csv,WhatL2_unsync.wav,si,96:100,green,,,,0,0,0,1,0,11,11,6,,,,,,,,,,,,,,,,,,,,,,,,,,,,,,,,,,,,,,,,,,,,,,,,,,,,,,,,,,,,,,,,,,,,,,,,,,,,,,,,,,,,,,,,,,,,,,,,,,,,,,258382,001,2023-06-06_15h51.08.833,Pilot_online_tryings,2022.2.5,59.82224417423577,
WhatL2_uns.csv,directory_online_WHAT_L2_uns.csv,What_UnsyncL2_testdirs.csv,WhatL2_unsync.wav,fe,60:64,red,Online_whatL2//bFE30.none.wav,none,,0,0,0,1,0,12,12,25,0,0,0,2,,,,,,,,,,,,,,,,,,,,,,,,,,,,,,,,,,,,,,,,,,,,,,,,,,,,,,,,,,,56.58138359995792,56.58138359995792,0.06544939999002963,56.58138359995792,56.58138359995792,56.58138359995792,,,,None,y,0.08529070002259687,,,,,,,,,,,,,,,,,,,,,,,,,,,,258382,001,2023-06-06_15h51.08.833,Pilot_online_tryings,2022.2.5,59.82224417423577,
WhatL2_uns.csv,directory_online_WHAT_L2_uns.csv,What_UnsyncL2_testdirs.csv,WhatL2_unsync.wav,fe,60:64,red,Online_whatL2//bFE31.1110.wav,1110.0,,0,0,0,1,0,12,12,25,0,1,1,3,,,,,,,,,,,,,,,,,,,,,,,,,,,,,,,,,,,,,,,,,,,,,,,,,,,,,,,,,,,,,0.022414299950469285,56.71080949995667,56.71080949995667,56.71080949995667,,,,None,y,0.13070219999644905,,,,,,,,,,,,,,,,,,,,,,,,,,,,258382,001,2023-06-06_15h51.08.833,Pilot_online_tryings,2022.2.5,59.82224417423577,
WhatL2_uns.csv,directory_online_WHAT_L2_uns.csv,What_UnsyncL2_testdirs.csv,WhatL2_unsync.wav,fe,60:64,red,Online_whatL2//bFE29.none.wav,none,,0,0,0,1,0,12,12,25,0,2,2,1,,,,,,,,,,,,,,,,,,,,,,,,,,,,,,,,,,,,,,,,,,,,,,,,,,,,,,,,,,,,,0.02246969996485859,56.87983619997976,56.87983619997976,56.87983619997976,,,,None,y,0.12268570001469925,,,,,,,,,,,,,,,,,,,,,,,,,,,,258382,001,2023-06-06_15h51.08.833,Pilot_online_tryings,2022.2.5,59.82224417423577,
WhatL2_uns.csv,directory_online_WHAT_L2_uns.csv,What_UnsyncL2_testdirs.csv,WhatL2_unsync.wav,fe,60:64,red,Online_whatL2//bFE28.0.wav,0.0,,0,0,0,1,0,12,12,25,0,3,3,0,,,,,,,,,,,,,,,,,,,,,,,,,,,,,,,,,,,,,,,,,,,,,,,,,,,,,,,,,,,,,0.014878700021654367,57.03816529997857,57.03816529997857,57.03816529997857,,,,None,y,0.1401927000260912,,,,,,,,,,,,,,,,,,,,,,,,,,,,258382,001,2023-06-06_15h51.08.833,Pilot_online_tryings,2022.2.5,59.82224417423577,
WhatL2_uns.csv,directory_online_WHAT_L2_uns.csv,What_UnsyncL2_testdirs.csv,WhatL2_unsync.wav,fe,60:64,red,,,,0,0,0,1,0,12,12,25,,,,,,,,,,,,,,,,,,,,,,,,,,,,,,,,,,,,,,,,,,,,,,,,,,,,,,,,,,,,,,,,,,,,,,,,,,,,,,,,,,,,,,,,,,,,,,,,,,,,,,258382,001,2023-06-06_15h51.08.833,Pilot_online_tryings,2022.2.5,59.82224417423577,
WhatL2_uns.csv,directory_online_WHAT_L2_uns.csv,What_UnsyncL2_testdirs.csv,WhatL2_unsync.wav,du,20:24,orange,Online_whatL2//aDU21.1998.wav,1998.0,,0,0,0,1,0,13,13,9,0,0,0,1,,,,,,,,,,,,,,,,,,,,,,,,,,,,,,,,,,,,,,,,,,,,,,,,,,,,,,,,,,,57.23066419997485,57.23066419997485,0.03558259998681024,57.23066419997485,57.23066419997485,57.23066419997485,,,,None,y,0.1071473000338301,,,,,,,,,,,,,,,,,,,,,,,,,,,,258382,001,2023-06-06_15h51.08.833,Pilot_online_tryings,2022.2.5,59.82224417423577,
WhatL2_uns.csv,directory_online_WHAT_L2_uns.csv,What_UnsyncL2_testdirs.csv,WhatL2_unsync.wav,du,20:24,orange,Online_whatL2//aDU22.1998.wav,1998.0,,0,0,0,1,0,13,13,9,0,1,1,2,,,,,,,,,,,,,,,,,,,,,,,,,,,,,,,,,,,,,,,,,,,,,,,,,,,,,,,,,,,,,0.031248899991624057,57.38741460000165,57.38741460000165,57.38741460000165,,,,None,y,0.12695940001867712,,,,,,,,,,,,,,,,,,,,,,,,,,,,258382,001,2023-06-06_15h51.08.833,Pilot_online_tryings,2022.2.5,59.82224417423577,
WhatL2_uns.csv,directory_online_WHAT_L2_uns.csv,What_UnsyncL2_testdirs.csv,WhatL2_unsync.wav,du,20:24,orange,Online_whatL2//aDU20.none.wav,none,,0,0,0,1,0,13,13,9,0,2,2,0,,,,,,,,,,,,,,,,,,,,,,,,,,,,,,,,,,,,,,,,,,,,,,,,,,,,,,,,,,,,,0.03159500000765547,57.555758900009096,57.555758900009096,57.555758900009096,,,,None,y,0.13519510003970936,,,,,,,,,,,,,,,,,,,,,,,,,,,,258382,001,2023-06-06_15h51.08.833,Pilot_online_tryings,2022.2.5,59.82224417423577,
WhatL2_uns.csv,directory_online_WHAT_L2_uns.csv,What_UnsyncL2_testdirs.csv,WhatL2_unsync.wav,du,20:24,orange,Online_whatL2//aDU23.none.wav,none,,0,0,0,1,0,13,13,9,0,3,3,3,,,,,,,,,,,,,,,,,,,,,,,,,,,,,,,,,,,,,,,,,,,,,,,,,,,,,,,,,,,,,0.01989769999636337,57.72769480000716,57.72769480000716,57.72769480000716,,,,None,y,0.138068399974145,,,,,,,,,,,,,,,,,,,,,,,,,,,,258382,001,2023-06-06_15h51.08.833,Pilot_online_tryings,2022.2.5,59.82224417423577,
WhatL2_uns.csv,directory_online_WHAT_L2_uns.csv,What_UnsyncL2_testdirs.csv,WhatL2_unsync.wav,du,20:24,orange,,,,0,0,0,1,0,13,13,9,,,,,,,,,,,,,,,,,,,,,,,,,,,,,,,,,,,,,,,,,,,,,,,,,,,,,,,,,,,,,,,,,,,,,,,,,,,,,,,,,,,,,,,,,,,,,,,,,,,,,,258382,001,2023-06-06_15h51.08.833,Pilot_online_tryings,2022.2.5,59.82224417423577,
WhatL2_uns.csv,directory_online_WHAT_L2_uns.csv,What_UnsyncL2_testdirs.csv,WhatL2_unsync.wav,cha,72:76,blue,Online_whatL2//cCHA11.1110.wav,1110.0,,0,0,0,1,0,14,14,21,0,0,0,3,,,,,,,,,,,,,,,,,,,,,,,,,,,,,,,,,,,,,,,,,,,,,,,,,,,,,,,,,,,57.907174699997995,57.907174699997995,0.02691920002689585,57.907174699997995,57.907174699997995,57.907174699997995,,,,None,y,0.13502960000187159,,,,,,,,,,,,,,,,,,,,,,,,,,,,258382,001,2023-06-06_15h51.08.833,Pilot_online_tryings,2022.2.5,59.82224417423577,
WhatL2_uns.csv,directory_online_WHAT_L2_uns.csv,What_UnsyncL2_testdirs.csv,WhatL2_unsync.wav,cha,72:76,blue,Online_whatL2//cCHA10.444.wav,444.0,,0,0,0,1,0,14,14,21,0,1,1,2,,,,,,,,,,,,,,,,,,,,,,,,,,,,,,,,,,,,,,,,,,,,,,,,,,,,,,,,,,,,,0.020490000024437904,58.078190099971835,58.078190099971835,58.078190099971835,,,,None,y,0.15546670003095642,,,,,,,,,,,,,,,,,,,,,,,,,,,,258382,001,2023-06-06_15h51.08.833,Pilot_online_tryings,2022.2.5,59.82224417423577,
WhatL2_uns.csv,directory_online_WHAT_L2_uns.csv,What_UnsyncL2_testdirs.csv,WhatL2_unsync.wav,cha,72:76,blue,Online_whatL2//cCHA8.none.wav,none,,0,0,0,1,0,14,14,21,0,2,2,0,,,,,,,,,,,,,,,,,,,,,,,,,,,,,,,,,,,,,,,,,,,,,,,,,,,,,,,,,,,,,0.04746869998052716,58.29074769996805,58.29074769996805,58.29074769996805,,,,None,y,0.10351220000302419,,,,,,,,,,,,,,,,,,,,,,,,,,,,258382,001,2023-06-06_15h51.08.833,Pilot_online_tryings,2022.2.5,59.82224417423577,
WhatL2_uns.csv,directory_online_WHAT_L2_uns.csv,What_UnsyncL2_testdirs.csv,WhatL2_unsync.wav,cha,72:76,blue,Online_whatL2//cCHA9.none.wav,none,,0,0,0,1,0,14,14,21,0,3,3,1,,,,,,,,,,,,,,,,,,,,,,,,,,,,,,,,,,,,,,,,,,,,,,,,,,,,,,,,,,,,,0.04927639995003119,58.45840639999369,58.45840639999369,58.45840639999369,,,,None,y,0.07949390000430867,,,,,,,,,,,,,,,,,,,,,,,,,,,,258382,001,2023-06-06_15h51.08.833,Pilot_online_tryings,2022.2.5,59.82224417423577,
WhatL2_uns.csv,directory_online_WHAT_L2_uns.csv,What_UnsyncL2_testdirs.csv,WhatL2_unsync.wav,cha,72:76,blue,,,,0,0,0,1,0,14,14,21,,,,,,,,,,,,,,,,,,,,,,,,,,,,,,,,,,,,,,,,,,,,,,,,,,,,,,,,,,,,,,,,,,,,,,,,,,,,,,,,,,,,,,,,,,,,,,,,,,,,,,258382,001,2023-06-06_15h51.08.833,Pilot_online_tryings,2022.2.5,59.82224417423577,
WhatL2_uns.csv,directory_online_WHAT_L2_uns.csv,What_UnsyncL2_testdirs.csv,WhatL2_unsync.wav,cha,80:84,blue,Online_whatL2//cCHA16.none.wav,none,,0,0,0,1,0,15,15,8,0,0,0,0,,,,,,,,,,,,,,,,,,,,,,,,,,,,,,,,,,,,,,,,,,,,,,,,,,,,,,,,,,,58.62930889998097,58.62930889998097,0.05897510005161166,58.62930889998097,58.62930889998097,58.62930889998097,,,,None,y,0.11685449996730313,,,,,,,,,,,,,,,,,,,,,,,,,,,,258382,001,2023-06-06_15h51.08.833,Pilot_online_tryings,2022.2.5,59.82224417423577,
WhatL2_uns.csv,directory_online_WHAT_L2_uns.csv,What_UnsyncL2_testdirs.csv,WhatL2_unsync.wav,cha,80:84,blue,Online_whatL2//cCHA19.1998.wav,1998.0,,0,0,0,1,0,15,15,8,0,1,1,3,,,,,,,,,,,,,,,,,,,,,,,,,,,,,,,,,,,,,,,,,,,,,,,,,,,,,,,,,,,,,0.02510259998962283,58.7843855000101,58.7843855000101,58.7843855000101,,,,None,y,0.13772380002774298,,,,,,,,,,,,,,,,,,,,,,,,,,,,258382,001,2023-06-06_15h51.08.833,Pilot_online_tryings,2022.2.5,59.82224417423577,
WhatL2_uns.csv,directory_online_WHAT_L2_uns.csv,What_UnsyncL2_testdirs.csv,WhatL2_unsync.wav,cha,80:84,blue,Online_whatL2//cCHA17.none.wav,none,,0,0,0,1,0,15,15,8,0,2,2,1,,,,,,,,,,,,,,,,,,,,,,,,,,,,,,,,,,,,,,,,,,,,,,,,,,,,,,,,,,,,,0.03167070000199601,58.97994829999516,58.97994829999516,58.97994829999516,,,,None,y,0.13285800005542114,,,,,,,,,,,,,,,,,,,,,,,,,,,,258382,001,2023-06-06_15h51.08.833,Pilot_online_tryings,2022.2.5,59.82224417423577,
WhatL2_uns.csv,directory_online_WHAT_L2_uns.csv,What_UnsyncL2_testdirs.csv,WhatL2_unsync.wav,cha,80:84,blue,Online_whatL2//cCHA18.444.wav,444.0,,0,0,0,1,0,15,15,8,0,3,3,2,,,,,,,,,,,,,,,,,,,,,,,,,,,,,,,,,,,,,,,,,,,,,,,,,,,,,,,,,,,,,0.03896069998154417,59.16676339996047,59.16676339996047,59.16676339996047,,,,None,y,0.1393271000124514,,,,,,,,,,,,,,,,,,,,,,,,,,,,258382,001,2023-06-06_15h51.08.833,Pilot_online_tryings,2022.2.5,59.82224417423577,
WhatL2_uns.csv,directory_online_WHAT_L2_uns.csv,What_UnsyncL2_testdirs.csv,WhatL2_unsync.wav,cha,80:84,blue,,,,0,0,0,1,0,15,15,8,,,,,,,,,,,,,,,,,,,,,,,,,,,,,,,,,,,,,,,,,,,,,,,,,,,,,,,,,,,,,,,,,,,,,,,,,,,,,,,,,,,,,,,,,,,,,,,,,,,,,,258382,001,2023-06-06_15h51.08.833,Pilot_online_tryings,2022.2.5,59.82224417423577,
WhatL2_uns.csv,directory_online_WHAT_L2_uns.csv,What_UnsyncL2_testdirs.csv,WhatL2_unsync.wav,fe,44:48,red,Online_whatL2//bFE13.888.wav,888.0,,0,0,0,1,0,16,16,5,0,0,0,1,,,,,,,,,,,,,,,,,,,,,,,,,,,,,,,,,,,,,,,,,,,,,,,,,,,,,,,,,,,59.38616519997595,59.38616519997595,0.05300409998744726,59.38616519997595,59.38616519997595,59.38616519997595,,,,None,y,0.11273120000259951,,,,,,,,,,,,,,,,,,,,,,,,,,,,258382,001,2023-06-06_15h51.08.833,Pilot_online_tryings,2022.2.5,59.82224417423577,
WhatL2_uns.csv,directory_online_WHAT_L2_uns.csv,What_UnsyncL2_testdirs.csv,WhatL2_unsync.wav,fe,44:48,red,Online_whatL2//bFE14.none.wav,none,,0,0,0,1,0,16,16,5,0,1,1,2,,,,,,,,,,,,,,,,,,,,,,,,,,,,,,,,,,,,,,,,,,,,,,,,,,,,,,,,,,,,,0.0189568999921903,59.527981899969745,59.527981899969745,59.527981899969745,,,,None,y,0.1464871999924071,,,,,,,,,,,,,,,,,,,,,,,,,,,,258382,001,2023-06-06_15h51.08.833,Pilot_online_tryings,2022.2.5,59.82224417423577,
WhatL2_uns.csv,directory_online_WHAT_L2_uns.csv,What_UnsyncL2_testdirs.csv,WhatL2_unsync.wav,fe,44:48,red,Online_whatL2//bFE12.none.wav,none,,0,0,0,1,0,16,16,5,0,2,2,0,,,,,,,,,,,,,,,,,,,,,,,,,,,,,,,,,,,,,,,,,,,,,,,,,,,,,,,,,,,,,0.029318600019905716,59.72247639996931,59.72247639996931,59.72247639996931,,,,None,y,0.12857729999814183,,,,,,,,,,,,,,,,,,,,,,,,,,,,258382,001,2023-06-06_15h51.08.833,Pilot_online_tryings,2022.2.5,59.82224417423577,
WhatL2_uns.csv,directory_online_WHAT_L2_uns.csv,What_UnsyncL2_testdirs.csv,WhatL2_unsync.wav,fe,44:48,red,Online_whatL2//bFE15.none.wav,none,,0,0,0,1,0,16,16,5,0,3,3,3,,,,,,,,,,,,,,,,,,,,,,,,,,,,,,,,,,,,,,,,,,,,,,,,,,,,,,,,,,,,,0.007506500056479126,59.86867799999891,59.86867799999891,59.86867799999891,,,,None,y,0.1737736000213772,,,,,,,,,,,,,,,,,,,,,,,,,,,,258382,001,2023-06-06_15h51.08.833,Pilot_online_tryings,2022.2.5,59.82224417423577,
WhatL2_uns.csv,directory_online_WHAT_L2_uns.csv,What_UnsyncL2_testdirs.csv,WhatL2_unsync.wav,fe,44:48,red,,,,0,0,0,1,0,16,16,5,,,,,,,,,,,,,,,,,,,,,,,,,,,,,,,,,,,,,,,,,,,,,,,,,,,,,,,,,,,,,,,,,,,,,,,,,,,,,,,,,,,,,,,,,,,,,,,,,,,,,,258382,001,2023-06-06_15h51.08.833,Pilot_online_tryings,2022.2.5,59.82224417423577,
WhatL2_uns.csv,directory_online_WHAT_L2_uns.csv,What_UnsyncL2_testdirs.csv,WhatL2_unsync.wav,cha,84:88,blue,Online_whatL2//cCHA22.none.wav,none,,0,0,0,1,0,17,17,26,0,0,0,2,,,,,,,,,,,,,,,,,,,,,,,,,,,,,,,,,,,,,,,,,,,,,,,,,,,,,,,,,,,60.11916309996741,60.11916309996741,0.05010829999810085,60.11916309996741,60.11916309996741,60.11916309996741,,,,None,y,0.09848739998415112,,,,,,,,,,,,,,,,,,,,,,,,,,,,258382,001,2023-06-06_15h51.08.833,Pilot_online_tryings,2022.2.5,59.82224417423577,
WhatL2_uns.csv,directory_online_WHAT_L2_uns.csv,What_UnsyncL2_testdirs.csv,WhatL2_unsync.wav,cha,84:88,blue,Online_whatL2//cCHA21.1110.wav,1110.0,,0,0,0,1,0,17,17,26,0,1,1,1,,,,,,,,,,,,,,,,,,,,,,,,,,,,,,,,,,,,,,,,,,,,,,,,,,,,,,,,,,,,,0.03116140002384782,60.25849959999323,60.25849959999323,60.25849959999323,,,,None,y,0.15148199995746836,,,,,,,,,,,,,,,,,,,,,,,,,,,,258382,001,2023-06-06_15h51.08.833,Pilot_online_tryings,2022.2.5,59.82224417423577,
WhatL2_uns.csv,directory_online_WHAT_L2_uns.csv,What_UnsyncL2_testdirs.csv,WhatL2_unsync.wav,cha,84:88,blue,Online_whatL2//cCHA20.none.wav,none,,0,0,0,1,0,17,17,26,0,2,2,0,,,,,,,,,,,,,,,,,,,,,,,,,,,,,,,,,,,,,,,,,,,,,,,,,,,,,,,,,,,,,0.02982599998358637,60.45831959997304,60.45831959997304,60.45831959997304,,,,None,y,0.1275514999870211,,,,,,,,,,,,,,,,,,,,,,,,,,,,258382,001,2023-06-06_15h51.08.833,Pilot_online_tryings,2022.2.5,59.82224417423577,
WhatL2_uns.csv,directory_online_WHAT_L2_uns.csv,What_UnsyncL2_testdirs.csv,WhatL2_unsync.wav,cha,84:88,blue,Online_whatL2//cCHA23.none.wav,none,,0,0,0,1,0,17,17,26,0,3,3,3,,,,,,,,,,,,,,,,,,,,,,,,,,,,,,,,,,,,,,,,,,,,,,,,,,,,,,,,,,,,,0.028028200031258166,60.62225229997421,60.62225229997421,60.62225229997421,,,,None,y,0.15531090000877157,,,,,,,,,,,,,,,,,,,,,,,,,,,,258382,001,2023-06-06_15h51.08.833,Pilot_online_tryings,2022.2.5,59.82224417423577,
WhatL2_uns.csv,directory_online_WHAT_L2_uns.csv,What_UnsyncL2_testdirs.csv,WhatL2_unsync.wav,cha,84:88,blue,,,,0,0,0,1,0,17,17,26,,,,,,,,,,,,,,,,,,,,,,,,,,,,,,,,,,,,,,,,,,,,,,,,,,,,,,,,,,,,,,,,,,,,,,,,,,,,,,,,,,,,,,,,,,,,,,,,,,,,,,258382,001,2023-06-06_15h51.08.833,Pilot_online_tryings,2022.2.5,59.82224417423577,
WhatL2_uns.csv,directory_online_WHAT_L2_uns.csv,What_UnsyncL2_testdirs.csv,WhatL2_unsync.wav,du,0:4,orange,Online_whatL2//aDU3.none.wav,none,,0,0,0,1,0,18,18,22,0,0,0,3,,,,,,,,,,,,,,,,,,,,,,,,,,,,,,,,,,,,,,,,,,,,,,,,,,,,,,,,,,,60.86457390000578,60.86457390000578,0.05504460004158318,60.86457390000578,60.86457390000578,60.86457390000578,,,,None,y,0.10522159998072311,,,,,,,,,,,,,,,,,,,,,,,,,,,,258382,001,2023-06-06_15h51.08.833,Pilot_online_tryings,2022.2.5,59.82224417423577,
WhatL2_uns.csv,directory_online_WHAT_L2_uns.csv,What_UnsyncL2_testdirs.csv,WhatL2_unsync.wav,du,0:4,orange,Online_whatL2//aDU2.none.wav,none,,0,0,0,1,0,18,18,22,0,1,1,2,,,,,,,,,,,,,,,,,,,,,,,,,,,,,,,,,,,,,,,,,,,,,,,,,,,,,,,,,,,,,0.02343609998933971,61.0056841999758,61.0056841999758,61.0056841999758,,,,None,y,0.15552670002216473,,,,,,,,,,,,,,,,,,,,,,,,,,,,258382,001,2023-06-06_15h51.08.833,Pilot_online_tryings,2022.2.5,59.82224417423577,
WhatL2_uns.csv,directory_online_WHAT_L2_uns.csv,What_UnsyncL2_testdirs.csv,WhatL2_unsync.wav,du,0:4,orange,Online_whatL2//aDU1.888.wav,888.0,,0,0,0,1,0,18,18,22,0,2,2,1,,,,,,,,,,,,,,,,,,,,,,,,,,,,,,,,,,,,,,,,,,,,,,,,,,,,,,,,,,,,,0.024847399967256933,61.208551199990325,61.208551199990325,61.208551199990325,,,,None,y,0.14545539999380708,,,,,,,,,,,,,,,,,,,,,,,,,,,,258382,001,2023-06-06_15h51.08.833,Pilot_online_tryings,2022.2.5,59.82224417423577,
WhatL2_uns.csv,directory_online_WHAT_L2_uns.csv,What_UnsyncL2_testdirs.csv,WhatL2_unsync.wav,du,0:4,orange,Online_whatL2//aDU0.none.wav,none,,0,0,0,1,0,18,18,22,0,3,3,0,,,,,,,,,,,,,,,,,,,,,,,,,,,,,,,,,,,,,,,,,,,,,,,,,,,,,,,,,,,,,0.013188200013246387,61.38005619996693,61.38005619996693,61.38005619996693,,,,None,y,0.1651875000097789,,,,,,,,,,,,,,,,,,,,,,,,,,,,258382,001,2023-06-06_15h51.08.833,Pilot_online_tryings,2022.2.5,59.82224417423577,
WhatL2_uns.csv,directory_online_WHAT_L2_uns.csv,What_UnsyncL2_testdirs.csv,WhatL2_unsync.wav,du,0:4,orange,,,,0,0,0,1,0,18,18,22,,,,,,,,,,,,,,,,,,,,,,,,,,,,,,,,,,,,,,,,,,,,,,,,,,,,,,,,,,,,,,,,,,,,,,,,,,,,,,,,,,,,,,,,,,,,,,,,,,,,,,258382,001,2023-06-06_15h51.08.833,Pilot_online_tryings,2022.2.5,59.82224417423577,
WhatL2_uns.csv,directory_online_WHAT_L2_uns.csv,What_UnsyncL2_testdirs.csv,WhatL2_unsync.wav,cha,76:80,blue,Online_whatL2//cCHA15.none.wav,none,,0,0,0,1,0,19,19,29,0,0,0,3,,,,,,,,,,,,,,,,,,,,,,,,,,,,,,,,,,,,,,,,,,,,,,,,,,,,,,,,,,,61.62471199996071,61.62471199996071,0.04651379998540506,61.62471199996071,61.62471199996071,61.62471199996071,,,,None,y,0.12912510003661737,,,,,,,,,,,,,,,,,,,,,,,,,,,,258382,001,2023-06-06_15h51.08.833,Pilot_online_tryings,2022.2.5,59.82224417423577,
WhatL2_uns.csv,directory_online_WHAT_L2_uns.csv,What_UnsyncL2_testdirs.csv,WhatL2_unsync.wav,cha,76:80,blue,Online_whatL2//cCHA13.1332.wav,1332.0,,0,0,0,1,0,19,19,29,0,1,1,1,,,,,,,,,,,,,,,,,,,,,,,,,,,,,,,,,,,,,,,,,,,,,,,,,,,,,,,,,,,,,0.025383599975612015,61.799317299970426,61.799317299970426,61.799317299970426,,,,None,y,0.14694979996420443,,,,,,,,,,,,,,,,,,,,,,,,,,,,258382,001,2023-06-06_15h51.08.833,Pilot_online_tryings,2022.2.5,59.82224417423577,
WhatL2_uns.csv,directory_online_WHAT_L2_uns.csv,What_UnsyncL2_testdirs.csv,WhatL2_unsync.wav,cha,76:80,blue,Online_whatL2//cCHA14.none.wav,none,,0,0,0,1,0,19,19,29,0,2,2,2,,,,,,,,,,,,,,,,,,,,,,,,,,,,,,,,,,,,,,,,,,,,,,,,,,,,,,,,,,,,,0.024927599995862693,61.988632900000084,61.988632900000084,61.988632900000084,,,,None,y,0.16658329998608679,,,,,,,,,,,,,,,,,,,,,,,,,,,,258382,001,2023-06-06_15h51.08.833,Pilot_online_tryings,2022.2.5,59.82224417423577,
WhatL2_uns.csv,directory_online_WHAT_L2_uns.csv,What_UnsyncL2_testdirs.csv,WhatL2_unsync.wav,cha,76:80,blue,Online_whatL2//cCHA12.222.wav,222.0,,0,0,0,1,0,19,19,29,0,3,3,0,,,,,,,,,,,,,,,,,,,,,,,,,,,,,,,,,,,,,,,,,,,,,,,,,,,,,,,,,,,,,0.047363399993628263,62.21343349997187,62.21343349997187,62.21343349997187,,,,None,y,0.10003930004313588,,,,,,,,,,,,,,,,,,,,,,,,,,,,258382,001,2023-06-06_15h51.08.833,Pilot_online_tryings,2022.2.5,59.82224417423577,
WhatL2_uns.csv,directory_online_WHAT_L2_uns.csv,What_UnsyncL2_testdirs.csv,WhatL2_unsync.wav,cha,76:80,blue,,,,0,0,0,1,0,19,19,29,,,,,,,,,,,,,,,,,,,,,,,,,,,,,,,,,,,,,,,,,,,,,,,,,,,,,,,,,,,,,,,,,,,,,,,,,,,,,,,,,,,,,,,,,,,,,,,,,,,,,,258382,001,2023-06-06_15h51.08.833,Pilot_online_tryings,2022.2.5,59.82224417423577,
WhatL2_uns.csv,directory_online_WHAT_L2_uns.csv,What_UnsyncL2_testdirs.csv,WhatL2_unsync.wav,cha,88:92,blue,Online_whatL2//cCHA25.none.wav,none,,0,0,0,1,0,20,20,11,0,0,0,1,,,,,,,,,,,,,,,,,,,,,,,,,,,,,,,,,,,,,,,,,,,,,,,,,,,,,,,,,,,62.385736599972006,62.385736599972006,0.05495129997143522,62.385736599972006,62.385736599972006,62.385736599972006,,,,None,y,0.13585910003166646,,,,,,,,,,,,,,,,,,,,,,,,,,,,258382,001,2023-06-06_15h51.08.833,Pilot_online_tryings,2022.2.5,59.82224417423577,
WhatL2_uns.csv,directory_online_WHAT_L2_uns.csv,What_UnsyncL2_testdirs.csv,WhatL2_unsync.wav,cha,88:92,blue,Online_whatL2//cCHA24.1332.wav,1332.0,,0,0,0,1,0,20,20,11,0,1,1,0,,,,,,,,,,,,,,,,,,,,,,,,,,,,,,,,,,,,,,,,,,,,,,,,,,,,,,,,,,,,,0.014178799989167601,62.54387469997164,62.54387469997164,62.54387469997164,,,,None,y,0.1537121000001207,,,,,,,,,,,,,,,,,,,,,,,,,,,,258382,001,2023-06-06_15h51.08.833,Pilot_online_tryings,2022.2.5,59.82224417423577,
WhatL2_uns.csv,directory_online_WHAT_L2_uns.csv,What_UnsyncL2_testdirs.csv,WhatL2_unsync.wav,cha,88:92,blue,Online_whatL2//cCHA27.none.wav,none,,0,0,0,1,0,20,20,11,0,2,2,3,,,,,,,,,,,,,,,,,,,,,,,,,,,,,,,,,,,,,,,,,,,,,,,,,,,,,,,,,,,,,0.02657089999411255,62.740121399983764,62.740121399983764,62.740121399983764,,,,None,y,0.14973389997612685,,,,,,,,,,,,,,,,,,,,,,,,,,,,258382,001,2023-06-06_15h51.08.833,Pilot_online_tryings,2022.2.5,59.82224417423577,
WhatL2_uns.csv,directory_online_WHAT_L2_uns.csv,What_UnsyncL2_testdirs.csv,WhatL2_unsync.wav,cha,88:92,blue,Online_whatL2//cCHA26.none.wav,none,,0,0,0,1,0,20,20,11,0,3,3,2,,,,,,,,,,,,,,,,,,,,,,,,,,,,,,,,,,,,,,,,,,,,,,,,,,,,,,,,,,,,,0.050274599983822554,62.96088349999627,62.96088349999627,62.96088349999627,,,,None,y,0.10491569997975603,,,,,,,,,,,,,,,,,,,,,,,,,,,,258382,001,2023-06-06_15h51.08.833,Pilot_online_tryings,2022.2.5,59.82224417423577,
WhatL2_uns.csv,directory_online_WHAT_L2_uns.csv,What_UnsyncL2_testdirs.csv,WhatL2_unsync.wav,cha,88:92,blue,,,,0,0,0,1,0,20,20,11,,,,,,,,,,,,,,,,,,,,,,,,,,,,,,,,,,,,,,,,,,,,,,,,,,,,,,,,,,,,,,,,,,,,,,,,,,,,,,,,,,,,,,,,,,,,,,,,,,,,,,258382,001,2023-06-06_15h51.08.833,Pilot_online_tryings,2022.2.5,59.82224417423577,
WhatL2_uns.csv,directory_online_WHAT_L2_uns.csv,What_UnsyncL2_testdirs.csv,WhatL2_unsync.wav,si,120:124,green,Online_whatL2//dSI27.0.wav,0.0,,0,0,0,1,0,21,21,4,0,0,0,3,,,,,,,,,,,,,,,,,,,,,,,,,,,,,,,,,,,,,,,,,,,,,,,,,,,,,,,,,,,63.14397169998847,63.14397169998847,0.054753199976403266,63.14397169998847,63.14397169998847,63.14397169998847,,,,None,y,0.11353630002122372,,,,,,,,,,,,,,,,,,,,,,,,,,,,258382,001,2023-06-06_15h51.08.833,Pilot_online_tryings,2022.2.5,59.82224417423577,
WhatL2_uns.csv,directory_online_WHAT_L2_uns.csv,What_UnsyncL2_testdirs.csv,WhatL2_unsync.wav,si,120:124,green,Online_whatL2//dSI25.none.wav,none,,0,0,0,1,0,21,21,4,0,1,1,1,,,,,,,,,,,,,,,,,,,,,,,,,,,,,,,,,,,,,,,,,,,,,,,,,,,,,,,,,,,,,0.015843799978028983,63.295859100006055,63.295859100006055,63.295859100006055,,,,None,y,0.13816990004852414,,,,,,,,,,,,,,,,,,,,,,,,,,,,258382,001,2023-06-06_15h51.08.833,Pilot_online_tryings,2022.2.5,59.82224417423577,
WhatL2_uns.csv,directory_online_WHAT_L2_uns.csv,What_UnsyncL2_testdirs.csv,WhatL2_unsync.wav,si,120:124,green,Online_whatL2//dSI24.444.wav,444.0,,0,0,0,1,0,21,21,4,0,2,2,0,,,,,,,,,,,,,,,,,,,,,,,,,,,,,,,,,,,,,,,,,,,,,,,,,,,,,,,,,,,,,0.00811169994994998,63.45555409998633,63.45555409998633,63.45555409998633,,,,None,y,0.18599240004550666,,,,,,,,,,,,,,,,,,,,,,,,,,,,258382,001,2023-06-06_15h51.08.833,Pilot_online_tryings,2022.2.5,59.82224417423577,
WhatL2_uns.csv,directory_online_WHAT_L2_uns.csv,What_UnsyncL2_testdirs.csv,WhatL2_unsync.wav,si,120:124,green,Online_whatL2//dSI26.none.wav,none,,0,0,0,1,0,21,21,4,0,3,3,2,,,,,,,,,,,,,,,,,,,,,,,,,,,,,,,,,,,,,,,,,,,,,,,,,,,,,,,,,,,,,0.024327300023287535,63.67546279996168,63.67546279996168,63.67546279996168,,,,None,y,0.14271770004415885,,,,,,,,,,,,,,,,,,,,,,,,,,,,258382,001,2023-06-06_15h51.08.833,Pilot_online_tryings,2022.2.5,59.82224417423577,
WhatL2_uns.csv,directory_online_WHAT_L2_uns.csv,What_UnsyncL2_testdirs.csv,WhatL2_unsync.wav,si,120:124,green,,,,0,0,0,1,0,21,21,4,,,,,,,,,,,,,,,,,,,,,,,,,,,,,,,,,,,,,,,,,,,,,,,,,,,,,,,,,,,,,,,,,,,,,,,,,,,,,,,,,,,,,,,,,,,,,,,,,,,,,,258382,001,2023-06-06_15h51.08.833,Pilot_online_tryings,2022.2.5,59.82224417423577,
WhatL2_uns.csv,directory_online_WHAT_L2_uns.csv,What_UnsyncL2_testdirs.csv,WhatL2_unsync.wav,si,108:112,green,Online_whatL2//dSI14.none.wav,none,,0,0,0,1,0,22,22,13,0,0,0,2,,,,,,,,,,,,,,,,,,,,,,,,,,,,,,,,,,,,,,,,,,,,,,,,,,,,,,,,,,,63.90869319997728,63.90869319997728,0.06430210004327819,63.90869319997728,63.90869319997728,63.90869319997728,,,,None,y,0.10092930000973865,,,,,,,,,,,,,,,,,,,,,,,,,,,,258382,001,2023-06-06_15h51.08.833,Pilot_online_tryings,2022.2.5,59.82224417423577,
WhatL2_uns.csv,directory_online_WHAT_L2_uns.csv,What_UnsyncL2_testdirs.csv,WhatL2_unsync.wav,si,108:112,green,Online_whatL2//dSI13.1110.wav,1110.0,,0,0,0,1,0,22,22,13,0,1,1,1,,,,,,,,,,,,,,,,,,,,,,,,,,,,,,,,,,,,,,,,,,,,,,,,,,,,,,,,,,,,,0.021998399985022843,64.05313049996039,64.05313049996039,64.05313049996039,,,,None,y,0.1495732999756001,,,,,,,,,,,,,,,,,,,,,,,,,,,,258382,001,2023-06-06_15h51.08.833,Pilot_online_tryings,2022.2.5,59.82224417423577,
WhatL2_uns.csv,directory_online_WHAT_L2_uns.csv,What_UnsyncL2_testdirs.csv,WhatL2_unsync.wav,si,108:112,green,Online_whatL2//dSI15.1998.wav,1998.0,,0,0,0,1,0,22,22,13,0,2,2,3,,,,,,,,,,,,,,,,,,,,,,,,,,,,,,,,,,,,,,,,,,,,,,,,,,,,,,,,,,,,,0.01713639998342842,64.24014359997818,64.24014359997818,64.24014359997818,,,,None,y,0.1538482999894768,,,,,,,,,,,,,,,,,,,,,,,,,,,,258382,001,2023-06-06_15h51.08.833,Pilot_online_tryings,2022.2.5,59.82224417423577,
WhatL2_uns.csv,directory_online_WHAT_L2_uns.csv,What_UnsyncL2_testdirs.csv,WhatL2_unsync.wav,si,108:112,green,Online_whatL2//dSI12.none.wav,none,,0,0,0,1,0,22,22,13,0,3,3,0,,,,,,,,,,,,,,,,,,,,,,,,,,,,,,,,,,,,,,,,,,,,,,,,,,,,,,,,,,,,,0.006313899997621775,64.42312309995759,64.42312309995759,64.42312309995759,,,,None,y,0.17919950000941753,,,,,,,,,,,,,,,,,,,,,,,,,,,,258382,001,2023-06-06_15h51.08.833,Pilot_online_tryings,2022.2.5,59.82224417423577,
WhatL2_uns.csv,directory_online_WHAT_L2_uns.csv,What_UnsyncL2_testdirs.csv,WhatL2_unsync.wav,si,108:112,green,,,,0,0,0,1,0,22,22,13,,,,,,,,,,,,,,,,,,,,,,,,,,,,,,,,,,,,,,,,,,,,,,,,,,,,,,,,,,,,,,,,,,,,,,,,,,,,,,,,,,,,,,,,,,,,,,,,,,,,,,258382,001,2023-06-06_15h51.08.833,Pilot_online_tryings,2022.2.5,59.82224417423577,
WhatL2_uns.csv,directory_online_WHAT_L2_uns.csv,What_UnsyncL2_testdirs.csv,WhatL2_unsync.wav,du,28:32,orange,Online_whatL2//aDU29.1776.wav,1776.0,,0,0,0,1,0,23,23,30,0,0,0,1,,,,,,,,,,,,,,,,,,,,,,,,,,,,,,,,,,,,,,,,,,,,,,,,,,,,,,,,,,,64.66822709998814,64.66822709998814,0.04503889998886734,64.66822709998814,64.66822709998814,64.66822709998814,,,,None,y,0.12594900000840425,,,,,,,,,,,,,,,,,,,,,,,,,,,,258382,001,2023-06-06_15h51.08.833,Pilot_online_tryings,2022.2.5,59.82224417423577,
WhatL2_uns.csv,directory_online_WHAT_L2_uns.csv,What_UnsyncL2_testdirs.csv,WhatL2_unsync.wav,du,28:32,orange,Online_whatL2//aDU28.none.wav,none,,0,0,0,1,0,23,23,30,0,1,1,0,,,,,,,,,,,,,,,,,,,,,,,,,,,,,,,,,,,,,,,,,,,,,,,,,,,,,,,,,,,,,0.01969220000319183,64.8348267999827,64.8348267999827,64.8348267999827,,,,None,y,0.15092549996916205,,,,,,,,,,,,,,,,,,,,,,,,,,,,258382,001,2023-06-06_15h51.08.833,Pilot_online_tryings,2022.2.5,59.82224417423577,
WhatL2_uns.csv,directory_online_WHAT_L2_uns.csv,What_UnsyncL2_testdirs.csv,WhatL2_unsync.wav,du,28:32,orange,Online_whatL2//aDU31.1776.wav,1776.0,,0,0,0,1,0,23,23,30,0,2,2,3,,,,,,,,,,,,,,,,,,,,,,,,,,,,,,,,,,,,,,,,,,,,,,,,,,,,,,,,,,,,,0.014466800028458238,65.0145932000014,65.0145932000014,65.0145932000014,,,,None,y,0.355219200020656,,,,,,,,,,,,,,,,,,,,,,,,,,,,258382,001,2023-06-06_15h51.08.833,Pilot_online_tryings,2022.2.5,59.82224417423577,
WhatL2_uns.csv,directory_online_WHAT_L2_uns.csv,What_UnsyncL2_testdirs.csv,WhatL2_unsync.wav,du,28:32,orange,Online_whatL2//aDU30.1110.wav,1110.0,,0,0,0,1,0,23,23,30,0,3,3,2,,,,,,,,,,,,,,,,,,,,,,,,,,,,,,,,,,,,,,,,,,,,,,,,,,,,,,,,,,,,,0.038448600040283054,65.4286953000119,65.4286953000119,65.4286953000119,,,,None,y,0.1491772000445053,,,,,,,,,,,,,,,,,,,,,,,,,,,,258382,001,2023-06-06_15h51.08.833,Pilot_online_tryings,2022.2.5,59.82224417423577,
WhatL2_uns.csv,directory_online_WHAT_L2_uns.csv,What_UnsyncL2_testdirs.csv,WhatL2_unsync.wav,du,28:32,orange,,,,0,0,0,1,0,23,23,30,,,,,,,,,,,,,,,,,,,,,,,,,,,,,,,,,,,,,,,,,,,,,,,,,,,,,,,,,,,,,,,,,,,,,,,,,,,,,,,,,,,,,,,,,,,,,,,,,,,,,,258382,001,2023-06-06_15h51.08.833,Pilot_online_tryings,2022.2.5,59.82224417423577,
WhatL2_uns.csv,directory_online_WHAT_L2_uns.csv,What_UnsyncL2_testdirs.csv,WhatL2_unsync.wav,cha,68:72,blue,Online_whatL2//cCHA7.1110.wav,1110.0,,0,0,0,1,0,24,24,16,0,0,0,3,,,,,,,,,,,,,,,,,,,,,,,,,,,,,,,,,,,,,,,,,,,,,,,,,,,,,,,,,,,65.67836459999671,65.67836459999671,0.05624310002895072,65.67836459999671,65.67836459999671,65.67836459999671,,,,None,y,0.05956690001767129,,,,,,,,,,,,,,,,,,,,,,,,,,,,258382,001,2023-06-06_15h51.08.833,Pilot_online_tryings,2022.2.5,59.82224417423577,
WhatL2_uns.csv,directory_online_WHAT_L2_uns.csv,What_UnsyncL2_testdirs.csv,WhatL2_unsync.wav,cha,68:72,blue,Online_whatL2//cCHA6.444.wav,444.0,,0,0,0,1,0,24,24,16,0,1,1,2,,,,,,,,,,,,,,,,,,,,,,,,,,,,,,,,,,,,,,,,,,,,,,,,,,,,,,,,,,,,,0.05052859999705106,65.80652639997425,65.80652639997425,65.80652639997425,,,,None,y,0.1398732999805361,,,,,,,,,,,,,,,,,,,,,,,,,,,,258382,001,2023-06-06_15h51.08.833,Pilot_online_tryings,2022.2.5,59.82224417423577,
WhatL2_uns.csv,directory_online_WHAT_L2_uns.csv,What_UnsyncL2_testdirs.csv,WhatL2_unsync.wav,cha,68:72,blue,Online_whatL2//cCHA5.none.wav,none,,0,0,0,1,0,24,24,16,0,2,2,1,,,,,,,,,,,,,,,,,,,,,,,,,,,,,,,,,,,,,,,,,,,,,,,,,,,,,,,,,,,,,0.06552150001516566,66.03282550000586,66.03282550000586,66.03282550000586,,,,None,y,0.12135199998738244,,,,,,,,,,,,,,,,,,,,,,,,,,,,258382,001,2023-06-06_15h51.08.833,Pilot_online_tryings,2022.2.5,59.82224417423577,
WhatL2_uns.csv,directory_online_WHAT_L2_uns.csv,What_UnsyncL2_testdirs.csv,WhatL2_unsync.wav,cha,68:72,blue,Online_whatL2//cCHA4.none.wav,none,,0,0,0,1,0,24,24,16,0,3,3,0,,,,,,,,,,,,,,,,,,,,,,,,,,,,,,,,,,,,,,,,,,,,,,,,,,,,,,,,,,,,,0.035440600011497736,66.20206250000047,66.20206250000047,66.20206250000047,,,,None,y,0.12810069997794926,,,,,,,,,,,,,,,,,,,,,,,,,,,,258382,001,2023-06-06_15h51.08.833,Pilot_online_tryings,2022.2.5,59.82224417423577,
WhatL2_uns.csv,directory_online_WHAT_L2_uns.csv,What_UnsyncL2_testdirs.csv,WhatL2_unsync.wav,cha,68:72,blue,,,,0,0,0,1,0,24,24,16,,,,,,,,,,,,,,,,,,,,,,,,,,,,,,,,,,,,,,,,,,,,,,,,,,,,,,,,,,,,,,,,,,,,,,,,,,,,,,,,,,,,,,,,,,,,,,,,,,,,,,258382,001,2023-06-06_15h51.08.833,Pilot_online_tryings,2022.2.5,59.82224417423577,
WhatL2_uns.csv,directory_online_WHAT_L2_uns.csv,What_UnsyncL2_testdirs.csv,WhatL2_unsync.wav,si,100:104,green,Online_whatL2//dSI6.222.wav,222.0,,0,0,0,1,0,25,25,28,0,0,0,2,,,,,,,,,,,,,,,,,,,,,,,,,,,,,,,,,,,,,,,,,,,,,,,,,,,,,,,,,,,66.38413550000405,66.38413550000405,0.028933599998708814,66.38413550000405,66.38413550000405,66.38413550000405,,,,None,y,0.13747989997500554,,,,,,,,,,,,,,,,,,,,,,,,,,,,258382,001,2023-06-06_15h51.08.833,Pilot_online_tryings,2022.2.5,59.82224417423577,
WhatL2_uns.csv,directory_online_WHAT_L2_uns.csv,What_UnsyncL2_testdirs.csv,WhatL2_unsync.wav,si,100:104,green,Online_whatL2//dSI5.222.wav,222.0,,0,0,0,1,0,25,25,28,0,1,1,1,,,,,,,,,,,,,,,,,,,,,,,,,,,,,,,,,,,,,,,,,,,,,,,,,,,,,,,,,,,,,0.026777699997182935,66.55935559998034,66.55935559998034,66.55935559998034,,,,None,y,0.15490160003537312,,,,,,,,,,,,,,,,,,,,,,,,,,,,258382,001,2023-06-06_15h51.08.833,Pilot_online_tryings,2022.2.5,59.82224417423577,
WhatL2_uns.csv,directory_online_WHAT_L2_uns.csv,What_UnsyncL2_testdirs.csv,WhatL2_unsync.wav,si,100:104,green,Online_whatL2//dSI4.none.wav,none,,0,0,0,1,0,25,25,28,0,2,2,0,,,,,,,,,,,,,,,,,,,,,,,,,,,,,,,,,,,,,,,,,,,,,,,,,,,,,,,,,,,,,0.02936250000493601,66.76331989996834,66.76331989996834,66.76331989996834,,,,None,y,0.14236480003455654,,,,,,,,,,,,,,,,,,,,,,,,,,,,258382,001,2023-06-06_15h51.08.833,Pilot_online_tryings,2022.2.5,59.82224417423577,
WhatL2_uns.csv,directory_online_WHAT_L2_uns.csv,What_UnsyncL2_testdirs.csv,WhatL2_unsync.wav,si,100:104,green,Online_whatL2//dSI7.none.wav,none,,0,0,0,1,0,25,25,28,0,3,3,3,,,,,,,,,,,,,,,,,,,,,,,,,,,,,,,,,,,,,,,,,,,,,,,,,,,,,,,,,,,,,0.015908699948340654,66.93273329996737,66.93273329996737,66.93273329996737,,,,None,y,0.18140530004166067,,,,,,,,,,,,,,,,,,,,,,,,,,,,258382,001,2023-06-06_15h51.08.833,Pilot_online_tryings,2022.2.5,59.82224417423577,
WhatL2_uns.csv,directory_online_WHAT_L2_uns.csv,What_UnsyncL2_testdirs.csv,WhatL2_unsync.wav,si,100:104,green,,,,0,0,0,1,0,25,25,28,,,,,,,,,,,,,,,,,,,,,,,,,,,,,,,,,,,,,,,,,,,,,,,,,,,,,,,,,,,,,,,,,,,,,,,,,,,,,,,,,,,,,,,,,,,,,,,,,,,,,,258382,001,2023-06-06_15h51.08.833,Pilot_online_tryings,2022.2.5,59.82224417423577,
WhatL2_uns.csv,directory_online_WHAT_L2_uns.csv,What_UnsyncL2_testdirs.csv,WhatL2_unsync.wav,cha,92:96,blue,Online_whatL2//cCHA29.none.wav,none,,0,0,0,1,0,26,26,2,0,0,0,1,,,,,,,,,,,,,,,,,,,,,,,,,,,,,,,,,,,,,,,,,,,,,,,,,,,,,,,,,,,67.18471379997209,67.18471379997209,0.04421600000932813,67.18471379997209,67.18471379997209,67.18471379997209,,,,None,y,0.12095599999884143,,,,,,,,,,,,,,,,,,,,,,,,,,,,258382,001,2023-06-06_15h51.08.833,Pilot_online_tryings,2022.2.5,59.82224417423577,
WhatL2_uns.csv,directory_online_WHAT_L2_uns.csv,What_UnsyncL2_testdirs.csv,WhatL2_unsync.wav,cha,92:96,blue,Online_whatL2//cCHA31.none.wav,none,,0,0,0,1,0,26,26,2,0,1,1,3,,,,,,,,,,,,,,,,,,,,,,,,,,,,,,,,,,,,,,,,,,,,,,,,,,,,,,,,,,,,,0.018793799972627312,67.33589499996742,67.33589499996742,67.33589499996742,,,,None,y,0.14741669996874407,,,,,,,,,,,,,,,,,,,,,,,,,,,,258382,001,2023-06-06_15h51.08.833,Pilot_online_tryings,2022.2.5,59.82224417423577,
WhatL2_uns.csv,directory_online_WHAT_L2_uns.csv,What_UnsyncL2_testdirs.csv,WhatL2_unsync.wav,cha,92:96,blue,Online_whatL2//cCHA30.1332.wav,1332.0,,0,0,0,1,0,26,26,2,0,2,2,2,,,,,,,,,,,,,,,,,,,,,,,,,,,,,,,,,,,,,,,,,,,,,,,,,,,,,,,,,,,,,0.0077443000045605,67.50970539997797,67.50970539997797,67.50970539997797,,,,None,y,0.18036019999999553,,,,,,,,,,,,,,,,,,,,,,,,,,,,258382,001,2023-06-06_15h51.08.833,Pilot_online_tryings,2022.2.5,59.82224417423577,
WhatL2_uns.csv,directory_online_WHAT_L2_uns.csv,What_UnsyncL2_testdirs.csv,WhatL2_unsync.wav,cha,92:96,blue,Online_whatL2//cCHA28.1332.wav,1332.0,,0,0,0,1,0,26,26,2,0,3,3,0,,,,,,,,,,,,,,,,,,,,,,,,,,,,,,,,,,,,,,,,,,,,,,,,,,,,,,,,,,,,,0.030766099982429296,67.7317858999595,67.7317858999595,67.7317858999595,,,,None,y,0.14977349998662248,,,,,,,,,,,,,,,,,,,,,,,,,,,,258382,001,2023-06-06_15h51.08.833,Pilot_online_tryings,2022.2.5,59.82224417423577,
WhatL2_uns.csv,directory_online_WHAT_L2_uns.csv,What_UnsyncL2_testdirs.csv,WhatL2_unsync.wav,cha,92:96,blue,,,,0,0,0,1,0,26,26,2,,,,,,,,,,,,,,,,,,,,,,,,,,,,,,,,,,,,,,,,,,,,,,,,,,,,,,,,,,,,,,,,,,,,,,,,,,,,,,,,,,,,,,,,,,,,,,,,,,,,,,258382,001,2023-06-06_15h51.08.833,Pilot_online_tryings,2022.2.5,59.82224417423577,
WhatL2_uns.csv,directory_online_WHAT_L2_uns.csv,What_UnsyncL2_testdirs.csv,WhatL2_unsync.wav,du,4:8,orange,Online_whatL2//aDU5.none.wav,none,,0,0,0,1,0,27,27,17,0,0,0,1,,,,,,,,,,,,,,,,,,,,,,,,,,,,,,,,,,,,,,,,,,,,,,,,,,,,,,,,,,,67.95847889996367,67.95847889996367,0.052299799979664385,67.95847889996367,67.95847889996367,67.95847889996367,,,,None,y,0.1155628000269644,,,,,,,,,,,,,,,,,,,,,,,,,,,,258382,001,2023-06-06_15h51.08.833,Pilot_online_tryings,2022.2.5,59.82224417423577,
WhatL2_uns.csv,directory_online_WHAT_L2_uns.csv,What_UnsyncL2_testdirs.csv,WhatL2_unsync.wav,du,4:8,orange,Online_whatL2//aDU7.none.wav,none,,0,0,0,1,0,27,27,17,0,1,1,3,,,,,,,,,,,,,,,,,,,,,,,,,,,,,,,,,,,,,,,,,,,,,,,,,,,,,,,,,,,,,0.028712900006212294,68.11399019998498,68.11399019998498,68.11399019998498,,,,None,y,0.1357605999801308,,,,,,,,,,,,,,,,,,,,,,,,,,,,258382,001,2023-06-06_15h51.08.833,Pilot_online_tryings,2022.2.5,59.82224417423577,
WhatL2_uns.csv,directory_online_WHAT_L2_uns.csv,What_UnsyncL2_testdirs.csv,WhatL2_unsync.wav,du,4:8,orange,Online_whatL2//aDU6.none.wav,none,,0,0,0,1,0,27,27,17,0,2,2,2,,,,,,,,,,,,,,,,,,,,,,,,,,,,,,,,,,,,,,,,,,,,,,,,,,,,,,,,,,,,,0.02204910002183169,68.29370049998397,68.29370049998397,68.29370049998397,,,,None,y,0.14830000000074506,,,,,,,,,,,,,,,,,,,,,,,,,,,,258382,001,2023-06-06_15h51.08.833,Pilot_online_tryings,2022.2.5,59.82224417423577,
WhatL2_uns.csv,directory_online_WHAT_L2_uns.csv,What_UnsyncL2_testdirs.csv,WhatL2_unsync.wav,du,4:8,orange,Online_whatL2//aDU4.none.wav,none,,0,0,0,1,0,27,27,17,0,3,3,0,,,,,,,,,,,,,,,,,,,,,,,,,,,,,,,,,,,,,,,,,,,,,,,,,,,,,,,,,,,,,0.011306800006423146,68.46931049996056,68.46931049996056,68.46931049996056,,,,None,y,0.11722970003029332,,,,,,,,,,,,,,,,,,,,,,,,,,,,258382,001,2023-06-06_15h51.08.833,Pilot_online_tryings,2022.2.5,59.82224417423577,
WhatL2_uns.csv,directory_online_WHAT_L2_uns.csv,What_UnsyncL2_testdirs.csv,WhatL2_unsync.wav,du,4:8,orange,,,,0,0,0,1,0,27,27,17,,,,,,,,,,,,,,,,,,,,,,,,,,,,,,,,,,,,,,,,,,,,,,,,,,,,,,,,,,,,,,,,,,,,,,,,,,,,,,,,,,,,,,,,,,,,,,,,,,,,,,258382,001,2023-06-06_15h51.08.833,Pilot_online_tryings,2022.2.5,59.82224417423577,
WhatL2_uns.csv,directory_online_WHAT_L2_uns.csv,What_UnsyncL2_testdirs.csv,WhatL2_unsync.wav,fe,32:36,red,Online_whatL2//bFE0.0.wav,0.0,,0,0,0,1,0,28,28,19,0,0,0,0,,,,,,,,,,,,,,,,,,,,,,,,,,,,,,,,,,,,,,,,,,,,,,,,,,,,,,,,,,,68.67107290000422,68.67107290000422,0.05215959995985031,68.67107290000422,68.67107290000422,68.67107290000422,,,,None,y,0.10685250000096858,,,,,,,,,,,,,,,,,,,,,,,,,,,,258382,001,2023-06-06_15h51.08.833,Pilot_online_tryings,2022.2.5,59.82224417423577,
WhatL2_uns.csv,directory_online_WHAT_L2_uns.csv,What_UnsyncL2_testdirs.csv,WhatL2_unsync.wav,fe,32:36,red,Online_whatL2//bFE1.0.wav,0.0,,0,0,0,1,0,28,28,19,0,1,1,1,,,,,,,,,,,,,,,,,,,,,,,,,,,,,,,,,,,,,,,,,,,,,,,,,,,,,,,,,,,,,0.024531900009606034,68.81334990001051,68.81334990001051,68.81334990001051,,,,None,y,0.1400850999634713,,,,,,,,,,,,,,,,,,,,,,,,,,,,258382,001,2023-06-06_15h51.08.833,Pilot_online_tryings,2022.2.5,59.82224417423577,
WhatL2_uns.csv,directory_online_WHAT_L2_uns.csv,What_UnsyncL2_testdirs.csv,WhatL2_unsync.wav,fe,32:36,red,Online_whatL2//bFE2.888.wav,888.0,,0,0,0,1,0,28,28,19,0,2,2,2,,,,,,,,,,,,,,,,,,,,,,,,,,,,,,,,,,,,,,,,,,,,,,,,,,,,,,,,,,,,,0.00724950002040714,68.97769199998584,68.97769199998584,68.97769199998584,,,,None,y,0.1523948999820277,,,,,,,,,,,,,,,,,,,,,,,,,,,,258382,001,2023-06-06_15h51.08.833,Pilot_online_tryings,2022.2.5,59.82224417423577,
WhatL2_uns.csv,directory_online_WHAT_L2_uns.csv,What_UnsyncL2_testdirs.csv,WhatL2_unsync.wav,fe,32:36,red,Online_whatL2//bFE3.0.wav,0.0,,0,0,0,1,0,28,28,19,0,3,3,3,,,,,,,,,,,,,,,,,,,,,,,,,,,,,,,,,,,,,,,,,,,,,,,,,,,,,,,,,,,,,0.02060779999010265,69.17337410000619,69.17337410000619,69.17337410000619,,,,None,y,0.1490025999955833,,,,,,,,,,,,,,,,,,,,,,,,,,,,258382,001,2023-06-06_15h51.08.833,Pilot_online_tryings,2022.2.5,59.82224417423577,
WhatL2_uns.csv,directory_online_WHAT_L2_uns.csv,What_UnsyncL2_testdirs.csv,WhatL2_unsync.wav,fe,32:36,red,,,,0,0,0,1,0,28,28,19,,,,,,,,,,,,,,,,,,,,,,,,,,,,,,,,,,,,,,,,,,,,,,,,,,,,,,,,,,,,,,,,,,,,,,,,,,,,,,,,,,,,,,,,,,,,,,,,,,,,,,258382,001,2023-06-06_15h51.08.833,Pilot_online_tryings,2022.2.5,59.82224417423577,
WhatL2_uns.csv,directory_online_WHAT_L2_uns.csv,What_UnsyncL2_testdirs.csv,WhatL2_unsync.wav,si,116:120,green,Online_whatL2//dSI23.none.wav,none,,0,0,0,1,0,29,29,12,0,0,0,3,,,,,,,,,,,,,,,,,,,,,,,,,,,,,,,,,,,,,,,,,,,,,,,,,,,,,,,,,,,69.38530159997754,69.38530159997754,0.044730300025548786,69.38530159997754,69.38530159997754,69.38530159997754,,,,None,y,0.12936010002158582,,,,,,,,,,,,,,,,,,,,,,,,,,,,258382,001,2023-06-06_15h51.08.833,Pilot_online_tryings,2022.2.5,59.82224417423577,
WhatL2_uns.csv,directory_online_WHAT_L2_uns.csv,What_UnsyncL2_testdirs.csv,WhatL2_unsync.wav,si,116:120,green,Online_whatL2//dSI20.none.wav,none,,0,0,0,1,0,29,29,12,0,1,1,0,,,,,,,,,,,,,,,,,,,,,,,,,,,,,,,,,,,,,,,,,,,,,,,,,,,,,,,,,,,,,0.018455200013704598,69.55486759997439,69.55486759997439,69.55486759997439,,,,None,y,0.1507887999759987,,,,,,,,,,,,,,,,,,,,,,,,,,,,258382,001,2023-06-06_15h51.08.833,Pilot_online_tryings,2022.2.5,59.82224417423577,
WhatL2_uns.csv,directory_online_WHAT_L2_uns.csv,What_UnsyncL2_testdirs.csv,WhatL2_unsync.wav,si,116:120,green,Online_whatL2//dSI21.444.wav,444.0,,0,0,0,1,0,29,29,12,0,2,2,1,,,,,,,,,,,,,,,,,,,,,,,,,,,,,,,,,,,,,,,,,,,,,,,,,,,,,,,,,,,,,0.01707569998688996,69.74082830001134,69.74082830001134,69.74082830001134,,,,None,y,0.1564471999881789,,,,,,,,,,,,,,,,,,,,,,,,,,,,258382,001,2023-06-06_15h51.08.833,Pilot_online_tryings,2022.2.5,59.82224417423577,
WhatL2_uns.csv,directory_online_WHAT_L2_uns.csv,What_UnsyncL2_testdirs.csv,WhatL2_unsync.wav,si,116:120,green,Online_whatL2//dSI22.1776.wav,1776.0,,0,0,0,1,0,29,29,12,0,3,3,2,,,,,,,,,,,,,,,,,,,,,,,,,,,,,,,,,,,,,,,,,,,,,,,,,,,,,,,,,,,,,0.014890599995851517,69.93343420000747,69.93343420000747,69.93343420000747,,,,None,y,0.1560829000081867,,,,,,,,,,,,,,,,,,,,,,,,,,,,258382,001,2023-06-06_15h51.08.833,Pilot_online_tryings,2022.2.5,59.82224417423577,
WhatL2_uns.csv,directory_online_WHAT_L2_uns.csv,What_UnsyncL2_testdirs.csv,WhatL2_unsync.wav,si,116:120,green,,,,0,0,0,1,0,29,29,12,,,,,,,,,,,,,,,,,,,,,,,,,,,,,,,,,,,,,,,,,,,,,,,,,,,,,,,,,,,,,,,,,,,,,,,,,,,,,,,,,,,,,,,,,,,,,,,,,,,,,,258382,001,2023-06-06_15h51.08.833,Pilot_online_tryings,2022.2.5,59.82224417423577,
WhatL2_uns.csv,directory_online_WHAT_L2_uns.csv,What_UnsyncL2_testdirs.csv,WhatL2_unsync.wav,fe,56:60,red,Online_whatL2//bFE27.none.wav,none,,0,0,0,1,0,30,30,7,0,0,0,3,,,,,,,,,,,,,,,,,,,,,,,,,,,,,,,,,,,,,,,,,,,,,,,,,,,,,,,,,,,70.16361499996856,70.16361499996856,0.044413099996745586,70.16361499996856,70.16361499996856,70.16361499996856,,,,None,y,0.10243339999578893,,,,,,,,,,,,,,,,,,,,,,,,,,,,258382,001,2023-06-06_15h51.08.833,Pilot_online_tryings,2022.2.5,59.82224417423577,
WhatL2_uns.csv,directory_online_WHAT_L2_uns.csv,What_UnsyncL2_testdirs.csv,WhatL2_unsync.wav,fe,56:60,red,Online_whatL2//bFE26.none.wav,none,,0,0,0,1,0,30,30,7,0,1,1,2,,,,,,,,,,,,,,,,,,,,,,,,,,,,,,,,,,,,,,,,,,,,,,,,,,,,,,,,,,,,,0.023761500022374094,70.3168289999594,70.3168289999594,70.3168289999594,,,,None,y,0.15645500004757196,,,,,,,,,,,,,,,,,,,,,,,,,,,,258382,001,2023-06-06_15h51.08.833,Pilot_online_tryings,2022.2.5,59.82224417423577,
WhatL2_uns.csv,directory_online_WHAT_L2_uns.csv,What_UnsyncL2_testdirs.csv,WhatL2_unsync.wav,fe,56:60,red,Online_whatL2//bFE25.0.wav,0.0,,0,0,0,1,0,30,30,7,0,2,2,1,,,,,,,,,,,,,,,,,,,,,,,,,,,,,,,,,,,,,,,,,,,,,,,,,,,,,,,,,,,,,0.020057599991559982,70.50981159997173,70.50981159997173,70.50981159997173,,,,None,y,0.15627859998494387,,,,,,,,,,,,,,,,,,,,,,,,,,,,258382,001,2023-06-06_15h51.08.833,Pilot_online_tryings,2022.2.5,59.82224417423577,
WhatL2_uns.csv,directory_online_WHAT_L2_uns.csv,What_UnsyncL2_testdirs.csv,WhatL2_unsync.wav,fe,56:60,red,Online_whatL2//bFE24.0.wav,0.0,,0,0,0,1,0,30,30,7,0,3,3,0,,,,,,,,,,,,,,,,,,,,,,,,,,,,,,,,,,,,,,,,,,,,,,,,,,,,,,,,,,,,,0.010878200002480298,70.70443099999102,70.70443099999102,70.70443099999102,,,,None,y,0.15300650004064664,,,,,,,,,,,,,,,,,,,,,,,,,,,,258382,001,2023-06-06_15h51.08.833,Pilot_online_tryings,2022.2.5,59.82224417423577,
WhatL2_uns.csv,directory_online_WHAT_L2_uns.csv,What_UnsyncL2_testdirs.csv,WhatL2_unsync.wav,fe,56:60,red,,,,0,0,0,1,0,30,30,7,,,,,,,,,,,,,,,,,,,,,,,,,,,,,,,,,,,,,,,,,,,,,,,,,,,,,,,,,,,,,,,,,,,,,,,,,,,,,,,,,,,,,,,,,,,,,,,,,,,,,,258382,001,2023-06-06_15h51.08.833,Pilot_online_tryings,2022.2.5,59.82224417423577,
WhatL2_uns.csv,directory_online_WHAT_L2_uns.csv,What_UnsyncL2_testdirs.csv,WhatL2_unsync.wav,cha,64:68,blue,Online_whatL2//cCHA3.444.wav,444.0,,0,0,0,1,0,31,31,14,0,0,0,3,,,,,,,,,,,,,,,,,,,,,,,,,,,,,,,,,,,,,,,,,,,,,,,,,,,,,,,,,,,70.92715050000697,70.92715050000697,0.047372000000905246,70.92715050000697,70.92715050000697,70.92715050000697,,,,None,y,0.10749159997794777,,,,,,,,,,,,,,,,,,,,,,,,,,,,258382,001,2023-06-06_15h51.08.833,Pilot_online_tryings,2022.2.5,59.82224417423577,
WhatL2_uns.csv,directory_online_WHAT_L2_uns.csv,What_UnsyncL2_testdirs.csv,WhatL2_unsync.wav,cha,64:68,blue,Online_whatL2//cCHA2.1110.wav,1110.0,,0,0,0,1,0,31,31,14,0,1,1,2,,,,,,,,,,,,,,,,,,,,,,,,,,,,,,,,,,,,,,,,,,,,,,,,,,,,,,,,,,,,,0.010559600021224469,71.06899850000627,71.06899850000627,71.06899850000627,,,,None,y,0.15730130003066733,,,,,,,,,,,,,,,,,,,,,,,,,,,,258382,001,2023-06-06_15h51.08.833,Pilot_online_tryings,2022.2.5,59.82224417423577,
WhatL2_uns.csv,directory_online_WHAT_L2_uns.csv,What_UnsyncL2_testdirs.csv,WhatL2_unsync.wav,cha,64:68,blue,Online_whatL2//cCHA1.1332.wav,1332.0,,0,0,0,1,0,31,31,14,0,2,2,1,,,,,,,,,,,,,,,,,,,,,,,,,,,,,,,,,,,,,,,,,,,,,,,,,,,,,,,,,,,,,0.025519900023937225,71.27823890000582,71.27823890000582,71.27823890000582,,,,None,y,0.1393755999743007,,,,,,,,,,,,,,,,,,,,,,,,,,,,258382,001,2023-06-06_15h51.08.833,Pilot_online_tryings,2022.2.5,59.82224417423577,
WhatL2_uns.csv,directory_online_WHAT_L2_uns.csv,What_UnsyncL2_testdirs.csv,WhatL2_unsync.wav,cha,64:68,blue,Online_whatL2//cCHA0.1332.wav,1332.0,,0,0,0,1,0,31,31,14,0,3,3,0,,,,,,,,,,,,,,,,,,,,,,,,,,,,,,,,,,,,,,,,,,,,,,,,,,,,,,,,,,,,,0.006971599999815226,71.44684579997556,71.44684579997556,71.44684579997556,,,,None,y,0.162505499960389,,,,,,,,,,,,,,,,,,,,,,,,,,,,258382,001,2023-06-06_15h51.08.833,Pilot_online_tryings,2022.2.5,59.82224417423577,
WhatL2_uns.csv,directory_online_WHAT_L2_uns.csv,What_UnsyncL2_testdirs.csv,WhatL2_unsync.wav,cha,64:68,blue,,,,0,0,0,1,0,31,31,14,,,,,,,,,,,,,,,,,,,,,,,,,,,,,,,,,,,,,,,,,,,,,,,,,,,,,,,,,,,,,,,,,,,,,,,,,,,,,,,,,,,,,,,,,,,,,,,,,,,,,,258382,001,2023-06-06_15h51.08.833,Pilot_online_tryings,2022.2.5,59.82224417423577,
WhatL2_uns.csv,directory_online_WHAT_L2_uns.csv,What_UnsyncL2_testdirs.csv,WhatL2_unsync.wav,,,,,,testWhatL2Uns//time_viol.r2.s2.0.wav,0,0,0,1,,,,,,,,,0,0,0,23,,,,,,,,,,,,,,,,,,,,,,,,,,,,,,,,,,,,,,,,,,,,,,,,,,,,,,,,,,,,,,,,,,,71.63236709998455,71.63236709998455,space,2.4743161000078544,74.13474969996605,74.13474969996605,space,0.6598859000368975,74.87509980000323,74.87509980000323,75.01706562998588,y,1.0228690999792889,75.91845130000729,75.91845130000729,z,0.8448395000305027,76.83229569997638,76.83229569997638,76.83229569997638,76.83229569997638,2,0.170622400008142,,,,,258382,001,2023-06-06_15h51.08.833,Pilot_online_tryings,2022.2.5,59.82224417423577,
WhatL2_uns.csv,directory_online_WHAT_L2_uns.csv,What_UnsyncL2_testdirs.csv,WhatL2_unsync.wav,,,,,,testWhatL2Uns//r1.s2.2.wav,0,0,0,1,,,,,,,,,0,1,1,13,,,,,,,,,,,,,,,,,,,,,,,,,,,,,,,,,,,,,,,,,,,,,,,,,,,,,,,,,,,,,,,,,,,,,,,,,,,77.03870509995613,77.03870509995613,77.21922452996368,y,0.17131060000974685,77.23724769998807,77.23724769998807,z,0.1655380000011064,77.42021869996097,77.42021869996097,77.42021869996097,77.42021869996097,2,0.15796110004885122,,,,,258382,001,2023-06-06_15h51.08.833,Pilot_online_tryings,2022.2.5,59.82224417423577,
WhatL2_uns.csv,directory_online_WHAT_L2_uns.csv,What_UnsyncL2_testdirs.csv,WhatL2_unsync.wav,,,,,,testWhatL2Uns//time_viol.r1.s2.0.wav,0,0,0,1,,,,,,,,,0,2,2,21,,,,,,,,,,,,,,,,,,,,,,,,,,,,,,,,,,,,,,,,,,,,,,,,,,,,,,,,,,,,,,,,,,,,,,,,,,,77.62763419997646,77.62763419997646,77.8034003299952,y,0.14286849997006357,77.80371479998576,77.80371479998576,z,0.15949089999776334,77.98756909999065,77.98756909999065,77.98756909999065,77.98756909999065,2,0.15132280002580956,,,,,258382,001,2023-06-06_15h51.08.833,Pilot_online_tryings,2022.2.5,59.82224417423577,
WhatL2_uns.csv,directory_online_WHAT_L2_uns.csv,What_UnsyncL2_testdirs.csv,WhatL2_unsync.wav,,,,,,testWhatL2Uns//r2.s1.1.wav,0,0,0,1,,,,,,,,,0,3,3,15,,,,,,,,,,,,,,,,,,,,,,,,,,,,,,,,,,,,,,,,,,,,,,,,,,,,,,,,,,,,,,,,,,,,,,,,,,,78.18274469999596,78.18274469999596,,y,0.1312560000224039,78.33759549999377,78.33759549999377,z,0.16865130001679063,78.53825119999237,78.53825119999237,78.53825119999237,78.53825119999237,2,0.12804390001110733,,,,,258382,001,2023-06-06_15h51.08.833,Pilot_online_tryings,2022.2.5,59.82224417423577,
WhatL2_uns.csv,directory_online_WHAT_L2_uns.csv,What_UnsyncL2_testdirs.csv,WhatL2_unsync.wav,,,,,,testWhatL2Uns//time_viol.r1.s1.0.wav,0,0,0,1,,,,,,,,,0,4,4,20,,,,,,,,,,,,,,,,,,,,,,,,,,,,,,,,,,,,,,,,,,,,,,,,,,,,,,,,,,,,,,,,,,,,,,,,,,,78.71220979996724,78.71220979996724,,y,0.0982312000123784,78.83819659997243,78.83819659997243,z,0.16417730000102893,79.02178569999523,79.02178569999523,79.02178569999523,79.02178569999523,2,0.10918249998940155,,,,,258382,001,2023-06-06_15h51.08.833,Pilot_online_tryings,2022.2.5,59.82224417423577,
WhatL2_uns.csv,directory_online_WHAT_L2_uns.csv,What_UnsyncL2_testdirs.csv,WhatL2_unsync.wav,,,,,,testWhatL2Uns//r2.s2.1.wav,0,0,0,1,,,,,,,,,0,5,5,18,,,,,,,,,,,,,,,,,,,,,,,,,,,,,,,,,,,,,,,,,,,,,,,,,,,,,,,,,,,,,,,,,,,,,,,,,,,79.15894349996233,79.15894349996233,,y,0.10035429999697953,79.28865359997144,79.28865359997144,z,0.1301824999973178,79.43907339998987,79.43907339998987,79.43907339998987,79.43907339998987,2,0.09235089999856427,,,,,258382,001,2023-06-06_15h51.08.833,Pilot_online_tryings,2022.2.5,59.82224417423577,
WhatL2_uns.csv,directory_online_WHAT_L2_uns.csv,What_UnsyncL2_testdirs.csv,WhatL2_unsync.wav,,,,,,testWhatL2Uns//r2.s2.0.wav,0,0,0,1,,,,,,,,,0,6,6,17,,,,,,,,,,,,,,,,,,,,,,,,,,,,,,,,,,,,,,,,,,,,,,,,,,,,,,,,,,,,,,,,,,,,,,,,,,,79.60557069996139,79.60557069996139,,y,0.0685562000144273,79.7055520999711,79.7055520999711,z,0.09734360000584275,79.82259329996305,79.82259329996305,79.82259329996305,79.82259329996305,2,0.09304860001429915,,,,,258382,001,2023-06-06_15h51.08.833,Pilot_online_tryings,2022.2.5,59.82224417423577,
WhatL2_uns.csv,directory_online_WHAT_L2_uns.csv,What_UnsyncL2_testdirs.csv,WhatL2_unsync.wav,,,,,,testWhatL2Uns//r1.s1.2.wav,0,0,0,1,,,,,,,,,0,7,7,10,,,,,,,,,,,,,,,,,,,,,,,,,,,,,,,,,,,,,,,,,,,,,,,,,,,,,,,,,,,,,,,,,,,,,,,,,,,79.98666499997489,79.98666499997489,,y,0.03933770000003278,80.05589839996537,80.05589839996537,z,0.13143579999450594,80.20645499997772,80.20645499997772,80.20645499997772,80.20645499997772,2,0.09208149998448789,,,,,258382,001,2023-06-06_15h51.08.833,Pilot_online_tryings,2022.2.5,59.82224417423577,
WhatL2_uns.csv,directory_online_WHAT_L2_uns.csv,What_UnsyncL2_testdirs.csv,WhatL2_unsync.wav,,,,,,testWhatL2Uns//r2.s2.2.wav,0,0,0,1,,,,,,,,,0,8,8,19,,,,,,,,,,,,,,,,,,,,,,,,,,,,,,,,,,,,,,,,,,,,,,,,,,,,,,,,,,,,,,,,,,,,,,,,,,,80.38253369997256,80.38253369997256,,y,0.013163299998268485,80.42298179998761,80.42298179998761,z,0.14889510005014017,80.59001599997282,80.59001599997282,80.59001599997282,80.59001599997282,2,0.061354100005701184,,,,,258382,001,2023-06-06_15h51.08.833,Pilot_online_tryings,2022.2.5,59.82224417423577,
WhatL2_uns.csv,directory_online_WHAT_L2_uns.csv,What_UnsyncL2_testdirs.csv,WhatL2_unsync.wav,,,,,,testWhatL2Uns//cat_viol.r2.s2.0.wav,0,0,0,1,,,,,,,,,0,9,9,3,,,,,,,,,,,,,,,,,,,,,,,,,,,,,,,,,,,,,,,,,,,,,,,,,,,,,,,,,,,,,,,,,,,,,,,,,,,80.68605769996066,80.68605769996066,,y,0.06036220001988113,80.77344979997724,80.77344979997724,z,0.14971010002773255,80.94043019996025,80.94043019996025,80.94043019996025,80.94043019996025,2,0.0947798999841325,,,,,258382,001,2023-06-06_15h51.08.833,Pilot_online_tryings,2022.2.5,59.82224417423577,
WhatL2_uns.csv,directory_online_WHAT_L2_uns.csv,What_UnsyncL2_testdirs.csv,WhatL2_unsync.wav,,,,,,testWhatL2Uns//dep_viol.r1.s2.0.wav,0,0,0,1,,,,,,,,,0,10,10,5,,,,,,,,,,,,,,,,,,,,,,,,,,,,,,,,,,,,,,,,,,,,,,,,,,,,,,,,,,,,,,,,,,,,,,,,,,,81.08357600000454,81.08357600000454,,y,0.030659500043839216,81.14039059996139,81.14039059996139,z,0.1659131000051275,81.32412619999377,81.32412619999377,81.32412619999377,81.32412619999377,2,0.11156520002987236,,,,,258382,001,2023-06-06_15h51.08.833,Pilot_online_tryings,2022.2.5,59.82224417423577,
WhatL2_uns.csv,directory_online_WHAT_L2_uns.csv,What_UnsyncL2_testdirs.csv,WhatL2_unsync.wav,,,,,,testWhatL2Uns//dep_viol.r2.s2.0.wav,0,0,0,1,,,,,,,,,0,11,11,7,,,,,,,,,,,,,,,,,,,,,,,,,,,,,,,,,,,,,,,,,,,,,,,,,,,,,,,,,,,,,,,,,,,,,,,,,,,81.467419099994,81.467419099994,,y,0.09442000003764406,81.590755000012,81.590755000012,z,0.13164709997363389,81.7412058999762,81.7412058999762,81.7412058999762,81.7412058999762,2,0.09323130000848323,,,,,258382,001,2023-06-06_15h51.08.833,Pilot_online_tryings,2022.2.5,59.82224417423577,
WhatL2_uns.csv,directory_online_WHAT_L2_uns.csv,What_UnsyncL2_testdirs.csv,WhatL2_unsync.wav,,,,,,testWhatL2Uns//r1.s2.1.wav,0,0,0,1,,,,,,,,,0,12,12,12,,,,,,,,,,,,,,,,,,,,,,,,,,,,,,,,,,,,,,,,,,,,,,,,,,,,,,,,,,,,,,,,,,,,,,,,,,,81.86447799997404,81.86447799997404,,y,0.08270840003388003,81.97460209997371,81.97460209997371,z,0.11640459997579455,82.10855529998662,82.10855529998662,82.10855529998662,82.10855529998662,2,0.11010239995084703,,,,,258382,001,2023-06-06_15h51.08.833,Pilot_online_tryings,2022.2.5,59.82224417423577,
WhatL2_uns.csv,directory_online_WHAT_L2_uns.csv,What_UnsyncL2_testdirs.csv,WhatL2_unsync.wav,,,,,,testWhatL2Uns//r2.s1.0.wav,0,0,0,1,,,,,,,,,0,13,13,14,,,,,,,,,,,,,,,,,,,,,,,,,,,,,,,,,,,,,,,,,,,,,,,,,,,,,,,,,,,,,,,,,,,,,,,,,,,82.25683019997086,82.25683019997086,,y,0.08932350005488843,82.37490190000972,82.37490190000972,z,0.11606309999478981,82.50873929995578,82.50873929995578,82.50873929995578,82.50873929995578,2,0.09475759998895228,,,,,258382,001,2023-06-06_15h51.08.833,Pilot_online_tryings,2022.2.5,59.82224417423577,
WhatL2_uns.csv,directory_online_WHAT_L2_uns.csv,What_UnsyncL2_testdirs.csv,WhatL2_unsync.wav,,,,,,testWhatL2Uns//time_viol.r2.s1.0.wav,0,0,0,1,,,,,,,,,0,14,14,22,,,,,,,,,,,,,,,,,,,,,,,,,,,,,,,,,,,,,,,,,,,,,,,,,,,,,,,,,,,,,,,,,,,,,,,,,,,82.64547260000836,82.64547260000836,,y,0.08565959997940809,82.75864680000814,82.75864680000814,z,0.11608850001357496,82.89256760000717,82.89256760000717,82.89256760000717,82.89256760000717,2,0.12538159999530762,,,,,258382,001,2023-06-06_15h51.08.833,Pilot_online_tryings,2022.2.5,59.82224417423577,
WhatL2_uns.csv,directory_online_WHAT_L2_uns.csv,What_UnsyncL2_testdirs.csv,WhatL2_unsync.wav,,,,,,testWhatL2Uns//cat_viol.r1.s1.0.wav,0,0,0,1,,,,,,,,,0,15,15,0,,,,,,,,,,,,,,,,,,,,,,,,,,,,,,,,,,,,,,,,,,,,,,,,,,,,,,,,,,,,,,,,,,,,,,,,,,,83.04841809999198,83.04841809999198,,y,0.08140419999836013,83.15897759998916,83.15897759998916,z,0.16400990000693128,83.3428146999795,83.3428146999795,83.3428146999795,83.3428146999795,2,0.12395829998422414,,,,,258382,001,2023-06-06_15h51.08.833,Pilot_online_tryings,2022.2.5,59.82224417423577,
WhatL2_uns.csv,directory_online_WHAT_L2_uns.csv,What_UnsyncL2_testdirs.csv,WhatL2_unsync.wav,,,,,,testWhatL2Uns//cat_viol.r2.s1.0.wav,0,0,0,1,,,,,,,,,0,16,16,2,,,,,,,,,,,,,,,,,,,,,,,,,,,,,,,,,,,,,,,,,,,,,,,,,,,,,,,,,,,,,,,,,,,,,,,,,,,83.49901049997425,83.49901049997425,,y,0.11095599998952821,83.64299620001111,83.64299620001111,z,0.12961790000554174,83.79333660000702,83.79333660000702,83.79333660000702,83.79333660000702,2,0.13660349999554455,,,,,258382,001,2023-06-06_15h51.08.833,Pilot_online_tryings,2022.2.5,59.82224417423577,
WhatL2_uns.csv,directory_online_WHAT_L2_uns.csv,What_UnsyncL2_testdirs.csv,WhatL2_unsync.wav,,,,,,testWhatL2Uns//r1.s1.1.wav,0,0,0,1,,,,,,,,,0,17,17,9,,,,,,,,,,,,,,,,,,,,,,,,,,,,,,,,,,,,,,,,,,,,,,,,,,,,,,,,,,,,,,,,,,,,,,,,,,,83.96596050000517,83.96596050000517,,y,0.07662449998315424,84.05997279996518,84.05997279996518,z,0.1422012000111863,84.22708569996757,84.22708569996757,84.22708569996757,84.22708569996757,2,0.1190181000274606,,,,,258382,001,2023-06-06_15h51.08.833,Pilot_online_tryings,2022.2.5,59.82224417423577,
WhatL2_uns.csv,directory_online_WHAT_L2_uns.csv,What_UnsyncL2_testdirs.csv,WhatL2_unsync.wav,,,,,,testWhatL2Uns//cat_viol.r1.s2.0.wav,0,0,0,1,,,,,,,,,0,18,18,1,,,,,,,,,,,,,,,,,,,,,,,,,,,,,,,,,,,,,,,,,,,,,,,,,,,,,,,,,,,,,,,,,,,,,,,,,,,84.38354909996269,84.38354909996269,,y,0.10655740002403036,84.51036529999692,84.51036529999692,z,0.14104219997534528,84.67754149995744,84.67754149995744,84.67754149995744,84.67754149995744,2,0.11667310004122555,,,,,258382,001,2023-06-06_15h51.08.833,Pilot_online_tryings,2022.2.5,59.82224417423577,
WhatL2_uns.csv,directory_online_WHAT_L2_uns.csv,What_UnsyncL2_testdirs.csv,WhatL2_unsync.wav,,,,,,testWhatL2Uns//r1.s2.0.wav,0,0,0,1,,,,,,,,,0,19,19,11,,,,,,,,,,,,,,,,,,,,,,,,,,,,,,,,,,,,,,,,,,,,,,,,,,,,,,,,,,,,,,,,,,,,,,,,,,,84.82178379996913,84.82178379996913,,y,0.10093030001735315,84.94412860000739,84.94412860000739,z,0.10828799998853356,85.07782790000783,85.07782790000783,85.07782790000783,85.07782790000783,2,0.10044389998074621,,,,,258382,001,2023-06-06_15h51.08.833,Pilot_online_tryings,2022.2.5,59.82224417423577,
WhatL2_uns.csv,directory_online_WHAT_L2_uns.csv,What_UnsyncL2_testdirs.csv,WhatL2_unsync.wav,,,,,,testWhatL2Uns//dep_viol.r2.s1.0.wav,0,0,0,1,,,,,,,,,0,20,20,6,,,,,,,,,,,,,,,,,,,,,,,,,,,,,,,,,,,,,,,,,,,,,,,,,,,,,,,,,,,,,,,,,,,,,,,,,,,85.20477079995908,85.20477079995908,,y,0.08640600001672283,85.31113059999188,85.31113059999188,z,0.10857310000574216,85.44502669997746,85.44502669997746,85.44502669997746,85.44502669997746,2,0.10120119998464361,,,,,258382,001,2023-06-06_15h51.08.833,Pilot_online_tryings,2022.2.5,59.82224417423577,
WhatL2_uns.csv,directory_online_WHAT_L2_uns.csv,What_UnsyncL2_testdirs.csv,WhatL2_unsync.wav,,,,,,testWhatL2Uns//dep_viol.r1.s1.0.wav,0,0,0,1,,,,,,,,,0,21,21,4,,,,,,,,,,,,,,,,,,,,,,,,,,,,,,,,,,,,,,,,,,,,,,,,,,,,,,,,,,,,,,,,,,,,,,,,,,,85.59254059998784,85.59254059998784,,y,0.08133290003752336,85.69487050001044,85.69487050001044,z,0.09170750004705042,85.81196239998098,85.81196239998098,85.81196239998098,85.81196239998098,2,0.10241880000103265,,,,,258382,001,2023-06-06_15h51.08.833,Pilot_online_tryings,2022.2.5,59.82224417423577,
WhatL2_uns.csv,directory_online_WHAT_L2_uns.csv,What_UnsyncL2_testdirs.csv,WhatL2_unsync.wav,,,,,,testWhatL2Uns//r2.s1.2.wav,0,0,0,1,,,,,,,,,0,22,22,16,,,,,,,,,,,,,,,,,,,,,,,,,,,,,,,,,,,,,,,,,,,,,,,,,,,,,,,,,,,,,,,,,,,,,,,,,,,85.97049829998286,85.97049829998286,,y,0.03997320000780746,86.02858079998987,86.02858079998987,z,0.14213170000584796,86.19571669999277,86.19571669999277,86.19571669999277,86.19571669999277,2,0.13563360000262037,,,,,258382,001,2023-06-06_15h51.08.833,Pilot_online_tryings,2022.2.5,59.82224417423577,
WhatL2_uns.csv,directory_online_WHAT_L2_uns.csv,What_UnsyncL2_testdirs.csv,WhatL2_unsync.wav,,,,,,testWhatL2Uns//r1.s1.0.wav,0,0,0,1,,,,,,,,,0,23,23,8,,,,,,,,,,,,,,,,,,,,,,,,,,,,,,,,,,,,,,,,,,,,,,,,,,,,,,,,,,,,,,,,,,,,,,,,,,,86.37641629995778,86.37641629995778,,y,0.0017639000434428453,86.39793079998344,86.39793079998344,z,0.14008729998022318,86.5669576000073,86.5669576000073,86.5669576000073,86.5669576000073,2,0.14734219998354092,,,,,258382,001,2023-06-06_15h51.08.833,Pilot_online_tryings,2022.2.5,59.82224417423577,
WhatL2_uns.csv,directory_online_WHAT_L2_uns.csv,What_UnsyncL2_testdirs.csv,WhatL2_unsync.wav,,,,,,,0,0,0,1,,,,,,,,,,,,,,,,,,,,,,,,,,,,,,,,,,,,,,,,,,,,,,,,,,,,,,,,,,,,,,,,,,,,,,,,,,,,,,,,,,,,,,,,,,,,,,,,,,,,,,86.7459392999881,86.7459392999881,space,0.7690223999670707,258382,001,2023-06-06_15h51.08.833,Pilot_online_tryings,2022.2.5,59.82224417423577,
WhenL3_uns.csv,directory_online_whenL3_uns.csv,When_UnsyncL3_testdirs.csv,WhenL3_unsync.wav,mo,28:32,green,Online_whenL3//aMO31.none.wav,none,,0,1,1,2,0,0,0,17,0,0,0,3,,,,,,,,,,,,,,,,,,,,,,,,,,,,,,,,,,,,,,,,,,,,,,87.54751040000701,87.54751040000701,space,0.351337100029923,91.3183153197635,91.32544759998564,91.32544759998564,space,12.876598300004844,104.23090319999028,104.23090319999028,space,0.5322226999560371,104.8694642999908,104.8694642999908,0.04553569998824969,104.8694642999908,104.8694642999908,104.8694642999908,,,,None,y,0.7245911000063643,,,,,,,,,,,,,,,,,,,,,,,,,,,,258382,001,2023-06-06_15h51.08.833,Pilot_online_tryings,2022.2.5,59.82224417423577,
WhenL3_uns.csv,directory_online_whenL3_uns.csv,When_UnsyncL3_testdirs.csv,WhenL3_unsync.wav,mo,28:32,green,Online_whenL3//aMO29.444.wav,444.0,,0,1,1,2,0,0,0,17,0,1,1,1,,,,,,,,,,,,,,,,,,,,,,,,,,,,,,,,,,,,,,,,,,,,,,,,,,,,,,,,,,,,,0.013694900029804558,105.62098179996246,105.62098179996246,105.62098179996246,,,,None,y,0.16466599999694154,,,,,,,,,,,,,,,,,,,,,,,,,,,,258382,001,2023-06-06_15h51.08.833,Pilot_online_tryings,2022.2.5,59.82224417423577,
WhenL3_uns.csv,directory_online_whenL3_uns.csv,When_UnsyncL3_testdirs.csv,WhenL3_unsync.wav,mo,28:32,green,Online_whenL3//aMO30.444.wav,444.0,,0,1,1,2,0,0,0,17,0,2,2,2,,,,,,,,,,,,,,,,,,,,,,,,,,,,,,,,,,,,,,,,,,,,,,,,,,,,,,,,,,,,,0.013327299966476858,105.81960769998841,105.81960769998841,105.81960769998841,,,,None,y,0.1425611000158824,,,,,,,,,,,,,,,,,,,,,,,,,,,,258382,001,2023-06-06_15h51.08.833,Pilot_online_tryings,2022.2.5,59.82224417423577,
WhenL3_uns.csv,directory_online_whenL3_uns.csv,When_UnsyncL3_testdirs.csv,WhenL3_unsync.wav,mo,28:32,green,Online_whenL3//aMO28.222.wav,222.0,,0,1,1,2,0,0,0,17,0,3,3,0,,,,,,,,,,,,,,,,,,,,,,,,,,,,,,,,,,,,,,,,,,,,,,,,,,,,,,,,,,,,,0.022908899991307408,105.99744089995511,105.99744089995511,105.99744089995511,,,,None,y,0.12494599999627098,,,,,,,,,,,,,,,,,,,,,,,,,,,,258382,001,2023-06-06_15h51.08.833,Pilot_online_tryings,2022.2.5,59.82224417423577,
WhenL3_uns.csv,directory_online_whenL3_uns.csv,When_UnsyncL3_testdirs.csv,WhenL3_unsync.wav,mo,28:32,green,,,,0,1,1,2,0,0,0,17,,,,,,,,,,,,,,,,,,,,,,,,,,,,,,,,,,,,,,,,,,,,,,,,,,,,,,,,,,,,,,,,,,,,,,,,,,,,,,,,,,,,,,,,,,,,,,,,,,,,,,258382,001,2023-06-06_15h51.08.833,Pilot_online_tryings,2022.2.5,59.82224417423577,
WhenL3_uns.csv,directory_online_whenL3_uns.csv,When_UnsyncL3_testdirs.csv,WhenL3_unsync.wav,ji,116:120,blue,Online_whenL3//dJI14.1110.wav,1110.0,,0,1,1,2,0,1,1,0,0,0,0,2,,,,,,,,,,,,,,,,,,,,,,,,,,,,,,,,,,,,,,,,,,,,,,,,,,,,,,,,,,,106.17405430000508,106.17405430000508,0.028734599996823817,106.17405430000508,106.17405430000508,106.17405430000508,,,,None,y,0.10854449996259063,,,,,,,,,,,,,,,,,,,,,,,,,,,,258382,001,2023-06-06_15h51.08.833,Pilot_online_tryings,2022.2.5,59.82224417423577,
WhenL3_uns.csv,directory_online_whenL3_uns.csv,When_UnsyncL3_testdirs.csv,WhenL3_unsync.wav,ji,116:120,blue,Online_whenL3//dJI13.222.wav,222.0,,0,1,1,2,0,1,1,0,0,1,1,1,,,,,,,,,,,,,,,,,,,,,,,,,,,,,,,,,,,,,,,,,,,,,,,,,,,,,,,,,,,,,0.032015400007367134,106.33692199998768,106.33692199998768,106.33692199998768,,,,None,y,0.10457640001550317,,,,,,,,,,,,,,,,,,,,,,,,,,,,258382,001,2023-06-06_15h51.08.833,Pilot_online_tryings,2022.2.5,59.82224417423577,
WhenL3_uns.csv,directory_online_whenL3_uns.csv,When_UnsyncL3_testdirs.csv,WhenL3_unsync.wav,ji,116:120,blue,Online_whenL3//dJI15.none.wav,none,,0,1,1,2,0,1,1,0,0,2,2,3,,,,,,,,,,,,,,,,,,,,,,,,,,,,,,,,,,,,,,,,,,,,,,,,,,,,,,,,,,,,,0.015388300002086908,106.47300589998486,106.47300589998486,106.47300589998486,,,,None,y,0.12901170004624873,,,,,,,,,,,,,,,,,,,,,,,,,,,,258382,001,2023-06-06_15h51.08.833,Pilot_online_tryings,2022.2.5,59.82224417423577,
WhenL3_uns.csv,directory_online_whenL3_uns.csv,When_UnsyncL3_testdirs.csv,WhenL3_unsync.wav,ji,116:120,blue,Online_whenL3//dJI12.0.wav,0.0,,0,1,1,2,0,1,1,0,0,3,3,0,,,,,,,,,,,,,,,,,,,,,,,,,,,,,,,,,,,,,,,,,,,,,,,,,,,,,,,,,,,,,0.05564719997346401,106.6808012999827,106.6808012999827,106.6808012999827,,,,None,y,0.09724689996801317,,,,,,,,,,,,,,,,,,,,,,,,,,,,258382,001,2023-06-06_15h51.08.833,Pilot_online_tryings,2022.2.5,59.82224417423577,
WhenL3_uns.csv,directory_online_whenL3_uns.csv,When_UnsyncL3_testdirs.csv,WhenL3_unsync.wav,ji,116:120,blue,,,,0,1,1,2,0,1,1,0,,,,,,,,,,,,,,,,,,,,,,,,,,,,,,,,,,,,,,,,,,,,,,,,,,,,,,,,,,,,,,,,,,,,,,,,,,,,,,,,,,,,,,,,,,,,,,,,,,,,,,258382,001,2023-06-06_15h51.08.833,Pilot_online_tryings,2022.2.5,59.82224417423577,
WhenL3_uns.csv,directory_online_whenL3_uns.csv,When_UnsyncL3_testdirs.csv,WhenL3_unsync.wav,ga,80:84,red,Online_whenL3//cGA8.none.wav,none,,0,1,1,2,0,2,2,21,0,0,0,0,,,,,,,,,,,,,,,,,,,,,,,,,,,,,,,,,,,,,,,,,,,,,,,,,,,,,,,,,,,106.82703149999725,106.82703149999725,0.02744520001579076,106.82703149999725,106.82703149999725,106.82703149999725,,,,None,y,0.11062279995530844,,,,,,,,,,,,,,,,,,,,,,,,,,,,258382,001,2023-06-06_15h51.08.833,Pilot_online_tryings,2022.2.5,59.82224417423577,
WhenL3_uns.csv,directory_online_whenL3_uns.csv,When_UnsyncL3_testdirs.csv,WhenL3_unsync.wav,ga,80:84,red,Online_whenL3//cGA10.1776.wav,1776.0,,0,1,1,2,0,2,2,21,0,1,1,2,,,,,,,,,,,,,,,,,,,,,,,,,,,,,,,,,,,,,,,,,,,,,,,,,,,,,,,,,,,,,0.03560990002006292,106.99360280000838,106.99360280000838,106.99360280000838,,,,None,y,0.10448379995068535,,,,,,,,,,,,,,,,,,,,,,,,,,,,258382,001,2023-06-06_15h51.08.833,Pilot_online_tryings,2022.2.5,59.82224417423577,
WhenL3_uns.csv,directory_online_whenL3_uns.csv,When_UnsyncL3_testdirs.csv,WhenL3_unsync.wav,ga,80:84,red,Online_whenL3//cGA9.1332.wav,1332.0,,0,1,1,2,0,2,2,21,0,2,2,1,,,,,,,,,,,,,,,,,,,,,,,,,,,,,,,,,,,,,,,,,,,,,,,,,,,,,,,,,,,,,0.026549200003501028,107.13655229995493,107.13655229995493,107.13655229995493,,,,None,y,0.1381676000310108,,,,,,,,,,,,,,,,,,,,,,,,,,,,258382,001,2023-06-06_15h51.08.833,Pilot_online_tryings,2022.2.5,59.82224417423577,
WhenL3_uns.csv,directory_online_whenL3_uns.csv,When_UnsyncL3_testdirs.csv,WhenL3_unsync.wav,ga,80:84,red,Online_whenL3//cGA11.none.wav,none,,0,1,1,2,0,2,2,21,0,3,3,3,,,,,,,,,,,,,,,,,,,,,,,,,,,,,,,,,,,,,,,,,,,,,,,,,,,,,,,,,,,,,0.031391599972266704,107.32282090000808,107.32282090000808,107.32282090000808,,,,None,y,0.11098629998741671,,,,,,,,,,,,,,,,,,,,,,,,,,,,258382,001,2023-06-06_15h51.08.833,Pilot_online_tryings,2022.2.5,59.82224417423577,
WhenL3_uns.csv,directory_online_whenL3_uns.csv,When_UnsyncL3_testdirs.csv,WhenL3_unsync.wav,ga,80:84,red,,,,0,1,1,2,0,2,2,21,,,,,,,,,,,,,,,,,,,,,,,,,,,,,,,,,,,,,,,,,,,,,,,,,,,,,,,,,,,,,,,,,,,,,,,,,,,,,,,,,,,,,,,,,,,,,,,,,,,,,,258382,001,2023-06-06_15h51.08.833,Pilot_online_tryings,2022.2.5,59.82224417423577,
WhenL3_uns.csv,directory_online_whenL3_uns.csv,When_UnsyncL3_testdirs.csv,WhenL3_unsync.wav,ñe,64:68,orange,Online_whenL3//bÑE29.none.wav,none,,0,1,1,2,0,3,3,14,0,0,0,1,,,,,,,,,,,,,,,,,,,,,,,,,,,,,,,,,,,,,,,,,,,,,,,,,,,,,,,,,,,107.49156170000788,107.49156170000788,0.03785660001449287,107.49156170000788,107.49156170000788,107.49156170000788,,,,None,y,0.11919099994702265,,,,,,,,,,,,,,,,,,,,,,,,,,,,258382,001,2023-06-06_15h51.08.833,Pilot_online_tryings,2022.2.5,59.82224417423577,
WhenL3_uns.csv,directory_online_whenL3_uns.csv,When_UnsyncL3_testdirs.csv,WhenL3_unsync.wav,ñe,64:68,orange,Online_whenL3//bÑE30.none.wav,none,,0,1,1,2,0,3,3,14,0,1,1,2,,,,,,,,,,,,,,,,,,,,,,,,,,,,,,,,,,,,,,,,,,,,,,,,,,,,,,,,,,,,,0.02331879996927455,107.65100519999396,107.65100519999396,107.65100519999396,,,,None,y,0.13506900001084432,,,,,,,,,,,,,,,,,,,,,,,,,,,,258382,001,2023-06-06_15h51.08.833,Pilot_online_tryings,2022.2.5,59.82224417423577,
WhenL3_uns.csv,directory_online_whenL3_uns.csv,When_UnsyncL3_testdirs.csv,WhenL3_unsync.wav,ñe,64:68,orange,Online_whenL3//bÑE31.none.wav,none,,0,1,1,2,0,3,3,14,0,2,2,3,,,,,,,,,,,,,,,,,,,,,,,,,,,,,,,,,,,,,,,,,,,,,,,,,,,,,,,,,,,,,0.03194590000202879,107.84452149999561,107.84452149999561,107.84452149999561,,,,None,y,0.11895500001264736,,,,,,,,,,,,,,,,,,,,,,,,,,,,258382,001,2023-06-06_15h51.08.833,Pilot_online_tryings,2022.2.5,59.82224417423577,
WhenL3_uns.csv,directory_online_whenL3_uns.csv,When_UnsyncL3_testdirs.csv,WhenL3_unsync.wav,ñe,64:68,orange,Online_whenL3//bÑE28.none.wav,none,,0,1,1,2,0,3,3,14,0,3,3,0,,,,,,,,,,,,,,,,,,,,,,,,,,,,,,,,,,,,,,,,,,,,,,,,,,,,,,,,,,,,,0.03606200002832338,108.01312610000605,108.01312610000605,108.01312610000605,,,,None,y,0.12494070001412183,,,,,,,,,,,,,,,,,,,,,,,,,,,,258382,001,2023-06-06_15h51.08.833,Pilot_online_tryings,2022.2.5,59.82224417423577,
WhenL3_uns.csv,directory_online_whenL3_uns.csv,When_UnsyncL3_testdirs.csv,WhenL3_unsync.wav,ñe,64:68,orange,,,,0,1,1,2,0,3,3,14,,,,,,,,,,,,,,,,,,,,,,,,,,,,,,,,,,,,,,,,,,,,,,,,,,,,,,,,,,,,,,,,,,,,,,,,,,,,,,,,,,,,,,,,,,,,,,,,,,,,,,258382,001,2023-06-06_15h51.08.833,Pilot_online_tryings,2022.2.5,59.82224417423577,
WhenL3_uns.csv,directory_online_whenL3_uns.csv,When_UnsyncL3_testdirs.csv,WhenL3_unsync.wav,mo,12:16,green,Online_whenL3//aMO12.none.wav,none,,0,1,1,2,0,4,4,18,0,0,0,0,,,,,,,,,,,,,,,,,,,,,,,,,,,,,,,,,,,,,,,,,,,,,,,,,,,,,,,,,,,108.19567459996324,108.19567459996324,0.03190070000709966,108.19567459996324,108.19567459996324,108.19567459996324,,,,None,y,0.10234440001659095,,,,,,,,,,,,,,,,,,,,,,,,,,,,258382,001,2023-06-06_15h51.08.833,Pilot_online_tryings,2022.2.5,59.82224417423577,
WhenL3_uns.csv,directory_online_whenL3_uns.csv,When_UnsyncL3_testdirs.csv,WhenL3_unsync.wav,mo,12:16,green,Online_whenL3//aMO14.1110.wav,1110.0,,0,1,1,2,0,4,4,18,0,1,1,2,,,,,,,,,,,,,,,,,,,,,,,,,,,,,,,,,,,,,,,,,,,,,,,,,,,,,,,,,,,,,0.034522300004027784,108.34405279997736,108.34405279997736,108.34405279997736,,,,None,y,0.12977449997561052,,,,,,,,,,,,,,,,,,,,,,,,,,,,258382,001,2023-06-06_15h51.08.833,Pilot_online_tryings,2022.2.5,59.82224417423577,
WhenL3_uns.csv,directory_online_whenL3_uns.csv,When_UnsyncL3_testdirs.csv,WhenL3_unsync.wav,mo,12:16,green,Online_whenL3//aMO13.none.wav,none,,0,1,1,2,0,4,4,18,0,2,2,1,,,,,,,,,,,,,,,,,,,,,,,,,,,,,,,,,,,,,,,,,,,,,,,,,,,,,,,,,,,,,0.01652010000543669,108.51516650000121,108.51516650000121,108.51516650000121,,,,None,y,0.1352700999705121,,,,,,,,,,,,,,,,,,,,,,,,,,,,258382,001,2023-06-06_15h51.08.833,Pilot_online_tryings,2022.2.5,59.82224417423577,
WhenL3_uns.csv,directory_online_whenL3_uns.csv,When_UnsyncL3_testdirs.csv,WhenL3_unsync.wav,mo,12:16,green,Online_whenL3//aMO15.0.wav,0.0,,0,1,1,2,0,4,4,18,0,3,3,3,,,,,,,,,,,,,,,,,,,,,,,,,,,,,,,,,,,,,,,,,,,,,,,,,,,,,,,,,,,,,0.018943200004287064,108.67867519997526,108.67867519997526,108.67867519997526,,,,None,y,0.1468176000053063,,,,,,,,,,,,,,,,,,,,,,,,,,,,258382,001,2023-06-06_15h51.08.833,Pilot_online_tryings,2022.2.5,59.82224417423577,
WhenL3_uns.csv,directory_online_whenL3_uns.csv,When_UnsyncL3_testdirs.csv,WhenL3_unsync.wav,mo,12:16,green,,,,0,1,1,2,0,4,4,18,,,,,,,,,,,,,,,,,,,,,,,,,,,,,,,,,,,,,,,,,,,,,,,,,,,,,,,,,,,,,,,,,,,,,,,,,,,,,,,,,,,,,,,,,,,,,,,,,,,,,,258382,001,2023-06-06_15h51.08.833,Pilot_online_tryings,2022.2.5,59.82224417423577,
WhenL3_uns.csv,directory_online_whenL3_uns.csv,When_UnsyncL3_testdirs.csv,WhenL3_unsync.wav,mo,4:8,green,Online_whenL3//aMO7.0.wav,0.0,,0,1,1,2,0,5,5,5,0,0,0,3,,,,,,,,,,,,,,,,,,,,,,,,,,,,,,,,,,,,,,,,,,,,,,,,,,,,,,,,,,,108.87480599997798,108.87480599997798,0.031357600004412234,108.87480599997798,108.87480599997798,108.87480599997798,,,,None,y,0.12844400003086776,,,,,,,,,,,,,,,,,,,,,,,,,,,,258382,001,2023-06-06_15h51.08.833,Pilot_online_tryings,2022.2.5,59.82224417423577,
WhenL3_uns.csv,directory_online_whenL3_uns.csv,When_UnsyncL3_testdirs.csv,WhenL3_unsync.wav,mo,4:8,green,Online_whenL3//aMO6.1332.wav,1332.0,,0,1,1,2,0,5,5,5,0,1,1,2,,,,,,,,,,,,,,,,,,,,,,,,,,,,,,,,,,,,,,,,,,,,,,,,,,,,,,,,,,,,,0.026036700000986457,109.05309070000658,109.05309070000658,109.05309070000658,,,,None,y,0.10929120000218973,,,,,,,,,,,,,,,,,,,,,,,,,,,,258382,001,2023-06-06_15h51.08.833,Pilot_online_tryings,2022.2.5,59.82224417423577,
WhenL3_uns.csv,directory_online_whenL3_uns.csv,When_UnsyncL3_testdirs.csv,WhenL3_unsync.wav,mo,4:8,green,Online_whenL3//aMO4.none.wav,none,,0,1,1,2,0,5,5,5,0,2,2,0,,,,,,,,,,,,,,,,,,,,,,,,,,,,,,,,,,,,,,,,,,,,,,,,,,,,,,,,,,,,,0.028767600015271455,109.20774719998008,109.20774719998008,109.20774719998008,,,,None,y,0.13004679995356128,,,,,,,,,,,,,,,,,,,,,,,,,,,,258382,001,2023-06-06_15h51.08.833,Pilot_online_tryings,2022.2.5,59.82224417423577,
WhenL3_uns.csv,directory_online_whenL3_uns.csv,When_UnsyncL3_testdirs.csv,WhenL3_unsync.wav,mo,4:8,green,Online_whenL3//aMO5.none.wav,none,,0,1,1,2,0,5,5,5,0,3,3,1,,,,,,,,,,,,,,,,,,,,,,,,,,,,,,,,,,,,,,,,,,,,,,,,,,,,,,,,,,,,,0.01756140001816675,109.37890720000723,109.37890720000723,109.37890720000723,,,,None,y,0.1198374000377953,,,,,,,,,,,,,,,,,,,,,,,,,,,,258382,001,2023-06-06_15h51.08.833,Pilot_online_tryings,2022.2.5,59.82224417423577,
WhenL3_uns.csv,directory_online_whenL3_uns.csv,When_UnsyncL3_testdirs.csv,WhenL3_unsync.wav,mo,4:8,green,,,,0,1,1,2,0,5,5,5,,,,,,,,,,,,,,,,,,,,,,,,,,,,,,,,,,,,,,,,,,,,,,,,,,,,,,,,,,,,,,,,,,,,,,,,,,,,,,,,,,,,,,,,,,,,,,,,,,,,,,258382,001,2023-06-06_15h51.08.833,Pilot_online_tryings,2022.2.5,59.82224417423577,
WhenL3_uns.csv,directory_online_whenL3_uns.csv,When_UnsyncL3_testdirs.csv,WhenL3_unsync.wav,mo,20:24,green,Online_whenL3//aMO21.none.wav,none,,0,1,1,2,0,6,6,11,0,0,0,1,,,,,,,,,,,,,,,,,,,,,,,,,,,,,,,,,,,,,,,,,,,,,,,,,,,,,,,,,,,109.55072319996543,109.55072319996543,0.03849230002379045,109.55072319996543,109.55072319996543,109.55072319996543,,,,None,y,0.12356699997326359,,,,,,,,,,,,,,,,,,,,,,,,,,,,258382,001,2023-06-06_15h51.08.833,Pilot_online_tryings,2022.2.5,59.82224417423577,
