seq,online_dir,test_dir,audio_offline,cond,ord,colour,dirs,time,test,trials.thisRepN,trials.thisTrialN,trials.thisN,trials.thisIndex,Conj_unsync_online.thisRepN,Conj_unsync_online.thisTrialN,Conj_unsync_online.thisN,Conj_unsync_online.thisIndex,audio1.thisRepN,audio1.thisTrialN,audio1.thisN,audio1.thisIndex,Conj_unsync_test.thisRepN,Conj_unsync_test.thisTrialN,Conj_unsync_test.thisN,Conj_unsync_test.thisIndex,text_21.started,key_resp1.started,key_resp1.keys,key_resp1.rt,text_23.started,key_resp_6.started,key_resp_6.keys,key_resp_6.rt,text_26.started,key_resp_10.started,key_resp_10.keys,key_resp_10.rt,volume_set.started,key_ressp2.started,text_27.started,key_ressp2.keys,key_ressp2.rt,text_24.started,key_resp_9.started,key_resp_9.keys,key_resp_9.rt,text_37.started,key_resp_3.started,key_resp_3.keys,key_resp_3.rt,text_22.started,key_resp1_2.started,key_resp1_2.keys,key_resp1_2.rt,text_25.started,key_resp1_3.started,key_resp1_3.keys,key_resp1_3.rt,text_28.started,key_resp_11.started,key_resp_11.keys,key_resp_11.rt,text_29.started,key_resp_12.started,key_resp_12.keys,key_resp_12.rt,text_36.started,key_resp_18.started,key_resp_18.keys,key_resp_18.rt,learning.started,text_19.started,key_resp_7.started,key_resp_7.keys,key_resp_7.rt,text_31.started,key_resp1_4.started,key_resp1_4.keys,key_resp1_4.rt,text_2.started,text_2.stopped,seqs.started,text_13.started,syllable_catch.started,key_resp_16.started,syllable_catch.keys,key_resp_16.keys,key_resp_16.rt,text_12.started,key_resp4.started,key_resp4.keys,key_resp4.rt,text_14.started,key_resp_4.started,key_resp_4.keys,key_resp_4.rt,text_17.started,key_resp_17.started,test_sounds.started,text_17.stopped,key_resp_17.keys,key_resp_17.rt,text_18.started,Partz_no_partm.started,Partz_no_partm.keys,Partz_no_partm.rt,text_32.started,image_2.started,text_33.started,security_1_7.started,security_1_7.keys,security_1_7.rt,participant,session,date,expName,psychopyVersion,frameRate,
,,,,,,,,,,,,,,,,,,,,,,,,,,22.318170099984854,22.318170099984854,space,1.64697729999898,,,,,,,,,,,,,,,,,,,,,,,,,,,,,,,,,,,,,,,,,,,,,,,,,,,,,,,,,,,,,,,,,,,,,,,,,,,,,,,,,,,,283836,001,2023-06-06_12h17.49.206,Pilot_online_tryings,2022.2.5,59.919025426301914,
,,,,,,,,,,,,,,,,,,,,,,,,,,,,,,24.016660399967805,24.016660399967805,space,1.2121735999826342,,,,,,,,,,,,,,,,,,,,,,,,,,,,,,,,,,,,,,,,,,,,,,,,,,,,,,,,,,,,,,,,,,,,,,,,,,,,,,,,283836,001,2023-06-06_12h17.49.206,Pilot_online_tryings,2022.2.5,59.919025426301914,
,,,,,,,,,,,,,,,,,,,,,,,,,,,,,,,,,,25.25902259995928,25.25902259995928,space,4.769512800034136,,,,,,,,,,,,,,,,,,,,,,,,,,,,,,,,,,,,,,,,,,,,,,,,,,,,,,,,,,,,,,,,,,,,,,,,,,,,283836,001,2023-06-06_12h17.49.206,Pilot_online_tryings,2022.2.5,59.919025426301914,
,,,,,,,,,,,,,,,,,,,,,,,,,,,,,,,,,,,,,,30.0807976399723,30.084448100009467,30.084448100009467,space,0.856182599964086,,,,,,,,,,,,,,,,,,,,,,,,,,,,,,,,,,,,,,,,,,,,,,,,,,,,,,,,,,,,,,,,,,,,,,,283836,001,2023-06-06_12h17.49.206,Pilot_online_tryings,2022.2.5,59.919025426301914,
,,,,,,,,,,,,,,,,,,,,,,,,,,,,,,,,,,,,,,,,,,,30.963163500011433,30.963163500011433,space,0.5848102999734692,,,,,,,,,,,,,,,,,,,,,,,,,,,,,,,,,,,,,,,,,,,,,,,,,,,,,,,,,,,,,,,,,,,283836,001,2023-06-06_12h17.49.206,Pilot_online_tryings,2022.2.5,59.919025426301914,
,,,,,,,,,,,,,,,,,,,,,,,,,,,,,,,,,,,,,,,,,,,,,,,31.580928899988066,31.580928899988066,space,6.431649500038475,,,,,,,,,,,,,,,,,,,,,,,,,,,,,,,,,,,,,,,,,,,,,,,,,,,,,,,,,,,,,,,283836,001,2023-06-06_12h17.49.206,Pilot_online_tryings,2022.2.5,59.919025426301914,
,,,,,,,,,,,,,,,,,,,,,,,,,,,,,,,,,,,,,,,,,,,,,,,,,,,38.03799310000613,38.03799310000613,space,9.429595900001004,,,,,,,,,,,,,,,,,,,,,,,,,,,,,,,,,,,,,,,,,,,,,,,,,,,,,,,,,,,283836,001,2023-06-06_12h17.49.206,Pilot_online_tryings,2022.2.5,59.919025426301914,
,,,,,,,,,,,,,,,,,,,,,,,,,,,,,,,,,,,,,,,,,,,,,,,,,,,,,,,47.4984240999911,47.4984240999911,space,10.642520599998534,,,,,,,,,,,,,,,,,,,,,,,,,,,,,,,,,,,,,,,,,,,,,,,,,,,,,,,283836,001,2023-06-06_12h17.49.206,Pilot_online_tryings,2022.2.5,59.919025426301914,
,,,,,,,,,,,,,,,,,,,,,,,,,,,,,,,,,,,,,,,,,,,,,,,,,,,,,,,,,,,58.15808640001342,58.15808640001342,space,15.181764099979773,,,,,,,,,,,,,,,,,,,,,,,,,,,,,,,,,,,,,,,,,,,,,,,,,,,283836,001,2023-06-06_12h17.49.206,Pilot_online_tryings,2022.2.5,59.919025426301914,
,,,,,,,,,,,,,,,,,,,,,,,,,,,,,,,,,,,,,,,,,,,,,,,,,,,,,,,,,,,,,,,73.3551905999775,73.3551905999775,space,1.648638300015591,,,,,,,,,,,,,,,,,,,,,,,,,,,,,,,,,,,,,,,,,,,,,,,283836,001,2023-06-06_12h17.49.206,Pilot_online_tryings,2022.2.5,59.919025426301914,
ConjL4_syn.csv,directory_online_conj_L4_syn.csv,Test_Conj_SyncL4.csv,ConjL4_sync_norm.wav,pe,112:116,red,Online_conjL4_syn//dPE19.0.wav,0.0,,0,0,0,3,0,0,0,1,0,0,0,3,,,,,,,,,,,,,,,,,,,,,,,,,,,,,,,,,,,,,,,,,,,,,,75.02897439996013,75.02897439996013,space,10.488151700003073,86.35293390008155,86.41467219998594,86.41467219998594,space,2.9415890999953263,89.38868589996127,89.38868589996127,space,7.503478300001007,97.07204980001552,97.07204980001552,0.08301160001428798,97.07204980001552,97.07204980001552,97.07204980001552,None,y,2.0124187999754213,,,,,,,,,,,,,,,,,,,,,,,,,283836,001,2023-06-06_12h17.49.206,Pilot_online_tryings,2022.2.5,59.919025426301914,
ConjL4_syn.csv,directory_online_conj_L4_syn.csv,Test_Conj_SyncL4.csv,ConjL4_sync_norm.wav,pe,112:116,red,Online_conjL4_syn//dPE16.none.wav,none,,0,0,0,3,0,0,0,1,0,1,1,0,,,,,,,,,,,,,,,,,,,,,,,,,,,,,,,,,,,,,,,,,,,,,,,,,,,,,,,,,,,,,0.02078829996753484,99.15469509997638,99.15469509997638,99.15469509997638,None,y,0.12119500001426786,,,,,,,,,,,,,,,,,,,,,,,,,283836,001,2023-06-06_12h17.49.206,Pilot_online_tryings,2022.2.5,59.919025426301914,
ConjL4_syn.csv,directory_online_conj_L4_syn.csv,Test_Conj_SyncL4.csv,ConjL4_sync_norm.wav,pe,112:116,red,Online_conjL4_syn//dPE18.none.wav,none,,0,0,0,3,0,0,0,1,0,2,2,2,,,,,,,,,,,,,,,,,,,,,,,,,,,,,,,,,,,,,,,,,,,,,,,,,,,,,,,,,,,,,0.008678600017447025,99.2974904999719,99.2974904999719,99.2974904999719,None,y,0.1388507999945432,,,,,,,,,,,,,,,,,,,,,,,,,283836,001,2023-06-06_12h17.49.206,Pilot_online_tryings,2022.2.5,59.919025426301914,
ConjL4_syn.csv,directory_online_conj_L4_syn.csv,Test_Conj_SyncL4.csv,ConjL4_sync_norm.wav,pe,112:116,red,Online_conjL4_syn//dPE17.none.wav,none,,0,0,0,3,0,0,0,1,0,3,3,1,,,,,,,,,,,,,,,,,,,,,,,,,,,,,,,,,,,,,,,,,,,,,,,,,,,,,,,,,,,,,0.006855200044810772,99.46443819999695,99.46443819999695,99.46443819999695,None,y,0.13120529998559505,,,,,,,,,,,,,,,,,,,,,,,,,283836,001,2023-06-06_12h17.49.206,Pilot_online_tryings,2022.2.5,59.919025426301914,
ConjL4_syn.csv,directory_online_conj_L4_syn.csv,Test_Conj_SyncL4.csv,ConjL4_sync_norm.wav,pe,112:116,red,,,,0,0,0,3,0,0,0,1,,,,,,,,,,,,,,,,,,,,,,,,,,,,,,,,,,,,,,,,,,,,,,,,,,,,,,,,,,,,,,,,,,,,,,,,,,,,,,,,,,,,,,,,,,,,,,,,283836,001,2023-06-06_12h17.49.206,Pilot_online_tryings,2022.2.5,59.919025426301914,
ConjL4_syn.csv,directory_online_conj_L4_syn.csv,Test_Conj_SyncL4.csv,ConjL4_sync_norm.wav,bu,76:80,orange,Online_conjL4_syn//cBU13.0.wav,0.0,,0,0,0,3,0,1,1,30,0,0,0,1,,,,,,,,,,,,,,,,,,,,,,,,,,,,,,,,,,,,,,,,,,,,,,,,,,,,,,,,,,,99.63553749996936,99.63553749996936,0.02568530000280589,99.63553749996936,99.63553749996936,99.63553749996936,None,y,0.13639749999856576,,,,,,,,,,,,,,,,,,,,,,,,,283836,001,2023-06-06_12h17.49.206,Pilot_online_tryings,2022.2.5,59.919025426301914,
ConjL4_syn.csv,directory_online_conj_L4_syn.csv,Test_Conj_SyncL4.csv,ConjL4_sync_norm.wav,bu,76:80,orange,Online_conjL4_syn//cBU15.222.wav,222.0,,0,0,0,3,0,1,1,30,0,1,1,3,,,,,,,,,,,,,,,,,,,,,,,,,,,,,,,,,,,,,,,,,,,,,,,,,,,,,,,,,,,,,0.02139449998503551,99.80906989995856,99.80906989995856,99.80906989995856,None,y,0.10669690003851429,,,,,,,,,,,,,,,,,,,,,,,,,283836,001,2023-06-06_12h17.49.206,Pilot_online_tryings,2022.2.5,59.919025426301914,
ConjL4_syn.csv,directory_online_conj_L4_syn.csv,Test_Conj_SyncL4.csv,ConjL4_sync_norm.wav,bu,76:80,orange,Online_conjL4_syn//cBU14.none.wav,none,,0,0,0,3,0,1,1,30,0,2,2,2,,,,,,,,,,,,,,,,,,,,,,,,,,,,,,,,,,,,,,,,,,,,,,,,,,,,,,,,,,,,,0.011676100024487823,99.9482391999918,99.9482391999918,99.9482391999918,None,y,0.11105969996424392,,,,,,,,,,,,,,,,,,,,,,,,,283836,001,2023-06-06_12h17.49.206,Pilot_online_tryings,2022.2.5,59.919025426301914,
ConjL4_syn.csv,directory_online_conj_L4_syn.csv,Test_Conj_SyncL4.csv,ConjL4_sync_norm.wav,bu,76:80,orange,Online_conjL4_syn//cBU12.222.wav,222.0,,0,0,0,3,0,1,1,30,0,3,3,0,,,,,,,,,,,,,,,,,,,,,,,,,,,,,,,,,,,,,,,,,,,,,,,,,,,,,,,,,,,,,0.009844799991697073,100.08159949997207,100.08159949997207,100.08159949997207,None,y,0.13803799997549504,,,,,,,,,,,,,,,,,,,,,,,,,283836,001,2023-06-06_12h17.49.206,Pilot_online_tryings,2022.2.5,59.919025426301914,
ConjL4_syn.csv,directory_online_conj_L4_syn.csv,Test_Conj_SyncL4.csv,ConjL4_sync_norm.wav,bu,76:80,orange,,,,0,0,0,3,0,1,1,30,,,,,,,,,,,,,,,,,,,,,,,,,,,,,,,,,,,,,,,,,,,,,,,,,,,,,,,,,,,,,,,,,,,,,,,,,,,,,,,,,,,,,,,,,,,,,,,,283836,001,2023-06-06_12h17.49.206,Pilot_online_tryings,2022.2.5,59.919025426301914,
ConjL4_syn.csv,directory_online_conj_L4_syn.csv,Test_Conj_SyncL4.csv,ConjL4_sync_norm.wav,pe,100:104,red,Online_conjL4_syn//dPE4.none.wav,none,,0,0,0,3,0,2,2,9,0,0,0,0,,,,,,,,,,,,,,,,,,,,,,,,,,,,,,,,,,,,,,,,,,,,,,,,,,,,,,,,,,,100.27140109997708,100.27140109997708,0.028941399999894202,100.27140109997708,100.27140109997708,100.27140109997708,None,y,0.09329170000273734,,,,,,,,,,,,,,,,,,,,,,,,,283836,001,2023-06-06_12h17.49.206,Pilot_online_tryings,2022.2.5,59.919025426301914,
ConjL4_syn.csv,directory_online_conj_L4_syn.csv,Test_Conj_SyncL4.csv,ConjL4_sync_norm.wav,pe,100:104,red,Online_conjL4_syn//dPE5.none.wav,none,,0,0,0,3,0,2,2,9,0,1,1,1,,,,,,,,,,,,,,,,,,,,,,,,,,,,,,,,,,,,,,,,,,,,,,,,,,,,,,,,,,,,,0.008849400037433952,100.38211439998122,100.38211439998122,100.38211439998122,None,y,0.14254580001579598,,,,,,,,,,,,,,,,,,,,,,,,,283836,001,2023-06-06_12h17.49.206,Pilot_online_tryings,2022.2.5,59.919025426301914,
ConjL4_syn.csv,directory_online_conj_L4_syn.csv,Test_Conj_SyncL4.csv,ConjL4_sync_norm.wav,pe,100:104,red,Online_conjL4_syn//dPE7.222.wav,222.0,,0,0,0,3,0,2,2,9,0,2,2,3,,,,,,,,,,,,,,,,,,,,,,,,,,,,,,,,,,,,,,,,,,,,,,,,,,,,,,,,,,,,,0.007186700007878244,100.54875720001291,100.54875720001291,100.54875720001291,None,y,0.13459739997051656,,,,,,,,,,,,,,,,,,,,,,,,,283836,001,2023-06-06_12h17.49.206,Pilot_online_tryings,2022.2.5,59.919025426301914,
ConjL4_syn.csv,directory_online_conj_L4_syn.csv,Test_Conj_SyncL4.csv,ConjL4_sync_norm.wav,pe,100:104,red,Online_conjL4_syn//dPE6.none.wav,none,,0,0,0,3,0,2,2,9,0,3,3,2,,,,,,,,,,,,,,,,,,,,,,,,,,,,,,,,,,,,,,,,,,,,,,,,,,,,,,,,,,,,,0.01052670000353828,100.71570719999727,100.71570719999727,100.71570719999727,None,y,0.12852819997351617,,,,,,,,,,,,,,,,,,,,,,,,,283836,001,2023-06-06_12h17.49.206,Pilot_online_tryings,2022.2.5,59.919025426301914,
ConjL4_syn.csv,directory_online_conj_L4_syn.csv,Test_Conj_SyncL4.csv,ConjL4_sync_norm.wav,pe,100:104,red,,,,0,0,0,3,0,2,2,9,,,,,,,,,,,,,,,,,,,,,,,,,,,,,,,,,,,,,,,,,,,,,,,,,,,,,,,,,,,,,,,,,,,,,,,,,,,,,,,,,,,,,,,,,,,,,,,,283836,001,2023-06-06_12h17.49.206,Pilot_online_tryings,2022.2.5,59.919025426301914,
ConjL4_syn.csv,directory_online_conj_L4_syn.csv,Test_Conj_SyncL4.csv,ConjL4_sync_norm.wav,lo,24:28,blue,Online_conjL4_syn//aLO27.1554.wav,1554.0,,0,0,0,3,0,3,3,26,0,0,0,3,,,,,,,,,,,,,,,,,,,,,,,,,,,,,,,,,,,,,,,,,,,,,,,,,,,,,,,,,,,100.8811074999976,100.8811074999976,0.021211900049820542,100.8811074999976,100.8811074999976,100.8811074999976,None,y,0.1221959000104107,,,,,,,,,,,,,,,,,,,,,,,,,283836,001,2023-06-06_12h17.49.206,Pilot_online_tryings,2022.2.5,59.919025426301914,
ConjL4_syn.csv,directory_online_conj_L4_syn.csv,Test_Conj_SyncL4.csv,ConjL4_sync_norm.wav,lo,24:28,blue,Online_conjL4_syn//aLO25.666.wav,666.0,,0,0,0,3,0,3,3,26,0,1,1,1,,,,,,,,,,,,,,,,,,,,,,,,,,,,,,,,,,,,,,,,,,,,,,,,,,,,,,,,,,,,,0.010081199987325817,101.03251970000565,101.03251970000565,101.03251970000565,None,y,0.11516639997716993,,,,,,,,,,,,,,,,,,,,,,,,,283836,001,2023-06-06_12h17.49.206,Pilot_online_tryings,2022.2.5,59.919025426301914,
ConjL4_syn.csv,directory_online_conj_L4_syn.csv,Test_Conj_SyncL4.csv,ConjL4_sync_norm.wav,lo,24:28,blue,Online_conjL4_syn//aLO26.none.wav,none,,0,0,0,3,0,3,3,26,0,2,2,2,,,,,,,,,,,,,,,,,,,,,,,,,,,,,,,,,,,,,,,,,,,,,,,,,,,,,,,,,,,,,0.016190299997106194,101.17214159999276,101.17214159999276,101.17214159999276,None,y,0.15256820002105087,,,,,,,,,,,,,,,,,,,,,,,,,283836,001,2023-06-06_12h17.49.206,Pilot_online_tryings,2022.2.5,59.919025426301914,
ConjL4_syn.csv,directory_online_conj_L4_syn.csv,Test_Conj_SyncL4.csv,ConjL4_sync_norm.wav,lo,24:28,blue,Online_conjL4_syn//aLO24.none.wav,none,,0,0,0,3,0,3,3,26,0,3,3,0,,,,,,,,,,,,,,,,,,,,,,,,,,,,,,,,,,,,,,,,,,,,,,,,,,,,,,,,,,,,,0.009316099982243031,101.34983600000851,101.34983600000851,101.34983600000851,None,y,0.13465929997619241,,,,,,,,,,,,,,,,,,,,,,,,,283836,001,2023-06-06_12h17.49.206,Pilot_online_tryings,2022.2.5,59.919025426301914,
ConjL4_syn.csv,directory_online_conj_L4_syn.csv,Test_Conj_SyncL4.csv,ConjL4_sync_norm.wav,lo,24:28,blue,,,,0,0,0,3,0,3,3,26,,,,,,,,,,,,,,,,,,,,,,,,,,,,,,,,,,,,,,,,,,,,,,,,,,,,,,,,,,,,,,,,,,,,,,,,,,,,,,,,,,,,,,,,,,,,,,,,283836,001,2023-06-06_12h17.49.206,Pilot_online_tryings,2022.2.5,59.919025426301914,
ConjL4_syn.csv,directory_online_conj_L4_syn.csv,Test_Conj_SyncL4.csv,ConjL4_sync_norm.wav,lo,4:8,blue,Online_conjL4_syn//aLO7.1554.wav,1554.0,,0,0,0,3,0,4,4,10,0,0,0,3,,,,,,,,,,,,,,,,,,,,,,,,,,,,,,,,,,,,,,,,,,,,,,,,,,,,,,,,,,,101.53422349999892,101.53422349999892,0.02724800002761185,101.53422349999892,101.53422349999892,101.53422349999892,None,y,0.1259266000124626,,,,,,,,,,,,,,,,,,,,,,,,,283836,001,2023-06-06_12h17.49.206,Pilot_online_tryings,2022.2.5,59.919025426301914,
ConjL4_syn.csv,directory_online_conj_L4_syn.csv,Test_Conj_SyncL4.csv,ConjL4_sync_norm.wav,lo,4:8,blue,Online_conjL4_syn//aLO4.666.wav,666.0,,0,0,0,3,0,4,4,10,0,1,1,0,,,,,,,,,,,,,,,,,,,,,,,,,,,,,,,,,,,,,,,,,,,,,,,,,,,,,,,,,,,,,0.013251699972897768,101.68612859997666,101.68612859997666,101.68612859997666,None,y,0.13378929998725653,,,,,,,,,,,,,,,,,,,,,,,,,283836,001,2023-06-06_12h17.49.206,Pilot_online_tryings,2022.2.5,59.919025426301914,
ConjL4_syn.csv,directory_online_conj_L4_syn.csv,Test_Conj_SyncL4.csv,ConjL4_sync_norm.wav,lo,4:8,blue,Online_conjL4_syn//aLO6.1554.wav,1554.0,,0,0,0,3,0,4,4,10,0,2,2,2,,,,,,,,,,,,,,,,,,,,,,,,,,,,,,,,,,,,,,,,,,,,,,,,,,,,,,,,,,,,,0.006125499960035086,101.85012730001472,101.85012730001472,101.85012730001472,None,y,0.14682059996994212,,,,,,,,,,,,,,,,,,,,,,,,,283836,001,2023-06-06_12h17.49.206,Pilot_online_tryings,2022.2.5,59.919025426301914,
ConjL4_syn.csv,directory_online_conj_L4_syn.csv,Test_Conj_SyncL4.csv,ConjL4_sync_norm.wav,lo,4:8,blue,Online_conjL4_syn//aLO5.none.wav,none,,0,0,0,3,0,4,4,10,0,3,3,1,,,,,,,,,,,,,,,,,,,,,,,,,,,,,,,,,,,,,,,,,,,,,,,,,,,,,,,,,,,,,0.005864500009920448,102.01697259995854,102.01697259995854,102.01697259995854,None,y,0.1380557999946177,,,,,,,,,,,,,,,,,,,,,,,,,283836,001,2023-06-06_12h17.49.206,Pilot_online_tryings,2022.2.5,59.919025426301914,
ConjL4_syn.csv,directory_online_conj_L4_syn.csv,Test_Conj_SyncL4.csv,ConjL4_sync_norm.wav,lo,4:8,blue,,,,0,0,0,3,0,4,4,10,,,,,,,,,,,,,,,,,,,,,,,,,,,,,,,,,,,,,,,,,,,,,,,,,,,,,,,,,,,,,,,,,,,,,,,,,,,,,,,,,,,,,,,,,,,,,,,,283836,001,2023-06-06_12h17.49.206,Pilot_online_tryings,2022.2.5,59.919025426301914,
ConjL4_syn.csv,directory_online_conj_L4_syn.csv,Test_Conj_SyncL4.csv,ConjL4_sync_norm.wav,pe,108:112,red,Online_conjL4_syn//dPE15.none.wav,none,,0,0,0,3,0,5,5,0,0,0,0,3,,,,,,,,,,,,,,,,,,,,,,,,,,,,,,,,,,,,,,,,,,,,,,,,,,,,,,,,,,,102.1962222000002,102.1962222000002,0.018511900037992746,102.1962222000002,102.1962222000002,102.1962222000002,None,y,0.15078770002583042,,,,,,,,,,,,,,,,,,,,,,,,,283836,001,2023-06-06_12h17.49.206,Pilot_online_tryings,2022.2.5,59.919025426301914,
ConjL4_syn.csv,directory_online_conj_L4_syn.csv,Test_Conj_SyncL4.csv,ConjL4_sync_norm.wav,pe,108:112,red,Online_conjL4_syn//dPE13.none.wav,none,,0,0,0,3,0,5,5,0,0,1,1,1,,,,,,,,,,,,,,,,,,,,,,,,,,,,,,,,,,,,,,,,,,,,,,,,,,,,,,,,,,,,,0.023598300002049655,102.38139170000795,102.38139170000795,102.38139170000795,None,y,0.14311040000757203,,,,,,,,,,,,,,,,,,,,,,,,,283836,001,2023-06-06_12h17.49.206,Pilot_online_tryings,2022.2.5,59.919025426301914,
ConjL4_syn.csv,directory_online_conj_L4_syn.csv,Test_Conj_SyncL4.csv,ConjL4_sync_norm.wav,pe,108:112,red,Online_conjL4_syn//dPE12.none.wav,none,,0,0,0,3,0,5,5,0,0,2,2,0,,,,,,,,,,,,,,,,,,,,,,,,,,,,,,,,,,,,,,,,,,,,,,,,,,,,,,,,,,,,,0.0065058000036515296,102.55066599999554,102.55066599999554,102.55066599999554,None,y,0.14857060002395883,,,,,,,,,,,,,,,,,,,,,,,,,283836,001,2023-06-06_12h17.49.206,Pilot_online_tryings,2022.2.5,59.919025426301914,
ConjL4_syn.csv,directory_online_conj_L4_syn.csv,Test_Conj_SyncL4.csv,ConjL4_sync_norm.wav,pe,108:112,red,Online_conjL4_syn//dPE14.222.wav,222.0,,0,0,0,3,0,5,5,0,0,3,3,2,,,,,,,,,,,,,,,,,,,,,,,,,,,,,,,,,,,,,,,,,,,,,,,,,,,,,,,,,,,,,0.0077930999686941504,102.7176912999712,102.7176912999712,102.7176912999712,None,y,0.15906690002884716,,,,,,,,,,,,,,,,,,,,,,,,,283836,001,2023-06-06_12h17.49.206,Pilot_online_tryings,2022.2.5,59.919025426301914,
ConjL4_syn.csv,directory_online_conj_L4_syn.csv,Test_Conj_SyncL4.csv,ConjL4_sync_norm.wav,pe,108:112,red,,,,0,0,0,3,0,5,5,0,,,,,,,,,,,,,,,,,,,,,,,,,,,,,,,,,,,,,,,,,,,,,,,,,,,,,,,,,,,,,,,,,,,,,,,,,,,,,,,,,,,,,,,,,,,,,,,,283836,001,2023-06-06_12h17.49.206,Pilot_online_tryings,2022.2.5,59.919025426301914,
ConjL4_syn.csv,directory_online_conj_L4_syn.csv,Test_Conj_SyncL4.csv,ConjL4_sync_norm.wav,lo,16:20,blue,Online_conjL4_syn//aLO16.1554.wav,1554.0,,0,0,0,3,0,6,6,17,0,0,0,0,,,,,,,,,,,,,,,,,,,,,,,,,,,,,,,,,,,,,,,,,,,,,,,,,,,,,,,,,,,102.92708839999977,102.92708839999977,0.030837300000712276,102.92708839999977,102.92708839999977,102.92708839999977,None,y,0.12527509999927133,,,,,,,,,,,,,,,,,,,,,,,,,283836,001,2023-06-06_12h17.49.206,Pilot_online_tryings,2022.2.5,59.919025426301914,
ConjL4_syn.csv,directory_online_conj_L4_syn.csv,Test_Conj_SyncL4.csv,ConjL4_sync_norm.wav,lo,16:20,blue,Online_conjL4_syn//aLO19.none.wav,none,,0,0,0,3,0,6,6,17,0,1,1,3,,,,,,,,,,,,,,,,,,,,,,,,,,,,,,,,,,,,,,,,,,,,,,,,,,,,,,,,,,,,,0.016170700022485107,103.08999040001072,103.08999040001072,103.08999040001072,None,y,0.13789060001727194,,,,,,,,,,,,,,,,,,,,,,,,,283836,001,2023-06-06_12h17.49.206,Pilot_online_tryings,2022.2.5,59.919025426301914,
ConjL4_syn.csv,directory_online_conj_L4_syn.csv,Test_Conj_SyncL4.csv,ConjL4_sync_norm.wav,lo,16:20,blue,Online_conjL4_syn//aLO17.666.wav,666.0,,0,0,0,3,0,6,6,17,0,2,2,1,,,,,,,,,,,,,,,,,,,,,,,,,,,,,,,,,,,,,,,,,,,,,,,,,,,,,,,,,,,,,0.006789800012484193,103.25157929997658,103.25157929997658,103.25157929997658,None,y,0.15323060000082478,,,,,,,,,,,,,,,,,,,,,,,,,283836,001,2023-06-06_12h17.49.206,Pilot_online_tryings,2022.2.5,59.919025426301914,
ConjL4_syn.csv,directory_online_conj_L4_syn.csv,Test_Conj_SyncL4.csv,ConjL4_sync_norm.wav,lo,16:20,blue,Online_conjL4_syn//aLO18.none.wav,none,,0,0,0,3,0,6,6,17,0,3,3,2,,,,,,,,,,,,,,,,,,,,,,,,,,,,,,,,,,,,,,,,,,,,,,,,,,,,,,,,,,,,,0.005854099988937378,103.4350395000074,103.4350395000074,103.4350395000074,None,y,0.16110740002477542,,,,,,,,,,,,,,,,,,,,,,,,,283836,001,2023-06-06_12h17.49.206,Pilot_online_tryings,2022.2.5,59.919025426301914,
ConjL4_syn.csv,directory_online_conj_L4_syn.csv,Test_Conj_SyncL4.csv,ConjL4_sync_norm.wav,lo,16:20,blue,,,,0,0,0,3,0,6,6,17,,,,,,,,,,,,,,,,,,,,,,,,,,,,,,,,,,,,,,,,,,,,,,,,,,,,,,,,,,,,,,,,,,,,,,,,,,,,,,,,,,,,,,,,,,,,,,,,283836,001,2023-06-06_12h17.49.206,Pilot_online_tryings,2022.2.5,59.919025426301914,
ConjL4_syn.csv,directory_online_conj_L4_syn.csv,Test_Conj_SyncL4.csv,ConjL4_sync_norm.wav,bu,68:72,orange,Online_conjL4_syn//cBU7.none.wav,none,,0,0,0,3,0,7,7,18,0,0,0,3,,,,,,,,,,,,,,,,,,,,,,,,,,,,,,,,,,,,,,,,,,,,,,,,,,,,,,,,,,,103.64322139997967,103.64322139997967,0.028029899985995144,103.64322139997967,103.64322139997967,103.64322139997967,None,y,0.12788099999306723,,,,,,,,,,,,,,,,,,,,,,,,,283836,001,2023-06-06_12h17.49.206,Pilot_online_tryings,2022.2.5,59.919025426301914,
ConjL4_syn.csv,directory_online_conj_L4_syn.csv,Test_Conj_SyncL4.csv,ConjL4_sync_norm.wav,bu,68:72,orange,Online_conjL4_syn//cBU4.none.wav,none,,0,0,0,3,0,7,7,18,0,1,1,0,,,,,,,,,,,,,,,,,,,,,,,,,,,,,,,,,,,,,,,,,,,,,,,,,,,,,,,,,,,,,0.010179799981415272,103.8289431000012,103.8289431000012,103.8289431000012,None,y,0.11945270001888275,,,,,,,,,,,,,,,,,,,,,,,,,283836,001,2023-06-06_12h17.49.206,Pilot_online_tryings,2022.2.5,59.919025426301914,
ConjL4_syn.csv,directory_online_conj_L4_syn.csv,Test_Conj_SyncL4.csv,ConjL4_sync_norm.wav,bu,68:72,orange,Online_conjL4_syn//cBU6.none.wav,none,,0,0,0,3,0,7,7,18,0,2,2,2,,,,,,,,,,,,,,,,,,,,,,,,,,,,,,,,,,,,,,,,,,,,,,,,,,,,,,,,,,,,,0.006910500000230968,103.96894180000527,103.96894180000527,103.96894180000527,None,y,0.17066920001525432,,,,,,,,,,,,,,,,,,,,,,,,,283836,001,2023-06-06_12h17.49.206,Pilot_online_tryings,2022.2.5,59.919025426301914,
ConjL4_syn.csv,directory_online_conj_L4_syn.csv,Test_Conj_SyncL4.csv,ConjL4_sync_norm.wav,bu,68:72,orange,Online_conjL4_syn//cBU5.none.wav,none,,0,0,0,3,0,7,7,18,0,3,3,1,,,,,,,,,,,,,,,,,,,,,,,,,,,,,,,,,,,,,,,,,,,,,,,,,,,,,,,,,,,,,0.008257600013166666,104.16895829996793,104.16895829996793,104.16895829996793,None,y,0.14703719998942688,,,,,,,,,,,,,,,,,,,,,,,,,283836,001,2023-06-06_12h17.49.206,Pilot_online_tryings,2022.2.5,59.919025426301914,
ConjL4_syn.csv,directory_online_conj_L4_syn.csv,Test_Conj_SyncL4.csv,ConjL4_sync_norm.wav,bu,68:72,orange,,,,0,0,0,3,0,7,7,18,,,,,,,,,,,,,,,,,,,,,,,,,,,,,,,,,,,,,,,,,,,,,,,,,,,,,,,,,,,,,,,,,,,,,,,,,,,,,,,,,,,,,,,,,,,,,,,,283836,001,2023-06-06_12h17.49.206,Pilot_online_tryings,2022.2.5,59.919025426301914,
ConjL4_syn.csv,directory_online_conj_L4_syn.csv,Test_Conj_SyncL4.csv,ConjL4_sync_norm.wav,pe,120:124,red,Online_conjL4_syn//dPE24.none.wav,none,,0,0,0,3,0,8,8,24,0,0,0,0,,,,,,,,,,,,,,,,,,,,,,,,,,,,,,,,,,,,,,,,,,,,,,,,,,,,,,,,,,,104.35522149997996,104.35522149997996,0.025194399990141392,104.35522149997996,104.35522149997996,104.35522149997996,None,y,0.13597960001789033,,,,,,,,,,,,,,,,,,,,,,,,,283836,001,2023-06-06_12h17.49.206,Pilot_online_tryings,2022.2.5,59.919025426301914,
ConjL4_syn.csv,directory_online_conj_L4_syn.csv,Test_Conj_SyncL4.csv,ConjL4_sync_norm.wav,pe,120:124,red,Online_conjL4_syn//dPE25.222.wav,222.0,,0,0,0,3,0,8,8,24,0,1,1,1,,,,,,,,,,,,,,,,,,,,,,,,,,,,,,,,,,,,,,,,,,,,,,,,,,,,,,,,,,,,,0.006349799979943782,104.51963970001088,104.51963970001088,104.51963970001088,None,y,0.1487739000003785,,,,,,,,,,,,,,,,,,,,,,,,,283836,001,2023-06-06_12h17.49.206,Pilot_online_tryings,2022.2.5,59.919025426301914,
ConjL4_syn.csv,directory_online_conj_L4_syn.csv,Test_Conj_SyncL4.csv,ConjL4_sync_norm.wav,pe,120:124,red,Online_conjL4_syn//dPE26.none.wav,none,,0,0,0,3,0,8,8,24,0,2,2,2,,,,,,,,,,,,,,,,,,,,,,,,,,,,,,,,,,,,,,,,,,,,,,,,,,,,,,,,,,,,,0.017379900033120066,104.69370020000497,104.69370020000497,104.69370020000497,None,y,0.1508286000462249,,,,,,,,,,,,,,,,,,,,,,,,,283836,001,2023-06-06_12h17.49.206,Pilot_online_tryings,2022.2.5,59.919025426301914,
ConjL4_syn.csv,directory_online_conj_L4_syn.csv,Test_Conj_SyncL4.csv,ConjL4_sync_norm.wav,pe,120:124,red,Online_conjL4_syn//dPE27.1332.wav,1332.0,,0,0,0,3,0,8,8,24,0,3,3,3,,,,,,,,,,,,,,,,,,,,,,,,,,,,,,,,,,,,,,,,,,,,,,,,,,,,,,,,,,,,,0.018457499973010272,104.87768639996648,104.87768639996648,104.87768639996648,None,y,0.1415424000006169,,,,,,,,,,,,,,,,,,,,,,,,,283836,001,2023-06-06_12h17.49.206,Pilot_online_tryings,2022.2.5,59.919025426301914,
ConjL4_syn.csv,directory_online_conj_L4_syn.csv,Test_Conj_SyncL4.csv,ConjL4_sync_norm.wav,pe,120:124,red,,,,0,0,0,3,0,8,8,24,,,,,,,,,,,,,,,,,,,,,,,,,,,,,,,,,,,,,,,,,,,,,,,,,,,,,,,,,,,,,,,,,,,,,,,,,,,,,,,,,,,,,,,,,,,,,,,,283836,001,2023-06-06_12h17.49.206,Pilot_online_tryings,2022.2.5,59.919025426301914,
ConjL4_syn.csv,directory_online_conj_L4_syn.csv,Test_Conj_SyncL4.csv,ConjL4_sync_norm.wav,pe,104:108,red,Online_conjL4_syn//dPE11.1110.wav,1110.0,,0,0,0,3,0,9,9,27,0,0,0,3,,,,,,,,,,,,,,,,,,,,,,,,,,,,,,,,,,,,,,,,,,,,,,,,,,,,,,,,,,,105.05326529999729,105.05326529999729,0.02522870001848787,105.05326529999729,105.05326529999729,105.05326529999729,None,y,0.143528199987486,,,,,,,,,,,,,,,,,,,,,,,,,283836,001,2023-06-06_12h17.49.206,Pilot_online_tryings,2022.2.5,59.919025426301914,
ConjL4_syn.csv,directory_online_conj_L4_syn.csv,Test_Conj_SyncL4.csv,ConjL4_sync_norm.wav,pe,104:108,red,Online_conjL4_syn//dPE9.444.wav,444.0,,0,0,0,3,0,9,9,27,0,1,1,1,,,,,,,,,,,,,,,,,,,,,,,,,,,,,,,,,,,,,,,,,,,,,,,,,,,,,,,,,,,,,0.010845999990124255,105.22111549996771,105.22111549996771,105.22111549996771,None,y,0.15009700000518933,,,,,,,,,,,,,,,,,,,,,,,,,283836,001,2023-06-06_12h17.49.206,Pilot_online_tryings,2022.2.5,59.919025426301914,
ConjL4_syn.csv,directory_online_conj_L4_syn.csv,Test_Conj_SyncL4.csv,ConjL4_sync_norm.wav,pe,104:108,red,Online_conjL4_syn//dPE8.1332.wav,1332.0,,0,0,0,3,0,9,9,27,0,2,2,0,,,,,,,,,,,,,,,,,,,,,,,,,,,,,,,,,,,,,,,,,,,,,,,,,,,,,,,,,,,,,0.021844399976544082,105.41421519999858,105.41421519999858,105.41421519999858,None,y,0.13373480003792793,,,,,,,,,,,,,,,,,,,,,,,,,283836,001,2023-06-06_12h17.49.206,Pilot_online_tryings,2022.2.5,59.919025426301914,
ConjL4_syn.csv,directory_online_conj_L4_syn.csv,Test_Conj_SyncL4.csv,ConjL4_sync_norm.wav,pe,104:108,red,Online_conjL4_syn//dPE10.1110.wav,1110.0,,0,0,0,3,0,9,9,27,0,3,3,2,,,,,,,,,,,,,,,,,,,,,,,,,,,,,,,,,,,,,,,,,,,,,,,,,,,,,,,,,,,,,0.015038700017612427,105.57567829999607,105.57567829999607,105.57567829999607,None,y,0.1482658000313677,,,,,,,,,,,,,,,,,,,,,,,,,283836,001,2023-06-06_12h17.49.206,Pilot_online_tryings,2022.2.5,59.919025426301914,
ConjL4_syn.csv,directory_online_conj_L4_syn.csv,Test_Conj_SyncL4.csv,ConjL4_sync_norm.wav,pe,104:108,red,,,,0,0,0,3,0,9,9,27,,,,,,,,,,,,,,,,,,,,,,,,,,,,,,,,,,,,,,,,,,,,,,,,,,,,,,,,,,,,,,,,,,,,,,,,,,,,,,,,,,,,,,,,,,,,,,,,283836,001,2023-06-06_12h17.49.206,Pilot_online_tryings,2022.2.5,59.919025426301914,
ConjL4_syn.csv,directory_online_conj_L4_syn.csv,Test_Conj_SyncL4.csv,ConjL4_sync_norm.wav,bu,64:68,orange,Online_conjL4_syn//cBU3.444.wav,444.0,,0,0,0,3,0,10,10,23,0,0,0,3,,,,,,,,,,,,,,,,,,,,,,,,,,,,,,,,,,,,,,,,,,,,,,,,,,,,,,,,,,,105.77540789998602,105.77540789998602,0.026870900008361787,105.77540789998602,105.77540789998602,105.77540789998602,None,y,0.10926280001876876,,,,,,,,,,,,,,,,,,,,,,,,,283836,001,2023-06-06_12h17.49.206,Pilot_online_tryings,2022.2.5,59.919025426301914,
ConjL4_syn.csv,directory_online_conj_L4_syn.csv,Test_Conj_SyncL4.csv,ConjL4_sync_norm.wav,bu,64:68,orange,Online_conjL4_syn//cBU2.1332.wav,1332.0,,0,0,0,3,0,10,10,23,0,1,1,2,,,,,,,,,,,,,,,,,,,,,,,,,,,,,,,,,,,,,,,,,,,,,,,,,,,,,,,,,,,,,0.01431509997928515,105.90861079999013,105.90861079999013,105.90861079999013,None,y,0.15181619999930263,,,,,,,,,,,,,,,,,,,,,,,,,283836,001,2023-06-06_12h17.49.206,Pilot_online_tryings,2022.2.5,59.919025426301914,
ConjL4_syn.csv,directory_online_conj_L4_syn.csv,Test_Conj_SyncL4.csv,ConjL4_sync_norm.wav,bu,64:68,orange,Online_conjL4_syn//cBU0.444.wav,444.0,,0,0,0,3,0,10,10,23,0,2,2,0,,,,,,,,,,,,,,,,,,,,,,,,,,,,,,,,,,,,,,,,,,,,,,,,,,,,,,,,,,,,,0.017299600003752857,106.0946130999946,106.0946130999946,106.0946130999946,None,y,0.17461670003831387,,,,,,,,,,,,,,,,,,,,,,,,,283836,001,2023-06-06_12h17.49.206,Pilot_online_tryings,2022.2.5,59.919025426301914,
ConjL4_syn.csv,directory_online_conj_L4_syn.csv,Test_Conj_SyncL4.csv,ConjL4_sync_norm.wav,bu,64:68,orange,Online_conjL4_syn//cBU1.444.wav,444.0,,0,0,0,3,0,10,10,23,0,3,3,1,,,,,,,,,,,,,,,,,,,,,,,,,,,,,,,,,,,,,,,,,,,,,,,,,,,,,,,,,,,,,0.022423399961553514,106.30019300000276,106.30019300000276,106.30019300000276,None,y,0.14373569999588653,,,,,,,,,,,,,,,,,,,,,,,,,283836,001,2023-06-06_12h17.49.206,Pilot_online_tryings,2022.2.5,59.919025426301914,
ConjL4_syn.csv,directory_online_conj_L4_syn.csv,Test_Conj_SyncL4.csv,ConjL4_sync_norm.wav,bu,64:68,orange,,,,0,0,0,3,0,10,10,23,,,,,,,,,,,,,,,,,,,,,,,,,,,,,,,,,,,,,,,,,,,,,,,,,,,,,,,,,,,,,,,,,,,,,,,,,,,,,,,,,,,,,,,,,,,,,,,,283836,001,2023-06-06_12h17.49.206,Pilot_online_tryings,2022.2.5,59.919025426301914,
ConjL4_syn.csv,directory_online_conj_L4_syn.csv,Test_Conj_SyncL4.csv,ConjL4_sync_norm.wav,ja,32:36,green,Online_conjL4_syn//bJA1.666.wav,666.0,,0,0,0,3,0,11,11,28,0,0,0,1,,,,,,,,,,,,,,,,,,,,,,,,,,,,,,,,,,,,,,,,,,,,,,,,,,,,,,,,,,,106.49545200000284,106.49545200000284,0.027103699976578355,106.49545200000284,106.49545200000284,106.49545200000284,None,y,0.10798289999365807,,,,,,,,,,,,,,,,,,,,,,,,,283836,001,2023-06-06_12h17.49.206,Pilot_online_tryings,2022.2.5,59.919025426301914,
ConjL4_syn.csv,directory_online_conj_L4_syn.csv,Test_Conj_SyncL4.csv,ConjL4_sync_norm.wav,ja,32:36,green,Online_conjL4_syn//bJA0.0.wav,0.0,,0,0,0,3,0,11,11,28,0,1,1,0,,,,,,,,,,,,,,,,,,,,,,,,,,,,,,,,,,,,,,,,,,,,,,,,,,,,,,,,,,,,,0.009036600007675588,106.62143299996387,106.62143299996387,106.62143299996387,None,y,0.15852860000450164,,,,,,,,,,,,,,,,,,,,,,,,,283836,001,2023-06-06_12h17.49.206,Pilot_online_tryings,2022.2.5,59.919025426301914,
ConjL4_syn.csv,directory_online_conj_L4_syn.csv,Test_Conj_SyncL4.csv,ConjL4_sync_norm.wav,ja,32:36,green,Online_conjL4_syn//bJA3.0.wav,0.0,,0,0,0,3,0,11,11,28,0,2,2,3,,,,,,,,,,,,,,,,,,,,,,,,,,,,,,,,,,,,,,,,,,,,,,,,,,,,,,,,,,,,,0.024660600000061095,106.81969069998013,106.81969069998013,106.81969069998013,None,y,0.13685019995318726,,,,,,,,,,,,,,,,,,,,,,,,,283836,001,2023-06-06_12h17.49.206,Pilot_online_tryings,2022.2.5,59.919025426301914,
ConjL4_syn.csv,directory_online_conj_L4_syn.csv,Test_Conj_SyncL4.csv,ConjL4_sync_norm.wav,ja,32:36,green,Online_conjL4_syn//bJA2.666.wav,666.0,,0,0,0,3,0,11,11,28,0,3,3,2,,,,,,,,,,,,,,,,,,,,,,,,,,,,,,,,,,,,,,,,,,,,,,,,,,,,,,,,,,,,,0.013672500033862889,106.99204809998628,106.99204809998628,106.99204809998628,None,y,0.1399657999863848,,,,,,,,,,,,,,,,,,,,,,,,,283836,001,2023-06-06_12h17.49.206,Pilot_online_tryings,2022.2.5,59.919025426301914,
ConjL4_syn.csv,directory_online_conj_L4_syn.csv,Test_Conj_SyncL4.csv,ConjL4_sync_norm.wav,ja,32:36,green,,,,0,0,0,3,0,11,11,28,,,,,,,,,,,,,,,,,,,,,,,,,,,,,,,,,,,,,,,,,,,,,,,,,,,,,,,,,,,,,,,,,,,,,,,,,,,,,,,,,,,,,,,,,,,,,,,,283836,001,2023-06-06_12h17.49.206,Pilot_online_tryings,2022.2.5,59.919025426301914,
ConjL4_syn.csv,directory_online_conj_L4_syn.csv,Test_Conj_SyncL4.csv,ConjL4_sync_norm.wav,bu,84:88,orange,Online_conjL4_syn//cBU23.none.wav,none,,0,0,0,3,0,12,12,3,0,0,0,3,,,,,,,,,,,,,,,,,,,,,,,,,,,,,,,,,,,,,,,,,,,,,,,,,,,,,,,,,,,107.18001740000909,107.18001740000909,0.028236799989826977,107.18001740000909,107.18001740000909,107.18001740000909,None,y,0.12799859995720908,,,,,,,,,,,,,,,,,,,,,,,,,283836,001,2023-06-06_12h17.49.206,Pilot_online_tryings,2022.2.5,59.919025426301914,
ConjL4_syn.csv,directory_online_conj_L4_syn.csv,Test_Conj_SyncL4.csv,ConjL4_sync_norm.wav,bu,84:88,orange,Online_conjL4_syn//cBU20.none.wav,none,,0,0,0,3,0,12,12,3,0,1,1,0,,,,,,,,,,,,,,,,,,,,,,,,,,,,,,,,,,,,,,,,,,,,,,,,,,,,,,,,,,,,,0.014364600006956607,107.34323860000586,107.34323860000586,107.34323860000586,None,y,0.2047343000303954,,,,,,,,,,,,,,,,,,,,,,,,,283836,001,2023-06-06_12h17.49.206,Pilot_online_tryings,2022.2.5,59.919025426301914,
ConjL4_syn.csv,directory_online_conj_L4_syn.csv,Test_Conj_SyncL4.csv,ConjL4_sync_norm.wav,bu,84:88,orange,Online_conjL4_syn//cBU22.0.wav,0.0,,0,0,0,3,0,12,12,3,0,2,2,2,,,,,,,,,,,,,,,,,,,,,,,,,,,,,,,,,,,,,,,,,,,,,,,,,,,,,,,,,,,,,0.006362800020724535,107.57229989999905,107.57229989999905,107.57229989999905,None,y,0.16774720000103116,,,,,,,,,,,,,,,,,,,,,,,,,283836,001,2023-06-06_12h17.49.206,Pilot_online_tryings,2022.2.5,59.919025426301914,
ConjL4_syn.csv,directory_online_conj_L4_syn.csv,Test_Conj_SyncL4.csv,ConjL4_sync_norm.wav,bu,84:88,orange,Online_conjL4_syn//cBU21.none.wav,none,,0,0,0,3,0,12,12,3,0,3,3,1,,,,,,,,,,,,,,,,,,,,,,,,,,,,,,,,,,,,,,,,,,,,,,,,,,,,,,,,,,,,,0.006205199984833598,107.77265810000245,107.77265810000245,107.77265810000245,None,y,0.1599547999794595,,,,,,,,,,,,,,,,,,,,,,,,,283836,001,2023-06-06_12h17.49.206,Pilot_online_tryings,2022.2.5,59.919025426301914,
ConjL4_syn.csv,directory_online_conj_L4_syn.csv,Test_Conj_SyncL4.csv,ConjL4_sync_norm.wav,bu,84:88,orange,,,,0,0,0,3,0,12,12,3,,,,,,,,,,,,,,,,,,,,,,,,,,,,,,,,,,,,,,,,,,,,,,,,,,,,,,,,,,,,,,,,,,,,,,,,,,,,,,,,,,,,,,,,,,,,,,,,283836,001,2023-06-06_12h17.49.206,Pilot_online_tryings,2022.2.5,59.919025426301914,
ConjL4_syn.csv,directory_online_conj_L4_syn.csv,Test_Conj_SyncL4.csv,ConjL4_sync_norm.wav,ja,36:40,green,Online_conjL4_syn//bJA7.none.wav,none,,0,0,0,3,0,13,13,16,0,0,0,3,,,,,,,,,,,,,,,,,,,,,,,,,,,,,,,,,,,,,,,,,,,,,,,,,,,,,,,,,,,107.98386719997507,107.98386719997507,0.03159609995782375,107.98386719997507,107.98386719997507,107.98386719997507,None,y,0.12351399997714907,,,,,,,,,,,,,,,,,,,,,,,,,283836,001,2023-06-06_12h17.49.206,Pilot_online_tryings,2022.2.5,59.919025426301914,
ConjL4_syn.csv,directory_online_conj_L4_syn.csv,Test_Conj_SyncL4.csv,ConjL4_sync_norm.wav,ja,36:40,green,Online_conjL4_syn//bJA6.666.wav,666.0,,0,0,0,3,0,13,13,16,0,1,1,2,,,,,,,,,,,,,,,,,,,,,,,,,,,,,,,,,,,,,,,,,,,,,,,,,,,,,,,,,,,,,0.016584300028625876,108.14529789995868,108.14529789995868,108.14529789995868,None,y,0.15469639998627827,,,,,,,,,,,,,,,,,,,,,,,,,283836,001,2023-06-06_12h17.49.206,Pilot_online_tryings,2022.2.5,59.919025426301914,
ConjL4_syn.csv,directory_online_conj_L4_syn.csv,Test_Conj_SyncL4.csv,ConjL4_sync_norm.wav,ja,36:40,green,Online_conjL4_syn//bJA5.none.wav,none,,0,0,0,3,0,13,13,16,0,2,2,1,,,,,,,,,,,,,,,,,,,,,,,,,,,,,,,,,,,,,,,,,,,,,,,,,,,,,,,,,,,,,0.006219399976544082,108.32315830001608,108.32315830001608,108.32315830001608,None,y,0.16808179998770356,,,,,,,,,,,,,,,,,,,,,,,,,283836,001,2023-06-06_12h17.49.206,Pilot_online_tryings,2022.2.5,59.919025426301914,
ConjL4_syn.csv,directory_online_conj_L4_syn.csv,Test_Conj_SyncL4.csv,ConjL4_sync_norm.wav,ja,36:40,green,Online_conjL4_syn//bJA4.0.wav,0.0,,0,0,0,3,0,13,13,16,0,3,3,0,,,,,,,,,,,,,,,,,,,,,,,,,,,,,,,,,,,,,,,,,,,,,,,,,,,,,,,,,,,,,0.014397899969480932,108.52695179998409,108.52695179998409,108.52695179998409,None,y,0.15754980000201613,,,,,,,,,,,,,,,,,,,,,,,,,283836,001,2023-06-06_12h17.49.206,Pilot_online_tryings,2022.2.5,59.919025426301914,
ConjL4_syn.csv,directory_online_conj_L4_syn.csv,Test_Conj_SyncL4.csv,ConjL4_sync_norm.wav,ja,36:40,green,,,,0,0,0,3,0,13,13,16,,,,,,,,,,,,,,,,,,,,,,,,,,,,,,,,,,,,,,,,,,,,,,,,,,,,,,,,,,,,,,,,,,,,,,,,,,,,,,,,,,,,,,,,,,,,,,,,283836,001,2023-06-06_12h17.49.206,Pilot_online_tryings,2022.2.5,59.919025426301914,
ConjL4_syn.csv,directory_online_conj_L4_syn.csv,Test_Conj_SyncL4.csv,ConjL4_sync_norm.wav,pe,96:100,red,Online_conjL4_syn//dPE2.none.wav,none,,0,0,0,3,0,14,14,29,0,0,0,2,,,,,,,,,,,,,,,,,,,,,,,,,,,,,,,,,,,,,,,,,,,,,,,,,,,,,,,,,,,108.72669459995814,108.72669459995814,0.025515799992717803,108.72669459995814,108.72669459995814,108.72669459995814,None,y,0.14823660004185513,,,,,,,,,,,,,,,,,,,,,,,,,283836,001,2023-06-06_12h17.49.206,Pilot_online_tryings,2022.2.5,59.919025426301914,
ConjL4_syn.csv,directory_online_conj_L4_syn.csv,Test_Conj_SyncL4.csv,ConjL4_sync_norm.wav,pe,96:100,red,Online_conjL4_syn//dPE3.none.wav,none,,0,0,0,3,0,14,14,29,0,1,1,3,,,,,,,,,,,,,,,,,,,,,,,,,,,,,,,,,,,,,,,,,,,,,,,,,,,,,,,,,,,,,0.020857200026512146,108.91704039997421,108.91704039997421,108.91704039997421,None,y,0.16613179998239502,,,,,,,,,,,,,,,,,,,,,,,,,283836,001,2023-06-06_12h17.49.206,Pilot_online_tryings,2022.2.5,59.919025426301914,
ConjL4_syn.csv,directory_online_conj_L4_syn.csv,Test_Conj_SyncL4.csv,ConjL4_sync_norm.wav,pe,96:100,red,Online_conjL4_syn//dPE1.none.wav,none,,0,0,0,3,0,14,14,29,0,2,2,1,,,,,,,,,,,,,,,,,,,,,,,,,,,,,,,,,,,,,,,,,,,,,,,,,,,,,,,,,,,,,0.009513200027868152,109.10730229999172,109.10730229999172,109.10730229999172,None,y,0.16866349999327213,,,,,,,,,,,,,,,,,,,,,,,,,283836,001,2023-06-06_12h17.49.206,Pilot_online_tryings,2022.2.5,59.919025426301914,
ConjL4_syn.csv,directory_online_conj_L4_syn.csv,Test_Conj_SyncL4.csv,ConjL4_sync_norm.wav,pe,96:100,red,Online_conjL4_syn//dPE0.1554.wav,1554.0,,0,0,0,3,0,14,14,29,0,3,3,0,,,,,,,,,,,,,,,,,,,,,,,,,,,,,,,,,,,,,,,,,,,,,,,,,,,,,,,,,,,,,0.015223999973386526,109.31284639996011,109.31284639996011,109.31284639996011,None,y,0.13964079995639622,,,,,,,,,,,,,,,,,,,,,,,,,283836,001,2023-06-06_12h17.49.206,Pilot_online_tryings,2022.2.5,59.919025426301914,
ConjL4_syn.csv,directory_online_conj_L4_syn.csv,Test_Conj_SyncL4.csv,ConjL4_sync_norm.wav,pe,96:100,red,,,,0,0,0,3,0,14,14,29,,,,,,,,,,,,,,,,,,,,,,,,,,,,,,,,,,,,,,,,,,,,,,,,,,,,,,,,,,,,,,,,,,,,,,,,,,,,,,,,,,,,,,,,,,,,,,,,283836,001,2023-06-06_12h17.49.206,Pilot_online_tryings,2022.2.5,59.919025426301914,
ConjL4_syn.csv,directory_online_conj_L4_syn.csv,Test_Conj_SyncL4.csv,ConjL4_sync_norm.wav,bu,72:76,orange,Online_conjL4_syn//cBU11.none.wav,none,,0,0,0,3,0,15,15,14,0,0,0,3,,,,,,,,,,,,,,,,,,,,,,,,,,,,,,,,,,,,,,,,,,,,,,,,,,,,,,,,,,,109.50383930001408,109.50383930001408,0.03455209999810904,109.50383930001408,109.50383930001408,109.50383930001408,None,y,0.12334990000817925,,,,,,,,,,,,,,,,,,,,,,,,,283836,001,2023-06-06_12h17.49.206,Pilot_online_tryings,2022.2.5,59.919025426301914,
ConjL4_syn.csv,directory_online_conj_L4_syn.csv,Test_Conj_SyncL4.csv,ConjL4_sync_norm.wav,bu,72:76,orange,Online_conjL4_syn//cBU9.none.wav,none,,0,0,0,3,0,15,15,14,0,1,1,1,,,,,,,,,,,,,,,,,,,,,,,,,,,,,,,,,,,,,,,,,,,,,,,,,,,,,,,,,,,,,0.008906600007321686,109.65778000000864,109.65778000000864,109.65778000000864,None,y,0.14608789997873828,,,,,,,,,,,,,,,,,,,,,,,,,283836,001,2023-06-06_12h17.49.206,Pilot_online_tryings,2022.2.5,59.919025426301914,
ConjL4_syn.csv,directory_online_conj_L4_syn.csv,Test_Conj_SyncL4.csv,ConjL4_sync_norm.wav,bu,72:76,orange,Online_conjL4_syn//cBU8.1110.wav,1110.0,,0,0,0,3,0,15,15,14,0,2,2,0,,,,,,,,,,,,,,,,,,,,,,,,,,,,,,,,,,,,,,,,,,,,,,,,,,,,,,,,,,,,,0.008123199979308993,109.82479609997245,109.82479609997245,109.82479609997245,None,y,0.17163300001993775,,,,,,,,,,,,,,,,,,,,,,,,,283836,001,2023-06-06_12h17.49.206,Pilot_online_tryings,2022.2.5,59.919025426301914,
ConjL4_syn.csv,directory_online_conj_L4_syn.csv,Test_Conj_SyncL4.csv,ConjL4_sync_norm.wav,bu,72:76,orange,Online_conjL4_syn//cBU10.1332.wav,1332.0,,0,0,0,3,0,15,15,14,0,3,3,2,,,,,,,,,,,,,,,,,,,,,,,,,,,,,,,,,,,,,,,,,,,,,,,,,,,,,,,,,,,,,0.007637600007001311,110.02497600001516,110.02497600001516,110.02497600001516,None,y,0.1941330999834463,,,,,,,,,,,,,,,,,,,,,,,,,283836,001,2023-06-06_12h17.49.206,Pilot_online_tryings,2022.2.5,59.919025426301914,
ConjL4_syn.csv,directory_online_conj_L4_syn.csv,Test_Conj_SyncL4.csv,ConjL4_sync_norm.wav,bu,72:76,orange,,,,0,0,0,3,0,15,15,14,,,,,,,,,,,,,,,,,,,,,,,,,,,,,,,,,,,,,,,,,,,,,,,,,,,,,,,,,,,,,,,,,,,,,,,,,,,,,,,,,,,,,,,,,,,,,,,,283836,001,2023-06-06_12h17.49.206,Pilot_online_tryings,2022.2.5,59.919025426301914,
ConjL4_syn.csv,directory_online_conj_L4_syn.csv,Test_Conj_SyncL4.csv,ConjL4_sync_norm.wav,lo,12:16,blue,Online_conjL4_syn//aLO12.666.wav,666.0,,0,0,0,3,0,16,16,15,0,0,0,0,,,,,,,,,,,,,,,,,,,,,,,,,,,,,,,,,,,,,,,,,,,,,,,,,,,,,,,,,,,110.27276799996616,110.27276799996616,0.03563539998140186,110.27276799996616,110.27276799996616,110.27276799996616,None,y,0.12291500001447275,,,,,,,,,,,,,,,,,,,,,,,,,283836,001,2023-06-06_12h17.49.206,Pilot_online_tryings,2022.2.5,59.919025426301914,
ConjL4_syn.csv,directory_online_conj_L4_syn.csv,Test_Conj_SyncL4.csv,ConjL4_sync_norm.wav,lo,12:16,blue,Online_conjL4_syn//aLO14.1554.wav,1554.0,,0,0,0,3,0,16,16,15,0,1,1,2,,,,,,,,,,,,,,,,,,,,,,,,,,,,,,,,,,,,,,,,,,,,,,,,,,,,,,,,,,,,,0.013848799979314208,110.42917919997126,110.42917919997126,110.42917919997126,None,y,0.17514750000555068,,,,,,,,,,,,,,,,,,,,,,,,,283836,001,2023-06-06_12h17.49.206,Pilot_online_tryings,2022.2.5,59.919025426301914,
ConjL4_syn.csv,directory_online_conj_L4_syn.csv,Test_Conj_SyncL4.csv,ConjL4_sync_norm.wav,lo,12:16,blue,Online_conjL4_syn//aLO15.none.wav,none,,0,0,0,3,0,16,16,15,0,2,2,3,,,,,,,,,,,,,,,,,,,,,,,,,,,,,,,,,,,,,,,,,,,,,,,,,,,,,,,,,,,,,0.009502200002316386,110.62549860001309,110.62549860001309,110.62549860001309,None,y,0.251277300005313,,,,,,,,,,,,,,,,,,,,,,,,,283836,001,2023-06-06_12h17.49.206,Pilot_online_tryings,2022.2.5,59.919025426301914,
ConjL4_syn.csv,directory_online_conj_L4_syn.csv,Test_Conj_SyncL4.csv,ConjL4_sync_norm.wav,lo,12:16,blue,Online_conjL4_syn//aLO13.none.wav,none,,0,0,0,3,0,16,16,15,0,3,3,1,,,,,,,,,,,,,,,,,,,,,,,,,,,,,,,,,,,,,,,,,,,,,,,,,,,,,,,,,,,,,0.014832799963187426,110.91251160000684,110.91251160000684,110.91251160000684,None,y,0.15587080002296716,,,,,,,,,,,,,,,,,,,,,,,,,283836,001,2023-06-06_12h17.49.206,Pilot_online_tryings,2022.2.5,59.919025426301914,
ConjL4_syn.csv,directory_online_conj_L4_syn.csv,Test_Conj_SyncL4.csv,ConjL4_sync_norm.wav,lo,12:16,blue,,,,0,0,0,3,0,16,16,15,,,,,,,,,,,,,,,,,,,,,,,,,,,,,,,,,,,,,,,,,,,,,,,,,,,,,,,,,,,,,,,,,,,,,,,,,,,,,,,,,,,,,,,,,,,,,,,,283836,001,2023-06-06_12h17.49.206,Pilot_online_tryings,2022.2.5,59.919025426301914,
ConjL4_syn.csv,directory_online_conj_L4_syn.csv,Test_Conj_SyncL4.csv,ConjL4_sync_norm.wav,lo,28:32,blue,Online_conjL4_syn//aLO31.none.wav,none,,0,0,0,3,0,17,17,6,0,0,0,3,,,,,,,,,,,,,,,,,,,,,,,,,,,,,,,,,,,,,,,,,,,,,,,,,,,,,,,,,,,111.10880929999985,111.10880929999985,0.024878299969714135,111.10880929999985,111.10880929999985,111.10880929999985,None,y,0.15135770000051707,,,,,,,,,,,,,,,,,,,,,,,,,283836,001,2023-06-06_12h17.49.206,Pilot_online_tryings,2022.2.5,59.919025426301914,
ConjL4_syn.csv,directory_online_conj_L4_syn.csv,Test_Conj_SyncL4.csv,ConjL4_sync_norm.wav,lo,28:32,blue,Online_conjL4_syn//aLO30.666.wav,666.0,,0,0,0,3,0,17,17,6,0,1,1,2,,,,,,,,,,,,,,,,,,,,,,,,,,,,,,,,,,,,,,,,,,,,,,,,,,,,,,,,,,,,,0.015638999990187585,111.29759849997936,111.29759849997936,111.29759849997936,None,y,0.15507169999182224,,,,,,,,,,,,,,,,,,,,,,,,,283836,001,2023-06-06_12h17.49.206,Pilot_online_tryings,2022.2.5,59.919025426301914,
ConjL4_syn.csv,directory_online_conj_L4_syn.csv,Test_Conj_SyncL4.csv,ConjL4_sync_norm.wav,lo,28:32,blue,Online_conjL4_syn//aLO29.1554.wav,1554.0,,0,0,0,3,0,17,17,6,0,2,2,1,,,,,,,,,,,,,,,,,,,,,,,,,,,,,,,,,,,,,,,,,,,,,,,,,,,,,,,,,,,,,0.20590749999973923,111.67450039996766,111.67450039996766,111.67450039996766,None,y,0.000950199959333986,,,,,,,,,,,,,,,,,,,,,,,,,283836,001,2023-06-06_12h17.49.206,Pilot_online_tryings,2022.2.5,59.919025426301914,
ConjL4_syn.csv,directory_online_conj_L4_syn.csv,Test_Conj_SyncL4.csv,ConjL4_sync_norm.wav,lo,28:32,blue,Online_conjL4_syn//aLO28.1554.wav,1554.0,,0,0,0,3,0,17,17,6,0,3,3,0,,,,,,,,,,,,,,,,,,,,,,,,,,,,,,,,,,,,,,,,,,,,,,,,,,,,,,,,,,,,,0.14929129998199642,111.83219489996554,111.83219489996554,111.83219489996554,None,y,0.019948899978771806,,,,,,,,,,,,,,,,,,,,,,,,,283836,001,2023-06-06_12h17.49.206,Pilot_online_tryings,2022.2.5,59.919025426301914,
ConjL4_syn.csv,directory_online_conj_L4_syn.csv,Test_Conj_SyncL4.csv,ConjL4_sync_norm.wav,lo,28:32,blue,,,,0,0,0,3,0,17,17,6,,,,,,,,,,,,,,,,,,,,,,,,,,,,,,,,,,,,,,,,,,,,,,,,,,,,,,,,,,,,,,,,,,,,,,,,,,,,,,,,,,,,,,,,,,,,,,,,283836,001,2023-06-06_12h17.49.206,Pilot_online_tryings,2022.2.5,59.919025426301914,
ConjL4_syn.csv,directory_online_conj_L4_syn.csv,Test_Conj_SyncL4.csv,ConjL4_sync_norm.wav,lo,0:4,blue,Online_conjL4_syn//aLO0.none.wav,none,,0,0,0,3,0,18,18,13,0,0,0,0,,,,,,,,,,,,,,,,,,,,,,,,,,,,,,,,,,,,,,,,,,,,,,,,,,,,,,,,,,,111.91214219998801,111.91214219998801,0.04432960000121966,111.91214219998801,111.91214219998801,111.91214219998801,None,y,0.1158236000337638,,,,,,,,,,,,,,,,,,,,,,,,,283836,001,2023-06-06_12h17.49.206,Pilot_online_tryings,2022.2.5,59.919025426301914,
ConjL4_syn.csv,directory_online_conj_L4_syn.csv,Test_Conj_SyncL4.csv,ConjL4_sync_norm.wav,lo,0:4,blue,Online_conjL4_syn//aLO1.1554.wav,1554.0,,0,0,0,3,0,18,18,13,0,1,1,1,,,,,,,,,,,,,,,,,,,,,,,,,,,,,,,,,,,,,,,,,,,,,,,,,,,,,,,,,,,,,0.012109500006772578,112.06167149997782,112.06167149997782,112.06167149997782,None,y,0.12684630003059283,,,,,,,,,,,,,,,,,,,,,,,,,283836,001,2023-06-06_12h17.49.206,Pilot_online_tryings,2022.2.5,59.919025426301914,
ConjL4_syn.csv,directory_online_conj_L4_syn.csv,Test_Conj_SyncL4.csv,ConjL4_sync_norm.wav,lo,0:4,blue,Online_conjL4_syn//aLO2.none.wav,none,,0,0,0,3,0,18,18,13,0,2,2,2,,,,,,,,,,,,,,,,,,,,,,,,,,,,,,,,,,,,,,,,,,,,,,,,,,,,,,,,,,,,,0.01573300000745803,112.21612319996348,112.21612319996348,112.21612319996348,None,y,0.147545000014361,,,,,,,,,,,,,,,,,,,,,,,,,283836,001,2023-06-06_12h17.49.206,Pilot_online_tryings,2022.2.5,59.919025426301914,
ConjL4_syn.csv,directory_online_conj_L4_syn.csv,Test_Conj_SyncL4.csv,ConjL4_sync_norm.wav,lo,0:4,blue,Online_conjL4_syn//aLO3.none.wav,none,,0,0,0,3,0,18,18,13,0,3,3,3,,,,,,,,,,,,,,,,,,,,,,,,,,,,,,,,,,,,,,,,,,,,,,,,,,,,,,,,,,,,,0.016797300020698458,112.40077870001551,112.40077870001551,112.40077870001551,None,y,0.12329969997517765,,,,,,,,,,,,,,,,,,,,,,,,,283836,001,2023-06-06_12h17.49.206,Pilot_online_tryings,2022.2.5,59.919025426301914,
ConjL4_syn.csv,directory_online_conj_L4_syn.csv,Test_Conj_SyncL4.csv,ConjL4_sync_norm.wav,lo,0:4,blue,,,,0,0,0,3,0,18,18,13,,,,,,,,,,,,,,,,,,,,,,,,,,,,,,,,,,,,,,,,,,,,,,,,,,,,,,,,,,,,,,,,,,,,,,,,,,,,,,,,,,,,,,,,,,,,,,,,283836,001,2023-06-06_12h17.49.206,Pilot_online_tryings,2022.2.5,59.919025426301914,
ConjL4_syn.csv,directory_online_conj_L4_syn.csv,Test_Conj_SyncL4.csv,ConjL4_sync_norm.wav,lo,8:12,blue,Online_conjL4_syn//aLO8.none.wav,none,,0,0,0,3,0,19,19,2,0,0,0,0,,,,,,,,,,,,,,,,,,,,,,,,,,,,,,,,,,,,,,,,,,,,,,,,,,,,,,,,,,,112.56320159998722,112.56320159998722,0.027152599999681115,112.56320159998722,112.56320159998722,112.56320159998722,None,y,0.13665200001560152,,,,,,,,,,,,,,,,,,,,,,,,,283836,001,2023-06-06_12h17.49.206,Pilot_online_tryings,2022.2.5,59.919025426301914,
ConjL4_syn.csv,directory_online_conj_L4_syn.csv,Test_Conj_SyncL4.csv,ConjL4_sync_norm.wav,lo,8:12,blue,Online_conjL4_syn//aLO9.none.wav,none,,0,0,0,3,0,19,19,2,0,1,1,1,,,,,,,,,,,,,,,,,,,,,,,,,,,,,,,,,,,,,,,,,,,,,,,,,,,,,,,,,,,,,0.01798840000992641,112.73564570001327,112.73564570001327,112.73564570001327,None,y,0.14046620001317933,,,,,,,,,,,,,,,,,,,,,,,,,283836,001,2023-06-06_12h17.49.206,Pilot_online_tryings,2022.2.5,59.919025426301914,
ConjL4_syn.csv,directory_online_conj_L4_syn.csv,Test_Conj_SyncL4.csv,ConjL4_sync_norm.wav,lo,8:12,blue,Online_conjL4_syn//aLO11.666.wav,666.0,,0,0,0,3,0,19,19,2,0,2,2,3,,,,,,,,,,,,,,,,,,,,,,,,,,,,,,,,,,,,,,,,,,,,,,,,,,,,,,,,,,,,,0.005486500042025,112.89428609999595,112.89428609999595,112.89428609999595,None,y,0.15826940000988543,,,,,,,,,,,,,,,,,,,,,,,,,283836,001,2023-06-06_12h17.49.206,Pilot_online_tryings,2022.2.5,59.919025426301914,
ConjL4_syn.csv,directory_online_conj_L4_syn.csv,Test_Conj_SyncL4.csv,ConjL4_sync_norm.wav,lo,8:12,blue,Online_conjL4_syn//aLO10.none.wav,none,,0,0,0,3,0,19,19,2,0,3,3,2,,,,,,,,,,,,,,,,,,,,,,,,,,,,,,,,,,,,,,,,,,,,,,,,,,,,,,,,,,,,,0.007830800022929907,113.07787749997806,113.07787749997806,113.07787749997806,None,y,0.15103970002382994,,,,,,,,,,,,,,,,,,,,,,,,,283836,001,2023-06-06_12h17.49.206,Pilot_online_tryings,2022.2.5,59.919025426301914,
ConjL4_syn.csv,directory_online_conj_L4_syn.csv,Test_Conj_SyncL4.csv,ConjL4_sync_norm.wav,lo,8:12,blue,,,,0,0,0,3,0,19,19,2,,,,,,,,,,,,,,,,,,,,,,,,,,,,,,,,,,,,,,,,,,,,,,,,,,,,,,,,,,,,,,,,,,,,,,,,,,,,,,,,,,,,,,,,,,,,,,,,283836,001,2023-06-06_12h17.49.206,Pilot_online_tryings,2022.2.5,59.919025426301914,
ConjL4_syn.csv,directory_online_conj_L4_syn.csv,Test_Conj_SyncL4.csv,ConjL4_sync_norm.wav,lo,20:24,blue,Online_conjL4_syn//aLO20.666.wav,666.0,,0,0,0,3,0,20,20,31,0,0,0,0,,,,,,,,,,,,,,,,,,,,,,,,,,,,,,,,,,,,,,,,,,,,,,,,,,,,,,,,,,,113.2670378999901,113.2670378999901,0.016292199958115816,113.2670378999901,113.2670378999901,113.2670378999901,None,y,0.13735059997998178,,,,,,,,,,,,,,,,,,,,,,,,,283836,001,2023-06-06_12h17.49.206,Pilot_online_tryings,2022.2.5,59.919025426301914,
ConjL4_syn.csv,directory_online_conj_L4_syn.csv,Test_Conj_SyncL4.csv,ConjL4_sync_norm.wav,lo,20:24,blue,Online_conjL4_syn//aLO22.none.wav,none,,0,0,0,3,0,20,20,31,0,1,1,2,,,,,,,,,,,,,,,,,,,,,,,,,,,,,,,,,,,,,,,,,,,,,,,,,,,,,,,,,,,,,0.012922300025820732,113.43173720000777,113.43173720000777,113.43173720000777,None,y,0.13238389999605715,,,,,,,,,,,,,,,,,,,,,,,,,283836,001,2023-06-06_12h17.49.206,Pilot_online_tryings,2022.2.5,59.919025426301914,
ConjL4_syn.csv,directory_online_conj_L4_syn.csv,Test_Conj_SyncL4.csv,ConjL4_sync_norm.wav,lo,20:24,blue,Online_conjL4_syn//aLO21.666.wav,666.0,,0,0,0,3,0,20,20,31,0,2,2,1,,,,,,,,,,,,,,,,,,,,,,,,,,,,,,,,,,,,,,,,,,,,,,,,,,,,,,,,,,,,,0.01441750000230968,113.59964540001238,113.59964540001238,113.59964540001238,None,y,0.1402535999659449,,,,,,,,,,,,,,,,,,,,,,,,,283836,001,2023-06-06_12h17.49.206,Pilot_online_tryings,2022.2.5,59.919025426301914,
ConjL4_syn.csv,directory_online_conj_L4_syn.csv,Test_Conj_SyncL4.csv,ConjL4_sync_norm.wav,lo,20:24,blue,Online_conjL4_syn//aLO23.none.wav,none,,0,0,0,3,0,20,20,31,0,3,3,3,,,,,,,,,,,,,,,,,,,,,,,,,,,,,,,,,,,,,,,,,,,,,,,,,,,,,,,,,,,,,0.013629599998239428,113.76587170001585,113.76587170001585,113.76587170001585,None,y,0.3106047999463044,,,,,,,,,,,,,,,,,,,,,,,,,283836,001,2023-06-06_12h17.49.206,Pilot_online_tryings,2022.2.5,59.919025426301914,
ConjL4_syn.csv,directory_online_conj_L4_syn.csv,Test_Conj_SyncL4.csv,ConjL4_sync_norm.wav,lo,20:24,blue,,,,0,0,0,3,0,20,20,31,,,,,,,,,,,,,,,,,,,,,,,,,,,,,,,,,,,,,,,,,,,,,,,,,,,,,,,,,,,,,,,,,,,,,,,,,,,,,,,,,,,,,,,,,,,,,,,,283836,001,2023-06-06_12h17.49.206,Pilot_online_tryings,2022.2.5,59.919025426301914,
ConjL4_syn.csv,directory_online_conj_L4_syn.csv,Test_Conj_SyncL4.csv,ConjL4_sync_norm.wav,ja,56:60,green,Online_conjL4_syn//bJA24.0.wav,0.0,,0,0,0,3,0,21,21,4,0,0,0,0,,,,,,,,,,,,,,,,,,,,,,,,,,,,,,,,,,,,,,,,,,,,,,,,,,,,,,,,,,,114.1175316000008,114.1175316000008,0.018148500006645918,114.1175316000008,114.1175316000008,114.1175316000008,None,y,0.1502164999837987,,,,,,,,,,,,,,,,,,,,,,,,,283836,001,2023-06-06_12h17.49.206,Pilot_online_tryings,2022.2.5,59.919025426301914,
ConjL4_syn.csv,directory_online_conj_L4_syn.csv,Test_Conj_SyncL4.csv,ConjL4_sync_norm.wav,ja,56:60,green,Online_conjL4_syn//bJA26.none.wav,none,,0,0,0,3,0,21,21,4,0,1,1,2,,,,,,,,,,,,,,,,,,,,,,,,,,,,,,,,,,,,,,,,,,,,,,,,,,,,,,,,,,,,,0.01436140004079789,114.3018141000066,114.3018141000066,114.3018141000066,None,y,0.17327249998925254,,,,,,,,,,,,,,,,,,,,,,,,,283836,001,2023-06-06_12h17.49.206,Pilot_online_tryings,2022.2.5,59.919025426301914,
ConjL4_syn.csv,directory_online_conj_L4_syn.csv,Test_Conj_SyncL4.csv,ConjL4_sync_norm.wav,ja,56:60,green,Online_conjL4_syn//bJA25.none.wav,none,,0,0,0,3,0,21,21,4,0,2,2,1,,,,,,,,,,,,,,,,,,,,,,,,,,,,,,,,,,,,,,,,,,,,,,,,,,,,,,,,,,,,,0.023452599998563528,114.5106334000011,114.5106334000011,114.5106334000011,None,y,0.15637009998317808,,,,,,,,,,,,,,,,,,,,,,,,,283836,001,2023-06-06_12h17.49.206,Pilot_online_tryings,2022.2.5,59.919025426301914,
ConjL4_syn.csv,directory_online_conj_L4_syn.csv,Test_Conj_SyncL4.csv,ConjL4_sync_norm.wav,ja,56:60,green,Online_conjL4_syn//bJA27.666.wav,666.0,,0,0,0,3,0,21,21,4,0,3,3,3,,,,,,,,,,,,,,,,,,,,,,,,,,,,,,,,,,,,,,,,,,,,,,,,,,,,,,,,,,,,,0.014871200022753328,114.70146820001537,114.70146820001537,114.70146820001537,None,y,0.1585328000364825,,,,,,,,,,,,,,,,,,,,,,,,,283836,001,2023-06-06_12h17.49.206,Pilot_online_tryings,2022.2.5,59.919025426301914,
ConjL4_syn.csv,directory_online_conj_L4_syn.csv,Test_Conj_SyncL4.csv,ConjL4_sync_norm.wav,ja,56:60,green,,,,0,0,0,3,0,21,21,4,,,,,,,,,,,,,,,,,,,,,,,,,,,,,,,,,,,,,,,,,,,,,,,,,,,,,,,,,,,,,,,,,,,,,,,,,,,,,,,,,,,,,,,,,,,,,,,,283836,001,2023-06-06_12h17.49.206,Pilot_online_tryings,2022.2.5,59.919025426301914,
ConjL4_syn.csv,directory_online_conj_L4_syn.csv,Test_Conj_SyncL4.csv,ConjL4_sync_norm.wav,pe,116:120,red,Online_conjL4_syn//dPE21.1554.wav,1554.0,,0,0,0,3,0,22,22,25,0,0,0,1,,,,,,,,,,,,,,,,,,,,,,,,,,,,,,,,,,,,,,,,,,,,,,,,,,,,,,,,,,,114.89553259999957,114.89553259999957,0.020449500007089227,114.89553259999957,114.89553259999957,114.89553259999957,None,y,0.15624029998434708,,,,,,,,,,,,,,,,,,,,,,,,,283836,001,2023-06-06_12h17.49.206,Pilot_online_tryings,2022.2.5,59.919025426301914,
ConjL4_syn.csv,directory_online_conj_L4_syn.csv,Test_Conj_SyncL4.csv,ConjL4_sync_norm.wav,pe,116:120,red,Online_conjL4_syn//dPE22.222.wav,222.0,,0,0,0,3,0,22,22,25,0,1,1,2,,,,,,,,,,,,,,,,,,,,,,,,,,,,,,,,,,,,,,,,,,,,,,,,,,,,,,,,,,,,,0.019589200033806264,115.08975429995917,115.08975429995917,115.08975429995917,None,y,0.15474460000405088,,,,,,,,,,,,,,,,,,,,,,,,,283836,001,2023-06-06_12h17.49.206,Pilot_online_tryings,2022.2.5,59.919025426301914,
ConjL4_syn.csv,directory_online_conj_L4_syn.csv,Test_Conj_SyncL4.csv,ConjL4_sync_norm.wav,pe,116:120,red,Online_conjL4_syn//dPE23.none.wav,none,,0,0,0,3,0,22,22,25,0,2,2,3,,,,,,,,,,,,,,,,,,,,,,,,,,,,,,,,,,,,,,,,,,,,,,,,,,,,,,,,,,,,,0.015146300022024661,115.26962229999481,115.26962229999481,115.26962229999481,None,y,0.15013999998336658,,,,,,,,,,,,,,,,,,,,,,,,,283836,001,2023-06-06_12h17.49.206,Pilot_online_tryings,2022.2.5,59.919025426301914,
ConjL4_syn.csv,directory_online_conj_L4_syn.csv,Test_Conj_SyncL4.csv,ConjL4_sync_norm.wav,pe,116:120,red,Online_conjL4_syn//dPE20.222.wav,222.0,,0,0,0,3,0,22,22,25,0,3,3,0,,,,,,,,,,,,,,,,,,,,,,,,,,,,,,,,,,,,,,,,,,,,,,,,,,,,,,,,,,,,,0.012217999959830195,115.44958829996176,115.44958829996176,115.44958829996176,None,y,0.16320310003357008,,,,,,,,,,,,,,,,,,,,,,,,,283836,001,2023-06-06_12h17.49.206,Pilot_online_tryings,2022.2.5,59.919025426301914,
ConjL4_syn.csv,directory_online_conj_L4_syn.csv,Test_Conj_SyncL4.csv,ConjL4_sync_norm.wav,pe,116:120,red,,,,0,0,0,3,0,22,22,25,,,,,,,,,,,,,,,,,,,,,,,,,,,,,,,,,,,,,,,,,,,,,,,,,,,,,,,,,,,,,,,,,,,,,,,,,,,,,,,,,,,,,,,,,,,,,,,,283836,001,2023-06-06_12h17.49.206,Pilot_online_tryings,2022.2.5,59.919025426301914,
ConjL4_syn.csv,directory_online_conj_L4_syn.csv,Test_Conj_SyncL4.csv,ConjL4_sync_norm.wav,ja,52:56,green,Online_conjL4_syn//bJA20.none.wav,none,,0,0,0,3,0,23,23,5,0,0,0,0,,,,,,,,,,,,,,,,,,,,,,,,,,,,,,,,,,,,,,,,,,,,,,,,,,,,,,,,,,,115.66898049996234,115.66898049996234,0.04332920000888407,115.66898049996234,115.66898049996234,115.66898049996234,None,y,0.11893669998971745,,,,,,,,,,,,,,,,,,,,,,,,,283836,001,2023-06-06_12h17.49.206,Pilot_online_tryings,2022.2.5,59.919025426301914,
ConjL4_syn.csv,directory_online_conj_L4_syn.csv,Test_Conj_SyncL4.csv,ConjL4_sync_norm.wav,ja,52:56,green,Online_conjL4_syn//bJA23.0.wav,0.0,,0,0,0,3,0,23,23,5,0,1,1,3,,,,,,,,,,,,,,,,,,,,,,,,,,,,,,,,,,,,,,,,,,,,,,,,,,,,,,,,,,,,,0.011033599963411689,115.81542820000323,115.81542820000323,115.81542820000323,None,y,0.14793859998462722,,,,,,,,,,,,,,,,,,,,,,,,,283836,001,2023-06-06_12h17.49.206,Pilot_online_tryings,2022.2.5,59.919025426301914,
ConjL4_syn.csv,directory_online_conj_L4_syn.csv,Test_Conj_SyncL4.csv,ConjL4_sync_norm.wav,ja,52:56,green,Online_conjL4_syn//bJA21.666.wav,666.0,,0,0,0,3,0,23,23,5,0,2,2,1,,,,,,,,,,,,,,,,,,,,,,,,,,,,,,,,,,,,,,,,,,,,,,,,,,,,,,,,,,,,,0.0065941999782808125,115.9806803999818,115.9806803999818,115.9806803999818,None,y,0.17485780001152307,,,,,,,,,,,,,,,,,,,,,,,,,283836,001,2023-06-06_12h17.49.206,Pilot_online_tryings,2022.2.5,59.919025426301914,
ConjL4_syn.csv,directory_online_conj_L4_syn.csv,Test_Conj_SyncL4.csv,ConjL4_sync_norm.wav,ja,52:56,green,Online_conjL4_syn//bJA22.0.wav,0.0,,0,0,0,3,0,23,23,5,0,3,3,2,,,,,,,,,,,,,,,,,,,,,,,,,,,,,,,,,,,,,,,,,,,,,,,,,,,,,,,,,,,,,0.008776600006967783,116.18254929996328,116.18254929996328,116.18254929996328,None,y,0.148330399999395,,,,,,,,,,,,,,,,,,,,,,,,,283836,001,2023-06-06_12h17.49.206,Pilot_online_tryings,2022.2.5,59.919025426301914,
ConjL4_syn.csv,directory_online_conj_L4_syn.csv,Test_Conj_SyncL4.csv,ConjL4_sync_norm.wav,ja,52:56,green,,,,0,0,0,3,0,23,23,5,,,,,,,,,,,,,,,,,,,,,,,,,,,,,,,,,,,,,,,,,,,,,,,,,,,,,,,,,,,,,,,,,,,,,,,,,,,,,,,,,,,,,,,,,,,,,,,,283836,001,2023-06-06_12h17.49.206,Pilot_online_tryings,2022.2.5,59.919025426301914,
ConjL4_syn.csv,directory_online_conj_L4_syn.csv,Test_Conj_SyncL4.csv,ConjL4_sync_norm.wav,bu,88:92,orange,Online_conjL4_syn//cBU24.444.wav,444.0,,0,0,0,3,0,24,24,8,0,0,0,0,,,,,,,,,,,,,,,,,,,,,,,,,,,,,,,,,,,,,,,,,,,,,,,,,,,,,,,,,,,116.37303570000222,116.37303570000222,0.028665699996054173,116.37303570000222,116.37303570000222,116.37303570000222,None,y,0.15052090003155172,,,,,,,,,,,,,,,,,,,,,,,,,283836,001,2023-06-06_12h17.49.206,Pilot_online_tryings,2022.2.5,59.919025426301914,
ConjL4_syn.csv,directory_online_conj_L4_syn.csv,Test_Conj_SyncL4.csv,ConjL4_sync_norm.wav,bu,88:92,orange,Online_conjL4_syn//cBU27.none.wav,none,,0,0,0,3,0,24,24,8,0,1,1,3,,,,,,,,,,,,,,,,,,,,,,,,,,,,,,,,,,,,,,,,,,,,,,,,,,,,,,,,,,,,,0.018070699996314943,116.55638669995824,116.55638669995824,116.55638669995824,None,y,0.14264619996538386,,,,,,,,,,,,,,,,,,,,,,,,,283836,001,2023-06-06_12h17.49.206,Pilot_online_tryings,2022.2.5,59.919025426301914,
ConjL4_syn.csv,directory_online_conj_L4_syn.csv,Test_Conj_SyncL4.csv,ConjL4_sync_norm.wav,bu,88:92,orange,Online_conjL4_syn//cBU26.222.wav,222.0,,0,0,0,3,0,24,24,8,0,2,2,2,,,,,,,,,,,,,,,,,,,,,,,,,,,,,,,,,,,,,,,,,,,,,,,,,,,,,,,,,,,,,0.0067411999916657805,116.73141030000988,116.73141030000988,116.73141030000988,None,y,0.14468330005183816,,,,,,,,,,,,,,,,,,,,,,,,,283836,001,2023-06-06_12h17.49.206,Pilot_online_tryings,2022.2.5,59.919025426301914,
ConjL4_syn.csv,directory_online_conj_L4_syn.csv,Test_Conj_SyncL4.csv,ConjL4_sync_norm.wav,bu,88:92,orange,Online_conjL4_syn//cBU25.none.wav,none,,0,0,0,3,0,24,24,8,0,3,3,1,,,,,,,,,,,,,,,,,,,,,,,,,,,,,,,,,,,,,,,,,,,,,,,,,,,,,,,,,,,,,0.005835699965246022,116.89829599997029,116.89829599997029,116.89829599997029,None,y,0.16907319996971637,,,,,,,,,,,,,,,,,,,,,,,,,283836,001,2023-06-06_12h17.49.206,Pilot_online_tryings,2022.2.5,59.919025426301914,
ConjL4_syn.csv,directory_online_conj_L4_syn.csv,Test_Conj_SyncL4.csv,ConjL4_sync_norm.wav,bu,88:92,orange,,,,0,0,0,3,0,24,24,8,,,,,,,,,,,,,,,,,,,,,,,,,,,,,,,,,,,,,,,,,,,,,,,,,,,,,,,,,,,,,,,,,,,,,,,,,,,,,,,,,,,,,,,,,,,,,,,,283836,001,2023-06-06_12h17.49.206,Pilot_online_tryings,2022.2.5,59.919025426301914,
ConjL4_syn.csv,directory_online_conj_L4_syn.csv,Test_Conj_SyncL4.csv,ConjL4_sync_norm.wav,pe,124:128,red,Online_conjL4_syn//dPE29.1110.wav,1110.0,,0,0,0,3,0,25,25,20,0,0,0,1,,,,,,,,,,,,,,,,,,,,,,,,,,,,,,,,,,,,,,,,,,,,,,,,,,,,,,,,,,,117.11268169997493,117.11268169997493,0.019343600026331842,117.11268169997493,117.11268169997493,117.11268169997493,None,y,0.14625540003180504,,,,,,,,,,,,,,,,,,,,,,,,,283836,001,2023-06-06_12h17.49.206,Pilot_online_tryings,2022.2.5,59.919025426301914,
ConjL4_syn.csv,directory_online_conj_L4_syn.csv,Test_Conj_SyncL4.csv,ConjL4_sync_norm.wav,pe,124:128,red,Online_conjL4_syn//dPE30.222.wav,222.0,,0,0,0,3,0,25,25,20,0,1,1,2,,,,,,,,,,,,,,,,,,,,,,,,,,,,,,,,,,,,,,,,,,,,,,,,,,,,,,,,,,,,,0.02305369998794049,117.29563649999909,117.29563649999909,117.29563649999909,None,y,0.14018280000891536,,,,,,,,,,,,,,,,,,,,,,,,,283836,001,2023-06-06_12h17.49.206,Pilot_online_tryings,2022.2.5,59.919025426301914,
ConjL4_syn.csv,directory_online_conj_L4_syn.csv,Test_Conj_SyncL4.csv,ConjL4_sync_norm.wav,pe,124:128,red,Online_conjL4_syn//dPE28.none.wav,none,,0,0,0,3,0,25,25,20,0,2,2,0,,,,,,,,,,,,,,,,,,,,,,,,,,,,,,,,,,,,,,,,,,,,,,,,,,,,,,,,,,,,,0.00909409997984767,117.46565450000344,117.46565450000344,117.46565450000344,None,y,0.14551830000709742,,,,,,,,,,,,,,,,,,,,,,,,,283836,001,2023-06-06_12h17.49.206,Pilot_online_tryings,2022.2.5,59.919025426301914,
ConjL4_syn.csv,directory_online_conj_L4_syn.csv,Test_Conj_SyncL4.csv,ConjL4_sync_norm.wav,pe,124:128,red,Online_conjL4_syn//dPE31.1332.wav,1332.0,,0,0,0,3,0,25,25,20,0,3,3,3,,,,,,,,,,,,,,,,,,,,,,,,,,,,,,,,,,,,,,,,,,,,,,,,,,,,,,,,,,,,,0.015168199955951422,117.63761129998602,117.63761129998602,117.63761129998602,None,y,0.1495878000278026,,,,,,,,,,,,,,,,,,,,,,,,,283836,001,2023-06-06_12h17.49.206,Pilot_online_tryings,2022.2.5,59.919025426301914,
ConjL4_syn.csv,directory_online_conj_L4_syn.csv,Test_Conj_SyncL4.csv,ConjL4_sync_norm.wav,pe,124:128,red,,,,0,0,0,3,0,25,25,20,,,,,,,,,,,,,,,,,,,,,,,,,,,,,,,,,,,,,,,,,,,,,,,,,,,,,,,,,,,,,,,,,,,,,,,,,,,,,,,,,,,,,,,,,,,,,,,,283836,001,2023-06-06_12h17.49.206,Pilot_online_tryings,2022.2.5,59.919025426301914,
ConjL4_syn.csv,directory_online_conj_L4_syn.csv,Test_Conj_SyncL4.csv,ConjL4_sync_norm.wav,ja,44:48,green,Online_conjL4_syn//bJA14.none.wav,none,,0,0,0,3,0,26,26,19,0,0,0,2,,,,,,,,,,,,,,,,,,,,,,,,,,,,,,,,,,,,,,,,,,,,,,,,,,,,,,,,,,,117.83500749996165,117.83500749996165,0.021510499995201826,117.83500749996165,117.83500749996165,117.83500749996165,None,y,0.1283837000373751,,,,,,,,,,,,,,,,,,,,,,,,,283836,001,2023-06-06_12h17.49.206,Pilot_online_tryings,2022.2.5,59.919025426301914,
ConjL4_syn.csv,directory_online_conj_L4_syn.csv,Test_Conj_SyncL4.csv,ConjL4_sync_norm.wav,ja,44:48,green,Online_conjL4_syn//bJA15.none.wav,none,,0,0,0,3,0,26,26,19,0,1,1,3,,,,,,,,,,,,,,,,,,,,,,,,,,,,,,,,,,,,,,,,,,,,,,,,,,,,,,,,,,,,,0.015925099956803024,117.9892833000049,117.9892833000049,117.9892833000049,None,y,0.15048439998645335,,,,,,,,,,,,,,,,,,,,,,,,,283836,001,2023-06-06_12h17.49.206,Pilot_online_tryings,2022.2.5,59.919025426301914,
ConjL4_syn.csv,directory_online_conj_L4_syn.csv,Test_Conj_SyncL4.csv,ConjL4_sync_norm.wav,ja,44:48,green,Online_conjL4_syn//bJA12.666.wav,666.0,,0,0,0,3,0,26,26,19,0,2,2,0,,,,,,,,,,,,,,,,,,,,,,,,,,,,,,,,,,,,,,,,,,,,,,,,,,,,,,,,,,,,,0.0151344999903813,118.17214390001027,118.17214390001027,118.17214390001027,None,y,0.14398369996342808,,,,,,,,,,,,,,,,,,,,,,,,,283836,001,2023-06-06_12h17.49.206,Pilot_online_tryings,2022.2.5,59.919025426301914,
ConjL4_syn.csv,directory_online_conj_L4_syn.csv,Test_Conj_SyncL4.csv,ConjL4_sync_norm.wav,ja,44:48,green,Online_conjL4_syn//bJA13.none.wav,none,,0,0,0,3,0,26,26,19,0,3,3,1,,,,,,,,,,,,,,,,,,,,,,,,,,,,,,,,,,,,,,,,,,,,,,,,,,,,,,,,,,,,,0.022883699974045157,118.3480930000078,118.3480930000078,118.3480930000078,None,y,0.12809610000113025,,,,,,,,,,,,,,,,,,,,,,,,,283836,001,2023-06-06_12h17.49.206,Pilot_online_tryings,2022.2.5,59.919025426301914,
ConjL4_syn.csv,directory_online_conj_L4_syn.csv,Test_Conj_SyncL4.csv,ConjL4_sync_norm.wav,ja,44:48,green,,,,0,0,0,3,0,26,26,19,,,,,,,,,,,,,,,,,,,,,,,,,,,,,,,,,,,,,,,,,,,,,,,,,,,,,,,,,,,,,,,,,,,,,,,,,,,,,,,,,,,,,,,,,,,,,,,,283836,001,2023-06-06_12h17.49.206,Pilot_online_tryings,2022.2.5,59.919025426301914,
ConjL4_syn.csv,directory_online_conj_L4_syn.csv,Test_Conj_SyncL4.csv,ConjL4_sync_norm.wav,bu,80:84,orange,Online_conjL4_syn//cBU18.none.wav,none,,0,0,0,3,0,27,27,11,0,0,0,2,,,,,,,,,,,,,,,,,,,,,,,,,,,,,,,,,,,,,,,,,,,,,,,,,,,,,,,,,,,118.51427069999045,118.51427069999045,0.018485600012354553,118.51427069999045,118.51427069999045,118.51427069999045,None,y,0.1535810999921523,,,,,,,,,,,,,,,,,,,,,,,,,283836,001,2023-06-06_12h17.49.206,Pilot_online_tryings,2022.2.5,59.919025426301914,
ConjL4_syn.csv,directory_online_conj_L4_syn.csv,Test_Conj_SyncL4.csv,ConjL4_sync_norm.wav,bu,80:84,orange,Online_conjL4_syn//cBU19.none.wav,none,,0,0,0,3,0,27,27,11,0,1,1,3,,,,,,,,,,,,,,,,,,,,,,,,,,,,,,,,,,,,,,,,,,,,,,,,,,,,,,,,,,,,,0.01350780000211671,118.70246609998867,118.70246609998867,118.70246609998867,None,y,0.1421373999910429,,,,,,,,,,,,,,,,,,,,,,,,,283836,001,2023-06-06_12h17.49.206,Pilot_online_tryings,2022.2.5,59.919025426301914,
ConjL4_syn.csv,directory_online_conj_L4_syn.csv,Test_Conj_SyncL4.csv,ConjL4_sync_norm.wav,bu,80:84,orange,Online_conjL4_syn//cBU16.1110.wav,1110.0,,0,0,0,3,0,27,27,11,0,2,2,0,,,,,,,,,,,,,,,,,,,,,,,,,,,,,,,,,,,,,,,,,,,,,,,,,,,,,,,,,,,,,0.008160899975337088,118.86696909996681,118.86696909996681,118.86696909996681,None,y,0.16839329997310415,,,,,,,,,,,,,,,,,,,,,,,,,283836,001,2023-06-06_12h17.49.206,Pilot_online_tryings,2022.2.5,59.919025426301914,
ConjL4_syn.csv,directory_online_conj_L4_syn.csv,Test_Conj_SyncL4.csv,ConjL4_sync_norm.wav,bu,80:84,orange,Online_conjL4_syn//cBU17.1332.wav,1332.0,,0,0,0,3,0,27,27,11,0,3,3,1,,,,,,,,,,,,,,,,,,,,,,,,,,,,,,,,,,,,,,,,,,,,,,,,,,,,,,,,,,,,,0.01678229996468872,119.07306289998814,119.07306289998814,119.07306289998814,None,y,0.13816360000055283,,,,,,,,,,,,,,,,,,,,,,,,,283836,001,2023-06-06_12h17.49.206,Pilot_online_tryings,2022.2.5,59.919025426301914,
ConjL4_syn.csv,directory_online_conj_L4_syn.csv,Test_Conj_SyncL4.csv,ConjL4_sync_norm.wav,bu,80:84,orange,,,,0,0,0,3,0,27,27,11,,,,,,,,,,,,,,,,,,,,,,,,,,,,,,,,,,,,,,,,,,,,,,,,,,,,,,,,,,,,,,,,,,,,,,,,,,,,,,,,,,,,,,,,,,,,,,,,283836,001,2023-06-06_12h17.49.206,Pilot_online_tryings,2022.2.5,59.919025426301914,
ConjL4_syn.csv,directory_online_conj_L4_syn.csv,Test_Conj_SyncL4.csv,ConjL4_sync_norm.wav,ja,60:64,green,Online_conjL4_syn//bJA29.none.wav,none,,0,0,0,3,0,28,28,7,0,0,0,1,,,,,,,,,,,,,,,,,,,,,,,,,,,,,,,,,,,,,,,,,,,,,,,,,,,,,,,,,,,119.25505879998673,119.25505879998673,0.02479009999660775,119.25505879998673,119.25505879998673,119.25505879998673,None,y,0.13353519997326657,,,,,,,,,,,,,,,,,,,,,,,,,283836,001,2023-06-06_12h17.49.206,Pilot_online_tryings,2022.2.5,59.919025426301914,
ConjL4_syn.csv,directory_online_conj_L4_syn.csv,Test_Conj_SyncL4.csv,ConjL4_sync_norm.wav,ja,60:64,green,Online_conjL4_syn//bJA30.none.wav,none,,0,0,0,3,0,28,28,7,0,1,1,2,,,,,,,,,,,,,,,,,,,,,,,,,,,,,,,,,,,,,,,,,,,,,,,,,,,,,,,,,,,,,0.015181700000539422,119.42353400000138,119.42353400000138,119.42353400000138,None,y,0.14153150003403425,,,,,,,,,,,,,,,,,,,,,,,,,283836,001,2023-06-06_12h17.49.206,Pilot_online_tryings,2022.2.5,59.919025426301914,
ConjL4_syn.csv,directory_online_conj_L4_syn.csv,Test_Conj_SyncL4.csv,ConjL4_sync_norm.wav,ja,60:64,green,Online_conjL4_syn//bJA28.0.wav,0.0,,0,0,0,3,0,28,28,7,0,2,2,0,,,,,,,,,,,,,,,,,,,,,,,,,,,,,,,,,,,,,,,,,,,,,,,,,,,,,,,,,,,,,0.010798499977681786,119.58663699997123,119.58663699997123,119.58663699997123,None,y,0.1528764000395313,,,,,,,,,,,,,,,,,,,,,,,,,283836,001,2023-06-06_12h17.49.206,Pilot_online_tryings,2022.2.5,59.919025426301914,
ConjL4_syn.csv,directory_online_conj_L4_syn.csv,Test_Conj_SyncL4.csv,ConjL4_sync_norm.wav,ja,60:64,green,Online_conjL4_syn//bJA31.none.wav,none,,0,0,0,3,0,28,28,7,0,3,3,3,,,,,,,,,,,,,,,,,,,,,,,,,,,,,,,,,,,,,,,,,,,,,,,,,,,,,,,,,,,,,0.019234700012020767,119.77777909999713,119.77777909999713,119.77777909999713,None,y,0.1221025999984704,,,,,,,,,,,,,,,,,,,,,,,,,283836,001,2023-06-06_12h17.49.206,Pilot_online_tryings,2022.2.5,59.919025426301914,
ConjL4_syn.csv,directory_online_conj_L4_syn.csv,Test_Conj_SyncL4.csv,ConjL4_sync_norm.wav,ja,60:64,green,,,,0,0,0,3,0,28,28,7,,,,,,,,,,,,,,,,,,,,,,,,,,,,,,,,,,,,,,,,,,,,,,,,,,,,,,,,,,,,,,,,,,,,,,,,,,,,,,,,,,,,,,,,,,,,,,,,283836,001,2023-06-06_12h17.49.206,Pilot_online_tryings,2022.2.5,59.919025426301914,
ConjL4_syn.csv,directory_online_conj_L4_syn.csv,Test_Conj_SyncL4.csv,ConjL4_sync_norm.wav,ja,48:52,green,Online_conjL4_syn//bJA19.666.wav,666.0,,0,0,0,3,0,29,29,12,0,0,0,3,,,,,,,,,,,,,,,,,,,,,,,,,,,,,,,,,,,,,,,,,,,,,,,,,,,,,,,,,,,119.93824940000195,119.93824940000195,0.027957499958574772,119.93824940000195,119.93824940000195,119.93824940000195,None,y,0.13799780001863837,,,,,,,,,,,,,,,,,,,,,,,,,283836,001,2023-06-06_12h17.49.206,Pilot_online_tryings,2022.2.5,59.919025426301914,
ConjL4_syn.csv,directory_online_conj_L4_syn.csv,Test_Conj_SyncL4.csv,ConjL4_sync_norm.wav,ja,48:52,green,Online_conjL4_syn//bJA17.none.wav,none,,0,0,0,3,0,29,29,12,0,1,1,1,,,,,,,,,,,,,,,,,,,,,,,,,,,,,,,,,,,,,,,,,,,,,,,,,,,,,,,,,,,,,0.01508280000416562,120.10805969999637,120.10805969999637,120.10805969999637,None,y,0.14438880002126098,,,,,,,,,,,,,,,,,,,,,,,,,283836,001,2023-06-06_12h17.49.206,Pilot_online_tryings,2022.2.5,59.919025426301914,
ConjL4_syn.csv,directory_online_conj_L4_syn.csv,Test_Conj_SyncL4.csv,ConjL4_sync_norm.wav,ja,48:52,green,Online_conjL4_syn//bJA16.none.wav,none,,0,0,0,3,0,29,29,12,0,2,2,0,,,,,,,,,,,,,,,,,,,,,,,,,,,,,,,,,,,,,,,,,,,,,,,,,,,,,,,,,,,,,0.019284799986053258,120.29316130001098,120.29316130001098,120.29316130001098,None,y,0.13533279998227954,,,,,,,,,,,,,,,,,,,,,,,,,283836,001,2023-06-06_12h17.49.206,Pilot_online_tryings,2022.2.5,59.919025426301914,
ConjL4_syn.csv,directory_online_conj_L4_syn.csv,Test_Conj_SyncL4.csv,ConjL4_sync_norm.wav,ja,48:52,green,Online_conjL4_syn//bJA18.none.wav,none,,0,0,0,3,0,29,29,12,0,3,3,2,,,,,,,,,,,,,,,,,,,,,,,,,,,,,,,,,,,,,,,,,,,,,,,,,,,,,,,,,,,,,0.013857799989636987,120.45643610000843,120.45643610000843,120.45643610000843,None,y,0.16272180003579706,,,,,,,,,,,,,,,,,,,,,,,,,283836,001,2023-06-06_12h17.49.206,Pilot_online_tryings,2022.2.5,59.919025426301914,
ConjL4_syn.csv,directory_online_conj_L4_syn.csv,Test_Conj_SyncL4.csv,ConjL4_sync_norm.wav,ja,48:52,green,,,,0,0,0,3,0,29,29,12,,,,,,,,,,,,,,,,,,,,,,,,,,,,,,,,,,,,,,,,,,,,,,,,,,,,,,,,,,,,,,,,,,,,,,,,,,,,,,,,,,,,,,,,,,,,,,,,283836,001,2023-06-06_12h17.49.206,Pilot_online_tryings,2022.2.5,59.919025426301914,
ConjL4_syn.csv,directory_online_conj_L4_syn.csv,Test_Conj_SyncL4.csv,ConjL4_sync_norm.wav,ja,40:44,green,Online_conjL4_syn//bJA9.none.wav,none,,0,0,0,3,0,30,30,21,0,0,0,1,,,,,,,,,,,,,,,,,,,,,,,,,,,,,,,,,,,,,,,,,,,,,,,,,,,,,,,,,,,120.65909149998333,120.65909149998333,0.031889300036709756,120.65909149998333,120.65909149998333,120.65909149998333,None,y,0.15329470002325252,,,,,,,,,,,,,,,,,,,,,,,,,283836,001,2023-06-06_12h17.49.206,Pilot_online_tryings,2022.2.5,59.919025426301914,
ConjL4_syn.csv,directory_online_conj_L4_syn.csv,Test_Conj_SyncL4.csv,ConjL4_sync_norm.wav,ja,40:44,green,Online_conjL4_syn//bJA8.none.wav,none,,0,0,0,3,0,30,30,21,0,1,1,0,,,,,,,,,,,,,,,,,,,,,,,,,,,,,,,,,,,,,,,,,,,,,,,,,,,,,,,,,,,,,0.006846599979326129,120.8358145999955,120.8358145999955,120.8358145999955,None,y,0.1523464000201784,,,,,,,,,,,,,,,,,,,,,,,,,283836,001,2023-06-06_12h17.49.206,Pilot_online_tryings,2022.2.5,59.919025426301914,
ConjL4_syn.csv,directory_online_conj_L4_syn.csv,Test_Conj_SyncL4.csv,ConjL4_sync_norm.wav,ja,40:44,green,Online_conjL4_syn//bJA11.666.wav,666.0,,0,0,0,3,0,30,30,21,0,2,2,3,,,,,,,,,,,,,,,,,,,,,,,,,,,,,,,,,,,,,,,,,,,,,,,,,,,,,,,,,,,,,0.008175099967047572,121.01920290000271,121.01920290000271,121.01920290000271,None,y,0.1601513999630697,,,,,,,,,,,,,,,,,,,,,,,,,283836,001,2023-06-06_12h17.49.206,Pilot_online_tryings,2022.2.5,59.919025426301914,
ConjL4_syn.csv,directory_online_conj_L4_syn.csv,Test_Conj_SyncL4.csv,ConjL4_sync_norm.wav,ja,40:44,green,Online_conjL4_syn//bJA10.0.wav,0.0,,0,0,0,3,0,30,30,21,0,3,3,2,,,,,,,,,,,,,,,,,,,,,,,,,,,,,,,,,,,,,,,,,,,,,,,,,,,,,,,,,,,,,0.006027700030244887,121.20258879999164,121.20258879999164,121.20258879999164,None,y,0.16847879998385906,,,,,,,,,,,,,,,,,,,,,,,,,283836,001,2023-06-06_12h17.49.206,Pilot_online_tryings,2022.2.5,59.919025426301914,
ConjL4_syn.csv,directory_online_conj_L4_syn.csv,Test_Conj_SyncL4.csv,ConjL4_sync_norm.wav,ja,40:44,green,,,,0,0,0,3,0,30,30,21,,,,,,,,,,,,,,,,,,,,,,,,,,,,,,,,,,,,,,,,,,,,,,,,,,,,,,,,,,,,,,,,,,,,,,,,,,,,,,,,,,,,,,,,,,,,,,,,283836,001,2023-06-06_12h17.49.206,Pilot_online_tryings,2022.2.5,59.919025426301914,
ConjL4_syn.csv,directory_online_conj_L4_syn.csv,Test_Conj_SyncL4.csv,ConjL4_sync_norm.wav,bu,92:96,orange,Online_conjL4_syn//cBU29.none.wav,none,,0,0,0,3,0,31,31,22,0,0,0,1,,,,,,,,,,,,,,,,,,,,,,,,,,,,,,,,,,,,,,,,,,,,,,,,,,,,,,,,,,,121.43288059998304,121.43288059998304,0.03346089995466173,121.43288059998304,121.43288059998304,121.43288059998304,None,y,0.11570019996725023,,,,,,,,,,,,,,,,,,,,,,,,,283836,001,2023-06-06_12h17.49.206,Pilot_online_tryings,2022.2.5,59.919025426301914,
ConjL4_syn.csv,directory_online_conj_L4_syn.csv,Test_Conj_SyncL4.csv,ConjL4_sync_norm.wav,bu,92:96,orange,Online_conjL4_syn//cBU28.none.wav,none,,0,0,0,3,0,31,31,22,0,1,1,0,,,,,,,,,,,,,,,,,,,,,,,,,,,,,,,,,,,,,,,,,,,,,,,,,,,,,,,,,,,,,0.008437199983745813,121.56995589996222,121.56995589996222,121.56995589996222,None,y,0.15445410000393167,,,,,,,,,,,,,,,,,,,,,,,,,283836,001,2023-06-06_12h17.49.206,Pilot_online_tryings,2022.2.5,59.919025426301914,
ConjL4_syn.csv,directory_online_conj_L4_syn.csv,Test_Conj_SyncL4.csv,ConjL4_sync_norm.wav,bu,92:96,orange,Online_conjL4_syn//cBU30.0.wav,0.0,,0,0,0,3,0,31,31,22,0,2,2,2,,,,,,,,,,,,,,,,,,,,,,,,,,,,,,,,,,,,,,,,,,,,,,,,,,,,,,,,,,,,,0.012537000002339482,121.75672860001214,121.75672860001214,121.75672860001214,None,y,0.15985400002682582,,,,,,,,,,,,,,,,,,,,,,,,,283836,001,2023-06-06_12h17.49.206,Pilot_online_tryings,2022.2.5,59.919025426301914,
ConjL4_syn.csv,directory_online_conj_L4_syn.csv,Test_Conj_SyncL4.csv,ConjL4_sync_norm.wav,bu,92:96,orange,Online_conjL4_syn//cBU31.444.wav,444.0,,0,0,0,3,0,31,31,22,0,3,3,3,,,,,,,,,,,,,,,,,,,,,,,,,,,,,,,,,,,,,,,,,,,,,,,,,,,,,,,,,,,,,0.008591099991463125,121.93679929996142,121.93679929996142,121.93679929996142,None,y,0.15542780002579093,,,,,,,,,,,,,,,,,,,,,,,,,283836,001,2023-06-06_12h17.49.206,Pilot_online_tryings,2022.2.5,59.919025426301914,
ConjL4_syn.csv,directory_online_conj_L4_syn.csv,Test_Conj_SyncL4.csv,ConjL4_sync_norm.wav,bu,92:96,orange,,,,0,0,0,3,0,31,31,22,,,,,,,,,,,,,,,,,,,,,,,,,,,,,,,,,,,,,,,,,,,,,,,,,,,,,,,,,,,,,,,,,,,,,,,,,,,,,,,,,,,,,,,,,,,,,,,,283836,001,2023-06-06_12h17.49.206,Pilot_online_tryings,2022.2.5,59.919025426301914,
ConjL4_syn.csv,directory_online_conj_L4_syn.csv,Test_Conj_SyncL4.csv,ConjL4_sync_norm.wav,,,,,,testConjL4Syn//r1.s2.1.wav,0,0,0,3,,,,,,,,,0,0,0,12,,,,,,,,,,,,,,,,,,,,,,,,,,,,,,,,,,,,,,,,,,,,,,,,,,,,,,,,,,,,,,,,122.12214699998731,122.12214699998731,space,0.8832904000300914,123.02302069996949,123.02302069996949,space,16.26841279998189,139.41031000000658,139.41031000000658,139.52089377997328,142.32372859999305,y,4.05899779999163,143.49199599999702,143.49199599999702,z,0.3273730999790132,143.9207771999645,143.9207771999645,143.9207771999645,143.9207771999645,1,0.6358281000284478,283836,001,2023-06-06_12h17.49.206,Pilot_online_tryings,2022.2.5,59.919025426301914,
,,,,,,,,,,,,,,,,,,,,,,,,,,,,,,,,,,,,,,,,,,,,,,,,,,,,,,,,,,,,,,,,,,,,,,,,,,,,,,,,,,,,,,,,,,,,,,,,,144.61407700000564,144.61407700000564,144.7763414800109,,,,,,,,,,,,,,,,,,,,
