seq,online_dir,test_dir,audio_offline,cond,ord,colour,dirs,time,trials.thisRepN,trials.thisTrialN,trials.thisN,trials.thisIndex,Conj_unsync_online.thisRepN,Conj_unsync_online.thisTrialN,Conj_unsync_online.thisN,Conj_unsync_online.thisIndex,audio1.thisRepN,audio1.thisTrialN,audio1.thisN,audio1.thisIndex,Conj_unsync_test.thisRepN,Conj_unsync_test.thisTrialN,Conj_unsync_test.thisN,Conj_unsync_test.thisIndex,test,text_21.started,key_resp1.started,key_resp1.keys,key_resp1.rt,text_23.started,key_resp_6.started,key_resp_6.keys,key_resp_6.rt,text_26.started,key_resp_10.started,key_resp_10.keys,key_resp_10.rt,volume_set.started,key_ressp2.started,text_27.started,key_ressp2.keys,key_ressp2.rt,text_24.started,key_resp_9.started,key_resp_9.keys,key_resp_9.rt,text_37.started,key_resp_3.started,key_resp_3.keys,key_resp_3.rt,text_22.started,key_resp1_2.started,key_resp1_2.keys,key_resp1_2.rt,text_25.started,key_resp1_3.started,key_resp1_3.keys,key_resp1_3.rt,text_28.started,key_resp_11.started,key_resp_11.keys,key_resp_11.rt,text_29.started,key_resp_12.started,key_resp_12.keys,key_resp_12.rt,text_36.started,key_resp_18.started,key_resp_18.keys,key_resp_18.rt,learning.started,text_19.started,key_resp_7.started,key_resp_7.keys,key_resp_7.rt,text_31.started,key_resp1_4.started,key_resp1_4.keys,key_resp1_4.rt,text_2.started,text_2.stopped,seqs.started,text_13.started,syllable_catch.started,key_resp_16.started,seqs.stopped,text_13.stopped,syllable_catch.stopped,syllable_catch.keys,syllable_catch.rt,key_resp_16.keys,key_resp_16.rt,text_12.started,key_resp4.started,key_resp4.keys,key_resp4.rt,text_14.started,key_resp_4.started,key_resp_4.keys,key_resp_4.rt,text_17.started,key_resp_17.started,test_sounds.started,text_17.stopped,key_resp_17.keys,key_resp_17.rt,text_18.started,Partz_no_partm.started,Partz_no_partm.keys,Partz_no_partm.rt,text_32.started,image_2.started,text_33.started,security_1_7.started,participant,session,date,expName,psychopyVersion,frameRate,
,,,,,,,,,,,,,,,,,,,,,,,,,,31.426658099982888,31.426658099982888,space,9.107812300033402,,,,,,,,,,,,,,,,,,,,,,,,,,,,,,,,,,,,,,,,,,,,,,,,,,,,,,,,,,,,,,,,,,,,,,,,,,,,,,,,,,,,,,325537,001,2023-06-06_11h56.04.651,Pilot_online_tryings,2022.2.5,60.05540712802265,
,,,,,,,,,,,,,,,,,,,,,,,,,,,,,,40.591507699980866,40.591507699980866,space,12.422710100014228,,,,,,,,,,,,,,,,,,,,,,,,,,,,,,,,,,,,,,,,,,,,,,,,,,,,,,,,,,,,,,,,,,,,,,,,,,,,,,,,,,325537,001,2023-06-06_11h56.04.651,Pilot_online_tryings,2022.2.5,60.05540712802265,
,,,,,,,,,,,,,,,,,,,,,,,,,,,,,,,,,,53.04628439998487,53.04628439998487,space,13.51928940002108,,,,,,,,,,,,,,,,,,,,,,,,,,,,,,,,,,,,,,,,,,,,,,,,,,,,,,,,,,,,,,,,,,,,,,,,,,,,,,325537,001,2023-06-06_11h56.04.651,Pilot_online_tryings,2022.2.5,60.05540712802265,
,,,,,,,,,,,,,,,,,,,,,,,,,,,,,,,,,,,,,,66.64315563997953,66.64109789999202,66.64109789999202,space,1.9897617000387982,,,,,,,,,,,,,,,,,,,,,,,,,,,,,,,,,,,,,,,,,,,,,,,,,,,,,,,,,,,,,,,,,,,,,,,,,325537,001,2023-06-06_11h56.04.651,Pilot_online_tryings,2022.2.5,60.05540712802265,
,,,,,,,,,,,,,,,,,,,,,,,,,,,,,,,,,,,,,,,,,,,68.66052330000093,68.66052330000093,space,7.330979300022591,,,,,,,,,,,,,,,,,,,,,,,,,,,,,,,,,,,,,,,,,,,,,,,,,,,,,,,,,,,,,,,,,,,,,325537,001,2023-06-06_11h56.04.651,Pilot_online_tryings,2022.2.5,60.05540712802265,
,,,,,,,,,,,,,,,,,,,,,,,,,,,,,,,,,,,,,,,,,,,,,,,76.01825740002096,76.01825740002096,space,10.548380599997472,,,,,,,,,,,,,,,,,,,,,,,,,,,,,,,,,,,,,,,,,,,,,,,,,,,,,,,,,,,,,,,,,325537,001,2023-06-06_11h56.04.651,Pilot_online_tryings,2022.2.5,60.05540712802265,
,,,,,,,,,,,,,,,,,,,,,,,,,,,,,,,,,,,,,,,,,,,,,,,,,,,86.5959726999863,86.5959726999863,space,14.657661399978679,,,,,,,,,,,,,,,,,,,,,,,,,,,,,,,,,,,,,,,,,,,,,,,,,,,,,,,,,,,,,325537,001,2023-06-06_11h56.04.651,Pilot_online_tryings,2022.2.5,60.05540712802265,
,,,,,,,,,,,,,,,,,,,,,,,,,,,,,,,,,,,,,,,,,,,,,,,,,,,,,,,101.27840730000753,101.27840730000753,space,20.48883799999021,,,,,,,,,,,,,,,,,,,,,,,,,,,,,,,,,,,,,,,,,,,,,,,,,,,,,,,,,325537,001,2023-06-06_11h56.04.651,Pilot_online_tryings,2022.2.5,60.05540712802265,
,,,,,,,,,,,,,,,,,,,,,,,,,,,,,,,,,,,,,,,,,,,,,,,,,,,,,,,,,,,121.79812370002037,121.79812370002037,space,19.312666000041645,,,,,,,,,,,,,,,,,,,,,,,,,,,,,,,,,,,,,,,,,,,,,,,,,,,,,325537,001,2023-06-06_11h56.04.651,Pilot_online_tryings,2022.2.5,60.05540712802265,
,,,,,,,,,,,,,,,,,,,,,,,,,,,,,,,,,,,,,,,,,,,,,,,,,,,,,,,,,,,,,,,141.13259510003263,141.13259510003263,space,3.0659823000314645,,,,,,,,,,,,,,,,,,,,,,,,,,,,,,,,,,,,,,,,,,,,,,,,,325537,001,2023-06-06_11h56.04.651,Pilot_online_tryings,2022.2.5,60.05540712802265,
ConjL1_uns.csv,dir_Online_conjL1_un.csv,Test_Conj_UnsyncL1.csv,ConjL1_unsync_norm.wav,ki,24:28,red,Online_conjL1_un//aKI26.888.wav,888.0,0,0,0,0,0,0,0,16,0,0,0,2,,,,,,,,,,,,,,,,,,,,,,,,,,,,,,,,,,,,,,,,,,,,,,,144.23358340002596,144.23358340002596,space,3.693435499968473,148.32318837996573,148.32412140001543,148.32412140001543,space,3.827348099963274,152.17781389999436,152.17781389999436,space,11.236680800036993,163.53161900001578,163.53161900001578,0.06435940001392737,163.53161900001578,163.53161900001578,163.53161900001578,2.730233500013128,166.24066650000168,166.24066650000168,space,2.3464406999992207,y,3.1464137999573722,,,,,,,,,,,,,,,,,,,,,,,325537,001,2023-06-06_11h56.04.651,Pilot_online_tryings,2022.2.5,60.05540712802265,
ConjL1_uns.csv,dir_Online_conjL1_un.csv,Test_Conj_UnsyncL1.csv,ConjL1_unsync_norm.wav,ki,24:28,red,Online_conjL1_un//aKI27.none.wav,none,0,0,0,0,0,0,0,16,0,1,1,3,,,,,,,,,,,,,,,,,,,,,,,,,,,,,,,,,,,,,,,,,,,,,,,,,,,,,,,,,,,,,,0.023805400007404387,166.73966810002457,166.73966810002457,166.73966810002457,,,,None,,y,0.21038800000678748,,,,,,,,,,,,,,,,,,,,,,,325537,001,2023-06-06_11h56.04.651,Pilot_online_tryings,2022.2.5,60.05540712802265,
ConjL1_uns.csv,dir_Online_conjL1_un.csv,Test_Conj_UnsyncL1.csv,ConjL1_unsync_norm.wav,ki,24:28,red,Online_conjL1_un//aKI25.888.wav,888.0,0,0,0,0,0,0,0,16,0,2,2,1,,,,,,,,,,,,,,,,,,,,,,,,,,,,,,,,,,,,,,,,,,,,,,,,,,,,,,,,,,,,,,0.03551199997309595,167.00173880002694,167.00173880002694,167.00173880002694,,,,None,,y,0.12373749999096617,,,,,,,,,,,,,,,,,,,,,,,325537,001,2023-06-06_11h56.04.651,Pilot_online_tryings,2022.2.5,60.05540712802265,
ConjL1_uns.csv,dir_Online_conjL1_un.csv,Test_Conj_UnsyncL1.csv,ConjL1_unsync_norm.wav,ki,24:28,red,Online_conjL1_un//aKI24.1776.wav,1776.0,0,0,0,0,0,0,0,16,0,3,3,0,,,,,,,,,,,,,,,,,,,,,,,,,,,,,,,,,,,,,,,,,,,,,,,,,,,,,,,,,,,,,,0.03170599997974932,167.16304020001553,167.16304020001553,167.16304020001553,,,,None,,y,0.12293199996929616,,,,,,,,,,,,,,,,,,,,,,,325537,001,2023-06-06_11h56.04.651,Pilot_online_tryings,2022.2.5,60.05540712802265,
ConjL1_uns.csv,dir_Online_conjL1_un.csv,Test_Conj_UnsyncL1.csv,ConjL1_unsync_norm.wav,ki,24:28,red,,,0,0,0,0,0,0,0,16,,,,,,,,,,,,,,,,,,,,,,,,,,,,,,,,,,,,,,,,,,,,,,,,,,,,,,,,,,,,,,,,,,,,,,,,,,,,,,,,,,,,,,,,,,,,,,,,,,,325537,001,2023-06-06_11h56.04.651,Pilot_online_tryings,2022.2.5,60.05540712802265,
ConjL1_uns.csv,dir_Online_conjL1_un.csv,Test_Conj_UnsyncL1.csv,ConjL1_unsync_norm.wav,ta,40:44,blue,Online_conjL1_un//bTA9.0.wav,0.0,0,0,0,0,0,1,1,23,0,0,0,1,,,,,,,,,,,,,,,,,,,,,,,,,,,,,,,,,,,,,,,,,,,,,,,,,,,,,,,,,,,,167.34789129998535,167.34789129998535,0.04573820001678541,167.34789129998535,167.34789129998535,167.34789129998535,,,,None,,y,0.08335250004893169,,,,,,,,,,,,,,,,,,,,,,,325537,001,2023-06-06_11h56.04.651,Pilot_online_tryings,2022.2.5,60.05540712802265,
ConjL1_uns.csv,dir_Online_conjL1_un.csv,Test_Conj_UnsyncL1.csv,ConjL1_unsync_norm.wav,ta,40:44,blue,Online_conjL1_un//bTA11.none.wav,none,0,0,0,0,0,1,1,23,0,1,1,3,,,,,,,,,,,,,,,,,,,,,,,,,,,,,,,,,,,,,,,,,,,,,,,,,,,,,,,,,,,,,,0.021790300030261278,167.47002300003078,167.47002300003078,167.47002300003078,,,,None,,y,0.11966119997669011,,,,,,,,,,,,,,,,,,,,,,,325537,001,2023-06-06_11h56.04.651,Pilot_online_tryings,2022.2.5,60.05540712802265,
ConjL1_uns.csv,dir_Online_conjL1_un.csv,Test_Conj_UnsyncL1.csv,ConjL1_unsync_norm.wav,ta,40:44,blue,Online_conjL1_un//bTA10.none.wav,none,0,0,0,0,0,1,1,23,0,2,2,2,,,,,,,,,,,,,,,,,,,,,,,,,,,,,,,,,,,,,,,,,,,,,,,,,,,,,,,,,,,,,,0.025455800001509488,167.62372530001448,167.62372530001448,167.62372530001448,,,,None,,y,0.09433030005311593,,,,,,,,,,,,,,,,,,,,,,,325537,001,2023-06-06_11h56.04.651,Pilot_online_tryings,2022.2.5,60.05540712802265,
ConjL1_uns.csv,dir_Online_conjL1_un.csv,Test_Conj_UnsyncL1.csv,ConjL1_unsync_norm.wav,ta,40:44,blue,Online_conjL1_un//bTA8.none.wav,none,0,0,0,0,0,1,1,23,0,3,3,0,,,,,,,,,,,,,,,,,,,,,,,,,,,,,,,,,,,,,,,,,,,,,,,,,,,,,,,,,,,,,,0.015560600033495575,167.74692730000243,167.74692730000243,167.74692730000243,,,,None,,y,0.13138360000448301,,,,,,,,,,,,,,,,,,,,,,,325537,001,2023-06-06_11h56.04.651,Pilot_online_tryings,2022.2.5,60.05540712802265,
ConjL1_uns.csv,dir_Online_conjL1_un.csv,Test_Conj_UnsyncL1.csv,ConjL1_unsync_norm.wav,ta,40:44,blue,,,0,0,0,0,0,1,1,23,,,,,,,,,,,,,,,,,,,,,,,,,,,,,,,,,,,,,,,,,,,,,,,,,,,,,,,,,,,,,,,,,,,,,,,,,,,,,,,,,,,,,,,,,,,,,,,,,,,325537,001,2023-06-06_11h56.04.651,Pilot_online_tryings,2022.2.5,60.05540712802265,
ConjL1_uns.csv,dir_Online_conjL1_un.csv,Test_Conj_UnsyncL1.csv,ConjL1_unsync_norm.wav,ro,92:96,green,Online_conjL1_un//cRO30.none.wav,none,0,0,0,0,0,2,2,18,0,0,0,2,,,,,,,,,,,,,,,,,,,,,,,,,,,,,,,,,,,,,,,,,,,,,,,,,,,,,,,,,,,,167.9338486000197,167.9338486000197,0.031134999997448176,167.9338486000197,167.9338486000197,167.9338486000197,,,,None,,y,0.0726511999964714,,,,,,,,,,,,,,,,,,,,,,,325537,001,2023-06-06_11h56.04.651,Pilot_online_tryings,2022.2.5,60.05540712802265,
ConjL1_uns.csv,dir_Online_conjL1_un.csv,Test_Conj_UnsyncL1.csv,ConjL1_unsync_norm.wav,ro,92:96,green,Online_conjL1_un//cRO29.444.wav,444.0,0,0,0,0,0,2,2,18,0,1,1,1,,,,,,,,,,,,,,,,,,,,,,,,,,,,,,,,,,,,,,,,,,,,,,,,,,,,,,,,,,,,,,0.02097830001730472,168.0372402999783,168.0372402999783,168.0372402999783,,,,None,,y,0.14468560001114383,,,,,,,,,,,,,,,,,,,,,,,325537,001,2023-06-06_11h56.04.651,Pilot_online_tryings,2022.2.5,60.05540712802265,
ConjL1_uns.csv,dir_Online_conjL1_un.csv,Test_Conj_UnsyncL1.csv,ConjL1_unsync_norm.wav,ro,92:96,green,Online_conjL1_un//cRO31.none.wav,none,0,0,0,0,0,2,2,18,0,2,2,3,,,,,,,,,,,,,,,,,,,,,,,,,,,,,,,,,,,,,,,,,,,,,,,,,,,,,,,,,,,,,,0.02000740001676604,168.21877269999823,168.21877269999823,168.21877269999823,,,,None,,y,0.18799199996283278,,,,,,,,,,,,,,,,,,,,,,,325537,001,2023-06-06_11h56.04.651,Pilot_online_tryings,2022.2.5,60.05540712802265,
ConjL1_uns.csv,dir_Online_conjL1_un.csv,Test_Conj_UnsyncL1.csv,ConjL1_unsync_norm.wav,ro,92:96,green,Online_conjL1_un//cRO28.none.wav,none,0,0,0,0,0,2,2,18,0,3,3,0,,,,,,,,,,,,,,,,,,,,,,,,,,,,,,,,,,,,,,,,,,,,,,,,,,,,,,,,,,,,,,0.01091939996695146,168.426194700005,168.426194700005,168.426194700005,,,,None,,y,0.17180429998552427,,,,,,,,,,,,,,,,,,,,,,,325537,001,2023-06-06_11h56.04.651,Pilot_online_tryings,2022.2.5,60.05540712802265,
ConjL1_uns.csv,dir_Online_conjL1_un.csv,Test_Conj_UnsyncL1.csv,ConjL1_unsync_norm.wav,ro,92:96,green,,,0,0,0,0,0,2,2,18,,,,,,,,,,,,,,,,,,,,,,,,,,,,,,,,,,,,,,,,,,,,,,,,,,,,,,,,,,,,,,,,,,,,,,,,,,,,,,,,,,,,,,,,,,,,,,,,,,,325537,001,2023-06-06_11h56.04.651,Pilot_online_tryings,2022.2.5,60.05540712802265,
ConjL1_uns.csv,dir_Online_conjL1_un.csv,Test_Conj_UnsyncL1.csv,ConjL1_unsync_norm.wav,ro,72:76,green,Online_conjL1_un//cRO11.1110.wav,1110.0,0,0,0,0,0,3,3,12,0,0,0,3,,,,,,,,,,,,,,,,,,,,,,,,,,,,,,,,,,,,,,,,,,,,,,,,,,,,,,,,,,,,168.64481309999246,168.64481309999246,0.027678999991621822,168.64481309999246,168.64481309999246,168.64481309999246,,,,None,,y,0.12928210000973195,,,,,,,,,,,,,,,,,,,,,,,325537,001,2023-06-06_11h56.04.651,Pilot_online_tryings,2022.2.5,60.05540712802265,
ConjL1_uns.csv,dir_Online_conjL1_un.csv,Test_Conj_UnsyncL1.csv,ConjL1_unsync_norm.wav,ro,72:76,green,Online_conjL1_un//cRO8.none.wav,none,0,0,0,0,0,3,3,12,0,1,1,0,,,,,,,,,,,,,,,,,,,,,,,,,,,,,,,,,,,,,,,,,,,,,,,,,,,,,,,,,,,,,,0.012130499992053956,168.79508210002678,168.79508210002678,168.79508210002678,,,,None,,y,0.1388561000349,,,,,,,,,,,,,,,,,,,,,,,325537,001,2023-06-06_11h56.04.651,Pilot_online_tryings,2022.2.5,60.05540712802265,
ConjL1_uns.csv,dir_Online_conjL1_un.csv,Test_Conj_UnsyncL1.csv,ConjL1_unsync_norm.wav,ro,72:76,green,Online_conjL1_un//cRO9.1332.wav,1332.0,0,0,0,0,0,3,3,12,0,2,2,1,,,,,,,,,,,,,,,,,,,,,,,,,,,,,,,,,,,,,,,,,,,,,,,,,,,,,,,,,,,,,,0.02481089998036623,168.97422730003018,168.97422730003018,168.97422730003018,,,,None,,y,0.12009630003012717,,,,,,,,,,,,,,,,,,,,,,,325537,001,2023-06-06_11h56.04.651,Pilot_online_tryings,2022.2.5,60.05540712802265,
ConjL1_uns.csv,dir_Online_conjL1_un.csv,Test_Conj_UnsyncL1.csv,ConjL1_unsync_norm.wav,ro,72:76,green,Online_conjL1_un//cRO10.1332.wav,1332.0,0,0,0,0,0,3,3,12,0,3,3,2,,,,,,,,,,,,,,,,,,,,,,,,,,,,,,,,,,,,,,,,,,,,,,,,,,,,,,,,,,,,,,0.02118540002265945,169.13666740001645,169.13666740001645,169.13666740001645,,,,None,,y,0.11777850001817569,,,,,,,,,,,,,,,,,,,,,,,325537,001,2023-06-06_11h56.04.651,Pilot_online_tryings,2022.2.5,60.05540712802265,
ConjL1_uns.csv,dir_Online_conjL1_un.csv,Test_Conj_UnsyncL1.csv,ConjL1_unsync_norm.wav,ro,72:76,green,,,0,0,0,0,0,3,3,12,,,,,,,,,,,,,,,,,,,,,,,,,,,,,,,,,,,,,,,,,,,,,,,,,,,,,,,,,,,,,,,,,,,,,,,,,,,,,,,,,,,,,,,,,,,,,,,,,,,325537,001,2023-06-06_11h56.04.651,Pilot_online_tryings,2022.2.5,60.05540712802265,
ConjL1_uns.csv,dir_Online_conjL1_un.csv,Test_Conj_UnsyncL1.csv,ConjL1_unsync_norm.wav,ro,64:68,green,Online_conjL1_un//cRO0.none.wav,none,0,0,0,0,0,4,4,7,0,0,0,0,,,,,,,,,,,,,,,,,,,,,,,,,,,,,,,,,,,,,,,,,,,,,,,,,,,,,,,,,,,,169.28705510002328,169.28705510002328,0.019657600030768663,169.28705510002328,169.28705510002328,169.28705510002328,,,,None,,y,0.14199289999669418,,,,,,,,,,,,,,,,,,,,,,,325537,001,2023-06-06_11h56.04.651,Pilot_online_tryings,2022.2.5,60.05540712802265,
ConjL1_uns.csv,dir_Online_conjL1_un.csv,Test_Conj_UnsyncL1.csv,ConjL1_unsync_norm.wav,ro,64:68,green,Online_conjL1_un//cRO2.1332.wav,1332.0,0,0,0,0,0,4,4,7,0,1,1,2,,,,,,,,,,,,,,,,,,,,,,,,,,,,,,,,,,,,,,,,,,,,,,,,,,,,,,,,,,,,,,0.025746300001628697,169.4759535000194,169.4759535000194,169.4759535000194,,,,None,,y,0.09809809998841956,,,,,,,,,,,,,,,,,,,,,,,325537,001,2023-06-06_11h56.04.651,Pilot_online_tryings,2022.2.5,60.05540712802265,
ConjL1_uns.csv,dir_Online_conjL1_un.csv,Test_Conj_UnsyncL1.csv,ConjL1_unsync_norm.wav,ro,64:68,green,Online_conjL1_un//cRO3.none.wav,none,0,0,0,0,0,4,4,7,0,2,2,3,,,,,,,,,,,,,,,,,,,,,,,,,,,,,,,,,,,,,,,,,,,,,,,,,,,,,,,,,,,,,,0.020329399965703487,169.60410749999573,169.60410749999573,169.60410749999573,,,,None,,y,0.1294140000245534,,,,,,,,,,,,,,,,,,,,,,,325537,001,2023-06-06_11h56.04.651,Pilot_online_tryings,2022.2.5,60.05540712802265,
ConjL1_uns.csv,dir_Online_conjL1_un.csv,Test_Conj_UnsyncL1.csv,ConjL1_unsync_norm.wav,ro,64:68,green,Online_conjL1_un//cRO1.444.wav,444.0,0,0,0,0,0,4,4,7,0,3,3,1,,,,,,,,,,,,,,,,,,,,,,,,,,,,,,,,,,,,,,,,,,,,,,,,,,,,,,,,,,,,,,0.011162300012074411,169.76163140003337,169.76163140003337,169.76163140003337,,,,None,,y,0.13233049999689683,,,,,,,,,,,,,,,,,,,,,,,325537,001,2023-06-06_11h56.04.651,Pilot_online_tryings,2022.2.5,60.05540712802265,
ConjL1_uns.csv,dir_Online_conjL1_un.csv,Test_Conj_UnsyncL1.csv,ConjL1_unsync_norm.wav,ro,64:68,green,,,0,0,0,0,0,4,4,7,,,,,,,,,,,,,,,,,,,,,,,,,,,,,,,,,,,,,,,,,,,,,,,,,,,,,,,,,,,,,,,,,,,,,,,,,,,,,,,,,,,,,,,,,,,,,,,,,,,325537,001,2023-06-06_11h56.04.651,Pilot_online_tryings,2022.2.5,60.05540712802265,
ConjL1_uns.csv,dir_Online_conjL1_un.csv,Test_Conj_UnsyncL1.csv,ConjL1_unsync_norm.wav,ro,76:80,green,Online_conjL1_un//cRO14.none.wav,none,0,0,0,0,0,5,5,10,0,0,0,2,,,,,,,,,,,,,,,,,,,,,,,,,,,,,,,,,,,,,,,,,,,,,,,,,,,,,,,,,,,,169.92533489997732,169.92533489997732,0.023121099977288395,169.92533489997732,169.92533489997732,169.92533489997732,,,,None,,y,0.12918500002706423,,,,,,,,,,,,,,,,,,,,,,,325537,001,2023-06-06_11h56.04.651,Pilot_online_tryings,2022.2.5,60.05540712802265,
ConjL1_uns.csv,dir_Online_conjL1_un.csv,Test_Conj_UnsyncL1.csv,ConjL1_unsync_norm.wav,ro,76:80,green,Online_conjL1_un//cRO12.none.wav,none,0,0,0,0,0,5,5,10,0,1,1,0,,,,,,,,,,,,,,,,,,,,,,,,,,,,,,,,,,,,,,,,,,,,,,,,,,,,,,,,,,,,,,0.011399700015317649,170.07888119999552,170.07888119999552,170.07888119999552,,,,None,,y,0.1341340000508353,,,,,,,,,,,,,,,,,,,,,,,325537,001,2023-06-06_11h56.04.651,Pilot_online_tryings,2022.2.5,60.05540712802265,
ConjL1_uns.csv,dir_Online_conjL1_un.csv,Test_Conj_UnsyncL1.csv,ConjL1_unsync_norm.wav,ro,76:80,green,Online_conjL1_un//cRO15.none.wav,none,0,0,0,0,0,5,5,10,0,2,2,3,,,,,,,,,,,,,,,,,,,,,,,,,,,,,,,,,,,,,,,,,,,,,,,,,,,,,,,,,,,,,,0.009179800050333142,170.244595199998,170.244595199998,170.244595199998,,,,None,,y,0.16227219998836517,,,,,,,,,,,,,,,,,,,,,,,325537,001,2023-06-06_11h56.04.651,Pilot_online_tryings,2022.2.5,60.05540712802265,
ConjL1_uns.csv,dir_Online_conjL1_un.csv,Test_Conj_UnsyncL1.csv,ConjL1_unsync_norm.wav,ro,76:80,green,Online_conjL1_un//cRO13.1332.wav,1332.0,0,0,0,0,0,5,5,10,0,3,3,1,,,,,,,,,,,,,,,,,,,,,,,,,,,,,,,,,,,,,,,,,,,,,,,,,,,,,,,,,,,,,,0.009152300015557557,170.4282679000171,170.4282679000171,170.4282679000171,,,,None,,y,0.13828769995598122,,,,,,,,,,,,,,,,,,,,,,,325537,001,2023-06-06_11h56.04.651,Pilot_online_tryings,2022.2.5,60.05540712802265,
ConjL1_uns.csv,dir_Online_conjL1_un.csv,Test_Conj_UnsyncL1.csv,ConjL1_unsync_norm.wav,ro,76:80,green,,,0,0,0,0,0,5,5,10,,,,,,,,,,,,,,,,,,,,,,,,,,,,,,,,,,,,,,,,,,,,,,,,,,,,,,,,,,,,,,,,,,,,,,,,,,,,,,,,,,,,,,,,,,,,,,,,,,,325537,001,2023-06-06_11h56.04.651,Pilot_online_tryings,2022.2.5,60.05540712802265,
ConjL1_uns.csv,dir_Online_conjL1_un.csv,Test_Conj_UnsyncL1.csv,ConjL1_unsync_norm.wav,ta,56:60,blue,Online_conjL1_un//bTA26.0.wav,0.0,0,0,0,0,0,6,6,28,0,0,0,2,,,,,,,,,,,,,,,,,,,,,,,,,,,,,,,,,,,,,,,,,,,,,,,,,,,,,,,,,,,,170.61636340001132,170.61636340001132,0.026109799975529313,170.61636340001132,170.61636340001132,170.61636340001132,,,,None,,y,0.1264035999774933,,,,,,,,,,,,,,,,,,,,,,,325537,001,2023-06-06_11h56.04.651,Pilot_online_tryings,2022.2.5,60.05540712802265,
ConjL1_uns.csv,dir_Online_conjL1_un.csv,Test_Conj_UnsyncL1.csv,ConjL1_unsync_norm.wav,ta,56:60,blue,Online_conjL1_un//bTA27.none.wav,none,0,0,0,0,0,6,6,28,0,1,1,3,,,,,,,,,,,,,,,,,,,,,,,,,,,,,,,,,,,,,,,,,,,,,,,,,,,,,,,,,,,,,,0.014778699958696961,170.76674779999303,170.76674779999303,170.76674779999303,,,,None,,y,0.1359918000525795,,,,,,,,,,,,,,,,,,,,,,,325537,001,2023-06-06_11h56.04.651,Pilot_online_tryings,2022.2.5,60.05540712802265,
ConjL1_uns.csv,dir_Online_conjL1_un.csv,Test_Conj_UnsyncL1.csv,ConjL1_unsync_norm.wav,ta,56:60,blue,Online_conjL1_un//bTA24.none.wav,none,0,0,0,0,0,6,6,28,0,2,2,0,,,,,,,,,,,,,,,,,,,,,,,,,,,,,,,,,,,,,,,,,,,,,,,,,,,,,,,,,,,,,,0.02095299999928102,170.94006029999582,170.94006029999582,170.94006029999582,,,,None,,y,0.13781300000846386,,,,,,,,,,,,,,,,,,,,,,,325537,001,2023-06-06_11h56.04.651,Pilot_online_tryings,2022.2.5,60.05540712802265,
ConjL1_uns.csv,dir_Online_conjL1_un.csv,Test_Conj_UnsyncL1.csv,ConjL1_unsync_norm.wav,ta,56:60,blue,Online_conjL1_un//bTA25.none.wav,none,0,0,0,0,0,6,6,28,0,3,3,1,,,,,,,,,,,,,,,,,,,,,,,,,,,,,,,,,,,,,,,,,,,,,,,,,,,,,,,,,,,,,,0.009626300015952438,171.0954656000249,171.0954656000249,171.0954656000249,,,,None,,y,0.14200950000667945,,,,,,,,,,,,,,,,,,,,,,,325537,001,2023-06-06_11h56.04.651,Pilot_online_tryings,2022.2.5,60.05540712802265,
ConjL1_uns.csv,dir_Online_conjL1_un.csv,Test_Conj_UnsyncL1.csv,ConjL1_unsync_norm.wav,ta,56:60,blue,,,0,0,0,0,0,6,6,28,,,,,,,,,,,,,,,,,,,,,,,,,,,,,,,,,,,,,,,,,,,,,,,,,,,,,,,,,,,,,,,,,,,,,,,,,,,,,,,,,,,,,,,,,,,,,,,,,,,325537,001,2023-06-06_11h56.04.651,Pilot_online_tryings,2022.2.5,60.05540712802265,
ConjL1_uns.csv,dir_Online_conjL1_un.csv,Test_Conj_UnsyncL1.csv,ConjL1_unsync_norm.wav,ta,52:56,blue,Online_conjL1_un//bTA21.none.wav,none,0,0,0,0,0,7,7,31,0,0,0,1,,,,,,,,,,,,,,,,,,,,,,,,,,,,,,,,,,,,,,,,,,,,,,,,,,,,,,,,,,,,171.2781396000064,171.2781396000064,0.025482800032477826,171.2781396000064,171.2781396000064,171.2781396000064,,,,None,,y,0.11936770001193509,,,,,,,,,,,,,,,,,,,,,,,325537,001,2023-06-06_11h56.04.651,Pilot_online_tryings,2022.2.5,60.05540712802265,
ConjL1_uns.csv,dir_Online_conjL1_un.csv,Test_Conj_UnsyncL1.csv,ConjL1_unsync_norm.wav,ta,52:56,blue,Online_conjL1_un//bTA22.none.wav,none,0,0,0,0,0,7,7,31,0,1,1,2,,,,,,,,,,,,,,,,,,,,,,,,,,,,,,,,,,,,,,,,,,,,,,,,,,,,,,,,,,,,,,0.011058199976105243,171.42931360000512,171.42931360000512,171.42931360000512,,,,None,,y,0.1452158999745734,,,,,,,,,,,,,,,,,,,,,,,325537,001,2023-06-06_11h56.04.651,Pilot_online_tryings,2022.2.5,60.05540712802265,
ConjL1_uns.csv,dir_Online_conjL1_un.csv,Test_Conj_UnsyncL1.csv,ConjL1_unsync_norm.wav,ta,52:56,blue,Online_conjL1_un//bTA23.888.wav,888.0,0,0,0,0,0,7,7,31,0,2,2,3,,,,,,,,,,,,,,,,,,,,,,,,,,,,,,,,,,,,,,,,,,,,,,,,,,,,,,,,,,,,,,0.01197590003721416,171.59841159998905,171.59841159998905,171.59841159998905,,,,None,,y,0.1348860000143759,,,,,,,,,,,,,,,,,,,,,,,325537,001,2023-06-06_11h56.04.651,Pilot_online_tryings,2022.2.5,60.05540712802265,
ConjL1_uns.csv,dir_Online_conjL1_un.csv,Test_Conj_UnsyncL1.csv,ConjL1_unsync_norm.wav,ta,52:56,blue,Online_conjL1_un//bTA20.0.wav,0.0,0,0,0,0,0,7,7,31,0,3,3,0,,,,,,,,,,,,,,,,,,,,,,,,,,,,,,,,,,,,,,,,,,,,,,,,,,,,,,,,,,,,,,0.016890100028831512,171.77061389997834,171.77061389997834,171.77061389997834,,,,None,,y,0.13911560003180057,,,,,,,,,,,,,,,,,,,,,,,325537,001,2023-06-06_11h56.04.651,Pilot_online_tryings,2022.2.5,60.05540712802265,
ConjL1_uns.csv,dir_Online_conjL1_un.csv,Test_Conj_UnsyncL1.csv,ConjL1_unsync_norm.wav,ta,52:56,blue,,,0,0,0,0,0,7,7,31,,,,,,,,,,,,,,,,,,,,,,,,,,,,,,,,,,,,,,,,,,,,,,,,,,,,,,,,,,,,,,,,,,,,,,,,,,,,,,,,,,,,,,,,,,,,,,,,,,,325537,001,2023-06-06_11h56.04.651,Pilot_online_tryings,2022.2.5,60.05540712802265,
ConjL1_uns.csv,dir_Online_conjL1_un.csv,Test_Conj_UnsyncL1.csv,ConjL1_unsync_norm.wav,ne,104:108,orange,Online_conjL1_un//dNE9.222.wav,222.0,0,0,0,0,0,8,8,21,0,0,0,1,,,,,,,,,,,,,,,,,,,,,,,,,,,,,,,,,,,,,,,,,,,,,,,,,,,,,,,,,,,,171.95615330000874,171.95615330000874,0.030690699990373105,171.95615330000874,171.95615330000874,171.95615330000874,,,,None,,y,0.09770659997593611,,,,,,,,,,,,,,,,,,,,,,,325537,001,2023-06-06_11h56.04.651,Pilot_online_tryings,2022.2.5,60.05540712802265,
ConjL1_uns.csv,dir_Online_conjL1_un.csv,Test_Conj_UnsyncL1.csv,ConjL1_unsync_norm.wav,ne,104:108,orange,Online_conjL1_un//dNE8.0.wav,0.0,0,0,0,0,0,8,8,21,0,1,1,0,,,,,,,,,,,,,,,,,,,,,,,,,,,,,,,,,,,,,,,,,,,,,,,,,,,,,,,,,,,,,,0.0304615999921225,172.1002114000148,172.1002114000148,172.1002114000148,,,,None,,y,0.1140659999800846,,,,,,,,,,,,,,,,,,,,,,,325537,001,2023-06-06_11h56.04.651,Pilot_online_tryings,2022.2.5,60.05540712802265,
ConjL1_uns.csv,dir_Online_conjL1_un.csv,Test_Conj_UnsyncL1.csv,ConjL1_unsync_norm.wav,ne,104:108,orange,Online_conjL1_un//dNE11.1776.wav,1776.0,0,0,0,0,0,8,8,21,0,2,2,3,,,,,,,,,,,,,,,,,,,,,,,,,,,,,,,,,,,,,,,,,,,,,,,,,,,,,,,,,,,,,,0.02215739997336641,172.25811280001653,172.25811280001653,172.25811280001653,,,,None,,y,0.11674259998835623,,,,,,,,,,,,,,,,,,,,,,,325537,001,2023-06-06_11h56.04.651,Pilot_online_tryings,2022.2.5,60.05540712802265,
ConjL1_uns.csv,dir_Online_conjL1_un.csv,Test_Conj_UnsyncL1.csv,ConjL1_unsync_norm.wav,ne,104:108,orange,Online_conjL1_un//dNE10.none.wav,none,0,0,0,0,0,8,8,21,0,3,3,2,,,,,,,,,,,,,,,,,,,,,,,,,,,,,,,,,,,,,,,,,,,,,,,,,,,,,,,,,,,,,,0.017960299970582128,172.40464880003128,172.40464880003128,172.40464880003128,,,,None,,y,0.14468279998982325,,,,,,,,,,,,,,,,,,,,,,,325537,001,2023-06-06_11h56.04.651,Pilot_online_tryings,2022.2.5,60.05540712802265,
ConjL1_uns.csv,dir_Online_conjL1_un.csv,Test_Conj_UnsyncL1.csv,ConjL1_unsync_norm.wav,ne,104:108,orange,,,0,0,0,0,0,8,8,21,,,,,,,,,,,,,,,,,,,,,,,,,,,,,,,,,,,,,,,,,,,,,,,,,,,,,,,,,,,,,,,,,,,,,,,,,,,,,,,,,,,,,,,,,,,,,,,,,,,325537,001,2023-06-06_11h56.04.651,Pilot_online_tryings,2022.2.5,60.05540712802265,
ConjL1_uns.csv,dir_Online_conjL1_un.csv,Test_Conj_UnsyncL1.csv,ConjL1_unsync_norm.wav,ne,124:128,orange,Online_conjL1_un//dNE30.none.wav,none,0,0,0,0,0,9,9,13,0,0,0,2,,,,,,,,,,,,,,,,,,,,,,,,,,,,,,,,,,,,,,,,,,,,,,,,,,,,,,,,,,,,172.59169020003174,172.59169020003174,0.021042299980763346,172.59169020003174,172.59169020003174,172.59169020003174,,,,None,,y,0.11797479999950156,,,,,,,,,,,,,,,,,,,,,,,325537,001,2023-06-06_11h56.04.651,Pilot_online_tryings,2022.2.5,60.05540712802265,
ConjL1_uns.csv,dir_Online_conjL1_un.csv,Test_Conj_UnsyncL1.csv,ConjL1_unsync_norm.wav,ne,124:128,orange,Online_conjL1_un//dNE29.none.wav,none,0,0,0,0,0,9,9,13,0,1,1,1,,,,,,,,,,,,,,,,,,,,,,,,,,,,,,,,,,,,,,,,,,,,,,,,,,,,,,,,,,,,,,0.02786879998166114,172.7504348999937,172.7504348999937,172.7504348999937,,,,None,,y,0.11915469996165484,,,,,,,,,,,,,,,,,,,,,,,325537,001,2023-06-06_11h56.04.651,Pilot_online_tryings,2022.2.5,60.05540712802265,
ConjL1_uns.csv,dir_Online_conjL1_un.csv,Test_Conj_UnsyncL1.csv,ConjL1_unsync_norm.wav,ne,124:128,orange,Online_conjL1_un//dNE31.1332.wav,1332.0,0,0,0,0,0,9,9,13,0,2,2,3,,,,,,,,,,,,,,,,,,,,,,,,,,,,,,,,,,,,,,,,,,,,,,,,,,,,,,,,,,,,,,0.028698200010694563,172.91619989997707,172.91619989997707,172.91619989997707,,,,None,,y,0.11351250001462176,,,,,,,,,,,,,,,,,,,,,,,325537,001,2023-06-06_11h56.04.651,Pilot_online_tryings,2022.2.5,60.05540712802265,
ConjL1_uns.csv,dir_Online_conjL1_un.csv,Test_Conj_UnsyncL1.csv,ConjL1_unsync_norm.wav,ne,124:128,orange,Online_conjL1_un//dNE28.444.wav,444.0,0,0,0,0,0,9,9,13,0,3,3,0,,,,,,,,,,,,,,,,,,,,,,,,,,,,,,,,,,,,,,,,,,,,,,,,,,,,,,,,,,,,,,0.017468400008510798,173.05524780001724,173.05524780001724,173.05524780001724,,,,None,,y,0.11911310005234554,,,,,,,,,,,,,,,,,,,,,,,325537,001,2023-06-06_11h56.04.651,Pilot_online_tryings,2022.2.5,60.05540712802265,
ConjL1_uns.csv,dir_Online_conjL1_un.csv,Test_Conj_UnsyncL1.csv,ConjL1_unsync_norm.wav,ne,124:128,orange,,,0,0,0,0,0,9,9,13,,,,,,,,,,,,,,,,,,,,,,,,,,,,,,,,,,,,,,,,,,,,,,,,,,,,,,,,,,,,,,,,,,,,,,,,,,,,,,,,,,,,,,,,,,,,,,,,,,,325537,001,2023-06-06_11h56.04.651,Pilot_online_tryings,2022.2.5,60.05540712802265,
ConjL1_uns.csv,dir_Online_conjL1_un.csv,Test_Conj_UnsyncL1.csv,ConjL1_unsync_norm.wav,ki,28:32,red,Online_conjL1_un//aKI28.none.wav,none,0,0,0,0,0,10,10,6,0,0,0,0,,,,,,,,,,,,,,,,,,,,,,,,,,,,,,,,,,,,,,,,,,,,,,,,,,,,,,,,,,,,173.22769189998507,173.22769189998507,0.03441349999047816,173.22769189998507,173.22769189998507,173.22769189998507,,,,None,,y,0.1222886000177823,,,,,,,,,,,,,,,,,,,,,,,325537,001,2023-06-06_11h56.04.651,Pilot_online_tryings,2022.2.5,60.05540712802265,
ConjL1_uns.csv,dir_Online_conjL1_un.csv,Test_Conj_UnsyncL1.csv,ConjL1_unsync_norm.wav,ki,28:32,red,Online_conjL1_un//aKI29.none.wav,none,0,0,0,0,0,10,10,6,0,1,1,1,,,,,,,,,,,,,,,,,,,,,,,,,,,,,,,,,,,,,,,,,,,,,,,,,,,,,,,,,,,,,,0.01147360005415976,173.38293580000754,173.38293580000754,173.38293580000754,,,,None,,y,0.1272222000407055,,,,,,,,,,,,,,,,,,,,,,,325537,001,2023-06-06_11h56.04.651,Pilot_online_tryings,2022.2.5,60.05540712802265,
ConjL1_uns.csv,dir_Online_conjL1_un.csv,Test_Conj_UnsyncL1.csv,ConjL1_unsync_norm.wav,ki,28:32,red,Online_conjL1_un//aKI30.1776.wav,1776.0,0,0,0,0,0,10,10,6,0,2,2,2,,,,,,,,,,,,,,,,,,,,,,,,,,,,,,,,,,,,,,,,,,,,,,,,,,,,,,,,,,,,,,0.009819600032642484,173.53138150001178,173.53138150001178,173.53138150001178,,,,None,,y,0.17048589995829388,,,,,,,,,,,,,,,,,,,,,,,325537,001,2023-06-06_11h56.04.651,Pilot_online_tryings,2022.2.5,60.05540712802265,
ConjL1_uns.csv,dir_Online_conjL1_un.csv,Test_Conj_UnsyncL1.csv,ConjL1_unsync_norm.wav,ki,28:32,red,Online_conjL1_un//aKI31.none.wav,none,0,0,0,0,0,10,10,6,0,3,3,3,,,,,,,,,,,,,,,,,,,,,,,,,,,,,,,,,,,,,,,,,,,,,,,,,,,,,,,,,,,,,,0.014223899983335286,173.73564099997748,173.73564099997748,173.73564099997748,,,,None,,y,0.11071979999542236,,,,,,,,,,,,,,,,,,,,,,,325537,001,2023-06-06_11h56.04.651,Pilot_online_tryings,2022.2.5,60.05540712802265,
ConjL1_uns.csv,dir_Online_conjL1_un.csv,Test_Conj_UnsyncL1.csv,ConjL1_unsync_norm.wav,ki,28:32,red,,,0,0,0,0,0,10,10,6,,,,,,,,,,,,,,,,,,,,,,,,,,,,,,,,,,,,,,,,,,,,,,,,,,,,,,,,,,,,,,,,,,,,,,,,,,,,,,,,,,,,,,,,,,,,,,,,,,,325537,001,2023-06-06_11h56.04.651,Pilot_online_tryings,2022.2.5,60.05540712802265,
ConjL1_uns.csv,dir_Online_conjL1_un.csv,Test_Conj_UnsyncL1.csv,ConjL1_unsync_norm.wav,ne,116:120,orange,Online_conjL1_un//dNE23.none.wav,none,0,0,0,0,0,11,11,0,0,0,0,3,,,,,,,,,,,,,,,,,,,,,,,,,,,,,,,,,,,,,,,,,,,,,,,,,,,,,,,,,,,,173.8836760999984,173.8836760999984,0.019533699960447848,173.8836760999984,173.8836760999984,173.8836760999984,,,,None,,y,0.13884749996941537,,,,,,,,,,,,,,,,,,,,,,,325537,001,2023-06-06_11h56.04.651,Pilot_online_tryings,2022.2.5,60.05540712802265,
ConjL1_uns.csv,dir_Online_conjL1_un.csv,Test_Conj_UnsyncL1.csv,ConjL1_unsync_norm.wav,ne,116:120,orange,Online_conjL1_un//dNE20.none.wav,none,0,0,0,0,0,11,11,0,0,1,1,0,,,,,,,,,,,,,,,,,,,,,,,,,,,,,,,,,,,,,,,,,,,,,,,,,,,,,,,,,,,,,,0.016396399994846433,174.05466249998426,174.05466249998426,174.05466249998426,,,,None,,y,0.14269309997325763,,,,,,,,,,,,,,,,,,,,,,,325537,001,2023-06-06_11h56.04.651,Pilot_online_tryings,2022.2.5,60.05540712802265,
ConjL1_uns.csv,dir_Online_conjL1_un.csv,Test_Conj_UnsyncL1.csv,ConjL1_unsync_norm.wav,ne,116:120,orange,Online_conjL1_un//dNE21.1332.wav,1332.0,0,0,0,0,0,11,11,0,0,2,2,1,,,,,,,,,,,,,,,,,,,,,,,,,,,,,,,,,,,,,,,,,,,,,,,,,,,,,,,,,,,,,,0.011210999975446612,174.21848099998897,174.21848099998897,174.21848099998897,,,,None,,y,0.15601219999371096,,,,,,,,,,,,,,,,,,,,,,,325537,001,2023-06-06_11h56.04.651,Pilot_online_tryings,2022.2.5,60.05540712802265,
ConjL1_uns.csv,dir_Online_conjL1_un.csv,Test_Conj_UnsyncL1.csv,ConjL1_unsync_norm.wav,ne,116:120,orange,Online_conjL1_un//dNE22.none.wav,none,0,0,0,0,0,11,11,0,0,3,3,2,,,,,,,,,,,,,,,,,,,,,,,,,,,,,,,,,,,,,,,,,,,,,,,,,,,,,,,,,,,,,,0.01252689998364076,174.40159700001823,174.40159700001823,174.40159700001823,,,,None,,y,0.132336100039538,,,,,,,,,,,,,,,,,,,,,,,325537,001,2023-06-06_11h56.04.651,Pilot_online_tryings,2022.2.5,60.05540712802265,
ConjL1_uns.csv,dir_Online_conjL1_un.csv,Test_Conj_UnsyncL1.csv,ConjL1_unsync_norm.wav,ne,116:120,orange,,,0,0,0,0,0,11,11,0,,,,,,,,,,,,,,,,,,,,,,,,,,,,,,,,,,,,,,,,,,,,,,,,,,,,,,,,,,,,,,,,,,,,,,,,,,,,,,,,,,,,,,,,,,,,,,,,,,,325537,001,2023-06-06_11h56.04.651,Pilot_online_tryings,2022.2.5,60.05540712802265,
ConjL1_uns.csv,dir_Online_conjL1_un.csv,Test_Conj_UnsyncL1.csv,ConjL1_unsync_norm.wav,ne,100:104,orange,Online_conjL1_un//dNE4.222.wav,222.0,0,0,0,0,0,12,12,24,0,0,0,0,,,,,,,,,,,,,,,,,,,,,,,,,,,,,,,,,,,,,,,,,,,,,,,,,,,,,,,,,,,,174.59052640001755,174.59052640001755,0.0341171000036411,174.59052640001755,174.59052640001755,174.59052640001755,,,,None,,y,0.11893250001594424,,,,,,,,,,,,,,,,,,,,,,,325537,001,2023-06-06_11h56.04.651,Pilot_online_tryings,2022.2.5,60.05540712802265,
ConjL1_uns.csv,dir_Online_conjL1_un.csv,Test_Conj_UnsyncL1.csv,ConjL1_unsync_norm.wav,ne,100:104,orange,Online_conjL1_un//dNE6.none.wav,none,0,0,0,0,0,12,12,24,0,1,1,2,,,,,,,,,,,,,,,,,,,,,,,,,,,,,,,,,,,,,,,,,,,,,,,,,,,,,,,,,,,,,,0.011116700014099479,174.73423860000912,174.73423860000912,174.73423860000912,,,,None,,y,0.15144869999494404,,,,,,,,,,,,,,,,,,,,,,,325537,001,2023-06-06_11h56.04.651,Pilot_online_tryings,2022.2.5,60.05540712802265,
ConjL1_uns.csv,dir_Online_conjL1_un.csv,Test_Conj_UnsyncL1.csv,ConjL1_unsync_norm.wav,ne,100:104,orange,Online_conjL1_un//dNE7.none.wav,none,0,0,0,0,0,12,12,24,0,2,2,3,,,,,,,,,,,,,,,,,,,,,,,,,,,,,,,,,,,,,,,,,,,,,,,,,,,,,,,,,,,,,,0.010895999963395298,174.91875419998541,174.91875419998541,174.91875419998541,,,,None,,y,0.12699120002798736,,,,,,,,,,,,,,,,,,,,,,,325537,001,2023-06-06_11h56.04.651,Pilot_online_tryings,2022.2.5,60.05540712802265,
ConjL1_uns.csv,dir_Online_conjL1_un.csv,Test_Conj_UnsyncL1.csv,ConjL1_unsync_norm.wav,ne,100:104,orange,Online_conjL1_un//dNE5.1776.wav,1776.0,0,0,0,0,0,12,12,24,0,3,3,1,,,,,,,,,,,,,,,,,,,,,,,,,,,,,,,,,,,,,,,,,,,,,,,,,,,,,,,,,,,,,,0.00805539998691529,175.0663738999865,175.0663738999865,175.0663738999865,,,,None,,y,0.15632980002555996,,,,,,,,,,,,,,,,,,,,,,,325537,001,2023-06-06_11h56.04.651,Pilot_online_tryings,2022.2.5,60.05540712802265,
ConjL1_uns.csv,dir_Online_conjL1_un.csv,Test_Conj_UnsyncL1.csv,ConjL1_unsync_norm.wav,ne,100:104,orange,,,0,0,0,0,0,12,12,24,,,,,,,,,,,,,,,,,,,,,,,,,,,,,,,,,,,,,,,,,,,,,,,,,,,,,,,,,,,,,,,,,,,,,,,,,,,,,,,,,,,,,,,,,,,,,,,,,,,325537,001,2023-06-06_11h56.04.651,Pilot_online_tryings,2022.2.5,60.05540712802265,
ConjL1_uns.csv,dir_Online_conjL1_un.csv,Test_Conj_UnsyncL1.csv,ConjL1_unsync_norm.wav,ta,48:52,blue,Online_conjL1_un//bTA19.none.wav,none,0,0,0,0,0,13,13,14,0,0,0,3,,,,,,,,,,,,,,,,,,,,,,,,,,,,,,,,,,,,,,,,,,,,,,,,,,,,,,,,,,,,175.26605560001917,175.26605560001917,0.022061600000597537,175.26605560001917,175.26605560001917,175.26605560001917,,,,None,,y,0.29177250002976507,,,,,,,,,,,,,,,,,,,,,,,325537,001,2023-06-06_11h56.04.651,Pilot_online_tryings,2022.2.5,60.05540712802265,
ConjL1_uns.csv,dir_Online_conjL1_un.csv,Test_Conj_UnsyncL1.csv,ConjL1_unsync_norm.wav,ta,48:52,blue,Online_conjL1_un//bTA17.888.wav,888.0,0,0,0,0,0,13,13,14,0,1,1,1,,,,,,,,,,,,,,,,,,,,,,,,,,,,,,,,,,,,,,,,,,,,,,,,,,,,,,,,,,,,,,0.017834900005254894,175.59200810000766,175.59200810000766,175.59200810000766,,,,None,,y,0.1429710000520572,,,,,,,,,,,,,,,,,,,,,,,325537,001,2023-06-06_11h56.04.651,Pilot_online_tryings,2022.2.5,60.05540712802265,
ConjL1_uns.csv,dir_Online_conjL1_un.csv,Test_Conj_UnsyncL1.csv,ConjL1_unsync_norm.wav,ta,48:52,blue,Online_conjL1_un//bTA16.0.wav,0.0,0,0,0,0,0,13,13,14,0,2,2,0,,,,,,,,,,,,,,,,,,,,,,,,,,,,,,,,,,,,,,,,,,,,,,,,,,,,,,,,,,,,,,0.01889349997509271,175.77539050002815,175.77539050002815,175.77539050002815,,,,None,,y,0.11927959998138249,,,,,,,,,,,,,,,,,,,,,,,325537,001,2023-06-06_11h56.04.651,Pilot_online_tryings,2022.2.5,60.05540712802265,
ConjL1_uns.csv,dir_Online_conjL1_un.csv,Test_Conj_UnsyncL1.csv,ConjL1_unsync_norm.wav,ta,48:52,blue,Online_conjL1_un//bTA18.888.wav,888.0,0,0,0,0,0,13,13,14,0,3,3,2,,,,,,,,,,,,,,,,,,,,,,,,,,,,,,,,,,,,,,,,,,,,,,,,,,,,,,,,,,,,,,0.010974699980579317,175.91859940002905,175.91859940002905,175.91859940002905,,,,None,,y,0.13457789999665692,,,,,,,,,,,,,,,,,,,,,,,325537,001,2023-06-06_11h56.04.651,Pilot_online_tryings,2022.2.5,60.05540712802265,
ConjL1_uns.csv,dir_Online_conjL1_un.csv,Test_Conj_UnsyncL1.csv,ConjL1_unsync_norm.wav,ta,48:52,blue,,,0,0,0,0,0,13,13,14,,,,,,,,,,,,,,,,,,,,,,,,,,,,,,,,,,,,,,,,,,,,,,,,,,,,,,,,,,,,,,,,,,,,,,,,,,,,,,,,,,,,,,,,,,,,,,,,,,,325537,001,2023-06-06_11h56.04.651,Pilot_online_tryings,2022.2.5,60.05540712802265,
ConjL1_uns.csv,dir_Online_conjL1_un.csv,Test_Conj_UnsyncL1.csv,ConjL1_unsync_norm.wav,ne,120:124,orange,Online_conjL1_un//dNE25.none.wav,none,0,0,0,0,0,14,14,19,0,0,0,1,,,,,,,,,,,,,,,,,,,,,,,,,,,,,,,,,,,,,,,,,,,,,,,,,,,,,,,,,,,,176.09806639997987,176.09806639997987,0.019575999991502613,176.09806639997987,176.09806639997987,176.09806639997987,,,,None,,y,0.13259229995310307,,,,,,,,,,,,,,,,,,,,,,,325537,001,2023-06-06_11h56.04.651,Pilot_online_tryings,2022.2.5,60.05540712802265,
ConjL1_uns.csv,dir_Online_conjL1_un.csv,Test_Conj_UnsyncL1.csv,ConjL1_unsync_norm.wav,ne,120:124,orange,Online_conjL1_un//dNE26.444.wav,444.0,0,0,0,0,0,14,14,19,0,1,1,2,,,,,,,,,,,,,,,,,,,,,,,,,,,,,,,,,,,,,,,,,,,,,,,,,,,,,,,,,,,,,,0.01037410000571981,176.25121529999888,176.25121529999888,176.25121529999888,,,,None,,y,0.15533189999405295,,,,,,,,,,,,,,,,,,,,,,,325537,001,2023-06-06_11h56.04.651,Pilot_online_tryings,2022.2.5,60.05540712802265,
ConjL1_uns.csv,dir_Online_conjL1_un.csv,Test_Conj_UnsyncL1.csv,ConjL1_unsync_norm.wav,ne,120:124,orange,Online_conjL1_un//dNE24.222.wav,222.0,0,0,0,0,0,14,14,19,0,2,2,0,,,,,,,,,,,,,,,,,,,,,,,,,,,,,,,,,,,,,,,,,,,,,,,,,,,,,,,,,,,,,,0.008605799986980855,176.43541740003275,176.43541740003275,176.43541740003275,,,,None,,y,0.13066939997952431,,,,,,,,,,,,,,,,,,,,,,,325537,001,2023-06-06_11h56.04.651,Pilot_online_tryings,2022.2.5,60.05540712802265,
ConjL1_uns.csv,dir_Online_conjL1_un.csv,Test_Conj_UnsyncL1.csv,ConjL1_unsync_norm.wav,ne,120:124,orange,Online_conjL1_un//dNE27.444.wav,444.0,0,0,0,0,0,14,14,19,0,3,3,3,,,,,,,,,,,,,,,,,,,,,,,,,,,,,,,,,,,,,,,,,,,,,,,,,,,,,,,,,,,,,,0.01753319997806102,176.59278559999075,176.59278559999075,176.59278559999075,,,,None,,y,0.1330840999726206,,,,,,,,,,,,,,,,,,,,,,,325537,001,2023-06-06_11h56.04.651,Pilot_online_tryings,2022.2.5,60.05540712802265,
ConjL1_uns.csv,dir_Online_conjL1_un.csv,Test_Conj_UnsyncL1.csv,ConjL1_unsync_norm.wav,ne,120:124,orange,,,0,0,0,0,0,14,14,19,,,,,,,,,,,,,,,,,,,,,,,,,,,,,,,,,,,,,,,,,,,,,,,,,,,,,,,,,,,,,,,,,,,,,,,,,,,,,,,,,,,,,,,,,,,,,,,,,,,325537,001,2023-06-06_11h56.04.651,Pilot_online_tryings,2022.2.5,60.05540712802265,
ConjL1_uns.csv,dir_Online_conjL1_un.csv,Test_Conj_UnsyncL1.csv,ConjL1_unsync_norm.wav,ro,68:72,green,Online_conjL1_un//cRO7.222.wav,222.0,0,0,0,0,0,15,15,9,0,0,0,3,,,,,,,,,,,,,,,,,,,,,,,,,,,,,,,,,,,,,,,,,,,,,,,,,,,,,,,,,,,,176.76693430001615,176.76693430001615,0.02089069999055937,176.76693430001615,176.76693430001615,176.76693430001615,,,,None,,y,0.1184662000159733,,,,,,,,,,,,,,,,,,,,,,,325537,001,2023-06-06_11h56.04.651,Pilot_online_tryings,2022.2.5,60.05540712802265,
ConjL1_uns.csv,dir_Online_conjL1_un.csv,Test_Conj_UnsyncL1.csv,ConjL1_unsync_norm.wav,ro,68:72,green,Online_conjL1_un//cRO4.444.wav,444.0,0,0,0,0,0,15,15,9,0,1,1,0,,,,,,,,,,,,,,,,,,,,,,,,,,,,,,,,,,,,,,,,,,,,,,,,,,,,,,,,,,,,,,0.019408599997404963,176.92673840001225,176.92673840001225,176.92673840001225,,,,None,,y,0.3110298999818042,,,,,,,,,,,,,,,,,,,,,,,325537,001,2023-06-06_11h56.04.651,Pilot_online_tryings,2022.2.5,60.05540712802265,
ConjL1_uns.csv,dir_Online_conjL1_un.csv,Test_Conj_UnsyncL1.csv,ConjL1_unsync_norm.wav,ro,68:72,green,Online_conjL1_un//cRO5.none.wav,none,0,0,0,0,0,15,15,9,0,2,2,1,,,,,,,,,,,,,,,,,,,,,,,,,,,,,,,,,,,,,,,,,,,,,,,,,,,,,,,,,,,,,,0.01164700003573671,177.27086619997863,177.27086619997863,177.27086619997863,,,,None,,y,0.14374080003472045,,,,,,,,,,,,,,,,,,,,,,,325537,001,2023-06-06_11h56.04.651,Pilot_online_tryings,2022.2.5,60.05540712802265,
ConjL1_uns.csv,dir_Online_conjL1_un.csv,Test_Conj_UnsyncL1.csv,ConjL1_unsync_norm.wav,ro,68:72,green,Online_conjL1_un//cRO6.1332.wav,1332.0,0,0,0,0,0,15,15,9,0,3,3,2,,,,,,,,,,,,,,,,,,,,,,,,,,,,,,,,,,,,,,,,,,,,,,,,,,,,,,,,,,,,,,0.010177699965424836,177.4365642000339,177.4365642000339,177.4365642000339,,,,None,,y,0.13759150000987574,,,,,,,,,,,,,,,,,,,,,,,325537,001,2023-06-06_11h56.04.651,Pilot_online_tryings,2022.2.5,60.05540712802265,
ConjL1_uns.csv,dir_Online_conjL1_un.csv,Test_Conj_UnsyncL1.csv,ConjL1_unsync_norm.wav,ro,68:72,green,,,0,0,0,0,0,15,15,9,,,,,,,,,,,,,,,,,,,,,,,,,,,,,,,,,,,,,,,,,,,,,,,,,,,,,,,,,,,,,,,,,,,,,,,,,,,,,,,,,,,,,,,,,,,,,,,,,,,325537,001,2023-06-06_11h56.04.651,Pilot_online_tryings,2022.2.5,60.05540712802265,
ConjL1_uns.csv,dir_Online_conjL1_un.csv,Test_Conj_UnsyncL1.csv,ConjL1_unsync_norm.wav,ta,44:48,blue,Online_conjL1_un//bTA14.888.wav,888.0,0,0,0,0,0,16,16,11,0,0,0,2,,,,,,,,,,,,,,,,,,,,,,,,,,,,,,,,,,,,,,,,,,,,,,,,,,,,,,,,,,,,177.61440949997632,177.61440949997632,0.017003200016915798,177.61440949997632,177.61440949997632,177.61440949997632,,,,None,,y,0.1357364000286907,,,,,,,,,,,,,,,,,,,,,,,325537,001,2023-06-06_11h56.04.651,Pilot_online_tryings,2022.2.5,60.05540712802265,
ConjL1_uns.csv,dir_Online_conjL1_un.csv,Test_Conj_UnsyncL1.csv,ConjL1_unsync_norm.wav,ta,44:48,blue,Online_conjL1_un//bTA13.none.wav,none,0,0,0,0,0,16,16,11,0,1,1,1,,,,,,,,,,,,,,,,,,,,,,,,,,,,,,,,,,,,,,,,,,,,,,,,,,,,,,,,,,,,,,0.010249099985230714,177.76913249999052,177.76913249999052,177.76913249999052,,,,None,,y,0.15754330001072958,,,,,,,,,,,,,,,,,,,,,,,325537,001,2023-06-06_11h56.04.651,Pilot_online_tryings,2022.2.5,60.05540712802265,
ConjL1_uns.csv,dir_Online_conjL1_un.csv,Test_Conj_UnsyncL1.csv,ConjL1_unsync_norm.wav,ta,44:48,blue,Online_conjL1_un//bTA12.0.wav,0.0,0,0,0,0,0,16,16,11,0,2,2,0,,,,,,,,,,,,,,,,,,,,,,,,,,,,,,,,,,,,,,,,,,,,,,,,,,,,,,,,,,,,,,0.02439590002177283,177.96880520001287,177.96880520001287,177.96880520001287,,,,None,,y,0.11771790002239868,,,,,,,,,,,,,,,,,,,,,,,325537,001,2023-06-06_11h56.04.651,Pilot_online_tryings,2022.2.5,60.05540712802265,
ConjL1_uns.csv,dir_Online_conjL1_un.csv,Test_Conj_UnsyncL1.csv,ConjL1_unsync_norm.wav,ta,44:48,blue,Online_conjL1_un//bTA15.none.wav,none,0,0,0,0,0,16,16,11,0,3,3,3,,,,,,,,,,,,,,,,,,,,,,,,,,,,,,,,,,,,,,,,,,,,,,,,,,,,,,,,,,,,,,0.010446500033140182,178.10557930002687,178.10557930002687,178.10557930002687,,,,None,,y,0.15552059997571632,,,,,,,,,,,,,,,,,,,,,,,325537,001,2023-06-06_11h56.04.651,Pilot_online_tryings,2022.2.5,60.05540712802265,
ConjL1_uns.csv,dir_Online_conjL1_un.csv,Test_Conj_UnsyncL1.csv,ConjL1_unsync_norm.wav,ta,44:48,blue,,,0,0,0,0,0,16,16,11,,,,,,,,,,,,,,,,,,,,,,,,,,,,,,,,,,,,,,,,,,,,,,,,,,,,,,,,,,,,,,,,,,,,,,,,,,,,,,,,,,,,,,,,,,,,,,,,,,,325537,001,2023-06-06_11h56.04.651,Pilot_online_tryings,2022.2.5,60.05540712802265,
ConjL1_uns.csv,dir_Online_conjL1_un.csv,Test_Conj_UnsyncL1.csv,ConjL1_unsync_norm.wav,ki,16:20,red,Online_conjL1_un//aKI17.none.wav,none,0,0,0,0,0,17,17,22,0,0,0,1,,,,,,,,,,,,,,,,,,,,,,,,,,,,,,,,,,,,,,,,,,,,,,,,,,,,,,,,,,,,178.32834230002481,178.32834230002481,0.04556820000289008,178.32834230002481,178.32834230002481,178.32834230002481,,,,None,,y,0.12489179999101907,,,,,,,,,,,,,,,,,,,,,,,325537,001,2023-06-06_11h56.04.651,Pilot_online_tryings,2022.2.5,60.05540712802265,
ConjL1_uns.csv,dir_Online_conjL1_un.csv,Test_Conj_UnsyncL1.csv,ConjL1_unsync_norm.wav,ki,16:20,red,Online_conjL1_un//aKI16.888.wav,888.0,0,0,0,0,0,17,17,22,0,1,1,0,,,,,,,,,,,,,,,,,,,,,,,,,,,,,,,,,,,,,,,,,,,,,,,,,,,,,,,,,,,,,,0.016808499989565462,178.47684690001188,178.47684690001188,178.47684690001188,,,,None,,y,0.16946780000580475,,,,,,,,,,,,,,,,,,,,,,,325537,001,2023-06-06_11h56.04.651,Pilot_online_tryings,2022.2.5,60.05540712802265,
ConjL1_uns.csv,dir_Online_conjL1_un.csv,Test_Conj_UnsyncL1.csv,ConjL1_unsync_norm.wav,ki,16:20,red,Online_conjL1_un//aKI18.none.wav,none,0,0,0,0,0,17,17,22,0,2,2,2,,,,,,,,,,,,,,,,,,,,,,,,,,,,,,,,,,,,,,,,,,,,,,,,,,,,,,,,,,,,,,0.008151500020176172,178.66993199998979,178.66993199998979,178.66993199998979,,,,None,,y,0.15192029997706413,,,,,,,,,,,,,,,,,,,,,,,325537,001,2023-06-06_11h56.04.651,Pilot_online_tryings,2022.2.5,60.05540712802265,
ConjL1_uns.csv,dir_Online_conjL1_un.csv,Test_Conj_UnsyncL1.csv,ConjL1_unsync_norm.wav,ki,16:20,red,Online_conjL1_un//aKI19.none.wav,none,0,0,0,0,0,17,17,22,0,3,3,3,,,,,,,,,,,,,,,,,,,,,,,,,,,,,,,,,,,,,,,,,,,,,,,,,,,,,,,,,,,,,,0.01899280003271997,178.86375180003233,178.86375180003233,178.86375180003233,,,,None,,y,0.13467130000935867,,,,,,,,,,,,,,,,,,,,,,,325537,001,2023-06-06_11h56.04.651,Pilot_online_tryings,2022.2.5,60.05540712802265,
ConjL1_uns.csv,dir_Online_conjL1_un.csv,Test_Conj_UnsyncL1.csv,ConjL1_unsync_norm.wav,ki,16:20,red,,,0,0,0,0,0,17,17,22,,,,,,,,,,,,,,,,,,,,,,,,,,,,,,,,,,,,,,,,,,,,,,,,,,,,,,,,,,,,,,,,,,,,,,,,,,,,,,,,,,,,,,,,,,,,,,,,,,,325537,001,2023-06-06_11h56.04.651,Pilot_online_tryings,2022.2.5,60.05540712802265,
ConjL1_uns.csv,dir_Online_conjL1_un.csv,Test_Conj_UnsyncL1.csv,ConjL1_unsync_norm.wav,ro,84:88,green,Online_conjL1_un//cRO20.none.wav,none,0,0,0,0,0,18,18,30,0,0,0,0,,,,,,,,,,,,,,,,,,,,,,,,,,,,,,,,,,,,,,,,,,,,,,,,,,,,,,,,,,,,179.04878840001766,179.04878840001766,0.0316416000132449,179.04878840001766,179.04878840001766,179.04878840001766,,,,None,,y,0.12431380001362413,,,,,,,,,,,,,,,,,,,,,,,325537,001,2023-06-06_11h56.04.651,Pilot_online_tryings,2022.2.5,60.05540712802265,
ConjL1_uns.csv,dir_Online_conjL1_un.csv,Test_Conj_UnsyncL1.csv,ConjL1_unsync_norm.wav,ro,84:88,green,Online_conjL1_un//cRO23.none.wav,none,0,0,0,0,0,18,18,30,0,1,1,3,,,,,,,,,,,,,,,,,,,,,,,,,,,,,,,,,,,,,,,,,,,,,,,,,,,,,,,,,,,,,,0.01778090000152588,179.21211399999447,179.21211399999447,179.21211399999447,,,,None,,y,0.17101749998982996,,,,,,,,,,,,,,,,,,,,,,,325537,001,2023-06-06_11h56.04.651,Pilot_online_tryings,2022.2.5,60.05540712802265,
ConjL1_uns.csv,dir_Online_conjL1_un.csv,Test_Conj_UnsyncL1.csv,ConjL1_unsync_norm.wav,ro,84:88,green,Online_conjL1_un//cRO21.444.wav,444.0,0,0,0,0,0,18,18,30,0,2,2,1,,,,,,,,,,,,,,,,,,,,,,,,,,,,,,,,,,,,,,,,,,,,,,,,,,,,,,,,,,,,,,0.008878000022377819,179.4036441000062,179.4036441000062,179.4036441000062,,,,None,,y,0.15437959996052086,,,,,,,,,,,,,,,,,,,,,,,325537,001,2023-06-06_11h56.04.651,Pilot_online_tryings,2022.2.5,60.05540712802265,
ConjL1_uns.csv,dir_Online_conjL1_un.csv,Test_Conj_UnsyncL1.csv,ConjL1_unsync_norm.wav,ro,84:88,green,Online_conjL1_un//cRO22.222.wav,222.0,0,0,0,0,0,18,18,30,0,3,3,2,,,,,,,,,,,,,,,,,,,,,,,,,,,,,,,,,,,,,,,,,,,,,,,,,,,,,,,,,,,,,,0.010563099989667535,179.58960820001084,179.58960820001084,179.58960820001084,,,,None,,y,0.14415680000092834,,,,,,,,,,,,,,,,,,,,,,,325537,001,2023-06-06_11h56.04.651,Pilot_online_tryings,2022.2.5,60.05540712802265,
ConjL1_uns.csv,dir_Online_conjL1_un.csv,Test_Conj_UnsyncL1.csv,ConjL1_unsync_norm.wav,ro,84:88,green,,,0,0,0,0,0,18,18,30,,,,,,,,,,,,,,,,,,,,,,,,,,,,,,,,,,,,,,,,,,,,,,,,,,,,,,,,,,,,,,,,,,,,,,,,,,,,,,,,,,,,,,,,,,,,,,,,,,,325537,001,2023-06-06_11h56.04.651,Pilot_online_tryings,2022.2.5,60.05540712802265,
ConjL1_uns.csv,dir_Online_conjL1_un.csv,Test_Conj_UnsyncL1.csv,ConjL1_unsync_norm.wav,ne,96:100,orange,Online_conjL1_un//dNE1.none.wav,none,0,0,0,0,0,19,19,8,0,0,0,1,,,,,,,,,,,,,,,,,,,,,,,,,,,,,,,,,,,,,,,,,,,,,,,,,,,,,,,,,,,,179.76717900001677,179.76717900001677,0.018569800013210624,179.76717900001677,179.76717900001677,179.76717900001677,,,,None,,y,0.1419908999814652,,,,,,,,,,,,,,,,,,,,,,,325537,001,2023-06-06_11h56.04.651,Pilot_online_tryings,2022.2.5,60.05540712802265,
ConjL1_uns.csv,dir_Online_conjL1_un.csv,Test_Conj_UnsyncL1.csv,ConjL1_unsync_norm.wav,ne,96:100,orange,Online_conjL1_un//dNE0.1110.wav,1110.0,0,0,0,0,0,19,19,8,0,1,1,0,,,,,,,,,,,,,,,,,,,,,,,,,,,,,,,,,,,,,,,,,,,,,,,,,,,,,,,,,,,,,,0.008749399974476546,179.9376185000292,179.9376185000292,179.9376185000292,,,,None,,y,0.22883310000179335,,,,,,,,,,,,,,,,,,,,,,,325537,001,2023-06-06_11h56.04.651,Pilot_online_tryings,2022.2.5,60.05540712802265,
ConjL1_uns.csv,dir_Online_conjL1_un.csv,Test_Conj_UnsyncL1.csv,ConjL1_unsync_norm.wav,ne,96:100,orange,Online_conjL1_un//dNE2.0.wav,0.0,0,0,0,0,0,19,19,8,0,2,2,2,,,,,,,,,,,,,,,,,,,,,,,,,,,,,,,,,,,,,,,,,,,,,,,,,,,,,,,,,,,,,,0.026608899992424995,180.20562910003355,180.20562910003355,180.20562910003355,,,,None,,y,0.08956599998055026,,,,,,,,,,,,,,,,,,,,,,,325537,001,2023-06-06_11h56.04.651,Pilot_online_tryings,2022.2.5,60.05540712802265,
ConjL1_uns.csv,dir_Online_conjL1_un.csv,Test_Conj_UnsyncL1.csv,ConjL1_unsync_norm.wav,ne,96:100,orange,Online_conjL1_un//dNE3.none.wav,none,0,0,0,0,0,19,19,8,0,3,3,3,,,,,,,,,,,,,,,,,,,,,,,,,,,,,,,,,,,,,,,,,,,,,,,,,,,,,,,,,,,,,,0.022398500004783273,180.3350071000168,180.3350071000168,180.3350071000168,,,,None,,y,0.1355374999693595,,,,,,,,,,,,,,,,,,,,,,,325537,001,2023-06-06_11h56.04.651,Pilot_online_tryings,2022.2.5,60.05540712802265,
ConjL1_uns.csv,dir_Online_conjL1_un.csv,Test_Conj_UnsyncL1.csv,ConjL1_unsync_norm.wav,ne,96:100,orange,,,0,0,0,0,0,19,19,8,,,,,,,,,,,,,,,,,,,,,,,,,,,,,,,,,,,,,,,,,,,,,,,,,,,,,,,,,,,,,,,,,,,,,,,,,,,,,,,,,,,,,,,,,,,,,,,,,,,325537,001,2023-06-06_11h56.04.651,Pilot_online_tryings,2022.2.5,60.05540712802265,
ConjL1_uns.csv,dir_Online_conjL1_un.csv,Test_Conj_UnsyncL1.csv,ConjL1_unsync_norm.wav,ta,36:40,blue,Online_conjL1_un//bTA7.0.wav,0.0,0,0,0,0,0,20,20,15,0,0,0,3,,,,,,,,,,,,,,,,,,,,,,,,,,,,,,,,,,,,,,,,,,,,,,,,,,,,,,,,,,,,180.5252552999882,180.5252552999882,0.036030499963089824,180.5252552999882,180.5252552999882,180.5252552999882,,,,None,,y,0.12068940000608563,,,,,,,,,,,,,,,,,,,,,,,325537,001,2023-06-06_11h56.04.651,Pilot_online_tryings,2022.2.5,60.05540712802265,
ConjL1_uns.csv,dir_Online_conjL1_un.csv,Test_Conj_UnsyncL1.csv,ConjL1_unsync_norm.wav,ta,36:40,blue,Online_conjL1_un//bTA4.888.wav,888.0,0,0,0,0,0,20,20,15,0,1,1,0,,,,,,,,,,,,,,,,,,,,,,,,,,,,,,,,,,,,,,,,,,,,,,,,,,,,,,,,,,,,,,0.024364500015508384,180.6869590000133,180.6869590000133,180.6869590000133,,,,None,,y,0.15121330000692979,,,,,,,,,,,,,,,,,,,,,,,325537,001,2023-06-06_11h56.04.651,Pilot_online_tryings,2022.2.5,60.05540712802265,
ConjL1_uns.csv,dir_Online_conjL1_un.csv,Test_Conj_UnsyncL1.csv,ConjL1_unsync_norm.wav,ta,36:40,blue,Online_conjL1_un//bTA5.888.wav,888.0,0,0,0,0,0,20,20,15,0,2,2,1,,,,,,,,,,,,,,,,,,,,,,,,,,,,,,,,,,,,,,,,,,,,,,,,,,,,,,,,,,,,,,0.018089599965605885,180.86799340002472,180.86799340002472,180.86799340002472,,,,None,,y,0.17825559998163953,,,,,,,,,,,,,,,,,,,,,,,325537,001,2023-06-06_11h56.04.651,Pilot_online_tryings,2022.2.5,60.05540712802265,
ConjL1_uns.csv,dir_Online_conjL1_un.csv,Test_Conj_UnsyncL1.csv,ConjL1_unsync_norm.wav,ta,36:40,blue,Online_conjL1_un//bTA6.0.wav,0.0,0,0,0,0,0,20,20,15,0,3,3,2,,,,,,,,,,,,,,,,,,,,,,,,,,,,,,,,,,,,,,,,,,,,,,,,,,,,,,,,,,,,,,0.01062600000295788,181.0743737000157,181.0743737000157,181.0743737000157,,,,None,,y,0.14854369999375194,,,,,,,,,,,,,,,,,,,,,,,325537,001,2023-06-06_11h56.04.651,Pilot_online_tryings,2022.2.5,60.05540712802265,
ConjL1_uns.csv,dir_Online_conjL1_un.csv,Test_Conj_UnsyncL1.csv,ConjL1_unsync_norm.wav,ta,36:40,blue,,,0,0,0,0,0,20,20,15,,,,,,,,,,,,,,,,,,,,,,,,,,,,,,,,,,,,,,,,,,,,,,,,,,,,,,,,,,,,,,,,,,,,,,,,,,,,,,,,,,,,,,,,,,,,,,,,,,,325537,001,2023-06-06_11h56.04.651,Pilot_online_tryings,2022.2.5,60.05540712802265,
ConjL1_uns.csv,dir_Online_conjL1_un.csv,Test_Conj_UnsyncL1.csv,ConjL1_unsync_norm.wav,ro,88:92,green,Online_conjL1_un//cRO26.none.wav,none,0,0,0,0,0,21,21,20,0,0,0,2,,,,,,,,,,,,,,,,,,,,,,,,,,,,,,,,,,,,,,,,,,,,,,,,,,,,,,,,,,,,181.28662020002957,181.28662020002957,0.03706659999443218,181.28662020002957,181.28662020002957,181.28662020002957,,,,None,,y,0.11191480001434684,,,,,,,,,,,,,,,,,,,,,,,325537,001,2023-06-06_11h56.04.651,Pilot_online_tryings,2022.2.5,60.05540712802265,
ConjL1_uns.csv,dir_Online_conjL1_un.csv,Test_Conj_UnsyncL1.csv,ConjL1_unsync_norm.wav,ro,88:92,green,Online_conjL1_un//cRO25.444.wav,444.0,0,0,0,0,0,21,21,20,0,1,1,1,,,,,,,,,,,,,,,,,,,,,,,,,,,,,,,,,,,,,,,,,,,,,,,,,,,,,,,,,,,,,,0.0129878000007011,181.42645040003117,181.42645040003117,181.42645040003117,,,,None,,y,0.1635783000383526,,,,,,,,,,,,,,,,,,,,,,,325537,001,2023-06-06_11h56.04.651,Pilot_online_tryings,2022.2.5,60.05540712802265,
ConjL1_uns.csv,dir_Online_conjL1_un.csv,Test_Conj_UnsyncL1.csv,ConjL1_unsync_norm.wav,ro,88:92,green,Online_conjL1_un//cRO27.none.wav,none,0,0,0,0,0,21,21,20,0,2,2,3,,,,,,,,,,,,,,,,,,,,,,,,,,,,,,,,,,,,,,,,,,,,,,,,,,,,,,,,,,,,,,0.02220040000975132,181.61962579999818,181.61962579999818,181.61962579999818,,,,None,,y,0.16274860000703484,,,,,,,,,,,,,,,,,,,,,,,325537,001,2023-06-06_11h56.04.651,Pilot_online_tryings,2022.2.5,60.05540712802265,
ConjL1_uns.csv,dir_Online_conjL1_un.csv,Test_Conj_UnsyncL1.csv,ConjL1_unsync_norm.wav,ro,88:92,green,Online_conjL1_un//cRO24.none.wav,none,0,0,0,0,0,21,21,20,0,3,3,0,,,,,,,,,,,,,,,,,,,,,,,,,,,,,,,,,,,,,,,,,,,,,,,,,,,,,,,,,,,,,,0.01031789998523891,181.80704200000037,181.80704200000037,181.80704200000037,,,,None,,y,0.1344204999622889,,,,,,,,,,,,,,,,,,,,,,,325537,001,2023-06-06_11h56.04.651,Pilot_online_tryings,2022.2.5,60.05540712802265,
ConjL1_uns.csv,dir_Online_conjL1_un.csv,Test_Conj_UnsyncL1.csv,ConjL1_unsync_norm.wav,ro,88:92,green,,,0,0,0,0,0,21,21,20,,,,,,,,,,,,,,,,,,,,,,,,,,,,,,,,,,,,,,,,,,,,,,,,,,,,,,,,,,,,,,,,,,,,,,,,,,,,,,,,,,,,,,,,,,,,,,,,,,,325537,001,2023-06-06_11h56.04.651,Pilot_online_tryings,2022.2.5,60.05540712802265,
ConjL1_uns.csv,dir_Online_conjL1_un.csv,Test_Conj_UnsyncL1.csv,ConjL1_unsync_norm.wav,ta,60:64,blue,Online_conjL1_un//bTA31.0.wav,0.0,0,0,0,0,0,22,22,25,0,0,0,3,,,,,,,,,,,,,,,,,,,,,,,,,,,,,,,,,,,,,,,,,,,,,,,,,,,,,,,,,,,,181.9866841000039,181.9866841000039,0.018904600001405925,181.9866841000039,181.9866841000039,181.9866841000039,,,,None,,y,0.13236150000011548,,,,,,,,,,,,,,,,,,,,,,,325537,001,2023-06-06_11h56.04.651,Pilot_online_tryings,2022.2.5,60.05540712802265,
ConjL1_uns.csv,dir_Online_conjL1_un.csv,Test_Conj_UnsyncL1.csv,ConjL1_unsync_norm.wav,ta,60:64,blue,Online_conjL1_un//bTA29.none.wav,none,0,0,0,0,0,22,22,25,0,1,1,1,,,,,,,,,,,,,,,,,,,,,,,,,,,,,,,,,,,,,,,,,,,,,,,,,,,,,,,,,,,,,,0.01053580001462251,182.14068860001862,182.14068860001862,182.14068860001862,,,,None,,y,0.16922949999570847,,,,,,,,,,,,,,,,,,,,,,,325537,001,2023-06-06_11h56.04.651,Pilot_online_tryings,2022.2.5,60.05540712802265,
ConjL1_uns.csv,dir_Online_conjL1_un.csv,Test_Conj_UnsyncL1.csv,ConjL1_unsync_norm.wav,ta,60:64,blue,Online_conjL1_un//bTA28.888.wav,888.0,0,0,0,0,0,22,22,25,0,2,2,0,,,,,,,,,,,,,,,,,,,,,,,,,,,,,,,,,,,,,,,,,,,,,,,,,,,,,,,,,,,,,,0.011306300002615899,182.34150929999305,182.34150929999305,182.34150929999305,,,,None,,y,0.14437660004477948,,,,,,,,,,,,,,,,,,,,,,,325537,001,2023-06-06_11h56.04.651,Pilot_online_tryings,2022.2.5,60.05540712802265,
ConjL1_uns.csv,dir_Online_conjL1_un.csv,Test_Conj_UnsyncL1.csv,ConjL1_unsync_norm.wav,ta,60:64,blue,Online_conjL1_un//bTA30.none.wav,none,0,0,0,0,0,22,22,25,0,3,3,2,,,,,,,,,,,,,,,,,,,,,,,,,,,,,,,,,,,,,,,,,,,,,,,,,,,,,,,,,,,,,,0.010678500053472817,182.50811819999944,182.50811819999944,182.50811819999944,,,,None,,y,0.15309490001527593,,,,,,,,,,,,,,,,,,,,,,,325537,001,2023-06-06_11h56.04.651,Pilot_online_tryings,2022.2.5,60.05540712802265,
ConjL1_uns.csv,dir_Online_conjL1_un.csv,Test_Conj_UnsyncL1.csv,ConjL1_unsync_norm.wav,ta,60:64,blue,,,0,0,0,0,0,22,22,25,,,,,,,,,,,,,,,,,,,,,,,,,,,,,,,,,,,,,,,,,,,,,,,,,,,,,,,,,,,,,,,,,,,,,,,,,,,,,,,,,,,,,,,,,,,,,,,,,,,325537,001,2023-06-06_11h56.04.651,Pilot_online_tryings,2022.2.5,60.05540712802265,
ConjL1_uns.csv,dir_Online_conjL1_un.csv,Test_Conj_UnsyncL1.csv,ConjL1_unsync_norm.wav,ro,80:84,green,Online_conjL1_un//cRO17.1332.wav,1332.0,0,0,0,0,0,23,23,26,0,0,0,1,,,,,,,,,,,,,,,,,,,,,,,,,,,,,,,,,,,,,,,,,,,,,,,,,,,,,,,,,,,,182.70670899999095,182.70670899999095,0.018167100031860173,182.70670899999095,182.70670899999095,182.70670899999095,,,,None,,y,0.13159609999274835,,,,,,,,,,,,,,,,,,,,,,,325537,001,2023-06-06_11h56.04.651,Pilot_online_tryings,2022.2.5,60.05540712802265,
ConjL1_uns.csv,dir_Online_conjL1_un.csv,Test_Conj_UnsyncL1.csv,ConjL1_unsync_norm.wav,ro,80:84,green,Online_conjL1_un//cRO16.none.wav,none,0,0,0,0,0,23,23,26,0,1,1,0,,,,,,,,,,,,,,,,,,,,,,,,,,,,,,,,,,,,,,,,,,,,,,,,,,,,,,,,,,,,,,0.009189299948047847,182.8573075000313,182.8573075000313,182.8573075000313,,,,None,,y,0.1722952999989502,,,,,,,,,,,,,,,,,,,,,,,325537,001,2023-06-06_11h56.04.651,Pilot_online_tryings,2022.2.5,60.05540712802265,
ConjL1_uns.csv,dir_Online_conjL1_un.csv,Test_Conj_UnsyncL1.csv,ConjL1_unsync_norm.wav,ro,80:84,green,Online_conjL1_un//cRO19.1110.wav,1110.0,0,0,0,0,0,23,23,26,0,2,2,3,,,,,,,,,,,,,,,,,,,,,,,,,,,,,,,,,,,,,,,,,,,,,,,,,,,,,,,,,,,,,,0.02071270003216341,183.07095399999525,183.07095399999525,183.07095399999525,,,,None,,y,0.13537999999243766,,,,,,,,,,,,,,,,,,,,,,,325537,001,2023-06-06_11h56.04.651,Pilot_online_tryings,2022.2.5,60.05540712802265,
ConjL1_uns.csv,dir_Online_conjL1_un.csv,Test_Conj_UnsyncL1.csv,ConjL1_unsync_norm.wav,ro,80:84,green,Online_conjL1_un//cRO18.444.wav,444.0,0,0,0,0,0,23,23,26,0,3,3,2,,,,,,,,,,,,,,,,,,,,,,,,,,,,,,,,,,,,,,,,,,,,,,,,,,,,,,,,,,,,,,0.025712200033012778,183.24176300002728,183.24176300002728,183.24176300002728,,,,None,,y,0.12515620002523065,,,,,,,,,,,,,,,,,,,,,,,325537,001,2023-06-06_11h56.04.651,Pilot_online_tryings,2022.2.5,60.05540712802265,
ConjL1_uns.csv,dir_Online_conjL1_un.csv,Test_Conj_UnsyncL1.csv,ConjL1_unsync_norm.wav,ro,80:84,green,,,0,0,0,0,0,23,23,26,,,,,,,,,,,,,,,,,,,,,,,,,,,,,,,,,,,,,,,,,,,,,,,,,,,,,,,,,,,,,,,,,,,,,,,,,,,,,,,,,,,,,,,,,,,,,,,,,,,325537,001,2023-06-06_11h56.04.651,Pilot_online_tryings,2022.2.5,60.05540712802265,
ConjL1_uns.csv,dir_Online_conjL1_un.csv,Test_Conj_UnsyncL1.csv,ConjL1_unsync_norm.wav,ki,4:8,red,Online_conjL1_un//aKI6.1776.wav,1776.0,0,0,0,0,0,24,24,29,0,0,0,2,,,,,,,,,,,,,,,,,,,,,,,,,,,,,,,,,,,,,,,,,,,,,,,,,,,,,,,,,,,,183.4313092000084,183.4313092000084,0.03894280001986772,183.4313092000084,183.4313092000084,183.4313092000084,,,,None,,y,0.09468759997980669,,,,,,,,,,,,,,,,,,,,,,,325537,001,2023-06-06_11h56.04.651,Pilot_online_tryings,2022.2.5,60.05540712802265,
ConjL1_uns.csv,dir_Online_conjL1_un.csv,Test_Conj_UnsyncL1.csv,ConjL1_unsync_norm.wav,ki,4:8,red,Online_conjL1_un//aKI4.none.wav,none,0,0,0,0,0,24,24,29,0,1,1,0,,,,,,,,,,,,,,,,,,,,,,,,,,,,,,,,,,,,,,,,,,,,,,,,,,,,,,,,,,,,,,0.017632199975196272,183.56612199998926,183.56612199998926,183.56612199998926,,,,None,,y,0.1354863999877125,,,,,,,,,,,,,,,,,,,,,,,325537,001,2023-06-06_11h56.04.651,Pilot_online_tryings,2022.2.5,60.05540712802265,
ConjL1_uns.csv,dir_Online_conjL1_un.csv,Test_Conj_UnsyncL1.csv,ConjL1_unsync_norm.wav,ki,4:8,red,Online_conjL1_un//aKI5.1776.wav,1776.0,0,0,0,0,0,24,24,29,0,2,2,1,,,,,,,,,,,,,,,,,,,,,,,,,,,,,,,,,,,,,,,,,,,,,,,,,,,,,,,,,,,,,,0.011442199989687651,183.72702310001478,183.72702310001478,183.72702310001478,,,,None,,y,0.15030490001663566,,,,,,,,,,,,,,,,,,,,,,,325537,001,2023-06-06_11h56.04.651,Pilot_online_tryings,2022.2.5,60.05540712802265,
ConjL1_uns.csv,dir_Online_conjL1_un.csv,Test_Conj_UnsyncL1.csv,ConjL1_unsync_norm.wav,ki,4:8,red,Online_conjL1_un//aKI7.888.wav,888.0,0,0,0,0,0,24,24,29,0,3,3,3,,,,,,,,,,,,,,,,,,,,,,,,,,,,,,,,,,,,,,,,,,,,,,,,,,,,,,,,,,,,,,0.01155929995002225,183.9104261000175,183.9104261000175,183.9104261000175,,,,None,,y,0.12777570000616834,,,,,,,,,,,,,,,,,,,,,,,325537,001,2023-06-06_11h56.04.651,Pilot_online_tryings,2022.2.5,60.05540712802265,
ConjL1_uns.csv,dir_Online_conjL1_un.csv,Test_Conj_UnsyncL1.csv,ConjL1_unsync_norm.wav,ki,4:8,red,,,0,0,0,0,0,24,24,29,,,,,,,,,,,,,,,,,,,,,,,,,,,,,,,,,,,,,,,,,,,,,,,,,,,,,,,,,,,,,,,,,,,,,,,,,,,,,,,,,,,,,,,,,,,,,,,,,,,325537,001,2023-06-06_11h56.04.651,Pilot_online_tryings,2022.2.5,60.05540712802265,
ConjL1_uns.csv,dir_Online_conjL1_un.csv,Test_Conj_UnsyncL1.csv,ConjL1_unsync_norm.wav,ne,112:116,orange,Online_conjL1_un//dNE18.444.wav,444.0,0,0,0,0,0,25,25,27,0,0,0,2,,,,,,,,,,,,,,,,,,,,,,,,,,,,,,,,,,,,,,,,,,,,,,,,,,,,,,,,,,,,184.08440049999626,184.08440049999626,0.030412500025704503,184.08440049999626,184.08440049999626,184.08440049999626,,,,None,,y,0.11357639997731894,,,,,,,,,,,,,,,,,,,,,,,325537,001,2023-06-06_11h56.04.651,Pilot_online_tryings,2022.2.5,60.05540712802265,
ConjL1_uns.csv,dir_Online_conjL1_un.csv,Test_Conj_UnsyncL1.csv,ConjL1_unsync_norm.wav,ne,112:116,orange,Online_conjL1_un//dNE19.none.wav,none,0,0,0,0,0,25,25,27,0,1,1,3,,,,,,,,,,,,,,,,,,,,,,,,,,,,,,,,,,,,,,,,,,,,,,,,,,,,,,,,,,,,,,0.012911300000268966,184.23006390000228,184.23006390000228,184.23006390000228,,,,None,,y,0.12753480003448203,,,,,,,,,,,,,,,,,,,,,,,325537,001,2023-06-06_11h56.04.651,Pilot_online_tryings,2022.2.5,60.05540712802265,
ConjL1_uns.csv,dir_Online_conjL1_un.csv,Test_Conj_UnsyncL1.csv,ConjL1_unsync_norm.wav,ne,112:116,orange,Online_conjL1_un//dNE16.222.wav,222.0,0,0,0,0,0,25,25,27,0,2,2,0,,,,,,,,,,,,,,,,,,,,,,,,,,,,,,,,,,,,,,,,,,,,,,,,,,,,,,,,,,,,,,0.021194899978581816,184.38873100001365,184.38873100001365,184.38873100001365,,,,None,,y,0.14505069999722764,,,,,,,,,,,,,,,,,,,,,,,325537,001,2023-06-06_11h56.04.651,Pilot_online_tryings,2022.2.5,60.05540712802265,
ConjL1_uns.csv,dir_Online_conjL1_un.csv,Test_Conj_UnsyncL1.csv,ConjL1_unsync_norm.wav,ne,112:116,orange,Online_conjL1_un//dNE17.none.wav,none,0,0,0,0,0,25,25,27,0,3,3,1,,,,,,,,,,,,,,,,,,,,,,,,,,,,,,,,,,,,,,,,,,,,,,,,,,,,,,,,,,,,,,0.013179400004446507,184.56397030001972,184.56397030001972,184.56397030001972,,,,None,,y,0.11306100001093,,,,,,,,,,,,,,,,,,,,,,,325537,001,2023-06-06_11h56.04.651,Pilot_online_tryings,2022.2.5,60.05540712802265,
ConjL1_uns.csv,dir_Online_conjL1_un.csv,Test_Conj_UnsyncL1.csv,ConjL1_unsync_norm.wav,ne,112:116,orange,,,0,0,0,0,0,25,25,27,,,,,,,,,,,,,,,,,,,,,,,,,,,,,,,,,,,,,,,,,,,,,,,,,,,,,,,,,,,,,,,,,,,,,,,,,,,,,,,,,,,,,,,,,,,,,,,,,,,325537,001,2023-06-06_11h56.04.651,Pilot_online_tryings,2022.2.5,60.05540712802265,
ConjL1_uns.csv,dir_Online_conjL1_un.csv,Test_Conj_UnsyncL1.csv,ConjL1_unsync_norm.wav,ki,12:16,red,Online_conjL1_un//aKI14.none.wav,none,0,0,0,0,0,26,26,5,0,0,0,2,,,,,,,,,,,,,,,,,,,,,,,,,,,,,,,,,,,,,,,,,,,,,,,,,,,,,,,,,,,,184.73932639998384,184.73932639998384,0.03635219996795058,184.73932639998384,184.73932639998384,184.73932639998384,,,,None,,y,0.13055750000057742,,,,,,,,,,,,,,,,,,,,,,,325537,001,2023-06-06_11h56.04.651,Pilot_online_tryings,2022.2.5,60.05540712802265,
ConjL1_uns.csv,dir_Online_conjL1_un.csv,Test_Conj_UnsyncL1.csv,ConjL1_unsync_norm.wav,ki,12:16,red,Online_conjL1_un//aKI15.1776.wav,1776.0,0,0,0,0,0,26,26,5,0,1,1,3,,,,,,,,,,,,,,,,,,,,,,,,,,,,,,,,,,,,,,,,,,,,,,,,,,,,,,,,,,,,,,0.009902699966914952,184.8938371000113,184.8938371000113,184.8938371000113,,,,None,,y,0.18391570000676438,,,,,,,,,,,,,,,,,,,,,,,325537,001,2023-06-06_11h56.04.651,Pilot_online_tryings,2022.2.5,60.05540712802265,
ConjL1_uns.csv,dir_Online_conjL1_un.csv,Test_Conj_UnsyncL1.csv,ConjL1_unsync_norm.wav,ki,12:16,red,Online_conjL1_un//aKI13.888.wav,888.0,0,0,0,0,0,26,26,5,0,2,2,1,,,,,,,,,,,,,,,,,,,,,,,,,,,,,,,,,,,,,,,,,,,,,,,,,,,,,,,,,,,,,,0.019002099987119436,185.11705489997985,185.11705489997985,185.11705489997985,,,,None,,y,0.16801540000597015,,,,,,,,,,,,,,,,,,,,,,,325537,001,2023-06-06_11h56.04.651,Pilot_online_tryings,2022.2.5,60.05540712802265,
ConjL1_uns.csv,dir_Online_conjL1_un.csv,Test_Conj_UnsyncL1.csv,ConjL1_unsync_norm.wav,ki,12:16,red,Online_conjL1_un//aKI12.none.wav,none,0,0,0,0,0,26,26,5,0,3,3,0,,,,,,,,,,,,,,,,,,,,,,,,,,,,,,,,,,,,,,,,,,,,,,,,,,,,,,,,,,,,,,0.012356000021100044,185.31356919999234,185.31356919999234,185.31356919999234,,,,None,,y,0.1321339999558404,,,,,,,,,,,,,,,,,,,,,,,325537,001,2023-06-06_11h56.04.651,Pilot_online_tryings,2022.2.5,60.05540712802265,
ConjL1_uns.csv,dir_Online_conjL1_un.csv,Test_Conj_UnsyncL1.csv,ConjL1_unsync_norm.wav,ki,12:16,red,,,0,0,0,0,0,26,26,5,,,,,,,,,,,,,,,,,,,,,,,,,,,,,,,,,,,,,,,,,,,,,,,,,,,,,,,,,,,,,,,,,,,,,,,,,,,,,,,,,,,,,,,,,,,,,,,,,,,325537,001,2023-06-06_11h56.04.651,Pilot_online_tryings,2022.2.5,60.05540712802265,
ConjL1_uns.csv,dir_Online_conjL1_un.csv,Test_Conj_UnsyncL1.csv,ConjL1_unsync_norm.wav,ne,108:112,orange,Online_conjL1_un//dNE14.none.wav,none,0,0,0,0,0,27,27,1,0,0,0,2,,,,,,,,,,,,,,,,,,,,,,,,,,,,,,,,,,,,,,,,,,,,,,,,,,,,,,,,,,,,185.5064047999913,185.5064047999913,0.033767900022212416,185.5064047999913,185.5064047999913,185.5064047999913,,,,None,,y,0.3555456000030972,,,,,,,,,,,,,,,,,,,,,,,325537,001,2023-06-06_11h56.04.651,Pilot_online_tryings,2022.2.5,60.05540712802265,
ConjL1_uns.csv,dir_Online_conjL1_un.csv,Test_Conj_UnsyncL1.csv,ConjL1_unsync_norm.wav,ne,108:112,orange,Online_conjL1_un//dNE15.none.wav,none,0,0,0,0,0,27,27,1,0,1,1,3,,,,,,,,,,,,,,,,,,,,,,,,,,,,,,,,,,,,,,,,,,,,,,,,,,,,,,,,,,,,,,0.018440600018948317,185.90201690001413,185.90201690001413,185.90201690001413,,,,None,,y,0.15108290000353009,,,,,,,,,,,,,,,,,,,,,,,325537,001,2023-06-06_11h56.04.651,Pilot_online_tryings,2022.2.5,60.05540712802265,
ConjL1_uns.csv,dir_Online_conjL1_un.csv,Test_Conj_UnsyncL1.csv,ConjL1_unsync_norm.wav,ne,108:112,orange,Online_conjL1_un//dNE12.none.wav,none,0,0,0,0,0,27,27,1,0,2,2,0,,,,,,,,,,,,,,,,,,,,,,,,,,,,,,,,,,,,,,,,,,,,,,,,,,,,,,,,,,,,,,0.016045299998950213,186.0849613000173,186.0849613000173,186.0849613000173,,,,None,,y,0.16077780001796782,,,,,,,,,,,,,,,,,,,,,,,325537,001,2023-06-06_11h56.04.651,Pilot_online_tryings,2022.2.5,60.05540712802265,
ConjL1_uns.csv,dir_Online_conjL1_un.csv,Test_Conj_UnsyncL1.csv,ConjL1_unsync_norm.wav,ne,108:112,orange,Online_conjL1_un//dNE13.222.wav,222.0,0,0,0,0,0,27,27,1,0,3,3,1,,,,,,,,,,,,,,,,,,,,,,,,,,,,,,,,,,,,,,,,,,,,,,,,,,,,,,,,,,,,,,0.021698299970012158,186.2885778999771,186.2885778999771,186.2885778999771,,,,None,,y,0.13334810000378639,,,,,,,,,,,,,,,,,,,,,,,325537,001,2023-06-06_11h56.04.651,Pilot_online_tryings,2022.2.5,60.05540712802265,
ConjL1_uns.csv,dir_Online_conjL1_un.csv,Test_Conj_UnsyncL1.csv,ConjL1_unsync_norm.wav,ne,108:112,orange,,,0,0,0,0,0,27,27,1,,,,,,,,,,,,,,,,,,,,,,,,,,,,,,,,,,,,,,,,,,,,,,,,,,,,,,,,,,,,,,,,,,,,,,,,,,,,,,,,,,,,,,,,,,,,,,,,,,,325537,001,2023-06-06_11h56.04.651,Pilot_online_tryings,2022.2.5,60.05540712802265,
ConjL1_uns.csv,dir_Online_conjL1_un.csv,Test_Conj_UnsyncL1.csv,ConjL1_unsync_norm.wav,ki,8:12,red,Online_conjL1_un//aKI10.1776.wav,1776.0,0,0,0,0,0,28,28,2,0,0,0,2,,,,,,,,,,,,,,,,,,,,,,,,,,,,,,,,,,,,,,,,,,,,,,,,,,,,,,,,,,,,186.46372699999483,186.46372699999483,0.022438500018324703,186.46372699999483,186.46372699999483,186.46372699999483,,,,None,,y,0.1181487999856472,,,,,,,,,,,,,,,,,,,,,,,325537,001,2023-06-06_11h56.04.651,Pilot_online_tryings,2022.2.5,60.05540712802265,
ConjL1_uns.csv,dir_Online_conjL1_un.csv,Test_Conj_UnsyncL1.csv,ConjL1_unsync_norm.wav,ki,8:12,red,Online_conjL1_un//aKI11.1776.wav,1776.0,0,0,0,0,0,28,28,2,0,1,1,3,,,,,,,,,,,,,,,,,,,,,,,,,,,,,,,,,,,,,,,,,,,,,,,,,,,,,,,,,,,,,,0.009644699981436133,186.6111191000091,186.6111191000091,186.6111191000091,,,,None,,y,0.17889190005371347,,,,,,,,,,,,,,,,,,,,,,,325537,001,2023-06-06_11h56.04.651,Pilot_online_tryings,2022.2.5,60.05540712802265,
ConjL1_uns.csv,dir_Online_conjL1_un.csv,Test_Conj_UnsyncL1.csv,ConjL1_unsync_norm.wav,ki,8:12,red,Online_conjL1_un//aKI8.none.wav,none,0,0,0,0,0,28,28,2,0,2,2,0,,,,,,,,,,,,,,,,,,,,,,,,,,,,,,,,,,,,,,,,,,,,,,,,,,,,,,,,,,,,,,0.01027629995951429,186.81273639999563,186.81273639999563,186.81273639999563,,,,None,,y,0.1690750999841839,,,,,,,,,,,,,,,,,,,,,,,325537,001,2023-06-06_11h56.04.651,Pilot_online_tryings,2022.2.5,60.05540712802265,
ConjL1_uns.csv,dir_Online_conjL1_un.csv,Test_Conj_UnsyncL1.csv,ConjL1_unsync_norm.wav,ki,8:12,red,Online_conjL1_un//aKI9.888.wav,888.0,0,0,0,0,0,28,28,2,0,3,3,1,,,,,,,,,,,,,,,,,,,,,,,,,,,,,,,,,,,,,,,,,,,,,,,,,,,,,,,,,,,,,,0.01481610001064837,187.01682820002316,187.01682820002316,187.01682820002316,,,,None,,y,0.10868290002690628,,,,,,,,,,,,,,,,,,,,,,,325537,001,2023-06-06_11h56.04.651,Pilot_online_tryings,2022.2.5,60.05540712802265,
ConjL1_uns.csv,dir_Online_conjL1_un.csv,Test_Conj_UnsyncL1.csv,ConjL1_unsync_norm.wav,ki,8:12,red,,,0,0,0,0,0,28,28,2,,,,,,,,,,,,,,,,,,,,,,,,,,,,,,,,,,,,,,,,,,,,,,,,,,,,,,,,,,,,,,,,,,,,,,,,,,,,,,,,,,,,,,,,,,,,,,,,,,,325537,001,2023-06-06_11h56.04.651,Pilot_online_tryings,2022.2.5,60.05540712802265,
ConjL1_uns.csv,dir_Online_conjL1_un.csv,Test_Conj_UnsyncL1.csv,ConjL1_unsync_norm.wav,ki,20:24,red,Online_conjL1_un//aKI22.none.wav,none,0,0,0,0,0,29,29,17,0,0,0,2,,,,,,,,,,,,,,,,,,,,,,,,,,,,,,,,,,,,,,,,,,,,,,,,,,,,,,,,,,,,187.16778369998792,187.16778369998792,0.03145410004071891,187.16778369998792,187.16778369998792,187.16778369998792,,,,None,,y,0.1509341000346467,,,,,,,,,,,,,,,,,,,,,,,325537,001,2023-06-06_11h56.04.651,Pilot_online_tryings,2022.2.5,60.05540712802265,
ConjL1_uns.csv,dir_Online_conjL1_un.csv,Test_Conj_UnsyncL1.csv,ConjL1_unsync_norm.wav,ki,20:24,red,Online_conjL1_un//aKI23.888.wav,888.0,0,0,0,0,0,29,29,17,0,1,1,3,,,,,,,,,,,,,,,,,,,,,,,,,,,,,,,,,,,,,,,,,,,,,,,,,,,,,,,,,,,,,,0.01190159999532625,187.34883339999942,187.34883339999942,187.34883339999942,,,,None,,y,0.14488320000236854,,,,,,,,,,,,,,,,,,,,,,,325537,001,2023-06-06_11h56.04.651,Pilot_online_tryings,2022.2.5,60.05540712802265,
ConjL1_uns.csv,dir_Online_conjL1_un.csv,Test_Conj_UnsyncL1.csv,ConjL1_unsync_norm.wav,ki,20:24,red,Online_conjL1_un//aKI21.none.wav,none,0,0,0,0,0,29,29,17,0,2,2,1,,,,,,,,,,,,,,,,,,,,,,,,,,,,,,,,,,,,,,,,,,,,,,,,,,,,,,,,,,,,,,0.024153500038664788,187.5270713000209,187.5270713000209,187.5270713000209,,,,None,,y,0.17562890000408515,,,,,,,,,,,,,,,,,,,,,,,325537,001,2023-06-06_11h56.04.651,Pilot_online_tryings,2022.2.5,60.05540712802265,
ConjL1_uns.csv,dir_Online_conjL1_un.csv,Test_Conj_UnsyncL1.csv,ConjL1_unsync_norm.wav,ki,20:24,red,Online_conjL1_un//aKI20.1776.wav,1776.0,0,0,0,0,0,29,29,17,0,3,3,0,,,,,,,,,,,,,,,,,,,,,,,,,,,,,,,,,,,,,,,,,,,,,,,,,,,,,,,,,,,,,,0.01299670001026243,187.73425490001682,187.73425490001682,187.73425490001682,,,,None,,y,0.095718200027477,,,,,,,,,,,,,,,,,,,,,,,325537,001,2023-06-06_11h56.04.651,Pilot_online_tryings,2022.2.5,60.05540712802265,
ConjL1_uns.csv,dir_Online_conjL1_un.csv,Test_Conj_UnsyncL1.csv,ConjL1_unsync_norm.wav,ki,20:24,red,,,0,0,0,0,0,29,29,17,,,,,,,,,,,,,,,,,,,,,,,,,,,,,,,,,,,,,,,,,,,,,,,,,,,,,,,,,,,,,,,,,,,,,,,,,,,,,,,,,,,,,,,,,,,,,,,,,,,325537,001,2023-06-06_11h56.04.651,Pilot_online_tryings,2022.2.5,60.05540712802265,
ConjL1_uns.csv,dir_Online_conjL1_un.csv,Test_Conj_UnsyncL1.csv,ConjL1_unsync_norm.wav,ta,32:36,blue,Online_conjL1_un//bTA1.none.wav,none,0,0,0,0,0,30,30,4,0,0,0,1,,,,,,,,,,,,,,,,,,,,,,,,,,,,,,,,,,,,,,,,,,,,,,,,,,,,,,,,,,,,187.8850193999824,187.8850193999824,0.027660599967930466,187.8850193999824,187.8850193999824,187.8850193999824,,,,None,,y,0.16964240005472675,,,,,,,,,,,,,,,,,,,,,,,325537,001,2023-06-06_11h56.04.651,Pilot_online_tryings,2022.2.5,60.05540712802265,
ConjL1_uns.csv,dir_Online_conjL1_un.csv,Test_Conj_UnsyncL1.csv,ConjL1_unsync_norm.wav,ta,32:36,blue,Online_conjL1_un//bTA2.888.wav,888.0,0,0,0,0,0,30,30,4,0,1,1,2,,,,,,,,,,,,,,,,,,,,,,,,,,,,,,,,,,,,,,,,,,,,,,,,,,,,,,,,,,,,,,0.014675999991595745,188.08456930000102,188.08456930000102,188.08456930000102,,,,None,,y,0.1608548000222072,,,,,,,,,,,,,,,,,,,,,,,325537,001,2023-06-06_11h56.04.651,Pilot_online_tryings,2022.2.5,60.05540712802265,
ConjL1_uns.csv,dir_Online_conjL1_un.csv,Test_Conj_UnsyncL1.csv,ConjL1_unsync_norm.wav,ta,32:36,blue,Online_conjL1_un//bTA3.none.wav,none,0,0,0,0,0,30,30,4,0,2,2,3,,,,,,,,,,,,,,,,,,,,,,,,,,,,,,,,,,,,,,,,,,,,,,,,,,,,,,,,,,,,,,0.011778899992350489,188.2656405000016,188.2656405000016,188.2656405000016,,,,None,,y,0.17185079999035224,,,,,,,,,,,,,,,,,,,,,,,325537,001,2023-06-06_11h56.04.651,Pilot_online_tryings,2022.2.5,60.05540712802265,
ConjL1_uns.csv,dir_Online_conjL1_un.csv,Test_Conj_UnsyncL1.csv,ConjL1_unsync_norm.wav,ta,32:36,blue,Online_conjL1_un//bTA0.none.wav,none,0,0,0,0,0,30,30,4,0,3,3,0,,,,,,,,,,,,,,,,,,,,,,,,,,,,,,,,,,,,,,,,,,,,,,,,,,,,,,,,,,,,,,0.017158099974039942,188.4715251000016,188.4715251000016,188.4715251000016,,,,None,,y,0.1421342000248842,,,,,,,,,,,,,,,,,,,,,,,325537,001,2023-06-06_11h56.04.651,Pilot_online_tryings,2022.2.5,60.05540712802265,
ConjL1_uns.csv,dir_Online_conjL1_un.csv,Test_Conj_UnsyncL1.csv,ConjL1_unsync_norm.wav,ta,32:36,blue,,,0,0,0,0,0,30,30,4,,,,,,,,,,,,,,,,,,,,,,,,,,,,,,,,,,,,,,,,,,,,,,,,,,,,,,,,,,,,,,,,,,,,,,,,,,,,,,,,,,,,,,,,,,,,,,,,,,,325537,001,2023-06-06_11h56.04.651,Pilot_online_tryings,2022.2.5,60.05540712802265,
ConjL1_uns.csv,dir_Online_conjL1_un.csv,Test_Conj_UnsyncL1.csv,ConjL1_unsync_norm.wav,ki,0:4,red,Online_conjL1_un//aKI1.888.wav,888.0,0,0,0,0,0,31,31,3,0,0,0,1,,,,,,,,,,,,,,,,,,,,,,,,,,,,,,,,,,,,,,,,,,,,,,,,,,,,,,,,,,,,188.6502191000036,188.6502191000036,0.020538500044494867,188.6502191000036,188.6502191000036,188.6502191000036,,,,None,,y,0.17223970004124567,,,,,,,,,,,,,,,,,,,,,,,325537,001,2023-06-06_11h56.04.651,Pilot_online_tryings,2022.2.5,60.05540712802265,
ConjL1_uns.csv,dir_Online_conjL1_un.csv,Test_Conj_UnsyncL1.csv,ConjL1_unsync_norm.wav,ki,0:4,red,Online_conjL1_un//aKI0.none.wav,none,0,0,0,0,0,31,31,3,0,1,1,0,,,,,,,,,,,,,,,,,,,,,,,,,,,,,,,,,,,,,,,,,,,,,,,,,,,,,,,,,,,,,,0.01242490002186969,188.851414499979,188.851414499979,188.851414499979,,,,None,,y,0.16175580001436174,,,,,,,,,,,,,,,,,,,,,,,325537,001,2023-06-06_11h56.04.651,Pilot_online_tryings,2022.2.5,60.05540712802265,
ConjL1_uns.csv,dir_Online_conjL1_un.csv,Test_Conj_UnsyncL1.csv,ConjL1_unsync_norm.wav,ki,0:4,red,Online_conjL1_un//aKI3.none.wav,none,0,0,0,0,0,31,31,3,0,2,2,3,,,,,,,,,,,,,,,,,,,,,,,,,,,,,,,,,,,,,,,,,,,,,,,,,,,,,,,,,,,,,,0.009324299986474216,189.03241520002484,189.03241520002484,189.03241520002484,,,,None,,y,0.172599799989257,,,,,,,,,,,,,,,,,,,,,,,325537,001,2023-06-06_11h56.04.651,Pilot_online_tryings,2022.2.5,60.05540712802265,
ConjL1_uns.csv,dir_Online_conjL1_un.csv,Test_Conj_UnsyncL1.csv,ConjL1_unsync_norm.wav,ki,0:4,red,Online_conjL1_un//aKI2.none.wav,none,0,0,0,0,0,31,31,3,0,3,3,2,,,,,,,,,,,,,,,,,,,,,,,,,,,,,,,,,,,,,,,,,,,,,,,,,,,,,,,,,,,,,,0.028443299990613014,189.2566344999941,189.2566344999941,189.2566344999941,,,,None,,y,0.12517910002497956,,,,,,,,,,,,,,,,,,,,,,,325537,001,2023-06-06_11h56.04.651,Pilot_online_tryings,2022.2.5,60.05540712802265,
ConjL1_uns.csv,dir_Online_conjL1_un.csv,Test_Conj_UnsyncL1.csv,ConjL1_unsync_norm.wav,ki,0:4,red,,,0,0,0,0,0,31,31,3,,,,,,,,,,,,,,,,,,,,,,,,,,,,,,,,,,,,,,,,,,,,,,,,,,,,,,,,,,,,,,,,,,,,,,,,,,,,,,,,,,,,,,,,,,,,,,,,,,,325537,001,2023-06-06_11h56.04.651,Pilot_online_tryings,2022.2.5,60.05540712802265,
,,,,,,,,,,,,,,,,,,,,,,,,,,,,,,,,,,,,,,,,,,,,,,,,,,,,,,,,,,,,,,,,,,,,,,,,,,,,,,,,,,,,,,,,,,,,,189.41543689998798,189.41543689998798,space,2.2701754000154324,191.71775539999362,191.71775539999362,space,1.1038438999676146,192.9069558000192,192.9069558000192,193.05070456002142,195.8203221000149,y,3.338875899964478,196.27100950002205,196.27100950002205,z,1.5765325000393204,197.9164940000046,197.9164940000046,197.9164940000046,197.9164940000046,,,,,,,
