seq,online_dir,test_dir,audio_offline,cond,ord,colour,dirs,time,test,trials.thisRepN,trials.thisTrialN,trials.thisN,trials.thisIndex,Conj_unsync_online.thisRepN,Conj_unsync_online.thisTrialN,Conj_unsync_online.thisN,Conj_unsync_online.thisIndex,audio1.thisRepN,audio1.thisTrialN,audio1.thisN,audio1.thisIndex,Conj_unsync_test.thisRepN,Conj_unsync_test.thisTrialN,Conj_unsync_test.thisN,Conj_unsync_test.thisIndex,text_21.started,key_resp1.started,key_resp1.keys,key_resp1.rt,text_23.started,key_resp_6.started,key_resp_6.keys,key_resp_6.rt,text_26.started,key_resp_10.started,key_resp_10.keys,key_resp_10.rt,volume_set.started,key_ressp2.started,text_27.started,key_ressp2.keys,key_ressp2.rt,text_24.started,key_resp_9.started,key_resp_9.keys,key_resp_9.rt,text_37.started,key_resp_3.started,key_resp_3.keys,key_resp_3.rt,text_22.started,key_resp1_2.started,key_resp1_2.keys,key_resp1_2.rt,text_25.started,key_resp1_3.started,key_resp1_3.keys,key_resp1_3.rt,text_28.started,key_resp_11.started,key_resp_11.keys,key_resp_11.rt,text_29.started,key_resp_12.started,key_resp_12.keys,key_resp_12.rt,text_36.started,key_resp_18.started,key_resp_18.keys,key_resp_18.rt,learning.started,text_19.started,key_resp_7.started,key_resp_7.keys,key_resp_7.rt,text_31.started,key_resp1_4.started,key_resp1_4.keys,key_resp1_4.rt,text_2.started,text_2.stopped,seqs.started,text_13.started,syllable_catch.started,key_resp_16.started,syllable_catch.keys,key_resp_16.keys,key_resp_16.rt,text_12.started,key_resp4.started,key_resp4.keys,key_resp4.rt,text_14.started,key_resp_4.started,key_resp_4.keys,key_resp_4.rt,text_17.started,key_resp_17.started,test_sounds.started,text_17.stopped,key_resp_17.keys,key_resp_17.rt,text_18.started,Partz_no_partm.started,Partz_no_partm.keys,Partz_no_partm.rt,text_32.started,image_2.started,text_33.started,security_1_7.started,security_1_7.keys,security_1_7.rt,text_30.started,key_resp_13.started,key_resp_13.keys,key_resp_13.rt,text_13.stopped,syllable_catch.stopped,text_40.started,key_resp6.started,key_resp6.keys,key_resp6.rt,textbox.started,text_38.started,text_39.started,mouse.started,textbox.text,mouse.x,mouse.y,mouse.leftButton,mouse.midButton,mouse.rightButton,mouse.time,mouse.clicked_name,participant,session,date,expName,psychopyVersion,frameRate,
,,,,,,,,,,,,,,,,,,,,,,,,,,22.701581200002693,22.701581200002693,space,1.216658900026232,,,,,,,,,,,,,,,,,,,,,,,,,,,,,,,,,,,,,,,,,,,,,,,,,,,,,,,,,,,,,,,,,,,,,,,,,,,,,,,,,,,,,,,,,,,,,,,,,,,,,,,,,,337280,001,2023-06-06_15h54.56.973,Pilot_online_tryings,2022.2.5,59.9076104979296,
,,,,,,,,,,,,,,,,,,,,,,,,,,,,,,23.96639390004566,23.96639390004566,space,0.3520089000230655,,,,,,,,,,,,,,,,,,,,,,,,,,,,,,,,,,,,,,,,,,,,,,,,,,,,,,,,,,,,,,,,,,,,,,,,,,,,,,,,,,,,,,,,,,,,,,,,,,,,,,337280,001,2023-06-06_15h54.56.973,Pilot_online_tryings,2022.2.5,59.9076104979296,
,,,,,,,,,,,,,,,,,,,,,,,,,,,,,,,,,,24.342743400018662,24.342743400018662,space,0.35872309998376295,,,,,,,,,,,,,,,,,,,,,,,,,,,,,,,,,,,,,,,,,,,,,,,,,,,,,,,,,,,,,,,,,,,,,,,,,,,,,,,,,,,,,,,,,,,,,,,,,,337280,001,2023-06-06_15h54.56.973,Pilot_online_tryings,2022.2.5,59.9076104979296,
,,,,,,,,,,,,,,,,,,,,,,,,,,,,,,,,,,,,,,24.77661464002449,24.773787300044205,24.773787300044205,space,0.3435505999950692,,,,,,,,,,,,,,,,,,,,,,,,,,,,,,,,,,,,,,,,,,,,,,,,,,,,,,,,,,,,,,,,,,,,,,,,,,,,,,,,,,,,,,,,,,,,,337280,001,2023-06-06_15h54.56.973,Pilot_online_tryings,2022.2.5,59.9076104979296,
,,,,,,,,,,,,,,,,,,,,,,,,,,,,,,,,,,,,,,,,,,,25.14205620001303,25.14205620001303,space,0.4393366999574937,,,,,,,,,,,,,,,,,,,,,,,,,,,,,,,,,,,,,,,,,,,,,,,,,,,,,,,,,,,,,,,,,,,,,,,,,,,,,,,,,,,,,,,,,337280,001,2023-06-06_15h54.56.973,Pilot_online_tryings,2022.2.5,59.9076104979296,
,,,,,,,,,,,,,,,,,,,,,,,,,,,,,,,,,,,,,,,,,,,,,,,25.609852500027046,25.609852500027046,space,0.37226159998681396,,,,,,,,,,,,,,,,,,,,,,,,,,,,,,,,,,,,,,,,,,,,,,,,,,,,,,,,,,,,,,,,,,,,,,,,,,,,,,,,,,,,,337280,001,2023-06-06_15h54.56.973,Pilot_online_tryings,2022.2.5,59.9076104979296,
,,,,,,,,,,,,,,,,,,,,,,,,,,,,,,,,,,,,,,,,,,,,,,,,,,,26.010693000047468,26.010693000047468,space,0.38690819998737425,,,,,,,,,,,,,,,,,,,,,,,,,,,,,,,,,,,,,,,,,,,,,,,,,,,,,,,,,,,,,,,,,,,,,,,,,,,,,,,,,337280,001,2023-06-06_15h54.56.973,Pilot_online_tryings,2022.2.5,59.9076104979296,
,,,,,,,,,,,,,,,,,,,,,,,,,,,,,,,,,,,,,,,,,,,,,,,,,,,,,,,26.42910370003665,26.42910370003665,space,0.41682660003425553,,,,,,,,,,,,,,,,,,,,,,,,,,,,,,,,,,,,,,,,,,,,,,,,,,,,,,,,,,,,,,,,,,,,,,,,,,,,,337280,001,2023-06-06_15h54.56.973,Pilot_online_tryings,2022.2.5,59.9076104979296,
,,,,,,,,,,,,,,,,,,,,,,,,,,,,,,,,,,,,,,,,,,,,,,,,,,,,,,,,,,,26.8610725000035,26.8610725000035,space,0.36873170000035316,,,,,,,,,,,,,,,,,,,,,,,,,,,,,,,,,,,,,,,,,,,,,,,,,,,,,,,,,,,,,,,,,,,,,,,,,337280,001,2023-06-06_15h54.56.973,Pilot_online_tryings,2022.2.5,59.9076104979296,
,,,,,,,,,,,,,,,,,,,,,,,,,,,,,,,,,,,,,,,,,,,,,,,,,,,,,,,,,,,,,,,27.26057270000456,27.26057270000456,space,0.4183373000123538,,,,,,,,,,,,,,,,,,,,,,,,,,,,,,,,,,,,,,,,,,,,,,,,,,,,,,,,,,,,,,,,,,,,,337280,001,2023-06-06_15h54.56.973,Pilot_online_tryings,2022.2.5,59.9076104979296,
WhatL2_uns.csv,directory_online_WHAT_L2_uns.csv,What_UnsyncL2_testdirs.csv,WhatL2_unsync.wav,fe,60:64,red,Online_whatL2//bFE30.none.wav,none,,0,0,0,1,0,0,0,25,0,0,0,2,,,,,,,,,,,,,,,,,,,,,,,,,,,,,,,,,,,,,,,,,,,,,,27.748958400043193,27.748958400043193,space,0.42580830003134906,29.097008250042563,29.08908580004936,29.08908580004936,space,3.6449743999983184,32.76706879999256,32.76706879999256,space,0.6387053000507876,33.5472455000272,33.5472455000272,0.04927850002422929,33.5472455000272,33.5472455000272,33.5472455000272,None,y,1.0416093000094406,,,,,,,,,,,,,,,,,,,,,,,,,,,,,,,,,,,,,,,,,,,,,,,337280,001,2023-06-06_15h54.56.973,Pilot_online_tryings,2022.2.5,59.9076104979296,
WhatL2_uns.csv,directory_online_WHAT_L2_uns.csv,What_UnsyncL2_testdirs.csv,WhatL2_unsync.wav,fe,60:64,red,Online_whatL2//bFE31.1110.wav,1110.0,,0,0,0,1,0,0,0,25,0,1,1,3,,,,,,,,,,,,,,,,,,,,,,,,,,,,,,,,,,,,,,,,,,,,,,,,,,,,,,,,,,,,,0.020527100015897304,34.64200700004585,34.64200700004585,34.64200700004585,None,y,0.10732999996980652,,,,,,,,,,,,,,,,,,,,,,,,,,,,,,,,,,,,,,,,,,,,,,,337280,001,2023-06-06_15h54.56.973,Pilot_online_tryings,2022.2.5,59.9076104979296,
WhatL2_uns.csv,directory_online_WHAT_L2_uns.csv,What_UnsyncL2_testdirs.csv,WhatL2_unsync.wav,fe,60:64,red,Online_whatL2//bFE29.none.wav,none,,0,0,0,1,0,0,0,25,0,2,2,1,,,,,,,,,,,,,,,,,,,,,,,,,,,,,,,,,,,,,,,,,,,,,,,,,,,,,,,,,,,,,0.02284939994569868,34.78080050001154,34.78080050001154,34.78080050001154,None,y,0.16190760000608861,,,,,,,,,,,,,,,,,,,,,,,,,,,,,,,,,,,,,,,,,,,,,,,337280,001,2023-06-06_15h54.56.973,Pilot_online_tryings,2022.2.5,59.9076104979296,
WhatL2_uns.csv,directory_online_WHAT_L2_uns.csv,What_UnsyncL2_testdirs.csv,WhatL2_unsync.wav,fe,60:64,red,Online_whatL2//bFE28.0.wav,0.0,,0,0,0,1,0,0,0,25,0,3,3,0,,,,,,,,,,,,,,,,,,,,,,,,,,,,,,,,,,,,,,,,,,,,,,,,,,,,,,,,,,,,,0.035428699979092926,34.993005399999674,34.993005399999674,34.993005399999674,None,y,0.12469259998761117,,,,,,,,,,,,,,,,,,,,,,,,,,,,,,,,,,,,,,,,,,,,,,,337280,001,2023-06-06_15h54.56.973,Pilot_online_tryings,2022.2.5,59.9076104979296,
WhatL2_uns.csv,directory_online_WHAT_L2_uns.csv,What_UnsyncL2_testdirs.csv,WhatL2_unsync.wav,fe,60:64,red,,,,0,0,0,1,0,0,0,25,,,,,,,,,,,,,,,,,,,,,,,,,,,,,,,,,,,,,,,,,,,,,,,,,,,,,,,,,,,,,,,,,,,,,,,,,,,,,,,,,,,,,,,,,,,,,,,,,,,,,,,,,,,,,,,,,,,,,,337280,001,2023-06-06_15h54.56.973,Pilot_online_tryings,2022.2.5,59.9076104979296,
WhatL2_uns.csv,directory_online_WHAT_L2_uns.csv,What_UnsyncL2_testdirs.csv,WhatL2_unsync.wav,du,0:4,orange,Online_whatL2//aDU3.none.wav,none,,0,0,0,1,0,1,1,22,0,0,0,3,,,,,,,,,,,,,,,,,,,,,,,,,,,,,,,,,,,,,,,,,,,,,,,,,,,,,,,,,,,35.15051920001861,35.15051920001861,0.020827699976507574,35.15051920001861,35.15051920001861,35.15051920001861,None,y,0.14420979999704286,,,,,,,,,,,,,,,,,,,,,,,,,,,,,,,,,,,,,,,,,,,,,,,337280,001,2023-06-06_15h54.56.973,Pilot_online_tryings,2022.2.5,59.9076104979296,
WhatL2_uns.csv,directory_online_WHAT_L2_uns.csv,What_UnsyncL2_testdirs.csv,WhatL2_unsync.wav,du,0:4,orange,Online_whatL2//aDU1.888.wav,888.0,,0,0,0,1,0,1,1,22,0,1,1,1,,,,,,,,,,,,,,,,,,,,,,,,,,,,,,,,,,,,,,,,,,,,,,,,,,,,,,,,,,,,,0.0077132000005804,35.318295900011435,35.318295900011435,35.318295900011435,None,y,0.16704699996626005,,,,,,,,,,,,,,,,,,,,,,,,,,,,,,,,,,,,,,,,,,,,,,,337280,001,2023-06-06_15h54.56.973,Pilot_online_tryings,2022.2.5,59.9076104979296,
WhatL2_uns.csv,directory_online_WHAT_L2_uns.csv,What_UnsyncL2_testdirs.csv,WhatL2_unsync.wav,du,0:4,orange,Online_whatL2//aDU0.none.wav,none,,0,0,0,1,0,1,1,22,0,2,2,0,,,,,,,,,,,,,,,,,,,,,,,,,,,,,,,,,,,,,,,,,,,,,,,,,,,,,,,,,,,,,0.022975699976086617,35.514325299998745,35.514325299998745,35.514325299998745,None,y,0.14717309997649863,,,,,,,,,,,,,,,,,,,,,,,,,,,,,,,,,,,,,,,,,,,,,,,337280,001,2023-06-06_15h54.56.973,Pilot_online_tryings,2022.2.5,59.9076104979296,
WhatL2_uns.csv,directory_online_WHAT_L2_uns.csv,What_UnsyncL2_testdirs.csv,WhatL2_unsync.wav,du,0:4,orange,Online_whatL2//aDU2.none.wav,none,,0,0,0,1,0,1,1,22,0,3,3,2,,,,,,,,,,,,,,,,,,,,,,,,,,,,,,,,,,,,,,,,,,,,,,,,,,,,,,,,,,,,,0.02077080000890419,35.69584630004829,35.69584630004829,35.69584630004829,None,y,0.157242999994196,,,,,,,,,,,,,,,,,,,,,,,,,,,,,,,,,,,,,,,,,,,,,,,337280,001,2023-06-06_15h54.56.973,Pilot_online_tryings,2022.2.5,59.9076104979296,
WhatL2_uns.csv,directory_online_WHAT_L2_uns.csv,What_UnsyncL2_testdirs.csv,WhatL2_unsync.wav,du,0:4,orange,,,,0,0,0,1,0,1,1,22,,,,,,,,,,,,,,,,,,,,,,,,,,,,,,,,,,,,,,,,,,,,,,,,,,,,,,,,,,,,,,,,,,,,,,,,,,,,,,,,,,,,,,,,,,,,,,,,,,,,,,,,,,,,,,,,,,,,,,337280,001,2023-06-06_15h54.56.973,Pilot_online_tryings,2022.2.5,59.9076104979296,
WhatL2_uns.csv,directory_online_WHAT_L2_uns.csv,What_UnsyncL2_testdirs.csv,WhatL2_unsync.wav,cha,64:68,blue,Online_whatL2//cCHA0.1332.wav,1332.0,,0,0,0,1,0,2,2,14,0,0,0,0,,,,,,,,,,,,,,,,,,,,,,,,,,,,,,,,,,,,,,,,,,,,,,,,,,,,,,,,,,,35.909299699997064,35.909299699997064,0.0292648000176996,35.909299699997064,35.909299699997064,35.909299699997064,None,y,0.1374536999501288,,,,,,,,,,,,,,,,,,,,,,,,,,,,,,,,,,,,,,,,,,,,,,,337280,001,2023-06-06_15h54.56.973,Pilot_online_tryings,2022.2.5,59.9076104979296,
WhatL2_uns.csv,directory_online_WHAT_L2_uns.csv,What_UnsyncL2_testdirs.csv,WhatL2_unsync.wav,cha,64:68,blue,Online_whatL2//cCHA2.1110.wav,1110.0,,0,0,0,1,0,2,2,14,0,1,1,2,,,,,,,,,,,,,,,,,,,,,,,,,,,,,,,,,,,,,,,,,,,,,,,,,,,,,,,,,,,,,0.01728750002803281,36.0760627000127,36.0760627000127,36.0760627000127,None,y,0.1617054999805987,,,,,,,,,,,,,,,,,,,,,,,,,,,,,,,,,,,,,,,,,,,,,,,337280,001,2023-06-06_15h54.56.973,Pilot_online_tryings,2022.2.5,59.9076104979296,
WhatL2_uns.csv,directory_online_WHAT_L2_uns.csv,What_UnsyncL2_testdirs.csv,WhatL2_unsync.wav,cha,64:68,blue,Online_whatL2//cCHA3.444.wav,444.0,,0,0,0,1,0,2,2,14,0,2,2,3,,,,,,,,,,,,,,,,,,,,,,,,,,,,,,,,,,,,,,,,,,,,,,,,,,,,,,,,,,,,,0.03443520003929734,36.294155700015835,36.294155700015835,36.294155700015835,None,y,0.13618420000420883,,,,,,,,,,,,,,,,,,,,,,,,,,,,,,,,,,,,,,,,,,,,,,,337280,001,2023-06-06_15h54.56.973,Pilot_online_tryings,2022.2.5,59.9076104979296,
WhatL2_uns.csv,directory_online_WHAT_L2_uns.csv,What_UnsyncL2_testdirs.csv,WhatL2_unsync.wav,cha,64:68,blue,Online_whatL2//cCHA1.1332.wav,1332.0,,0,0,0,1,0,2,2,14,0,3,3,1,,,,,,,,,,,,,,,,,,,,,,,,,,,,,,,,,,,,,,,,,,,,,,,,,,,,,,,,,,,,,0.015075100003741682,36.4575354999979,36.4575354999979,36.4575354999979,None,y,0.1635295000160113,,,,,,,,,,,,,,,,,,,,,,,,,,,,,,,,,,,,,,,,,,,,,,,337280,001,2023-06-06_15h54.56.973,Pilot_online_tryings,2022.2.5,59.9076104979296,
WhatL2_uns.csv,directory_online_WHAT_L2_uns.csv,What_UnsyncL2_testdirs.csv,WhatL2_unsync.wav,cha,64:68,blue,,,,0,0,0,1,0,2,2,14,,,,,,,,,,,,,,,,,,,,,,,,,,,,,,,,,,,,,,,,,,,,,,,,,,,,,,,,,,,,,,,,,,,,,,,,,,,,,,,,,,,,,,,,,,,,,,,,,,,,,,,,,,,,,,,,,,,,,,337280,001,2023-06-06_15h54.56.973,Pilot_online_tryings,2022.2.5,59.9076104979296,
WhatL2_uns.csv,directory_online_WHAT_L2_uns.csv,What_UnsyncL2_testdirs.csv,WhatL2_unsync.wav,fe,52:56,red,Online_whatL2//bFE21.888.wav,888.0,,0,0,0,1,0,3,3,31,0,0,0,1,,,,,,,,,,,,,,,,,,,,,,,,,,,,,,,,,,,,,,,,,,,,,,,,,,,,,,,,,,,36.67251290002605,36.67251290002605,0.022277899959590286,36.67251290002605,36.67251290002605,36.67251290002605,None,y,0.14044639997882769,,,,,,,,,,,,,,,,,,,,,,,,,,,,,,,,,,,,,,,,,,,,,,,337280,001,2023-06-06_15h54.56.973,Pilot_online_tryings,2022.2.5,59.9076104979296,
WhatL2_uns.csv,directory_online_WHAT_L2_uns.csv,What_UnsyncL2_testdirs.csv,WhatL2_unsync.wav,fe,52:56,red,Online_whatL2//bFE22.none.wav,none,,0,0,0,1,0,3,3,31,0,1,1,2,,,,,,,,,,,,,,,,,,,,,,,,,,,,,,,,,,,,,,,,,,,,,,,,,,,,,,,,,,,,,0.03638519998639822,36.86282640002901,36.86282640002901,36.86282640002901,None,y,0.12608239997643977,,,,,,,,,,,,,,,,,,,,,,,,,,,,,,,,,,,,,,,,,,,,,,,337280,001,2023-06-06_15h54.56.973,Pilot_online_tryings,2022.2.5,59.9076104979296,
WhatL2_uns.csv,directory_online_WHAT_L2_uns.csv,What_UnsyncL2_testdirs.csv,WhatL2_unsync.wav,fe,52:56,red,Online_whatL2//bFE23.none.wav,none,,0,0,0,1,0,3,3,31,0,2,2,3,,,,,,,,,,,,,,,,,,,,,,,,,,,,,,,,,,,,,,,,,,,,,,,,,,,,,,,,,,,,,0.022955099993851036,37.03467980003916,37.03467980003916,37.03467980003916,None,y,0.14613290003035218,,,,,,,,,,,,,,,,,,,,,,,,,,,,,,,,,,,,,,,,,,,,,,,337280,001,2023-06-06_15h54.56.973,Pilot_online_tryings,2022.2.5,59.9076104979296,
WhatL2_uns.csv,directory_online_WHAT_L2_uns.csv,What_UnsyncL2_testdirs.csv,WhatL2_unsync.wav,fe,52:56,red,Online_whatL2//bFE20.none.wav,none,,0,0,0,1,0,3,3,31,0,3,3,0,,,,,,,,,,,,,,,,,,,,,,,,,,,,,,,,,,,,,,,,,,,,,,,,,,,,,,,,,,,,,0.005979700013995171,37.20349350001197,37.20349350001197,37.20349350001197,None,y,0.16973379999399185,,,,,,,,,,,,,,,,,,,,,,,,,,,,,,,,,,,,,,,,,,,,,,,337280,001,2023-06-06_15h54.56.973,Pilot_online_tryings,2022.2.5,59.9076104979296,
WhatL2_uns.csv,directory_online_WHAT_L2_uns.csv,What_UnsyncL2_testdirs.csv,WhatL2_unsync.wav,fe,52:56,red,,,,0,0,0,1,0,3,3,31,,,,,,,,,,,,,,,,,,,,,,,,,,,,,,,,,,,,,,,,,,,,,,,,,,,,,,,,,,,,,,,,,,,,,,,,,,,,,,,,,,,,,,,,,,,,,,,,,,,,,,,,,,,,,,,,,,,,,,337280,001,2023-06-06_15h54.56.973,Pilot_online_tryings,2022.2.5,59.9076104979296,
WhatL2_uns.csv,directory_online_WHAT_L2_uns.csv,What_UnsyncL2_testdirs.csv,WhatL2_unsync.wav,si,108:112,green,Online_whatL2//dSI13.1110.wav,1110.0,,0,0,0,1,0,4,4,13,0,0,0,1,,,,,,,,,,,,,,,,,,,,,,,,,,,,,,,,,,,,,,,,,,,,,,,,,,,,,,,,,,,37.43115390004823,37.43115390004823,0.03242840000893921,37.43115390004823,37.43115390004823,37.43115390004823,None,y,0.1502430000109598,,,,,,,,,,,,,,,,,,,,,,,,,,,,,,,,,,,,,,,,,,,,,,,337280,001,2023-06-06_15h54.56.973,Pilot_online_tryings,2022.2.5,59.9076104979296,
WhatL2_uns.csv,directory_online_WHAT_L2_uns.csv,What_UnsyncL2_testdirs.csv,WhatL2_unsync.wav,si,108:112,green,Online_whatL2//dSI15.1998.wav,1998.0,,0,0,0,1,0,4,4,13,0,1,1,3,,,,,,,,,,,,,,,,,,,,,,,,,,,,,,,,,,,,,,,,,,,,,,,,,,,,,,,,,,,,,0.02549999998882413,37.61933489999501,37.61933489999501,37.61933489999501,None,y,0.15438409999478608,,,,,,,,,,,,,,,,,,,,,,,,,,,,,,,,,,,,,,,,,,,,,,,337280,001,2023-06-06_15h54.56.973,Pilot_online_tryings,2022.2.5,59.9076104979296,
WhatL2_uns.csv,directory_online_WHAT_L2_uns.csv,What_UnsyncL2_testdirs.csv,WhatL2_unsync.wav,si,108:112,green,Online_whatL2//dSI12.none.wav,none,,0,0,0,1,0,4,4,13,0,2,2,0,,,,,,,,,,,,,,,,,,,,,,,,,,,,,,,,,,,,,,,,,,,,,,,,,,,,,,,,,,,,,0.012481299985665828,37.80764730001101,37.80764730001101,37.80764730001101,None,y,0.15921509999316186,,,,,,,,,,,,,,,,,,,,,,,,,,,,,,,,,,,,,,,,,,,,,,,337280,001,2023-06-06_15h54.56.973,Pilot_online_tryings,2022.2.5,59.9076104979296,
WhatL2_uns.csv,directory_online_WHAT_L2_uns.csv,What_UnsyncL2_testdirs.csv,WhatL2_unsync.wav,si,108:112,green,Online_whatL2//dSI14.none.wav,none,,0,0,0,1,0,4,4,13,0,3,3,2,,,,,,,,,,,,,,,,,,,,,,,,,,,,,,,,,,,,,,,,,,,,,,,,,,,,,,,,,,,,,0.021809800004120916,37.99906890001148,37.99906890001148,37.99906890001148,None,y,0.1584455999545753,,,,,,,,,,,,,,,,,,,,,,,,,,,,,,,,,,,,,,,,,,,,,,,337280,001,2023-06-06_15h54.56.973,Pilot_online_tryings,2022.2.5,59.9076104979296,
WhatL2_uns.csv,directory_online_WHAT_L2_uns.csv,What_UnsyncL2_testdirs.csv,WhatL2_unsync.wav,si,108:112,green,,,,0,0,0,1,0,4,4,13,,,,,,,,,,,,,,,,,,,,,,,,,,,,,,,,,,,,,,,,,,,,,,,,,,,,,,,,,,,,,,,,,,,,,,,,,,,,,,,,,,,,,,,,,,,,,,,,,,,,,,,,,,,,,,,,,,,,,,337280,001,2023-06-06_15h54.56.973,Pilot_online_tryings,2022.2.5,59.9076104979296,
WhatL2_uns.csv,directory_online_WHAT_L2_uns.csv,What_UnsyncL2_testdirs.csv,WhatL2_unsync.wav,cha,88:92,blue,Online_whatL2//cCHA27.none.wav,none,,0,0,0,1,0,5,5,11,0,0,0,3,,,,,,,,,,,,,,,,,,,,,,,,,,,,,,,,,,,,,,,,,,,,,,,,,,,,,,,,,,,38.234223300009035,38.234223300009035,0.046877100015990436,38.234223300009035,38.234223300009035,38.234223300009035,None,y,0.13201780000235885,,,,,,,,,,,,,,,,,,,,,,,,,,,,,,,,,,,,,,,,,,,,,,,337280,001,2023-06-06_15h54.56.973,Pilot_online_tryings,2022.2.5,59.9076104979296,
WhatL2_uns.csv,directory_online_WHAT_L2_uns.csv,What_UnsyncL2_testdirs.csv,WhatL2_unsync.wav,cha,88:92,blue,Online_whatL2//cCHA26.none.wav,none,,0,0,0,1,0,5,5,11,0,1,1,2,,,,,,,,,,,,,,,,,,,,,,,,,,,,,,,,,,,,,,,,,,,,,,,,,,,,,,,,,,,,,0.020933300023898482,38.3993005999946,38.3993005999946,38.3993005999946,None,y,0.15745980001520365,,,,,,,,,,,,,,,,,,,,,,,,,,,,,,,,,,,,,,,,,,,,,,,337280,001,2023-06-06_15h54.56.973,Pilot_online_tryings,2022.2.5,59.9076104979296,
WhatL2_uns.csv,directory_online_WHAT_L2_uns.csv,What_UnsyncL2_testdirs.csv,WhatL2_unsync.wav,cha,88:92,blue,Online_whatL2//cCHA24.1332.wav,1332.0,,0,0,0,1,0,5,5,11,0,2,2,0,,,,,,,,,,,,,,,,,,,,,,,,,,,,,,,,,,,,,,,,,,,,,,,,,,,,,,,,,,,,,0.013401500007603317,38.59173280000687,38.59173280000687,38.59173280000687,None,y,0.17376350000267848,,,,,,,,,,,,,,,,,,,,,,,,,,,,,,,,,,,,,,,,,,,,,,,337280,001,2023-06-06_15h54.56.973,Pilot_online_tryings,2022.2.5,59.9076104979296,
WhatL2_uns.csv,directory_online_WHAT_L2_uns.csv,What_UnsyncL2_testdirs.csv,WhatL2_unsync.wav,cha,88:92,blue,Online_whatL2//cCHA25.none.wav,none,,0,0,0,1,0,5,5,11,0,3,3,1,,,,,,,,,,,,,,,,,,,,,,,,,,,,,,,,,,,,,,,,,,,,,,,,,,,,,,,,,,,,,0.012926200055517256,38.79145180003252,38.79145180003252,38.79145180003252,None,y,0.18153940001502633,,,,,,,,,,,,,,,,,,,,,,,,,,,,,,,,,,,,,,,,,,,,,,,337280,001,2023-06-06_15h54.56.973,Pilot_online_tryings,2022.2.5,59.9076104979296,
WhatL2_uns.csv,directory_online_WHAT_L2_uns.csv,What_UnsyncL2_testdirs.csv,WhatL2_unsync.wav,cha,88:92,blue,,,,0,0,0,1,0,5,5,11,,,,,,,,,,,,,,,,,,,,,,,,,,,,,,,,,,,,,,,,,,,,,,,,,,,,,,,,,,,,,,,,,,,,,,,,,,,,,,,,,,,,,,,,,,,,,,,,,,,,,,,,,,,,,,,,,,,,,,337280,001,2023-06-06_15h54.56.973,Pilot_online_tryings,2022.2.5,59.9076104979296,
WhatL2_uns.csv,directory_online_WHAT_L2_uns.csv,What_UnsyncL2_testdirs.csv,WhatL2_unsync.wav,du,8:12,orange,Online_whatL2//aDU11.none.wav,none,,0,0,0,1,0,6,6,0,0,0,0,3,,,,,,,,,,,,,,,,,,,,,,,,,,,,,,,,,,,,,,,,,,,,,,,,,,,,,,,,,,,39.02896540000802,39.02896540000802,0.029647700022906065,39.02896540000802,39.02896540000802,39.02896540000802,None,y,0.13642759999493137,,,,,,,,,,,,,,,,,,,,,,,,,,,,,,,,,,,,,,,,,,,,,,,337280,001,2023-06-06_15h54.56.973,Pilot_online_tryings,2022.2.5,59.9076104979296,
WhatL2_uns.csv,directory_online_WHAT_L2_uns.csv,What_UnsyncL2_testdirs.csv,WhatL2_unsync.wav,du,8:12,orange,Online_whatL2//aDU9.888.wav,888.0,,0,0,0,1,0,6,6,0,0,1,1,1,,,,,,,,,,,,,,,,,,,,,,,,,,,,,,,,,,,,,,,,,,,,,,,,,,,,,,,,,,,,,0.018186200002674013,39.19665120000718,39.19665120000718,39.19665120000718,None,y,0.17640450003091246,,,,,,,,,,,,,,,,,,,,,,,,,,,,,,,,,,,,,,,,,,,,,,,337280,001,2023-06-06_15h54.56.973,Pilot_online_tryings,2022.2.5,59.9076104979296,
WhatL2_uns.csv,directory_online_WHAT_L2_uns.csv,What_UnsyncL2_testdirs.csv,WhatL2_unsync.wav,du,8:12,orange,Online_whatL2//aDU10.1998.wav,1998.0,,0,0,0,1,0,6,6,0,0,2,2,2,,,,,,,,,,,,,,,,,,,,,,,,,,,,,,,,,,,,,,,,,,,,,,,,,,,,,,,,,,,,,0.024372800020501018,39.40387100004591,39.40387100004591,39.40387100004591,None,y,0.16141499998047948,,,,,,,,,,,,,,,,,,,,,,,,,,,,,,,,,,,,,,,,,,,,,,,337280,001,2023-06-06_15h54.56.973,Pilot_online_tryings,2022.2.5,59.9076104979296,
WhatL2_uns.csv,directory_online_WHAT_L2_uns.csv,What_UnsyncL2_testdirs.csv,WhatL2_unsync.wav,du,8:12,orange,Online_whatL2//aDU8.none.wav,none,,0,0,0,1,0,6,6,0,0,3,3,0,,,,,,,,,,,,,,,,,,,,,,,,,,,,,,,,,,,,,,,,,,,,,,,,,,,,,,,,,,,,,0.017250000033527613,39.59751779999351,39.59751779999351,39.59751779999351,None,y,0.17608519998611882,,,,,,,,,,,,,,,,,,,,,,,,,,,,,,,,,,,,,,,,,,,,,,,337280,001,2023-06-06_15h54.56.973,Pilot_online_tryings,2022.2.5,59.9076104979296,
WhatL2_uns.csv,directory_online_WHAT_L2_uns.csv,What_UnsyncL2_testdirs.csv,WhatL2_unsync.wav,du,8:12,orange,,,,0,0,0,1,0,6,6,0,,,,,,,,,,,,,,,,,,,,,,,,,,,,,,,,,,,,,,,,,,,,,,,,,,,,,,,,,,,,,,,,,,,,,,,,,,,,,,,,,,,,,,,,,,,,,,,,,,,,,,,,,,,,,,,,,,,,,,337280,001,2023-06-06_15h54.56.973,Pilot_online_tryings,2022.2.5,59.9076104979296,
WhatL2_uns.csv,directory_online_WHAT_L2_uns.csv,What_UnsyncL2_testdirs.csv,WhatL2_unsync.wav,si,100:104,green,Online_whatL2//dSI4.none.wav,none,,0,0,0,1,0,7,7,28,0,0,0,0,,,,,,,,,,,,,,,,,,,,,,,,,,,,,,,,,,,,,,,,,,,,,,,,,,,,,,,,,,,39.81782260001637,39.81782260001637,0.030668299994431436,39.81782260001637,39.81782260001637,39.81782260001637,None,y,0.14754719997290522,,,,,,,,,,,,,,,,,,,,,,,,,,,,,,,,,,,,,,,,,,,,,,,337280,001,2023-06-06_15h54.56.973,Pilot_online_tryings,2022.2.5,59.9076104979296,
WhatL2_uns.csv,directory_online_WHAT_L2_uns.csv,What_UnsyncL2_testdirs.csv,WhatL2_unsync.wav,si,100:104,green,Online_whatL2//dSI6.222.wav,222.0,,0,0,0,1,0,7,7,28,0,1,1,2,,,,,,,,,,,,,,,,,,,,,,,,,,,,,,,,,,,,,,,,,,,,,,,,,,,,,,,,,,,,,0.058922900003381073,40.06791770004202,40.06791770004202,40.06791770004202,None,y,0.1065274000284262,,,,,,,,,,,,,,,,,,,,,,,,,,,,,,,,,,,,,,,,,,,,,,,337280,001,2023-06-06_15h54.56.973,Pilot_online_tryings,2022.2.5,59.9076104979296,
WhatL2_uns.csv,directory_online_WHAT_L2_uns.csv,What_UnsyncL2_testdirs.csv,WhatL2_unsync.wav,si,100:104,green,Online_whatL2//dSI5.222.wav,222.0,,0,0,0,1,0,7,7,28,0,2,2,1,,,,,,,,,,,,,,,,,,,,,,,,,,,,,,,,,,,,,,,,,,,,,,,,,,,,,,,,,,,,,0.05348600004799664,40.24857360002352,40.24857360002352,40.24857360002352,None,y,0.10175279999384657,,,,,,,,,,,,,,,,,,,,,,,,,,,,,,,,,,,,,,,,,,,,,,,337280,001,2023-06-06_15h54.56.973,Pilot_online_tryings,2022.2.5,59.9076104979296,
WhatL2_uns.csv,directory_online_WHAT_L2_uns.csv,What_UnsyncL2_testdirs.csv,WhatL2_unsync.wav,si,100:104,green,Online_whatL2//dSI7.none.wav,none,,0,0,0,1,0,7,7,28,0,3,3,3,,,,,,,,,,,,,,,,,,,,,,,,,,,,,,,,,,,,,,,,,,,,,,,,,,,,,,,,,,,,,0.017191899998579174,40.38026900001569,40.38026900001569,40.38026900001569,None,y,0.16101300000445917,,,,,,,,,,,,,,,,,,,,,,,,,,,,,,,,,,,,,,,,,,,,,,,337280,001,2023-06-06_15h54.56.973,Pilot_online_tryings,2022.2.5,59.9076104979296,
WhatL2_uns.csv,directory_online_WHAT_L2_uns.csv,What_UnsyncL2_testdirs.csv,WhatL2_unsync.wav,si,100:104,green,,,,0,0,0,1,0,7,7,28,,,,,,,,,,,,,,,,,,,,,,,,,,,,,,,,,,,,,,,,,,,,,,,,,,,,,,,,,,,,,,,,,,,,,,,,,,,,,,,,,,,,,,,,,,,,,,,,,,,,,,,,,,,,,,,,,,,,,,337280,001,2023-06-06_15h54.56.973,Pilot_online_tryings,2022.2.5,59.9076104979296,
WhatL2_uns.csv,directory_online_WHAT_L2_uns.csv,What_UnsyncL2_testdirs.csv,WhatL2_unsync.wav,si,96:100,green,Online_whatL2//dSI1.none.wav,none,,0,0,0,1,0,8,8,6,0,0,0,1,,,,,,,,,,,,,,,,,,,,,,,,,,,,,,,,,,,,,,,,,,,,,,,,,,,,,,,,,,,40.60009560000617,40.60009560000617,0.0357419999781996,40.60009560000617,40.60009560000617,40.60009560000617,None,y,0.14966910000657663,,,,,,,,,,,,,,,,,,,,,,,,,,,,,,,,,,,,,,,,,,,,,,,337280,001,2023-06-06_15h54.56.973,Pilot_online_tryings,2022.2.5,59.9076104979296,
WhatL2_uns.csv,directory_online_WHAT_L2_uns.csv,What_UnsyncL2_testdirs.csv,WhatL2_unsync.wav,si,96:100,green,Online_whatL2//dSI0.none.wav,none,,0,0,0,1,0,8,8,6,0,1,1,0,,,,,,,,,,,,,,,,,,,,,,,,,,,,,,,,,,,,,,,,,,,,,,,,,,,,,,,,,,,,,0.010098400001879781,40.77820010000141,40.77820010000141,40.77820010000141,None,y,0.16306020005140454,,,,,,,,,,,,,,,,,,,,,,,,,,,,,,,,,,,,,,,,,,,,,,,337280,001,2023-06-06_15h54.56.973,Pilot_online_tryings,2022.2.5,59.9076104979296,
WhatL2_uns.csv,directory_online_WHAT_L2_uns.csv,What_UnsyncL2_testdirs.csv,WhatL2_unsync.wav,si,96:100,green,Online_whatL2//dSI2.1110.wav,1110.0,,0,0,0,1,0,8,8,6,0,2,2,2,,,,,,,,,,,,,,,,,,,,,,,,,,,,,,,,,,,,,,,,,,,,,,,,,,,,,,,,,,,,,0.027247400023043156,40.98113040003227,40.98113040003227,40.98113040003227,None,y,0.15182490000734106,,,,,,,,,,,,,,,,,,,,,,,,,,,,,,,,,,,,,,,,,,,,,,,337280,001,2023-06-06_15h54.56.973,Pilot_online_tryings,2022.2.5,59.9076104979296,
WhatL2_uns.csv,directory_online_WHAT_L2_uns.csv,What_UnsyncL2_testdirs.csv,WhatL2_unsync.wav,si,96:100,green,Online_whatL2//dSI3.none.wav,none,,0,0,0,1,0,8,8,6,0,3,3,3,,,,,,,,,,,,,,,,,,,,,,,,,,,,,,,,,,,,,,,,,,,,,,,,,,,,,,,,,,,,,0.07315030001336709,41.22002840001369,41.22002840001369,41.22002840001369,None,y,0.12160790001507849,,,,,,,,,,,,,,,,,,,,,,,,,,,,,,,,,,,,,,,,,,,,,,,337280,001,2023-06-06_15h54.56.973,Pilot_online_tryings,2022.2.5,59.9076104979296,
WhatL2_uns.csv,directory_online_WHAT_L2_uns.csv,What_UnsyncL2_testdirs.csv,WhatL2_unsync.wav,si,96:100,green,,,,0,0,0,1,0,8,8,6,,,,,,,,,,,,,,,,,,,,,,,,,,,,,,,,,,,,,,,,,,,,,,,,,,,,,,,,,,,,,,,,,,,,,,,,,,,,,,,,,,,,,,,,,,,,,,,,,,,,,,,,,,,,,,,,,,,,,,337280,001,2023-06-06_15h54.56.973,Pilot_online_tryings,2022.2.5,59.9076104979296,
WhatL2_uns.csv,directory_online_WHAT_L2_uns.csv,What_UnsyncL2_testdirs.csv,WhatL2_unsync.wav,cha,84:88,blue,Online_whatL2//cCHA21.1110.wav,1110.0,,0,0,0,1,0,9,9,26,0,0,0,1,,,,,,,,,,,,,,,,,,,,,,,,,,,,,,,,,,,,,,,,,,,,,,,,,,,,,,,,,,,41.38055100000929,41.38055100000929,0.027054299949668348,41.38055100000929,41.38055100000929,41.38055100000929,None,y,0.1531603999901563,,,,,,,,,,,,,,,,,,,,,,,,,,,,,,,,,,,,,,,,,,,,,,,337280,001,2023-06-06_15h54.56.973,Pilot_online_tryings,2022.2.5,59.9076104979296,
WhatL2_uns.csv,directory_online_WHAT_L2_uns.csv,What_UnsyncL2_testdirs.csv,WhatL2_unsync.wav,cha,84:88,blue,Online_whatL2//cCHA22.none.wav,none,,0,0,0,1,0,9,9,26,0,1,1,2,,,,,,,,,,,,,,,,,,,,,,,,,,,,,,,,,,,,,,,,,,,,,,,,,,,,,,,,,,,,,0.0331811000360176,41.58099540002877,41.58099540002877,41.58099540002877,None,y,0.16156810004031286,,,,,,,,,,,,,,,,,,,,,,,,,,,,,,,,,,,,,,,,,,,,,,,337280,001,2023-06-06_15h54.56.973,Pilot_online_tryings,2022.2.5,59.9076104979296,
WhatL2_uns.csv,directory_online_WHAT_L2_uns.csv,What_UnsyncL2_testdirs.csv,WhatL2_unsync.wav,cha,84:88,blue,Online_whatL2//cCHA20.none.wav,none,,0,0,0,1,0,9,9,26,0,2,2,0,,,,,,,,,,,,,,,,,,,,,,,,,,,,,,,,,,,,,,,,,,,,,,,,,,,,,,,,,,,,,0.00671299995156005,41.77499750000425,41.77499750000425,41.77499750000425,None,y,0.15884719998575747,,,,,,,,,,,,,,,,,,,,,,,,,,,,,,,,,,,,,,,,,,,,,,,337280,001,2023-06-06_15h54.56.973,Pilot_online_tryings,2022.2.5,59.9076104979296,
WhatL2_uns.csv,directory_online_WHAT_L2_uns.csv,What_UnsyncL2_testdirs.csv,WhatL2_unsync.wav,cha,84:88,blue,Online_whatL2//cCHA23.none.wav,none,,0,0,0,1,0,9,9,26,0,3,3,3,,,,,,,,,,,,,,,,,,,,,,,,,,,,,,,,,,,,,,,,,,,,,,,,,,,,,,,,,,,,,0.034570999967399985,41.9838163999957,41.9838163999957,41.9838163999957,None,y,0.15740739996545017,,,,,,,,,,,,,,,,,,,,,,,,,,,,,,,,,,,,,,,,,,,,,,,337280,001,2023-06-06_15h54.56.973,Pilot_online_tryings,2022.2.5,59.9076104979296,
WhatL2_uns.csv,directory_online_WHAT_L2_uns.csv,What_UnsyncL2_testdirs.csv,WhatL2_unsync.wav,cha,84:88,blue,,,,0,0,0,1,0,9,9,26,,,,,,,,,,,,,,,,,,,,,,,,,,,,,,,,,,,,,,,,,,,,,,,,,,,,,,,,,,,,,,,,,,,,,,,,,,,,,,,,,,,,,,,,,,,,,,,,,,,,,,,,,,,,,,,,,,,,,,337280,001,2023-06-06_15h54.56.973,Pilot_online_tryings,2022.2.5,59.9076104979296,
WhatL2_uns.csv,directory_online_WHAT_L2_uns.csv,What_UnsyncL2_testdirs.csv,WhatL2_unsync.wav,si,124:128,green,Online_whatL2//dSI30.1332.wav,1332.0,,0,0,0,1,0,10,10,3,0,0,0,2,,,,,,,,,,,,,,,,,,,,,,,,,,,,,,,,,,,,,,,,,,,,,,,,,,,,,,,,,,,42.18119370000204,42.18119370000204,0.028405899996869266,42.18119370000204,42.18119370000204,42.18119370000204,None,y,0.1685554999858141,,,,,,,,,,,,,,,,,,,,,,,,,,,,,,,,,,,,,,,,,,,,,,,337280,001,2023-06-06_15h54.56.973,Pilot_online_tryings,2022.2.5,59.9076104979296,
WhatL2_uns.csv,directory_online_WHAT_L2_uns.csv,What_UnsyncL2_testdirs.csv,WhatL2_unsync.wav,si,124:128,green,Online_whatL2//dSI29.none.wav,none,,0,0,0,1,0,10,10,3,0,1,1,1,,,,,,,,,,,,,,,,,,,,,,,,,,,,,,,,,,,,,,,,,,,,,,,,,,,,,,,,,,,,,0.06495339999673888,42.42992290004622,42.42992290004622,42.42992290004622,None,y,0.1274678999907337,,,,,,,,,,,,,,,,,,,,,,,,,,,,,,,,,,,,,,,,,,,,,,,337280,001,2023-06-06_15h54.56.973,Pilot_online_tryings,2022.2.5,59.9076104979296,
WhatL2_uns.csv,directory_online_WHAT_L2_uns.csv,What_UnsyncL2_testdirs.csv,WhatL2_unsync.wav,si,124:128,green,Online_whatL2//dSI31.222.wav,222.0,,0,0,0,1,0,10,10,3,0,2,2,3,,,,,,,,,,,,,,,,,,,,,,,,,,,,,,,,,,,,,,,,,,,,,,,,,,,,,,,,,,,,,0.018851600005291402,42.584741200029384,42.584741200029384,42.584741200029384,None,y,0.1658134000026621,,,,,,,,,,,,,,,,,,,,,,,,,,,,,,,,,,,,,,,,,,,,,,,337280,001,2023-06-06_15h54.56.973,Pilot_online_tryings,2022.2.5,59.9076104979296,
WhatL2_uns.csv,directory_online_WHAT_L2_uns.csv,What_UnsyncL2_testdirs.csv,WhatL2_unsync.wav,si,124:128,green,Online_whatL2//dSI28.none.wav,none,,0,0,0,1,0,10,10,3,0,3,3,0,,,,,,,,,,,,,,,,,,,,,,,,,,,,,,,,,,,,,,,,,,,,,,,,,,,,,,,,,,,,,0.03133029997115955,42.79739760002121,42.79739760002121,42.79739760002121,None,y,0.14442419999977574,,,,,,,,,,,,,,,,,,,,,,,,,,,,,,,,,,,,,,,,,,,,,,,337280,001,2023-06-06_15h54.56.973,Pilot_online_tryings,2022.2.5,59.9076104979296,
WhatL2_uns.csv,directory_online_WHAT_L2_uns.csv,What_UnsyncL2_testdirs.csv,WhatL2_unsync.wav,si,124:128,green,,,,0,0,0,1,0,10,10,3,,,,,,,,,,,,,,,,,,,,,,,,,,,,,,,,,,,,,,,,,,,,,,,,,,,,,,,,,,,,,,,,,,,,,,,,,,,,,,,,,,,,,,,,,,,,,,,,,,,,,,,,,,,,,,,,,,,,,,337280,001,2023-06-06_15h54.56.973,Pilot_online_tryings,2022.2.5,59.9076104979296,
WhatL2_uns.csv,directory_online_WHAT_L2_uns.csv,What_UnsyncL2_testdirs.csv,WhatL2_unsync.wav,fe,32:36,red,Online_whatL2//bFE2.888.wav,888.0,,0,0,0,1,0,11,11,19,0,0,0,2,,,,,,,,,,,,,,,,,,,,,,,,,,,,,,,,,,,,,,,,,,,,,,,,,,,,,,,,,,,42.98117240000283,42.98117240000283,0.023544700001366436,42.98117240000283,42.98117240000283,42.98117240000283,None,y,0.1692678999970667,,,,,,,,,,,,,,,,,,,,,,,,,,,,,,,,,,,,,,,,,,,,,,,337280,001,2023-06-06_15h54.56.973,Pilot_online_tryings,2022.2.5,59.9076104979296,
WhatL2_uns.csv,directory_online_WHAT_L2_uns.csv,What_UnsyncL2_testdirs.csv,WhatL2_unsync.wav,fe,32:36,red,Online_whatL2//bFE0.0.wav,0.0,,0,0,0,1,0,11,11,19,0,1,1,0,,,,,,,,,,,,,,,,,,,,,,,,,,,,,,,,,,,,,,,,,,,,,,,,,,,,,,,,,,,,,0.022393300023395568,43.18913000001339,43.18913000001339,43.18913000001339,None,y,0.16809779999312013,,,,,,,,,,,,,,,,,,,,,,,,,,,,,,,,,,,,,,,,,,,,,,,337280,001,2023-06-06_15h54.56.973,Pilot_online_tryings,2022.2.5,59.9076104979296,
WhatL2_uns.csv,directory_online_WHAT_L2_uns.csv,What_UnsyncL2_testdirs.csv,WhatL2_unsync.wav,fe,32:36,red,Online_whatL2//bFE3.0.wav,0.0,,0,0,0,1,0,11,11,19,0,2,2,3,,,,,,,,,,,,,,,,,,,,,,,,,,,,,,,,,,,,,,,,,,,,,,,,,,,,,,,,,,,,,0.01759430003585294,43.38376520003658,43.38376520003658,43.38376520003658,None,y,0.18193959997734055,,,,,,,,,,,,,,,,,,,,,,,,,,,,,,,,,,,,,,,,,,,,,,,337280,001,2023-06-06_15h54.56.973,Pilot_online_tryings,2022.2.5,59.9076104979296,
WhatL2_uns.csv,directory_online_WHAT_L2_uns.csv,What_UnsyncL2_testdirs.csv,WhatL2_unsync.wav,fe,32:36,red,Online_whatL2//bFE1.0.wav,0.0,,0,0,0,1,0,11,11,19,0,3,3,1,,,,,,,,,,,,,,,,,,,,,,,,,,,,,,,,,,,,,,,,,,,,,,,,,,,,,,,,,,,,,0.028511500044260174,43.61233450000873,43.61233450000873,43.61233450000873,None,y,0.160891100007575,,,,,,,,,,,,,,,,,,,,,,,,,,,,,,,,,,,,,,,,,,,,,,,337280,001,2023-06-06_15h54.56.973,Pilot_online_tryings,2022.2.5,59.9076104979296,
WhatL2_uns.csv,directory_online_WHAT_L2_uns.csv,What_UnsyncL2_testdirs.csv,WhatL2_unsync.wav,fe,32:36,red,,,,0,0,0,1,0,11,11,19,,,,,,,,,,,,,,,,,,,,,,,,,,,,,,,,,,,,,,,,,,,,,,,,,,,,,,,,,,,,,,,,,,,,,,,,,,,,,,,,,,,,,,,,,,,,,,,,,,,,,,,,,,,,,,,,,,,,,,337280,001,2023-06-06_15h54.56.973,Pilot_online_tryings,2022.2.5,59.9076104979296,
WhatL2_uns.csv,directory_online_WHAT_L2_uns.csv,What_UnsyncL2_testdirs.csv,WhatL2_unsync.wav,fe,36:40,red,Online_whatL2//bFE7.none.wav,none,,0,0,0,1,0,12,12,18,0,0,0,3,,,,,,,,,,,,,,,,,,,,,,,,,,,,,,,,,,,,,,,,,,,,,,,,,,,,,,,,,,,43.80807349999668,43.80807349999668,0.02226280001923442,43.80807349999668,43.80807349999668,43.80807349999668,None,y,0.12576899997657165,,,,,,,,,,,,,,,,,,,,,,,,,,,,,,,,,,,,,,,,,,,,,,,337280,001,2023-06-06_15h54.56.973,Pilot_online_tryings,2022.2.5,59.9076104979296,
WhatL2_uns.csv,directory_online_WHAT_L2_uns.csv,What_UnsyncL2_testdirs.csv,WhatL2_unsync.wav,fe,36:40,red,Online_whatL2//bFE5.1110.wav,1110.0,,0,0,0,1,0,12,12,18,0,1,1,1,,,,,,,,,,,,,,,,,,,,,,,,,,,,,,,,,,,,,,,,,,,,,,,,,,,,,,,,,,,,,0.013453899999149144,43.96479300002102,43.96479300002102,43.96479300002102,None,y,0.20870570000261068,,,,,,,,,,,,,,,,,,,,,,,,,,,,,,,,,,,,,,,,,,,,,,,337280,001,2023-06-06_15h54.56.973,Pilot_online_tryings,2022.2.5,59.9076104979296,
WhatL2_uns.csv,directory_online_WHAT_L2_uns.csv,What_UnsyncL2_testdirs.csv,WhatL2_unsync.wav,fe,36:40,red,Online_whatL2//bFE6.none.wav,none,,0,0,0,1,0,12,12,18,0,2,2,2,,,,,,,,,,,,,,,,,,,,,,,,,,,,,,,,,,,,,,,,,,,,,,,,,,,,,,,,,,,,,0.01456869998946786,44.19843240000773,44.19843240000773,44.19843240000773,None,y,0.16829790000338107,,,,,,,,,,,,,,,,,,,,,,,,,,,,,,,,,,,,,,,,,,,,,,,337280,001,2023-06-06_15h54.56.973,Pilot_online_tryings,2022.2.5,59.9076104979296,
WhatL2_uns.csv,directory_online_WHAT_L2_uns.csv,What_UnsyncL2_testdirs.csv,WhatL2_unsync.wav,fe,36:40,red,Online_whatL2//bFE4.none.wav,none,,0,0,0,1,0,12,12,18,0,3,3,0,,,,,,,,,,,,,,,,,,,,,,,,,,,,,,,,,,,,,,,,,,,,,,,,,,,,,,,,,,,,,0.016234599985182285,44.400465600017924,44.400465600017924,44.400465600017924,None,y,0.17241070000454783,,,,,,,,,,,,,,,,,,,,,,,,,,,,,,,,,,,,,,,,,,,,,,,337280,001,2023-06-06_15h54.56.973,Pilot_online_tryings,2022.2.5,59.9076104979296,
WhatL2_uns.csv,directory_online_WHAT_L2_uns.csv,What_UnsyncL2_testdirs.csv,WhatL2_unsync.wav,fe,36:40,red,,,,0,0,0,1,0,12,12,18,,,,,,,,,,,,,,,,,,,,,,,,,,,,,,,,,,,,,,,,,,,,,,,,,,,,,,,,,,,,,,,,,,,,,,,,,,,,,,,,,,,,,,,,,,,,,,,,,,,,,,,,,,,,,,,,,,,,,,337280,001,2023-06-06_15h54.56.973,Pilot_online_tryings,2022.2.5,59.9076104979296,
WhatL2_uns.csv,directory_online_WHAT_L2_uns.csv,What_UnsyncL2_testdirs.csv,WhatL2_unsync.wav,fe,48:52,red,Online_whatL2//bFE17.0.wav,0.0,,0,0,0,1,0,13,13,20,0,0,0,1,,,,,,,,,,,,,,,,,,,,,,,,,,,,,,,,,,,,,,,,,,,,,,,,,,,,,,,,,,,44.626179500017315,44.626179500017315,0.0409178999834694,44.626179500017315,44.626179500017315,44.626179500017315,None,y,0.17120219999924302,,,,,,,,,,,,,,,,,,,,,,,,,,,,,,,,,,,,,,,,,,,,,,,337280,001,2023-06-06_15h54.56.973,Pilot_online_tryings,2022.2.5,59.9076104979296,
WhatL2_uns.csv,directory_online_WHAT_L2_uns.csv,What_UnsyncL2_testdirs.csv,WhatL2_unsync.wav,fe,48:52,red,Online_whatL2//bFE18.0.wav,0.0,,0,0,0,1,0,13,13,20,0,1,1,2,,,,,,,,,,,,,,,,,,,,,,,,,,,,,,,,,,,,,,,,,,,,,,,,,,,,,,,,,,,,,0.029039799992460757,44.84998530003941,44.84998530003941,44.84998530003941,None,y,0.15612189995590597,,,,,,,,,,,,,,,,,,,,,,,,,,,,,,,,,,,,,,,,,,,,,,,337280,001,2023-06-06_15h54.56.973,Pilot_online_tryings,2022.2.5,59.9076104979296,
WhatL2_uns.csv,directory_online_WHAT_L2_uns.csv,What_UnsyncL2_testdirs.csv,WhatL2_unsync.wav,fe,48:52,red,Online_whatL2//bFE19.none.wav,none,,0,0,0,1,0,13,13,20,0,2,2,3,,,,,,,,,,,,,,,,,,,,,,,,,,,,,,,,,,,,,,,,,,,,,,,,,,,,,,,,,,,,,0.02947340003447607,45.04777920001652,45.04777920001652,45.04777920001652,None,y,0.165885399968829,,,,,,,,,,,,,,,,,,,,,,,,,,,,,,,,,,,,,,,,,,,,,,,337280,001,2023-06-06_15h54.56.973,Pilot_online_tryings,2022.2.5,59.9076104979296,
WhatL2_uns.csv,directory_online_WHAT_L2_uns.csv,What_UnsyncL2_testdirs.csv,WhatL2_unsync.wav,fe,48:52,red,Online_whatL2//bFE16.888.wav,888.0,,0,0,0,1,0,13,13,20,0,3,3,0,,,,,,,,,,,,,,,,,,,,,,,,,,,,,,,,,,,,,,,,,,,,,,,,,,,,,,,,,,,,,0.017876700032502413,45.253387600008864,45.253387600008864,45.253387600008864,None,y,0.1680783000192605,,,,,,,,,,,,,,,,,,,,,,,,,,,,,,,,,,,,,,,,,,,,,,,337280,001,2023-06-06_15h54.56.973,Pilot_online_tryings,2022.2.5,59.9076104979296,
WhatL2_uns.csv,directory_online_WHAT_L2_uns.csv,What_UnsyncL2_testdirs.csv,WhatL2_unsync.wav,fe,48:52,red,,,,0,0,0,1,0,13,13,20,,,,,,,,,,,,,,,,,,,,,,,,,,,,,,,,,,,,,,,,,,,,,,,,,,,,,,,,,,,,,,,,,,,,,,,,,,,,,,,,,,,,,,,,,,,,,,,,,,,,,,,,,,,,,,,,,,,,,,337280,001,2023-06-06_15h54.56.973,Pilot_online_tryings,2022.2.5,59.9076104979296,
WhatL2_uns.csv,directory_online_WHAT_L2_uns.csv,What_UnsyncL2_testdirs.csv,WhatL2_unsync.wav,si,116:120,green,Online_whatL2//dSI22.1776.wav,1776.0,,0,0,0,1,0,14,14,12,0,0,0,2,,,,,,,,,,,,,,,,,,,,,,,,,,,,,,,,,,,,,,,,,,,,,,,,,,,,,,,,,,,45.47066370001994,45.47066370001994,0.028600000019650906,45.47066370001994,45.47066370001994,45.47066370001994,None,y,0.17518520000157878,,,,,,,,,,,,,,,,,,,,,,,,,,,,,,,,,,,,,,,,,,,,,,,337280,001,2023-06-06_15h54.56.973,Pilot_online_tryings,2022.2.5,59.9076104979296,
WhatL2_uns.csv,directory_online_WHAT_L2_uns.csv,What_UnsyncL2_testdirs.csv,WhatL2_unsync.wav,si,116:120,green,Online_whatL2//dSI20.none.wav,none,,0,0,0,1,0,14,14,12,0,1,1,0,,,,,,,,,,,,,,,,,,,,,,,,,,,,,,,,,,,,,,,,,,,,,,,,,,,,,,,,,,,,,0.017273500037845224,45.66955990000861,45.66955990000861,45.66955990000861,None,y,0.18358340003760532,,,,,,,,,,,,,,,,,,,,,,,,,,,,,,,,,,,,,,,,,,,,,,,337280,001,2023-06-06_15h54.56.973,Pilot_online_tryings,2022.2.5,59.9076104979296,
WhatL2_uns.csv,directory_online_WHAT_L2_uns.csv,What_UnsyncL2_testdirs.csv,WhatL2_unsync.wav,si,116:120,green,Online_whatL2//dSI21.444.wav,444.0,,0,0,0,1,0,14,14,12,0,2,2,1,,,,,,,,,,,,,,,,,,,,,,,,,,,,,,,,,,,,,,,,,,,,,,,,,,,,,,,,,,,,,0.038048600021284074,45.90881250001257,45.90881250001257,45.90881250001257,None,y,0.15290370001457632,,,,,,,,,,,,,,,,,,,,,,,,,,,,,,,,,,,,,,,,,,,,,,,337280,001,2023-06-06_15h54.56.973,Pilot_online_tryings,2022.2.5,59.9076104979296,
WhatL2_uns.csv,directory_online_WHAT_L2_uns.csv,What_UnsyncL2_testdirs.csv,WhatL2_unsync.wav,si,116:120,green,Online_whatL2//dSI23.none.wav,none,,0,0,0,1,0,14,14,12,0,3,3,3,,,,,,,,,,,,,,,,,,,,,,,,,,,,,,,,,,,,,,,,,,,,,,,,,,,,,,,,,,,,,0.02718770003411919,46.097069500014186,46.097069500014186,46.097069500014186,None,y,0.15687499998603016,,,,,,,,,,,,,,,,,,,,,,,,,,,,,,,,,,,,,,,,,,,,,,,337280,001,2023-06-06_15h54.56.973,Pilot_online_tryings,2022.2.5,59.9076104979296,
WhatL2_uns.csv,directory_online_WHAT_L2_uns.csv,What_UnsyncL2_testdirs.csv,WhatL2_unsync.wav,si,116:120,green,,,,0,0,0,1,0,14,14,12,,,,,,,,,,,,,,,,,,,,,,,,,,,,,,,,,,,,,,,,,,,,,,,,,,,,,,,,,,,,,,,,,,,,,,,,,,,,,,,,,,,,,,,,,,,,,,,,,,,,,,,,,,,,,,,,,,,,,,337280,001,2023-06-06_15h54.56.973,Pilot_online_tryings,2022.2.5,59.9076104979296,
WhatL2_uns.csv,directory_online_WHAT_L2_uns.csv,What_UnsyncL2_testdirs.csv,WhatL2_unsync.wav,du,20:24,orange,Online_whatL2//aDU21.1998.wav,1998.0,,0,0,0,1,0,15,15,9,0,0,0,1,,,,,,,,,,,,,,,,,,,,,,,,,,,,,,,,,,,,,,,,,,,,,,,,,,,,,,,,,,,46.31596640002681,46.31596640002681,0.040692799957469106,46.31596640002681,46.31596640002681,46.31596640002681,None,y,0.11449639999773353,,,,,,,,,,,,,,,,,,,,,,,,,,,,,,,,,,,,,,,,,,,,,,,337280,001,2023-06-06_15h54.56.973,Pilot_online_tryings,2022.2.5,59.9076104979296,
WhatL2_uns.csv,directory_online_WHAT_L2_uns.csv,What_UnsyncL2_testdirs.csv,WhatL2_unsync.wav,du,20:24,orange,Online_whatL2//aDU22.1998.wav,1998.0,,0,0,0,1,0,15,15,9,0,1,1,2,,,,,,,,,,,,,,,,,,,,,,,,,,,,,,,,,,,,,,,,,,,,,,,,,,,,,,,,,,,,,0.026940899959299713,46.47879520000424,46.47879520000424,46.47879520000424,None,y,0.1268898999551311,,,,,,,,,,,,,,,,,,,,,,,,,,,,,,,,,,,,,,,,,,,,,,,337280,001,2023-06-06_15h54.56.973,Pilot_online_tryings,2022.2.5,59.9076104979296,
WhatL2_uns.csv,directory_online_WHAT_L2_uns.csv,What_UnsyncL2_testdirs.csv,WhatL2_unsync.wav,du,20:24,orange,Online_whatL2//aDU20.none.wav,none,,0,0,0,1,0,15,15,9,0,2,2,0,,,,,,,,,,,,,,,,,,,,,,,,,,,,,,,,,,,,,,,,,,,,,,,,,,,,,,,,,,,,,0.01761310000438243,46.63959520001663,46.63959520001663,46.63959520001663,None,y,0.17367709998507053,,,,,,,,,,,,,,,,,,,,,,,,,,,,,,,,,,,,,,,,,,,,,,,337280,001,2023-06-06_15h54.56.973,Pilot_online_tryings,2022.2.5,59.9076104979296,
WhatL2_uns.csv,directory_online_WHAT_L2_uns.csv,What_UnsyncL2_testdirs.csv,WhatL2_unsync.wav,du,20:24,orange,Online_whatL2//aDU23.none.wav,none,,0,0,0,1,0,15,15,9,0,3,3,3,,,,,,,,,,,,,,,,,,,,,,,,,,,,,,,,,,,,,,,,,,,,,,,,,,,,,,,,,,,,,0.032354500028304756,46.85359030001564,46.85359030001564,46.85359030001564,None,y,0.15155399998184294,,,,,,,,,,,,,,,,,,,,,,,,,,,,,,,,,,,,,,,,,,,,,,,337280,001,2023-06-06_15h54.56.973,Pilot_online_tryings,2022.2.5,59.9076104979296,
WhatL2_uns.csv,directory_online_WHAT_L2_uns.csv,What_UnsyncL2_testdirs.csv,WhatL2_unsync.wav,du,20:24,orange,,,,0,0,0,1,0,15,15,9,,,,,,,,,,,,,,,,,,,,,,,,,,,,,,,,,,,,,,,,,,,,,,,,,,,,,,,,,,,,,,,,,,,,,,,,,,,,,,,,,,,,,,,,,,,,,,,,,,,,,,,,,,,,,,,,,,,,,,337280,001,2023-06-06_15h54.56.973,Pilot_online_tryings,2022.2.5,59.9076104979296,
WhatL2_uns.csv,directory_online_WHAT_L2_uns.csv,What_UnsyncL2_testdirs.csv,WhatL2_unsync.wav,si,104:108,green,Online_whatL2//dSI9.none.wav,none,,0,0,0,1,0,16,16,10,0,0,0,1,,,,,,,,,,,,,,,,,,,,,,,,,,,,,,,,,,,,,,,,,,,,,,,,,,,,,,,,,,,47.05788300000131,47.05788300000131,0.029047300049569458,47.05788300000131,47.05788300000131,47.05788300000131,None,y,0.1404497000039555,,,,,,,,,,,,,,,,,,,,,,,,,,,,,,,,,,,,,,,,,,,,,,,337280,001,2023-06-06_15h54.56.973,Pilot_online_tryings,2022.2.5,59.9076104979296,
WhatL2_uns.csv,directory_online_WHAT_L2_uns.csv,What_UnsyncL2_testdirs.csv,WhatL2_unsync.wav,si,104:108,green,Online_whatL2//dSI10.1554.wav,1554.0,,0,0,0,1,0,16,16,10,0,1,1,2,,,,,,,,,,,,,,,,,,,,,,,,,,,,,,,,,,,,,,,,,,,,,,,,,,,,,,,,,,,,,0.020689500030130148,47.24138950003544,47.24138950003544,47.24138950003544,None,y,0.16389669995987788,,,,,,,,,,,,,,,,,,,,,,,,,,,,,,,,,,,,,,,,,,,,,,,337280,001,2023-06-06_15h54.56.973,Pilot_online_tryings,2022.2.5,59.9076104979296,
WhatL2_uns.csv,directory_online_WHAT_L2_uns.csv,What_UnsyncL2_testdirs.csv,WhatL2_unsync.wav,si,104:108,green,Online_whatL2//dSI8.none.wav,none,,0,0,0,1,0,16,16,10,0,2,2,0,,,,,,,,,,,,,,,,,,,,,,,,,,,,,,,,,,,,,,,,,,,,,,,,,,,,,,,,,,,,,0.015532099991105497,47.43868320004549,47.43868320004549,47.43868320004549,None,y,0.1583219000021927,,,,,,,,,,,,,,,,,,,,,,,,,,,,,,,,,,,,,,,,,,,,,,,337280,001,2023-06-06_15h54.56.973,Pilot_online_tryings,2022.2.5,59.9076104979296,
WhatL2_uns.csv,directory_online_WHAT_L2_uns.csv,What_UnsyncL2_testdirs.csv,WhatL2_unsync.wav,si,104:108,green,Online_whatL2//dSI11.none.wav,none,,0,0,0,1,0,16,16,10,0,3,3,3,,,,,,,,,,,,,,,,,,,,,,,,,,,,,,,,,,,,,,,,,,,,,,,,,,,,,,,,,,,,,0.024750699987635016,47.62976899999194,47.62976899999194,47.62976899999194,None,y,0.15983349998714402,,,,,,,,,,,,,,,,,,,,,,,,,,,,,,,,,,,,,,,,,,,,,,,337280,001,2023-06-06_15h54.56.973,Pilot_online_tryings,2022.2.5,59.9076104979296,
WhatL2_uns.csv,directory_online_WHAT_L2_uns.csv,What_UnsyncL2_testdirs.csv,WhatL2_unsync.wav,si,104:108,green,,,,0,0,0,1,0,16,16,10,,,,,,,,,,,,,,,,,,,,,,,,,,,,,,,,,,,,,,,,,,,,,,,,,,,,,,,,,,,,,,,,,,,,,,,,,,,,,,,,,,,,,,,,,,,,,,,,,,,,,,,,,,,,,,,,,,,,,,337280,001,2023-06-06_15h54.56.973,Pilot_online_tryings,2022.2.5,59.9076104979296,
WhatL2_uns.csv,directory_online_WHAT_L2_uns.csv,What_UnsyncL2_testdirs.csv,WhatL2_unsync.wav,fe,56:60,red,Online_whatL2//bFE26.none.wav,none,,0,0,0,1,0,17,17,7,0,0,0,2,,,,,,,,,,,,,,,,,,,,,,,,,,,,,,,,,,,,,,,,,,,,,,,,,,,,,,,,,,,47.858762000047136,47.858762000047136,0.04046689998358488,47.858762000047136,47.858762000047136,47.858762000047136,None,y,0.12290909996954724,,,,,,,,,,,,,,,,,,,,,,,,,,,,,,,,,,,,,,,,,,,,,,,337280,001,2023-06-06_15h54.56.973,Pilot_online_tryings,2022.2.5,59.9076104979296,
WhatL2_uns.csv,directory_online_WHAT_L2_uns.csv,What_UnsyncL2_testdirs.csv,WhatL2_unsync.wav,fe,56:60,red,Online_whatL2//bFE27.none.wav,none,,0,0,0,1,0,17,17,7,0,1,1,3,,,,,,,,,,,,,,,,,,,,,,,,,,,,,,,,,,,,,,,,,,,,,,,,,,,,,,,,,,,,,0.028603000042494386,48.03269970003748,48.03269970003748,48.03269970003748,None,y,0.15619149996200576,,,,,,,,,,,,,,,,,,,,,,,,,,,,,,,,,,,,,,,,,,,,,,,337280,001,2023-06-06_15h54.56.973,Pilot_online_tryings,2022.2.5,59.9076104979296,
WhatL2_uns.csv,directory_online_WHAT_L2_uns.csv,What_UnsyncL2_testdirs.csv,WhatL2_unsync.wav,fe,56:60,red,Online_whatL2//bFE24.0.wav,0.0,,0,0,0,1,0,17,17,7,0,2,2,0,,,,,,,,,,,,,,,,,,,,,,,,,,,,,,,,,,,,,,,,,,,,,,,,,,,,,,,,,,,,,0.007125300006009638,48.21469460002845,48.21469460002845,48.21469460002845,None,y,0.16807700000936165,,,,,,,,,,,,,,,,,,,,,,,,,,,,,,,,,,,,,,,,,,,,,,,337280,001,2023-06-06_15h54.56.973,Pilot_online_tryings,2022.2.5,59.9076104979296,
WhatL2_uns.csv,directory_online_WHAT_L2_uns.csv,What_UnsyncL2_testdirs.csv,WhatL2_unsync.wav,fe,56:60,red,Online_whatL2//bFE25.0.wav,0.0,,0,0,0,1,0,17,17,7,0,3,3,1,,,,,,,,,,,,,,,,,,,,,,,,,,,,,,,,,,,,,,,,,,,,,,,,,,,,,,,,,,,,,0.02825139998458326,48.432077900040895,48.432077900040895,48.432077900040895,None,y,0.15774379996582866,,,,,,,,,,,,,,,,,,,,,,,,,,,,,,,,,,,,,,,,,,,,,,,337280,001,2023-06-06_15h54.56.973,Pilot_online_tryings,2022.2.5,59.9076104979296,
WhatL2_uns.csv,directory_online_WHAT_L2_uns.csv,What_UnsyncL2_testdirs.csv,WhatL2_unsync.wav,fe,56:60,red,,,,0,0,0,1,0,17,17,7,,,,,,,,,,,,,,,,,,,,,,,,,,,,,,,,,,,,,,,,,,,,,,,,,,,,,,,,,,,,,,,,,,,,,,,,,,,,,,,,,,,,,,,,,,,,,,,,,,,,,,,,,,,,,,,,,,,,,,337280,001,2023-06-06_15h54.56.973,Pilot_online_tryings,2022.2.5,59.9076104979296,
WhatL2_uns.csv,directory_online_WHAT_L2_uns.csv,What_UnsyncL2_testdirs.csv,WhatL2_unsync.wav,cha,92:96,blue,Online_whatL2//cCHA30.1332.wav,1332.0,,0,0,0,1,0,18,18,2,0,0,0,2,,,,,,,,,,,,,,,,,,,,,,,,,,,,,,,,,,,,,,,,,,,,,,,,,,,,,,,,,,,48.63577580003766,48.63577580003766,0.025812199979554862,48.63577580003766,48.63577580003766,48.63577580003766,None,y,0.14541559998178855,,,,,,,,,,,,,,,,,,,,,,,,,,,,,,,,,,,,,,,,,,,,,,,337280,001,2023-06-06_15h54.56.973,Pilot_online_tryings,2022.2.5,59.9076104979296,
WhatL2_uns.csv,directory_online_WHAT_L2_uns.csv,What_UnsyncL2_testdirs.csv,WhatL2_unsync.wav,cha,92:96,blue,Online_whatL2//cCHA31.none.wav,none,,0,0,0,1,0,18,18,2,0,1,1,3,,,,,,,,,,,,,,,,,,,,,,,,,,,,,,,,,,,,,,,,,,,,,,,,,,,,,,,,,,,,,0.006398800003807992,48.79840710002463,48.79840710002463,48.79840710002463,None,y,0.1761817999649793,,,,,,,,,,,,,,,,,,,,,,,,,,,,,,,,,,,,,,,,,,,,,,,337280,001,2023-06-06_15h54.56.973,Pilot_online_tryings,2022.2.5,59.9076104979296,
WhatL2_uns.csv,directory_online_WHAT_L2_uns.csv,What_UnsyncL2_testdirs.csv,WhatL2_unsync.wav,cha,92:96,blue,Online_whatL2//cCHA29.none.wav,none,,0,0,0,1,0,18,18,2,0,2,2,1,,,,,,,,,,,,,,,,,,,,,,,,,,,,,,,,,,,,,,,,,,,,,,,,,,,,,,,,,,,,,0.0135152000002563,49.002564700029325,49.002564700029325,49.002564700029325,None,y,0.1788020000094548,,,,,,,,,,,,,,,,,,,,,,,,,,,,,,,,,,,,,,,,,,,,,,,337280,001,2023-06-06_15h54.56.973,Pilot_online_tryings,2022.2.5,59.9076104979296,
WhatL2_uns.csv,directory_online_WHAT_L2_uns.csv,What_UnsyncL2_testdirs.csv,WhatL2_unsync.wav,cha,92:96,blue,Online_whatL2//cCHA28.1332.wav,1332.0,,0,0,0,1,0,18,18,2,0,3,3,0,,,,,,,,,,,,,,,,,,,,,,,,,,,,,,,,,,,,,,,,,,,,,,,,,,,,,,,,,,,,,0.01780890004010871,49.207974900025874,49.207974900025874,49.207974900025874,None,y,0.16619929997250438,,,,,,,,,,,,,,,,,,,,,,,,,,,,,,,,,,,,,,,,,,,,,,,337280,001,2023-06-06_15h54.56.973,Pilot_online_tryings,2022.2.5,59.9076104979296,
WhatL2_uns.csv,directory_online_WHAT_L2_uns.csv,What_UnsyncL2_testdirs.csv,WhatL2_unsync.wav,cha,92:96,blue,,,,0,0,0,1,0,18,18,2,,,,,,,,,,,,,,,,,,,,,,,,,,,,,,,,,,,,,,,,,,,,,,,,,,,,,,,,,,,,,,,,,,,,,,,,,,,,,,,,,,,,,,,,,,,,,,,,,,,,,,,,,,,,,,,,,,,,,,337280,001,2023-06-06_15h54.56.973,Pilot_online_tryings,2022.2.5,59.9076104979296,
WhatL2_uns.csv,directory_online_WHAT_L2_uns.csv,What_UnsyncL2_testdirs.csv,WhatL2_unsync.wav,du,12:16,orange,Online_whatL2//aDU14.888.wav,888.0,,0,0,0,1,0,19,19,15,0,0,0,2,,,,,,,,,,,,,,,,,,,,,,,,,,,,,,,,,,,,,,,,,,,,,,,,,,,,,,,,,,,49.45548050000798,49.45548050000798,0.05733050004346296,49.45548050000798,49.45548050000798,49.45548050000798,None,y,0.1262296999921091,,,,,,,,,,,,,,,,,,,,,,,,,,,,,,,,,,,,,,,,,,,,,,,337280,001,2023-06-06_15h54.56.973,Pilot_online_tryings,2022.2.5,59.9076104979296,
WhatL2_uns.csv,directory_online_WHAT_L2_uns.csv,What_UnsyncL2_testdirs.csv,WhatL2_unsync.wav,du,12:16,orange,Online_whatL2//aDU12.888.wav,888.0,,0,0,0,1,0,19,19,15,0,1,1,0,,,,,,,,,,,,,,,,,,,,,,,,,,,,,,,,,,,,,,,,,,,,,,,,,,,,,,,,,,,,,0.06298869999591261,49.65287480002735,49.65287480002735,49.65287480002735,None,y,0.12095670000417158,,,,,,,,,,,,,,,,,,,,,,,,,,,,,,,,,,,,,,,,,,,,,,,337280,001,2023-06-06_15h54.56.973,Pilot_online_tryings,2022.2.5,59.9076104979296,
WhatL2_uns.csv,directory_online_WHAT_L2_uns.csv,What_UnsyncL2_testdirs.csv,WhatL2_unsync.wav,du,12:16,orange,Online_whatL2//aDU13.1998.wav,1998.0,,0,0,0,1,0,19,19,15,0,2,2,1,,,,,,,,,,,,,,,,,,,,,,,,,,,,,,,,,,,,,,,,,,,,,,,,,,,,,,,,,,,,,0.020380500005558133,49.81033690000186,49.81033690000186,49.81033690000186,None,y,0.17158110003219917,,,,,,,,,,,,,,,,,,,,,,,,,,,,,,,,,,,,,,,,,,,,,,,337280,001,2023-06-06_15h54.56.973,Pilot_online_tryings,2022.2.5,59.9076104979296,
WhatL2_uns.csv,directory_online_WHAT_L2_uns.csv,What_UnsyncL2_testdirs.csv,WhatL2_unsync.wav,du,12:16,orange,Online_whatL2//aDU15.1776.wav,1776.0,,0,0,0,1,0,19,19,15,0,3,3,3,,,,,,,,,,,,,,,,,,,,,,,,,,,,,,,,,,,,,,,,,,,,,,,,,,,,,,,,,,,,,0.0068740000133402646,49.999740200000815,49.999740200000815,49.999740200000815,None,y,0.1582158000092022,,,,,,,,,,,,,,,,,,,,,,,,,,,,,,,,,,,,,,,,,,,,,,,337280,001,2023-06-06_15h54.56.973,Pilot_online_tryings,2022.2.5,59.9076104979296,
WhatL2_uns.csv,directory_online_WHAT_L2_uns.csv,What_UnsyncL2_testdirs.csv,WhatL2_unsync.wav,du,12:16,orange,,,,0,0,0,1,0,19,19,15,,,,,,,,,,,,,,,,,,,,,,,,,,,,,,,,,,,,,,,,,,,,,,,,,,,,,,,,,,,,,,,,,,,,,,,,,,,,,,,,,,,,,,,,,,,,,,,,,,,,,,,,,,,,,,,,,,,,,,337280,001,2023-06-06_15h54.56.973,Pilot_online_tryings,2022.2.5,59.9076104979296,
WhatL2_uns.csv,directory_online_WHAT_L2_uns.csv,What_UnsyncL2_testdirs.csv,WhatL2_unsync.wav,cha,80:84,blue,Online_whatL2//cCHA17.none.wav,none,,0,0,0,1,0,20,20,8,0,0,0,1,,,,,,,,,,,,,,,,,,,,,,,,,,,,,,,,,,,,,,,,,,,,,,,,,,,,,,,,,,,50.20921709999675,50.20921709999675,0.02825729997130111,50.20921709999675,50.20921709999675,50.20921709999675,None,y,0.1401901000062935,,,,,,,,,,,,,,,,,,,,,,,,,,,,,,,,,,,,,,,,,,,,,,,337280,001,2023-06-06_15h54.56.973,Pilot_online_tryings,2022.2.5,59.9076104979296,
WhatL2_uns.csv,directory_online_WHAT_L2_uns.csv,What_UnsyncL2_testdirs.csv,WhatL2_unsync.wav,cha,80:84,blue,Online_whatL2//cCHA16.none.wav,none,,0,0,0,1,0,20,20,8,0,1,1,0,,,,,,,,,,,,,,,,,,,,,,,,,,,,,,,,,,,,,,,,,,,,,,,,,,,,,,,,,,,,,0.05770989996381104,50.414955600048415,50.414955600048415,50.414955600048415,None,y,0.11034270003437996,,,,,,,,,,,,,,,,,,,,,,,,,,,,,,,,,,,,,,,,,,,,,,,337280,001,2023-06-06_15h54.56.973,Pilot_online_tryings,2022.2.5,59.9076104979296,
WhatL2_uns.csv,directory_online_WHAT_L2_uns.csv,What_UnsyncL2_testdirs.csv,WhatL2_unsync.wav,cha,80:84,blue,Online_whatL2//cCHA18.444.wav,444.0,,0,0,0,1,0,20,20,8,0,2,2,2,,,,,,,,,,,,,,,,,,,,,,,,,,,,,,,,,,,,,,,,,,,,,,,,,,,,,,,,,,,,,0.018843600002583116,50.56177710002521,50.56177710002521,50.56177710002521,None,y,0.1236676000407897,,,,,,,,,,,,,,,,,,,,,,,,,,,,,,,,,,,,,,,,,,,,,,,337280,001,2023-06-06_15h54.56.973,Pilot_online_tryings,2022.2.5,59.9076104979296,
WhatL2_uns.csv,directory_online_WHAT_L2_uns.csv,What_UnsyncL2_testdirs.csv,WhatL2_unsync.wav,cha,80:84,blue,Online_whatL2//cCHA19.1998.wav,1998.0,,0,0,0,1,0,20,20,8,0,3,3,3,,,,,,,,,,,,,,,,,,,,,,,,,,,,,,,,,,,,,,,,,,,,,,,,,,,,,,,,,,,,,0.007303999969735742,50.71694770001341,50.71694770001341,50.71694770001341,None,y,0.16125079995254055,,,,,,,,,,,,,,,,,,,,,,,,,,,,,,,,,,,,,,,,,,,,,,,337280,001,2023-06-06_15h54.56.973,Pilot_online_tryings,2022.2.5,59.9076104979296,
WhatL2_uns.csv,directory_online_WHAT_L2_uns.csv,What_UnsyncL2_testdirs.csv,WhatL2_unsync.wav,cha,80:84,blue,,,,0,0,0,1,0,20,20,8,,,,,,,,,,,,,,,,,,,,,,,,,,,,,,,,,,,,,,,,,,,,,,,,,,,,,,,,,,,,,,,,,,,,,,,,,,,,,,,,,,,,,,,,,,,,,,,,,,,,,,,,,,,,,,,,,,,,,,337280,001,2023-06-06_15h54.56.973,Pilot_online_tryings,2022.2.5,59.9076104979296,
WhatL2_uns.csv,directory_online_WHAT_L2_uns.csv,What_UnsyncL2_testdirs.csv,WhatL2_unsync.wav,si,112:116,green,Online_whatL2//dSI16.1110.wav,1110.0,,0,0,0,1,0,21,21,24,0,0,0,0,,,,,,,,,,,,,,,,,,,,,,,,,,,,,,,,,,,,,,,,,,,,,,,,,,,,,,,,,,,50.92886240000371,50.92886240000371,0.029145699983928353,50.92886240000371,50.92886240000371,50.92886240000371,None,y,0.12427099997876212,,,,,,,,,,,,,,,,,,,,,,,,,,,,,,,,,,,,,,,,,,,,,,,337280,001,2023-06-06_15h54.56.973,Pilot_online_tryings,2022.2.5,59.9076104979296,
WhatL2_uns.csv,directory_online_WHAT_L2_uns.csv,What_UnsyncL2_testdirs.csv,WhatL2_unsync.wav,si,112:116,green,Online_whatL2//dSI17.444.wav,444.0,,0,0,0,1,0,21,21,24,0,1,1,1,,,,,,,,,,,,,,,,,,,,,,,,,,,,,,,,,,,,,,,,,,,,,,,,,,,,,,,,,,,,,0.006298399996012449,51.08417810004903,51.08417810004903,51.08417810004903,None,y,0.1613728999509476,,,,,,,,,,,,,,,,,,,,,,,,,,,,,,,,,,,,,,,,,,,,,,,337280,001,2023-06-06_15h54.56.973,Pilot_online_tryings,2022.2.5,59.9076104979296,
WhatL2_uns.csv,directory_online_WHAT_L2_uns.csv,What_UnsyncL2_testdirs.csv,WhatL2_unsync.wav,si,112:116,green,Online_whatL2//dSI18.444.wav,444.0,,0,0,0,1,0,21,21,24,0,2,2,2,,,,,,,,,,,,,,,,,,,,,,,,,,,,,,,,,,,,,,,,,,,,,,,,,,,,,,,,,,,,,0.014490600035060197,51.27251390001038,51.27251390001038,51.27251390001038,None,y,0.13367060001473874,,,,,,,,,,,,,,,,,,,,,,,,,,,,,,,,,,,,,,,,,,,,,,,337280,001,2023-06-06_15h54.56.973,Pilot_online_tryings,2022.2.5,59.9076104979296,
WhatL2_uns.csv,directory_online_WHAT_L2_uns.csv,What_UnsyncL2_testdirs.csv,WhatL2_unsync.wav,si,112:116,green,Online_whatL2//dSI19.444.wav,444.0,,0,0,0,1,0,21,21,24,0,3,3,3,,,,,,,,,,,,,,,,,,,,,,,,,,,,,,,,,,,,,,,,,,,,,,,,,,,,,,,,,,,,,0.01499090000288561,51.43975900002988,51.43975900002988,51.43975900002988,None,y,0.14195010002003983,,,,,,,,,,,,,,,,,,,,,,,,,,,,,,,,,,,,,,,,,,,,,,,337280,001,2023-06-06_15h54.56.973,Pilot_online_tryings,2022.2.5,59.9076104979296,
WhatL2_uns.csv,directory_online_WHAT_L2_uns.csv,What_UnsyncL2_testdirs.csv,WhatL2_unsync.wav,si,112:116,green,,,,0,0,0,1,0,21,21,24,,,,,,,,,,,,,,,,,,,,,,,,,,,,,,,,,,,,,,,,,,,,,,,,,,,,,,,,,,,,,,,,,,,,,,,,,,,,,,,,,,,,,,,,,,,,,,,,,,,,,,,,,,,,,,,,,,,,,,337280,001,2023-06-06_15h54.56.973,Pilot_online_tryings,2022.2.5,59.9076104979296,
WhatL2_uns.csv,directory_online_WHAT_L2_uns.csv,What_UnsyncL2_testdirs.csv,WhatL2_unsync.wav,cha,72:76,blue,Online_whatL2//cCHA9.none.wav,none,,0,0,0,1,0,22,22,21,0,0,0,1,,,,,,,,,,,,,,,,,,,,,,,,,,,,,,,,,,,,,,,,,,,,,,,,,,,,,,,,,,,51.63419930002419,51.63419930002419,0.034754700027406216,51.63419930002419,51.63419930002419,51.63419930002419,None,y,0.10712780000176281,,,,,,,,,,,,,,,,,,,,,,,,,,,,,,,,,,,,,,,,,,,,,,,337280,001,2023-06-06_15h54.56.973,Pilot_online_tryings,2022.2.5,59.9076104979296,
WhatL2_uns.csv,directory_online_WHAT_L2_uns.csv,What_UnsyncL2_testdirs.csv,WhatL2_unsync.wav,cha,72:76,blue,Online_whatL2//cCHA8.none.wav,none,,0,0,0,1,0,22,22,21,0,1,1,0,,,,,,,,,,,,,,,,,,,,,,,,,,,,,,,,,,,,,,,,,,,,,,,,,,,,,,,,,,,,,0.006703899998683482,51.768085000046995,51.768085000046995,51.768085000046995,None,y,0.1493610999896191,,,,,,,,,,,,,,,,,,,,,,,,,,,,,,,,,,,,,,,,,,,,,,,337280,001,2023-06-06_15h54.56.973,Pilot_online_tryings,2022.2.5,59.9076104979296,
WhatL2_uns.csv,directory_online_WHAT_L2_uns.csv,What_UnsyncL2_testdirs.csv,WhatL2_unsync.wav,cha,72:76,blue,Online_whatL2//cCHA11.1110.wav,1110.0,,0,0,0,1,0,22,22,21,0,2,2,3,,,,,,,,,,,,,,,,,,,,,,,,,,,,,,,,,,,,,,,,,,,,,,,,,,,,,,,,,,,,,0.019075400021392852,51.94488620001357,51.94488620001357,51.94488620001357,None,y,0.14906389999669045,,,,,,,,,,,,,,,,,,,,,,,,,,,,,,,,,,,,,,,,,,,,,,,337280,001,2023-06-06_15h54.56.973,Pilot_online_tryings,2022.2.5,59.9076104979296,
WhatL2_uns.csv,directory_online_WHAT_L2_uns.csv,What_UnsyncL2_testdirs.csv,WhatL2_unsync.wav,cha,72:76,blue,Online_whatL2//cCHA10.444.wav,444.0,,0,0,0,1,0,22,22,21,0,3,3,2,,,,,,,,,,,,,,,,,,,,,,,,,,,,,,,,,,,,,,,,,,,,,,,,,,,,,,,,,,,,,0.029635600047186017,52.13868830003776,52.13868830003776,52.13868830003776,None,y,0.14630729996133596,,,,,,,,,,,,,,,,,,,,,,,,,,,,,,,,,,,,,,,,,,,,,,,337280,001,2023-06-06_15h54.56.973,Pilot_online_tryings,2022.2.5,59.9076104979296,
WhatL2_uns.csv,directory_online_WHAT_L2_uns.csv,What_UnsyncL2_testdirs.csv,WhatL2_unsync.wav,cha,72:76,blue,,,,0,0,0,1,0,22,22,21,,,,,,,,,,,,,,,,,,,,,,,,,,,,,,,,,,,,,,,,,,,,,,,,,,,,,,,,,,,,,,,,,,,,,,,,,,,,,,,,,,,,,,,,,,,,,,,,,,,,,,,,,,,,,,,,,,,,,,337280,001,2023-06-06_15h54.56.973,Pilot_online_tryings,2022.2.5,59.9076104979296,
WhatL2_uns.csv,directory_online_WHAT_L2_uns.csv,What_UnsyncL2_testdirs.csv,WhatL2_unsync.wav,du,24:28,orange,Online_whatL2//aDU26.1110.wav,1110.0,,0,0,0,1,0,23,23,1,0,0,0,2,,,,,,,,,,,,,,,,,,,,,,,,,,,,,,,,,,,,,,,,,,,,,,,,,,,,,,,,,,,52.33900930004893,52.33900930004893,0.04079860000638291,52.33900930004893,52.33900930004893,52.33900930004893,None,y,0.12195240001892671,,,,,,,,,,,,,,,,,,,,,,,,,,,,,,,,,,,,,,,,,,,,,,,337280,001,2023-06-06_15h54.56.973,Pilot_online_tryings,2022.2.5,59.9076104979296,
WhatL2_uns.csv,directory_online_WHAT_L2_uns.csv,What_UnsyncL2_testdirs.csv,WhatL2_unsync.wav,du,24:28,orange,Online_whatL2//aDU27.none.wav,none,,0,0,0,1,0,23,23,1,0,1,1,3,,,,,,,,,,,,,,,,,,,,,,,,,,,,,,,,,,,,,,,,,,,,,,,,,,,,,,,,,,,,,0.020290799962822348,52.49834590003593,52.49834590003593,52.49834590003593,None,y,0.1389480999787338,,,,,,,,,,,,,,,,,,,,,,,,,,,,,,,,,,,,,,,,,,,,,,,337280,001,2023-06-06_15h54.56.973,Pilot_online_tryings,2022.2.5,59.9076104979296,
WhatL2_uns.csv,directory_online_WHAT_L2_uns.csv,What_UnsyncL2_testdirs.csv,WhatL2_unsync.wav,du,24:28,orange,Online_whatL2//aDU25.1998.wav,1998.0,,0,0,0,1,0,23,23,1,0,2,2,1,,,,,,,,,,,,,,,,,,,,,,,,,,,,,,,,,,,,,,,,,,,,,,,,,,,,,,,,,,,,,0.013117499998770654,52.67249470000388,52.67249470000388,52.67249470000388,None,y,0.15646760002709925,,,,,,,,,,,,,,,,,,,,,,,,,,,,,,,,,,,,,,,,,,,,,,,337280,001,2023-06-06_15h54.56.973,Pilot_online_tryings,2022.2.5,59.9076104979296,
WhatL2_uns.csv,directory_online_WHAT_L2_uns.csv,What_UnsyncL2_testdirs.csv,WhatL2_unsync.wav,du,24:28,orange,Online_whatL2//aDU24.888.wav,888.0,,0,0,0,1,0,23,23,1,0,3,3,0,,,,,,,,,,,,,,,,,,,,,,,,,,,,,,,,,,,,,,,,,,,,,,,,,,,,,,,,,,,,,0.007996800006367266,52.85488180001266,52.85488180001266,52.85488180001266,None,y,0.15077119995839894,,,,,,,,,,,,,,,,,,,,,,,,,,,,,,,,,,,,,,,,,,,,,,,337280,001,2023-06-06_15h54.56.973,Pilot_online_tryings,2022.2.5,59.9076104979296,
WhatL2_uns.csv,directory_online_WHAT_L2_uns.csv,What_UnsyncL2_testdirs.csv,WhatL2_unsync.wav,du,24:28,orange,,,,0,0,0,1,0,23,23,1,,,,,,,,,,,,,,,,,,,,,,,,,,,,,,,,,,,,,,,,,,,,,,,,,,,,,,,,,,,,,,,,,,,,,,,,,,,,,,,,,,,,,,,,,,,,,,,,,,,,,,,,,,,,,,,,,,,,,,337280,001,2023-06-06_15h54.56.973,Pilot_online_tryings,2022.2.5,59.9076104979296,
WhatL2_uns.csv,directory_online_WHAT_L2_uns.csv,What_UnsyncL2_testdirs.csv,WhatL2_unsync.wav,cha,76:80,blue,Online_whatL2//cCHA15.none.wav,none,,0,0,0,1,0,24,24,29,0,0,0,3,,,,,,,,,,,,,,,,,,,,,,,,,,,,,,,,,,,,,,,,,,,,,,,,,,,,,,,,,,,53.06576520000817,53.06576520000817,0.03223830001661554,53.06576520000817,53.06576520000817,53.06576520000817,None,y,0.11555359995691106,,,,,,,,,,,,,,,,,,,,,,,,,,,,,,,,,,,,,,,,,,,,,,,337280,001,2023-06-06_15h54.56.973,Pilot_online_tryings,2022.2.5,59.9076104979296,
WhatL2_uns.csv,directory_online_WHAT_L2_uns.csv,What_UnsyncL2_testdirs.csv,WhatL2_unsync.wav,cha,76:80,blue,Online_whatL2//cCHA14.none.wav,none,,0,0,0,1,0,24,24,29,0,1,1,2,,,,,,,,,,,,,,,,,,,,,,,,,,,,,,,,,,,,,,,,,,,,,,,,,,,,,,,,,,,,,0.025352900032885373,53.2190777999931,53.2190777999931,53.2190777999931,None,y,0.15449069999158382,,,,,,,,,,,,,,,,,,,,,,,,,,,,,,,,,,,,,,,,,,,,,,,337280,001,2023-06-06_15h54.56.973,Pilot_online_tryings,2022.2.5,59.9076104979296,
WhatL2_uns.csv,directory_online_WHAT_L2_uns.csv,What_UnsyncL2_testdirs.csv,WhatL2_unsync.wav,cha,76:80,blue,Online_whatL2//cCHA13.1332.wav,1332.0,,0,0,0,1,0,24,24,29,0,2,2,1,,,,,,,,,,,,,,,,,,,,,,,,,,,,,,,,,,,,,,,,,,,,,,,,,,,,,,,,,,,,,0.033264400030020624,53.4276177000138,53.4276177000138,53.4276177000138,None,y,0.1375675000017509,,,,,,,,,,,,,,,,,,,,,,,,,,,,,,,,,,,,,,,,,,,,,,,337280,001,2023-06-06_15h54.56.973,Pilot_online_tryings,2022.2.5,59.9076104979296,
WhatL2_uns.csv,directory_online_WHAT_L2_uns.csv,What_UnsyncL2_testdirs.csv,WhatL2_unsync.wav,cha,76:80,blue,Online_whatL2//cCHA12.222.wav,222.0,,0,0,0,1,0,24,24,29,0,3,3,0,,,,,,,,,,,,,,,,,,,,,,,,,,,,,,,,,,,,,,,,,,,,,,,,,,,,,,,,,,,,,0.01944030000595376,53.59840540000005,53.59840540000005,53.59840540000005,None,y,0.1441925999824889,,,,,,,,,,,,,,,,,,,,,,,,,,,,,,,,,,,,,,,,,,,,,,,337280,001,2023-06-06_15h54.56.973,Pilot_online_tryings,2022.2.5,59.9076104979296,
WhatL2_uns.csv,directory_online_WHAT_L2_uns.csv,What_UnsyncL2_testdirs.csv,WhatL2_unsync.wav,cha,76:80,blue,,,,0,0,0,1,0,24,24,29,,,,,,,,,,,,,,,,,,,,,,,,,,,,,,,,,,,,,,,,,,,,,,,,,,,,,,,,,,,,,,,,,,,,,,,,,,,,,,,,,,,,,,,,,,,,,,,,,,,,,,,,,,,,,,,,,,,,,,337280,001,2023-06-06_15h54.56.973,Pilot_online_tryings,2022.2.5,59.9076104979296,
WhatL2_uns.csv,directory_online_WHAT_L2_uns.csv,What_UnsyncL2_testdirs.csv,WhatL2_unsync.wav,du,4:8,orange,Online_whatL2//aDU5.none.wav,none,,0,0,0,1,0,25,25,17,0,0,0,1,,,,,,,,,,,,,,,,,,,,,,,,,,,,,,,,,,,,,,,,,,,,,,,,,,,,,,,,,,,53.794850300007965,53.794850300007965,0.027736500022001565,53.794850300007965,53.794850300007965,53.794850300007965,None,y,0.15496830001939088,,,,,,,,,,,,,,,,,,,,,,,,,,,,,,,,,,,,,,,,,,,,,,,337280,001,2023-06-06_15h54.56.973,Pilot_online_tryings,2022.2.5,59.9076104979296,
WhatL2_uns.csv,directory_online_WHAT_L2_uns.csv,What_UnsyncL2_testdirs.csv,WhatL2_unsync.wav,du,4:8,orange,Online_whatL2//aDU7.none.wav,none,,0,0,0,1,0,25,25,17,0,1,1,3,,,,,,,,,,,,,,,,,,,,,,,,,,,,,,,,,,,,,,,,,,,,,,,,,,,,,,,,,,,,,0.0700209999922663,54.03115880000405,54.03115880000405,54.03115880000405,None,y,0.09518870001193136,,,,,,,,,,,,,,,,,,,,,,,,,,,,,,,,,,,,,,,,,,,,,,,337280,001,2023-06-06_15h54.56.973,Pilot_online_tryings,2022.2.5,59.9076104979296,
WhatL2_uns.csv,directory_online_WHAT_L2_uns.csv,What_UnsyncL2_testdirs.csv,WhatL2_unsync.wav,du,4:8,orange,Online_whatL2//aDU6.none.wav,none,,0,0,0,1,0,25,25,17,0,2,2,2,,,,,,,,,,,,,,,,,,,,,,,,,,,,,,,,,,,,,,,,,,,,,,,,,,,,,,,,,,,,,0.03983710001921281,54.184229300008155,54.184229300008155,54.184229300008155,None,y,0.14954969997052103,,,,,,,,,,,,,,,,,,,,,,,,,,,,,,,,,,,,,,,,,,,,,,,337280,001,2023-06-06_15h54.56.973,Pilot_online_tryings,2022.2.5,59.9076104979296,
WhatL2_uns.csv,directory_online_WHAT_L2_uns.csv,What_UnsyncL2_testdirs.csv,WhatL2_unsync.wav,du,4:8,orange,Online_whatL2//aDU4.none.wav,none,,0,0,0,1,0,25,25,17,0,3,3,0,,,,,,,,,,,,,,,,,,,,,,,,,,,,,,,,,,,,,,,,,,,,,,,,,,,,,,,,,,,,,0.023403899976983666,54.368151500006206,54.368151500006206,54.368151500006206,None,y,0.1568068999913521,,,,,,,,,,,,,,,,,,,,,,,,,,,,,,,,,,,,,,,,,,,,,,,337280,001,2023-06-06_15h54.56.973,Pilot_online_tryings,2022.2.5,59.9076104979296,
WhatL2_uns.csv,directory_online_WHAT_L2_uns.csv,What_UnsyncL2_testdirs.csv,WhatL2_unsync.wav,du,4:8,orange,,,,0,0,0,1,0,25,25,17,,,,,,,,,,,,,,,,,,,,,,,,,,,,,,,,,,,,,,,,,,,,,,,,,,,,,,,,,,,,,,,,,,,,,,,,,,,,,,,,,,,,,,,,,,,,,,,,,,,,,,,,,,,,,,,,,,,,,,337280,001,2023-06-06_15h54.56.973,Pilot_online_tryings,2022.2.5,59.9076104979296,
WhatL2_uns.csv,directory_online_WHAT_L2_uns.csv,What_UnsyncL2_testdirs.csv,WhatL2_unsync.wav,fe,44:48,red,Online_whatL2//bFE15.none.wav,none,,0,0,0,1,0,26,26,5,0,0,0,3,,,,,,,,,,,,,,,,,,,,,,,,,,,,,,,,,,,,,,,,,,,,,,,,,,,,,,,,,,,54.58411980001256,54.58411980001256,0.03426009998656809,54.58411980001256,54.58411980001256,54.58411980001256,None,y,0.11883120000129566,,,,,,,,,,,,,,,,,,,,,,,,,,,,,,,,,,,,,,,,,,,,,,,337280,001,2023-06-06_15h54.56.973,Pilot_online_tryings,2022.2.5,59.9076104979296,
WhatL2_uns.csv,directory_online_WHAT_L2_uns.csv,What_UnsyncL2_testdirs.csv,WhatL2_unsync.wav,fe,44:48,red,Online_whatL2//bFE13.888.wav,888.0,,0,0,0,1,0,26,26,5,0,1,1,1,,,,,,,,,,,,,,,,,,,,,,,,,,,,,,,,,,,,,,,,,,,,,,,,,,,,,,,,,,,,,0.018099699984304607,54.73001560004195,54.73001560004195,54.73001560004195,None,y,0.1791790999704972,,,,,,,,,,,,,,,,,,,,,,,,,,,,,,,,,,,,,,,,,,,,,,,337280,001,2023-06-06_15h54.56.973,Pilot_online_tryings,2022.2.5,59.9076104979296,
WhatL2_uns.csv,directory_online_WHAT_L2_uns.csv,What_UnsyncL2_testdirs.csv,WhatL2_unsync.wav,fe,44:48,red,Online_whatL2//bFE14.none.wav,none,,0,0,0,1,0,26,26,5,0,2,2,2,,,,,,,,,,,,,,,,,,,,,,,,,,,,,,,,,,,,,,,,,,,,,,,,,,,,,,,,,,,,,0.013920900004450232,54.94548759999452,54.94548759999452,54.94548759999452,None,y,0.17169950000243261,,,,,,,,,,,,,,,,,,,,,,,,,,,,,,,,,,,,,,,,,,,,,,,337280,001,2023-06-06_15h54.56.973,Pilot_online_tryings,2022.2.5,59.9076104979296,
WhatL2_uns.csv,directory_online_WHAT_L2_uns.csv,What_UnsyncL2_testdirs.csv,WhatL2_unsync.wav,fe,44:48,red,Online_whatL2//bFE12.none.wav,none,,0,0,0,1,0,26,26,5,0,3,3,0,,,,,,,,,,,,,,,,,,,,,,,,,,,,,,,,,,,,,,,,,,,,,,,,,,,,,,,,,,,,,0.018689999997150153,55.14807049999945,55.14807049999945,55.14807049999945,None,y,0.17834749998291954,,,,,,,,,,,,,,,,,,,,,,,,,,,,,,,,,,,,,,,,,,,,,,,337280,001,2023-06-06_15h54.56.973,Pilot_online_tryings,2022.2.5,59.9076104979296,
WhatL2_uns.csv,directory_online_WHAT_L2_uns.csv,What_UnsyncL2_testdirs.csv,WhatL2_unsync.wav,fe,44:48,red,,,,0,0,0,1,0,26,26,5,,,,,,,,,,,,,,,,,,,,,,,,,,,,,,,,,,,,,,,,,,,,,,,,,,,,,,,,,,,,,,,,,,,,,,,,,,,,,,,,,,,,,,,,,,,,,,,,,,,,,,,,,,,,,,,,,,,,,,337280,001,2023-06-06_15h54.56.973,Pilot_online_tryings,2022.2.5,59.9076104979296,
WhatL2_uns.csv,directory_online_WHAT_L2_uns.csv,What_UnsyncL2_testdirs.csv,WhatL2_unsync.wav,si,120:124,green,Online_whatL2//dSI27.0.wav,0.0,,0,0,0,1,0,27,27,4,0,0,0,3,,,,,,,,,,,,,,,,,,,,,,,,,,,,,,,,,,,,,,,,,,,,,,,,,,,,,,,,,,,55.39452000003075,55.39452000003075,0.044444399944040924,55.39452000003075,55.39452000003075,55.39452000003075,None,y,0.10687620000680909,,,,,,,,,,,,,,,,,,,,,,,,,,,,,,,,,,,,,,,,,,,,,,,337280,001,2023-06-06_15h54.56.973,Pilot_online_tryings,2022.2.5,59.9076104979296,
WhatL2_uns.csv,directory_online_WHAT_L2_uns.csv,What_UnsyncL2_testdirs.csv,WhatL2_unsync.wav,si,120:124,green,Online_whatL2//dSI26.none.wav,none,,0,0,0,1,0,27,27,4,0,1,1,2,,,,,,,,,,,,,,,,,,,,,,,,,,,,,,,,,,,,,,,,,,,,,,,,,,,,,,,,,,,,,0.018771599978208542,55.53114949999144,55.53114949999144,55.53114949999144,None,y,0.16249299998162314,,,,,,,,,,,,,,,,,,,,,,,,,,,,,,,,,,,,,,,,,,,,,,,337280,001,2023-06-06_15h54.56.973,Pilot_online_tryings,2022.2.5,59.9076104979296,
WhatL2_uns.csv,directory_online_WHAT_L2_uns.csv,What_UnsyncL2_testdirs.csv,WhatL2_unsync.wav,si,120:124,green,Online_whatL2//dSI25.none.wav,none,,0,0,0,1,0,27,27,4,0,2,2,1,,,,,,,,,,,,,,,,,,,,,,,,,,,,,,,,,,,,,,,,,,,,,,,,,,,,,,,,,,,,,0.0058729000156745315,55.722145800013095,55.722145800013095,55.722145800013095,None,y,0.17894409998552874,,,,,,,,,,,,,,,,,,,,,,,,,,,,,,,,,,,,,,,,,,,,,,,337280,001,2023-06-06_15h54.56.973,Pilot_online_tryings,2022.2.5,59.9076104979296,
WhatL2_uns.csv,directory_online_WHAT_L2_uns.csv,What_UnsyncL2_testdirs.csv,WhatL2_unsync.wav,si,120:124,green,Online_whatL2//dSI24.444.wav,444.0,,0,0,0,1,0,27,27,4,0,3,3,0,,,,,,,,,,,,,,,,,,,,,,,,,,,,,,,,,,,,,,,,,,,,,,,,,,,,,,,,,,,,,0.01884309999877587,55.93177020002622,55.93177020002622,55.93177020002622,None,y,0.13017149997176602,,,,,,,,,,,,,,,,,,,,,,,,,,,,,,,,,,,,,,,,,,,,,,,337280,001,2023-06-06_15h54.56.973,Pilot_online_tryings,2022.2.5,59.9076104979296,
WhatL2_uns.csv,directory_online_WHAT_L2_uns.csv,What_UnsyncL2_testdirs.csv,WhatL2_unsync.wav,si,120:124,green,,,,0,0,0,1,0,27,27,4,,,,,,,,,,,,,,,,,,,,,,,,,,,,,,,,,,,,,,,,,,,,,,,,,,,,,,,,,,,,,,,,,,,,,,,,,,,,,,,,,,,,,,,,,,,,,,,,,,,,,,,,,,,,,,,,,,,,,,337280,001,2023-06-06_15h54.56.973,Pilot_online_tryings,2022.2.5,59.9076104979296,
WhatL2_uns.csv,directory_online_WHAT_L2_uns.csv,What_UnsyncL2_testdirs.csv,WhatL2_unsync.wav,du,16:20,orange,Online_whatL2//aDU16.none.wav,none,,0,0,0,1,0,28,28,27,0,0,0,0,,,,,,,,,,,,,,,,,,,,,,,,,,,,,,,,,,,,,,,,,,,,,,,,,,,,,,,,,,,56.13099969999166,56.13099969999166,0.044713900017086416,56.13099969999166,56.13099969999166,56.13099969999166,None,y,0.1709932999801822,,,,,,,,,,,,,,,,,,,,,,,,,,,,,,,,,,,,,,,,,,,,,,,337280,001,2023-06-06_15h54.56.973,Pilot_online_tryings,2022.2.5,59.9076104979296,
WhatL2_uns.csv,directory_online_WHAT_L2_uns.csv,What_UnsyncL2_testdirs.csv,WhatL2_unsync.wav,du,16:20,orange,Online_whatL2//aDU19.888.wav,888.0,,0,0,0,1,0,28,28,27,0,1,1,3,,,,,,,,,,,,,,,,,,,,,,,,,,,,,,,,,,,,,,,,,,,,,,,,,,,,,,,,,,,,,0.02030249999370426,56.33482069999445,56.33482069999445,56.33482069999445,None,y,0.14368089998606592,,,,,,,,,,,,,,,,,,,,,,,,,,,,,,,,,,,,,,,,,,,,,,,337280,001,2023-06-06_15h54.56.973,Pilot_online_tryings,2022.2.5,59.9076104979296,
WhatL2_uns.csv,directory_online_WHAT_L2_uns.csv,What_UnsyncL2_testdirs.csv,WhatL2_unsync.wav,du,16:20,orange,Online_whatL2//aDU17.none.wav,none,,0,0,0,1,0,28,28,27,0,2,2,1,,,,,,,,,,,,,,,,,,,,,,,,,,,,,,,,,,,,,,,,,,,,,,,,,,,,,,,,,,,,,0.026327800005674362,56.52667440002551,56.52667440002551,56.52667440002551,None,y,0.12645290000364184,,,,,,,,,,,,,,,,,,,,,,,,,,,,,,,,,,,,,,,,,,,,,,,337280,001,2023-06-06_15h54.56.973,Pilot_online_tryings,2022.2.5,59.9076104979296,
WhatL2_uns.csv,directory_online_WHAT_L2_uns.csv,What_UnsyncL2_testdirs.csv,WhatL2_unsync.wav,du,16:20,orange,Online_whatL2//aDU18.none.wav,none,,0,0,0,1,0,28,28,27,0,3,3,2,,,,,,,,,,,,,,,,,,,,,,,,,,,,,,,,,,,,,,,,,,,,,,,,,,,,,,,,,,,,,0.03180120000615716,56.70946990000084,56.70946990000084,56.70946990000084,None,y,0.15198319999035448,,,,,,,,,,,,,,,,,,,,,,,,,,,,,,,,,,,,,,,,,,,,,,,337280,001,2023-06-06_15h54.56.973,Pilot_online_tryings,2022.2.5,59.9076104979296,
WhatL2_uns.csv,directory_online_WHAT_L2_uns.csv,What_UnsyncL2_testdirs.csv,WhatL2_unsync.wav,du,16:20,orange,,,,0,0,0,1,0,28,28,27,,,,,,,,,,,,,,,,,,,,,,,,,,,,,,,,,,,,,,,,,,,,,,,,,,,,,,,,,,,,,,,,,,,,,,,,,,,,,,,,,,,,,,,,,,,,,,,,,,,,,,,,,,,,,,,,,,,,,,337280,001,2023-06-06_15h54.56.973,Pilot_online_tryings,2022.2.5,59.9076104979296,
WhatL2_uns.csv,directory_online_WHAT_L2_uns.csv,What_UnsyncL2_testdirs.csv,WhatL2_unsync.wav,du,28:32,orange,Online_whatL2//aDU31.1776.wav,1776.0,,0,0,0,1,0,29,29,30,0,0,0,3,,,,,,,,,,,,,,,,,,,,,,,,,,,,,,,,,,,,,,,,,,,,,,,,,,,,,,,,,,,56.946690700016916,56.946690700016916,0.05864919995656237,56.946690700016916,56.946690700016916,56.946690700016916,None,y,0.3946416999679059,,,,,,,,,,,,,,,,,,,,,,,,,,,,,,,,,,,,,,,,,,,,,,,337280,001,2023-06-06_15h54.56.973,Pilot_online_tryings,2022.2.5,59.9076104979296,
WhatL2_uns.csv,directory_online_WHAT_L2_uns.csv,What_UnsyncL2_testdirs.csv,WhatL2_unsync.wav,du,28:32,orange,Online_whatL2//aDU28.none.wav,none,,0,0,0,1,0,29,29,30,0,1,1,0,,,,,,,,,,,,,,,,,,,,,,,,,,,,,,,,,,,,,,,,,,,,,,,,,,,,,,,,,,,,,0.01698650000616908,57.379900600004476,57.379900600004476,57.379900600004476,None,y,0.1705843000090681,,,,,,,,,,,,,,,,,,,,,,,,,,,,,,,,,,,,,,,,,,,,,,,337280,001,2023-06-06_15h54.56.973,Pilot_online_tryings,2022.2.5,59.9076104979296,
WhatL2_uns.csv,directory_online_WHAT_L2_uns.csv,What_UnsyncL2_testdirs.csv,WhatL2_unsync.wav,du,28:32,orange,Online_whatL2//aDU29.1776.wav,1776.0,,0,0,0,1,0,29,29,30,0,2,2,1,,,,,,,,,,,,,,,,,,,,,,,,,,,,,,,,,,,,,,,,,,,,,,,,,,,,,,,,,,,,,0.025993899966124445,57.59276080003474,57.59276080003474,57.59276080003474,None,y,0.16522519994759932,,,,,,,,,,,,,,,,,,,,,,,,,,,,,,,,,,,,,,,,,,,,,,,337280,001,2023-06-06_15h54.56.973,Pilot_online_tryings,2022.2.5,59.9076104979296,
WhatL2_uns.csv,directory_online_WHAT_L2_uns.csv,What_UnsyncL2_testdirs.csv,WhatL2_unsync.wav,du,28:32,orange,Online_whatL2//aDU30.1110.wav,1110.0,,0,0,0,1,0,29,29,30,0,3,3,2,,,,,,,,,,,,,,,,,,,,,,,,,,,,,,,,,,,,,,,,,,,,,,,,,,,,,,,,,,,,,0.023441100027412176,57.80268970003817,57.80268970003817,57.80268970003817,None,y,0.14633719995617867,,,,,,,,,,,,,,,,,,,,,,,,,,,,,,,,,,,,,,,,,,,,,,,337280,001,2023-06-06_15h54.56.973,Pilot_online_tryings,2022.2.5,59.9076104979296,
WhatL2_uns.csv,directory_online_WHAT_L2_uns.csv,What_UnsyncL2_testdirs.csv,WhatL2_unsync.wav,du,28:32,orange,,,,0,0,0,1,0,29,29,30,,,,,,,,,,,,,,,,,,,,,,,,,,,,,,,,,,,,,,,,,,,,,,,,,,,,,,,,,,,,,,,,,,,,,,,,,,,,,,,,,,,,,,,,,,,,,,,,,,,,,,,,,,,,,,,,,,,,,,337280,001,2023-06-06_15h54.56.973,Pilot_online_tryings,2022.2.5,59.9076104979296,
WhatL2_uns.csv,directory_online_WHAT_L2_uns.csv,What_UnsyncL2_testdirs.csv,WhatL2_unsync.wav,fe,40:44,red,Online_whatL2//bFE9.888.wav,888.0,,0,0,0,1,0,30,30,23,0,0,0,1,,,,,,,,,,,,,,,,,,,,,,,,,,,,,,,,,,,,,,,,,,,,,,,,,,,,,,,,,,,57.99384569999529,57.99384569999529,0.02262539998628199,57.99384569999529,57.99384569999529,57.99384569999529,None,y,0.16373139998177066,,,,,,,,,,,,,,,,,,,,,,,,,,,,,,,,,,,,,,,,,,,,,,,337280,001,2023-06-06_15h54.56.973,Pilot_online_tryings,2022.2.5,59.9076104979296,
WhatL2_uns.csv,directory_online_WHAT_L2_uns.csv,What_UnsyncL2_testdirs.csv,WhatL2_unsync.wav,fe,40:44,red,Online_whatL2//bFE11.none.wav,none,,0,0,0,1,0,30,30,23,0,1,1,3,,,,,,,,,,,,,,,,,,,,,,,,,,,,,,,,,,,,,,,,,,,,,,,,,,,,,,,,,,,,,0.02311129996087402,58.189957300026435,58.189957300026435,58.189957300026435,None,y,0.19236859999364242,,,,,,,,,,,,,,,,,,,,,,,,,,,,,,,,,,,,,,,,,,,,,,,337280,001,2023-06-06_15h54.56.973,Pilot_online_tryings,2022.2.5,59.9076104979296,
WhatL2_uns.csv,directory_online_WHAT_L2_uns.csv,What_UnsyncL2_testdirs.csv,WhatL2_unsync.wav,fe,40:44,red,Online_whatL2//bFE8.1110.wav,1110.0,,0,0,0,1,0,30,30,23,0,2,2,0,,,,,,,,,,,,,,,,,,,,,,,,,,,,,,,,,,,,,,,,,,,,,,,,,,,,,,,,,,,,,0.024521399987861514,58.42377860000124,58.42377860000124,58.42377860000124,None,y,0.1502980000223033,,,,,,,,,,,,,,,,,,,,,,,,,,,,,,,,,,,,,,,,,,,,,,,337280,001,2023-06-06_15h54.56.973,Pilot_online_tryings,2022.2.5,59.9076104979296,
WhatL2_uns.csv,directory_online_WHAT_L2_uns.csv,What_UnsyncL2_testdirs.csv,WhatL2_unsync.wav,fe,40:44,red,Online_whatL2//bFE10.none.wav,none,,0,0,0,1,0,30,30,23,0,3,3,2,,,,,,,,,,,,,,,,,,,,,,,,,,,,,,,,,,,,,,,,,,,,,,,,,,,,,,,,,,,,,0.026739599998109043,58.61008130002301,58.61008130002301,58.61008130002301,None,y,0.18803930003196,,,,,,,,,,,,,,,,,,,,,,,,,,,,,,,,,,,,,,,,,,,,,,,337280,001,2023-06-06_15h54.56.973,Pilot_online_tryings,2022.2.5,59.9076104979296,
WhatL2_uns.csv,directory_online_WHAT_L2_uns.csv,What_UnsyncL2_testdirs.csv,WhatL2_unsync.wav,fe,40:44,red,,,,0,0,0,1,0,30,30,23,,,,,,,,,,,,,,,,,,,,,,,,,,,,,,,,,,,,,,,,,,,,,,,,,,,,,,,,,,,,,,,,,,,,,,,,,,,,,,,,,,,,,,,,,,,,,,,,,,,,,,,,,,,,,,,,,,,,,,337280,001,2023-06-06_15h54.56.973,Pilot_online_tryings,2022.2.5,59.9076104979296,
WhatL2_uns.csv,directory_online_WHAT_L2_uns.csv,What_UnsyncL2_testdirs.csv,WhatL2_unsync.wav,cha,68:72,blue,Online_whatL2//cCHA6.444.wav,444.0,,0,0,0,1,0,31,31,16,0,0,0,2,,,,,,,,,,,,,,,,,,,,,,,,,,,,,,,,,,,,,,,,,,,,,,,,,,,,,,,,,,,58.8614310999983,58.8614310999983,0.03331339999567717,58.8614310999983,58.8614310999983,58.8614310999983,None,y,0.12808270001551136,,,,,,,,,,,,,,,,,,,,,,,,,,,,,,,,,,,,,,,,,,,,,,,337280,001,2023-06-06_15h54.56.973,Pilot_online_tryings,2022.2.5,59.9076104979296,
WhatL2_uns.csv,directory_online_WHAT_L2_uns.csv,What_UnsyncL2_testdirs.csv,WhatL2_unsync.wav,cha,68:72,blue,Online_whatL2//cCHA4.none.wav,none,,0,0,0,1,0,31,31,16,0,1,1,0,,,,,,,,,,,,,,,,,,,,,,,,,,,,,,,,,,,,,,,,,,,,,,,,,,,,,,,,,,,,,0.008054399979300797,59.009304100007284,59.009304100007284,59.009304100007284,None,y,0.20371680002426729,,,,,,,,,,,,,,,,,,,,,,,,,,,,,,,,,,,,,,,,,,,,,,,337280,001,2023-06-06_15h54.56.973,Pilot_online_tryings,2022.2.5,59.9076104979296,
WhatL2_uns.csv,directory_online_WHAT_L2_uns.csv,What_UnsyncL2_testdirs.csv,WhatL2_unsync.wav,cha,68:72,blue,Online_whatL2//cCHA7.1110.wav,1110.0,,0,0,0,1,0,31,31,16,0,2,2,3,,,,,,,,,,,,,,,,,,,,,,,,,,,,,,,,,,,,,,,,,,,,,,,,,,,,,,,,,,,,,0.013933699985500425,59.24839040002553,59.24839040002553,59.24839040002553,None,y,0.1744050999986939,,,,,,,,,,,,,,,,,,,,,,,,,,,,,,,,,,,,,,,,,,,,,,,337280,001,2023-06-06_15h54.56.973,Pilot_online_tryings,2022.2.5,59.9076104979296,
WhatL2_uns.csv,directory_online_WHAT_L2_uns.csv,What_UnsyncL2_testdirs.csv,WhatL2_unsync.wav,cha,68:72,blue,Online_whatL2//cCHA5.none.wav,none,,0,0,0,1,0,31,31,16,0,3,3,1,,,,,,,,,,,,,,,,,,,,,,,,,,,,,,,,,,,,,,,,,,,,,,,,,,,,,,,,,,,,,0.023166599974501878,59.46606270002667,59.46606270002667,59.46606270002667,None,y,0.1809023999958299,,,,,,,,,,,,,,,,,,,,,,,,,,,,,,,,,,,,,,,,,,,,,,,337280,001,2023-06-06_15h54.56.973,Pilot_online_tryings,2022.2.5,59.9076104979296,
WhatL2_uns.csv,directory_online_WHAT_L2_uns.csv,What_UnsyncL2_testdirs.csv,WhatL2_unsync.wav,cha,68:72,blue,,,,0,0,0,1,0,31,31,16,,,,,,,,,,,,,,,,,,,,,,,,,,,,,,,,,,,,,,,,,,,,,,,,,,,,,,,,,,,,,,,,,,,,,,,,,,,,,,,,,,,,,,,,,,,,,,,,,,,,,,,,,,,,,,,,,,,,,,337280,001,2023-06-06_15h54.56.973,Pilot_online_tryings,2022.2.5,59.9076104979296,
WhatL2_uns.csv,directory_online_WHAT_L2_uns.csv,What_UnsyncL2_testdirs.csv,WhatL2_unsync.wav,,,,,,testWhatL2Uns//time_viol.r2.s2.0.wav,0,0,0,1,,,,,,,,,0,0,0,23,,,,,,,,,,,,,,,,,,,,,,,,,,,,,,,,,,,,,,,,,,,,,,,,,,,,,,,,,,,,,,,,59.69031289999839,59.69031289999839,space,0.6750112000154331,60.39520930004073,60.39520930004073,space,0.8993960999650881,61.36075370002072,61.36075370002072,61.511315509997075,64.26376080000773,y,3.1646979000070132,64.54784230003133,64.54784230003133,z,0.49053439998533577,65.126553900016,65.126553900016,65.126553900016,65.126553900016,3,1.2556748000206426,,,,,,,,,,,,,,,,,,,,,,,337280,001,2023-06-06_15h54.56.973,Pilot_online_tryings,2022.2.5,59.9076104979296,
WhatL2_uns.csv,directory_online_WHAT_L2_uns.csv,What_UnsyncL2_testdirs.csv,WhatL2_unsync.wav,,,,,,testWhatL2Uns//cat_viol.r1.s1.0.wav,0,0,0,1,,,,,,,,,0,1,1,0,,,,,,,,,,,,,,,,,,,,,,,,,,,,,,,,,,,,,,,,,,,,,,,,,,,,,,,,,,,,,,,,,,,,,,,,66.44214230001671,66.44214230001671,66.59994911003741,,y,0.2600881999824196,66.73352110001724,66.73352110001724,z,0.1452286000130698,66.90072390000569,66.90072390000569,66.90072390000569,66.90072390000569,3,0.16964989999542013,,,,,,,,,,,,,,,,,,,,,,,337280,001,2023-06-06_15h54.56.973,Pilot_online_tryings,2022.2.5,59.9076104979296,
WhatL2_uns.csv,directory_online_WHAT_L2_uns.csv,What_UnsyncL2_testdirs.csv,WhatL2_unsync.wav,,,,,,testWhatL2Uns//time_viol.r2.s1.0.wav,0,0,0,1,,,,,,,,,0,2,2,22,,,,,,,,,,,,,,,,,,,,,,,,,,,,,,,,,,,,,,,,,,,,,,,,,,,,,,,,,,,,,,,,,,,,,,,,67.12239580001915,67.12239580001915,67.30087430999265,,y,0.1564659000141546,67.3009008000372,67.3009008000372,z,0.15401540003949776,67.48492830002215,67.48492830002215,67.48492830002215,67.48492830002215,3,0.16037860000506043,,,,,,,,,,,,,,,,,,,,,,,337280,001,2023-06-06_15h54.56.973,Pilot_online_tryings,2022.2.5,59.9076104979296,
WhatL2_uns.csv,directory_online_WHAT_L2_uns.csv,What_UnsyncL2_testdirs.csv,WhatL2_unsync.wav,,,,,,testWhatL2Uns//dep_viol.r1.s1.0.wav,0,0,0,1,,,,,,,,,0,3,3,4,,,,,,,,,,,,,,,,,,,,,,,,,,,,,,,,,,,,,,,,,,,,,,,,,,,,,,,,,,,,,,,,,,,,,,,,67.68873480003094,67.68873480003094,,,y,0.13311409996822476,67.85114280000562,67.85114280000562,z,0.13144570001168177,68.00187860004371,68.00187860004371,68.00187860004371,68.00187860004371,3,0.15612840000540018,,,,,,,,,,,,,,,,,,,,,,,337280,001,2023-06-06_15h54.56.973,Pilot_online_tryings,2022.2.5,59.9076104979296,
WhatL2_uns.csv,directory_online_WHAT_L2_uns.csv,What_UnsyncL2_testdirs.csv,WhatL2_unsync.wav,,,,,,testWhatL2Uns//r1.s1.1.wav,0,0,0,1,,,,,,,,,0,4,4,9,,,,,,,,,,,,,,,,,,,,,,,,,,,,,,,,,,,,,,,,,,,,,,,,,,,,,,,,,,,,,,,,,,,,,,,,68.22297740000067,68.22297740000067,,,y,0.1270803000079468,68.36911960004363,68.36911960004363,z,0.17283300001872703,68.56899550004164,68.56899550004164,68.56899550004164,68.56899550004164,3,0.1329433000064455,,,,,,,,,,,,,,,,,,,,,,,337280,001,2023-06-06_15h54.56.973,Pilot_online_tryings,2022.2.5,59.9076104979296,
WhatL2_uns.csv,directory_online_WHAT_L2_uns.csv,What_UnsyncL2_testdirs.csv,WhatL2_unsync.wav,,,,,,testWhatL2Uns//r1.s2.2.wav,0,0,0,1,,,,,,,,,0,5,5,13,,,,,,,,,,,,,,,,,,,,,,,,,,,,,,,,,,,,,,,,,,,,,,,,,,,,,,,,,,,,,,,,,,,,,,,,68.75999490002869,68.75999490002869,,,y,0.1188696000026539,68.90225530002499,68.90225530002499,z,0.13572570000542328,69.06981190002989,69.06981190002989,69.06981190002989,69.06981190002989,3,0.12783069995930418,,,,,,,,,,,,,,,,,,,,,,,337280,001,2023-06-06_15h54.56.973,Pilot_online_tryings,2022.2.5,59.9076104979296,
WhatL2_uns.csv,directory_online_WHAT_L2_uns.csv,What_UnsyncL2_testdirs.csv,WhatL2_unsync.wav,,,,,,testWhatL2Uns//cat_viol.r2.s2.0.wav,0,0,0,1,,,,,,,,,0,6,6,3,,,,,,,,,,,,,,,,,,,,,,,,,,,,,,,,,,,,,,,,,,,,,,,,,,,,,,,,,,,,,,,,,,,,,,,,69.23423910001293,69.23423910001293,,,y,0.14050980005413294,69.40508490003413,69.40508490003413,z,0.14371239999309182,69.57003970001824,69.57003970001824,69.57003970001824,69.57003970001824,3,0.12482629995793104,,,,,,,,,,,,,,,,,,,,,,,337280,001,2023-06-06_15h54.56.973,Pilot_online_tryings,2022.2.5,59.9076104979296,
WhatL2_uns.csv,directory_online_WHAT_L2_uns.csv,What_UnsyncL2_testdirs.csv,WhatL2_unsync.wav,,,,,,testWhatL2Uns//dep_viol.r2.s1.0.wav,0,0,0,1,,,,,,,,,0,7,7,6,,,,,,,,,,,,,,,,,,,,,,,,,,,,,,,,,,,,,,,,,,,,,,,,,,,,,,,,,,,,,,,,,,,,,,,,69.7480699000298,69.7480699000298,,,y,0.10541459999512881,69.86999590002233,69.86999590002233,z,0.14405930001521483,70.03902840003138,70.03902840003138,70.03902840003138,70.03902840003138,3,0.11934989999281242,,,,,,,,,,,,,,,,,,,,,,,337280,001,2023-06-06_15h54.56.973,Pilot_online_tryings,2022.2.5,59.9076104979296,
WhatL2_uns.csv,directory_online_WHAT_L2_uns.csv,What_UnsyncL2_testdirs.csv,WhatL2_unsync.wav,,,,,,testWhatL2Uns//r1.s2.1.wav,0,0,0,1,,,,,,,,,0,8,8,12,,,,,,,,,,,,,,,,,,,,,,,,,,,,,,,,,,,,,,,,,,,,,,,,,,,,,,,,,,,,,,,,,,,,,,,,70.21615749999182,70.21615749999182,,,y,0.10206820000894368,70.3370723000262,70.3370723000262,z,0.15694479999365285,70.52096140000504,70.52096140000504,70.52096140000504,70.52096140000504,3,0.11859229998663068,,,,,,,,,,,,,,,,,,,,,,,337280,001,2023-06-06_15h54.56.973,Pilot_online_tryings,2022.2.5,59.9076104979296,
WhatL2_uns.csv,directory_online_WHAT_L2_uns.csv,What_UnsyncL2_testdirs.csv,WhatL2_unsync.wav,,,,,,testWhatL2Uns//r2.s2.2.wav,0,0,0,1,,,,,,,,,0,9,9,19,,,,,,,,,,,,,,,,,,,,,,,,,,,,,,,,,,,,,,,,,,,,,,,,,,,,,,,,,,,,,,,,,,,,,,,,70.67787080002017,70.67787080002017,,,y,0.12129550002282485,70.82081190001918,70.82081190001918,z,0.15283660002751276,71.00480910000624,71.00480910000624,71.00480910000624,71.00480910000624,3,0.08076770004117861,,,,,,,,,,,,,,,,,,,,,,,337280,001,2023-06-06_15h54.56.973,Pilot_online_tryings,2022.2.5,59.9076104979296,
WhatL2_uns.csv,directory_online_WHAT_L2_uns.csv,What_UnsyncL2_testdirs.csv,WhatL2_unsync.wav,,,,,,testWhatL2Uns//r1.s1.0.wav,0,0,0,1,,,,,,,,,0,10,10,8,,,,,,,,,,,,,,,,,,,,,,,,,,,,,,,,,,,,,,,,,,,,,,,,,,,,,,,,,,,,,,,,,,,,,,,,71.10939410002902,71.10939410002902,,,y,0.1533956999774091,71.28802340000402,71.28802340000402,z,0.13585510000120848,71.45520820003003,71.45520820003003,71.45520820003003,71.45520820003003,3,0.09504990000277758,,,,,,,,,,,,,,,,,,,,,,,337280,001,2023-06-06_15h54.56.973,Pilot_online_tryings,2022.2.5,59.9076104979296,
WhatL2_uns.csv,directory_online_WHAT_L2_uns.csv,What_UnsyncL2_testdirs.csv,WhatL2_unsync.wav,,,,,,testWhatL2Uns//dep_viol.r2.s2.0.wav,0,0,0,1,,,,,,,,,0,11,11,7,,,,,,,,,,,,,,,,,,,,,,,,,,,,,,,,,,,,,,,,,,,,,,,,,,,,,,,,,,,,,,,,,,,,,,,,71.57691140001407,71.57691140001407,,,y,0.13422379997791722,71.73877550003817,71.73877550003817,z,0.14654789998894557,71.90569169999799,71.90569169999799,71.90569169999799,71.90569169999799,3,0.09334399999352172,,,,,,,,,,,,,,,,,,,,,,,337280,001,2023-06-06_15h54.56.973,Pilot_online_tryings,2022.2.5,59.9076104979296,
WhatL2_uns.csv,directory_online_WHAT_L2_uns.csv,What_UnsyncL2_testdirs.csv,WhatL2_unsync.wav,,,,,,testWhatL2Uns//r2.s2.1.wav,0,0,0,1,,,,,,,,,0,12,12,18,,,,,,,,,,,,,,,,,,,,,,,,,,,,,,,,,,,,,,,,,,,,,,,,,,,,,,,,,,,,,,,,,,,,,,,,72.05314670002554,72.05314670002554,72.2220064100402,,y,0.15254659997299314,72.22233250003774,72.22233250003774,z,0.1435048000421375,72.38949840003625,72.38949840003625,72.38949840003625,72.38949840003625,3,0.10390929999994114,,,,,,,,,,,,,,,,,,,,,,,337280,001,2023-06-06_15h54.56.973,Pilot_online_tryings,2022.2.5,59.9076104979296,
WhatL2_uns.csv,directory_online_WHAT_L2_uns.csv,What_UnsyncL2_testdirs.csv,WhatL2_unsync.wav,,,,,,testWhatL2Uns//r2.s1.2.wav,0,0,0,1,,,,,,,,,0,13,13,16,,,,,,,,,,,,,,,,,,,,,,,,,,,,,,,,,,,,,,,,,,,,,,,,,,,,,,,,,,,,,,,,,,,,,,,,72.54253340000287,72.54253340000287,,,y,0.11340229999041185,72.67947580001783,72.67947580001783,z,0.1353623999748379,72.83992890000809,72.83992890000809,72.83992890000809,72.83992890000809,3,0.13437669997802004,,,,,,,,,,,,,,,,,,,,,,,337280,001,2023-06-06_15h54.56.973,Pilot_online_tryings,2022.2.5,59.9076104979296,
WhatL2_uns.csv,directory_online_WHAT_L2_uns.csv,What_UnsyncL2_testdirs.csv,WhatL2_unsync.wav,,,,,,testWhatL2Uns//cat_viol.r2.s1.0.wav,0,0,0,1,,,,,,,,,0,14,14,2,,,,,,,,,,,,,,,,,,,,,,,,,,,,,,,,,,,,,,,,,,,,,,,,,,,,,,,,,,,,,,,,,,,,,,,,73.02838530001463,73.02838530001463,,,y,0.10551320004742593,73.15676310000708,73.15676310000708,z,0.15252929995767772,73.34066129999701,73.34066129999701,73.34066129999701,73.34066129999701,3,0.09749809995992109,,,,,,,,,,,,,,,,,,,,,,,337280,001,2023-06-06_15h54.56.973,Pilot_online_tryings,2022.2.5,59.9076104979296,
WhatL2_uns.csv,directory_online_WHAT_L2_uns.csv,What_UnsyncL2_testdirs.csv,WhatL2_unsync.wav,,,,,,testWhatL2Uns//cat_viol.r1.s2.0.wav,0,0,0,1,,,,,,,,,0,15,15,1,,,,,,,,,,,,,,,,,,,,,,,,,,,,,,,,,,,,,,,,,,,,,,,,,,,,,,,,,,,,,,,,,,,,,,,,73.468379500031,73.468379500031,,,y,0.14506060001440346,73.6402928000316,73.6402928000316,z,0.13345649995608255,73.79073380003683,73.79073380003683,73.79073380003683,73.79073380003683,3,0.09560669999336824,,,,,,,,,,,,,,,,,,,,,,,337280,001,2023-06-06_15h54.56.973,Pilot_online_tryings,2022.2.5,59.9076104979296,
WhatL2_uns.csv,directory_online_WHAT_L2_uns.csv,What_UnsyncL2_testdirs.csv,WhatL2_unsync.wav,,,,,,testWhatL2Uns//dep_viol.r1.s2.0.wav,0,0,0,1,,,,,,,,,0,16,16,5,,,,,,,,,,,,,,,,,,,,,,,,,,,,,,,,,,,,,,,,,,,,,,,,,,,,,,,,,,,,,,,,,,,,,,,,73.93934250000166,73.93934250000166,,,y,0.12235829996643588,74.09066410001833,74.09066410001833,z,0.11766099999658763,74.22910930000944,74.22910930000944,74.22910930000944,74.22910930000944,3,0.12064089998602867,,,,,,,,,,,,,,,,,,,,,,,337280,001,2023-06-06_15h54.56.973,Pilot_online_tryings,2022.2.5,59.9076104979296,
WhatL2_uns.csv,directory_online_WHAT_L2_uns.csv,What_UnsyncL2_testdirs.csv,WhatL2_unsync.wav,,,,,,testWhatL2Uns//r1.s1.2.wav,0,0,0,1,,,,,,,,,0,17,17,10,,,,,,,,,,,,,,,,,,,,,,,,,,,,,,,,,,,,,,,,,,,,,,,,,,,,,,,,,,,,,,,,,,,,,,,,74.4434057000326,74.4434057000326,,,y,0.06614380003884435,74.54145890002837,74.54145890002837,z,0.14458849997026846,74.70865710004,74.70865710004,74.70865710004,74.70865710004,3,0.13690360001055524,,,,,,,,,,,,,,,,,,,,,,,337280,001,2023-06-06_15h54.56.973,Pilot_online_tryings,2022.2.5,59.9076104979296,
WhatL2_uns.csv,directory_online_WHAT_L2_uns.csv,What_UnsyncL2_testdirs.csv,WhatL2_unsync.wav,,,,,,testWhatL2Uns//time_viol.r1.s2.0.wav,0,0,0,1,,,,,,,,,0,18,18,21,,,,,,,,,,,,,,,,,,,,,,,,,,,,,,,,,,,,,,,,,,,,,,,,,,,,,,,,,,,,,,,,,,,,,,,,74.89793570002075,74.89793570002075,,,y,0.10803219996159896,75.02497010002844,75.02497010002844,z,0.6371893000323325,75.69315310003003,75.69315310003003,75.69315310003003,75.69315310003003,3,0.20881069998722523,,,,,,,,,,,,,,,,,,,,,,,337280,001,2023-06-06_15h54.56.973,Pilot_online_tryings,2022.2.5,59.9076104979296,
WhatL2_uns.csv,directory_online_WHAT_L2_uns.csv,What_UnsyncL2_testdirs.csv,WhatL2_unsync.wav,,,,,,testWhatL2Uns//r2.s2.0.wav,0,0,0,1,,,,,,,,,0,19,19,17,,,,,,,,,,,,,,,,,,,,,,,,,,,,,,,,,,,,,,,,,,,,,,,,,,,,,,,,,,,,,,,,,,,,,,,,75.99056980002206,75.99056980002206,76.12560530999326,,y,0.483652200025972,76.50988540000981,76.50988540000981,z,0.14495250000618398,76.68449910002528,76.68449910002528,76.68449910002528,76.68449910002528,3,0.19348570000147447,,,,,,,,,,,,,,,,,,,,,,,337280,001,2023-06-06_15h54.56.973,Pilot_online_tryings,2022.2.5,59.9076104979296,
WhatL2_uns.csv,directory_online_WHAT_L2_uns.csv,What_UnsyncL2_testdirs.csv,WhatL2_unsync.wav,,,,,,testWhatL2Uns//r2.s1.0.wav,0,0,0,1,,,,,,,,,0,20,20,14,,,,,,,,,,,,,,,,,,,,,,,,,,,,,,,,,,,,,,,,,,,,,,,,,,,,,,,,,,,,,,,,,,,,,,,,76.92160510004032,76.92160510004032,77.09337011000025,,y,1.2846739999949932,78.2284018000355,78.2284018000355,z,0.47381769999628887,78.72990090004168,78.72990090004168,78.72990090004168,78.72990090004168,3,2.516354700026568,,,,,,,,,,,,,,,,,,,,,,,337280,001,2023-06-06_15h54.56.973,Pilot_online_tryings,2022.2.5,59.9076104979296,
WhatL2_uns.csv,directory_online_WHAT_L2_uns.csv,What_UnsyncL2_testdirs.csv,WhatL2_unsync.wav,,,,,,testWhatL2Uns//r1.s2.0.wav,0,0,0,1,,,,,,,,,0,21,21,11,,,,,,,,,,,,,,,,,,,,,,,,,,,,,,,,,,,,,,,,,,,,,,,,,,,,,,,,,,,,,,,,,,,,,,,,81.29305890004616,81.29305890004616,81.4643491099996,,y,0.560844800027553,81.88187390001258,81.88187390001258,z,0.14772830001311377,82.05518070003018,82.05518070003018,82.05518070003018,82.05518070003018,3,0.15091880003456026,,,,,,,,,,,,,,,,,,,,,,,337280,001,2023-06-06_15h54.56.973,Pilot_online_tryings,2022.2.5,59.9076104979296,
WhatL2_uns.csv,directory_online_WHAT_L2_uns.csv,What_UnsyncL2_testdirs.csv,WhatL2_unsync.wav,,,,,,testWhatL2Uns//time_viol.r1.s1.0.wav,0,0,0,1,,,,,,,,,0,22,22,20,,,,,,,,,,,,,,,,,,,,,,,,,,,,,,,,,,,,,,,,,,,,,,,,,,,,,,,,,,,,,,,,,,,,,,,,82.25924410001608,82.25924410001608,,,y,0.13888650003354996,82.41586750000715,82.41586750000715,z,0.15776019997429103,82.60262910003075,82.60262910003075,82.60262910003075,82.60262910003075,3,0.1475382000207901,,,,,,,,,,,,,,,,,,,,,,,337280,001,2023-06-06_15h54.56.973,Pilot_online_tryings,2022.2.5,59.9076104979296,
WhatL2_uns.csv,directory_online_WHAT_L2_uns.csv,What_UnsyncL2_testdirs.csv,WhatL2_unsync.wav,,,,,,testWhatL2Uns//r2.s1.1.wav,0,0,0,1,,,,,,,,,0,23,23,15,,,,,,,,,,,,,,,,,,,,,,,,,,,,,,,,,,,,,,,,,,,,,,,,,,,,,,,,,,,,,,,,,,,,,,,,82.78436079999665,82.78436079999665,82.96612001003814,,y,0.15710730000864714,82.96630850003567,82.96630850003567,z,0.15165049995994195,83.15006499999436,83.15006499999436,83.15006499999436,83.15006499999436,3,0.12746109999716282,,,,,,,,,,,,,,,,,,,,,,,337280,001,2023-06-06_15h54.56.973,Pilot_online_tryings,2022.2.5,59.9076104979296,
WhatL2_uns.csv,directory_online_WHAT_L2_uns.csv,What_UnsyncL2_testdirs.csv,WhatL2_unsync.wav,,,,,,,0,0,0,1,,,,,,,,,,,,,,,,,,,,,,,,,,,,,,,,,,,,,,,,,,,,,,,,,,,,,,,,,,,,,,,,,,,,,,,,,,,,,,,,,,,,,,,,,,,,,,,,,,,,83.300024199998,83.300024199998,space,0.6182242999784648,,,,,,,,,,,,,,,,,,,337280,001,2023-06-06_15h54.56.973,Pilot_online_tryings,2022.2.5,59.9076104979296,
ConjL4_syn.csv,directory_online_conj_L4_syn.csv,Test_Conj_SyncL4.csv,ConjL4_sync.wav,pe,120:124,red,Online_conjL4_syn//dPE25.none.wav,none,,0,1,1,3,0,0,0,24,0,0,0,1,,,,,,,,,,,,,,,,,,,,,,,,,,,,,,,,,,,,,,,,,,,,,,83.95172990002902,83.95172990002902,space,0.35073589999228716,84.70257314003538,84.71232330001658,84.71232330001658,space,5.494241400039755,90.22456649999367,90.22456649999367,space,0.7813996999757364,91.10867480002344,91.10867480002344,0.05865110002923757,91.10867480002344,91.10867480002344,91.10867480002344,None,y,0.9207037999876775,,,,,,,,,,,,,,,,,,,,,,,,,,,,,,,,,,,,,,,,,,,,,,,337280,001,2023-06-06_15h54.56.973,Pilot_online_tryings,2022.2.5,59.9076104979296,
ConjL4_syn.csv,directory_online_conj_L4_syn.csv,Test_Conj_SyncL4.csv,ConjL4_sync.wav,pe,120:124,red,Online_conjL4_syn//dPE26.none.wav,none,,0,1,1,3,0,0,0,24,0,1,1,2,,,,,,,,,,,,,,,,,,,,,,,,,,,,,,,,,,,,,,,,,,,,,,,,,,,,,,,,,,,,,0.021283900015987456,92.07136340002762,92.07136340002762,92.07136340002762,None,y,0.14991390000795946,,,,,,,,,,,,,,,,,,,,,,,,,,,,,,,,,,,,,,,,,,,,,,,337280,001,2023-06-06_15h54.56.973,Pilot_online_tryings,2022.2.5,59.9076104979296,
ConjL4_syn.csv,directory_online_conj_L4_syn.csv,Test_Conj_SyncL4.csv,ConjL4_sync.wav,pe,120:124,red,Online_conjL4_syn//dPE24.1110.wav,1110.0,,0,1,1,3,0,0,0,24,0,2,2,0,,,,,,,,,,,,,,,,,,,,,,,,,,,,,,,,,,,,,,,,,,,,,,,,,,,,,,,,,,,,,0.041789199982304126,92.28715200000443,92.28715200000443,92.28715200000443,None,y,0.11034419998759404,,,,,,,,,,,,,,,,,,,,,,,,,,,,,,,,,,,,,,,,,,,,,,,337280,001,2023-06-06_15h54.56.973,Pilot_online_tryings,2022.2.5,59.9076104979296,
ConjL4_syn.csv,directory_online_conj_L4_syn.csv,Test_Conj_SyncL4.csv,ConjL4_sync.wav,pe,120:124,red,Online_conjL4_syn//dPE27.none.wav,none,,0,1,1,3,0,0,0,24,0,3,3,3,,,,,,,,,,,,,,,,,,,,,,,,,,,,,,,,,,,,,,,,,,,,,,,,,,,,,,,,,,,,,0.03493460000026971,92.45394289999967,92.45394289999967,92.45394289999967,None,y,0.18313430005218834,,,,,,,,,,,,,,,,,,,,,,,,,,,,,,,,,,,,,,,,,,,,,,,337280,001,2023-06-06_15h54.56.973,Pilot_online_tryings,2022.2.5,59.9076104979296,
ConjL4_syn.csv,directory_online_conj_L4_syn.csv,Test_Conj_SyncL4.csv,ConjL4_sync.wav,pe,120:124,red,,,,0,1,1,3,0,0,0,24,,,,,,,,,,,,,,,,,,,,,,,,,,,,,,,,,,,,,,,,,,,,,,,,,,,,,,,,,,,,,,,,,,,,,,,,,,,,,,,,,,,,,,,,,,,,,,,,,,,,,,,,,,,,,,,,,,,,,,337280,001,2023-06-06_15h54.56.973,Pilot_online_tryings,2022.2.5,59.9076104979296,
ConjL4_syn.csv,directory_online_conj_L4_syn.csv,Test_Conj_SyncL4.csv,ConjL4_sync.wav,bu,68:72,orange,Online_conjL4_syn//cBU6.none.wav,none,,0,1,1,3,0,1,1,18,0,0,0,2,,,,,,,,,,,,,,,,,,,,,,,,,,,,,,,,,,,,,,,,,,,,,,,,,,,,,,,,,,,92.69809000001987,92.69809000001987,0.03616010001860559,92.69809000001987,92.69809000001987,92.69809000001987,None,y,0.1475198999978602,,,,,,,,,,,,,,,,,,,,,,,,,,,,,,,,,,,,,,,,,,,,,,,337280,001,2023-06-06_15h54.56.973,Pilot_online_tryings,2022.2.5,59.9076104979296,
ConjL4_syn.csv,directory_online_conj_L4_syn.csv,Test_Conj_SyncL4.csv,ConjL4_sync.wav,bu,68:72,orange,Online_conjL4_syn//cBU4.none.wav,none,,0,1,1,3,0,1,1,18,0,1,1,0,,,,,,,,,,,,,,,,,,,,,,,,,,,,,,,,,,,,,,,,,,,,,,,,,,,,,,,,,,,,,0.006251999991945922,92.87570239999332,92.87570239999332,92.87570239999332,None,y,0.14534599997568876,,,,,,,,,,,,,,,,,,,,,,,,,,,,,,,,,,,,,,,,,,,,,,,337280,001,2023-06-06_15h54.56.973,Pilot_online_tryings,2022.2.5,59.9076104979296,
ConjL4_syn.csv,directory_online_conj_L4_syn.csv,Test_Conj_SyncL4.csv,ConjL4_sync.wav,bu,68:72,orange,Online_conjL4_syn//cBU7.0.wav,0.0,,0,1,1,3,0,1,1,18,0,2,2,3,,,,,,,,,,,,,,,,,,,,,,,,,,,,,,,,,,,,,,,,,,,,,,,,,,,,,,,,,,,,,0.024578100012149662,93.0629437000025,93.0629437000025,93.0629437000025,None,y,0.13448190002236515,,,,,,,,,,,,,,,,,,,,,,,,,,,,,,,,,,,,,,,,,,,,,,,337280,001,2023-06-06_15h54.56.973,Pilot_online_tryings,2022.2.5,59.9076104979296,
ConjL4_syn.csv,directory_online_conj_L4_syn.csv,Test_Conj_SyncL4.csv,ConjL4_sync.wav,bu,68:72,orange,Online_conjL4_syn//cBU5.none.wav,none,,0,1,1,3,0,1,1,18,0,3,3,1,,,,,,,,,,,,,,,,,,,,,,,,,,,,,,,,,,,,,,,,,,,,,,,,,,,,,,,,,,,,,0.007619699987117201,93.22630660003051,93.22630660003051,93.22630660003051,None,y,0.1310003999969922,,,,,,,,,,,,,,,,,,,,,,,,,,,,,,,,,,,,,,,,,,,,,,,337280,001,2023-06-06_15h54.56.973,Pilot_online_tryings,2022.2.5,59.9076104979296,
ConjL4_syn.csv,directory_online_conj_L4_syn.csv,Test_Conj_SyncL4.csv,ConjL4_sync.wav,bu,68:72,orange,,,,0,1,1,3,0,1,1,18,,,,,,,,,,,,,,,,,,,,,,,,,,,,,,,,,,,,,,,,,,,,,,,,,,,,,,,,,,,,,,,,,,,,,,,,,,,,,,,,,,,,,,,,,,,,,,,,,,,,,,,,,,,,,,,,,,,,,,337280,001,2023-06-06_15h54.56.973,Pilot_online_tryings,2022.2.5,59.9076104979296,
ConjL4_syn.csv,directory_online_conj_L4_syn.csv,Test_Conj_SyncL4.csv,ConjL4_sync.wav,ja,40:44,green,Online_conjL4_syn//bJA9.none.wav,none,,0,1,1,3,0,2,2,21,0,0,0,1,,,,,,,,,,,,,,,,,,,,,,,,,,,,,,,,,,,,,,,,,,,,,,,,,,,,,,,,,,,93.41190820001066,93.41190820001066,0.03442100004758686,93.41190820001066,93.41190820001066,93.41190820001066,None,y,0.10585579997859895,,,,,,,,,,,,,,,,,,,,,,,,,,,,,,,,,,,,,,,,,,,,,,,337280,001,2023-06-06_15h54.56.973,Pilot_online_tryings,2022.2.5,59.9076104979296,
ConjL4_syn.csv,directory_online_conj_L4_syn.csv,Test_Conj_SyncL4.csv,ConjL4_sync.wav,ja,40:44,green,Online_conjL4_syn//bJA11.none.wav,none,,0,1,1,3,0,2,2,21,0,1,1,3,,,,,,,,,,,,,,,,,,,,,,,,,,,,,,,,,,,,,,,,,,,,,,,,,,,,,,,,,,,,,0.019679800025187433,93.5556254000403,93.5556254000403,93.5556254000403,None,y,0.12176299997372553,,,,,,,,,,,,,,,,,,,,,,,,,,,,,,,,,,,,,,,,,,,,,,,337280,001,2023-06-06_15h54.56.973,Pilot_online_tryings,2022.2.5,59.9076104979296,
ConjL4_syn.csv,directory_online_conj_L4_syn.csv,Test_Conj_SyncL4.csv,ConjL4_sync.wav,ja,40:44,green,Online_conjL4_syn//bJA8.none.wav,none,,0,1,1,3,0,2,2,21,0,2,2,0,,,,,,,,,,,,,,,,,,,,,,,,,,,,,,,,,,,,,,,,,,,,,,,,,,,,,,,,,,,,,0.014757000026293099,93.70168940001167,93.70168940001167,93.70168940001167,None,y,0.13636180001776665,,,,,,,,,,,,,,,,,,,,,,,,,,,,,,,,,,,,,,,,,,,,,,,337280,001,2023-06-06_15h54.56.973,Pilot_online_tryings,2022.2.5,59.9076104979296,
ConjL4_syn.csv,directory_online_conj_L4_syn.csv,Test_Conj_SyncL4.csv,ConjL4_sync.wav,ja,40:44,green,Online_conjL4_syn//bJA10.none.wav,none,,0,1,1,3,0,2,2,21,0,3,3,2,,,,,,,,,,,,,,,,,,,,,,,,,,,,,,,,,,,,,,,,,,,,,,,,,,,,,,,,,,,,,0.006220799987204373,93.86025070003234,93.86025070003234,93.86025070003234,None,y,0.1384278999757953,,,,,,,,,,,,,,,,,,,,,,,,,,,,,,,,,,,,,,,,,,,,,,,337280,001,2023-06-06_15h54.56.973,Pilot_online_tryings,2022.2.5,59.9076104979296,
ConjL4_syn.csv,directory_online_conj_L4_syn.csv,Test_Conj_SyncL4.csv,ConjL4_sync.wav,ja,40:44,green,,,,0,1,1,3,0,2,2,21,,,,,,,,,,,,,,,,,,,,,,,,,,,,,,,,,,,,,,,,,,,,,,,,,,,,,,,,,,,,,,,,,,,,,,,,,,,,,,,,,,,,,,,,,,,,,,,,,,,,,,,,,,,,,,,,,,,,,,337280,001,2023-06-06_15h54.56.973,Pilot_online_tryings,2022.2.5,59.9076104979296,
ConjL4_syn.csv,directory_online_conj_L4_syn.csv,Test_Conj_SyncL4.csv,ConjL4_sync.wav,bu,76:80,orange,Online_conjL4_syn//cBU15.1110.wav,1110.0,,0,1,1,3,0,3,3,30,0,0,0,3,,,,,,,,,,,,,,,,,,,,,,,,,,,,,,,,,,,,,,,,,,,,,,,,,,,,,,,,,,,94.05076980002923,94.05076980002923,0.025200300035066903,94.05076980002923,94.05076980002923,94.05076980002923,None,y,0.10618840000825003,,,,,,,,,,,,,,,,,,,,,,,,,,,,,,,,,,,,,,,,,,,,,,,337280,001,2023-06-06_15h54.56.973,Pilot_online_tryings,2022.2.5,59.9076104979296,
ConjL4_syn.csv,directory_online_conj_L4_syn.csv,Test_Conj_SyncL4.csv,ConjL4_sync.wav,bu,76:80,orange,Online_conjL4_syn//cBU12.222.wav,222.0,,0,1,1,3,0,3,3,30,0,1,1,0,,,,,,,,,,,,,,,,,,,,,,,,,,,,,,,,,,,,,,,,,,,,,,,,,,,,,,,,,,,,,0.01986519998172298,94.19021060003433,94.19021060003433,94.19021060003433,None,y,0.1433668999816291,,,,,,,,,,,,,,,,,,,,,,,,,,,,,,,,,,,,,,,,,,,,,,,337280,001,2023-06-06_15h54.56.973,Pilot_online_tryings,2022.2.5,59.9076104979296,
ConjL4_syn.csv,directory_online_conj_L4_syn.csv,Test_Conj_SyncL4.csv,ConjL4_sync.wav,bu,76:80,orange,Online_conjL4_syn//cBU13.none.wav,none,,0,1,1,3,0,3,3,30,0,2,2,1,,,,,,,,,,,,,,,,,,,,,,,,,,,,,,,,,,,,,,,,,,,,,,,,,,,,,,,,,,,,,0.018246999999973923,94.37393310002517,94.37393310002517,94.37393310002517,None,y,0.11934720003046095,,,,,,,,,,,,,,,,,,,,,,,,,,,,,,,,,,,,,,,,,,,,,,,337280,001,2023-06-06_15h54.56.973,Pilot_online_tryings,2022.2.5,59.9076104979296,
ConjL4_syn.csv,directory_online_conj_L4_syn.csv,Test_Conj_SyncL4.csv,ConjL4_sync.wav,bu,76:80,orange,Online_conjL4_syn//cBU14.444.wav,444.0,,0,1,1,3,0,3,3,30,0,3,3,2,,,,,,,,,,,,,,,,,,,,,,,,,,,,,,,,,,,,,,,,,,,,,,,,,,,,,,,,,,,,,0.025481900025624782,94.53079400002025,94.53079400002025,94.53079400002025,None,y,0.13890239997999743,,,,,,,,,,,,,,,,,,,,,,,,,,,,,,,,,,,,,,,,,,,,,,,337280,001,2023-06-06_15h54.56.973,Pilot_online_tryings,2022.2.5,59.9076104979296,
ConjL4_syn.csv,directory_online_conj_L4_syn.csv,Test_Conj_SyncL4.csv,ConjL4_sync.wav,bu,76:80,orange,,,,0,1,1,3,0,3,3,30,,,,,,,,,,,,,,,,,,,,,,,,,,,,,,,,,,,,,,,,,,,,,,,,,,,,,,,,,,,,,,,,,,,,,,,,,,,,,,,,,,,,,,,,,,,,,,,,,,,,,,,,,,,,,,,,,,,,,,337280,001,2023-06-06_15h54.56.973,Pilot_online_tryings,2022.2.5,59.9076104979296,
ConjL4_syn.csv,directory_online_conj_L4_syn.csv,Test_Conj_SyncL4.csv,ConjL4_sync.wav,ja,52:56,green,Online_conjL4_syn//bJA22.none.wav,none,,0,1,1,3,0,4,4,5,0,0,0,2,,,,,,,,,,,,,,,,,,,,,,,,,,,,,,,,,,,,,,,,,,,,,,,,,,,,,,,,,,,94.7303526000469,94.7303526000469,0.0382056999951601,94.7303526000469,94.7303526000469,94.7303526000469,None,y,0.08319119998486713,,,,,,,,,,,,,,,,,,,,,,,,,,,,,,,,,,,,,,,,,,,,,,,337280,001,2023-06-06_15h54.56.973,Pilot_online_tryings,2022.2.5,59.9076104979296,
ConjL4_syn.csv,directory_online_conj_L4_syn.csv,Test_Conj_SyncL4.csv,ConjL4_sync.wav,ja,52:56,green,Online_conjL4_syn//bJA23.666.wav,666.0,,0,1,1,3,0,4,4,5,0,1,1,3,,,,,,,,,,,,,,,,,,,,,,,,,,,,,,,,,,,,,,,,,,,,,,,,,,,,,,,,,,,,,0.006469200015999377,94.84444449999137,94.84444449999137,94.84444449999137,None,y,0.12958020000951365,,,,,,,,,,,,,,,,,,,,,,,,,,,,,,,,,,,,,,,,,,,,,,,337280,001,2023-06-06_15h54.56.973,Pilot_online_tryings,2022.2.5,59.9076104979296,
ConjL4_syn.csv,directory_online_conj_L4_syn.csv,Test_Conj_SyncL4.csv,ConjL4_sync.wav,ja,52:56,green,Online_conjL4_syn//bJA20.666.wav,666.0,,0,1,1,3,0,4,4,5,0,2,2,0,,,,,,,,,,,,,,,,,,,,,,,,,,,,,,,,,,,,,,,,,,,,,,,,,,,,,,,,,,,,,0.00725829997099936,94.99453300004825,94.99453300004825,94.99453300004825,None,y,0.18699519999790937,,,,,,,,,,,,,,,,,,,,,,,,,,,,,,,,,,,,,,,,,,,,,,,337280,001,2023-06-06_15h54.56.973,Pilot_online_tryings,2022.2.5,59.9076104979296,
