seq,online_dir,test_dir,audio_offline,cond,ord,colour,dirs,time,test,dirs_what,trials.thisRepN,trials.thisTrialN,trials.thisN,trials.thisIndex,Conj_unsync_online.thisRepN,Conj_unsync_online.thisTrialN,Conj_unsync_online.thisN,Conj_unsync_online.thisIndex,audio1.thisRepN,audio1.thisTrialN,audio1.thisN,audio1.thisIndex,Conj_unsync_test.thisRepN,Conj_unsync_test.thisTrialN,Conj_unsync_test.thisN,Conj_unsync_test.thisIndex,text_21.started,key_resp1.started,key_resp1.keys,key_resp1.rt,text_23.started,key_resp_6.started,key_resp_6.keys,key_resp_6.rt,text_26.started,key_resp_10.started,key_resp_10.keys,key_resp_10.rt,volume_set.started,key_ressp2.started,text_27.started,key_ressp2.keys,key_ressp2.rt,text_24.started,key_resp_9.started,key_resp_9.keys,key_resp_9.rt,text_22.started,key_resp1_2.started,key_resp1_2.keys,key_resp1_2.rt,text_25.started,key_resp1_3.started,key_resp1_3.keys,key_resp1_3.rt,text_28.started,key_resp_11.started,key_resp_11.keys,key_resp_11.rt,text_29.started,key_resp_12.started,key_resp_12.keys,key_resp_12.rt,text_36.started,key_resp_18.started,key_resp_18.keys,key_resp_18.rt,learning.started,text_19.started,key_resp_7.started,key_resp_7.keys,key_resp_7.rt,text_31.started,key_resp1_4.started,key_resp1_4.keys,key_resp1_4.rt,text_2.started,text_2.stopped,seqs.started,text_13.started,syllable_catch.started,key_resp_3.started,syllable_catch.keys,key_resp_3.keys,key_resp_3.rt,text_12.started,key_resp4.started,key_resp4.keys,key_resp4.rt,text_14.started,key_resp_4.started,key_resp_4.keys,key_resp_4.rt,text_15.started,key_resp_5.started,key_resp_5.keys,key_resp_5.rt,text_17.started,key_resp_16.started,test_sounds.started,key_resp_16.keys,key_resp_16.rt,text_18.started,Partz_no_partm.started,Partz_no_partm.keys,Partz_no_partm.rt,text_32.started,image_2.started,text_33.started,security_1_7.started,security_1_7.keys,security_1_7.rt,text_17.stopped,text_30.started,key_resp_13.started,key_resp_13.keys,key_resp_13.rt,text_13.stopped,syllable_catch.stopped,participant,session,date,expName,psychopyVersion,frameRate,
,,,,,,,,,,,,,,,,,,,,,,,,,,,44.327922299999045,44.327922299999045,space,3.5137683999928413,,,,,,,,,,,,,,,,,,,,,,,,,,,,,,,,,,,,,,,,,,,,,,,,,,,,,,,,,,,,,,,,,,,,,,,,,,,,,,,,,,,,,,,,,,339320,001,2023-06-02_17h00.49.564,Pilot_online_tryings,2022.2.5,32.21268619282521,
,,,,,,,,,,,,,,,,,,,,,,,,,,,,,,,47.8824300999986,47.8824300999986,space,0.14509679999900982,,,,,,,,,,,,,,,,,,,,,,,,,,,,,,,,,,,,,,,,,,,,,,,,,,,,,,,,,,,,,,,,,,,,,,,,,,,,,,,,,,,,,,339320,001,2023-06-02_17h00.49.564,Pilot_online_tryings,2022.2.5,32.21268619282521,
,,,,,,,,,,,,,,,,,,,,,,,,,,,,,,,,,,,48.06981509999605,48.06981509999605,space,0.126546799991047,,,,,,,,,,,,,,,,,,,,,,,,,,,,,,,,,,,,,,,,,,,,,,,,,,,,,,,,,,,,,,,,,,,,,,,,,,,,,,,,,,339320,001,2023-06-02_17h00.49.564,Pilot_online_tryings,2022.2.5,32.21268619282521,
,,,,,,,,,,,,,,,,,,,,,,,,,,,,,,,,,,,,,,,48.351224200005525,48.34010180000041,48.34010180000041,space,0.0058077999856323,,,,,,,,,,,,,,,,,,,,,,,,,,,,,,,,,,,,,,,,,,,,,,,,,,,,,,,,,,,,,,,,,,,,,,,,,,,,,339320,001,2023-06-02_17h00.49.564,Pilot_online_tryings,2022.2.5,32.21268619282521,
,,,,,,,,,,,,,,,,,,,,,,,,,,,,,,,,,,,,,,,,,,,,48.38320890000614,48.38320890000614,space,0.1126073999912478,,,,,,,,,,,,,,,,,,,,,,,,,,,,,,,,,,,,,,,,,,,,,,,,,,,,,,,,,,,,,,,,,,,,,,,,,339320,001,2023-06-02_17h00.49.564,Pilot_online_tryings,2022.2.5,32.21268619282521,
,,,,,,,,,,,,,,,,,,,,,,,,,,,,,,,,,,,,,,,,,,,,,,,,48.538867299997946,48.538867299997946,space,0.2639943999965908,,,,,,,,,,,,,,,,,,,,,,,,,,,,,,,,,,,,,,,,,,,,,,,,,,,,,,,,,,,,,,,,,,,,,339320,001,2023-06-02_17h00.49.564,Pilot_online_tryings,2022.2.5,32.21268619282521,
,,,,,,,,,,,,,,,,,,,,,,,,,,,,,,,,,,,,,,,,,,,,,,,,,,,,48.8864806000056,48.8864806000056,space,0.34650270000565797,,,,,,,,,,,,,,,,,,,,,,,,,,,,,,,,,,,,,,,,,,,,,,,,,,,,,,,,,,,,,,,,,339320,001,2023-06-02_17h00.49.564,Pilot_online_tryings,2022.2.5,32.21268619282521,
,,,,,,,,,,,,,,,,,,,,,,,,,,,,,,,,,,,,,,,,,,,,,,,,,,,,,,,,49.288063600004534,49.288063600004534,space,0.4121896999859018,,,,,,,,,,,,,,,,,,,,,,,,,,,,,,,,,,,,,,,,,,,,,,,,,,,,,,,,,,,,,339320,001,2023-06-02_17h00.49.564,Pilot_online_tryings,2022.2.5,32.21268619282521,
,,,,,,,,,,,,,,,,,,,,,,,,,,,,,,,,,,,,,,,,,,,,,,,,,,,,,,,,,,,,49.75726929999655,49.75726929999655,space,0.47584549999737646,,,,,,,,,,,,,,,,,,,,,,,,,,,,,,,,,,,,,,,,,,,,,,,,,,,,,,,,,339320,001,2023-06-02_17h00.49.564,Pilot_online_tryings,2022.2.5,32.21268619282521,
WhenL3_uns.csv,directory_online_whenL3_uns.csv,When_UnsyncL3_testdirs.csv,WhenL3_unsync_norm.wav,mo,20:24,green,Online_whenL3//aMO23.1110.wav,1110.0,,,0,0,0,2,0,0,0,11,0,0,0,3,,,,,,,,,,,,,,,,,,,,,,,,,,,,,,,,,,,,,,,,,,50.29001969999808,50.29001969999808,space,0.46256240000366233,51.9052541000361,51.88322530000005,51.88322530000005,space,2.1321525999956066,54.072754399996484,54.072754399996484,space,0.9911439999996219,55.181112499994924,55.181112499994924,0.06354689999716356,55.181112499994924,55.181112499994924,55.181112499994924,None,y,1.4012381000065943,,,,,,,,,,,,,,,,,,,,,,,,,,,,,,,,,,,339320,001,2023-06-02_17h00.49.564,Pilot_online_tryings,2022.2.5,32.21268619282521,
WhenL3_uns.csv,directory_online_whenL3_uns.csv,When_UnsyncL3_testdirs.csv,WhenL3_unsync_norm.wav,mo,20:24,green,Online_whenL3//aMO21.none.wav,none,,,0,0,0,2,0,0,0,11,0,1,1,1,,,,,,,,,,,,,,,,,,,,,,,,,,,,,,,,,,,,,,,,,,,,,,,,,,,,,,,,,0.01386189999175258,56.63223780000408,56.63223780000408,56.63223780000408,None,y,0.13062880000506993,,,,,,,,,,,,,,,,,,,,,,,,,,,,,,,,,,,339320,001,2023-06-02_17h00.49.564,Pilot_online_tryings,2022.2.5,32.21268619282521,
WhenL3_uns.csv,directory_online_whenL3_uns.csv,When_UnsyncL3_testdirs.csv,WhenL3_unsync_norm.wav,mo,20:24,green,Online_whenL3//aMO22.1998.wav,1998.0,,,0,0,0,2,0,0,0,11,0,2,2,2,,,,,,,,,,,,,,,,,,,,,,,,,,,,,,,,,,,,,,,,,,,,,,,,,,,,,,,,,0.007807499991031364,56.850470399993355,56.850470399993355,56.850470399993355,None,y,0.07114709999586921,,,,,,,,,,,,,,,,,,,,,,,,,,,,,,,,,,,339320,001,2023-06-02_17h00.49.564,Pilot_online_tryings,2022.2.5,32.21268619282521,
WhenL3_uns.csv,directory_online_whenL3_uns.csv,When_UnsyncL3_testdirs.csv,WhenL3_unsync_norm.wav,mo,20:24,green,Online_whenL3//aMO20.none.wav,none,,,0,0,0,2,0,0,0,11,0,3,3,0,,,,,,,,,,,,,,,,,,,,,,,,,,,,,,,,,,,,,,,,,,,,,,,,,,,,,,,,,0.006913200006238185,56.977014200005215,56.977014200005215,56.977014200005215,None,y,0.08739339998282958,,,,,,,,,,,,,,,,,,,,,,,,,,,,,,,,,,,339320,001,2023-06-02_17h00.49.564,Pilot_online_tryings,2022.2.5,32.21268619282521,
WhenL3_uns.csv,directory_online_whenL3_uns.csv,When_UnsyncL3_testdirs.csv,WhenL3_unsync_norm.wav,mo,20:24,green,,,,,0,0,0,2,0,0,0,11,,,,,,,,,,,,,,,,,,,,,,,,,,,,,,,,,,,,,,,,,,,,,,,,,,,,,,,,,,,,,,,,,,,,,,,,,,,,,,,,,,,,,,,,,,,,,,,,,,,,,,339320,001,2023-06-02_17h00.49.564,Pilot_online_tryings,2022.2.5,32.21268619282521,
WhenL3_uns.csv,directory_online_whenL3_uns.csv,When_UnsyncL3_testdirs.csv,WhenL3_unsync_norm.wav,ñe,52:56,orange,Online_whenL3//bÑE17.none.wav,none,,,0,0,0,2,0,1,1,19,0,0,0,1,,,,,,,,,,,,,,,,,,,,,,,,,,,,,,,,,,,,,,,,,,,,,,,,,,,,,,,57.144918499994674,57.144918499994674,0.04258259999915026,57.144918499994674,57.144918499994674,57.144918499994674,None,y,0.0886361000011675,,,,,,,,,,,,,,,,,,,,,,,,,,,,,,,,,,,339320,001,2023-06-02_17h00.49.564,Pilot_online_tryings,2022.2.5,32.21268619282521,
WhenL3_uns.csv,directory_online_whenL3_uns.csv,When_UnsyncL3_testdirs.csv,WhenL3_unsync_norm.wav,ñe,52:56,orange,Online_whenL3//bÑE19.none.wav,none,,,0,0,0,2,0,1,1,19,0,1,1,3,,,,,,,,,,,,,,,,,,,,,,,,,,,,,,,,,,,,,,,,,,,,,,,,,,,,,,,,,0.005557799988309853,57.28853780000645,57.28853780000645,57.28853780000645,None,y,0.0809951999981422,,,,,,,,,,,,,,,,,,,,,,,,,,,,,,,,,,,339320,001,2023-06-02_17h00.49.564,Pilot_online_tryings,2022.2.5,32.21268619282521,
WhenL3_uns.csv,directory_online_whenL3_uns.csv,When_UnsyncL3_testdirs.csv,WhenL3_unsync_norm.wav,ñe,52:56,orange,Online_whenL3//bÑE18.888.wav,888.0,,,0,0,0,2,0,1,1,19,0,2,2,2,,,,,,,,,,,,,,,,,,,,,,,,,,,,,,,,,,,,,,,,,,,,,,,,,,,,,,,,,0.014008099999045953,57.44488919999276,57.44488919999276,57.44488919999276,None,y,0.07065379999403376,,,,,,,,,,,,,,,,,,,,,,,,,,,,,,,,,,,339320,001,2023-06-02_17h00.49.564,Pilot_online_tryings,2022.2.5,32.21268619282521,
WhenL3_uns.csv,directory_online_whenL3_uns.csv,When_UnsyncL3_testdirs.csv,WhenL3_unsync_norm.wav,ñe,52:56,orange,Online_whenL3//bÑE16.none.wav,none,,,0,0,0,2,0,1,1,19,0,3,3,0,,,,,,,,,,,,,,,,,,,,,,,,,,,,,,,,,,,,,,,,,,,,,,,,,,,,,,,,,0.007792100004735403,57.571521000005305,57.571521000005305,57.571521000005305,None,y,0.0944926999945892,,,,,,,,,,,,,,,,,,,,,,,,,,,,,,,,,,,339320,001,2023-06-02_17h00.49.564,Pilot_online_tryings,2022.2.5,32.21268619282521,
WhenL3_uns.csv,directory_online_whenL3_uns.csv,When_UnsyncL3_testdirs.csv,WhenL3_unsync_norm.wav,ñe,52:56,orange,,,,,0,0,0,2,0,1,1,19,,,,,,,,,,,,,,,,,,,,,,,,,,,,,,,,,,,,,,,,,,,,,,,,,,,,,,,,,,,,,,,,,,,,,,,,,,,,,,,,,,,,,,,,,,,,,,,,,,,,,,339320,001,2023-06-02_17h00.49.564,Pilot_online_tryings,2022.2.5,32.21268619282521,
WhenL3_uns.csv,directory_online_whenL3_uns.csv,When_UnsyncL3_testdirs.csv,WhenL3_unsync_norm.wav,ga,72:76,red,Online_whenL3//cGA0.1998.wav,1998.0,,,0,0,0,2,0,2,2,2,0,0,0,0,,,,,,,,,,,,,,,,,,,,,,,,,,,,,,,,,,,,,,,,,,,,,,,,,,,,,,,57.72276299999794,57.72276299999794,0.040200600007665344,57.72276299999794,57.72276299999794,57.72276299999794,None,y,0.07649740000488237,,,,,,,,,,,,,,,,,,,,,,,,,,,,,,,,,,,339320,001,2023-06-02_17h00.49.564,Pilot_online_tryings,2022.2.5,32.21268619282521,
WhenL3_uns.csv,directory_online_whenL3_uns.csv,When_UnsyncL3_testdirs.csv,WhenL3_unsync_norm.wav,ga,72:76,red,Online_whenL3//cGA2.none.wav,none,,,0,0,0,2,0,2,2,2,0,1,1,2,,,,,,,,,,,,,,,,,,,,,,,,,,,,,,,,,,,,,,,,,,,,,,,,,,,,,,,,,0.01559619999898132,57.85224130000279,57.85224130000279,57.85224130000279,None,y,0.10100949999468867,,,,,,,,,,,,,,,,,,,,,,,,,,,,,,,,,,,339320,001,2023-06-02_17h00.49.564,Pilot_online_tryings,2022.2.5,32.21268619282521,
WhenL3_uns.csv,directory_online_whenL3_uns.csv,When_UnsyncL3_testdirs.csv,WhenL3_unsync_norm.wav,ga,72:76,red,Online_whenL3//cGA3.222.wav,222.0,,,0,0,0,2,0,2,2,2,0,2,2,3,,,,,,,,,,,,,,,,,,,,,,,,,,,,,,,,,,,,,,,,,,,,,,,,,,,,,,,,,0.033017599998856895,58.01806370000122,58.01806370000122,58.01806370000122,None,y,0.07894159998977557,,,,,,,,,,,,,,,,,,,,,,,,,,,,,,,,,,,339320,001,2023-06-02_17h00.49.564,Pilot_online_tryings,2022.2.5,32.21268619282521,
WhenL3_uns.csv,directory_online_whenL3_uns.csv,When_UnsyncL3_testdirs.csv,WhenL3_unsync_norm.wav,ga,72:76,red,Online_whenL3//cGA1.1998.wav,1998.0,,,0,0,0,2,0,2,2,2,0,3,3,1,,,,,,,,,,,,,,,,,,,,,,,,,,,,,,,,,,,,,,,,,,,,,,,,,,,,,,,,,0.009298300006776117,58.13277939999534,58.13277939999534,58.13277939999534,None,y,0.11707229999592528,,,,,,,,,,,,,,,,,,,,,,,,,,,,,,,,,,,339320,001,2023-06-02_17h00.49.564,Pilot_online_tryings,2022.2.5,32.21268619282521,
WhenL3_uns.csv,directory_online_whenL3_uns.csv,When_UnsyncL3_testdirs.csv,WhenL3_unsync_norm.wav,ga,72:76,red,,,,,0,0,0,2,0,2,2,2,,,,,,,,,,,,,,,,,,,,,,,,,,,,,,,,,,,,,,,,,,,,,,,,,,,,,,,,,,,,,,,,,,,,,,,,,,,,,,,,,,,,,,,,,,,,,,,,,,,,,,339320,001,2023-06-02_17h00.49.564,Pilot_online_tryings,2022.2.5,32.21268619282521,
WhenL3_uns.csv,directory_online_whenL3_uns.csv,When_UnsyncL3_testdirs.csv,WhenL3_unsync_norm.wav,ñe,60:64,orange,Online_whenL3//bÑE25.none.wav,none,,,0,0,0,2,0,3,3,29,0,0,0,1,,,,,,,,,,,,,,,,,,,,,,,,,,,,,,,,,,,,,,,,,,,,,,,,,,,,,,,58.3167448000022,58.3167448000022,0.0358632999996189,58.3167448000022,58.3167448000022,58.3167448000022,None,y,0.08255549999012146,,,,,,,,,,,,,,,,,,,,,,,,,,,,,,,,,,,339320,001,2023-06-02_17h00.49.564,Pilot_online_tryings,2022.2.5,32.21268619282521,
WhenL3_uns.csv,directory_online_whenL3_uns.csv,When_UnsyncL3_testdirs.csv,WhenL3_unsync_norm.wav,ñe,60:64,orange,Online_whenL3//bÑE26.888.wav,888.0,,,0,0,0,2,0,3,3,29,0,1,1,2,,,,,,,,,,,,,,,,,,,,,,,,,,,,,,,,,,,,,,,,,,,,,,,,,,,,,,,,,0.008393799987970851,58.44549689999258,58.44549689999258,58.44549689999258,None,y,0.1065072999917902,,,,,,,,,,,,,,,,,,,,,,,,,,,,,,,,,,,339320,001,2023-06-02_17h00.49.564,Pilot_online_tryings,2022.2.5,32.21268619282521,
WhenL3_uns.csv,directory_online_whenL3_uns.csv,When_UnsyncL3_testdirs.csv,WhenL3_unsync_norm.wav,ñe,60:64,orange,Online_whenL3//bÑE24.none.wav,none,,,0,0,0,2,0,3,3,29,0,2,2,0,,,,,,,,,,,,,,,,,,,,,,,,,,,,,,,,,,,,,,,,,,,,,,,,,,,,,,,,,0.008004999996046536,58.600956499998574,58.600956499998574,58.600956499998574,None,y,0.11078149999957532,,,,,,,,,,,,,,,,,,,,,,,,,,,,,,,,,,,339320,001,2023-06-02_17h00.49.564,Pilot_online_tryings,2022.2.5,32.21268619282521,
WhenL3_uns.csv,directory_online_whenL3_uns.csv,When_UnsyncL3_testdirs.csv,WhenL3_unsync_norm.wav,ñe,60:64,orange,Online_whenL3//bÑE27.none.wav,none,,,0,0,0,2,0,3,3,29,0,3,3,3,,,,,,,,,,,,,,,,,,,,,,,,,,,,,,,,,,,,,,,,,,,,,,,,,,,,,,,,,0.011290399997960776,58.75776180000685,58.75776180000685,58.75776180000685,None,y,0.10213679999287706,,,,,,,,,,,,,,,,,,,,,,,,,,,,,,,,,,,339320,001,2023-06-02_17h00.49.564,Pilot_online_tryings,2022.2.5,32.21268619282521,
WhenL3_uns.csv,directory_online_whenL3_uns.csv,When_UnsyncL3_testdirs.csv,WhenL3_unsync_norm.wav,ñe,60:64,orange,,,,,0,0,0,2,0,3,3,29,,,,,,,,,,,,,,,,,,,,,,,,,,,,,,,,,,,,,,,,,,,,,,,,,,,,,,,,,,,,,,,,,,,,,,,,,,,,,,,,,,,,,,,,,,,,,,,,,,,,,,339320,001,2023-06-02_17h00.49.564,Pilot_online_tryings,2022.2.5,32.21268619282521,
WhenL3_uns.csv,directory_online_whenL3_uns.csv,When_UnsyncL3_testdirs.csv,WhenL3_unsync_norm.wav,mo,32:36,green,Online_whenL3//aMO35.0.wav,0.0,,,0,0,0,2,0,4,4,31,0,0,0,3,,,,,,,,,,,,,,,,,,,,,,,,,,,,,,,,,,,,,,,,,,,,,,,,,,,,,,,58.932655800002976,58.932655800002976,0.03354939998826012,58.932655800002976,58.932655800002976,58.932655800002976,None,y,0.09535269999469165,,,,,,,,,,,,,,,,,,,,,,,,,,,,,,,,,,,339320,001,2023-06-02_17h00.49.564,Pilot_online_tryings,2022.2.5,32.21268619282521,
WhenL3_uns.csv,directory_online_whenL3_uns.csv,When_UnsyncL3_testdirs.csv,WhenL3_unsync_norm.wav,mo,32:36,green,Online_whenL3//aMO33.none.wav,none,,,0,0,0,2,0,4,4,31,0,1,1,1,,,,,,,,,,,,,,,,,,,,,,,,,,,,,,,,,,,,,,,,,,,,,,,,,,,,,,,,,0.01401000001351349,59.07051170000341,59.07051170000341,59.07051170000341,None,y,0.11161079998419154,,,,,,,,,,,,,,,,,,,,,,,,,,,,,,,,,,,339320,001,2023-06-02_17h00.49.564,Pilot_online_tryings,2022.2.5,32.21268619282521,
WhenL3_uns.csv,directory_online_whenL3_uns.csv,When_UnsyncL3_testdirs.csv,WhenL3_unsync_norm.wav,mo,32:36,green,Online_whenL3//aMO34.222.wav,222.0,,,0,0,0,2,0,4,4,31,0,2,2,2,,,,,,,,,,,,,,,,,,,,,,,,,,,,,,,,,,,,,,,,,,,,,,,,,,,,,,,,,0.019027600006666034,59.2326674000069,59.2326674000069,59.2326674000069,None,y,0.09667060000356287,,,,,,,,,,,,,,,,,,,,,,,,,,,,,,,,,,,339320,001,2023-06-02_17h00.49.564,Pilot_online_tryings,2022.2.5,32.21268619282521,
WhenL3_uns.csv,directory_online_whenL3_uns.csv,When_UnsyncL3_testdirs.csv,WhenL3_unsync_norm.wav,mo,32:36,green,Online_whenL3//aMO32.444.wav,444.0,,,0,0,0,2,0,4,4,31,0,3,3,0,,,,,,,,,,,,,,,,,,,,,,,,,,,,,,,,,,,,,,,,,,,,,,,,,,,,,,,,,0.013401400006841868,59.384511099997326,59.384511099997326,59.384511099997326,None,y,0.10138609999557957,,,,,,,,,,,,,,,,,,,,,,,,,,,,,,,,,,,339320,001,2023-06-02_17h00.49.564,Pilot_online_tryings,2022.2.5,32.21268619282521,
WhenL3_uns.csv,directory_online_whenL3_uns.csv,When_UnsyncL3_testdirs.csv,WhenL3_unsync_norm.wav,mo,32:36,green,,,,,0,0,0,2,0,4,4,31,,,,,,,,,,,,,,,,,,,,,,,,,,,,,,,,,,,,,,,,,,,,,,,,,,,,,,,,,,,,,,,,,,,,,,,,,,,,,,,,,,,,,,,,,,,,,,,,,,,,,,339320,001,2023-06-02_17h00.49.564,Pilot_online_tryings,2022.2.5,32.21268619282521,
WhenL3_uns.csv,directory_online_whenL3_uns.csv,When_UnsyncL3_testdirs.csv,WhenL3_unsync_norm.wav,ñe,48:52,orange,Online_whenL3//bÑE13.none.wav,none,,,0,0,0,2,0,5,5,22,0,0,0,1,,,,,,,,,,,,,,,,,,,,,,,,,,,,,,,,,,,,,,,,,,,,,,,,,,,,,,,59.55293059999531,59.55293059999531,0.02168340000207536,59.55293059999531,59.55293059999531,59.55293059999531,None,y,0.1035874000081094,,,,,,,,,,,,,,,,,,,,,,,,,,,,,,,,,,,339320,001,2023-06-02_17h00.49.564,Pilot_online_tryings,2022.2.5,32.21268619282521,
WhenL3_uns.csv,directory_online_whenL3_uns.csv,When_UnsyncL3_testdirs.csv,WhenL3_unsync_norm.wav,ñe,48:52,orange,Online_whenL3//bÑE15.444.wav,444.0,,,0,0,0,2,0,5,5,22,0,1,1,3,,,,,,,,,,,,,,,,,,,,,,,,,,,,,,,,,,,,,,,,,,,,,,,,,,,,,,,,,0.011401900002965704,59.69488480000291,59.69488480000291,59.69488480000291,None,y,0.09461969998665154,,,,,,,,,,,,,,,,,,,,,,,,,,,,,,,,,,,339320,001,2023-06-02_17h00.49.564,Pilot_online_tryings,2022.2.5,32.21268619282521,
WhenL3_uns.csv,directory_online_whenL3_uns.csv,When_UnsyncL3_testdirs.csv,WhenL3_unsync_norm.wav,ñe,48:52,orange,Online_whenL3//bÑE12.222.wav,222.0,,,0,0,0,2,0,5,5,22,0,2,2,0,,,,,,,,,,,,,,,,,,,,,,,,,,,,,,,,,,,,,,,,,,,,,,,,,,,,,,,,,0.006896400009281933,59.81997749999573,59.81997749999573,59.81997749999573,None,y,0.10844039999938104,,,,,,,,,,,,,,,,,,,,,,,,,,,,,,,,,,,339320,001,2023-06-02_17h00.49.564,Pilot_online_tryings,2022.2.5,32.21268619282521,
WhenL3_uns.csv,directory_online_whenL3_uns.csv,When_UnsyncL3_testdirs.csv,WhenL3_unsync_norm.wav,ñe,48:52,orange,Online_whenL3//bÑE14.none.wav,none,,,0,0,0,2,0,5,5,22,0,3,3,2,,,,,,,,,,,,,,,,,,,,,,,,,,,,,,,,,,,,,,,,,,,,,,,,,,,,,,,,,0.016475600001285784,59.978759100005846,59.978759100005846,59.978759100005846,None,y,0.08830820000730455,,,,,,,,,,,,,,,,,,,,,,,,,,,,,,,,,,,339320,001,2023-06-02_17h00.49.564,Pilot_online_tryings,2022.2.5,32.21268619282521,
WhenL3_uns.csv,directory_online_whenL3_uns.csv,When_UnsyncL3_testdirs.csv,WhenL3_unsync_norm.wav,ñe,48:52,orange,,,,,0,0,0,2,0,5,5,22,,,,,,,,,,,,,,,,,,,,,,,,,,,,,,,,,,,,,,,,,,,,,,,,,,,,,,,,,,,,,,,,,,,,,,,,,,,,,,,,,,,,,,,,,,,,,,,,,,,,,,339320,001,2023-06-02_17h00.49.564,Pilot_online_tryings,2022.2.5,32.21268619282521,
WhenL3_uns.csv,directory_online_whenL3_uns.csv,When_UnsyncL3_testdirs.csv,WhenL3_unsync_norm.wav,ji,104:108,blue,Online_whenL3//dJI2.none.wav,none,,,0,0,0,2,0,6,6,25,0,0,0,2,,,,,,,,,,,,,,,,,,,,,,,,,,,,,,,,,,,,,,,,,,,,,,,,,,,,,,,60.11795679999341,60.11795679999341,0.03174739998939913,60.11795679999341,60.11795679999341,60.11795679999341,None,y,0.09996929999033455,,,,,,,,,,,,,,,,,,,,,,,,,,,,,,,,,,,339320,001,2023-06-02_17h00.49.564,Pilot_online_tryings,2022.2.5,32.21268619282521,
WhenL3_uns.csv,directory_online_whenL3_uns.csv,When_UnsyncL3_testdirs.csv,WhenL3_unsync_norm.wav,ji,104:108,blue,Online_whenL3//dJI0.444.wav,444.0,,,0,0,0,2,0,6,6,25,0,1,1,0,,,,,,,,,,,,,,,,,,,,,,,,,,,,,,,,,,,,,,,,,,,,,,,,,,,,,,,,,0.007371400002739392,60.25964479999675,60.25964479999675,60.25964479999675,None,y,0.1039362000010442,,,,,,,,,,,,,,,,,,,,,,,,,,,,,,,,,,,339320,001,2023-06-02_17h00.49.564,Pilot_online_tryings,2022.2.5,32.21268619282521,
WhenL3_uns.csv,directory_online_whenL3_uns.csv,When_UnsyncL3_testdirs.csv,WhenL3_unsync_norm.wav,ji,104:108,blue,Online_whenL3//dJI1.none.wav,none,,,0,0,0,2,0,6,6,25,0,2,2,1,,,,,,,,,,,,,,,,,,,,,,,,,,,,,,,,,,,,,,,,,,,,,,,,,,,,,,,,,0.02908469999965746,60.426416899994365,60.426416899994365,60.426416899994365,None,y,0.0924276000005193,,,,,,,,,,,,,,,,,,,,,,,,,,,,,,,,,,,339320,001,2023-06-02_17h00.49.564,Pilot_online_tryings,2022.2.5,32.21268619282521,
WhenL3_uns.csv,directory_online_whenL3_uns.csv,When_UnsyncL3_testdirs.csv,WhenL3_unsync_norm.wav,ji,104:108,blue,Online_whenL3//dJI3.none.wav,none,,,0,0,0,2,0,6,6,25,0,3,3,3,,,,,,,,,,,,,,,,,,,,,,,,,,,,,,,,,,,,,,,,,,,,,,,,,,,,,,,,,0.021653100004186854,60.60763230000157,60.60763230000157,60.60763230000157,None,y,0.07527919999847654,,,,,,,,,,,,,,,,,,,,,,,,,,,,,,,,,,,339320,001,2023-06-02_17h00.49.564,Pilot_online_tryings,2022.2.5,32.21268619282521,
WhenL3_uns.csv,directory_online_whenL3_uns.csv,When_UnsyncL3_testdirs.csv,WhenL3_unsync_norm.wav,ji,104:108,blue,,,,,0,0,0,2,0,6,6,25,,,,,,,,,,,,,,,,,,,,,,,,,,,,,,,,,,,,,,,,,,,,,,,,,,,,,,,,,,,,,,,,,,,,,,,,,,,,,,,,,,,,,,,,,,,,,,,,,,,,,,339320,001,2023-06-02_17h00.49.564,Pilot_online_tryings,2022.2.5,32.21268619282521,
WhenL3_uns.csv,directory_online_whenL3_uns.csv,When_UnsyncL3_testdirs.csv,WhenL3_unsync_norm.wav,ga,76:80,red,Online_whenL3//cGA6.444.wav,444.0,,,0,0,0,2,0,7,7,23,0,0,0,2,,,,,,,,,,,,,,,,,,,,,,,,,,,,,,,,,,,,,,,,,,,,,,,,,,,,,,,60.74181680000038,60.74181680000038,0.026069300001836382,60.74181680000038,60.74181680000038,60.74181680000038,None,y,0.09516599999915343,,,,,,,,,,,,,,,,,,,,,,,,,,,,,,,,,,,339320,001,2023-06-02_17h00.49.564,Pilot_online_tryings,2022.2.5,32.21268619282521,
WhenL3_uns.csv,directory_online_whenL3_uns.csv,When_UnsyncL3_testdirs.csv,WhenL3_unsync_norm.wav,ga,76:80,red,Online_whenL3//cGA4.none.wav,none,,,0,0,0,2,0,7,7,23,0,1,1,0,,,,,,,,,,,,,,,,,,,,,,,,,,,,,,,,,,,,,,,,,,,,,,,,,,,,,,,,,0.006625699999858625,60.913320899999235,60.913320899999235,60.913320899999235,None,y,0.09815550000348594,,,,,,,,,,,,,,,,,,,,,,,,,,,,,,,,,,,339320,001,2023-06-02_17h00.49.564,Pilot_online_tryings,2022.2.5,32.21268619282521,
WhenL3_uns.csv,directory_online_whenL3_uns.csv,When_UnsyncL3_testdirs.csv,WhenL3_unsync_norm.wav,ga,76:80,red,Online_whenL3//cGA7.0.wav,0.0,,,0,0,0,2,0,7,7,23,0,2,2,3,,,,,,,,,,,,,,,,,,,,,,,,,,,,,,,,,,,,,,,,,,,,,,,,,,,,,,,,,0.006401699996786192,61.06984480000392,61.06984480000392,61.06984480000392,None,y,0.08291029999963939,,,,,,,,,,,,,,,,,,,,,,,,,,,,,,,,,,,339320,001,2023-06-02_17h00.49.564,Pilot_online_tryings,2022.2.5,32.21268619282521,
WhenL3_uns.csv,directory_online_whenL3_uns.csv,When_UnsyncL3_testdirs.csv,WhenL3_unsync_norm.wav,ga,76:80,red,Online_whenL3//cGA5.none.wav,none,,,0,0,0,2,0,7,7,23,0,3,3,1,,,,,,,,,,,,,,,,,,,,,,,,,,,,,,,,,,,,,,,,,,,,,,,,,,,,,,,,,0.005741500004660338,61.22620750000351,61.22620750000351,61.22620750000351,None,y,0.07723999999871012,,,,,,,,,,,,,,,,,,,,,,,,,,,,,,,,,,,339320,001,2023-06-02_17h00.49.564,Pilot_online_tryings,2022.2.5,32.21268619282521,
WhenL3_uns.csv,directory_online_whenL3_uns.csv,When_UnsyncL3_testdirs.csv,WhenL3_unsync_norm.wav,ga,76:80,red,,,,,0,0,0,2,0,7,7,23,,,,,,,,,,,,,,,,,,,,,,,,,,,,,,,,,,,,,,,,,,,,,,,,,,,,,,,,,,,,,,,,,,,,,,,,,,,,,,,,,,,,,,,,,,,,,,,,,,,,,,339320,001,2023-06-02_17h00.49.564,Pilot_online_tryings,2022.2.5,32.21268619282521,
WhenL3_uns.csv,directory_online_whenL3_uns.csv,When_UnsyncL3_testdirs.csv,WhenL3_unsync_norm.wav,ji,124:128,blue,Online_whenL3//dJI22.none.wav,none,,,0,0,0,2,0,8,8,8,0,0,0,2,,,,,,,,,,,,,,,,,,,,,,,,,,,,,,,,,,,,,,,,,,,,,,,,,,,,,,,61.38918359999661,61.38918359999661,0.02447299999766983,61.38918359999661,61.38918359999661,61.38918359999661,None,y,0.05886760000430513,,,,,,,,,,,,,,,,,,,,,,,,,,,,,,,,,,,339320,001,2023-06-02_17h00.49.564,Pilot_online_tryings,2022.2.5,32.21268619282521,
WhenL3_uns.csv,directory_online_whenL3_uns.csv,When_UnsyncL3_testdirs.csv,WhenL3_unsync_norm.wav,ji,124:128,blue,Online_whenL3//dJI23.none.wav,none,,,0,0,0,2,0,8,8,8,0,1,1,3,,,,,,,,,,,,,,,,,,,,,,,,,,,,,,,,,,,,,,,,,,,,,,,,,,,,,,,,,0.006624700006796047,61.51121389999753,61.51121389999753,61.51121389999753,None,y,0.08876689999306109,,,,,,,,,,,,,,,,,,,,,,,,,,,,,,,,,,,339320,001,2023-06-02_17h00.49.564,Pilot_online_tryings,2022.2.5,32.21268619282521,
WhenL3_uns.csv,directory_online_whenL3_uns.csv,When_UnsyncL3_testdirs.csv,WhenL3_unsync_norm.wav,ji,124:128,blue,Online_whenL3//dJI20.888.wav,888.0,,,0,0,0,2,0,8,8,8,0,2,2,0,,,,,,,,,,,,,,,,,,,,,,,,,,,,,,,,,,,,,,,,,,,,,,,,,,,,,,,,,0.05261220000102185,61.66863669999293,61.66863669999293,61.66863669999293,None,y,0.07707339999615215,,,,,,,,,,,,,,,,,,,,,,,,,,,,,,,,,,,339320,001,2023-06-02_17h00.49.564,Pilot_online_tryings,2022.2.5,32.21268619282521,
WhenL3_uns.csv,directory_online_whenL3_uns.csv,When_UnsyncL3_testdirs.csv,WhenL3_unsync_norm.wav,ji,124:128,blue,Online_whenL3//dJI21.0.wav,0.0,,,0,0,0,2,0,8,8,8,0,3,3,1,,,,,,,,,,,,,,,,,,,,,,,,,,,,,,,,,,,,,,,,,,,,,,,,,,,,,,,,,0.006354199998895638,61.78883069999574,61.78883069999574,61.78883069999574,None,y,0.10923889999685343,,,,,,,,,,,,,,,,,,,,,,,,,,,,,,,,,,,339320,001,2023-06-02_17h00.49.564,Pilot_online_tryings,2022.2.5,32.21268619282521,
WhenL3_uns.csv,directory_online_whenL3_uns.csv,When_UnsyncL3_testdirs.csv,WhenL3_unsync_norm.wav,ji,124:128,blue,,,,,0,0,0,2,0,8,8,8,,,,,,,,,,,,,,,,,,,,,,,,,,,,,,,,,,,,,,,,,,,,,,,,,,,,,,,,,,,,,,,,,,,,,,,,,,,,,,,,,,,,,,,,,,,,,,,,,,,,,,339320,001,2023-06-02_17h00.49.564,Pilot_online_tryings,2022.2.5,32.21268619282521,
WhenL3_uns.csv,directory_online_whenL3_uns.csv,When_UnsyncL3_testdirs.csv,WhenL3_unsync_norm.wav,ñe,40:44,orange,Online_whenL3//bÑE4.none.wav,none,,,0,0,0,2,0,9,9,28,0,0,0,0,,,,,,,,,,,,,,,,,,,,,,,,,,,,,,,,,,,,,,,,,,,,,,,,,,,,,,,61.960192800004734,61.960192800004734,0.03323719999752939,61.960192800004734,61.960192800004734,61.960192800004734,None,y,0.08673049999924842,,,,,,,,,,,,,,,,,,,,,,,,,,,,,,,,,,,339320,001,2023-06-02_17h00.49.564,Pilot_online_tryings,2022.2.5,32.21268619282521,
WhenL3_uns.csv,directory_online_whenL3_uns.csv,When_UnsyncL3_testdirs.csv,WhenL3_unsync_norm.wav,ñe,40:44,orange,Online_whenL3//bÑE5.1332.wav,1332.0,,,0,0,0,2,0,9,9,28,0,1,1,1,,,,,,,,,,,,,,,,,,,,,,,,,,,,,,,,,,,,,,,,,,,,,,,,,,,,,,,,,0.006889800002682023,62.10053149999294,62.10053149999294,62.10053149999294,None,y,0.09613439999520779,,,,,,,,,,,,,,,,,,,,,,,,,,,,,,,,,,,339320,001,2023-06-02_17h00.49.564,Pilot_online_tryings,2022.2.5,32.21268619282521,
WhenL3_uns.csv,directory_online_whenL3_uns.csv,When_UnsyncL3_testdirs.csv,WhenL3_unsync_norm.wav,ñe,40:44,orange,Online_whenL3//bÑE7.444.wav,444.0,,,0,0,0,2,0,9,9,28,0,2,2,3,,,,,,,,,,,,,,,,,,,,,,,,,,,,,,,,,,,,,,,,,,,,,,,,,,,,,,,,,0.006924699991941452,62.22656159999315,62.22656159999315,62.22656159999315,None,y,0.11244799999985844,,,,,,,,,,,,,,,,,,,,,,,,,,,,,,,,,,,339320,001,2023-06-02_17h00.49.564,Pilot_online_tryings,2022.2.5,32.21268619282521,
WhenL3_uns.csv,directory_online_whenL3_uns.csv,When_UnsyncL3_testdirs.csv,WhenL3_unsync_norm.wav,ñe,40:44,orange,Online_whenL3//bÑE6.0.wav,0.0,,,0,0,0,2,0,9,9,28,0,3,3,2,,,,,,,,,,,,,,,,,,,,,,,,,,,,,,,,,,,,,,,,,,,,,,,,,,,,,,,,,0.0063738000026205555,62.38267669999914,62.38267669999914,62.38267669999914,None,y,0.10764020000351593,,,,,,,,,,,,,,,,,,,,,,,,,,,,,,,,,,,339320,001,2023-06-02_17h00.49.564,Pilot_online_tryings,2022.2.5,32.21268619282521,
WhenL3_uns.csv,directory_online_whenL3_uns.csv,When_UnsyncL3_testdirs.csv,WhenL3_unsync_norm.wav,ñe,40:44,orange,,,,,0,0,0,2,0,9,9,28,,,,,,,,,,,,,,,,,,,,,,,,,,,,,,,,,,,,,,,,,,,,,,,,,,,,,,,,,,,,,,,,,,,,,,,,,,,,,,,,,,,,,,,,,,,,,,,,,,,,,,339320,001,2023-06-02_17h00.49.564,Pilot_online_tryings,2022.2.5,32.21268619282521,
WhenL3_uns.csv,directory_online_whenL3_uns.csv,When_UnsyncL3_testdirs.csv,WhenL3_unsync_norm.wav,ñe,68:72,orange,Online_whenL3//bÑE35.888.wav,888.0,,,0,0,0,2,0,10,10,30,0,0,0,3,,,,,,,,,,,,,,,,,,,,,,,,,,,,,,,,,,,,,,,,,,,,,,,,,,,,,,,62.539284500002395,62.539284500002395,0.014447699999436736,62.539284500002395,62.539284500002395,62.539284500002395,None,y,0.09828979999292642,,,,,,,,,,,,,,,,,,,,,,,,,,,,,,,,,,,339320,001,2023-06-02_17h00.49.564,Pilot_online_tryings,2022.2.5,32.21268619282521,
WhenL3_uns.csv,directory_online_whenL3_uns.csv,When_UnsyncL3_testdirs.csv,WhenL3_unsync_norm.wav,ñe,68:72,orange,Online_whenL3//bÑE34.1776.wav,1776.0,,,0,0,0,2,0,10,10,30,0,1,1,2,,,,,,,,,,,,,,,,,,,,,,,,,,,,,,,,,,,,,,,,,,,,,,,,,,,,,,,,,0.007716299995081499,62.69489650000469,62.69489650000469,62.69489650000469,None,y,0.09428549998847302,,,,,,,,,,,,,,,,,,,,,,,,,,,,,,,,,,,339320,001,2023-06-02_17h00.49.564,Pilot_online_tryings,2022.2.5,32.21268619282521,
WhenL3_uns.csv,directory_online_whenL3_uns.csv,When_UnsyncL3_testdirs.csv,WhenL3_unsync_norm.wav,ñe,68:72,orange,Online_whenL3//bÑE32.1110.wav,1110.0,,,0,0,0,2,0,10,10,30,0,2,2,0,,,,,,,,,,,,,,,,,,,,,,,,,,,,,,,,,,,,,,,,,,,,,,,,,,,,,,,,,0.0074945000087609515,62.81998909999675,62.81998909999675,62.81998909999675,None,y,0.1285834000009345,,,,,,,,,,,,,,,,,,,,,,,,,,,,,,,,,,,339320,001,2023-06-02_17h00.49.564,Pilot_online_tryings,2022.2.5,32.21268619282521,
WhenL3_uns.csv,directory_online_whenL3_uns.csv,When_UnsyncL3_testdirs.csv,WhenL3_unsync_norm.wav,ñe,68:72,orange,Online_whenL3//bÑE33.none.wav,none,,,0,0,0,2,0,10,10,30,0,3,3,1,,,,,,,,,,,,,,,,,,,,,,,,,,,,,,,,,,,,,,,,,,,,,,,,,,,,,,,,,0.007229700000607409,62.97628069999337,62.97628069999337,62.97628069999337,None,y,0.12655099999392405,,,,,,,,,,,,,,,,,,,,,,,,,,,,,,,,,,,339320,001,2023-06-02_17h00.49.564,Pilot_online_tryings,2022.2.5,32.21268619282521,
WhenL3_uns.csv,directory_online_whenL3_uns.csv,When_UnsyncL3_testdirs.csv,WhenL3_unsync_norm.wav,ñe,68:72,orange,,,,,0,0,0,2,0,10,10,30,,,,,,,,,,,,,,,,,,,,,,,,,,,,,,,,,,,,,,,,,,,,,,,,,,,,,,,,,,,,,,,,,,,,,,,,,,,,,,,,,,,,,,,,,,,,,,,,,,,,,,339320,001,2023-06-02_17h00.49.564,Pilot_online_tryings,2022.2.5,32.21268619282521,
WhenL3_uns.csv,directory_online_whenL3_uns.csv,When_UnsyncL3_testdirs.csv,WhenL3_unsync_norm.wav,ji,108:112,blue,Online_whenL3//dJI6.1332.wav,1332.0,,,0,0,0,2,0,11,11,20,0,0,0,2,,,,,,,,,,,,,,,,,,,,,,,,,,,,,,,,,,,,,,,,,,,,,,,,,,,,,,,63.144308599992655,63.144308599992655,0.027920399996219203,63.144308599992655,63.144308599992655,63.144308599992655,None,y,0.11091750000196043,,,,,,,,,,,,,,,,,,,,,,,,,,,,,,,,,,,339320,001,2023-06-02_17h00.49.564,Pilot_online_tryings,2022.2.5,32.21268619282521,
WhenL3_uns.csv,directory_online_whenL3_uns.csv,When_UnsyncL3_testdirs.csv,WhenL3_unsync_norm.wav,ji,108:112,blue,Online_whenL3//dJI5.none.wav,none,,,0,0,0,2,0,11,11,20,0,1,1,1,,,,,,,,,,,,,,,,,,,,,,,,,,,,,,,,,,,,,,,,,,,,,,,,,,,,,,,,,0.018437799997627735,63.29073769999377,63.29073769999377,63.29073769999377,None,y,0.12405060000310186,,,,,,,,,,,,,,,,,,,,,,,,,,,,,,,,,,,339320,001,2023-06-02_17h00.49.564,Pilot_online_tryings,2022.2.5,32.21268619282521,
WhenL3_uns.csv,directory_online_whenL3_uns.csv,When_UnsyncL3_testdirs.csv,WhenL3_unsync_norm.wav,ji,108:112,blue,Online_whenL3//dJI4.0.wav,0.0,,,0,0,0,2,0,11,11,20,0,2,2,0,,,,,,,,,,,,,,,,,,,,,,,,,,,,,,,,,,,,,,,,,,,,,,,,,,,,,,,,,0.009788800001842901,63.444699200001196,63.444699200001196,63.444699200001196,None,y,0.1268800999969244,,,,,,,,,,,,,,,,,,,,,,,,,,,,,,,,,,,339320,001,2023-06-02_17h00.49.564,Pilot_online_tryings,2022.2.5,32.21268619282521,
WhenL3_uns.csv,directory_online_whenL3_uns.csv,When_UnsyncL3_testdirs.csv,WhenL3_unsync_norm.wav,ji,108:112,blue,Online_whenL3//dJI7.none.wav,none,,,0,0,0,2,0,11,11,20,0,3,3,3,,,,,,,,,,,,,,,,,,,,,,,,,,,,,,,,,,,,,,,,,,,,,,,,,,,,,,,,,0.006477299990365282,63.63242359999276,63.63242359999276,63.63242359999276,None,y,0.07753369999409188,,,,,,,,,,,,,,,,,,,,,,,,,,,,,,,,,,,339320,001,2023-06-02_17h00.49.564,Pilot_online_tryings,2022.2.5,32.21268619282521,
WhenL3_uns.csv,directory_online_whenL3_uns.csv,When_UnsyncL3_testdirs.csv,WhenL3_unsync_norm.wav,ji,108:112,blue,,,,,0,0,0,2,0,11,11,20,,,,,,,,,,,,,,,,,,,,,,,,,,,,,,,,,,,,,,,,,,,,,,,,,,,,,,,,,,,,,,,,,,,,,,,,,,,,,,,,,,,,,,,,,,,,,,,,,,,,,,339320,001,2023-06-02_17h00.49.564,Pilot_online_tryings,2022.2.5,32.21268619282521,
WhenL3_uns.csv,directory_online_whenL3_uns.csv,When_UnsyncL3_testdirs.csv,WhenL3_unsync_norm.wav,ga,88:92,red,Online_whenL3//cGA19.none.wav,none,,,0,0,0,2,0,12,12,16,0,0,0,3,,,,,,,,,,,,,,,,,,,,,,,,,,,,,,,,,,,,,,,,,,,,,,,,,,,,,,,63.77263419999508,63.77263419999508,0.02890530000149738,63.77263419999508,63.77263419999508,63.77263419999508,None,y,0.07524929998908192,,,,,,,,,,,,,,,,,,,,,,,,,,,,,,,,,,,339320,001,2023-06-02_17h00.49.564,Pilot_online_tryings,2022.2.5,32.21268619282521,
WhenL3_uns.csv,directory_online_whenL3_uns.csv,When_UnsyncL3_testdirs.csv,WhenL3_unsync_norm.wav,ga,88:92,red,Online_whenL3//cGA17.888.wav,888.0,,,0,0,0,2,0,12,12,16,0,1,1,1,,,,,,,,,,,,,,,,,,,,,,,,,,,,,,,,,,,,,,,,,,,,,,,,,,,,,,,,,0.010362900007748976,63.88304430000426,63.88304430000426,63.88304430000426,None,y,0.1037777999881655,,,,,,,,,,,,,,,,,,,,,,,,,,,,,,,,,,,339320,001,2023-06-02_17h00.49.564,Pilot_online_tryings,2022.2.5,32.21268619282521,
WhenL3_uns.csv,directory_online_whenL3_uns.csv,When_UnsyncL3_testdirs.csv,WhenL3_unsync_norm.wav,ga,88:92,red,Online_whenL3//cGA18.222.wav,222.0,,,0,0,0,2,0,12,12,16,0,2,2,2,,,,,,,,,,,,,,,,,,,,,,,,,,,,,,,,,,,,,,,,,,,,,,,,,,,,,,,,,0.0063879999943310395,64.03784289999749,64.03784289999749,64.03784289999749,None,y,0.10681789998488966,,,,,,,,,,,,,,,,,,,,,,,,,,,,,,,,,,,339320,001,2023-06-02_17h00.49.564,Pilot_online_tryings,2022.2.5,32.21268619282521,
WhenL3_uns.csv,directory_online_whenL3_uns.csv,When_UnsyncL3_testdirs.csv,WhenL3_unsync_norm.wav,ga,88:92,red,Online_whenL3//cGA16.222.wav,222.0,,,0,0,0,2,0,12,12,16,0,3,3,0,,,,,,,,,,,,,,,,,,,,,,,,,,,,,,,,,,,,,,,,,,,,,,,,,,,,,,,,,0.006540200003655627,64.19534340000246,64.19534340000246,64.19534340000246,None,y,0.11224069999298081,,,,,,,,,,,,,,,,,,,,,,,,,,,,,,,,,,,339320,001,2023-06-02_17h00.49.564,Pilot_online_tryings,2022.2.5,32.21268619282521,
WhenL3_uns.csv,directory_online_whenL3_uns.csv,When_UnsyncL3_testdirs.csv,WhenL3_unsync_norm.wav,ga,88:92,red,,,,,0,0,0,2,0,12,12,16,,,,,,,,,,,,,,,,,,,,,,,,,,,,,,,,,,,,,,,,,,,,,,,,,,,,,,,,,,,,,,,,,,,,,,,,,,,,,,,,,,,,,,,,,,,,,,,,,,,,,,339320,001,2023-06-02_17h00.49.564,Pilot_online_tryings,2022.2.5,32.21268619282521,
WhenL3_uns.csv,directory_online_whenL3_uns.csv,When_UnsyncL3_testdirs.csv,WhenL3_unsync_norm.wav,ga,100:104,red,Online_whenL3//cGA31.none.wav,none,,,0,0,0,2,0,13,13,9,0,0,0,3,,,,,,,,,,,,,,,,,,,,,,,,,,,,,,,,,,,,,,,,,,,,,,,,,,,,,,,64.384673499997,64.384673499997,0.0213277000002563,64.384673499997,64.384673499997,64.384673499997,None,y,0.2255650000006426,,,,,,,,,,,,,,,,,,,,,,,,,,,,,,,,,,,339320,001,2023-06-02_17h00.49.564,Pilot_online_tryings,2022.2.5,32.21268619282521,
WhenL3_uns.csv,directory_online_whenL3_uns.csv,When_UnsyncL3_testdirs.csv,WhenL3_unsync_norm.wav,ga,100:104,red,Online_whenL3//cGA29.none.wav,none,,,0,0,0,2,0,13,13,9,0,1,1,1,,,,,,,,,,,,,,,,,,,,,,,,,,,,,,,,,,,,,,,,,,,,,,,,,,,,,,,,,0.0074007000075653195,64.66682820000278,64.66682820000278,64.66682820000278,None,y,0.09359550000226591,,,,,,,,,,,,,,,,,,,,,,,,,,,,,,,,,,,339320,001,2023-06-02_17h00.49.564,Pilot_online_tryings,2022.2.5,32.21268619282521,
WhenL3_uns.csv,directory_online_whenL3_uns.csv,When_UnsyncL3_testdirs.csv,WhenL3_unsync_norm.wav,ga,100:104,red,Online_whenL3//cGA28.1998.wav,1998.0,,,0,0,0,2,0,13,13,9,0,2,2,0,,,,,,,,,,,,,,,,,,,,,,,,,,,,,,,,,,,,,,,,,,,,,,,,,,,,,,,,,0.006793099993956275,64.8201842999988,64.8201842999988,64.8201842999988,None,y,0.10174509999342263,,,,,,,,,,,,,,,,,,,,,,,,,,,,,,,,,,,339320,001,2023-06-02_17h00.49.564,Pilot_online_tryings,2022.2.5,32.21268619282521,
WhenL3_uns.csv,directory_online_whenL3_uns.csv,When_UnsyncL3_testdirs.csv,WhenL3_unsync_norm.wav,ga,100:104,red,Online_whenL3//cGA30.none.wav,none,,,0,0,0,2,0,13,13,9,0,3,3,2,,,,,,,,,,,,,,,,,,,,,,,,,,,,,,,,,,,,,,,,,,,,,,,,,,,,,,,,,0.013717900001211092,64.97653369999898,64.97653369999898,64.97653369999898,None,y,0.11150470000575297,,,,,,,,,,,,,,,,,,,,,,,,,,,,,,,,,,,339320,001,2023-06-02_17h00.49.564,Pilot_online_tryings,2022.2.5,32.21268619282521,
WhenL3_uns.csv,directory_online_whenL3_uns.csv,When_UnsyncL3_testdirs.csv,WhenL3_unsync_norm.wav,ga,100:104,red,,,,,0,0,0,2,0,13,13,9,,,,,,,,,,,,,,,,,,,,,,,,,,,,,,,,,,,,,,,,,,,,,,,,,,,,,,,,,,,,,,,,,,,,,,,,,,,,,,,,,,,,,,,,,,,,,,,,,,,,,,339320,001,2023-06-02_17h00.49.564,Pilot_online_tryings,2022.2.5,32.21268619282521,
WhenL3_uns.csv,directory_online_whenL3_uns.csv,When_UnsyncL3_testdirs.csv,WhenL3_unsync_norm.wav,ga,80:84,red,Online_whenL3//cGA8.888.wav,888.0,,,0,0,0,2,0,14,14,21,0,0,0,0,,,,,,,,,,,,,,,,,,,,,,,,,,,,,,,,,,,,,,,,,,,,,,,,,,,,,,,65.13956149999285,65.13956149999285,0.023489599989261478,65.13956149999285,65.13956149999285,65.13956149999285,None,y,0.11066619999473915,,,,,,,,,,,,,,,,,,,,,,,,,,,,,,,,,,,339320,001,2023-06-02_17h00.49.564,Pilot_online_tryings,2022.2.5,32.21268619282521,
WhenL3_uns.csv,directory_online_whenL3_uns.csv,When_UnsyncL3_testdirs.csv,WhenL3_unsync_norm.wav,ga,80:84,red,Online_whenL3//cGA11.none.wav,none,,,0,0,0,2,0,14,14,21,0,1,1,3,,,,,,,,,,,,,,,,,,,,,,,,,,,,,,,,,,,,,,,,,,,,,,,,,,,,,,,,,0.006228800004464574,65.2885810000007,65.2885810000007,65.2885810000007,None,y,0.13578499999130145,,,,,,,,,,,,,,,,,,,,,,,,,,,,,,,,,,,339320,001,2023-06-02_17h00.49.564,Pilot_online_tryings,2022.2.5,32.21268619282521,
WhenL3_uns.csv,directory_online_whenL3_uns.csv,When_UnsyncL3_testdirs.csv,WhenL3_unsync_norm.wav,ga,80:84,red,Online_whenL3//cGA10.none.wav,none,,,0,0,0,2,0,14,14,21,0,2,2,2,,,,,,,,,,,,,,,,,,,,,,,,,,,,,,,,,,,,,,,,,,,,,,,,,,,,,,,,,0.010123400003067218,65.47610240000358,65.47610240000358,65.47610240000358,None,y,0.2687638999923365,,,,,,,,,,,,,,,,,,,,,,,,,,,,,,,,,,,339320,001,2023-06-02_17h00.49.564,Pilot_online_tryings,2022.2.5,32.21268619282521,
WhenL3_uns.csv,directory_online_whenL3_uns.csv,When_UnsyncL3_testdirs.csv,WhenL3_unsync_norm.wav,ga,80:84,red,Online_whenL3//cGA9.none.wav,none,,,0,0,0,2,0,14,14,21,0,3,3,1,,,,,,,,,,,,,,,,,,,,,,,,,,,,,,,,,,,,,,,,,,,,,,,,,,,,,,,,,0.006483100005425513,65.78914609999629,65.78914609999629,65.78914609999629,None,y,0.12348449999990407,,,,,,,,,,,,,,,,,,,,,,,,,,,,,,,,,,,339320,001,2023-06-02_17h00.49.564,Pilot_online_tryings,2022.2.5,32.21268619282521,
WhenL3_uns.csv,directory_online_whenL3_uns.csv,When_UnsyncL3_testdirs.csv,WhenL3_unsync_norm.wav,ga,80:84,red,,,,,0,0,0,2,0,14,14,21,,,,,,,,,,,,,,,,,,,,,,,,,,,,,,,,,,,,,,,,,,,,,,,,,,,,,,,,,,,,,,,,,,,,,,,,,,,,,,,,,,,,,,,,,,,,,,,,,,,,,,339320,001,2023-06-02_17h00.49.564,Pilot_online_tryings,2022.2.5,32.21268619282521,
WhenL3_uns.csv,directory_online_whenL3_uns.csv,When_UnsyncL3_testdirs.csv,WhenL3_unsync_norm.wav,mo,16:20,green,Online_whenL3//aMO19.none.wav,none,,,0,0,0,2,0,15,15,12,0,0,0,3,,,,,,,,,,,,,,,,,,,,,,,,,,,,,,,,,,,,,,,,,,,,,,,,,,,,,,,65.95832609999343,65.95832609999343,0.02785470000526402,65.95832609999343,65.95832609999343,65.95832609999343,None,y,0.11491769998974632,,,,,,,,,,,,,,,,,,,,,,,,,,,,,,,,,,,339320,001,2023-06-02_17h00.49.564,Pilot_online_tryings,2022.2.5,32.21268619282521,
WhenL3_uns.csv,directory_online_whenL3_uns.csv,When_UnsyncL3_testdirs.csv,WhenL3_unsync_norm.wav,mo,16:20,green,Online_whenL3//aMO17.none.wav,none,,,0,0,0,2,0,15,15,12,0,1,1,1,,,,,,,,,,,,,,,,,,,,,,,,,,,,,,,,,,,,,,,,,,,,,,,,,,,,,,,,,0.01498340000398457,66.1322552000056,66.1322552000056,66.1322552000056,None,y,0.11244769999757409,,,,,,,,,,,,,,,,,,,,,,,,,,,,,,,,,,,339320,001,2023-06-02_17h00.49.564,Pilot_online_tryings,2022.2.5,32.21268619282521,
WhenL3_uns.csv,directory_online_whenL3_uns.csv,When_UnsyncL3_testdirs.csv,WhenL3_unsync_norm.wav,mo,16:20,green,Online_whenL3//aMO16.1332.wav,1332.0,,,0,0,0,2,0,15,15,12,0,2,2,0,,,,,,,,,,,,,,,,,,,,,,,,,,,,,,,,,,,,,,,,,,,,,,,,,,,,,,,,,0.018770800001220778,66.28926809999393,66.28926809999393,66.28926809999393,None,y,0.13377289999334607,,,,,,,,,,,,,,,,,,,,,,,,,,,,,,,,,,,339320,001,2023-06-02_17h00.49.564,Pilot_online_tryings,2022.2.5,32.21268619282521,
WhenL3_uns.csv,directory_online_whenL3_uns.csv,When_UnsyncL3_testdirs.csv,WhenL3_unsync_norm.wav,mo,16:20,green,Online_whenL3//aMO18.none.wav,none,,,0,0,0,2,0,15,15,12,0,3,3,2,,,,,,,,,,,,,,,,,,,,,,,,,,,,,,,,,,,,,,,,,,,,,,,,,,,,,,,,,0.0062670999905094504,66.47685960000672,66.47685960000672,66.47685960000672,None,y,0.11499499999627005,,,,,,,,,,,,,,,,,,,,,,,,,,,,,,,,,,,339320,001,2023-06-02_17h00.49.564,Pilot_online_tryings,2022.2.5,32.21268619282521,
WhenL3_uns.csv,directory_online_whenL3_uns.csv,When_UnsyncL3_testdirs.csv,WhenL3_unsync_norm.wav,mo,16:20,green,,,,,0,0,0,2,0,15,15,12,,,,,,,,,,,,,,,,,,,,,,,,,,,,,,,,,,,,,,,,,,,,,,,,,,,,,,,,,,,,,,,,,,,,,,,,,,,,,,,,,,,,,,,,,,,,,,,,,,,,,,339320,001,2023-06-02_17h00.49.564,Pilot_online_tryings,2022.2.5,32.21268619282521,
WhenL3_uns.csv,directory_online_whenL3_uns.csv,When_UnsyncL3_testdirs.csv,WhenL3_unsync_norm.wav,mo,28:32,green,Online_whenL3//aMO28.none.wav,none,,,0,0,0,2,0,16,16,17,0,0,0,0,,,,,,,,,,,,,,,,,,,,,,,,,,,,,,,,,,,,,,,,,,,,,,,,,,,,,,,66.64371990000654,66.64371990000654,0.03228990000206977,66.64371990000654,66.64371990000654,66.64371990000654,None,y,0.12130119999346789,,,,,,,,,,,,,,,,,,,,,,,,,,,,,,,,,,,339320,001,2023-06-02_17h00.49.564,Pilot_online_tryings,2022.2.5,32.21268619282521,
WhenL3_uns.csv,directory_online_whenL3_uns.csv,When_UnsyncL3_testdirs.csv,WhenL3_unsync_norm.wav,mo,28:32,green,Online_whenL3//aMO30.444.wav,444.0,,,0,0,0,2,0,16,16,17,0,1,1,2,,,,,,,,,,,,,,,,,,,,,,,,,,,,,,,,,,,,,,,,,,,,,,,,,,,,,,,,,0.006976699994993396,66.820263600006,66.820263600006,66.820263600006,None,y,0.11421309999423102,,,,,,,,,,,,,,,,,,,,,,,,,,,,,,,,,,,339320,001,2023-06-02_17h00.49.564,Pilot_online_tryings,2022.2.5,32.21268619282521,
WhenL3_uns.csv,directory_online_whenL3_uns.csv,When_UnsyncL3_testdirs.csv,WhenL3_unsync_norm.wav,mo,28:32,green,Online_whenL3//aMO31.1110.wav,1110.0,,,0,0,0,2,0,16,16,17,0,2,2,3,,,,,,,,,,,,,,,,,,,,,,,,,,,,,,,,,,,,,,,,,,,,,,,,,,,,,,,,,0.02375620001112111,67.01380739999877,67.01380739999877,67.01380739999877,None,y,0.10944119999476243,,,,,,,,,,,,,,,,,,,,,,,,,,,,,,,,,,,339320,001,2023-06-02_17h00.49.564,Pilot_online_tryings,2022.2.5,32.21268619282521,
WhenL3_uns.csv,directory_online_whenL3_uns.csv,When_UnsyncL3_testdirs.csv,WhenL3_unsync_norm.wav,mo,28:32,green,Online_whenL3//aMO29.1110.wav,1110.0,,,0,0,0,2,0,16,16,17,0,3,3,1,,,,,,,,,,,,,,,,,,,,,,,,,,,,,,,,,,,,,,,,,,,,,,,,,,,,,,,,,0.005310000007739291,67.16337559999374,67.16337559999374,67.16337559999374,None,y,0.13611520000267774,,,,,,,,,,,,,,,,,,,,,,,,,,,,,,,,,,,339320,001,2023-06-02_17h00.49.564,Pilot_online_tryings,2022.2.5,32.21268619282521,
WhenL3_uns.csv,directory_online_whenL3_uns.csv,When_UnsyncL3_testdirs.csv,WhenL3_unsync_norm.wav,mo,28:32,green,,,,,0,0,0,2,0,16,16,17,,,,,,,,,,,,,,,,,,,,,,,,,,,,,,,,,,,,,,,,,,,,,,,,,,,,,,,,,,,,,,,,,,,,,,,,,,,,,,,,,,,,,,,,,,,,,,,,,,,,,,339320,001,2023-06-02_17h00.49.564,Pilot_online_tryings,2022.2.5,32.21268619282521,
WhenL3_uns.csv,directory_online_whenL3_uns.csv,When_UnsyncL3_testdirs.csv,WhenL3_unsync_norm.wav,ñe,36:40,orange,Online_whenL3//bÑE0.none.wav,none,,,0,0,0,2,0,17,17,3,0,0,0,0,,,,,,,,,,,,,,,,,,,,,,,,,,,,,,,,,,,,,,,,,,,,,,,,,,,,,,,67.36226629999874,67.36226629999874,0.028648099993006326,67.36226629999874,67.36226629999874,67.36226629999874,None,y,0.13326299999607727,,,,,,,,,,,,,,,,,,,,,,,,,,,,,,,,,,,339320,001,2023-06-02_17h00.49.564,Pilot_online_tryings,2022.2.5,32.21268619282521,
WhenL3_uns.csv,directory_online_whenL3_uns.csv,When_UnsyncL3_testdirs.csv,WhenL3_unsync_norm.wav,ñe,36:40,orange,Online_whenL3//bÑE1.444.wav,444.0,,,0,0,0,2,0,17,17,3,0,1,1,1,,,,,,,,,,,,,,,,,,,,,,,,,,,,,,,,,,,,,,,,,,,,,,,,,,,,,,,,,0.006189100007759407,67.53939740000351,67.53939740000351,67.53939740000351,None,y,0.1262531999964267,,,,,,,,,,,,,,,,,,,,,,,,,,,,,,,,,,,339320,001,2023-06-02_17h00.49.564,Pilot_online_tryings,2022.2.5,32.21268619282521,
WhenL3_uns.csv,directory_online_whenL3_uns.csv,When_UnsyncL3_testdirs.csv,WhenL3_unsync_norm.wav,ñe,36:40,orange,Online_whenL3//bÑE3.none.wav,none,,,0,0,0,2,0,17,17,3,0,2,2,3,,,,,,,,,,,,,,,,,,,,,,,,,,,,,,,,,,,,,,,,,,,,,,,,,,,,,,,,,0.005463199995574541,67.69610499999544,67.69610499999544,67.69610499999544,None,y,0.1504755999922054,,,,,,,,,,,,,,,,,,,,,,,,,,,,,,,,,,,339320,001,2023-06-02_17h00.49.564,Pilot_online_tryings,2022.2.5,32.21268619282521,
WhenL3_uns.csv,directory_online_whenL3_uns.csv,When_UnsyncL3_testdirs.csv,WhenL3_unsync_norm.wav,ñe,36:40,orange,Online_whenL3//bÑE2.444.wav,444.0,,,0,0,0,2,0,17,17,3,0,3,3,2,,,,,,,,,,,,,,,,,,,,,,,,,,,,,,,,,,,,,,,,,,,,,,,,,,,,,,,,,0.021968000000924803,67.91424110000662,67.91424110000662,67.91424110000662,None,y,0.094078800000716,,,,,,,,,,,,,,,,,,,,,,,,,,,,,,,,,,,339320,001,2023-06-02_17h00.49.564,Pilot_online_tryings,2022.2.5,32.21268619282521,
WhenL3_uns.csv,directory_online_whenL3_uns.csv,When_UnsyncL3_testdirs.csv,WhenL3_unsync_norm.wav,ñe,36:40,orange,,,,,0,0,0,2,0,17,17,3,,,,,,,,,,,,,,,,,,,,,,,,,,,,,,,,,,,,,,,,,,,,,,,,,,,,,,,,,,,,,,,,,,,,,,,,,,,,,,,,,,,,,,,,,,,,,,,,,,,,,,339320,001,2023-06-02_17h00.49.564,Pilot_online_tryings,2022.2.5,32.21268619282521,
WhenL3_uns.csv,directory_online_whenL3_uns.csv,When_UnsyncL3_testdirs.csv,WhenL3_unsync_norm.wav,mo,4:8,green,Online_whenL3//aMO4.1110.wav,1110.0,,,0,0,0,2,0,18,18,5,0,0,0,0,,,,,,,,,,,,,,,,,,,,,,,,,,,,,,,,,,,,,,,,,,,,,,,,,,,,,,,68.06058980000671,68.06058980000671,0.03648090000206139,68.06058980000671,68.06058980000671,68.06058980000671,None,y,0.1094022000033874,,,,,,,,,,,,,,,,,,,,,,,,,,,,,,,,,,,339320,001,2023-06-02_17h00.49.564,Pilot_online_tryings,2022.2.5,32.21268619282521,
WhenL3_uns.csv,directory_online_whenL3_uns.csv,When_UnsyncL3_testdirs.csv,WhenL3_unsync_norm.wav,mo,4:8,green,Online_whenL3//aMO6.1332.wav,1332.0,,,0,0,0,2,0,18,18,5,0,1,1,2,,,,,,,,,,,,,,,,,,,,,,,,,,,,,,,,,,,,,,,,,,,,,,,,,,,,,,,,,0.0061446999898180366,68.230189599999,68.230189599999,68.230189599999,None,y,0.10472409999056254,,,,,,,,,,,,,,,,,,,,,,,,,,,,,,,,,,,339320,001,2023-06-02_17h00.49.564,Pilot_online_tryings,2022.2.5,32.21268619282521,
WhenL3_uns.csv,directory_online_whenL3_uns.csv,When_UnsyncL3_testdirs.csv,WhenL3_unsync_norm.wav,mo,4:8,green,Online_whenL3//aMO5.none.wav,none,,,0,0,0,2,0,18,18,5,0,2,2,1,,,,,,,,,,,,,,,,,,,,,,,,,,,,,,,,,,,,,,,,,,,,,,,,,,,,,,,,,0.007549200003268197,68.38273139999365,68.38273139999365,68.38273139999365,None,y,0.11339359999692533,,,,,,,,,,,,,,,,,,,,,,,,,,,,,,,,,,,339320,001,2023-06-02_17h00.49.564,Pilot_online_tryings,2022.2.5,32.21268619282521,
WhenL3_uns.csv,directory_online_whenL3_uns.csv,When_UnsyncL3_testdirs.csv,WhenL3_unsync_norm.wav,mo,4:8,green,Online_whenL3//aMO7.222.wav,222.0,,,0,0,0,2,0,18,18,5,0,3,3,3,,,,,,,,,,,,,,,,,,,,,,,,,,,,,,,,,,,,,,,,,,,,,,,,,,,,,,,,,0.007886999999755062,68.53879649999726,68.53879649999726,68.53879649999726,None,y,0.11105000000679865,,,,,,,,,,,,,,,,,,,,,,,,,,,,,,,,,,,339320,001,2023-06-02_17h00.49.564,Pilot_online_tryings,2022.2.5,32.21268619282521,
WhenL3_uns.csv,directory_online_whenL3_uns.csv,When_UnsyncL3_testdirs.csv,WhenL3_unsync_norm.wav,mo,4:8,green,,,,,0,0,0,2,0,18,18,5,,,,,,,,,,,,,,,,,,,,,,,,,,,,,,,,,,,,,,,,,,,,,,,,,,,,,,,,,,,,,,,,,,,,,,,,,,,,,,,,,,,,,,,,,,,,,,,,,,,,,,339320,001,2023-06-02_17h00.49.564,Pilot_online_tryings,2022.2.5,32.21268619282521,
WhenL3_uns.csv,directory_online_whenL3_uns.csv,When_UnsyncL3_testdirs.csv,WhenL3_unsync_norm.wav,mo,0:4,green,Online_whenL3//aMO2.444.wav,444.0,,,0,0,0,2,0,19,19,27,0,0,0,2,,,,,,,,,,,,,,,,,,,,,,,,,,,,,,,,,,,,,,,,,,,,,,,,,,,,,,,68.69519909999508,68.69519909999508,0.01665020000655204,68.69519909999508,68.69519909999508,68.69519909999508,None,y,0.09450180000567343,,,,,,,,,,,,,,,,,,,,,,,,,,,,,,,,,,,339320,001,2023-06-02_17h00.49.564,Pilot_online_tryings,2022.2.5,32.21268619282521,
WhenL3_uns.csv,directory_online_whenL3_uns.csv,When_UnsyncL3_testdirs.csv,WhenL3_unsync_norm.wav,mo,0:4,green,Online_whenL3//aMO3.none.wav,none,,,0,0,0,2,0,19,19,27,0,1,1,3,,,,,,,,,,,,,,,,,,,,,,,,,,,,,,,,,,,,,,,,,,,,,,,,,,,,,,,,,0.0068540999927790835,68.85085129999788,68.85085129999788,68.85085129999788,None,y,0.0925340999965556,,,,,,,,,,,,,,,,,,,,,,,,,,,,,,,,,,,339320,001,2023-06-02_17h00.49.564,Pilot_online_tryings,2022.2.5,32.21268619282521,
WhenL3_uns.csv,directory_online_whenL3_uns.csv,When_UnsyncL3_testdirs.csv,WhenL3_unsync_norm.wav,mo,0:4,green,Online_whenL3//aMO1.888.wav,888.0,,,0,0,0,2,0,19,19,27,0,2,2,1,,,,,,,,,,,,,,,,,,,,,,,,,,,,,,,,,,,,,,,,,,,,,,,,,,,,,,,,,0.028384300007019192,69.01915920000465,69.01915920000465,69.01915920000465,None,y,0.06274170000688173,,,,,,,,,,,,,,,,,,,,,,,,,,,,,,,,,,,339320,001,2023-06-02_17h00.49.564,Pilot_online_tryings,2022.2.5,32.21268619282521,
WhenL3_uns.csv,directory_online_whenL3_uns.csv,When_UnsyncL3_testdirs.csv,WhenL3_unsync_norm.wav,mo,0:4,green,Online_whenL3//aMO0.none.wav,none,,,0,0,0,2,0,19,19,27,0,3,3,0,,,,,,,,,,,,,,,,,,,,,,,,,,,,,,,,,,,,,,,,,,,,,,,,,,,,,,,,,0.009184800001094118,69.13224069999706,69.13224069999706,69.13224069999706,None,y,0.09585999998671468,,,,,,,,,,,,,,,,,,,,,,,,,,,,,,,,,,,339320,001,2023-06-02_17h00.49.564,Pilot_online_tryings,2022.2.5,32.21268619282521,
WhenL3_uns.csv,directory_online_whenL3_uns.csv,When_UnsyncL3_testdirs.csv,WhenL3_unsync_norm.wav,mo,0:4,green,,,,,0,0,0,2,0,19,19,27,,,,,,,,,,,,,,,,,,,,,,,,,,,,,,,,,,,,,,,,,,,,,,,,,,,,,,,,,,,,,,,,,,,,,,,,,,,,,,,,,,,,,,,,,,,,,,,,,,,,,,339320,001,2023-06-02_17h00.49.564,Pilot_online_tryings,2022.2.5,32.21268619282521,
WhenL3_uns.csv,directory_online_whenL3_uns.csv,When_UnsyncL3_testdirs.csv,WhenL3_unsync_norm.wav,ga,84:88,red,Online_whenL3//cGA12.1110.wav,1110.0,,,0,0,0,2,0,20,20,10,0,0,0,0,,,,,,,,,,,,,,,,,,,,,,,,,,,,,,,,,,,,,,,,,,,,,,,,,,,,,,,69.27092399999674,69.27092399999674,0.026099499998963438,69.27092399999674,69.27092399999674,69.27092399999674,None,y,0.09379639998951461,,,,,,,,,,,,,,,,,,,,,,,,,,,,,,,,,,,339320,001,2023-06-02_17h00.49.564,Pilot_online_tryings,2022.2.5,32.21268619282521,
WhenL3_uns.csv,directory_online_whenL3_uns.csv,When_UnsyncL3_testdirs.csv,WhenL3_unsync_norm.wav,ga,84:88,red,Online_whenL3//cGA14.none.wav,none,,,0,0,0,2,0,20,20,10,0,1,1,2,,,,,,,,,,,,,,,,,,,,,,,,,,,,,,,,,,,,,,,,,,,,,,,,,,,,,,,,,0.005910199994104914,69.44781260000309,69.44781260000309,69.44781260000309,None,y,0.0666540999955032,,,,,,,,,,,,,,,,,,,,,,,,,,,,,,,,,,,339320,001,2023-06-02_17h00.49.564,Pilot_online_tryings,2022.2.5,32.21268619282521,
WhenL3_uns.csv,directory_online_whenL3_uns.csv,When_UnsyncL3_testdirs.csv,WhenL3_unsync_norm.wav,ga,84:88,red,Online_whenL3//cGA13.888.wav,888.0,,,0,0,0,2,0,20,20,10,0,2,2,1,,,,,,,,,,,,,,,,,,,,,,,,,,,,,,,,,,,,,,,,,,,,,,,,,,,,,,,,,0.0071727999893482774,69.56973240000661,69.56973240000661,69.56973240000661,None,y,0.08346319998963736,,,,,,,,,,,,,,,,,,,,,,,,,,,,,,,,,,,339320,001,2023-06-02_17h00.49.564,Pilot_online_tryings,2022.2.5,32.21268619282521,
WhenL3_uns.csv,directory_online_whenL3_uns.csv,When_UnsyncL3_testdirs.csv,WhenL3_unsync_norm.wav,ga,84:88,red,Online_whenL3//cGA15.none.wav,none,,,0,0,0,2,0,20,20,10,0,3,3,3,,,,,,,,,,,,,,,,,,,,,,,,,,,,,,,,,,,,,,,,,,,,,,,,,,,,,,,,,0.006620800006203353,69.69537190000119,69.69537190000119,69.69537190000119,None,y,0.0990581999940332,,,,,,,,,,,,,,,,,,,,,,,,,,,,,,,,,,,339320,001,2023-06-02_17h00.49.564,Pilot_online_tryings,2022.2.5,32.21268619282521,
WhenL3_uns.csv,directory_online_whenL3_uns.csv,When_UnsyncL3_testdirs.csv,WhenL3_unsync_norm.wav,ga,84:88,red,,,,,0,0,0,2,0,20,20,10,,,,,,,,,,,,,,,,,,,,,,,,,,,,,,,,,,,,,,,,,,,,,,,,,,,,,,,,,,,,,,,,,,,,,,,,,,,,,,,,,,,,,,,,,,,,,,,,,,,,,,339320,001,2023-06-02_17h00.49.564,Pilot_online_tryings,2022.2.5,32.21268619282521,
WhenL3_uns.csv,directory_online_whenL3_uns.csv,When_UnsyncL3_testdirs.csv,WhenL3_unsync_norm.wav,ji,112:116,blue,Online_whenL3//dJI11.444.wav,444.0,,,0,0,0,2,0,21,21,26,0,0,0,3,,,,,,,,,,,,,,,,,,,,,,,,,,,,,,,,,,,,,,,,,,,,,,,,,,,,,,,69.8851813999936,69.8851813999936,0.046145100001012906,69.8851813999936,69.8851813999936,69.8851813999936,None,y,0.06701339999563061,,,,,,,,,,,,,,,,,,,,,,,,,,,,,,,,,,,339320,001,2023-06-02_17h00.49.564,Pilot_online_tryings,2022.2.5,32.21268619282521,
WhenL3_uns.csv,directory_online_whenL3_uns.csv,When_UnsyncL3_testdirs.csv,WhenL3_unsync_norm.wav,ji,112:116,blue,Online_whenL3//dJI9.none.wav,none,,,0,0,0,2,0,21,21,26,0,1,1,1,,,,,,,,,,,,,,,,,,,,,,,,,,,,,,,,,,,,,,,,,,,,,,,,,,,,,,,,,0.02278400000068359,70.01983030000702,70.01983030000702,70.01983030000702,None,y,0.06801489999634214,,,,,,,,,,,,,,,,,,,,,,,,,,,,,,,,,,,339320,001,2023-06-02_17h00.49.564,Pilot_online_tryings,2022.2.5,32.21268619282521,
WhenL3_uns.csv,directory_online_whenL3_uns.csv,When_UnsyncL3_testdirs.csv,WhenL3_unsync_norm.wav,ji,112:116,blue,Online_whenL3//dJI10.none.wav,none,,,0,0,0,2,0,21,21,26,0,2,2,2,,,,,,,,,,,,,,,,,,,,,,,,,,,,,,,,,,,,,,,,,,,,,,,,,,,,,,,,,0.007681899995077401,70.13216550000652,70.13216550000652,70.13216550000652,None,y,0.10331779999251012,,,,,,,,,,,,,,,,,,,,,,,,,,,,,,,,,,,339320,001,2023-06-02_17h00.49.564,Pilot_online_tryings,2022.2.5,32.21268619282521,
WhenL3_uns.csv,directory_online_whenL3_uns.csv,When_UnsyncL3_testdirs.csv,WhenL3_unsync_norm.wav,ji,112:116,blue,Online_whenL3//dJI8.none.wav,none,,,0,0,0,2,0,21,21,26,0,3,3,0,,,,,,,,,,,,,,,,,,,,,,,,,,,,,,,,,,,,,,,,,,,,,,,,,,,,,,,,,0.02200539999466855,70.29380749999837,70.29380749999837,70.29380749999837,None,y,0.09674779999477323,,,,,,,,,,,,,,,,,,,,,,,,,,,,,,,,,,,339320,001,2023-06-02_17h00.49.564,Pilot_online_tryings,2022.2.5,32.21268619282521,
WhenL3_uns.csv,directory_online_whenL3_uns.csv,When_UnsyncL3_testdirs.csv,WhenL3_unsync_norm.wav,ji,112:116,blue,,,,,0,0,0,2,0,21,21,26,,,,,,,,,,,,,,,,,,,,,,,,,,,,,,,,,,,,,,,,,,,,,,,,,,,,,,,,,,,,,,,,,,,,,,,,,,,,,,,,,,,,,,,,,,,,,,,,,,,,,,339320,001,2023-06-02_17h00.49.564,Pilot_online_tryings,2022.2.5,32.21268619282521,
WhenL3_uns.csv,directory_online_whenL3_uns.csv,When_UnsyncL3_testdirs.csv,WhenL3_unsync_norm.wav,mo,8:12,green,Online_whenL3//aMO9.1110.wav,1110.0,,,0,0,0,2,0,22,22,4,0,0,0,1,,,,,,,,,,,,,,,,,,,,,,,,,,,,,,,,,,,,,,,,,,,,,,,,,,,,,,,70.5044915000035,70.5044915000035,0.06069959999877028,70.5044915000035,70.5044915000035,70.5044915000035,None,y,0.028782900000805967,,,,,,,,,,,,,,,,,,,,,,,,,,,,,,,,,,,339320,001,2023-06-02_17h00.49.564,Pilot_online_tryings,2022.2.5,32.21268619282521,
WhenL3_uns.csv,directory_online_whenL3_uns.csv,When_UnsyncL3_testdirs.csv,WhenL3_unsync_norm.wav,mo,8:12,green,Online_whenL3//aMO8.none.wav,none,,,0,0,0,2,0,22,22,4,0,1,1,0,,,,,,,,,,,,,,,,,,,,,,,,,,,,,,,,,,,,,,,,,,,,,,,,,,,,,,,,,0.022286500010523014,70.5815830000065,70.5815830000065,70.5815830000065,None,y,0.09237109999230597,,,,,,,,,,,,,,,,,,,,,,,,,,,,,,,,,,,339320,001,2023-06-02_17h00.49.564,Pilot_online_tryings,2022.2.5,32.21268619282521,
WhenL3_uns.csv,directory_online_whenL3_uns.csv,When_UnsyncL3_testdirs.csv,WhenL3_unsync_norm.wav,mo,8:12,green,Online_whenL3//aMO11.222.wav,222.0,,,0,0,0,2,0,22,22,4,0,2,2,3,,,,,,,,,,,,,,,,,,,,,,,,,,,,,,,,,,,,,,,,,,,,,,,,,,,,,,,,,0.016385800001444295,70.75818380000419,70.75818380000419,70.75818380000419,None,y,0.07184479999705218,,,,,,,,,,,,,,,,,,,,,,,,,,,,,,,,,,,339320,001,2023-06-02_17h00.49.564,Pilot_online_tryings,2022.2.5,32.21268619282521,
WhenL3_uns.csv,directory_online_whenL3_uns.csv,When_UnsyncL3_testdirs.csv,WhenL3_unsync_norm.wav,mo,8:12,green,Online_whenL3//aMO10.none.wav,none,,,0,0,0,2,0,22,22,4,0,3,3,2,,,,,,,,,,,,,,,,,,,,,,,,,,,,,,,,,,,,,,,,,,,,,,,,,,,,,,,,,0.00896880000072997,70.8823709999997,70.8823709999997,70.8823709999997,None,y,0.1045321999990847,,,,,,,,,,,,,,,,,,,,,,,,,,,,,,,,,,,339320,001,2023-06-02_17h00.49.564,Pilot_online_tryings,2022.2.5,32.21268619282521,
WhenL3_uns.csv,directory_online_whenL3_uns.csv,When_UnsyncL3_testdirs.csv,WhenL3_unsync_norm.wav,mo,8:12,green,,,,,0,0,0,2,0,22,22,4,,,,,,,,,,,,,,,,,,,,,,,,,,,,,,,,,,,,,,,,,,,,,,,,,,,,,,,,,,,,,,,,,,,,,,,,,,,,,,,,,,,,,,,,,,,,,,,,,,,,,,339320,001,2023-06-02_17h00.49.564,Pilot_online_tryings,2022.2.5,32.21268619282521,
WhenL3_uns.csv,directory_online_whenL3_uns.csv,When_UnsyncL3_testdirs.csv,WhenL3_unsync_norm.wav,mo,12:16,green,Online_whenL3//aMO13.none.wav,none,,,0,0,0,2,0,23,23,18,0,0,0,1,,,,,,,,,,,,,,,,,,,,,,,,,,,,,,,,,,,,,,,,,,,,,,,,,,,,,,,71.0410847000021,71.0410847000021,0.019851599994581193,71.0410847000021,71.0410847000021,71.0410847000021,None,y,0.09389530000044033,,,,,,,,,,,,,,,,,,,,,,,,,,,,,,,,,,,339320,001,2023-06-02_17h00.49.564,Pilot_online_tryings,2022.2.5,32.21268619282521,
WhenL3_uns.csv,directory_online_whenL3_uns.csv,When_UnsyncL3_testdirs.csv,WhenL3_unsync_norm.wav,mo,12:16,green,Online_whenL3//aMO15.1332.wav,1332.0,,,0,0,0,2,0,23,23,18,0,1,1,3,,,,,,,,,,,,,,,,,,,,,,,,,,,,,,,,,,,,,,,,,,,,,,,,,,,,,,,,,0.016048500008764677,71.16387010000471,71.16387010000471,71.16387010000471,None,y,0.12496450000617187,,,,,,,,,,,,,,,,,,,,,,,,,,,,,,,,,,,339320,001,2023-06-02_17h00.49.564,Pilot_online_tryings,2022.2.5,32.21268619282521,
WhenL3_uns.csv,directory_online_whenL3_uns.csv,When_UnsyncL3_testdirs.csv,WhenL3_unsync_norm.wav,mo,12:16,green,Online_whenL3//aMO12.none.wav,none,,,0,0,0,2,0,23,23,18,0,2,2,0,,,,,,,,,,,,,,,,,,,,,,,,,,,,,,,,,,,,,,,,,,,,,,,,,,,,,,,,,0.006410300004063174,71.32227180000336,71.32227180000336,71.32227180000336,None,y,0.12817050000012387,,,,,,,,,,,,,,,,,,,,,,,,,,,,,,,,,,,339320,001,2023-06-02_17h00.49.564,Pilot_online_tryings,2022.2.5,32.21268619282521,
WhenL3_uns.csv,directory_online_whenL3_uns.csv,When_UnsyncL3_testdirs.csv,WhenL3_unsync_norm.wav,mo,12:16,green,Online_whenL3//aMO14.none.wav,none,,,0,0,0,2,0,23,23,18,0,3,3,2,,,,,,,,,,,,,,,,,,,,,,,,,,,,,,,,,,,,,,,,,,,,,,,,,,,,,,,,,0.009050399996340275,71.51001880000695,71.51001880000695,71.51001880000695,None,y,0.1044633999990765,,,,,,,,,,,,,,,,,,,,,,,,,,,,,,,,,,,339320,001,2023-06-02_17h00.49.564,Pilot_online_tryings,2022.2.5,32.21268619282521,
WhenL3_uns.csv,directory_online_whenL3_uns.csv,When_UnsyncL3_testdirs.csv,WhenL3_unsync_norm.wav,mo,12:16,green,,,,,0,0,0,2,0,23,23,18,,,,,,,,,,,,,,,,,,,,,,,,,,,,,,,,,,,,,,,,,,,,,,,,,,,,,,,,,,,,,,,,,,,,,,,,,,,,,,,,,,,,,,,,,,,,,,,,,,,,,,339320,001,2023-06-02_17h00.49.564,Pilot_online_tryings,2022.2.5,32.21268619282521,
WhenL3_uns.csv,directory_online_whenL3_uns.csv,When_UnsyncL3_testdirs.csv,WhenL3_unsync_norm.wav,ñe,64:68,orange,Online_whenL3//bÑE31.none.wav,none,,,0,0,0,2,0,24,24,14,0,0,0,3,,,,,,,,,,,,,,,,,,,,,,,,,,,,,,,,,,,,,,,,,,,,,,,,,,,,,,,71.68437529999937,71.68437529999937,0.03285560000222176,71.68437529999937,71.68437529999937,71.68437529999937,None,y,0.08729219999804627,,,,,,,,,,,,,,,,,,,,,,,,,,,,,,,,,,,339320,001,2023-06-02_17h00.49.564,Pilot_online_tryings,2022.2.5,32.21268619282521,
WhenL3_uns.csv,directory_online_whenL3_uns.csv,When_UnsyncL3_testdirs.csv,WhenL3_unsync_norm.wav,ñe,64:68,orange,Online_whenL3//bÑE29.0.wav,0.0,,,0,0,0,2,0,24,24,14,0,1,1,1,,,,,,,,,,,,,,,,,,,,,,,,,,,,,,,,,,,,,,,,,,,,,,,,,,,,,,,,,0.027290900005027652,71.82558610000706,71.82558610000706,71.82558610000706,None,y,0.10719459998654202,,,,,,,,,,,,,,,,,,,,,,,,,,,,,,,,,,,339320,001,2023-06-02_17h00.49.564,Pilot_online_tryings,2022.2.5,32.21268619282521,
WhenL3_uns.csv,directory_online_whenL3_uns.csv,When_UnsyncL3_testdirs.csv,WhenL3_unsync_norm.wav,ñe,64:68,orange,Online_whenL3//bÑE28.444.wav,444.0,,,0,0,0,2,0,24,24,14,0,2,2,0,,,,,,,,,,,,,,,,,,,,,,,,,,,,,,,,,,,,,,,,,,,,,,,,,,,,,,,,,0.01073569999425672,71.98015920000034,71.98015920000034,71.98015920000034,None,y,0.113971800004947,,,,,,,,,,,,,,,,,,,,,,,,,,,,,,,,,,,339320,001,2023-06-02_17h00.49.564,Pilot_online_tryings,2022.2.5,32.21268619282521,
WhenL3_uns.csv,directory_online_whenL3_uns.csv,When_UnsyncL3_testdirs.csv,WhenL3_unsync_norm.wav,ñe,64:68,orange,Online_whenL3//bÑE30.none.wav,none,,,0,0,0,2,0,24,24,14,0,3,3,2,,,,,,,,,,,,,,,,,,,,,,,,,,,,,,,,,,,,,,,,,,,,,,,,,,,,,,,,,0.019229699988500215,72.14033120000386,72.14033120000386,72.14033120000386,None,y,0.1177519999910146,,,,,,,,,,,,,,,,,,,,,,,,,,,,,,,,,,,339320,001,2023-06-02_17h00.49.564,Pilot_online_tryings,2022.2.5,32.21268619282521,
WhenL3_uns.csv,directory_online_whenL3_uns.csv,When_UnsyncL3_testdirs.csv,WhenL3_unsync_norm.wav,ñe,64:68,orange,,,,,0,0,0,2,0,24,24,14,,,,,,,,,,,,,,,,,,,,,,,,,,,,,,,,,,,,,,,,,,,,,,,,,,,,,,,,,,,,,,,,,,,,,,,,,,,,,,,,,,,,,,,,,,,,,,,,,,,,,,339320,001,2023-06-02_17h00.49.564,Pilot_online_tryings,2022.2.5,32.21268619282521,
WhenL3_uns.csv,directory_online_whenL3_uns.csv,When_UnsyncL3_testdirs.csv,WhenL3_unsync_norm.wav,ga,92:96,red,Online_whenL3//cGA23.444.wav,444.0,,,0,0,0,2,0,25,25,13,0,0,0,3,,,,,,,,,,,,,,,,,,,,,,,,,,,,,,,,,,,,,,,,,,,,,,,,,,,,,,,72.34180419999757,72.34180419999757,0.05178529999102466,72.34180419999757,72.34180419999757,72.34180419999757,None,y,0.08602369998698123,,,,,,,,,,,,,,,,,,,,,,,,,,,,,,,,,,,339320,001,2023-06-02_17h00.49.564,Pilot_online_tryings,2022.2.5,32.21268619282521,
WhenL3_uns.csv,directory_online_whenL3_uns.csv,When_UnsyncL3_testdirs.csv,WhenL3_unsync_norm.wav,ga,92:96,red,Online_whenL3//cGA22.none.wav,none,,,0,0,0,2,0,25,25,13,0,1,1,2,,,,,,,,,,,,,,,,,,,,,,,,,,,,,,,,,,,,,,,,,,,,,,,,,,,,,,,,,0.008493100001942366,72.4777771999943,72.4777771999943,72.4777771999943,None,y,0.15378920000512153,,,,,,,,,,,,,,,,,,,,,,,,,,,,,,,,,,,339320,001,2023-06-02_17h00.49.564,Pilot_online_tryings,2022.2.5,32.21268619282521,
WhenL3_uns.csv,directory_online_whenL3_uns.csv,When_UnsyncL3_testdirs.csv,WhenL3_unsync_norm.wav,ga,92:96,red,Online_whenL3//cGA20.1110.wav,1110.0,,,0,0,0,2,0,25,25,13,0,2,2,0,,,,,,,,,,,,,,,,,,,,,,,,,,,,,,,,,,,,,,,,,,,,,,,,,,,,,,,,,0.0074499999900581315,72.66604339999321,72.66604339999321,72.66604339999321,None,y,0.07940760000201408,,,,,,,,,,,,,,,,,,,,,,,,,,,,,,,,,,,339320,001,2023-06-02_17h00.49.564,Pilot_online_tryings,2022.2.5,32.21268619282521,
WhenL3_uns.csv,directory_online_whenL3_uns.csv,When_UnsyncL3_testdirs.csv,WhenL3_unsync_norm.wav,ga,92:96,red,Online_whenL3//cGA21.1110.wav,1110.0,,,0,0,0,2,0,25,25,13,0,3,3,1,,,,,,,,,,,,,,,,,,,,,,,,,,,,,,,,,,,,,,,,,,,,,,,,,,,,,,,,,0.00740280000900384,72.82091480000236,72.82091480000236,72.82091480000236,None,y,0.10244029999012128,,,,,,,,,,,,,,,,,,,,,,,,,,,,,,,,,,,339320,001,2023-06-02_17h00.49.564,Pilot_online_tryings,2022.2.5,32.21268619282521,
WhenL3_uns.csv,directory_online_whenL3_uns.csv,When_UnsyncL3_testdirs.csv,WhenL3_unsync_norm.wav,ga,92:96,red,,,,,0,0,0,2,0,25,25,13,,,,,,,,,,,,,,,,,,,,,,,,,,,,,,,,,,,,,,,,,,,,,,,,,,,,,,,,,,,,,,,,,,,,,,,,,,,,,,,,,,,,,,,,,,,,,,,,,,,,,,339320,001,2023-06-02_17h00.49.564,Pilot_online_tryings,2022.2.5,32.21268619282521,
WhenL3_uns.csv,directory_online_whenL3_uns.csv,When_UnsyncL3_testdirs.csv,WhenL3_unsync_norm.wav,ji,116:120,blue,Online_whenL3//dJI13.888.wav,888.0,,,0,0,0,2,0,26,26,0,0,0,0,1,,,,,,,,,,,,,,,,,,,,,,,,,,,,,,,,,,,,,,,,,,,,,,,,,,,,,,,73.01401529999566,73.01401529999566,0.04673929999989923,73.01401529999566,73.01401529999566,73.01401529999566,None,y,0.08202420000452548,,,,,,,,,,,,,,,,,,,,,,,,,,,,,,,,,,,339320,001,2023-06-02_17h00.49.564,Pilot_online_tryings,2022.2.5,32.21268619282521,
WhenL3_uns.csv,directory_online_whenL3_uns.csv,When_UnsyncL3_testdirs.csv,WhenL3_unsync_norm.wav,ji,116:120,blue,Online_whenL3//dJI15.222.wav,222.0,,,0,0,0,2,0,26,26,0,0,1,1,3,,,,,,,,,,,,,,,,,,,,,,,,,,,,,,,,,,,,,,,,,,,,,,,,,,,,,,,,,0.008457400006591342,73.13190520000353,73.13190520000353,73.13190520000353,None,y,0.12532579999242444,,,,,,,,,,,,,,,,,,,,,,,,,,,,,,,,,,,339320,001,2023-06-02_17h00.49.564,Pilot_online_tryings,2022.2.5,32.21268619282521,
WhenL3_uns.csv,directory_online_whenL3_uns.csv,When_UnsyncL3_testdirs.csv,WhenL3_unsync_norm.wav,ji,116:120,blue,Online_whenL3//dJI14.none.wav,none,,,0,0,0,2,0,26,26,0,0,2,2,2,,,,,,,,,,,,,,,,,,,,,,,,,,,,,,,,,,,,,,,,,,,,,,,,,,,,,,,,,0.006626200003665872,73.29233520000707,73.29233520000707,73.29233520000707,None,y,0.13349870000092778,,,,,,,,,,,,,,,,,,,,,,,,,,,,,,,,,,,339320,001,2023-06-02_17h00.49.564,Pilot_online_tryings,2022.2.5,32.21268619282521,
WhenL3_uns.csv,directory_online_whenL3_uns.csv,When_UnsyncL3_testdirs.csv,WhenL3_unsync_norm.wav,ji,116:120,blue,Online_whenL3//dJI12.none.wav,none,,,0,0,0,2,0,26,26,0,0,3,3,0,,,,,,,,,,,,,,,,,,,,,,,,,,,,,,,,,,,,,,,,,,,,,,,,,,,,,,,,,0.005580400000326335,73.47882849999587,73.47882849999587,73.47882849999587,None,y,0.11357769998721778,,,,,,,,,,,,,,,,,,,,,,,,,,,,,,,,,,,339320,001,2023-06-02_17h00.49.564,Pilot_online_tryings,2022.2.5,32.21268619282521,
WhenL3_uns.csv,directory_online_whenL3_uns.csv,When_UnsyncL3_testdirs.csv,WhenL3_unsync_norm.wav,ji,116:120,blue,,,,,0,0,0,2,0,26,26,0,,,,,,,,,,,,,,,,,,,,,,,,,,,,,,,,,,,,,,,,,,,,,,,,,,,,,,,,,,,,,,,,,,,,,,,,,,,,,,,,,,,,,,,,,,,,,,,,,,,,,,339320,001,2023-06-02_17h00.49.564,Pilot_online_tryings,2022.2.5,32.21268619282521,
WhenL3_uns.csv,directory_online_whenL3_uns.csv,When_UnsyncL3_testdirs.csv,WhenL3_unsync_norm.wav,ñe,44:48,orange,Online_whenL3//bÑE11.1776.wav,1776.0,,,0,0,0,2,0,27,27,6,0,0,0,3,,,,,,,,,,,,,,,,,,,,,,,,,,,,,,,,,,,,,,,,,,,,,,,,,,,,,,,73.64687339999364,73.64687339999364,0.029463300001225434,73.64687339999364,73.64687339999364,73.64687339999364,None,y,0.11590089999663178,,,,,,,,,,,,,,,,,,,,,,,,,,,,,,,,,,,339320,001,2023-06-02_17h00.49.564,Pilot_online_tryings,2022.2.5,32.21268619282521,
WhenL3_uns.csv,directory_online_whenL3_uns.csv,When_UnsyncL3_testdirs.csv,WhenL3_unsync_norm.wav,ñe,44:48,orange,Online_whenL3//bÑE10.none.wav,none,,,0,0,0,2,0,27,27,6,0,1,1,2,,,,,,,,,,,,,,,,,,,,,,,,,,,,,,,,,,,,,,,,,,,,,,,,,,,,,,,,,0.010990099995979108,73.82034530000237,73.82034530000237,73.82034530000237,None,y,0.10608509999292437,,,,,,,,,,,,,,,,,,,,,,,,,,,,,,,,,,,339320,001,2023-06-02_17h00.49.564,Pilot_online_tryings,2022.2.5,32.21268619282521,
WhenL3_uns.csv,directory_online_whenL3_uns.csv,When_UnsyncL3_testdirs.csv,WhenL3_unsync_norm.wav,ñe,44:48,orange,Online_whenL3//bÑE8.1332.wav,1332.0,,,0,0,0,2,0,27,27,6,0,2,2,0,,,,,,,,,,,,,,,,,,,,,,,,,,,,,,,,,,,,,,,,,,,,,,,,,,,,,,,,,0.014207800006261095,73.97662810000475,73.97662810000475,73.97662810000475,None,y,0.11251130000164267,,,,,,,,,,,,,,,,,,,,,,,,,,,,,,,,,,,339320,001,2023-06-02_17h00.49.564,Pilot_online_tryings,2022.2.5,32.21268619282521,
WhenL3_uns.csv,directory_online_whenL3_uns.csv,When_UnsyncL3_testdirs.csv,WhenL3_unsync_norm.wav,ñe,44:48,orange,Online_whenL3//bÑE9.none.wav,none,,,0,0,0,2,0,27,27,6,0,3,3,1,,,,,,,,,,,,,,,,,,,,,,,,,,,,,,,,,,,,,,,,,,,,,,,,,,,,,,,,,0.006911199991009198,74.16295480000554,74.16295480000554,74.16295480000554,None,y,0.08546639999258332,,,,,,,,,,,,,,,,,,,,,,,,,,,,,,,,,,,339320,001,2023-06-02_17h00.49.564,Pilot_online_tryings,2022.2.5,32.21268619282521,
WhenL3_uns.csv,directory_online_whenL3_uns.csv,When_UnsyncL3_testdirs.csv,WhenL3_unsync_norm.wav,ñe,44:48,orange,,,,,0,0,0,2,0,27,27,6,,,,,,,,,,,,,,,,,,,,,,,,,,,,,,,,,,,,,,,,,,,,,,,,,,,,,,,,,,,,,,,,,,,,,,,,,,,,,,,,,,,,,,,,,,,,,,,,,,,,,,339320,001,2023-06-02_17h00.49.564,Pilot_online_tryings,2022.2.5,32.21268619282521,
WhenL3_uns.csv,directory_online_whenL3_uns.csv,When_UnsyncL3_testdirs.csv,WhenL3_unsync_norm.wav,ga,96:100,red,Online_whenL3//cGA27.none.wav,none,,,0,0,0,2,0,28,28,7,0,0,0,3,,,,,,,,,,,,,,,,,,,,,,,,,,,,,,,,,,,,,,,,,,,,,,,,,,,,,,,74.29777130000002,74.29777130000002,0.02953420000267215,74.29777130000002,74.29777130000002,74.29777130000002,None,y,0.11841569999523927,,,,,,,,,,,,,,,,,,,,,,,,,,,,,,,,,,,339320,001,2023-06-02_17h00.49.564,Pilot_online_tryings,2022.2.5,32.21268619282521,
WhenL3_uns.csv,directory_online_whenL3_uns.csv,When_UnsyncL3_testdirs.csv,WhenL3_unsync_norm.wav,ga,96:100,red,Online_whenL3//cGA25.1332.wav,1332.0,,,0,0,0,2,0,28,28,7,0,1,1,1,,,,,,,,,,,,,,,,,,,,,,,,,,,,,,,,,,,,,,,,,,,,,,,,,,,,,,,,,0.01038600000902079,74.44567309999547,74.44567309999547,74.44567309999547,None,y,0.13784860000305343,,,,,,,,,,,,,,,,,,,,,,,,,,,,,,,,,,,339320,001,2023-06-02_17h00.49.564,Pilot_online_tryings,2022.2.5,32.21268619282521,
WhenL3_uns.csv,directory_online_whenL3_uns.csv,When_UnsyncL3_testdirs.csv,WhenL3_unsync_norm.wav,ga,96:100,red,Online_whenL3//cGA26.none.wav,none,,,0,0,0,2,0,28,28,7,0,2,2,2,,,,,,,,,,,,,,,,,,,,,,,,,,,,,,,,,,,,,,,,,,,,,,,,,,,,,,,,,0.009084299992537126,74.6327997000044,74.6327997000044,74.6327997000044,None,y,0.12290429999120533,,,,,,,,,,,,,,,,,,,,,,,,,,,,,,,,,,,339320,001,2023-06-02_17h00.49.564,Pilot_online_tryings,2022.2.5,32.21268619282521,
WhenL3_uns.csv,directory_online_whenL3_uns.csv,When_UnsyncL3_testdirs.csv,WhenL3_unsync_norm.wav,ga,96:100,red,Online_whenL3//cGA24.none.wav,none,,,0,0,0,2,0,28,28,7,0,3,3,0,,,,,,,,,,,,,,,,,,,,,,,,,,,,,,,,,,,,,,,,,,,,,,,,,,,,,,,,,0.028431800004909746,74.79781859999639,74.79781859999639,74.79781859999639,None,y,0.12573229998815805,,,,,,,,,,,,,,,,,,,,,,,,,,,,,,,,,,,339320,001,2023-06-02_17h00.49.564,Pilot_online_tryings,2022.2.5,32.21268619282521,
WhenL3_uns.csv,directory_online_whenL3_uns.csv,When_UnsyncL3_testdirs.csv,WhenL3_unsync_norm.wav,ga,96:100,red,,,,,0,0,0,2,0,28,28,7,,,,,,,,,,,,,,,,,,,,,,,,,,,,,,,,,,,,,,,,,,,,,,,,,,,,,,,,,,,,,,,,,,,,,,,,,,,,,,,,,,,,,,,,,,,,,,,,,,,,,,339320,001,2023-06-02_17h00.49.564,Pilot_online_tryings,2022.2.5,32.21268619282521,
WhenL3_uns.csv,directory_online_whenL3_uns.csv,When_UnsyncL3_testdirs.csv,WhenL3_unsync_norm.wav,ji,132:136,blue,Online_whenL3//dJI30.1998.wav,1998.0,,,0,0,0,2,0,29,29,24,0,0,0,2,,,,,,,,,,,,,,,,,,,,,,,,,,,,,,,,,,,,,,,,,,,,,,,,,,,,,,,74.98657459999959,74.98657459999959,0.025578599990694784,74.98657459999959,74.98657459999959,74.98657459999959,None,y,0.10874349999357946,,,,,,,,,,,,,,,,,,,,,,,,,,,,,,,,,,,339320,001,2023-06-02_17h00.49.564,Pilot_online_tryings,2022.2.5,32.21268619282521,
WhenL3_uns.csv,directory_online_whenL3_uns.csv,When_UnsyncL3_testdirs.csv,WhenL3_unsync_norm.wav,ji,132:136,blue,Online_whenL3//dJI29.none.wav,none,,,0,0,0,2,0,29,29,24,0,1,1,1,,,,,,,,,,,,,,,,,,,,,,,,,,,,,,,,,,,,,,,,,,,,,,,,,,,,,,,,,0.00936740000906866,75.13239499999327,75.13239499999327,75.13239499999327,None,y,0.13436680000449996,,,,,,,,,,,,,,,,,,,,,,,,,,,,,,,,,,,339320,001,2023-06-02_17h00.49.564,Pilot_online_tryings,2022.2.5,32.21268619282521,
WhenL3_uns.csv,directory_online_whenL3_uns.csv,When_UnsyncL3_testdirs.csv,WhenL3_unsync_norm.wav,ji,132:136,blue,Online_whenL3//dJI28.444.wav,444.0,,,0,0,0,2,0,29,29,24,0,2,2,0,,,,,,,,,,,,,,,,,,,,,,,,,,,,,,,,,,,,,,,,,,,,,,,,,,,,,,,,,0.010695500008296221,75.32304020000447,75.32304020000447,75.32304020000447,None,y,0.1024038999894401,,,,,,,,,,,,,,,,,,,,,,,,,,,,,,,,,,,339320,001,2023-06-02_17h00.49.564,Pilot_online_tryings,2022.2.5,32.21268619282521,
WhenL3_uns.csv,directory_online_whenL3_uns.csv,When_UnsyncL3_testdirs.csv,WhenL3_unsync_norm.wav,ji,132:136,blue,Online_whenL3//dJI31.none.wav,none,,,0,0,0,2,0,29,29,24,0,3,3,3,,,,,,,,,,,,,,,,,,,,,,,,,,,,,,,,,,,,,,,,,,,,,,,,,,,,,,,,,0.013957999995909631,75.47677300000214,75.47677300000214,75.47677300000214,None,y,0.11016540000855457,,,,,,,,,,,,,,,,,,,,,,,,,,,,,,,,,,,339320,001,2023-06-02_17h00.49.564,Pilot_online_tryings,2022.2.5,32.21268619282521,
WhenL3_uns.csv,directory_online_whenL3_uns.csv,When_UnsyncL3_testdirs.csv,WhenL3_unsync_norm.wav,ji,132:136,blue,,,,,0,0,0,2,0,29,29,24,,,,,,,,,,,,,,,,,,,,,,,,,,,,,,,,,,,,,,,,,,,,,,,,,,,,,,,,,,,,,,,,,,,,,,,,,,,,,,,,,,,,,,,,,,,,,,,,,,,,,,339320,001,2023-06-02_17h00.49.564,Pilot_online_tryings,2022.2.5,32.21268619282521,
WhenL3_uns.csv,directory_online_whenL3_uns.csv,When_UnsyncL3_testdirs.csv,WhenL3_unsync_norm.wav,ñe,56:60,orange,Online_whenL3//bÑE21.none.wav,none,,,0,0,0,2,0,30,30,33,0,0,0,1,,,,,,,,,,,,,,,,,,,,,,,,,,,,,,,,,,,,,,,,,,,,,,,,,,,,,,,75.65906999999424,75.65906999999424,0.03682110000227112,75.65906999999424,75.65906999999424,75.65906999999424,None,y,0.09489829999802168,,,,,,,,,,,,,,,,,,,,,,,,,,,,,,,,,,,339320,001,2023-06-02_17h00.49.564,Pilot_online_tryings,2022.2.5,32.21268619282521,
WhenL3_uns.csv,directory_online_whenL3_uns.csv,When_UnsyncL3_testdirs.csv,WhenL3_unsync_norm.wav,ñe,56:60,orange,Online_whenL3//bÑE22.1332.wav,1332.0,,,0,0,0,2,0,30,30,33,0,1,1,2,,,,,,,,,,,,,,,,,,,,,,,,,,,,,,,,,,,,,,,,,,,,,,,,,,,,,,,,,0.02201000000059139,75.79252319999796,75.79252319999796,75.79252319999796,None,y,0.12936969999282155,,,,,,,,,,,,,,,,,,,,,,,,,,,,,,,,,,,339320,001,2023-06-02_17h00.49.564,Pilot_online_tryings,2022.2.5,32.21268619282521,
WhenL3_uns.csv,directory_online_whenL3_uns.csv,When_UnsyncL3_testdirs.csv,WhenL3_unsync_norm.wav,ñe,56:60,orange,Online_whenL3//bÑE20.1332.wav,1332.0,,,0,0,0,2,0,30,30,33,0,2,2,0,,,,,,,,,,,,,,,,,,,,,,,,,,,,,,,,,,,,,,,,,,,,,,,,,,,,,,,,,0.007932499996968545,75.97664059999806,75.97664059999806,75.97664059999806,None,y,0.10739069999544881,,,,,,,,,,,,,,,,,,,,,,,,,,,,,,,,,,,339320,001,2023-06-02_17h00.49.564,Pilot_online_tryings,2022.2.5,32.21268619282521,
WhenL3_uns.csv,directory_online_whenL3_uns.csv,When_UnsyncL3_testdirs.csv,WhenL3_unsync_norm.wav,ñe,56:60,orange,Online_whenL3//bÑE23.none.wav,none,,,0,0,0,2,0,30,30,33,0,3,3,3,,,,,,,,,,,,,,,,,,,,,,,,,,,,,,,,,,,,,,,,,,,,,,,,,,,,,,,,,0.017992599998251535,76.13388510000368,76.13388510000368,76.13388510000368,None,y,0.11976909999793861,,,,,,,,,,,,,,,,,,,,,,,,,,,,,,,,,,,339320,001,2023-06-02_17h00.49.564,Pilot_online_tryings,2022.2.5,32.21268619282521,
WhenL3_uns.csv,directory_online_whenL3_uns.csv,When_UnsyncL3_testdirs.csv,WhenL3_unsync_norm.wav,ñe,56:60,orange,,,,,0,0,0,2,0,30,30,33,,,,,,,,,,,,,,,,,,,,,,,,,,,,,,,,,,,,,,,,,,,,,,,,,,,,,,,,,,,,,,,,,,,,,,,,,,,,,,,,,,,,,,,,,,,,,,,,,,,,,,339320,001,2023-06-02_17h00.49.564,Pilot_online_tryings,2022.2.5,32.21268619282521,
WhenL3_uns.csv,directory_online_whenL3_uns.csv,When_UnsyncL3_testdirs.csv,WhenL3_unsync_norm.wav,ji,128:132,blue,Online_whenL3//dJI27.1332.wav,1332.0,,,0,0,0,2,0,31,31,15,0,0,0,3,,,,,,,,,,,,,,,,,,,,,,,,,,,,,,,,,,,,,,,,,,,,,,,,,,,,,,,76.31039820000296,76.31039820000296,0.023362299994914792,76.31039820000296,76.31039820000296,76.31039820000296,None,y,0.1038029000046663,,,,,,,,,,,,,,,,,,,,,,,,,,,,,,,,,,,339320,001,2023-06-02_17h00.49.564,Pilot_online_tryings,2022.2.5,32.21268619282521,
WhenL3_uns.csv,directory_online_whenL3_uns.csv,When_UnsyncL3_testdirs.csv,WhenL3_unsync_norm.wav,ji,128:132,blue,Online_whenL3//dJI26.1110.wav,1110.0,,,0,0,0,2,0,31,31,15,0,1,1,2,,,,,,,,,,,,,,,,,,,,,,,,,,,,,,,,,,,,,,,,,,,,,,,,,,,,,,,,,0.0067279000068083405,76.47698490000039,76.47698490000039,76.47698490000039,None,y,0.10318849999748636,,,,,,,,,,,,,,,,,,,,,,,,,,,,,,,,,,,339320,001,2023-06-02_17h00.49.564,Pilot_online_tryings,2022.2.5,32.21268619282521,
WhenL3_uns.csv,directory_online_whenL3_uns.csv,When_UnsyncL3_testdirs.csv,WhenL3_unsync_norm.wav,ji,128:132,blue,Online_whenL3//dJI25.0.wav,0.0,,,0,0,0,2,0,31,31,15,0,2,2,1,,,,,,,,,,,,,,,,,,,,,,,,,,,,,,,,,,,,,,,,,,,,,,,,,,,,,,,,,0.0070899999991524965,76.63240689999657,76.63240689999657,76.63240689999657,None,y,0.11352490000717808,,,,,,,,,,,,,,,,,,,,,,,,,,,,,,,,,,,339320,001,2023-06-02_17h00.49.564,Pilot_online_tryings,2022.2.5,32.21268619282521,
WhenL3_uns.csv,directory_online_whenL3_uns.csv,When_UnsyncL3_testdirs.csv,WhenL3_unsync_norm.wav,ji,128:132,blue,Online_whenL3//dJI24.444.wav,444.0,,,0,0,0,2,0,31,31,15,0,3,3,0,,,,,,,,,,,,,,,,,,,,,,,,,,,,,,,,,,,,,,,,,,,,,,,,,,,,,,,,,0.00982960000692401,76.78846609999891,76.78846609999891,76.78846609999891,None,y,0.12633609998738393,,,,,,,,,,,,,,,,,,,,,,,,,,,,,,,,,,,339320,001,2023-06-02_17h00.49.564,Pilot_online_tryings,2022.2.5,32.21268619282521,
WhenL3_uns.csv,directory_online_whenL3_uns.csv,When_UnsyncL3_testdirs.csv,WhenL3_unsync_norm.wav,ji,128:132,blue,,,,,0,0,0,2,0,31,31,15,,,,,,,,,,,,,,,,,,,,,,,,,,,,,,,,,,,,,,,,,,,,,,,,,,,,,,,,,,,,,,,,,,,,,,,,,,,,,,,,,,,,,,,,,,,,,,,,,,,,,,339320,001,2023-06-02_17h00.49.564,Pilot_online_tryings,2022.2.5,32.21268619282521,
WhenL3_uns.csv,directory_online_whenL3_uns.csv,When_UnsyncL3_testdirs.csv,WhenL3_unsync_norm.wav,ji,120:124,blue,Online_whenL3//dJI17.0.wav,0.0,,,0,0,0,2,0,32,32,32,0,0,0,1,,,,,,,,,,,,,,,,,,,,,,,,,,,,,,,,,,,,,,,,,,,,,,,,,,,,,,,76.95561469999666,76.95561469999666,0.028072200002497993,76.95561469999666,76.95561469999666,76.95561469999666,None,y,0.13764549999905284,,,,,,,,,,,,,,,,,,,,,,,,,,,,,,,,,,,339320,001,2023-06-02_17h00.49.564,Pilot_online_tryings,2022.2.5,32.21268619282521,
WhenL3_uns.csv,directory_online_whenL3_uns.csv,When_UnsyncL3_testdirs.csv,WhenL3_unsync_norm.wav,ji,120:124,blue,Online_whenL3//dJI18.none.wav,none,,,0,0,0,2,0,32,32,32,0,1,1,2,,,,,,,,,,,,,,,,,,,,,,,,,,,,,,,,,,,,,,,,,,,,,,,,,,,,,,,,,0.008298200002172962,77.13234080000257,77.13234080000257,77.13234080000257,None,y,0.1424801999964984,,,,,,,,,,,,,,,,,,,,,,,,,,,,,,,,,,,339320,001,2023-06-02_17h00.49.564,Pilot_online_tryings,2022.2.5,32.21268619282521,
WhenL3_uns.csv,directory_online_whenL3_uns.csv,When_UnsyncL3_testdirs.csv,WhenL3_unsync_norm.wav,ji,120:124,blue,Online_whenL3//dJI16.none.wav,none,,,0,0,0,2,0,32,32,32,0,2,2,0,,,,,,,,,,,,,,,,,,,,,,,,,,,,,,,,,,,,,,,,,,,,,,,,,,,,,,,,,0.007526499990490265,77.32010880000598,77.32010880000598,77.32010880000598,None,y,0.14108099999430124,,,,,,,,,,,,,,,,,,,,,,,,,,,,,,,,,,,339320,001,2023-06-02_17h00.49.564,Pilot_online_tryings,2022.2.5,32.21268619282521,
WhenL3_uns.csv,directory_online_whenL3_uns.csv,When_UnsyncL3_testdirs.csv,WhenL3_unsync_norm.wav,ji,120:124,blue,Online_whenL3//dJI19.1110.wav,1110.0,,,0,0,0,2,0,32,32,32,0,3,3,3,,,,,,,,,,,,,,,,,,,,,,,,,,,,,,,,,,,,,,,,,,,,,,,,,,,,,,,,,0.02547239999694284,77.51455380000698,77.51455380000698,77.51455380000698,None,y,0.12748839998675976,,,,,,,,,,,,,,,,,,,,,,,,,,,,,,,,,,,339320,001,2023-06-02_17h00.49.564,Pilot_online_tryings,2022.2.5,32.21268619282521,
WhenL3_uns.csv,directory_online_whenL3_uns.csv,When_UnsyncL3_testdirs.csv,WhenL3_unsync_norm.wav,ji,120:124,blue,,,,,0,0,0,2,0,32,32,32,,,,,,,,,,,,,,,,,,,,,,,,,,,,,,,,,,,,,,,,,,,,,,,,,,,,,,,,,,,,,,,,,,,,,,,,,,,,,,,,,,,,,,,,,,,,,,,,,,,,,,339320,001,2023-06-02_17h00.49.564,Pilot_online_tryings,2022.2.5,32.21268619282521,
WhenL3_uns.csv,directory_online_whenL3_uns.csv,When_UnsyncL3_testdirs.csv,WhenL3_unsync_norm.wav,mo,24:28,green,Online_whenL3//aMO26.none.wav,none,,,0,0,0,2,0,33,33,1,0,0,0,2,,,,,,,,,,,,,,,,,,,,,,,,,,,,,,,,,,,,,,,,,,,,,,,,,,,,,,,77.71546469999885,77.71546469999885,0.03217489999951795,77.71546469999885,77.71546469999885,77.71546469999885,None,y,0.09534070000518113,,,,,,,,,,,,,,,,,,,,,,,,,,,,,,,,,,,339320,001,2023-06-02_17h00.49.564,Pilot_online_tryings,2022.2.5,32.21268619282521,
WhenL3_uns.csv,directory_online_whenL3_uns.csv,When_UnsyncL3_testdirs.csv,WhenL3_unsync_norm.wav,mo,24:28,green,Online_whenL3//aMO27.none.wav,none,,,0,0,0,2,0,33,33,1,0,1,1,3,,,,,,,,,,,,,,,,,,,,,,,,,,,,,,,,,,,,,,,,,,,,,,,,,,,,,,,,,0.005700299996533431,77.85058290000597,77.85058290000597,77.85058290000597,None,y,0.14068709999264684,,,,,,,,,,,,,,,,,,,,,,,,,,,,,,,,,,,339320,001,2023-06-02_17h00.49.564,Pilot_online_tryings,2022.2.5,32.21268619282521,
WhenL3_uns.csv,directory_online_whenL3_uns.csv,When_UnsyncL3_testdirs.csv,WhenL3_unsync_norm.wav,mo,24:28,green,Online_whenL3//aMO25.none.wav,none,,,0,0,0,2,0,33,33,1,0,2,2,1,,,,,,,,,,,,,,,,,,,,,,,,,,,,,,,,,,,,,,,,,,,,,,,,,,,,,,,,,0.006934799996088259,78.03919239999959,78.03919239999959,78.03919239999959,None,y,0.1324760999850696,,,,,,,,,,,,,,,,,,,,,,,,,,,,,,,,,,,339320,001,2023-06-02_17h00.49.564,Pilot_online_tryings,2022.2.5,32.21268619282521,
WhenL3_uns.csv,directory_online_whenL3_uns.csv,When_UnsyncL3_testdirs.csv,WhenL3_unsync_norm.wav,mo,24:28,green,Online_whenL3//aMO24.1332.wav,1332.0,,,0,0,0,2,0,33,33,1,0,3,3,0,,,,,,,,,,,,,,,,,,,,,,,,,,,,,,,,,,,,,,,,,,,,,,,,,,,,,,,,,0.006928100003278814,78.26054580000346,78.26054580000346,78.26054580000346,None,y,0.08854909999354277,,,,,,,,,,,,,,,,,,,,,,,,,,,,,,,,,,,339320,001,2023-06-02_17h00.49.564,Pilot_online_tryings,2022.2.5,32.21268619282521,
WhenL3_uns.csv,directory_online_whenL3_uns.csv,When_UnsyncL3_testdirs.csv,WhenL3_unsync_norm.wav,mo,24:28,green,,,,,0,0,0,2,0,33,33,1,,,,,,,,,,,,,,,,,,,,,,,,,,,,,,,,,,,,,,,,,,,,,,,,,,,,,,,,,,,,,,,,,,,,,,,,,,,,,,,,,,,,,,,,,,,,,,,,,,,,,,339320,001,2023-06-02_17h00.49.564,Pilot_online_tryings,2022.2.5,32.21268619282521,
WhenL3_uns.csv,directory_online_whenL3_uns.csv,When_UnsyncL3_testdirs.csv,WhenL3_unsync_norm.wav,,,,,,testWhenL3Uns//cat_viol.r2.s1.0.wav,,0,0,0,2,,,,,,,,,0,0,0,2,,,,,,,,,,,,,,,,,,,,,,,,,,,,,,,,,,,,,,,,,,,,,,,,,,,,,,,,,,,,78.38214770000195,78.38214770000195,space,0.9724789999891073,79.4137669000047,79.4137669000047,space,0.5966702000005171,80.06975039999816,80.06975039999816,space,0.6292146999912802,80.79064209999342,80.79064209999342,80.97624460000661,y,0.740128299992648,81.56959319999442,81.56959319999442,z,0.574125200000708,82.24763579999853,82.24763579999853,82.24763579999853,82.24763579999853,2,0.3321434999961639,,,,,,,,339320,001,2023-06-02_17h00.49.564,Pilot_online_tryings,2022.2.5,32.21268619282521,
WhenL3_uns.csv,directory_online_whenL3_uns.csv,When_UnsyncL3_testdirs.csv,WhenL3_unsync_norm.wav,,,,,,testWhenL3Uns//r2.s1.0.wav,,0,0,0,2,,,,,,,,,0,1,1,14,,,,,,,,,,,,,,,,,,,,,,,,,,,,,,,,,,,,,,,,,,,,,,,,,,,,,,,,,,,,,,,,,,,,,,,,82.63700069999322,82.63700069999322,82.82063359999738,y,0.17270859998825472,82.85215869999956,82.85215869999956,z,0.15058430000499357,83.06988710000587,83.06988710000587,83.06988710000587,83.06988710000587,2,0.14085270000214223,,,,,,,,339320,001,2023-06-02_17h00.49.564,Pilot_online_tryings,2022.2.5,32.21268619282521,
WhenL3_uns.csv,directory_online_whenL3_uns.csv,When_UnsyncL3_testdirs.csv,WhenL3_unsync_norm.wav,,,,,,testWhenL3Uns//dep_viol.r2.s1.0.wav,,0,0,0,2,,,,,,,,,0,2,2,6,,,,,,,,,,,,,,,,,,,,,,,,,,,,,,,,,,,,,,,,,,,,,,,,,,,,,,,,,,,,,,,,,,,,,,,,83.25822380000318,83.25822380000318,83.44527989999624,y,6.014758699995582,89.32109769999806,89.32109769999806,z,1.9759077999915462,91.35175469999376,91.35175469999376,91.35175469999376,91.35175469999376,1,1.109164299996337,86.16398610000033,,,,,,,339320,001,2023-06-02_17h00.49.564,Pilot_online_tryings,2022.2.5,32.21268619282521,
WhenL3_uns.csv,directory_online_whenL3_uns.csv,When_UnsyncL3_testdirs.csv,WhenL3_unsync_norm.wav,,,,,,testWhenL3Uns//time_viol.r2.s1.0.wav,,0,0,0,2,,,,,,,,,0,3,3,22,,,,,,,,,,,,,,,,,,,,,,,,,,,,,,,,,,,,,,,,,,,,,,,,,,,,,,,,,,,,,,,,,,,,,,,,92.50885810000182,92.50885810000182,92.72631969999638,y,2.4197174000000814,94.97612730000401,94.97612730000401,z,0.5724162999977125,95.60147969999525,95.60147969999525,95.60147969999525,95.60147969999525,1,0.35431559999415185,,,,,,,,339320,001,2023-06-02_17h00.49.564,Pilot_online_tryings,2022.2.5,32.21268619282521,
WhenL3_uns.csv,directory_online_whenL3_uns.csv,When_UnsyncL3_testdirs.csv,WhenL3_unsync_norm.wav,,,,,,testWhenL3Uns//time_viol.r1.s1.0.wav,,0,0,0,2,,,,,,,,,0,4,4,20,,,,,,,,,,,,,,,,,,,,,,,,,,,,,,,,,,,,,,,,,,,,,,,,,,,,,,,,,,,,,,,,,,,,,,,,96.01645520000602,96.01645520000602,96.1948306999955,y,0.34066109999548644,96.41528319999634,96.41528319999634,z,0.2218563000060385,96.72651079999923,96.72651079999923,96.72651079999923,96.72651079999923,1,0.09732790000271052,,,,,,,,339320,001,2023-06-02_17h00.49.564,Pilot_online_tryings,2022.2.5,32.21268619282521,
WhenL3_uns.csv,directory_online_whenL3_uns.csv,When_UnsyncL3_testdirs.csv,WhenL3_unsync_norm.wav,,,,,,testWhenL3Uns//time_viol.r1.s2.0.wav,,0,0,0,2,,,,,,,,,0,5,5,21,,,,,,,,,,,,,,,,,,,,,,,,,,,,,,,,,,,,,,,,,,,,,,,,,,,,,,,,,,,,,,,,,,,,,,,,96.88260830000218,96.88260830000218,97.0693278999941,y,0.40951789999962784,97.35097539999697,97.35097539999697,z,0.2074811999918893,97.60101250000298,97.60101250000298,97.60101250000298,97.60101250000298,1,0.16417609999189153,,,,,,,,339320,001,2023-06-02_17h00.49.564,Pilot_online_tryings,2022.2.5,32.21268619282521,
WhenL3_uns.csv,directory_online_whenL3_uns.csv,When_UnsyncL3_testdirs.csv,WhenL3_unsync_norm.wav,,,,,,testWhenL3Uns//r2.s1.1.wav,,0,0,0,2,,,,,,,,,0,6,6,15,,,,,,,,,,,,,,,,,,,,,,,,,,,,,,,,,,,,,,,,,,,,,,,,,,,,,,,,,,,,,,,,,,,,,,,,97.81973220000509,97.81973220000509,98.0392106000043,y,0.16015019999758806,98.03914860000077,98.03914860000077,z,0.16343289999349508,98.28902399999788,98.28902399999788,98.28902399999788,98.28902399999788,1,0.06189670000458136,,,,,,,,339320,001,2023-06-02_17h00.49.564,Pilot_online_tryings,2022.2.5,32.21268619282521,
WhenL3_uns.csv,directory_online_whenL3_uns.csv,When_UnsyncL3_testdirs.csv,WhenL3_unsync_norm.wav,,,,,,testWhenL3Uns//dep_viol.r2.s2.0.wav,,0,0,0,2,,,,,,,,,0,7,7,7,,,,,,,,,,,,,,,,,,,,,,,,,,,,,,,,,,,,,,,,,,,,,,,,,,,,,,,,,,,,,,,,,,,,,,,,98.38248889999522,98.38248889999522,98.56959070000157,y,0.24376169999595731,98.69497759999649,98.69497759999649,z,0.06634360000316519,98.82090409999364,98.82090409999364,98.82090409999364,98.82090409999364,1,0.08264939999207854,,,,,,,,339320,001,2023-06-02_17h00.49.564,Pilot_online_tryings,2022.2.5,32.21268619282521,
WhenL3_uns.csv,directory_online_whenL3_uns.csv,When_UnsyncL3_testdirs.csv,WhenL3_unsync_norm.wav,,,,,,testWhenL3Uns//r2.s1.2.wav,,0,0,0,2,,,,,,,,,0,8,8,16,,,,,,,,,,,,,,,,,,,,,,,,,,,,,,,,,,,,,,,,,,,,,,,,,,,,,,,,,,,,,,,,,,,,,,,,98.94544399999722,98.94544399999722,99.13343509999395,y,0.19303160000708885,99.19637590000639,99.19637590000639,z,0.0974592999991728,99.35181490000105,99.35181490000105,99.35181490000105,99.35181490000105,1,0.09356730000581592,,,,,,,,339320,001,2023-06-02_17h00.49.564,Pilot_online_tryings,2022.2.5,32.21268619282521,
WhenL3_uns.csv,directory_online_whenL3_uns.csv,When_UnsyncL3_testdirs.csv,WhenL3_unsync_norm.wav,,,,,,testWhenL3Uns//cat_viol.r1.s1.0.wav,,0,0,0,2,,,,,,,,,0,9,9,0,,,,,,,,,,,,,,,,,,,,,,,,,,,,,,,,,,,,,,,,,,,,,,,,,,,,,,,,,,,,,,,,,,,,,,,,99.48341580000124,99.48341580000124,99.69435770000273,y,0.14397989999270067,99.69559620000655,99.69559620000655,z,0.061327999996137805,99.7890580999956,99.7890580999956,99.7890580999956,99.7890580999956,1,0.0887942999979714,,,,,,,,339320,001,2023-06-02_17h00.49.564,Pilot_online_tryings,2022.2.5,32.21268619282521,
WhenL3_uns.csv,directory_online_whenL3_uns.csv,When_UnsyncL3_testdirs.csv,WhenL3_unsync_norm.wav,,,,,,testWhenL3Uns//r2.s2.1.wav,,0,0,0,2,,,,,,,,,0,10,10,18,,,,,,,,,,,,,,,,,,,,,,,,,,,,,,,,,,,,,,,,,,,,,,,,,,,,,,,,,,,,,,,,,,,,,,,,99.91475939999509,99.91475939999509,100.10102810000244,y,0.1740021000005072,100.16346670000348,100.16346670000348,z,0.06713270000182092,100.2892881000007,100.2892881000007,100.2892881000007,100.2892881000007,1,0.013184600000386126,,,,,,,,339320,001,2023-06-02_17h00.49.564,Pilot_online_tryings,2022.2.5,32.21268619282521,
WhenL3_uns.csv,directory_online_whenL3_uns.csv,When_UnsyncL3_testdirs.csv,WhenL3_unsync_norm.wav,,,,,,testWhenL3Uns//r1.s2.1.wav,,0,0,0,2,,,,,,,,,0,11,11,12,,,,,,,,,,,,,,,,,,,,,,,,,,,,,,,,,,,,,,,,,,,,,,,,,,,,,,,,,,,,,,,,,,,,,,,,100.35477049999463,100.35477049999463,100.53843929999566,y,0.1563565000105882,100.57012069999473,100.57012069999473,z,0.08508569998957682,100.69505989999743,100.69505989999743,100.69505989999743,100.69505989999743,1,0.03987310000229627,,,,,,,,339320,001,2023-06-02_17h00.49.564,Pilot_online_tryings,2022.2.5,32.21268619282521,
WhenL3_uns.csv,directory_online_whenL3_uns.csv,When_UnsyncL3_testdirs.csv,WhenL3_unsync_norm.wav,,,,,,testWhenL3Uns//r2.s2.2.wav,,0,0,0,2,,,,,,,,,0,12,12,19,,,,,,,,,,,,,,,,,,,,,,,,,,,,,,,,,,,,,,,,,,,,,,,,,,,,,,,,,,,,,,,,,,,,,,,,100.78879170000437,100.78879170000437,100.97644039999868,y,0.1355788999935612,100.97638170000573,100.97638170000573,z,0.09625689999666065,101.13250350000453,101.13250350000453,101.13250350000453,101.13250350000453,1,0.007316699993680231,,,,,,,,339320,001,2023-06-02_17h00.49.564,Pilot_online_tryings,2022.2.5,32.21268619282521,
WhenL3_uns.csv,directory_online_whenL3_uns.csv,When_UnsyncL3_testdirs.csv,WhenL3_unsync_norm.wav,,,,,,testWhenL3Uns//r1.s2.2.wav,,0,0,0,2,,,,,,,,,0,13,13,13,,,,,,,,,,,,,,,,,,,,,,,,,,,,,,,,,,,,,,,,,,,,,,,,,,,,,,,,,,,,,,,,,,,,,,,,101.1947119999968,101.1947119999968,101.38255390000704,y,0.13582759999553673,101.41461160000472,101.41461160000472,z,0.06453799999144394,101.5402441000042,101.5402441000042,101.5402441000042,101.5402441000042,1,0.48522839999350253,,,,,,,,339320,001,2023-06-02_17h00.49.564,Pilot_online_tryings,2022.2.5,32.21268619282521,
WhenL3_uns.csv,directory_online_whenL3_uns.csv,When_UnsyncL3_testdirs.csv,WhenL3_unsync_norm.wav,,,,,,testWhenL3Uns//dep_viol.r1.s1.0.wav,,0,0,0,2,,,,,,,,,0,14,14,4,,,,,,,,,,,,,,,,,,,,,,,,,,,,,,,,,,,,,,,,,,,,,,,,,,,,,,,,,,,,,,,,,,,,,,,,102.07704760000343,102.07704760000343,102.25742010000685,y,0.600703700009035,102.72952090000035,102.72952090000035,z,0.3190552000014577,103.1013862999971,103.1013862999971,103.1013862999971,103.1013862999971,1,0.08252089998859446,,,,,,,,339320,001,2023-06-02_17h00.49.564,Pilot_online_tryings,2022.2.5,32.21268619282521,
WhenL3_uns.csv,directory_online_whenL3_uns.csv,When_UnsyncL3_testdirs.csv,WhenL3_unsync_norm.wav,,,,,,testWhenL3Uns//r1.s1.2.wav,,0,0,0,2,,,,,,,,,0,15,15,10,,,,,,,,,,,,,,,,,,,,,,,,,,,,,,,,,,,,,,,,,,,,,,,,,,,,,,,,,,,,,,,,,,,,,,,,103.23018070000398,103.23018070000398,103.41665060000086,y,0.20613849999790546,103.47892199999478,103.47892199999478,z,0.14541250000183936,103.66279790000408,103.66279790000408,103.66279790000408,103.66279790000408,1,0.13671499998599757,,,,,,,,339320,001,2023-06-02_17h00.49.564,Pilot_online_tryings,2022.2.5,32.21268619282521,
WhenL3_uns.csv,directory_online_whenL3_uns.csv,When_UnsyncL3_testdirs.csv,WhenL3_unsync_norm.wav,,,,,,testWhenL3Uns//time_viol.r2.s2.0.wav,,0,0,0,2,,,,,,,,,0,16,16,23,,,,,,,,,,,,,,,,,,,,,,,,,,,,,,,,,,,,,,,,,,,,,,,,,,,,,,,,,,,,,,,,,,,,,,,,103.85171030000492,103.85171030000492,104.03930939999991,y,0.23091669999121223,104.13240620000579,104.13240620000579,z,0.10178759999689646,104.29331369999272,104.29331369999272,104.29331369999272,104.29331369999272,1,0.10867699999653269,,,,,,,,339320,001,2023-06-02_17h00.49.564,Pilot_online_tryings,2022.2.5,32.21268619282521,
WhenL3_uns.csv,directory_online_whenL3_uns.csv,When_UnsyncL3_testdirs.csv,WhenL3_unsync_norm.wav,,,,,,testWhenL3Uns//r2.s2.0.wav,,0,0,0,2,,,,,,,,,0,17,17,17,,,,,,,,,,,,,,,,,,,,,,,,,,,,,,,,,,,,,,,,,,,,,,,,,,,,,,,,,,,,,,,,,,,,,,,,104.44505900000513,104.44505900000513,104.63180349999747,y,0.20865539999795146,104.69476620000205,104.69476620000205,z,0.10408219999226276,104.8505720999965,104.8505720999965,104.8505720999965,104.8505720999965,1,0.08979119999276008,,,,,,,,339320,001,2023-06-02_17h00.49.564,Pilot_online_tryings,2022.2.5,32.21268619282521,
WhenL3_uns.csv,directory_online_whenL3_uns.csv,When_UnsyncL3_testdirs.csv,WhenL3_unsync_norm.wav,,,,,,testWhenL3Uns//r1.s1.1.wav,,0,0,0,2,,,,,,,,,0,18,18,9,,,,,,,,,,,,,,,,,,,,,,,,,,,,,,,,,,,,,,,,,,,,,,,,,,,,,,,,,,,,,,,,,,,,,,,,104.97911739999836,104.97911739999836,105.16347949999617,y,0.18383619999804068,105.19736849999754,105.19736849999754,z,0.11389949999283999,105.35121710000385,105.35121710000385,105.35121710000385,105.35121710000385,1,0.08253959998546634,,,,,,,,339320,001,2023-06-02_17h00.49.564,Pilot_online_tryings,2022.2.5,32.21268619282521,
WhenL3_uns.csv,directory_online_whenL3_uns.csv,When_UnsyncL3_testdirs.csv,WhenL3_unsync_norm.wav,,,,,,testWhenL3Uns//cat_viol.r2.s2.0.wav,,0,0,0,2,,,,,,,,,0,19,19,3,,,,,,,,,,,,,,,,,,,,,,,,,,,,,,,,,,,,,,,,,,,,,,,,,,,,,,,,,,,,,,,,,,,,,,,,105.47589250000601,105.47589250000601,105.66348339999676,y,0.17777389999537263,105.6986140999943,105.6986140999943,z,0.10544610000215471,105.85114539999631,105.85114539999631,105.85114539999631,105.85114539999631,1,0.0827897999988636,,,,,,,,339320,001,2023-06-02_17h00.49.564,Pilot_online_tryings,2022.2.5,32.21268619282521,
WhenL3_uns.csv,directory_online_whenL3_uns.csv,When_UnsyncL3_testdirs.csv,WhenL3_unsync_norm.wav,,,,,,testWhenL3Uns//cat_viol.r1.s2.0.wav,,0,0,0,2,,,,,,,,,0,20,20,1,,,,,,,,,,,,,,,,,,,,,,,,,,,,,,,,,,,,,,,,,,,,,,,,,,,,,,,,,,,,,,,,,,,,,,,,105.97556390000682,105.97556390000682,106.1669474000053,y,0.16324969999550376,106.19590979999339,106.19590979999339,z,0.060830399990663864,106.28807769999548,106.28807769999548,106.28807769999548,106.28807769999548,1,0.07236839999677613,,,,,,,,339320,001,2023-06-02_17h00.49.564,Pilot_online_tryings,2022.2.5,32.21268619282521,
WhenL3_uns.csv,directory_online_whenL3_uns.csv,When_UnsyncL3_testdirs.csv,WhenL3_unsync_norm.wav,,,,,,testWhenL3Uns//r1.s1.0.wav,,0,0,0,2,,,,,,,,,0,21,21,8,,,,,,,,,,,,,,,,,,,,,,,,,,,,,,,,,,,,,,,,,,,,,,,,,,,,,,,,,,,,,,,,,,,,,,,,106.41304139999556,106.41304139999556,106.6319790999958,y,0.1378532999951858,106.6318542999943,106.6318542999943,z,0.05972420000762213,106.72609199999715,106.72609199999715,106.72609199999715,106.72609199999715,1,0.04895920000853948,,,,,,,,339320,001,2023-06-02_17h00.49.564,Pilot_online_tryings,2022.2.5,32.21268619282521,
WhenL3_uns.csv,directory_online_whenL3_uns.csv,When_UnsyncL3_testdirs.csv,WhenL3_unsync_norm.wav,,,,,,testWhenL3Uns//r1.s2.0.wav,,0,0,0,2,,,,,,,,,0,22,22,11,,,,,,,,,,,,,,,,,,,,,,,,,,,,,,,,,,,,,,,,,,,,,,,,,,,,,,,,,,,,,,,,,,,,,,,,106.81961140000203,106.81961140000203,107.00758610000484,y,0.2075149999873247,107.10075789999973,107.10075789999973,z,0.07311240000126418,107.22688679999555,107.22688679999555,107.22688679999555,107.22688679999555,1,0.047357899995404296,,,,,,,,339320,001,2023-06-02_17h00.49.564,Pilot_online_tryings,2022.2.5,32.21268619282521,
WhenL3_uns.csv,directory_online_whenL3_uns.csv,When_UnsyncL3_testdirs.csv,WhenL3_unsync_norm.wav,,,,,,testWhenL3Uns//dep_viol.r1.s2.0.wav,,0,0,0,2,,,,,,,,,0,23,23,5,,,,,,,,,,,,,,,,,,,,,,,,,,,,,,,,,,,,,,,,,,,,,,,,,,,,,,,,,,,,,,,,,,,,,,,,107.32345460000215,107.32345460000215,107.50764229999622,y,0.14586669999698643,107.51110139999946,107.51110139999946,z,0.09652269999787677,107.66392449999694,107.66392449999694,107.66392449999694,107.66392449999694,1,0.011394699991797097,,,,,,,,339320,001,2023-06-02_17h00.49.564,Pilot_online_tryings,2022.2.5,32.21268619282521,
WhenL3_uns.csv,directory_online_whenL3_uns.csv,When_UnsyncL3_testdirs.csv,WhenL3_unsync_norm.wav,,,,,,,,0,0,0,2,,,,,,,,,,,,,,,,,,,,,,,,,,,,,,,,,,,,,,,,,,,,,,,,,,,,,,,,,,,,,,,,,,,,,,,,,,,,,,,,,,,,,,,,,,,,,,,,,,,,107.72942109999713,107.72942109999713,space,0.7508887000003597,,,339320,001,2023-06-02_17h00.49.564,Pilot_online_tryings,2022.2.5,32.21268619282521,
WhatL2_uns.csv,directory_online_WHAT_L2_uns.csv,What_UnsyncL2_testdirs.csv,WhatL2_unsync_norm.wav,si,112:116,green,Online_whatL2//dSI17.1332.wav,1332.0,,,0,1,1,1,0,0,0,9,0,0,0,1,,,,,,,,,,,,,,,,,,,,,,,,,,,,,,,,,,,,,,,,,,108.53896190000523,108.53896190000523,space,0.3952390999911586,109.34864500001422,109.35162630000559,109.35162630000559,space,11.22064539999701,120.66733029999887,120.66733029999887,space,1.0492603000020608,121.81658850000531,121.81658850000531,0.06222700000216719,121.81658850000531,121.81658850000531,121.81658850000531,None,y,2.7444683000067016,,,,,,,,,,,,,,,,,,,,,,,,,,,,,,,,,124.53833690000465,124.53833690000465,339320,001,2023-06-02_17h00.49.564,Pilot_online_tryings,2022.2.5,32.21268619282521,
WhatL2_uns.csv,directory_online_WHAT_L2_uns.csv,What_UnsyncL2_testdirs.csv,WhatL2_unsync_norm.wav,si,112:116,green,Online_whatL2//dSI16.none.wav,none,,,0,1,1,1,0,0,0,9,0,1,1,0,,,,,,,,,,,,,,,,,,,,,,,,,,,,,,,,,,,,,,,,,,,,,,,,,,,,,,,,,0.0225468999997247,124.60145839999313,124.60145839999313,124.60145839999313,None,y,0.13638969999738038,,,,,,,,,,,,,,,,,,,,,,,,,,,,,,,,,,,339320,001,2023-06-02_17h00.49.564,Pilot_online_tryings,2022.2.5,32.21268619282521,
WhatL2_uns.csv,directory_online_WHAT_L2_uns.csv,What_UnsyncL2_testdirs.csv,WhatL2_unsync_norm.wav,si,112:116,green,Online_whatL2//dSI19.none.wav,none,,,0,1,1,1,0,0,0,9,0,2,2,3,,,,,,,,,,,,,,,,,,,,,,,,,,,,,,,,,,,,,,,,,,,,,,,,,,,,,,,,,0.014598000008845702,124.78873919999751,124.78873919999751,124.78873919999751,None,y,0.1277152999973623,,,,,,,,,,,,,,,,,,,,,,,,,,,,,,,,,,,339320,001,2023-06-02_17h00.49.564,Pilot_online_tryings,2022.2.5,32.21268619282521,
WhatL2_uns.csv,directory_online_WHAT_L2_uns.csv,What_UnsyncL2_testdirs.csv,WhatL2_unsync_norm.wav,si,112:116,green,Online_whatL2//dSI18.none.wav,none,,,0,1,1,1,0,0,0,9,0,3,3,2,,,,,,,,,,,,,,,,,,,,,,,,,,,,,,,,,,,,,,,,,,,,,,,,,,,,,,,,,0.007517499994719401,124.94534590000694,124.94534590000694,124.94534590000694,None,y,0.11756089999107644,,,,,,,,,,,,,,,,,,,,,,,,,,,,,,,,,,,339320,001,2023-06-02_17h00.49.564,Pilot_online_tryings,2022.2.5,32.21268619282521,
WhatL2_uns.csv,directory_online_WHAT_L2_uns.csv,What_UnsyncL2_testdirs.csv,WhatL2_unsync_norm.wav,si,112:116,green,,,,,0,1,1,1,0,0,0,9,,,,,,,,,,,,,,,,,,,,,,,,,,,,,,,,,,,,,,,,,,,,,,,,,,,,,,,,,,,,,,,,,,,,,,,,,,,,,,,,,,,,,,,,,,,,,,,,,,,,,,339320,001,2023-06-02_17h00.49.564,Pilot_online_tryings,2022.2.5,32.21268619282521,
WhatL2_uns.csv,directory_online_WHAT_L2_uns.csv,What_UnsyncL2_testdirs.csv,WhatL2_unsync_norm.wav,si,108:112,green,Online_whatL2//dSI15.222.wav,222.0,,,0,1,1,1,0,1,1,6,0,0,0,3,,,,,,,,,,,,,,,,,,,,,,,,,,,,,,,,,,,,,,,,,,,,,,,,,,,,,,,125.1018630000035,125.1018630000035,0.020985399998608045,125.1018630000035,125.1018630000035,125.1018630000035,None,y,0.10128459999396,,,,,,,,,,,,,,,,,,,,,,,,,,,,,,,,,,,339320,001,2023-06-02_17h00.49.564,Pilot_online_tryings,2022.2.5,32.21268619282521,
WhatL2_uns.csv,directory_online_WHAT_L2_uns.csv,What_UnsyncL2_testdirs.csv,WhatL2_unsync_norm.wav,si,108:112,green,Online_whatL2//dSI12.222.wav,222.0,,,0,1,1,1,0,1,1,6,0,1,1,0,,,,,,,,,,,,,,,,,,,,,,,,,,,,,,,,,,,,,,,,,,,,,,,,,,,,,,,,,0.009596800009603612,125.25764470000286,125.25764470000286,125.25764470000286,None,y,0.09720910000032745,,,,,,,,,,,,,,,,,,,,,,,,,,,,,,,,,,,339320,001,2023-06-02_17h00.49.564,Pilot_online_tryings,2022.2.5,32.21268619282521,
WhatL2_uns.csv,directory_online_WHAT_L2_uns.csv,What_UnsyncL2_testdirs.csv,WhatL2_unsync_norm.wav,si,108:112,green,Online_whatL2//dSI13.1332.wav,1332.0,,,0,1,1,1,0,1,1,6,0,2,2,1,,,,,,,,,,,,,,,,,,,,,,,,,,,,,,,,,,,,,,,,,,,,,,,,,,,,,,,,,0.007143299997551367,125.41545149999729,125.41545149999729,125.41545149999729,None,y,0.45727199999964796,,,,,,,,,,,,,,,,,,,,,,,,,,,,,,,,,,,339320,001,2023-06-02_17h00.49.564,Pilot_online_tryings,2022.2.5,32.21268619282521,
WhatL2_uns.csv,directory_online_WHAT_L2_uns.csv,What_UnsyncL2_testdirs.csv,WhatL2_unsync_norm.wav,si,108:112,green,Online_whatL2//dSI14.none.wav,none,,,0,1,1,1,0,1,1,6,0,3,3,2,,,,,,,,,,,,,,,,,,,,,,,,,,,,,,,,,,,,,,,,,,,,,,,,,,,,,,,,,0.016380400003981777,125.913970900001,125.913970900001,125.913970900001,None,y,0.026465999995707534,,,,,,,,,,,,,,,,,,,,,,,,,,,,,,,,,,,339320,001,2023-06-02_17h00.49.564,Pilot_online_tryings,2022.2.5,32.21268619282521,
WhatL2_uns.csv,directory_online_WHAT_L2_uns.csv,What_UnsyncL2_testdirs.csv,WhatL2_unsync_norm.wav,si,108:112,green,,,,,0,1,1,1,0,1,1,6,,,,,,,,,,,,,,,,,,,,,,,,,,,,,,,,,,,,,,,,,,,,,,,,,,,,,,,,,,,,,,,,,,,,,,,,,,,,,,,,,,,,,,,,,,,,,,,,,,,,,,339320,001,2023-06-02_17h00.49.564,Pilot_online_tryings,2022.2.5,32.21268619282521,
WhatL2_uns.csv,directory_online_WHAT_L2_uns.csv,What_UnsyncL2_testdirs.csv,WhatL2_unsync_norm.wav,fe,48:52,red,Online_whatL2//bFE18.none.wav,none,,,0,1,1,1,0,2,2,23,0,0,0,2,,,,,,,,,,,,,,,,,,,,,,,,,,,,,,,,,,,,,,,,,,,,,,,,,,,,,,,126.04281410000112,126.04281410000112,0.04676880000624806,126.04281410000112,126.04281410000112,126.04281410000112,None,y,0.042416900003445335,,,,,,,,,,,,,,,,,,,,,,,,,,,,,,,,,,,339320,001,2023-06-02_17h00.49.564,Pilot_online_tryings,2022.2.5,32.21268619282521,
WhatL2_uns.csv,directory_online_WHAT_L2_uns.csv,What_UnsyncL2_testdirs.csv,WhatL2_unsync_norm.wav,fe,48:52,red,Online_whatL2//bFE16.none.wav,none,,,0,1,1,1,0,2,2,23,0,1,1,0,,,,,,,,,,,,,,,,,,,,,,,,,,,,,,,,,,,,,,,,,,,,,,,,,,,,,,,,,0.02056299999821931,126.13308670000697,126.13308670000697,126.13308670000697,None,y,0.0946062000002712,,,,,,,,,,,,,,,,,,,,,,,,,,,,,,,,,,,339320,001,2023-06-02_17h00.49.564,Pilot_online_tryings,2022.2.5,32.21268619282521,
WhatL2_uns.csv,directory_online_WHAT_L2_uns.csv,What_UnsyncL2_testdirs.csv,WhatL2_unsync_norm.wav,fe,48:52,red,Online_whatL2//bFE19.0.wav,0.0,,,0,1,1,1,0,2,2,23,0,2,2,3,,,,,,,,,,,,,,,,,,,,,,,,,,,,,,,,,,,,,,,,,,,,,,,,,,,,,,,,,0.014962999994168058,126.26008779999393,126.26008779999393,126.26008779999393,None,y,0.1075523999897996,,,,,,,,,,,,,,,,,,,,,,,,,,,,,,,,,,,339320,001,2023-06-02_17h00.49.564,Pilot_online_tryings,2022.2.5,32.21268619282521,
WhatL2_uns.csv,directory_online_WHAT_L2_uns.csv,What_UnsyncL2_testdirs.csv,WhatL2_unsync_norm.wav,fe,48:52,red,Online_whatL2//bFE17.none.wav,none,,,0,1,1,1,0,2,2,23,0,3,3,1,,,,,,,,,,,,,,,,,,,,,,,,,,,,,,,,,,,,,,,,,,,,,,,,,,,,,,,,,0.02997049999248702,126.42231219999667,126.42231219999667,126.42231219999667,None,y,0.10433919999923091,,,,,,,,,,,,,,,,,,,,,,,,,,,,,,,,,,,339320,001,2023-06-02_17h00.49.564,Pilot_online_tryings,2022.2.5,32.21268619282521,
WhatL2_uns.csv,directory_online_WHAT_L2_uns.csv,What_UnsyncL2_testdirs.csv,WhatL2_unsync_norm.wav,fe,48:52,red,,,,,0,1,1,1,0,2,2,23,,,,,,,,,,,,,,,,,,,,,,,,,,,,,,,,,,,,,,,,,,,,,,,,,,,,,,,,,,,,,,,,,,,,,,,,,,,,,,,,,,,,,,,,,,,,,,,,,,,,,,339320,001,2023-06-02_17h00.49.564,Pilot_online_tryings,2022.2.5,32.21268619282521,
WhatL2_uns.csv,directory_online_WHAT_L2_uns.csv,What_UnsyncL2_testdirs.csv,WhatL2_unsync_norm.wav,fe,36:40,red,Online_whatL2//bFE4.none.wav,none,,,0,1,1,1,0,3,3,26,0,0,0,0,,,,,,,,,,,,,,,,,,,,,,,,,,,,,,,,,,,,,,,,,,,,,,,,,,,,,,,126.57683350000298,126.57683350000298,0.027636700004222803,126.57683350000298,126.57683350000298,126.57683350000298,None,y,0.09326369999325834,,,,,,,,,,,,,,,,,,,,,,,,,,,,,,,,,,,339320,001,2023-06-02_17h00.49.564,Pilot_online_tryings,2022.2.5,32.21268619282521,
WhatL2_uns.csv,directory_online_WHAT_L2_uns.csv,What_UnsyncL2_testdirs.csv,WhatL2_unsync_norm.wav,fe,36:40,red,Online_whatL2//bFE5.none.wav,none,,,0,1,1,1,0,3,3,26,0,1,1,1,,,,,,,,,,,,,,,,,,,,,,,,,,,,,,,,,,,,,,,,,,,,,,,,,,,,,,,,,0.018791499998769723,126.72665029999916,126.72665029999916,126.72665029999916,None,y,0.07266279998293612,,,,,,,,,,,,,,,,,,,,,,,,,,,,,,,,,,,339320,001,2023-06-02_17h00.49.564,Pilot_online_tryings,2022.2.5,32.21268619282521,
WhatL2_uns.csv,directory_online_WHAT_L2_uns.csv,What_UnsyncL2_testdirs.csv,WhatL2_unsync_norm.wav,fe,36:40,red,Online_whatL2//bFE6.none.wav,none,,,0,1,1,1,0,3,3,26,0,2,2,2,,,,,,,,,,,,,,,,,,,,,,,,,,,,,,,,,,,,,,,,,,,,,,,,,,,,,,,,,0.008359899991774,126.85157040000195,126.85157040000195,126.85157040000195,None,y,0.11144940000667702,,,,,,,,,,,,,,,,,,,,,,,,,,,,,,,,,,,339320,001,2023-06-02_17h00.49.564,Pilot_online_tryings,2022.2.5,32.21268619282521,
