seq,online_dir,test_dir,audio_offline,cond,ord,colour,dirs,time,trials.thisRepN,trials.thisTrialN,trials.thisN,trials.thisIndex,Conj_unsync_online.thisRepN,Conj_unsync_online.thisTrialN,Conj_unsync_online.thisN,Conj_unsync_online.thisIndex,audio1.thisRepN,audio1.thisTrialN,audio1.thisN,audio1.thisIndex,Conj_unsync_test.thisRepN,Conj_unsync_test.thisTrialN,Conj_unsync_test.thisN,Conj_unsync_test.thisIndex,test,text_21.started,key_resp1.started,key_resp1.keys,key_resp1.rt,text_23.started,key_resp_6.started,key_resp_6.keys,key_resp_6.rt,text_26.started,key_resp_10.started,key_resp_10.keys,key_resp_10.rt,volume_set.started,key_ressp2.started,text_27.started,key_ressp2.keys,key_ressp2.rt,text_24.started,key_resp_9.started,key_resp_9.keys,key_resp_9.rt,text_37.started,key_resp_3.started,key_resp_3.keys,key_resp_3.rt,text_22.started,key_resp1_2.started,key_resp1_2.keys,key_resp1_2.rt,text_25.started,key_resp1_3.started,key_resp1_3.keys,key_resp1_3.rt,text_28.started,key_resp_11.started,key_resp_11.keys,key_resp_11.rt,text_29.started,key_resp_12.started,key_resp_12.keys,key_resp_12.rt,text_36.started,key_resp_18.started,key_resp_18.keys,key_resp_18.rt,learning.started,text_19.started,key_resp_7.started,key_resp_7.keys,key_resp_7.rt,text_31.started,key_resp1_4.started,key_resp1_4.keys,key_resp1_4.rt,text_2.started,text_2.stopped,seqs.started,text_13.started,syllable_catch.started,key_resp_16.started,syllable_catch.keys,syllable_catch.rt,key_resp_16.keys,key_resp_16.rt,text_12.started,key_resp4.started,key_resp4.keys,key_resp4.rt,text_14.started,key_resp_4.started,key_resp_4.keys,key_resp_4.rt,text_17.started,key_resp_17.started,test_sounds.started,key_resp_17.keys,key_resp_17.rt,text_18.started,Partz_no_partm.started,participant,session,date,expName,psychopyVersion,frameRate,
,,,,,,,,,,,,,,,,,,,,,,,,,,24.756186600017827,24.756186600017827,space,1.9981771999155171,,,,,,,,,,,,,,,,,,,,,,,,,,,,,,,,,,,,,,,,,,,,,,,,,,,,,,,,,,,,,,,,,,,,,,,,,,,,416757,001,2023-06-06_12h21.27.425,Pilot_online_tryings,2022.2.5,60.0137071372718,
,,,,,,,,,,,,,,,,,,,,,,,,,,,,,,26.794235600042157,26.794235600042157,space,0.2790861999383196,,,,,,,,,,,,,,,,,,,,,,,,,,,,,,,,,,,,,,,,,,,,,,,,,,,,,,,,,,,,,,,,,,,,,,,,416757,001,2023-06-06_12h21.27.425,Pilot_online_tryings,2022.2.5,60.0137071372718,
,,,,,,,,,,,,,,,,,,,,,,,,,,,,,,,,,,27.09106290002819,27.09106290002819,space,0.41412349994061515,,,,,,,,,,,,,,,,,,,,,,,,,,,,,,,,,,,,,,,,,,,,,,,,,,,,,,,,,,,,,,,,,,,,416757,001,2023-06-06_12h21.27.425,Pilot_online_tryings,2022.2.5,60.0137071372718,
,,,,,,,,,,,,,,,,,,,,,,,,,,,,,,,,,,,,,,27.574897080066147,27.571018200018443,27.571018200018443,space,0.46257649996550754,,,,,,,,,,,,,,,,,,,,,,,,,,,,,,,,,,,,,,,,,,,,,,,,,,,,,,,,,,,,,,,416757,001,2023-06-06_12h21.27.425,Pilot_online_tryings,2022.2.5,60.0137071372718,
,,,,,,,,,,,,,,,,,,,,,,,,,,,,,,,,,,,,,,,,,,,28.056967200012878,28.056967200012878,space,0.29693779995432124,,,,,,,,,,,,,,,,,,,,,,,,,,,,,,,,,,,,,,,,,,,,,,,,,,,,,,,,,,,416757,001,2023-06-06_12h21.27.425,Pilot_online_tryings,2022.2.5,60.0137071372718,
,,,,,,,,,,,,,,,,,,,,,,,,,,,,,,,,,,,,,,,,,,,,,,,28.37445470003877,28.37445470003877,space,0.3485618999111466,,,,,,,,,,,,,,,,,,,,,,,,,,,,,,,,,,,,,,,,,,,,,,,,,,,,,,,416757,001,2023-06-06_12h21.27.425,Pilot_online_tryings,2022.2.5,60.0137071372718,
,,,,,,,,,,,,,,,,,,,,,,,,,,,,,,,,,,,,,,,,,,,,,,,,,,,28.741990600014105,28.741990600014105,space,0.33194599993294105,,,,,,,,,,,,,,,,,,,,,,,,,,,,,,,,,,,,,,,,,,,,,,,,,,,416757,001,2023-06-06_12h21.27.425,Pilot_online_tryings,2022.2.5,60.0137071372718,
,,,,,,,,,,,,,,,,,,,,,,,,,,,,,,,,,,,,,,,,,,,,,,,,,,,,,,,29.093511200044304,29.093511200044304,space,0.3319871998974122,,,,,,,,,,,,,,,,,,,,,,,,,,,,,,,,,,,,,,,,,,,,,,,416757,001,2023-06-06_12h21.27.425,Pilot_online_tryings,2022.2.5,60.0137071372718,
,,,,,,,,,,,,,,,,,,,,,,,,,,,,,,,,,,,,,,,,,,,,,,,,,,,,,,,,,,,29.443105400016066,29.443105400016066,space,0.35012499993899837,,,,,,,,,,,,,,,,,,,,,,,,,,,,,,,,,,,,,,,,,,,416757,001,2023-06-06_12h21.27.425,Pilot_online_tryings,2022.2.5,60.0137071372718,
,,,,,,,,,,,,,,,,,,,,,,,,,,,,,,,,,,,,,,,,,,,,,,,,,,,,,,,,,,,,,,,29.808511900017038,29.808511900017038,space,0.3209711999516003,,,,,,,,,,,,,,,,,,,,,,,,,,,,,,,,,,,,,,,416757,001,2023-06-06_12h21.27.425,Pilot_online_tryings,2022.2.5,60.0137071372718,
ConjL4_syn.csv,directory_online_conj_L4_syn.csv,Test_Conj_SyncL4.csv,ConjL4_sync_norm.wav,lo,4:8,blue,Online_conjL4_syn//aLO6.1554.wav,1554.0,0,0,0,3,0,0,0,10,0,0,0,2,,,,,,,,,,,,,,,,,,,,,,,,,,,,,,,,,,,,,,,,,,,,,,,30.164723700028844,30.164723700028844,space,0.3176466998993419,31.04468996008509,31.049602700048126,31.049602700048126,space,1.0159852999495342,32.09502290003002,32.09502290003002,space,4.46655979991192,36.63782980001997,36.63782980001997,0.046574999985750765,36.63782980001997,36.63782980001997,36.63782980001997,space,0.32432849996257573,y,1.4441155999084003,,,,,,,,,,,,,,,,416757,001,2023-06-06_12h21.27.425,Pilot_online_tryings,2022.2.5,60.0137071372718,
ConjL4_syn.csv,directory_online_conj_L4_syn.csv,Test_Conj_SyncL4.csv,ConjL4_sync_norm.wav,lo,4:8,blue,Online_conjL4_syn//aLO4.666.wav,666.0,0,0,0,3,0,0,0,10,0,1,1,0,,,,,,,,,,,,,,,,,,,,,,,,,,,,,,,,,,,,,,,,,,,,,,,,,,,,,,,,,,,,,,0.03160879999632016,38.13468380004633,38.13468380004633,38.13468380004633,None,,y,0.12236369994934648,,,,,,,,,,,,,,,,416757,001,2023-06-06_12h21.27.425,Pilot_online_tryings,2022.2.5,60.0137071372718,
ConjL4_syn.csv,directory_online_conj_L4_syn.csv,Test_Conj_SyncL4.csv,ConjL4_sync_norm.wav,lo,4:8,blue,Online_conjL4_syn//aLO5.none.wav,none,0,0,0,3,0,0,0,10,0,2,2,1,,,,,,,,,,,,,,,,,,,,,,,,,,,,,,,,,,,,,,,,,,,,,,,,,,,,,,,,,,,,,,0.006294700026046485,38.28332300001057,38.28332300001057,38.28332300001057,None,,y,0.14920139993773773,,,,,,,,,,,,,,,,416757,001,2023-06-06_12h21.27.425,Pilot_online_tryings,2022.2.5,60.0137071372718,
ConjL4_syn.csv,directory_online_conj_L4_syn.csv,Test_Conj_SyncL4.csv,ConjL4_sync_norm.wav,lo,4:8,blue,Online_conjL4_syn//aLO7.1554.wav,1554.0,0,0,0,3,0,0,0,10,0,3,3,3,,,,,,,,,,,,,,,,,,,,,,,,,,,,,,,,,,,,,,,,,,,,,,,,,,,,,,,,,,,,,,0.021241299982648343,38.46143130003475,38.46143130003475,38.46143130003475,None,,y,0.1323010999476537,,,,,,,,,,,,,,,,416757,001,2023-06-06_12h21.27.425,Pilot_online_tryings,2022.2.5,60.0137071372718,
ConjL4_syn.csv,directory_online_conj_L4_syn.csv,Test_Conj_SyncL4.csv,ConjL4_sync_norm.wav,lo,4:8,blue,,,0,0,0,3,0,0,0,10,,,,,,,,,,,,,,,,,,,,,,,,,,,,,,,,,,,,,,,,,,,,,,,,,,,,,,,,,,,,,,,,,,,,,,,,,,,,,,,,,,,,,,,,,416757,001,2023-06-06_12h21.27.425,Pilot_online_tryings,2022.2.5,60.0137071372718,
ConjL4_syn.csv,directory_online_conj_L4_syn.csv,Test_Conj_SyncL4.csv,ConjL4_sync_norm.wav,ja,32:36,green,Online_conjL4_syn//bJA0.0.wav,0.0,0,0,0,3,0,1,1,28,0,0,0,0,,,,,,,,,,,,,,,,,,,,,,,,,,,,,,,,,,,,,,,,,,,,,,,,,,,,,,,,,,,,38.63101370004006,38.63101370004006,0.01985959999728948,38.63101370004006,38.63101370004006,38.63101370004006,None,,y,0.12228909990517423,,,,,,,,,,,,,,,,416757,001,2023-06-06_12h21.27.425,Pilot_online_tryings,2022.2.5,60.0137071372718,
ConjL4_syn.csv,directory_online_conj_L4_syn.csv,Test_Conj_SyncL4.csv,ConjL4_sync_norm.wav,ja,32:36,green,Online_conjL4_syn//bJA2.666.wav,666.0,0,0,0,3,0,1,1,28,0,1,1,2,,,,,,,,,,,,,,,,,,,,,,,,,,,,,,,,,,,,,,,,,,,,,,,,,,,,,,,,,,,,,,0.03307200002018362,38.80687880003825,38.80687880003825,38.80687880003825,None,,y,0.12300549994688481,,,,,,,,,,,,,,,,416757,001,2023-06-06_12h21.27.425,Pilot_online_tryings,2022.2.5,60.0137071372718,
ConjL4_syn.csv,directory_online_conj_L4_syn.csv,Test_Conj_SyncL4.csv,ConjL4_sync_norm.wav,ja,32:36,green,Online_conjL4_syn//bJA3.0.wav,0.0,0,0,0,3,0,1,1,28,0,2,2,3,,,,,,,,,,,,,,,,,,,,,,,,,,,,,,,,,,,,,,,,,,,,,,,,,,,,,,,,,,,,,,0.023087100009433925,38.96343590004835,38.96343590004835,38.96343590004835,None,,y,0.12597389990696684,,,,,,,,,,,,,,,,416757,001,2023-06-06_12h21.27.425,Pilot_online_tryings,2022.2.5,60.0137071372718,
ConjL4_syn.csv,directory_online_conj_L4_syn.csv,Test_Conj_SyncL4.csv,ConjL4_sync_norm.wav,ja,32:36,green,Online_conjL4_syn//bJA1.666.wav,666.0,0,0,0,3,0,1,1,28,0,3,3,1,,,,,,,,,,,,,,,,,,,,,,,,,,,,,,,,,,,,,,,,,,,,,,,,,,,,,,,,,,,,,,0.008363100001588464,39.117453500046395,39.117453500046395,39.117453500046395,None,,y,0.1313451999449171,,,,,,,,,,,,,,,,416757,001,2023-06-06_12h21.27.425,Pilot_online_tryings,2022.2.5,60.0137071372718,
ConjL4_syn.csv,directory_online_conj_L4_syn.csv,Test_Conj_SyncL4.csv,ConjL4_sync_norm.wav,ja,32:36,green,,,0,0,0,3,0,1,1,28,,,,,,,,,,,,,,,,,,,,,,,,,,,,,,,,,,,,,,,,,,,,,,,,,,,,,,,,,,,,,,,,,,,,,,,,,,,,,,,,,,,,,,,,,416757,001,2023-06-06_12h21.27.425,Pilot_online_tryings,2022.2.5,60.0137071372718,
ConjL4_syn.csv,directory_online_conj_L4_syn.csv,Test_Conj_SyncL4.csv,ConjL4_sync_norm.wav,ja,40:44,green,Online_conjL4_syn//bJA8.none.wav,none,0,0,0,3,0,2,2,21,0,0,0,0,,,,,,,,,,,,,,,,,,,,,,,,,,,,,,,,,,,,,,,,,,,,,,,,,,,,,,,,,,,,39.28321680001682,39.28321680001682,0.025051300006452948,39.28321680001682,39.28321680001682,39.28321680001682,None,,y,0.11025169992353767,,,,,,,,,,,,,,,,416757,001,2023-06-06_12h21.27.425,Pilot_online_tryings,2022.2.5,60.0137071372718,
ConjL4_syn.csv,directory_online_conj_L4_syn.csv,Test_Conj_SyncL4.csv,ConjL4_sync_norm.wav,ja,40:44,green,Online_conjL4_syn//bJA9.none.wav,none,0,0,0,3,0,2,2,21,0,1,1,1,,,,,,,,,,,,,,,,,,,,,,,,,,,,,,,,,,,,,,,,,,,,,,,,,,,,,,,,,,,,,,0.015984700003173202,39.423670900054276,39.423670900054276,39.423670900054276,None,,y,0.14581569994334131,,,,,,,,,,,,,,,,416757,001,2023-06-06_12h21.27.425,Pilot_online_tryings,2022.2.5,60.0137071372718,
ConjL4_syn.csv,directory_online_conj_L4_syn.csv,Test_Conj_SyncL4.csv,ConjL4_sync_norm.wav,ja,40:44,green,Online_conjL4_syn//bJA11.666.wav,666.0,0,0,0,3,0,2,2,21,0,2,2,3,,,,,,,,,,,,,,,,,,,,,,,,,,,,,,,,,,,,,,,,,,,,,,,,,,,,,,,,,,,,,,0.021184600016567856,39.61127430002671,39.61127430002671,39.61127430002671,None,,y,0.11752499989233911,,,,,,,,,,,,,,,,416757,001,2023-06-06_12h21.27.425,Pilot_online_tryings,2022.2.5,60.0137071372718,
ConjL4_syn.csv,directory_online_conj_L4_syn.csv,Test_Conj_SyncL4.csv,ConjL4_sync_norm.wav,ja,40:44,green,Online_conjL4_syn//bJA10.0.wav,0.0,0,0,0,3,0,2,2,21,0,3,3,2,,,,,,,,,,,,,,,,,,,,,,,,,,,,,,,,,,,,,,,,,,,,,,,,,,,,,,,,,,,,,,0.007824699976481497,39.751391100056935,39.751391100056935,39.751391100056935,None,,y,0.13826339994557202,,,,,,,,,,,,,,,,416757,001,2023-06-06_12h21.27.425,Pilot_online_tryings,2022.2.5,60.0137071372718,
ConjL4_syn.csv,directory_online_conj_L4_syn.csv,Test_Conj_SyncL4.csv,ConjL4_sync_norm.wav,ja,40:44,green,,,0,0,0,3,0,2,2,21,,,,,,,,,,,,,,,,,,,,,,,,,,,,,,,,,,,,,,,,,,,,,,,,,,,,,,,,,,,,,,,,,,,,,,,,,,,,,,,,,,,,,,,,,416757,001,2023-06-06_12h21.27.425,Pilot_online_tryings,2022.2.5,60.0137071372718,
ConjL4_syn.csv,directory_online_conj_L4_syn.csv,Test_Conj_SyncL4.csv,ConjL4_sync_norm.wav,ja,52:56,green,Online_conjL4_syn//bJA22.0.wav,0.0,0,0,0,3,0,3,3,5,0,0,0,2,,,,,,,,,,,,,,,,,,,,,,,,,,,,,,,,,,,,,,,,,,,,,,,,,,,,,,,,,,,,39.936871400044765,39.936871400044765,0.028541099978610873,39.936871400044765,39.936871400044765,39.936871400044765,None,,y,0.17692829994484782,,,,,,,,,,,,,,,,416757,001,2023-06-06_12h21.27.425,Pilot_online_tryings,2022.2.5,60.0137071372718,
ConjL4_syn.csv,directory_online_conj_L4_syn.csv,Test_Conj_SyncL4.csv,ConjL4_sync_norm.wav,ja,52:56,green,Online_conjL4_syn//bJA21.666.wav,666.0,0,0,0,3,0,3,3,5,0,1,1,1,,,,,,,,,,,,,,,,,,,,,,,,,,,,,,,,,,,,,,,,,,,,,,,,,,,,,,,,,,,,,,0.008287500008009374,40.135123100015335,40.135123100015335,40.135123100015335,None,,y,0.16932729992549866,,,,,,,,,,,,,,,,416757,001,2023-06-06_12h21.27.425,Pilot_online_tryings,2022.2.5,60.0137071372718,
ConjL4_syn.csv,directory_online_conj_L4_syn.csv,Test_Conj_SyncL4.csv,ConjL4_sync_norm.wav,ja,52:56,green,Online_conjL4_syn//bJA20.none.wav,none,0,0,0,3,0,3,3,5,0,2,2,0,,,,,,,,,,,,,,,,,,,,,,,,,,,,,,,,,,,,,,,,,,,,,,,,,,,,,,,,,,,,,,0.008945400011725724,40.33535960002337,40.33535960002337,40.33535960002337,None,,y,0.19460199994500726,,,,,,,,,,,,,,,,416757,001,2023-06-06_12h21.27.425,Pilot_online_tryings,2022.2.5,60.0137071372718,
ConjL4_syn.csv,directory_online_conj_L4_syn.csv,Test_Conj_SyncL4.csv,ConjL4_sync_norm.wav,ja,52:56,green,Online_conjL4_syn//bJA23.0.wav,0.0,0,0,0,3,0,3,3,5,0,3,3,3,,,,,,,,,,,,,,,,,,,,,,,,,,,,,,,,,,,,,,,,,,,,,,,,,,,,,,,,,,,,,,0.013914400013163686,40.55552470003022,40.55552470003022,40.55552470003022,None,,y,0.14965469995513558,,,,,,,,,,,,,,,,416757,001,2023-06-06_12h21.27.425,Pilot_online_tryings,2022.2.5,60.0137071372718,
ConjL4_syn.csv,directory_online_conj_L4_syn.csv,Test_Conj_SyncL4.csv,ConjL4_sync_norm.wav,ja,52:56,green,,,0,0,0,3,0,3,3,5,,,,,,,,,,,,,,,,,,,,,,,,,,,,,,,,,,,,,,,,,,,,,,,,,,,,,,,,,,,,,,,,,,,,,,,,,,,,,,,,,,,,,,,,,416757,001,2023-06-06_12h21.27.425,Pilot_online_tryings,2022.2.5,60.0137071372718,
ConjL4_syn.csv,directory_online_conj_L4_syn.csv,Test_Conj_SyncL4.csv,ConjL4_sync_norm.wav,bu,76:80,orange,Online_conjL4_syn//cBU15.222.wav,222.0,0,0,0,3,0,4,4,30,0,0,0,3,,,,,,,,,,,,,,,,,,,,,,,,,,,,,,,,,,,,,,,,,,,,,,,,,,,,,,,,,,,,40.76719670003513,40.76719670003513,0.035522299993317574,40.76719670003513,40.76719670003513,40.76719670003513,None,,y,0.13031579996459186,,,,,,,,,,,,,,,,416757,001,2023-06-06_12h21.27.425,Pilot_online_tryings,2022.2.5,60.0137071372718,
ConjL4_syn.csv,directory_online_conj_L4_syn.csv,Test_Conj_SyncL4.csv,ConjL4_sync_norm.wav,bu,76:80,orange,Online_conjL4_syn//cBU12.222.wav,222.0,0,0,0,3,0,4,4,30,0,1,1,0,,,,,,,,,,,,,,,,,,,,,,,,,,,,,,,,,,,,,,,,,,,,,,,,,,,,,,,,,,,,,,0.011044599988963455,40.919938200036995,40.919938200036995,40.919938200036995,None,,y,0.16845649993047118,,,,,,,,,,,,,,,,416757,001,2023-06-06_12h21.27.425,Pilot_online_tryings,2022.2.5,60.0137071372718,
ConjL4_syn.csv,directory_online_conj_L4_syn.csv,Test_Conj_SyncL4.csv,ConjL4_sync_norm.wav,bu,76:80,orange,Online_conjL4_syn//cBU14.none.wav,none,0,0,0,3,0,4,4,30,0,2,2,2,,,,,,,,,,,,,,,,,,,,,,,,,,,,,,,,,,,,,,,,,,,,,,,,,,,,,,,,,,,,,,0.01820569997653365,41.1272825000342,41.1272825000342,41.1272825000342,None,,y,0.15455839992500842,,,,,,,,,,,,,,,,416757,001,2023-06-06_12h21.27.425,Pilot_online_tryings,2022.2.5,60.0137071372718,
ConjL4_syn.csv,directory_online_conj_L4_syn.csv,Test_Conj_SyncL4.csv,ConjL4_sync_norm.wav,bu,76:80,orange,Online_conjL4_syn//cBU13.0.wav,0.0,0,0,0,3,0,4,4,30,0,3,3,1,,,,,,,,,,,,,,,,,,,,,,,,,,,,,,,,,,,,,,,,,,,,,,,,,,,,,,,,,,,,,,0.006235000037122518,41.3030353000504,41.3030353000504,41.3030353000504,None,,y,0.1696625999175012,,,,,,,,,,,,,,,,416757,001,2023-06-06_12h21.27.425,Pilot_online_tryings,2022.2.5,60.0137071372718,
ConjL4_syn.csv,directory_online_conj_L4_syn.csv,Test_Conj_SyncL4.csv,ConjL4_sync_norm.wav,bu,76:80,orange,,,0,0,0,3,0,4,4,30,,,,,,,,,,,,,,,,,,,,,,,,,,,,,,,,,,,,,,,,,,,,,,,,,,,,,,,,,,,,,,,,,,,,,,,,,,,,,,,,,,,,,,,,,416757,001,2023-06-06_12h21.27.425,Pilot_online_tryings,2022.2.5,60.0137071372718,
ConjL4_syn.csv,directory_online_conj_L4_syn.csv,Test_Conj_SyncL4.csv,ConjL4_sync_norm.wav,bu,84:88,orange,Online_conjL4_syn//cBU20.none.wav,none,0,0,0,3,0,5,5,3,0,0,0,0,,,,,,,,,,,,,,,,,,,,,,,,,,,,,,,,,,,,,,,,,,,,,,,,,,,,,,,,,,,,41.51194590004161,41.51194590004161,0.01845609996234998,41.51194590004161,41.51194590004161,41.51194590004161,None,,y,0.18523699993966147,,,,,,,,,,,,,,,,416757,001,2023-06-06_12h21.27.425,Pilot_online_tryings,2022.2.5,60.0137071372718,
ConjL4_syn.csv,directory_online_conj_L4_syn.csv,Test_Conj_SyncL4.csv,ConjL4_sync_norm.wav,bu,84:88,orange,Online_conjL4_syn//cBU21.none.wav,none,0,0,0,3,0,5,5,3,0,1,1,1,,,,,,,,,,,,,,,,,,,,,,,,,,,,,,,,,,,,,,,,,,,,,,,,,,,,,,,,,,,,,,0.006492100015748292,41.72012690000702,41.72012690000702,41.72012690000702,None,,y,0.18465329991886392,,,,,,,,,,,,,,,,416757,001,2023-06-06_12h21.27.425,Pilot_online_tryings,2022.2.5,60.0137071372718,
ConjL4_syn.csv,directory_online_conj_L4_syn.csv,Test_Conj_SyncL4.csv,ConjL4_sync_norm.wav,bu,84:88,orange,Online_conjL4_syn//cBU23.none.wav,none,0,0,0,3,0,5,5,3,0,2,2,3,,,,,,,,,,,,,,,,,,,,,,,,,,,,,,,,,,,,,,,,,,,,,,,,,,,,,,,,,,,,,,0.0060656999703496695,41.93695250002202,41.93695250002202,41.93695250002202,None,,y,0.17615269991802052,,,,,,,,,,,,,,,,416757,001,2023-06-06_12h21.27.425,Pilot_online_tryings,2022.2.5,60.0137071372718,
ConjL4_syn.csv,directory_online_conj_L4_syn.csv,Test_Conj_SyncL4.csv,ConjL4_sync_norm.wav,bu,84:88,orange,Online_conjL4_syn//cBU22.0.wav,0.0,0,0,0,3,0,5,5,3,0,3,3,2,,,,,,,,,,,,,,,,,,,,,,,,,,,,,,,,,,,,,,,,,,,,,,,,,,,,,,,,,,,,,,0.00587160000577569,42.137220500037074,42.137220500037074,42.137220500037074,None,,y,0.18403799994848669,,,,,,,,,,,,,,,,416757,001,2023-06-06_12h21.27.425,Pilot_online_tryings,2022.2.5,60.0137071372718,
ConjL4_syn.csv,directory_online_conj_L4_syn.csv,Test_Conj_SyncL4.csv,ConjL4_sync_norm.wav,bu,84:88,orange,,,0,0,0,3,0,5,5,3,,,,,,,,,,,,,,,,,,,,,,,,,,,,,,,,,,,,,,,,,,,,,,,,,,,,,,,,,,,,,,,,,,,,,,,,,,,,,,,,,,,,,,,,,416757,001,2023-06-06_12h21.27.425,Pilot_online_tryings,2022.2.5,60.0137071372718,
ConjL4_syn.csv,directory_online_conj_L4_syn.csv,Test_Conj_SyncL4.csv,ConjL4_sync_norm.wav,bu,72:76,orange,Online_conjL4_syn//cBU10.1332.wav,1332.0,0,0,0,3,0,6,6,14,0,0,0,2,,,,,,,,,,,,,,,,,,,,,,,,,,,,,,,,,,,,,,,,,,,,,,,,,,,,,,,,,,,,42.34941580001032,42.34941580001032,0.021070700022391975,42.34941580001032,42.34941580001032,42.34941580001032,None,,y,0.17887669993797317,,,,,,,,,,,,,,,,416757,001,2023-06-06_12h21.27.425,Pilot_online_tryings,2022.2.5,60.0137071372718,
ConjL4_syn.csv,directory_online_conj_L4_syn.csv,Test_Conj_SyncL4.csv,ConjL4_sync_norm.wav,bu,72:76,orange,Online_conjL4_syn//cBU9.none.wav,none,0,0,0,3,0,6,6,14,0,1,1,1,,,,,,,,,,,,,,,,,,,,,,,,,,,,,,,,,,,,,,,,,,,,,,,,,,,,,,,,,,,,,,0.014419499959331006,42.55833910004003,42.55833910004003,42.55833910004003,None,,y,0.19463249994441867,,,,,,,,,,,,,,,,416757,001,2023-06-06_12h21.27.425,Pilot_online_tryings,2022.2.5,60.0137071372718,
ConjL4_syn.csv,directory_online_conj_L4_syn.csv,Test_Conj_SyncL4.csv,ConjL4_sync_norm.wav,bu,72:76,orange,Online_conjL4_syn//cBU8.1110.wav,1110.0,0,0,0,3,0,6,6,14,0,2,2,0,,,,,,,,,,,,,,,,,,,,,,,,,,,,,,,,,,,,,,,,,,,,,,,,,,,,,,,,,,,,,,0.00991029996657744,42.77109430002747,42.77109430002747,42.77109430002747,None,,y,0.19003689993405715,,,,,,,,,,,,,,,,416757,001,2023-06-06_12h21.27.425,Pilot_online_tryings,2022.2.5,60.0137071372718,
ConjL4_syn.csv,directory_online_conj_L4_syn.csv,Test_Conj_SyncL4.csv,ConjL4_sync_norm.wav,bu,72:76,orange,Online_conjL4_syn//cBU11.none.wav,none,0,0,0,3,0,6,6,14,0,3,3,3,,,,,,,,,,,,,,,,,,,,,,,,,,,,,,,,,,,,,,,,,,,,,,,,,,,,,,,,,,,,,,0.009628599975258112,42.98810650000814,42.98810650000814,42.98810650000814,None,,y,0.1975746999378316,,,,,,,,,,,,,,,,416757,001,2023-06-06_12h21.27.425,Pilot_online_tryings,2022.2.5,60.0137071372718,
ConjL4_syn.csv,directory_online_conj_L4_syn.csv,Test_Conj_SyncL4.csv,ConjL4_sync_norm.wav,bu,72:76,orange,,,0,0,0,3,0,6,6,14,,,,,,,,,,,,,,,,,,,,,,,,,,,,,,,,,,,,,,,,,,,,,,,,,,,,,,,,,,,,,,,,,,,,,,,,,,,,,,,,,,,,,,,,,416757,001,2023-06-06_12h21.27.425,Pilot_online_tryings,2022.2.5,60.0137071372718,
ConjL4_syn.csv,directory_online_conj_L4_syn.csv,Test_Conj_SyncL4.csv,ConjL4_sync_norm.wav,lo,24:28,blue,Online_conjL4_syn//aLO26.none.wav,none,0,0,0,3,0,7,7,26,0,0,0,2,,,,,,,,,,,,,,,,,,,,,,,,,,,,,,,,,,,,,,,,,,,,,,,,,,,,,,,,,,,,43.2200589000131,43.2200589000131,0.020241999998688698,43.2200589000131,43.2200589000131,43.2200589000131,None,,y,0.1740509999799542,,,,,,,,,,,,,,,,416757,001,2023-06-06_12h21.27.425,Pilot_online_tryings,2022.2.5,60.0137071372718,
ConjL4_syn.csv,directory_online_conj_L4_syn.csv,Test_Conj_SyncL4.csv,ConjL4_sync_norm.wav,lo,24:28,blue,Online_conjL4_syn//aLO24.none.wav,none,0,0,0,3,0,7,7,26,0,1,1,0,,,,,,,,,,,,,,,,,,,,,,,,,,,,,,,,,,,,,,,,,,,,,,,,,,,,,,,,,,,,,,0.011197399988304824,43.42289800004801,43.42289800004801,43.42289800004801,None,,y,0.19443199993111193,,,,,,,,,,,,,,,,416757,001,2023-06-06_12h21.27.425,Pilot_online_tryings,2022.2.5,60.0137071372718,
ConjL4_syn.csv,directory_online_conj_L4_syn.csv,Test_Conj_SyncL4.csv,ConjL4_sync_norm.wav,lo,24:28,blue,Online_conjL4_syn//aLO25.666.wav,666.0,0,0,0,3,0,7,7,26,0,2,2,1,,,,,,,,,,,,,,,,,,,,,,,,,,,,,,,,,,,,,,,,,,,,,,,,,,,,,,,,,,,,,,0.007837199955247343,43.63889990001917,43.63889990001917,43.63889990001917,None,,y,0.1694294999470003,,,,,,,,,,,,,,,,416757,001,2023-06-06_12h21.27.425,Pilot_online_tryings,2022.2.5,60.0137071372718,
ConjL4_syn.csv,directory_online_conj_L4_syn.csv,Test_Conj_SyncL4.csv,ConjL4_sync_norm.wav,lo,24:28,blue,Online_conjL4_syn//aLO27.1554.wav,1554.0,0,0,0,3,0,7,7,26,0,3,3,3,,,,,,,,,,,,,,,,,,,,,,,,,,,,,,,,,,,,,,,,,,,,,,,,,,,,,,,,,,,,,,0.014886400022078305,43.843654400028754,43.843654400028754,43.843654400028754,None,,y,0.18889189994661137,,,,,,,,,,,,,,,,416757,001,2023-06-06_12h21.27.425,Pilot_online_tryings,2022.2.5,60.0137071372718,
ConjL4_syn.csv,directory_online_conj_L4_syn.csv,Test_Conj_SyncL4.csv,ConjL4_sync_norm.wav,lo,24:28,blue,,,0,0,0,3,0,7,7,26,,,,,,,,,,,,,,,,,,,,,,,,,,,,,,,,,,,,,,,,,,,,,,,,,,,,,,,,,,,,,,,,,,,,,,,,,,,,,,,,,,,,,,,,,416757,001,2023-06-06_12h21.27.425,Pilot_online_tryings,2022.2.5,60.0137071372718,
ConjL4_syn.csv,directory_online_conj_L4_syn.csv,Test_Conj_SyncL4.csv,ConjL4_sync_norm.wav,bu,88:92,orange,Online_conjL4_syn//cBU26.222.wav,222.0,0,0,0,3,0,8,8,8,0,0,0,2,,,,,,,,,,,,,,,,,,,,,,,,,,,,,,,,,,,,,,,,,,,,,,,,,,,,,,,,,,,,44.086045200005174,44.086045200005174,0.0330134000396356,44.086045200005174,44.086045200005174,44.086045200005174,None,,y,0.13825719995656982,,,,,,,,,,,,,,,,416757,001,2023-06-06_12h21.27.425,Pilot_online_tryings,2022.2.5,60.0137071372718,
ConjL4_syn.csv,directory_online_conj_L4_syn.csv,Test_Conj_SyncL4.csv,ConjL4_sync_norm.wav,bu,88:92,orange,Online_conjL4_syn//cBU24.444.wav,444.0,0,0,0,3,0,8,8,8,0,1,1,0,,,,,,,,,,,,,,,,,,,,,,,,,,,,,,,,,,,,,,,,,,,,,,,,,,,,,,,,,,,,,,0.007315399998333305,44.255846700049005,44.255846700049005,44.255846700049005,None,,y,0.17774769995594397,,,,,,,,,,,,,,,,416757,001,2023-06-06_12h21.27.425,Pilot_online_tryings,2022.2.5,60.0137071372718,
ConjL4_syn.csv,directory_online_conj_L4_syn.csv,Test_Conj_SyncL4.csv,ConjL4_sync_norm.wav,bu,88:92,orange,Online_conjL4_syn//cBU27.none.wav,none,0,0,0,3,0,8,8,8,0,2,2,3,,,,,,,,,,,,,,,,,,,,,,,,,,,,,,,,,,,,,,,,,,,,,,,,,,,,,,,,,,,,,,0.011229499999899417,44.4579813000164,44.4579813000164,44.4579813000164,None,,y,0.15047629992477596,,,,,,,,,,,,,,,,416757,001,2023-06-06_12h21.27.425,Pilot_online_tryings,2022.2.5,60.0137071372718,
ConjL4_syn.csv,directory_online_conj_L4_syn.csv,Test_Conj_SyncL4.csv,ConjL4_sync_norm.wav,bu,88:92,orange,Online_conjL4_syn//cBU25.none.wav,none,0,0,0,3,0,8,8,8,0,3,3,1,,,,,,,,,,,,,,,,,,,,,,,,,,,,,,,,,,,,,,,,,,,,,,,,,,,,,,,,,,,,,,0.005900899996049702,44.639916500018444,44.639916500018444,44.639916500018444,None,,y,0.22580719995312393,,,,,,,,,,,,,,,,416757,001,2023-06-06_12h21.27.425,Pilot_online_tryings,2022.2.5,60.0137071372718,
ConjL4_syn.csv,directory_online_conj_L4_syn.csv,Test_Conj_SyncL4.csv,ConjL4_sync_norm.wav,bu,88:92,orange,,,0,0,0,3,0,8,8,8,,,,,,,,,,,,,,,,,,,,,,,,,,,,,,,,,,,,,,,,,,,,,,,,,,,,,,,,,,,,,,,,,,,,,,,,,,,,,,,,,,,,,,,,,416757,001,2023-06-06_12h21.27.425,Pilot_online_tryings,2022.2.5,60.0137071372718,
ConjL4_syn.csv,directory_online_conj_L4_syn.csv,Test_Conj_SyncL4.csv,ConjL4_sync_norm.wav,bu,64:68,orange,Online_conjL4_syn//cBU0.444.wav,444.0,0,0,0,3,0,9,9,23,0,0,0,0,,,,,,,,,,,,,,,,,,,,,,,,,,,,,,,,,,,,,,,,,,,,,,,,,,,,,,,,,,,,44.90631820005365,44.90631820005365,0.02588680002372712,44.90631820005365,44.90631820005365,44.90631820005365,None,,y,0.13517649995628744,,,,,,,,,,,,,,,,416757,001,2023-06-06_12h21.27.425,Pilot_online_tryings,2022.2.5,60.0137071372718,
ConjL4_syn.csv,directory_online_conj_L4_syn.csv,Test_Conj_SyncL4.csv,ConjL4_sync_norm.wav,bu,64:68,orange,Online_conjL4_syn//cBU1.444.wav,444.0,0,0,0,3,0,9,9,23,0,1,1,1,,,,,,,,,,,,,,,,,,,,,,,,,,,,,,,,,,,,,,,,,,,,,,,,,,,,,,,,,,,,,,0.013290399976540357,45.075405000010505,45.075405000010505,45.075405000010505,None,,y,0.17450619995361194,,,,,,,,,,,,,,,,416757,001,2023-06-06_12h21.27.425,Pilot_online_tryings,2022.2.5,60.0137071372718,
ConjL4_syn.csv,directory_online_conj_L4_syn.csv,Test_Conj_SyncL4.csv,ConjL4_sync_norm.wav,bu,64:68,orange,Online_conjL4_syn//cBU2.1332.wav,1332.0,0,0,0,3,0,9,9,23,0,2,2,2,,,,,,,,,,,,,,,,,,,,,,,,,,,,,,,,,,,,,,,,,,,,,,,,,,,,,,,,,,,,,,0.01792770001338795,45.28251160000218,45.28251160000218,45.28251160000218,None,,y,0.1739836999331601,,,,,,,,,,,,,,,,416757,001,2023-06-06_12h21.27.425,Pilot_online_tryings,2022.2.5,60.0137071372718,
ConjL4_syn.csv,directory_online_conj_L4_syn.csv,Test_Conj_SyncL4.csv,ConjL4_sync_norm.wav,bu,64:68,orange,Online_conjL4_syn//cBU3.444.wav,444.0,0,0,0,3,0,9,9,23,0,3,3,3,,,,,,,,,,,,,,,,,,,,,,,,,,,,,,,,,,,,,,,,,,,,,,,,,,,,,,,,,,,,,,0.015954699949361384,45.479512500052806,45.479512500052806,45.479512500052806,None,,y,0.18651819991646335,,,,,,,,,,,,,,,,416757,001,2023-06-06_12h21.27.425,Pilot_online_tryings,2022.2.5,60.0137071372718,
ConjL4_syn.csv,directory_online_conj_L4_syn.csv,Test_Conj_SyncL4.csv,ConjL4_sync_norm.wav,bu,64:68,orange,,,0,0,0,3,0,9,9,23,,,,,,,,,,,,,,,,,,,,,,,,,,,,,,,,,,,,,,,,,,,,,,,,,,,,,,,,,,,,,,,,,,,,,,,,,,,,,,,,,,,,,,,,,416757,001,2023-06-06_12h21.27.425,Pilot_online_tryings,2022.2.5,60.0137071372718,
ConjL4_syn.csv,directory_online_conj_L4_syn.csv,Test_Conj_SyncL4.csv,ConjL4_sync_norm.wav,lo,28:32,blue,Online_conjL4_syn//aLO29.1554.wav,1554.0,0,0,0,3,0,10,10,6,0,0,0,1,,,,,,,,,,,,,,,,,,,,,,,,,,,,,,,,,,,,,,,,,,,,,,,,,,,,,,,,,,,,45.70281550002983,45.70281550002983,0.017694299982395023,45.70281550002983,45.70281550002983,45.70281550002983,None,,y,0.1866667999420315,,,,,,,,,,,,,,,,416757,001,2023-06-06_12h21.27.425,Pilot_online_tryings,2022.2.5,60.0137071372718,
ConjL4_syn.csv,directory_online_conj_L4_syn.csv,Test_Conj_SyncL4.csv,ConjL4_sync_norm.wav,lo,28:32,blue,Online_conjL4_syn//aLO30.666.wav,666.0,0,0,0,3,0,10,10,6,0,1,1,2,,,,,,,,,,,,,,,,,,,,,,,,,,,,,,,,,,,,,,,,,,,,,,,,,,,,,,,,,,,,,,0.00813259999267757,45.907492400030605,45.907492400030605,45.907492400030605,None,,y,0.18919839995214716,,,,,,,,,,,,,,,,416757,001,2023-06-06_12h21.27.425,Pilot_online_tryings,2022.2.5,60.0137071372718,
ConjL4_syn.csv,directory_online_conj_L4_syn.csv,Test_Conj_SyncL4.csv,ConjL4_sync_norm.wav,lo,28:32,blue,Online_conjL4_syn//aLO28.1554.wav,1554.0,0,0,0,3,0,10,10,6,0,2,2,0,,,,,,,,,,,,,,,,,,,,,,,,,,,,,,,,,,,,,,,,,,,,,,,,,,,,,,,,,,,,,,0.007558100041933358,46.12457980000181,46.12457980000181,46.12457980000181,None,,y,0.17958939995151013,,,,,,,,,,,,,,,,416757,001,2023-06-06_12h21.27.425,Pilot_online_tryings,2022.2.5,60.0137071372718,
ConjL4_syn.csv,directory_online_conj_L4_syn.csv,Test_Conj_SyncL4.csv,ConjL4_sync_norm.wav,lo,28:32,blue,Online_conjL4_syn//aLO31.none.wav,none,0,0,0,3,0,10,10,6,0,3,3,3,,,,,,,,,,,,,,,,,,,,,,,,,,,,,,,,,,,,,,,,,,,,,,,,,,,,,,,,,,,,,,0.009219200001098216,46.32619160000468,46.32619160000468,46.32619160000468,None,,y,0.18640409992076457,,,,,,,,,,,,,,,,416757,001,2023-06-06_12h21.27.425,Pilot_online_tryings,2022.2.5,60.0137071372718,
ConjL4_syn.csv,directory_online_conj_L4_syn.csv,Test_Conj_SyncL4.csv,ConjL4_sync_norm.wav,lo,28:32,blue,,,0,0,0,3,0,10,10,6,,,,,,,,,,,,,,,,,,,,,,,,,,,,,,,,,,,,,,,,,,,,,,,,,,,,,,,,,,,,,,,,,,,,,,,,,,,,,,,,,,,,,,,,,416757,001,2023-06-06_12h21.27.425,Pilot_online_tryings,2022.2.5,60.0137071372718,
ConjL4_syn.csv,directory_online_conj_L4_syn.csv,Test_Conj_SyncL4.csv,ConjL4_sync_norm.wav,lo,0:4,blue,Online_conjL4_syn//aLO3.none.wav,none,0,0,0,3,0,11,11,13,0,0,0,3,,,,,,,,,,,,,,,,,,,,,,,,,,,,,,,,,,,,,,,,,,,,,,,,,,,,,,,,,,,,46.5639067000011,46.5639067000011,0.0283832999994047,46.5639067000011,46.5639067000011,46.5639067000011,None,,y,0.17282829992473125,,,,,,,,,,,,,,,,416757,001,2023-06-06_12h21.27.425,Pilot_online_tryings,2022.2.5,60.0137071372718,
ConjL4_syn.csv,directory_online_conj_L4_syn.csv,Test_Conj_SyncL4.csv,ConjL4_sync_norm.wav,lo,0:4,blue,Online_conjL4_syn//aLO1.1554.wav,1554.0,0,0,0,3,0,11,11,13,0,1,1,1,,,,,,,,,,,,,,,,,,,,,,,,,,,,,,,,,,,,,,,,,,,,,,,,,,,,,,,,,,,,,,0.03016829997068271,46.785541900026146,46.785541900026146,46.785541900026146,None,,y,0.15950249996967614,,,,,,,,,,,,,,,,416757,001,2023-06-06_12h21.27.425,Pilot_online_tryings,2022.2.5,60.0137071372718,
ConjL4_syn.csv,directory_online_conj_L4_syn.csv,Test_Conj_SyncL4.csv,ConjL4_sync_norm.wav,lo,0:4,blue,Online_conjL4_syn//aLO0.none.wav,none,0,0,0,3,0,11,11,13,0,2,2,0,,,,,,,,,,,,,,,,,,,,,,,,,,,,,,,,,,,,,,,,,,,,,,,,,,,,,,,,,,,,,,0.01658799999859184,46.98745080002118,46.98745080002118,46.98745080002118,None,,y,0.18084809998981655,,,,,,,,,,,,,,,,416757,001,2023-06-06_12h21.27.425,Pilot_online_tryings,2022.2.5,60.0137071372718,
ConjL4_syn.csv,directory_online_conj_L4_syn.csv,Test_Conj_SyncL4.csv,ConjL4_sync_norm.wav,lo,0:4,blue,Online_conjL4_syn//aLO2.none.wav,none,0,0,0,3,0,11,11,13,0,3,3,2,,,,,,,,,,,,,,,,,,,,,,,,,,,,,,,,,,,,,,,,,,,,,,,,,,,,,,,,,,,,,,0.013429499987978488,47.19535800005542,47.19535800005542,47.19535800005542,None,,y,0.19818499992834404,,,,,,,,,,,,,,,,416757,001,2023-06-06_12h21.27.425,Pilot_online_tryings,2022.2.5,60.0137071372718,
ConjL4_syn.csv,directory_online_conj_L4_syn.csv,Test_Conj_SyncL4.csv,ConjL4_sync_norm.wav,lo,0:4,blue,,,0,0,0,3,0,11,11,13,,,,,,,,,,,,,,,,,,,,,,,,,,,,,,,,,,,,,,,,,,,,,,,,,,,,,,,,,,,,,,,,,,,,,,,,,,,,,,,,,,,,,,,,,416757,001,2023-06-06_12h21.27.425,Pilot_online_tryings,2022.2.5,60.0137071372718,
ConjL4_syn.csv,directory_online_conj_L4_syn.csv,Test_Conj_SyncL4.csv,ConjL4_sync_norm.wav,pe,108:112,red,Online_conjL4_syn//dPE14.222.wav,222.0,0,0,0,3,0,12,12,0,0,0,0,2,,,,,,,,,,,,,,,,,,,,,,,,,,,,,,,,,,,,,,,,,,,,,,,,,,,,,,,,,,,,47.44492590002483,47.44492590002483,0.024915000016335398,47.44492590002483,47.44492590002483,47.44492590002483,None,,y,0.187517499900423,,,,,,,,,,,,,,,,416757,001,2023-06-06_12h21.27.425,Pilot_online_tryings,2022.2.5,60.0137071372718,
ConjL4_syn.csv,directory_online_conj_L4_syn.csv,Test_Conj_SyncL4.csv,ConjL4_sync_norm.wav,pe,108:112,red,Online_conjL4_syn//dPE12.none.wav,none,0,0,0,3,0,12,12,0,0,1,1,0,,,,,,,,,,,,,,,,,,,,,,,,,,,,,,,,,,,,,,,,,,,,,,,,,,,,,,,,,,,,,,0.015315800032112747,47.66449630004354,47.66449630004354,47.66449630004354,None,,y,0.19209929992211983,,,,,,,,,,,,,,,,416757,001,2023-06-06_12h21.27.425,Pilot_online_tryings,2022.2.5,60.0137071372718,
ConjL4_syn.csv,directory_online_conj_L4_syn.csv,Test_Conj_SyncL4.csv,ConjL4_sync_norm.wav,pe,108:112,red,Online_conjL4_syn//dPE15.none.wav,none,0,0,0,3,0,12,12,0,0,2,2,3,,,,,,,,,,,,,,,,,,,,,,,,,,,,,,,,,,,,,,,,,,,,,,,,,,,,,,,,,,,,,,0.006141800025943667,47.876147100003436,47.876147100003436,47.876147100003436,None,,y,0.2052828999585472,,,,,,,,,,,,,,,,416757,001,2023-06-06_12h21.27.425,Pilot_online_tryings,2022.2.5,60.0137071372718,
ConjL4_syn.csv,directory_online_conj_L4_syn.csv,Test_Conj_SyncL4.csv,ConjL4_sync_norm.wav,pe,108:112,red,Online_conjL4_syn//dPE13.none.wav,none,0,0,0,3,0,12,12,0,0,3,3,1,,,,,,,,,,,,,,,,,,,,,,,,,,,,,,,,,,,,,,,,,,,,,,,,,,,,,,,,,,,,,,0.020862000004854053,48.120915900042746,48.120915900042746,48.120915900042746,None,,y,0.18495769996661693,,,,,,,,,,,,,,,,416757,001,2023-06-06_12h21.27.425,Pilot_online_tryings,2022.2.5,60.0137071372718,
ConjL4_syn.csv,directory_online_conj_L4_syn.csv,Test_Conj_SyncL4.csv,ConjL4_sync_norm.wav,pe,108:112,red,,,0,0,0,3,0,12,12,0,,,,,,,,,,,,,,,,,,,,,,,,,,,,,,,,,,,,,,,,,,,,,,,,,,,,,,,,,,,,,,,,,,,,,,,,,,,,,,,,,,,,,,,,,416757,001,2023-06-06_12h21.27.425,Pilot_online_tryings,2022.2.5,60.0137071372718,
ConjL4_syn.csv,directory_online_conj_L4_syn.csv,Test_Conj_SyncL4.csv,ConjL4_sync_norm.wav,lo,16:20,blue,Online_conjL4_syn//aLO18.none.wav,none,0,0,0,3,0,13,13,17,0,0,0,2,,,,,,,,,,,,,,,,,,,,,,,,,,,,,,,,,,,,,,,,,,,,,,,,,,,,,,,,,,,,48.3394404000137,48.3394404000137,0.018048199999611825,48.3394404000137,48.3394404000137,48.3394404000137,None,,y,0.17340869997860864,,,,,,,,,,,,,,,,416757,001,2023-06-06_12h21.27.425,Pilot_online_tryings,2022.2.5,60.0137071372718,
ConjL4_syn.csv,directory_online_conj_L4_syn.csv,Test_Conj_SyncL4.csv,ConjL4_sync_norm.wav,lo,16:20,blue,Online_conjL4_syn//aLO16.1554.wav,1554.0,0,0,0,3,0,13,13,17,0,1,1,0,,,,,,,,,,,,,,,,,,,,,,,,,,,,,,,,,,,,,,,,,,,,,,,,,,,,,,,,,,,,,,0.021785199991427362,48.555175900051836,48.555175900051836,48.555175900051836,None,,y,0.18232189991977066,,,,,,,,,,,,,,,,416757,001,2023-06-06_12h21.27.425,Pilot_online_tryings,2022.2.5,60.0137071372718,
ConjL4_syn.csv,directory_online_conj_L4_syn.csv,Test_Conj_SyncL4.csv,ConjL4_sync_norm.wav,lo,16:20,blue,Online_conjL4_syn//aLO17.666.wav,666.0,0,0,0,3,0,13,13,17,0,2,2,1,,,,,,,,,,,,,,,,,,,,,,,,,,,,,,,,,,,,,,,,,,,,,,,,,,,,,,,,,,,,,,0.007728600001428276,48.76052160002291,48.76052160002291,48.76052160002291,None,,y,0.16816549992654473,,,,,,,,,,,,,,,,416757,001,2023-06-06_12h21.27.425,Pilot_online_tryings,2022.2.5,60.0137071372718,
ConjL4_syn.csv,directory_online_conj_L4_syn.csv,Test_Conj_SyncL4.csv,ConjL4_sync_norm.wav,lo,16:20,blue,Online_conjL4_syn//aLO19.none.wav,none,0,0,0,3,0,13,13,17,0,3,3,3,,,,,,,,,,,,,,,,,,,,,,,,,,,,,,,,,,,,,,,,,,,,,,,,,,,,,,,,,,,,,,0.011094900022726506,48.96076880005421,48.96076880005421,48.96076880005421,None,,y,0.1916057999478653,,,,,,,,,,,,,,,,416757,001,2023-06-06_12h21.27.425,Pilot_online_tryings,2022.2.5,60.0137071372718,
ConjL4_syn.csv,directory_online_conj_L4_syn.csv,Test_Conj_SyncL4.csv,ConjL4_sync_norm.wav,lo,16:20,blue,,,0,0,0,3,0,13,13,17,,,,,,,,,,,,,,,,,,,,,,,,,,,,,,,,,,,,,,,,,,,,,,,,,,,,,,,,,,,,,,,,,,,,,,,,,,,,,,,,,,,,,,,,,416757,001,2023-06-06_12h21.27.425,Pilot_online_tryings,2022.2.5,60.0137071372718,
ConjL4_syn.csv,directory_online_conj_L4_syn.csv,Test_Conj_SyncL4.csv,ConjL4_sync_norm.wav,pe,120:124,red,Online_conjL4_syn//dPE24.none.wav,none,0,0,0,3,0,14,14,24,0,0,0,0,,,,,,,,,,,,,,,,,,,,,,,,,,,,,,,,,,,,,,,,,,,,,,,,,,,,,,,,,,,,49.21765620005317,49.21765620005317,0.04287720000138506,49.21765620005317,49.21765620005317,49.21765620005317,None,,y,0.12723509990610182,,,,,,,,,,,,,,,,416757,001,2023-06-06_12h21.27.425,Pilot_online_tryings,2022.2.5,60.0137071372718,
ConjL4_syn.csv,directory_online_conj_L4_syn.csv,Test_Conj_SyncL4.csv,ConjL4_sync_norm.wav,pe,120:124,red,Online_conjL4_syn//dPE26.none.wav,none,0,0,0,3,0,14,14,24,0,1,1,2,,,,,,,,,,,,,,,,,,,,,,,,,,,,,,,,,,,,,,,,,,,,,,,,,,,,,,,,,,,,,,0.0077883999911136925,49.36101150000468,49.36101150000468,49.36101150000468,None,,y,0.22437449998687953,,,,,,,,,,,,,,,,416757,001,2023-06-06_12h21.27.425,Pilot_online_tryings,2022.2.5,60.0137071372718,
ConjL4_syn.csv,directory_online_conj_L4_syn.csv,Test_Conj_SyncL4.csv,ConjL4_sync_norm.wav,pe,120:124,red,Online_conjL4_syn//dPE25.222.wav,222.0,0,0,0,3,0,14,14,24,0,2,2,1,,,,,,,,,,,,,,,,,,,,,,,,,,,,,,,,,,,,,,,,,,,,,,,,,,,,,,,,,,,,,,0.0077812999952584505,49.61128480004845,49.61128480004845,49.61128480004845,None,,y,0.2145810999791138,,,,,,,,,,,,,,,,416757,001,2023-06-06_12h21.27.425,Pilot_online_tryings,2022.2.5,60.0137071372718,
ConjL4_syn.csv,directory_online_conj_L4_syn.csv,Test_Conj_SyncL4.csv,ConjL4_sync_norm.wav,pe,120:124,red,Online_conjL4_syn//dPE27.1332.wav,1332.0,0,0,0,3,0,14,14,24,0,3,3,3,,,,,,,,,,,,,,,,,,,,,,,,,,,,,,,,,,,,,,,,,,,,,,,,,,,,,,,,,,,,,,0.013101199991069734,49.848148500022944,49.848148500022944,49.848148500022944,None,,y,0.18423329992219806,,,,,,,,,,,,,,,,416757,001,2023-06-06_12h21.27.425,Pilot_online_tryings,2022.2.5,60.0137071372718,
ConjL4_syn.csv,directory_online_conj_L4_syn.csv,Test_Conj_SyncL4.csv,ConjL4_sync_norm.wav,pe,120:124,red,,,0,0,0,3,0,14,14,24,,,,,,,,,,,,,,,,,,,,,,,,,,,,,,,,,,,,,,,,,,,,,,,,,,,,,,,,,,,,,,,,,,,,,,,,,,,,,,,,,,,,,,,,,416757,001,2023-06-06_12h21.27.425,Pilot_online_tryings,2022.2.5,60.0137071372718,
ConjL4_syn.csv,directory_online_conj_L4_syn.csv,Test_Conj_SyncL4.csv,ConjL4_sync_norm.wav,pe,104:108,red,Online_conjL4_syn//dPE10.1110.wav,1110.0,0,0,0,3,0,15,15,27,0,0,0,2,,,,,,,,,,,,,,,,,,,,,,,,,,,,,,,,,,,,,,,,,,,,,,,,,,,,,,,,,,,,50.07821740000509,50.07821740000509,0.025940399966202676,50.07821740000509,50.07821740000509,50.07821740000509,None,,y,0.17901669989805669,,,,,,,,,,,,,,,,416757,001,2023-06-06_12h21.27.425,Pilot_online_tryings,2022.2.5,60.0137071372718,
ConjL4_syn.csv,directory_online_conj_L4_syn.csv,Test_Conj_SyncL4.csv,ConjL4_sync_norm.wav,pe,104:108,red,Online_conjL4_syn//dPE11.1110.wav,1110.0,0,0,0,3,0,15,15,27,0,1,1,3,,,,,,,,,,,,,,,,,,,,,,,,,,,,,,,,,,,,,,,,,,,,,,,,,,,,,,,,,,,,,,0.00695760000962764,50.27853230002802,50.27853230002802,50.27853230002802,None,,y,0.2015767999109812,,,,,,,,,,,,,,,,416757,001,2023-06-06_12h21.27.425,Pilot_online_tryings,2022.2.5,60.0137071372718,
ConjL4_syn.csv,directory_online_conj_L4_syn.csv,Test_Conj_SyncL4.csv,ConjL4_sync_norm.wav,pe,104:108,red,Online_conjL4_syn//dPE9.444.wav,444.0,0,0,0,3,0,15,15,27,0,2,2,1,,,,,,,,,,,,,,,,,,,,,,,,,,,,,,,,,,,,,,,,,,,,,,,,,,,,,,,,,,,,,,0.023913800017908216,50.526837500045076,50.526837500045076,50.526837500045076,None,,y,0.17891419993247837,,,,,,,,,,,,,,,,416757,001,2023-06-06_12h21.27.425,Pilot_online_tryings,2022.2.5,60.0137071372718,
ConjL4_syn.csv,directory_online_conj_L4_syn.csv,Test_Conj_SyncL4.csv,ConjL4_sync_norm.wav,pe,104:108,red,Online_conjL4_syn//dPE8.1332.wav,1332.0,0,0,0,3,0,15,15,27,0,3,3,0,,,,,,,,,,,,,,,,,,,,,,,,,,,,,,,,,,,,,,,,,,,,,,,,,,,,,,,,,,,,,,0.010628299962263554,50.730176400044,50.730176400044,50.730176400044,None,,y,0.19902439997531474,,,,,,,,,,,,,,,,416757,001,2023-06-06_12h21.27.425,Pilot_online_tryings,2022.2.5,60.0137071372718,
ConjL4_syn.csv,directory_online_conj_L4_syn.csv,Test_Conj_SyncL4.csv,ConjL4_sync_norm.wav,pe,104:108,red,,,0,0,0,3,0,15,15,27,,,,,,,,,,,,,,,,,,,,,,,,,,,,,,,,,,,,,,,,,,,,,,,,,,,,,,,,,,,,,,,,,,,,,,,,,,,,,,,,,,,,,,,,,416757,001,2023-06-06_12h21.27.425,Pilot_online_tryings,2022.2.5,60.0137071372718,
ConjL4_syn.csv,directory_online_conj_L4_syn.csv,Test_Conj_SyncL4.csv,ConjL4_sync_norm.wav,ja,44:48,green,Online_conjL4_syn//bJA15.none.wav,none,0,0,0,3,0,16,16,19,0,0,0,3,,,,,,,,,,,,,,,,,,,,,,,,,,,,,,,,,,,,,,,,,,,,,,,,,,,,,,,,,,,,50.9754888000316,50.9754888000316,0.03479519998654723,50.9754888000316,50.9754888000316,50.9754888000316,None,,y,0.17793679994065315,,,,,,,,,,,,,,,,416757,001,2023-06-06_12h21.27.425,Pilot_online_tryings,2022.2.5,60.0137071372718,
ConjL4_syn.csv,directory_online_conj_L4_syn.csv,Test_Conj_SyncL4.csv,ConjL4_sync_norm.wav,ja,44:48,green,Online_conjL4_syn//bJA14.none.wav,none,0,0,0,3,0,16,16,19,0,1,1,2,,,,,,,,,,,,,,,,,,,,,,,,,,,,,,,,,,,,,,,,,,,,,,,,,,,,,,,,,,,,,,0.008414899988565594,51.17960800003493,51.17960800003493,51.17960800003493,None,,y,0.19751839991658926,,,,,,,,,,,,,,,,416757,001,2023-06-06_12h21.27.425,Pilot_online_tryings,2022.2.5,60.0137071372718,
ConjL4_syn.csv,directory_online_conj_L4_syn.csv,Test_Conj_SyncL4.csv,ConjL4_sync_norm.wav,ja,44:48,green,Online_conjL4_syn//bJA12.666.wav,666.0,0,0,0,3,0,16,16,19,0,2,2,0,,,,,,,,,,,,,,,,,,,,,,,,,,,,,,,,,,,,,,,,,,,,,,,,,,,,,,,,,,,,,,0.013771699974313378,51.4002768000355,51.4002768000355,51.4002768000355,None,,y,0.20081779995234683,,,,,,,,,,,,,,,,416757,001,2023-06-06_12h21.27.425,Pilot_online_tryings,2022.2.5,60.0137071372718,
ConjL4_syn.csv,directory_online_conj_L4_syn.csv,Test_Conj_SyncL4.csv,ConjL4_sync_norm.wav,ja,44:48,green,Online_conjL4_syn//bJA13.none.wav,none,0,0,0,3,0,16,16,19,0,3,3,1,,,,,,,,,,,,,,,,,,,,,,,,,,,,,,,,,,,,,,,,,,,,,,,,,,,,,,,,,,,,,,0.006801899988204241,51.63010300003225,51.63010300003225,51.63010300003225,None,,y,0.1794438999495469,,,,,,,,,,,,,,,,416757,001,2023-06-06_12h21.27.425,Pilot_online_tryings,2022.2.5,60.0137071372718,
ConjL4_syn.csv,directory_online_conj_L4_syn.csv,Test_Conj_SyncL4.csv,ConjL4_sync_norm.wav,ja,44:48,green,,,0,0,0,3,0,16,16,19,,,,,,,,,,,,,,,,,,,,,,,,,,,,,,,,,,,,,,,,,,,,,,,,,,,,,,,,,,,,,,,,,,,,,,,,,,,,,,,,,,,,,,,,,416757,001,2023-06-06_12h21.27.425,Pilot_online_tryings,2022.2.5,60.0137071372718,
ConjL4_syn.csv,directory_online_conj_L4_syn.csv,Test_Conj_SyncL4.csv,ConjL4_sync_norm.wav,pe,100:104,red,Online_conjL4_syn//dPE5.none.wav,none,0,0,0,3,0,17,17,9,0,0,0,1,,,,,,,,,,,,,,,,,,,,,,,,,,,,,,,,,,,,,,,,,,,,,,,,,,,,,,,,,,,,51.84786370000802,51.84786370000802,0.02321680000750348,51.84786370000802,51.84786370000802,51.84786370000802,None,,y,0.08979529998032376,,,,,,,,,,,,,,,,416757,001,2023-06-06_12h21.27.425,Pilot_online_tryings,2022.2.5,60.0137071372718,
ConjL4_syn.csv,directory_online_conj_L4_syn.csv,Test_Conj_SyncL4.csv,ConjL4_sync_norm.wav,pe,100:104,red,Online_conjL4_syn//dPE7.222.wav,222.0,0,0,0,3,0,17,17,9,0,1,1,3,,,,,,,,,,,,,,,,,,,,,,,,,,,,,,,,,,,,,,,,,,,,,,,,,,,,,,,,,,,,,,0.00895029999082908,51.96711340005277,51.96711340005277,51.96711340005277,None,,y,0.36991619993932545,,,,,,,,,,,,,,,,416757,001,2023-06-06_12h21.27.425,Pilot_online_tryings,2022.2.5,60.0137071372718,
ConjL4_syn.csv,directory_online_conj_L4_syn.csv,Test_Conj_SyncL4.csv,ConjL4_sync_norm.wav,pe,100:104,red,Online_conjL4_syn//dPE4.none.wav,none,0,0,0,3,0,17,17,9,0,2,2,0,,,,,,,,,,,,,,,,,,,,,,,,,,,,,,,,,,,,,,,,,,,,,,,,,,,,,,,,,,,,,,0.016071400023065507,52.37433920003241,52.37433920003241,52.37433920003241,None,,y,0.13875429990002885,,,,,,,,,,,,,,,,416757,001,2023-06-06_12h21.27.425,Pilot_online_tryings,2022.2.5,60.0137071372718,
ConjL4_syn.csv,directory_online_conj_L4_syn.csv,Test_Conj_SyncL4.csv,ConjL4_sync_norm.wav,pe,100:104,red,Online_conjL4_syn//dPE6.none.wav,none,0,0,0,3,0,17,17,9,0,3,3,2,,,,,,,,,,,,,,,,,,,,,,,,,,,,,,,,,,,,,,,,,,,,,,,,,,,,,,,,,,,,,,0.011632699985057116,52.533060600049794,52.533060600049794,52.533060600049794,None,,y,0.13937819993589073,,,,,,,,,,,,,,,,416757,001,2023-06-06_12h21.27.425,Pilot_online_tryings,2022.2.5,60.0137071372718,
ConjL4_syn.csv,directory_online_conj_L4_syn.csv,Test_Conj_SyncL4.csv,ConjL4_sync_norm.wav,pe,100:104,red,,,0,0,0,3,0,17,17,9,,,,,,,,,,,,,,,,,,,,,,,,,,,,,,,,,,,,,,,,,,,,,,,,,,,,,,,,,,,,,,,,,,,,,,,,,,,,,,,,,,,,,,,,,416757,001,2023-06-06_12h21.27.425,Pilot_online_tryings,2022.2.5,60.0137071372718,
ConjL4_syn.csv,directory_online_conj_L4_syn.csv,Test_Conj_SyncL4.csv,ConjL4_sync_norm.wav,bu,68:72,orange,Online_conjL4_syn//cBU6.none.wav,none,0,0,0,3,0,18,18,18,0,0,0,2,,,,,,,,,,,,,,,,,,,,,,,,,,,,,,,,,,,,,,,,,,,,,,,,,,,,,,,,,,,,52.720524000003934,52.720524000003934,0.028015199990477413,52.720524000003934,52.720524000003934,52.720524000003934,None,,y,0.08092659997055307,,,,,,,,,,,,,,,,416757,001,2023-06-06_12h21.27.425,Pilot_online_tryings,2022.2.5,60.0137071372718,
ConjL4_syn.csv,directory_online_conj_L4_syn.csv,Test_Conj_SyncL4.csv,ConjL4_sync_norm.wav,bu,68:72,orange,Online_conjL4_syn//cBU5.none.wav,none,0,0,0,3,0,18,18,18,0,1,1,1,,,,,,,,,,,,,,,,,,,,,,,,,,,,,,,,,,,,,,,,,,,,,,,,,,,,,,,,,,,,,,0.006236399989575148,52.83124230004614,52.83124230004614,52.83124230004614,None,,y,0.11316409992286935,,,,,,,,,,,,,,,,416757,001,2023-06-06_12h21.27.425,Pilot_online_tryings,2022.2.5,60.0137071372718,
ConjL4_syn.csv,directory_online_conj_L4_syn.csv,Test_Conj_SyncL4.csv,ConjL4_sync_norm.wav,bu,68:72,orange,Online_conjL4_syn//cBU7.none.wav,none,0,0,0,3,0,18,18,18,0,2,2,3,,,,,,,,,,,,,,,,,,,,,,,,,,,,,,,,,,,,,,,,,,,,,,,,,,,,,,,,,,,,,,0.01908469997579232,52.97379280003952,52.97379280003952,52.97379280003952,None,,y,0.10013209993485361,,,,,,,,,,,,,,,,416757,001,2023-06-06_12h21.27.425,Pilot_online_tryings,2022.2.5,60.0137071372718,
ConjL4_syn.csv,directory_online_conj_L4_syn.csv,Test_Conj_SyncL4.csv,ConjL4_sync_norm.wav,bu,68:72,orange,Online_conjL4_syn//cBU4.none.wav,none,0,0,0,3,0,18,18,18,0,3,3,0,,,,,,,,,,,,,,,,,,,,,,,,,,,,,,,,,,,,,,,,,,,,,,,,,,,,,,,,,,,,,,0.006392200011759996,53.09817310003564,53.09817310003564,53.09817310003564,None,,y,0.10221009992528707,,,,,,,,,,,,,,,,416757,001,2023-06-06_12h21.27.425,Pilot_online_tryings,2022.2.5,60.0137071372718,
ConjL4_syn.csv,directory_online_conj_L4_syn.csv,Test_Conj_SyncL4.csv,ConjL4_sync_norm.wav,bu,68:72,orange,,,0,0,0,3,0,18,18,18,,,,,,,,,,,,,,,,,,,,,,,,,,,,,,,,,,,,,,,,,,,,,,,,,,,,,,,,,,,,,,,,,,,,,,,,,,,,,,,,,,,,,,,,,416757,001,2023-06-06_12h21.27.425,Pilot_online_tryings,2022.2.5,60.0137071372718,
ConjL4_syn.csv,directory_online_conj_L4_syn.csv,Test_Conj_SyncL4.csv,ConjL4_sync_norm.wav,pe,96:100,red,Online_conjL4_syn//dPE1.none.wav,none,0,0,0,3,0,19,19,29,0,0,0,1,,,,,,,,,,,,,,,,,,,,,,,,,,,,,,,,,,,,,,,,,,,,,,,,,,,,,,,,,,,,53.25426130002597,53.25426130002597,0.028422600007615983,53.25426130002597,53.25426130002597,53.25426130002597,None,,y,0.07521199993789196,,,,,,,,,,,,,,,,416757,001,2023-06-06_12h21.27.425,Pilot_online_tryings,2022.2.5,60.0137071372718,
ConjL4_syn.csv,directory_online_conj_L4_syn.csv,Test_Conj_SyncL4.csv,ConjL4_sync_norm.wav,pe,96:100,red,Online_conjL4_syn//dPE3.none.wav,none,0,0,0,3,0,19,19,29,0,1,1,3,,,,,,,,,,,,,,,,,,,,,,,,,,,,,,,,,,,,,,,,,,,,,,,,,,,,,,,,,,,,,,0.0271610000054352,53.36882020003395,53.36882020003395,53.36882020003395,None,,y,0.08806449989788234,,,,,,,,,,,,,,,,416757,001,2023-06-06_12h21.27.425,Pilot_online_tryings,2022.2.5,60.0137071372718,
ConjL4_syn.csv,directory_online_conj_L4_syn.csv,Test_Conj_SyncL4.csv,ConjL4_sync_norm.wav,pe,96:100,red,Online_conjL4_syn//dPE2.none.wav,none,0,0,0,3,0,19,19,29,0,2,2,2,,,,,,,,,,,,,,,,,,,,,,,,,,,,,,,,,,,,,,,,,,,,,,,,,,,,,,,,,,,,,,0.02377969998633489,53.49758690001909,53.49758690001909,53.49758690001909,None,,y,0.11905039992416278,,,,,,,,,,,,,,,,416757,001,2023-06-06_12h21.27.425,Pilot_online_tryings,2022.2.5,60.0137071372718,
ConjL4_syn.csv,directory_online_conj_L4_syn.csv,Test_Conj_SyncL4.csv,ConjL4_sync_norm.wav,pe,96:100,red,Online_conjL4_syn//dPE0.1554.wav,1554.0,0,0,0,3,0,19,19,29,0,3,3,0,,,,,,,,,,,,,,,,,,,,,,,,,,,,,,,,,,,,,,,,,,,,,,,,,,,,,,,,,,,,,,0.007315900002140552,53.648797300003935,53.648797300003935,53.648797300003935,None,,y,0.11145399993984029,,,,,,,,,,,,,,,,416757,001,2023-06-06_12h21.27.425,Pilot_online_tryings,2022.2.5,60.0137071372718,
ConjL4_syn.csv,directory_online_conj_L4_syn.csv,Test_Conj_SyncL4.csv,ConjL4_sync_norm.wav,pe,96:100,red,,,0,0,0,3,0,19,19,29,,,,,,,,,,,,,,,,,,,,,,,,,,,,,,,,,,,,,,,,,,,,,,,,,,,,,,,,,,,,,,,,,,,,,,,,,,,,,,,,,,,,,,,,,416757,001,2023-06-06_12h21.27.425,Pilot_online_tryings,2022.2.5,60.0137071372718,
ConjL4_syn.csv,directory_online_conj_L4_syn.csv,Test_Conj_SyncL4.csv,ConjL4_sync_norm.wav,pe,124:128,red,Online_conjL4_syn//dPE28.none.wav,none,0,0,0,3,0,20,20,20,0,0,0,0,,,,,,,,,,,,,,,,,,,,,,,,,,,,,,,,,,,,,,,,,,,,,,,,,,,,,,,,,,,,53.80906870000763,53.80906870000763,0.03577469999436289,53.80906870000763,53.80906870000763,53.80906870000763,None,,y,0.11179789993911982,,,,,,,,,,,,,,,,416757,001,2023-06-06_12h21.27.425,Pilot_online_tryings,2022.2.5,60.0137071372718,
ConjL4_syn.csv,directory_online_conj_L4_syn.csv,Test_Conj_SyncL4.csv,ConjL4_sync_norm.wav,pe,124:128,red,Online_conjL4_syn//dPE30.222.wav,222.0,0,0,0,3,0,20,20,20,0,1,1,2,,,,,,,,,,,,,,,,,,,,,,,,,,,,,,,,,,,,,,,,,,,,,,,,,,,,,,,,,,,,,,0.028892300033476204,53.9760761000216,53.9760761000216,53.9760761000216,None,,y,0.10478689993033186,,,,,,,,,,,,,,,,416757,001,2023-06-06_12h21.27.425,Pilot_online_tryings,2022.2.5,60.0137071372718,
ConjL4_syn.csv,directory_online_conj_L4_syn.csv,Test_Conj_SyncL4.csv,ConjL4_sync_norm.wav,pe,124:128,red,Online_conjL4_syn//dPE31.1332.wav,1332.0,0,0,0,3,0,20,20,20,0,2,2,3,,,,,,,,,,,,,,,,,,,,,,,,,,,,,,,,,,,,,,,,,,,,,,,,,,,,,,,,,,,,,,0.01913520001107827,54.11577290005516,54.11577290005516,54.11577290005516,None,,y,0.10924869996961206,,,,,,,,,,,,,,,,416757,001,2023-06-06_12h21.27.425,Pilot_online_tryings,2022.2.5,60.0137071372718,
ConjL4_syn.csv,directory_online_conj_L4_syn.csv,Test_Conj_SyncL4.csv,ConjL4_sync_norm.wav,pe,124:128,red,Online_conjL4_syn//dPE29.1110.wav,1110.0,0,0,0,3,0,20,20,20,0,3,3,1,,,,,,,,,,,,,,,,,,,,,,,,,,,,,,,,,,,,,,,,,,,,,,,,,,,,,,,,,,,,,,0.01000529999146238,54.25369360001059,54.25369360001059,54.25369360001059,None,,y,0.1308510999660939,,,,,,,,,,,,,,,,416757,001,2023-06-06_12h21.27.425,Pilot_online_tryings,2022.2.5,60.0137071372718,
ConjL4_syn.csv,directory_online_conj_L4_syn.csv,Test_Conj_SyncL4.csv,ConjL4_sync_norm.wav,pe,124:128,red,,,0,0,0,3,0,20,20,20,,,,,,,,,,,,,,,,,,,,,,,,,,,,,,,,,,,,,,,,,,,,,,,,,,,,,,,,,,,,,,,,,,,,,,,,,,,,,,,,,,,,,,,,,416757,001,2023-06-06_12h21.27.425,Pilot_online_tryings,2022.2.5,60.0137071372718,
ConjL4_syn.csv,directory_online_conj_L4_syn.csv,Test_Conj_SyncL4.csv,ConjL4_sync_norm.wav,ja,48:52,green,Online_conjL4_syn//bJA18.none.wav,none,0,0,0,3,0,21,21,12,0,0,0,2,,,,,,,,,,,,,,,,,,,,,,,,,,,,,,,,,,,,,,,,,,,,,,,,,,,,,,,,,,,,54.44473490002565,54.44473490002565,0.031314700026996434,54.44473490002565,54.44473490002565,54.44473490002565,None,,y,0.10050779994344339,,,,,,,,,,,,,,,,416757,001,2023-06-06_12h21.27.425,Pilot_online_tryings,2022.2.5,60.0137071372718,
ConjL4_syn.csv,directory_online_conj_L4_syn.csv,Test_Conj_SyncL4.csv,ConjL4_sync_norm.wav,ja,48:52,green,Online_conjL4_syn//bJA17.none.wav,none,0,0,0,3,0,21,21,12,0,1,1,1,,,,,,,,,,,,,,,,,,,,,,,,,,,,,,,,,,,,,,,,,,,,,,,,,,,,,,,,,,,,,,0.008760400000028312,54.566308700013906,54.566308700013906,54.566308700013906,None,,y,0.12345509993610904,,,,,,,,,,,,,,,,416757,001,2023-06-06_12h21.27.425,Pilot_online_tryings,2022.2.5,60.0137071372718,
ConjL4_syn.csv,directory_online_conj_L4_syn.csv,Test_Conj_SyncL4.csv,ConjL4_sync_norm.wav,ja,48:52,green,Online_conjL4_syn//bJA19.666.wav,666.0,0,0,0,3,0,21,21,12,0,2,2,3,,,,,,,,,,,,,,,,,,,,,,,,,,,,,,,,,,,,,,,,,,,,,,,,,,,,,,,,,,,,,,0.01722039998276159,54.72338660003152,54.72338660003152,54.72338660003152,None,,y,0.12603569991188124,,,,,,,,,,,,,,,,416757,001,2023-06-06_12h21.27.425,Pilot_online_tryings,2022.2.5,60.0137071372718,
ConjL4_syn.csv,directory_online_conj_L4_syn.csv,Test_Conj_SyncL4.csv,ConjL4_sync_norm.wav,ja,48:52,green,Online_conjL4_syn//bJA16.none.wav,none,0,0,0,3,0,21,21,12,0,3,3,0,,,,,,,,,,,,,,,,,,,,,,,,,,,,,,,,,,,,,,,,,,,,,,,,,,,,,,,,,,,,,,0.009099100017920136,54.86660030001076,54.86660030001076,54.86660030001076,None,,y,0.14301769994199276,,,,,,,,,,,,,,,,416757,001,2023-06-06_12h21.27.425,Pilot_online_tryings,2022.2.5,60.0137071372718,
ConjL4_syn.csv,directory_online_conj_L4_syn.csv,Test_Conj_SyncL4.csv,ConjL4_sync_norm.wav,ja,48:52,green,,,0,0,0,3,0,21,21,12,,,,,,,,,,,,,,,,,,,,,,,,,,,,,,,,,,,,,,,,,,,,,,,,,,,,,,,,,,,,,,,,,,,,,,,,,,,,,,,,,,,,,,,,,416757,001,2023-06-06_12h21.27.425,Pilot_online_tryings,2022.2.5,60.0137071372718,
ConjL4_syn.csv,directory_online_conj_L4_syn.csv,Test_Conj_SyncL4.csv,ConjL4_sync_norm.wav,lo,8:12,blue,Online_conjL4_syn//aLO8.none.wav,none,0,0,0,3,0,22,22,2,0,0,0,0,,,,,,,,,,,,,,,,,,,,,,,,,,,,,,,,,,,,,,,,,,,,,,,,,,,,,,,,,,,,55.05281560000731,55.05281560000731,0.024344900040887296,55.05281560000731,55.05281560000731,55.05281560000731,None,,y,0.08537969994358718,,,,,,,,,,,,,,,,416757,001,2023-06-06_12h21.27.425,Pilot_online_tryings,2022.2.5,60.0137071372718,
ConjL4_syn.csv,directory_online_conj_L4_syn.csv,Test_Conj_SyncL4.csv,ConjL4_sync_norm.wav,lo,8:12,blue,Online_conjL4_syn//aLO11.666.wav,666.0,0,0,0,3,0,22,22,2,0,1,1,3,,,,,,,,,,,,,,,,,,,,,,,,,,,,,,,,,,,,,,,,,,,,,,,,,,,,,,,,,,,,,,0.025029500015079975,55.18213970004581,55.18213970004581,55.18213970004581,None,,y,0.09922079992247745,,,,,,,,,,,,,,,,416757,001,2023-06-06_12h21.27.425,Pilot_online_tryings,2022.2.5,60.0137071372718,
ConjL4_syn.csv,directory_online_conj_L4_syn.csv,Test_Conj_SyncL4.csv,ConjL4_sync_norm.wav,lo,8:12,blue,Online_conjL4_syn//aLO9.none.wav,none,0,0,0,3,0,22,22,2,0,2,2,1,,,,,,,,,,,,,,,,,,,,,,,,,,,,,,,,,,,,,,,,,,,,,,,,,,,,,,,,,,,,,,0.009560599981341511,55.30025970004499,55.30025970004499,55.30025970004499,None,,y,0.14081479993183166,,,,,,,,,,,,,,,,416757,001,2023-06-06_12h21.27.425,Pilot_online_tryings,2022.2.5,60.0137071372718,
ConjL4_syn.csv,directory_online_conj_L4_syn.csv,Test_Conj_SyncL4.csv,ConjL4_sync_norm.wav,lo,8:12,blue,Online_conjL4_syn//aLO10.none.wav,none,0,0,0,3,0,22,22,2,0,3,3,2,,,,,,,,,,,,,,,,,,,,,,,,,,,,,,,,,,,,,,,,,,,,,,,,,,,,,,,,,,,,,,0.01745919999666512,55.47463690000586,55.47463690000586,55.47463690000586,None,,y,0.12694529996952042,,,,,,,,,,,,,,,,416757,001,2023-06-06_12h21.27.425,Pilot_online_tryings,2022.2.5,60.0137071372718,
ConjL4_syn.csv,directory_online_conj_L4_syn.csv,Test_Conj_SyncL4.csv,ConjL4_sync_norm.wav,lo,8:12,blue,,,0,0,0,3,0,22,22,2,,,,,,,,,,,,,,,,,,,,,,,,,,,,,,,,,,,,,,,,,,,,,,,,,,,,,,,,,,,,,,,,,,,,,,,,,,,,,,,,,,,,,,,,,416757,001,2023-06-06_12h21.27.425,Pilot_online_tryings,2022.2.5,60.0137071372718,
ConjL4_syn.csv,directory_online_conj_L4_syn.csv,Test_Conj_SyncL4.csv,ConjL4_sync_norm.wav,bu,92:96,orange,Online_conjL4_syn//cBU29.none.wav,none,0,0,0,3,0,23,23,22,0,0,0,1,,,,,,,,,,,,,,,,,,,,,,,,,,,,,,,,,,,,,,,,,,,,,,,,,,,,,,,,,,,,55.6521360000479,55.6521360000479,0.021999699994921684,55.6521360000479,55.6521360000479,55.6521360000479,None,,y,0.09222739993128926,,,,,,,,,,,,,,,,416757,001,2023-06-06_12h21.27.425,Pilot_online_tryings,2022.2.5,60.0137071372718,
ConjL4_syn.csv,directory_online_conj_L4_syn.csv,Test_Conj_SyncL4.csv,ConjL4_sync_norm.wav,bu,92:96,orange,Online_conjL4_syn//cBU30.0.wav,0.0,0,0,0,3,0,23,23,22,0,1,1,2,,,,,,,,,,,,,,,,,,,,,,,,,,,,,,,,,,,,,,,,,,,,,,,,,,,,,,,,,,,,,,0.017819600005168468,55.77564320003148,55.77564320003148,55.77564320003148,None,,y,0.144813799939584,,,,,,,,,,,,,,,,416757,001,2023-06-06_12h21.27.425,Pilot_online_tryings,2022.2.5,60.0137071372718,
ConjL4_syn.csv,directory_online_conj_L4_syn.csv,Test_Conj_SyncL4.csv,ConjL4_sync_norm.wav,bu,92:96,orange,Online_conjL4_syn//cBU28.none.wav,none,0,0,0,3,0,23,23,22,0,2,2,0,,,,,,,,,,,,,,,,,,,,,,,,,,,,,,,,,,,,,,,,,,,,,,,,,,,,,,,,,,,,,,0.008613199985120445,55.95092580001801,55.95092580001801,55.95092580001801,None,,y,0.13025629991898313,,,,,,,,,,,,,,,,416757,001,2023-06-06_12h21.27.425,Pilot_online_tryings,2022.2.5,60.0137071372718,
ConjL4_syn.csv,directory_online_conj_L4_syn.csv,Test_Conj_SyncL4.csv,ConjL4_sync_norm.wav,bu,92:96,orange,Online_conjL4_syn//cBU31.444.wav,444.0,0,0,0,3,0,23,23,22,0,3,3,3,,,,,,,,,,,,,,,,,,,,,,,,,,,,,,,,,,,,,,,,,,,,,,,,,,,,,,,,,,,,,,0.008421000035014004,56.10104520001914,56.10104520001914,56.10104520001914,None,,y,0.13981539994711056,,,,,,,,,,,,,,,,416757,001,2023-06-06_12h21.27.425,Pilot_online_tryings,2022.2.5,60.0137071372718,
ConjL4_syn.csv,directory_online_conj_L4_syn.csv,Test_Conj_SyncL4.csv,ConjL4_sync_norm.wav,bu,92:96,orange,,,0,0,0,3,0,23,23,22,,,,,,,,,,,,,,,,,,,,,,,,,,,,,,,,,,,,,,,,,,,,,,,,,,,,,,,,,,,,,,,,,,,,,,,,,,,,,,,,,,,,,,,,,416757,001,2023-06-06_12h21.27.425,Pilot_online_tryings,2022.2.5,60.0137071372718,
ConjL4_syn.csv,directory_online_conj_L4_syn.csv,Test_Conj_SyncL4.csv,ConjL4_sync_norm.wav,pe,116:120,red,Online_conjL4_syn//dPE22.222.wav,222.0,0,0,0,3,0,24,24,25,0,0,0,2,,,,,,,,,,,,,,,,,,,,,,,,,,,,,,,,,,,,,,,,,,,,,,,,,,,,,,,,,,,,56.314341100049205,56.314341100049205,0.05115650000516325,56.314341100049205,56.314341100049205,56.314341100049205,None,,y,0.07179159991210327,,,,,,,,,,,,,,,,416757,001,2023-06-06_12h21.27.425,Pilot_online_tryings,2022.2.5,60.0137071372718,
ConjL4_syn.csv,directory_online_conj_L4_syn.csv,Test_Conj_SyncL4.csv,ConjL4_sync_norm.wav,pe,116:120,red,Online_conjL4_syn//dPE21.1554.wav,1554.0,0,0,0,3,0,24,24,25,0,1,1,1,,,,,,,,,,,,,,,,,,,,,,,,,,,,,,,,,,,,,,,,,,,,,,,,,,,,,,,,,,,,,,0.006132700014859438,56.41814930003602,56.41814930003602,56.41814930003602,None,,y,0.1427824999555014,,,,,,,,,,,,,,,,416757,001,2023-06-06_12h21.27.425,Pilot_online_tryings,2022.2.5,60.0137071372718,
ConjL4_syn.csv,directory_online_conj_L4_syn.csv,Test_Conj_SyncL4.csv,ConjL4_sync_norm.wav,pe,116:120,red,Online_conjL4_syn//dPE23.none.wav,none,0,0,0,3,0,24,24,25,0,2,2,3,,,,,,,,,,,,,,,,,,,,,,,,,,,,,,,,,,,,,,,,,,,,,,,,,,,,,,,,,,,,,,0.006301100016571581,56.58487010002136,56.58487010002136,56.58487010002136,None,,y,0.12070939992554486,,,,,,,,,,,,,,,,416757,001,2023-06-06_12h21.27.425,Pilot_online_tryings,2022.2.5,60.0137071372718,
ConjL4_syn.csv,directory_online_conj_L4_syn.csv,Test_Conj_SyncL4.csv,ConjL4_sync_norm.wav,pe,116:120,red,Online_conjL4_syn//dPE20.222.wav,222.0,0,0,0,3,0,24,24,25,0,3,3,0,,,,,,,,,,,,,,,,,,,,,,,,,,,,,,,,,,,,,,,,,,,,,,,,,,,,,,,,,,,,,,0.013755500025581568,56.739734400005545,56.739734400005545,56.739734400005545,None,,y,0.15754959994228557,,,,,,,,,,,,,,,,416757,001,2023-06-06_12h21.27.425,Pilot_online_tryings,2022.2.5,60.0137071372718,
ConjL4_syn.csv,directory_online_conj_L4_syn.csv,Test_Conj_SyncL4.csv,ConjL4_sync_norm.wav,pe,116:120,red,,,0,0,0,3,0,24,24,25,,,,,,,,,,,,,,,,,,,,,,,,,,,,,,,,,,,,,,,,,,,,,,,,,,,,,,,,,,,,,,,,,,,,,,,,,,,,,,,,,,,,,,,,,416757,001,2023-06-06_12h21.27.425,Pilot_online_tryings,2022.2.5,60.0137071372718,
ConjL4_syn.csv,directory_online_conj_L4_syn.csv,Test_Conj_SyncL4.csv,ConjL4_sync_norm.wav,bu,80:84,orange,Online_conjL4_syn//cBU17.1332.wav,1332.0,0,0,0,3,0,25,25,11,0,0,0,1,,,,,,,,,,,,,,,,,,,,,,,,,,,,,,,,,,,,,,,,,,,,,,,,,,,,,,,,,,,,56.94498000002932,56.94498000002932,0.030465599964372814,56.94498000002932,56.94498000002932,56.94498000002932,None,,y,0.11288929992588237,,,,,,,,,,,,,,,,416757,001,2023-06-06_12h21.27.425,Pilot_online_tryings,2022.2.5,60.0137071372718,
ConjL4_syn.csv,directory_online_conj_L4_syn.csv,Test_Conj_SyncL4.csv,ConjL4_sync_norm.wav,bu,80:84,orange,Online_conjL4_syn//cBU19.none.wav,none,0,0,0,3,0,25,25,11,0,1,1,3,,,,,,,,,,,,,,,,,,,,,,,,,,,,,,,,,,,,,,,,,,,,,,,,,,,,,,,,,,,,,,0.011649699998088181,57.087863800057676,57.087863800057676,57.087863800057676,None,,y,0.13022379990434274,,,,,,,,,,,,,,,,416757,001,2023-06-06_12h21.27.425,Pilot_online_tryings,2022.2.5,60.0137071372718,
ConjL4_syn.csv,directory_online_conj_L4_syn.csv,Test_Conj_SyncL4.csv,ConjL4_sync_norm.wav,bu,80:84,orange,Online_conjL4_syn//cBU18.none.wav,none,0,0,0,3,0,25,25,11,0,2,2,2,,,,,,,,,,,,,,,,,,,,,,,,,,,,,,,,,,,,,,,,,,,,,,,,,,,,,,,,,,,,,,0.008386100002098829,57.235480300034396,57.235480300034396,57.235480300034396,None,,y,0.15782789990771562,,,,,,,,,,,,,,,,416757,001,2023-06-06_12h21.27.425,Pilot_online_tryings,2022.2.5,60.0137071372718,
ConjL4_syn.csv,directory_online_conj_L4_syn.csv,Test_Conj_SyncL4.csv,ConjL4_sync_norm.wav,bu,80:84,orange,Online_conjL4_syn//cBU16.1110.wav,1110.0,0,0,0,3,0,25,25,11,0,3,3,0,,,,,,,,,,,,,,,,,,,,,,,,,,,,,,,,,,,,,,,,,,,,,,,,,,,,,,,,,,,,,,0.0057468999875709414,57.41922630002955,57.41922630002955,57.41922630002955,None,,y,0.13503039994975552,,,,,,,,,,,,,,,,416757,001,2023-06-06_12h21.27.425,Pilot_online_tryings,2022.2.5,60.0137071372718,
ConjL4_syn.csv,directory_online_conj_L4_syn.csv,Test_Conj_SyncL4.csv,ConjL4_sync_norm.wav,bu,80:84,orange,,,0,0,0,3,0,25,25,11,,,,,,,,,,,,,,,,,,,,,,,,,,,,,,,,,,,,,,,,,,,,,,,,,,,,,,,,,,,,,,,,,,,,,,,,,,,,,,,,,,,,,,,,,416757,001,2023-06-06_12h21.27.425,Pilot_online_tryings,2022.2.5,60.0137071372718,
ConjL4_syn.csv,directory_online_conj_L4_syn.csv,Test_Conj_SyncL4.csv,ConjL4_sync_norm.wav,pe,112:116,red,Online_conjL4_syn//dPE16.none.wav,none,0,0,0,3,0,26,26,1,0,0,0,0,,,,,,,,,,,,,,,,,,,,,,,,,,,,,,,,,,,,,,,,,,,,,,,,,,,,,,,,,,,,57.61330100003397,57.61330100003397,0.031124599976465106,57.61330100003397,57.61330100003397,57.61330100003397,None,,y,0.1007053999346681,,,,,,,,,,,,,,,,416757,001,2023-06-06_12h21.27.425,Pilot_online_tryings,2022.2.5,60.0137071372718,
ConjL4_syn.csv,directory_online_conj_L4_syn.csv,Test_Conj_SyncL4.csv,ConjL4_sync_norm.wav,pe,112:116,red,Online_conjL4_syn//dPE18.none.wav,none,0,0,0,3,0,26,26,1,0,1,1,2,,,,,,,,,,,,,,,,,,,,,,,,,,,,,,,,,,,,,,,,,,,,,,,,,,,,,,,,,,,,,,0.008756200026255101,57.73618410003837,57.73618410003837,57.73618410003837,None,,y,0.13623829995049164,,,,,,,,,,,,,,,,416757,001,2023-06-06_12h21.27.425,Pilot_online_tryings,2022.2.5,60.0137071372718,
ConjL4_syn.csv,directory_online_conj_L4_syn.csv,Test_Conj_SyncL4.csv,ConjL4_sync_norm.wav,pe,112:116,red,Online_conjL4_syn//dPE19.0.wav,0.0,0,0,0,3,0,26,26,1,0,2,2,3,,,,,,,,,,,,,,,,,,,,,,,,,,,,,,,,,,,,,,,,,,,,,,,,,,,,,,,,,,,,,,0.020594700006768107,57.913799400033895,57.913799400033895,57.913799400033895,None,,y,0.23221019993070513,,,,,,,,,,,,,,,,416757,001,2023-06-06_12h21.27.425,Pilot_online_tryings,2022.2.5,60.0137071372718,
ConjL4_syn.csv,directory_online_conj_L4_syn.csv,Test_Conj_SyncL4.csv,ConjL4_sync_norm.wav,pe,112:116,red,Online_conjL4_syn//dPE17.none.wav,none,0,0,0,3,0,26,26,1,0,3,3,1,,,,,,,,,,,,,,,,,,,,,,,,,,,,,,,,,,,,,,,,,,,,,,,,,,,,,,,,,,,,,,0.014378399995621294,58.17475650005508,58.17475650005508,58.17475650005508,None,,y,0.16261109994957224,,,,,,,,,,,,,,,,416757,001,2023-06-06_12h21.27.425,Pilot_online_tryings,2022.2.5,60.0137071372718,
ConjL4_syn.csv,directory_online_conj_L4_syn.csv,Test_Conj_SyncL4.csv,ConjL4_sync_norm.wav,pe,112:116,red,,,0,0,0,3,0,26,26,1,,,,,,,,,,,,,,,,,,,,,,,,,,,,,,,,,,,,,,,,,,,,,,,,,,,,,,,,,,,,,,,,,,,,,,,,,,,,,,,,,,,,,,,,,416757,001,2023-06-06_12h21.27.425,Pilot_online_tryings,2022.2.5,60.0137071372718,
ConjL4_syn.csv,directory_online_conj_L4_syn.csv,Test_Conj_SyncL4.csv,ConjL4_sync_norm.wav,ja,60:64,green,Online_conjL4_syn//bJA29.none.wav,none,0,0,0,3,0,27,27,7,0,0,0,1,,,,,,,,,,,,,,,,,,,,,,,,,,,,,,,,,,,,,,,,,,,,,,,,,,,,,,,,,,,,58.39670230000047,58.39670230000047,0.031032899976707995,58.39670230000047,58.39670230000047,58.39670230000047,None,,y,0.10141809994820505,,,,,,,,,,,,,,,,416757,001,2023-06-06_12h21.27.425,Pilot_online_tryings,2022.2.5,60.0137071372718,
ConjL4_syn.csv,directory_online_conj_L4_syn.csv,Test_Conj_SyncL4.csv,ConjL4_sync_norm.wav,ja,60:64,green,Online_conjL4_syn//bJA28.0.wav,0.0,0,0,0,3,0,27,27,7,0,1,1,0,,,,,,,,,,,,,,,,,,,,,,,,,,,,,,,,,,,,,,,,,,,,,,,,,,,,,,,,,,,,,,0.007822400017175823,58.52011660003336,58.52011660003336,58.52011660003336,None,,y,0.15248129999963567,,,,,,,,,,,,,,,,416757,001,2023-06-06_12h21.27.425,Pilot_online_tryings,2022.2.5,60.0137071372718,
ConjL4_syn.csv,directory_online_conj_L4_syn.csv,Test_Conj_SyncL4.csv,ConjL4_sync_norm.wav,ja,60:64,green,Online_conjL4_syn//bJA30.none.wav,none,0,0,0,3,0,27,27,7,0,2,2,2,,,,,,,,,,,,,,,,,,,,,,,,,,,,,,,,,,,,,,,,,,,,,,,,,,,,,,,,,,,,,,0.02172020002035424,58.716779300011694,58.716779300011694,58.716779300011694,None,,y,0.11717719992157072,,,,,,,,,,,,,,,,416757,001,2023-06-06_12h21.27.425,Pilot_online_tryings,2022.2.5,60.0137071372718,
ConjL4_syn.csv,directory_online_conj_L4_syn.csv,Test_Conj_SyncL4.csv,ConjL4_sync_norm.wav,ja,60:64,green,Online_conjL4_syn//bJA31.none.wav,none,0,0,0,3,0,27,27,7,0,3,3,3,,,,,,,,,,,,,,,,,,,,,,,,,,,,,,,,,,,,,,,,,,,,,,,,,,,,,,,,,,,,,,0.0376103000016883,58.8824146000552,58.8824146000552,58.8824146000552,None,,y,0.12703049991978332,,,,,,,,,,,,,,,,416757,001,2023-06-06_12h21.27.425,Pilot_online_tryings,2022.2.5,60.0137071372718,
ConjL4_syn.csv,directory_online_conj_L4_syn.csv,Test_Conj_SyncL4.csv,ConjL4_sync_norm.wav,ja,60:64,green,,,0,0,0,3,0,27,27,7,,,,,,,,,,,,,,,,,,,,,,,,,,,,,,,,,,,,,,,,,,,,,,,,,,,,,,,,,,,,,,,,,,,,,,,,,,,,,,,,,,,,,,,,,416757,001,2023-06-06_12h21.27.425,Pilot_online_tryings,2022.2.5,60.0137071372718,
ConjL4_syn.csv,directory_online_conj_L4_syn.csv,Test_Conj_SyncL4.csv,ConjL4_sync_norm.wav,lo,12:16,blue,Online_conjL4_syn//aLO12.666.wav,666.0,0,0,0,3,0,28,28,15,0,0,0,0,,,,,,,,,,,,,,,,,,,,,,,,,,,,,,,,,,,,,,,,,,,,,,,,,,,,,,,,,,,,59.0632987000281,59.0632987000281,0.028634399990551174,59.0632987000281,59.0632987000281,59.0632987000281,None,,y,0.13859879993833601,,,,,,,,,,,,,,,,416757,001,2023-06-06_12h21.27.425,Pilot_online_tryings,2022.2.5,60.0137071372718,
ConjL4_syn.csv,directory_online_conj_L4_syn.csv,Test_Conj_SyncL4.csv,ConjL4_sync_norm.wav,lo,12:16,blue,Online_conjL4_syn//aLO14.1554.wav,1554.0,0,0,0,3,0,28,28,15,0,1,1,2,,,,,,,,,,,,,,,,,,,,,,,,,,,,,,,,,,,,,,,,,,,,,,,,,,,,,,,,,,,,,,0.005521500017493963,59.22085220000008,59.22085220000008,59.22085220000008,None,,y,0.15640699997311458,,,,,,,,,,,,,,,,416757,001,2023-06-06_12h21.27.425,Pilot_online_tryings,2022.2.5,60.0137071372718,
ConjL4_syn.csv,directory_online_conj_L4_syn.csv,Test_Conj_SyncL4.csv,ConjL4_sync_norm.wav,lo,12:16,blue,Online_conjL4_syn//aLO15.none.wav,none,0,0,0,3,0,28,28,15,0,2,2,3,,,,,,,,,,,,,,,,,,,,,,,,,,,,,,,,,,,,,,,,,,,,,,,,,,,,,,,,,,,,,,0.009526000008918345,59.40481690003071,59.40481690003071,59.40481690003071,None,,y,0.16491249989485368,,,,,,,,,,,,,,,,416757,001,2023-06-06_12h21.27.425,Pilot_online_tryings,2022.2.5,60.0137071372718,
ConjL4_syn.csv,directory_online_conj_L4_syn.csv,Test_Conj_SyncL4.csv,ConjL4_sync_norm.wav,lo,12:16,blue,Online_conjL4_syn//aLO13.none.wav,none,0,0,0,3,0,28,28,15,0,3,3,1,,,,,,,,,,,,,,,,,,,,,,,,,,,,,,,,,,,,,,,,,,,,,,,,,,,,,,,,,,,,,,0.006017100007738918,59.587888600013684,59.587888600013684,59.587888600013684,None,,y,0.15695589990355074,,,,,,,,,,,,,,,,416757,001,2023-06-06_12h21.27.425,Pilot_online_tryings,2022.2.5,60.0137071372718,
ConjL4_syn.csv,directory_online_conj_L4_syn.csv,Test_Conj_SyncL4.csv,ConjL4_sync_norm.wav,lo,12:16,blue,,,0,0,0,3,0,28,28,15,,,,,,,,,,,,,,,,,,,,,,,,,,,,,,,,,,,,,,,,,,,,,,,,,,,,,,,,,,,,,,,,,,,,,,,,,,,,,,,,,,,,,,,,,416757,001,2023-06-06_12h21.27.425,Pilot_online_tryings,2022.2.5,60.0137071372718,
ConjL4_syn.csv,directory_online_conj_L4_syn.csv,Test_Conj_SyncL4.csv,ConjL4_sync_norm.wav,ja,36:40,green,Online_conjL4_syn//bJA6.666.wav,666.0,0,0,0,3,0,29,29,16,0,0,0,2,,,,,,,,,,,,,,,,,,,,,,,,,,,,,,,,,,,,,,,,,,,,,,,,,,,,,,,,,,,,59.79709470004309,59.79709470004309,0.030091999971773475,59.79709470004309,59.79709470004309,59.79709470004309,None,,y,0.0923281999421306,,,,,,,,,,,,,,,,416757,001,2023-06-06_12h21.27.425,Pilot_online_tryings,2022.2.5,60.0137071372718,
ConjL4_syn.csv,directory_online_conj_L4_syn.csv,Test_Conj_SyncL4.csv,ConjL4_sync_norm.wav,ja,36:40,green,Online_conjL4_syn//bJA4.0.wav,0.0,0,0,0,3,0,29,29,16,0,1,1,0,,,,,,,,,,,,,,,,,,,,,,,,,,,,,,,,,,,,,,,,,,,,,,,,,,,,,,,,,,,,,,0.008490799984429032,59.921641000022646,59.921641000022646,59.921641000022646,None,,y,0.15953179995995015,,,,,,,,,,,,,,,,416757,001,2023-06-06_12h21.27.425,Pilot_online_tryings,2022.2.5,60.0137071372718,
ConjL4_syn.csv,directory_online_conj_L4_syn.csv,Test_Conj_SyncL4.csv,ConjL4_sync_norm.wav,ja,36:40,green,Online_conjL4_syn//bJA7.none.wav,none,0,0,0,3,0,29,29,16,0,2,2,3,,,,,,,,,,,,,,,,,,,,,,,,,,,,,,,,,,,,,,,,,,,,,,,,,,,,,,,,,,,,,,0.009873300034087151,60.105578000016976,60.105578000016976,60.105578000016976,None,,y,0.1194145999616012,,,,,,,,,,,,,,,,416757,001,2023-06-06_12h21.27.425,Pilot_online_tryings,2022.2.5,60.0137071372718,
ConjL4_syn.csv,directory_online_conj_L4_syn.csv,Test_Conj_SyncL4.csv,ConjL4_sync_norm.wav,ja,36:40,green,Online_conjL4_syn//bJA5.none.wav,none,0,0,0,3,0,29,29,16,0,3,3,1,,,,,,,,,,,,,,,,,,,,,,,,,,,,,,,,,,,,,,,,,,,,,,,,,,,,,,,,,,,,,,0.007865599996875972,60.255241300037596,60.255241300037596,60.255241300037596,None,,y,0.1467161999316886,,,,,,,,,,,,,,,,416757,001,2023-06-06_12h21.27.425,Pilot_online_tryings,2022.2.5,60.0137071372718,
ConjL4_syn.csv,directory_online_conj_L4_syn.csv,Test_Conj_SyncL4.csv,ConjL4_sync_norm.wav,ja,36:40,green,,,0,0,0,3,0,29,29,16,,,,,,,,,,,,,,,,,,,,,,,,,,,,,,,,,,,,,,,,,,,,,,,,,,,,,,,,,,,,,,,,,,,,,,,,,,,,,,,,,,,,,,,,,416757,001,2023-06-06_12h21.27.425,Pilot_online_tryings,2022.2.5,60.0137071372718,
ConjL4_syn.csv,directory_online_conj_L4_syn.csv,Test_Conj_SyncL4.csv,ConjL4_sync_norm.wav,lo,20:24,blue,Online_conjL4_syn//aLO23.none.wav,none,0,0,0,3,0,30,30,31,0,0,0,3,,,,,,,,,,,,,,,,,,,,,,,,,,,,,,,,,,,,,,,,,,,,,,,,,,,,,,,,,,,,60.446055400010664,60.446055400010664,0.0292083999956958,60.446055400010664,60.446055400010664,60.446055400010664,None,,y,0.0995394999627024,,,,,,,,,,,,,,,,416757,001,2023-06-06_12h21.27.425,Pilot_online_tryings,2022.2.5,60.0137071372718,
ConjL4_syn.csv,directory_online_conj_L4_syn.csv,Test_Conj_SyncL4.csv,ConjL4_sync_norm.wav,lo,20:24,blue,Online_conjL4_syn//aLO21.666.wav,666.0,0,0,0,3,0,30,30,31,0,1,1,1,,,,,,,,,,,,,,,,,,,,,,,,,,,,,,,,,,,,,,,,,,,,,,,,,,,,,,,,,,,,,,0.009093199972994626,60.57263840001542,60.57263840001542,60.57263840001542,None,,y,0.1320855999365449,,,,,,,,,,,,,,,,416757,001,2023-06-06_12h21.27.425,Pilot_online_tryings,2022.2.5,60.0137071372718,
ConjL4_syn.csv,directory_online_conj_L4_syn.csv,Test_Conj_SyncL4.csv,ConjL4_sync_norm.wav,lo,20:24,blue,Online_conjL4_syn//aLO22.none.wav,none,0,0,0,3,0,30,30,31,0,2,2,2,,,,,,,,,,,,,,,,,,,,,,,,,,,,,,,,,,,,,,,,,,,,,,,,,,,,,,,,,,,,,,0.008755300019402057,60.722240400034934,60.722240400034934,60.722240400034934,None,,y,0.14340069994796067,,,,,,,,,,,,,,,,416757,001,2023-06-06_12h21.27.425,Pilot_online_tryings,2022.2.5,60.0137071372718,
ConjL4_syn.csv,directory_online_conj_L4_syn.csv,Test_Conj_SyncL4.csv,ConjL4_sync_norm.wav,lo,20:24,blue,Online_conjL4_syn//aLO20.666.wav,666.0,0,0,0,3,0,30,30,31,0,3,3,0,,,,,,,,,,,,,,,,,,,,,,,,,,,,,,,,,,,,,,,,,,,,,,,,,,,,,,,,,,,,,,0.010312900005374104,60.890264700050466,60.890264700050466,60.890264700050466,None,,y,0.29567739996127784,,,,,,,,,,,,,,,,416757,001,2023-06-06_12h21.27.425,Pilot_online_tryings,2022.2.5,60.0137071372718,
ConjL4_syn.csv,directory_online_conj_L4_syn.csv,Test_Conj_SyncL4.csv,ConjL4_sync_norm.wav,lo,20:24,blue,,,0,0,0,3,0,30,30,31,,,,,,,,,,,,,,,,,,,,,,,,,,,,,,,,,,,,,,,,,,,,,,,,,,,,,,,,,,,,,,,,,,,,,,,,,,,,,,,,,,,,,,,,,416757,001,2023-06-06_12h21.27.425,Pilot_online_tryings,2022.2.5,60.0137071372718,
ConjL4_syn.csv,directory_online_conj_L4_syn.csv,Test_Conj_SyncL4.csv,ConjL4_sync_norm.wav,ja,56:60,green,Online_conjL4_syn//bJA26.none.wav,none,0,0,0,3,0,31,31,4,0,0,0,2,,,,,,,,,,,,,,,,,,,,,,,,,,,,,,,,,,,,,,,,,,,,,,,,,,,,,,,,,,,,61.23564530001022,61.23564530001022,0.033985799993388355,61.23564530001022,61.23564530001022,61.23564530001022,None,,y,0.10966469993581995,,,,,,,,,,,,,,,,416757,001,2023-06-06_12h21.27.425,Pilot_online_tryings,2022.2.5,60.0137071372718,
ConjL4_syn.csv,directory_online_conj_L4_syn.csv,Test_Conj_SyncL4.csv,ConjL4_sync_norm.wav,ja,56:60,green,Online_conjL4_syn//bJA25.none.wav,none,0,0,0,3,0,31,31,4,0,1,1,1,,,,,,,,,,,,,,,,,,,,,,,,,,,,,,,,,,,,,,,,,,,,,,,,,,,,,,,,,,,,,,0.020863400015514344,61.38458230003016,61.38458230003016,61.38458230003016,None,,y,0.13716989994281903,,,,,,,,,,,,,,,,416757,001,2023-06-06_12h21.27.425,Pilot_online_tryings,2022.2.5,60.0137071372718,
ConjL4_syn.csv,directory_online_conj_L4_syn.csv,Test_Conj_SyncL4.csv,ConjL4_sync_norm.wav,ja,56:60,green,Online_conjL4_syn//bJA27.666.wav,666.0,0,0,0,3,0,31,31,4,0,2,2,3,,,,,,,,,,,,,,,,,,,,,,,,,,,,,,,,,,,,,,,,,,,,,,,,,,,,,,,,,,,,,,0.007381999981589615,61.539942000003066,61.539942000003066,61.539942000003066,None,,y,0.15779289993224666,,,,,,,,,,,,,,,,416757,001,2023-06-06_12h21.27.425,Pilot_online_tryings,2022.2.5,60.0137071372718,
ConjL4_syn.csv,directory_online_conj_L4_syn.csv,Test_Conj_SyncL4.csv,ConjL4_sync_norm.wav,ja,56:60,green,Online_conjL4_syn//bJA24.0.wav,0.0,0,0,0,3,0,31,31,4,0,3,3,0,,,,,,,,,,,,,,,,,,,,,,,,,,,,,,,,,,,,,,,,,,,,,,,,,,,,,,,,,,,,,,0.006447400024626404,61.72333900001831,61.72333900001831,61.72333900001831,None,,y,0.1490753999678418,,,,,,,,,,,,,,,,416757,001,2023-06-06_12h21.27.425,Pilot_online_tryings,2022.2.5,60.0137071372718,
ConjL4_syn.csv,directory_online_conj_L4_syn.csv,Test_Conj_SyncL4.csv,ConjL4_sync_norm.wav,ja,56:60,green,,,0,0,0,3,0,31,31,4,,,,,,,,,,,,,,,,,,,,,,,,,,,,,,,,,,,,,,,,,,,,,,,,,,,,,,,,,,,,,,,,,,,,,,,,,,,,,,,,,,,,,,,,,416757,001,2023-06-06_12h21.27.425,Pilot_online_tryings,2022.2.5,60.0137071372718,
,,,,,,,,,,,,,,,,,,,,,,,,,,,,,,,,,,,,,,,,,,,,,,,,,,,,,,,,,,,,,,,,,,,,,,,,,,,,,,,,,,,,,,,,,,61.892014800047036,61.892014800047036,space,0.9260603999719024,62.84299480001209,62.84299480001209,space,9.926591499941424,72.85418970003957,72.85418970003957,72.9847977200232,y,0.9874555999413133,73.8692739000544,73.8692739000544,,,,,,,
