seq,online_dir,test_dir,audio_offline,cond,ord,colour,dirs,time,test,dirs_what,trials.thisRepN,trials.thisTrialN,trials.thisN,trials.thisIndex,Conj_unsync_online.thisRepN,Conj_unsync_online.thisTrialN,Conj_unsync_online.thisN,Conj_unsync_online.thisIndex,audio1.thisRepN,audio1.thisTrialN,audio1.thisN,audio1.thisIndex,Conj_unsync_test.thisRepN,Conj_unsync_test.thisTrialN,Conj_unsync_test.thisN,Conj_unsync_test.thisIndex,text_21.started,key_resp1.started,key_resp1.keys,key_resp1.rt,text_23.started,key_resp_6.started,key_resp_6.keys,key_resp_6.rt,text_26.started,key_resp_10.started,key_resp_10.keys,key_resp_10.rt,volume_set.started,key_ressp2.started,text_27.started,key_ressp2.keys,key_ressp2.rt,text_24.started,key_resp_9.started,key_resp_9.keys,key_resp_9.rt,text_22.started,key_resp1_2.started,key_resp1_2.keys,key_resp1_2.rt,text_25.started,key_resp1_3.started,key_resp1_3.keys,key_resp1_3.rt,text_28.started,key_resp_11.started,key_resp_11.keys,key_resp_11.rt,text_29.started,key_resp_12.started,key_resp_12.keys,key_resp_12.rt,text_36.started,key_resp_18.started,key_resp_18.keys,key_resp_18.rt,learning.started,text_19.started,key_resp_7.started,key_resp_7.keys,key_resp_7.rt,text_31.started,key_resp1_4.started,key_resp1_4.keys,key_resp1_4.rt,text_2.started,text_2.stopped,seqs.started,text_13.started,syllable_catch.started,key_resp_3.started,syllable_catch.keys,key_resp_3.keys,key_resp_3.rt,text_12.started,key_resp4.started,key_resp4.keys,key_resp4.rt,text_14.started,key_resp_4.started,key_resp_4.keys,key_resp_4.rt,text_15.started,key_resp_5.started,key_resp_5.keys,key_resp_5.rt,text_17.started,key_resp_16.started,test_sounds.started,key_resp_16.keys,key_resp_16.rt,text_18.started,Partz_no_partm.started,Partz_no_partm.keys,Partz_no_partm.rt,text_32.started,image_2.started,text_33.started,security_1_7.started,security_1_7.keys,security_1_7.rt,text_30.started,key_resp_13.started,key_resp_13.keys,key_resp_13.rt,participant,session,date,expName,psychopyVersion,frameRate,
,,,,,,,,,,,,,,,,,,,,,,,,,,,26.18204159999732,26.18204159999732,space,1.8135563999967417,,,,,,,,,,,,,,,,,,,,,,,,,,,,,,,,,,,,,,,,,,,,,,,,,,,,,,,,,,,,,,,,,,,,,,,,,,,,,,,,,,,,,,,442656,001,2023-06-02_17h14.22.673,Pilot_online_tryings,2022.2.5,None,
,,,,,,,,,,,,,,,,,,,,,,,,,,,,,,,28.042474699992454,28.042474699992454,space,0.43662990001030266,,,,,,,,,,,,,,,,,,,,,,,,,,,,,,,,,,,,,,,,,,,,,,,,,,,,,,,,,,,,,,,,,,,,,,,,,,,,,,,,,,,442656,001,2023-06-02_17h14.22.673,Pilot_online_tryings,2022.2.5,None,
,,,,,,,,,,,,,,,,,,,,,,,,,,,,,,,,,,,28.54248469999584,28.54248469999584,space,0.3817927000054624,,,,,,,,,,,,,,,,,,,,,,,,,,,,,,,,,,,,,,,,,,,,,,,,,,,,,,,,,,,,,,,,,,,,,,,,,,,,,,,442656,001,2023-06-02_17h14.22.673,Pilot_online_tryings,2022.2.5,None,
,,,,,,,,,,,,,,,,,,,,,,,,,,,,,,,,,,,,,,,29.04769269999233,29.052585900004487,29.052585900004487,space,0.5022702000132995,,,,,,,,,,,,,,,,,,,,,,,,,,,,,,,,,,,,,,,,,,,,,,,,,,,,,,,,,,,,,,,,,,,,,,,,,,442656,001,2023-06-02_17h14.22.673,Pilot_online_tryings,2022.2.5,None,
,,,,,,,,,,,,,,,,,,,,,,,,,,,,,,,,,,,,,,,,,,,,29.603025399992475,29.603025399992475,space,0.4771803000039654,,,,,,,,,,,,,,,,,,,,,,,,,,,,,,,,,,,,,,,,,,,,,,,,,,,,,,,,,,,,,,,,,,,,,,442656,001,2023-06-02_17h14.22.673,Pilot_online_tryings,2022.2.5,None,
,,,,,,,,,,,,,,,,,,,,,,,,,,,,,,,,,,,,,,,,,,,,,,,,30.133282099995995,30.133282099995995,space,0.4051592000032542,,,,,,,,,,,,,,,,,,,,,,,,,,,,,,,,,,,,,,,,,,,,,,,,,,,,,,,,,,,,,,,,,,442656,001,2023-06-02_17h14.22.673,Pilot_online_tryings,2022.2.5,None,
,,,,,,,,,,,,,,,,,,,,,,,,,,,,,,,,,,,,,,,,,,,,,,,,,,,,30.57077350000327,30.57077350000327,space,0.408413199998904,,,,,,,,,,,,,,,,,,,,,,,,,,,,,,,,,,,,,,,,,,,,,,,,,,,,,,,,,,,,,,442656,001,2023-06-02_17h14.22.673,Pilot_online_tryings,2022.2.5,None,
,,,,,,,,,,,,,,,,,,,,,,,,,,,,,,,,,,,,,,,,,,,,,,,,,,,,,,,,31.04227569999057,31.04227569999057,space,0.390963500001817,,,,,,,,,,,,,,,,,,,,,,,,,,,,,,,,,,,,,,,,,,,,,,,,,,,,,,,,,,442656,001,2023-06-02_17h14.22.673,Pilot_online_tryings,2022.2.5,None,
,,,,,,,,,,,,,,,,,,,,,,,,,,,,,,,,,,,,,,,,,,,,,,,,,,,,,,,,,,,,31.480133399993065,31.480133399993065,space,0.39387529999658,,,,,,,,,,,,,,,,,,,,,,,,,,,,,,,,,,,,,,,,,,,,,,,,,,,,,,442656,001,2023-06-02_17h14.22.673,Pilot_online_tryings,2022.2.5,None,
ConjL1_uns.csv,dir_Online_conjL1_un.csv,Test_Conj_UnsyncL1.csv,ConjL1_unsync_norm.wav,ta,44:48,blue,Online_conjL1_un//bTA12.0.wav,0.0,,,0,0,0,0,0,0,0,11,0,0,0,0,,,,,,,,,,,,,,,,,,,,,,,,,,,,,,,,,,,,,,,,,,31.92525869999372,31.92525869999372,space,0.49269130000902805,34.78137153333712,34.78462419999414,34.78462419999414,space,2.052056500004255,36.88335589999042,36.88335589999042,space,0.46731069999805186,37.46527669999341,37.46527669999341,0.0677884000033373,37.46527669999341,37.46527669999341,37.46527669999341,None,y,0.9945350000052713,,,,,,,,,,,,,,,,,,,,,,,,,,,,,,,,442656,001,2023-06-02_17h14.22.673,Pilot_online_tryings,2022.2.5,None,
ConjL1_uns.csv,dir_Online_conjL1_un.csv,Test_Conj_UnsyncL1.csv,ConjL1_unsync_norm.wav,ta,44:48,blue,Online_conjL1_un//bTA13.none.wav,none,,,0,0,0,0,0,0,0,11,0,1,1,1,,,,,,,,,,,,,,,,,,,,,,,,,,,,,,,,,,,,,,,,,,,,,,,,,,,,,,,,,0.04195669999171514,38.53625489999831,38.53625489999831,38.53625489999831,None,y,0.04456770000979304,,,,,,,,,,,,,,,,,,,,,,,,,,,,,,,,442656,001,2023-06-02_17h14.22.673,Pilot_online_tryings,2022.2.5,None,
ConjL1_uns.csv,dir_Online_conjL1_un.csv,Test_Conj_UnsyncL1.csv,ConjL1_unsync_norm.wav,ta,44:48,blue,Online_conjL1_un//bTA15.none.wav,none,,,0,0,0,0,0,0,0,11,0,2,2,3,,,,,,,,,,,,,,,,,,,,,,,,,,,,,,,,,,,,,,,,,,,,,,,,,,,,,,,,,0.037406699993880466,38.651035999995656,38.651035999995656,38.651035999995656,None,y,0.08143150000250898,,,,,,,,,,,,,,,,,,,,,,,,,,,,,,,,442656,001,2023-06-02_17h14.22.673,Pilot_online_tryings,2022.2.5,None,
ConjL1_uns.csv,dir_Online_conjL1_un.csv,Test_Conj_UnsyncL1.csv,ConjL1_unsync_norm.wav,ta,44:48,blue,Online_conjL1_un//bTA14.888.wav,888.0,,,0,0,0,0,0,0,0,11,0,3,3,2,,,,,,,,,,,,,,,,,,,,,,,,,,,,,,,,,,,,,,,,,,,,,,,,,,,,,,,,,0.027399200000218116,38.83001059999515,38.83001059999515,38.83001059999515,None,y,0.05437740001070779,,,,,,,,,,,,,,,,,,,,,,,,,,,,,,,,442656,001,2023-06-02_17h14.22.673,Pilot_online_tryings,2022.2.5,None,
ConjL1_uns.csv,dir_Online_conjL1_un.csv,Test_Conj_UnsyncL1.csv,ConjL1_unsync_norm.wav,ta,44:48,blue,,,,,0,0,0,0,0,0,0,11,,,,,,,,,,,,,,,,,,,,,,,,,,,,,,,,,,,,,,,,,,,,,,,,,,,,,,,,,,,,,,,,,,,,,,,,,,,,,,,,,,,,,,,,,,,,,,,,,,,442656,001,2023-06-02_17h14.22.673,Pilot_online_tryings,2022.2.5,None,
ConjL1_uns.csv,dir_Online_conjL1_un.csv,Test_Conj_UnsyncL1.csv,ConjL1_unsync_norm.wav,ne,112:116,orange,Online_conjL1_un//dNE17.none.wav,none,,,0,0,0,0,0,1,1,27,0,0,0,1,,,,,,,,,,,,,,,,,,,,,,,,,,,,,,,,,,,,,,,,,,,,,,,,,,,,,,,39.051340499994694,39.051340499994694,0.08653749999939464,39.051340499994694,39.051340499994694,39.051340499994694,None,y,0.13237279999884777,,,,,,,,,,,,,,,,,,,,,,,,,,,,,,,,442656,001,2023-06-02_17h14.22.673,Pilot_online_tryings,2022.2.5,None,
ConjL1_uns.csv,dir_Online_conjL1_un.csv,Test_Conj_UnsyncL1.csv,ConjL1_unsync_norm.wav,ne,112:116,orange,Online_conjL1_un//dNE19.none.wav,none,,,0,0,0,0,0,1,1,27,0,1,1,3,,,,,,,,,,,,,,,,,,,,,,,,,,,,,,,,,,,,,,,,,,,,,,,,,,,,,,,,,0.005943800002569333,39.23103500000434,39.23103500000434,39.23103500000434,None,y,0.10133100001257844,,,,,,,,,,,,,,,,,,,,,,,,,,,,,,,,442656,001,2023-06-02_17h14.22.673,Pilot_online_tryings,2022.2.5,None,
ConjL1_uns.csv,dir_Online_conjL1_un.csv,Test_Conj_UnsyncL1.csv,ConjL1_unsync_norm.wav,ne,112:116,orange,Online_conjL1_un//dNE18.444.wav,444.0,,,0,0,0,0,0,1,1,27,0,2,2,2,,,,,,,,,,,,,,,,,,,,,,,,,,,,,,,,,,,,,,,,,,,,,,,,,,,,,,,,,0.009437300002900884,39.414108099997975,39.414108099997975,39.414108099997975,None,y,0.06304330000421032,,,,,,,,,,,,,,,,,,,,,,,,,,,,,,,,442656,001,2023-06-02_17h14.22.673,Pilot_online_tryings,2022.2.5,None,
ConjL1_uns.csv,dir_Online_conjL1_un.csv,Test_Conj_UnsyncL1.csv,ConjL1_unsync_norm.wav,ne,112:116,orange,Online_conjL1_un//dNE16.222.wav,222.0,,,0,0,0,0,0,1,1,27,0,3,3,0,,,,,,,,,,,,,,,,,,,,,,,,,,,,,,,,,,,,,,,,,,,,,,,,,,,,,,,,,0.014129499992122874,39.507457999992766,39.507457999992766,39.507457999992766,None,y,0.11871049999899697,,,,,,,,,,,,,,,,,,,,,,,,,,,,,,,,442656,001,2023-06-02_17h14.22.673,Pilot_online_tryings,2022.2.5,None,
ConjL1_uns.csv,dir_Online_conjL1_un.csv,Test_Conj_UnsyncL1.csv,ConjL1_unsync_norm.wav,ne,112:116,orange,,,,,0,0,0,0,0,1,1,27,,,,,,,,,,,,,,,,,,,,,,,,,,,,,,,,,,,,,,,,,,,,,,,,,,,,,,,,,,,,,,,,,,,,,,,,,,,,,,,,,,,,,,,,,,,,,,,,,,,442656,001,2023-06-02_17h14.22.673,Pilot_online_tryings,2022.2.5,None,
ConjL1_uns.csv,dir_Online_conjL1_un.csv,Test_Conj_UnsyncL1.csv,ConjL1_unsync_norm.wav,ki,24:28,red,Online_conjL1_un//aKI27.none.wav,none,,,0,0,0,0,0,2,2,16,0,0,0,3,,,,,,,,,,,,,,,,,,,,,,,,,,,,,,,,,,,,,,,,,,,,,,,,,,,,,,,39.76449159999902,39.76449159999902,0.09247120001236908,39.76449159999902,39.76449159999902,39.76449159999902,None,y,0.015136700007133186,,,,,,,,,,,,,,,,,,,,,,,,,,,,,,,,442656,001,2023-06-02_17h14.22.673,Pilot_online_tryings,2022.2.5,None,
ConjL1_uns.csv,dir_Online_conjL1_un.csv,Test_Conj_UnsyncL1.csv,ConjL1_unsync_norm.wav,ki,24:28,red,Online_conjL1_un//aKI25.888.wav,888.0,,,0,0,0,0,0,2,2,16,0,1,1,1,,,,,,,,,,,,,,,,,,,,,,,,,,,,,,,,,,,,,,,,,,,,,,,,,,,,,,,,,0.011689999999362044,39.820501800000784,39.820501800000784,39.820501800000784,None,y,0.11179230001289397,,,,,,,,,,,,,,,,,,,,,,,,,,,,,,,,442656,001,2023-06-02_17h14.22.673,Pilot_online_tryings,2022.2.5,None,
ConjL1_uns.csv,dir_Online_conjL1_un.csv,Test_Conj_UnsyncL1.csv,ConjL1_unsync_norm.wav,ki,24:28,red,Online_conjL1_un//aKI26.888.wav,888.0,,,0,0,0,0,0,2,2,16,0,2,2,2,,,,,,,,,,,,,,,,,,,,,,,,,,,,,,,,,,,,,,,,,,,,,,,,,,,,,,,,,0.01297599999816157,39.97655009999289,39.97655009999289,39.97655009999289,None,y,0.10145899999770336,,,,,,,,,,,,,,,,,,,,,,,,,,,,,,,,442656,001,2023-06-02_17h14.22.673,Pilot_online_tryings,2022.2.5,None,
ConjL1_uns.csv,dir_Online_conjL1_un.csv,Test_Conj_UnsyncL1.csv,ConjL1_unsync_norm.wav,ki,24:28,red,Online_conjL1_un//aKI24.1776.wav,1776.0,,,0,0,0,0,0,2,2,16,0,3,3,0,,,,,,,,,,,,,,,,,,,,,,,,,,,,,,,,,,,,,,,,,,,,,,,,,,,,,,,,,0.025294000006397255,40.16891680000117,40.16891680000117,40.16891680000117,None,y,0.06499860000621993,,,,,,,,,,,,,,,,,,,,,,,,,,,,,,,,442656,001,2023-06-02_17h14.22.673,Pilot_online_tryings,2022.2.5,None,
ConjL1_uns.csv,dir_Online_conjL1_un.csv,Test_Conj_UnsyncL1.csv,ConjL1_unsync_norm.wav,ki,24:28,red,,,,,0,0,0,0,0,2,2,16,,,,,,,,,,,,,,,,,,,,,,,,,,,,,,,,,,,,,,,,,,,,,,,,,,,,,,,,,,,,,,,,,,,,,,,,,,,,,,,,,,,,,,,,,,,,,,,,,,,442656,001,2023-06-02_17h14.22.673,Pilot_online_tryings,2022.2.5,None,
ConjL1_uns.csv,dir_Online_conjL1_un.csv,Test_Conj_UnsyncL1.csv,ConjL1_unsync_norm.wav,ro,68:72,green,Online_conjL1_un//cRO6.1332.wav,1332.0,,,0,0,0,0,0,3,3,9,0,0,0,2,,,,,,,,,,,,,,,,,,,,,,,,,,,,,,,,,,,,,,,,,,,,,,,,,,,,,,,40.29066630000307,40.29066630000307,0.021445099991979077,40.29066630000307,40.29066630000307,40.29066630000307,None,y,0.10558560000208672,,,,,,,,,,,,,,,,,,,,,,,,,,,,,,,,442656,001,2023-06-02_17h14.22.673,Pilot_online_tryings,2022.2.5,None,
ConjL1_uns.csv,dir_Online_conjL1_un.csv,Test_Conj_UnsyncL1.csv,ConjL1_unsync_norm.wav,ro,68:72,green,Online_conjL1_un//cRO7.222.wav,222.0,,,0,0,0,0,0,3,3,9,0,1,1,3,,,,,,,,,,,,,,,,,,,,,,,,,,,,,,,,,,,,,,,,,,,,,,,,,,,,,,,,,0.021653899995726533,40.45158629999787,40.45158629999787,40.45158629999787,None,y,0.09693929999775719,,,,,,,,,,,,,,,,,,,,,,,,,,,,,,,,442656,001,2023-06-02_17h14.22.673,Pilot_online_tryings,2022.2.5,None,
ConjL1_uns.csv,dir_Online_conjL1_un.csv,Test_Conj_UnsyncL1.csv,ConjL1_unsync_norm.wav,ro,68:72,green,Online_conjL1_un//cRO4.444.wav,444.0,,,0,0,0,0,0,3,3,9,0,2,2,0,,,,,,,,,,,,,,,,,,,,,,,,,,,,,,,,,,,,,,,,,,,,,,,,,,,,,,,,,0.013188099997933023,40.60563910000201,40.60563910000201,40.60563910000201,None,y,0.09609269999782555,,,,,,,,,,,,,,,,,,,,,,,,,,,,,,,,442656,001,2023-06-02_17h14.22.673,Pilot_online_tryings,2022.2.5,None,
ConjL1_uns.csv,dir_Online_conjL1_un.csv,Test_Conj_UnsyncL1.csv,ConjL1_unsync_norm.wav,ro,68:72,green,Online_conjL1_un//cRO5.none.wav,none,,,0,0,0,0,0,3,3,9,0,3,3,1,,,,,,,,,,,,,,,,,,,,,,,,,,,,,,,,,,,,,,,,,,,,,,,,,,,,,,,,,0.019792899998719804,40.764081499990425,40.764081499990425,40.764081499990425,None,y,0.09928389999549836,,,,,,,,,,,,,,,,,,,,,,,,,,,,,,,,442656,001,2023-06-02_17h14.22.673,Pilot_online_tryings,2022.2.5,None,
ConjL1_uns.csv,dir_Online_conjL1_un.csv,Test_Conj_UnsyncL1.csv,ConjL1_unsync_norm.wav,ro,68:72,green,,,,,0,0,0,0,0,3,3,9,,,,,,,,,,,,,,,,,,,,,,,,,,,,,,,,,,,,,,,,,,,,,,,,,,,,,,,,,,,,,,,,,,,,,,,,,,,,,,,,,,,,,,,,,,,,,,,,,,,442656,001,2023-06-02_17h14.22.673,Pilot_online_tryings,2022.2.5,None,
ConjL1_uns.csv,dir_Online_conjL1_un.csv,Test_Conj_UnsyncL1.csv,ConjL1_unsync_norm.wav,ro,64:68,green,Online_conjL1_un//cRO0.none.wav,none,,,0,0,0,0,0,4,4,7,0,0,0,0,,,,,,,,,,,,,,,,,,,,,,,,,,,,,,,,,,,,,,,,,,,,,,,,,,,,,,,40.93140139999741,40.93140139999741,0.03178549998847302,40.93140139999741,40.93140139999741,40.93140139999741,None,y,0.08326820000365842,,,,,,,,,,,,,,,,,,,,,,,,,,,,,,,,442656,001,2023-06-02_17h14.22.673,Pilot_online_tryings,2022.2.5,None,
ConjL1_uns.csv,dir_Online_conjL1_un.csv,Test_Conj_UnsyncL1.csv,ConjL1_unsync_norm.wav,ro,64:68,green,Online_conjL1_un//cRO2.1332.wav,1332.0,,,0,0,0,0,0,4,4,7,0,1,1,2,,,,,,,,,,,,,,,,,,,,,,,,,,,,,,,,,,,,,,,,,,,,,,,,,,,,,,,,,0.01262259999930393,41.07106699999713,41.07106699999713,41.07106699999713,None,y,0.11160750000271946,,,,,,,,,,,,,,,,,,,,,,,,,,,,,,,,442656,001,2023-06-02_17h14.22.673,Pilot_online_tryings,2022.2.5,None,
ConjL1_uns.csv,dir_Online_conjL1_un.csv,Test_Conj_UnsyncL1.csv,ConjL1_unsync_norm.wav,ro,64:68,green,Online_conjL1_un//cRO1.444.wav,444.0,,,0,0,0,0,0,4,4,7,0,2,2,1,,,,,,,,,,,,,,,,,,,,,,,,,,,,,,,,,,,,,,,,,,,,,,,,,,,,,,,,,0.023796499997843057,41.23467839999648,41.23467839999648,41.23467839999648,None,y,0.102760900001158,,,,,,,,,,,,,,,,,,,,,,,,,,,,,,,,442656,001,2023-06-02_17h14.22.673,Pilot_online_tryings,2022.2.5,None,
ConjL1_uns.csv,dir_Online_conjL1_un.csv,Test_Conj_UnsyncL1.csv,ConjL1_unsync_norm.wav,ro,64:68,green,Online_conjL1_un//cRO3.none.wav,none,,,0,0,0,0,0,4,4,7,0,3,3,3,,,,,,,,,,,,,,,,,,,,,,,,,,,,,,,,,,,,,,,,,,,,,,,,,,,,,,,,,0.05749439999635797,41.42205169999215,41.42205169999215,41.42205169999215,None,y,0.07626520001213066,,,,,,,,,,,,,,,,,,,,,,,,,,,,,,,,442656,001,2023-06-02_17h14.22.673,Pilot_online_tryings,2022.2.5,None,
ConjL1_uns.csv,dir_Online_conjL1_un.csv,Test_Conj_UnsyncL1.csv,ConjL1_unsync_norm.wav,ro,64:68,green,,,,,0,0,0,0,0,4,4,7,,,,,,,,,,,,,,,,,,,,,,,,,,,,,,,,,,,,,,,,,,,,,,,,,,,,,,,,,,,,,,,,,,,,,,,,,,,,,,,,,,,,,,,,,,,,,,,,,,,442656,001,2023-06-02_17h14.22.673,Pilot_online_tryings,2022.2.5,None,
ConjL1_uns.csv,dir_Online_conjL1_un.csv,Test_Conj_UnsyncL1.csv,ConjL1_unsync_norm.wav,ro,84:88,green,Online_conjL1_un//cRO23.none.wav,none,,,0,0,0,0,0,5,5,30,0,0,0,3,,,,,,,,,,,,,,,,,,,,,,,,,,,,,,,,,,,,,,,,,,,,,,,,,,,,,,,41.565517199996975,41.565517199996975,0.0453745999984676,41.565517199996975,41.565517199996975,41.565517199996975,None,y,0.087533900004928,,,,,,,,,,,,,,,,,,,,,,,,,,,,,,,,442656,001,2023-06-02_17h14.22.673,Pilot_online_tryings,2022.2.5,None,
ConjL1_uns.csv,dir_Online_conjL1_un.csv,Test_Conj_UnsyncL1.csv,ConjL1_unsync_norm.wav,ro,84:88,green,Online_conjL1_un//cRO20.none.wav,none,,,0,0,0,0,0,5,5,30,0,1,1,0,,,,,,,,,,,,,,,,,,,,,,,,,,,,,,,,,,,,,,,,,,,,,,,,,,,,,,,,,0.030951000007917173,41.70660819999466,41.70660819999466,41.70660819999466,None,y,0.09212129999650642,,,,,,,,,,,,,,,,,,,,,,,,,,,,,,,,442656,001,2023-06-02_17h14.22.673,Pilot_online_tryings,2022.2.5,None,
ConjL1_uns.csv,dir_Online_conjL1_un.csv,Test_Conj_UnsyncL1.csv,ConjL1_unsync_norm.wav,ro,84:88,green,Online_conjL1_un//cRO22.222.wav,222.0,,,0,0,0,0,0,5,5,30,0,2,2,2,,,,,,,,,,,,,,,,,,,,,,,,,,,,,,,,,,,,,,,,,,,,,,,,,,,,,,,,,0.02444890000333544,41.85710909999034,41.85710909999034,41.85710909999034,None,y,0.09566370000538882,,,,,,,,,,,,,,,,,,,,,,,,,,,,,,,,442656,001,2023-06-02_17h14.22.673,Pilot_online_tryings,2022.2.5,None,
ConjL1_uns.csv,dir_Online_conjL1_un.csv,Test_Conj_UnsyncL1.csv,ConjL1_unsync_norm.wav,ro,84:88,green,Online_conjL1_un//cRO21.444.wav,444.0,,,0,0,0,0,0,5,5,30,0,3,3,1,,,,,,,,,,,,,,,,,,,,,,,,,,,,,,,,,,,,,,,,,,,,,,,,,,,,,,,,,0.007351399995968677,42.008938899991335,42.008938899991335,42.008938899991335,None,y,0.0944145999965258,,,,,,,,,,,,,,,,,,,,,,,,,,,,,,,,442656,001,2023-06-02_17h14.22.673,Pilot_online_tryings,2022.2.5,None,
ConjL1_uns.csv,dir_Online_conjL1_un.csv,Test_Conj_UnsyncL1.csv,ConjL1_unsync_norm.wav,ro,84:88,green,,,,,0,0,0,0,0,5,5,30,,,,,,,,,,,,,,,,,,,,,,,,,,,,,,,,,,,,,,,,,,,,,,,,,,,,,,,,,,,,,,,,,,,,,,,,,,,,,,,,,,,,,,,,,,,,,,,,,,,442656,001,2023-06-02_17h14.22.673,Pilot_online_tryings,2022.2.5,None,
ConjL1_uns.csv,dir_Online_conjL1_un.csv,Test_Conj_UnsyncL1.csv,ConjL1_unsync_norm.wav,ne,100:104,orange,Online_conjL1_un//dNE7.none.wav,none,,,0,0,0,0,0,6,6,24,0,0,0,3,,,,,,,,,,,,,,,,,,,,,,,,,,,,,,,,,,,,,,,,,,,,,,,,,,,,,,,42.16832280000381,42.16832280000381,0.04737649999151472,42.16832280000381,42.16832280000381,42.16832280000381,None,y,0.20798259999719448,,,,,,,,,,,,,,,,,,,,,,,,,,,,,,,,442656,001,2023-06-02_17h14.22.673,Pilot_online_tryings,2022.2.5,None,
ConjL1_uns.csv,dir_Online_conjL1_un.csv,Test_Conj_UnsyncL1.csv,ConjL1_unsync_norm.wav,ne,100:104,orange,Online_conjL1_un//dNE5.1776.wav,1776.0,,,0,0,0,0,0,6,6,24,0,1,1,1,,,,,,,,,,,,,,,,,,,,,,,,,,,,,,,,,,,,,,,,,,,,,,,,,,,,,,,,,0.01674159998947289,42.41505139999208,42.41505139999208,42.41505139999208,None,y,0.2229667000065092,,,,,,,,,,,,,,,,,,,,,,,,,,,,,,,,442656,001,2023-06-02_17h14.22.673,Pilot_online_tryings,2022.2.5,None,
ConjL1_uns.csv,dir_Online_conjL1_un.csv,Test_Conj_UnsyncL1.csv,ConjL1_unsync_norm.wav,ne,100:104,orange,Online_conjL1_un//dNE4.222.wav,222.0,,,0,0,0,0,0,6,6,24,0,2,2,0,,,,,,,,,,,,,,,,,,,,,,,,,,,,,,,,,,,,,,,,,,,,,,,,,,,,,,,,,0.02548440000100527,42.706022700003814,42.706022700003814,42.706022700003814,None,y,0.0951340000028722,,,,,,,,,,,,,,,,,,,,,,,,,,,,,,,,442656,001,2023-06-02_17h14.22.673,Pilot_online_tryings,2022.2.5,None,
ConjL1_uns.csv,dir_Online_conjL1_un.csv,Test_Conj_UnsyncL1.csv,ConjL1_unsync_norm.wav,ne,100:104,orange,Online_conjL1_un//dNE6.none.wav,none,,,0,0,0,0,0,6,6,24,0,3,3,2,,,,,,,,,,,,,,,,,,,,,,,,,,,,,,,,,,,,,,,,,,,,,,,,,,,,,,,,,0.03323950000049081,42.864166700004716,42.864166700004716,42.864166700004716,None,y,0.09546470000350382,,,,,,,,,,,,,,,,,,,,,,,,,,,,,,,,442656,001,2023-06-02_17h14.22.673,Pilot_online_tryings,2022.2.5,None,
ConjL1_uns.csv,dir_Online_conjL1_un.csv,Test_Conj_UnsyncL1.csv,ConjL1_unsync_norm.wav,ne,100:104,orange,,,,,0,0,0,0,0,6,6,24,,,,,,,,,,,,,,,,,,,,,,,,,,,,,,,,,,,,,,,,,,,,,,,,,,,,,,,,,,,,,,,,,,,,,,,,,,,,,,,,,,,,,,,,,,,,,,,,,,,442656,001,2023-06-02_17h14.22.673,Pilot_online_tryings,2022.2.5,None,
ConjL1_uns.csv,dir_Online_conjL1_un.csv,Test_Conj_UnsyncL1.csv,ConjL1_unsync_norm.wav,ki,8:12,red,Online_conjL1_un//aKI8.none.wav,none,,,0,0,0,0,0,7,7,2,0,0,0,0,,,,,,,,,,,,,,,,,,,,,,,,,,,,,,,,,,,,,,,,,,,,,,,,,,,,,,,43.0689807000017,43.0689807000017,0.07388900000660215,43.0689807000017,43.0689807000017,43.0689807000017,None,y,0.06820220001100097,,,,,,,,,,,,,,,,,,,,,,,,,,,,,,,,442656,001,2023-06-02_17h14.22.673,Pilot_online_tryings,2022.2.5,None,
ConjL1_uns.csv,dir_Online_conjL1_un.csv,Test_Conj_UnsyncL1.csv,ConjL1_unsync_norm.wav,ki,8:12,red,Online_conjL1_un//aKI10.1776.wav,1776.0,,,0,0,0,0,0,7,7,2,0,1,1,2,,,,,,,,,,,,,,,,,,,,,,,,,,,,,,,,,,,,,,,,,,,,,,,,,,,,,,,,,0.014498999997158535,43.20545819999825,43.20545819999825,43.20545819999825,None,y,0.0939617999974871,,,,,,,,,,,,,,,,,,,,,,,,,,,,,,,,442656,001,2023-06-02_17h14.22.673,Pilot_online_tryings,2022.2.5,None,
ConjL1_uns.csv,dir_Online_conjL1_un.csv,Test_Conj_UnsyncL1.csv,ConjL1_unsync_norm.wav,ki,8:12,red,Online_conjL1_un//aKI11.1776.wav,1776.0,,,0,0,0,0,0,7,7,2,0,2,2,3,,,,,,,,,,,,,,,,,,,,,,,,,,,,,,,,,,,,,,,,,,,,,,,,,,,,,,,,,0.04319329999270849,43.38031379999302,43.38031379999302,43.38031379999302,None,y,0.09172670000407379,,,,,,,,,,,,,,,,,,,,,,,,,,,,,,,,442656,001,2023-06-02_17h14.22.673,Pilot_online_tryings,2022.2.5,None,
ConjL1_uns.csv,dir_Online_conjL1_un.csv,Test_Conj_UnsyncL1.csv,ConjL1_unsync_norm.wav,ki,8:12,red,Online_conjL1_un//aKI9.888.wav,888.0,,,0,0,0,0,0,7,7,2,0,3,3,1,,,,,,,,,,,,,,,,,,,,,,,,,,,,,,,,,,,,,,,,,,,,,,,,,,,,,,,,,0.027407800007495098,43.5199958000012,43.5199958000012,43.5199958000012,None,y,0.11221829999703914,,,,,,,,,,,,,,,,,,,,,,,,,,,,,,,,442656,001,2023-06-02_17h14.22.673,Pilot_online_tryings,2022.2.5,None,
ConjL1_uns.csv,dir_Online_conjL1_un.csv,Test_Conj_UnsyncL1.csv,ConjL1_unsync_norm.wav,ki,8:12,red,,,,,0,0,0,0,0,7,7,2,,,,,,,,,,,,,,,,,,,,,,,,,,,,,,,,,,,,,,,,,,,,,,,,,,,,,,,,,,,,,,,,,,,,,,,,,,,,,,,,,,,,,,,,,,,,,,,,,,,442656,001,2023-06-02_17h14.22.673,Pilot_online_tryings,2022.2.5,None,
ConjL1_uns.csv,dir_Online_conjL1_un.csv,Test_Conj_UnsyncL1.csv,ConjL1_unsync_norm.wav,ro,92:96,green,Online_conjL1_un//cRO30.none.wav,none,,,0,0,0,0,0,8,8,18,0,0,0,2,,,,,,,,,,,,,,,,,,,,,,,,,,,,,,,,,,,,,,,,,,,,,,,,,,,,,,,43.71815099999367,43.71815099999367,0.05080100000486709,43.71815099999367,43.71815099999367,43.71815099999367,None,y,0.057895900012226775,,,,,,,,,,,,,,,,,,,,,,,,,,,,,,,,442656,001,2023-06-02_17h14.22.673,Pilot_online_tryings,2022.2.5,None,
ConjL1_uns.csv,dir_Online_conjL1_un.csv,Test_Conj_UnsyncL1.csv,ConjL1_unsync_norm.wav,ro,92:96,green,Online_conjL1_un//cRO29.444.wav,444.0,,,0,0,0,0,0,8,8,18,0,1,1,1,,,,,,,,,,,,,,,,,,,,,,,,,,,,,,,,,,,,,,,,,,,,,,,,,,,,,,,,,0.024690599995665252,43.82742030000372,43.82742030000372,43.82742030000372,None,y,0.09843050000199582,,,,,,,,,,,,,,,,,,,,,,,,,,,,,,,,442656,001,2023-06-02_17h14.22.673,Pilot_online_tryings,2022.2.5,None,
ConjL1_uns.csv,dir_Online_conjL1_un.csv,Test_Conj_UnsyncL1.csv,ConjL1_unsync_norm.wav,ro,92:96,green,Online_conjL1_un//cRO28.none.wav,none,,,0,0,0,0,0,8,8,18,0,2,2,0,,,,,,,,,,,,,,,,,,,,,,,,,,,,,,,,,,,,,,,,,,,,,,,,,,,,,,,,,0.0074428999942028895,43.97996169999533,43.97996169999533,43.97996169999533,None,y,0.09251840000797529,,,,,,,,,,,,,,,,,,,,,,,,,,,,,,,,442656,001,2023-06-02_17h14.22.673,Pilot_online_tryings,2022.2.5,None,
ConjL1_uns.csv,dir_Online_conjL1_un.csv,Test_Conj_UnsyncL1.csv,ConjL1_unsync_norm.wav,ro,92:96,green,Online_conjL1_un//cRO31.none.wav,none,,,0,0,0,0,0,8,8,18,0,3,3,3,,,,,,,,,,,,,,,,,,,,,,,,,,,,,,,,,,,,,,,,,,,,,,,,,,,,,,,,,0.05706340000324417,44.13825289999659,44.13825289999659,44.13825289999659,None,y,0.07534589999704622,,,,,,,,,,,,,,,,,,,,,,,,,,,,,,,,442656,001,2023-06-02_17h14.22.673,Pilot_online_tryings,2022.2.5,None,
ConjL1_uns.csv,dir_Online_conjL1_un.csv,Test_Conj_UnsyncL1.csv,ConjL1_unsync_norm.wav,ro,92:96,green,,,,,0,0,0,0,0,8,8,18,,,,,,,,,,,,,,,,,,,,,,,,,,,,,,,,,,,,,,,,,,,,,,,,,,,,,,,,,,,,,,,,,,,,,,,,,,,,,,,,,,,,,,,,,,,,,,,,,,,442656,001,2023-06-02_17h14.22.673,Pilot_online_tryings,2022.2.5,None,
ConjL1_uns.csv,dir_Online_conjL1_un.csv,Test_Conj_UnsyncL1.csv,ConjL1_unsync_norm.wav,ta,60:64,blue,Online_conjL1_un//bTA30.none.wav,none,,,0,0,0,0,0,9,9,25,0,0,0,2,,,,,,,,,,,,,,,,,,,,,,,,,,,,,,,,,,,,,,,,,,,,,,,,,,,,,,,44.28079639999487,44.28079639999487,0.03692850000516046,44.28079639999487,44.28079639999487,44.28079639999487,None,y,0.061537500005215406,,,,,,,,,,,,,,,,,,,,,,,,,,,,,,,,442656,001,2023-06-02_17h14.22.673,Pilot_online_tryings,2022.2.5,None,
ConjL1_uns.csv,dir_Online_conjL1_un.csv,Test_Conj_UnsyncL1.csv,ConjL1_unsync_norm.wav,ta,60:64,blue,Online_conjL1_un//bTA29.none.wav,none,,,0,0,0,0,0,9,9,25,0,1,1,1,,,,,,,,,,,,,,,,,,,,,,,,,,,,,,,,,,,,,,,,,,,,,,,,,,,,,,,,,0.007351299995207228,44.385314500003005,44.385314500003005,44.385314500003005,None,y,0.09314730000915006,,,,,,,,,,,,,,,,,,,,,,,,,,,,,,,,442656,001,2023-06-02_17h14.22.673,Pilot_online_tryings,2022.2.5,None,
ConjL1_uns.csv,dir_Online_conjL1_un.csv,Test_Conj_UnsyncL1.csv,ConjL1_unsync_norm.wav,ta,60:64,blue,Online_conjL1_un//bTA31.0.wav,0.0,,,0,0,0,0,0,9,9,25,0,2,2,3,,,,,,,,,,,,,,,,,,,,,,,,,,,,,,,,,,,,,,,,,,,,,,,,,,,,,,,,,0.028795000005629845,44.51739049999742,44.51739049999742,44.51739049999742,None,y,0.09320649999426678,,,,,,,,,,,,,,,,,,,,,,,,,,,,,,,,442656,001,2023-06-02_17h14.22.673,Pilot_online_tryings,2022.2.5,None,
ConjL1_uns.csv,dir_Online_conjL1_un.csv,Test_Conj_UnsyncL1.csv,ConjL1_unsync_norm.wav,ta,60:64,blue,Online_conjL1_un//bTA28.888.wav,888.0,,,0,0,0,0,0,9,9,25,0,3,3,0,,,,,,,,,,,,,,,,,,,,,,,,,,,,,,,,,,,,,,,,,,,,,,,,,,,,,,,,,0.023721799996565096,44.671218699993915,44.671218699993915,44.671218699993915,None,y,0.20104559999890625,,,,,,,,,,,,,,,,,,,,,,,,,,,,,,,,442656,001,2023-06-02_17h14.22.673,Pilot_online_tryings,2022.2.5,None,
ConjL1_uns.csv,dir_Online_conjL1_un.csv,Test_Conj_UnsyncL1.csv,ConjL1_unsync_norm.wav,ta,60:64,blue,,,,,0,0,0,0,0,9,9,25,,,,,,,,,,,,,,,,,,,,,,,,,,,,,,,,,,,,,,,,,,,,,,,,,,,,,,,,,,,,,,,,,,,,,,,,,,,,,,,,,,,,,,,,,,,,,,,,,,,442656,001,2023-06-02_17h14.22.673,Pilot_online_tryings,2022.2.5,None,
ConjL1_uns.csv,dir_Online_conjL1_un.csv,Test_Conj_UnsyncL1.csv,ConjL1_unsync_norm.wav,ki,0:4,red,Online_conjL1_un//aKI1.888.wav,888.0,,,0,0,0,0,0,10,10,3,0,0,0,1,,,,,,,,,,,,,,,,,,,,,,,,,,,,,,,,,,,,,,,,,,,,,,,,,,,,,,,44.9705346999981,44.9705346999981,0.04981569999654312,44.9705346999981,44.9705346999981,44.9705346999981,None,y,0.05102769999939483,,,,,,,,,,,,,,,,,,,,,,,,,,,,,,,,442656,001,2023-06-02_17h14.22.673,Pilot_online_tryings,2022.2.5,None,
ConjL1_uns.csv,dir_Online_conjL1_un.csv,Test_Conj_UnsyncL1.csv,ConjL1_unsync_norm.wav,ki,0:4,red,Online_conjL1_un//aKI2.none.wav,none,,,0,0,0,0,0,10,10,3,0,1,1,2,,,,,,,,,,,,,,,,,,,,,,,,,,,,,,,,,,,,,,,,,,,,,,,,,,,,,,,,,0.03412870000465773,45.096675199994934,45.096675199994934,45.096675199994934,None,y,0.07141080001019873,,,,,,,,,,,,,,,,,,,,,,,,,,,,,,,,442656,001,2023-06-02_17h14.22.673,Pilot_online_tryings,2022.2.5,None,
ConjL1_uns.csv,dir_Online_conjL1_un.csv,Test_Conj_UnsyncL1.csv,ConjL1_unsync_norm.wav,ki,0:4,red,Online_conjL1_un//aKI3.none.wav,none,,,0,0,0,0,0,10,10,3,0,2,2,3,,,,,,,,,,,,,,,,,,,,,,,,,,,,,,,,,,,,,,,,,,,,,,,,,,,,,,,,,0.028755999999702908,45.23636799999804,45.23636799999804,45.23636799999804,None,y,0.08326119999401271,,,,,,,,,,,,,,,,,,,,,,,,,,,,,,,,442656,001,2023-06-02_17h14.22.673,Pilot_online_tryings,2022.2.5,None,
ConjL1_uns.csv,dir_Online_conjL1_un.csv,Test_Conj_UnsyncL1.csv,ConjL1_unsync_norm.wav,ki,0:4,red,Online_conjL1_un//aKI0.none.wav,none,,,0,0,0,0,0,10,10,3,0,3,3,0,,,,,,,,,,,,,,,,,,,,,,,,,,,,,,,,,,,,,,,,,,,,,,,,,,,,,,,,,0.03860499999427702,45.37142589999712,45.37142589999712,45.37142589999712,None,y,0.10464419999334496,,,,,,,,,,,,,,,,,,,,,,,,,,,,,,,,442656,001,2023-06-02_17h14.22.673,Pilot_online_tryings,2022.2.5,None,
ConjL1_uns.csv,dir_Online_conjL1_un.csv,Test_Conj_UnsyncL1.csv,ConjL1_unsync_norm.wav,ki,0:4,red,,,,,0,0,0,0,0,10,10,3,,,,,,,,,,,,,,,,,,,,,,,,,,,,,,,,,,,,,,,,,,,,,,,,,,,,,,,,,,,,,,,,,,,,,,,,,,,,,,,,,,,,,,,,,,,,,,,,,,,442656,001,2023-06-02_17h14.22.673,Pilot_online_tryings,2022.2.5,None,
ConjL1_uns.csv,dir_Online_conjL1_un.csv,Test_Conj_UnsyncL1.csv,ConjL1_unsync_norm.wav,ki,16:20,red,Online_conjL1_un//aKI18.none.wav,none,,,0,0,0,0,0,11,11,22,0,0,0,2,,,,,,,,,,,,,,,,,,,,,,,,,,,,,,,,,,,,,,,,,,,,,,,,,,,,,,,45.55359119999048,45.55359119999048,0.05893580001429655,45.55359119999048,45.55359119999048,45.55359119999048,None,y,0.06901590000779834,,,,,,,,,,,,,,,,,,,,,,,,,,,,,,,,442656,001,2023-06-02_17h14.22.673,Pilot_online_tryings,2022.2.5,None,
ConjL1_uns.csv,dir_Online_conjL1_un.csv,Test_Conj_UnsyncL1.csv,ConjL1_unsync_norm.wav,ki,16:20,red,Online_conjL1_un//aKI19.none.wav,none,,,0,0,0,0,0,11,11,22,0,1,1,3,,,,,,,,,,,,,,,,,,,,,,,,,,,,,,,,,,,,,,,,,,,,,,,,,,,,,,,,,0.025623499997891486,45.67197339999257,45.67197339999257,45.67197339999257,None,y,0.10407300000952091,,,,,,,,,,,,,,,,,,,,,,,,,,,,,,,,442656,001,2023-06-02_17h14.22.673,Pilot_online_tryings,2022.2.5,None,
ConjL1_uns.csv,dir_Online_conjL1_un.csv,Test_Conj_UnsyncL1.csv,ConjL1_unsync_norm.wav,ki,16:20,red,Online_conjL1_un//aKI17.none.wav,none,,,0,0,0,0,0,11,11,22,0,2,2,1,,,,,,,,,,,,,,,,,,,,,,,,,,,,,,,,,,,,,,,,,,,,,,,,,,,,,,,,,0.010932200006209314,45.82092630000261,45.82092630000261,45.82092630000261,None,y,0.10349390000919811,,,,,,,,,,,,,,,,,,,,,,,,,,,,,,,,442656,001,2023-06-02_17h14.22.673,Pilot_online_tryings,2022.2.5,None,
ConjL1_uns.csv,dir_Online_conjL1_un.csv,Test_Conj_UnsyncL1.csv,ConjL1_unsync_norm.wav,ki,16:20,red,Online_conjL1_un//aKI16.888.wav,888.0,,,0,0,0,0,0,11,11,22,0,3,3,0,,,,,,,,,,,,,,,,,,,,,,,,,,,,,,,,,,,,,,,,,,,,,,,,,,,,,,,,,0.006667800000286661,45.976648800002295,45.976648800002295,45.976648800002295,None,y,0.0925584000069648,,,,,,,,,,,,,,,,,,,,,,,,,,,,,,,,442656,001,2023-06-02_17h14.22.673,Pilot_online_tryings,2022.2.5,None,
ConjL1_uns.csv,dir_Online_conjL1_un.csv,Test_Conj_UnsyncL1.csv,ConjL1_unsync_norm.wav,ki,16:20,red,,,,,0,0,0,0,0,11,11,22,,,,,,,,,,,,,,,,,,,,,,,,,,,,,,,,,,,,,,,,,,,,,,,,,,,,,,,,,,,,,,,,,,,,,,,,,,,,,,,,,,,,,,,,,,,,,,,,,,,442656,001,2023-06-02_17h14.22.673,Pilot_online_tryings,2022.2.5,None,
ConjL1_uns.csv,dir_Online_conjL1_un.csv,Test_Conj_UnsyncL1.csv,ConjL1_unsync_norm.wav,ne,124:128,orange,Online_conjL1_un//dNE30.none.wav,none,,,0,0,0,0,0,12,12,13,0,0,0,2,,,,,,,,,,,,,,,,,,,,,,,,,,,,,,,,,,,,,,,,,,,,,,,,,,,,,,,46.21581470000092,46.21581470000092,0.08546999999089167,46.21581470000092,46.21581470000092,46.21581470000092,None,y,0.13565579999703914,,,,,,,,,,,,,,,,,,,,,,,,,,,,,,,,442656,001,2023-06-02_17h14.22.673,Pilot_online_tryings,2022.2.5,None,
ConjL1_uns.csv,dir_Online_conjL1_un.csv,Test_Conj_UnsyncL1.csv,ConjL1_unsync_norm.wav,ne,124:128,orange,Online_conjL1_un//dNE31.1332.wav,1332.0,,,0,0,0,0,0,12,12,13,0,1,1,3,,,,,,,,,,,,,,,,,,,,,,,,,,,,,,,,,,,,,,,,,,,,,,,,,,,,,,,,,0.029134099997463636,46.39431789999071,46.39431789999071,46.39431789999071,None,y,0.11932650000380818,,,,,,,,,,,,,,,,,,,,,,,,,,,,,,,,442656,001,2023-06-02_17h14.22.673,Pilot_online_tryings,2022.2.5,None,
ConjL1_uns.csv,dir_Online_conjL1_un.csv,Test_Conj_UnsyncL1.csv,ConjL1_unsync_norm.wav,ne,124:128,orange,Online_conjL1_un//dNE28.444.wav,444.0,,,0,0,0,0,0,12,12,13,0,2,2,0,,,,,,,,,,,,,,,,,,,,,,,,,,,,,,,,,,,,,,,,,,,,,,,,,,,,,,,,,0.028474500009906478,46.58076989999972,46.58076989999972,46.58076989999972,None,y,0.0774844999978086,,,,,,,,,,,,,,,,,,,,,,,,,,,,,,,,442656,001,2023-06-02_17h14.22.673,Pilot_online_tryings,2022.2.5,None,
ConjL1_uns.csv,dir_Online_conjL1_un.csv,Test_Conj_UnsyncL1.csv,ConjL1_unsync_norm.wav,ne,124:128,orange,Online_conjL1_un//dNE29.none.wav,none,,,0,0,0,0,0,12,12,13,0,3,3,1,,,,,,,,,,,,,,,,,,,,,,,,,,,,,,,,,,,,,,,,,,,,,,,,,,,,,,,,,0.017420999996829778,46.698089400000754,46.698089400000754,46.698089400000754,None,y,0.1264019000082044,,,,,,,,,,,,,,,,,,,,,,,,,,,,,,,,442656,001,2023-06-02_17h14.22.673,Pilot_online_tryings,2022.2.5,None,
ConjL1_uns.csv,dir_Online_conjL1_un.csv,Test_Conj_UnsyncL1.csv,ConjL1_unsync_norm.wav,ne,124:128,orange,,,,,0,0,0,0,0,12,12,13,,,,,,,,,,,,,,,,,,,,,,,,,,,,,,,,,,,,,,,,,,,,,,,,,,,,,,,,,,,,,,,,,,,,,,,,,,,,,,,,,,,,,,,,,,,,,,,,,,,442656,001,2023-06-02_17h14.22.673,Pilot_online_tryings,2022.2.5,None,
ConjL1_uns.csv,dir_Online_conjL1_un.csv,Test_Conj_UnsyncL1.csv,ConjL1_unsync_norm.wav,ne,120:124,orange,Online_conjL1_un//dNE25.none.wav,none,,,0,0,0,0,0,13,13,19,0,0,0,1,,,,,,,,,,,,,,,,,,,,,,,,,,,,,,,,,,,,,,,,,,,,,,,,,,,,,,,46.96940529999847,46.96940529999847,0.09866840000904631,46.96940529999847,46.96940529999847,46.96940529999847,None,y,0.020828800013987347,,,,,,,,,,,,,,,,,,,,,,,,,,,,,,,,442656,001,2023-06-02_17h14.22.673,Pilot_online_tryings,2022.2.5,None,
ConjL1_uns.csv,dir_Online_conjL1_un.csv,Test_Conj_UnsyncL1.csv,ConjL1_unsync_norm.wav,ne,120:124,orange,Online_conjL1_un//dNE27.444.wav,444.0,,,0,0,0,0,0,13,13,19,0,1,1,3,,,,,,,,,,,,,,,,,,,,,,,,,,,,,,,,,,,,,,,,,,,,,,,,,,,,,,,,,0.019165599995176308,47.04211729999224,47.04211729999224,47.04211729999224,None,y,0.10701870000048075,,,,,,,,,,,,,,,,,,,,,,,,,,,,,,,,442656,001,2023-06-02_17h14.22.673,Pilot_online_tryings,2022.2.5,None,
ConjL1_uns.csv,dir_Online_conjL1_un.csv,Test_Conj_UnsyncL1.csv,ConjL1_unsync_norm.wav,ne,120:124,orange,Online_conjL1_un//dNE24.222.wav,222.0,,,0,0,0,0,0,13,13,19,0,2,2,0,,,,,,,,,,,,,,,,,,,,,,,,,,,,,,,,,,,,,,,,,,,,,,,,,,,,,,,,,0.016445400004158728,47.20149599999422,47.20149599999422,47.20149599999422,None,y,0.10806670000602026,,,,,,,,,,,,,,,,,,,,,,,,,,,,,,,,442656,001,2023-06-02_17h14.22.673,Pilot_online_tryings,2022.2.5,None,
ConjL1_uns.csv,dir_Online_conjL1_un.csv,Test_Conj_UnsyncL1.csv,ConjL1_unsync_norm.wav,ne,120:124,orange,Online_conjL1_un//dNE26.444.wav,444.0,,,0,0,0,0,0,13,13,19,0,3,3,2,,,,,,,,,,,,,,,,,,,,,,,,,,,,,,,,,,,,,,,,,,,,,,,,,,,,,,,,,0.016108099996927194,47.35242280000239,47.35242280000239,47.35242280000239,None,y,0.11640420000185259,,,,,,,,,,,,,,,,,,,,,,,,,,,,,,,,442656,001,2023-06-02_17h14.22.673,Pilot_online_tryings,2022.2.5,None,
ConjL1_uns.csv,dir_Online_conjL1_un.csv,Test_Conj_UnsyncL1.csv,ConjL1_unsync_norm.wav,ne,120:124,orange,,,,,0,0,0,0,0,13,13,19,,,,,,,,,,,,,,,,,,,,,,,,,,,,,,,,,,,,,,,,,,,,,,,,,,,,,,,,,,,,,,,,,,,,,,,,,,,,,,,,,,,,,,,,,,,,,,,,,,,442656,001,2023-06-02_17h14.22.673,Pilot_online_tryings,2022.2.5,None,
ConjL1_uns.csv,dir_Online_conjL1_un.csv,Test_Conj_UnsyncL1.csv,ConjL1_unsync_norm.wav,ro,80:84,green,Online_conjL1_un//cRO19.1110.wav,1110.0,,,0,0,0,0,0,14,14,26,0,0,0,3,,,,,,,,,,,,,,,,,,,,,,,,,,,,,,,,,,,,,,,,,,,,,,,,,,,,,,,47.55195090000052,47.55195090000052,0.053212400001939386,47.55195090000052,47.55195090000052,47.55195090000052,None,y,0.04953849999583326,,,,,,,,,,,,,,,,,,,,,,,,,,,,,,,,442656,001,2023-06-02_17h14.22.673,Pilot_online_tryings,2022.2.5,None,
ConjL1_uns.csv,dir_Online_conjL1_un.csv,Test_Conj_UnsyncL1.csv,ConjL1_unsync_norm.wav,ro,80:84,green,Online_conjL1_un//cRO17.1332.wav,1332.0,,,0,0,0,0,0,14,14,26,0,1,1,1,,,,,,,,,,,,,,,,,,,,,,,,,,,,,,,,,,,,,,,,,,,,,,,,,,,,,,,,,0.03934339999977965,47.65645100000256,47.65645100000256,47.65645100000256,None,y,0.10435639999923296,,,,,,,,,,,,,,,,,,,,,,,,,,,,,,,,442656,001,2023-06-02_17h14.22.673,Pilot_online_tryings,2022.2.5,None,
ConjL1_uns.csv,dir_Online_conjL1_un.csv,Test_Conj_UnsyncL1.csv,ConjL1_unsync_norm.wav,ro,80:84,green,Online_conjL1_un//cRO18.444.wav,444.0,,,0,0,0,0,0,14,14,26,0,2,2,2,,,,,,,,,,,,,,,,,,,,,,,,,,,,,,,,,,,,,,,,,,,,,,,,,,,,,,,,,0.020089500001631677,47.82105210000009,47.82105210000009,47.82105210000009,None,y,0.09571300000243355,,,,,,,,,,,,,,,,,,,,,,,,,,,,,,,,442656,001,2023-06-02_17h14.22.673,Pilot_online_tryings,2022.2.5,None,
ConjL1_uns.csv,dir_Online_conjL1_un.csv,Test_Conj_UnsyncL1.csv,ConjL1_unsync_norm.wav,ro,80:84,green,Online_conjL1_un//cRO16.none.wav,none,,,0,0,0,0,0,14,14,26,0,3,3,0,,,,,,,,,,,,,,,,,,,,,,,,,,,,,,,,,,,,,,,,,,,,,,,,,,,,,,,,,0.028865899992524646,47.96196549999877,47.96196549999877,47.96196549999877,None,y,0.106754299995373,,,,,,,,,,,,,,,,,,,,,,,,,,,,,,,,442656,001,2023-06-02_17h14.22.673,Pilot_online_tryings,2022.2.5,None,
ConjL1_uns.csv,dir_Online_conjL1_un.csv,Test_Conj_UnsyncL1.csv,ConjL1_unsync_norm.wav,ro,80:84,green,,,,,0,0,0,0,0,14,14,26,,,,,,,,,,,,,,,,,,,,,,,,,,,,,,,,,,,,,,,,,,,,,,,,,,,,,,,,,,,,,,,,,,,,,,,,,,,,,,,,,,,,,,,,,,,,,,,,,,,442656,001,2023-06-02_17h14.22.673,Pilot_online_tryings,2022.2.5,None,
ConjL1_uns.csv,dir_Online_conjL1_un.csv,Test_Conj_UnsyncL1.csv,ConjL1_unsync_norm.wav,ta,48:52,blue,Online_conjL1_un//bTA19.none.wav,none,,,0,0,0,0,0,15,15,14,0,0,0,3,,,,,,,,,,,,,,,,,,,,,,,,,,,,,,,,,,,,,,,,,,,,,,,,,,,,,,,48.17675299999246,48.17675299999246,0.06984430000011344,48.17675299999246,48.17675299999246,48.17675299999246,None,y,0.03340469999238849,,,,,,,,,,,,,,,,,,,,,,,,,,,,,,,,442656,001,2023-06-02_17h14.22.673,Pilot_online_tryings,2022.2.5,None,
ConjL1_uns.csv,dir_Online_conjL1_un.csv,Test_Conj_UnsyncL1.csv,ConjL1_unsync_norm.wav,ta,48:52,blue,Online_conjL1_un//bTA18.888.wav,888.0,,,0,0,0,0,0,15,15,14,0,1,1,2,,,,,,,,,,,,,,,,,,,,,,,,,,,,,,,,,,,,,,,,,,,,,,,,,,,,,,,,,0.007754300007945858,48.25768139999127,48.25768139999127,48.25768139999127,None,y,0.12401000001409557,,,,,,,,,,,,,,,,,,,,,,,,,,,,,,,,442656,001,2023-06-02_17h14.22.673,Pilot_online_tryings,2022.2.5,None,
ConjL1_uns.csv,dir_Online_conjL1_un.csv,Test_Conj_UnsyncL1.csv,ConjL1_unsync_norm.wav,ta,48:52,blue,Online_conjL1_un//bTA17.888.wav,888.0,,,0,0,0,0,0,15,15,14,0,2,2,1,,,,,,,,,,,,,,,,,,,,,,,,,,,,,,,,,,,,,,,,,,,,,,,,,,,,,,,,,0.010463200000231154,48.41423359999317,48.41423359999317,48.41423359999317,None,y,0.11052859999472275,,,,,,,,,,,,,,,,,,,,,,,,,,,,,,,,442656,001,2023-06-02_17h14.22.673,Pilot_online_tryings,2022.2.5,None,
ConjL1_uns.csv,dir_Online_conjL1_un.csv,Test_Conj_UnsyncL1.csv,ConjL1_unsync_norm.wav,ta,48:52,blue,Online_conjL1_un//bTA16.0.wav,0.0,,,0,0,0,0,0,15,15,14,0,3,3,0,,,,,,,,,,,,,,,,,,,,,,,,,,,,,,,,,,,,,,,,,,,,,,,,,,,,,,,,,0.009263999992981553,48.57124859999749,48.57124859999749,48.57124859999749,None,y,0.12687680001545232,,,,,,,,,,,,,,,,,,,,,,,,,,,,,,,,442656,001,2023-06-02_17h14.22.673,Pilot_online_tryings,2022.2.5,None,
ConjL1_uns.csv,dir_Online_conjL1_un.csv,Test_Conj_UnsyncL1.csv,ConjL1_unsync_norm.wav,ta,48:52,blue,,,,,0,0,0,0,0,15,15,14,,,,,,,,,,,,,,,,,,,,,,,,,,,,,,,,,,,,,,,,,,,,,,,,,,,,,,,,,,,,,,,,,,,,,,,,,,,,,,,,,,,,,,,,,,,,,,,,,,,442656,001,2023-06-02_17h14.22.673,Pilot_online_tryings,2022.2.5,None,
ConjL1_uns.csv,dir_Online_conjL1_un.csv,Test_Conj_UnsyncL1.csv,ConjL1_unsync_norm.wav,ki,4:8,red,Online_conjL1_un//aKI5.1776.wav,1776.0,,,0,0,0,0,0,16,16,29,0,0,0,1,,,,,,,,,,,,,,,,,,,,,,,,,,,,,,,,,,,,,,,,,,,,,,,,,,,,,,,48.79526579999947,48.79526579999947,0.04961770000227261,48.79526579999947,48.79526579999947,48.79526579999947,None,y,0.05919640000502113,,,,,,,,,,,,,,,,,,,,,,,,,,,,,,,,442656,001,2023-06-02_17h14.22.673,Pilot_online_tryings,2022.2.5,None,
ConjL1_uns.csv,dir_Online_conjL1_un.csv,Test_Conj_UnsyncL1.csv,ConjL1_unsync_norm.wav,ki,4:8,red,Online_conjL1_un//aKI4.none.wav,none,,,0,0,0,0,0,16,16,29,0,1,1,0,,,,,,,,,,,,,,,,,,,,,,,,,,,,,,,,,,,,,,,,,,,,,,,,,,,,,,,,,0.019340400001965463,48.886784399990574,48.886784399990574,48.886784399990574,None,y,0.12675570001010783,,,,,,,,,,,,,,,,,,,,,,,,,,,,,,,,442656,001,2023-06-02_17h14.22.673,Pilot_online_tryings,2022.2.5,None,
ConjL1_uns.csv,dir_Online_conjL1_un.csv,Test_Conj_UnsyncL1.csv,ConjL1_unsync_norm.wav,ki,4:8,red,Online_conjL1_un//aKI7.888.wav,888.0,,,0,0,0,0,0,16,16,29,0,2,2,3,,,,,,,,,,,,,,,,,,,,,,,,,,,,,,,,,,,,,,,,,,,,,,,,,,,,,,,,,0.03698049999366049,49.08866059999855,49.08866059999855,49.08866059999855,None,y,0.05893310000828933,,,,,,,,,,,,,,,,,,,,,,,,,,,,,,,,442656,001,2023-06-02_17h14.22.673,Pilot_online_tryings,2022.2.5,None,
ConjL1_uns.csv,dir_Online_conjL1_un.csv,Test_Conj_UnsyncL1.csv,ConjL1_unsync_norm.wav,ki,4:8,red,Online_conjL1_un//aKI6.1776.wav,1776.0,,,0,0,0,0,0,16,16,29,0,3,3,2,,,,,,,,,,,,,,,,,,,,,,,,,,,,,,,,,,,,,,,,,,,,,,,,,,,,,,,,,0.0155596999975387,49.194616900000256,49.194616900000256,49.194616900000256,None,y,0.09847420000005513,,,,,,,,,,,,,,,,,,,,,,,,,,,,,,,,442656,001,2023-06-02_17h14.22.673,Pilot_online_tryings,2022.2.5,None,
ConjL1_uns.csv,dir_Online_conjL1_un.csv,Test_Conj_UnsyncL1.csv,ConjL1_unsync_norm.wav,ki,4:8,red,,,,,0,0,0,0,0,16,16,29,,,,,,,,,,,,,,,,,,,,,,,,,,,,,,,,,,,,,,,,,,,,,,,,,,,,,,,,,,,,,,,,,,,,,,,,,,,,,,,,,,,,,,,,,,,,,,,,,,,442656,001,2023-06-02_17h14.22.673,Pilot_online_tryings,2022.2.5,None,
ConjL1_uns.csv,dir_Online_conjL1_un.csv,Test_Conj_UnsyncL1.csv,ConjL1_unsync_norm.wav,ne,108:112,orange,Online_conjL1_un//dNE13.222.wav,222.0,,,0,0,0,0,0,17,17,1,0,0,0,1,,,,,,,,,,,,,,,,,,,,,,,,,,,,,,,,,,,,,,,,,,,,,,,,,,,,,,,49.388295700002345,49.388295700002345,0.045997000008355826,49.388295700002345,49.388295700002345,49.388295700002345,None,y,0.06472500000381842,,,,,,,,,,,,,,,,,,,,,,,,,,,,,,,,442656,001,2023-06-02_17h14.22.673,Pilot_online_tryings,2022.2.5,None,
ConjL1_uns.csv,dir_Online_conjL1_un.csv,Test_Conj_UnsyncL1.csv,ConjL1_unsync_norm.wav,ne,108:112,orange,Online_conjL1_un//dNE14.none.wav,none,,,0,0,0,0,0,17,17,1,0,1,1,2,,,,,,,,,,,,,,,,,,,,,,,,,,,,,,,,,,,,,,,,,,,,,,,,,,,,,,,,,0.025516599998809397,49.51796489999106,49.51796489999106,49.51796489999106,None,y,0.09250880000763573,,,,,,,,,,,,,,,,,,,,,,,,,,,,,,,,442656,001,2023-06-02_17h14.22.673,Pilot_online_tryings,2022.2.5,None,
ConjL1_uns.csv,dir_Online_conjL1_un.csv,Test_Conj_UnsyncL1.csv,ConjL1_unsync_norm.wav,ne,108:112,orange,Online_conjL1_un//dNE12.none.wav,none,,,0,0,0,0,0,17,17,1,0,2,2,0,,,,,,,,,,,,,,,,,,,,,,,,,,,,,,,,,,,,,,,,,,,,,,,,,,,,,,,,,0.023836199994548224,49.67132280000078,49.67132280000078,49.67132280000078,None,y,0.11779390000447165,,,,,,,,,,,,,,,,,,,,,,,,,,,,,,,,442656,001,2023-06-02_17h14.22.673,Pilot_online_tryings,2022.2.5,None,
ConjL1_uns.csv,dir_Online_conjL1_un.csv,Test_Conj_UnsyncL1.csv,ConjL1_unsync_norm.wav,ne,108:112,orange,Online_conjL1_un//dNE15.none.wav,none,,,0,0,0,0,0,17,17,1,0,3,3,3,,,,,,,,,,,,,,,,,,,,,,,,,,,,,,,,,,,,,,,,,,,,,,,,,,,,,,,,,0.01555470000312198,49.85068909999973,49.85068909999973,49.85068909999973,None,y,0.07169000001158565,,,,,,,,,,,,,,,,,,,,,,,,,,,,,,,,442656,001,2023-06-02_17h14.22.673,Pilot_online_tryings,2022.2.5,None,
ConjL1_uns.csv,dir_Online_conjL1_un.csv,Test_Conj_UnsyncL1.csv,ConjL1_unsync_norm.wav,ne,108:112,orange,,,,,0,0,0,0,0,17,17,1,,,,,,,,,,,,,,,,,,,,,,,,,,,,,,,,,,,,,,,,,,,,,,,,,,,,,,,,,,,,,,,,,,,,,,,,,,,,,,,,,,,,,,,,,,,,,,,,,,,442656,001,2023-06-02_17h14.22.673,Pilot_online_tryings,2022.2.5,None,
ConjL1_uns.csv,dir_Online_conjL1_un.csv,Test_Conj_UnsyncL1.csv,ConjL1_unsync_norm.wav,ki,12:16,red,Online_conjL1_un//aKI13.888.wav,888.0,,,0,0,0,0,0,18,18,5,0,0,0,1,,,,,,,,,,,,,,,,,,,,,,,,,,,,,,,,,,,,,,,,,,,,,,,,,,,,,,,50.01777510000102,50.01777510000102,0.047248500006389804,50.01777510000102,50.01777510000102,50.01777510000102,None,y,0.07697530000586994,,,,,,,,,,,,,,,,,,,,,,,,,,,,,,,,442656,001,2023-06-02_17h14.22.673,Pilot_online_tryings,2022.2.5,None,
ConjL1_uns.csv,dir_Online_conjL1_un.csv,Test_Conj_UnsyncL1.csv,ConjL1_unsync_norm.wav,ki,12:16,red,Online_conjL1_un//aKI15.1776.wav,1776.0,,,0,0,0,0,0,18,18,5,0,1,1,3,,,,,,,,,,,,,,,,,,,,,,,,,,,,,,,,,,,,,,,,,,,,,,,,,,,,,,,,,0.033705199995893054,50.15212969999993,50.15212969999993,50.15212969999993,None,y,0.21956660000432748,,,,,,,,,,,,,,,,,,,,,,,,,,,,,,,,442656,001,2023-06-02_17h14.22.673,Pilot_online_tryings,2022.2.5,None,
ConjL1_uns.csv,dir_Online_conjL1_un.csv,Test_Conj_UnsyncL1.csv,ConjL1_unsync_norm.wav,ki,12:16,red,Online_conjL1_un//aKI12.none.wav,none,,,0,0,0,0,0,18,18,5,0,2,2,0,,,,,,,,,,,,,,,,,,,,,,,,,,,,,,,,,,,,,,,,,,,,,,,,,,,,,,,,,0.015092699992237613,50.44579969999904,50.44579969999904,50.44579969999904,None,y,0.09794730000430718,,,,,,,,,,,,,,,,,,,,,,,,,,,,,,,,442656,001,2023-06-02_17h14.22.673,Pilot_online_tryings,2022.2.5,None,
ConjL1_uns.csv,dir_Online_conjL1_un.csv,Test_Conj_UnsyncL1.csv,ConjL1_unsync_norm.wav,ki,12:16,red,Online_conjL1_un//aKI14.none.wav,none,,,0,0,0,0,0,18,18,5,0,3,3,2,,,,,,,,,,,,,,,,,,,,,,,,,,,,,,,,,,,,,,,,,,,,,,,,,,,,,,,,,0.02857189999485854,50.580477900002734,50.580477900002734,50.580477900002734,None,y,0.1366115999990143,,,,,,,,,,,,,,,,,,,,,,,,,,,,,,,,442656,001,2023-06-02_17h14.22.673,Pilot_online_tryings,2022.2.5,None,
ConjL1_uns.csv,dir_Online_conjL1_un.csv,Test_Conj_UnsyncL1.csv,ConjL1_unsync_norm.wav,ki,12:16,red,,,,,0,0,0,0,0,18,18,5,,,,,,,,,,,,,,,,,,,,,,,,,,,,,,,,,,,,,,,,,,,,,,,,,,,,,,,,,,,,,,,,,,,,,,,,,,,,,,,,,,,,,,,,,,,,,,,,,,,442656,001,2023-06-02_17h14.22.673,Pilot_online_tryings,2022.2.5,None,
ConjL1_uns.csv,dir_Online_conjL1_un.csv,Test_Conj_UnsyncL1.csv,ConjL1_unsync_norm.wav,ki,20:24,red,Online_conjL1_un//aKI22.none.wav,none,,,0,0,0,0,0,19,19,17,0,0,0,2,,,,,,,,,,,,,,,,,,,,,,,,,,,,,,,,,,,,,,,,,,,,,,,,,,,,,,,50.83594099999755,50.83594099999755,0.08830439999292139,50.83594099999755,50.83594099999755,50.83594099999755,None,y,0.046353400000953116,,,,,,,,,,,,,,,,,,,,,,,,,,,,,,,,442656,001,2023-06-02_17h14.22.673,Pilot_online_tryings,2022.2.5,None,
ConjL1_uns.csv,dir_Online_conjL1_un.csv,Test_Conj_UnsyncL1.csv,ConjL1_unsync_norm.wav,ki,20:24,red,Online_conjL1_un//aKI21.none.wav,none,,,0,0,0,0,0,19,19,17,0,1,1,1,,,,,,,,,,,,,,,,,,,,,,,,,,,,,,,,,,,,,,,,,,,,,,,,,,,,,,,,,0.015272800010279752,50.92111450000084,50.92111450000084,50.92111450000084,None,y,0.12146210001083091,,,,,,,,,,,,,,,,,,,,,,,,,,,,,,,,442656,001,2023-06-02_17h14.22.673,Pilot_online_tryings,2022.2.5,None,
ConjL1_uns.csv,dir_Online_conjL1_un.csv,Test_Conj_UnsyncL1.csv,ConjL1_unsync_norm.wav,ki,20:24,red,Online_conjL1_un//aKI20.1776.wav,1776.0,,,0,0,0,0,0,19,19,17,0,2,2,0,,,,,,,,,,,,,,,,,,,,,,,,,,,,,,,,,,,,,,,,,,,,,,,,,,,,,,,,,0.019869100011419505,51.0727853999997,51.0727853999997,51.0727853999997,None,y,0.1418855999945663,,,,,,,,,,,,,,,,,,,,,,,,,,,,,,,,442656,001,2023-06-02_17h14.22.673,Pilot_online_tryings,2022.2.5,None,
ConjL1_uns.csv,dir_Online_conjL1_un.csv,Test_Conj_UnsyncL1.csv,ConjL1_unsync_norm.wav,ki,20:24,red,Online_conjL1_un//aKI23.888.wav,888.0,,,0,0,0,0,0,19,19,17,0,3,3,3,,,,,,,,,,,,,,,,,,,,,,,,,,,,,,,,,,,,,,,,,,,,,,,,,,,,,,,,,0.006023099995218217,51.289780499995686,51.289780499995686,51.289780499995686,None,y,0.07305659999838099,,,,,,,,,,,,,,,,,,,,,,,,,,,,,,,,442656,001,2023-06-02_17h14.22.673,Pilot_online_tryings,2022.2.5,None,
ConjL1_uns.csv,dir_Online_conjL1_un.csv,Test_Conj_UnsyncL1.csv,ConjL1_unsync_norm.wav,ki,20:24,red,,,,,0,0,0,0,0,19,19,17,,,,,,,,,,,,,,,,,,,,,,,,,,,,,,,,,,,,,,,,,,,,,,,,,,,,,,,,,,,,,,,,,,,,,,,,,,,,,,,,,,,,,,,,,,,,,,,,,,,442656,001,2023-06-02_17h14.22.673,Pilot_online_tryings,2022.2.5,None,
ConjL1_uns.csv,dir_Online_conjL1_un.csv,Test_Conj_UnsyncL1.csv,ConjL1_unsync_norm.wav,ta,36:40,blue,Online_conjL1_un//bTA6.0.wav,0.0,,,0,0,0,0,0,20,20,15,0,0,0,2,,,,,,,,,,,,,,,,,,,,,,,,,,,,,,,,,,,,,,,,,,,,,,,,,,,,,,,51.48554979999608,51.48554979999608,0.08203730000241194,51.48554979999608,51.48554979999608,51.48554979999608,None,y,0.05673880000540521,,,,,,,,,,,,,,,,,,,,,,,,,,,,,,,,442656,001,2023-06-02_17h14.22.673,Pilot_online_tryings,2022.2.5,None,
ConjL1_uns.csv,dir_Online_conjL1_un.csv,Test_Conj_UnsyncL1.csv,ConjL1_unsync_norm.wav,ta,36:40,blue,Online_conjL1_un//bTA5.888.wav,888.0,,,0,0,0,0,0,20,20,15,0,1,1,1,,,,,,,,,,,,,,,,,,,,,,,,,,,,,,,,,,,,,,,,,,,,,,,,,,,,,,,,,0.01831800000218209,51.60217759999796,51.60217759999796,51.60217759999796,None,y,0.09205720000318252,,,,,,,,,,,,,,,,,,,,,,,,,,,,,,,,442656,001,2023-06-02_17h14.22.673,Pilot_online_tryings,2022.2.5,None,
ConjL1_uns.csv,dir_Online_conjL1_un.csv,Test_Conj_UnsyncL1.csv,ConjL1_unsync_norm.wav,ta,36:40,blue,Online_conjL1_un//bTA7.0.wav,0.0,,,0,0,0,0,0,20,20,15,0,2,2,3,,,,,,,,,,,,,,,,,,,,,,,,,,,,,,,,,,,,,,,,,,,,,,,,,,,,,,,,,0.01436709999688901,51.729115599999204,51.729115599999204,51.729115599999204,None,y,0.13312990000122227,,,,,,,,,,,,,,,,,,,,,,,,,,,,,,,,442656,001,2023-06-02_17h14.22.673,Pilot_online_tryings,2022.2.5,None,
ConjL1_uns.csv,dir_Online_conjL1_un.csv,Test_Conj_UnsyncL1.csv,ConjL1_unsync_norm.wav,ta,36:40,blue,Online_conjL1_un//bTA4.888.wav,888.0,,,0,0,0,0,0,20,20,15,0,3,3,0,,,,,,,,,,,,,,,,,,,,,,,,,,,,,,,,,,,,,,,,,,,,,,,,,,,,,,,,,0.006806199991842732,51.91861159999098,51.91861159999098,51.91861159999098,None,y,0.10909080000419635,,,,,,,,,,,,,,,,,,,,,,,,,,,,,,,,442656,001,2023-06-02_17h14.22.673,Pilot_online_tryings,2022.2.5,None,
ConjL1_uns.csv,dir_Online_conjL1_un.csv,Test_Conj_UnsyncL1.csv,ConjL1_unsync_norm.wav,ta,36:40,blue,,,,,0,0,0,0,0,20,20,15,,,,,,,,,,,,,,,,,,,,,,,,,,,,,,,,,,,,,,,,,,,,,,,,,,,,,,,,,,,,,,,,,,,,,,,,,,,,,,,,,,,,,,,,,,,,,,,,,,,442656,001,2023-06-02_17h14.22.673,Pilot_online_tryings,2022.2.5,None,
ConjL1_uns.csv,dir_Online_conjL1_un.csv,Test_Conj_UnsyncL1.csv,ConjL1_unsync_norm.wav,ne,104:108,orange,Online_conjL1_un//dNE10.none.wav,none,,,0,0,0,0,0,21,21,21,0,0,0,2,,,,,,,,,,,,,,,,,,,,,,,,,,,,,,,,,,,,,,,,,,,,,,,,,,,,,,,52.14459719999286,52.14459719999286,0.05448669999896083,52.14459719999286,52.14459719999286,52.14459719999286,None,y,0.350165099996957,,,,,,,,,,,,,,,,,,,,,,,,,,,,,,,,442656,001,2023-06-02_17h14.22.673,Pilot_online_tryings,2022.2.5,None,
ConjL1_uns.csv,dir_Online_conjL1_un.csv,Test_Conj_UnsyncL1.csv,ConjL1_unsync_norm.wav,ne,104:108,orange,Online_conjL1_un//dNE8.0.wav,0.0,,,0,0,0,0,0,21,21,21,0,1,1,0,,,,,,,,,,,,,,,,,,,,,,,,,,,,,,,,,,,,,,,,,,,,,,,,,,,,,,,,,0.028238400002010167,52.55239959999744,52.55239959999744,52.55239959999744,None,y,0.1290924999921117,,,,,,,,,,,,,,,,,,,,,,,,,,,,,,,,442656,001,2023-06-02_17h14.22.673,Pilot_online_tryings,2022.2.5,None,
ConjL1_uns.csv,dir_Online_conjL1_un.csv,Test_Conj_UnsyncL1.csv,ConjL1_unsync_norm.wav,ne,104:108,orange,Online_conjL1_un//dNE9.222.wav,222.0,,,0,0,0,0,0,21,21,21,0,2,2,1,,,,,,,,,,,,,,,,,,,,,,,,,,,,,,,,,,,,,,,,,,,,,,,,,,,,,,,,,0.028331599998637103,52.76860349999333,52.76860349999333,52.76860349999333,None,y,0.08462670000153594,,,,,,,,,,,,,,,,,,,,,,,,,,,,,,,,442656,001,2023-06-02_17h14.22.673,Pilot_online_tryings,2022.2.5,None,
ConjL1_uns.csv,dir_Online_conjL1_un.csv,Test_Conj_UnsyncL1.csv,ConjL1_unsync_norm.wav,ne,104:108,orange,Online_conjL1_un//dNE11.1776.wav,1776.0,,,0,0,0,0,0,21,21,21,0,3,3,3,,,,,,,,,,,,,,,,,,,,,,,,,,,,,,,,,,,,,,,,,,,,,,,,,,,,,,,,,0.017968399988603778,52.88356659999408,52.88356659999408,52.88356659999408,None,y,0.13751349999802187,,,,,,,,,,,,,,,,,,,,,,,,,,,,,,,,442656,001,2023-06-02_17h14.22.673,Pilot_online_tryings,2022.2.5,None,
ConjL1_uns.csv,dir_Online_conjL1_un.csv,Test_Conj_UnsyncL1.csv,ConjL1_unsync_norm.wav,ne,104:108,orange,,,,,0,0,0,0,0,21,21,21,,,,,,,,,,,,,,,,,,,,,,,,,,,,,,,,,,,,,,,,,,,,,,,,,,,,,,,,,,,,,,,,,,,,,,,,,,,,,,,,,,,,,,,,,,,,,,,,,,,442656,001,2023-06-02_17h14.22.673,Pilot_online_tryings,2022.2.5,None,
ConjL1_uns.csv,dir_Online_conjL1_un.csv,Test_Conj_UnsyncL1.csv,ConjL1_unsync_norm.wav,ki,28:32,red,Online_conjL1_un//aKI29.none.wav,none,,,0,0,0,0,0,22,22,6,0,0,0,1,,,,,,,,,,,,,,,,,,,,,,,,,,,,,,,,,,,,,,,,,,,,,,,,,,,,,,,53.11747219999961,53.11747219999961,0.05039119999855757,53.11747219999961,53.11747219999961,53.11747219999961,None,y,0.06266589999722783,,,,,,,,,,,,,,,,,,,,,,,,,,,,,,,,442656,001,2023-06-02_17h14.22.673,Pilot_online_tryings,2022.2.5,None,
ConjL1_uns.csv,dir_Online_conjL1_un.csv,Test_Conj_UnsyncL1.csv,ConjL1_unsync_norm.wav,ki,28:32,red,Online_conjL1_un//aKI28.none.wav,none,,,0,0,0,0,0,22,22,6,0,1,1,0,,,,,,,,,,,,,,,,,,,,,,,,,,,,,,,,,,,,,,,,,,,,,,,,,,,,,,,,,0.03230449999682605,53.2380506000045,53.2380506000045,53.2380506000045,None,y,0.10650860000168905,,,,,,,,,,,,,,,,,,,,,,,,,,,,,,,,442656,001,2023-06-02_17h14.22.673,Pilot_online_tryings,2022.2.5,None,
ConjL1_uns.csv,dir_Online_conjL1_un.csv,Test_Conj_UnsyncL1.csv,ConjL1_unsync_norm.wav,ki,28:32,red,Online_conjL1_un//aKI31.none.wav,none,,,0,0,0,0,0,22,22,6,0,2,2,3,,,,,,,,,,,,,,,,,,,,,,,,,,,,,,,,,,,,,,,,,,,,,,,,,,,,,,,,,0.021559999993769452,53.38807469999301,53.38807469999301,53.38807469999301,None,y,0.11773110000649467,,,,,,,,,,,,,,,,,,,,,,,,,,,,,,,,442656,001,2023-06-02_17h14.22.673,Pilot_online_tryings,2022.2.5,None,
ConjL1_uns.csv,dir_Online_conjL1_un.csv,Test_Conj_UnsyncL1.csv,ConjL1_unsync_norm.wav,ki,28:32,red,Online_conjL1_un//aKI30.1776.wav,1776.0,,,0,0,0,0,0,22,22,6,0,3,3,2,,,,,,,,,,,,,,,,,,,,,,,,,,,,,,,,,,,,,,,,,,,,,,,,,,,,,,,,,0.012002999996184371,53.53950800000166,53.53950800000166,53.53950800000166,None,y,0.12724300000991207,,,,,,,,,,,,,,,,,,,,,,,,,,,,,,,,442656,001,2023-06-02_17h14.22.673,Pilot_online_tryings,2022.2.5,None,
ConjL1_uns.csv,dir_Online_conjL1_un.csv,Test_Conj_UnsyncL1.csv,ConjL1_unsync_norm.wav,ki,28:32,red,,,,,0,0,0,0,0,22,22,6,,,,,,,,,,,,,,,,,,,,,,,,,,,,,,,,,,,,,,,,,,,,,,,,,,,,,,,,,,,,,,,,,,,,,,,,,,,,,,,,,,,,,,,,,,,,,,,,,,,442656,001,2023-06-02_17h14.22.673,Pilot_online_tryings,2022.2.5,None,
ConjL1_uns.csv,dir_Online_conjL1_un.csv,Test_Conj_UnsyncL1.csv,ConjL1_unsync_norm.wav,ro,88:92,green,Online_conjL1_un//cRO26.none.wav,none,,,0,0,0,0,0,23,23,20,0,0,0,2,,,,,,,,,,,,,,,,,,,,,,,,,,,,,,,,,,,,,,,,,,,,,,,,,,,,,,,53.7847036000021,53.7847036000021,0.07549400000425521,53.7847036000021,53.7847036000021,53.7847036000021,None,y,0.030858800004352815,,,,,,,,,,,,,,,,,,,,,,,,,,,,,,,,442656,001,2023-06-02_17h14.22.673,Pilot_online_tryings,2022.2.5,None,
ConjL1_uns.csv,dir_Online_conjL1_un.csv,Test_Conj_UnsyncL1.csv,ConjL1_unsync_norm.wav,ro,88:92,green,Online_conjL1_un//cRO24.none.wav,none,,,0,0,0,0,0,23,23,20,0,1,1,0,,,,,,,,,,,,,,,,,,,,,,,,,,,,,,,,,,,,,,,,,,,,,,,,,,,,,,,,,0.019383999999263324,53.858462999996846,53.858462999996846,53.858462999996846,None,y,0.13220039999578148,,,,,,,,,,,,,,,,,,,,,,,,,,,,,,,,442656,001,2023-06-02_17h14.22.673,Pilot_online_tryings,2022.2.5,None,
ConjL1_uns.csv,dir_Online_conjL1_un.csv,Test_Conj_UnsyncL1.csv,ConjL1_unsync_norm.wav,ro,88:92,green,Online_conjL1_un//cRO27.none.wav,none,,,0,0,0,0,0,23,23,20,0,2,2,3,,,,,,,,,,,,,,,,,,,,,,,,,,,,,,,,,,,,,,,,,,,,,,,,,,,,,,,,,0.04017310000199359,54.060605099992245,54.060605099992245,54.060605099992245,None,y,0.06684100000711624,,,,,,,,,,,,,,,,,,,,,,,,,,,,,,,,442656,001,2023-06-02_17h14.22.673,Pilot_online_tryings,2022.2.5,None,
ConjL1_uns.csv,dir_Online_conjL1_un.csv,Test_Conj_UnsyncL1.csv,ConjL1_unsync_norm.wav,ro,88:92,green,Online_conjL1_un//cRO25.444.wav,444.0,,,0,0,0,0,0,23,23,20,0,3,3,1,,,,,,,,,,,,,,,,,,,,,,,,,,,,,,,,,,,,,,,,,,,,,,,,,,,,,,,,,0.03459909999219235,54.18483319999359,54.18483319999359,54.18483319999359,None,y,0.1123385000100825,,,,,,,,,,,,,,,,,,,,,,,,,,,,,,,,442656,001,2023-06-02_17h14.22.673,Pilot_online_tryings,2022.2.5,None,
ConjL1_uns.csv,dir_Online_conjL1_un.csv,Test_Conj_UnsyncL1.csv,ConjL1_unsync_norm.wav,ro,88:92,green,,,,,0,0,0,0,0,23,23,20,,,,,,,,,,,,,,,,,,,,,,,,,,,,,,,,,,,,,,,,,,,,,,,,,,,,,,,,,,,,,,,,,,,,,,,,,,,,,,,,,,,,,,,,,,,,,,,,,,,442656,001,2023-06-02_17h14.22.673,Pilot_online_tryings,2022.2.5,None,
ConjL1_uns.csv,dir_Online_conjL1_un.csv,Test_Conj_UnsyncL1.csv,ConjL1_unsync_norm.wav,ta,52:56,blue,Online_conjL1_un//bTA23.888.wav,888.0,,,0,0,0,0,0,24,24,31,0,0,0,3,,,,,,,,,,,,,,,,,,,,,,,,,,,,,,,,,,,,,,,,,,,,,,,,,,,,,,,54.38648169999942,54.38648169999942,0.04700010000669863,54.38648169999942,54.38648169999942,54.38648169999942,None,y,0.07411660000798292,,,,,,,,,,,,,,,,,,,,,,,,,,,,,,,,442656,001,2023-06-02_17h14.22.673,Pilot_online_tryings,2022.2.5,None,
ConjL1_uns.csv,dir_Online_conjL1_un.csv,Test_Conj_UnsyncL1.csv,ConjL1_unsync_norm.wav,ta,52:56,blue,Online_conjL1_un//bTA20.0.wav,0.0,,,0,0,0,0,0,24,24,31,0,1,1,0,,,,,,,,,,,,,,,,,,,,,,,,,,,,,,,,,,,,,,,,,,,,,,,,,,,,,,,,,0.01554339998983778,54.508924699999625,54.508924699999625,54.508924699999625,None,y,0.10944919999747071,,,,,,,,,,,,,,,,,,,,,,,,,,,,,,,,442656,001,2023-06-02_17h14.22.673,Pilot_online_tryings,2022.2.5,None,
ConjL1_uns.csv,dir_Online_conjL1_un.csv,Test_Conj_UnsyncL1.csv,ConjL1_unsync_norm.wav,ta,52:56,blue,Online_conjL1_un//bTA21.none.wav,none,,,0,0,0,0,0,24,24,31,0,2,2,1,,,,,,,,,,,,,,,,,,,,,,,,,,,,,,,,,,,,,,,,,,,,,,,,,,,,,,,,,0.02220829999714624,54.67386509999051,54.67386509999051,54.67386509999051,None,y,0.12098570000671316,,,,,,,,,,,,,,,,,,,,,,,,,,,,,,,,442656,001,2023-06-02_17h14.22.673,Pilot_online_tryings,2022.2.5,None,
ConjL1_uns.csv,dir_Online_conjL1_un.csv,Test_Conj_UnsyncL1.csv,ConjL1_unsync_norm.wav,ta,52:56,blue,Online_conjL1_un//bTA22.none.wav,none,,,0,0,0,0,0,24,24,31,0,3,3,2,,,,,,,,,,,,,,,,,,,,,,,,,,,,,,,,,,,,,,,,,,,,,,,,,,,,,,,,,0.025283900002250448,54.828471599990735,54.828471599990735,54.828471599990735,None,y,0.10830019999411888,,,,,,,,,,,,,,,,,,,,,,,,,,,,,,,,442656,001,2023-06-02_17h14.22.673,Pilot_online_tryings,2022.2.5,None,
ConjL1_uns.csv,dir_Online_conjL1_un.csv,Test_Conj_UnsyncL1.csv,ConjL1_unsync_norm.wav,ta,52:56,blue,,,,,0,0,0,0,0,24,24,31,,,,,,,,,,,,,,,,,,,,,,,,,,,,,,,,,,,,,,,,,,,,,,,,,,,,,,,,,,,,,,,,,,,,,,,,,,,,,,,,,,,,,,,,,,,,,,,,,,,442656,001,2023-06-02_17h14.22.673,Pilot_online_tryings,2022.2.5,None,
ConjL1_uns.csv,dir_Online_conjL1_un.csv,Test_Conj_UnsyncL1.csv,ConjL1_unsync_norm.wav,ta,56:60,blue,Online_conjL1_un//bTA26.0.wav,0.0,,,0,0,0,0,0,25,25,28,0,0,0,2,,,,,,,,,,,,,,,,,,,,,,,,,,,,,,,,,,,,,,,,,,,,,,,,,,,,,,,55.006764799996745,55.006764799996745,0.0445212999911746,55.006764799996745,55.006764799996745,55.006764799996745,None,y,0.09422930001164787,,,,,,,,,,,,,,,,,,,,,,,,,,,,,,,,442656,001,2023-06-02_17h14.22.673,Pilot_online_tryings,2022.2.5,None,
ConjL1_uns.csv,dir_Online_conjL1_un.csv,Test_Conj_UnsyncL1.csv,ConjL1_unsync_norm.wav,ta,56:60,blue,Online_conjL1_un//bTA27.none.wav,none,,,0,0,0,0,0,25,25,28,0,1,1,3,,,,,,,,,,,,,,,,,,,,,,,,,,,,,,,,,,,,,,,,,,,,,,,,,,,,,,,,,0.02197229999001138,55.13654459999816,55.13654459999816,55.13654459999816,None,y,0.11099630000535399,,,,,,,,,,,,,,,,,,,,,,,,,,,,,,,,442656,001,2023-06-02_17h14.22.673,Pilot_online_tryings,2022.2.5,None,
ConjL1_uns.csv,dir_Online_conjL1_un.csv,Test_Conj_UnsyncL1.csv,ConjL1_unsync_norm.wav,ta,56:60,blue,Online_conjL1_un//bTA24.none.wav,none,,,0,0,0,0,0,25,25,28,0,2,2,0,,,,,,,,,,,,,,,,,,,,,,,,,,,,,,,,,,,,,,,,,,,,,,,,,,,,,,,,,0.0331642999954056,55.305467600002885,55.305467600002885,55.305467600002885,None,y,0.061748200008878484,,,,,,,,,,,,,,,,,,,,,,,,,,,,,,,,442656,001,2023-06-02_17h14.22.673,Pilot_online_tryings,2022.2.5,None,
ConjL1_uns.csv,dir_Online_conjL1_un.csv,Test_Conj_UnsyncL1.csv,ConjL1_unsync_norm.wav,ta,56:60,blue,Online_conjL1_un//bTA25.none.wav,none,,,0,0,0,0,0,25,25,28,0,3,3,1,,,,,,,,,,,,,,,,,,,,,,,,,,,,,,,,,,,,,,,,,,,,,,,,,,,,,,,,,0.008139500001561828,55.413730799991754,55.413730799991754,55.413730799991754,None,y,0.10873399999400135,,,,,,,,,,,,,,,,,,,,,,,,,,,,,,,,442656,001,2023-06-02_17h14.22.673,Pilot_online_tryings,2022.2.5,None,
ConjL1_uns.csv,dir_Online_conjL1_un.csv,Test_Conj_UnsyncL1.csv,ConjL1_unsync_norm.wav,ta,56:60,blue,,,,,0,0,0,0,0,25,25,28,,,,,,,,,,,,,,,,,,,,,,,,,,,,,,,,,,,,,,,,,,,,,,,,,,,,,,,,,,,,,,,,,,,,,,,,,,,,,,,,,,,,,,,,,,,,,,,,,,,442656,001,2023-06-02_17h14.22.673,Pilot_online_tryings,2022.2.5,None,
ConjL1_uns.csv,dir_Online_conjL1_un.csv,Test_Conj_UnsyncL1.csv,ConjL1_unsync_norm.wav,ro,72:76,green,Online_conjL1_un//cRO8.none.wav,none,,,0,0,0,0,0,26,26,12,0,0,0,0,,,,,,,,,,,,,,,,,,,,,,,,,,,,,,,,,,,,,,,,,,,,,,,,,,,,,,,55.617741599999135,55.617741599999135,0.045843200001399964,55.617741599999135,55.617741599999135,55.617741599999135,None,y,0.034551899996586144,,,,,,,,,,,,,,,,,,,,,,,,,,,,,,,,442656,001,2023-06-02_17h14.22.673,Pilot_online_tryings,2022.2.5,None,
ConjL1_uns.csv,dir_Online_conjL1_un.csv,Test_Conj_UnsyncL1.csv,ConjL1_unsync_norm.wav,ro,72:76,green,Online_conjL1_un//cRO11.1110.wav,1110.0,,,0,0,0,0,0,26,26,12,0,1,1,3,,,,,,,,,,,,,,,,,,,,,,,,,,,,,,,,,,,,,,,,,,,,,,,,,,,,,,,,,0.020987899988540448,55.701250099999015,55.701250099999015,55.701250099999015,None,y,0.13740859999961685,,,,,,,,,,,,,,,,,,,,,,,,,,,,,,,,442656,001,2023-06-02_17h14.22.673,Pilot_online_tryings,2022.2.5,None,
ConjL1_uns.csv,dir_Online_conjL1_un.csv,Test_Conj_UnsyncL1.csv,ConjL1_unsync_norm.wav,ro,72:76,green,Online_conjL1_un//cRO10.1332.wav,1332.0,,,0,0,0,0,0,26,26,12,0,2,2,2,,,,,,,,,,,,,,,,,,,,,,,,,,,,,,,,,,,,,,,,,,,,,,,,,,,,,,,,,0.011480000001029111,55.88783569999214,55.88783569999214,55.88783569999214,None,y,0.10589859999890905,,,,,,,,,,,,,,,,,,,,,,,,,,,,,,,,442656,001,2023-06-02_17h14.22.673,Pilot_online_tryings,2022.2.5,None,
ConjL1_uns.csv,dir_Online_conjL1_un.csv,Test_Conj_UnsyncL1.csv,ConjL1_unsync_norm.wav,ro,72:76,green,Online_conjL1_un//cRO9.1332.wav,1332.0,,,0,0,0,0,0,26,26,12,0,3,3,1,,,,,,,,,,,,,,,,,,,,,,,,,,,,,,,,,,,,,,,,,,,,,,,,,,,,,,,,,0.029840999995940365,56.05050339999434,56.05050339999434,56.05050339999434,None,y,0.12063120001403149,,,,,,,,,,,,,,,,,,,,,,,,,,,,,,,,442656,001,2023-06-02_17h14.22.673,Pilot_online_tryings,2022.2.5,None,
ConjL1_uns.csv,dir_Online_conjL1_un.csv,Test_Conj_UnsyncL1.csv,ConjL1_unsync_norm.wav,ro,72:76,green,,,,,0,0,0,0,0,26,26,12,,,,,,,,,,,,,,,,,,,,,,,,,,,,,,,,,,,,,,,,,,,,,,,,,,,,,,,,,,,,,,,,,,,,,,,,,,,,,,,,,,,,,,,,,,,,,,,,,,,442656,001,2023-06-02_17h14.22.673,Pilot_online_tryings,2022.2.5,None,
ConjL1_uns.csv,dir_Online_conjL1_un.csv,Test_Conj_UnsyncL1.csv,ConjL1_unsync_norm.wav,ne,96:100,orange,Online_conjL1_un//dNE1.none.wav,none,,,0,0,0,0,0,27,27,8,0,0,0,1,,,,,,,,,,,,,,,,,,,,,,,,,,,,,,,,,,,,,,,,,,,,,,,,,,,,,,,56.26272099999187,56.26272099999187,0.04480119999789167,56.26272099999187,56.26272099999187,56.26272099999187,None,y,0.07508189999498427,,,,,,,,,,,,,,,,,,,,,,,,,,,,,,,,442656,001,2023-06-02_17h14.22.673,Pilot_online_tryings,2022.2.5,None,
ConjL1_uns.csv,dir_Online_conjL1_un.csv,Test_Conj_UnsyncL1.csv,ConjL1_unsync_norm.wav,ne,96:100,orange,Online_conjL1_un//dNE2.0.wav,0.0,,,0,0,0,0,0,27,27,8,0,1,1,2,,,,,,,,,,,,,,,,,,,,,,,,,,,,,,,,,,,,,,,,,,,,,,,,,,,,,,,,,0.02650760000688024,56.39419160000398,56.39419160000398,56.39419160000398,None,y,0.11148350000439677,,,,,,,,,,,,,,,,,,,,,,,,,,,,,,,,442656,001,2023-06-02_17h14.22.673,Pilot_online_tryings,2022.2.5,None,
ConjL1_uns.csv,dir_Online_conjL1_un.csv,Test_Conj_UnsyncL1.csv,ConjL1_unsync_norm.wav,ne,96:100,orange,Online_conjL1_un//dNE0.1110.wav,1110.0,,,0,0,0,0,0,27,27,8,0,2,2,0,,,,,,,,,,,,,,,,,,,,,,,,,,,,,,,,,,,,,,,,,,,,,,,,,,,,,,,,,0.01354860000719782,56.53941489999124,56.53941489999124,56.53941489999124,None,y,0.15170410000428092,,,,,,,,,,,,,,,,,,,,,,,,,,,,,,,,442656,001,2023-06-02_17h14.22.673,Pilot_online_tryings,2022.2.5,None,
ConjL1_uns.csv,dir_Online_conjL1_un.csv,Test_Conj_UnsyncL1.csv,ConjL1_unsync_norm.wav,ne,96:100,orange,Online_conjL1_un//dNE3.none.wav,none,,,0,0,0,0,0,27,27,8,0,3,3,3,,,,,,,,,,,,,,,,,,,,,,,,,,,,,,,,,,,,,,,,,,,,,,,,,,,,,,,,,0.021026200003689155,56.733118999996805,56.733118999996805,56.733118999996805,None,y,0.12585070001659915,,,,,,,,,,,,,,,,,,,,,,,,,,,,,,,,442656,001,2023-06-02_17h14.22.673,Pilot_online_tryings,2022.2.5,None,
ConjL1_uns.csv,dir_Online_conjL1_un.csv,Test_Conj_UnsyncL1.csv,ConjL1_unsync_norm.wav,ne,96:100,orange,,,,,0,0,0,0,0,27,27,8,,,,,,,,,,,,,,,,,,,,,,,,,,,,,,,,,,,,,,,,,,,,,,,,,,,,,,,,,,,,,,,,,,,,,,,,,,,,,,,,,,,,,,,,,,,,,,,,,,,442656,001,2023-06-02_17h14.22.673,Pilot_online_tryings,2022.2.5,None,
ConjL1_uns.csv,dir_Online_conjL1_un.csv,Test_Conj_UnsyncL1.csv,ConjL1_unsync_norm.wav,ta,40:44,blue,Online_conjL1_un//bTA9.0.wav,0.0,,,0,0,0,0,0,28,28,23,0,0,0,1,,,,,,,,,,,,,,,,,,,,,,,,,,,,,,,,,,,,,,,,,,,,,,,,,,,,,,,56.964778099994874,56.964778099994874,0.061687200010055676,56.964778099994874,56.964778099994874,56.964778099994874,None,y,0.0639489000022877,,,,,,,,,,,,,,,,,,,,,,,,,,,,,,,,442656,001,2023-06-02_17h14.22.673,Pilot_online_tryings,2022.2.5,None,
ConjL1_uns.csv,dir_Online_conjL1_un.csv,Test_Conj_UnsyncL1.csv,ConjL1_unsync_norm.wav,ta,40:44,blue,Online_conjL1_un//bTA10.none.wav,none,,,0,0,0,0,0,28,28,23,0,1,1,2,,,,,,,,,,,,,,,,,,,,,,,,,,,,,,,,,,,,,,,,,,,,,,,,,,,,,,,,,0.01545099999930244,57.07070539999404,57.07070539999404,57.07070539999404,None,y,0.11748450000595767,,,,,,,,,,,,,,,,,,,,,,,,,,,,,,,,442656,001,2023-06-02_17h14.22.673,Pilot_online_tryings,2022.2.5,None,
ConjL1_uns.csv,dir_Online_conjL1_un.csv,Test_Conj_UnsyncL1.csv,ConjL1_unsync_norm.wav,ta,40:44,blue,Online_conjL1_un//bTA11.none.wav,none,,,0,0,0,0,0,28,28,23,0,2,2,3,,,,,,,,,,,,,,,,,,,,,,,,,,,,,,,,,,,,,,,,,,,,,,,,,,,,,,,,,0.021091400005389005,57.23154700000305,57.23154700000305,57.23154700000305,None,y,0.127137200004654,,,,,,,,,,,,,,,,,,,,,,,,,,,,,,,,442656,001,2023-06-02_17h14.22.673,Pilot_online_tryings,2022.2.5,None,
ConjL1_uns.csv,dir_Online_conjL1_un.csv,Test_Conj_UnsyncL1.csv,ConjL1_unsync_norm.wav,ta,40:44,blue,Online_conjL1_un//bTA8.none.wav,none,,,0,0,0,0,0,28,28,23,0,3,3,0,,,,,,,,,,,,,,,,,,,,,,,,,,,,,,,,,,,,,,,,,,,,,,,,,,,,,,,,,0.0189741999929538,57.4139342999988,57.4139342999988,57.4139342999988,None,y,0.09980979999818373,,,,,,,,,,,,,,,,,,,,,,,,,,,,,,,,442656,001,2023-06-02_17h14.22.673,Pilot_online_tryings,2022.2.5,None,
ConjL1_uns.csv,dir_Online_conjL1_un.csv,Test_Conj_UnsyncL1.csv,ConjL1_unsync_norm.wav,ta,40:44,blue,,,,,0,0,0,0,0,28,28,23,,,,,,,,,,,,,,,,,,,,,,,,,,,,,,,,,,,,,,,,,,,,,,,,,,,,,,,,,,,,,,,,,,,,,,,,,,,,,,,,,,,,,,,,,,,,,,,,,,,442656,001,2023-06-02_17h14.22.673,Pilot_online_tryings,2022.2.5,None,
ConjL1_uns.csv,dir_Online_conjL1_un.csv,Test_Conj_UnsyncL1.csv,ConjL1_unsync_norm.wav,ta,32:36,blue,Online_conjL1_un//bTA0.none.wav,none,,,0,0,0,0,0,29,29,4,0,0,0,0,,,,,,,,,,,,,,,,,,,,,,,,,,,,,,,,,,,,,,,,,,,,,,,,,,,,,,,57.60884559999977,57.60884559999977,0.057952200004365295,57.60884559999977,57.60884559999977,57.60884559999977,None,y,0.08806910000566859,,,,,,,,,,,,,,,,,,,,,,,,,,,,,,,,442656,001,2023-06-02_17h14.22.673,Pilot_online_tryings,2022.2.5,None,
ConjL1_uns.csv,dir_Online_conjL1_un.csv,Test_Conj_UnsyncL1.csv,ConjL1_unsync_norm.wav,ta,32:36,blue,Online_conjL1_un//bTA1.none.wav,none,,,0,0,0,0,0,29,29,4,0,1,1,1,,,,,,,,,,,,,,,,,,,,,,,,,,,,,,,,,,,,,,,,,,,,,,,,,,,,,,,,,0.006941200001165271,57.73029019999376,57.73029019999376,57.73029019999376,None,y,0.14329530000395607,,,,,,,,,,,,,,,,,,,,,,,,,,,,,,,,442656,001,2023-06-02_17h14.22.673,Pilot_online_tryings,2022.2.5,None,
ConjL1_uns.csv,dir_Online_conjL1_un.csv,Test_Conj_UnsyncL1.csv,ConjL1_unsync_norm.wav,ta,32:36,blue,Online_conjL1_un//bTA2.888.wav,888.0,,,0,0,0,0,0,29,29,4,0,2,2,2,,,,,,,,,,,,,,,,,,,,,,,,,,,,,,,,,,,,,,,,,,,,,,,,,,,,,,,,,0.023622900000191294,57.920066099992255,57.920066099992255,57.920066099992255,None,y,0.11349129999871366,,,,,,,,,,,,,,,,,,,,,,,,,,,,,,,,442656,001,2023-06-02_17h14.22.673,Pilot_online_tryings,2022.2.5,None,
ConjL1_uns.csv,dir_Online_conjL1_un.csv,Test_Conj_UnsyncL1.csv,ConjL1_unsync_norm.wav,ta,32:36,blue,Online_conjL1_un//bTA3.none.wav,none,,,0,0,0,0,0,29,29,4,0,3,3,3,,,,,,,,,,,,,,,,,,,,,,,,,,,,,,,,,,,,,,,,,,,,,,,,,,,,,,,,,0.024446800001896918,58.080447500004084,58.080447500004084,58.080447500004084,None,y,0.113697199994931,,,,,,,,,,,,,,,,,,,,,,,,,,,,,,,,442656,001,2023-06-02_17h14.22.673,Pilot_online_tryings,2022.2.5,None,
ConjL1_uns.csv,dir_Online_conjL1_un.csv,Test_Conj_UnsyncL1.csv,ConjL1_unsync_norm.wav,ta,32:36,blue,,,,,0,0,0,0,0,29,29,4,,,,,,,,,,,,,,,,,,,,,,,,,,,,,,,,,,,,,,,,,,,,,,,,,,,,,,,,,,,,,,,,,,,,,,,,,,,,,,,,,,,,,,,,,,,,,,,,,,,442656,001,2023-06-02_17h14.22.673,Pilot_online_tryings,2022.2.5,None,
ConjL1_uns.csv,dir_Online_conjL1_un.csv,Test_Conj_UnsyncL1.csv,ConjL1_unsync_norm.wav,ro,76:80,green,Online_conjL1_un//cRO14.none.wav,none,,,0,0,0,0,0,30,30,10,0,0,0,2,,,,,,,,,,,,,,,,,,,,,,,,,,,,,,,,,,,,,,,,,,,,,,,,,,,,,,,58.25474409999151,58.25474409999151,0.03654159999859985,58.25474409999151,58.25474409999151,58.25474409999151,None,y,0.10442070000863168,,,,,,,,,,,,,,,,,,,,,,,,,,,,,,,,442656,001,2023-06-02_17h14.22.673,Pilot_online_tryings,2022.2.5,None,
ConjL1_uns.csv,dir_Online_conjL1_un.csv,Test_Conj_UnsyncL1.csv,ConjL1_unsync_norm.wav,ro,76:80,green,Online_conjL1_un//cRO12.none.wav,none,,,0,0,0,0,0,30,30,10,0,1,1,0,,,,,,,,,,,,,,,,,,,,,,,,,,,,,,,,,,,,,,,,,,,,,,,,,,,,,,,,,0.028723499999614432,58.45821509999223,58.45821509999223,58.45821509999223,None,y,0.07651440000336152,,,,,,,,,,,,,,,,,,,,,,,,,,,,,,,,442656,001,2023-06-02_17h14.22.673,Pilot_online_tryings,2022.2.5,None,
ConjL1_uns.csv,dir_Online_conjL1_un.csv,Test_Conj_UnsyncL1.csv,ConjL1_unsync_norm.wav,ro,76:80,green,Online_conjL1_un//cRO15.none.wav,none,,,0,0,0,0,0,30,30,10,0,2,2,3,,,,,,,,,,,,,,,,,,,,,,,,,,,,,,,,,,,,,,,,,,,,,,,,,,,,,,,,,0.013747999997576699,58.604949699991266,58.604949699991266,58.604949699991266,None,y,0.099247700010892,,,,,,,,,,,,,,,,,,,,,,,,,,,,,,,,442656,001,2023-06-02_17h14.22.673,Pilot_online_tryings,2022.2.5,None,
ConjL1_uns.csv,dir_Online_conjL1_un.csv,Test_Conj_UnsyncL1.csv,ConjL1_unsync_norm.wav,ro,76:80,green,Online_conjL1_un//cRO13.1332.wav,1332.0,,,0,0,0,0,0,30,30,10,0,3,3,1,,,,,,,,,,,,,,,,,,,,,,,,,,,,,,,,,,,,,,,,,,,,,,,,,,,,,,,,,0.010642599998391233,58.75710170000093,58.75710170000093,58.75710170000093,None,y,0.10392169999249745,,,,,,,,,,,,,,,,,,,,,,,,,,,,,,,,442656,001,2023-06-02_17h14.22.673,Pilot_online_tryings,2022.2.5,None,
ConjL1_uns.csv,dir_Online_conjL1_un.csv,Test_Conj_UnsyncL1.csv,ConjL1_unsync_norm.wav,ro,76:80,green,,,,,0,0,0,0,0,30,30,10,,,,,,,,,,,,,,,,,,,,,,,,,,,,,,,,,,,,,,,,,,,,,,,,,,,,,,,,,,,,,,,,,,,,,,,,,,,,,,,,,,,,,,,,,,,,,,,,,,,442656,001,2023-06-02_17h14.22.673,Pilot_online_tryings,2022.2.5,None,
ConjL1_uns.csv,dir_Online_conjL1_un.csv,Test_Conj_UnsyncL1.csv,ConjL1_unsync_norm.wav,ne,116:120,orange,Online_conjL1_un//dNE23.none.wav,none,,,0,0,0,0,0,31,31,0,0,0,0,3,,,,,,,,,,,,,,,,,,,,,,,,,,,,,,,,,,,,,,,,,,,,,,,,,,,,,,,58.936931299991556,58.936931299991556,0.037277100011124276,58.936931299991556,58.936931299991556,58.936931299991556,None,y,0.08655540000472683,,,,,,,,,,,,,,,,,,,,,,,,,,,,,,,,442656,001,2023-06-02_17h14.22.673,Pilot_online_tryings,2022.2.5,None,
ConjL1_uns.csv,dir_Online_conjL1_un.csv,Test_Conj_UnsyncL1.csv,ConjL1_unsync_norm.wav,ne,116:120,orange,Online_conjL1_un//dNE20.none.wav,none,,,0,0,0,0,0,31,31,0,0,1,1,0,,,,,,,,,,,,,,,,,,,,,,,,,,,,,,,,,,,,,,,,,,,,,,,,,,,,,,,,,0.029903300004662015,59.08088140000473,59.08088140000473,59.08088140000473,None,y,0.10322330001508817,,,,,,,,,,,,,,,,,,,,,,,,,,,,,,,,442656,001,2023-06-02_17h14.22.673,Pilot_online_tryings,2022.2.5,None,
ConjL1_uns.csv,dir_Online_conjL1_un.csv,Test_Conj_UnsyncL1.csv,ConjL1_unsync_norm.wav,ne,116:120,orange,Online_conjL1_un//dNE22.none.wav,none,,,0,0,0,0,0,31,31,0,0,2,2,2,,,,,,,,,,,,,,,,,,,,,,,,,,,,,,,,,,,,,,,,,,,,,,,,,,,,,,,,,0.005858600008650683,59.2266180000006,59.2266180000006,59.2266180000006,None,y,0.12607470000511967,,,,,,,,,,,,,,,,,,,,,,,,,,,,,,,,442656,001,2023-06-02_17h14.22.673,Pilot_online_tryings,2022.2.5,None,
ConjL1_uns.csv,dir_Online_conjL1_un.csv,Test_Conj_UnsyncL1.csv,ConjL1_unsync_norm.wav,ne,116:120,orange,Online_conjL1_un//dNE21.1332.wav,1332.0,,,0,0,0,0,0,31,31,0,0,3,3,1,,,,,,,,,,,,,,,,,,,,,,,,,,,,,,,,,,,,,,,,,,,,,,,,,,,,,,,,,0.009454600003664382,59.38627709999855,59.38627709999855,59.38627709999855,None,y,0.1382852999959141,,,,,,,,,,,,,,,,,,,,,,,,,,,,,,,,442656,001,2023-06-02_17h14.22.673,Pilot_online_tryings,2022.2.5,None,
ConjL1_uns.csv,dir_Online_conjL1_un.csv,Test_Conj_UnsyncL1.csv,ConjL1_unsync_norm.wav,ne,116:120,orange,,,,,0,0,0,0,0,31,31,0,,,,,,,,,,,,,,,,,,,,,,,,,,,,,,,,,,,,,,,,,,,,,,,,,,,,,,,,,,,,,,,,,,,,,,,,,,,,,,,,,,,,,,,,,,,,,,,,,,,442656,001,2023-06-02_17h14.22.673,Pilot_online_tryings,2022.2.5,None,
ConjL1_uns.csv,dir_Online_conjL1_un.csv,Test_Conj_UnsyncL1.csv,ConjL1_unsync_norm.wav,,,,,,testConjL1Uns//cat_viol.r1.s2.0.wav,,0,0,0,0,,,,,,,,,0,0,0,1,,,,,,,,,,,,,,,,,,,,,,,,,,,,,,,,,,,,,,,,,,,,,,,,,,,,,,,,,,,,59.57545089999621,59.57545089999621,space,0.7184561000030953,60.35120669999742,60.35120669999742,space,0.5313357999984873,60.913993299996946,60.913993299996946,space,0.49351600000227336,61.4806985000032,61.4806985000032,61.62399426666185,y,1.7205858999950578,63.289351200000965,63.289351200000965,z,0.4212806000141427,63.829617499999586,63.829617499999586,63.829617499999586,63.829617499999586,1,0.5865228999900864,,,,,442656,001,2023-06-02_17h14.22.673,Pilot_online_tryings,2022.2.5,None,
ConjL1_uns.csv,dir_Online_conjL1_un.csv,Test_Conj_UnsyncL1.csv,ConjL1_unsync_norm.wav,,,,,,testConjL1Uns//r2.s2.2.wav,,0,0,0,0,,,,,,,,,0,1,1,19,,,,,,,,,,,,,,,,,,,,,,,,,,,,,,,,,,,,,,,,,,,,,,,,,,,,,,,,,,,,,,,,,,,,,,,,64.44480450000265,64.44480450000265,,y,0.15551569999661297,64.63276490000135,64.63276490000135,z,0.1539825999934692,64.8201098999998,64.8201098999998,64.8201098999998,64.8201098999998,1,0.1088370999932522,,,,,442656,001,2023-06-02_17h14.22.673,Pilot_online_tryings,2022.2.5,None,
ConjL1_uns.csv,dir_Online_conjL1_un.csv,Test_Conj_UnsyncL1.csv,ConjL1_unsync_norm.wav,,,,,,testConjL1Uns//r2.s1.2.wav,,0,0,0,0,,,,,,,,,0,2,2,16,,,,,,,,,,,,,,,,,,,,,,,,,,,,,,,,,,,,,,,,,,,,,,,,,,,,,,,,,,,,,,,,,,,,,,,,64.97560609999346,64.97560609999346,65.15255156666196,y,0.42549660000076983,65.44920039999124,65.44920039999124,z,0.35445470000559,65.8548102999921,65.8548102999921,65.8548102999921,65.8548102999921,1,0.13144139999349136,,,,,442656,001,2023-06-02_17h14.22.673,Pilot_online_tryings,2022.2.5,None,
ConjL1_uns.csv,dir_Online_conjL1_un.csv,Test_Conj_UnsyncL1.csv,ConjL1_unsync_norm.wav,,,,,,testConjL1Uns//dep_viol.r1.s1.0.wav,,0,0,0,0,,,,,,,,,0,3,3,4,,,,,,,,,,,,,,,,,,,,,,,,,,,,,,,,,,,,,,,,,,,,,,,,,,,,,,,,,,,,,,,,,,,,,,,,66.03899929999898,66.03899929999898,66.21187966666572,y,0.1536340000020573,66.22623810000368,66.22623810000368,z,0.10886829999799374,66.38527460000478,66.38527460000478,66.38527460000478,66.38527460000478,1,0.07553709999774583,,,,,442656,001,2023-06-02_17h14.22.673,Pilot_online_tryings,2022.2.5,None,
ConjL1_uns.csv,dir_Online_conjL1_un.csv,Test_Conj_UnsyncL1.csv,ConjL1_unsync_norm.wav,,,,,,testConjL1Uns//r1.s2.2.wav,,0,0,0,0,,,,,,,,,0,4,4,13,,,,,,,,,,,,,,,,,,,,,,,,,,,,,,,,,,,,,,,,,,,,,,,,,,,,,,,,,,,,,,,,,,,,,,,,66.50779129999864,66.50779129999864,,y,0.12549140000191983,66.66387819999363,66.66387819999363,z,0.10855420000734739,66.82048460000078,66.82048460000078,66.82048460000078,66.82048460000078,1,0.04564799999934621,,,,,442656,001,2023-06-02_17h14.22.673,Pilot_online_tryings,2022.2.5,None,
ConjL1_uns.csv,dir_Online_conjL1_un.csv,Test_Conj_UnsyncL1.csv,ConjL1_unsync_norm.wav,,,,,,testConjL1Uns//r2.s2.1.wav,,0,0,0,0,,,,,,,,,0,5,5,18,,,,,,,,,,,,,,,,,,,,,,,,,,,,,,,,,,,,,,,,,,,,,,,,,,,,,,,,,,,,,,,,,,,,,,,,66.91705560000264,66.91705560000264,67.08723476666297,y,0.1281063000060385,67.10425029999169,67.10425029999169,z,0.10446690001117531,67.26206670000101,67.26206670000101,67.26206670000101,67.26206670000101,1,0.015809000004082918,,,,,442656,001,2023-06-02_17h14.22.673,Pilot_online_tryings,2022.2.5,None,
ConjL1_uns.csv,dir_Online_conjL1_un.csv,Test_Conj_UnsyncL1.csv,ConjL1_unsync_norm.wav,,,,,,testConjL1Uns//cat_viol.r2.s2.0.wav,,0,0,0,0,,,,,,,,,0,6,6,3,,,,,,,,,,,,,,,,,,,,,,,,,,,,,,,,,,,,,,,,,,,,,,,,,,,,,,,,,,,,,,,,,,,,,,,,67.32020439999178,67.32020439999178,67.49636246666002,y,0.1414138000109233,67.51056719999178,67.51056719999178,z,0.11584420000144746,67.66465079999762,67.66465079999762,67.66465079999762,67.66465079999762,1,0.05796590000682045,,,,,442656,001,2023-06-02_17h14.22.673,Pilot_online_tryings,2022.2.5,None,
ConjL1_uns.csv,dir_Online_conjL1_un.csv,Test_Conj_UnsyncL1.csv,ConjL1_unsync_norm.wav,,,,,,testConjL1Uns//dep_viol.r2.s1.0.wav,,0,0,0,0,,,,,,,,,0,7,7,6,,,,,,,,,,,,,,,,,,,,,,,,,,,,,,,,,,,,,,,,,,,,,,,,,,,,,,,,,,,,,,,,,,,,,,,,67.76706450000347,67.76706450000347,67.93188006666993,y,0.16062789999705274,68.01231740000367,68.01231740000367,z,0.052866500001982786,68.10342630000378,68.10342630000378,68.10342630000378,68.10342630000378,1,0.08089630001632031,,,,,442656,001,2023-06-02_17h14.22.673,Pilot_online_tryings,2022.2.5,None,
ConjL1_uns.csv,dir_Online_conjL1_un.csv,Test_Conj_UnsyncL1.csv,ConjL1_unsync_norm.wav,,,,,,testConjL1Uns//dep_viol.r1.s2.0.wav,,0,0,0,0,,,,,,,,,0,8,8,5,,,,,,,,,,,,,,,,,,,,,,,,,,,,,,,,,,,,,,,,,,,,,,,,,,,,,,,,,,,,,,,,,,,,,,,,68.23192320000089,68.23192320000089,68.40240416666008,y,0.12790140000288375,68.41448649999802,68.41448649999802,z,0.09115870000096038,68.5424667000043,68.5424667000043,68.5424667000043,68.5424667000043,1,0.06124779999663588,,,,,442656,001,2023-06-02_17h14.22.673,Pilot_online_tryings,2022.2.5,None,
ConjL1_uns.csv,dir_Online_conjL1_un.csv,Test_Conj_UnsyncL1.csv,ConjL1_unsync_norm.wav,,,,,,testConjL1Uns//dep_viol.r2.s2.0.wav,,0,0,0,0,,,,,,,,,0,9,9,7,,,,,,,,,,,,,,,,,,,,,,,,,,,,,,,,,,,,,,,,,,,,,,,,,,,,,,,,,,,,,,,,,,,,,,,,68.63720569999714,68.63720569999714,68.80861256666346,y,0.18950870001572184,68.85573129999102,68.85573129999102,z,0.09506510000210255,69.0113440999994,69.0113440999994,69.0113440999994,69.0113440999994,1,0.06363620000774972,,,,,442656,001,2023-06-02_17h14.22.673,Pilot_online_tryings,2022.2.5,None,
ConjL1_uns.csv,dir_Online_conjL1_un.csv,Test_Conj_UnsyncL1.csv,ConjL1_unsync_norm.wav,,,,,,testConjL1Uns//time_viol.r1.s1.0.wav,,0,0,0,0,,,,,,,,,0,10,10,20,,,,,,,,,,,,,,,,,,,,,,,,,,,,,,,,,,,,,,,,,,,,,,,,,,,,,,,,,,,,,,,,,,,,,,,,69.10966420000477,69.10966420000477,,y,0.1472846000106074,69.2894471000036,69.2894471000036,z,0.11264680000022054,69.44611319999967,69.44611319999967,69.44611319999967,69.44611319999967,1,0.06540610000956804,,,,,442656,001,2023-06-02_17h14.22.673,Pilot_online_tryings,2022.2.5,None,
ConjL1_uns.csv,dir_Online_conjL1_un.csv,Test_Conj_UnsyncL1.csv,ConjL1_unsync_norm.wav,,,,,,testConjL1Uns//time_viol.r1.s2.0.wav,,0,0,0,0,,,,,,,,,0,11,11,21,,,,,,,,,,,,,,,,,,,,,,,,,,,,,,,,,,,,,,,,,,,,,,,,,,,,,,,,,,,,,,,,,,,,,,,,69.57437419999042,69.57437419999042,,y,0.10562600000412203,69.72655880000093,69.72655880000093,z,0.09344470000360161,69.85264949999691,69.85264949999691,69.85264949999691,69.85264949999691,1,0.05176190000202041,,,,,442656,001,2023-06-02_17h14.22.673,Pilot_online_tryings,2022.2.5,None,
ConjL1_uns.csv,dir_Online_conjL1_un.csv,Test_Conj_UnsyncL1.csv,ConjL1_unsync_norm.wav,,,,,,testConjL1Uns//r2.s1.0.wav,,0,0,0,0,,,,,,,,,0,12,12,14,,,,,,,,,,,,,,,,,,,,,,,,,,,,,,,,,,,,,,,,,,,,,,,,,,,,,,,,,,,,,,,,,,,,,,,,69.95059120000224,69.95059120000224,,y,0.14460220000182744,70.1359109999903,70.1359109999903,z,0.09286509999947157,70.25744620000478,70.25744620000478,70.25744620000478,70.25744620000478,1,0.08747199999925215,,,,,442656,001,2023-06-02_17h14.22.673,Pilot_online_tryings,2022.2.5,None,
ConjL1_uns.csv,dir_Online_conjL1_un.csv,Test_Conj_UnsyncL1.csv,ConjL1_unsync_norm.wav,,,,,,testConjL1Uns//r2.s1.1.wav,,0,0,0,0,,,,,,,,,0,13,13,15,,,,,,,,,,,,,,,,,,,,,,,,,,,,,,,,,,,,,,,,,,,,,,,,,,,,,,,,,,,,,,,,,,,,,,,,70.38477000000421,70.38477000000421,70.55624706666664,y,0.13277959999686573,70.57038530000136,70.57038530000136,z,0.11137070000404492,70.7295834999968,70.7295834999968,70.7295834999968,70.7295834999968,1,0.07871940001496114,,,,,442656,001,2023-06-02_17h14.22.673,Pilot_online_tryings,2022.2.5,None,
ConjL1_uns.csv,dir_Online_conjL1_un.csv,Test_Conj_UnsyncL1.csv,ConjL1_unsync_norm.wav,,,,,,testConjL1Uns//time_viol.r2.s1.0.wav,,0,0,0,0,,,,,,,,,0,14,14,22,,,,,,,,,,,,,,,,,,,,,,,,,,,,,,,,,,,,,,,,,,,,,,,,,,,,,,,,,,,,,,,,,,,,,,,,70.86740059999283,70.86740059999283,,y,0.10241690001566894,71.00869119999697,71.00869119999697,z,0.13233380000747275,71.1948701999936,71.1948701999936,71.1948701999936,71.1948701999936,1,0.03878800000529736,,,,,442656,001,2023-06-02_17h14.22.673,Pilot_online_tryings,2022.2.5,None,
ConjL1_uns.csv,dir_Online_conjL1_un.csv,Test_Conj_UnsyncL1.csv,ConjL1_unsync_norm.wav,,,,,,testConjL1Uns//r1.s1.0.wav,,0,0,0,0,,,,,,,,,0,15,15,8,,,,,,,,,,,,,,,,,,,,,,,,,,,,,,,,,,,,,,,,,,,,,,,,,,,,,,,,,,,,,,,,,,,,,,,,71.28856590000214,71.28856590000214,,y,0.1006850999983726,71.44490649999352,71.44490649999352,z,0.12939520001236815,71.6354355999938,71.6354355999938,71.6354355999938,71.6354355999938,1,0.07240430000820197,,,,,442656,001,2023-06-02_17h14.22.673,Pilot_online_tryings,2022.2.5,None,
ConjL1_uns.csv,dir_Online_conjL1_un.csv,Test_Conj_UnsyncL1.csv,ConjL1_unsync_norm.wav,,,,,,testConjL1Uns//r2.s2.0.wav,,0,0,0,0,,,,,,,,,0,16,16,17,,,,,,,,,,,,,,,,,,,,,,,,,,,,,,,,,,,,,,,,,,,,,,,,,,,,,,,,,,,,,,,,,,,,,,,,71.75764509999135,71.75764509999135,,y,0.09514730000228155,71.91348049999215,71.91348049999215,z,0.11520759999984875,72.07084849999228,72.07084849999228,72.07084849999228,72.07084849999228,1,0.09373510000295937,,,,,442656,001,2023-06-02_17h14.22.673,Pilot_online_tryings,2022.2.5,None,
ConjL1_uns.csv,dir_Online_conjL1_un.csv,Test_Conj_UnsyncL1.csv,ConjL1_unsync_norm.wav,,,,,,testConjL1Uns//r1.s2.1.wav,,0,0,0,0,,,,,,,,,0,17,17,12,,,,,,,,,,,,,,,,,,,,,,,,,,,,,,,,,,,,,,,,,,,,,,,,,,,,,,,,,,,,,,,,,,,,,,,,72.22575349999534,72.22575349999534,,y,0.12568740001006518,72.38316460000351,72.38316460000351,z,0.18211940000765026,72.60150219999196,72.60150219999196,72.60150219999196,72.60150219999196,1,0.09163070000067819,,,,,442656,001,2023-06-02_17h14.22.673,Pilot_online_tryings,2022.2.5,None,
ConjL1_uns.csv,dir_Online_conjL1_un.csv,Test_Conj_UnsyncL1.csv,ConjL1_unsync_norm.wav,,,,,,testConjL1Uns//r1.s1.2.wav,,0,0,0,0,,,,,,,,,0,18,18,10,,,,,,,,,,,,,,,,,,,,,,,,,,,,,,,,,,,,,,,,,,,,,,,,,,,,,,,,,,,,,,,,,,,,,,,,72.72676170000341,72.72676170000341,,y,0.10237569999299012,72.88404059999448,72.88404059999448,z,0.10798950000025798,73.07142989999556,73.07142989999556,73.07142989999556,73.07142989999556,1,0.025645999994594604,,,,,442656,001,2023-06-02_17h14.22.673,Pilot_online_tryings,2022.2.5,None,
ConjL1_uns.csv,dir_Online_conjL1_un.csv,Test_Conj_UnsyncL1.csv,ConjL1_unsync_norm.wav,,,,,,testConjL1Uns//cat_viol.r2.s1.0.wav,,0,0,0,0,,,,,,,,,0,19,19,2,,,,,,,,,,,,,,,,,,,,,,,,,,,,,,,,,,,,,,,,,,,,,,,,,,,,,,,,,,,,,,,,,,,,,,,,73.1392016000027,73.1392016000027,,y,0.13506109999434557,73.32026819999737,73.32026819999737,z,0.10639220000302885,73.47628319999785,73.47628319999785,73.47628319999785,73.47628319999785,1,0.03182009999000002,,,,,442656,001,2023-06-02_17h14.22.673,Pilot_online_tryings,2022.2.5,None,
ConjL1_uns.csv,dir_Online_conjL1_un.csv,Test_Conj_UnsyncL1.csv,ConjL1_unsync_norm.wav,,,,,,testConjL1Uns//r1.s1.1.wav,,0,0,0,0,,,,,,,,,0,20,20,9,,,,,,,,,,,,,,,,,,,,,,,,,,,,,,,,,,,,,,,,,,,,,,,,,,,,,,,,,,,,,,,,,,,,,,,,73.53917299999739,73.53917299999739,73.74326576666887,y,0.15637840000272263,73.75733059999766,73.75733059999766,z,0.0971607999963453,73.91405849999865,73.91405849999865,73.91405849999865,73.91405849999865,1,0.028234099998371676,,,,,442656,001,2023-06-02_17h14.22.673,Pilot_online_tryings,2022.2.5,None,
ConjL1_uns.csv,dir_Online_conjL1_un.csv,Test_Conj_UnsyncL1.csv,ConjL1_unsync_norm.wav,,,,,,testConjL1Uns//time_viol.r2.s2.0.wav,,0,0,0,0,,,,,,,,,0,21,21,23,,,,,,,,,,,,,,,,,,,,,,,,,,,,,,,,,,,,,,,,,,,,,,,,,,,,,,,,,,,,,,,,,,,,,,,,73.97829649999039,73.97829649999039,74.15026296666862,y,0.18376930001250003,74.19449139999051,74.19449139999051,z,0.146733999994467,74.38529170000402,74.38529170000402,74.38529170000402,74.38529170000402,1,0.014894500010996126,,,,,442656,001,2023-06-02_17h14.22.673,Pilot_online_tryings,2022.2.5,None,
ConjL1_uns.csv,dir_Online_conjL1_un.csv,Test_Conj_UnsyncL1.csv,ConjL1_unsync_norm.wav,,,,,,testConjL1Uns//cat_viol.r1.s1.0.wav,,0,0,0,0,,,,,,,,,0,22,22,0,,,,,,,,,,,,,,,,,,,,,,,,,,,,,,,,,,,,,,,,,,,,,,,,,,,,,,,,,,,,,,,,,,,,,,,,74.44884969999839,74.44884969999839,74.61839956666905,y,0.1475886999978684,74.63234250000096,74.63234250000096,z,0.1555042000109097,74.82078080000065,74.82078080000065,74.82078080000065,74.82078080000065,1,0.003739000007044524,,,,,442656,001,2023-06-02_17h14.22.673,Pilot_online_tryings,2022.2.5,None,
ConjL1_uns.csv,dir_Online_conjL1_un.csv,Test_Conj_UnsyncL1.csv,ConjL1_unsync_norm.wav,,,,,,testConjL1Uns//r1.s2.0.wav,,0,0,0,0,,,,,,,,,0,23,23,11,,,,,,,,,,,,,,,,,,,,,,,,,,,,,,,,,,,,,,,,,,,,,,,,,,,,,,,,,,,,,,,,,,,,,,,,74.88352730000042,74.88352730000042,75.05594726666847,y,0.1485277000028873,75.07089249999262,75.07089249999262,z,0.1575312000059057,75.29254369999398,75.29254369999398,75.29254369999398,75.29254369999398,1,0.011635600007139146,,,,,442656,001,2023-06-02_17h14.22.673,Pilot_online_tryings,2022.2.5,None,
ConjL1_uns.csv,dir_Online_conjL1_un.csv,Test_Conj_UnsyncL1.csv,ConjL1_unsync_norm.wav,,,,,,,,0,0,0,0,,,,,,,,,,,,,,,,,,,,,,,,,,,,,,,,,,,,,,,,,,,,,,,,,,,,,,,,,,,,,,,,,,,,,,,,,,,,,,,,,,,,,,,,,,,,,,,,,,,75.35281620000023,75.35281620000023,space,0.7690890000085346,442656,001,2023-06-02_17h14.22.673,Pilot_online_tryings,2022.2.5,None,
WhenL3_uns.csv,directory_online_whenL3_uns.csv,When_UnsyncL3_testdirs.csv,WhenL3_unsync_norm.wav,ji,132:136,blue,Online_whenL3//dJI31.none.wav,none,,,0,1,1,2,0,0,0,24,0,0,0,3,,,,,,,,,,,,,,,,,,,,,,,,,,,,,,,,,,,,,,,,,,76.16322360000049,76.16322360000049,space,0.3951639000151772,78.18740486666307,78.20917010000267,78.20917010000267,space,1.6422531000134768,79.8875357999932,79.8875357999932,space,0.8718228000070667,80.83211109999684,80.83211109999684,0.041001699995831586,80.83211109999684,80.83211109999684,80.83211109999684,None,y,0.8059457000053953,,,,,,,,,,,,,,,,,,,,,,,,,,,,,,,,442656,001,2023-06-02_17h14.22.673,Pilot_online_tryings,2022.2.5,None,
WhenL3_uns.csv,directory_online_whenL3_uns.csv,When_UnsyncL3_testdirs.csv,WhenL3_unsync_norm.wav,ji,132:136,blue,Online_whenL3//dJI30.1998.wav,1998.0,,,0,1,1,2,0,0,0,24,0,1,1,2,,,,,,,,,,,,,,,,,,,,,,,,,,,,,,,,,,,,,,,,,,,,,,,,,,,,,,,,,0.007644999990588985,81.69567190000089,81.69567190000089,81.69567190000089,None,y,0.06550769999739714,,,,,,,,,,,,,,,,,,,,,,,,,,,,,,,,442656,001,2023-06-02_17h14.22.673,Pilot_online_tryings,2022.2.5,None,
WhenL3_uns.csv,directory_online_whenL3_uns.csv,When_UnsyncL3_testdirs.csv,WhenL3_unsync_norm.wav,ji,132:136,blue,Online_whenL3//dJI29.none.wav,none,,,0,1,1,2,0,0,0,24,0,2,2,1,,,,,,,,,,,,,,,,,,,,,,,,,,,,,,,,,,,,,,,,,,,,,,,,,,,,,,,,,0.00782440000330098,81.82096860000456,81.82096860000456,81.82096860000456,None,y,0.09073140000691637,,,,,,,,,,,,,,,,,,,,,,,,,,,,,,,,442656,001,2023-06-02_17h14.22.673,Pilot_online_tryings,2022.2.5,None,
WhenL3_uns.csv,directory_online_whenL3_uns.csv,When_UnsyncL3_testdirs.csv,WhenL3_unsync_norm.wav,ji,132:136,blue,Online_whenL3//dJI28.444.wav,444.0,,,0,1,1,2,0,0,0,24,0,3,3,0,,,,,,,,,,,,,,,,,,,,,,,,,,,,,,,,,,,,,,,,,,,,,,,,,,,,,,,,,0.006494499990367331,81.94743400000152,81.94743400000152,81.94743400000152,None,y,0.10364960000151768,,,,,,,,,,,,,,,,,,,,,,,,,,,,,,,,442656,001,2023-06-02_17h14.22.673,Pilot_online_tryings,2022.2.5,None,
WhenL3_uns.csv,directory_online_whenL3_uns.csv,When_UnsyncL3_testdirs.csv,WhenL3_unsync_norm.wav,ji,132:136,blue,,,,,0,1,1,2,0,0,0,24,,,,,,,,,,,,,,,,,,,,,,,,,,,,,,,,,,,,,,,,,,,,,,,,,,,,,,,,,,,,,,,,,,,,,,,,,,,,,,,,,,,,,,,,,,,,,,,,,,,442656,001,2023-06-02_17h14.22.673,Pilot_online_tryings,2022.2.5,None,
WhenL3_uns.csv,directory_online_whenL3_uns.csv,When_UnsyncL3_testdirs.csv,WhenL3_unsync_norm.wav,mo,12:16,green,Online_whenL3//aMO12.none.wav,none,,,0,1,1,2,0,1,1,18,0,0,0,0,,,,,,,,,,,,,,,,,,,,,,,,,,,,,,,,,,,,,,,,,,,,,,,,,,,,,,,82.11584790000052,82.11584790000052,0.032985700003337115,82.11584790000052,82.11584790000052,82.11584790000052,None,y,0.06890729999577161,,,,,,,,,,,,,,,,,,,,,,,,,,,,,,,,442656,001,2023-06-02_17h14.22.673,Pilot_online_tryings,2022.2.5,None,
WhenL3_uns.csv,directory_online_whenL3_uns.csv,When_UnsyncL3_testdirs.csv,WhenL3_unsync_norm.wav,mo,12:16,green,Online_whenL3//aMO14.none.wav,none,,,0,1,1,2,0,1,1,18,0,1,1,2,,,,,,,,,,,,,,,,,,,,,,,,,,,,,,,,,,,,,,,,,,,,,,,,,,,,,,,,,0.03185729999677278,82.24320830000215,82.24320830000215,82.24320830000215,None,y,0.0873285000125179,,,,,,,,,,,,,,,,,,,,,,,,,,,,,,,,442656,001,2023-06-02_17h14.22.673,Pilot_online_tryings,2022.2.5,None,
WhenL3_uns.csv,directory_online_whenL3_uns.csv,When_UnsyncL3_testdirs.csv,WhenL3_unsync_norm.wav,mo,12:16,green,Online_whenL3//aMO13.none.wav,none,,,0,1,1,2,0,1,1,18,0,2,2,1,,,,,,,,,,,,,,,,,,,,,,,,,,,,,,,,,,,,,,,,,,,,,,,,,,,,,,,,,0.01019129999622237,82.38314930000342,82.38314930000342,82.38314930000342,None,y,0.08395050000399351,,,,,,,,,,,,,,,,,,,,,,,,,,,,,,,,442656,001,2023-06-02_17h14.22.673,Pilot_online_tryings,2022.2.5,None,
WhenL3_uns.csv,directory_online_whenL3_uns.csv,When_UnsyncL3_testdirs.csv,WhenL3_unsync_norm.wav,mo,12:16,green,Online_whenL3//aMO15.1332.wav,1332.0,,,0,1,1,2,0,1,1,18,0,3,3,3,,,,,,,,,,,,,,,,,,,,,,,,,,,,,,,,,,,,,,,,,,,,,,,,,,,,,,,,,0.032739200003561564,82.52852569999231,82.52852569999231,82.52852569999231,None,y,0.0863182000030065,,,,,,,,,,,,,,,,,,,,,,,,,,,,,,,,442656,001,2023-06-02_17h14.22.673,Pilot_online_tryings,2022.2.5,None,
WhenL3_uns.csv,directory_online_whenL3_uns.csv,When_UnsyncL3_testdirs.csv,WhenL3_unsync_norm.wav,mo,12:16,green,,,,,0,1,1,2,0,1,1,18,,,,,,,,,,,,,,,,,,,,,,,,,,,,,,,,,,,,,,,,,,,,,,,,,,,,,,,,,,,,,,,,,,,,,,,,,,,,,,,,,,,,,,,,,,,,,,,,,,,442656,001,2023-06-02_17h14.22.673,Pilot_online_tryings,2022.2.5,None,
WhenL3_uns.csv,directory_online_whenL3_uns.csv,When_UnsyncL3_testdirs.csv,WhenL3_unsync_norm.wav,ji,120:124,blue,Online_whenL3//dJI16.none.wav,none,,,0,1,1,2,0,2,2,32,0,0,0,0,,,,,,,,,,,,,,,,,,,,,,,,,,,,,,,,,,,,,,,,,,,,,,,,,,,,,,,82.707713900003,82.707713900003,0.044846100005088374,82.707713900003,82.707713900003,82.707713900003,None,y,0.08956480001506861,,,,,,,,,,,,,,,,,,,,,,,,,,,,,,,,442656,001,2023-06-02_17h14.22.673,Pilot_online_tryings,2022.2.5,None,
WhenL3_uns.csv,directory_online_whenL3_uns.csv,When_UnsyncL3_testdirs.csv,WhenL3_unsync_norm.wav,ji,120:124,blue,Online_whenL3//dJI19.1110.wav,1110.0,,,0,1,1,2,0,2,2,32,0,1,1,3,,,,,,,,,,,,,,,,,,,,,,,,,,,,,,,,,,,,,,,,,,,,,,,,,,,,,,,,,0.011364600009983405,82.85174199999892,82.85174199999892,82.85174199999892,None,y,0.060376000008545816,,,,,,,,,,,,,,,,,,,,,,,,,,,,,,,,442656,001,2023-06-02_17h14.22.673,Pilot_online_tryings,2022.2.5,None,
WhenL3_uns.csv,directory_online_whenL3_uns.csv,When_UnsyncL3_testdirs.csv,WhenL3_unsync_norm.wav,ji,120:124,blue,Online_whenL3//dJI17.0.wav,0.0,,,0,1,1,2,0,2,2,32,0,2,2,1,,,,,,,,,,,,,,,,,,,,,,,,,,,,,,,,,,,,,,,,,,,,,,,,,,,,,,,,,0.022392900005797856,82.94604100000288,82.94604100000288,82.94604100000288,None,y,0.12410900001123082,,,,,,,,,,,,,,,,,,,,,,,,,,,,,,,,442656,001,2023-06-02_17h14.22.673,Pilot_online_tryings,2022.2.5,None,
WhenL3_uns.csv,directory_online_whenL3_uns.csv,When_UnsyncL3_testdirs.csv,WhenL3_unsync_norm.wav,ji,120:124,blue,Online_whenL3//dJI18.none.wav,none,,,0,1,1,2,0,2,2,32,0,3,3,2,,,,,,,,,,,,,,,,,,,,,,,,,,,,,,,,,,,,,,,,,,,,,,,,,,,,,,,,,0.007054499990772456,83.10139080000226,83.10139080000226,83.10139080000226,None,y,0.16578409999783617,,,,,,,,,,,,,,,,,,,,,,,,,,,,,,,,442656,001,2023-06-02_17h14.22.673,Pilot_online_tryings,2022.2.5,None,
WhenL3_uns.csv,directory_online_whenL3_uns.csv,When_UnsyncL3_testdirs.csv,WhenL3_unsync_norm.wav,ji,120:124,blue,,,,,0,1,1,2,0,2,2,32,,,,,,,,,,,,,,,,,,,,,,,,,,,,,,,,,,,,,,,,,,,,,,,,,,,,,,,,,,,,,,,,,,,,,,,,,,,,,,,,,,,,,,,,,,,,,,,,,,,442656,001,2023-06-02_17h14.22.673,Pilot_online_tryings,2022.2.5,None,
WhenL3_uns.csv,directory_online_whenL3_uns.csv,When_UnsyncL3_testdirs.csv,WhenL3_unsync_norm.wav,ga,92:96,red,Online_whenL3//cGA23.444.wav,444.0,,,0,1,1,2,0,3,3,13,0,0,0,3,,,,,,,,,,,,,,,,,,,,,,,,,,,,,,,,,,,,,,,,,,,,,,,,,,,,,,,83.33091689999856,83.33091689999856,0.02731770000536926,83.33091689999856,83.33091689999856,83.33091689999856,None,y,0.07573219999903813,,,,,,,,,,,,,,,,,,,,,,,,,,,,,,,,442656,001,2023-06-02_17h14.22.673,Pilot_online_tryings,2022.2.5,None,
WhenL3_uns.csv,directory_online_whenL3_uns.csv,When_UnsyncL3_testdirs.csv,WhenL3_unsync_norm.wav,ga,92:96,red,Online_whenL3//cGA21.1110.wav,1110.0,,,0,1,1,2,0,3,3,13,0,1,1,1,,,,,,,,,,,,,,,,,,,,,,,,,,,,,,,,,,,,,,,,,,,,,,,,,,,,,,,,,0.01406709999719169,83.47594669999671,83.47594669999671,83.47594669999671,None,y,0.06875000000582077,,,,,,,,,,,,,,,,,,,,,,,,,,,,,,,,442656,001,2023-06-02_17h14.22.673,Pilot_online_tryings,2022.2.5,None,
WhenL3_uns.csv,directory_online_whenL3_uns.csv,When_UnsyncL3_testdirs.csv,WhenL3_unsync_norm.wav,ga,92:96,red,Online_whenL3//cGA22.none.wav,none,,,0,1,1,2,0,3,3,13,0,2,2,2,,,,,,,,,,,,,,,,,,,,,,,,,,,,,,,,,,,,,,,,,,,,,,,,,,,,,,,,,0.008158999989973381,83.60140440000396,83.60140440000396,83.60140440000396,None,y,0.1647674999985611,,,,,,,,,,,,,,,,,,,,,,,,,,,,,,,,442656,001,2023-06-02_17h14.22.673,Pilot_online_tryings,2022.2.5,None,
WhenL3_uns.csv,directory_online_whenL3_uns.csv,When_UnsyncL3_testdirs.csv,WhenL3_unsync_norm.wav,ga,92:96,red,Online_whenL3//cGA20.1110.wav,1110.0,,,0,1,1,2,0,3,3,13,0,3,3,0,,,,,,,,,,,,,,,,,,,,,,,,,,,,,,,,,,,,,,,,,,,,,,,,,,,,,,,,,0.006417299999156967,83.82364349999989,83.82364349999989,83.82364349999989,None,y,0.08696640000562184,,,,,,,,,,,,,,,,,,,,,,,,,,,,,,,,442656,001,2023-06-02_17h14.22.673,Pilot_online_tryings,2022.2.5,None,
WhenL3_uns.csv,directory_online_whenL3_uns.csv,When_UnsyncL3_testdirs.csv,WhenL3_unsync_norm.wav,ga,92:96,red,,,,,0,1,1,2,0,3,3,13,,,,,,,,,,,,,,,,,,,,,,,,,,,,,,,,,,,,,,,,,,,,,,,,,,,,,,,,,,,,,,,,,,,,,,,,,,,,,,,,,,,,,,,,,,,,,,,,,,,442656,001,2023-06-02_17h14.22.673,Pilot_online_tryings,2022.2.5,None,
WhenL3_uns.csv,directory_online_whenL3_uns.csv,When_UnsyncL3_testdirs.csv,WhenL3_unsync_norm.wav,ñe,56:60,orange,Online_whenL3//bÑE20.1332.wav,1332.0,,,0,1,1,2,0,4,4,33,0,0,0,0,,,,,,,,,,,,,,,,,,,,,,,,,,,,,,,,,,,,,,,,,,,,,,,,,,,,,,,83.9972764999984,83.9972764999984,0.05432690000452567,83.9972764999984,83.9972764999984,83.9972764999984,None,y,0.030508499999996275,,,,,,,,,,,,,,,,,,,,,,,,,,,,,,,,442656,001,2023-06-02_17h14.22.673,Pilot_online_tryings,2022.2.5,None,
WhenL3_uns.csv,directory_online_whenL3_uns.csv,When_UnsyncL3_testdirs.csv,WhenL3_unsync_norm.wav,ñe,56:60,orange,Online_whenL3//bÑE23.none.wav,none,,,0,1,1,2,0,4,4,33,0,1,1,3,,,,,,,,,,,,,,,,,,,,,,,,,,,,,,,,,,,,,,,,,,,,,,,,,,,,,,,,,0.01669120001315605,84.0728686999937,84.0728686999937,84.0728686999937,None,y,0.12875960000383202,,,,,,,,,,,,,,,,,,,,,,,,,,,,,,,,442656,001,2023-06-02_17h14.22.673,Pilot_online_tryings,2022.2.5,None,
WhenL3_uns.csv,directory_online_whenL3_uns.csv,When_UnsyncL3_testdirs.csv,WhenL3_unsync_norm.wav,ñe,56:60,orange,Online_whenL3//bÑE22.1332.wav,1332.0,,,0,1,1,2,0,4,4,33,0,2,2,2,,,,,,,,,,,,,,,,,,,,,,,,,,,,,,,,,,,,,,,,,,,,,,,,,,,,,,,,,0.013313500006916001,84.25818259999505,84.25818259999505,84.25818259999505,None,y,0.08657709999533836,,,,,,,,,,,,,,,,,,,,,,,,,,,,,,,,442656,001,2023-06-02_17h14.22.673,Pilot_online_tryings,2022.2.5,None,
WhenL3_uns.csv,directory_online_whenL3_uns.csv,When_UnsyncL3_testdirs.csv,WhenL3_unsync_norm.wav,ñe,56:60,orange,Online_whenL3//bÑE21.none.wav,none,,,0,1,1,2,0,4,4,33,0,3,3,1,,,,,,,,,,,,,,,,,,,,,,,,,,,,,,,,,,,,,,,,,,,,,,,,,,,,,,,,,0.009981600000173785,84.38217440000153,84.38217440000153,84.38217440000153,None,y,0.10755580000113696,,,,,,,,,,,,,,,,,,,,,,,,,,,,,,,,442656,001,2023-06-02_17h14.22.673,Pilot_online_tryings,2022.2.5,None,
WhenL3_uns.csv,directory_online_whenL3_uns.csv,When_UnsyncL3_testdirs.csv,WhenL3_unsync_norm.wav,ñe,56:60,orange,,,,,0,1,1,2,0,4,4,33,,,,,,,,,,,,,,,,,,,,,,,,,,,,,,,,,,,,,,,,,,,,,,,,,,,,,,,,,,,,,,,,,,,,,,,,,,,,,,,,,,,,,,,,,,,,,,,,,,,442656,001,2023-06-02_17h14.22.673,Pilot_online_tryings,2022.2.5,None,
WhenL3_uns.csv,directory_online_whenL3_uns.csv,When_UnsyncL3_testdirs.csv,WhenL3_unsync_norm.wav,ga,88:92,red,Online_whenL3//cGA19.none.wav,none,,,0,1,1,2,0,5,5,16,0,0,0,3,,,,,,,,,,,,,,,,,,,,,,,,,,,,,,,,,,,,,,,,,,,,,,,,,,,,,,,84.55533849999483,84.55533849999483,0.024358800001209602,84.55533849999483,84.55533849999483,84.55533849999483,None,y,0.08023500001581851,,,,,,,,,,,,,,,,,,,,,,,,,,,,,,,,442656,001,2023-06-02_17h14.22.673,Pilot_online_tryings,2022.2.5,None,
WhenL3_uns.csv,directory_online_whenL3_uns.csv,When_UnsyncL3_testdirs.csv,WhenL3_unsync_norm.wav,ga,88:92,red,Online_whenL3//cGA18.222.wav,222.0,,,0,1,1,2,0,5,5,16,0,1,1,2,,,,,,,,,,,,,,,,,,,,,,,,,,,,,,,,,,,,,,,,,,,,,,,,,,,,,,,,,0.019361200000275858,84.70303760000388,84.70303760000388,84.70303760000388,None,y,0.07888460000685882,,,,,,,,,,,,,,,,,,,,,,,,,,,,,,,,442656,001,2023-06-02_17h14.22.673,Pilot_online_tryings,2022.2.5,None,
WhenL3_uns.csv,directory_online_whenL3_uns.csv,When_UnsyncL3_testdirs.csv,WhenL3_unsync_norm.wav,ga,88:92,red,Online_whenL3//cGA16.222.wav,222.0,,,0,1,1,2,0,5,5,16,0,2,2,0,,,,,,,,,,,,,,,,,,,,,,,,,,,,,,,,,,,,,,,,,,,,,,,,,,,,,,,,,0.007220400002552196,84.82135679999192,84.82135679999192,84.82135679999192,None,y,0.12642390000110026,,,,,,,,,,,,,,,,,,,,,,,,,,,,,,,,442656,001,2023-06-02_17h14.22.673,Pilot_online_tryings,2022.2.5,None,
WhenL3_uns.csv,directory_online_whenL3_uns.csv,When_UnsyncL3_testdirs.csv,WhenL3_unsync_norm.wav,ga,88:92,red,Online_whenL3//cGA17.888.wav,888.0,,,0,1,1,2,0,5,5,16,0,3,3,1,,,,,,,,,,,,,,,,,,,,,,,,,,,,,,,,,,,,,,,,,,,,,,,,,,,,,,,,,0.01577040000120178,85.00915939999686,85.00915939999686,85.00915939999686,None,y,0.09049560000130441,,,,,,,,,,,,,,,,,,,,,,,,,,,,,,,,442656,001,2023-06-02_17h14.22.673,Pilot_online_tryings,2022.2.5,None,
WhenL3_uns.csv,directory_online_whenL3_uns.csv,When_UnsyncL3_testdirs.csv,WhenL3_unsync_norm.wav,ga,88:92,red,,,,,0,1,1,2,0,5,5,16,,,,,,,,,,,,,,,,,,,,,,,,,,,,,,,,,,,,,,,,,,,,,,,,,,,,,,,,,,,,,,,,,,,,,,,,,,,,,,,,,,,,,,,,,,,,,,,,,,,442656,001,2023-06-02_17h14.22.673,Pilot_online_tryings,2022.2.5,None,
WhenL3_uns.csv,directory_online_whenL3_uns.csv,When_UnsyncL3_testdirs.csv,WhenL3_unsync_norm.wav,ji,128:132,blue,Online_whenL3//dJI26.1110.wav,1110.0,,,0,1,1,2,0,6,6,15,0,0,0,2,,,,,,,,,,,,,,,,,,,,,,,,,,,,,,,,,,,,,,,,,,,,,,,,,,,,,,,85.15189939999254,85.15189939999254,0.030027400003746152,85.15189939999254,85.15189939999254,85.15189939999254,None,y,0.10059200000250712,,,,,,,,,,,,,,,,,,,,,,,,,,,,,,,,442656,001,2023-06-02_17h14.22.673,Pilot_online_tryings,2022.2.5,None,
WhenL3_uns.csv,directory_online_whenL3_uns.csv,When_UnsyncL3_testdirs.csv,WhenL3_unsync_norm.wav,ji,128:132,blue,Online_whenL3//dJI27.1332.wav,1332.0,,,0,1,1,2,0,6,6,15,0,1,1,3,,,,,,,,,,,,,,,,,,,,,,,,,,,,,,,,,,,,,,,,,,,,,,,,,,,,,,,,,0.0065756000112742186,85.28939189999073,85.28939189999073,85.28939189999073,None,y,0.1300515000039013,,,,,,,,,,,,,,,,,,,,,,,,,,,,,,,,442656,001,2023-06-02_17h14.22.673,Pilot_online_tryings,2022.2.5,None,
WhenL3_uns.csv,directory_online_whenL3_uns.csv,When_UnsyncL3_testdirs.csv,WhenL3_unsync_norm.wav,ji,128:132,blue,Online_whenL3//dJI25.0.wav,0.0,,,0,1,1,2,0,6,6,15,0,2,2,1,,,,,,,,,,,,,,,,,,,,,,,,,,,,,,,,,,,,,,,,,,,,,,,,,,,,,,,,,0.0067925000039394945,85.47667760000331,85.47667760000331,85.47667760000331,None,y,0.10054980000131764,,,,,,,,,,,,,,,,,,,,,,,,,,,,,,,,442656,001,2023-06-02_17h14.22.673,Pilot_online_tryings,2022.2.5,None,
WhenL3_uns.csv,directory_online_whenL3_uns.csv,When_UnsyncL3_testdirs.csv,WhenL3_unsync_norm.wav,ji,128:132,blue,Online_whenL3//dJI24.444.wav,444.0,,,0,1,1,2,0,6,6,15,0,3,3,0,,,,,,,,,,,,,,,,,,,,,,,,,,,,,,,,,,,,,,,,,,,,,,,,,,,,,,,,,0.017822100009652786,85.63735489999817,85.63735489999817,85.63735489999817,None,y,0.08995929999218788,,,,,,,,,,,,,,,,,,,,,,,,,,,,,,,,442656,001,2023-06-02_17h14.22.673,Pilot_online_tryings,2022.2.5,None,
WhenL3_uns.csv,directory_online_whenL3_uns.csv,When_UnsyncL3_testdirs.csv,WhenL3_unsync_norm.wav,ji,128:132,blue,,,,,0,1,1,2,0,6,6,15,,,,,,,,,,,,,,,,,,,,,,,,,,,,,,,,,,,,,,,,,,,,,,,,,,,,,,,,,,,,,,,,,,,,,,,,,,,,,,,,,,,,,,,,,,,,,,,,,,,442656,001,2023-06-02_17h14.22.673,Pilot_online_tryings,2022.2.5,None,
WhenL3_uns.csv,directory_online_whenL3_uns.csv,When_UnsyncL3_testdirs.csv,WhenL3_unsync_norm.wav,mo,20:24,green,Online_whenL3//aMO22.1998.wav,1998.0,,,0,1,1,2,0,7,7,11,0,0,0,2,,,,,,,,,,,,,,,,,,,,,,,,,,,,,,,,,,,,,,,,,,,,,,,,,,,,,,,85.8175207000022,85.8175207000022,0.042479200012166984,85.8175207000022,85.8175207000022,85.8175207000022,None,y,0.052907100005541,,,,,,,,,,,,,,,,,,,,,,,,,,,,,,,,442656,001,2023-06-02_17h14.22.673,Pilot_online_tryings,2022.2.5,None,
WhenL3_uns.csv,directory_online_whenL3_uns.csv,When_UnsyncL3_testdirs.csv,WhenL3_unsync_norm.wav,mo,20:24,green,Online_whenL3//aMO20.none.wav,none,,,0,1,1,2,0,7,7,11,0,1,1,0,,,,,,,,,,,,,,,,,,,,,,,,,,,,,,,,,,,,,,,,,,,,,,,,,,,,,,,,,0.007220100000267848,85.91424529999495,85.91424529999495,85.91424529999495,None,y,0.0978645000141114,,,,,,,,,,,,,,,,,,,,,,,,,,,,,,,,442656,001,2023-06-02_17h14.22.673,Pilot_online_tryings,2022.2.5,None,
WhenL3_uns.csv,directory_online_whenL3_uns.csv,When_UnsyncL3_testdirs.csv,WhenL3_unsync_norm.wav,mo,20:24,green,Online_whenL3//aMO23.1110.wav,1110.0,,,0,1,1,2,0,7,7,11,0,2,2,3,,,,,,,,,,,,,,,,,,,,,,,,,,,,,,,,,,,,,,,,,,,,,,,,,,,,,,,,,0.007905499995104037,86.07488319999538,86.07488319999538,86.07488319999538,None,y,0.10322279999672901,,,,,,,,,,,,,,,,,,,,,,,,,,,,,,,,442656,001,2023-06-02_17h14.22.673,Pilot_online_tryings,2022.2.5,None,
WhenL3_uns.csv,directory_online_whenL3_uns.csv,When_UnsyncL3_testdirs.csv,WhenL3_unsync_norm.wav,mo,20:24,green,Online_whenL3//aMO21.none.wav,none,,,0,1,1,2,0,7,7,11,0,3,3,1,,,,,,,,,,,,,,,,,,,,,,,,,,,,,,,,,,,,,,,,,,,,,,,,,,,,,,,,,0.009469500000705011,86.23071509999863,86.23071509999863,86.23071509999863,None,y,0.08332459999655839,,,,,,,,,,,,,,,,,,,,,,,,,,,,,,,,442656,001,2023-06-02_17h14.22.673,Pilot_online_tryings,2022.2.5,None,
WhenL3_uns.csv,directory_online_whenL3_uns.csv,When_UnsyncL3_testdirs.csv,WhenL3_unsync_norm.wav,mo,20:24,green,,,,,0,1,1,2,0,7,7,11,,,,,,,,,,,,,,,,,,,,,,,,,,,,,,,,,,,,,,,,,,,,,,,,,,,,,,,,,,,,,,,,,,,,,,,,,,,,,,,,,,,,,,,,,,,,,,,,,,,442656,001,2023-06-02_17h14.22.673,Pilot_online_tryings,2022.2.5,None,
WhenL3_uns.csv,directory_online_whenL3_uns.csv,When_UnsyncL3_testdirs.csv,WhenL3_unsync_norm.wav,ñe,60:64,orange,Online_whenL3//bÑE26.888.wav,888.0,,,0,1,1,2,0,8,8,29,0,0,0,2,,,,,,,,,,,,,,,,,,,,,,,,,,,,,,,,,,,,,,,,,,,,,,,,,,,,,,,86.40089809999336,86.40089809999336,0.05321149999508634,86.40089809999336,86.40089809999336,86.40089809999336,None,y,0.09797960000287276,,,,,,,,,,,,,,,,,,,,,,,,,,,,,,,,442656,001,2023-06-02_17h14.22.673,Pilot_online_tryings,2022.2.5,None,
WhenL3_uns.csv,directory_online_whenL3_uns.csv,When_UnsyncL3_testdirs.csv,WhenL3_unsync_norm.wav,ñe,60:64,orange,Online_whenL3//bÑE24.none.wav,none,,,0,1,1,2,0,8,8,29,0,1,1,0,,,,,,,,,,,,,,,,,,,,,,,,,,,,,,,,,,,,,,,,,,,,,,,,,,,,,,,,,0.01632229999813717,86.57682279999426,86.57682279999426,86.57682279999426,None,y,0.14271000000007916,,,,,,,,,,,,,,,,,,,,,,,,,,,,,,,,442656,001,2023-06-02_17h14.22.673,Pilot_online_tryings,2022.2.5,None,
