key_resp1.keys,key_resp1.rt,participant,session,group,date,expName,psychopyVersion,OS,frameRate,key_resp_6.keys,key_resp_6.rt,key_resp_10.keys,key_resp_10.rt,key_ressp2.keys,key_ressp2.rt,key_resp_9.keys,key_resp_9.rt,key_resp_3.keys,key_resp_3.rt,key_resp1_2.keys,key_resp1_2.rt,key_resp1_3.keys,key_resp1_3.rt,key_resp_11.keys,key_resp_11.rt,key_resp_12.keys,key_resp_12.rt,key_resp_18.keys,key_resp_18.rt,key_resp_7.keys,key_resp_7.rt,key_resp1_4.keys,key_resp1_4.rt,syllable_catch.keys,key_resp_16.keys,audio1.thisRepN,audio1.thisTrialN,audio1.thisN,audio1.thisIndex,audio1.ran,dirs,timeA,timeB,s1,s2,s3,s4,s5,s6,s7,s8,s9,s10,s11,syllable_catch.rt,Conj_unsync_online.thisRepN,Conj_unsync_online.thisTrialN,Conj_unsync_online.thisN,Conj_unsync_online.thisIndex,Conj_unsync_online.ran,condA,condB,ord,colour,key_resp_16.rt,key_resp4.keys,key_resp4.rt,key_resp_4.keys,key_resp_4.rt,key_resp_17.keys,key_resp_17.rt,Partz_no_partm.keys,Partz_no_partm.rt,security_1_7.keys,security_1_7.rt,Conj_unsync_test.thisRepN,Conj_unsync_test.thisTrialN,Conj_unsync_test.thisN,Conj_unsync_test.thisIndex,Conj_unsync_test.ran,test,key_resp_13.keys,key_resp_13.rt,trials.thisRepN,trials.thisTrialN,trials.thisN,trials.thisIndex,trials.ran,seq,online_dir,test_dir,audio_offline
space,1.6336,458221,001,B,2023-06-13_18h32.03.710,Unsyncopated1,2022.2.5,Win32,59.71575302,,,,,,,,,,,,,,,,,,,,,,,,,,,,,,,,,,,,,,,,,,,,,,,,,,,,,,,,,,,,,,,,,,,,,,,,,,,,,,,,,,,
,,458221,001,B,2023-06-13_18h32.03.710,Unsyncopated1,2022.2.5,Win32,59.71575302,space,0.2969,,,,,,,,,,,,,,,,,,,,,,,,,,,,,,,,,,,,,,,,,,,,,,,,,,,,,,,,,,,,,,,,,,,,,,,,,,,,,,,,,
,,458221,001,B,2023-06-13_18h32.03.710,Unsyncopated1,2022.2.5,Win32,59.71575302,,,space,0.305,,,,,,,,,,,,,,,,,,,,,,,,,,,,,,,,,,,,,,,,,,,,,,,,,,,,,,,,,,,,,,,,,,,,,,,,,,,,,,,
,,458221,001,B,2023-06-13_18h32.03.710,Unsyncopated1,2022.2.5,Win32,59.71575302,,,,,space,0.8913,,,,,,,,,,,,,,,,,,,,,,,,,,,,,,,,,,,,,,,,,,,,,,,,,,,,,,,,,,,,,,,,,,,,,,,,,,,,,
,,458221,001,B,2023-06-13_18h32.03.710,Unsyncopated1,2022.2.5,Win32,59.71575302,,,,,,,space,0.3319,,,,,,,,,,,,,,,,,,,,,,,,,,,,,,,,,,,,,,,,,,,,,,,,,,,,,,,,,,,,,,,,,,,,,,,,,,,
,,458221,001,B,2023-06-13_18h32.03.710,Unsyncopated1,2022.2.5,Win32,59.71575302,,,,,,,,,space,0.3838,,,,,,,,,,,,,,,,,,,,,,,,,,,,,,,,,,,,,,,,,,,,,,,,,,,,,,,,,,,,,,,,,,,,,,,,,
,,458221,001,B,2023-06-13_18h32.03.710,Unsyncopated1,2022.2.5,Win32,59.71575302,,,,,,,,,,,space,0.3837,,,,,,,,,,,,,,,,,,,,,,,,,,,,,,,,,,,,,,,,,,,,,,,,,,,,,,,,,,,,,,,,,,,,,,,
,,458221,001,B,2023-06-13_18h32.03.710,Unsyncopated1,2022.2.5,Win32,59.71575302,,,,,,,,,,,,,space,0.3313,,,,,,,,,,,,,,,,,,,,,,,,,,,,,,,,,,,,,,,,,,,,,,,,,,,,,,,,,,,,,,,,,,,,,
,,458221,001,B,2023-06-13_18h32.03.710,Unsyncopated1,2022.2.5,Win32,59.71575302,,,,,,,,,,,,,,,space,0.3473,,,,,,,,,,,,,,,,,,,,,,,,,,,,,,,,,,,,,,,,,,,,,,,,,,,,,,,,,,,,,,,,,,,
,,458221,001,B,2023-06-13_18h32.03.710,Unsyncopated1,2022.2.5,Win32,59.71575302,,,,,,,,,,,,,,,,,space,0.6989,,,,,,,,,,,,,,,,,,,,,,,,,,,,,,,,,,,,,,,,,,,,,,,,,,,,,,,,,,,,,,,,,
,,458221,001,B,2023-06-13_18h32.03.710,Unsyncopated1,2022.2.5,Win32,59.71575302,,,,,,,,,,,,,,,,,,,space,0.5561,space,17.9416,space,2.2333,,,0,0,0,1,1,Online_conjL4_syn//c.bu.da13.none.none.wav,none,none,ci,ñi,ña,zi,sil,ru,re,lo,sil1,po,sil2,,,,,,,,,,,,,,,,,,,,,,,,,,,,,,,,,,,,,,
,,458221,001,B,2023-06-13_18h32.03.710,Unsyncopated1,2022.2.5,Win32,59.71575302,,,,,,,,,,,,,,,,,,,,,,,,,space,,0,1,1,0,1,Online_conjL4_syn//c.bu.da12.1110.1332.wav,1110,1332,zi,ci,ña,lo,sil,bu,da,pe,sil1,po,sil2,1.8562,,,,,,,,,,,,,,,,,,,,,,,,,,,,,,,,,,,,,
,,458221,001,B,2023-06-13_18h32.03.710,Unsyncopated1,2022.2.5,Win32,59.71575302,,,,,,,,,,,,,,,,,,,,,,,,,space,,0,2,2,3,1,Online_conjL4_syn//c.bu.da15.222.444.wav,222,444,de,bu,da,ja,sil,ci,bo,nu,sil1,re,sil2,0.6882,,,,,,,,,,,,,,,,,,,,,,,,,,,,,,,,,,,,,
,,458221,001,B,2023-06-13_18h32.03.710,Unsyncopated1,2022.2.5,Win32,59.71575302,,,,,,,,,,,,,,,,,,,,,,,,,,,0,3,3,2,1,Online_conjL4_syn//c.bu.da14.none.none.wav,none,none,ci,ñi,pe,ja,sil,ru,re,nu,sil1,ña,sil2,,,,,,,,,,,,,,,,,,,,,,,,,,,,,,,,,,,,,,
,,458221,001,B,2023-06-13_18h32.03.710,Unsyncopated1,2022.2.5,Win32,59.71575302,,,,,,,,,,,,,,,,,,,,,,,,,,,,,,,,,,,,,,,,,,,,,,,0,0,0,2,1,bu,da,76:80,orange,,,,,,,,,,,,,,,,,,,,,,,,,,,,
,,458221,001,B,2023-06-13_18h32.03.710,Unsyncopated1,2022.2.5,Win32,59.71575302,,,,,,,,,,,,,,,,,,,,,,,,,,,0,0,0,0,1,Online_conjL4_syn//c.bu.da28.none.none.wav,none,none,ja,ru,ñi,nu,sil,po,ci,de,sil1,bo,sil2,,,,,,,,,,,,,,,,,,,,,,,,,,,,,,,,,,,,,,
,,458221,001,B,2023-06-13_18h32.03.710,Unsyncopated1,2022.2.5,Win32,59.71575302,,,,,,,,,,,,,,,,,,,,,,,,,,,0,1,1,1,1,Online_conjL4_syn//c.bu.da29.none.none.wav,none,none,zi,ñi,pe,lo,sil,re,ci,ru,sil1,ña,sil2,,,,,,,,,,,,,,,,,,,,,,,,,,,,,,,,,,,,,,
,,458221,001,B,2023-06-13_18h32.03.710,Unsyncopated1,2022.2.5,Win32,59.71575302,,,,,,,,,,,,,,,,,,,,,,,,,,,0,2,2,3,1,Online_conjL4_syn//c.bu.da31.none.none.wav,none,none,zi,ñi,pe,lo,sil,de,ci,ña,sil1,bo,sil2,,,,,,,,,,,,,,,,,,,,,,,,,,,,,,,,,,,,,,
,,458221,001,B,2023-06-13_18h32.03.710,Unsyncopated1,2022.2.5,Win32,59.71575302,,,,,,,,,,,,,,,,,,,,,,,,,,,0,3,3,2,1,Online_conjL4_syn//c.bu.da30.none.none.wav,none,none,po,ci,ña,ja,sil,ru,bo,nu,sil1,ñi,sil2,,,,,,,,,,,,,,,,,,,,,,,,,,,,,,,,,,,,,,
,,458221,001,B,2023-06-13_18h32.03.710,Unsyncopated1,2022.2.5,Win32,59.71575302,,,,,,,,,,,,,,,,,,,,,,,,,,,,,,,,,,,,,,,,,,,,,,,0,1,1,11,1,bu,da,92:96,orange,,,,,,,,,,,,,,,,,,,,,,,,,,,,
,,458221,001,B,2023-06-13_18h32.03.710,Unsyncopated1,2022.2.5,Win32,59.71575302,,,,,,,,,,,,,,,,,,,,,,,,,,,0,0,0,3,1,Online_conjL4_syn//d.pe.po23.none.none.wav,none,none,zi,bo,da,lo,sil,de,ña,ñi,sil1,ru,sil2,,,,,,,,,,,,,,,,,,,,,,,,,,,,,,,,,,,,,,
,,458221,001,B,2023-06-13_18h32.03.710,Unsyncopated1,2022.2.5,Win32,59.71575302,,,,,,,,,,,,,,,,,,,,,,,,,space,,0,1,1,0,1,Online_conjL4_syn//d.pe.po20.1332.444.wav,1332,444,zi,ru,po,lo,sil,bo,pe,de,sil1,da,sil2,0.9633,,,,,,,,,,,,,,,,,,,,,,,,,,,,,,,,,,,,,
,,458221,001,B,2023-06-13_18h32.03.710,Unsyncopated1,2022.2.5,Win32,59.71575302,,,,,,,,,,,,,,,,,,,,,,,,,,,0,2,2,1,1,Online_conjL4_syn//d.pe.po21.none.none.wav,none,none,ja,bo,bu,nu,sil,ci,ña,de,sil1,ru,sil2,,,,,,,,,,,,,,,,,,,,,,,,,,,,,,,,,,,,,,
,,458221,001,B,2023-06-13_18h32.03.710,Unsyncopated1,2022.2.5,Win32,59.71575302,,,,,,,,,,,,,,,,,,,,,,,,,space,,0,3,3,2,1,Online_conjL4_syn//d.pe.po22.444.1110.wav,444,1110,de,ru,pe,ja,sil,po,re,nu,sil1,bo,sil2,1.5549,,,,,,,,,,,,,,,,,,,,,,,,,,,,,,,,,,,,,
,,458221,001,B,2023-06-13_18h32.03.710,Unsyncopated1,2022.2.5,Win32,59.71575302,,,,,,,,,,,,,,,,,,,,,,,,,,,,,,,,,,,,,,,,,,,,,,,0,2,2,15,1,pe,po,116:120,red,,,,,,,,,,,,,,,,,,,,,,,,,,,,
,,458221,001,B,2023-06-13_18h32.03.710,Unsyncopated1,2022.2.5,Win32,59.71575302,,,,,,,,,,,,,,,,,,,,,,,,,,,0,0,0,0,1,Online_conjL4_syn//a.zi.lo20.none.none.wav,none,none,ja,ru,po,nu,sil,ña,re,da,sil1,de,sil2,,,,,,,,,,,,,,,,,,,,,,,,,,,,,,,,,,,,,,
,,458221,001,B,2023-06-13_18h32.03.710,Unsyncopated1,2022.2.5,Win32,59.71575302,,,,,,,,,,,,,,,,,,,,,,,,,,,0,1,1,3,1,Online_conjL4_syn//a.zi.lo23.none.none.wav,none,none,da,ci,po,ja,sil,ñi,pe,nu,sil1,bo,sil2,,,,,,,,,,,,,,,,,,,,,,,,,,,,,,,,,,,,,,
,,458221,001,B,2023-06-13_18h32.03.710,Unsyncopated1,2022.2.5,Win32,59.71575302,,,,,,,,,,,,,,,,,,,,,,,,,space,,0,2,2,1,1,Online_conjL4_syn//a.zi.lo21.666.1554.wav,1554,666,ñi,bo,ru,zi,sil,pe,ña,lo,sil1,de,sil2,1.1678,,,,,,,,,,,,,,,,,,,,,,,,,,,,,,,,,,,,,
,,458221,001,B,2023-06-13_18h32.03.710,Unsyncopated1,2022.2.5,Win32,59.71575302,,,,,,,,,,,,,,,,,,,,,,,,,space,,0,3,3,2,1,Online_conjL4_syn//a.zi.lo22.666.1554.wav,1554,666,po,bo,pe,zi,sil,re,bu,lo,sil1,da,sil2,1.1046,,,,,,,,,,,,,,,,,,,,,,,,,,,,,,,,,,,,,
,,458221,001,B,2023-06-13_18h32.03.710,Unsyncopated1,2022.2.5,Win32,59.71575302,,,,,,,,,,,,,,,,,,,,,,,,,,,,,,,,,,,,,,,,,,,,,,,0,3,3,14,1,lo,zi,20:24,blue,,,,,,,,,,,,,,,,,,,,,,,,,,,,
,,458221,001,B,2023-06-13_18h32.03.710,Unsyncopated1,2022.2.5,Win32,59.71575302,,,,,,,,,,,,,,,,,,,,,,,,,space,,0,0,0,0,1,Online_conjL4_syn//c.bu.da20.444.1332.wav,444,1332,ja,pe,bu,nu,sil,ci,da,re,sil1,ru,sil2,1.819,,,,,,,,,,,,,,,,,,,,,,,,,,,,,,,,,,,,,
,,458221,001,B,2023-06-13_18h32.03.710,Unsyncopated1,2022.2.5,Win32,59.71575302,,,,,,,,,,,,,,,,,,,,,,,,,,,0,1,1,1,1,Online_conjL4_syn//c.bu.da21.none.none.wav,none,none,ña,re,po,ja,sil,de,ñi,nu,sil1,ru,sil2,,,,,,,,,,,,,,,,,,,,,,,,,,,,,,,,,,,,,,
,,458221,001,B,2023-06-13_18h32.03.710,Unsyncopated1,2022.2.5,Win32,59.71575302,,,,,,,,,,,,,,,,,,,,,,,,,space,,0,2,2,2,1,Online_conjL4_syn//c.bu.da22.0.222.wav,0,222,bu,da,bo,zi,sil,re,ru,lo,sil1,ñi,sil2,1.3199,,,,,,,,,,,,,,,,,,,,,,,,,,,,,,,,,,,,,
,,458221,001,B,2023-06-13_18h32.03.710,Unsyncopated1,2022.2.5,Win32,59.71575302,,,,,,,,,,,,,,,,,,,,,,,,,space,,0,3,3,3,1,Online_conjL4_syn//c.bu.da23.444.1110.wav,444,1110,ña,re,bu,ja,sil,da,de,nu,sil1,ci,sil2,1.8213,,,,,,,,,,,,,,,,,,,,,,,,,,,,,,,,,,,,,
,,458221,001,B,2023-06-13_18h32.03.710,Unsyncopated1,2022.2.5,Win32,59.71575302,,,,,,,,,,,,,,,,,,,,,,,,,,,,,,,,,,,,,,,,,,,,,,,0,4,4,22,1,bu,da,84:88,orange,,,,,,,,,,,,,,,,,,,,,,,,,,,,
,,458221,001,B,2023-06-13_18h32.03.710,Unsyncopated1,2022.2.5,Win32,59.71575302,,,,,,,,,,,,,,,,,,,,,,,,,space,,0,0,0,2,1,Online_conjL4_syn//a.zi.lo14.666.1554.wav,1554,666,ci,bo,pe,zi,sil,re,bu,lo,sil1,da,sil2,1.7726,,,,,,,,,,,,,,,,,,,,,,,,,,,,,,,,,,,,,
,,458221,001,B,2023-06-13_18h32.03.710,Unsyncopated1,2022.2.5,Win32,59.71575302,,,,,,,,,,,,,,,,,,,,,,,,,space,,0,1,1,3,1,Online_conjL4_syn//a.zi.lo15.0.666.wav,666,0,zi,pe,ci,lo,sil,bo,po,ña,sil1,da,sil2,0.8694,,,,,,,,,,,,,,,,,,,,,,,,,,,,,,,,,,,,,
,,458221,001,B,2023-06-13_18h32.03.710,Unsyncopated1,2022.2.5,Win32,59.71575302,,,,,,,,,,,,,,,,,,,,,,,,,,,0,2,2,1,1,Online_conjL4_syn//a.zi.lo13.none.none.wav,none,none,pe,de,ña,ja,sil,ci,ru,nu,sil1,po,sil2,,,,,,,,,,,,,,,,,,,,,,,,,,,,,,,,,,,,,,
,,458221,001,B,2023-06-13_18h32.03.710,Unsyncopated1,2022.2.5,Win32,59.71575302,,,,,,,,,,,,,,,,,,,,,,,,,,,0,3,3,0,1,Online_conjL4_syn//a.zi.lo12.none.none.wav,none,none,ja,ci,ña,nu,sil,bu,bo,de,sil1,re,sil2,,,,,,,,,,,,,,,,,,,,,,,,,,,,,,,,,,,,,,
,,458221,001,B,2023-06-13_18h32.03.710,Unsyncopated1,2022.2.5,Win32,59.71575302,,,,,,,,,,,,,,,,,,,,,,,,,,,,,,,,,,,,,,,,,,,,,,,0,5,5,31,1,lo,zi,12:16,blue,,,,,,,,,,,,,,,,,,,,,,,,,,,,
,,458221,001,B,2023-06-13_18h32.03.710,Unsyncopated1,2022.2.5,Win32,59.71575302,,,,,,,,,,,,,,,,,,,,,,,,,space,,0,0,0,3,1,Online_conjL4_syn//b.ja.nu15.0.666.wav,0,666,ja,ru,ci,nu,sil,de,da,po,sil1,bo,sil2,1.1837,,,,,,,,,,,,,,,,,,,,,,,,,,,,,,,,,,,,,
,,458221,001,B,2023-06-13_18h32.03.710,Unsyncopated1,2022.2.5,Win32,59.71575302,,,,,,,,,,,,,,,,,,,,,,,,,,,0,1,1,2,1,Online_conjL4_syn//b.ja.nu14.none.none.wav,none,none,pe,ci,da,zi,sil,po,bu,lo,sil1,ña,sil2,,,,,,,,,,,,,,,,,,,,,,,,,,,,,,,,,,,,,,
,,458221,001,B,2023-06-13_18h32.03.710,Unsyncopated1,2022.2.5,Win32,59.71575302,,,,,,,,,,,,,,,,,,,,,,,,,space,,0,2,2,0,1,Online_conjL4_syn//b.ja.nu12.0.666.wav,0,666,ja,ñi,de,nu,sil,pe,po,da,sil1,ru,sil2,1.1553,,,,,,,,,,,,,,,,,,,,,,,,,,,,,,,,,,,,,
,,458221,001,B,2023-06-13_18h32.03.710,Unsyncopated1,2022.2.5,Win32,59.71575302,,,,,,,,,,,,,,,,,,,,,,,,,,,0,3,3,1,1,Online_conjL4_syn//b.ja.nu13.none.none.wav,none,none,re,ci,bu,zi,sil,po,bo,lo,sil1,pe,sil2,,,,,,,,,,,,,,,,,,,,,,,,,,,,,,,,,,,,,,
,,458221,001,B,2023-06-13_18h32.03.710,Unsyncopated1,2022.2.5,Win32,59.71575302,,,,,,,,,,,,,,,,,,,,,,,,,,,,,,,,,,,,,,,,,,,,,,,0,6,6,24,1,ja,nu,44:48,green,,,,,,,,,,,,,,,,,,,,,,,,,,,,
,,458221,001,B,2023-06-13_18h32.03.710,Unsyncopated1,2022.2.5,Win32,59.71575302,,,,,,,,,,,,,,,,,,,,,,,,,space,,0,0,0,1,1,Online_conjL4_syn//a.zi.lo25.0.666.wav,666,0,zi,po,ci,lo,sil,re,da,ru,sil1,pe,sil2,0.5999,,,,,,,,,,,,,,,,,,,,,,,,,,,,,,,,,,,,,
,,458221,001,B,2023-06-13_18h32.03.710,Unsyncopated1,2022.2.5,Win32,59.71575302,,,,,,,,,,,,,,,,,,,,,,,,,,,0,1,1,0,1,Online_conjL4_syn//a.zi.lo24.none.none.wav,none,none,ñi,po,de,ja,sil,pe,ci,nu,sil1,bo,sil2,,,,,,,,,,,,,,,,,,,,,,,,,,,,,,,,,,,,,,
,,458221,001,B,2023-06-13_18h32.03.710,Unsyncopated1,2022.2.5,Win32,59.71575302,,,,,,,,,,,,,,,,,,,,,,,,,,,0,2,2,3,1,Online_conjL4_syn//a.zi.lo27.none.none.wav,none,none,ja,re,bo,nu,sil,bu,pe,ru,sil1,ñi,sil2,,,,,,,,,,,,,,,,,,,,,,,,,,,,,,,,,,,,,,
,,458221,001,B,2023-06-13_18h32.03.710,Unsyncopated1,2022.2.5,Win32,59.71575302,,,,,,,,,,,,,,,,,,,,,,,,,space,,0,3,3,2,1,Online_conjL4_syn//a.zi.lo26.0.666.wav,666,0,zi,bu,po,lo,sil,bo,da,re,sil1,pe,sil2,0.588,,,,,,,,,,,,,,,,,,,,,,,,,,,,,,,,,,,,,
,,458221,001,B,2023-06-13_18h32.03.710,Unsyncopated1,2022.2.5,Win32,59.71575302,,,,,,,,,,,,,,,,,,,,,,,,,,,,,,,,,,,,,,,,,,,,,,,0,7,7,23,1,lo,zi,24:28,blue,,,,,,,,,,,,,,,,,,,,,,,,,,,,
,,458221,001,B,2023-06-13_18h32.03.710,Unsyncopated1,2022.2.5,Win32,59.71575302,,,,,,,,,,,,,,,,,,,,,,,,,,,0,0,0,0,1,Online_conjL4_syn//d.pe.po0.none.none.wav,none,none,ci,ru,ña,zi,sil,de,bu,lo,sil1,da,sil2,,,,,,,,,,,,,,,,,,,,,,,,,,,,,,,,,,,,,,
,,458221,001,B,2023-06-13_18h32.03.710,Unsyncopated1,2022.2.5,Win32,59.71575302,,,,,,,,,,,,,,,,,,,,,,,,,space,,0,1,1,1,1,Online_conjL4_syn//d.pe.po1.1332.222.wav,1332,222,ñi,po,da,zi,sil,bu,pe,lo,sil1,bo,sil2,0.735,,,,,,,,,,,,,,,,,,,,,,,,,,,,,,,,,,,,,
,,458221,001,B,2023-06-13_18h32.03.710,Unsyncopated1,2022.2.5,Win32,59.71575302,,,,,,,,,,,,,,,,,,,,,,,,,,,0,2,2,2,1,Online_conjL4_syn//d.pe.po2.none.none.wav,none,none,de,bo,da,zi,sil,ci,ñi,lo,sil1,ña,sil2,,,,,,,,,,,,,,,,,,,,,,,,,,,,,,,,,,,,,,
,,458221,001,B,2023-06-13_18h32.03.710,Unsyncopated1,2022.2.5,Win32,59.71575302,,,,,,,,,,,,,,,,,,,,,,,,,,,0,3,3,3,1,Online_conjL4_syn//d.pe.po3.none.none.wav,none,none,re,ñi,ña,ja,sil,ci,da,nu,sil1,bo,sil2,,,,,,,,,,,,,,,,,,,,,,,,,,,,,,,,,,,,,,
,,458221,001,B,2023-06-13_18h32.03.710,Unsyncopated1,2022.2.5,Win32,59.71575302,,,,,,,,,,,,,,,,,,,,,,,,,,,,,,,,,,,,,,,,,,,,,,,0,8,8,27,1,pe,po,96:100,red,,,,,,,,,,,,,,,,,,,,,,,,,,,,
,,458221,001,B,2023-06-13_18h32.03.710,Unsyncopated1,2022.2.5,Win32,59.71575302,,,,,,,,,,,,,,,,,,,,,,,,,space,,0,0,0,3,1,Online_conjL4_syn//c.bu.da3.0.444.wav,0,444,bu,ci,da,ja,sil,pe,po,nu,sil1,bo,sil2,1.4807,,,,,,,,,,,,,,,,,,,,,,,,,,,,,,,,,,,,,
,,458221,001,B,2023-06-13_18h32.03.710,Unsyncopated1,2022.2.5,Win32,59.71575302,,,,,,,,,,,,,,,,,,,,,,,,,space,,0,1,1,2,1,Online_conjL4_syn//c.bu.da2.0.222.wav,0,222,bu,da,ñi,ja,sil,pe,re,nu,sil1,bo,sil2,0.9003,,,,,,,,,,,,,,,,,,,,,,,,,,,,,,,,,,,,,
,,458221,001,B,2023-06-13_18h32.03.710,Unsyncopated1,2022.2.5,Win32,59.71575302,,,,,,,,,,,,,,,,,,,,,,,,,,,0,2,2,1,1,Online_conjL4_syn//c.bu.da1.none.none.wav,none,none,ja,po,pe,nu,sil,ñi,ru,bo,sil1,ci,sil2,,,,,,,,,,,,,,,,,,,,,,,,,,,,,,,,,,,,,,
,,458221,001,B,2023-06-13_18h32.03.710,Unsyncopated1,2022.2.5,Win32,59.71575302,,,,,,,,,,,,,,,,,,,,,,,,,,,0,3,3,0,1,Online_conjL4_syn//c.bu.da0.none.none.wav,none,none,ja,bo,re,nu,sil,ñi,ña,pe,sil1,ci,sil2,,,,,,,,,,,,,,,,,,,,,,,,,,,,,,,,,,,,,,
,,458221,001,B,2023-06-13_18h32.03.710,Unsyncopated1,2022.2.5,Win32,59.71575302,,,,,,,,,,,,,,,,,,,,,,,,,,,,,,,,,,,,,,,,,,,,,,,0,9,9,29,1,bu,da,64:68,orange,,,,,,,,,,,,,,,,,,,,,,,,,,,,
,,458221,001,B,2023-06-13_18h32.03.710,Unsyncopated1,2022.2.5,Win32,59.71575302,,,,,,,,,,,,,,,,,,,,,,,,,space,,0,0,0,1,1,Online_conjL4_syn//d.pe.po17.222.444.wav,222,444,bo,pe,po,ja,sil,re,ci,nu,sil1,ru,sil2,0.8983,,,,,,,,,,,,,,,,,,,,,,,,,,,,,,,,,,,,,
,,458221,001,B,2023-06-13_18h32.03.710,Unsyncopated1,2022.2.5,Win32,59.71575302,,,,,,,,,,,,,,,,,,,,,,,,,,,0,1,1,0,1,Online_conjL4_syn//d.pe.po16.none.none.wav,none,none,ja,bo,ci,nu,sil,da,ru,re,sil1,de,sil2,,,,,,,,,,,,,,,,,,,,,,,,,,,,,,,,,,,,,,
,,458221,001,B,2023-06-13_18h32.03.710,Unsyncopated1,2022.2.5,Win32,59.71575302,,,,,,,,,,,,,,,,,,,,,,,,,,,0,2,2,3,1,Online_conjL4_syn//d.pe.po19.none.none.wav,none,none,da,de,ña,zi,sil,bo,ru,lo,sil1,ñi,sil2,,,,,,,,,,,,,,,,,,,,,,,,,,,,,,,,,,,,,,
,,458221,001,B,2023-06-13_18h32.03.710,Unsyncopated1,2022.2.5,Win32,59.71575302,,,,,,,,,,,,,,,,,,,,,,,,,space,,0,3,3,2,1,Online_conjL4_syn//d.pe.po18.1554.1110.wav,1554,1110,zi,ña,da,lo,sil,po,bo,pe,sil1,ru,sil2,1.518,,,,,,,,,,,,,,,,,,,,,,,,,,,,,,,,,,,,,
,,458221,001,B,2023-06-13_18h32.03.710,Unsyncopated1,2022.2.5,Win32,59.71575302,,,,,,,,,,,,,,,,,,,,,,,,,,,,,,,,,,,,,,,,,,,,,,,0,10,10,8,1,pe,po,112:116,red,,,,,,,,,,,,,,,,,,,,,,,,,,,,
,,458221,001,B,2023-06-13_18h32.03.710,Unsyncopated1,2022.2.5,Win32,59.71575302,,,,,,,,,,,,,,,,,,,,,,,,,,,0,0,0,2,1,Online_conjL4_syn//a.zi.lo18.none.none.wav,none,none,ja,pe,ru,nu,sil,de,ñi,bu,sil1,re,sil2,,,,,,,,,,,,,,,,,,,,,,,,,,,,,,,,,,,,,,
,,458221,001,B,2023-06-13_18h32.03.710,Unsyncopated1,2022.2.5,Win32,59.71575302,,,,,,,,,,,,,,,,,,,,,,,,,,,0,1,1,1,1,Online_conjL4_syn//a.zi.lo17.none.none.wav,none,none,ja,po,bu,nu,sil,de,ru,ñi,sil1,ci,sil2,,,,,,,,,,,,,,,,,,,,,,,,,,,,,,,,,,,,,,
,,458221,001,B,2023-06-13_18h32.03.710,Unsyncopated1,2022.2.5,Win32,59.71575302,,,,,,,,,,,,,,,,,,,,,,,,,space,,0,2,2,3,1,Online_conjL4_syn//a.zi.lo19.666.1554.wav,1554,666,da,bo,po,zi,sil,ru,ci,lo,sil1,bu,sil2,1.1721,,,,,,,,,,,,,,,,,,,,,,,,,,,,,,,,,,,,,
,,458221,001,B,2023-06-13_18h32.03.710,Unsyncopated1,2022.2.5,Win32,59.71575302,,,,,,,,,,,,,,,,,,,,,,,,,space,,0,3,3,0,1,Online_conjL4_syn//a.zi.lo16.666.1554.wav,1554,666,ña,po,ci,zi,sil,pe,de,lo,sil1,ru,sil2,1.0675,,,,,,,,,,,,,,,,,,,,,,,,,,,,,,,,,,,,,
,,458221,001,B,2023-06-13_18h32.03.710,Unsyncopated1,2022.2.5,Win32,59.71575302,,,,,,,,,,,,,,,,,,,,,,,,,,,,,,,,,,,,,,,,,,,,,,,0,11,11,4,1,lo,zi,16:20,blue,,,,,,,,,,,,,,,,,,,,,,,,,,,,
,,458221,001,B,2023-06-13_18h32.03.710,Unsyncopated1,2022.2.5,Win32,59.71575302,,,,,,,,,,,,,,,,,,,,,,,,,space,,0,0,0,3,1,Online_conjL4_syn//d.pe.po15.222.1110.wav,222,1110,ci,pe,de,ja,sil,po,bo,nu,sil1,da,sil2,1.6233,,,,,,,,,,,,,,,,,,,,,,,,,,,,,,,,,,,,,
,,458221,001,B,2023-06-13_18h32.03.710,Unsyncopated1,2022.2.5,Win32,59.71575302,,,,,,,,,,,,,,,,,,,,,,,,,,,0,1,1,2,1,Online_conjL4_syn//d.pe.po14.1110.1332.wav,1110,1332,ja,bo,bu,nu,sil,pe,po,de,sil1,da,sil2,,,,,,,,,,,,,,,,,,,,,,,,,,,,,,,,,,,,,,
,,458221,001,B,2023-06-13_18h32.03.710,Unsyncopated1,2022.2.5,Win32,59.71575302,,,,,,,,,,,,,,,,,,,,,,,,,space,,0,2,2,0,1,Online_conjL4_syn//d.pe.po12.none.none.wav,none,none,bu,de,re,zi,sil,ña,ci,lo,sil1,ñi,sil2,2.4492,,,,,,,,,,,,,,,,,,,,,,,,,,,,,,,,,,,,,
,,458221,001,B,2023-06-13_18h32.03.710,Unsyncopated1,2022.2.5,Win32,59.71575302,,,,,,,,,,,,,,,,,,,,,,,,,,,0,3,3,1,1,Online_conjL4_syn//d.pe.po13.none.none.wav,none,none,ci,ru,da,ja,sil,de,ñi,nu,sil1,bu,sil2,,,,,,,,,,,,,,,,,,,,,,,,,,,,,,,,,,,,,,
,,458221,001,B,2023-06-13_18h32.03.710,Unsyncopated1,2022.2.5,Win32,59.71575302,,,,,,,,,,,,,,,,,,,,,,,,,,,,,,,,,,,,,,,,,,,,,,,0,12,12,5,1,pe,po,108:112,red,,,,,,,,,,,,,,,,,,,,,,,,,,,,
,,458221,001,B,2023-06-13_18h32.03.710,Unsyncopated1,2022.2.5,Win32,59.71575302,,,,,,,,,,,,,,,,,,,,,,,,,,y,0,0,0,2,1,Online_conjL4_syn//d.pe.po30.444.0.wav,444,0,po,ru,pe,zi,sil,bu,ci,lo,sil1,re,sil2,,,,,,,,,,,0.1313,,,,,,,,,,,,,,,,,,,,,,,,,,,
,,458221,001,B,2023-06-13_18h32.03.710,Unsyncopated1,2022.2.5,Win32,59.71575302,,,,,,,,,,,,,,,,,,,,,,,,,,y,0,1,1,0,1,Online_conjL4_syn//d.pe.po28.none.none.wav,none,none,ja,ru,ña,nu,sil,re,bu,da,sil1,ci,sil2,,,,,,,,,,,0.1535,,,,,,,,,,,,,,,,,,,,,,,,,,,
,,458221,001,B,2023-06-13_18h32.03.710,Unsyncopated1,2022.2.5,Win32,59.71575302,,,,,,,,,,,,,,,,,,,,,,,,,,y,0,2,2,3,1,Online_conjL4_syn//d.pe.po31.444.1332.wav,444,1332,ja,re,pe,nu,sil,de,po,ci,sil1,bo,sil2,,,,,,,,,,,0.1487,,,,,,,,,,,,,,,,,,,,,,,,,,,
,,458221,001,B,2023-06-13_18h32.03.710,Unsyncopated1,2022.2.5,Win32,59.71575302,,,,,,,,,,,,,,,,,,,,,,,,,,y,0,3,3,1,1,Online_conjL4_syn//d.pe.po29.none.none.wav,none,none,da,ña,ru,ja,sil,ñi,de,nu,sil1,ci,sil2,,,,,,,,,,,0.1305,,,,,,,,,,,,,,,,,,,,,,,,,,,
,,458221,001,B,2023-06-13_18h32.03.710,Unsyncopated1,2022.2.5,Win32,59.71575302,,,,,,,,,,,,,,,,,,,,,,,,,,,,,,,,,,,,,,,,,,,,,,,0,13,13,20,1,pe,po,124:128,red,,,,,,,,,,,,,,,,,,,,,,,,,,,,
,,458221,001,B,2023-06-13_18h32.03.710,Unsyncopated1,2022.2.5,Win32,59.71575302,,,,,,,,,,,,,,,,,,,,,,,,,,y,0,0,0,2,1,Online_conjL4_syn//c.bu.da18.1110.1332.wav,1110,1332,zi,bo,ñi,lo,sil,bu,da,de,sil1,po,sil2,,,,,,,,,,,0.1346,,,,,,,,,,,,,,,,,,,,,,,,,,,
,,458221,001,B,2023-06-13_18h32.03.710,Unsyncopated1,2022.2.5,Win32,59.71575302,,,,,,,,,,,,,,,,,,,,,,,,,,y,0,1,1,0,1,Online_conjL4_syn//c.bu.da16.none.none.wav,none,none,po,ci,re,ja,sil,pe,de,nu,sil1,ru,sil2,,,,,,,,,,,0.1337,,,,,,,,,,,,,,,,,,,,,,,,,,,
,,458221,001,B,2023-06-13_18h32.03.710,Unsyncopated1,2022.2.5,Win32,59.71575302,,,,,,,,,,,,,,,,,,,,,,,,,,y,0,2,2,1,1,Online_conjL4_syn//c.bu.da17.none.none.wav,none,none,zi,bo,de,lo,sil,po,ña,re,sil1,ci,sil2,,,,,,,,,,,0.1173,,,,,,,,,,,,,,,,,,,,,,,,,,,
,,458221,001,B,2023-06-13_18h32.03.710,Unsyncopated1,2022.2.5,Win32,59.71575302,,,,,,,,,,,,,,,,,,,,,,,,,,y,0,3,3,3,1,Online_conjL4_syn//c.bu.da19.none.none.wav,none,none,po,ña,ru,zi,sil,de,pe,lo,sil1,ci,sil2,,,,,,,,,,,0.1514,,,,,,,,,,,,,,,,,,,,,,,,,,,
,,458221,001,B,2023-06-13_18h32.03.710,Unsyncopated1,2022.2.5,Win32,59.71575302,,,,,,,,,,,,,,,,,,,,,,,,,,,,,,,,,,,,,,,,,,,,,,,0,14,14,0,1,bu,da,80:84,orange,,,,,,,,,,,,,,,,,,,,,,,,,,,,
,,458221,001,B,2023-06-13_18h32.03.710,Unsyncopated1,2022.2.5,Win32,59.71575302,,,,,,,,,,,,,,,,,,,,,,,,,,y,0,0,0,0,1,Online_conjL4_syn//b.ja.nu0.666.1554.wav,666,1554,ña,bu,ci,ja,sil,ñi,re,nu,sil1,po,sil2,,,,,,,,,,,0.1314,,,,,,,,,,,,,,,,,,,,,,,,,,,
,,458221,001,B,2023-06-13_18h32.03.710,Unsyncopated1,2022.2.5,Win32,59.71575302,,,,,,,,,,,,,,,,,,,,,,,,,,y,0,1,1,3,1,Online_conjL4_syn//b.ja.nu3.0.666.wav,0,666,ja,bu,bo,nu,sil,pe,ru,re,sil1,ñi,sil2,,,,,,,,,,,0.1322,,,,,,,,,,,,,,,,,,,,,,,,,,,
,,458221,001,B,2023-06-13_18h32.03.710,Unsyncopated1,2022.2.5,Win32,59.71575302,,,,,,,,,,,,,,,,,,,,,,,,,,y,0,2,2,2,1,Online_conjL4_syn//b.ja.nu2.none.none.wav,none,none,zi,da,ru,lo,sil,bo,ci,ñi,sil1,de,sil2,,,,,,,,,,,0.116,,,,,,,,,,,,,,,,,,,,,,,,,,,
,,458221,001,B,2023-06-13_18h32.03.710,Unsyncopated1,2022.2.5,Win32,59.71575302,,,,,,,,,,,,,,,,,,,,,,,,,,y,0,3,3,1,1,Online_conjL4_syn//b.ja.nu1.none.none.wav,none,none,zi,de,ru,lo,sil,po,ña,bu,sil1,da,sil2,,,,,,,,,,,0.1326,,,,,,,,,,,,,,,,,,,,,,,,,,,
,,458221,001,B,2023-06-13_18h32.03.710,Unsyncopated1,2022.2.5,Win32,59.71575302,,,,,,,,,,,,,,,,,,,,,,,,,,,,,,,,,,,,,,,,,,,,,,,0,15,15,12,1,ja,nu,32:36,green,,,,,,,,,,,,,,,,,,,,,,,,,,,,
,,458221,001,B,2023-06-13_18h32.03.710,Unsyncopated1,2022.2.5,Win32,59.71575302,,,,,,,,,,,,,,,,,,,,,,,,,,y,0,0,0,3,1,Online_conjL4_syn//b.ja.nu27.666.1554.wav,666,1554,ña,po,re,ja,sil,de,bo,nu,sil1,ci,sil2,,,,,,,,,,,0.138,,,,,,,,,,,,,,,,,,,,,,,,,,,
,,458221,001,B,2023-06-13_18h32.03.710,Unsyncopated1,2022.2.5,Win32,59.71575302,,,,,,,,,,,,,,,,,,,,,,,,,,y,0,1,1,2,1,Online_conjL4_syn//b.ja.nu26.666.1554.wav,666,1554,pe,bu,ña,ja,sil,po,ru,nu,sil1,bo,sil2,,,,,,,,,,,0.1183,,,,,,,,,,,,,,,,,,,,,,,,,,,
,,458221,001,B,2023-06-13_18h32.03.710,Unsyncopated1,2022.2.5,Win32,59.71575302,,,,,,,,,,,,,,,,,,,,,,,,,,y,0,2,2,1,1,Online_conjL4_syn//b.ja.nu25.none.none.wav,none,none,zi,pe,da,lo,sil,re,po,bo,sil1,ci,sil2,,,,,,,,,,,0.15,,,,,,,,,,,,,,,,,,,,,,,,,,,
,,458221,001,B,2023-06-13_18h32.03.710,Unsyncopated1,2022.2.5,Win32,59.71575302,,,,,,,,,,,,,,,,,,,,,,,,,,y,0,3,3,0,1,Online_conjL4_syn//b.ja.nu24.none.none.wav,none,none,bo,ñi,re,zi,sil,pe,ci,lo,sil1,de,sil2,,,,,,,,,,,0.1347,,,,,,,,,,,,,,,,,,,,,,,,,,,
,,458221,001,B,2023-06-13_18h32.03.710,Unsyncopated1,2022.2.5,Win32,59.71575302,,,,,,,,,,,,,,,,,,,,,,,,,,,,,,,,,,,,,,,,,,,,,,,0,16,16,28,1,ja,nu,56:60,green,,,,,,,,,,,,,,,,,,,,,,,,,,,,
,,458221,001,B,2023-06-13_18h32.03.710,Unsyncopated1,2022.2.5,Win32,59.71575302,,,,,,,,,,,,,,,,,,,,,,,,,,y,0,0,0,0,1,Online_conjL4_syn//b.ja.nu28.none.none.wav,none,none,zi,ña,bu,lo,sil,re,de,ci,sil1,pe,sil2,,,,,,,,,,,0.1319,,,,,,,,,,,,,,,,,,,,,,,,,,,
,,458221,001,B,2023-06-13_18h32.03.710,Unsyncopated1,2022.2.5,Win32,59.71575302,,,,,,,,,,,,,,,,,,,,,,,,,,y,0,1,1,3,1,Online_conjL4_syn//b.ja.nu31.666.1554.wav,666,1554,po,ru,ña,ja,sil,da,ci,nu,sil1,re,sil2,,,,,,,,,,,0.1507,,,,,,,,,,,,,,,,,,,,,,,,,,,
,,458221,001,B,2023-06-13_18h32.03.710,Unsyncopated1,2022.2.5,Win32,59.71575302,,,,,,,,,,,,,,,,,,,,,,,,,,y,0,2,2,2,1,Online_conjL4_syn//b.ja.nu30.none.none.wav,none,none,ci,ña,ru,zi,sil,bo,pe,lo,sil1,bu,sil2,,,,,,,,,,,0.1518,,,,,,,,,,,,,,,,,,,,,,,,,,,
,,458221,001,B,2023-06-13_18h32.03.710,Unsyncopated1,2022.2.5,Win32,59.71575302,,,,,,,,,,,,,,,,,,,,,,,,,,y,0,3,3,1,1,Online_conjL4_syn//b.ja.nu29.none.none.wav,none,none,da,po,ña,zi,sil,pe,re,lo,sil1,bo,sil2,,,,,,,,,,,0.1515,,,,,,,,,,,,,,,,,,,,,,,,,,,
,,458221,001,B,2023-06-13_18h32.03.710,Unsyncopated1,2022.2.5,Win32,59.71575302,,,,,,,,,,,,,,,,,,,,,,,,,,,,,,,,,,,,,,,,,,,,,,,0,17,17,13,1,ja,nu,60:64,green,,,,,,,,,,,,,,,,,,,,,,,,,,,,
,,458221,001,B,2023-06-13_18h32.03.710,Unsyncopated1,2022.2.5,Win32,59.71575302,,,,,,,,,,,,,,,,,,,,,,,,,,y,0,0,0,0,1,Online_conjL4_syn//c.bu.da8.222.444.wav,222,444,ja,bu,da,nu,sil,re,ru,ñi,sil1,de,sil2,,,,,,,,,,,0.1196,,,,,,,,,,,,,,,,,,,,,,,,,,,
,,458221,001,B,2023-06-13_18h32.03.710,Unsyncopated1,2022.2.5,Win32,59.71575302,,,,,,,,,,,,,,,,,,,,,,,,,,y,0,1,1,2,1,Online_conjL4_syn//c.bu.da10.none.none.wav,none,none,ja,de,bo,nu,sil,ñi,ru,po,sil1,pe,sil2,,,,,,,,,,,0.1343,,,,,,,,,,,,,,,,,,,,,,,,,,,
,,458221,001,B,2023-06-13_18h32.03.710,Unsyncopated1,2022.2.5,Win32,59.71575302,,,,,,,,,,,,,,,,,,,,,,,,,,y,0,2,2,3,1,Online_conjL4_syn//c.bu.da11.1332.222.wav,1332,222,zi,da,po,lo,sil,bo,bu,ci,sil1,pe,sil2,,,,,,,,,,,0.1683,,,,,,,,,,,,,,,,,,,,,,,,,,,
,,458221,001,B,2023-06-13_18h32.03.710,Unsyncopated1,2022.2.5,Win32,59.71575302,,,,,,,,,,,,,,,,,,,,,,,,,,y,0,3,3,1,1,Online_conjL4_syn//c.bu.da9.444.1110.wav,444,1110,pe,re,bu,zi,sil,da,po,lo,sil1,de,sil2,,,,,,,,,,,0.1336,,,,,,,,,,,,,,,,,,,,,,,,,,,
,,458221,001,B,2023-06-13_18h32.03.710,Unsyncopated1,2022.2.5,Win32,59.71575302,,,,,,,,,,,,,,,,,,,,,,,,,,,,,,,,,,,,,,,,,,,,,,,0,18,18,7,1,bu,da,72:76,orange,,,,,,,,,,,,,,,,,,,,,,,,,,,,
,,458221,001,B,2023-06-13_18h32.03.710,Unsyncopated1,2022.2.5,Win32,59.71575302,,,,,,,,,,,,,,,,,,,,,,,,,,y,0,0,0,1,1,Online_conjL4_syn//b.ja.nu21.none.none.wav,none,none,zi,ñi,ru,lo,sil,da,ci,po,sil1,re,sil2,,,,,,,,,,,0.1424,,,,,,,,,,,,,,,,,,,,,,,,,,,
,,458221,001,B,2023-06-13_18h32.03.710,Unsyncopated1,2022.2.5,Win32,59.71575302,,,,,,,,,,,,,,,,,,,,,,,,,,y,0,1,1,0,1,Online_conjL4_syn//b.ja.nu20.0.666.wav,0,666,ja,bu,po,nu,sil,da,ña,ru,sil1,ci,sil2,,,,,,,,,,,0.1497,,,,,,,,,,,,,,,,,,,,,,,,,,,
,,458221,001,B,2023-06-13_18h32.03.710,Unsyncopated1,2022.2.5,Win32,59.71575302,,,,,,,,,,,,,,,,,,,,,,,,,,y,0,2,2,3,1,Online_conjL4_syn//b.ja.nu23.0.666.wav,0,666,ja,bu,da,nu,sil,po,ña,pe,sil1,ru,sil2,,,,,,,,,,,0.1547,,,,,,,,,,,,,,,,,,,,,,,,,,,
,,458221,001,B,2023-06-13_18h32.03.710,Unsyncopated1,2022.2.5,Win32,59.71575302,,,,,,,,,,,,,,,,,,,,,,,,,,y,0,3,3,2,1,Online_conjL4_syn//b.ja.nu22.none.none.wav,none,none,zi,ñi,re,lo,sil,bu,po,pe,sil1,ña,sil2,,,,,,,,,,,0.1327,,,,,,,,,,,,,,,,,,,,,,,,,,,
,,458221,001,B,2023-06-13_18h32.03.710,Unsyncopated1,2022.2.5,Win32,59.71575302,,,,,,,,,,,,,,,,,,,,,,,,,,,,,,,,,,,,,,,,,,,,,,,0,19,19,21,1,ja,nu,52:56,green,,,,,,,,,,,,,,,,,,,,,,,,,,,,
,,458221,001,B,2023-06-13_18h32.03.710,Unsyncopated1,2022.2.5,Win32,59.71575302,,,,,,,,,,,,,,,,,,,,,,,,,,y,0,0,0,1,1,Online_conjL4_syn//a.zi.lo1.none.none.wav,none,none,ja,re,ru,nu,sil,de,da,bu,sil1,ñi,sil2,,,,,,,,,,,0.1406,,,,,,,,,,,,,,,,,,,,,,,,,,,
,,458221,001,B,2023-06-13_18h32.03.710,Unsyncopated1,2022.2.5,Win32,59.71575302,,,,,,,,,,,,,,,,,,,,,,,,,,y,0,1,1,3,1,Online_conjL4_syn//a.zi.lo3.none.none.wav,none,none,po,ci,pe,ja,sil,re,bo,nu,sil1,ña,sil2,,,,,,,,,,,0.1335,,,,,,,,,,,,,,,,,,,,,,,,,,,
,,458221,001,B,2023-06-13_18h32.03.710,Unsyncopated1,2022.2.5,Win32,59.71575302,,,,,,,,,,,,,,,,,,,,,,,,,,y,0,2,2,2,1,Online_conjL4_syn//a.zi.lo2.0.666.wav,666,0,zi,ñi,re,lo,sil,bu,ci,bo,sil1,ña,sil2,,,,,,,,,,,0.1684,,,,,,,,,,,,,,,,,,,,,,,,,,,
,,458221,001,B,2023-06-13_18h32.03.710,Unsyncopated1,2022.2.5,Win32,59.71575302,,,,,,,,,,,,,,,,,,,,,,,,,,y,0,3,3,0,1,Online_conjL4_syn//a.zi.lo0.none.none.wav,none,none,bu,bo,po,ja,sil,de,ñi,nu,sil1,re,sil2,,,,,,,,,,,0.185,,,,,,,,,,,,,,,,,,,,,,,,,,,
,,458221,001,B,2023-06-13_18h32.03.710,Unsyncopated1,2022.2.5,Win32,59.71575302,,,,,,,,,,,,,,,,,,,,,,,,,,,,,,,,,,,,,,,,,,,,,,,0,20,20,19,1,lo,zi,0:4,blue,,,,,,,,,,,,,,,,,,,,,,,,,,,,
,,458221,001,B,2023-06-13_18h32.03.710,Unsyncopated1,2022.2.5,Win32,59.71575302,,,,,,,,,,,,,,,,,,,,,,,,,,y,0,0,0,0,1,Online_conjL4_syn//a.zi.lo8.0.666.wav,666,0,zi,pe,re,lo,sil,ña,bo,bu,sil1,de,sil2,,,,,,,,,,,0.1643,,,,,,,,,,,,,,,,,,,,,,,,,,,
,,458221,001,B,2023-06-13_18h32.03.710,Unsyncopated1,2022.2.5,Win32,59.71575302,,,,,,,,,,,,,,,,,,,,,,,,,,y,0,1,1,1,1,Online_conjL4_syn//a.zi.lo9.666.1554.wav,1554,666,po,ci,bu,zi,sil,de,ña,lo,sil1,ñi,sil2,,,,,,,,,,,0.1597,,,,,,,,,,,,,,,,,,,,,,,,,,,
,,458221,001,B,2023-06-13_18h32.03.710,Unsyncopated1,2022.2.5,Win32,59.71575302,,,,,,,,,,,,,,,,,,,,,,,,,,y,0,2,2,3,1,Online_conjL4_syn//a.zi.lo11.666.1554.wav,1554,666,bu,ru,ci,zi,sil,po,de,lo,sil1,da,sil2,,,,,,,,,,,0.1611,,,,,,,,,,,,,,,,,,,,,,,,,,,
,,458221,001,B,2023-06-13_18h32.03.710,Unsyncopated1,2022.2.5,Win32,59.71575302,,,,,,,,,,,,,,,,,,,,,,,,,,y,0,3,3,2,1,Online_conjL4_syn//a.zi.lo10.none.none.wav,none,none,ja,bu,de,nu,sil,re,ci,bo,sil1,ña,sil2,,,,,,,,,,,0.1435,,,,,,,,,,,,,,,,,,,,,,,,,,,
,,458221,001,B,2023-06-13_18h32.03.710,Unsyncopated1,2022.2.5,Win32,59.71575302,,,,,,,,,,,,,,,,,,,,,,,,,,,,,,,,,,,,,,,,,,,,,,,0,21,21,18,1,lo,zi,8:12,blue,,,,,,,,,,,,,,,,,,,,,,,,,,,,
,,458221,001,B,2023-06-13_18h32.03.710,Unsyncopated1,2022.2.5,Win32,59.71575302,,,,,,,,,,,,,,,,,,,,,,,,,,y,0,0,0,0,1,Online_conjL4_syn//b.ja.nu16.none.none.wav,none,none,da,ru,bo,zi,sil,re,pe,lo,sil1,bu,sil2,,,,,,,,,,,0.1713,,,,,,,,,,,,,,,,,,,,,,,,,,,
,,458221,001,B,2023-06-13_18h32.03.710,Unsyncopated1,2022.2.5,Win32,59.71575302,,,,,,,,,,,,,,,,,,,,,,,,,,y,0,1,1,2,1,Online_conjL4_syn//b.ja.nu18.666.1554.wav,666,1554,ru,pe,po,ja,sil,bu,bo,nu,sil1,da,sil2,,,,,,,,,,,0.1512,,,,,,,,,,,,,,,,,,,,,,,,,,,
,,458221,001,B,2023-06-13_18h32.03.710,Unsyncopated1,2022.2.5,Win32,59.71575302,,,,,,,,,,,,,,,,,,,,,,,,,,y,0,2,2,3,1,Online_conjL4_syn//b.ja.nu19.0.666.wav,0,666,ja,ña,po,nu,sil,ñi,ru,re,sil1,da,sil2,,,,,,,,,,,0.1675,,,,,,,,,,,,,,,,,,,,,,,,,,,
,,458221,001,B,2023-06-13_18h32.03.710,Unsyncopated1,2022.2.5,Win32,59.71575302,,,,,,,,,,,,,,,,,,,,,,,,,,y,0,3,3,1,1,Online_conjL4_syn//b.ja.nu17.none.none.wav,none,none,ci,ru,de,zi,sil,bo,po,lo,sil1,bu,sil2,,,,,,,,,,,0.1507,,,,,,,,,,,,,,,,,,,,,,,,,,,
,,458221,001,B,2023-06-13_18h32.03.710,Unsyncopated1,2022.2.5,Win32,59.71575302,,,,,,,,,,,,,,,,,,,,,,,,,,,,,,,,,,,,,,,,,,,,,,,0,22,22,25,1,ja,nu,48:52,green,,,,,,,,,,,,,,,,,,,,,,,,,,,,
,,458221,001,B,2023-06-13_18h32.03.710,Unsyncopated1,2022.2.5,Win32,59.71575302,,,,,,,,,,,,,,,,,,,,,,,,,,y,0,0,0,3,1,Online_conjL4_syn//d.pe.po11.1332.222.wav,1332,222,ja,po,re,nu,sil,ñi,pe,ña,sil1,ci,sil2,,,,,,,,,,,0.1624,,,,,,,,,,,,,,,,,,,,,,,,,,,
,,458221,001,B,2023-06-13_18h32.03.710,Unsyncopated1,2022.2.5,Win32,59.71575302,,,,,,,,,,,,,,,,,,,,,,,,,,y,0,1,1,1,1,Online_conjL4_syn//d.pe.po9.1554.1110.wav,1554,1110,zi,bo,ci,lo,sil,po,de,pe,sil1,ru,sil2,,,,,,,,,,,0.1469,,,,,,,,,,,,,,,,,,,,,,,,,,,
,,458221,001,B,2023-06-13_18h32.03.710,Unsyncopated1,2022.2.5,Win32,59.71575302,,,,,,,,,,,,,,,,,,,,,,,,,,y,0,2,2,2,1,Online_conjL4_syn//d.pe.po10.1332.444.wav,1332,444,bu,ci,po,ja,sil,bo,pe,nu,sil1,de,sil2,,,,,,,,,,,0.1584,,,,,,,,,,,,,,,,,,,,,,,,,,,
,,458221,001,B,2023-06-13_18h32.03.710,Unsyncopated1,2022.2.5,Win32,59.71575302,,,,,,,,,,,,,,,,,,,,,,,,,,y,0,3,3,0,1,Online_conjL4_syn//d.pe.po8.none.none.wav,none,none,ja,re,de,nu,sil,ci,ru,ñi,sil1,bu,sil2,,,,,,,,,,,0.1625,,,,,,,,,,,,,,,,,,,,,,,,,,,
,,458221,001,B,2023-06-13_18h32.03.710,Unsyncopated1,2022.2.5,Win32,59.71575302,,,,,,,,,,,,,,,,,,,,,,,,,,,,,,,,,,,,,,,,,,,,,,,0,23,23,3,1,pe,po,104:108,red,,,,,,,,,,,,,,,,,,,,,,,,,,,,
,,458221,001,B,2023-06-13_18h32.03.710,Unsyncopated1,2022.2.5,Win32,59.71575302,,,,,,,,,,,,,,,,,,,,,,,,,,y,0,0,0,0,1,Online_conjL4_syn//b.ja.nu4.0.666.wav,0,666,ja,re,ru,nu,sil,po,pe,da,sil1,ñi,sil2,,,,,,,,,,,0.1548,,,,,,,,,,,,,,,,,,,,,,,,,,,
,,458221,001,B,2023-06-13_18h32.03.710,Unsyncopated1,2022.2.5,Win32,59.71575302,,,,,,,,,,,,,,,,,,,,,,,,,,y,0,1,1,3,1,Online_conjL4_syn//b.ja.nu7.none.none.wav,none,none,zi,po,pe,lo,sil,ci,bu,ñi,sil1,ru,sil2,,,,,,,,,,,0.1712,,,,,,,,,,,,,,,,,,,,,,,,,,,
,,458221,001,B,2023-06-13_18h32.03.710,Unsyncopated1,2022.2.5,Win32,59.71575302,,,,,,,,,,,,,,,,,,,,,,,,,,y,0,2,2,2,1,Online_conjL4_syn//b.ja.nu6.none.none.wav,none,none,ña,po,ru,zi,sil,ñi,re,lo,sil1,bo,sil2,,,,,,,,,,,0.1487,,,,,,,,,,,,,,,,,,,,,,,,,,,
,,458221,001,B,2023-06-13_18h32.03.710,Unsyncopated1,2022.2.5,Win32,59.71575302,,,,,,,,,,,,,,,,,,,,,,,,,,y,0,3,3,1,1,Online_conjL4_syn//b.ja.nu5.none.none.wav,none,none,zi,bo,pe,lo,sil,po,re,da,sil1,ñi,sil2,,,,,,,,,,,0.1837,,,,,,,,,,,,,,,,,,,,,,,,,,,
,,458221,001,B,2023-06-13_18h32.03.710,Unsyncopated1,2022.2.5,Win32,59.71575302,,,,,,,,,,,,,,,,,,,,,,,,,,,,,,,,,,,,,,,,,,,,,,,0,24,24,9,1,ja,nu,36:40,green,,,,,,,,,,,,,,,,,,,,,,,,,,,,
,,458221,001,B,2023-06-13_18h32.03.710,Unsyncopated1,2022.2.5,Win32,59.71575302,,,,,,,,,,,,,,,,,,,,,,,,,,y,0,0,0,3,1,Online_conjL4_syn//c.bu.da27.222.1110.wav,222,1110,ja,bu,re,nu,sil,da,bo,ru,sil1,ci,sil2,,,,,,,,,,,0.1485,,,,,,,,,,,,,,,,,,,,,,,,,,,
,,458221,001,B,2023-06-13_18h32.03.710,Unsyncopated1,2022.2.5,Win32,59.71575302,,,,,,,,,,,,,,,,,,,,,,,,,,y,0,1,1,1,1,Online_conjL4_syn//c.bu.da25.1110.222.wav,1110,222,ja,da,re,nu,sil,bu,ru,po,sil1,bo,sil2,,,,,,,,,,,0.1544,,,,,,,,,,,,,,,,,,,,,,,,,,,
,,458221,001,B,2023-06-13_18h32.03.710,Unsyncopated1,2022.2.5,Win32,59.71575302,,,,,,,,,,,,,,,,,,,,,,,,,,y,0,2,2,0,1,Online_conjL4_syn//c.bu.da24.none.none.wav,none,none,zi,po,pe,lo,sil,ñi,ci,ru,sil1,re,sil2,,,,,,,,,,,0.1661,,,,,,,,,,,,,,,,,,,,,,,,,,,
,,458221,001,B,2023-06-13_18h32.03.710,Unsyncopated1,2022.2.5,Win32,59.71575302,,,,,,,,,,,,,,,,,,,,,,,,,,y,0,3,3,2,1,Online_conjL4_syn//c.bu.da26.1110.222.wav,1110,222,ñi,da,de,zi,sil,bu,pe,lo,sil1,bo,sil2,,,,,,,,,,,0.1822,,,,,,,,,,,,,,,,,,,,,,,,,,,
,,458221,001,B,2023-06-13_18h32.03.710,Unsyncopated1,2022.2.5,Win32,59.71575302,,,,,,,,,,,,,,,,,,,,,,,,,,,,,,,,,,,,,,,,,,,,,,,0,25,25,6,1,bu,da,88:92,orange,,,,,,,,,,,,,,,,,,,,,,,,,,,,
,,458221,001,B,2023-06-13_18h32.03.710,Unsyncopated1,2022.2.5,Win32,59.71575302,,,,,,,,,,,,,,,,,,,,,,,,,,y,0,0,0,0,1,Online_conjL4_syn//c.bu.da4.none.none.wav,none,none,pe,re,ru,zi,sil,ci,bo,lo,sil1,po,sil2,,,,,,,,,,,0.1384,,,,,,,,,,,,,,,,,,,,,,,,,,,
,,458221,001,B,2023-06-13_18h32.03.710,Unsyncopated1,2022.2.5,Win32,59.71575302,,,,,,,,,,,,,,,,,,,,,,,,,,y,0,1,1,3,1,Online_conjL4_syn//c.bu.da7.0.444.wav,0,444,bu,re,da,zi,sil,ña,po,lo,sil1,ñi,sil2,,,,,,,,,,,0.1502,,,,,,,,,,,,,,,,,,,,,,,,,,,
,,458221,001,B,2023-06-13_18h32.03.710,Unsyncopated1,2022.2.5,Win32,59.71575302,,,,,,,,,,,,,,,,,,,,,,,,,,y,0,2,2,1,1,Online_conjL4_syn//c.bu.da5.222.1110.wav,222,1110,zi,bu,ru,lo,sil,da,re,pe,sil1,ña,sil2,,,,,,,,,,,0.1505,,,,,,,,,,,,,,,,,,,,,,,,,,,
,,458221,001,B,2023-06-13_18h32.03.710,Unsyncopated1,2022.2.5,Win32,59.71575302,,,,,,,,,,,,,,,,,,,,,,,,,,y,0,3,3,2,1,Online_conjL4_syn//c.bu.da6.none.none.wav,none,none,pe,ci,ru,zi,sil,bo,po,lo,sil1,de,sil2,,,,,,,,,,,0.1701,,,,,,,,,,,,,,,,,,,,,,,,,,,
,,458221,001,B,2023-06-13_18h32.03.710,Unsyncopated1,2022.2.5,Win32,59.71575302,,,,,,,,,,,,,,,,,,,,,,,,,,,,,,,,,,,,,,,,,,,,,,,0,26,26,17,1,bu,da,68:72,orange,,,,,,,,,,,,,,,,,,,,,,,,,,,,
,,458221,001,B,2023-06-13_18h32.03.710,Unsyncopated1,2022.2.5,Win32,59.71575302,,,,,,,,,,,,,,,,,,,,,,,,,,y,0,0,0,3,1,Online_conjL4_syn//d.pe.po7.1110.0.wav,1110,0,po,ñi,de,zi,sil,pe,bu,lo,sil1,ña,sil2,,,,,,,,,,,0.1542,,,,,,,,,,,,,,,,,,,,,,,,,,,
,,458221,001,B,2023-06-13_18h32.03.710,Unsyncopated1,2022.2.5,Win32,59.71575302,,,,,,,,,,,,,,,,,,,,,,,,,,y,0,1,1,0,1,Online_conjL4_syn//d.pe.po4.none.none.wav,none,none,ña,bu,de,ja,sil,re,ci,nu,sil1,bo,sil2,,,,,,,,,,,0.15,,,,,,,,,,,,,,,,,,,,,,,,,,,
,,458221,001,B,2023-06-13_18h32.03.710,Unsyncopated1,2022.2.5,Win32,59.71575302,,,,,,,,,,,,,,,,,,,,,,,,,,y,0,2,2,1,1,Online_conjL4_syn//d.pe.po5.222.1110.wav,222,1110,ñi,pe,da,zi,sil,po,ru,lo,sil1,bo,sil2,,,,,,,,,,,0.1682,,,,,,,,,,,,,,,,,,,,,,,,,,,
,,458221,001,B,2023-06-13_18h32.03.710,Unsyncopated1,2022.2.5,Win32,59.71575302,,,,,,,,,,,,,,,,,,,,,,,,,,y,0,3,3,2,1,Online_conjL4_syn//d.pe.po6.1110.222.wav,1110,222,zi,po,de,lo,sil,pe,ñi,ru,sil1,ci,sil2,,,,,,,,,,,0.1522,,,,,,,,,,,,,,,,,,,,,,,,,,,
,,458221,001,B,2023-06-13_18h32.03.710,Unsyncopated1,2022.2.5,Win32,59.71575302,,,,,,,,,,,,,,,,,,,,,,,,,,,,,,,,,,,,,,,,,,,,,,,0,27,27,1,1,pe,po,100:104,red,,,,,,,,,,,,,,,,,,,,,,,,,,,,
,,458221,001,B,2023-06-13_18h32.03.710,Unsyncopated1,2022.2.5,Win32,59.71575302,,,,,,,,,,,,,,,,,,,,,,,,,,y,0,0,0,2,1,Online_conjL4_syn//a.zi.lo6.none.none.wav,none,none,ci,da,ru,ja,sil,bo,pe,nu,sil1,re,sil2,,,,,,,,,,,0.164,,,,,,,,,,,,,,,,,,,,,,,,,,,
,,458221,001,B,2023-06-13_18h32.03.710,Unsyncopated1,2022.2.5,Win32,59.71575302,,,,,,,,,,,,,,,,,,,,,,,,,,y,0,1,1,3,1,Online_conjL4_syn//a.zi.lo7.666.1554.wav,1554,666,ru,de,po,zi,sil,ña,ñi,lo,sil1,da,sil2,,,,,,,,,,,0.1503,,,,,,,,,,,,,,,,,,,,,,,,,,,
,,458221,001,B,2023-06-13_18h32.03.710,Unsyncopated1,2022.2.5,Win32,59.71575302,,,,,,,,,,,,,,,,,,,,,,,,,,y,0,2,2,1,1,Online_conjL4_syn//a.zi.lo5.0.666.wav,666,0,zi,bo,ña,lo,sil,pe,de,re,sil1,ñi,sil2,,,,,,,,,,,0.1724,,,,,,,,,,,,,,,,,,,,,,,,,,,
,,458221,001,B,2023-06-13_18h32.03.710,Unsyncopated1,2022.2.5,Win32,59.71575302,,,,,,,,,,,,,,,,,,,,,,,,,,y,0,3,3,0,1,Online_conjL4_syn//a.zi.lo4.0.666.wav,666,0,zi,po,re,lo,sil,ñi,da,bo,sil1,bu,sil2,,,,,,,,,,,0.164,,,,,,,,,,,,,,,,,,,,,,,,,,,
,,458221,001,B,2023-06-13_18h32.03.710,Unsyncopated1,2022.2.5,Win32,59.71575302,,,,,,,,,,,,,,,,,,,,,,,,,,,,,,,,,,,,,,,,,,,,,,,0,28,28,16,1,lo,zi,4:8,blue,,,,,,,,,,,,,,,,,,,,,,,,,,,,
,,458221,001,B,2023-06-13_18h32.03.710,Unsyncopated1,2022.2.5,Win32,59.71575302,,,,,,,,,,,,,,,,,,,,,,,,,,y,0,0,0,3,1,Online_conjL4_syn//a.zi.lo31.none.none.wav,none,none,bo,ru,ci,ja,sil,po,da,nu,sil1,bu,sil2,,,,,,,,,,,0.152,,,,,,,,,,,,,,,,,,,,,,,,,,,
,,458221,001,B,2023-06-13_18h32.03.710,Unsyncopated1,2022.2.5,Win32,59.71575302,,,,,,,,,,,,,,,,,,,,,,,,,,y,0,1,1,1,1,Online_conjL4_syn//a.zi.lo29.none.none.wav,none,none,ña,da,re,ja,sil,ci,po,nu,sil1,ru,sil2,,,,,,,,,,,0.1362,,,,,,,,,,,,,,,,,,,,,,,,,,,
,,458221,001,B,2023-06-13_18h32.03.710,Unsyncopated1,2022.2.5,Win32,59.71575302,,,,,,,,,,,,,,,,,,,,,,,,,,y,0,2,2,0,1,Online_conjL4_syn//a.zi.lo28.none.none.wav,none,none,ja,pe,bu,nu,sil,ña,ñi,bo,sil1,ru,sil2,,,,,,,,,,,0.1822,,,,,,,,,,,,,,,,,,,,,,,,,,,
,,458221,001,B,2023-06-13_18h32.03.710,Unsyncopated1,2022.2.5,Win32,59.71575302,,,,,,,,,,,,,,,,,,,,,,,,,,y,0,3,3,2,1,Online_conjL4_syn//a.zi.lo30.0.666.wav,666,0,zi,ñi,ru,lo,sil,bu,bo,ña,sil1,de,sil2,,,,,,,,,,,0.1668,,,,,,,,,,,,,,,,,,,,,,,,,,,
,,458221,001,B,2023-06-13_18h32.03.710,Unsyncopated1,2022.2.5,Win32,59.71575302,,,,,,,,,,,,,,,,,,,,,,,,,,,,,,,,,,,,,,,,,,,,,,,0,29,29,10,1,lo,zi,28:32,blue,,,,,,,,,,,,,,,,,,,,,,,,,,,,
,,458221,001,B,2023-06-13_18h32.03.710,Unsyncopated1,2022.2.5,Win32,59.71575302,,,,,,,,,,,,,,,,,,,,,,,,,,y,0,0,0,0,1,Online_conjL4_syn//d.pe.po24.1332.222.wav,1332,222,ja,po,ña,nu,sil,re,pe,ñi,sil1,ci,sil2,,,,,,,,,,,0.1554,,,,,,,,,,,,,,,,,,,,,,,,,,,
,,458221,001,B,2023-06-13_18h32.03.710,Unsyncopated1,2022.2.5,Win32,59.71575302,,,,,,,,,,,,,,,,,,,,,,,,,,y,0,1,1,3,1,Online_conjL4_syn//d.pe.po27.none.none.wav,none,none,zi,bo,ñi,lo,sil,ña,de,ci,sil1,ru,sil2,,,,,,,,,,,0.1512,,,,,,,,,,,,,,,,,,,,,,,,,,,
,,458221,001,B,2023-06-13_18h32.03.710,Unsyncopated1,2022.2.5,Win32,59.71575302,,,,,,,,,,,,,,,,,,,,,,,,,,y,0,2,2,2,1,Online_conjL4_syn//d.pe.po26.none.none.wav,none,none,zi,bo,ci,lo,sil,de,ña,da,sil1,ru,sil2,,,,,,,,,,,0.1659,,,,,,,,,,,,,,,,,,,,,,,,,,,
,,458221,001,B,2023-06-13_18h32.03.710,Unsyncopated1,2022.2.5,Win32,59.71575302,,,,,,,,,,,,,,,,,,,,,,,,,,y,0,3,3,1,1,Online_conjL4_syn//d.pe.po25.none.none.wav,none,none,zi,ña,ru,lo,sil,da,re,bu,sil1,ci,sil2,,,,,,,,,,,0.1659,,,,,,,,,,,,,,,,,,,,,,,,,,,
,,458221,001,B,2023-06-13_18h32.03.710,Unsyncopated1,2022.2.5,Win32,59.71575302,,,,,,,,,,,,,,,,,,,,,,,,,,,,,,,,,,,,,,,,,,,,,,,0,30,30,30,1,pe,po,120:124,red,,,,,,,,,,,,,,,,,,,,,,,,,,,,
,,458221,001,B,2023-06-13_18h32.03.710,Unsyncopated1,2022.2.5,Win32,59.71575302,,,,,,,,,,,,,,,,,,,,,,,,,,y,0,0,0,1,1,Online_conjL4_syn//b.ja.nu9.666.1554.wav,666,1554,bo,ñi,po,ja,sil,da,re,nu,sil1,ru,sil2,,,,,,,,,,,0.1384,,,,,,,,,,,,,,,,,,,,,,,,,,,
,,458221,001,B,2023-06-13_18h32.03.710,Unsyncopated1,2022.2.5,Win32,59.71575302,,,,,,,,,,,,,,,,,,,,,,,,,,y,0,1,1,3,1,Online_conjL4_syn//b.ja.nu11.666.1554.wav,666,1554,de,ru,po,ja,sil,ci,pe,nu,sil1,ña,sil2,,,,,,,,,,,0.1669,,,,,,,,,,,,,,,,,,,,,,,,,,,
,,458221,001,B,2023-06-13_18h32.03.710,Unsyncopated1,2022.2.5,Win32,59.71575302,,,,,,,,,,,,,,,,,,,,,,,,,,y,0,2,2,0,1,Online_conjL4_syn//b.ja.nu8.666.1554.wav,666,1554,da,bu,de,ja,sil,ci,pe,nu,sil1,re,sil2,,,,,,,,,,,0.152,,,,,,,,,,,,,,,,,,,,,,,,,,,
,,458221,001,B,2023-06-13_18h32.03.710,Unsyncopated1,2022.2.5,Win32,59.71575302,,,,,,,,,,,,,,,,,,,,,,,,,,y,0,3,3,2,1,Online_conjL4_syn//b.ja.nu10.0.666.wav,0,666,ja,pe,ñi,nu,sil,bu,ci,de,sil1,ru,sil2,,,,,,,,,,,0.1666,,,,,,,,,,,,,,,,,,,,,,,,,,,
,,458221,001,B,2023-06-13_18h32.03.710,Unsyncopated1,2022.2.5,Win32,59.71575302,,,,,,,,,,,,,,,,,,,,,,,,,,,,,,,,,,,,,,,,,,,,,,,0,31,31,26,1,ja,nu,40:44,green,,,,,,,,,,,,,,,,,,,,,,,,,,,,
,,458221,001,B,2023-06-13_18h32.03.710,Unsyncopated1,2022.2.5,Win32,59.71575302,,,,,,,,,,,,,,,,,,,,,,,,,,,,,,,,,,,,,,,,,,,,,,,,,,,,,,,,,space,0.6781,space,0.419,y,0.6158,z,1.1947,2,0.1989,0,0,0,17,1,testConjL4Syn//r2.s2.0.wav,,,,,,,,,,,
,,458221,001,B,2023-06-13_18h32.03.710,Unsyncopated1,2022.2.5,Win32,59.71575302,,,,,,,,,,,,,,,,,,,,,,,,,,,,,,,,,,,,,,,,,,,,,,,,,,,,,,,,,,,,,y,0.1506,z,0.1339,2,0.1186,0,1,1,0,1,testConjL4Syn//cat_viol.r1.s1.0.wav,,,,,,,,,,,
,,458221,001,B,2023-06-13_18h32.03.710,Unsyncopated1,2022.2.5,Win32,59.71575302,,,,,,,,,,,,,,,,,,,,,,,,,,,,,,,,,,,,,,,,,,,,,,,,,,,,,,,,,,,,,y,0.1157,z,0.1213,2,0.0848,0,2,2,11,1,testConjL4Syn//r1.s2.0.wav,,,,,,,,,,,
,,458221,001,B,2023-06-13_18h32.03.710,Unsyncopated1,2022.2.5,Win32,59.71575302,,,,,,,,,,,,,,,,,,,,,,,,,,,,,,,,,,,,,,,,,,,,,,,,,,,,,,,,,,,,,y,0.122,z,0.0925,2,0.0966,0,3,3,15,1,testConjL4Syn//r2.s1.1.wav,,,,,,,,,,,
,,458221,001,B,2023-06-13_18h32.03.710,Unsyncopated1,2022.2.5,Win32,59.71575302,,,,,,,,,,,,,,,,,,,,,,,,,,,,,,,,,,,,,,,,,,,,,,,,,,,,,,,,,,,,,y,0.1372,z,0.1078,2,0.1031,0,4,4,7,1,testConjL4Syn//dep_viol.r2.s2.0.wav,,,,,,,,,,,
,,458221,001,B,2023-06-13_18h32.03.710,Unsyncopated1,2022.2.5,Win32,59.71575302,,,,,,,,,,,,,,,,,,,,,,,,,,,,,,,,,,,,,,,,,,,,,,,,,,,,,,,,,,,,,y,0.1139,z,1.1856,2,0.6267,0,5,5,16,1,testConjL4Syn//r2.s1.2.wav,,,,,,,,,,,
,,458221,001,B,2023-06-13_18h32.03.710,Unsyncopated1,2022.2.5,Win32,59.71575302,,,,,,,,,,,,,,,,,,,,,,,,,,,,,,,,,,,,,,,,,,,,,,,,,,,,,,,,,,,,,y,0.2752,z,0.0676,2,0.1857,0,6,6,6,1,testConjL4Syn//dep_viol.r2.s1.0.wav,,,,,,,,,,,
,,458221,001,B,2023-06-13_18h32.03.710,Unsyncopated1,2022.2.5,Win32,59.71575302,,,,,,,,,,,,,,,,,,,,,,,,,,,,,,,,,,,,,,,,,,,,,,,,,,,,,,,,,,,,,y,0.1521,z,0.0505,2,0.1339,0,7,7,8,1,testConjL4Syn//r1.s1.0.wav,,,,,,,,,,,
,,458221,001,B,2023-06-13_18h32.03.710,Unsyncopated1,2022.2.5,Win32,59.71575302,,,,,,,,,,,,,,,,,,,,,,,,,,,,,,,,,,,,,,,,,,,,,,,,,,,,,,,,,,,,,y,0.1562,z,0.0841,2,0.1223,0,8,8,5,1,testConjL4Syn//dep_viol.r1.s2.0.wav,,,,,,,,,,,
,,458221,001,B,2023-06-13_18h32.03.710,Unsyncopated1,2022.2.5,Win32,59.71575302,,,,,,,,,,,,,,,,,,,,,,,,,,,,,,,,,,,,,,,,,,,,,,,,,,,,,,,,,,,,,y,0.1126,z,0.1009,2,0.0847,0,9,9,1,1,testConjL4Syn//cat_viol.r1.s2.0.wav,,,,,,,,,,,
,,458221,001,B,2023-06-13_18h32.03.710,Unsyncopated1,2022.2.5,Win32,59.71575302,,,,,,,,,,,,,,,,,,,,,,,,,,,,,,,,,,,,,,,,,,,,,,,,,,,,,,,,,,,,,y,0.116,z,0.1019,2,0.102,0,10,10,2,1,testConjL4Syn//cat_viol.r2.s1.0.wav,,,,,,,,,,,
,,458221,001,B,2023-06-13_18h32.03.710,Unsyncopated1,2022.2.5,Win32,59.71575302,,,,,,,,,,,,,,,,,,,,,,,,,,,,,,,,,,,,,,,,,,,,,,,,,,,,,,,,,,,,,y,0.1009,z,0.1342,2,0.1694,0,11,11,23,1,testConjL4Syn//time_viol.r2.s2.0.wav,,,,,,,,,,,
,,458221,001,B,2023-06-13_18h32.03.710,Unsyncopated1,2022.2.5,Win32,59.71575302,,,,,,,,,,,,,,,,,,,,,,,,,,,,,,,,,,,,,,,,,,,,,,,,,,,,,,,,,,,,,y,0.1009,z,0.1176,2,0.1177,0,12,12,21,1,testConjL4Syn//time_viol.r1.s2.0.wav,,,,,,,,,,,
,,458221,001,B,2023-06-13_18h32.03.710,Unsyncopated1,2022.2.5,Win32,59.71575302,,,,,,,,,,,,,,,,,,,,,,,,,,,,,,,,,,,,,,,,,,,,,,,,,,,,,,,,,,,,,y,0.1172,z,0.084,2,0.1041,0,13,13,9,1,testConjL4Syn//r1.s1.1.wav,,,,,,,,,,,
,,458221,001,B,2023-06-13_18h32.03.710,Unsyncopated1,2022.2.5,Win32,59.71575302,,,,,,,,,,,,,,,,,,,,,,,,,,,,,,,,,,,,,,,,,,,,,,,,,,,,,,,,,,,,,y,0.1204,z,0.131,2,0.1177,0,14,14,18,1,testConjL4Syn//r2.s2.1.wav,,,,,,,,,,,
,,458221,001,B,2023-06-13_18h32.03.710,Unsyncopated1,2022.2.5,Win32,59.71575302,,,,,,,,,,,,,,,,,,,,,,,,,,,,,,,,,,,,,,,,,,,,,,,,,,,,,,,,,,,,,y,0.1253,z,0.1389,2,0.1521,0,15,15,3,1,testConjL4Syn//cat_viol.r2.s2.0.wav,,,,,,,,,,,
,,458221,001,B,2023-06-13_18h32.03.710,Unsyncopated1,2022.2.5,Win32,59.71575302,,,,,,,,,,,,,,,,,,,,,,,,,,,,,,,,,,,,,,,,,,,,,,,,,,,,,,,,,,,,,y,0.0716,z,0.1163,2,0.1347,0,16,16,20,1,testConjL4Syn//time_viol.r1.s1.0.wav,,,,,,,,,,,
,,458221,001,B,2023-06-13_18h32.03.710,Unsyncopated1,2022.2.5,Win32,59.71575302,,,,,,,,,,,,,,,,,,,,,,,,,,,,,,,,,,,,,,,,,,,,,,,,,,,,,,,,,,,,,y,0.0816,z,0.1168,2,0.1006,0,17,17,12,1,testConjL4Syn//r1.s2.1.wav,,,,,,,,,,,
,,458221,001,B,2023-06-13_18h32.03.710,Unsyncopated1,2022.2.5,Win32,59.71575302,,,,,,,,,,,,,,,,,,,,,,,,,,,,,,,,,,,,,,,,,,,,,,,,,,,,,,,,,,,,,y,0.1254,z,0.0324,2,0.1517,0,18,18,19,1,testConjL4Syn//r2.s2.2.wav,,,,,,,,,,,
,,458221,001,B,2023-06-13_18h32.03.710,Unsyncopated1,2022.2.5,Win32,59.71575302,,,,,,,,,,,,,,,,,,,,,,,,,,,,,,,,,,,,,,,,,,,,,,,,,,,,,,,,,,,,,y,0.1316,z,0.0363,2,0.0987,0,19,19,14,1,testConjL4Syn//r2.s1.0.wav,,,,,,,,,,,
,,458221,001,B,2023-06-13_18h32.03.710,Unsyncopated1,2022.2.5,Win32,59.71575302,,,,,,,,,,,,,,,,,,,,,,,,,,,,,,,,,,,,,,,,,,,,,,,,,,,,,,,,,,,,,y,0.1682,z,0.0167,2,0.1017,0,20,20,4,1,testConjL4Syn//dep_viol.r1.s1.0.wav,,,,,,,,,,,
,,458221,001,B,2023-06-13_18h32.03.710,Unsyncopated1,2022.2.5,Win32,59.71575302,,,,,,,,,,,,,,,,,,,,,,,,,,,,,,,,,,,,,,,,,,,,,,,,,,,,,,,,,,,,,y,0.1842,z,0.3845,2,0.2996,0,21,21,22,1,testConjL4Syn//time_viol.r2.s1.0.wav,,,,,,,,,,,
,,458221,001,B,2023-06-13_18h32.03.710,Unsyncopated1,2022.2.5,Win32,59.71575302,,,,,,,,,,,,,,,,,,,,,,,,,,,,,,,,,,,,,,,,,,,,,,,,,,,,,,,,,,,,,y,0.3672,z,0.127,2,0.1601,0,22,22,13,1,testConjL4Syn//r1.s2.2.wav,,,,,,,,,,,
,,458221,001,B,2023-06-13_18h32.03.710,Unsyncopated1,2022.2.5,Win32,59.71575302,,,,,,,,,,,,,,,,,,,,,,,,,,,,,,,,,,,,,,,,,,,,,,,,,,,,,,,,,,,,,y,0.1509,z,0.0286,2,0.1811,0,23,23,10,1,testConjL4Syn//r1.s1.2.wav,,,,,,,,,,,
,,458221,001,B,2023-06-13_18h32.03.710,Unsyncopated1,2022.2.5,Win32,59.71575302,,,,,,,,,,,,,,,,,,,,,,,,,,,,,,,,,,,,,,,,,,,,,,,,,,,,,,,,,,,,,,,,,,,,,,,,,space,0.6238,0,0,0,3,1,ConjL4_syn.csv,dir_Online_conjL4_syn.csv,Test_Conj_SyncL4.csv,ConjL4_sync.wav
