key_resp1.keys,key_resp1.rt,participant,session,group,date,expName,psychopyVersion,OS,frameRate,key_resp_6.keys,key_resp_6.rt,key_resp_10.keys,key_resp_10.rt,key_ressp2.keys,key_ressp2.rt,key_resp_9.keys,key_resp_9.rt,key_resp_3.keys,key_resp_3.rt,key_resp1_2.keys,key_resp1_2.rt,key_resp1_3.keys,key_resp1_3.rt,key_resp_11.keys,key_resp_11.rt,key_resp_12.keys,key_resp_12.rt,key_resp_18.keys,key_resp_18.rt,key_resp_7.keys,key_resp_7.rt,key_resp1_4.keys,key_resp1_4.rt,syllable_catch.keys,syllable_catch.rt,key_resp_16.keys,audio1.thisRepN,audio1.thisTrialN,audio1.thisN,audio1.thisIndex,audio1.ran,dirs,timeA,timeB,s1,s2,s3,s4,s5,s6,s7,s8,s9,s10,s11,Conj_unsync_online.thisRepN,Conj_unsync_online.thisTrialN,Conj_unsync_online.thisN,Conj_unsync_online.thisIndex,Conj_unsync_online.ran,condA,condB,ord,colour,key_resp_16.rt,key_resp4.keys,key_resp4.rt,key_resp_4.keys,key_resp_4.rt,key_resp_17.keys,key_resp_17.rt,Partz_no_partm.keys,Partz_no_partm.rt,security_1_7.keys,security_1_7.rt,Conj_unsync_test.thisRepN,Conj_unsync_test.thisTrialN,Conj_unsync_test.thisN,Conj_unsync_test.thisIndex,Conj_unsync_test.ran,test,key_resp_13.keys,key_resp_13.rt,trials.thisRepN,trials.thisTrialN,trials.thisN,trials.thisIndex,trials.ran,seq,online_dir,test_dir,audio_offline
space,4.9798,473101,001,B,2023-06-13_18h23.38.172,Unsyncopated1,2022.2.5,Win32,59.94125757,,,,,,,,,,,,,,,,,,,,,,,,,,,,,,,,,,,,,,,,,,,,,,,,,,,,,,,,,,,,,,,,,,,,,,,,,,,,,,,,,,,
,,473101,001,B,2023-06-13_18h23.38.172,Unsyncopated1,2022.2.5,Win32,59.94125757,space,0.5284,,,,,,,,,,,,,,,,,,,,,,,,,,,,,,,,,,,,,,,,,,,,,,,,,,,,,,,,,,,,,,,,,,,,,,,,,,,,,,,,,
,,473101,001,B,2023-06-13_18h23.38.172,Unsyncopated1,2022.2.5,Win32,59.94125757,,,space,0.3263,,,,,,,,,,,,,,,,,,,,,,,,,,,,,,,,,,,,,,,,,,,,,,,,,,,,,,,,,,,,,,,,,,,,,,,,,,,,,,,
,,473101,001,B,2023-06-13_18h23.38.172,Unsyncopated1,2022.2.5,Win32,59.94125757,,,,,space,1.212,,,,,,,,,,,,,,,,,,,,,,,,,,,,,,,,,,,,,,,,,,,,,,,,,,,,,,,,,,,,,,,,,,,,,,,,,,,,,
,,473101,001,B,2023-06-13_18h23.38.172,Unsyncopated1,2022.2.5,Win32,59.94125757,,,,,,,space,1.9078,,,,,,,,,,,,,,,,,,,,,,,,,,,,,,,,,,,,,,,,,,,,,,,,,,,,,,,,,,,,,,,,,,,,,,,,,,,
,,473101,001,B,2023-06-13_18h23.38.172,Unsyncopated1,2022.2.5,Win32,59.94125757,,,,,,,,,space,5.8368,,,,,,,,,,,,,,,,,,,,,,,,,,,,,,,,,,,,,,,,,,,,,,,,,,,,,,,,,,,,,,,,,,,,,,,,,
,,473101,001,B,2023-06-13_18h23.38.172,Unsyncopated1,2022.2.5,Win32,59.94125757,,,,,,,,,,,space,0.9356,,,,,,,,,,,,,,,,,,,,,,,,,,,,,,,,,,,,,,,,,,,,,,,,,,,,,,,,,,,,,,,,,,,,,,,
,,473101,001,B,2023-06-13_18h23.38.172,Unsyncopated1,2022.2.5,Win32,59.94125757,,,,,,,,,,,,,space,1.6037,,,,,,,,,,,,,,,,,,,,,,,,,,,,,,,,,,,,,,,,,,,,,,,,,,,,,,,,,,,,,,,,,,,,,
,,473101,001,B,2023-06-13_18h23.38.172,Unsyncopated1,2022.2.5,Win32,59.94125757,,,,,,,,,,,,,,,space,0.3616,,,,,,,,,,,,,,,,,,,,,,,,,,,,,,,,,,,,,,,,,,,,,,,,,,,,,,,,,,,,,,,,,,,
,,473101,001,B,2023-06-13_18h23.38.172,Unsyncopated1,2022.2.5,Win32,59.94125757,,,,,,,,,,,,,,,,,space,1.7365,,,,,,,,,,,,,,,,,,,,,,,,,,,,,,,,,,,,,,,,,,,,,,,,,,,,,,,,,,,,,,,,,
,,473101,001,B,2023-06-13_18h23.38.172,Unsyncopated1,2022.2.5,Win32,59.94125757,,,,,,,,,,,,,,,,,,,space,1.5354,space,4.7251,space,3.7895,space,2.6628,,0,0,0,0,1,Online_conjL1_un//a.pu.ki4.888.1776.wav,1776,888,ni,cho,fa,sil,pu,fo,ne,sil1,ki,la,sil2,,,,,,,,,,,,,,,,,,,,,,,,,,,,,,,,,,,,,
,,473101,001,B,2023-06-13_18h23.38.172,Unsyncopated1,2022.2.5,Win32,59.94125757,,,,,,,,,,,,,,,,,,,,,,,,,,,,0,1,1,1,1,Online_conjL1_un//a.pu.ki5.0.888.wav,888,0,pu,lu,zu,sil,ki,fo,la,sil1,cho,ze,sil2,,,,,,,,,,,,,,,,,,,,,,,,,,,,,,,,,,,,,
,,473101,001,B,2023-06-13_18h23.38.172,Unsyncopated1,2022.2.5,Win32,59.94125757,,,,,,,,,,,,,,,,,,,,,,,,,space,0.5178,,0,2,2,2,1,Online_conjL1_un//a.pu.ki6.0.888.wav,888,0,pu,cho,fa,sil,ki,zu,ni,sil1,ne,ro,sil2,,,,,,,,,,,,,,,,,,,,,,,,,,,,,,,,,,,,,
,,473101,001,B,2023-06-13_18h23.38.172,Unsyncopated1,2022.2.5,Win32,59.94125757,,,,,,,,,,,,,,,,,,,,,,,,,space,0.9856,,0,3,3,3,1,Online_conjL1_un//a.pu.ki7.0.888.wav,888,0,pu,la,fa,sil,ki,ri,ze,sil1,lu,ro,sil2,,,,,,,,,,,,,,,,,,,,,,,,,,,,,,,,,,,,,
,,473101,001,B,2023-06-13_18h23.38.172,Unsyncopated1,2022.2.5,Win32,59.94125757,,,,,,,,,,,,,,,,,,,,,,,,,,,,,,,,,,,,,,,,,,,,,,,0,0,0,7,1,ki,pu,4:8,red,,,,,,,,,,,,,,,,,,,,,,,,,,,,
,,473101,001,B,2023-06-13_18h23.38.172,Unsyncopated1,2022.2.5,Win32,59.94125757,,,,,,,,,,,,,,,,,,,,,,,,,,,,0,0,0,1,1,Online_conjL1_un//b.ta.be9.none.none.wav,none,none,fa,ne,lu,sil,pu,ri,la,sil1,ki,ni,sil2,,,,,,,,,,,,,,,,,,,,,,,,,,,,,,,,,,,,,
,,473101,001,B,2023-06-13_18h23.38.172,Unsyncopated1,2022.2.5,Win32,59.94125757,,,,,,,,,,,,,,,,,,,,,,,,,space,1.4824,,0,1,1,0,1,Online_conjL1_un//b.ta.be8.0.888.wav,0,888,ta,la,ne,sil,be,lu,ni,sil1,ro,fa,sil2,,,,,,,,,,,,,,,,,,,,,,,,,,,,,,,,,,,,,
,,473101,001,B,2023-06-13_18h23.38.172,Unsyncopated1,2022.2.5,Win32,59.94125757,,,,,,,,,,,,,,,,,,,,,,,,,,,,0,2,2,3,1,Online_conjL1_un//b.ta.be11.0.888.wav,0,888,ta,fa,lu,sil,be,ni,ze,sil1,ri,ro,sil2,,,,,,,,,,,,,,,,,,,,,,,,,,,,,,,,,,,,,
,,473101,001,B,2023-06-13_18h23.38.172,Unsyncopated1,2022.2.5,Win32,59.94125757,,,,,,,,,,,,,,,,,,,,,,,,,space,0.6652,,0,3,3,2,1,Online_conjL1_un//b.ta.be10.none.none.wav,none,none,ni,lu,cho,sil,pu,fa,zu,sil1,ki,fo,sil2,,,,,,,,,,,,,,,,,,,,,,,,,,,,,,,,,,,,,
,,473101,001,B,2023-06-13_18h23.38.172,Unsyncopated1,2022.2.5,Win32,59.94125757,,,,,,,,,,,,,,,,,,,,,,,,,,,,,,,,,,,,,,,,,,,,,,,0,1,1,24,1,ta,be,40:44,blue,,,,,,,,,,,,,,,,,,,,,,,,,,,,
,,473101,001,B,2023-06-13_18h23.38.172,Unsyncopated1,2022.2.5,Win32,59.94125757,,,,,,,,,,,,,,,,,,,,,,,,,space,0.4973,,0,0,0,3,1,Online_conjL1_un//a.pu.ki11.0.888.wav,888,0,pu,fa,fo,sil,ki,ze,lu,sil1,ri,ni,sil2,,,,,,,,,,,,,,,,,,,,,,,,,,,,,,,,,,,,,
,,473101,001,B,2023-06-13_18h23.38.172,Unsyncopated1,2022.2.5,Win32,59.94125757,,,,,,,,,,,,,,,,,,,,,,,,,,,,0,1,1,1,1,Online_conjL1_un//a.pu.ki9.0.888.wav,888,0,pu,ne,fo,sil,ki,fa,ni,sil1,ze,ri,sil2,,,,,,,,,,,,,,,,,,,,,,,,,,,,,,,,,,,,,
,,473101,001,B,2023-06-13_18h23.38.172,Unsyncopated1,2022.2.5,Win32,59.94125757,,,,,,,,,,,,,,,,,,,,,,,,,space,1.0171,,0,2,2,0,1,Online_conjL1_un//a.pu.ki8.0.888.wav,888,0,pu,ne,ro,sil,ki,ze,zu,sil1,la,ni,sil2,,,,,,,,,,,,,,,,,,,,,,,,,,,,,,,,,,,,,
,,473101,001,B,2023-06-13_18h23.38.172,Unsyncopated1,2022.2.5,Win32,59.94125757,,,,,,,,,,,,,,,,,,,,,,,,,,,,0,3,3,2,1,Online_conjL1_un//a.pu.ki10.none.none.wav,none,none,ta,ze,ni,sil,be,zu,fa,sil1,ro,fo,sil2,,,,,,,,,,,,,,,,,,,,,,,,,,,,,,,,,,,,,
,,473101,001,B,2023-06-13_18h23.38.172,Unsyncopated1,2022.2.5,Win32,59.94125757,,,,,,,,,,,,,,,,,,,,,,,,,,,,,,,,,,,,,,,,,,,,,,,0,2,2,5,1,ki,pu,8:12,red,,,,,,,,,,,,,,,,,,,,,,,,,,,,
,,473101,001,B,2023-06-13_18h23.38.172,Unsyncopated1,2022.2.5,Win32,59.94125757,,,,,,,,,,,,,,,,,,,,,,,,,,,,0,0,0,3,1,Online_conjL1_un//d.ne.ni31.none.none.wav,none,none,ta,ro,cho,sil,be,ri,lu,sil1,fo,fa,sil2,,,,,,,,,,,,,,,,,,,,,,,,,,,,,,,,,,,,,
,,473101,001,B,2023-06-13_18h23.38.172,Unsyncopated1,2022.2.5,Win32,59.94125757,,,,,,,,,,,,,,,,,,,,,,,,,,,,0,1,1,0,1,Online_conjL1_un//d.ne.ni28.none.none.wav,none,none,pu,ro,ri,sil,ki,la,zu,sil1,lu,cho,sil2,,,,,,,,,,,,,,,,,,,,,,,,,,,,,,,,,,,,,
,,473101,001,B,2023-06-13_18h23.38.172,Unsyncopated1,2022.2.5,Win32,59.94125757,,,,,,,,,,,,,,,,,,,,,,,,,,,,0,2,2,2,1,Online_conjL1_un//d.ne.ni30.none.none.wav,none,none,pu,la,ro,sil,ki,ze,fa,sil1,ri,lu,sil2,,,,,,,,,,,,,,,,,,,,,,,,,,,,,,,,,,,,,
,,473101,001,B,2023-06-13_18h23.38.172,Unsyncopated1,2022.2.5,Win32,59.94125757,,,,,,,,,,,,,,,,,,,,,,,,,space,1.0867,,0,3,3,1,1,Online_conjL1_un//d.ne.ni29.0.444.wav,0,444,ne,ro,ni,sil,ta,fa,cho,sil1,be,ri,sil2,,,,,,,,,,,,,,,,,,,,,,,,,,,,,,,,,,,,,
,,473101,001,B,2023-06-13_18h23.38.172,Unsyncopated1,2022.2.5,Win32,59.94125757,,,,,,,,,,,,,,,,,,,,,,,,,,,,,,,,,,,,,,,,,,,,,,,0,3,3,10,1,ne,ni,124:128,orange,,,,,,,,,,,,,,,,,,,,,,,,,,,,
,,473101,001,B,2023-06-13_18h23.38.172,Unsyncopated1,2022.2.5,Win32,59.94125757,,,,,,,,,,,,,,,,,,,,,,,,,space,2.1702,,0,0,0,2,1,Online_conjL1_un//b.ta.be26.888.1776.wav,888,1776,ni,ri,fa,sil,ta,zu,lu,sil1,be,ze,sil2,,,,,,,,,,,,,,,,,,,,,,,,,,,,,,,,,,,,,
,,473101,001,B,2023-06-13_18h23.38.172,Unsyncopated1,2022.2.5,Win32,59.94125757,,,,,,,,,,,,,,,,,,,,,,,,,,,,0,1,1,0,1,Online_conjL1_un//b.ta.be24.888.1776.wav,888,1776,ze,ne,ri,sil,ta,fa,la,sil1,be,fo,sil2,,,,,,,,,,,,,,,,,,,,,,,,,,,,,,,,,,,,,
,,473101,001,B,2023-06-13_18h23.38.172,Unsyncopated1,2022.2.5,Win32,59.94125757,,,,,,,,,,,,,,,,,,,,,,,,,space,1.667,,0,2,2,1,1,Online_conjL1_un//b.ta.be25.0.888.wav,0,888,ta,la,lu,sil,be,cho,zu,sil1,ne,ro,sil2,,,,,,,,,,,,,,,,,,,,,,,,,,,,,,,,,,,,,
,,473101,001,B,2023-06-13_18h23.38.172,Unsyncopated1,2022.2.5,Win32,59.94125757,,,,,,,,,,,,,,,,,,,,,,,,,space,2.1092,,0,3,3,3,1,Online_conjL1_un//b.ta.be27.888.1776.wav,888,1776,fo,ni,lu,sil,ta,ne,ro,sil1,be,fa,sil2,,,,,,,,,,,,,,,,,,,,,,,,,,,,,,,,,,,,,
,,473101,001,B,2023-06-13_18h23.38.172,Unsyncopated1,2022.2.5,Win32,59.94125757,,,,,,,,,,,,,,,,,,,,,,,,,,,,,,,,,,,,,,,,,,,,,,,0,4,4,15,1,ta,be,56:60,blue,,,,,,,,,,,,,,,,,,,,,,,,,,,,
,,473101,001,B,2023-06-13_18h23.38.172,Unsyncopated1,2022.2.5,Win32,59.94125757,,,,,,,,,,,,,,,,,,,,,,,,,,,,0,0,0,0,1,Online_conjL1_un//c.ro.fo8.none.none.wav,none,none,ni,cho,ri,sil,ta,la,ze,sil1,be,zu,sil2,,,,,,,,,,,,,,,,,,,,,,,,,,,,,,,,,,,,,
,,473101,001,B,2023-06-13_18h23.38.172,Unsyncopated1,2022.2.5,Win32,59.94125757,,,,,,,,,,,,,,,,,,,,,,,,,space,0.9171,,0,1,1,1,1,Online_conjL1_un//c.ro.fo9.1332.444.wav,1332,444,ri,ze,fo,sil,pu,fa,ro,sil1,ki,ne,sil2,,,,,,,,,,,,,,,,,,,,,,,,,,,,,,,,,,,,,
,,473101,001,B,2023-06-13_18h23.38.172,Unsyncopated1,2022.2.5,Win32,59.94125757,,,,,,,,,,,,,,,,,,,,,,,,,,,,0,2,2,2,1,Online_conjL1_un//c.ro.fo10.none.none.wav,none,none,ta,zu,cho,sil,be,ze,la,sil1,ne,lu,sil2,,,,,,,,,,,,,,,,,,,,,,,,,,,,,,,,,,,,,
,,473101,001,B,2023-06-13_18h23.38.172,Unsyncopated1,2022.2.5,Win32,59.94125757,,,,,,,,,,,,,,,,,,,,,,,,,space,1.4854,,0,3,3,3,1,Online_conjL1_un//c.ro.fo11.none.none.wav,none,none,ta,lu,la,sil,be,fa,ne,sil1,ze,ni,sil2,,,,,,,,,,,,,,,,,,,,,,,,,,,,,,,,,,,,,
,,473101,001,B,2023-06-13_18h23.38.172,Unsyncopated1,2022.2.5,Win32,59.94125757,,,,,,,,,,,,,,,,,,,,,,,,,,,,,,,,,,,,,,,,,,,,,,,0,5,5,23,1,ro,fo,72:76,green,,,,,,,,,,,,,,,,,,,,,,,,,,,,
,,473101,001,B,2023-06-13_18h23.38.172,Unsyncopated1,2022.2.5,Win32,59.94125757,,,,,,,,,,,,,,,,,,,,,,,,,space,0.4892,,0,0,0,3,1,Online_conjL1_un//a.pu.ki23.0.888.wav,888,0,pu,la,ze,sil,ki,cho,fo,sil1,ne,zu,sil2,,,,,,,,,,,,,,,,,,,,,,,,,,,,,,,,,,,,,
,,473101,001,B,2023-06-13_18h23.38.172,Unsyncopated1,2022.2.5,Win32,59.94125757,,,,,,,,,,,,,,,,,,,,,,,,,,,,0,1,1,0,1,Online_conjL1_un//a.pu.ki20.none.none.wav,none,none,ta,ni,ze,sil,be,ri,ne,sil1,cho,fo,sil2,,,,,,,,,,,,,,,,,,,,,,,,,,,,,,,,,,,,,
,,473101,001,B,2023-06-13_18h23.38.172,Unsyncopated1,2022.2.5,Win32,59.94125757,,,,,,,,,,,,,,,,,,,,,,,,,space,1.3358,,0,2,2,1,1,Online_conjL1_un//a.pu.ki21.888.1776.wav,1776,888,zu,ri,ni,sil,pu,lu,fa,sil1,ki,ro,sil2,,,,,,,,,,,,,,,,,,,,,,,,,,,,,,,,,,,,,
,,473101,001,B,2023-06-13_18h23.38.172,Unsyncopated1,2022.2.5,Win32,59.94125757,,,,,,,,,,,,,,,,,,,,,,,,,space,1.4044,,0,3,3,2,1,Online_conjL1_un//a.pu.ki22.888.1776.wav,1776,888,la,ze,zu,sil,pu,ne,cho,sil1,ki,ri,sil2,,,,,,,,,,,,,,,,,,,,,,,,,,,,,,,,,,,,,
,,473101,001,B,2023-06-13_18h23.38.172,Unsyncopated1,2022.2.5,Win32,59.94125757,,,,,,,,,,,,,,,,,,,,,,,,,,,,,,,,,,,,,,,,,,,,,,,0,6,6,1,1,ki,pu,20:24,red,,,,,,,,,,,,,,,,,,,,,,,,,,,,
,,473101,001,B,2023-06-13_18h23.38.172,Unsyncopated1,2022.2.5,Win32,59.94125757,,,,,,,,,,,,,,,,,,,,,,,,,space,1.7404,,0,0,0,1,1,Online_conjL1_un//c.ro.fo29.1110.1332.wav,1110,1332,pu,fa,ni,sil,ki,ro,fo,sil1,zu,cho,sil2,,,,,,,,,,,,,,,,,,,,,,,,,,,,,,,,,,,,,
,,473101,001,B,2023-06-13_18h23.38.172,Unsyncopated1,2022.2.5,Win32,59.94125757,,,,,,,,,,,,,,,,,,,,,,,,,space,1.8044,,0,1,1,0,1,Online_conjL1_un//c.ro.fo28.444.1110.wav,444,1110,ta,lu,ro,sil,be,fo,ri,sil1,cho,fa,sil2,,,,,,,,,,,,,,,,,,,,,,,,,,,,,,,,,,,,,
,,473101,001,B,2023-06-13_18h23.38.172,Unsyncopated1,2022.2.5,Win32,59.94125757,,,,,,,,,,,,,,,,,,,,,,,,,space,1.6214,,0,2,2,3,1,Online_conjL1_un//c.ro.fo31.0.1110.wav,0,1110,ro,ne,zu,sil,ta,fo,cho,sil1,be,ri,sil2,,,,,,,,,,,,,,,,,,,,,,,,,,,,,,,,,,,,,
,,473101,001,B,2023-06-13_18h23.38.172,Unsyncopated1,2022.2.5,Win32,59.94125757,,,,,,,,,,,,,,,,,,,,,,,,,,,,0,3,3,2,1,Online_conjL1_un//c.ro.fo30.none.none.wav,none,none,pu,ni,cho,sil,ki,la,lu,sil1,ne,fa,sil2,,,,,,,,,,,,,,,,,,,,,,,,,,,,,,,,,,,,,
,,473101,001,B,2023-06-13_18h23.38.172,Unsyncopated1,2022.2.5,Win32,59.94125757,,,,,,,,,,,,,,,,,,,,,,,,,,,,,,,,,,,,,,,,,,,,,,,0,7,7,25,1,ro,fo,92:96,green,,,,,,,,,,,,,,,,,,,,,,,,,,,,
,,473101,001,B,2023-06-13_18h23.38.172,Unsyncopated1,2022.2.5,Win32,59.94125757,,,,,,,,,,,,,,,,,,,,,,,,,,,,0,0,0,3,1,Online_conjL1_un//b.ta.be7.none.none.wav,none,none,zu,fa,lu,sil,pu,fo,ri,sil1,ki,ne,sil2,,,,,,,,,,,,,,,,,,,,,,,,,,,,,,,,,,,,,
,,473101,001,B,2023-06-13_18h23.38.172,Unsyncopated1,2022.2.5,Win32,59.94125757,,,,,,,,,,,,,,,,,,,,,,,,,,,,0,1,1,2,1,Online_conjL1_un//b.ta.be6.none.none.wav,none,none,la,fo,cho,sil,pu,fa,ro,sil1,ki,ze,sil2,,,,,,,,,,,,,,,,,,,,,,,,,,,,,,,,,,,,,
,,473101,001,B,2023-06-13_18h23.38.172,Unsyncopated1,2022.2.5,Win32,59.94125757,,,,,,,,,,,,,,,,,,,,,,,,,,,,0,2,2,1,1,Online_conjL1_un//b.ta.be5.none.none.wav,none,none,ri,ni,fo,sil,pu,la,ze,sil1,ki,zu,sil2,,,,,,,,,,,,,,,,,,,,,,,,,,,,,,,,,,,,,
,,473101,001,B,2023-06-13_18h23.38.172,Unsyncopated1,2022.2.5,Win32,59.94125757,,,,,,,,,,,,,,,,,,,,,,,,,space,2.2638,,0,3,3,0,1,Online_conjL1_un//b.ta.be4.888.1776.wav,888,1776,fa,ri,cho,sil,ta,ni,ze,sil1,be,ro,sil2,,,,,,,,,,,,,,,,,,,,,,,,,,,,,,,,,,,,,
,,473101,001,B,2023-06-13_18h23.38.172,Unsyncopated1,2022.2.5,Win32,59.94125757,,,,,,,,,,,,,,,,,,,,,,,,,,,,,,,,,,,,,,,,,,,,,,,0,8,8,16,1,ta,be,36:40,blue,,,,,,,,,,,,,,,,,,,,,,,,,,,,
,,473101,001,B,2023-06-13_18h23.38.172,Unsyncopated1,2022.2.5,Win32,59.94125757,,,,,,,,,,,,,,,,,,,,,,,,,,,,0,0,0,3,1,Online_conjL1_un//b.ta.be15.none.none.wav,none,none,fa,ri,cho,sil,pu,ne,la,sil1,ki,zu,sil2,,,,,,,,,,,,,,,,,,,,,,,,,,,,,,,,,,,,,
,,473101,001,B,2023-06-13_18h23.38.172,Unsyncopated1,2022.2.5,Win32,59.94125757,,,,,,,,,,,,,,,,,,,,,,,,,,,y,0,1,1,0,1,Online_conjL1_un//b.ta.be12.0.888.wav,0,888,ta,lu,fa,sil,be,ri,la,sil1,fo,zu,sil2,,,,,,,,,,0.9202,,,,,,,,,,,,,,,,,,,,,,,,,,,
,,473101,001,B,2023-06-13_18h23.38.172,Unsyncopated1,2022.2.5,Win32,59.94125757,,,,,,,,,,,,,,,,,,,,,,,,,,,y,0,2,2,2,1,Online_conjL1_un//b.ta.be14.none.none.wav,none,none,pu,ri,la,sil,ki,cho,fo,sil1,lu,ze,sil2,,,,,,,,,,0.1675,,,,,,,,,,,,,,,,,,,,,,,,,,,
,,473101,001,B,2023-06-13_18h23.38.172,Unsyncopated1,2022.2.5,Win32,59.94125757,,,,,,,,,,,,,,,,,,,,,,,,,,,y,0,3,3,1,1,Online_conjL1_un//b.ta.be13.none.none.wav,none,none,pu,zu,fo,sil,ki,fa,ri,sil1,ro,ne,sil2,,,,,,,,,,0.1175,,,,,,,,,,,,,,,,,,,,,,,,,,,
,,473101,001,B,2023-06-13_18h23.38.172,Unsyncopated1,2022.2.5,Win32,59.94125757,,,,,,,,,,,,,,,,,,,,,,,,,,,,,,,,,,,,,,,,,,,,,,,0,9,9,27,1,ta,be,44:48,blue,,,,,,,,,,,,,,,,,,,,,,,,,,,,
,,473101,001,B,2023-06-13_18h23.38.172,Unsyncopated1,2022.2.5,Win32,59.94125757,,,,,,,,,,,,,,,,,,,,,,,,,,,y,0,0,0,0,1,Online_conjL1_un//c.ro.fo4.0.1110.wav,0,1110,ro,lu,fa,sil,ta,fo,ne,sil1,be,ni,sil2,,,,,,,,,,0.1387,,,,,,,,,,,,,,,,,,,,,,,,,,,
,,473101,001,B,2023-06-13_18h23.38.172,Unsyncopated1,2022.2.5,Win32,59.94125757,,,,,,,,,,,,,,,,,,,,,,,,,,,y,0,1,1,2,1,Online_conjL1_un//c.ro.fo6.none.none.wav,none,none,pu,ne,la,sil,ki,ze,ni,sil1,zu,ri,sil2,,,,,,,,,,0.1176,,,,,,,,,,,,,,,,,,,,,,,,,,,
,,473101,001,B,2023-06-13_18h23.38.172,Unsyncopated1,2022.2.5,Win32,59.94125757,,,,,,,,,,,,,,,,,,,,,,,,,,,y,0,2,2,1,1,Online_conjL1_un//c.ro.fo5.1110.222.wav,1110,222,ze,fo,lu,sil,pu,ro,zu,sil1,ki,la,sil2,,,,,,,,,,0.1192,,,,,,,,,,,,,,,,,,,,,,,,,,,
,,473101,001,B,2023-06-13_18h23.38.172,Unsyncopated1,2022.2.5,Win32,59.94125757,,,,,,,,,,,,,,,,,,,,,,,,,,,y,0,3,3,3,1,Online_conjL1_un//c.ro.fo7.444.1110.wav,444,1110,ni,lu,ro,sil,ta,fo,fa,sil1,be,la,sil2,,,,,,,,,,0.1207,,,,,,,,,,,,,,,,,,,,,,,,,,,
,,473101,001,B,2023-06-13_18h23.38.172,Unsyncopated1,2022.2.5,Win32,59.94125757,,,,,,,,,,,,,,,,,,,,,,,,,,,,,,,,,,,,,,,,,,,,,,,0,10,10,6,1,ro,fo,68:72,green,,,,,,,,,,,,,,,,,,,,,,,,,,,,
,,473101,001,B,2023-06-13_18h23.38.172,Unsyncopated1,2022.2.5,Win32,59.94125757,,,,,,,,,,,,,,,,,,,,,,,,,,,y,0,0,0,2,1,Online_conjL1_un//b.ta.be30.none.none.wav,none,none,pu,fa,lu,sil,ki,ni,ne,sil1,ri,ro,sil2,,,,,,,,,,0.113,,,,,,,,,,,,,,,,,,,,,,,,,,,
,,473101,001,B,2023-06-13_18h23.38.172,Unsyncopated1,2022.2.5,Win32,59.94125757,,,,,,,,,,,,,,,,,,,,,,,,,,,y,0,1,1,3,1,Online_conjL1_un//b.ta.be31.888.1776.wav,888,1776,la,cho,zu,sil,ta,ne,ri,sil1,be,ze,sil2,,,,,,,,,,0.1257,,,,,,,,,,,,,,,,,,,,,,,,,,,
,,473101,001,B,2023-06-13_18h23.38.172,Unsyncopated1,2022.2.5,Win32,59.94125757,,,,,,,,,,,,,,,,,,,,,,,,,,,y,0,2,2,0,1,Online_conjL1_un//b.ta.be28.0.888.wav,0,888,ta,fo,ni,sil,be,ze,ne,sil1,fa,ri,sil2,,,,,,,,,,0.1487,,,,,,,,,,,,,,,,,,,,,,,,,,,
,,473101,001,B,2023-06-13_18h23.38.172,Unsyncopated1,2022.2.5,Win32,59.94125757,,,,,,,,,,,,,,,,,,,,,,,,,,,y,0,3,3,1,1,Online_conjL1_un//b.ta.be29.0.888.wav,0,888,ta,ze,lu,sil,be,la,zu,sil1,fo,fa,sil2,,,,,,,,,,0.1298,,,,,,,,,,,,,,,,,,,,,,,,,,,
,,473101,001,B,2023-06-13_18h23.38.172,Unsyncopated1,2022.2.5,Win32,59.94125757,,,,,,,,,,,,,,,,,,,,,,,,,,,,,,,,,,,,,,,,,,,,,,,0,11,11,22,1,ta,be,60:64,blue,,,,,,,,,,,,,,,,,,,,,,,,,,,,
,,473101,001,B,2023-06-13_18h23.38.172,Unsyncopated1,2022.2.5,Win32,59.94125757,,,,,,,,,,,,,,,,,,,,,,,,,,,y,0,0,0,0,1,Online_conjL1_un//d.ne.ni24.1110.222.wav,1110,222,ri,ni,fa,sil,pu,ne,ro,sil1,ki,fo,sil2,,,,,,,,,,0.1198,,,,,,,,,,,,,,,,,,,,,,,,,,,
,,473101,001,B,2023-06-13_18h23.38.172,Unsyncopated1,2022.2.5,Win32,59.94125757,,,,,,,,,,,,,,,,,,,,,,,,,,,y,0,1,1,2,1,Online_conjL1_un//d.ne.ni26.none.none.wav,none,none,lu,ri,ro,sil,pu,cho,fa,sil1,ki,ze,sil2,,,,,,,,,,0.1172,,,,,,,,,,,,,,,,,,,,,,,,,,,
,,473101,001,B,2023-06-13_18h23.38.172,Unsyncopated1,2022.2.5,Win32,59.94125757,,,,,,,,,,,,,,,,,,,,,,,,,,,y,0,2,2,3,1,Online_conjL1_un//d.ne.ni27.1110.0.wav,1110,0,ni,fa,ri,sil,ta,ne,zu,sil1,be,la,sil2,,,,,,,,,,0.151,,,,,,,,,,,,,,,,,,,,,,,,,,,
,,473101,001,B,2023-06-13_18h23.38.172,Unsyncopated1,2022.2.5,Win32,59.94125757,,,,,,,,,,,,,,,,,,,,,,,,,,,y,0,3,3,1,1,Online_conjL1_un//d.ne.ni25.none.none.wav,none,none,ta,fa,ze,sil,be,ro,lu,sil1,la,fo,sil2,,,,,,,,,,0.1342,,,,,,,,,,,,,,,,,,,,,,,,,,,
,,473101,001,B,2023-06-13_18h23.38.172,Unsyncopated1,2022.2.5,Win32,59.94125757,,,,,,,,,,,,,,,,,,,,,,,,,,,,,,,,,,,,,,,,,,,,,,,0,12,12,9,1,ne,ni,120:124,orange,,,,,,,,,,,,,,,,,,,,,,,,,,,,
,,473101,001,B,2023-06-13_18h23.38.172,Unsyncopated1,2022.2.5,Win32,59.94125757,,,,,,,,,,,,,,,,,,,,,,,,,,,y,0,0,0,0,1,Online_conjL1_un//c.ro.fo24.none.none.wav,none,none,la,lu,cho,sil,pu,fa,ri,sil1,ki,ze,sil2,,,,,,,,,,0.1165,,,,,,,,,,,,,,,,,,,,,,,,,,,
,,473101,001,B,2023-06-13_18h23.38.172,Unsyncopated1,2022.2.5,Win32,59.94125757,,,,,,,,,,,,,,,,,,,,,,,,,,,y,0,1,1,3,1,Online_conjL1_un//c.ro.fo27.1332.222.wav,1332,222,pu,fo,lu,sil,ki,la,ro,sil1,ze,zu,sil2,,,,,,,,,,0.1176,,,,,,,,,,,,,,,,,,,,,,,,,,,
,,473101,001,B,2023-06-13_18h23.38.172,Unsyncopated1,2022.2.5,Win32,59.94125757,,,,,,,,,,,,,,,,,,,,,,,,,,,y,0,2,2,2,1,Online_conjL1_un//c.ro.fo26.1332.0.wav,1332,0,fo,lu,ne,sil,pu,ri,ro,sil1,ki,ze,sil2,,,,,,,,,,0.1346,,,,,,,,,,,,,,,,,,,,,,,,,,,
,,473101,001,B,2023-06-13_18h23.38.172,Unsyncopated1,2022.2.5,Win32,59.94125757,,,,,,,,,,,,,,,,,,,,,,,,,,,y,0,3,3,1,1,Online_conjL1_un//c.ro.fo25.none.none.wav,none,none,ni,cho,fa,sil,ta,zu,la,sil1,be,lu,sil2,,,,,,,,,,0.1675,,,,,,,,,,,,,,,,,,,,,,,,,,,
,,473101,001,B,2023-06-13_18h23.38.172,Unsyncopated1,2022.2.5,Win32,59.94125757,,,,,,,,,,,,,,,,,,,,,,,,,,,,,,,,,,,,,,,,,,,,,,,0,13,13,2,1,ro,fo,88:92,green,,,,,,,,,,,,,,,,,,,,,,,,,,,,
,,473101,001,B,2023-06-13_18h23.38.172,Unsyncopated1,2022.2.5,Win32,59.94125757,,,,,,,,,,,,,,,,,,,,,,,,,,,y,0,0,0,1,1,Online_conjL1_un//c.ro.fo21.none.none.wav,none,none,zu,lu,cho,sil,pu,la,ne,sil1,ki,fa,sil2,,,,,,,,,,0.1132,,,,,,,,,,,,,,,,,,,,,,,,,,,
,,473101,001,B,2023-06-13_18h23.38.172,Unsyncopated1,2022.2.5,Win32,59.94125757,,,,,,,,,,,,,,,,,,,,,,,,,,,y,0,1,1,3,1,Online_conjL1_un//c.ro.fo23.444.1332.wav,444,1332,pu,ri,ro,sil,ki,ne,fo,sil1,cho,ze,sil2,,,,,,,,,,0.1496,,,,,,,,,,,,,,,,,,,,,,,,,,,
,,473101,001,B,2023-06-13_18h23.38.172,Unsyncopated1,2022.2.5,Win32,59.94125757,,,,,,,,,,,,,,,,,,,,,,,,,,,y,0,2,2,2,1,Online_conjL1_un//c.ro.fo22.444.1332.wav,444,1332,pu,la,ro,sil,ki,ri,fo,sil1,cho,ni,sil2,,,,,,,,,,0.1391,,,,,,,,,,,,,,,,,,,,,,,,,,,
,,473101,001,B,2023-06-13_18h23.38.172,Unsyncopated1,2022.2.5,Win32,59.94125757,,,,,,,,,,,,,,,,,,,,,,,,,,,y,0,3,3,0,1,Online_conjL1_un//c.ro.fo20.none.none.wav,none,none,ta,ri,ni,sil,be,ze,cho,sil1,la,fa,sil2,,,,,,,,,,0.148,,,,,,,,,,,,,,,,,,,,,,,,,,,
,,473101,001,B,2023-06-13_18h23.38.172,Unsyncopated1,2022.2.5,Win32,59.94125757,,,,,,,,,,,,,,,,,,,,,,,,,,,,,,,,,,,,,,,,,,,,,,,0,14,14,20,1,ro,fo,84:88,green,,,,,,,,,,,,,,,,,,,,,,,,,,,,
,,473101,001,B,2023-06-13_18h23.38.172,Unsyncopated1,2022.2.5,Win32,59.94125757,,,,,,,,,,,,,,,,,,,,,,,,,,,y,0,0,0,2,1,Online_conjL1_un//a.pu.ki2.none.none.wav,none,none,ta,ro,ne,sil,be,lu,fo,sil1,la,ri,sil2,,,,,,,,,,0.1373,,,,,,,,,,,,,,,,,,,,,,,,,,,
,,473101,001,B,2023-06-13_18h23.38.172,Unsyncopated1,2022.2.5,Win32,59.94125757,,,,,,,,,,,,,,,,,,,,,,,,,,,y,0,1,1,0,1,Online_conjL1_un//a.pu.ki0.888.1776.wav,1776,888,ni,zu,ne,sil,pu,fa,ze,sil1,ki,ri,sil2,,,,,,,,,,0.1341,,,,,,,,,,,,,,,,,,,,,,,,,,,
,,473101,001,B,2023-06-13_18h23.38.172,Unsyncopated1,2022.2.5,Win32,59.94125757,,,,,,,,,,,,,,,,,,,,,,,,,,,y,0,2,2,3,1,Online_conjL1_un//a.pu.ki3.none.none.wav,none,none,ta,fo,lu,sil,be,ze,cho,sil1,ri,la,sil2,,,,,,,,,,0.1338,,,,,,,,,,,,,,,,,,,,,,,,,,,
,,473101,001,B,2023-06-13_18h23.38.172,Unsyncopated1,2022.2.5,Win32,59.94125757,,,,,,,,,,,,,,,,,,,,,,,,,,,y,0,3,3,1,1,Online_conjL1_un//a.pu.ki1.888.1776.wav,1776,888,ro,fa,ne,sil,pu,lu,cho,sil1,ki,ri,sil2,,,,,,,,,,0.1519,,,,,,,,,,,,,,,,,,,,,,,,,,,
,,473101,001,B,2023-06-13_18h23.38.172,Unsyncopated1,2022.2.5,Win32,59.94125757,,,,,,,,,,,,,,,,,,,,,,,,,,,,,,,,,,,,,,,,,,,,,,,0,15,15,19,1,ki,pu,0:4,red,,,,,,,,,,,,,,,,,,,,,,,,,,,,
,,473101,001,B,2023-06-13_18h23.38.172,Unsyncopated1,2022.2.5,Win32,59.94125757,,,,,,,,,,,,,,,,,,,,,,,,,,,y,0,0,0,2,1,Online_conjL1_un//c.ro.fo2.none.none.wav,none,none,pu,ni,ne,sil,ki,la,ri,sil1,cho,zu,sil2,,,,,,,,,,0.1186,,,,,,,,,,,,,,,,,,,,,,,,,,,
,,473101,001,B,2023-06-13_18h23.38.172,Unsyncopated1,2022.2.5,Win32,59.94125757,,,,,,,,,,,,,,,,,,,,,,,,,,,y,0,1,1,0,1,Online_conjL1_un//c.ro.fo0.0.222.wav,0,222,ro,fo,ri,sil,ta,fa,zu,sil1,be,ze,sil2,,,,,,,,,,0.151,,,,,,,,,,,,,,,,,,,,,,,,,,,
,,473101,001,B,2023-06-13_18h23.38.172,Unsyncopated1,2022.2.5,Win32,59.94125757,,,,,,,,,,,,,,,,,,,,,,,,,,,y,0,2,2,3,1,Online_conjL1_un//c.ro.fo3.222.1110.wav,222,1110,ta,ro,ne,sil,be,fo,fa,sil1,cho,ze,sil2,,,,,,,,,,0.1519,,,,,,,,,,,,,,,,,,,,,,,,,,,
,,473101,001,B,2023-06-13_18h23.38.172,Unsyncopated1,2022.2.5,Win32,59.94125757,,,,,,,,,,,,,,,,,,,,,,,,,,,y,0,3,3,1,1,Online_conjL1_un//c.ro.fo1.none.none.wav,none,none,cho,zu,fa,sil,pu,lu,ni,sil1,ki,ze,sil2,,,,,,,,,,0.1364,,,,,,,,,,,,,,,,,,,,,,,,,,,
,,473101,001,B,2023-06-13_18h23.38.172,Unsyncopated1,2022.2.5,Win32,59.94125757,,,,,,,,,,,,,,,,,,,,,,,,,,,,,,,,,,,,,,,,,,,,,,,0,16,16,13,1,ro,fo,64:68,green,,,,,,,,,,,,,,,,,,,,,,,,,,,,
,,473101,001,B,2023-06-13_18h23.38.172,Unsyncopated1,2022.2.5,Win32,59.94125757,,,,,,,,,,,,,,,,,,,,,,,,,,,y,0,0,0,1,1,Online_conjL1_un//b.ta.be17.888.1776.wav,888,1776,ro,zu,ne,sil,ta,ze,fo,sil1,be,ri,sil2,,,,,,,,,,0.1531,,,,,,,,,,,,,,,,,,,,,,,,,,,
,,473101,001,B,2023-06-13_18h23.38.172,Unsyncopated1,2022.2.5,Win32,59.94125757,,,,,,,,,,,,,,,,,,,,,,,,,,,y,0,1,1,2,1,Online_conjL1_un//b.ta.be18.none.none.wav,none,none,ne,ze,ro,sil,pu,la,cho,sil1,ki,lu,sil2,,,,,,,,,,0.1344,,,,,,,,,,,,,,,,,,,,,,,,,,,
,,473101,001,B,2023-06-13_18h23.38.172,Unsyncopated1,2022.2.5,Win32,59.94125757,,,,,,,,,,,,,,,,,,,,,,,,,,,y,0,2,2,3,1,Online_conjL1_un//b.ta.be19.888.1776.wav,888,1776,zu,ni,lu,sil,ta,ri,la,sil1,be,ze,sil2,,,,,,,,,,0.1508,,,,,,,,,,,,,,,,,,,,,,,,,,,
,,473101,001,B,2023-06-13_18h23.38.172,Unsyncopated1,2022.2.5,Win32,59.94125757,,,,,,,,,,,,,,,,,,,,,,,,,,,y,0,3,3,0,1,Online_conjL1_un//b.ta.be16.888.1776.wav,888,1776,ze,cho,fo,sil,ta,ne,zu,sil1,be,lu,sil2,,,,,,,,,,0.1517,,,,,,,,,,,,,,,,,,,,,,,,,,,
,,473101,001,B,2023-06-13_18h23.38.172,Unsyncopated1,2022.2.5,Win32,59.94125757,,,,,,,,,,,,,,,,,,,,,,,,,,,,,,,,,,,,,,,,,,,,,,,0,17,17,29,1,ta,be,48:52,blue,,,,,,,,,,,,,,,,,,,,,,,,,,,,
,,473101,001,B,2023-06-13_18h23.38.172,Unsyncopated1,2022.2.5,Win32,59.94125757,,,,,,,,,,,,,,,,,,,,,,,,,,,y,0,0,0,2,1,Online_conjL1_un//c.ro.fo18.1776.222.wav,1776,222,ta,fo,ni,sil,be,cho,zu,sil1,ro,ne,sil2,,,,,,,,,,0.1433,,,,,,,,,,,,,,,,,,,,,,,,,,,
,,473101,001,B,2023-06-13_18h23.38.172,Unsyncopated1,2022.2.5,Win32,59.94125757,,,,,,,,,,,,,,,,,,,,,,,,,,,y,0,1,1,3,1,Online_conjL1_un//c.ro.fo19.none.none.wav,none,none,cho,ne,zu,sil,ta,fa,lu,sil1,be,ze,sil2,,,,,,,,,,0.1177,,,,,,,,,,,,,,,,,,,,,,,,,,,
,,473101,001,B,2023-06-13_18h23.38.172,Unsyncopated1,2022.2.5,Win32,59.94125757,,,,,,,,,,,,,,,,,,,,,,,,,,,y,0,2,2,1,1,Online_conjL1_un//c.ro.fo17.none.none.wav,none,none,cho,lu,zu,sil,pu,ze,ni,sil1,ki,la,sil2,,,,,,,,,,0.1671,,,,,,,,,,,,,,,,,,,,,,,,,,,
,,473101,001,B,2023-06-13_18h23.38.172,Unsyncopated1,2022.2.5,Win32,59.94125757,,,,,,,,,,,,,,,,,,,,,,,,,,,y,0,3,3,0,1,Online_conjL1_un//c.ro.fo16.none.none.wav,none,none,ta,lu,fa,sil,be,zu,ze,sil1,ne,cho,sil2,,,,,,,,,,0.1486,,,,,,,,,,,,,,,,,,,,,,,,,,,
,,473101,001,B,2023-06-13_18h23.38.172,Unsyncopated1,2022.2.5,Win32,59.94125757,,,,,,,,,,,,,,,,,,,,,,,,,,,,,,,,,,,,,,,,,,,,,,,0,18,18,18,1,ro,fo,80:84,green,,,,,,,,,,,,,,,,,,,,,,,,,,,,
,,473101,001,B,2023-06-13_18h23.38.172,Unsyncopated1,2022.2.5,Win32,59.94125757,,,,,,,,,,,,,,,,,,,,,,,,,,,y,0,0,0,2,1,Online_conjL1_un//a.pu.ki30.none.none.wav,none,none,ri,lu,ze,sil,ta,zu,fa,sil1,be,ne,sil2,,,,,,,,,,0.1196,,,,,,,,,,,,,,,,,,,,,,,,,,,
,,473101,001,B,2023-06-13_18h23.38.172,Unsyncopated1,2022.2.5,Win32,59.94125757,,,,,,,,,,,,,,,,,,,,,,,,,,,y,0,1,1,0,1,Online_conjL1_un//a.pu.ki28.none.none.wav,none,none,ne,zu,ze,sil,ta,ni,fa,sil1,be,lu,sil2,,,,,,,,,,0.1513,,,,,,,,,,,,,,,,,,,,,,,,,,,
,,473101,001,B,2023-06-13_18h23.38.172,Unsyncopated1,2022.2.5,Win32,59.94125757,,,,,,,,,,,,,,,,,,,,,,,,,,,y,0,2,2,1,1,Online_conjL1_un//a.pu.ki29.0.888.wav,888,0,pu,fa,ze,sil,ki,la,cho,sil1,ro,ni,sil2,,,,,,,,,,0.1507,,,,,,,,,,,,,,,,,,,,,,,,,,,
,,473101,001,B,2023-06-13_18h23.38.172,Unsyncopated1,2022.2.5,Win32,59.94125757,,,,,,,,,,,,,,,,,,,,,,,,,,,y,0,3,3,3,1,Online_conjL1_un//a.pu.ki31.none.none.wav,none,none,ze,la,ni,sil,ta,ne,lu,sil1,be,cho,sil2,,,,,,,,,,0.118,,,,,,,,,,,,,,,,,,,,,,,,,,,
,,473101,001,B,2023-06-13_18h23.38.172,Unsyncopated1,2022.2.5,Win32,59.94125757,,,,,,,,,,,,,,,,,,,,,,,,,,,,,,,,,,,,,,,,,,,,,,,0,19,19,31,1,ki,pu,28:32,red,,,,,,,,,,,,,,,,,,,,,,,,,,,,
,,473101,001,B,2023-06-13_18h23.38.172,Unsyncopated1,2022.2.5,Win32,59.94125757,,,,,,,,,,,,,,,,,,,,,,,,,,,y,0,0,0,0,1,Online_conjL1_un//d.ne.ni12.1332.444.wav,1332,444,pu,fo,ni,sil,ki,ri,ne,sil1,fa,zu,sil2,,,,,,,,,,0.1532,,,,,,,,,,,,,,,,,,,,,,,,,,,
,,473101,001,B,2023-06-13_18h23.38.172,Unsyncopated1,2022.2.5,Win32,59.94125757,,,,,,,,,,,,,,,,,,,,,,,,,,,y,0,1,1,3,1,Online_conjL1_un//d.ne.ni15.222.1110.wav,222,1110,pu,ne,ze,sil,ki,ni,cho,sil1,lu,zu,sil2,,,,,,,,,,0.1512,,,,,,,,,,,,,,,,,,,,,,,,,,,
,,473101,001,B,2023-06-13_18h23.38.172,Unsyncopated1,2022.2.5,Win32,59.94125757,,,,,,,,,,,,,,,,,,,,,,,,,,,y,0,2,2,1,1,Online_conjL1_un//d.ne.ni13.none.none.wav,none,none,ta,ri,fa,sil,be,fo,ze,sil1,ro,zu,sil2,,,,,,,,,,0.1396,,,,,,,,,,,,,,,,,,,,,,,,,,,
,,473101,001,B,2023-06-13_18h23.38.172,Unsyncopated1,2022.2.5,Win32,59.94125757,,,,,,,,,,,,,,,,,,,,,,,,,,,y,0,3,3,2,1,Online_conjL1_un//d.ne.ni14.222.1332.wav,222,1332,ta,ne,ri,sil,be,fa,ni,sil1,cho,ro,sil2,,,,,,,,,,0.1642,,,,,,,,,,,,,,,,,,,,,,,,,,,
,,473101,001,B,2023-06-13_18h23.38.172,Unsyncopated1,2022.2.5,Win32,59.94125757,,,,,,,,,,,,,,,,,,,,,,,,,,,,,,,,,,,,,,,,,,,,,,,0,20,20,26,1,ne,ni,108:112,orange,,,,,,,,,,,,,,,,,,,,,,,,,,,,
,,473101,001,B,2023-06-13_18h23.38.172,Unsyncopated1,2022.2.5,Win32,59.94125757,,,,,,,,,,,,,,,,,,,,,,,,,,,y,0,0,0,1,1,Online_conjL1_un//b.ta.be21.0.888.wav,0,888,ta,fo,ri,sil,be,lu,ni,sil1,zu,la,sil2,,,,,,,,,,0.1434,,,,,,,,,,,,,,,,,,,,,,,,,,,
,,473101,001,B,2023-06-13_18h23.38.172,Unsyncopated1,2022.2.5,Win32,59.94125757,,,,,,,,,,,,,,,,,,,,,,,,,,,y,0,1,1,3,1,Online_conjL1_un//b.ta.be23.none.none.wav,none,none,pu,ro,zu,sil,ki,ze,ni,sil1,fo,ri,sil2,,,,,,,,,,0.1343,,,,,,,,,,,,,,,,,,,,,,,,,,,
,,473101,001,B,2023-06-13_18h23.38.172,Unsyncopated1,2022.2.5,Win32,59.94125757,,,,,,,,,,,,,,,,,,,,,,,,,,,y,0,2,2,2,1,Online_conjL1_un//b.ta.be22.none.none.wav,none,none,pu,ze,fa,sil,ki,zu,cho,sil1,ro,la,sil2,,,,,,,,,,0.1513,,,,,,,,,,,,,,,,,,,,,,,,,,,
,,473101,001,B,2023-06-13_18h23.38.172,Unsyncopated1,2022.2.5,Win32,59.94125757,,,,,,,,,,,,,,,,,,,,,,,,,,,y,0,3,3,0,1,Online_conjL1_un//b.ta.be20.none.none.wav,none,none,pu,ri,ro,sil,ki,ze,ne,sil1,zu,fa,sil2,,,,,,,,,,0.1678,,,,,,,,,,,,,,,,,,,,,,,,,,,
,,473101,001,B,2023-06-13_18h23.38.172,Unsyncopated1,2022.2.5,Win32,59.94125757,,,,,,,,,,,,,,,,,,,,,,,,,,,,,,,,,,,,,,,,,,,,,,,0,21,21,30,1,ta,be,52:56,blue,,,,,,,,,,,,,,,,,,,,,,,,,,,,
,,473101,001,B,2023-06-13_18h23.38.172,Unsyncopated1,2022.2.5,Win32,59.94125757,,,,,,,,,,,,,,,,,,,,,,,,,,,y,0,0,0,1,1,Online_conjL1_un//c.ro.fo13.1332.222.wav,1332,222,ta,fo,fa,sil,be,ri,ro,sil1,ne,cho,sil2,,,,,,,,,,0.1549,,,,,,,,,,,,,,,,,,,,,,,,,,,
,,473101,001,B,2023-06-13_18h23.38.172,Unsyncopated1,2022.2.5,Win32,59.94125757,,,,,,,,,,,,,,,,,,,,,,,,,,,y,0,1,1,0,1,Online_conjL1_un//c.ro.fo12.222.1110.wav,222,1110,lu,ro,cho,sil,pu,fo,ze,sil1,ki,la,sil2,,,,,,,,,,0.1341,,,,,,,,,,,,,,,,,,,,,,,,,,,
,,473101,001,B,2023-06-13_18h23.38.172,Unsyncopated1,2022.2.5,Win32,59.94125757,,,,,,,,,,,,,,,,,,,,,,,,,,,y,0,2,2,2,1,Online_conjL1_un//c.ro.fo14.none.none.wav,none,none,ne,ze,ri,sil,ta,ni,lu,sil1,be,fa,sil2,,,,,,,,,,0.1306,,,,,,,,,,,,,,,,,,,,,,,,,,,
,,473101,001,B,2023-06-13_18h23.38.172,Unsyncopated1,2022.2.5,Win32,59.94125757,,,,,,,,,,,,,,,,,,,,,,,,,,,y,0,3,3,3,1,Online_conjL1_un//c.ro.fo15.none.none.wav,none,none,pu,la,ri,sil,ki,lu,zu,sil1,cho,ni,sil2,,,,,,,,,,0.1499,,,,,,,,,,,,,,,,,,,,,,,,,,,
,,473101,001,B,2023-06-13_18h23.38.172,Unsyncopated1,2022.2.5,Win32,59.94125757,,,,,,,,,,,,,,,,,,,,,,,,,,,,,,,,,,,,,,,,,,,,,,,0,22,22,17,1,ro,fo,76:80,green,,,,,,,,,,,,,,,,,,,,,,,,,,,,
,,473101,001,B,2023-06-13_18h23.38.172,Unsyncopated1,2022.2.5,Win32,59.94125757,,,,,,,,,,,,,,,,,,,,,,,,,,,y,0,0,0,2,1,Online_conjL1_un//d.ne.ni10.1110.222.wav,1110,222,la,ni,cho,sil,pu,ne,lu,sil1,ki,zu,sil2,,,,,,,,,,0.1539,,,,,,,,,,,,,,,,,,,,,,,,,,,
,,473101,001,B,2023-06-13_18h23.38.172,Unsyncopated1,2022.2.5,Win32,59.94125757,,,,,,,,,,,,,,,,,,,,,,,,,,,y,0,1,1,3,1,Online_conjL1_un//d.ne.ni11.none.none.wav,none,none,ro,zu,la,sil,ta,ze,cho,sil1,be,fa,sil2,,,,,,,,,,0.1344,,,,,,,,,,,,,,,,,,,,,,,,,,,
,,473101,001,B,2023-06-13_18h23.38.172,Unsyncopated1,2022.2.5,Win32,59.94125757,,,,,,,,,,,,,,,,,,,,,,,,,,,y,0,2,2,1,1,Online_conjL1_un//d.ne.ni9.none.none.wav,none,none,ta,ro,fo,sil,be,zu,cho,sil1,lu,ze,sil2,,,,,,,,,,0.1509,,,,,,,,,,,,,,,,,,,,,,,,,,,
,,473101,001,B,2023-06-13_18h23.38.172,Unsyncopated1,2022.2.5,Win32,59.94125757,,,,,,,,,,,,,,,,,,,,,,,,,,,y,0,3,3,0,1,Online_conjL1_un//d.ne.ni8.1776.222.wav,1776,222,ta,ni,ri,sil,be,zu,lu,sil1,ne,fa,sil2,,,,,,,,,,0.1348,,,,,,,,,,,,,,,,,,,,,,,,,,,
,,473101,001,B,2023-06-13_18h23.38.172,Unsyncopated1,2022.2.5,Win32,59.94125757,,,,,,,,,,,,,,,,,,,,,,,,,,,,,,,,,,,,,,,,,,,,,,,0,23,23,12,1,ne,ni,104:108,orange,,,,,,,,,,,,,,,,,,,,,,,,,,,,
,,473101,001,B,2023-06-13_18h23.38.172,Unsyncopated1,2022.2.5,Win32,59.94125757,,,,,,,,,,,,,,,,,,,,,,,,,,,y,0,0,0,2,1,Online_conjL1_un//a.pu.ki14.none.none.wav,none,none,ne,ze,ni,sil,ta,zu,fo,sil1,be,lu,sil2,,,,,,,,,,0.1469,,,,,,,,,,,,,,,,,,,,,,,,,,,
,,473101,001,B,2023-06-13_18h23.38.172,Unsyncopated1,2022.2.5,Win32,59.94125757,,,,,,,,,,,,,,,,,,,,,,,,,,,y,0,1,1,3,1,Online_conjL1_un//a.pu.ki15.888.1776.wav,1776,888,cho,ri,ne,sil,pu,ze,ni,sil1,ki,zu,sil2,,,,,,,,,,0.1211,,,,,,,,,,,,,,,,,,,,,,,,,,,
,,473101,001,B,2023-06-13_18h23.38.172,Unsyncopated1,2022.2.5,Win32,59.94125757,,,,,,,,,,,,,,,,,,,,,,,,,,,y,0,2,2,1,1,Online_conjL1_un//a.pu.ki13.none.none.wav,none,none,ta,ne,ro,sil,be,lu,fa,sil1,zu,la,sil2,,,,,,,,,,0.1631,,,,,,,,,,,,,,,,,,,,,,,,,,,
,,473101,001,B,2023-06-13_18h23.38.172,Unsyncopated1,2022.2.5,Win32,59.94125757,,,,,,,,,,,,,,,,,,,,,,,,,,,y,0,3,3,0,1,Online_conjL1_un//a.pu.ki12.none.none.wav,none,none,ri,ze,fo,sil,ta,lu,ro,sil1,be,ne,sil2,,,,,,,,,,0.1472,,,,,,,,,,,,,,,,,,,,,,,,,,,
,,473101,001,B,2023-06-13_18h23.38.172,Unsyncopated1,2022.2.5,Win32,59.94125757,,,,,,,,,,,,,,,,,,,,,,,,,,,,,,,,,,,,,,,,,,,,,,,0,24,24,14,1,ki,pu,12:16,red,,,,,,,,,,,,,,,,,,,,,,,,,,,,
,,473101,001,B,2023-06-13_18h23.38.172,Unsyncopated1,2022.2.5,Win32,59.94125757,,,,,,,,,,,,,,,,,,,,,,,,,,,y,0,0,0,2,1,Online_conjL1_un//d.ne.ni6.0.1110.wav,0,1110,ne,ro,ze,sil,pu,ni,ri,sil1,ki,zu,sil2,,,,,,,,,,0.1382,,,,,,,,,,,,,,,,,,,,,,,,,,,
,,473101,001,B,2023-06-13_18h23.38.172,Unsyncopated1,2022.2.5,Win32,59.94125757,,,,,,,,,,,,,,,,,,,,,,,,,,,y,0,1,1,1,1,Online_conjL1_un//d.ne.ni5.1332.444.wav,1332,444,ta,fa,ni,sil,be,cho,ne,sil1,ri,lu,sil2,,,,,,,,,,0.1683,,,,,,,,,,,,,,,,,,,,,,,,,,,
,,473101,001,B,2023-06-13_18h23.38.172,Unsyncopated1,2022.2.5,Win32,59.94125757,,,,,,,,,,,,,,,,,,,,,,,,,,,y,0,2,2,3,1,Online_conjL1_un//d.ne.ni7.none.none.wav,none,none,cho,ro,la,sil,ta,ze,fa,sil1,be,lu,sil2,,,,,,,,,,0.1503,,,,,,,,,,,,,,,,,,,,,,,,,,,
,,473101,001,B,2023-06-13_18h23.38.172,Unsyncopated1,2022.2.5,Win32,59.94125757,,,,,,,,,,,,,,,,,,,,,,,,,,,y,0,3,3,0,1,Online_conjL1_un//d.ne.ni4.1110.1332.wav,1110,1332,ta,lu,la,sil,be,ne,ni,sil1,fa,fo,sil2,,,,,,,,,,0.1507,,,,,,,,,,,,,,,,,,,,,,,,,,,
,,473101,001,B,2023-06-13_18h23.38.172,Unsyncopated1,2022.2.5,Win32,59.94125757,,,,,,,,,,,,,,,,,,,,,,,,,,,,,,,,,,,,,,,,,,,,,,,0,25,25,0,1,ne,ni,100:104,orange,,,,,,,,,,,,,,,,,,,,,,,,,,,,
,,473101,001,B,2023-06-13_18h23.38.172,Unsyncopated1,2022.2.5,Win32,59.94125757,,,,,,,,,,,,,,,,,,,,,,,,,,,y,0,0,0,1,1,Online_conjL1_un//d.ne.ni17.0.1110.wav,0,1110,ne,la,ro,sil,ta,ni,ri,sil1,be,cho,sil2,,,,,,,,,,0.1563,,,,,,,,,,,,,,,,,,,,,,,,,,,
,,473101,001,B,2023-06-13_18h23.38.172,Unsyncopated1,2022.2.5,Win32,59.94125757,,,,,,,,,,,,,,,,,,,,,,,,,,,y,0,1,1,3,1,Online_conjL1_un//d.ne.ni19.none.none.wav,none,none,zu,fa,ri,sil,pu,lu,la,sil1,ki,ze,sil2,,,,,,,,,,0.1761,,,,,,,,,,,,,,,,,,,,,,,,,,,
,,473101,001,B,2023-06-13_18h23.38.172,Unsyncopated1,2022.2.5,Win32,59.94125757,,,,,,,,,,,,,,,,,,,,,,,,,,,y,0,2,2,0,1,Online_conjL1_un//d.ne.ni16.444.1110.wav,444,1110,ze,zu,ne,sil,ta,ni,fo,sil1,be,cho,sil2,,,,,,,,,,0.1195,,,,,,,,,,,,,,,,,,,,,,,,,,,
,,473101,001,B,2023-06-13_18h23.38.172,Unsyncopated1,2022.2.5,Win32,59.94125757,,,,,,,,,,,,,,,,,,,,,,,,,,,y,0,3,3,2,1,Online_conjL1_un//d.ne.ni18.none.none.wav,none,none,fa,ro,fo,sil,ta,ri,lu,sil1,be,la,sil2,,,,,,,,,,0.1673,,,,,,,,,,,,,,,,,,,,,,,,,,,
,,473101,001,B,2023-06-13_18h23.38.172,Unsyncopated1,2022.2.5,Win32,59.94125757,,,,,,,,,,,,,,,,,,,,,,,,,,,,,,,,,,,,,,,,,,,,,,,0,26,26,3,1,ne,ni,112:116,orange,,,,,,,,,,,,,,,,,,,,,,,,,,,,
,,473101,001,B,2023-06-13_18h23.38.172,Unsyncopated1,2022.2.5,Win32,59.94125757,,,,,,,,,,,,,,,,,,,,,,,,,,,y,0,0,0,3,1,Online_conjL1_un//b.ta.be3.0.888.wav,0,888,ta,fa,ri,sil,be,lu,ro,sil1,zu,la,sil2,,,,,,,,,,0.1368,,,,,,,,,,,,,,,,,,,,,,,,,,,
,,473101,001,B,2023-06-13_18h23.38.172,Unsyncopated1,2022.2.5,Win32,59.94125757,,,,,,,,,,,,,,,,,,,,,,,,,,,y,0,1,1,1,1,Online_conjL1_un//b.ta.be1.none.none.wav,none,none,pu,fa,ne,sil,ki,fo,lu,sil1,cho,la,sil2,,,,,,,,,,0.1506,,,,,,,,,,,,,,,,,,,,,,,,,,,
,,473101,001,B,2023-06-13_18h23.38.172,Unsyncopated1,2022.2.5,Win32,59.94125757,,,,,,,,,,,,,,,,,,,,,,,,,,,y,0,2,2,2,1,Online_conjL1_un//b.ta.be2.none.none.wav,none,none,pu,ro,ri,sil,ki,fa,la,sil1,ze,zu,sil2,,,,,,,,,,0.1362,,,,,,,,,,,,,,,,,,,,,,,,,,,
,,473101,001,B,2023-06-13_18h23.38.172,Unsyncopated1,2022.2.5,Win32,59.94125757,,,,,,,,,,,,,,,,,,,,,,,,,,,y,0,3,3,0,1,Online_conjL1_un//b.ta.be0.none.none.wav,none,none,fa,fo,ze,sil,pu,ri,zu,sil1,ki,ne,sil2,,,,,,,,,,0.166,,,,,,,,,,,,,,,,,,,,,,,,,,,
,,473101,001,B,2023-06-13_18h23.38.172,Unsyncopated1,2022.2.5,Win32,59.94125757,,,,,,,,,,,,,,,,,,,,,,,,,,,,,,,,,,,,,,,,,,,,,,,0,27,27,8,1,ta,be,32:36,blue,,,,,,,,,,,,,,,,,,,,,,,,,,,,
,,473101,001,B,2023-06-13_18h23.38.172,Unsyncopated1,2022.2.5,Win32,59.94125757,,,,,,,,,,,,,,,,,,,,,,,,,,,y,0,0,0,3,1,Online_conjL1_un//a.pu.ki27.none.none.wav,none,none,ta,fa,ro,sil,be,ze,ni,sil1,lu,fo,sil2,,,,,,,,,,0.1313,,,,,,,,,,,,,,,,,,,,,,,,,,,
,,473101,001,B,2023-06-13_18h23.38.172,Unsyncopated1,2022.2.5,Win32,59.94125757,,,,,,,,,,,,,,,,,,,,,,,,,,,y,0,1,1,0,1,Online_conjL1_un//a.pu.ki24.none.none.wav,none,none,ta,lu,ri,sil,be,la,zu,sil1,fa,ze,sil2,,,,,,,,,,0.1668,,,,,,,,,,,,,,,,,,,,,,,,,,,
,,473101,001,B,2023-06-13_18h23.38.172,Unsyncopated1,2022.2.5,Win32,59.94125757,,,,,,,,,,,,,,,,,,,,,,,,,,,y,0,2,2,2,1,Online_conjL1_un//a.pu.ki26.888.1776.wav,1776,888,zu,ze,cho,sil,pu,ni,ne,sil1,ki,fo,sil2,,,,,,,,,,0.1345,,,,,,,,,,,,,,,,,,,,,,,,,,,
,,473101,001,B,2023-06-13_18h23.38.172,Unsyncopated1,2022.2.5,Win32,59.94125757,,,,,,,,,,,,,,,,,,,,,,,,,,,y,0,3,3,1,1,Online_conjL1_un//a.pu.ki25.none.none.wav,none,none,ta,lu,la,sil,be,cho,ro,sil1,ni,zu,sil2,,,,,,,,,,0.1675,,,,,,,,,,,,,,,,,,,,,,,,,,,
,,473101,001,B,2023-06-13_18h23.38.172,Unsyncopated1,2022.2.5,Win32,59.94125757,,,,,,,,,,,,,,,,,,,,,,,,,,,,,,,,,,,,,,,,,,,,,,,0,28,28,21,1,ki,pu,24:28,red,,,,,,,,,,,,,,,,,,,,,,,,,,,,
,,473101,001,B,2023-06-13_18h23.38.172,Unsyncopated1,2022.2.5,Win32,59.94125757,,,,,,,,,,,,,,,,,,,,,,,,,,,y,0,0,0,1,1,Online_conjL1_un//a.pu.ki17.888.1776.wav,1776,888,ne,ro,ze,sil,pu,fo,lu,sil1,ki,zu,sil2,,,,,,,,,,0.1481,,,,,,,,,,,,,,,,,,,,,,,,,,,
,,473101,001,B,2023-06-13_18h23.38.172,Unsyncopated1,2022.2.5,Win32,59.94125757,,,,,,,,,,,,,,,,,,,,,,,,,,,y,0,1,1,3,1,Online_conjL1_un//a.pu.ki19.none.none.wav,none,none,ze,fo,cho,sil,ta,fa,lu,sil1,be,ne,sil2,,,,,,,,,,0.1678,,,,,,,,,,,,,,,,,,,,,,,,,,,
,,473101,001,B,2023-06-13_18h23.38.172,Unsyncopated1,2022.2.5,Win32,59.94125757,,,,,,,,,,,,,,,,,,,,,,,,,,,y,0,2,2,0,1,Online_conjL1_un//a.pu.ki16.none.none.wav,none,none,ze,zu,ni,sil,ta,lu,ne,sil1,be,ri,sil2,,,,,,,,,,0.1687,,,,,,,,,,,,,,,,,,,,,,,,,,,
,,473101,001,B,2023-06-13_18h23.38.172,Unsyncopated1,2022.2.5,Win32,59.94125757,,,,,,,,,,,,,,,,,,,,,,,,,,,y,0,3,3,2,1,Online_conjL1_un//a.pu.ki18.none.none.wav,none,none,zu,ro,ze,sil,ta,fa,cho,sil1,be,ne,sil2,,,,,,,,,,0.1839,,,,,,,,,,,,,,,,,,,,,,,,,,,
,,473101,001,B,2023-06-13_18h23.38.172,Unsyncopated1,2022.2.5,Win32,59.94125757,,,,,,,,,,,,,,,,,,,,,,,,,,,,,,,,,,,,,,,,,,,,,,,0,29,29,4,1,ki,pu,16:20,red,,,,,,,,,,,,,,,,,,,,,,,,,,,,
,,473101,001,B,2023-06-13_18h23.38.172,Unsyncopated1,2022.2.5,Win32,59.94125757,,,,,,,,,,,,,,,,,,,,,,,,,,,y,0,0,0,0,1,Online_conjL1_un//d.ne.ni20.1110.1332.wav,1110,1332,pu,ro,fa,sil,ki,ne,ni,sil1,cho,fo,sil2,,,,,,,,,,0.1553,,,,,,,,,,,,,,,,,,,,,,,,,,,
,,473101,001,B,2023-06-13_18h23.38.172,Unsyncopated1,2022.2.5,Win32,59.94125757,,,,,,,,,,,,,,,,,,,,,,,,,,,y,0,1,1,1,1,Online_conjL1_un//d.ne.ni21.none.none.wav,none,none,lu,ro,ze,sil,ta,fo,cho,sil1,be,zu,sil2,,,,,,,,,,0.1513,,,,,,,,,,,,,,,,,,,,,,,,,,,
,,473101,001,B,2023-06-13_18h23.38.172,Unsyncopated1,2022.2.5,Win32,59.94125757,,,,,,,,,,,,,,,,,,,,,,,,,,,y,0,2,2,3,1,Online_conjL1_un//d.ne.ni23.1110.222.wav,1110,222,pu,ni,ro,sil,ki,ne,lu,sil1,zu,fa,sil2,,,,,,,,,,0.2017,,,,,,,,,,,,,,,,,,,,,,,,,,,
,,473101,001,B,2023-06-13_18h23.38.172,Unsyncopated1,2022.2.5,Win32,59.94125757,,,,,,,,,,,,,,,,,,,,,,,,,,,y,0,3,3,2,1,Online_conjL1_un//d.ne.ni22.none.none.wav,none,none,pu,cho,la,sil,ki,ro,ze,sil1,ri,lu,sil2,,,,,,,,,,0.1679,,,,,,,,,,,,,,,,,,,,,,,,,,,
,,473101,001,B,2023-06-13_18h23.38.172,Unsyncopated1,2022.2.5,Win32,59.94125757,,,,,,,,,,,,,,,,,,,,,,,,,,,,,,,,,,,,,,,,,,,,,,,0,30,30,28,1,ne,ni,116:120,orange,,,,,,,,,,,,,,,,,,,,,,,,,,,,
,,473101,001,B,2023-06-13_18h23.38.172,Unsyncopated1,2022.2.5,Win32,59.94125757,,,,,,,,,,,,,,,,,,,,,,,,,,,y,0,0,0,3,1,Online_conjL1_un//d.ne.ni3.none.none.wav,none,none,cho,lu,zu,sil,pu,ro,la,sil1,ki,ri,sil2,,,,,,,,,,0.1958,,,,,,,,,,,,,,,,,,,,,,,,,,,
,,473101,001,B,2023-06-13_18h23.38.172,Unsyncopated1,2022.2.5,Win32,59.94125757,,,,,,,,,,,,,,,,,,,,,,,,,,,y,0,1,1,2,1,Online_conjL1_un//d.ne.ni2.none.none.wav,none,none,pu,ze,fa,sil,ki,ro,cho,sil1,lu,zu,sil2,,,,,,,,,,0.1682,,,,,,,,,,,,,,,,,,,,,,,,,,,
,,473101,001,B,2023-06-13_18h23.38.172,Unsyncopated1,2022.2.5,Win32,59.94125757,,,,,,,,,,,,,,,,,,,,,,,,,,,y,0,2,2,1,1,Online_conjL1_un//d.ne.ni1.222.444.wav,222,444,ro,ne,ni,sil,pu,ze,fo,sil1,ki,cho,sil2,,,,,,,,,,0.201,,,,,,,,,,,,,,,,,,,,,,,,,,,
,,473101,001,B,2023-06-13_18h23.38.172,Unsyncopated1,2022.2.5,Win32,59.94125757,,,,,,,,,,,,,,,,,,,,,,,,,,,y,0,3,3,0,1,Online_conjL1_un//d.ne.ni0.none.none.wav,none,none,ro,lu,fa,sil,pu,fo,ri,sil1,ki,ze,sil2,,,,,,,,,,0.134,,,,,,,,,,,,,,,,,,,,,,,,,,,
,,473101,001,B,2023-06-13_18h23.38.172,Unsyncopated1,2022.2.5,Win32,59.94125757,,,,,,,,,,,,,,,,,,,,,,,,,,,,,,,,,,,,,,,,,,,,,,,0,31,31,11,1,ne,ni,96:100,orange,,,,,,,,,,,,,,,,,,,,,,,,,,,,
,,473101,001,B,2023-06-13_18h23.38.172,Unsyncopated1,2022.2.5,Win32,59.94125757,,,,,,,,,,,,,,,,,,,,,,,,,,,,,,,,,,,,,,,,,,,,,,,,,,,,,,,,,space,0.7488,space,0.5521,y,0.9294,z,0.7544,2,0.1975,0,0,0,2,1,testConjL1Uns//cat_viol.r2.s1.0.wav,,,,,,,,,,,
,,473101,001,B,2023-06-13_18h23.38.172,Unsyncopated1,2022.2.5,Win32,59.94125757,,,,,,,,,,,,,,,,,,,,,,,,,,,,,,,,,,,,,,,,,,,,,,,,,,,,,,,,,,,,,y,0.268,z,0.1351,2,0.135,0,1,1,13,1,testConjL1Uns//r1.s2.2.wav,,,,,,,,,,,
,,473101,001,B,2023-06-13_18h23.38.172,Unsyncopated1,2022.2.5,Win32,59.94125757,,,,,,,,,,,,,,,,,,,,,,,,,,,,,,,,,,,,,,,,,,,,,,,,,,,,,,,,,,,,,y,0.1348,z,0.1021,2,0.1001,0,2,2,17,1,testConjL1Uns//r2.s2.0.wav,,,,,,,,,,,
,,473101,001,B,2023-06-13_18h23.38.172,Unsyncopated1,2022.2.5,Win32,59.94125757,,,,,,,,,,,,,,,,,,,,,,,,,,,,,,,,,,,,,,,,,,,,,,,,,,,,,,,,,,,,,y,0.1183,z,0.117,2,0.0849,0,3,3,18,1,testConjL1Uns//r2.s2.1.wav,,,,,,,,,,,
,,473101,001,B,2023-06-13_18h23.38.172,Unsyncopated1,2022.2.5,Win32,59.94125757,,,,,,,,,,,,,,,,,,,,,,,,,,,,,,,,,,,,,,,,,,,,,,,,,,,,,,,,,,,,,y,0.1177,z,0.1347,2,0.0834,0,4,4,15,1,testConjL1Uns//r2.s1.1.wav,,,,,,,,,,,
,,473101,001,B,2023-06-13_18h23.38.172,Unsyncopated1,2022.2.5,Win32,59.94125757,,,,,,,,,,,,,,,,,,,,,,,,,,,,,,,,,,,,,,,,,,,,,,,,,,,,,,,,,,,,,y,0.1013,z,0.1511,2,0.0343,0,5,5,10,1,testConjL1Uns//r1.s1.2.wav,,,,,,,,,,,
,,473101,001,B,2023-06-13_18h23.38.172,Unsyncopated1,2022.2.5,Win32,59.94125757,,,,,,,,,,,,,,,,,,,,,,,,,,,,,,,,,,,,,,,,,,,,,,,,,,,,,,,,,,,,,y,0.1553,z,0.1339,2,0.1318,0,6,6,14,1,testConjL1Uns//r2.s1.0.wav,,,,,,,,,,,
,,473101,001,B,2023-06-13_18h23.38.172,Unsyncopated1,2022.2.5,Win32,59.94125757,,,,,,,,,,,,,,,,,,,,,,,,,,,,,,,,,,,,,,,,,,,,,,,,,,,,,,,,,,,,,y,0.118,z,0.1348,2,0.0839,0,7,7,8,1,testConjL1Uns//r1.s1.0.wav,,,,,,,,,,,
,,473101,001,B,2023-06-13_18h23.38.172,Unsyncopated1,2022.2.5,Win32,59.94125757,,,,,,,,,,,,,,,,,,,,,,,,,,,,,,,,,,,,,,,,,,,,,,,,,,,,,,,,,,,,,y,0.1347,z,0.1178,2,0.0844,0,8,8,3,1,testConjL1Uns//cat_viol.r2.s2.0.wav,,,,,,,,,,,
,,473101,001,B,2023-06-13_18h23.38.172,Unsyncopated1,2022.2.5,Win32,59.94125757,,,,,,,,,,,,,,,,,,,,,,,,,,,,,,,,,,,,,,,,,,,,,,,,,,,,,,,,,,,,,y,0.17,z,0.0854,2,0.1152,0,9,9,22,1,testConjL1Uns//time_viol.r2.s1.0.wav,,,,,,,,,,,
,,473101,001,B,2023-06-13_18h23.38.172,Unsyncopated1,2022.2.5,Win32,59.94125757,,,,,,,,,,,,,,,,,,,,,,,,,,,,,,,,,,,,,,,,,,,,,,,,,,,,,,,,,,,,,y,0.1519,z,0.0854,2,0.1015,0,10,10,11,1,testConjL1Uns//r1.s2.0.wav,,,,,,,,,,,
,,473101,001,B,2023-06-13_18h23.38.172,Unsyncopated1,2022.2.5,Win32,59.94125757,,,,,,,,,,,,,,,,,,,,,,,,,,,,,,,,,,,,,,,,,,,,,,,,,,,,,,,,,,,,,y,0.1351,z,0.1183,2,0.0664,0,11,11,23,1,testConjL1Uns//time_viol.r2.s2.0.wav,,,,,,,,,,,
,,473101,001,B,2023-06-13_18h23.38.172,Unsyncopated1,2022.2.5,Win32,59.94125757,,,,,,,,,,,,,,,,,,,,,,,,,,,,,,,,,,,,,,,,,,,,,,,,,,,,,,,,,,,,,y,0.1681,z,0.086,2,0.1172,0,12,12,1,1,testConjL1Uns//cat_viol.r1.s2.0.wav,,,,,,,,,,,
,,473101,001,B,2023-06-13_18h23.38.172,Unsyncopated1,2022.2.5,Win32,59.94125757,,,,,,,,,,,,,,,,,,,,,,,,,,,,,,,,,,,,,,,,,,,,,,,,,,,,,,,,,,,,,y,0.1338,z,0.1022,2,0.0843,0,13,13,20,1,testConjL1Uns//time_viol.r1.s1.0.wav,,,,,,,,,,,
,,473101,001,B,2023-06-13_18h23.38.172,Unsyncopated1,2022.2.5,Win32,59.94125757,,,,,,,,,,,,,,,,,,,,,,,,,,,,,,,,,,,,,,,,,,,,,,,,,,,,,,,,,,,,,y,0.1508,z,0.1179,2,0.0673,0,14,14,7,1,testConjL1Uns//dep_viol.r2.s2.0.wav,,,,,,,,,,,
,,473101,001,B,2023-06-13_18h23.38.172,Unsyncopated1,2022.2.5,Win32,59.94125757,,,,,,,,,,,,,,,,,,,,,,,,,,,,,,,,,,,,,,,,,,,,,,,,,,,,,,,,,,,,,y,0.1516,z,0.1187,2,0.036,0,15,15,4,1,testConjL1Uns//dep_viol.r1.s1.0.wav,,,,,,,,,,,
,,473101,001,B,2023-06-13_18h23.38.172,Unsyncopated1,2022.2.5,Win32,59.94125757,,,,,,,,,,,,,,,,,,,,,,,,,,,,,,,,,,,,,,,,,,,,,,,,,,,,,,,,,,,,,y,0.1971,z,0.1009,2,0.1185,0,16,16,0,1,testConjL1Uns//cat_viol.r1.s1.0.wav,,,,,,,,,,,
,,473101,001,B,2023-06-13_18h23.38.172,Unsyncopated1,2022.2.5,Win32,59.94125757,,,,,,,,,,,,,,,,,,,,,,,,,,,,,,,,,,,,,,,,,,,,,,,,,,,,,,,,,,,,,y,0.1021,z,0.1328,2,0.085,0,17,17,12,1,testConjL1Uns//r1.s2.1.wav,,,,,,,,,,,
,,473101,001,B,2023-06-13_18h23.38.172,Unsyncopated1,2022.2.5,Win32,59.94125757,,,,,,,,,,,,,,,,,,,,,,,,,,,,,,,,,,,,,,,,,,,,,,,,,,,,,,,,,,,,,y,0.1348,z,0.1204,2,0.0498,0,18,18,5,1,testConjL1Uns//dep_viol.r1.s2.0.wav,,,,,,,,,,,
,,473101,001,B,2023-06-13_18h23.38.172,Unsyncopated1,2022.2.5,Win32,59.94125757,,,,,,,,,,,,,,,,,,,,,,,,,,,,,,,,,,,,,,,,,,,,,,,,,,,,,,,,,,,,,y,0.1681,z,0.1176,2,0.0358,0,19,19,21,1,testConjL1Uns//time_viol.r1.s2.0.wav,,,,,,,,,,,
,,473101,001,B,2023-06-13_18h23.38.172,Unsyncopated1,2022.2.5,Win32,59.94125757,,,,,,,,,,,,,,,,,,,,,,,,,,,,,,,,,,,,,,,,,,,,,,,,,,,,,,,,,,,,,y,0.1502,z,0.1525,2,0.0514,0,20,20,16,1,testConjL1Uns//r2.s1.2.wav,,,,,,,,,,,
,,473101,001,B,2023-06-13_18h23.38.172,Unsyncopated1,2022.2.5,Win32,59.94125757,,,,,,,,,,,,,,,,,,,,,,,,,,,,,,,,,,,,,,,,,,,,,,,,,,,,,,,,,,,,,y,0.1299,z,0.1302,2,0.0845,0,21,21,9,1,testConjL1Uns//r1.s1.1.wav,,,,,,,,,,,
,,473101,001,B,2023-06-13_18h23.38.172,Unsyncopated1,2022.2.5,Win32,59.94125757,,,,,,,,,,,,,,,,,,,,,,,,,,,,,,,,,,,,,,,,,,,,,,,,,,,,,,,,,,,,,y,0.1214,z,0.1003,2,0.1161,0,22,22,6,1,testConjL1Uns//dep_viol.r2.s1.0.wav,,,,,,,,,,,
,,473101,001,B,2023-06-13_18h23.38.172,Unsyncopated1,2022.2.5,Win32,59.94125757,,,,,,,,,,,,,,,,,,,,,,,,,,,,,,,,,,,,,,,,,,,,,,,,,,,,,,,,,,,,,y,0.1002,z,0.1189,2,0.1161,0,23,23,19,1,testConjL1Uns//r2.s2.2.wav,,,,,,,,,,,
,,473101,001,B,2023-06-13_18h23.38.172,Unsyncopated1,2022.2.5,Win32,59.94125757,,,,,,,,,,,,,,,,,,,,,,,,,,,,,,,,,,,,,,,,,,,,,,,,,,,,,,,,,,,,,,,,,,,,,,,,,space,0.629,0,0,0,0,1,ConjL1_uns.csv,dir_Online_conjL1_un.csv,Test_Conj_UnsyncL1.csv,ConjL1_unsync.wav
