key_resp1.keys,key_resp1.rt,participant,session,date,expName,psychopyVersion,OS,frameRate,key_resp_6.keys,key_resp_6.rt,key_resp_10.keys,key_resp_10.rt,key_ressp2.keys,key_ressp2.rt,key_resp_9.keys,key_resp_9.rt,key_resp_3.keys,key_resp_3.rt,key_resp1_2.keys,key_resp1_2.rt,key_resp1_3.keys,key_resp1_3.rt,key_resp_11.keys,key_resp_11.rt,key_resp_12.keys,key_resp_12.rt,key_resp_18.keys,key_resp_18.rt,key_resp_7.keys,key_resp_7.rt,key_resp1_4.keys,key_resp1_4.rt,syllable_catch.keys,syllable_catch.rt,audio1.thisRepN,audio1.thisTrialN,audio1.thisN,audio1.thisIndex,audio1.ran,dirs,time,Conj_unsync_online.thisRepN,Conj_unsync_online.thisTrialN,Conj_unsync_online.thisN,Conj_unsync_online.thisIndex,Conj_unsync_online.ran,cond,ord,colour,key_resp4.keys,key_resp4.rt,key_resp_4.keys,key_resp_4.rt,Partz_no_partm.keys,Partz_no_partm.rt,security_1_7.keys,security_1_7.rt,Conj_unsync_test.thisRepN,Conj_unsync_test.thisTrialN,Conj_unsync_test.thisN,Conj_unsync_test.thisIndex,Conj_unsync_test.ran,test,key_resp_13.keys,key_resp_13.rt,trials.thisRepN,trials.thisTrialN,trials.thisN,trials.thisIndex,trials.ran,seq,online_dir,test_dir,audio_offline,dirs_what,key_resp6.keys,key_resp6.rt,textbox.text,mouse.x,mouse.y,mouse.leftButton,mouse.midButton,mouse.rightButton,mouse.time,mouse.clicked_name
space,5.5557,546865,001,2023-06-06_13h49.48.792,Unsyncopated1,2022.2.5,Win32,59.73715651,,,,,,,,,,,,,,,,,,,,,,,,,,,,,,,,,,,,,,,,,,,,,,,,,,,,,,,,,,,,,,,,,,,,,,,,,,,,,
,,546865,001,2023-06-06_13h49.48.792,Unsyncopated1,2022.2.5,Win32,59.73715651,space,11.5243,,,,,,,,,,,,,,,,,,,,,,,,,,,,,,,,,,,,,,,,,,,,,,,,,,,,,,,,,,,,,,,,,,,,,,,,,,,
,,546865,001,2023-06-06_13h49.48.792,Unsyncopated1,2022.2.5,Win32,59.73715651,,,space,15.521,,,,,,,,,,,,,,,,,,,,,,,,,,,,,,,,,,,,,,,,,,,,,,,,,,,,,,,,,,,,,,,,,,,,,,,,,
,,546865,001,2023-06-06_13h49.48.792,Unsyncopated1,2022.2.5,Win32,59.73715651,,,,,space,2.9897,,,,,,,,,,,,,,,,,,,,,,,,,,,,,,,,,,,,,,,,,,,,,,,,,,,,,,,,,,,,,,,,,,,,,,,
,,546865,001,2023-06-06_13h49.48.792,Unsyncopated1,2022.2.5,Win32,59.73715651,,,,,,,space,4.0918,,,,,,,,,,,,,,,,,,,,,,,,,,,,,,,,,,,,,,,,,,,,,,,,,,,,,,,,,,,,,,,,,,,,,
,,546865,001,2023-06-06_13h49.48.792,Unsyncopated1,2022.2.5,Win32,59.73715651,,,,,,,,,space,6.5675,,,,,,,,,,,,,,,,,,,,,,,,,,,,,,,,,,,,,,,,,,,,,,,,,,,,,,,,,,,,,,,,,,,
,,546865,001,2023-06-06_13h49.48.792,Unsyncopated1,2022.2.5,Win32,59.73715651,,,,,,,,,,,space,13.0929,,,,,,,,,,,,,,,,,,,,,,,,,,,,,,,,,,,,,,,,,,,,,,,,,,,,,,,,,,,,,,,,,
,,546865,001,2023-06-06_13h49.48.792,Unsyncopated1,2022.2.5,Win32,59.73715651,,,,,,,,,,,,,space,22.6738,,,,,,,,,,,,,,,,,,,,,,,,,,,,,,,,,,,,,,,,,,,,,,,,,,,,,,,,,,,,,,,
,,546865,001,2023-06-06_13h49.48.792,Unsyncopated1,2022.2.5,Win32,59.73715651,,,,,,,,,,,,,,,space,6.0273,,,,,,,,,,,,,,,,,,,,,,,,,,,,,,,,,,,,,,,,,,,,,,,,,,,,,,,,,,,,,
,,546865,001,2023-06-06_13h49.48.792,Unsyncopated1,2022.2.5,Win32,59.73715651,,,,,,,,,,,,,,,,,space,1.7328,,,,,,,,,,,,,,,,,,,,,,,,,,,,,,,,,,,,,,,,,,,,,,,,,,,,,,,,,,,
,,546865,001,2023-06-06_13h49.48.792,Unsyncopated1,2022.2.5,Win32,59.73715651,,,,,,,,,,,,,,,,,,,space,10.4914,space,2.4894,space,8.5021,space,1.4411,0,0,0,0,1,Online_whenL3//cGA8.888.wav,888,,,,,,,,,,,,,,,,,,,,,,,,,,,,,,,,,,,,,,,,,,,,
,,546865,001,2023-06-06_13h49.48.792,Unsyncopated1,2022.2.5,Win32,59.73715651,,,,,,,,,,,,,,,,,,,,,,,,,,,0,1,1,1,1,Online_whenL3//cGA9.none.wav,none,,,,,,,,,,,,,,,,,,,,,,,,,,,,,,,,,,,,,,,,,,,,
,,546865,001,2023-06-06_13h49.48.792,Unsyncopated1,2022.2.5,Win32,59.73715651,,,,,,,,,,,,,,,,,,,,,,,,,,,0,2,2,2,1,Online_whenL3//cGA10.none.wav,none,,,,,,,,,,,,,,,,,,,,,,,,,,,,,,,,,,,,,,,,,,,,
,,546865,001,2023-06-06_13h49.48.792,Unsyncopated1,2022.2.5,Win32,59.73715651,,,,,,,,,,,,,,,,,,,,,,,,,,,0,3,3,3,1,Online_whenL3//cGA11.none.wav,none,,,,,,,,,,,,,,,,,,,,,,,,,,,,,,,,,,,,,,,,,,,,
,,546865,001,2023-06-06_13h49.48.792,Unsyncopated1,2022.2.5,Win32,59.73715651,,,,,,,,,,,,,,,,,,,,,,,,,,,,,,,,,,0,0,0,21,1,ga,80:84,red,,,,,,,,,,,,,,,,,,,,,,,,,,,,,,,,,,,,
,,546865,001,2023-06-06_13h49.48.792,Unsyncopated1,2022.2.5,Win32,59.73715651,,,,,,,,,,,,,,,,,,,,,,,,,space,2.3684,0,0,0,2,1,Online_whenL3//bÑE34.1776.wav,1776,,,,,,,,,,,,,,,,,,,,,,,,,,,,,,,,,,,,,,,,,,,,
,,546865,001,2023-06-06_13h49.48.792,Unsyncopated1,2022.2.5,Win32,59.73715651,,,,,,,,,,,,,,,,,,,,,,,,,space,1.3693,0,1,1,3,1,Online_whenL3//bÑE35.888.wav,888,,,,,,,,,,,,,,,,,,,,,,,,,,,,,,,,,,,,,,,,,,,,
,,546865,001,2023-06-06_13h49.48.792,Unsyncopated1,2022.2.5,Win32,59.73715651,,,,,,,,,,,,,,,,,,,,,,,,,,,0,2,2,0,1,Online_whenL3//bÑE32.1110.wav,1110,,,,,,,,,,,,,,,,,,,,,,,,,,,,,,,,,,,,,,,,,,,,
,,546865,001,2023-06-06_13h49.48.792,Unsyncopated1,2022.2.5,Win32,59.73715651,,,,,,,,,,,,,,,,,,,,,,,,,,,0,3,3,1,1,Online_whenL3//bÑE33.none.wav,none,,,,,,,,,,,,,,,,,,,,,,,,,,,,,,,,,,,,,,,,,,,,
,,546865,001,2023-06-06_13h49.48.792,Unsyncopated1,2022.2.5,Win32,59.73715651,,,,,,,,,,,,,,,,,,,,,,,,,,,,,,,,,,0,1,1,30,1,ñe,68:72,orange,,,,,,,,,,,,,,,,,,,,,,,,,,,,,,,,,,,,
,,546865,001,2023-06-06_13h49.48.792,Unsyncopated1,2022.2.5,Win32,59.73715651,,,,,,,,,,,,,,,,,,,,,,,,,,,0,0,0,1,1,Online_whenL3//dJI29.none.wav,none,,,,,,,,,,,,,,,,,,,,,,,,,,,,,,,,,,,,,,,,,,,,
,,546865,001,2023-06-06_13h49.48.792,Unsyncopated1,2022.2.5,Win32,59.73715651,,,,,,,,,,,,,,,,,,,,,,,,,space,2.5546,0,1,1,2,1,Online_whenL3//dJI30.1998.wav,1998,,,,,,,,,,,,,,,,,,,,,,,,,,,,,,,,,,,,,,,,,,,,
,,546865,001,2023-06-06_13h49.48.792,Unsyncopated1,2022.2.5,Win32,59.73715651,,,,,,,,,,,,,,,,,,,,,,,,,,,0,2,2,3,1,Online_whenL3//dJI31.none.wav,none,,,,,,,,,,,,,,,,,,,,,,,,,,,,,,,,,,,,,,,,,,,,
,,546865,001,2023-06-06_13h49.48.792,Unsyncopated1,2022.2.5,Win32,59.73715651,,,,,,,,,,,,,,,,,,,,,,,,,,,0,3,3,0,1,Online_whenL3//dJI28.444.wav,444,,,,,,,,,,,,,,,,,,,,,,,,,,,,,,,,,,,,,,,,,,,,
,,546865,001,2023-06-06_13h49.48.792,Unsyncopated1,2022.2.5,Win32,59.73715651,,,,,,,,,,,,,,,,,,,,,,,,,,,,,,,,,,0,2,2,24,1,ji,132:136,blue,,,,,,,,,,,,,,,,,,,,,,,,,,,,,,,,,,,,
,,546865,001,2023-06-06_13h49.48.792,Unsyncopated1,2022.2.5,Win32,59.73715651,,,,,,,,,,,,,,,,,,,,,,,,,,,0,0,0,2,1,Online_whenL3//dJI6.1332.wav,1332,,,,,,,,,,,,,,,,,,,,,,,,,,,,,,,,,,,,,,,,,,,,
,,546865,001,2023-06-06_13h49.48.792,Unsyncopated1,2022.2.5,Win32,59.73715651,,,,,,,,,,,,,,,,,,,,,,,,,,,0,1,1,1,1,Online_whenL3//dJI5.none.wav,none,,,,,,,,,,,,,,,,,,,,,,,,,,,,,,,,,,,,,,,,,,,,
,,546865,001,2023-06-06_13h49.48.792,Unsyncopated1,2022.2.5,Win32,59.73715651,,,,,,,,,,,,,,,,,,,,,,,,,,,0,2,2,3,1,Online_whenL3//dJI7.none.wav,none,,,,,,,,,,,,,,,,,,,,,,,,,,,,,,,,,,,,,,,,,,,,
,,546865,001,2023-06-06_13h49.48.792,Unsyncopated1,2022.2.5,Win32,59.73715651,,,,,,,,,,,,,,,,,,,,,,,,,space,0.4963,0,3,3,0,1,Online_whenL3//dJI4.0.wav,0,,,,,,,,,,,,,,,,,,,,,,,,,,,,,,,,,,,,,,,,,,,,
,,546865,001,2023-06-06_13h49.48.792,Unsyncopated1,2022.2.5,Win32,59.73715651,,,,,,,,,,,,,,,,,,,,,,,,,,,,,,,,,,0,3,3,20,1,ji,108:112,blue,,,,,,,,,,,,,,,,,,,,,,,,,,,,,,,,,,,,
,,546865,001,2023-06-06_13h49.48.792,Unsyncopated1,2022.2.5,Win32,59.73715651,,,,,,,,,,,,,,,,,,,,,,,,,,,0,0,0,1,1,Online_whenL3//aMO21.none.wav,none,,,,,,,,,,,,,,,,,,,,,,,,,,,,,,,,,,,,,,,,,,,,
,,546865,001,2023-06-06_13h49.48.792,Unsyncopated1,2022.2.5,Win32,59.73715651,,,,,,,,,,,,,,,,,,,,,,,,,,,0,1,1,0,1,Online_whenL3//aMO20.none.wav,none,,,,,,,,,,,,,,,,,,,,,,,,,,,,,,,,,,,,,,,,,,,,
,,546865,001,2023-06-06_13h49.48.792,Unsyncopated1,2022.2.5,Win32,59.73715651,,,,,,,,,,,,,,,,,,,,,,,,,space,1.5292,0,2,2,3,1,Online_whenL3//aMO23.1110.wav,1110,,,,,,,,,,,,,,,,,,,,,,,,,,,,,,,,,,,,,,,,,,,,
,,546865,001,2023-06-06_13h49.48.792,Unsyncopated1,2022.2.5,Win32,59.73715651,,,,,,,,,,,,,,,,,,,,,,,,,space,2.6663,0,3,3,2,1,Online_whenL3//aMO22.1998.wav,1998,,,,,,,,,,,,,,,,,,,,,,,,,,,,,,,,,,,,,,,,,,,,
,,546865,001,2023-06-06_13h49.48.792,Unsyncopated1,2022.2.5,Win32,59.73715651,,,,,,,,,,,,,,,,,,,,,,,,,,,,,,,,,,0,4,4,11,1,mo,20:24,green,,,,,,,,,,,,,,,,,,,,,,,,,,,,,,,,,,,,
,,546865,001,2023-06-06_13h49.48.792,Unsyncopated1,2022.2.5,Win32,59.73715651,,,,,,,,,,,,,,,,,,,,,,,,,space,1.3208,0,0,0,3,1,Online_whenL3//dJI15.222.wav,222,,,,,,,,,,,,,,,,,,,,,,,,,,,,,,,,,,,,,,,,,,,,
,,546865,001,2023-06-06_13h49.48.792,Unsyncopated1,2022.2.5,Win32,59.73715651,,,,,,,,,,,,,,,,,,,,,,,,,space,1.3111,0,1,1,1,1,Online_whenL3//dJI13.888.wav,888,,,,,,,,,,,,,,,,,,,,,,,,,,,,,,,,,,,,,,,,,,,,
,,546865,001,2023-06-06_13h49.48.792,Unsyncopated1,2022.2.5,Win32,59.73715651,,,,,,,,,,,,,,,,,,,,,,,,,,,0,2,2,2,1,Online_whenL3//dJI14.none.wav,none,,,,,,,,,,,,,,,,,,,,,,,,,,,,,,,,,,,,,,,,,,,,
,,546865,001,2023-06-06_13h49.48.792,Unsyncopated1,2022.2.5,Win32,59.73715651,,,,,,,,,,,,,,,,,,,,,,,,,,,0,3,3,0,1,Online_whenL3//dJI12.none.wav,none,,,,,,,,,,,,,,,,,,,,,,,,,,,,,,,,,,,,,,,,,,,,
,,546865,001,2023-06-06_13h49.48.792,Unsyncopated1,2022.2.5,Win32,59.73715651,,,,,,,,,,,,,,,,,,,,,,,,,,,,,,,,,,0,5,5,0,1,ji,116:120,blue,,,,,,,,,,,,,,,,,,,,,,,,,,,,,,,,,,,,
,,546865,001,2023-06-06_13h49.48.792,Unsyncopated1,2022.2.5,Win32,59.73715651,,,,,,,,,,,,,,,,,,,,,,,,,,,0,0,0,3,1,Online_whenL3//bÑE23.none.wav,none,,,,,,,,,,,,,,,,,,,,,,,,,,,,,,,,,,,,,,,,,,,,
,,546865,001,2023-06-06_13h49.48.792,Unsyncopated1,2022.2.5,Win32,59.73715651,,,,,,,,,,,,,,,,,,,,,,,,,,,0,1,1,0,1,Online_whenL3//bÑE20.1332.wav,1332,,,,,,,,,,,,,,,,,,,,,,,,,,,,,,,,,,,,,,,,,,,,
,,546865,001,2023-06-06_13h49.48.792,Unsyncopated1,2022.2.5,Win32,59.73715651,,,,,,,,,,,,,,,,,,,,,,,,,,,0,2,2,1,1,Online_whenL3//bÑE21.none.wav,none,,,,,,,,,,,,,,,,,,,,,,,,,,,,,,,,,,,,,,,,,,,,
,,546865,001,2023-06-06_13h49.48.792,Unsyncopated1,2022.2.5,Win32,59.73715651,,,,,,,,,,,,,,,,,,,,,,,,,space,2.4904,0,3,3,2,1,Online_whenL3//bÑE22.1332.wav,1332,,,,,,,,,,,,,,,,,,,,,,,,,,,,,,,,,,,,,,,,,,,,
,,546865,001,2023-06-06_13h49.48.792,Unsyncopated1,2022.2.5,Win32,59.73715651,,,,,,,,,,,,,,,,,,,,,,,,,,,,,,,,,,0,6,6,33,1,ñe,56:60,orange,,,,,,,,,,,,,,,,,,,,,,,,,,,,,,,,,,,,
,,546865,001,2023-06-06_13h49.48.792,Unsyncopated1,2022.2.5,Win32,59.73715651,,,,,,,,,,,,,,,,,,,,,,,,,,,0,0,0,1,1,Online_whenL3//bÑE17.none.wav,none,,,,,,,,,,,,,,,,,,,,,,,,,,,,,,,,,,,,,,,,,,,,
,,546865,001,2023-06-06_13h49.48.792,Unsyncopated1,2022.2.5,Win32,59.73715651,,,,,,,,,,,,,,,,,,,,,,,,,,,0,1,1,3,1,Online_whenL3//bÑE19.none.wav,none,,,,,,,,,,,,,,,,,,,,,,,,,,,,,,,,,,,,,,,,,,,,
,,546865,001,2023-06-06_13h49.48.792,Unsyncopated1,2022.2.5,Win32,59.73715651,,,,,,,,,,,,,,,,,,,,,,,,,,,0,2,2,0,1,Online_whenL3//bÑE16.none.wav,none,,,,,,,,,,,,,,,,,,,,,,,,,,,,,,,,,,,,,,,,,,,,
,,546865,001,2023-06-06_13h49.48.792,Unsyncopated1,2022.2.5,Win32,59.73715651,,,,,,,,,,,,,,,,,,,,,,,,,space,1.5352,0,3,3,2,1,Online_whenL3//bÑE18.888.wav,888,,,,,,,,,,,,,,,,,,,,,,,,,,,,,,,,,,,,,,,,,,,,
,,546865,001,2023-06-06_13h49.48.792,Unsyncopated1,2022.2.5,Win32,59.73715651,,,,,,,,,,,,,,,,,,,,,,,,,,,,,,,,,,0,7,7,19,1,ñe,52:56,orange,,,,,,,,,,,,,,,,,,,,,,,,,,,,,,,,,,,,
,,546865,001,2023-06-06_13h49.48.792,Unsyncopated1,2022.2.5,Win32,59.73715651,,,,,,,,,,,,,,,,,,,,,,,,,space,1.6737,0,0,0,1,1,Online_whenL3//cGA5.none.wav,none,,,,,,,,,,,,,,,,,,,,,,,,,,,,,,,,,,,,,,,,,,,,
,,546865,001,2023-06-06_13h49.48.792,Unsyncopated1,2022.2.5,Win32,59.73715651,,,,,,,,,,,,,,,,,,,,,,,,,,,0,1,1,0,1,Online_whenL3//cGA4.none.wav,none,,,,,,,,,,,,,,,,,,,,,,,,,,,,,,,,,,,,,,,,,,,,
,,546865,001,2023-06-06_13h49.48.792,Unsyncopated1,2022.2.5,Win32,59.73715651,,,,,,,,,,,,,,,,,,,,,,,,,space,0.9595,0,2,2,2,1,Online_whenL3//cGA6.444.wav,444,,,,,,,,,,,,,,,,,,,,,,,,,,,,,,,,,,,,,,,,,,,,
,,546865,001,2023-06-06_13h49.48.792,Unsyncopated1,2022.2.5,Win32,59.73715651,,,,,,,,,,,,,,,,,,,,,,,,,space,0.8369,0,3,3,3,1,Online_whenL3//cGA7.0.wav,0,,,,,,,,,,,,,,,,,,,,,,,,,,,,,,,,,,,,,,,,,,,,
,,546865,001,2023-06-06_13h49.48.792,Unsyncopated1,2022.2.5,Win32,59.73715651,,,,,,,,,,,,,,,,,,,,,,,,,,,,,,,,,,0,8,8,23,1,ga,76:80,red,,,,,,,,,,,,,,,,,,,,,,,,,,,,,,,,,,,,
,,546865,001,2023-06-06_13h49.48.792,Unsyncopated1,2022.2.5,Win32,59.73715651,,,,,,,,,,,,,,,,,,,,,,,,,,,0,0,0,0,1,Online_whenL3//aMO8.none.wav,none,,,,,,,,,,,,,,,,,,,,,,,,,,,,,,,,,,,,,,,,,,,,
,,546865,001,2023-06-06_13h49.48.792,Unsyncopated1,2022.2.5,Win32,59.73715651,,,,,,,,,,,,,,,,,,,,,,,,,space,1.6353,0,1,1,1,1,Online_whenL3//aMO9.1110.wav,1110,,,,,,,,,,,,,,,,,,,,,,,,,,,,,,,,,,,,,,,,,,,,
,,546865,001,2023-06-06_13h49.48.792,Unsyncopated1,2022.2.5,Win32,59.73715651,,,,,,,,,,,,,,,,,,,,,,,,,,,0,2,2,3,1,Online_whenL3//aMO11.222.wav,222,,,,,,,,,,,,,,,,,,,,,,,,,,,,,,,,,,,,,,,,,,,,
,,546865,001,2023-06-06_13h49.48.792,Unsyncopated1,2022.2.5,Win32,59.73715651,,,,,,,,,,,,,,,,,,,,,,,,,,,0,3,3,2,1,Online_whenL3//aMO10.none.wav,none,,,,,,,,,,,,,,,,,,,,,,,,,,,,,,,,,,,,,,,,,,,,
,,546865,001,2023-06-06_13h49.48.792,Unsyncopated1,2022.2.5,Win32,59.73715651,,,,,,,,,,,,,,,,,,,,,,,,,,,,,,,,,,0,9,9,4,1,mo,8:12,green,,,,,,,,,,,,,,,,,,,,,,,,,,,,,,,,,,,,
,,546865,001,2023-06-06_13h49.48.792,Unsyncopated1,2022.2.5,Win32,59.73715651,,,,,,,,,,,,,,,,,,,,,,,,,space,0.9603,0,0,0,3,1,Online_whenL3//bÑE7.444.wav,444,,,,,,,,,,,,,,,,,,,,,,,,,,,,,,,,,,,,,,,,,,,,
,,546865,001,2023-06-06_13h49.48.792,Unsyncopated1,2022.2.5,Win32,59.73715651,,,,,,,,,,,,,,,,,,,,,,,,,,,0,1,1,2,1,Online_whenL3//bÑE6.0.wav,0,,,,,,,,,,,,,,,,,,,,,,,,,,,,,,,,,,,,,,,,,,,,
,,546865,001,2023-06-06_13h49.48.792,Unsyncopated1,2022.2.5,Win32,59.73715651,,,,,,,,,,,,,,,,,,,,,,,,,,,0,2,2,0,1,Online_whenL3//bÑE4.none.wav,none,,,,,,,,,,,,,,,,,,,,,,,,,,,,,,,,,,,,,,,,,,,,
,,546865,001,2023-06-06_13h49.48.792,Unsyncopated1,2022.2.5,Win32,59.73715651,,,,,,,,,,,,,,,,,,,,,,,,,space,1.9352,0,3,3,1,1,Online_whenL3//bÑE5.1332.wav,1332,,,,,,,,,,,,,,,,,,,,,,,,,,,,,,,,,,,,,,,,,,,,
,,546865,001,2023-06-06_13h49.48.792,Unsyncopated1,2022.2.5,Win32,59.73715651,,,,,,,,,,,,,,,,,,,,,,,,,,,,,,,,,,0,10,10,28,1,ñe,40:44,orange,,,,,,,,,,,,,,,,,,,,,,,,,,,,,,,,,,,,
,,546865,001,2023-06-06_13h49.48.792,Unsyncopated1,2022.2.5,Win32,59.73715651,,,,,,,,,,,,,,,,,,,,,,,,,space,1.6902,0,0,0,1,1,Online_whenL3//aMO29.1110.wav,1110,,,,,,,,,,,,,,,,,,,,,,,,,,,,,,,,,,,,,,,,,,,,
,,546865,001,2023-06-06_13h49.48.792,Unsyncopated1,2022.2.5,Win32,59.73715651,,,,,,,,,,,,,,,,,,,,,,,,,space,2.6025,0,1,1,2,1,Online_whenL3//aMO30.444.wav,444,,,,,,,,,,,,,,,,,,,,,,,,,,,,,,,,,,,,,,,,,,,,
,,546865,001,2023-06-06_13h49.48.792,Unsyncopated1,2022.2.5,Win32,59.73715651,,,,,,,,,,,,,,,,,,,,,,,,,,,0,2,2,3,1,Online_whenL3//aMO31.1110.wav,1110,,,,,,,,,,,,,,,,,,,,,,,,,,,,,,,,,,,,,,,,,,,,
,,546865,001,2023-06-06_13h49.48.792,Unsyncopated1,2022.2.5,Win32,59.73715651,,,,,,,,,,,,,,,,,,,,,,,,,,,0,3,3,0,1,Online_whenL3//aMO28.none.wav,none,,,,,,,,,,,,,,,,,,,,,,,,,,,,,,,,,,,,,,,,,,,,
,,546865,001,2023-06-06_13h49.48.792,Unsyncopated1,2022.2.5,Win32,59.73715651,,,,,,,,,,,,,,,,,,,,,,,,,,,,,,,,,,0,11,11,17,1,mo,28:32,green,,,,,,,,,,,,,,,,,,,,,,,,,,,,,,,,,,,,
,,546865,001,2023-06-06_13h49.48.792,Unsyncopated1,2022.2.5,Win32,59.73715651,,,,,,,,,,,,,,,,,,,,,,,,,,,0,0,0,3,1,Online_whenL3//cGA15.none.wav,none,,,,,,,,,,,,,,,,,,,,,,,,,,,,,,,,,,,,,,,,,,,,
,,546865,001,2023-06-06_13h49.48.792,Unsyncopated1,2022.2.5,Win32,59.73715651,,,,,,,,,,,,,,,,,,,,,,,,,space,1.7027,0,1,1,1,1,Online_whenL3//cGA13.888.wav,888,,,,,,,,,,,,,,,,,,,,,,,,,,,,,,,,,,,,,,,,,,,,
,,546865,001,2023-06-06_13h49.48.792,Unsyncopated1,2022.2.5,Win32,59.73715651,,,,,,,,,,,,,,,,,,,,,,,,,,,0,2,2,2,1,Online_whenL3//cGA14.none.wav,none,,,,,,,,,,,,,,,,,,,,,,,,,,,,,,,,,,,,,,,,,,,,
,,546865,001,2023-06-06_13h49.48.792,Unsyncopated1,2022.2.5,Win32,59.73715651,,,,,,,,,,,,,,,,,,,,,,,,,space,0.6863,0,3,3,0,1,Online_whenL3//cGA12.1110.wav,1110,,,,,,,,,,,,,,,,,,,,,,,,,,,,,,,,,,,,,,,,,,,,
,,546865,001,2023-06-06_13h49.48.792,Unsyncopated1,2022.2.5,Win32,59.73715651,,,,,,,,,,,,,,,,,,,,,,,,,,,,,,,,,,0,12,12,10,1,ga,84:88,red,,,,,,,,,,,,,,,,,,,,,,,,,,,,,,,,,,,,
,,546865,001,2023-06-06_13h49.48.792,Unsyncopated1,2022.2.5,Win32,59.73715651,,,,,,,,,,,,,,,,,,,,,,,,,space,1.2857,0,0,0,1,1,Online_whenL3//cGA17.888.wav,888,,,,,,,,,,,,,,,,,,,,,,,,,,,,,,,,,,,,,,,,,,,,
,,546865,001,2023-06-06_13h49.48.792,Unsyncopated1,2022.2.5,Win32,59.73715651,,,,,,,,,,,,,,,,,,,,,,,,,space,0.7172,0,1,1,2,1,Online_whenL3//cGA18.222.wav,222,,,,,,,,,,,,,,,,,,,,,,,,,,,,,,,,,,,,,,,,,,,,
,,546865,001,2023-06-06_13h49.48.792,Unsyncopated1,2022.2.5,Win32,59.73715651,,,,,,,,,,,,,,,,,,,,,,,,,,,0,2,2,3,1,Online_whenL3//cGA19.none.wav,none,,,,,,,,,,,,,,,,,,,,,,,,,,,,,,,,,,,,,,,,,,,,
,,546865,001,2023-06-06_13h49.48.792,Unsyncopated1,2022.2.5,Win32,59.73715651,,,,,,,,,,,,,,,,,,,,,,,,,space,0.7141,0,3,3,0,1,Online_whenL3//cGA16.222.wav,222,,,,,,,,,,,,,,,,,,,,,,,,,,,,,,,,,,,,,,,,,,,,
,,546865,001,2023-06-06_13h49.48.792,Unsyncopated1,2022.2.5,Win32,59.73715651,,,,,,,,,,,,,,,,,,,,,,,,,,,,,,,,,,0,13,13,16,1,ga,88:92,red,,,,,,,,,,,,,,,,,,,,,,,,,,,,,,,,,,,,
,,546865,001,2023-06-06_13h49.48.792,Unsyncopated1,2022.2.5,Win32,59.73715651,,,,,,,,,,,,,,,,,,,,,,,,,space,2.4772,0,0,0,3,1,Online_whenL3//bÑE11.1776.wav,1776,,,,,,,,,,,,,,,,,,,,,,,,,,,,,,,,,,,,,,,,,,,,
,,546865,001,2023-06-06_13h49.48.792,Unsyncopated1,2022.2.5,Win32,59.73715651,,,,,,,,,,,,,,,,,,,,,,,,,,,0,1,1,2,1,Online_whenL3//bÑE10.none.wav,none,,,,,,,,,,,,,,,,,,,,,,,,,,,,,,,,,,,,,,,,,,,,
,,546865,001,2023-06-06_13h49.48.792,Unsyncopated1,2022.2.5,Win32,59.73715651,,,,,,,,,,,,,,,,,,,,,,,,,,,0,2,2,1,1,Online_whenL3//bÑE9.none.wav,none,,,,,,,,,,,,,,,,,,,,,,,,,,,,,,,,,,,,,,,,,,,,
,,546865,001,2023-06-06_13h49.48.792,Unsyncopated1,2022.2.5,Win32,59.73715651,,,,,,,,,,,,,,,,,,,,,,,,,space,1.8384,0,3,3,0,1,Online_whenL3//bÑE8.1332.wav,1332,,,,,,,,,,,,,,,,,,,,,,,,,,,,,,,,,,,,,,,,,,,,
,,546865,001,2023-06-06_13h49.48.792,Unsyncopated1,2022.2.5,Win32,59.73715651,,,,,,,,,,,,,,,,,,,,,,,,,,,,,,,,,,0,14,14,6,1,ñe,44:48,orange,,,,,,,,,,,,,,,,,,,,,,,,,,,,,,,,,,,,
,,546865,001,2023-06-06_13h49.48.792,Unsyncopated1,2022.2.5,Win32,59.73715651,,,,,,,,,,,,,,,,,,,,,,,,,,,0,0,0,2,1,Online_whenL3//aMO14.none.wav,none,,,,,,,,,,,,,,,,,,,,,,,,,,,,,,,,,,,,,,,,,,,,
,,546865,001,2023-06-06_13h49.48.792,Unsyncopated1,2022.2.5,Win32,59.73715651,,,,,,,,,,,,,,,,,,,,,,,,,,,0,1,1,0,1,Online_whenL3//aMO12.none.wav,none,,,,,,,,,,,,,,,,,,,,,,,,,,,,,,,,,,,,,,,,,,,,
,,546865,001,2023-06-06_13h49.48.792,Unsyncopated1,2022.2.5,Win32,59.73715651,,,,,,,,,,,,,,,,,,,,,,,,,,,0,2,2,1,1,Online_whenL3//aMO13.none.wav,none,,,,,,,,,,,,,,,,,,,,,,,,,,,,,,,,,,,,,,,,,,,,
,,546865,001,2023-06-06_13h49.48.792,Unsyncopated1,2022.2.5,Win32,59.73715651,,,,,,,,,,,,,,,,,,,,,,,,,space,2.6204,0,3,3,3,1,Online_whenL3//aMO15.1332.wav,1332,,,,,,,,,,,,,,,,,,,,,,,,,,,,,,,,,,,,,,,,,,,,
,,546865,001,2023-06-06_13h49.48.792,Unsyncopated1,2022.2.5,Win32,59.73715651,,,,,,,,,,,,,,,,,,,,,,,,,,,,,,,,,,0,15,15,18,1,mo,12:16,green,,,,,,,,,,,,,,,,,,,,,,,,,,,,,,,,,,,,
,,546865,001,2023-06-06_13h49.48.792,Unsyncopated1,2022.2.5,Win32,59.73715651,,,,,,,,,,,,,,,,,,,,,,,,,,,0,0,0,1,1,Online_whenL3//dJI17.0.wav,0,,,,,,,,,,,,,,,,,,,,,,,,,,,,,,,,,,,,,,,,,,,,
,,546865,001,2023-06-06_13h49.48.792,Unsyncopated1,2022.2.5,Win32,59.73715651,,,,,,,,,,,,,,,,,,,,,,,,,,,0,1,1,3,1,Online_whenL3//dJI19.1110.wav,1110,,,,,,,,,,,,,,,,,,,,,,,,,,,,,,,,,,,,,,,,,,,,
,,546865,001,2023-06-06_13h49.48.792,Unsyncopated1,2022.2.5,Win32,59.73715651,,,,,,,,,,,,,,,,,,,,,,,,,,,0,2,2,2,1,Online_whenL3//dJI18.none.wav,none,,,,,,,,,,,,,,,,,,,,,,,,,,,,,,,,,,,,,,,,,,,,
,,546865,001,2023-06-06_13h49.48.792,Unsyncopated1,2022.2.5,Win32,59.73715651,,,,,,,,,,,,,,,,,,,,,,,,,,,0,3,3,0,1,Online_whenL3//dJI16.none.wav,none,,,,,,,,,,,,,,,,,,,,,,,,,,,,,,,,,,,,,,,,,,,,
,,546865,001,2023-06-06_13h49.48.792,Unsyncopated1,2022.2.5,Win32,59.73715651,,,,,,,,,,,,,,,,,,,,,,,,,,,,,,,,,,0,16,16,32,1,ji,120:124,blue,,,,,,,,,,,,,,,,,,,,,,,,,,,,,,,,,,,,
,,546865,001,2023-06-06_13h49.48.792,Unsyncopated1,2022.2.5,Win32,59.73715651,,,,,,,,,,,,,,,,,,,,,,,,,space,2.5184,0,0,0,1,1,Online_whenL3//cGA1.1998.wav,1998,,,,,,,,,,,,,,,,,,,,,,,,,,,,,,,,,,,,,,,,,,,,
,,546865,001,2023-06-06_13h49.48.792,Unsyncopated1,2022.2.5,Win32,59.73715651,,,,,,,,,,,,,,,,,,,,,,,,,,,0,1,1,0,1,Online_whenL3//cGA0.1998.wav,1998,,,,,,,,,,,,,,,,,,,,,,,,,,,,,,,,,,,,,,,,,,,,
,,546865,001,2023-06-06_13h49.48.792,Unsyncopated1,2022.2.5,Win32,59.73715651,,,,,,,,,,,,,,,,,,,,,,,,,space,1.3532,0,2,2,3,1,Online_whenL3//cGA3.222.wav,222,,,,,,,,,,,,,,,,,,,,,,,,,,,,,,,,,,,,,,,,,,,,
,,546865,001,2023-06-06_13h49.48.792,Unsyncopated1,2022.2.5,Win32,59.73715651,,,,,,,,,,,,,,,,,,,,,,,,,,,0,3,3,2,1,Online_whenL3//cGA2.none.wav,none,,,,,,,,,,,,,,,,,,,,,,,,,,,,,,,,,,,,,,,,,,,,
,,546865,001,2023-06-06_13h49.48.792,Unsyncopated1,2022.2.5,Win32,59.73715651,,,,,,,,,,,,,,,,,,,,,,,,,,,,,,,,,,0,17,17,2,1,ga,72:76,red,,,,,,,,,,,,,,,,,,,,,,,,,,,,,,,,,,,,
,,546865,001,2023-06-06_13h49.48.792,Unsyncopated1,2022.2.5,Win32,59.73715651,,,,,,,,,,,,,,,,,,,,,,,,,,,0,0,0,3,1,Online_whenL3//cGA23.444.wav,444,,,,,,,,,,,,,,,,,,,,,,,,,,,,,,,,,,,,,,,,,,,,
,,546865,001,2023-06-06_13h49.48.792,Unsyncopated1,2022.2.5,Win32,59.73715651,,,,,,,,,,,,,,,,,,,,,,,,,space,1.6486,0,1,1,1,1,Online_whenL3//cGA21.1110.wav,1110,,,,,,,,,,,,,,,,,,,,,,,,,,,,,,,,,,,,,,,,,,,,
,,546865,001,2023-06-06_13h49.48.792,Unsyncopated1,2022.2.5,Win32,59.73715651,,,,,,,,,,,,,,,,,,,,,,,,,space,1.528,0,2,2,0,1,Online_whenL3//cGA20.1110.wav,1110,,,,,,,,,,,,,,,,,,,,,,,,,,,,,,,,,,,,,,,,,,,,
,,546865,001,2023-06-06_13h49.48.792,Unsyncopated1,2022.2.5,Win32,59.73715651,,,,,,,,,,,,,,,,,,,,,,,,,,,0,3,3,2,1,Online_whenL3//cGA22.none.wav,none,,,,,,,,,,,,,,,,,,,,,,,,,,,,,,,,,,,,,,,,,,,,
,,546865,001,2023-06-06_13h49.48.792,Unsyncopated1,2022.2.5,Win32,59.73715651,,,,,,,,,,,,,,,,,,,,,,,,,,,,,,,,,,0,18,18,13,1,ga,92:96,red,,,,,,,,,,,,,,,,,,,,,,,,,,,,,,,,,,,,
,,546865,001,2023-06-06_13h49.48.792,Unsyncopated1,2022.2.5,Win32,59.73715651,,,,,,,,,,,,,,,,,,,,,,,,,,,0,0,0,2,1,Online_whenL3//dJI22.none.wav,none,,,,,,,,,,,,,,,,,,,,,,,,,,,,,,,,,,,,,,,,,,,,
,,546865,001,2023-06-06_13h49.48.792,Unsyncopated1,2022.2.5,Win32,59.73715651,,,,,,,,,,,,,,,,,,,,,,,,,space,0.5833,0,1,1,1,1,Online_whenL3//dJI21.0.wav,0,,,,,,,,,,,,,,,,,,,,,,,,,,,,,,,,,,,,,,,,,,,,
,,546865,001,2023-06-06_13h49.48.792,Unsyncopated1,2022.2.5,Win32,59.73715651,,,,,,,,,,,,,,,,,,,,,,,,,space,1.4341,0,2,2,0,1,Online_whenL3//dJI20.888.wav,888,,,,,,,,,,,,,,,,,,,,,,,,,,,,,,,,,,,,,,,,,,,,
,,546865,001,2023-06-06_13h49.48.792,Unsyncopated1,2022.2.5,Win32,59.73715651,,,,,,,,,,,,,,,,,,,,,,,,,,,0,3,3,3,1,Online_whenL3//dJI23.none.wav,none,,,,,,,,,,,,,,,,,,,,,,,,,,,,,,,,,,,,,,,,,,,,
,,546865,001,2023-06-06_13h49.48.792,Unsyncopated1,2022.2.5,Win32,59.73715651,,,,,,,,,,,,,,,,,,,,,,,,,,,,,,,,,,0,19,19,8,1,ji,124:128,blue,,,,,,,,,,,,,,,,,,,,,,,,,,,,,,,,,,,,
,,546865,001,2023-06-06_13h49.48.792,Unsyncopated1,2022.2.5,Win32,59.73715651,,,,,,,,,,,,,,,,,,,,,,,,,,,0,0,0,0,1,Online_whenL3//aMO0.none.wav,none,,,,,,,,,,,,,,,,,,,,,,,,,,,,,,,,,,,,,,,,,,,,
,,546865,001,2023-06-06_13h49.48.792,Unsyncopated1,2022.2.5,Win32,59.73715651,,,,,,,,,,,,,,,,,,,,,,,,,,,0,1,1,2,1,Online_whenL3//aMO2.444.wav,444,,,,,,,,,,,,,,,,,,,,,,,,,,,,,,,,,,,,,,,,,,,,
,,546865,001,2023-06-06_13h49.48.792,Unsyncopated1,2022.2.5,Win32,59.73715651,,,,,,,,,,,,,,,,,,,,,,,,,,,0,2,2,3,1,Online_whenL3//aMO3.none.wav,none,,,,,,,,,,,,,,,,,,,,,,,,,,,,,,,,,,,,,,,,,,,,
,,546865,001,2023-06-06_13h49.48.792,Unsyncopated1,2022.2.5,Win32,59.73715651,,,,,,,,,,,,,,,,,,,,,,,,,,,0,3,3,1,1,Online_whenL3//aMO1.888.wav,888,,,,,,,,,,,,,,,,,,,,,,,,,,,,,,,,,,,,,,,,,,,,
,,546865,001,2023-06-06_13h49.48.792,Unsyncopated1,2022.2.5,Win32,59.73715651,,,,,,,,,,,,,,,,,,,,,,,,,,,,,,,,,,0,20,20,27,1,mo,0:4,green,,,,,,,,,,,,,,,,,,,,,,,,,,,,,,,,,,,,
,,546865,001,2023-06-06_13h49.48.792,Unsyncopated1,2022.2.5,Win32,59.73715651,,,,,,,,,,,,,,,,,,,,,,,,,,,0,0,0,2,1,Online_whenL3//dJI10.none.wav,none,,,,,,,,,,,,,,,,,,,,,,,,,,,,,,,,,,,,,,,,,,,,
,,546865,001,2023-06-06_13h49.48.792,Unsyncopated1,2022.2.5,Win32,59.73715651,,,,,,,,,,,,,,,,,,,,,,,,,,,0,1,1,1,1,Online_whenL3//dJI9.none.wav,none,,,,,,,,,,,,,,,,,,,,,,,,,,,,,,,,,,,,,,,,,,,,
,,546865,001,2023-06-06_13h49.48.792,Unsyncopated1,2022.2.5,Win32,59.73715651,,,,,,,,,,,,,,,,,,,,,,,,,space,0.9364,0,2,2,3,1,Online_whenL3//dJI11.444.wav,444,,,,,,,,,,,,,,,,,,,,,,,,,,,,,,,,,,,,,,,,,,,,
,,546865,001,2023-06-06_13h49.48.792,Unsyncopated1,2022.2.5,Win32,59.73715651,,,,,,,,,,,,,,,,,,,,,,,,,,,0,3,3,0,1,Online_whenL3//dJI8.none.wav,none,,,,,,,,,,,,,,,,,,,,,,,,,,,,,,,,,,,,,,,,,,,,
,,546865,001,2023-06-06_13h49.48.792,Unsyncopated1,2022.2.5,Win32,59.73715651,,,,,,,,,,,,,,,,,,,,,,,,,,,,,,,,,,0,21,21,26,1,ji,112:116,blue,,,,,,,,,,,,,,,,,,,,,,,,,,,,,,,,,,,,
,,546865,001,2023-06-06_13h49.48.792,Unsyncopated1,2022.2.5,Win32,59.73715651,,,,,,,,,,,,,,,,,,,,,,,,,,,0,0,0,3,1,Online_whenL3//aMO19.none.wav,none,,,,,,,,,,,,,,,,,,,,,,,,,,,,,,,,,,,,,,,,,,,,
,,546865,001,2023-06-06_13h49.48.792,Unsyncopated1,2022.2.5,Win32,59.73715651,,,,,,,,,,,,,,,,,,,,,,,,,,,0,1,1,1,1,Online_whenL3//aMO17.none.wav,none,,,,,,,,,,,,,,,,,,,,,,,,,,,,,,,,,,,,,,,,,,,,
,,546865,001,2023-06-06_13h49.48.792,Unsyncopated1,2022.2.5,Win32,59.73715651,,,,,,,,,,,,,,,,,,,,,,,,,,,0,2,2,2,1,Online_whenL3//aMO18.none.wav,none,,,,,,,,,,,,,,,,,,,,,,,,,,,,,,,,,,,,,,,,,,,,
,,546865,001,2023-06-06_13h49.48.792,Unsyncopated1,2022.2.5,Win32,59.73715651,,,,,,,,,,,,,,,,,,,,,,,,,,,0,3,3,0,1,Online_whenL3//aMO16.1332.wav,1332,,,,,,,,,,,,,,,,,,,,,,,,,,,,,,,,,,,,,,,,,,,,
,,546865,001,2023-06-06_13h49.48.792,Unsyncopated1,2022.2.5,Win32,59.73715651,,,,,,,,,,,,,,,,,,,,,,,,,,,,,,,,,,0,22,22,12,1,mo,16:20,green,,,,,,,,,,,,,,,,,,,,,,,,,,,,,,,,,,,,
,,546865,001,2023-06-06_13h49.48.792,Unsyncopated1,2022.2.5,Win32,59.73715651,,,,,,,,,,,,,,,,,,,,,,,,,,,0,0,0,0,1,Online_whenL3//aMO24.1332.wav,1332,,,,,,,,,,,,,,,,,,,,,,,,,,,,,,,,,,,,,,,,,,,,
,,546865,001,2023-06-06_13h49.48.792,Unsyncopated1,2022.2.5,Win32,59.73715651,,,,,,,,,,,,,,,,,,,,,,,,,,,0,1,1,1,1,Online_whenL3//aMO25.none.wav,none,,,,,,,,,,,,,,,,,,,,,,,,,,,,,,,,,,,,,,,,,,,,
,,546865,001,2023-06-06_13h49.48.792,Unsyncopated1,2022.2.5,Win32,59.73715651,,,,,,,,,,,,,,,,,,,,,,,,,,,0,2,2,3,1,Online_whenL3//aMO27.none.wav,none,,,,,,,,,,,,,,,,,,,,,,,,,,,,,,,,,,,,,,,,,,,,
,,546865,001,2023-06-06_13h49.48.792,Unsyncopated1,2022.2.5,Win32,59.73715651,,,,,,,,,,,,,,,,,,,,,,,,,,,0,3,3,2,1,Online_whenL3//aMO26.none.wav,none,,,,,,,,,,,,,,,,,,,,,,,,,,,,,,,,,,,,,,,,,,,,
,,546865,001,2023-06-06_13h49.48.792,Unsyncopated1,2022.2.5,Win32,59.73715651,,,,,,,,,,,,,,,,,,,,,,,,,,,,,,,,,,0,23,23,1,1,mo,24:28,green,,,,,,,,,,,,,,,,,,,,,,,,,,,,,,,,,,,,
,,546865,001,2023-06-06_13h49.48.792,Unsyncopated1,2022.2.5,Win32,59.73715651,,,,,,,,,,,,,,,,,,,,,,,,,,,0,0,0,2,1,Online_whenL3//bÑE14.none.wav,none,,,,,,,,,,,,,,,,,,,,,,,,,,,,,,,,,,,,,,,,,,,,
,,546865,001,2023-06-06_13h49.48.792,Unsyncopated1,2022.2.5,Win32,59.73715651,,,,,,,,,,,,,,,,,,,,,,,,,,,0,1,1,1,1,Online_whenL3//bÑE13.none.wav,none,,,,,,,,,,,,,,,,,,,,,,,,,,,,,,,,,,,,,,,,,,,,
,,546865,001,2023-06-06_13h49.48.792,Unsyncopated1,2022.2.5,Win32,59.73715651,,,,,,,,,,,,,,,,,,,,,,,,,space,1.1689,0,2,2,3,1,Online_whenL3//bÑE15.444.wav,444,,,,,,,,,,,,,,,,,,,,,,,,,,,,,,,,,,,,,,,,,,,,
,,546865,001,2023-06-06_13h49.48.792,Unsyncopated1,2022.2.5,Win32,59.73715651,,,,,,,,,,,,,,,,,,,,,,,,,,,0,3,3,0,1,Online_whenL3//bÑE12.222.wav,222,,,,,,,,,,,,,,,,,,,,,,,,,,,,,,,,,,,,,,,,,,,,
,,546865,001,2023-06-06_13h49.48.792,Unsyncopated1,2022.2.5,Win32,59.73715651,,,,,,,,,,,,,,,,,,,,,,,,,,,,,,,,,,0,24,24,22,1,ñe,48:52,orange,,,,,,,,,,,,,,,,,,,,,,,,,,,,,,,,,,,,
,,546865,001,2023-06-06_13h49.48.792,Unsyncopated1,2022.2.5,Win32,59.73715651,,,,,,,,,,,,,,,,,,,,,,,,,,,0,0,0,3,1,Online_whenL3//bÑE31.none.wav,none,,,,,,,,,,,,,,,,,,,,,,,,,,,,,,,,,,,,,,,,,,,,
,,546865,001,2023-06-06_13h49.48.792,Unsyncopated1,2022.2.5,Win32,59.73715651,,,,,,,,,,,,,,,,,,,,,,,,,space,0.8868,0,1,1,0,1,Online_whenL3//bÑE28.444.wav,444,,,,,,,,,,,,,,,,,,,,,,,,,,,,,,,,,,,,,,,,,,,,
,,546865,001,2023-06-06_13h49.48.792,Unsyncopated1,2022.2.5,Win32,59.73715651,,,,,,,,,,,,,,,,,,,,,,,,,,,0,2,2,2,1,Online_whenL3//bÑE30.none.wav,none,,,,,,,,,,,,,,,,,,,,,,,,,,,,,,,,,,,,,,,,,,,,
,,546865,001,2023-06-06_13h49.48.792,Unsyncopated1,2022.2.5,Win32,59.73715651,,,,,,,,,,,,,,,,,,,,,,,,,space,0.515,0,3,3,1,1,Online_whenL3//bÑE29.0.wav,0,,,,,,,,,,,,,,,,,,,,,,,,,,,,,,,,,,,,,,,,,,,,
,,546865,001,2023-06-06_13h49.48.792,Unsyncopated1,2022.2.5,Win32,59.73715651,,,,,,,,,,,,,,,,,,,,,,,,,,,,,,,,,,0,25,25,14,1,ñe,64:68,orange,,,,,,,,,,,,,,,,,,,,,,,,,,,,,,,,,,,,
,,546865,001,2023-06-06_13h49.48.792,Unsyncopated1,2022.2.5,Win32,59.73715651,,,,,,,,,,,,,,,,,,,,,,,,,,,0,0,0,3,1,Online_whenL3//bÑE3.none.wav,none,,,,,,,,,,,,,,,,,,,,,,,,,,,,,,,,,,,,,,,,,,,,
,,546865,001,2023-06-06_13h49.48.792,Unsyncopated1,2022.2.5,Win32,59.73715651,,,,,,,,,,,,,,,,,,,,,,,,,space,1.0079,0,1,1,2,1,Online_whenL3//bÑE2.444.wav,444,,,,,,,,,,,,,,,,,,,,,,,,,,,,,,,,,,,,,,,,,,,,
,,546865,001,2023-06-06_13h49.48.792,Unsyncopated1,2022.2.5,Win32,59.73715651,,,,,,,,,,,,,,,,,,,,,,,,,space,0.9653,0,2,2,1,1,Online_whenL3//bÑE1.444.wav,444,,,,,,,,,,,,,,,,,,,,,,,,,,,,,,,,,,,,,,,,,,,,
,,546865,001,2023-06-06_13h49.48.792,Unsyncopated1,2022.2.5,Win32,59.73715651,,,,,,,,,,,,,,,,,,,,,,,,,,,0,3,3,0,1,Online_whenL3//bÑE0.none.wav,none,,,,,,,,,,,,,,,,,,,,,,,,,,,,,,,,,,,,,,,,,,,,
,,546865,001,2023-06-06_13h49.48.792,Unsyncopated1,2022.2.5,Win32,59.73715651,,,,,,,,,,,,,,,,,,,,,,,,,,,,,,,,,,0,26,26,3,1,ñe,36:40,orange,,,,,,,,,,,,,,,,,,,,,,,,,,,,,,,,,,,,
,,546865,001,2023-06-06_13h49.48.792,Unsyncopated1,2022.2.5,Win32,59.73715651,,,,,,,,,,,,,,,,,,,,,,,,,space,0.9165,0,0,0,2,1,Online_whenL3//cGA26.none.wav,none,,,,,,,,,,,,,,,,,,,,,,,,,,,,,,,,,,,,,,,,,,,,
,,546865,001,2023-06-06_13h49.48.792,Unsyncopated1,2022.2.5,Win32,59.73715651,,,,,,,,,,,,,,,,,,,,,,,,,,,0,1,1,0,1,Online_whenL3//cGA24.none.wav,none,,,,,,,,,,,,,,,,,,,,,,,,,,,,,,,,,,,,,,,,,,,,
,,546865,001,2023-06-06_13h49.48.792,Unsyncopated1,2022.2.5,Win32,59.73715651,,,,,,,,,,,,,,,,,,,,,,,,,space,1.8035,0,2,2,1,1,Online_whenL3//cGA25.1332.wav,1332,,,,,,,,,,,,,,,,,,,,,,,,,,,,,,,,,,,,,,,,,,,,
,,546865,001,2023-06-06_13h49.48.792,Unsyncopated1,2022.2.5,Win32,59.73715651,,,,,,,,,,,,,,,,,,,,,,,,,,,0,3,3,3,1,Online_whenL3//cGA27.none.wav,none,,,,,,,,,,,,,,,,,,,,,,,,,,,,,,,,,,,,,,,,,,,,
,,546865,001,2023-06-06_13h49.48.792,Unsyncopated1,2022.2.5,Win32,59.73715651,,,,,,,,,,,,,,,,,,,,,,,,,,,,,,,,,,0,27,27,7,1,ga,96:100,red,,,,,,,,,,,,,,,,,,,,,,,,,,,,,,,,,,,,
,,546865,001,2023-06-06_13h49.48.792,Unsyncopated1,2022.2.5,Win32,59.73715651,,,,,,,,,,,,,,,,,,,,,,,,,,,0,0,0,1,1,Online_whenL3//cGA29.none.wav,none,,,,,,,,,,,,,,,,,,,,,,,,,,,,,,,,,,,,,,,,,,,,
,,546865,001,2023-06-06_13h49.48.792,Unsyncopated1,2022.2.5,Win32,59.73715651,,,,,,,,,,,,,,,,,,,,,,,,,space,2.5377,0,1,1,0,1,Online_whenL3//cGA28.1998.wav,1998,,,,,,,,,,,,,,,,,,,,,,,,,,,,,,,,,,,,,,,,,,,,
,,546865,001,2023-06-06_13h49.48.792,Unsyncopated1,2022.2.5,Win32,59.73715651,,,,,,,,,,,,,,,,,,,,,,,,,,,0,2,2,2,1,Online_whenL3//cGA30.none.wav,none,,,,,,,,,,,,,,,,,,,,,,,,,,,,,,,,,,,,,,,,,,,,
,,546865,001,2023-06-06_13h49.48.792,Unsyncopated1,2022.2.5,Win32,59.73715651,,,,,,,,,,,,,,,,,,,,,,,,,,,0,3,3,3,1,Online_whenL3//cGA31.none.wav,none,,,,,,,,,,,,,,,,,,,,,,,,,,,,,,,,,,,,,,,,,,,,
,,546865,001,2023-06-06_13h49.48.792,Unsyncopated1,2022.2.5,Win32,59.73715651,,,,,,,,,,,,,,,,,,,,,,,,,,,,,,,,,,0,28,28,9,1,ga,100:104,red,,,,,,,,,,,,,,,,,,,,,,,,,,,,,,,,,,,,
,,546865,001,2023-06-06_13h49.48.792,Unsyncopated1,2022.2.5,Win32,59.73715651,,,,,,,,,,,,,,,,,,,,,,,,,space,1.5765,0,0,0,3,1,Online_whenL3//dJI27.1332.wav,1332,,,,,,,,,,,,,,,,,,,,,,,,,,,,,,,,,,,,,,,,,,,,
,,546865,001,2023-06-06_13h49.48.792,Unsyncopated1,2022.2.5,Win32,59.73715651,,,,,,,,,,,,,,,,,,,,,,,,,space,2.2988,0,1,1,2,1,Online_whenL3//dJI26.1110.wav,1110,,,,,,,,,,,,,,,,,,,,,,,,,,,,,,,,,,,,,,,,,,,,
,,546865,001,2023-06-06_13h49.48.792,Unsyncopated1,2022.2.5,Win32,59.73715651,,,,,,,,,,,,,,,,,,,,,,,,,,,0,2,2,0,1,Online_whenL3//dJI24.444.wav,444,,,,,,,,,,,,,,,,,,,,,,,,,,,,,,,,,,,,,,,,,,,,
,,546865,001,2023-06-06_13h49.48.792,Unsyncopated1,2022.2.5,Win32,59.73715651,,,,,,,,,,,,,,,,,,,,,,,,,space,0.9354,0,3,3,1,1,Online_whenL3//dJI25.0.wav,0,,,,,,,,,,,,,,,,,,,,,,,,,,,,,,,,,,,,,,,,,,,,
,,546865,001,2023-06-06_13h49.48.792,Unsyncopated1,2022.2.5,Win32,59.73715651,,,,,,,,,,,,,,,,,,,,,,,,,,,,,,,,,,0,29,29,15,1,ji,128:132,blue,,,,,,,,,,,,,,,,,,,,,,,,,,,,,,,,,,,,
,,546865,001,2023-06-06_13h49.48.792,Unsyncopated1,2022.2.5,Win32,59.73715651,,,,,,,,,,,,,,,,,,,,,,,,,,,0,0,0,1,1,Online_whenL3//bÑE25.none.wav,none,,,,,,,,,,,,,,,,,,,,,,,,,,,,,,,,,,,,,,,,,,,,
,,546865,001,2023-06-06_13h49.48.792,Unsyncopated1,2022.2.5,Win32,59.73715651,,,,,,,,,,,,,,,,,,,,,,,,,space,1.5199,0,1,1,2,1,Online_whenL3//bÑE26.888.wav,888,,,,,,,,,,,,,,,,,,,,,,,,,,,,,,,,,,,,,,,,,,,,
,,546865,001,2023-06-06_13h49.48.792,Unsyncopated1,2022.2.5,Win32,59.73715651,,,,,,,,,,,,,,,,,,,,,,,,,,,0,2,2,0,1,Online_whenL3//bÑE24.none.wav,none,,,,,,,,,,,,,,,,,,,,,,,,,,,,,,,,,,,,,,,,,,,,
,,546865,001,2023-06-06_13h49.48.792,Unsyncopated1,2022.2.5,Win32,59.73715651,,,,,,,,,,,,,,,,,,,,,,,,,,,0,3,3,3,1,Online_whenL3//bÑE27.none.wav,none,,,,,,,,,,,,,,,,,,,,,,,,,,,,,,,,,,,,,,,,,,,,
,,546865,001,2023-06-06_13h49.48.792,Unsyncopated1,2022.2.5,Win32,59.73715651,,,,,,,,,,,,,,,,,,,,,,,,,,,,,,,,,,0,30,30,29,1,ñe,60:64,orange,,,,,,,,,,,,,,,,,,,,,,,,,,,,,,,,,,,,
,,546865,001,2023-06-06_13h49.48.792,Unsyncopated1,2022.2.5,Win32,59.73715651,,,,,,,,,,,,,,,,,,,,,,,,,space,1.0686,0,0,0,2,1,Online_whenL3//aMO34.222.wav,222,,,,,,,,,,,,,,,,,,,,,,,,,,,,,,,,,,,,,,,,,,,,
,,546865,001,2023-06-06_13h49.48.792,Unsyncopated1,2022.2.5,Win32,59.73715651,,,,,,,,,,,,,,,,,,,,,,,,,,,0,1,1,1,1,Online_whenL3//aMO33.none.wav,none,,,,,,,,,,,,,,,,,,,,,,,,,,,,,,,,,,,,,,,,,,,,
,,546865,001,2023-06-06_13h49.48.792,Unsyncopated1,2022.2.5,Win32,59.73715651,,,,,,,,,,,,,,,,,,,,,,,,,space,0.5856,0,2,2,3,1,Online_whenL3//aMO35.0.wav,0,,,,,,,,,,,,,,,,,,,,,,,,,,,,,,,,,,,,,,,,,,,,
,,546865,001,2023-06-06_13h49.48.792,Unsyncopated1,2022.2.5,Win32,59.73715651,,,,,,,,,,,,,,,,,,,,,,,,,space,0.9519,0,3,3,0,1,Online_whenL3//aMO32.444.wav,444,,,,,,,,,,,,,,,,,,,,,,,,,,,,,,,,,,,,,,,,,,,,
,,546865,001,2023-06-06_13h49.48.792,Unsyncopated1,2022.2.5,Win32,59.73715651,,,,,,,,,,,,,,,,,,,,,,,,,,,,,,,,,,0,31,31,31,1,mo,32:36,green,,,,,,,,,,,,,,,,,,,,,,,,,,,,,,,,,,,,
,,546865,001,2023-06-06_13h49.48.792,Unsyncopated1,2022.2.5,Win32,59.73715651,,,,,,,,,,,,,,,,,,,,,,,,,,,0,0,0,1,1,Online_whenL3//aMO5.none.wav,none,,,,,,,,,,,,,,,,,,,,,,,,,,,,,,,,,,,,,,,,,,,,
,,546865,001,2023-06-06_13h49.48.792,Unsyncopated1,2022.2.5,Win32,59.73715651,,,,,,,,,,,,,,,,,,,,,,,,,space,1.819,0,1,1,2,1,Online_whenL3//aMO6.1332.wav,1332,,,,,,,,,,,,,,,,,,,,,,,,,,,,,,,,,,,,,,,,,,,,
,,546865,001,2023-06-06_13h49.48.792,Unsyncopated1,2022.2.5,Win32,59.73715651,,,,,,,,,,,,,,,,,,,,,,,,,space,1.7943,0,2,2,0,1,Online_whenL3//aMO4.1110.wav,1110,,,,,,,,,,,,,,,,,,,,,,,,,,,,,,,,,,,,,,,,,,,,
,,546865,001,2023-06-06_13h49.48.792,Unsyncopated1,2022.2.5,Win32,59.73715651,,,,,,,,,,,,,,,,,,,,,,,,,space,1.4837,0,3,3,3,1,Online_whenL3//aMO7.222.wav,222,,,,,,,,,,,,,,,,,,,,,,,,,,,,,,,,,,,,,,,,,,,,
,,546865,001,2023-06-06_13h49.48.792,Unsyncopated1,2022.2.5,Win32,59.73715651,,,,,,,,,,,,,,,,,,,,,,,,,,,,,,,,,,0,32,32,5,1,mo,4:8,green,,,,,,,,,,,,,,,,,,,,,,,,,,,,,,,,,,,,
,,546865,001,2023-06-06_13h49.48.792,Unsyncopated1,2022.2.5,Win32,59.73715651,,,,,,,,,,,,,,,,,,,,,,,,,,,0,0,0,3,1,Online_whenL3//dJI3.none.wav,none,,,,,,,,,,,,,,,,,,,,,,,,,,,,,,,,,,,,,,,,,,,,
,,546865,001,2023-06-06_13h49.48.792,Unsyncopated1,2022.2.5,Win32,59.73715651,,,,,,,,,,,,,,,,,,,,,,,,,,,0,1,1,2,1,Online_whenL3//dJI2.none.wav,none,,,,,,,,,,,,,,,,,,,,,,,,,,,,,,,,,,,,,,,,,,,,
,,546865,001,2023-06-06_13h49.48.792,Unsyncopated1,2022.2.5,Win32,59.73715651,,,,,,,,,,,,,,,,,,,,,,,,,,,0,2,2,1,1,Online_whenL3//dJI1.none.wav,none,,,,,,,,,,,,,,,,,,,,,,,,,,,,,,,,,,,,,,,,,,,,
,,546865,001,2023-06-06_13h49.48.792,Unsyncopated1,2022.2.5,Win32,59.73715651,,,,,,,,,,,,,,,,,,,,,,,,,space,0.9852,0,3,3,0,1,Online_whenL3//dJI0.444.wav,444,,,,,,,,,,,,,,,,,,,,,,,,,,,,,,,,,,,,,,,,,,,,
,,546865,001,2023-06-06_13h49.48.792,Unsyncopated1,2022.2.5,Win32,59.73715651,,,,,,,,,,,,,,,,,,,,,,,,,,,,,,,,,,0,33,33,25,1,ji,104:108,blue,,,,,,,,,,,,,,,,,,,,,,,,,,,,,,,,,,,,
,,546865,001,2023-06-06_13h49.48.792,Unsyncopated1,2022.2.5,Win32,59.73715651,,,,,,,,,,,,,,,,,,,,,,,,,,,,,,,,,,,,,,,,,,space,6.5973,space,1.0258,z,0.6446,3,0.5004,0,0,0,2,1,testWhenL3Uns//cat_viol.r2.s1.0.wav,,,,,,,,,,,,,,,,,,,,,,
,,546865,001,2023-06-06_13h49.48.792,Unsyncopated1,2022.2.5,Win32,59.73715651,,,,,,,,,,,,,,,,,,,,,,,,,,,,,,,,,,,,,,,,,,,,,,z,0.7848,5,0.8564,0,1,1,1,1,testWhenL3Uns//cat_viol.r1.s2.0.wav,,,,,,,,,,,,,,,,,,,,,,
,,546865,001,2023-06-06_13h49.48.792,Unsyncopated1,2022.2.5,Win32,59.73715651,,,,,,,,,,,,,,,,,,,,,,,,,,,,,,,,,,,,,,,,,,,,,,m,0.5824,2,0.8535,0,2,2,15,1,testWhenL3Uns//r2.s1.1.wav,,,,,,,,,,,,,,,,,,,,,,
,,546865,001,2023-06-06_13h49.48.792,Unsyncopated1,2022.2.5,Win32,59.73715651,,,,,,,,,,,,,,,,,,,,,,,,,,,,,,,,,,,,,,,,,,,,,,m,0.3517,2,0.917,0,3,3,21,1,testWhenL3Uns//time_viol.r1.s2.0.wav,,,,,,,,,,,,,,,,,,,,,,
,,546865,001,2023-06-06_13h49.48.792,Unsyncopated1,2022.2.5,Win32,59.73715651,,,,,,,,,,,,,,,,,,,,,,,,,,,,,,,,,,,,,,,,,,,,,,m,0.3671,3,0.4673,0,4,4,6,1,testWhenL3Uns//dep_viol.r2.s1.0.wav,,,,,,,,,,,,,,,,,,,,,,
,,546865,001,2023-06-06_13h49.48.792,Unsyncopated1,2022.2.5,Win32,59.73715651,,,,,,,,,,,,,,,,,,,,,,,,,,,,,,,,,,,,,,,,,,,,,,z,0.8255,3,0.97,0,5,5,11,1,testWhenL3Uns//r1.s2.0.wav,,,,,,,,,,,,,,,,,,,,,,
,,546865,001,2023-06-06_13h49.48.792,Unsyncopated1,2022.2.5,Win32,59.73715651,,,,,,,,,,,,,,,,,,,,,,,,,,,,,,,,,,,,,,,,,,,,,,z,0.3086,2,0.3474,0,6,6,5,1,testWhenL3Uns//dep_viol.r1.s2.0.wav,,,,,,,,,,,,,,,,,,,,,,
,,546865,001,2023-06-06_13h49.48.792,Unsyncopated1,2022.2.5,Win32,59.73715651,,,,,,,,,,,,,,,,,,,,,,,,,,,,,,,,,,,,,,,,,,,,,,z,0.3675,4,0.385,0,7,7,9,1,testWhenL3Uns//r1.s1.1.wav,,,,,,,,,,,,,,,,,,,,,,
,,546865,001,2023-06-06_13h49.48.792,Unsyncopated1,2022.2.5,Win32,59.73715651,,,,,,,,,,,,,,,,,,,,,,,,,,,,,,,,,,,,,,,,,,,,,,z,0.2829,1,0.2205,0,8,8,8,1,testWhenL3Uns//r1.s1.0.wav,,,,,,,,,,,,,,,,,,,,,,
,,546865,001,2023-06-06_13h49.48.792,Unsyncopated1,2022.2.5,Win32,59.73715651,,,,,,,,,,,,,,,,,,,,,,,,,,,,,,,,,,,,,,,,,,,,,,z,0.0008,4,0.3174,0,9,9,0,1,testWhenL3Uns//cat_viol.r1.s1.0.wav,,,,,,,,,,,,,,,,,,,,,,
,,546865,001,2023-06-06_13h49.48.792,Unsyncopated1,2022.2.5,Win32,59.73715651,,,,,,,,,,,,,,,,,,,,,,,,,,,,,,,,,,,,,,,,,,,,,,z,0.2191,2,0.4354,0,10,10,16,1,testWhenL3Uns//r2.s1.2.wav,,,,,,,,,,,,,,,,,,,,,,
,,546865,001,2023-06-06_13h49.48.792,Unsyncopated1,2022.2.5,Win32,59.73715651,,,,,,,,,,,,,,,,,,,,,,,,,,,,,,,,,,,,,,,,,,,,,,z,0.3346,4,0.3018,0,11,11,18,1,testWhenL3Uns//r2.s2.1.wav,,,,,,,,,,,,,,,,,,,,,,
,,546865,001,2023-06-06_13h49.48.792,Unsyncopated1,2022.2.5,Win32,59.73715651,,,,,,,,,,,,,,,,,,,,,,,,,,,,,,,,,,,,,,,,,,,,,,m,0.3367,3,0.4831,0,12,12,22,1,testWhenL3Uns//time_viol.r2.s1.0.wav,,,,,,,,,,,,,,,,,,,,,,
,,546865,001,2023-06-06_13h49.48.792,Unsyncopated1,2022.2.5,Win32,59.73715651,,,,,,,,,,,,,,,,,,,,,,,,,,,,,,,,,,,,,,,,,,,,,,z,0.4001,3,0.1865,0,13,13,20,1,testWhenL3Uns//time_viol.r1.s1.0.wav,,,,,,,,,,,,,,,,,,,,,,
,,546865,001,2023-06-06_13h49.48.792,Unsyncopated1,2022.2.5,Win32,59.73715651,,,,,,,,,,,,,,,,,,,,,,,,,,,,,,,,,,,,,,,,,,,,,,m,0.3577,3,0.1834,0,14,14,17,1,testWhenL3Uns//r2.s2.0.wav,,,,,,,,,,,,,,,,,,,,,,
,,546865,001,2023-06-06_13h49.48.792,Unsyncopated1,2022.2.5,Win32,59.73715651,,,,,,,,,,,,,,,,,,,,,,,,,,,,,,,,,,,,,,,,,,,,,,z,0.4527,2,0.4527,0,15,15,10,1,testWhenL3Uns//r1.s1.2.wav,,,,,,,,,,,,,,,,,,,,,,
,,546865,001,2023-06-06_13h49.48.792,Unsyncopated1,2022.2.5,Win32,59.73715651,,,,,,,,,,,,,,,,,,,,,,,,,,,,,,,,,,,,,,,,,,,,,,m,0.2996,3,0.3375,0,16,16,3,1,testWhenL3Uns//cat_viol.r2.s2.0.wav,,,,,,,,,,,,,,,,,,,,,,
,,546865,001,2023-06-06_13h49.48.792,Unsyncopated1,2022.2.5,Win32,59.73715651,,,,,,,,,,,,,,,,,,,,,,,,,,,,,,,,,,,,,,,,,,,,,,m,0.5441,3,0.8337,0,17,17,7,1,testWhenL3Uns//dep_viol.r2.s2.0.wav,,,,,,,,,,,,,,,,,,,,,,
,,546865,001,2023-06-06_13h49.48.792,Unsyncopated1,2022.2.5,Win32,59.73715651,,,,,,,,,,,,,,,,,,,,,,,,,,,,,,,,,,,,,,,,,,,,,,m,0.0186,2,0.5012,0,18,18,23,1,testWhenL3Uns//time_viol.r2.s2.0.wav,,,,,,,,,,,,,,,,,,,,,,
,,546865,001,2023-06-06_13h49.48.792,Unsyncopated1,2022.2.5,Win32,59.73715651,,,,,,,,,,,,,,,,,,,,,,,,,,,,,,,,,,,,,,,,,,,,,,m,0.6353,3,0.4034,0,19,19,19,1,testWhenL3Uns//r2.s2.2.wav,,,,,,,,,,,,,,,,,,,,,,
,,546865,001,2023-06-06_13h49.48.792,Unsyncopated1,2022.2.5,Win32,59.73715651,,,,,,,,,,,,,,,,,,,,,,,,,,,,,,,,,,,,,,,,,,,,,,m,0.6005,3,0.5674,0,20,20,13,1,testWhenL3Uns//r1.s2.2.wav,,,,,,,,,,,,,,,,,,,,,,
,,546865,001,2023-06-06_13h49.48.792,Unsyncopated1,2022.2.5,Win32,59.73715651,,,,,,,,,,,,,,,,,,,,,,,,,,,,,,,,,,,,,,,,,,,,,,m,0.7663,3,0.9952,0,21,21,4,1,testWhenL3Uns//dep_viol.r1.s1.0.wav,,,,,,,,,,,,,,,,,,,,,,
,,546865,001,2023-06-06_13h49.48.792,Unsyncopated1,2022.2.5,Win32,59.73715651,,,,,,,,,,,,,,,,,,,,,,,,,,,,,,,,,,,,,,,,,,,,,,z,0.0544,2,0.398,0,22,22,12,1,testWhenL3Uns//r1.s2.1.wav,,,,,,,,,,,,,,,,,,,,,,
,,546865,001,2023-06-06_13h49.48.792,Unsyncopated1,2022.2.5,Win32,59.73715651,,,,,,,,,,,,,,,,,,,,,,,,,,,,,,,,,,,,,,,,,,,,,,z,0.4378,4,0.4178,0,23,23,14,1,testWhenL3Uns//r2.s1.0.wav,,,,,,,,,,,,,,,,,,,,,,
,,546865,001,2023-06-06_13h49.48.792,Unsyncopated1,2022.2.5,Win32,59.73715651,,,,,,,,,,,,,,,,,,,,,,,,,,,,,,,,,,,,,,,,,,,,,,,,,,,,,,,,space,2.2544,0,0,0,2,1,WhenL3_uns.csv,directory_online_whenL3_uns.csv,When_UnsyncL3_testdirs.csv,WhenL3_unsync_norm.wav,,,,,,,,,,,
,,546865,001,2023-06-06_13h49.48.792,Unsyncopated1,2022.2.5,Win32,59.73715651,,,,,,,,,,,,,,,,,,,space,2.1337,space,2.668,space,1.9704,space,2.1102,0,0,0,2,1,Online_conjL4_syn//bJA22.0.wav,0,,,,,,,,,,,,,,,,,,,,,,,,,,,,,,,,,,,,,,,,,,,,
,,546865,001,2023-06-06_13h49.48.792,Unsyncopated1,2022.2.5,Win32,59.73715651,,,,,,,,,,,,,,,,,,,,,,,,,space,0.4604,0,1,1,3,1,Online_conjL4_syn//bJA23.0.wav,0,,,,,,,,,,,,,,,,,,,,,,,,,,,,,,,,,,,,,,,,,,,,
,,546865,001,2023-06-06_13h49.48.792,Unsyncopated1,2022.2.5,Win32,59.73715651,,,,,,,,,,,,,,,,,,,,,,,,,,,0,2,2,0,1,Online_conjL4_syn//bJA20.none.wav,none,,,,,,,,,,,,,,,,,,,,,,,,,,,,,,,,,,,,,,,,,,,,
,,546865,001,2023-06-06_13h49.48.792,Unsyncopated1,2022.2.5,Win32,59.73715651,,,,,,,,,,,,,,,,,,,,,,,,,space,1.0356,0,3,3,1,1,Online_conjL4_syn//bJA21.666.wav,666,,,,,,,,,,,,,,,,,,,,,,,,,,,,,,,,,,,,,,,,,,,,
,,546865,001,2023-06-06_13h49.48.792,Unsyncopated1,2022.2.5,Win32,59.73715651,,,,,,,,,,,,,,,,,,,,,,,,,,,,,,,,,,0,0,0,5,1,ja,52:56,green,,,,,,,,,,,,,,,,,,,,,,,,,,,,,,,,,,,,
,,546865,001,2023-06-06_13h49.48.792,Unsyncopated1,2022.2.5,Win32,59.73715651,,,,,,,,,,,,,,,,,,,,,,,,,space,1.2192,0,0,0,3,1,Online_conjL4_syn//bJA11.666.wav,666,,,,,,,,,,,,,,,,,,,,,,,,,,,,,,,,,,,,,,,,,,,,
,,546865,001,2023-06-06_13h49.48.792,Unsyncopated1,2022.2.5,Win32,59.73715651,,,,,,,,,,,,,,,,,,,,,,,,,,,0,1,1,0,1,Online_conjL4_syn//bJA8.none.wav,none,,,,,,,,,,,,,,,,,,,,,,,,,,,,,,,,,,,,,,,,,,,,
,,546865,001,2023-06-06_13h49.48.792,Unsyncopated1,2022.2.5,Win32,59.73715651,,,,,,,,,,,,,,,,,,,,,,,,,,,0,2,2,1,1,Online_conjL4_syn//bJA9.none.wav,none,,,,,,,,,,,,,,,,,,,,,,,,,,,,,,,,,,,,,,,,,,,,
,,546865,001,2023-06-06_13h49.48.792,Unsyncopated1,2022.2.5,Win32,59.73715651,,,,,,,,,,,,,,,,,,,,,,,,,space,0.6689,0,3,3,2,1,Online_conjL4_syn//bJA10.0.wav,0,,,,,,,,,,,,,,,,,,,,,,,,,,,,,,,,,,,,,,,,,,,,
,,546865,001,2023-06-06_13h49.48.792,Unsyncopated1,2022.2.5,Win32,59.73715651,,,,,,,,,,,,,,,,,,,,,,,,,,,,,,,,,,0,1,1,21,1,ja,40:44,green,,,,,,,,,,,,,,,,,,,,,,,,,,,,,,,,,,,,
,,546865,001,2023-06-06_13h49.48.792,Unsyncopated1,2022.2.5,Win32,59.73715651,,,,,,,,,,,,,,,,,,,,,,,,,space,1.6182,0,0,0,1,1,Online_conjL4_syn//aLO9.none.wav,none,,,,,,,,,,,,,,,,,,,,,,,,,,,,,,,,,,,,,,,,,,,,
,,546865,001,2023-06-06_13h49.48.792,Unsyncopated1,2022.2.5,Win32,59.73715651,,,,,,,,,,,,,,,,,,,,,,,,,space,1.5028,0,1,1,3,1,Online_conjL4_syn//aLO11.666.wav,666,,,,,,,,,,,,,,,,,,,,,,,,,,,,,,,,,,,,,,,,,,,,
,,546865,001,2023-06-06_13h49.48.792,Unsyncopated1,2022.2.5,Win32,59.73715651,,,,,,,,,,,,,,,,,,,,,,,,,,,0,2,2,0,1,Online_conjL4_syn//aLO8.none.wav,none,,,,,,,,,,,,,,,,,,,,,,,,,,,,,,,,,,,,,,,,,,,,
,,546865,001,2023-06-06_13h49.48.792,Unsyncopated1,2022.2.5,Win32,59.73715651,,,,,,,,,,,,,,,,,,,,,,,,,,,0,3,3,2,1,Online_conjL4_syn//aLO10.none.wav,none,,,,,,,,,,,,,,,,,,,,,,,,,,,,,,,,,,,,,,,,,,,,
,,546865,001,2023-06-06_13h49.48.792,Unsyncopated1,2022.2.5,Win32,59.73715651,,,,,,,,,,,,,,,,,,,,,,,,,,,,,,,,,,0,2,2,2,1,lo,8:12,blue,,,,,,,,,,,,,,,,,,,,,,,,,,,,,,,,,,,,
,,546865,001,2023-06-06_13h49.48.792,Unsyncopated1,2022.2.5,Win32,59.73715651,,,,,,,,,,,,,,,,,,,,,,,,,space,1.4156,0,0,0,2,1,Online_conjL4_syn//dPE14.222.wav,222,,,,,,,,,,,,,,,,,,,,,,,,,,,,,,,,,,,,,,,,,,,,
,,546865,001,2023-06-06_13h49.48.792,Unsyncopated1,2022.2.5,Win32,59.73715651,,,,,,,,,,,,,,,,,,,,,,,,,,,0,1,1,1,1,Online_conjL4_syn//dPE13.none.wav,none,,,,,,,,,,,,,,,,,,,,,,,,,,,,,,,,,,,,,,,,,,,,
,,546865,001,2023-06-06_13h49.48.792,Unsyncopated1,2022.2.5,Win32,59.73715651,,,,,,,,,,,,,,,,,,,,,,,,,,,0,2,2,3,1,Online_conjL4_syn//dPE15.none.wav,none,,,,,,,,,,,,,,,,,,,,,,,,,,,,,,,,,,,,,,,,,,,,
,,546865,001,2023-06-06_13h49.48.792,Unsyncopated1,2022.2.5,Win32,59.73715651,,,,,,,,,,,,,,,,,,,,,,,,,,,0,3,3,0,1,Online_conjL4_syn//dPE12.none.wav,none,,,,,,,,,,,,,,,,,,,,,,,,,,,,,,,,,,,,,,,,,,,,
,,546865,001,2023-06-06_13h49.48.792,Unsyncopated1,2022.2.5,Win32,59.73715651,,,,,,,,,,,,,,,,,,,,,,,,,,,,,,,,,,0,3,3,0,1,pe,108:112,red,,,,,,,,,,,,,,,,,,,,,,,,,,,,,,,,,,,,
,,546865,001,2023-06-06_13h49.48.792,Unsyncopated1,2022.2.5,Win32,59.73715651,,,,,,,,,,,,,,,,,,,,,,,,,space,1.1773,0,0,0,1,1,Online_conjL4_syn//aLO25.666.wav,666,,,,,,,,,,,,,,,,,,,,,,,,,,,,,,,,,,,,,,,,,,,,
,,546865,001,2023-06-06_13h49.48.792,Unsyncopated1,2022.2.5,Win32,59.73715651,,,,,,,,,,,,,,,,,,,,,,,,,space,2.1005,0,1,1,3,1,Online_conjL4_syn//aLO27.1554.wav,1554,,,,,,,,,,,,,,,,,,,,,,,,,,,,,,,,,,,,,,,,,,,,
,,546865,001,2023-06-06_13h49.48.792,Unsyncopated1,2022.2.5,Win32,59.73715651,,,,,,,,,,,,,,,,,,,,,,,,,,,0,2,2,2,1,Online_conjL4_syn//aLO26.none.wav,none,,,,,,,,,,,,,,,,,,,,,,,,,,,,,,,,,,,,,,,,,,,,
,,546865,001,2023-06-06_13h49.48.792,Unsyncopated1,2022.2.5,Win32,59.73715651,,,,,,,,,,,,,,,,,,,,,,,,,,,0,3,3,0,1,Online_conjL4_syn//aLO24.none.wav,none,,,,,,,,,,,,,,,,,,,,,,,,,,,,,,,,,,,,,,,,,,,,
,,546865,001,2023-06-06_13h49.48.792,Unsyncopated1,2022.2.5,Win32,59.73715651,,,,,,,,,,,,,,,,,,,,,,,,,,,,,,,,,,0,4,4,26,1,lo,24:28,blue,,,,,,,,,,,,,,,,,,,,,,,,,,,,,,,,,,,,
,,546865,001,2023-06-06_13h49.48.792,Unsyncopated1,2022.2.5,Win32,59.73715651,,,,,,,,,,,,,,,,,,,,,,,,,space,0.672,0,0,0,0,1,Online_conjL4_syn//bJA28.0.wav,0,,,,,,,,,,,,,,,,,,,,,,,,,,,,,,,,,,,,,,,,,,,,
,,546865,001,2023-06-06_13h49.48.792,Unsyncopated1,2022.2.5,Win32,59.73715651,,,,,,,,,,,,,,,,,,,,,,,,,,,0,1,1,1,1,Online_conjL4_syn//bJA29.none.wav,none,,,,,,,,,,,,,,,,,,,,,,,,,,,,,,,,,,,,,,,,,,,,
,,546865,001,2023-06-06_13h49.48.792,Unsyncopated1,2022.2.5,Win32,59.73715651,,,,,,,,,,,,,,,,,,,,,,,,,,,0,2,2,3,1,Online_conjL4_syn//bJA31.none.wav,none,,,,,,,,,,,,,,,,,,,,,,,,,,,,,,,,,,,,,,,,,,,,
,,546865,001,2023-06-06_13h49.48.792,Unsyncopated1,2022.2.5,Win32,59.73715651,,,,,,,,,,,,,,,,,,,,,,,,,,,0,3,3,2,1,Online_conjL4_syn//bJA30.none.wav,none,,,,,,,,,,,,,,,,,,,,,,,,,,,,,,,,,,,,,,,,,,,,
,,546865,001,2023-06-06_13h49.48.792,Unsyncopated1,2022.2.5,Win32,59.73715651,,,,,,,,,,,,,,,,,,,,,,,,,,,,,,,,,,0,5,5,7,1,ja,60:64,green,,,,,,,,,,,,,,,,,,,,,,,,,,,,,,,,,,,,
,,546865,001,2023-06-06_13h49.48.792,Unsyncopated1,2022.2.5,Win32,59.73715651,,,,,,,,,,,,,,,,,,,,,,,,,space,1.0685,0,0,0,0,1,Online_conjL4_syn//aLO4.666.wav,666,,,,,,,,,,,,,,,,,,,,,,,,,,,,,,,,,,,,,,,,,,,,
,,546865,001,2023-06-06_13h49.48.792,Unsyncopated1,2022.2.5,Win32,59.73715651,,,,,,,,,,,,,,,,,,,,,,,,,,,0,1,1,3,1,Online_conjL4_syn//aLO7.1554.wav,1554,,,,,,,,,,,,,,,,,,,,,,,,,,,,,,,,,,,,,,,,,,,,
,,546865,001,2023-06-06_13h49.48.792,Unsyncopated1,2022.2.5,Win32,59.73715651,,,,,,,,,,,,,,,,,,,,,,,,,space,2.2688,0,2,2,2,1,Online_conjL4_syn//aLO6.1554.wav,1554,,,,,,,,,,,,,,,,,,,,,,,,,,,,,,,,,,,,,,,,,,,,
,,546865,001,2023-06-06_13h49.48.792,Unsyncopated1,2022.2.5,Win32,59.73715651,,,,,,,,,,,,,,,,,,,,,,,,,,,0,3,3,1,1,Online_conjL4_syn//aLO5.none.wav,none,,,,,,,,,,,,,,,,,,,,,,,,,,,,,,,,,,,,,,,,,,,,
,,546865,001,2023-06-06_13h49.48.792,Unsyncopated1,2022.2.5,Win32,59.73715651,,,,,,,,,,,,,,,,,,,,,,,,,,,,,,,,,,0,6,6,10,1,lo,4:8,blue,,,,,,,,,,,,,,,,,,,,,,,,,,,,,,,,,,,,
,,546865,001,2023-06-06_13h49.48.792,Unsyncopated1,2022.2.5,Win32,59.73715651,,,,,,,,,,,,,,,,,,,,,,,,,,,0,0,0,0,1,Online_conjL4_syn//dPE24.none.wav,none,,,,,,,,,,,,,,,,,,,,,,,,,,,,,,,,,,,,,,,,,,,,
,,546865,001,2023-06-06_13h49.48.792,Unsyncopated1,2022.2.5,Win32,59.73715651,,,,,,,,,,,,,,,,,,,,,,,,,,,0,1,1,2,1,Online_conjL4_syn//dPE26.none.wav,none,,,,,,,,,,,,,,,,,,,,,,,,,,,,,,,,,,,,,,,,,,,,
,,546865,001,2023-06-06_13h49.48.792,Unsyncopated1,2022.2.5,Win32,59.73715651,,,,,,,,,,,,,,,,,,,,,,,,,space,1.7525,0,2,2,3,1,Online_conjL4_syn//dPE27.1332.wav,1332,,,,,,,,,,,,,,,,,,,,,,,,,,,,,,,,,,,,,,,,,,,,
,,546865,001,2023-06-06_13h49.48.792,Unsyncopated1,2022.2.5,Win32,59.73715651,,,,,,,,,,,,,,,,,,,,,,,,,,,0,3,3,1,1,Online_conjL4_syn//dPE25.222.wav,222,,,,,,,,,,,,,,,,,,,,,,,,,,,,,,,,,,,,,,,,,,,,
,,546865,001,2023-06-06_13h49.48.792,Unsyncopated1,2022.2.5,Win32,59.73715651,,,,,,,,,,,,,,,,,,,,,,,,,,,,,,,,,,0,7,7,24,1,pe,120:124,red,,,,,,,,,,,,,,,,,,,,,,,,,,,,,,,,,,,,
,,546865,001,2023-06-06_13h49.48.792,Unsyncopated1,2022.2.5,Win32,59.73715651,,,,,,,,,,,,,,,,,,,,,,,,,,,0,0,0,3,1,Online_conjL4_syn//bJA7.none.wav,none,,,,,,,,,,,,,,,,,,,,,,,,,,,,,,,,,,,,,,,,,,,,
,,546865,001,2023-06-06_13h49.48.792,Unsyncopated1,2022.2.5,Win32,59.73715651,,,,,,,,,,,,,,,,,,,,,,,,,space,0.4012,0,1,1,0,1,Online_conjL4_syn//bJA4.0.wav,0,,,,,,,,,,,,,,,,,,,,,,,,,,,,,,,,,,,,,,,,,,,,
,,546865,001,2023-06-06_13h49.48.792,Unsyncopated1,2022.2.5,Win32,59.73715651,,,,,,,,,,,,,,,,,,,,,,,,,,,0,2,2,1,1,Online_conjL4_syn//bJA5.none.wav,none,,,,,,,,,,,,,,,,,,,,,,,,,,,,,,,,,,,,,,,,,,,,
,,546865,001,2023-06-06_13h49.48.792,Unsyncopated1,2022.2.5,Win32,59.73715651,,,,,,,,,,,,,,,,,,,,,,,,,space,1.1358,0,3,3,2,1,Online_conjL4_syn//bJA6.666.wav,666,,,,,,,,,,,,,,,,,,,,,,,,,,,,,,,,,,,,,,,,,,,,
,,546865,001,2023-06-06_13h49.48.792,Unsyncopated1,2022.2.5,Win32,59.73715651,,,,,,,,,,,,,,,,,,,,,,,,,,,,,,,,,,0,8,8,16,1,ja,36:40,green,,,,,,,,,,,,,,,,,,,,,,,,,,,,,,,,,,,,
,,546865,001,2023-06-06_13h49.48.792,Unsyncopated1,2022.2.5,Win32,59.73715651,,,,,,,,,,,,,,,,,,,,,,,,,,,0,0,0,0,1,Online_conjL4_syn//dPE16.none.wav,none,,,,,,,,,,,,,,,,,,,,,,,,,,,,,,,,,,,,,,,,,,,,
,,546865,001,2023-06-06_13h49.48.792,Unsyncopated1,2022.2.5,Win32,59.73715651,,,,,,,,,,,,,,,,,,,,,,,,,,,0,1,1,1,1,Online_conjL4_syn//dPE17.none.wav,none,,,,,,,,,,,,,,,,,,,,,,,,,,,,,,,,,,,,,,,,,,,,
,,546865,001,2023-06-06_13h49.48.792,Unsyncopated1,2022.2.5,Win32,59.73715651,,,,,,,,,,,,,,,,,,,,,,,,,space,0.4671,0,2,2,3,1,Online_conjL4_syn//dPE19.0.wav,0,,,,,,,,,,,,,,,,,,,,,,,,,,,,,,,,,,,,,,,,,,,,
,,546865,001,2023-06-06_13h49.48.792,Unsyncopated1,2022.2.5,Win32,59.73715651,,,,,,,,,,,,,,,,,,,,,,,,,,,0,3,3,2,1,Online_conjL4_syn//dPE18.none.wav,none,,,,,,,,,,,,,,,,,,,,,,,,,,,,,,,,,,,,,,,,,,,,
,,546865,001,2023-06-06_13h49.48.792,Unsyncopated1,2022.2.5,Win32,59.73715651,,,,,,,,,,,,,,,,,,,,,,,,,,,,,,,,,,0,9,9,1,1,pe,112:116,red,,,,,,,,,,,,,,,,,,,,,,,,,,,,,,,,,,,,
,,546865,001,2023-06-06_13h49.48.792,Unsyncopated1,2022.2.5,Win32,59.73715651,,,,,,,,,,,,,,,,,,,,,,,,,,,0,0,0,1,1,Online_conjL4_syn//aLO13.none.wav,none,,,,,,,,,,,,,,,,,,,,,,,,,,,,,,,,,,,,,,,,,,,,
,,546865,001,2023-06-06_13h49.48.792,Unsyncopated1,2022.2.5,Win32,59.73715651,,,,,,,,,,,,,,,,,,,,,,,,,space,2.0361,0,1,1,2,1,Online_conjL4_syn//aLO14.1554.wav,1554,,,,,,,,,,,,,,,,,,,,,,,,,,,,,,,,,,,,,,,,,,,,
,,546865,001,2023-06-06_13h49.48.792,Unsyncopated1,2022.2.5,Win32,59.73715651,,,,,,,,,,,,,,,,,,,,,,,,,,,0,2,2,3,1,Online_conjL4_syn//aLO15.none.wav,none,,,,,,,,,,,,,,,,,,,,,,,,,,,,,,,,,,,,,,,,,,,,
,,546865,001,2023-06-06_13h49.48.792,Unsyncopated1,2022.2.5,Win32,59.73715651,,,,,,,,,,,,,,,,,,,,,,,,,space,1.0681,0,3,3,0,1,Online_conjL4_syn//aLO12.666.wav,666,,,,,,,,,,,,,,,,,,,,,,,,,,,,,,,,,,,,,,,,,,,,
,,546865,001,2023-06-06_13h49.48.792,Unsyncopated1,2022.2.5,Win32,59.73715651,,,,,,,,,,,,,,,,,,,,,,,,,,,,,,,,,,0,10,10,15,1,lo,12:16,blue,,,,,,,,,,,,,,,,,,,,,,,,,,,,,,,,,,,,
,,546865,001,2023-06-06_13h49.48.792,Unsyncopated1,2022.2.5,Win32,59.73715651,,,,,,,,,,,,,,,,,,,,,,,,,,,0,0,0,3,1,Online_conjL4_syn//bJA15.none.wav,none,,,,,,,,,,,,,,,,,,,,,,,,,,,,,,,,,,,,,,,,,,,,
,,546865,001,2023-06-06_13h49.48.792,Unsyncopated1,2022.2.5,Win32,59.73715651,,,,,,,,,,,,,,,,,,,,,,,,,,,0,1,1,0,1,Online_conjL4_syn//bJA12.666.wav,666,,,,,,,,,,,,,,,,,,,,,,,,,,,,,,,,,,,,,,,,,,,,
,,546865,001,2023-06-06_13h49.48.792,Unsyncopated1,2022.2.5,Win32,59.73715651,,,,,,,,,,,,,,,,,,,,,,,,,,,0,2,2,2,1,Online_conjL4_syn//bJA14.none.wav,none,,,,,,,,,,,,,,,,,,,,,,,,,,,,,,,,,,,,,,,,,,,,
,,546865,001,2023-06-06_13h49.48.792,Unsyncopated1,2022.2.5,Win32,59.73715651,,,,,,,,,,,,,,,,,,,,,,,,,,,0,3,3,1,1,Online_conjL4_syn//bJA13.none.wav,none,,,,,,,,,,,,,,,,,,,,,,,,,,,,,,,,,,,,,,,,,,,,
,,546865,001,2023-06-06_13h49.48.792,Unsyncopated1,2022.2.5,Win32,59.73715651,,,,,,,,,,,,,,,,,,,,,,,,,,,,,,,,,,0,11,11,19,1,ja,44:48,green,,,,,,,,,,,,,,,,,,,,,,,,,,,,,,,,,,,,
,,546865,001,2023-06-06_13h49.48.792,Unsyncopated1,2022.2.5,Win32,59.73715651,,,,,,,,,,,,,,,,,,,,,,,,,,,0,0,0,2,1,Online_conjL4_syn//dPE2.none.wav,none,,,,,,,,,,,,,,,,,,,,,,,,,,,,,,,,,,,,,,,,,,,,
,,546865,001,2023-06-06_13h49.48.792,Unsyncopated1,2022.2.5,Win32,59.73715651,,,,,,,,,,,,,,,,,,,,,,,,,,,0,1,1,3,1,Online_conjL4_syn//dPE3.none.wav,none,,,,,,,,,,,,,,,,,,,,,,,,,,,,,,,,,,,,,,,,,,,,
,,546865,001,2023-06-06_13h49.48.792,Unsyncopated1,2022.2.5,Win32,59.73715651,,,,,,,,,,,,,,,,,,,,,,,,,,,0,2,2,1,1,Online_conjL4_syn//dPE1.none.wav,none,,,,,,,,,,,,,,,,,,,,,,,,,,,,,,,,,,,,,,,,,,,,
,,546865,001,2023-06-06_13h49.48.792,Unsyncopated1,2022.2.5,Win32,59.73715651,,,,,,,,,,,,,,,,,,,,,,,,,space,2.1416,0,3,3,0,1,Online_conjL4_syn//dPE0.1554.wav,1554,,,,,,,,,,,,,,,,,,,,,,,,,,,,,,,,,,,,,,,,,,,,
,,546865,001,2023-06-06_13h49.48.792,Unsyncopated1,2022.2.5,Win32,59.73715651,,,,,,,,,,,,,,,,,,,,,,,,,,,,,,,,,,0,12,12,29,1,pe,96:100,red,,,,,,,,,,,,,,,,,,,,,,,,,,,,,,,,,,,,
,,546865,001,2023-06-06_13h49.48.792,Unsyncopated1,2022.2.5,Win32,59.73715651,,,,,,,,,,,,,,,,,,,,,,,,,,,0,0,0,2,1,Online_conjL4_syn//dPE6.none.wav,none,,,,,,,,,,,,,,,,,,,,,,,,,,,,,,,,,,,,,,,,,,,,
,,546865,001,2023-06-06_13h49.48.792,Unsyncopated1,2022.2.5,Win32,59.73715651,,,,,,,,,,,,,,,,,,,,,,,,,,,0,1,1,0,1,Online_conjL4_syn//dPE4.none.wav,none,,,,,,,,,,,,,,,,,,,,,,,,,,,,,,,,,,,,,,,,,,,,
,,546865,001,2023-06-06_13h49.48.792,Unsyncopated1,2022.2.5,Win32,59.73715651,,,,,,,,,,,,,,,,,,,,,,,,,,,0,2,2,1,1,Online_conjL4_syn//dPE5.none.wav,none,,,,,,,,,,,,,,,,,,,,,,,,,,,,,,,,,,,,,,,,,,,,
,,546865,001,2023-06-06_13h49.48.792,Unsyncopated1,2022.2.5,Win32,59.73715651,,,,,,,,,,,,,,,,,,,,,,,,,space,0.7037,0,3,3,3,1,Online_conjL4_syn//dPE7.222.wav,222,,,,,,,,,,,,,,,,,,,,,,,,,,,,,,,,,,,,,,,,,,,,
,,546865,001,2023-06-06_13h49.48.792,Unsyncopated1,2022.2.5,Win32,59.73715651,,,,,,,,,,,,,,,,,,,,,,,,,,,,,,,,,,0,13,13,9,1,pe,100:104,red,,,,,,,,,,,,,,,,,,,,,,,,,,,,,,,,,,,,
,,546865,001,2023-06-06_13h49.48.792,Unsyncopated1,2022.2.5,Win32,59.73715651,,,,,,,,,,,,,,,,,,,,,,,,,,,0,0,0,2,1,Online_conjL4_syn//aLO30.666.wav,666,,,,,,,,,,,,,,,,,,,,,,,,,,,,,,,,,,,,,,,,,,,,
,,546865,001,2023-06-06_13h49.48.792,Unsyncopated1,2022.2.5,Win32,59.73715651,,,,,,,,,,,,,,,,,,,,,,,,,space,2.017,0,1,1,0,1,Online_conjL4_syn//aLO28.1554.wav,1554,,,,,,,,,,,,,,,,,,,,,,,,,,,,,,,,,,,,,,,,,,,,
,,546865,001,2023-06-06_13h49.48.792,Unsyncopated1,2022.2.5,Win32,59.73715651,,,,,,,,,,,,,,,,,,,,,,,,,,,0,2,2,3,1,Online_conjL4_syn//aLO31.none.wav,none,,,,,,,,,,,,,,,,,,,,,,,,,,,,,,,,,,,,,,,,,,,,
,,546865,001,2023-06-06_13h49.48.792,Unsyncopated1,2022.2.5,Win32,59.73715651,,,,,,,,,,,,,,,,,,,,,,,,,space,2.1524,0,3,3,1,1,Online_conjL4_syn//aLO29.1554.wav,1554,,,,,,,,,,,,,,,,,,,,,,,,,,,,,,,,,,,,,,,,,,,,
,,546865,001,2023-06-06_13h49.48.792,Unsyncopated1,2022.2.5,Win32,59.73715651,,,,,,,,,,,,,,,,,,,,,,,,,,,,,,,,,,0,14,14,6,1,lo,28:32,blue,,,,,,,,,,,,,,,,,,,,,,,,,,,,,,,,,,,,
,,546865,001,2023-06-06_13h49.48.792,Unsyncopated1,2022.2.5,Win32,59.73715651,,,,,,,,,,,,,,,,,,,,,,,,,,,0,0,0,2,1,Online_conjL4_syn//bJA26.none.wav,none,,,,,,,,,,,,,,,,,,,,,,,,,,,,,,,,,,,,,,,,,,,,
,,546865,001,2023-06-06_13h49.48.792,Unsyncopated1,2022.2.5,Win32,59.73715651,,,,,,,,,,,,,,,,,,,,,,,,,,,0,1,1,1,1,Online_conjL4_syn//bJA25.none.wav,none,,,,,,,,,,,,,,,,,,,,,,,,,,,,,,,,,,,,,,,,,,,,
,,546865,001,2023-06-06_13h49.48.792,Unsyncopated1,2022.2.5,Win32,59.73715651,,,,,,,,,,,,,,,,,,,,,,,,,space,1.1172,0,2,2,3,1,Online_conjL4_syn//bJA27.666.wav,666,,,,,,,,,,,,,,,,,,,,,,,,,,,,,,,,,,,,,,,,,,,,
,,546865,001,2023-06-06_13h49.48.792,Unsyncopated1,2022.2.5,Win32,59.73715651,,,,,,,,,,,,,,,,,,,,,,,,,space,1.1723,0,3,3,0,1,Online_conjL4_syn//bJA24.0.wav,0,,,,,,,,,,,,,,,,,,,,,,,,,,,,,,,,,,,,,,,,,,,,
,,546865,001,2023-06-06_13h49.48.792,Unsyncopated1,2022.2.5,Win32,59.73715651,,,,,,,,,,,,,,,,,,,,,,,,,,,,,,,,,,0,15,15,4,1,ja,56:60,green,,,,,,,,,,,,,,,,,,,,,,,,,,,,,,,,,,,,
,,546865,001,2023-06-06_13h49.48.792,Unsyncopated1,2022.2.5,Win32,59.73715651,,,,,,,,,,,,,,,,,,,,,,,,,space,0.8061,0,0,0,3,1,Online_conjL4_syn//cBU31.444.wav,444,,,,,,,,,,,,,,,,,,,,,,,,,,,,,,,,,,,,,,,,,,,,
,,546865,001,2023-06-06_13h49.48.792,Unsyncopated1,2022.2.5,Win32,59.73715651,,,,,,,,,,,,,,,,,,,,,,,,,,,0,1,1,0,1,Online_conjL4_syn//cBU28.none.wav,none,,,,,,,,,,,,,,,,,,,,,,,,,,,,,,,,,,,,,,,,,,,,
,,546865,001,2023-06-06_13h49.48.792,Unsyncopated1,2022.2.5,Win32,59.73715651,,,,,,,,,,,,,,,,,,,,,,,,,,,0,2,2,2,1,Online_conjL4_syn//cBU30.0.wav,0,,,,,,,,,,,,,,,,,,,,,,,,,,,,,,,,,,,,,,,,,,,,
,,546865,001,2023-06-06_13h49.48.792,Unsyncopated1,2022.2.5,Win32,59.73715651,,,,,,,,,,,,,,,,,,,,,,,,,,,0,3,3,1,1,Online_conjL4_syn//cBU29.none.wav,none,,,,,,,,,,,,,,,,,,,,,,,,,,,,,,,,,,,,,,,,,,,,
,,546865,001,2023-06-06_13h49.48.792,Unsyncopated1,2022.2.5,Win32,59.73715651,,,,,,,,,,,,,,,,,,,,,,,,,,,,,,,,,,0,16,16,22,1,bu,92:96,orange,,,,,,,,,,,,,,,,,,,,,,,,,,,,,,,,,,,,
,,546865,001,2023-06-06_13h49.48.792,Unsyncopated1,2022.2.5,Win32,59.73715651,,,,,,,,,,,,,,,,,,,,,,,,,,,0,0,0,2,1,Online_conjL4_syn//aLO2.none.wav,none,,,,,,,,,,,,,,,,,,,,,,,,,,,,,,,,,,,,,,,,,,,,
,,546865,001,2023-06-06_13h49.48.792,Unsyncopated1,2022.2.5,Win32,59.73715651,,,,,,,,,,,,,,,,,,,,,,,,,,,0,1,1,3,1,Online_conjL4_syn//aLO3.none.wav,none,,,,,,,,,,,,,,,,,,,,,,,,,,,,,,,,,,,,,,,,,,,,
,,546865,001,2023-06-06_13h49.48.792,Unsyncopated1,2022.2.5,Win32,59.73715651,,,,,,,,,,,,,,,,,,,,,,,,,,,0,2,2,0,1,Online_conjL4_syn//aLO0.none.wav,none,,,,,,,,,,,,,,,,,,,,,,,,,,,,,,,,,,,,,,,,,,,,
,,546865,001,2023-06-06_13h49.48.792,Unsyncopated1,2022.2.5,Win32,59.73715651,,,,,,,,,,,,,,,,,,,,,,,,,space,2.5054,0,3,3,1,1,Online_conjL4_syn//aLO1.1554.wav,1554,,,,,,,,,,,,,,,,,,,,,,,,,,,,,,,,,,,,,,,,,,,,
,,546865,001,2023-06-06_13h49.48.792,Unsyncopated1,2022.2.5,Win32,59.73715651,,,,,,,,,,,,,,,,,,,,,,,,,,,,,,,,,,0,17,17,13,1,lo,0:4,blue,,,,,,,,,,,,,,,,,,,,,,,,,,,,,,,,,,,,
,,546865,001,2023-06-06_13h49.48.792,Unsyncopated1,2022.2.5,Win32,59.73715651,,,,,,,,,,,,,,,,,,,,,,,,,,,0,0,0,1,1,Online_conjL4_syn//cBU5.none.wav,none,,,,,,,,,,,,,,,,,,,,,,,,,,,,,,,,,,,,,,,,,,,,
,,546865,001,2023-06-06_13h49.48.792,Unsyncopated1,2022.2.5,Win32,59.73715651,,,,,,,,,,,,,,,,,,,,,,,,,,,0,1,1,3,1,Online_conjL4_syn//cBU7.none.wav,none,,,,,,,,,,,,,,,,,,,,,,,,,,,,,,,,,,,,,,,,,,,,
,,546865,001,2023-06-06_13h49.48.792,Unsyncopated1,2022.2.5,Win32,59.73715651,,,,,,,,,,,,,,,,,,,,,,,,,space,2.1213,0,2,2,2,1,Online_conjL4_syn//cBU6.none.wav,none,,,,,,,,,,,,,,,,,,,,,,,,,,,,,,,,,,,,,,,,,,,,
,,546865,001,2023-06-06_13h49.48.792,Unsyncopated1,2022.2.5,Win32,59.73715651,,,,,,,,,,,,,,,,,,,,,,,,,,,0,3,3,0,1,Online_conjL4_syn//cBU4.none.wav,none,,,,,,,,,,,,,,,,,,,,,,,,,,,,,,,,,,,,,,,,,,,,
,,546865,001,2023-06-06_13h49.48.792,Unsyncopated1,2022.2.5,Win32,59.73715651,,,,,,,,,,,,,,,,,,,,,,,,,,,,,,,,,,0,18,18,18,1,bu,68:72,orange,,,,,,,,,,,,,,,,,,,,,,,,,,,,,,,,,,,,
,,546865,001,2023-06-06_13h49.48.792,Unsyncopated1,2022.2.5,Win32,59.73715651,,,,,,,,,,,,,,,,,,,,,,,,,space,2.6048,0,0,0,2,1,Online_conjL4_syn//cBU26.222.wav,222,,,,,,,,,,,,,,,,,,,,,,,,,,,,,,,,,,,,,,,,,,,,
,,546865,001,2023-06-06_13h49.48.792,Unsyncopated1,2022.2.5,Win32,59.73715651,,,,,,,,,,,,,,,,,,,,,,,,,,,0,1,1,3,1,Online_conjL4_syn//cBU27.none.wav,none,,,,,,,,,,,,,,,,,,,,,,,,,,,,,,,,,,,,,,,,,,,,
,,546865,001,2023-06-06_13h49.48.792,Unsyncopated1,2022.2.5,Win32,59.73715651,,,,,,,,,,,,,,,,,,,,,,,,,,,0,2,2,1,1,Online_conjL4_syn//cBU25.none.wav,none,,,,,,,,,,,,,,,,,,,,,,,,,,,,,,,,,,,,,,,,,,,,
,,546865,001,2023-06-06_13h49.48.792,Unsyncopated1,2022.2.5,Win32,59.73715651,,,,,,,,,,,,,,,,,,,,,,,,,space,0.9351,0,3,3,0,1,Online_conjL4_syn//cBU24.444.wav,444,,,,,,,,,,,,,,,,,,,,,,,,,,,,,,,,,,,,,,,,,,,,
,,546865,001,2023-06-06_13h49.48.792,Unsyncopated1,2022.2.5,Win32,59.73715651,,,,,,,,,,,,,,,,,,,,,,,,,,,,,,,,,,0,19,19,8,1,bu,88:92,orange,,,,,,,,,,,,,,,,,,,,,,,,,,,,,,,,,,,,
,,546865,001,2023-06-06_13h49.48.792,Unsyncopated1,2022.2.5,Win32,59.73715651,,,,,,,,,,,,,,,,,,,,,,,,,space,1.1168,0,0,0,2,1,Online_conjL4_syn//bJA2.666.wav,666,,,,,,,,,,,,,,,,,,,,,,,,,,,,,,,,,,,,,,,,,,,,
,,546865,001,2023-06-06_13h49.48.792,Unsyncopated1,2022.2.5,Win32,59.73715651,,,,,,,,,,,,,,,,,,,,,,,,,space,1.8695,0,1,1,1,1,Online_conjL4_syn//bJA1.666.wav,666,,,,,,,,,,,,,,,,,,,,,,,,,,,,,,,,,,,,,,,,,,,,
,,546865,001,2023-06-06_13h49.48.792,Unsyncopated1,2022.2.5,Win32,59.73715651,,,,,,,,,,,,,,,,,,,,,,,,,space,0.5178,0,2,2,0,1,Online_conjL4_syn//bJA0.0.wav,0,,,,,,,,,,,,,,,,,,,,,,,,,,,,,,,,,,,,,,,,,,,,
,,546865,001,2023-06-06_13h49.48.792,Unsyncopated1,2022.2.5,Win32,59.73715651,,,,,,,,,,,,,,,,,,,,,,,,,space,0.4682,0,3,3,3,1,Online_conjL4_syn//bJA3.0.wav,0,,,,,,,,,,,,,,,,,,,,,,,,,,,,,,,,,,,,,,,,,,,,
,,546865,001,2023-06-06_13h49.48.792,Unsyncopated1,2022.2.5,Win32,59.73715651,,,,,,,,,,,,,,,,,,,,,,,,,,,,,,,,,,0,20,20,28,1,ja,32:36,green,,,,,,,,,,,,,,,,,,,,,,,,,,,,,,,,,,,,
,,546865,001,2023-06-06_13h49.48.792,Unsyncopated1,2022.2.5,Win32,59.73715651,,,,,,,,,,,,,,,,,,,,,,,,,,,0,0,0,1,1,Online_conjL4_syn//cBU21.none.wav,none,,,,,,,,,,,,,,,,,,,,,,,,,,,,,,,,,,,,,,,,,,,,
,,546865,001,2023-06-06_13h49.48.792,Unsyncopated1,2022.2.5,Win32,59.73715651,,,,,,,,,,,,,,,,,,,,,,,,,,,0,1,1,3,1,Online_conjL4_syn//cBU23.none.wav,none,,,,,,,,,,,,,,,,,,,,,,,,,,,,,,,,,,,,,,,,,,,,
,,546865,001,2023-06-06_13h49.48.792,Unsyncopated1,2022.2.5,Win32,59.73715651,,,,,,,,,,,,,,,,,,,,,,,,,space,0.8957,0,2,2,2,1,Online_conjL4_syn//cBU22.0.wav,0,,,,,,,,,,,,,,,,,,,,,,,,,,,,,,,,,,,,,,,,,,,,
,,546865,001,2023-06-06_13h49.48.792,Unsyncopated1,2022.2.5,Win32,59.73715651,,,,,,,,,,,,,,,,,,,,,,,,,,,0,3,3,0,1,Online_conjL4_syn//cBU20.none.wav,none,,,,,,,,,,,,,,,,,,,,,,,,,,,,,,,,,,,,,,,,,,,,
,,546865,001,2023-06-06_13h49.48.792,Unsyncopated1,2022.2.5,Win32,59.73715651,,,,,,,,,,,,,,,,,,,,,,,,,,,,,,,,,,0,21,21,3,1,bu,84:88,orange,,,,,,,,,,,,,,,,,,,,,,,,,,,,,,,,,,,,
,,546865,001,2023-06-06_13h49.48.792,Unsyncopated1,2022.2.5,Win32,59.73715651,,,,,,,,,,,,,,,,,,,,,,,,,space,1.2626,0,0,0,0,1,Online_conjL4_syn//cBU0.444.wav,444,,,,,,,,,,,,,,,,,,,,,,,,,,,,,,,,,,,,,,,,,,,,
,,546865,001,2023-06-06_13h49.48.792,Unsyncopated1,2022.2.5,Win32,59.73715651,,,,,,,,,,,,,,,,,,,,,,,,,,,0,1,1,3,1,Online_conjL4_syn//cBU3.444.wav,444,,,,,,,,,,,,,,,,,,,,,,,,,,,,,,,,,,,,,,,,,,,,
,,546865,001,2023-06-06_13h49.48.792,Unsyncopated1,2022.2.5,Win32,59.73715651,,,,,,,,,,,,,,,,,,,,,,,,,,,0,2,2,2,1,Online_conjL4_syn//cBU2.1332.wav,1332,,,,,,,,,,,,,,,,,,,,,,,,,,,,,,,,,,,,,,,,,,,,
,,546865,001,2023-06-06_13h49.48.792,Unsyncopated1,2022.2.5,Win32,59.73715651,,,,,,,,,,,,,,,,,,,,,,,,,,,0,3,3,1,1,Online_conjL4_syn//cBU1.444.wav,444,,,,,,,,,,,,,,,,,,,,,,,,,,,,,,,,,,,,,,,,,,,,
,,546865,001,2023-06-06_13h49.48.792,Unsyncopated1,2022.2.5,Win32,59.73715651,,,,,,,,,,,,,,,,,,,,,,,,,,,,,,,,,,0,22,22,23,1,bu,64:68,orange,,,,,,,,,,,,,,,,,,,,,,,,,,,,,,,,,,,,
,,546865,001,2023-06-06_13h49.48.792,Unsyncopated1,2022.2.5,Win32,59.73715651,,,,,,,,,,,,,,,,,,,,,,,,,space,1.7413,0,0,0,0,1,Online_conjL4_syn//dPE8.1332.wav,1332,,,,,,,,,,,,,,,,,,,,,,,,,,,,,,,,,,,,,,,,,,,,
,,546865,001,2023-06-06_13h49.48.792,Unsyncopated1,2022.2.5,Win32,59.73715651,,,,,,,,,,,,,,,,,,,,,,,,,space,2.0908,0,1,1,2,1,Online_conjL4_syn//dPE10.1110.wav,1110,,,,,,,,,,,,,,,,,,,,,,,,,,,,,,,,,,,,,,,,,,,,
,,546865,001,2023-06-06_13h49.48.792,Unsyncopated1,2022.2.5,Win32,59.73715651,,,,,,,,,,,,,,,,,,,,,,,,,space,1.5531,0,2,2,3,1,Online_conjL4_syn//dPE11.1110.wav,1110,,,,,,,,,,,,,,,,,,,,,,,,,,,,,,,,,,,,,,,,,,,,
,,546865,001,2023-06-06_13h49.48.792,Unsyncopated1,2022.2.5,Win32,59.73715651,,,,,,,,,,,,,,,,,,,,,,,,,space,1.068,0,3,3,1,1,Online_conjL4_syn//dPE9.444.wav,444,,,,,,,,,,,,,,,,,,,,,,,,,,,,,,,,,,,,,,,,,,,,
,,546865,001,2023-06-06_13h49.48.792,Unsyncopated1,2022.2.5,Win32,59.73715651,,,,,,,,,,,,,,,,,,,,,,,,,,,,,,,,,,0,23,23,27,1,pe,104:108,red,,,,,,,,,,,,,,,,,,,,,,,,,,,,,,,,,,,,
,,546865,001,2023-06-06_13h49.48.792,Unsyncopated1,2022.2.5,Win32,59.73715651,,,,,,,,,,,,,,,,,,,,,,,,,space,0.8981,0,0,0,1,1,Online_conjL4_syn//dPE29.1110.wav,1110,,,,,,,,,,,,,,,,,,,,,,,,,,,,,,,,,,,,,,,,,,,,
,,546865,001,2023-06-06_13h49.48.792,Unsyncopated1,2022.2.5,Win32,59.73715651,,,,,,,,,,,,,,,,,,,,,,,,,space,1.5185,0,1,1,3,1,Online_conjL4_syn//dPE31.1332.wav,1332,,,,,,,,,,,,,,,,,,,,,,,,,,,,,,,,,,,,,,,,,,,,
,,546865,001,2023-06-06_13h49.48.792,Unsyncopated1,2022.2.5,Win32,59.73715651,,,,,,,,,,,,,,,,,,,,,,,,,,,0,2,2,2,1,Online_conjL4_syn//dPE30.222.wav,222,,,,,,,,,,,,,,,,,,,,,,,,,,,,,,,,,,,,,,,,,,,,
,,546865,001,2023-06-06_13h49.48.792,Unsyncopated1,2022.2.5,Win32,59.73715651,,,,,,,,,,,,,,,,,,,,,,,,,,,0,3,3,0,1,Online_conjL4_syn//dPE28.none.wav,none,,,,,,,,,,,,,,,,,,,,,,,,,,,,,,,,,,,,,,,,,,,,
,,546865,001,2023-06-06_13h49.48.792,Unsyncopated1,2022.2.5,Win32,59.73715651,,,,,,,,,,,,,,,,,,,,,,,,,,,,,,,,,,0,24,24,20,1,pe,124:128,red,,,,,,,,,,,,,,,,,,,,,,,,,,,,,,,,,,,,
,,546865,001,2023-06-06_13h49.48.792,Unsyncopated1,2022.2.5,Win32,59.73715651,,,,,,,,,,,,,,,,,,,,,,,,,,,0,0,0,3,1,Online_conjL4_syn//aLO23.none.wav,none,,,,,,,,,,,,,,,,,,,,,,,,,,,,,,,,,,,,,,,,,,,,
,,546865,001,2023-06-06_13h49.48.792,Unsyncopated1,2022.2.5,Win32,59.73715651,,,,,,,,,,,,,,,,,,,,,,,,,space,1.2032,0,1,1,0,1,Online_conjL4_syn//aLO20.666.wav,666,,,,,,,,,,,,,,,,,,,,,,,,,,,,,,,,,,,,,,,,,,,,
,,546865,001,2023-06-06_13h49.48.792,Unsyncopated1,2022.2.5,Win32,59.73715651,,,,,,,,,,,,,,,,,,,,,,,,,space,1.1199,0,2,2,1,1,Online_conjL4_syn//aLO21.666.wav,666,,,,,,,,,,,,,,,,,,,,,,,,,,,,,,,,,,,,,,,,,,,,
,,546865,001,2023-06-06_13h49.48.792,Unsyncopated1,2022.2.5,Win32,59.73715651,,,,,,,,,,,,,,,,,,,,,,,,,,,0,3,3,2,1,Online_conjL4_syn//aLO22.none.wav,none,,,,,,,,,,,,,,,,,,,,,,,,,,,,,,,,,,,,,,,,,,,,
,,546865,001,2023-06-06_13h49.48.792,Unsyncopated1,2022.2.5,Win32,59.73715651,,,,,,,,,,,,,,,,,,,,,,,,,,,,,,,,,,0,25,25,31,1,lo,20:24,blue,,,,,,,,,,,,,,,,,,,,,,,,,,,,,,,,,,,,
,,546865,001,2023-06-06_13h49.48.792,Unsyncopated1,2022.2.5,Win32,59.73715651,,,,,,,,,,,,,,,,,,,,,,,,,,,0,0,0,2,1,Online_conjL4_syn//aLO18.none.wav,none,,,,,,,,,,,,,,,,,,,,,,,,,,,,,,,,,,,,,,,,,,,,
,,546865,001,2023-06-06_13h49.48.792,Unsyncopated1,2022.2.5,Win32,59.73715651,,,,,,,,,,,,,,,,,,,,,,,,,,,0,1,1,3,1,Online_conjL4_syn//aLO19.none.wav,none,,,,,,,,,,,,,,,,,,,,,,,,,,,,,,,,,,,,,,,,,,,,
,,546865,001,2023-06-06_13h49.48.792,Unsyncopated1,2022.2.5,Win32,59.73715651,,,,,,,,,,,,,,,,,,,,,,,,,space,1.9015,0,2,2,0,1,Online_conjL4_syn//aLO16.1554.wav,1554,,,,,,,,,,,,,,,,,,,,,,,,,,,,,,,,,,,,,,,,,,,,
,,546865,001,2023-06-06_13h49.48.792,Unsyncopated1,2022.2.5,Win32,59.73715651,,,,,,,,,,,,,,,,,,,,,,,,,space,1.5823,0,3,3,1,1,Online_conjL4_syn//aLO17.666.wav,666,,,,,,,,,,,,,,,,,,,,,,,,,,,,,,,,,,,,,,,,,,,,
,,546865,001,2023-06-06_13h49.48.792,Unsyncopated1,2022.2.5,Win32,59.73715651,,,,,,,,,,,,,,,,,,,,,,,,,,,,,,,,,,0,26,26,17,1,lo,16:20,blue,,,,,,,,,,,,,,,,,,,,,,,,,,,,,,,,,,,,
,,546865,001,2023-06-06_13h49.48.792,Unsyncopated1,2022.2.5,Win32,59.73715651,,,,,,,,,,,,,,,,,,,,,,,,,,,0,0,0,3,1,Online_conjL4_syn//cBU19.none.wav,none,,,,,,,,,,,,,,,,,,,,,,,,,,,,,,,,,,,,,,,,,,,,
,,546865,001,2023-06-06_13h49.48.792,Unsyncopated1,2022.2.5,Win32,59.73715651,,,,,,,,,,,,,,,,,,,,,,,,,,,0,1,1,2,1,Online_conjL4_syn//cBU18.none.wav,none,,,,,,,,,,,,,,,,,,,,,,,,,,,,,,,,,,,,,,,,,,,,
,,546865,001,2023-06-06_13h49.48.792,Unsyncopated1,2022.2.5,Win32,59.73715651,,,,,,,,,,,,,,,,,,,,,,,,,space,1.6346,0,2,2,0,1,Online_conjL4_syn//cBU16.1110.wav,1110,,,,,,,,,,,,,,,,,,,,,,,,,,,,,,,,,,,,,,,,,,,,
,,546865,001,2023-06-06_13h49.48.792,Unsyncopated1,2022.2.5,Win32,59.73715651,,,,,,,,,,,,,,,,,,,,,,,,,space,1.8707,0,3,3,1,1,Online_conjL4_syn//cBU17.1332.wav,1332,,,,,,,,,,,,,,,,,,,,,,,,,,,,,,,,,,,,,,,,,,,,
,,546865,001,2023-06-06_13h49.48.792,Unsyncopated1,2022.2.5,Win32,59.73715651,,,,,,,,,,,,,,,,,,,,,,,,,,,,,,,,,,0,27,27,11,1,bu,80:84,orange,,,,,,,,,,,,,,,,,,,,,,,,,,,,,,,,,,,,
,,546865,001,2023-06-06_13h49.48.792,Unsyncopated1,2022.2.5,Win32,59.73715651,,,,,,,,,,,,,,,,,,,,,,,,,space,1.7664,0,0,0,0,1,Online_conjL4_syn//cBU8.1110.wav,1110,,,,,,,,,,,,,,,,,,,,,,,,,,,,,,,,,,,,,,,,,,,,
,,546865,001,2023-06-06_13h49.48.792,Unsyncopated1,2022.2.5,Win32,59.73715651,,,,,,,,,,,,,,,,,,,,,,,,,space,2.2044,0,1,1,2,1,Online_conjL4_syn//cBU10.1332.wav,1332,,,,,,,,,,,,,,,,,,,,,,,,,,,,,,,,,,,,,,,,,,,,
,,546865,001,2023-06-06_13h49.48.792,Unsyncopated1,2022.2.5,Win32,59.73715651,,,,,,,,,,,,,,,,,,,,,,,,,,,0,2,2,1,1,Online_conjL4_syn//cBU9.none.wav,none,,,,,,,,,,,,,,,,,,,,,,,,,,,,,,,,,,,,,,,,,,,,
,,546865,001,2023-06-06_13h49.48.792,Unsyncopated1,2022.2.5,Win32,59.73715651,,,,,,,,,,,,,,,,,,,,,,,,,,,0,3,3,3,1,Online_conjL4_syn//cBU11.none.wav,none,,,,,,,,,,,,,,,,,,,,,,,,,,,,,,,,,,,,,,,,,,,,
,,546865,001,2023-06-06_13h49.48.792,Unsyncopated1,2022.2.5,Win32,59.73715651,,,,,,,,,,,,,,,,,,,,,,,,,,,,,,,,,,0,28,28,14,1,bu,72:76,orange,,,,,,,,,,,,,,,,,,,,,,,,,,,,,,,,,,,,
,,546865,001,2023-06-06_13h49.48.792,Unsyncopated1,2022.2.5,Win32,59.73715651,,,,,,,,,,,,,,,,,,,,,,,,,space,0.8649,0,0,0,0,1,Online_conjL4_syn//dPE20.222.wav,222,,,,,,,,,,,,,,,,,,,,,,,,,,,,,,,,,,,,,,,,,,,,
,,546865,001,2023-06-06_13h49.48.792,Unsyncopated1,2022.2.5,Win32,59.73715651,,,,,,,,,,,,,,,,,,,,,,,,,space,0.8693,0,1,1,2,1,Online_conjL4_syn//dPE22.222.wav,222,,,,,,,,,,,,,,,,,,,,,,,,,,,,,,,,,,,,,,,,,,,,
,,546865,001,2023-06-06_13h49.48.792,Unsyncopated1,2022.2.5,Win32,59.73715651,,,,,,,,,,,,,,,,,,,,,,,,,,,0,2,2,3,1,Online_conjL4_syn//dPE23.none.wav,none,,,,,,,,,,,,,,,,,,,,,,,,,,,,,,,,,,,,,,,,,,,,
,,546865,001,2023-06-06_13h49.48.792,Unsyncopated1,2022.2.5,Win32,59.73715651,,,,,,,,,,,,,,,,,,,,,,,,,space,2.0341,0,3,3,1,1,Online_conjL4_syn//dPE21.1554.wav,1554,,,,,,,,,,,,,,,,,,,,,,,,,,,,,,,,,,,,,,,,,,,,
,,546865,001,2023-06-06_13h49.48.792,Unsyncopated1,2022.2.5,Win32,59.73715651,,,,,,,,,,,,,,,,,,,,,,,,,,,,,,,,,,0,29,29,25,1,pe,116:120,red,,,,,,,,,,,,,,,,,,,,,,,,,,,,,,,,,,,,
,,546865,001,2023-06-06_13h49.48.792,Unsyncopated1,2022.2.5,Win32,59.73715651,,,,,,,,,,,,,,,,,,,,,,,,,space,1.7188,0,0,0,3,1,Online_conjL4_syn//bJA19.666.wav,666,,,,,,,,,,,,,,,,,,,,,,,,,,,,,,,,,,,,,,,,,,,,
,,546865,001,2023-06-06_13h49.48.792,Unsyncopated1,2022.2.5,Win32,59.73715651,,,,,,,,,,,,,,,,,,,,,,,,,,,0,1,1,1,1,Online_conjL4_syn//bJA17.none.wav,none,,,,,,,,,,,,,,,,,,,,,,,,,,,,,,,,,,,,,,,,,,,,
,,546865,001,2023-06-06_13h49.48.792,Unsyncopated1,2022.2.5,Win32,59.73715651,,,,,,,,,,,,,,,,,,,,,,,,,,,0,2,2,0,1,Online_conjL4_syn//bJA16.none.wav,none,,,,,,,,,,,,,,,,,,,,,,,,,,,,,,,,,,,,,,,,,,,,
,,546865,001,2023-06-06_13h49.48.792,Unsyncopated1,2022.2.5,Win32,59.73715651,,,,,,,,,,,,,,,,,,,,,,,,,,,0,3,3,2,1,Online_conjL4_syn//bJA18.none.wav,none,,,,,,,,,,,,,,,,,,,,,,,,,,,,,,,,,,,,,,,,,,,,
,,546865,001,2023-06-06_13h49.48.792,Unsyncopated1,2022.2.5,Win32,59.73715651,,,,,,,,,,,,,,,,,,,,,,,,,,,,,,,,,,0,30,30,12,1,ja,48:52,green,,,,,,,,,,,,,,,,,,,,,,,,,,,,,,,,,,,,
,,546865,001,2023-06-06_13h49.48.792,Unsyncopated1,2022.2.5,Win32,59.73715651,,,,,,,,,,,,,,,,,,,,,,,,,,,0,0,0,2,1,Online_conjL4_syn//cBU14.none.wav,none,,,,,,,,,,,,,,,,,,,,,,,,,,,,,,,,,,,,,,,,,,,,
,,546865,001,2023-06-06_13h49.48.792,Unsyncopated1,2022.2.5,Win32,59.73715651,,,,,,,,,,,,,,,,,,,,,,,,,space,0.5706,0,1,1,1,1,Online_conjL4_syn//cBU13.0.wav,0,,,,,,,,,,,,,,,,,,,,,,,,,,,,,,,,,,,,,,,,,,,,
,,546865,001,2023-06-06_13h49.48.792,Unsyncopated1,2022.2.5,Win32,59.73715651,,,,,,,,,,,,,,,,,,,,,,,,,space,1.2859,0,2,2,0,1,Online_conjL4_syn//cBU12.222.wav,222,,,,,,,,,,,,,,,,,,,,,,,,,,,,,,,,,,,,,,,,,,,,
,,546865,001,2023-06-06_13h49.48.792,Unsyncopated1,2022.2.5,Win32,59.73715651,,,,,,,,,,,,,,,,,,,,,,,,,,,0,3,3,3,1,Online_conjL4_syn//cBU15.222.wav,222,,,,,,,,,,,,,,,,,,,,,,,,,,,,,,,,,,,,,,,,,,,,
,,546865,001,2023-06-06_13h49.48.792,Unsyncopated1,2022.2.5,Win32,59.73715651,,,,,,,,,,,,,,,,,,,,,,,,,,,,,,,,,,0,31,31,30,1,bu,76:80,orange,,,,,,,,,,,,,,,,,,,,,,,,,,,,,,,,,,,,
,,546865,001,2023-06-06_13h49.48.792,Unsyncopated1,2022.2.5,Win32,59.73715651,,,,,,,,,,,,,,,,,,,,,,,,,,,,,,,,,,,,,,,,,,space,2.1085,space,1.7998,z,1.319,3,0.7993,0,0,0,5,1,testConjL4Syn//dep_viol.r1.s2.0.wav,,,,,,,,,,,,,,,,,,,,,,
,,546865,001,2023-06-06_13h49.48.792,Unsyncopated1,2022.2.5,Win32,59.73715651,,,,,,,,,,,,,,,,,,,,,,,,,,,,,,,,,,,,,,,,,,,,,,z,0.3344,1,0.4501,0,1,1,23,1,testConjL4Syn//time_viol.r2.s2.0.wav,,,,,,,,,,,,,,,,,,,,,,
,,546865,001,2023-06-06_13h49.48.792,Unsyncopated1,2022.2.5,Win32,59.73715651,,,,,,,,,,,,,,,,,,,,,,,,,,,,,,,,,,,,,,,,,,,,,,z,0.3812,4,0.3334,0,2,2,0,1,testConjL4Syn//cat_viol.r1.s1.0.wav,,,,,,,,,,,,,,,,,,,,,,
,,546865,001,2023-06-06_13h49.48.792,Unsyncopated1,2022.2.5,Win32,59.73715651,,,,,,,,,,,,,,,,,,,,,,,,,,,,,,,,,,,,,,,,,,,,,,z,0.2859,3,0.2607,0,3,3,17,1,testConjL4Syn//r2.s2.0.wav,,,,,,,,,,,,,,,,,,,,,,
,,546865,001,2023-06-06_13h49.48.792,Unsyncopated1,2022.2.5,Win32,59.73715651,,,,,,,,,,,,,,,,,,,,,,,,,,,,,,,,,,,,,,,,,,,,,,z,0.769,2,0.1949,0,4,4,10,1,testConjL4Syn//r1.s1.2.wav,,,,,,,,,,,,,,,,,,,,,,
,,546865,001,2023-06-06_13h49.48.792,Unsyncopated1,2022.2.5,Win32,59.73715651,,,,,,,,,,,,,,,,,,,,,,,,,,,,,,,,,,,,,,,,,,,,,,z,1.1521,3,0.2675,0,5,5,14,1,testConjL4Syn//r2.s1.0.wav,,,,,,,,,,,,,,,,,,,,,,
,,546865,001,2023-06-06_13h49.48.792,Unsyncopated1,2022.2.5,Win32,59.73715651,,,,,,,,,,,,,,,,,,,,,,,,,,,,,,,,,,,,,,,,,,,,,,z,0.9391,3,0.2172,0,6,6,20,1,testConjL4Syn//time_viol.r1.s1.0.wav,,,,,,,,,,,,,,,,,,,,,,
,,546865,001,2023-06-06_13h49.48.792,Unsyncopated1,2022.2.5,Win32,59.73715651,,,,,,,,,,,,,,,,,,,,,,,,,,,,,,,,,,,,,,,,,,,,,,z,0.2855,2,0.2367,0,7,7,13,1,testConjL4Syn//r1.s2.2.wav,,,,,,,,,,,,,,,,,,,,,,
,,546865,001,2023-06-06_13h49.48.792,Unsyncopated1,2022.2.5,Win32,59.73715651,,,,,,,,,,,,,,,,,,,,,,,,,,,,,,,,,,,,,,,,,,,,,,z,0.4606,3,0.2177,0,8,8,21,1,testConjL4Syn//time_viol.r1.s2.0.wav,,,,,,,,,,,,,,,,,,,,,,
,,546865,001,2023-06-06_13h49.48.792,Unsyncopated1,2022.2.5,Win32,59.73715651,,,,,,,,,,,,,,,,,,,,,,,,,,,,,,,,,,,,,,,,,,,,,,z,0.1349,2,0.1736,0,9,9,18,1,testConjL4Syn//r2.s2.1.wav,,,,,,,,,,,,,,,,,,,,,,
,,546865,001,2023-06-06_13h49.48.792,Unsyncopated1,2022.2.5,Win32,59.73715651,,,,,,,,,,,,,,,,,,,,,,,,,,,,,,,,,,,,,,,,,,,,,,z,0.3838,3,0.9188,0,10,10,9,1,testConjL4Syn//r1.s1.1.wav,,,,,,,,,,,,,,,,,,,,,,
,,546865,001,2023-06-06_13h49.48.792,Unsyncopated1,2022.2.5,Win32,59.73715651,,,,,,,,,,,,,,,,,,,,,,,,,,,,,,,,,,,,,,,,,,,,,,z,0.61,2,0.2976,0,11,11,8,1,testConjL4Syn//r1.s1.0.wav,,,,,,,,,,,,,,,,,,,,,,
,,546865,001,2023-06-06_13h49.48.792,Unsyncopated1,2022.2.5,Win32,59.73715651,,,,,,,,,,,,,,,,,,,,,,,,,,,,,,,,,,,,,,,,,,,,,,z,1.099,2,0.3512,0,12,12,1,1,testConjL4Syn//cat_viol.r1.s2.0.wav,,,,,,,,,,,,,,,,,,,,,,
,,546865,001,2023-06-06_13h49.48.792,Unsyncopated1,2022.2.5,Win32,59.73715651,,,,,,,,,,,,,,,,,,,,,,,,,,,,,,,,,,,,,,,,,,,,,,z,0.3513,4,0.3188,0,13,13,6,1,testConjL4Syn//dep_viol.r2.s1.0.wav,,,,,,,,,,,,,,,,,,,,,,
,,546865,001,2023-06-06_13h49.48.792,Unsyncopated1,2022.2.5,Win32,59.73715651,,,,,,,,,,,,,,,,,,,,,,,,,,,,,,,,,,,,,,,,,,,,,,z,0.535,3,0.7759,0,14,14,4,1,testConjL4Syn//dep_viol.r1.s1.0.wav,,,,,,,,,,,,,,,,,,,,,,
,,546865,001,2023-06-06_13h49.48.792,Unsyncopated1,2022.2.5,Win32,59.73715651,,,,,,,,,,,,,,,,,,,,,,,,,,,,,,,,,,,,,,,,,,,,,,z,2.424,3,0.1723,0,15,15,12,1,testConjL4Syn//r1.s2.1.wav,,,,,,,,,,,,,,,,,,,,,,
,,546865,001,2023-06-06_13h49.48.792,Unsyncopated1,2022.2.5,Win32,59.73715651,,,,,,,,,,,,,,,,,,,,,,,,,,,,,,,,,,,,,,,,,,,,,,z,0.9075,4,0.184,0,16,16,16,1,testConjL4Syn//r2.s1.2.wav,,,,,,,,,,,,,,,,,,,,,,
,,546865,001,2023-06-06_13h49.48.792,Unsyncopated1,2022.2.5,Win32,59.73715651,,,,,,,,,,,,,,,,,,,,,,,,,,,,,,,,,,,,,,,,,,,,,,z,0.6879,3,0.1645,0,17,17,15,1,testConjL4Syn//r2.s1.1.wav,,,,,,,,,,,,,,,,,,,,,,
,,546865,001,2023-06-06_13h49.48.792,Unsyncopated1,2022.2.5,Win32,59.73715651,,,,,,,,,,,,,,,,,,,,,,,,,,,,,,,,,,,,,,,,,,,,,,z,1.0536,3,0.1556,0,18,18,11,1,testConjL4Syn//r1.s2.0.wav,,,,,,,,,,,,,,,,,,,,,,
,,546865,001,2023-06-06_13h49.48.792,Unsyncopated1,2022.2.5,Win32,59.73715651,,,,,,,,,,,,,,,,,,,,,,,,,,,,,,,,,,,,,,,,,,,,,,z,0.567,2,0.1675,0,19,19,3,1,testConjL4Syn//cat_viol.r2.s2.0.wav,,,,,,,,,,,,,,,,,,,,,,
,,546865,001,2023-06-06_13h49.48.792,Unsyncopated1,2022.2.5,Win32,59.73715651,,,,,,,,,,,,,,,,,,,,,,,,,,,,,,,,,,,,,,,,,,,,,,z,0.3992,4,0.2357,0,20,20,7,1,testConjL4Syn//dep_viol.r2.s2.0.wav,,,,,,,,,,,,,,,,,,,,,,
,,546865,001,2023-06-06_13h49.48.792,Unsyncopated1,2022.2.5,Win32,59.73715651,,,,,,,,,,,,,,,,,,,,,,,,,,,,,,,,,,,,,,,,,,,,,,z,0.4083,2,0.2625,0,21,21,2,1,testConjL4Syn//cat_viol.r2.s1.0.wav,,,,,,,,,,,,,,,,,,,,,,
,,546865,001,2023-06-06_13h49.48.792,Unsyncopated1,2022.2.5,Win32,59.73715651,,,,,,,,,,,,,,,,,,,,,,,,,,,,,,,,,,,,,,,,,,,,,,z,0.3516,1,0.1848,0,22,22,22,1,testConjL4Syn//time_viol.r2.s1.0.wav,,,,,,,,,,,,,,,,,,,,,,
,,546865,001,2023-06-06_13h49.48.792,Unsyncopated1,2022.2.5,Win32,59.73715651,,,,,,,,,,,,,,,,,,,,,,,,,,,,,,,,,,,,,,,,,,,,,,z,0.7382,3,0.1345,0,23,23,19,1,testConjL4Syn//r2.s2.2.wav,,,,,,,,,,,,,,,,,,,,,,
,,546865,001,2023-06-06_13h49.48.792,Unsyncopated1,2022.2.5,Win32,59.73715651,,,,,,,,,,,,,,,,,,,,,,,,,,,,,,,,,,,,,,,,,,,,,,,,,,,,,,,,space,3.0871,0,1,1,3,1,ConjL4_syn.csv,directory_online_conj_L4_syn.csv,Test_Conj_SyncL4.csv,ConjL4_sync_norm.wav,,,,,,,,,,,
,,546865,001,2023-06-06_13h49.48.792,Unsyncopated1,2022.2.5,Win32,59.73715651,,,,,,,,,,,,,,,,,,,space,2.0022,space,3.1052,space,0.6821,,,0,0,0,2,1,Online_whatL2//dSI22.none.wav,none,,,,,,,,,,,,,,,,,,,,,,,,,,,,,,,,,,,,,,,,,,,,
,,546865,001,2023-06-06_13h49.48.792,Unsyncopated1,2022.2.5,Win32,59.73715651,,,,,,,,,,,,,,,,,,,,,,,,,,,0,1,1,1,1,Online_whatL2//dSI21.none.wav,none,,,,,,,,,,,,,,,,,,,,,,,,,,,,,,,,,,,,,,,,,,,,
,,546865,001,2023-06-06_13h49.48.792,Unsyncopated1,2022.2.5,Win32,59.73715651,,,,,,,,,,,,,,,,,,,,,,,,,space,2.1516,0,2,2,3,1,Online_whatL2//dSI23.1554.wav,1554,,,,,,,,,,,,,,,,,,,,,,,,,,,,,,,,,,,,,,,,,,,,
,,546865,001,2023-06-06_13h49.48.792,Unsyncopated1,2022.2.5,Win32,59.73715651,,,,,,,,,,,,,,,,,,,,,,,,,space,2.2355,0,3,3,0,1,Online_whatL2//dSI20.1332.wav,1332,,,,,,,,,,,,,,,,,,,,,,,,,,,,,,,,,,,,,,,,,,,,
,,546865,001,2023-06-06_13h49.48.792,Unsyncopated1,2022.2.5,Win32,59.73715651,,,,,,,,,,,,,,,,,,,,,,,,,,,,,,,,,,0,0,0,27,1,si,116:120,green,,,,,,,,,,,,,,,,,,,,,,,,,,,,,,,,,,,,
,,546865,001,2023-06-06_13h49.48.792,Unsyncopated1,2022.2.5,Win32,59.73715651,,,,,,,,,,,,,,,,,,,,,,,,,space,1.6685,0,0,0,1,1,Online_whatL2//cCHA21.1332.wav,1332,,,,,,,,,,,,,,,,,,,,,,,,,,,,,,,,,,,,,,,,,,,,
,,546865,001,2023-06-06_13h49.48.792,Unsyncopated1,2022.2.5,Win32,59.73715651,,,,,,,,,,,,,,,,,,,,,,,,,space,1.6194,0,1,1,0,1,Online_whatL2//cCHA20.none.wav,none,,,,,,,,,,,,,,,,,,,,,,,,,,,,,,,,,,,,,,,,,,,,
,,546865,001,2023-06-06_13h49.48.792,Unsyncopated1,2022.2.5,Win32,59.73715651,,,,,,,,,,,,,,,,,,,,,,,,,space,0.8008,0,2,2,3,1,Online_whatL2//cCHA23.444.wav,444,,,,,,,,,,,,,,,,,,,,,,,,,,,,,,,,,,,,,,,,,,,,
,,546865,001,2023-06-06_13h49.48.792,Unsyncopated1,2022.2.5,Win32,59.73715651,,,,,,,,,,,,,,,,,,,,,,,,,,,0,3,3,2,1,Online_whatL2//cCHA22.none.wav,none,,,,,,,,,,,,,,,,,,,,,,,,,,,,,,,,,,,,,,,,,,,,
,,546865,001,2023-06-06_13h49.48.792,Unsyncopated1,2022.2.5,Win32,59.73715651,,,,,,,,,,,,,,,,,,,,,,,,,,,,,,,,,,0,1,1,7,1,cha,84:88,blue,,,,,,,,,,,,,,,,,,,,,,,,,,,,,,,,,,,,
,,546865,001,2023-06-06_13h49.48.792,Unsyncopated1,2022.2.5,Win32,59.73715651,,,,,,,,,,,,,,,,,,,,,,,,,,,0,0,0,3,1,Online_whatL2//dSI7.none.wav,none,,,,,,,,,,,,,,,,,,,,,,,,,,,,,,,,,,,,,,,,,,,,
,,546865,001,2023-06-06_13h49.48.792,Unsyncopated1,2022.2.5,Win32,59.73715651,,,,,,,,,,,,,,,,,,,,,,,,,space,2.4038,0,1,1,1,1,Online_whatL2//dSI5.1998.wav,1998,,,,,,,,,,,,,,,,,,,,,,,,,,,,,,,,,,,,,,,,,,,,
,,546865,001,2023-06-06_13h49.48.792,Unsyncopated1,2022.2.5,Win32,59.73715651,,,,,,,,,,,,,,,,,,,,,,,,,,,0,2,2,0,1,Online_whatL2//dSI4.none.wav,none,,,,,,,,,,,,,,,,,,,,,,,,,,,,,,,,,,,,,,,,,,,,
,,546865,001,2023-06-06_13h49.48.792,Unsyncopated1,2022.2.5,Win32,59.73715651,,,,,,,,,,,,,,,,,,,,,,,,,space,2.0697,0,3,3,2,1,Online_whatL2//dSI6.none.wav,none,,,,,,,,,,,,,,,,,,,,,,,,,,,,,,,,,,,,,,,,,,,,
,,546865,001,2023-06-06_13h49.48.792,Unsyncopated1,2022.2.5,Win32,59.73715651,,,,,,,,,,,,,,,,,,,,,,,,,,,,,,,,,,0,2,2,30,1,si,100:104,green,,,,,,,,,,,,,,,,,,,,,,,,,,,,,,,,,,,,
,,546865,001,2023-06-06_13h49.48.792,Unsyncopated1,2022.2.5,Win32,59.73715651,,,,,,,,,,,,,,,,,,,,,,,,,space,1.5598,0,0,0,2,1,Online_whatL2//aDU18.1110.wav,1110,,,,,,,,,,,,,,,,,,,,,,,,,,,,,,,,,,,,,,,,,,,,
,,546865,001,2023-06-06_13h49.48.792,Unsyncopated1,2022.2.5,Win32,59.73715651,,,,,,,,,,,,,,,,,,,,,,,,,space,1.7169,0,1,1,0,1,Online_whatL2//aDU16.1110.wav,1110,,,,,,,,,,,,,,,,,,,,,,,,,,,,,,,,,,,,,,,,,,,,
,,546865,001,2023-06-06_13h49.48.792,Unsyncopated1,2022.2.5,Win32,59.73715651,,,,,,,,,,,,,,,,,,,,,,,,,,,0,2,2,1,1,Online_whatL2//aDU17.none.wav,none,,,,,,,,,,,,,,,,,,,,,,,,,,,,,,,,,,,,,,,,,,,,
,,546865,001,2023-06-06_13h49.48.792,Unsyncopated1,2022.2.5,Win32,59.73715651,,,,,,,,,,,,,,,,,,,,,,,,,space,2.434,0,3,3,3,1,Online_whatL2//aDU19.1998.wav,1998,,,,,,,,,,,,,,,,,,,,,,,,,,,,,,,,,,,,,,,,,,,,
,,546865,001,2023-06-06_13h49.48.792,Unsyncopated1,2022.2.5,Win32,59.73715651,,,,,,,,,,,,,,,,,,,,,,,,,,,,,,,,,,0,3,3,22,1,du,16:20,orange,,,,,,,,,,,,,,,,,,,,,,,,,,,,,,,,,,,,
,,546865,001,2023-06-06_13h49.48.792,Unsyncopated1,2022.2.5,Win32,59.73715651,,,,,,,,,,,,,,,,,,,,,,,,,space,1.6941,0,0,0,2,1,Online_whatL2//cCHA14.444.wav,444,,,,,,,,,,,,,,,,,,,,,,,,,,,,,,,,,,,,,,,,,,,,
,,546865,001,2023-06-06_13h49.48.792,Unsyncopated1,2022.2.5,Win32,59.73715651,,,,,,,,,,,,,,,,,,,,,,,,,,,0,1,1,3,1,Online_whatL2//cCHA15.none.wav,none,,,,,,,,,,,,,,,,,,,,,,,,,,,,,,,,,,,,,,,,,,,,
,,546865,001,2023-06-06_13h49.48.792,Unsyncopated1,2022.2.5,Win32,59.73715651,,,,,,,,,,,,,,,,,,,,,,,,,space,0.7001,0,2,2,0,1,Online_whatL2//cCHA12.222.wav,222,,,,,,,,,,,,,,,,,,,,,,,,,,,,,,,,,,,,,,,,,,,,
,,546865,001,2023-06-06_13h49.48.792,Unsyncopated1,2022.2.5,Win32,59.73715651,,,,,,,,,,,,,,,,,,,,,,,,,,,0,3,3,1,1,Online_whatL2//cCHA13.none.wav,none,,,,,,,,,,,,,,,,,,,,,,,,,,,,,,,,,,,,,,,,,,,,
,,546865,001,2023-06-06_13h49.48.792,Unsyncopated1,2022.2.5,Win32,59.73715651,,,,,,,,,,,,,,,,,,,,,,,,,,,,,,,,,,0,4,4,3,1,cha,76:80,blue,,,,,,,,,,,,,,,,,,,,,,,,,,,,,,,,,,,,
,,546865,001,2023-06-06_13h49.48.792,Unsyncopated1,2022.2.5,Win32,59.73715651,,,,,,,,,,,,,,,,,,,,,,,,,,,0,0,0,3,1,Online_whatL2//cCHA7.none.wav,none,,,,,,,,,,,,,,,,,,,,,,,,,,,,,,,,,,,,,,,,,,,,
,,546865,001,2023-06-06_13h49.48.792,Unsyncopated1,2022.2.5,Win32,59.73715651,,,,,,,,,,,,,,,,,,,,,,,,,,,0,1,1,1,1,Online_whatL2//cCHA5.none.wav,none,,,,,,,,,,,,,,,,,,,,,,,,,,,,,,,,,,,,,,,,,,,,
,,546865,001,2023-06-06_13h49.48.792,Unsyncopated1,2022.2.5,Win32,59.73715651,,,,,,,,,,,,,,,,,,,,,,,,,space,0.6014,0,2,2,2,1,Online_whatL2//cCHA6.222.wav,222,,,,,,,,,,,,,,,,,,,,,,,,,,,,,,,,,,,,,,,,,,,,
,,546865,001,2023-06-06_13h49.48.792,Unsyncopated1,2022.2.5,Win32,59.73715651,,,,,,,,,,,,,,,,,,,,,,,,,space,2.3538,0,3,3,0,1,Online_whatL2//cCHA4.1776.wav,1776,,,,,,,,,,,,,,,,,,,,,,,,,,,,,,,,,,,,,,,,,,,,
,,546865,001,2023-06-06_13h49.48.792,Unsyncopated1,2022.2.5,Win32,59.73715651,,,,,,,,,,,,,,,,,,,,,,,,,,,,,,,,,,0,5,5,0,1,cha,68:72,blue,,,,,,,,,,,,,,,,,,,,,,,,,,,,,,,,,,,,
,,546865,001,2023-06-06_13h49.48.792,Unsyncopated1,2022.2.5,Win32,59.73715651,,,,,,,,,,,,,,,,,,,,,,,,,,,0,0,0,3,1,Online_whatL2//bFE7.none.wav,none,,,,,,,,,,,,,,,,,,,,,,,,,,,,,,,,,,,,,,,,,,,,
,,546865,001,2023-06-06_13h49.48.792,Unsyncopated1,2022.2.5,Win32,59.73715651,,,,,,,,,,,,,,,,,,,,,,,,,,,0,1,1,1,1,Online_whatL2//bFE5.none.wav,none,,,,,,,,,,,,,,,,,,,,,,,,,,,,,,,,,,,,,,,,,,,,
,,546865,001,2023-06-06_13h49.48.792,Unsyncopated1,2022.2.5,Win32,59.73715651,,,,,,,,,,,,,,,,,,,,,,,,,,,0,2,2,2,1,Online_whatL2//bFE6.none.wav,none,,,,,,,,,,,,,,,,,,,,,,,,,,,,,,,,,,,,,,,,,,,,
,,546865,001,2023-06-06_13h49.48.792,Unsyncopated1,2022.2.5,Win32,59.73715651,,,,,,,,,,,,,,,,,,,,,,,,,,,0,3,3,0,1,Online_whatL2//bFE4.none.wav,none,,,,,,,,,,,,,,,,,,,,,,,,,,,,,,,,,,,,,,,,,,,,
,,546865,001,2023-06-06_13h49.48.792,Unsyncopated1,2022.2.5,Win32,59.73715651,,,,,,,,,,,,,,,,,,,,,,,,,,,,,,,,,,0,6,6,26,1,fe,36:40,red,,,,,,,,,,,,,,,,,,,,,,,,,,,,,,,,,,,,
,,546865,001,2023-06-06_13h49.48.792,Unsyncopated1,2022.2.5,Win32,59.73715651,,,,,,,,,,,,,,,,,,,,,,,,,,,0,0,0,2,1,Online_whatL2//bFE10.1110.wav,1110,,,,,,,,,,,,,,,,,,,,,,,,,,,,,,,,,,,,,,,,,,,,
,,546865,001,2023-06-06_13h49.48.792,Unsyncopated1,2022.2.5,Win32,59.73715651,,,,,,,,,,,,,,,,,,,,,,,,,space,0.1681,0,1,1,1,1,Online_whatL2//bFE9.0.wav,0,,,,,,,,,,,,,,,,,,,,,,,,,,,,,,,,,,,,,,,,,,,,
,,546865,001,2023-06-06_13h49.48.792,Unsyncopated1,2022.2.5,Win32,59.73715651,,,,,,,,,,,,,,,,,,,,,,,,,,,0,2,2,3,1,Online_whatL2//bFE11.1110.wav,1110,,,,,,,,,,,,,,,,,,,,,,,,,,,,,,,,,,,,,,,,,,,,
,,546865,001,2023-06-06_13h49.48.792,Unsyncopated1,2022.2.5,Win32,59.73715651,,,,,,,,,,,,,,,,,,,,,,,,,space,2.2689,0,3,3,0,1,Online_whatL2//bFE8.0.wav,0,,,,,,,,,,,,,,,,,,,,,,,,,,,,,,,,,,,,,,,,,,,,
,,546865,001,2023-06-06_13h49.48.792,Unsyncopated1,2022.2.5,Win32,59.73715651,,,,,,,,,,,,,,,,,,,,,,,,,,,,,,,,,,0,7,7,21,1,fe,40:44,red,,,,,,,,,,,,,,,,,,,,,,,,,,,,,,,,,,,,
,,546865,001,2023-06-06_13h49.48.792,Unsyncopated1,2022.2.5,Win32,59.73715651,,,,,,,,,,,,,,,,,,,,,,,,,space,1.052,0,0,0,0,1,Online_whatL2//cCHA24.444.wav,444,,,,,,,,,,,,,,,,,,,,,,,,,,,,,,,,,,,,,,,,,,,,
,,546865,001,2023-06-06_13h49.48.792,Unsyncopated1,2022.2.5,Win32,59.73715651,,,,,,,,,,,,,,,,,,,,,,,,,space,2.404,0,1,1,2,1,Online_whatL2//cCHA26.1332.wav,1332,,,,,,,,,,,,,,,,,,,,,,,,,,,,,,,,,,,,,,,,,,,,
,,546865,001,2023-06-06_13h49.48.792,Unsyncopated1,2022.2.5,Win32,59.73715651,,,,,,,,,,,,,,,,,,,,,,,,,,,0,2,2,1,1,Online_whatL2//cCHA25.444.wav,444,,,,,,,,,,,,,,,,,,,,,,,,,,,,,,,,,,,,,,,,,,,,
,,546865,001,2023-06-06_13h49.48.792,Unsyncopated1,2022.2.5,Win32,59.73715651,,,,,,,,,,,,,,,,,,,,,,,,,,,0,3,3,3,1,Online_whatL2//cCHA27.444.wav,444,,,,,,,,,,,,,,,,,,,,,,,,,,,,,,,,,,,,,,,,,,,,
,,546865,001,2023-06-06_13h49.48.792,Unsyncopated1,2022.2.5,Win32,59.73715651,,,,,,,,,,,,,,,,,,,,,,,,,,,,,,,,,,0,8,8,5,1,cha,88:92,blue,,,,,,,,,,,,,,,,,,,,,,,,,,,,,,,,,,,,
,,546865,001,2023-06-06_13h49.48.792,Unsyncopated1,2022.2.5,Win32,59.73715651,,,,,,,,,,,,,,,,,,,,,,,,,,,0,0,0,3,1,Online_whatL2//bFE23.1110.wav,1110,,,,,,,,,,,,,,,,,,,,,,,,,,,,,,,,,,,,,,,,,,,,
,,546865,001,2023-06-06_13h49.48.792,Unsyncopated1,2022.2.5,Win32,59.73715651,,,,,,,,,,,,,,,,,,,,,,,,,space,0.1855,0,1,1,1,1,Online_whatL2//bFE21.none.wav,none,,,,,,,,,,,,,,,,,,,,,,,,,,,,,,,,,,,,,,,,,,,,
,,546865,001,2023-06-06_13h49.48.792,Unsyncopated1,2022.2.5,Win32,59.73715651,,,,,,,,,,,,,,,,,,,,,,,,,space,1.5024,0,2,2,0,1,Online_whatL2//bFE20.888.wav,888,,,,,,,,,,,,,,,,,,,,,,,,,,,,,,,,,,,,,,,,,,,,
,,546865,001,2023-06-06_13h49.48.792,Unsyncopated1,2022.2.5,Win32,59.73715651,,,,,,,,,,,,,,,,,,,,,,,,,space,2.386,0,3,3,2,1,Online_whatL2//bFE22.none.wav,none,,,,,,,,,,,,,,,,,,,,,,,,,,,,,,,,,,,,,,,,,,,,
,,546865,001,2023-06-06_13h49.48.792,Unsyncopated1,2022.2.5,Win32,59.73715651,,,,,,,,,,,,,,,,,,,,,,,,,,,,,,,,,,0,9,9,2,1,fe,52:56,red,,,,,,,,,,,,,,,,,,,,,,,,,,,,,,,,,,,,
,,546865,001,2023-06-06_13h49.48.792,Unsyncopated1,2022.2.5,Win32,59.73715651,,,,,,,,,,,,,,,,,,,,,,,,,,,0,0,0,1,1,Online_whatL2//aDU25.none.wav,none,,,,,,,,,,,,,,,,,,,,,,,,,,,,,,,,,,,,,,,,,,,,
,,546865,001,2023-06-06_13h49.48.792,Unsyncopated1,2022.2.5,Win32,59.73715651,,,,,,,,,,,,,,,,,,,,,,,,,,,0,1,1,3,1,Online_whatL2//aDU27.1110.wav,1110,,,,,,,,,,,,,,,,,,,,,,,,,,,,,,,,,,,,,,,,,,,,
,,546865,001,2023-06-06_13h49.48.792,Unsyncopated1,2022.2.5,Win32,59.73715651,,,,,,,,,,,,,,,,,,,,,,,,,,,0,2,2,0,1,Online_whatL2//aDU24.1998.wav,1998,,,,,,,,,,,,,,,,,,,,,,,,,,,,,,,,,,,,,,,,,,,,
,,546865,001,2023-06-06_13h49.48.792,Unsyncopated1,2022.2.5,Win32,59.73715651,,,,,,,,,,,,,,,,,,,,,,,,,,,0,3,3,2,1,Online_whatL2//aDU26.none.wav,none,,,,,,,,,,,,,,,,,,,,,,,,,,,,,,,,,,,,,,,,,,,,
,,546865,001,2023-06-06_13h49.48.792,Unsyncopated1,2022.2.5,Win32,59.73715651,,,,,,,,,,,,,,,,,,,,,,,,,,,,,,,,,,0,10,10,11,1,du,24:28,orange,,,,,,,,,,,,,,,,,,,,,,,,,,,,,,,,,,,,
,,546865,001,2023-06-06_13h49.48.792,Unsyncopated1,2022.2.5,Win32,59.73715651,,,,,,,,,,,,,,,,,,,,,,,,,space,1.8862,0,0,0,0,1,Online_whatL2//bFE0.none.wav,none,,,,,,,,,,,,,,,,,,,,,,,,,,,,,,,,,,,,,,,,,,,,
,,546865,001,2023-06-06_13h49.48.792,Unsyncopated1,2022.2.5,Win32,59.73715651,,,,,,,,,,,,,,,,,,,,,,,,,,,0,1,1,2,1,Online_whatL2//bFE2.888.wav,888,,,,,,,,,,,,,,,,,,,,,,,,,,,,,,,,,,,,,,,,,,,,
,,546865,001,2023-06-06_13h49.48.792,Unsyncopated1,2022.2.5,Win32,59.73715651,,,,,,,,,,,,,,,,,,,,,,,,,space,0.334,0,2,2,3,1,Online_whatL2//bFE3.none.wav,none,,,,,,,,,,,,,,,,,,,,,,,,,,,,,,,,,,,,,,,,,,,,
,,546865,001,2023-06-06_13h49.48.792,Unsyncopated1,2022.2.5,Win32,59.73715651,,,,,,,,,,,,,,,,,,,,,,,,,space,1.7021,0,3,3,1,1,Online_whatL2//bFE1.0.wav,0,,,,,,,,,,,,,,,,,,,,,,,,,,,,,,,,,,,,,,,,,,,,
,,546865,001,2023-06-06_13h49.48.792,Unsyncopated1,2022.2.5,Win32,59.73715651,,,,,,,,,,,,,,,,,,,,,,,,,,,,,,,,,,0,11,11,16,1,fe,32:36,red,,,,,,,,,,,,,,,,,,,,,,,,,,,,,,,,,,,,
,,546865,001,2023-06-06_13h49.48.792,Unsyncopated1,2022.2.5,Win32,59.73715651,,,,,,,,,,,,,,,,,,,,,,,,,,,0,0,0,2,1,Online_whatL2//bFE26.888.wav,888,,,,,,,,,,,,,,,,,,,,,,,,,,,,,,,,,,,,,,,,,,,,
,,546865,001,2023-06-06_13h49.48.792,Unsyncopated1,2022.2.5,Win32,59.73715651,,,,,,,,,,,,,,,,,,,,,,,,,space,0.0189,0,1,1,3,1,Online_whatL2//bFE27.0.wav,0,,,,,,,,,,,,,,,,,,,,,,,,,,,,,,,,,,,,,,,,,,,,
,,546865,001,2023-06-06_13h49.48.792,Unsyncopated1,2022.2.5,Win32,59.73715651,,,,,,,,,,,,,,,,,,,,,,,,,space,0.4687,0,2,2,0,1,Online_whatL2//bFE24.none.wav,none,,,,,,,,,,,,,,,,,,,,,,,,,,,,,,,,,,,,,,,,,,,,
,,546865,001,2023-06-06_13h49.48.792,Unsyncopated1,2022.2.5,Win32,59.73715651,,,,,,,,,,,,,,,,,,,,,,,,,space,0.6194,0,3,3,1,1,Online_whatL2//bFE25.0.wav,0,,,,,,,,,,,,,,,,,,,,,,,,,,,,,,,,,,,,,,,,,,,,
,,546865,001,2023-06-06_13h49.48.792,Unsyncopated1,2022.2.5,Win32,59.73715651,,,,,,,,,,,,,,,,,,,,,,,,,,,,,,,,,,0,12,12,12,1,fe,56:60,red,,,,,,,,,,,,,,,,,,,,,,,,,,,,,,,,,,,,
,,546865,001,2023-06-06_13h49.48.792,Unsyncopated1,2022.2.5,Win32,59.73715651,,,,,,,,,,,,,,,,,,,,,,,,,,,0,0,0,1,1,Online_whatL2//bFE13.888.wav,888,,,,,,,,,,,,,,,,,,,,,,,,,,,,,,,,,,,,,,,,,,,,
,,546865,001,2023-06-06_13h49.48.792,Unsyncopated1,2022.2.5,Win32,59.73715651,,,,,,,,,,,,,,,,,,,,,,,,,,,0,1,1,0,1,Online_whatL2//bFE12.0.wav,0,,,,,,,,,,,,,,,,,,,,,,,,,,,,,,,,,,,,,,,,,,,,
,,546865,001,2023-06-06_13h49.48.792,Unsyncopated1,2022.2.5,Win32,59.73715651,,,,,,,,,,,,,,,,,,,,,,,,,space,2.0727,0,2,2,2,1,Online_whatL2//bFE14.none.wav,none,,,,,,,,,,,,,,,,,,,,,,,,,,,,,,,,,,,,,,,,,,,,
,,546865,001,2023-06-06_13h49.48.792,Unsyncopated1,2022.2.5,Win32,59.73715651,,,,,,,,,,,,,,,,,,,,,,,,,,,0,3,3,3,1,Online_whatL2//bFE15.0.wav,0,,,,,,,,,,,,,,,,,,,,,,,,,,,,,,,,,,,,,,,,,,,,
,,546865,001,2023-06-06_13h49.48.792,Unsyncopated1,2022.2.5,Win32,59.73715651,,,,,,,,,,,,,,,,,,,,,,,,,,,,,,,,,,0,13,13,10,1,fe,44:48,red,,,,,,,,,,,,,,,,,,,,,,,,,,,,,,,,,,,,
,,546865,001,2023-06-06_13h49.48.792,Unsyncopated1,2022.2.5,Win32,59.73715651,,,,,,,,,,,,,,,,,,,,,,,,,,,0,0,0,3,1,Online_whatL2//aDU11.888.wav,888,,,,,,,,,,,,,,,,,,,,,,,,,,,,,,,,,,,,,,,,,,,,
,,546865,001,2023-06-06_13h49.48.792,Unsyncopated1,2022.2.5,Win32,59.73715651,,,,,,,,,,,,,,,,,,,,,,,,,,,0,1,1,0,1,Online_whatL2//aDU8.none.wav,none,,,,,,,,,,,,,,,,,,,,,,,,,,,,,,,,,,,,,,,,,,,,
,,546865,001,2023-06-06_13h49.48.792,Unsyncopated1,2022.2.5,Win32,59.73715651,,,,,,,,,,,,,,,,,,,,,,,,,space,0.6666,0,2,2,2,1,Online_whatL2//aDU10.888.wav,888,,,,,,,,,,,,,,,,,,,,,,,,,,,,,,,,,,,,,,,,,,,,
,,546865,001,2023-06-06_13h49.48.792,Unsyncopated1,2022.2.5,Win32,59.73715651,,,,,,,,,,,,,,,,,,,,,,,,,,,0,3,3,1,1,Online_whatL2//aDU9.1776.wav,1776,,,,,,,,,,,,,,,,,,,,,,,,,,,,,,,,,,,,,,,,,,,,
,,546865,001,2023-06-06_13h49.48.792,Unsyncopated1,2022.2.5,Win32,59.73715651,,,,,,,,,,,,,,,,,,,,,,,,,,,,,,,,,,0,14,14,19,1,du,8:12,orange,,,,,,,,,,,,,,,,,,,,,,,,,,,,,,,,,,,,
,,546865,001,2023-06-06_13h49.48.792,Unsyncopated1,2022.2.5,Win32,59.73715651,,,,,,,,,,,,,,,,,,,,,,,,,,,0,0,0,3,1,Online_whatL2//aDU23.888.wav,888,,,,,,,,,,,,,,,,,,,,,,,,,,,,,,,,,,,,,,,,,,,,
,,546865,001,2023-06-06_13h49.48.792,Unsyncopated1,2022.2.5,Win32,59.73715651,,,,,,,,,,,,,,,,,,,,,,,,,space,1.3357,0,1,1,1,1,Online_whatL2//aDU21.888.wav,888,,,,,,,,,,,,,,,,,,,,,,,,,,,,,,,,,,,,,,,,,,,,
,,546865,001,2023-06-06_13h49.48.792,Unsyncopated1,2022.2.5,Win32,59.73715651,,,,,,,,,,,,,,,,,,,,,,,,,,,0,2,2,2,1,Online_whatL2//aDU22.1998.wav,1998,,,,,,,,,,,,,,,,,,,,,,,,,,,,,,,,,,,,,,,,,,,,
,,546865,001,2023-06-06_13h49.48.792,Unsyncopated1,2022.2.5,Win32,59.73715651,,,,,,,,,,,,,,,,,,,,,,,,,space,0.4011,0,3,3,0,1,Online_whatL2//aDU20.none.wav,none,,,,,,,,,,,,,,,,,,,,,,,,,,,,,,,,,,,,,,,,,,,,
,,546865,001,2023-06-06_13h49.48.792,Unsyncopated1,2022.2.5,Win32,59.73715651,,,,,,,,,,,,,,,,,,,,,,,,,,,,,,,,,,0,15,15,29,1,du,20:24,orange,,,,,,,,,,,,,,,,,,,,,,,,,,,,,,,,,,,,
,,546865,001,2023-06-06_13h49.48.792,Unsyncopated1,2022.2.5,Win32,59.73715651,,,,,,,,,,,,,,,,,,,,,,,,,,,0,0,0,0,1,Online_whatL2//cCHA8.none.wav,none,,,,,,,,,,,,,,,,,,,,,,,,,,,,,,,,,,,,,,,,,,,,
,,546865,001,2023-06-06_13h49.48.792,Unsyncopated1,2022.2.5,Win32,59.73715651,,,,,,,,,,,,,,,,,,,,,,,,,,,0,1,1,3,1,Online_whatL2//cCHA11.none.wav,none,,,,,,,,,,,,,,,,,,,,,,,,,,,,,,,,,,,,,,,,,,,,
,,546865,001,2023-06-06_13h49.48.792,Unsyncopated1,2022.2.5,Win32,59.73715651,,,,,,,,,,,,,,,,,,,,,,,,,,,0,2,2,2,1,Online_whatL2//cCHA10.444.wav,444,,,,,,,,,,,,,,,,,,,,,,,,,,,,,,,,,,,,,,,,,,,,
,,546865,001,2023-06-06_13h49.48.792,Unsyncopated1,2022.2.5,Win32,59.73715651,,,,,,,,,,,,,,,,,,,,,,,,,space,1.7367,0,3,3,1,1,Online_whatL2//cCHA9.none.wav,none,,,,,,,,,,,,,,,,,,,,,,,,,,,,,,,,,,,,,,,,,,,,
,,546865,001,2023-06-06_13h49.48.792,Unsyncopated1,2022.2.5,Win32,59.73715651,,,,,,,,,,,,,,,,,,,,,,,,,,,,,,,,,,0,16,16,17,1,cha,72:76,blue,,,,,,,,,,,,,,,,,,,,,,,,,,,,,,,,,,,,
,,546865,001,2023-06-06_13h49.48.792,Unsyncopated1,2022.2.5,Win32,59.73715651,,,,,,,,,,,,,,,,,,,,,,,,,space,2.4366,0,0,0,3,1,Online_whatL2//aDU7.none.wav,none,,,,,,,,,,,,,,,,,,,,,,,,,,,,,,,,,,,,,,,,,,,,
,,546865,001,2023-06-06_13h49.48.792,Unsyncopated1,2022.2.5,Win32,59.73715651,,,,,,,,,,,,,,,,,,,,,,,,,,,0,1,1,1,1,Online_whatL2//aDU5.1998.wav,1998,,,,,,,,,,,,,,,,,,,,,,,,,,,,,,,,,,,,,,,,,,,,
,,546865,001,2023-06-06_13h49.48.792,Unsyncopated1,2022.2.5,Win32,59.73715651,,,,,,,,,,,,,,,,,,,,,,,,,space,0.3181,0,2,2,0,1,Online_whatL2//aDU4.none.wav,none,,,,,,,,,,,,,,,,,,,,,,,,,,,,,,,,,,,,,,,,,,,,
,,546865,001,2023-06-06_13h49.48.792,Unsyncopated1,2022.2.5,Win32,59.73715651,,,,,,,,,,,,,,,,,,,,,,,,,,,0,3,3,2,1,Online_whatL2//aDU6.none.wav,none,,,,,,,,,,,,,,,,,,,,,,,,,,,,,,,,,,,,,,,,,,,,
,,546865,001,2023-06-06_13h49.48.792,Unsyncopated1,2022.2.5,Win32,59.73715651,,,,,,,,,,,,,,,,,,,,,,,,,,,,,,,,,,0,17,17,28,1,du,4:8,orange,,,,,,,,,,,,,,,,,,,,,,,,,,,,,,,,,,,,
,,546865,001,2023-06-06_13h49.48.792,Unsyncopated1,2022.2.5,Win32,59.73715651,,,,,,,,,,,,,,,,,,,,,,,,,space,1.2939,0,0,0,2,1,Online_whatL2//bFE30.888.wav,888,,,,,,,,,,,,,,,,,,,,,,,,,,,,,,,,,,,,,,,,,,,,
,,546865,001,2023-06-06_13h49.48.792,Unsyncopated1,2022.2.5,Win32,59.73715651,,,,,,,,,,,,,,,,,,,,,,,,,,,0,1,1,3,1,Online_whatL2//bFE31.none.wav,none,,,,,,,,,,,,,,,,,,,,,,,,,,,,,,,,,,,,,,,,,,,,
,,546865,001,2023-06-06_13h49.48.792,Unsyncopated1,2022.2.5,Win32,59.73715651,,,,,,,,,,,,,,,,,,,,,,,,,,,0,2,2,1,1,Online_whatL2//bFE29.none.wav,none,,,,,,,,,,,,,,,,,,,,,,,,,,,,,,,,,,,,,,,,,,,,
,,546865,001,2023-06-06_13h49.48.792,Unsyncopated1,2022.2.5,Win32,59.73715651,,,,,,,,,,,,,,,,,,,,,,,,,,,0,3,3,0,1,Online_whatL2//bFE28.none.wav,none,,,,,,,,,,,,,,,,,,,,,,,,,,,,,,,,,,,,,,,,,,,,
,,546865,001,2023-06-06_13h49.48.792,Unsyncopated1,2022.2.5,Win32,59.73715651,,,,,,,,,,,,,,,,,,,,,,,,,,,,,,,,,,0,18,18,15,1,fe,60:64,red,,,,,,,,,,,,,,,,,,,,,,,,,,,,,,,,,,,,
,,546865,001,2023-06-06_13h49.48.792,Unsyncopated1,2022.2.5,Win32,59.73715651,,,,,,,,,,,,,,,,,,,,,,,,,space,1.1323,0,0,0,3,1,Online_whatL2//dSI15.222.wav,222,,,,,,,,,,,,,,,,,,,,,,,,,,,,,,,,,,,,,,,,,,,,
,,546865,001,2023-06-06_13h49.48.792,Unsyncopated1,2022.2.5,Win32,59.73715651,,,,,,,,,,,,,,,,,,,,,,,,,,,0,1,1,2,1,Online_whatL2//dSI14.none.wav,none,,,,,,,,,,,,,,,,,,,,,,,,,,,,,,,,,,,,,,,,,,,,
,,546865,001,2023-06-06_13h49.48.792,Unsyncopated1,2022.2.5,Win32,59.73715651,,,,,,,,,,,,,,,,,,,,,,,,,,,0,2,2,1,1,Online_whatL2//dSI13.1332.wav,1332,,,,,,,,,,,,,,,,,,,,,,,,,,,,,,,,,,,,,,,,,,,,
,,546865,001,2023-06-06_13h49.48.792,Unsyncopated1,2022.2.5,Win32,59.73715651,,,,,,,,,,,,,,,,,,,,,,,,,,,0,3,3,0,1,Online_whatL2//dSI12.222.wav,222,,,,,,,,,,,,,,,,,,,,,,,,,,,,,,,,,,,,,,,,,,,,
,,546865,001,2023-06-06_13h49.48.792,Unsyncopated1,2022.2.5,Win32,59.73715651,,,,,,,,,,,,,,,,,,,,,,,,,,,,,,,,,,0,19,19,6,1,si,108:112,green,,,,,,,,,,,,,,,,,,,,,,,,,,,,,,,,,,,,
,,546865,001,2023-06-06_13h49.48.792,Unsyncopated1,2022.2.5,Win32,59.73715651,,,,,,,,,,,,,,,,,,,,,,,,,space,2.2891,0,0,0,2,1,Online_whatL2//aDU30.1998.wav,1998,,,,,,,,,,,,,,,,,,,,,,,,,,,,,,,,,,,,,,,,,,,,
,,546865,001,2023-06-06_13h49.48.792,Unsyncopated1,2022.2.5,Win32,59.73715651,,,,,,,,,,,,,,,,,,,,,,,,,,,0,1,1,0,1,Online_whatL2//aDU28.none.wav,none,,,,,,,,,,,,,,,,,,,,,,,,,,,,,,,,,,,,,,,,,,,,
,,546865,001,2023-06-06_13h49.48.792,Unsyncopated1,2022.2.5,Win32,59.73715651,,,,,,,,,,,,,,,,,,,,,,,,,,,0,2,2,1,1,Online_whatL2//aDU29.none.wav,none,,,,,,,,,,,,,,,,,,,,,,,,,,,,,,,,,,,,,,,,,,,,
,,546865,001,2023-06-06_13h49.48.792,Unsyncopated1,2022.2.5,Win32,59.73715651,,,,,,,,,,,,,,,,,,,,,,,,,space,1.8378,0,3,3,3,1,Online_whatL2//aDU31.1110.wav,1110,,,,,,,,,,,,,,,,,,,,,,,,,,,,,,,,,,,,,,,,,,,,
,,546865,001,2023-06-06_13h49.48.792,Unsyncopated1,2022.2.5,Win32,59.73715651,,,,,,,,,,,,,,,,,,,,,,,,,,,,,,,,,,0,20,20,1,1,du,28:32,orange,,,,,,,,,,,,,,,,,,,,,,,,,,,,,,,,,,,,
,,546865,001,2023-06-06_13h49.48.792,Unsyncopated1,2022.2.5,Win32,59.73715651,,,,,,,,,,,,,,,,,,,,,,,,,space,2.0179,0,0,0,3,1,Online_whatL2//cCHA31.1332.wav,1332,,,,,,,,,,,,,,,,,,,,,,,,,,,,,,,,,,,,,,,,,,,,
,,546865,001,2023-06-06_13h49.48.792,Unsyncopated1,2022.2.5,Win32,59.73715651,,,,,,,,,,,,,,,,,,,,,,,,,,,0,1,1,1,1,Online_whatL2//cCHA29.none.wav,none,,,,,,,,,,,,,,,,,,,,,,,,,,,,,,,,,,,,,,,,,,,,
,,546865,001,2023-06-06_13h49.48.792,Unsyncopated1,2022.2.5,Win32,59.73715651,,,,,,,,,,,,,,,,,,,,,,,,,space,1.6965,0,2,2,0,1,Online_whatL2//cCHA28.1332.wav,1332,,,,,,,,,,,,,,,,,,,,,,,,,,,,,,,,,,,,,,,,,,,,
,,546865,001,2023-06-06_13h49.48.792,Unsyncopated1,2022.2.5,Win32,59.73715651,,,,,,,,,,,,,,,,,,,,,,,,,,,0,3,3,2,1,Online_whatL2//cCHA30.none.wav,none,,,,,,,,,,,,,,,,,,,,,,,,,,,,,,,,,,,,,,,,,,,,
,,546865,001,2023-06-06_13h49.48.792,Unsyncopated1,2022.2.5,Win32,59.73715651,,,,,,,,,,,,,,,,,,,,,,,,,,,,,,,,,,0,21,21,8,1,cha,92:96,blue,,,,,,,,,,,,,,,,,,,,,,,,,,,,,,,,,,,,
,,546865,001,2023-06-06_13h49.48.792,Unsyncopated1,2022.2.5,Win32,59.73715651,,,,,,,,,,,,,,,,,,,,,,,,,,,0,0,0,3,1,Online_whatL2//aDU3.none.wav,none,,,,,,,,,,,,,,,,,,,,,,,,,,,,,,,,,,,,,,,,,,,,
,,546865,001,2023-06-06_13h49.48.792,Unsyncopated1,2022.2.5,Win32,59.73715651,,,,,,,,,,,,,,,,,,,,,,,,,space,2.286,0,1,1,2,1,Online_whatL2//aDU2.1998.wav,1998,,,,,,,,,,,,,,,,,,,,,,,,,,,,,,,,,,,,,,,,,,,,
,,546865,001,2023-06-06_13h49.48.792,Unsyncopated1,2022.2.5,Win32,59.73715651,,,,,,,,,,,,,,,,,,,,,,,,,,,0,2,2,0,1,Online_whatL2//aDU0.none.wav,none,,,,,,,,,,,,,,,,,,,,,,,,,,,,,,,,,,,,,,,,,,,,
,,546865,001,2023-06-06_13h49.48.792,Unsyncopated1,2022.2.5,Win32,59.73715651,,,,,,,,,,,,,,,,,,,,,,,,,,,0,3,3,1,1,Online_whatL2//aDU1.none.wav,none,,,,,,,,,,,,,,,,,,,,,,,,,,,,,,,,,,,,,,,,,,,,
,,546865,001,2023-06-06_13h49.48.792,Unsyncopated1,2022.2.5,Win32,59.73715651,,,,,,,,,,,,,,,,,,,,,,,,,,,,,,,,,,0,22,22,14,1,du,0:4,orange,,,,,,,,,,,,,,,,,,,,,,,,,,,,,,,,,,,,
,,546865,001,2023-06-06_13h49.48.792,Unsyncopated1,2022.2.5,Win32,59.73715651,,,,,,,,,,,,,,,,,,,,,,,,,space,2.2877,0,0,0,2,1,Online_whatL2//aDU14.1998.wav,1998,,,,,,,,,,,,,,,,,,,,,,,,,,,,,,,,,,,,,,,,,,,,
,,546865,001,2023-06-06_13h49.48.792,Unsyncopated1,2022.2.5,Win32,59.73715651,,,,,,,,,,,,,,,,,,,,,,,,,,,0,1,1,1,1,Online_whatL2//aDU13.none.wav,none,,,,,,,,,,,,,,,,,,,,,,,,,,,,,,,,,,,,,,,,,,,,
