consent1.x,consent1.y,consent1.leftButton,consent1.midButton,consent1.rightButton,consent1.time,consent1.clicked_name,participant,group,date,expName,psychopyVersion,OS,frameRate,consent2.x,consent2.y,consent2.leftButton,consent2.midButton,consent2.rightButton,consent2.time,consent2.clicked_name,key_resp_20.keys,key_resp_20.rt,age_answer.text,mouse_8.x,mouse_8.y,mouse_8.leftButton,mouse_8.midButton,mouse_8.rightButton,mouse_8.time,mouse_8.clicked_name,residence_answer.text,mouse_2.x,mouse_2.y,mouse_2.leftButton,mouse_2.midButton,mouse_2.rightButton,mouse_2.time,mouse_2.clicked_name,native_lang_answer.text,mouse_9.x,mouse_9.y,mouse_9.leftButton,mouse_9.midButton,mouse_9.rightButton,mouse_9.time,sex_answer.response,sex_answer.rt,education_answer.response,education_answer.rt,hand_answer.response,hand_answer.rt,key_resp_15.keys,key_resp_15.rt,N_language_answer.text,mouse_4.x,mouse_4.y,mouse_4.leftButton,mouse_4.midButton,mouse_4.rightButton,mouse_4.time,langtype_answer_1.text,langage_answer_1.text,langtype_answer_2.text,langage_answer_2.text,langtype_answer_3.text,langage_answer_3.text,langtype_answer_4.text,langage_answer_4.text,langtype_answer_5.text,langage_answer_5.text,langtype_answer_6.text,langage_answer_6.text,mouse_5.x,mouse_5.y,mouse_5.leftButton,mouse_5.midButton,mouse_5.rightButton,mouse_5.time,N_lang_use_answer.text,mouse_6.x,mouse_6.y,mouse_6.leftButton,mouse_6.midButton,mouse_6.rightButton,mouse_6.time,mouse_6.clicked_name,ability_learnL2_answer.response,ability_learnL2_answer.rt,tendence_mixlang_answer.response,tendence_mixlang_answer.rt,lan_deficit_answer.response,lan_deficit_answer.rt,aud_deficit_answer.response,aud_deficit_answer.rt,key_resp_8.keys,key_resp_8.rt,music_expertise_answer.response,music_expertise_answer.rt,instr_type_answer_1.text,instr_age_answer_1.text,instr_type_answer_2.text,instr_age_answer_2.text,instr_type_answer_3.text,instr_age_answer_3.text,instr_type_answer_4.text,instr_age_answer_4.text,instr_type_answer_5.text,instr_age_answer_5.text,mouse_7.x,mouse_7.y,mouse_7.leftButton,mouse_7.midButton,mouse_7.rightButton,mouse_7.time,instrument_use_answer.response,instrument_use_answer.rt,partiture_answer.response,partiture_answer.rt,key_resp_21.keys,key_resp_21.rt,BMRQ_answer.response,BMRQ_answer.rt,BMRQ.thisRepN,BMRQ.thisTrialN,BMRQ.thisN,BMRQ.thisIndex,BMRQ.ran,preguntas_musica1,key_resp_6.keys,key_resp_6.rt,key_resp1.keys,key_resp1.rt,key_resp_10.keys,key_resp_10.rt,key_ressp2.keys,key_ressp2.rt,key_resp_9.keys,key_resp_9.rt,key_resp_3.keys,key_resp_3.rt,key_resp1_2.keys,key_resp1_2.rt,key_resp1_3.keys,key_resp1_3.rt,key_resp_11.keys,key_resp_11.rt,key_resp_12.keys,key_resp_12.rt,key_resp_18.keys,key_resp_18.rt,key_resp1_4.keys,key_resp1_4.rt,syllable_catch.keys,audios_online.thisRepN,audios_online.thisTrialN,audios_online.thisN,audios_online.thisIndex,audios_online.ran,dirs,timeA,timeB,s1,s2,s3,s4,s5,s6,s7,s8,s9,s10,s11,syllable_catch.rt
[-0.3288888888888889],[-0.2577777777777778],[1],[0],[0],[10.751999999999999],"[""informed_consent_accepted""]",s27,B,2023-10-27_12h39.19.118,Unsyncopated1,2022.2.5,MacIntel,6.024096386,,,,,,,,,,,,,,,,,,,,,,,,,,,,,,,,,,,,,,,,,,,,,,,,,,,,,,,,,,,,,,,,,,,,,,,,,,,,,,,,,,,,,,,,,,,,,,,,,,,,,,,,,,,,,,,,,,,,,,,,,,,,,,,,,,,,,,,,,,,,,,,,,,,,,,,,,,,,,,,,
,,,,,,,s27,B,2023-10-27_12h39.19.118,Unsyncopated1,2022.2.5,MacIntel,6.024096386,[-0.22111111111111112],[-0.29888888888888887],[1],[0],[0],[3.6110000000000007],"[""treatment_data_accepted""]",,,,,,,,,,,,,,,,,,,,,,,,,,,,,,,,,,,,,,,,,,,,,,,,,,,,,,,,,,,,,,,,,,,,,,,,,,,,,,,,,,,,,,,,,,,,,,,,,,,,,,,,,,,,,,,,,,,,,,,,,,,,,,,,,,,,,,,,,,,,,,,,,,,,,,,,,
,,,,,,,s27,B,2023-10-27_12h39.19.118,Unsyncopated1,2022.2.5,MacIntel,6.024096386,,,,,,,,space,4.761,,,,,,,,,,,,,,,,,,,,,,,,,,,,,,,,,,,,,,,,,,,,,,,,,,,,,,,,,,,,,,,,,,,,,,,,,,,,,,,,,,,,,,,,,,,,,,,,,,,,,,,,,,,,,,,,,,,,,,,,,,,,,,,,,,,,,,,,,,,,,,,,,,,,,,,
,,,,,,,s27,B,2023-10-27_12h39.19.118,Unsyncopated1,2022.2.5,MacIntel,6.024096386,,,,,,,,,,20,"[-0.044444444444444446,-0.05,0.042222222222222223]","[-0.005555555555555556,-0.03777777777777778,-0.30444444444444446]","[1,1,1]","[0,0,0]","[0,0,0]","[1.953000000000003,2.615000000000002,7.4780000000000015]","[""text_77""]",,,,,,,,,,,,,,,,,,,,,,,,,,,,,,,,,,,,,,,,,,,,,,,,,,,,,,,,,,,,,,,,,,,,,,,,,,,,,,,,,,,,,,,,,,,,,,,,,,,,,,,,,,,,,,,,,,,,,,,,,,,,,,,,,,,,,,,,,,,,,,,
,,,,,,,s27,B,2023-10-27_12h39.19.118,Unsyncopated1,2022.2.5,MacIntel,6.024096386,,,,,,,,,,,,,,,,,,España,"[-0.0022222222222222222,-0.03]","[0.0811111111111111,-0.3011111111111111]","[1,1]","[0,0]","[0,0]","[1.4940000000000069,6.679000000000002]","[""text_77""]",,,,,,,,,,,,,,,,,,,,,,,,,,,,,,,,,,,,,,,,,,,,,,,,,,,,,,,,,,,,,,,,,,,,,,,,,,,,,,,,,,,,,,,,,,,,,,,,,,,,,,,,,,,,,,,,,,,,,,,,,,,,,,,,,,,,,,,
,,,,,,,s27,B,2023-10-27_12h39.19.118,Unsyncopated1,2022.2.5,MacIntel,6.024096386,,,,,,,,,,,,,,,,,,,,,,,,,,CastellanoCatalán,"[-0.01888888888888889,-0.06111111111111111]","[0.11666666666666667,-0.3111111111111111]","[1,1]","[0,0]","[0,0]","[1.5999999999999943,8.378]",,,,,,,,,,,,,,,,,,,,,,,,,,,,,,,,,,,,,,,,,,,,,,,,,,,,,,,,,,,,,,,,,,,,,,,,,,,,,,,,,,,,,,,,,,,,,,,,,,,,,,,,,,,,,,,,,,,,,,,,,,,,,,,,
,,,,,,,s27,B,2023-10-27_12h39.19.118,Unsyncopated1,2022.2.5,MacIntel,6.024096386,,,,,,,,,,,,,,,,,,,,,,,,,,,,,,,,,2,2.438,,,,,,,,,,,,,,,,,,,,,,,,,,,,,,,,,,,,,,,,,,,,,,,,,,,,,,,,,,,,,,,,,,,,,,,,,,,,,,,,,,,,,,,,,,,,,,,,,,,,,,,,,,,,,,,,,,,,,,,,,,,,,,
,,,,,,,s27,B,2023-10-27_12h39.19.118,Unsyncopated1,2022.2.5,MacIntel,6.024096386,,,,,,,,,,,,,,,,,,,,,,,,,,,,,,,,,,,2,3.309,,,,,,,,,,,,,,,,,,,,,,,,,,,,,,,,,,,,,,,,,,,,,,,,,,,,,,,,,,,,,,,,,,,,,,,,,,,,,,,,,,,,,,,,,,,,,,,,,,,,,,,,,,,,,,,,,,,,,,,,,,,,
,,,,,,,s27,B,2023-10-27_12h39.19.118,Unsyncopated1,2022.2.5,MacIntel,6.024096386,,,,,,,,,,,,,,,,,,,,,,,,,,,,,,,,,,,,,2,3.253,,,,,,,,,,,,,,,,,,,,,,,,,,,,,,,,,,,,,,,,,,,,,,,,,,,,,,,,,,,,,,,,,,,,,,,,,,,,,,,,,,,,,,,,,,,,,,,,,,,,,,,,,,,,,,,,,,,,,,,,,,
,,,,,,,s27,B,2023-10-27_12h39.19.118,Unsyncopated1,2022.2.5,MacIntel,6.024096386,,,,,,,,,,,,,,,,,,,,,,,,,,,,,,,,,,,,,,,space,2.856,,,,,,,,,,,,,,,,,,,,,,,,,,,,,,,,,,,,,,,,,,,,,,,,,,,,,,,,,,,,,,,,,,,,,,,,,,,,,,,,,,,,,,,,,,,,,,,,,,,,,,,,,,,,,,,,,,,,,,,,
,,,,,,,s27,B,2023-10-27_12h39.19.118,Unsyncopated1,2022.2.5,MacIntel,6.024096386,,,,,,,,,,,,,,,,,,,,,,,,,,,,,,,,,,,,,,,,,3 ,"[-0.01,0.011111111111111112]","[0.10555555555555556,-0.28444444444444444]","[1,1]","[0,0]","[0,0]","[1.1999999999999886,9.409999999999997]",,,,,,,,,,,,,,,,,,,,,,,,,,,,,,,,,,,,,,,,,,,,,,,,,,,,,,,,,,,,,,,,,,,,,,,,,,,,,,,,,,,,,,,,,,,,,,,,,,,,,,,,,,,,,,,,,
,,,,,,,s27,B,2023-10-27_12h39.19.118,Unsyncopated1,2022.2.5,MacIntel,6.024096386,,,,,,,,,,,,,,,,,,,,,,,,,,,,,,,,,,,,,,,,,,,,,,,,Castellano,0,Catalán,0,Inglés,3,,,,,,,"[-0.2222222222222222,-0.31666666666666665,-0.3888888888888889,0.15333333333333332,0.17888888888888888,0.22,0.2577777777777778,0.2311111111111111,-0.021111111111111112,-0.0077777777777777776]","[0.12666666666666668,0.06222222222222222,-0.008888888888888889,-0.0033333333333333335,0.12777777777777777,0.11888888888888889,0.05555555555555555,0.0044444444444444444,-0.39555555555555555,-0.35888888888888887]","[1,1,1,1,1,1,1,1,1,1]","[0,0,0,0,0,0,0,0,0,0]","[0,0,0,0,0,0,0,0,0,0]","[2.676000000000002,5.641000000000005,8.686000000000007,13.061999999999998,13.658000000000001,20,31.628,32.772000000000006,34.42,35.087]",,,,,,,,,,,,,,,,,,,,,,,,,,,,,,,,,,,,,,,,,,,,,,,,,,,,,,,,,,,,,,,,,,,,,,,,,,,,,,,,,,,,,,,,,,,,,,,
,,,,,,,s27,B,2023-10-27_12h39.19.118,Unsyncopated1,2022.2.5,MacIntel,6.024096386,,,,,,,,,,,,,,,,,,,,,,,,,,,,,,,,,,,,,,,,,,,,,,,,,,,,,,,,,,,,,,,,,,"2, castellano y catalán","[0.034444444444444444,-0.06333333333333334,-0.07444444444444444]","[0.05,-0.3411111111111111,-0.30444444444444446]","[1,1,1]","[0,0,0]","[0,0,0]","[1.6410000000000053,11.391999999999996,12.058999999999997]","[""text_77""]",,,,,,,,,,,,,,,,,,,,,,,,,,,,,,,,,,,,,,,,,,,,,,,,,,,,,,,,,,,,,,,,,,,,,,,,,,,,,,,,,,,,,,,
,,,,,,,s27,B,2023-10-27_12h39.19.118,Unsyncopated1,2022.2.5,MacIntel,6.024096386,,,,,,,,,,,,,,,,,,,,,,,,,,,,,,,,,,,,,,,,,,,,,,,,,,,,,,,,,,,,,,,,,,,,,,,,,,3,10.337,,,,,,,,,,,,,,,,,,,,,,,,,,,,,,,,,,,,,,,,,,,,,,,,,,,,,,,,,,,,,,,,,,,,,,,,,,,,,,,,,,,,,
,,,,,,,s27,B,2023-10-27_12h39.19.118,Unsyncopated1,2022.2.5,MacIntel,6.024096386,,,,,,,,,,,,,,,,,,,,,,,,,,,,,,,,,,,,,,,,,,,,,,,,,,,,,,,,,,,,,,,,,,,,,,,,,,,,2,4.405,,,,,,,,,,,,,,,,,,,,,,,,,,,,,,,,,,,,,,,,,,,,,,,,,,,,,,,,,,,,,,,,,,,,,,,,,,,,,,,,,,,
,,,,,,,s27,B,2023-10-27_12h39.19.118,Unsyncopated1,2022.2.5,MacIntel,6.024096386,,,,,,,,,,,,,,,,,,,,,,,,,,,,,,,,,,,,,,,,,,,,,,,,,,,,,,,,,,,,,,,,,,,,,,,,,,,,,,0,3.271,,,,,,,,,,,,,,,,,,,,,,,,,,,,,,,,,,,,,,,,,,,,,,,,,,,,,,,,,,,,,,,,,,,,,,,,,,,,,,,,,
,,,,,,,s27,B,2023-10-27_12h39.19.118,Unsyncopated1,2022.2.5,MacIntel,6.024096386,,,,,,,,,,,,,,,,,,,,,,,,,,,,,,,,,,,,,,,,,,,,,,,,,,,,,,,,,,,,,,,,,,,,,,,,,,,,,,,,0,2.171,,,,,,,,,,,,,,,,,,,,,,,,,,,,,,,,,,,,,,,,,,,,,,,,,,,,,,,,,,,,,,,,,,,,,,,,,,,,,,,
,,,,,,,s27,B,2023-10-27_12h39.19.118,Unsyncopated1,2022.2.5,MacIntel,6.024096386,,,,,,,,,,,,,,,,,,,,,,,,,,,,,,,,,,,,,,,,,,,,,,,,,,,,,,,,,,,,,,,,,,,,,,,,,,,,,,,,,,space,2.495,,,,,,,,,,,,,,,,,,,,,,,,,,,,,,,,,,,,,,,,,,,,,,,,,,,,,,,,,,,,,,,,,,,,,,,,,,,,,
,,,,,,,s27,B,2023-10-27_12h39.19.118,Unsyncopated1,2022.2.5,MacIntel,6.024096386,,,,,,,,,,,,,,,,,,,,,,,,,,,,,,,,,,,,,,,,,,,,,,,,,,,,,,,,,,,,,,,,,,,,,,,,,,,,,,,,,,,,1,2.961,,,,,,,,,,,,,,,,,,,,,,,,,,,,,,,,,,,,,,,,,,,,,,,,,,,,,,,,,,,,,,,,,,,,,,,,,,,
,,,,,,,s27,B,2023-10-27_12h39.19.118,Unsyncopated1,2022.2.5,MacIntel,6.024096386,,,,,,,,,,,,,,,,,,,,,,,,,,,,,,,,,,,,,,,,,,,,,,,,,,,,,,,,,,,,,,,,,,,,,,,,,,,,,,,,,,,,,,Guitarra,12,Flauta,10,,,,,,,"[-0.24,0.1511111111111111,-0.34,0.1511111111111111,0.10888888888888888]","[0.13333333333333333,0.11777777777777777,0.058888888888888886,0.04555555555555556,-0.3466666666666667]","[1,1,1,1,1]","[0,0,0,0,0]","[0,0,0,0,0]","[1.2709999999999866,4.0120000000000005,8.585999999999984,13.212999999999994,16.069999999999993]",,,,,,,,,,,,,,,,,,,,,,,,,,,,,,,,,,,,,,,,,,,,,,,,,,,,,,,,,,,
,,,,,,,s27,B,2023-10-27_12h39.19.118,Unsyncopated1,2022.2.5,MacIntel,6.024096386,,,,,,,,,,,,,,,,,,,,,,,,,,,,,,,,,,,,,,,,,,,,,,,,,,,,,,,,,,,,,,,,,,,,,,,,,,,,,,,,,,,,,,,,,,,,,,,,,,,,,,0,9.358,,,,,,,,,,,,,,,,,,,,,,,,,,,,,,,,,,,,,,,,,,,,,,,,,,,,,,,,,
,,,,,,,s27,B,2023-10-27_12h39.19.118,Unsyncopated1,2022.2.5,MacIntel,6.024096386,,,,,,,,,,,,,,,,,,,,,,,,,,,,,,,,,,,,,,,,,,,,,,,,,,,,,,,,,,,,,,,,,,,,,,,,,,,,,,,,,,,,,,,,,,,,,,,,,,,,,,,,0,2.444,,,,,,,,,,,,,,,,,,,,,,,,,,,,,,,,,,,,,,,,,,,,,,,,,,,,,,,
,,,,,,,s27,B,2023-10-27_12h39.19.118,Unsyncopated1,2022.2.5,MacIntel,6.024096386,,,,,,,,,,,,,,,,,,,,,,,,,,,,,,,,,,,,,,,,,,,,,,,,,,,,,,,,,,,,,,,,,,,,,,,,,,,,,,,,,,,,,,,,,,,,,,,,,,,,,,,,,,space,6.88,,,,,,,,,,,,,,,,,,,,,,,,,,,,,,,,,,,,,,,,,,,,,,,,,,,,,
,,,,,,,s27,B,2023-10-27_12h39.19.118,Unsyncopated1,2022.2.5,MacIntel,6.024096386,,,,,,,,,,,,,,,,,,,,,,,,,,,,,,,,,,,,,,,,,,,,,,,,,,,,,,,,,,,,,,,,,,,,,,,,,,,,,,,,,,,,,,,,,,,,,,,,,,,,,,,,,,,,4,4.757,0,0,0,0,1,1. Cuando comparto música con alguien siento una complicidad especial con aquella persona.,,,,,,,,,,,,,,,,,,,,,,,,,,,,,,,,,,,,,,,,,,,,,
,,,,,,,s27,B,2023-10-27_12h39.19.118,Unsyncopated1,2022.2.5,MacIntel,6.024096386,,,,,,,,,,,,,,,,,,,,,,,,,,,,,,,,,,,,,,,,,,,,,,,,,,,,,,,,,,,,,,,,,,,,,,,,,,,,,,,,,,,,,,,,,,,,,,,,,,,,,,,,,,,,0,2.736,0,1,1,1,1,2. En mi tiempo libre apenas escucho música.,,,,,,,,,,,,,,,,,,,,,,,,,,,,,,,,,,,,,,,,,,,,,
,,,,,,,s27,B,2023-10-27_12h39.19.118,Unsyncopated1,2022.2.5,MacIntel,6.024096386,,,,,,,,,,,,,,,,,,,,,,,,,,,,,,,,,,,,,,,,,,,,,,,,,,,,,,,,,,,,,,,,,,,,,,,,,,,,,,,,,,,,,,,,,,,,,,,,,,,,,,,,,,,,4,2.512,0,2,2,2,1,3. Algunas canciones me ponen los pelos de punta,,,,,,,,,,,,,,,,,,,,,,,,,,,,,,,,,,,,,,,,,,,,,
,,,,,,,s27,B,2023-10-27_12h39.19.118,Unsyncopated1,2022.2.5,MacIntel,6.024096386,,,,,,,,,,,,,,,,,,,,,,,,,,,,,,,,,,,,,,,,,,,,,,,,,,,,,,,,,,,,,,,,,,,,,,,,,,,,,,,,,,,,,,,,,,,,,,,,,,,,,,,,,,,,4,2.304,0,3,3,3,1,4. La música me hace compañía cuando estoy solo,,,,,,,,,,,,,,,,,,,,,,,,,,,,,,,,,,,,,,,,,,,,,
,,,,,,,s27,B,2023-10-27_12h39.19.118,Unsyncopated1,2022.2.5,MacIntel,6.024096386,,,,,,,,,,,,,,,,,,,,,,,,,,,,,,,,,,,,,,,,,,,,,,,,,,,,,,,,,,,,,,,,,,,,,,,,,,,,,,,,,,,,,,,,,,,,,,,,,,,,,,,,,,,,0,2.937,0,4,4,4,1,5. No me apetece bailar ni con la música que más me gusta,,,,,,,,,,,,,,,,,,,,,,,,,,,,,,,,,,,,,,,,,,,,,
,,,,,,,s27,B,2023-10-27_12h39.19.118,Unsyncopated1,2022.2.5,MacIntel,6.024096386,,,,,,,,,,,,,,,,,,,,,,,,,,,,,,,,,,,,,,,,,,,,,,,,,,,,,,,,,,,,,,,,,,,,,,,,,,,,,,,,,,,,,,,,,,,,,,,,,,,,,,,,,,,,4,2.634,0,5,5,5,1,6. La música me hace conectar con la gente,,,,,,,,,,,,,,,,,,,,,,,,,,,,,,,,,,,,,,,,,,,,,
,,,,,,,s27,B,2023-10-27_12h39.19.118,Unsyncopated1,2022.2.5,MacIntel,6.024096386,,,,,,,,,,,,,,,,,,,,,,,,,,,,,,,,,,,,,,,,,,,,,,,,,,,,,,,,,,,,,,,,,,,,,,,,,,,,,,,,,,,,,,,,,,,,,,,,,,,,,,,,,,,,3,1.758,0,6,6,6,1,7. Me informo sobre la música que me gusta.,,,,,,,,,,,,,,,,,,,,,,,,,,,,,,,,,,,,,,,,,,,,,
,,,,,,,s27,B,2023-10-27_12h39.19.118,Unsyncopated1,2022.2.5,MacIntel,6.024096386,,,,,,,,,,,,,,,,,,,,,,,,,,,,,,,,,,,,,,,,,,,,,,,,,,,,,,,,,,,,,,,,,,,,,,,,,,,,,,,,,,,,,,,,,,,,,,,,,,,,,,,,,,,,4,1.66,0,7,7,7,1,8.Me emociono escuchando ciertas canciones.,,,,,,,,,,,,,,,,,,,,,,,,,,,,,,,,,,,,,,,,,,,,,
,,,,,,,s27,B,2023-10-27_12h39.19.118,Unsyncopated1,2022.2.5,MacIntel,6.024096386,,,,,,,,,,,,,,,,,,,,,,,,,,,,,,,,,,,,,,,,,,,,,,,,,,,,,,,,,,,,,,,,,,,,,,,,,,,,,,,,,,,,,,,,,,,,,,,,,,,,,,,,,,,,4,1.813,0,8,8,8,1,9.La música me tranquiliza y me relaja.,,,,,,,,,,,,,,,,,,,,,,,,,,,,,,,,,,,,,,,,,,,,,
,,,,,,,s27,B,2023-10-27_12h39.19.118,Unsyncopated1,2022.2.5,MacIntel,6.024096386,,,,,,,,,,,,,,,,,,,,,,,,,,,,,,,,,,,,,,,,,,,,,,,,,,,,,,,,,,,,,,,,,,,,,,,,,,,,,,,,,,,,,,,,,,,,,,,,,,,,,,,,,,,,4,1.123,0,9,9,9,1,10.La música me hace bailar,,,,,,,,,,,,,,,,,,,,,,,,,,,,,,,,,,,,,,,,,,,,,
,,,,,,,s27,B,2023-10-27_12h39.19.118,Unsyncopated1,2022.2.5,MacIntel,6.024096386,,,,,,,,,,,,,,,,,,,,,,,,,,,,,,,,,,,,,,,,,,,,,,,,,,,,,,,,,,,,,,,,,,,,,,,,,,,,,,,,,,,,,,,,,,,,,,,,,,,,,,,,,,,,3,1.858,0,10,10,10,1,11.Busco novedades musicales continuamente,,,,,,,,,,,,,,,,,,,,,,,,,,,,,,,,,,,,,,,,,,,,,
,,,,,,,s27,B,2023-10-27_12h39.19.118,Unsyncopated1,2022.2.5,MacIntel,6.024096386,,,,,,,,,,,,,,,,,,,,,,,,,,,,,,,,,,,,,,,,,,,,,,,,,,,,,,,,,,,,,,,,,,,,,,,,,,,,,,,,,,,,,,,,,,,,,,,,,,,,,,,,,,,,4,3.588,0,11,11,11,1,12. Puedo llorar cuando escucho algunas melodías que me gustan mucho.,,,,,,,,,,,,,,,,,,,,,,,,,,,,,,,,,,,,,,,,,,,,,
,,,,,,,s27,B,2023-10-27_12h39.19.118,Unsyncopated1,2022.2.5,MacIntel,6.024096386,,,,,,,,,,,,,,,,,,,,,,,,,,,,,,,,,,,,,,,,,,,,,,,,,,,,,,,,,,,,,,,,,,,,,,,,,,,,,,,,,,,,,,,,,,,,,,,,,,,,,,,,,,,,3,3.962,0,12,12,12,1,13. Me gusta cantar o tocar un instrumento con más gente,,,,,,,,,,,,,,,,,,,,,,,,,,,,,,,,,,,,,,,,,,,,,
,,,,,,,s27,B,2023-10-27_12h39.19.118,Unsyncopated1,2022.2.5,MacIntel,6.024096386,,,,,,,,,,,,,,,,,,,,,,,,,,,,,,,,,,,,,,,,,,,,,,,,,,,,,,,,,,,,,,,,,,,,,,,,,,,,,,,,,,,,,,,,,,,,,,,,,,,,,,,,,,,,4,1.945,0,13,13,13,1,14. La música me ayuda a desconectar.,,,,,,,,,,,,,,,,,,,,,,,,,,,,,,,,,,,,,,,,,,,,,
,,,,,,,s27,B,2023-10-27_12h39.19.118,Unsyncopated1,2022.2.5,MacIntel,6.024096386,,,,,,,,,,,,,,,,,,,,,,,,,,,,,,,,,,,,,,,,,,,,,,,,,,,,,,,,,,,,,,,,,,,,,,,,,,,,,,,,,,,,,,,,,,,,,,,,,,,,,,,,,,,,4,1.795,0,14,14,14,1,15. No puedo evitar tararear las canciones que me gustan cuando las escucho.,,,,,,,,,,,,,,,,,,,,,,,,,,,,,,,,,,,,,,,,,,,,,
,,,,,,,s27,B,2023-10-27_12h39.19.118,Unsyncopated1,2022.2.5,MacIntel,6.024096386,,,,,,,,,,,,,,,,,,,,,,,,,,,,,,,,,,,,,,,,,,,,,,,,,,,,,,,,,,,,,,,,,,,,,,,,,,,,,,,,,,,,,,,,,,,,,,,,,,,,,,,,,,,,4,1.871,0,15,15,15,1,16. En los conciertos me siento en sintonía con los artistas y el público.,,,,,,,,,,,,,,,,,,,,,,,,,,,,,,,,,,,,,,,,,,,,,
,,,,,,,s27,B,2023-10-27_12h39.19.118,Unsyncopated1,2022.2.5,MacIntel,6.024096386,,,,,,,,,,,,,,,,,,,,,,,,,,,,,,,,,,,,,,,,,,,,,,,,,,,,,,,,,,,,,,,,,,,,,,,,,,,,,,,,,,,,,,,,,,,,,,,,,,,,,,,,,,,,4,1.567,0,16,16,16,1,17. Me gasto bastante dinero en música y cosas relacionadas con la música.,,,,,,,,,,,,,,,,,,,,,,,,,,,,,,,,,,,,,,,,,,,,,
,,,,,,,s27,B,2023-10-27_12h39.19.118,Unsyncopated1,2022.2.5,MacIntel,6.024096386,,,,,,,,,,,,,,,,,,,,,,,,,,,,,,,,,,,,,,,,,,,,,,,,,,,,,,,,,,,,,,,,,,,,,,,,,,,,,,,,,,,,,,,,,,,,,,,,,,,,,,,,,,,,4,2.436,0,17,17,17,1,18. Siento escalofríos cuando escucho una melodía que me gusta.,,,,,,,,,,,,,,,,,,,,,,,,,,,,,,,,,,,,,,,,,,,,,
,,,,,,,s27,B,2023-10-27_12h39.19.118,Unsyncopated1,2022.2.5,MacIntel,6.024096386,,,,,,,,,,,,,,,,,,,,,,,,,,,,,,,,,,,,,,,,,,,,,,,,,,,,,,,,,,,,,,,,,,,,,,,,,,,,,,,,,,,,,,,,,,,,,,,,,,,,,,,,,,,,4,1.195,0,18,18,18,1,19. Con la música me puedo desahogar.,,,,,,,,,,,,,,,,,,,,,,,,,,,,,,,,,,,,,,,,,,,,,
,,,,,,,s27,B,2023-10-27_12h39.19.118,Unsyncopated1,2022.2.5,MacIntel,6.024096386,,,,,,,,,,,,,,,,,,,,,,,,,,,,,,,,,,,,,,,,,,,,,,,,,,,,,,,,,,,,,,,,,,,,,,,,,,,,,,,,,,,,,,,,,,,,,,,,,,,,,,,,,,,,4,3.839,0,19,19,19,1,20. Cuando escucho una melodía que me gusta mucho no puedo evitar mover el cuerpo.,,,,,,,,,,,,,,,,,,,,,,,,,,,,,,,,,,,,,,,,,,,,,
,,,,,,,s27,B,2023-10-27_12h39.19.118,Unsyncopated1,2022.2.5,MacIntel,6.024096386,,,,,,,,,,,,,,,,,,,,,,,,,,,,,,,,,,,,,,,,,,,,,,,,,,,,,,,,,,,,,,,,,,,,,,,,,,,,,,,,,,,,,,,,,,,,,,,,,,,,,,,,,,,,,,,,,,,,space,6.675,,,,,,,,,,,,,,,,,,,,,,,,,,,,,,,,,,,,,,,,,,,
,,,,,,,s27,B,2023-10-27_12h39.19.118,Unsyncopated1,2022.2.5,MacIntel,6.024096386,,,,,,,,,,,,,,,,,,,,,,,,,,,,,,,,,,,,,,,,,,,,,,,,,,,,,,,,,,,,,,,,,,,,,,,,,,,,,,,,,,,,,,,,,,,,,,,,,,,,,,,,,,,,,,,,,,,,,,space,8.305,,,,,,,,,,,,,,,,,,,,,,,,,,,,,,,,,,,,,,,,,
,,,,,,,s27,B,2023-10-27_12h39.19.118,Unsyncopated1,2022.2.5,MacIntel,6.024096386,,,,,,,,,,,,,,,,,,,,,,,,,,,,,,,,,,,,,,,,,,,,,,,,,,,,,,,,,,,,,,,,,,,,,,,,,,,,,,,,,,,,,,,,,,,,,,,,,,,,,,,,,,,,,,,,,,,,,,,,space,11.311,,,,,,,,,,,,,,,,,,,,,,,,,,,,,,,,,,,,,,,
,,,,,,,s27,B,2023-10-27_12h39.19.118,Unsyncopated1,2022.2.5,MacIntel,6.024096386,,,,,,,,,,,,,,,,,,,,,,,,,,,,,,,,,,,,,,,,,,,,,,,,,,,,,,,,,,,,,,,,,,,,,,,,,,,,,,,,,,,,,,,,,,,,,,,,,,,,,,,,,,,,,,,,,,,,,,,,,,space,7.811,,,,,,,,,,,,,,,,,,,,,,,,,,,,,,,,,,,,,
,,,,,,,s27,B,2023-10-27_12h39.19.118,Unsyncopated1,2022.2.5,MacIntel,6.024096386,,,,,,,,,,,,,,,,,,,,,,,,,,,,,,,,,,,,,,,,,,,,,,,,,,,,,,,,,,,,,,,,,,,,,,,,,,,,,,,,,,,,,,,,,,,,,,,,,,,,,,,,,,,,,,,,,,,,,,,,,,,,space,3.485,,,,,,,,,,,,,,,,,,,,,,,,,,,,,,,,,,,
,,,,,,,s27,B,2023-10-27_12h39.19.118,Unsyncopated1,2022.2.5,MacIntel,6.024096386,,,,,,,,,,,,,,,,,,,,,,,,,,,,,,,,,,,,,,,,,,,,,,,,,,,,,,,,,,,,,,,,,,,,,,,,,,,,,,,,,,,,,,,,,,,,,,,,,,,,,,,,,,,,,,,,,,,,,,,,,,,,,,space,7.218,,,,,,,,,,,,,,,,,,,,,,,,,,,,,,,,,
,,,,,,,s27,B,2023-10-27_12h39.19.118,Unsyncopated1,2022.2.5,MacIntel,6.024096386,,,,,,,,,,,,,,,,,,,,,,,,,,,,,,,,,,,,,,,,,,,,,,,,,,,,,,,,,,,,,,,,,,,,,,,,,,,,,,,,,,,,,,,,,,,,,,,,,,,,,,,,,,,,,,,,,,,,,,,,,,,,,,,,space,10.328,,,,,,,,,,,,,,,,,,,,,,,,,,,,,,,
,,,,,,,s27,B,2023-10-27_12h39.19.118,Unsyncopated1,2022.2.5,MacIntel,6.024096386,,,,,,,,,,,,,,,,,,,,,,,,,,,,,,,,,,,,,,,,,,,,,,,,,,,,,,,,,,,,,,,,,,,,,,,,,,,,,,,,,,,,,,,,,,,,,,,,,,,,,,,,,,,,,,,,,,,,,,,,,,,,,,,,,,space,12.729,,,,,,,,,,,,,,,,,,,,,,,,,,,,,
,,,,,,,s27,B,2023-10-27_12h39.19.118,Unsyncopated1,2022.2.5,MacIntel,6.024096386,,,,,,,,,,,,,,,,,,,,,,,,,,,,,,,,,,,,,,,,,,,,,,,,,,,,,,,,,,,,,,,,,,,,,,,,,,,,,,,,,,,,,,,,,,,,,,,,,,,,,,,,,,,,,,,,,,,,,,,,,,,,,,,,,,,,space,3.91,,,,,,,,,,,,,,,,,,,,,,,,,,,
,,,,,,,s27,B,2023-10-27_12h39.19.118,Unsyncopated1,2022.2.5,MacIntel,6.024096386,,,,,,,,,,,,,,,,,,,,,,,,,,,,,,,,,,,,,,,,,,,,,,,,,,,,,,,,,,,,,,,,,,,,,,,,,,,,,,,,,,,,,,,,,,,,,,,,,,,,,,,,,,,,,,,,,,,,,,,,,,,,,,,,,,,,,,space,1.854,,,,,,,,,,,,,,,,,,,,,,,,,
,,,,,,,s27,B,2023-10-27_12h39.19.118,Unsyncopated1,2022.2.5,MacIntel,6.024096386,,,,,,,,,,,,,,,,,,,,,,,,,,,,,,,,,,,,,,,,,,,,,,,,,,,,,,,,,,,,,,,,,,,,,,,,,,,,,,,,,,,,,,,,,,,,,,,,,,,,,,,,,,,,,,,,,,,,,,,,,,,,,,,,,,,,,,,,space,6.663,space,5.456,,0,0,0,2,1,Online_conjL4_syn//b.ja.nu6.none.none.wav,none,none,ña,po,ru,zi,sil,ñi,re,lo,sil1,bo,sil2,
,,,,,,,s27,B,2023-10-27_12h39.19.118,Unsyncopated1,2022.2.5,MacIntel,6.024096386,,,,,,,,,,,,,,,,,,,,,,,,,,,,,,,,,,,,,,,,,,,,,,,,,,,,,,,,,,,,,,,,,,,,,,,,,,,,,,,,,,,,,,,,,,,,,,,,,,,,,,,,,,,,,,,,,,,,,,,,,,,,,,,,,,,,,,,,,,,,,0,1,1,1,1,Online_conjL4_syn//b.ja.nu5.none.none.wav,none,none,zi,bo,pe,lo,sil,po,re,da,sil1,ñi,sil2,
,,,,,,,s27,B,2023-10-27_12h39.19.118,Unsyncopated1,2022.2.5,MacIntel,6.024096386,,,,,,,,,,,,,,,,,,,,,,,,,,,,,,,,,,,,,,,,,,,,,,,,,,,,,,,,,,,,,,,,,,,,,,,,,,,,,,,,,,,,,,,,,,,,,,,,,,,,,,,,,,,,,,,,,,,,,,,,,,,,,,,,,,,,,,,,,,,,"[""space""]",0,2,2,0,1,Online_conjL4_syn//b.ja.nu4.0.666.wav,0,666,ja,re,ru,nu,sil,po,pe,da,sil1,ñi,sil2,[1.427000000000021]
,,,,,,,s27,B,2023-10-27_12h39.19.118,Unsyncopated1,2022.2.5,MacIntel,6.024096386,,,,,,,,,,,,,,,,,,,,,,,,,,,,,,,,,,,,,,,,,,,,,,,,,,,,,,,,,,,,,,,,,,,,,,,,,,,,,,,,,,,,,,,,,,,,,,,,,,,,,,,,,,,,,,,,,,,,,,,,,,,,,,,,,,,,,,,,,,,,,0,3,3,3,1,Online_conjL4_syn//b.ja.nu7.none.none.wav,none,none,zi,po,pe,lo,sil,ci,bu,ñi,sil1,ru,sil2,
