consent1.x,consent1.y,consent1.leftButton,consent1.midButton,consent1.rightButton,consent1.time,consent1.clicked_name,participant,group,date,expName,psychopyVersion,OS,frameRate,consent2.x,consent2.y,consent2.leftButton,consent2.midButton,consent2.rightButton,consent2.time,consent2.clicked_name,key_resp_20.keys,key_resp_20.rt,age_answer.text,mouse_8.x,mouse_8.y,mouse_8.leftButton,mouse_8.midButton,mouse_8.rightButton,mouse_8.time,mouse_8.clicked_name,residence_answer.text,mouse_2.x,mouse_2.y,mouse_2.leftButton,mouse_2.midButton,mouse_2.rightButton,mouse_2.time,mouse_2.clicked_name,native_lang_answer.text,mouse_9.x,mouse_9.y,mouse_9.leftButton,mouse_9.midButton,mouse_9.rightButton,mouse_9.time,sex_answer.response,sex_answer.rt,education_answer.response,education_answer.rt,hand_answer.response,hand_answer.rt,key_resp_15.keys,key_resp_15.rt,N_language_answer.text,mouse_4.x,mouse_4.y,mouse_4.leftButton,mouse_4.midButton,mouse_4.rightButton,mouse_4.time,langtype_answer_1.text,langage_answer_1.text,langtype_answer_2.text,langage_answer_2.text,langtype_answer_3.text,langage_answer_3.text,langtype_answer_4.text,langage_answer_4.text,langtype_answer_5.text,langage_answer_5.text,langtype_answer_6.text,langage_answer_6.text,mouse_5.x,mouse_5.y,mouse_5.leftButton,mouse_5.midButton,mouse_5.rightButton,mouse_5.time,N_lang_use_answer.text,mouse_6.x,mouse_6.y,mouse_6.leftButton,mouse_6.midButton,mouse_6.rightButton,mouse_6.time,mouse_6.clicked_name,ability_learnL2_answer.response,ability_learnL2_answer.rt,tendence_mixlang_answer.response,tendence_mixlang_answer.rt,lan_deficit_answer.response,lan_deficit_answer.rt,aud_deficit_answer.response,aud_deficit_answer.rt,key_resp_8.keys,key_resp_8.rt,music_expertise_answer.response,music_expertise_answer.rt,instr_type_answer_1.text,instr_age_answer_1.text,instr_type_answer_2.text,instr_age_answer_2.text,instr_type_answer_3.text,instr_age_answer_3.text,instr_type_answer_4.text,instr_age_answer_4.text,instr_type_answer_5.text,instr_age_answer_5.text,mouse_7.x,mouse_7.y,mouse_7.leftButton,mouse_7.midButton,mouse_7.rightButton,mouse_7.time,instrument_use_answer.response,instrument_use_answer.rt,partiture_answer.response,partiture_answer.rt,key_resp_21.keys,key_resp_21.rt,BMRQ_answer.response,BMRQ_answer.rt,BMRQ.thisRepN,BMRQ.thisTrialN,BMRQ.thisN,BMRQ.thisIndex,BMRQ.ran,preguntas_musica1,key_resp_6.keys,key_resp_6.rt,key_resp1.keys,key_resp1.rt,key_resp_10.keys,key_resp_10.rt,key_ressp2.keys,key_ressp2.rt,key_resp_9.keys,key_resp_9.rt,key_resp_3.keys,key_resp_3.rt,key_resp1_2.keys,key_resp1_2.rt,key_resp1_3.keys,key_resp1_3.rt,key_resp_11.keys,key_resp_11.rt,key_resp_12.keys,key_resp_12.rt,key_resp_18.keys,key_resp_18.rt,key_resp1_4.keys,key_resp1_4.rt,syllable_catch.keys,audios_online.thisRepN,audios_online.thisTrialN,audios_online.thisN,audios_online.thisIndex,audios_online.ran,dirs,timeA,timeB,s1,s2,s3,s4,s5,s6,s7,s8,s9,s10,s11,syllable_catch.rt
[-0.015555555555555555],[-0.28555555555555556],[1],[0],[0],[7.140000000000001],"[""informed_consent_accepted""]",s27,B,2023-10-27_20h51.52.040,Unsyncopated1,2022.2.5,MacIntel,250,,,,,,,,,,,,,,,,,,,,,,,,,,,,,,,,,,,,,,,,,,,,,,,,,,,,,,,,,,,,,,,,,,,,,,,,,,,,,,,,,,,,,,,,,,,,,,,,,,,,,,,,,,,,,,,,,,,,,,,,,,,,,,,,,,,,,,,,,,,,,,,,,,,,,,,,,,,,,,,,
,,,,,,,s27,B,2023-10-27_20h51.52.040,Unsyncopated1,2022.2.5,MacIntel,250,[],[],[],[],[],[],[],,,,,,,,,,,,,,,,,,,,,,,,,,,,,,,,,,,,,,,,,,,,,,,,,,,,,,,,,,,,,,,,,,,,,,,,,,,,,,,,,,,,,,,,,,,,,,,,,,,,,,,,,,,,,,,,,,,,,,,,,,,,,,,,,,,,,,,,,,,,,,,,,,,,,,,,,
,,,,,,,s27,B,2023-10-27_20h51.52.040,Unsyncopated1,2022.2.5,MacIntel,250,,,,,,,,space,1.062,,,,,,,,,,,,,,,,,,,,,,,,,,,,,,,,,,,,,,,,,,,,,,,,,,,,,,,,,,,,,,,,,,,,,,,,,,,,,,,,,,,,,,,,,,,,,,,,,,,,,,,,,,,,,,,,,,,,,,,,,,,,,,,,,,,,,,,,,,,,,,,,,,,,,,,
,,,,,,,s27,B,2023-10-27_20h51.52.040,Unsyncopated1,2022.2.5,MacIntel,250,,,,,,,,,,20,"[-0.017777777777777778,-0.056666666666666664,-0.052222222222222225,-0.057777777777777775]","[-0.12,-0.39,-0.33,-0.29333333333333333]","[1,1,1,1]","[0,0,0,0]","[0,0,0,0]","[0.9430000000000014,2.818999999999999,3.2699999999999996,4.402000000000001]","[""text_77""]",,,,,,,,,,,,,,,,,,,,,,,,,,,,,,,,,,,,,,,,,,,,,,,,,,,,,,,,,,,,,,,,,,,,,,,,,,,,,,,,,,,,,,,,,,,,,,,,,,,,,,,,,,,,,,,,,,,,,,,,,,,,,,,,,,,,,,,,,,,,,,,
,,,,,,,s27,B,2023-10-27_20h51.52.040,Unsyncopated1,2022.2.5,MacIntel,250,,,,,,,,,,,,,,,,,,España,[-0.056666666666666664],[-0.32222222222222224],[1],[0],[0],[2.3770000000000024],"[""text_77""]",,,,,,,,,,,,,,,,,,,,,,,,,,,,,,,,,,,,,,,,,,,,,,,,,,,,,,,,,,,,,,,,,,,,,,,,,,,,,,,,,,,,,,,,,,,,,,,,,,,,,,,,,,,,,,,,,,,,,,,,,,,,,,,,,,,,,,,
,,,,,,,s27,B,2023-10-27_20h51.52.040,Unsyncopated1,2022.2.5,MacIntel,250,,,,,,,,,,,,,,,,,,,,,,,,,,"catalán y castellano
","[-0.08888888888888889,-0.09,-0.07222222222222222]","[-0.4011111111111111,-0.35,-0.3055555555555556]","[1,1,1]","[0,0,0]","[0,0,0]","[6.474999999999998,7.074999999999999,7.6419999999999995]",,,,,,,,,,,,,,,,,,,,,,,,,,,,,,,,,,,,,,,,,,,,,,,,,,,,,,,,,,,,,,,,,,,,,,,,,,,,,,,,,,,,,,,,,,,,,,,,,,,,,,,,,,,,,,,,,,,,,,,,,,,,,,,,
,,,,,,,s27,B,2023-10-27_20h51.52.040,Unsyncopated1,2022.2.5,MacIntel,250,,,,,,,,,,,,,,,,,,,,,,,,,,,,,,,,,2,0.986,,,,,,,,,,,,,,,,,,,,,,,,,,,,,,,,,,,,,,,,,,,,,,,,,,,,,,,,,,,,,,,,,,,,,,,,,,,,,,,,,,,,,,,,,,,,,,,,,,,,,,,,,,,,,,,,,,,,,,,,,,,,,,
,,,,,,,s27,B,2023-10-27_20h51.52.040,Unsyncopated1,2022.2.5,MacIntel,250,,,,,,,,,,,,,,,,,,,,,,,,,,,,,,,,,,,2,1.509,,,,,,,,,,,,,,,,,,,,,,,,,,,,,,,,,,,,,,,,,,,,,,,,,,,,,,,,,,,,,,,,,,,,,,,,,,,,,,,,,,,,,,,,,,,,,,,,,,,,,,,,,,,,,,,,,,,,,,,,,,,,
,,,,,,,s27,B,2023-10-27_20h51.52.040,Unsyncopated1,2022.2.5,MacIntel,250,,,,,,,,,,,,,,,,,,,,,,,,,,,,,,,,,,,,,2,1.345,,,,,,,,,,,,,,,,,,,,,,,,,,,,,,,,,,,,,,,,,,,,,,,,,,,,,,,,,,,,,,,,,,,,,,,,,,,,,,,,,,,,,,,,,,,,,,,,,,,,,,,,,,,,,,,,,,,,,,,,,,
,,,,,,,s27,B,2023-10-27_20h51.52.040,Unsyncopated1,2022.2.5,MacIntel,250,,,,,,,,,,,,,,,,,,,,,,,,,,,,,,,,,,,,,,,space,0.758,,,,,,,,,,,,,,,,,,,,,,,,,,,,,,,,,,,,,,,,,,,,,,,,,,,,,,,,,,,,,,,,,,,,,,,,,,,,,,,,,,,,,,,,,,,,,,,,,,,,,,,,,,,,,,,,,,,,,,,,
,,,,,,,s27,B,2023-10-27_20h51.52.040,Unsyncopated1,2022.2.5,MacIntel,250,,,,,,,,,,,,,,,,,,,,,,,,,,,,,,,,,,,,,,,,,3,"[-0.008888888888888889,0.04777777777777778]","[0.1,-0.31333333333333335]","[1,1]","[0,0]","[0,0]","[0.7880000000000038,2.423000000000002]",,,,,,,,,,,,,,,,,,,,,,,,,,,,,,,,,,,,,,,,,,,,,,,,,,,,,,,,,,,,,,,,,,,,,,,,,,,,,,,,,,,,,,,,,,,,,,,,,,,,,,,,,,,,,,,,,
,,,,,,,s27,B,2023-10-27_20h51.52.040,Unsyncopated1,2022.2.5,MacIntel,250,,,,,,,,,,,,,,,,,,,,,,,,,,,,,,,,,,,,,,,,,,,,,,,,catalán,0,castellano,0,inglés,3,,,,,,,"[-0.1411111111111111,-0.1922222222222222,-0.21666666666666667,0.29888888888888887,0.29555555555555557,0.2811111111111111,0.15777777777777777]","[0.14666666666666667,0.056666666666666664,0.015555555555555555,0.14,0.07555555555555556,-0.015555555555555555,-0.3322222222222222]","[1,1,1,1,1,1,1]","[0,0,0,0,0,0,0]","[0,0,0,0,0,0,0]","[0.9029999999999987,4.288000000000004,6.443000000000005,10.859000000000002,13.068000000000005,14.274000000000001,16.345000000000006]",,,,,,,,,,,,,,,,,,,,,,,,,,,,,,,,,,,,,,,,,,,,,,,,,,,,,,,,,,,,,,,,,,,,,,,,,,,,,,,,,,,,,,,,,,,,,,,
,,,,,,,s27,B,2023-10-27_20h51.52.040,Unsyncopated1,2022.2.5,MacIntel,250,,,,,,,,,,,,,,,,,,,,,,,,,,,,,,,,,,,,,,,,,,,,,,,,,,,,,,,,,,,,,,,,,,2,"[0.034444444444444444,0.024444444444444446]","[0.10333333333333333,-0.31444444444444447]","[1,1]","[0,0]","[0,0]","[1.2560000000000002,2.4080000000000013]","[""text_77""]",,,,,,,,,,,,,,,,,,,,,,,,,,,,,,,,,,,,,,,,,,,,,,,,,,,,,,,,,,,,,,,,,,,,,,,,,,,,,,,,,,,,,,,
,,,,,,,s27,B,2023-10-27_20h51.52.040,Unsyncopated1,2022.2.5,MacIntel,250,,,,,,,,,,,,,,,,,,,,,,,,,,,,,,,,,,,,,,,,,,,,,,,,,,,,,,,,,,,,,,,,,,,,,,,,,,3,2.137,,,,,,,,,,,,,,,,,,,,,,,,,,,,,,,,,,,,,,,,,,,,,,,,,,,,,,,,,,,,,,,,,,,,,,,,,,,,,,,,,,,,,
,,,,,,,s27,B,2023-10-27_20h51.52.040,Unsyncopated1,2022.2.5,MacIntel,250,,,,,,,,,,,,,,,,,,,,,,,,,,,,,,,,,,,,,,,,,,,,,,,,,,,,,,,,,,,,,,,,,,,,,,,,,,,,2,2.931,,,,,,,,,,,,,,,,,,,,,,,,,,,,,,,,,,,,,,,,,,,,,,,,,,,,,,,,,,,,,,,,,,,,,,,,,,,,,,,,,,,
,,,,,,,s27,B,2023-10-27_20h51.52.040,Unsyncopated1,2022.2.5,MacIntel,250,,,,,,,,,,,,,,,,,,,,,,,,,,,,,,,,,,,,,,,,,,,,,,,,,,,,,,,,,,,,,,,,,,,,,,,,,,,,,,0,2.212,,,,,,,,,,,,,,,,,,,,,,,,,,,,,,,,,,,,,,,,,,,,,,,,,,,,,,,,,,,,,,,,,,,,,,,,,,,,,,,,,
,,,,,,,s27,B,2023-10-27_20h51.52.040,Unsyncopated1,2022.2.5,MacIntel,250,,,,,,,,,,,,,,,,,,,,,,,,,,,,,,,,,,,,,,,,,,,,,,,,,,,,,,,,,,,,,,,,,,,,,,,,,,,,,,,,0,0.378,,,,,,,,,,,,,,,,,,,,,,,,,,,,,,,,,,,,,,,,,,,,,,,,,,,,,,,,,,,,,,,,,,,,,,,,,,,,,,,
,,,,,,,s27,B,2023-10-27_20h51.52.040,Unsyncopated1,2022.2.5,MacIntel,250,,,,,,,,,,,,,,,,,,,,,,,,,,,,,,,,,,,,,,,,,,,,,,,,,,,,,,,,,,,,,,,,,,,,,,,,,,,,,,,,,,space,0.692,,,,,,,,,,,,,,,,,,,,,,,,,,,,,,,,,,,,,,,,,,,,,,,,,,,,,,,,,,,,,,,,,,,,,,,,,,,,,
,,,,,,,s27,B,2023-10-27_20h51.52.040,Unsyncopated1,2022.2.5,MacIntel,250,,,,,,,,,,,,,,,,,,,,,,,,,,,,,,,,,,,,,,,,,,,,,,,,,,,,,,,,,,,,,,,,,,,,,,,,,,,,,,,,,,,,1,2.988,,,,,,,,,,,,,,,,,,,,,,,,,,,,,,,,,,,,,,,,,,,,,,,,,,,,,,,,,,,,,,,,,,,,,,,,,,,
,,,,,,,s27,B,2023-10-27_20h51.52.040,Unsyncopated1,2022.2.5,MacIntel,250,,,,,,,,,,,,,,,,,,,,,,,,,,,,,,,,,,,,,,,,,,,,,,,,,,,,,,,,,,,,,,,,,,,,,,,,,,,,,,,,,,,,,,flauta,10,,,,,,,,,"[-0.18777777777777777,0.25333333333333335,0.12333333333333334,0.06444444444444444]","[0.1288888888888889,0.13666666666666666,-0.31444444444444447,-0.35555555555555557]","[1,1,1,1]","[0,0,0,0]","[0,0,0,0]","[0.5450000000000017,4.239999999999995,5.978999999999999,6.614000000000004]",,,,,,,,,,,,,,,,,,,,,,,,,,,,,,,,,,,,,,,,,,,,,,,,,,,,,,,,,,,
,,,,,,,s27,B,2023-10-27_20h51.52.040,Unsyncopated1,2022.2.5,MacIntel,250,,,,,,,,,,,,,,,,,,,,,,,,,,,,,,,,,,,,,,,,,,,,,,,,,,,,,,,,,,,,,,,,,,,,,,,,,,,,,,,,,,,,,,,,,,,,,,,,,,,,,,0,1.619,,,,,,,,,,,,,,,,,,,,,,,,,,,,,,,,,,,,,,,,,,,,,,,,,,,,,,,,,
,,,,,,,s27,B,2023-10-27_20h51.52.040,Unsyncopated1,2022.2.5,MacIntel,250,,,,,,,,,,,,,,,,,,,,,,,,,,,,,,,,,,,,,,,,,,,,,,,,,,,,,,,,,,,,,,,,,,,,,,,,,,,,,,,,,,,,,,,,,,,,,,,,,,,,,,,,0,0.496,,,,,,,,,,,,,,,,,,,,,,,,,,,,,,,,,,,,,,,,,,,,,,,,,,,,,,,
,,,,,,,s27,B,2023-10-27_20h51.52.040,Unsyncopated1,2022.2.5,MacIntel,250,,,,,,,,,,,,,,,,,,,,,,,,,,,,,,,,,,,,,,,,,,,,,,,,,,,,,,,,,,,,,,,,,,,,,,,,,,,,,,,,,,,,,,,,,,,,,,,,,,,,,,,,,,space,0.641,,,,,,,,,,,,,,,,,,,,,,,,,,,,,,,,,,,,,,,,,,,,,,,,,,,,,
,,,,,,,s27,B,2023-10-27_20h51.52.040,Unsyncopated1,2022.2.5,MacIntel,250,,,,,,,,,,,,,,,,,,,,,,,,,,,,,,,,,,,,,,,,,,,,,,,,,,,,,,,,,,,,,,,,,,,,,,,,,,,,,,,,,,,,,,,,,,,,,,,,,,,,,,,,,,,,4,2.2,0,0,0,0,1,1. Cuando comparto música con alguien siento una complicidad especial con aquella persona.,,,,,,,,,,,,,,,,,,,,,,,,,,,,,,,,,,,,,,,,,,,,,
,,,,,,,s27,B,2023-10-27_20h51.52.040,Unsyncopated1,2022.2.5,MacIntel,250,,,,,,,,,,,,,,,,,,,,,,,,,,,,,,,,,,,,,,,,,,,,,,,,,,,,,,,,,,,,,,,,,,,,,,,,,,,,,,,,,,,,,,,,,,,,,,,,,,,,,,,,,,,,0,1.896,0,1,1,1,1,2. En mi tiempo libre apenas escucho música.,,,,,,,,,,,,,,,,,,,,,,,,,,,,,,,,,,,,,,,,,,,,,
,,,,,,,s27,B,2023-10-27_20h51.52.040,Unsyncopated1,2022.2.5,MacIntel,250,,,,,,,,,,,,,,,,,,,,,,,,,,,,,,,,,,,,,,,,,,,,,,,,,,,,,,,,,,,,,,,,,,,,,,,,,,,,,,,,,,,,,,,,,,,,,,,,,,,,,,,,,,,,4,1.155,0,2,2,2,1,3. Algunas canciones me ponen los pelos de punta,,,,,,,,,,,,,,,,,,,,,,,,,,,,,,,,,,,,,,,,,,,,,
,,,,,,,s27,B,2023-10-27_20h51.52.040,Unsyncopated1,2022.2.5,MacIntel,250,,,,,,,,,,,,,,,,,,,,,,,,,,,,,,,,,,,,,,,,,,,,,,,,,,,,,,,,,,,,,,,,,,,,,,,,,,,,,,,,,,,,,,,,,,,,,,,,,,,,,,,,,,,,4,1.177,0,3,3,3,1,4. La música me hace compañía cuando estoy solo,,,,,,,,,,,,,,,,,,,,,,,,,,,,,,,,,,,,,,,,,,,,,
,,,,,,,s27,B,2023-10-27_20h51.52.040,Unsyncopated1,2022.2.5,MacIntel,250,,,,,,,,,,,,,,,,,,,,,,,,,,,,,,,,,,,,,,,,,,,,,,,,,,,,,,,,,,,,,,,,,,,,,,,,,,,,,,,,,,,,,,,,,,,,,,,,,,,,,,,,,,,,0,1.519,0,4,4,4,1,5. No me apetece bailar ni con la música que más me gusta,,,,,,,,,,,,,,,,,,,,,,,,,,,,,,,,,,,,,,,,,,,,,
,,,,,,,s27,B,2023-10-27_20h51.52.040,Unsyncopated1,2022.2.5,MacIntel,250,,,,,,,,,,,,,,,,,,,,,,,,,,,,,,,,,,,,,,,,,,,,,,,,,,,,,,,,,,,,,,,,,,,,,,,,,,,,,,,,,,,,,,,,,,,,,,,,,,,,,,,,,,,,3,1.576,0,5,5,5,1,6. La música me hace conectar con la gente,,,,,,,,,,,,,,,,,,,,,,,,,,,,,,,,,,,,,,,,,,,,,
,,,,,,,s27,B,2023-10-27_20h51.52.040,Unsyncopated1,2022.2.5,MacIntel,250,,,,,,,,,,,,,,,,,,,,,,,,,,,,,,,,,,,,,,,,,,,,,,,,,,,,,,,,,,,,,,,,,,,,,,,,,,,,,,,,,,,,,,,,,,,,,,,,,,,,,,,,,,,,4,2.427,0,6,6,6,1,7. Me informo sobre la música que me gusta.,,,,,,,,,,,,,,,,,,,,,,,,,,,,,,,,,,,,,,,,,,,,,
,,,,,,,s27,B,2023-10-27_20h51.52.040,Unsyncopated1,2022.2.5,MacIntel,250,,,,,,,,,,,,,,,,,,,,,,,,,,,,,,,,,,,,,,,,,,,,,,,,,,,,,,,,,,,,,,,,,,,,,,,,,,,,,,,,,,,,,,,,,,,,,,,,,,,,,,,,,,,,4,0.99,0,7,7,7,1,8.Me emociono escuchando ciertas canciones.,,,,,,,,,,,,,,,,,,,,,,,,,,,,,,,,,,,,,,,,,,,,,
,,,,,,,s27,B,2023-10-27_20h51.52.040,Unsyncopated1,2022.2.5,MacIntel,250,,,,,,,,,,,,,,,,,,,,,,,,,,,,,,,,,,,,,,,,,,,,,,,,,,,,,,,,,,,,,,,,,,,,,,,,,,,,,,,,,,,,,,,,,,,,,,,,,,,,,,,,,,,,4,1.175,0,8,8,8,1,9.La música me tranquiliza y me relaja.,,,,,,,,,,,,,,,,,,,,,,,,,,,,,,,,,,,,,,,,,,,,,
,,,,,,,s27,B,2023-10-27_20h51.52.040,Unsyncopated1,2022.2.5,MacIntel,250,,,,,,,,,,,,,,,,,,,,,,,,,,,,,,,,,,,,,,,,,,,,,,,,,,,,,,,,,,,,,,,,,,,,,,,,,,,,,,,,,,,,,,,,,,,,,,,,,,,,,,,,,,,,4,0.837,0,9,9,9,1,10.La música me hace bailar,,,,,,,,,,,,,,,,,,,,,,,,,,,,,,,,,,,,,,,,,,,,,
,,,,,,,s27,B,2023-10-27_20h51.52.040,Unsyncopated1,2022.2.5,MacIntel,250,,,,,,,,,,,,,,,,,,,,,,,,,,,,,,,,,,,,,,,,,,,,,,,,,,,,,,,,,,,,,,,,,,,,,,,,,,,,,,,,,,,,,,,,,,,,,,,,,,,,,,,,,,,,4,0.862,0,10,10,10,1,11.Busco novedades musicales continuamente,,,,,,,,,,,,,,,,,,,,,,,,,,,,,,,,,,,,,,,,,,,,,
,,,,,,,s27,B,2023-10-27_20h51.52.040,Unsyncopated1,2022.2.5,MacIntel,250,,,,,,,,,,,,,,,,,,,,,,,,,,,,,,,,,,,,,,,,,,,,,,,,,,,,,,,,,,,,,,,,,,,,,,,,,,,,,,,,,,,,,,,,,,,,,,,,,,,,,,,,,,,,4,0.862,0,11,11,11,1,12. Puedo llorar cuando escucho algunas melodías que me gustan mucho.,,,,,,,,,,,,,,,,,,,,,,,,,,,,,,,,,,,,,,,,,,,,,
,,,,,,,s27,B,2023-10-27_20h51.52.040,Unsyncopated1,2022.2.5,MacIntel,250,,,,,,,,,,,,,,,,,,,,,,,,,,,,,,,,,,,,,,,,,,,,,,,,,,,,,,,,,,,,,,,,,,,,,,,,,,,,,,,,,,,,,,,,,,,,,,,,,,,,,,,,,,,,3,1.746,0,12,12,12,1,13. Me gusta cantar o tocar un instrumento con más gente,,,,,,,,,,,,,,,,,,,,,,,,,,,,,,,,,,,,,,,,,,,,,
,,,,,,,s27,B,2023-10-27_20h51.52.040,Unsyncopated1,2022.2.5,MacIntel,250,,,,,,,,,,,,,,,,,,,,,,,,,,,,,,,,,,,,,,,,,,,,,,,,,,,,,,,,,,,,,,,,,,,,,,,,,,,,,,,,,,,,,,,,,,,,,,,,,,,,,,,,,,,,4,1.054,0,13,13,13,1,14. La música me ayuda a desconectar.,,,,,,,,,,,,,,,,,,,,,,,,,,,,,,,,,,,,,,,,,,,,,
,,,,,,,s27,B,2023-10-27_20h51.52.040,Unsyncopated1,2022.2.5,MacIntel,250,,,,,,,,,,,,,,,,,,,,,,,,,,,,,,,,,,,,,,,,,,,,,,,,,,,,,,,,,,,,,,,,,,,,,,,,,,,,,,,,,,,,,,,,,,,,,,,,,,,,,,,,,,,,4,0.603,0,14,14,14,1,15. No puedo evitar tararear las canciones que me gustan cuando las escucho.,,,,,,,,,,,,,,,,,,,,,,,,,,,,,,,,,,,,,,,,,,,,,
,,,,,,,s27,B,2023-10-27_20h51.52.040,Unsyncopated1,2022.2.5,MacIntel,250,,,,,,,,,,,,,,,,,,,,,,,,,,,,,,,,,,,,,,,,,,,,,,,,,,,,,,,,,,,,,,,,,,,,,,,,,,,,,,,,,,,,,,,,,,,,,,,,,,,,,,,,,,,,4,0.977,0,15,15,15,1,16. En los conciertos me siento en sintonía con los artistas y el público.,,,,,,,,,,,,,,,,,,,,,,,,,,,,,,,,,,,,,,,,,,,,,
,,,,,,,s27,B,2023-10-27_20h51.52.040,Unsyncopated1,2022.2.5,MacIntel,250,,,,,,,,,,,,,,,,,,,,,,,,,,,,,,,,,,,,,,,,,,,,,,,,,,,,,,,,,,,,,,,,,,,,,,,,,,,,,,,,,,,,,,,,,,,,,,,,,,,,,,,,,,,,4,0.878,0,16,16,16,1,17. Me gasto bastante dinero en música y cosas relacionadas con la música.,,,,,,,,,,,,,,,,,,,,,,,,,,,,,,,,,,,,,,,,,,,,,
,,,,,,,s27,B,2023-10-27_20h51.52.040,Unsyncopated1,2022.2.5,MacIntel,250,,,,,,,,,,,,,,,,,,,,,,,,,,,,,,,,,,,,,,,,,,,,,,,,,,,,,,,,,,,,,,,,,,,,,,,,,,,,,,,,,,,,,,,,,,,,,,,,,,,,,,,,,,,,4,0.957,0,17,17,17,1,18. Siento escalofríos cuando escucho una melodía que me gusta.,,,,,,,,,,,,,,,,,,,,,,,,,,,,,,,,,,,,,,,,,,,,,
,,,,,,,s27,B,2023-10-27_20h51.52.040,Unsyncopated1,2022.2.5,MacIntel,250,,,,,,,,,,,,,,,,,,,,,,,,,,,,,,,,,,,,,,,,,,,,,,,,,,,,,,,,,,,,,,,,,,,,,,,,,,,,,,,,,,,,,,,,,,,,,,,,,,,,,,,,,,,,4,0.671,0,18,18,18,1,19. Con la música me puedo desahogar.,,,,,,,,,,,,,,,,,,,,,,,,,,,,,,,,,,,,,,,,,,,,,
,,,,,,,s27,B,2023-10-27_20h51.52.040,Unsyncopated1,2022.2.5,MacIntel,250,,,,,,,,,,,,,,,,,,,,,,,,,,,,,,,,,,,,,,,,,,,,,,,,,,,,,,,,,,,,,,,,,,,,,,,,,,,,,,,,,,,,,,,,,,,,,,,,,,,,,,,,,,,,4,0.569,0,19,19,19,1,20. Cuando escucho una melodía que me gusta mucho no puedo evitar mover el cuerpo.,,,,,,,,,,,,,,,,,,,,,,,,,,,,,,,,,,,,,,,,,,,,,
,,,,,,,s27,B,2023-10-27_20h51.52.040,Unsyncopated1,2022.2.5,MacIntel,250,,,,,,,,,,,,,,,,,,,,,,,,,,,,,,,,,,,,,,,,,,,,,,,,,,,,,,,,,,,,,,,,,,,,,,,,,,,,,,,,,,,,,,,,,,,,,,,,,,,,,,,,,,,,,,,,,,,,space,0.734,,,,,,,,,,,,,,,,,,,,,,,,,,,,,,,,,,,,,,,,,,,
,,,,,,,s27,B,2023-10-27_20h51.52.040,Unsyncopated1,2022.2.5,MacIntel,250,,,,,,,,,,,,,,,,,,,,,,,,,,,,,,,,,,,,,,,,,,,,,,,,,,,,,,,,,,,,,,,,,,,,,,,,,,,,,,,,,,,,,,,,,,,,,,,,,,,,,,,,,,,,,,,,,,,,,,space,0.466,,,,,,,,,,,,,,,,,,,,,,,,,,,,,,,,,,,,,,,,,
,,,,,,,s27,B,2023-10-27_20h51.52.040,Unsyncopated1,2022.2.5,MacIntel,250,,,,,,,,,,,,,,,,,,,,,,,,,,,,,,,,,,,,,,,,,,,,,,,,,,,,,,,,,,,,,,,,,,,,,,,,,,,,,,,,,,,,,,,,,,,,,,,,,,,,,,,,,,,,,,,,,,,,,,,,space,0.416,,,,,,,,,,,,,,,,,,,,,,,,,,,,,,,,,,,,,,,
,,,,,,,s27,B,2023-10-27_20h51.52.040,Unsyncopated1,2022.2.5,MacIntel,250,,,,,,,,,,,,,,,,,,,,,,,,,,,,,,,,,,,,,,,,,,,,,,,,,,,,,,,,,,,,,,,,,,,,,,,,,,,,,,,,,,,,,,,,,,,,,,,,,,,,,,,,,,,,,,,,,,,,,,,,,,space,1.341,,,,,,,,,,,,,,,,,,,,,,,,,,,,,,,,,,,,,
,,,,,,,s27,B,2023-10-27_20h51.52.040,Unsyncopated1,2022.2.5,MacIntel,250,,,,,,,,,,,,,,,,,,,,,,,,,,,,,,,,,,,,,,,,,,,,,,,,,,,,,,,,,,,,,,,,,,,,,,,,,,,,,,,,,,,,,,,,,,,,,,,,,,,,,,,,,,,,,,,,,,,,,,,,,,,,space,1.653,,,,,,,,,,,,,,,,,,,,,,,,,,,,,,,,,,,
,,,,,,,s27,B,2023-10-27_20h51.52.040,Unsyncopated1,2022.2.5,MacIntel,250,,,,,,,,,,,,,,,,,,,,,,,,,,,,,,,,,,,,,,,,,,,,,,,,,,,,,,,,,,,,,,,,,,,,,,,,,,,,,,,,,,,,,,,,,,,,,,,,,,,,,,,,,,,,,,,,,,,,,,,,,,,,,,space,0.557,,,,,,,,,,,,,,,,,,,,,,,,,,,,,,,,,
,,,,,,,s27,B,2023-10-27_20h51.52.040,Unsyncopated1,2022.2.5,MacIntel,250,,,,,,,,,,,,,,,,,,,,,,,,,,,,,,,,,,,,,,,,,,,,,,,,,,,,,,,,,,,,,,,,,,,,,,,,,,,,,,,,,,,,,,,,,,,,,,,,,,,,,,,,,,,,,,,,,,,,,,,,,,,,,,,,space,0.223,,,,,,,,,,,,,,,,,,,,,,,,,,,,,,,
,,,,,,,s27,B,2023-10-27_20h51.52.040,Unsyncopated1,2022.2.5,MacIntel,250,,,,,,,,,,,,,,,,,,,,,,,,,,,,,,,,,,,,,,,,,,,,,,,,,,,,,,,,,,,,,,,,,,,,,,,,,,,,,,,,,,,,,,,,,,,,,,,,,,,,,,,,,,,,,,,,,,,,,,,,,,,,,,,,,,space,0.247,,,,,,,,,,,,,,,,,,,,,,,,,,,,,
,,,,,,,s27,B,2023-10-27_20h51.52.040,Unsyncopated1,2022.2.5,MacIntel,250,,,,,,,,,,,,,,,,,,,,,,,,,,,,,,,,,,,,,,,,,,,,,,,,,,,,,,,,,,,,,,,,,,,,,,,,,,,,,,,,,,,,,,,,,,,,,,,,,,,,,,,,,,,,,,,,,,,,,,,,,,,,,,,,,,,,space,0.734,,,,,,,,,,,,,,,,,,,,,,,,,,,
,,,,,,,s27,B,2023-10-27_20h51.52.040,Unsyncopated1,2022.2.5,MacIntel,250,,,,,,,,,,,,,,,,,,,,,,,,,,,,,,,,,,,,,,,,,,,,,,,,,,,,,,,,,,,,,,,,,,,,,,,,,,,,,,,,,,,,,,,,,,,,,,,,,,,,,,,,,,,,,,,,,,,,,,,,,,,,,,,,,,,,,,space,1.167,,,,,,,,,,,,,,,,,,,,,,,,,
,,,,,,,s27,B,2023-10-27_20h51.52.040,Unsyncopated1,2022.2.5,MacIntel,250,,,,,,,,,,,,,,,,,,,,,,,,,,,,,,,,,,,,,,,,,,,,,,,,,,,,,,,,,,,,,,,,,,,,,,,,,,,,,,,,,,,,,,,,,,,,,,,,,,,,,,,,,,,,,,,,,,,,,,,,,,,,,,,,,,,,,,,,space,0.869,space,13.348,,0,0,0,0,1,Online_whatL2//b.fe.ra24.none.none.wav,none,none,si,cha,su,sil2,go,mi,me,sil,du,bi,sil1,
,,,,,,,s27,B,2023-10-27_20h51.52.040,Unsyncopated1,2022.2.5,MacIntel,250,,,,,,,,,,,,,,,,,,,,,,,,,,,,,,,,,,,,,,,,,,,,,,,,,,,,,,,,,,,,,,,,,,,,,,,,,,,,,,,,,,,,,,,,,,,,,,,,,,,,,,,,,,,,,,,,,,,,,,,,,,,,,,,,,,,,,,,,,,,,"[""space""]",0,1,1,2,1,Online_whatL2//b.fe.ra26.1110.1998.wav,1110,1998,si,me,bi,sil2,fe,cha,te,sil,ra,to,sil1,[2.6019999999999754]
,,,,,,,s27,B,2023-10-27_20h51.52.040,Unsyncopated1,2022.2.5,MacIntel,250,,,,,,,,,,,,,,,,,,,,,,,,,,,,,,,,,,,,,,,,,,,,,,,,,,,,,,,,,,,,,,,,,,,,,,,,,,,,,,,,,,,,,,,,,,,,,,,,,,,,,,,,,,,,,,,,,,,,,,,,,,,,,,,,,,,,,,,,,,,,,0,2,2,3,1,Online_whatL2//b.fe.ra27.none.none.wav,none,none,mi,me,su,sil,go,cha,ño,sil2,du,te,sil1,
,,,,,,,s27,B,2023-10-27_20h51.52.040,Unsyncopated1,2022.2.5,MacIntel,250,,,,,,,,,,,,,,,,,,,,,,,,,,,,,,,,,,,,,,,,,,,,,,,,,,,,,,,,,,,,,,,,,,,,,,,,,,,,,,,,,,,,,,,,,,,,,,,,,,,,,,,,,,,,,,,,,,,,,,,,,,,,,,,,,,,,,,,,,,,,"[""space""]",0,3,3,1,1,Online_whatL2//b.fe.ra25.0.888.wav,0,888,fe,to,si,sil,ra,mi,su,sil2,cha,ño,sil1,[1.4700000000000273]
