consent1.x,consent1.y,consent1.leftButton,consent1.midButton,consent1.rightButton,consent1.time,consent1.clicked_name,participant,group,date,expName,psychopyVersion,OS,frameRate,consent2.x,consent2.y,consent2.leftButton,consent2.midButton,consent2.rightButton,consent2.time,consent2.clicked_name,key_resp_20.keys,key_resp_20.rt,age_answer.text,mouse_8.x,mouse_8.y,mouse_8.leftButton,mouse_8.midButton,mouse_8.rightButton,mouse_8.time,mouse_8.clicked_name,residence_answer.text,mouse_2.x,mouse_2.y,mouse_2.leftButton,mouse_2.midButton,mouse_2.rightButton,mouse_2.time,mouse_2.clicked_name,native_lang_answer.text,mouse_9.x,mouse_9.y,mouse_9.leftButton,mouse_9.midButton,mouse_9.rightButton,mouse_9.time,sex_answer.response,sex_answer.rt,education_answer.response,education_answer.rt,hand_answer.response,hand_answer.rt,key_resp_15.keys,key_resp_15.rt,N_language_answer.text,mouse_4.x,mouse_4.y,mouse_4.leftButton,mouse_4.midButton,mouse_4.rightButton,mouse_4.time,langtype_answer_1.text,langage_answer_1.text,langtype_answer_2.text,langage_answer_2.text,langtype_answer_3.text,langage_answer_3.text,langtype_answer_4.text,langage_answer_4.text,langtype_answer_5.text,langage_answer_5.text,langtype_answer_6.text,langage_answer_6.text,mouse_5.x,mouse_5.y,mouse_5.leftButton,mouse_5.midButton,mouse_5.rightButton,mouse_5.time,N_lang_use_answer.text,mouse_6.x,mouse_6.y,mouse_6.leftButton,mouse_6.midButton,mouse_6.rightButton,mouse_6.time,mouse_6.clicked_name,ability_learnL2_answer.response,ability_learnL2_answer.rt,tendence_mixlang_answer.response,tendence_mixlang_answer.rt,lan_deficit_answer.response,lan_deficit_answer.rt,aud_deficit_answer.response,aud_deficit_answer.rt,key_resp_8.keys,key_resp_8.rt,music_expertise_answer.response,music_expertise_answer.rt,instr_type_answer_1.text,instr_age_answer_1.text,instr_type_answer_2.text,instr_age_answer_2.text,instr_type_answer_3.text,instr_age_answer_3.text,instr_type_answer_4.text,instr_age_answer_4.text,instr_type_answer_5.text,instr_age_answer_5.text,mouse_7.x,mouse_7.y,mouse_7.leftButton,mouse_7.midButton,mouse_7.rightButton,mouse_7.time,instrument_use_answer.response,instrument_use_answer.rt,partiture_answer.response,partiture_answer.rt,key_resp_21.keys,key_resp_21.rt,BMRQ_answer.response,BMRQ_answer.rt,BMRQ.thisRepN,BMRQ.thisTrialN,BMRQ.thisN,BMRQ.thisIndex,BMRQ.ran,preguntas_musica1,key_resp_6.keys,key_resp_6.rt,key_resp1.keys,key_resp1.rt,key_resp_10.keys,key_resp_10.rt,key_ressp2.keys,key_ressp2.rt,key_resp_9.keys,key_resp_9.rt,key_resp_3.keys,key_resp_3.rt,key_resp1_2.keys,key_resp1_2.rt,key_resp1_3.keys,key_resp1_3.rt,key_resp_11.keys,key_resp_11.rt,key_resp_12.keys,key_resp_12.rt
[0.06111111111111111],[-0.2388888888888889],[1],[0],[0],[2.0379999999999967],"[""informed_consent_accepted""]",s27,B,2023-10-27_20h44.27.328,Unsyncopated1,2022.2.5,MacIntel,200,,,,,,,,,,,,,,,,,,,,,,,,,,,,,,,,,,,,,,,,,,,,,,,,,,,,,,,,,,,,,,,,,,,,,,,,,,,,,,,,,,,,,,,,,,,,,,,,,,,,,,,,,,,,,,,,,,,,,,,,,,,,,,,,,,,,,,,
,,,,,,,s27,B,2023-10-27_20h44.27.328,Unsyncopated1,2022.2.5,MacIntel,200,[0.044444444444444446],[-0.3011111111111111],[1],[0],[0],[0.9599999999999937],"[""treatment_data_accepted""]",,,,,,,,,,,,,,,,,,,,,,,,,,,,,,,,,,,,,,,,,,,,,,,,,,,,,,,,,,,,,,,,,,,,,,,,,,,,,,,,,,,,,,,,,,,,,,,,,,,,,,,,,,,,,,,,,,,,,,,,,,,,,,,,
,,,,,,,s27,B,2023-10-27_20h44.27.328,Unsyncopated1,2022.2.5,MacIntel,200,,,,,,,,space,1.025,,,,,,,,,,,,,,,,,,,,,,,,,,,,,,,,,,,,,,,,,,,,,,,,,,,,,,,,,,,,,,,,,,,,,,,,,,,,,,,,,,,,,,,,,,,,,,,,,,,,,,,,,,,,,,,,,,,,,,,,,,,,,,
,,,,,,,s27,B,2023-10-27_20h44.27.328,Unsyncopated1,2022.2.5,MacIntel,200,,,,,,,,,,20,"[0.0077777777777777776,-0.0011111111111111111]","[-0.35888888888888887,-0.32]","[1,1]","[0,0]","[0,0]","[2.711999999999989,3.3449999999999847]","[""text_77""]",,,,,,,,,,,,,,,,,,,,,,,,,,,,,,,,,,,,,,,,,,,,,,,,,,,,,,,,,,,,,,,,,,,,,,,,,,,,,,,,,,,,,,,,,,,,,,,,,,,,,,,,,,,,,,,,,,,,,,
,,,,,,,s27,B,2023-10-27_20h44.27.328,Unsyncopated1,2022.2.5,MacIntel,200,,,,,,,,,,,,,,,,,,España,"[0.06555555555555556,0.021111111111111112]","[0.03888888888888889,-0.2811111111111111]","[1,1]","[0,0]","[0,0]","[1.0829999999999984,3.8800000000000097]","[""text_77""]",,,,,,,,,,,,,,,,,,,,,,,,,,,,,,,,,,,,,,,,,,,,,,,,,,,,,,,,,,,,,,,,,,,,,,,,,,,,,,,,,,,,,,,,,,,,,,,,,,,,,,,,,,,,,,
,,,,,,,s27,B,2023-10-27_20h44.27.328,Unsyncopated1,2022.2.5,MacIntel,200,,,,,,,,,,,,,,,,,,,,,,,,,,"catalán y castellano
","[0.013333333333333334,-0.044444444444444446,-0.04888888888888889,-0.04888888888888889,-0.04777777777777778]","[-0.07111111111111111,-0.36444444444444446,-0.3333333333333333,-0.3244444444444444,-0.29333333333333333]","[1,1,1,1,1]","[0,0,0,0,0]","[0,0,0,0,0]","[2.1700000000000017,9.460000000000008,10.02600000000001,10.676000000000002,11.16000000000001]",,,,,,,,,,,,,,,,,,,,,,,,,,,,,,,,,,,,,,,,,,,,,,,,,,,,,,,,,,,,,,,,,,,,,,,,,,,,,,,,,,,,,,,,,,,,,,,,,,,,,,,
,,,,,,,s27,B,2023-10-27_20h44.27.328,Unsyncopated1,2022.2.5,MacIntel,200,,,,,,,,,,,,,,,,,,,,,,,,,,,,,,,,,2,1.837,,,,,,,,,,,,,,,,,,,,,,,,,,,,,,,,,,,,,,,,,,,,,,,,,,,,,,,,,,,,,,,,,,,,,,,,,,,,,,,,,,,,,,,,,,,,,,,,,,,,,
,,,,,,,s27,B,2023-10-27_20h44.27.328,Unsyncopated1,2022.2.5,MacIntel,200,,,,,,,,,,,,,,,,,,,,,,,,,,,,,,,,,,,2,6.945,,,,,,,,,,,,,,,,,,,,,,,,,,,,,,,,,,,,,,,,,,,,,,,,,,,,,,,,,,,,,,,,,,,,,,,,,,,,,,,,,,,,,,,,,,,,,,,,,,,
,,,,,,,s27,B,2023-10-27_20h44.27.328,Unsyncopated1,2022.2.5,MacIntel,200,,,,,,,,,,,,,,,,,,,,,,,,,,,,,,,,,,,,,2,2.048,,,,,,,,,,,,,,,,,,,,,,,,,,,,,,,,,,,,,,,,,,,,,,,,,,,,,,,,,,,,,,,,,,,,,,,,,,,,,,,,,,,,,,,,,,,,,,,,,
,,,,,,,s27,B,2023-10-27_20h44.27.328,Unsyncopated1,2022.2.5,MacIntel,200,,,,,,,,,,,,,,,,,,,,,,,,,,,,,,,,,,,,,,,space,2.062,,,,,,,,,,,,,,,,,,,,,,,,,,,,,,,,,,,,,,,,,,,,,,,,,,,,,,,,,,,,,,,,,,,,,,,,,,,,,,,,,,,,,,,,,,,,,,,
,,,,,,,s27,B,2023-10-27_20h44.27.328,Unsyncopated1,2022.2.5,MacIntel,200,,,,,,,,,,,,,,,,,,,,,,,,,,,,,,,,,,,,,,,,,3,"[0.0022222222222222222,0.005555555555555556]","[0.09333333333333334,-0.29444444444444445]","[1,1]","[0,0]","[0,0]","[1.5,3.7260000000000275]",,,,,,,,,,,,,,,,,,,,,,,,,,,,,,,,,,,,,,,,,,,,,,,,,,,,,,,,,,,,,,,,,,,,,,,,,,,,,,,,,,,,,,,,
,,,,,,,s27,B,2023-10-27_20h44.27.328,Unsyncopated1,2022.2.5,MacIntel,200,,,,,,,,,,,,,,,,,,,,,,,,,,,,,,,,,,,,,,,,,,,,,,,,catalán,0,castellano,0,ingles,3,,,,,,,"[-0.2011111111111111,-0.20777777777777778,-0.1988888888888889,-0.21333333333333335,-0.21,0.22111111111111112,0.19555555555555557,0.18333333333333332,0.14,0.13777777777777778]","[0.10222222222222223,0.13444444444444445,0.034444444444444444,0.056666666666666664,-0.01888888888888889,0.14777777777777779,0.056666666666666664,-0.0044444444444444444,-0.29777777777777775,-0.35777777777777775]","[1,1,1,1,1,1,1,1,1,1]","[0,0,0,0,0,0,0,0,0,0]","[0,0,0,0,0,0,0,0,0,0]","[1.468999999999994,1.9550000000000125,5.703000000000003,6.478000000000009,8.705000000000013,11.527000000000015,13.099000000000018,14.516999999999996,15.719999999999999,16.152000000000015]",,,,,,,,,,,,,,,,,,,,,,,,,,,,,,,,,,,,,,,,,,,,,,,,,,,,,,,,,,,,,,,,,,,,,,
,,,,,,,s27,B,2023-10-27_20h44.27.328,Unsyncopated1,2022.2.5,MacIntel,200,,,,,,,,,,,,,,,,,,,,,,,,,,,,,,,,,,,,,,,,,,,,,,,,,,,,,,,,,,,,,,,,,,2,"[0.022222222222222223,0.027777777777777776]","[0.006666666666666667,-0.32222222222222224]","[1,1]","[0,0]","[0,0]","[1.516999999999996,3.3470000000000084]","[""text_77""]",,,,,,,,,,,,,,,,,,,,,,,,,,,,,,,,,,,,,,,,,,,,,,,,,,,,,,,,,,,,,,
,,,,,,,s27,B,2023-10-27_20h44.27.328,Unsyncopated1,2022.2.5,MacIntel,200,,,,,,,,,,,,,,,,,,,,,,,,,,,,,,,,,,,,,,,,,,,,,,,,,,,,,,,,,,,,,,,,,,,,,,,,,,4,100.991,,,,,,,,,,,,,,,,,,,,,,,,,,,,,,,,,,,,,,,,,,,,,,,,,,,,,,,,,,,,
,,,,,,,s27,B,2023-10-27_20h44.27.328,Unsyncopated1,2022.2.5,MacIntel,200,,,,,,,,,,,,,,,,,,,,,,,,,,,,,,,,,,,,,,,,,,,,,,,,,,,,,,,,,,,,,,,,,,,,,,,,,,,,2,4.18,,,,,,,,,,,,,,,,,,,,,,,,,,,,,,,,,,,,,,,,,,,,,,,,,,,,,,,,,,
,,,,,,,s27,B,2023-10-27_20h44.27.328,Unsyncopated1,2022.2.5,MacIntel,200,,,,,,,,,,,,,,,,,,,,,,,,,,,,,,,,,,,,,,,,,,,,,,,,,,,,,,,,,,,,,,,,,,,,,,,,,,,,,,0,2.474,,,,,,,,,,,,,,,,,,,,,,,,,,,,,,,,,,,,,,,,,,,,,,,,,,,,,,,,
,,,,,,,s27,B,2023-10-27_20h44.27.328,Unsyncopated1,2022.2.5,MacIntel,200,,,,,,,,,,,,,,,,,,,,,,,,,,,,,,,,,,,,,,,,,,,,,,,,,,,,,,,,,,,,,,,,,,,,,,,,,,,,,,,,0,1.414,,,,,,,,,,,,,,,,,,,,,,,,,,,,,,,,,,,,,,,,,,,,,,,,,,,,,,
,,,,,,,s27,B,2023-10-27_20h44.27.328,Unsyncopated1,2022.2.5,MacIntel,200,,,,,,,,,,,,,,,,,,,,,,,,,,,,,,,,,,,,,,,,,,,,,,,,,,,,,,,,,,,,,,,,,,,,,,,,,,,,,,,,,,space,1.466,,,,,,,,,,,,,,,,,,,,,,,,,,,,,,,,,,,,,,,,,,,,,,,,,,,,
,,,,,,,s27,B,2023-10-27_20h44.27.328,Unsyncopated1,2022.2.5,MacIntel,200,,,,,,,,,,,,,,,,,,,,,,,,,,,,,,,,,,,,,,,,,,,,,,,,,,,,,,,,,,,,,,,,,,,,,,,,,,,,,,,,,,,,1,45.622,,,,,,,,,,,,,,,,,,,,,,,,,,,,,,,,,,,,,,,,,,,,,,,,,,
,,,,,,,s27,B,2023-10-27_20h44.27.328,Unsyncopated1,2022.2.5,MacIntel,200,,,,,,,,,,,,,,,,,,,,,,,,,,,,,,,,,,,,,,,,,,,,,,,,,,,,,,,,,,,,,,,,,,,,,,,,,,,,,,,,,,,,,,flauta,10,,,,,,,,,"[-0.21444444444444444,0.27666666666666667,-0.09111111111111111]","[0.12333333333333334,0.14888888888888888,-0.37444444444444447]","[1,1,1]","[0,0,0]","[0,0,0]","[1.018000000000029,7.45799999999997,10.093999999999994]",,,,,,,,,,,,,,,,,,,,,,,,,,,,,,,,,,
,,,,,,,s27,B,2023-10-27_20h44.27.328,Unsyncopated1,2022.2.5,MacIntel,200,,,,,,,,,,,,,,,,,,,,,,,,,,,,,,,,,,,,,,,,,,,,,,,,,,,,,,,,,,,,,,,,,,,,,,,,,,,,,,,,,,,,,,,,,,,,,,,,,,,,,,0,2.388,,,,,,,,,,,,,,,,,,,,,,,,,,,,,,,,
,,,,,,,s27,B,2023-10-27_20h44.27.328,Unsyncopated1,2022.2.5,MacIntel,200,,,,,,,,,,,,,,,,,,,,,,,,,,,,,,,,,,,,,,,,,,,,,,,,,,,,,,,,,,,,,,,,,,,,,,,,,,,,,,,,,,,,,,,,,,,,,,,,,,,,,,,,0,0.978,,,,,,,,,,,,,,,,,,,,,,,,,,,,,,
,,,,,,,s27,B,2023-10-27_20h44.27.328,Unsyncopated1,2022.2.5,MacIntel,200,,,,,,,,,,,,,,,,,,,,,,,,,,,,,,,,,,,,,,,,,,,,,,,,,,,,,,,,,,,,,,,,,,,,,,,,,,,,,,,,,,,,,,,,,,,,,,,,,,,,,,,,,,space,4.777,,,,,,,,,,,,,,,,,,,,,,,,,,,,
,,,,,,,s27,B,2023-10-27_20h44.27.328,Unsyncopated1,2022.2.5,MacIntel,200,,,,,,,,,,,,,,,,,,,,,,,,,,,,,,,,,,,,,,,,,,,,,,,,,,,,,,,,,,,,,,,,,,,,,,,,,,,,,,,,,,,,,,,,,,,,,,,,,,,,,,,,,,,,4,2.754,0,0,0,0,1,1. Cuando comparto música con alguien siento una complicidad especial con aquella persona.,,,,,,,,,,,,,,,,,,,,
,,,,,,,s27,B,2023-10-27_20h44.27.328,Unsyncopated1,2022.2.5,MacIntel,200,,,,,,,,,,,,,,,,,,,,,,,,,,,,,,,,,,,,,,,,,,,,,,,,,,,,,,,,,,,,,,,,,,,,,,,,,,,,,,,,,,,,,,,,,,,,,,,,,,,,,,,,,,,,0,9.559,0,1,1,1,1,2. En mi tiempo libre apenas escucho música.,,,,,,,,,,,,,,,,,,,,
,,,,,,,s27,B,2023-10-27_20h44.27.328,Unsyncopated1,2022.2.5,MacIntel,200,,,,,,,,,,,,,,,,,,,,,,,,,,,,,,,,,,,,,,,,,,,,,,,,,,,,,,,,,,,,,,,,,,,,,,,,,,,,,,,,,,,,,,,,,,,,,,,,,,,,,,,,,,,,4,2.393,0,2,2,2,1,3. Algunas canciones me ponen los pelos de punta,,,,,,,,,,,,,,,,,,,,
,,,,,,,s27,B,2023-10-27_20h44.27.328,Unsyncopated1,2022.2.5,MacIntel,200,,,,,,,,,,,,,,,,,,,,,,,,,,,,,,,,,,,,,,,,,,,,,,,,,,,,,,,,,,,,,,,,,,,,,,,,,,,,,,,,,,,,,,,,,,,,,,,,,,,,,,,,,,,,4,1.085,0,3,3,3,1,4. La música me hace compañía cuando estoy solo,,,,,,,,,,,,,,,,,,,,
,,,,,,,s27,B,2023-10-27_20h44.27.328,Unsyncopated1,2022.2.5,MacIntel,200,,,,,,,,,,,,,,,,,,,,,,,,,,,,,,,,,,,,,,,,,,,,,,,,,,,,,,,,,,,,,,,,,,,,,,,,,,,,,,,,,,,,,,,,,,,,,,,,,,,,,,,,,,,,0,2.961,0,4,4,4,1,5. No me apetece bailar ni con la música que más me gusta,,,,,,,,,,,,,,,,,,,,
,,,,,,,s27,B,2023-10-27_20h44.27.328,Unsyncopated1,2022.2.5,MacIntel,200,,,,,,,,,,,,,,,,,,,,,,,,,,,,,,,,,,,,,,,,,,,,,,,,,,,,,,,,,,,,,,,,,,,,,,,,,,,,,,,,,,,,,,,,,,,,,,,,,,,,,,,,,,,,3,2.954,0,5,5,5,1,6. La música me hace conectar con la gente,,,,,,,,,,,,,,,,,,,,
,,,,,,,s27,B,2023-10-27_20h44.27.328,Unsyncopated1,2022.2.5,MacIntel,200,,,,,,,,,,,,,,,,,,,,,,,,,,,,,,,,,,,,,,,,,,,,,,,,,,,,,,,,,,,,,,,,,,,,,,,,,,,,,,,,,,,,,,,,,,,,,,,,,,,,,,,,,,,,3,2.021,0,6,6,6,1,7. Me informo sobre la música que me gusta.,,,,,,,,,,,,,,,,,,,,
,,,,,,,s27,B,2023-10-27_20h44.27.328,Unsyncopated1,2022.2.5,MacIntel,200,,,,,,,,,,,,,,,,,,,,,,,,,,,,,,,,,,,,,,,,,,,,,,,,,,,,,,,,,,,,,,,,,,,,,,,,,,,,,,,,,,,,,,,,,,,,,,,,,,,,,,,,,,,,4,1.905,0,7,7,7,1,8.Me emociono escuchando ciertas canciones.,,,,,,,,,,,,,,,,,,,,
,,,,,,,s27,B,2023-10-27_20h44.27.328,Unsyncopated1,2022.2.5,MacIntel,200,,,,,,,,,,,,,,,,,,,,,,,,,,,,,,,,,,,,,,,,,,,,,,,,,,,,,,,,,,,,,,,,,,,,,,,,,,,,,,,,,,,,,,,,,,,,,,,,,,,,,,,,,,,,4,1.722,0,8,8,8,1,9.La música me tranquiliza y me relaja.,,,,,,,,,,,,,,,,,,,,
,,,,,,,s27,B,2023-10-27_20h44.27.328,Unsyncopated1,2022.2.5,MacIntel,200,,,,,,,,,,,,,,,,,,,,,,,,,,,,,,,,,,,,,,,,,,,,,,,,,,,,,,,,,,,,,,,,,,,,,,,,,,,,,,,,,,,,,,,,,,,,,,,,,,,,,,,,,,,,4,1.205,0,9,9,9,1,10.La música me hace bailar,,,,,,,,,,,,,,,,,,,,
,,,,,,,s27,B,2023-10-27_20h44.27.328,Unsyncopated1,2022.2.5,MacIntel,200,,,,,,,,,,,,,,,,,,,,,,,,,,,,,,,,,,,,,,,,,,,,,,,,,,,,,,,,,,,,,,,,,,,,,,,,,,,,,,,,,,,,,,,,,,,,,,,,,,,,,,,,,,,,3,1.535,0,10,10,10,1,11.Busco novedades musicales continuamente,,,,,,,,,,,,,,,,,,,,
,,,,,,,s27,B,2023-10-27_20h44.27.328,Unsyncopated1,2022.2.5,MacIntel,200,,,,,,,,,,,,,,,,,,,,,,,,,,,,,,,,,,,,,,,,,,,,,,,,,,,,,,,,,,,,,,,,,,,,,,,,,,,,,,,,,,,,,,,,,,,,,,,,,,,,,,,,,,,,4,1.868,0,11,11,11,1,12. Puedo llorar cuando escucho algunas melodías que me gustan mucho.,,,,,,,,,,,,,,,,,,,,
,,,,,,,s27,B,2023-10-27_20h44.27.328,Unsyncopated1,2022.2.5,MacIntel,200,,,,,,,,,,,,,,,,,,,,,,,,,,,,,,,,,,,,,,,,,,,,,,,,,,,,,,,,,,,,,,,,,,,,,,,,,,,,,,,,,,,,,,,,,,,,,,,,,,,,,,,,,,,,3,2.854,0,12,12,12,1,13. Me gusta cantar o tocar un instrumento con más gente,,,,,,,,,,,,,,,,,,,,
,,,,,,,s27,B,2023-10-27_20h44.27.328,Unsyncopated1,2022.2.5,MacIntel,200,,,,,,,,,,,,,,,,,,,,,,,,,,,,,,,,,,,,,,,,,,,,,,,,,,,,,,,,,,,,,,,,,,,,,,,,,,,,,,,,,,,,,,,,,,,,,,,,,,,,,,,,,,,,4,2.596,0,13,13,13,1,14. La música me ayuda a desconectar.,,,,,,,,,,,,,,,,,,,,
,,,,,,,s27,B,2023-10-27_20h44.27.328,Unsyncopated1,2022.2.5,MacIntel,200,,,,,,,,,,,,,,,,,,,,,,,,,,,,,,,,,,,,,,,,,,,,,,,,,,,,,,,,,,,,,,,,,,,,,,,,,,,,,,,,,,,,,,,,,,,,,,,,,,,,,,,,,,,,4,2.352,0,14,14,14,1,15. No puedo evitar tararear las canciones que me gustan cuando las escucho.,,,,,,,,,,,,,,,,,,,,
,,,,,,,s27,B,2023-10-27_20h44.27.328,Unsyncopated1,2022.2.5,MacIntel,200,,,,,,,,,,,,,,,,,,,,,,,,,,,,,,,,,,,,,,,,,,,,,,,,,,,,,,,,,,,,,,,,,,,,,,,,,,,,,,,,,,,,,,,,,,,,,,,,,,,,,,,,,,,,4,1.762,0,15,15,15,1,16. En los conciertos me siento en sintonía con los artistas y el público.,,,,,,,,,,,,,,,,,,,,
,,,,,,,s27,B,2023-10-27_20h44.27.328,Unsyncopated1,2022.2.5,MacIntel,200,,,,,,,,,,,,,,,,,,,,,,,,,,,,,,,,,,,,,,,,,,,,,,,,,,,,,,,,,,,,,,,,,,,,,,,,,,,,,,,,,,,,,,,,,,,,,,,,,,,,,,,,,,,,3,2.756,0,16,16,16,1,17. Me gasto bastante dinero en música y cosas relacionadas con la música.,,,,,,,,,,,,,,,,,,,,
,,,,,,,s27,B,2023-10-27_20h44.27.328,Unsyncopated1,2022.2.5,MacIntel,200,,,,,,,,,,,,,,,,,,,,,,,,,,,,,,,,,,,,,,,,,,,,,,,,,,,,,,,,,,,,,,,,,,,,,,,,,,,,,,,,,,,,,,,,,,,,,,,,,,,,,,,,,,,,4,3.062,0,17,17,17,1,18. Siento escalofríos cuando escucho una melodía que me gusta.,,,,,,,,,,,,,,,,,,,,
,,,,,,,s27,B,2023-10-27_20h44.27.328,Unsyncopated1,2022.2.5,MacIntel,200,,,,,,,,,,,,,,,,,,,,,,,,,,,,,,,,,,,,,,,,,,,,,,,,,,,,,,,,,,,,,,,,,,,,,,,,,,,,,,,,,,,,,,,,,,,,,,,,,,,,,,,,,,,,4,1.011,0,18,18,18,1,19. Con la música me puedo desahogar.,,,,,,,,,,,,,,,,,,,,
,,,,,,,s27,B,2023-10-27_20h44.27.328,Unsyncopated1,2022.2.5,MacIntel,200,,,,,,,,,,,,,,,,,,,,,,,,,,,,,,,,,,,,,,,,,,,,,,,,,,,,,,,,,,,,,,,,,,,,,,,,,,,,,,,,,,,,,,,,,,,,,,,,,,,,,,,,,,,,4,1.891,0,19,19,19,1,20. Cuando escucho una melodía que me gusta mucho no puedo evitar mover el cuerpo.,,,,,,,,,,,,,,,,,,,,
,,,,,,,s27,B,2023-10-27_20h44.27.328,Unsyncopated1,2022.2.5,MacIntel,200,,,,,,,,,,,,,,,,,,,,,,,,,,,,,,,,,,,,,,,,,,,,,,,,,,,,,,,,,,,,,,,,,,,,,,,,,,,,,,,,,,,,,,,,,,,,,,,,,,,,,,,,,,,,,,,,,,,,space,4.524,,,,,,,,,,,,,,,,,,
,,,,,,,s27,B,2023-10-27_20h44.27.328,Unsyncopated1,2022.2.5,MacIntel,200,,,,,,,,,,,,,,,,,,,,,,,,,,,,,,,,,,,,,,,,,,,,,,,,,,,,,,,,,,,,,,,,,,,,,,,,,,,,,,,,,,,,,,,,,,,,,,,,,,,,,,,,,,,,,,,,,,,,,,space,4.006,,,,,,,,,,,,,,,,
,,,,,,,s27,B,2023-10-27_20h44.27.328,Unsyncopated1,2022.2.5,MacIntel,200,,,,,,,,,,,,,,,,,,,,,,,,,,,,,,,,,,,,,,,,,,,,,,,,,,,,,,,,,,,,,,,,,,,,,,,,,,,,,,,,,,,,,,,,,,,,,,,,,,,,,,,,,,,,,,,,,,,,,,,,space,2.908,,,,,,,,,,,,,,
,,,,,,,s27,B,2023-10-27_20h44.27.328,Unsyncopated1,2022.2.5,MacIntel,200,,,,,,,,,,,,,,,,,,,,,,,,,,,,,,,,,,,,,,,,,,,,,,,,,,,,,,,,,,,,,,,,,,,,,,,,,,,,,,,,,,,,,,,,,,,,,,,,,,,,,,,,,,,,,,,,,,,,,,,,,,space,24.125,,,,,,,,,,,,
,,,,,,,s27,B,2023-10-27_20h44.27.328,Unsyncopated1,2022.2.5,MacIntel,200,,,,,,,,,,,,,,,,,,,,,,,,,,,,,,,,,,,,,,,,,,,,,,,,,,,,,,,,,,,,,,,,,,,,,,,,,,,,,,,,,,,,,,,,,,,,,,,,,,,,,,,,,,,,,,,,,,,,,,,,,,,,space,2.62,,,,,,,,,,
,,,,,,,s27,B,2023-10-27_20h44.27.328,Unsyncopated1,2022.2.5,MacIntel,200,,,,,,,,,,,,,,,,,,,,,,,,,,,,,,,,,,,,,,,,,,,,,,,,,,,,,,,,,,,,,,,,,,,,,,,,,,,,,,,,,,,,,,,,,,,,,,,,,,,,,,,,,,,,,,,,,,,,,,,,,,,,,,space,8.418,,,,,,,,
,,,,,,,s27,B,2023-10-27_20h44.27.328,Unsyncopated1,2022.2.5,MacIntel,200,,,,,,,,,,,,,,,,,,,,,,,,,,,,,,,,,,,,,,,,,,,,,,,,,,,,,,,,,,,,,,,,,,,,,,,,,,,,,,,,,,,,,,,,,,,,,,,,,,,,,,,,,,,,,,,,,,,,,,,,,,,,,,,,space,47.786,,,,,,
,,,,,,,s27,B,2023-10-27_20h44.27.328,Unsyncopated1,2022.2.5,MacIntel,200,,,,,,,,,,,,,,,,,,,,,,,,,,,,,,,,,,,,,,,,,,,,,,,,,,,,,,,,,,,,,,,,,,,,,,,,,,,,,,,,,,,,,,,,,,,,,,,,,,,,,,,,,,,,,,,,,,,,,,,,,,,,,,,,,,space,11.504,,,,
,,,,,,,s27,B,2023-10-27_20h44.27.328,Unsyncopated1,2022.2.5,MacIntel,200,,,,,,,,,,,,,,,,,,,,,,,,,,,,,,,,,,,,,,,,,,,,,,,,,,,,,,,,,,,,,,,,,,,,,,,,,,,,,,,,,,,,,,,,,,,,,,,,,,,,,,,,,,,,,,,,,,,,,,,,,,,,,,,,,,,,space,2.856,,
,,,,,,,s27,B,2023-10-27_20h44.27.328,Unsyncopated1,2022.2.5,MacIntel,200,,,,,,,,,,,,,,,,,,,,,,,,,,,,,,,,,,,,,,,,,,,,,,,,,,,,,,,,,,,,,,,,,,,,,,,,,,,,,,,,,,,,,,,,,,,,,,,,,,,,,,,,,,,,,,,,,,,,,,,,,,,,,,,,,,,,,,space,1.715
