consent1.x,consent1.y,consent1.leftButton,consent1.midButton,consent1.rightButton,consent1.time,consent1.clicked_name,participant,group,date,expName,psychopyVersion,OS,frameRate,consent2.x,consent2.y,consent2.leftButton,consent2.midButton,consent2.rightButton,consent2.time,consent2.clicked_name,key_resp_20.keys,key_resp_20.rt,age_answer.text,mouse_8.x,mouse_8.y,mouse_8.leftButton,mouse_8.midButton,mouse_8.rightButton,mouse_8.time,mouse_8.clicked_name,residence_answer.text,mouse_2.x,mouse_2.y,mouse_2.leftButton,mouse_2.midButton,mouse_2.rightButton,mouse_2.time,mouse_2.clicked_name,native_lang_answer.text,mouse_9.x,mouse_9.y,mouse_9.leftButton,mouse_9.midButton,mouse_9.rightButton,mouse_9.time,sex_answer.response,sex_answer.rt,education_answer.response,education_answer.rt,hand_answer.response,hand_answer.rt,key_resp_15.keys,key_resp_15.rt,N_language_answer.text,mouse_4.x,mouse_4.y,mouse_4.leftButton,mouse_4.midButton,mouse_4.rightButton,mouse_4.time,langtype_answer_1.text,langage_answer_1.text,langtype_answer_2.text,langage_answer_2.text,langtype_answer_3.text,langage_answer_3.text,langtype_answer_4.text,langage_answer_4.text,langtype_answer_5.text,langage_answer_5.text,langtype_answer_6.text,langage_answer_6.text,mouse_5.x,mouse_5.y,mouse_5.leftButton,mouse_5.midButton,mouse_5.rightButton,mouse_5.time,N_lang_use_answer.text,mouse_6.x,mouse_6.y,mouse_6.leftButton,mouse_6.midButton,mouse_6.rightButton,mouse_6.time,mouse_6.clicked_name,ability_learnL2_answer.response,ability_learnL2_answer.rt,tendence_mixlang_answer.response,tendence_mixlang_answer.rt,lan_deficit_answer.response,lan_deficit_answer.rt,aud_deficit_answer.response,aud_deficit_answer.rt,key_resp_8.keys,key_resp_8.rt,music_expertise_answer.response,music_expertise_answer.rt,instr_type_answer_1.text,instr_age_answer_1.text,instr_type_answer_2.text,instr_age_answer_2.text,instr_type_answer_3.text,instr_age_answer_3.text,instr_type_answer_4.text,instr_age_answer_4.text,instr_type_answer_5.text,instr_age_answer_5.text,mouse_7.x,mouse_7.y,mouse_7.leftButton,mouse_7.midButton,mouse_7.rightButton,mouse_7.time,instrument_use_answer.response,instrument_use_answer.rt,partiture_answer.response,partiture_answer.rt,key_resp_21.keys,key_resp_21.rt,BMRQ_answer.response,BMRQ_answer.rt,BMRQ.thisRepN,BMRQ.thisTrialN,BMRQ.thisN,BMRQ.thisIndex,BMRQ.ran,preguntas_musica1,key_resp_6.keys,key_resp_6.rt,key_resp1.keys,key_resp1.rt,key_resp_10.keys,key_resp_10.rt,key_ressp2.keys,key_ressp2.rt,key_resp_9.keys,key_resp_9.rt,key_resp_3.keys,key_resp_3.rt,key_resp1_2.keys,key_resp1_2.rt,key_resp1_3.keys,key_resp1_3.rt,key_resp_11.keys,key_resp_11.rt,key_resp_12.keys,key_resp_12.rt,key_resp_18.keys,key_resp_18.rt,key_resp1_4.keys,key_resp1_4.rt,syllable_catch.keys,audios_online.thisRepN,audios_online.thisTrialN,audios_online.thisN,audios_online.thisIndex,audios_online.ran,dirs,timeA,timeB,s1,s2,s3,s4,s5,s6,s7,s8,s9,s10,s11,syllable_catch.rt
[-0.14222222222222222],[-0.24666666666666667],[1],[0],[0],[28.217999999999996],"[""informed_consent_accepted""]",s81,B,2023-11-21_21h16.00.177,Unsyncopated1,2022.2.5,MacIntel,200,,,,,,,,,,,,,,,,,,,,,,,,,,,,,,,,,,,,,,,,,,,,,,,,,,,,,,,,,,,,,,,,,,,,,,,,,,,,,,,,,,,,,,,,,,,,,,,,,,,,,,,,,,,,,,,,,,,,,,,,,,,,,,,,,,,,,,,,,,,,,,,,,,,,,,,,,,,,,,,,
,,,,,,,s81,B,2023-11-21_21h16.00.177,Unsyncopated1,2022.2.5,MacIntel,200,[-0.1688888888888889],[-0.3011111111111111],[1],[0],[0],[10.707999999999998],"[""treatment_data_accepted""]",,,,,,,,,,,,,,,,,,,,,,,,,,,,,,,,,,,,,,,,,,,,,,,,,,,,,,,,,,,,,,,,,,,,,,,,,,,,,,,,,,,,,,,,,,,,,,,,,,,,,,,,,,,,,,,,,,,,,,,,,,,,,,,,,,,,,,,,,,,,,,,,,,,,,,,,,
,,,,,,,s81,B,2023-11-21_21h16.00.177,Unsyncopated1,2022.2.5,MacIntel,200,,,,,,,,space,10.779,,,,,,,,,,,,,,,,,,,,,,,,,,,,,,,,,,,,,,,,,,,,,,,,,,,,,,,,,,,,,,,,,,,,,,,,,,,,,,,,,,,,,,,,,,,,,,,,,,,,,,,,,,,,,,,,,,,,,,,,,,,,,,,,,,,,,,,,,,,,,,,,,,,,,,,
,,,,,,,s81,B,2023-11-21_21h16.00.177,Unsyncopated1,2022.2.5,MacIntel,200,,,,,,,,,,21,[0.0022222222222222222],[-0.29777777777777775],[1],[0],[0],[8.804000000000002],"[""text_77""]",,,,,,,,,,,,,,,,,,,,,,,,,,,,,,,,,,,,,,,,,,,,,,,,,,,,,,,,,,,,,,,,,,,,,,,,,,,,,,,,,,,,,,,,,,,,,,,,,,,,,,,,,,,,,,,,,,,,,,,,,,,,,,,,,,,,,,,,,,,,,,,
,,,,,,,s81,B,2023-11-21_21h16.00.177,Unsyncopated1,2022.2.5,MacIntel,200,,,,,,,,,,,,,,,,,,"España
",[-0.05],[-0.3011111111111111],[1],[0],[0],[8.009],"[""text_77""]",,,,,,,,,,,,,,,,,,,,,,,,,,,,,,,,,,,,,,,,,,,,,,,,,,,,,,,,,,,,,,,,,,,,,,,,,,,,,,,,,,,,,,,,,,,,,,,,,,,,,,,,,,,,,,,,,,,,,,,,,,,,,,,,,,,,,,,
,,,,,,,s81,B,2023-11-21_21h16.00.177,Unsyncopated1,2022.2.5,MacIntel,200,,,,,,,,,,,,,,,,,,,,,,,,,,catalan y castellano,[0.024444444444444446],[-0.29555555555555557],[1],[0],[0],[25.260000000000005],,,,,,,,,,,,,,,,,,,,,,,,,,,,,,,,,,,,,,,,,,,,,,,,,,,,,,,,,,,,,,,,,,,,,,,,,,,,,,,,,,,,,,,,,,,,,,,,,,,,,,,,,,,,,,,,,,,,,,,,,,,,,,,,
,,,,,,,s81,B,2023-11-21_21h16.00.177,Unsyncopated1,2022.2.5,MacIntel,200,,,,,,,,,,,,,,,,,,,,,,,,,,,,,,,,,2,2.917,,,,,,,,,,,,,,,,,,,,,,,,,,,,,,,,,,,,,,,,,,,,,,,,,,,,,,,,,,,,,,,,,,,,,,,,,,,,,,,,,,,,,,,,,,,,,,,,,,,,,,,,,,,,,,,,,,,,,,,,,,,,,,
,,,,,,,s81,B,2023-11-21_21h16.00.177,Unsyncopated1,2022.2.5,MacIntel,200,,,,,,,,,,,,,,,,,,,,,,,,,,,,,,,,,,,2,8.953,,,,,,,,,,,,,,,,,,,,,,,,,,,,,,,,,,,,,,,,,,,,,,,,,,,,,,,,,,,,,,,,,,,,,,,,,,,,,,,,,,,,,,,,,,,,,,,,,,,,,,,,,,,,,,,,,,,,,,,,,,,,
,,,,,,,s81,B,2023-11-21_21h16.00.177,Unsyncopated1,2022.2.5,MacIntel,200,,,,,,,,,,,,,,,,,,,,,,,,,,,,,,,,,,,,,2,3.454,,,,,,,,,,,,,,,,,,,,,,,,,,,,,,,,,,,,,,,,,,,,,,,,,,,,,,,,,,,,,,,,,,,,,,,,,,,,,,,,,,,,,,,,,,,,,,,,,,,,,,,,,,,,,,,,,,,,,,,,,,
,,,,,,,s81,B,2023-11-21_21h16.00.177,Unsyncopated1,2022.2.5,MacIntel,200,,,,,,,,,,,,,,,,,,,,,,,,,,,,,,,,,,,,,,,space,1.922,,,,,,,,,,,,,,,,,,,,,,,,,,,,,,,,,,,,,,,,,,,,,,,,,,,,,,,,,,,,,,,,,,,,,,,,,,,,,,,,,,,,,,,,,,,,,,,,,,,,,,,,,,,,,,,,,,,,,,,,
,,,,,,,s81,B,2023-11-21_21h16.00.177,Unsyncopated1,2022.2.5,MacIntel,200,,,,,,,,,,,,,,,,,,,,,,,,,,,,,,,,,,,,,,,,,2,[-0.01888888888888889],[-0.3011111111111111],[1],[0],[0],[8.50399999999999],,,,,,,,,,,,,,,,,,,,,,,,,,,,,,,,,,,,,,,,,,,,,,,,,,,,,,,,,,,,,,,,,,,,,,,,,,,,,,,,,,,,,,,,,,,,,,,,,,,,,,,,,,,,,,,,,
,,,,,,,s81,B,2023-11-21_21h16.00.177,Unsyncopated1,2022.2.5,MacIntel,200,,,,,,,,,,,,,,,,,,,,,,,,,,,,,,,,,,,,,,,,,,,,,,,,catalan,0,castellano,1,,,,,,,,,"[-0.2388888888888889,-0.24888888888888888,0.13,-0.14222222222222222,0.20333333333333334,-0.016666666666666666]","[0.14,0.1388888888888889,0.13666666666666666,0.07,0.057777777777777775,-0.3466666666666667]","[1,1,1,1,1,1]","[0,0,0,0,0,0]","[0,0,0,0,0,0]","[15.766999999999996,16.48399999999998,20.86699999999999,22.516999999999996,25.11699999999999,28.700999999999993]",,,,,,,,,,,,,,,,,,,,,,,,,,,,,,,,,,,,,,,,,,,,,,,,,,,,,,,,,,,,,,,,,,,,,,,,,,,,,,,,,,,,,,,,,,,,,,,
,,,,,,,s81,B,2023-11-21_21h16.00.177,Unsyncopated1,2022.2.5,MacIntel,200,,,,,,,,,,,,,,,,,,,,,,,,,,,,,,,,,,,,,,,,,,,,,,,,,,,,,,,,,,,,,,,,,,2,[0.02],[-0.2922222222222222],[1],[0],[0],[5.956999999999994],"[""text_77""]",,,,,,,,,,,,,,,,,,,,,,,,,,,,,,,,,,,,,,,,,,,,,,,,,,,,,,,,,,,,,,,,,,,,,,,,,,,,,,,,,,,,,,,
,,,,,,,s81,B,2023-11-21_21h16.00.177,Unsyncopated1,2022.2.5,MacIntel,200,,,,,,,,,,,,,,,,,,,,,,,,,,,,,,,,,,,,,,,,,,,,,,,,,,,,,,,,,,,,,,,,,,,,,,,,,,0,9.587,,,,,,,,,,,,,,,,,,,,,,,,,,,,,,,,,,,,,,,,,,,,,,,,,,,,,,,,,,,,,,,,,,,,,,,,,,,,,,,,,,,,,
,,,,,,,s81,B,2023-11-21_21h16.00.177,Unsyncopated1,2022.2.5,MacIntel,200,,,,,,,,,,,,,,,,,,,,,,,,,,,,,,,,,,,,,,,,,,,,,,,,,,,,,,,,,,,,,,,,,,,,,,,,,,,,3,8.887,,,,,,,,,,,,,,,,,,,,,,,,,,,,,,,,,,,,,,,,,,,,,,,,,,,,,,,,,,,,,,,,,,,,,,,,,,,,,,,,,,,
,,,,,,,s81,B,2023-11-21_21h16.00.177,Unsyncopated1,2022.2.5,MacIntel,200,,,,,,,,,,,,,,,,,,,,,,,,,,,,,,,,,,,,,,,,,,,,,,,,,,,,,,,,,,,,,,,,,,,,,,,,,,,,,,0,4.138,,,,,,,,,,,,,,,,,,,,,,,,,,,,,,,,,,,,,,,,,,,,,,,,,,,,,,,,,,,,,,,,,,,,,,,,,,,,,,,,,
,,,,,,,s81,B,2023-11-21_21h16.00.177,Unsyncopated1,2022.2.5,MacIntel,200,,,,,,,,,,,,,,,,,,,,,,,,,,,,,,,,,,,,,,,,,,,,,,,,,,,,,,,,,,,,,,,,,,,,,,,,,,,,,,,,0,1.47,,,,,,,,,,,,,,,,,,,,,,,,,,,,,,,,,,,,,,,,,,,,,,,,,,,,,,,,,,,,,,,,,,,,,,,,,,,,,,,
,,,,,,,s81,B,2023-11-21_21h16.00.177,Unsyncopated1,2022.2.5,MacIntel,200,,,,,,,,,,,,,,,,,,,,,,,,,,,,,,,,,,,,,,,,,,,,,,,,,,,,,,,,,,,,,,,,,,,,,,,,,,,,,,,,,,space,4.151,,,,,,,,,,,,,,,,,,,,,,,,,,,,,,,,,,,,,,,,,,,,,,,,,,,,,,,,,,,,,,,,,,,,,,,,,,,,,
,,,,,,,s81,B,2023-11-21_21h16.00.177,Unsyncopated1,2022.2.5,MacIntel,200,,,,,,,,,,,,,,,,,,,,,,,,,,,,,,,,,,,,,,,,,,,,,,,,,,,,,,,,,,,,,,,,,,,,,,,,,,,,,,,,,,,,0,6.221,,,,,,,,,,,,,,,,,,,,,,,,,,,,,,,,,,,,,,,,,,,,,,,,,,,,,,,,,,,,,,,,,,,,,,,,,,,
,,,,,,,s81,B,2023-11-21_21h16.00.177,Unsyncopated1,2022.2.5,MacIntel,200,,,,,,,,,,,,,,,,,,,,,,,,,,,,,,,,,,,,,,,,,,,,,,,,,,,,,,,,,,,,,,,,,,,,,,,,,,,,,,,,,,,,,,nada,0,nada,0,,,,,,  ,"[-0.20555555555555555,-0.21666666666666667,-0.20444444444444446,-0.04555555555555556,-0.04555555555555556,-0.04555555555555556,-0.04555555555555556,-0.04555555555555556,0.2922222222222222,0.27666666666666667,0.08]","[0.16555555555555557,0.13555555555555557,0.058888888888888886,-0.3377777777777778,-0.35,-0.35,-0.35,-0.35,0.1288888888888889,0.06333333333333334,-0.3488888888888889]","[1,1,1,1,1,1,1,1,1,1,1]","[0,0,0,0,0,0,0,0,0,0,0]","[0,0,0,0,0,0,0,0,0,0,0]","[19.40100000000001,19.88300000000001,21.733000000000004,24.067000000000007,26.066000000000003,26.75,27.283000000000015,27.51600000000002,28.38300000000001,30.200000000000017,32.11700000000002]",,,,,,,,,,,,,,,,,,,,,,,,,,,,,,,,,,,,,,,,,,,,,,,,,,,,,,,,,,,
,,,,,,,s81,B,2023-11-21_21h16.00.177,Unsyncopated1,2022.2.5,MacIntel,200,,,,,,,,,,,,,,,,,,,,,,,,,,,,,,,,,,,,,,,,,,,,,,,,,,,,,,,,,,,,,,,,,,,,,,,,,,,,,,,,,,,,,,,,,,,,,,,,,,,,,,0,3.401,,,,,,,,,,,,,,,,,,,,,,,,,,,,,,,,,,,,,,,,,,,,,,,,,,,,,,,,,
,,,,,,,s81,B,2023-11-21_21h16.00.177,Unsyncopated1,2022.2.5,MacIntel,200,,,,,,,,,,,,,,,,,,,,,,,,,,,,,,,,,,,,,,,,,,,,,,,,,,,,,,,,,,,,,,,,,,,,,,,,,,,,,,,,,,,,,,,,,,,,,,,,,,,,,,,,0,4.356,,,,,,,,,,,,,,,,,,,,,,,,,,,,,,,,,,,,,,,,,,,,,,,,,,,,,,,
,,,,,,,s81,B,2023-11-21_21h16.00.177,Unsyncopated1,2022.2.5,MacIntel,200,,,,,,,,,,,,,,,,,,,,,,,,,,,,,,,,,,,,,,,,,,,,,,,,,,,,,,,,,,,,,,,,,,,,,,,,,,,,,,,,,,,,,,,,,,,,,,,,,,,,,,,,,,space,8.099,,,,,,,,,,,,,,,,,,,,,,,,,,,,,,,,,,,,,,,,,,,,,,,,,,,,,
,,,,,,,s81,B,2023-11-21_21h16.00.177,Unsyncopated1,2022.2.5,MacIntel,200,,,,,,,,,,,,,,,,,,,,,,,,,,,,,,,,,,,,,,,,,,,,,,,,,,,,,,,,,,,,,,,,,,,,,,,,,,,,,,,,,,,,,,,,,,,,,,,,,,,,,,,,,,,,4,4.911,0,0,0,0,1,1. Cuando comparto música con alguien siento una complicidad especial con aquella persona.,,,,,,,,,,,,,,,,,,,,,,,,,,,,,,,,,,,,,,,,,,,,,
,,,,,,,s81,B,2023-11-21_21h16.00.177,Unsyncopated1,2022.2.5,MacIntel,200,,,,,,,,,,,,,,,,,,,,,,,,,,,,,,,,,,,,,,,,,,,,,,,,,,,,,,,,,,,,,,,,,,,,,,,,,,,,,,,,,,,,,,,,,,,,,,,,,,,,,,,,,,,,0,3.585,0,1,1,1,1,2. En mi tiempo libre apenas escucho música.,,,,,,,,,,,,,,,,,,,,,,,,,,,,,,,,,,,,,,,,,,,,,
,,,,,,,s81,B,2023-11-21_21h16.00.177,Unsyncopated1,2022.2.5,MacIntel,200,,,,,,,,,,,,,,,,,,,,,,,,,,,,,,,,,,,,,,,,,,,,,,,,,,,,,,,,,,,,,,,,,,,,,,,,,,,,,,,,,,,,,,,,,,,,,,,,,,,,,,,,,,,,4,2.936,0,2,2,2,1,3. Algunas canciones me ponen los pelos de punta,,,,,,,,,,,,,,,,,,,,,,,,,,,,,,,,,,,,,,,,,,,,,
,,,,,,,s81,B,2023-11-21_21h16.00.177,Unsyncopated1,2022.2.5,MacIntel,200,,,,,,,,,,,,,,,,,,,,,,,,,,,,,,,,,,,,,,,,,,,,,,,,,,,,,,,,,,,,,,,,,,,,,,,,,,,,,,,,,,,,,,,,,,,,,,,,,,,,,,,,,,,,4,2.153,0,3,3,3,1,4. La música me hace compañía cuando estoy solo,,,,,,,,,,,,,,,,,,,,,,,,,,,,,,,,,,,,,,,,,,,,,
,,,,,,,s81,B,2023-11-21_21h16.00.177,Unsyncopated1,2022.2.5,MacIntel,200,,,,,,,,,,,,,,,,,,,,,,,,,,,,,,,,,,,,,,,,,,,,,,,,,,,,,,,,,,,,,,,,,,,,,,,,,,,,,,,,,,,,,,,,,,,,,,,,,,,,,,,,,,,,0,5.568,0,4,4,4,1,5. No me apetece bailar ni con la música que más me gusta,,,,,,,,,,,,,,,,,,,,,,,,,,,,,,,,,,,,,,,,,,,,,
,,,,,,,s81,B,2023-11-21_21h16.00.177,Unsyncopated1,2022.2.5,MacIntel,200,,,,,,,,,,,,,,,,,,,,,,,,,,,,,,,,,,,,,,,,,,,,,,,,,,,,,,,,,,,,,,,,,,,,,,,,,,,,,,,,,,,,,,,,,,,,,,,,,,,,,,,,,,,,4,2.42,0,5,5,5,1,6. La música me hace conectar con la gente,,,,,,,,,,,,,,,,,,,,,,,,,,,,,,,,,,,,,,,,,,,,,
,,,,,,,s81,B,2023-11-21_21h16.00.177,Unsyncopated1,2022.2.5,MacIntel,200,,,,,,,,,,,,,,,,,,,,,,,,,,,,,,,,,,,,,,,,,,,,,,,,,,,,,,,,,,,,,,,,,,,,,,,,,,,,,,,,,,,,,,,,,,,,,,,,,,,,,,,,,,,,3,2.802,0,6,6,6,1,7. Me informo sobre la música que me gusta.,,,,,,,,,,,,,,,,,,,,,,,,,,,,,,,,,,,,,,,,,,,,,
,,,,,,,s81,B,2023-11-21_21h16.00.177,Unsyncopated1,2022.2.5,MacIntel,200,,,,,,,,,,,,,,,,,,,,,,,,,,,,,,,,,,,,,,,,,,,,,,,,,,,,,,,,,,,,,,,,,,,,,,,,,,,,,,,,,,,,,,,,,,,,,,,,,,,,,,,,,,,,3,1.82,0,7,7,7,1,8.Me emociono escuchando ciertas canciones.,,,,,,,,,,,,,,,,,,,,,,,,,,,,,,,,,,,,,,,,,,,,,
,,,,,,,s81,B,2023-11-21_21h16.00.177,Unsyncopated1,2022.2.5,MacIntel,200,,,,,,,,,,,,,,,,,,,,,,,,,,,,,,,,,,,,,,,,,,,,,,,,,,,,,,,,,,,,,,,,,,,,,,,,,,,,,,,,,,,,,,,,,,,,,,,,,,,,,,,,,,,,3,1.587,0,8,8,8,1,9.La música me tranquiliza y me relaja.,,,,,,,,,,,,,,,,,,,,,,,,,,,,,,,,,,,,,,,,,,,,,
,,,,,,,s81,B,2023-11-21_21h16.00.177,Unsyncopated1,2022.2.5,MacIntel,200,,,,,,,,,,,,,,,,,,,,,,,,,,,,,,,,,,,,,,,,,,,,,,,,,,,,,,,,,,,,,,,,,,,,,,,,,,,,,,,,,,,,,,,,,,,,,,,,,,,,,,,,,,,,3,3.468,0,9,9,9,1,10.La música me hace bailar,,,,,,,,,,,,,,,,,,,,,,,,,,,,,,,,,,,,,,,,,,,,,
,,,,,,,s81,B,2023-11-21_21h16.00.177,Unsyncopated1,2022.2.5,MacIntel,200,,,,,,,,,,,,,,,,,,,,,,,,,,,,,,,,,,,,,,,,,,,,,,,,,,,,,,,,,,,,,,,,,,,,,,,,,,,,,,,,,,,,,,,,,,,,,,,,,,,,,,,,,,,,4,2.503,0,10,10,10,1,11.Busco novedades musicales continuamente,,,,,,,,,,,,,,,,,,,,,,,,,,,,,,,,,,,,,,,,,,,,,
,,,,,,,s81,B,2023-11-21_21h16.00.177,Unsyncopated1,2022.2.5,MacIntel,200,,,,,,,,,,,,,,,,,,,,,,,,,,,,,,,,,,,,,,,,,,,,,,,,,,,,,,,,,,,,,,,,,,,,,,,,,,,,,,,,,,,,,,,,,,,,,,,,,,,,,,,,,,,,4,5.051,0,11,11,11,1,12. Puedo llorar cuando escucho algunas melodías que me gustan mucho.,,,,,,,,,,,,,,,,,,,,,,,,,,,,,,,,,,,,,,,,,,,,,
,,,,,,,s81,B,2023-11-21_21h16.00.177,Unsyncopated1,2022.2.5,MacIntel,200,,,,,,,,,,,,,,,,,,,,,,,,,,,,,,,,,,,,,,,,,,,,,,,,,,,,,,,,,,,,,,,,,,,,,,,,,,,,,,,,,,,,,,,,,,,,,,,,,,,,,,,,,,,,3,3.786,0,12,12,12,1,13. Me gusta cantar o tocar un instrumento con más gente,,,,,,,,,,,,,,,,,,,,,,,,,,,,,,,,,,,,,,,,,,,,,
,,,,,,,s81,B,2023-11-21_21h16.00.177,Unsyncopated1,2022.2.5,MacIntel,200,,,,,,,,,,,,,,,,,,,,,,,,,,,,,,,,,,,,,,,,,,,,,,,,,,,,,,,,,,,,,,,,,,,,,,,,,,,,,,,,,,,,,,,,,,,,,,,,,,,,,,,,,,,,3,1.368,0,13,13,13,1,14. La música me ayuda a desconectar.,,,,,,,,,,,,,,,,,,,,,,,,,,,,,,,,,,,,,,,,,,,,,
,,,,,,,s81,B,2023-11-21_21h16.00.177,Unsyncopated1,2022.2.5,MacIntel,200,,,,,,,,,,,,,,,,,,,,,,,,,,,,,,,,,,,,,,,,,,,,,,,,,,,,,,,,,,,,,,,,,,,,,,,,,,,,,,,,,,,,,,,,,,,,,,,,,,,,,,,,,,,,4,4.405,0,14,14,14,1,15. No puedo evitar tararear las canciones que me gustan cuando las escucho.,,,,,,,,,,,,,,,,,,,,,,,,,,,,,,,,,,,,,,,,,,,,,
,,,,,,,s81,B,2023-11-21_21h16.00.177,Unsyncopated1,2022.2.5,MacIntel,200,,,,,,,,,,,,,,,,,,,,,,,,,,,,,,,,,,,,,,,,,,,,,,,,,,,,,,,,,,,,,,,,,,,,,,,,,,,,,,,,,,,,,,,,,,,,,,,,,,,,,,,,,,,,4,2.951,0,15,15,15,1,16. En los conciertos me siento en sintonía con los artistas y el público.,,,,,,,,,,,,,,,,,,,,,,,,,,,,,,,,,,,,,,,,,,,,,
,,,,,,,s81,B,2023-11-21_21h16.00.177,Unsyncopated1,2022.2.5,MacIntel,200,,,,,,,,,,,,,,,,,,,,,,,,,,,,,,,,,,,,,,,,,,,,,,,,,,,,,,,,,,,,,,,,,,,,,,,,,,,,,,,,,,,,,,,,,,,,,,,,,,,,,,,,,,,,3,3.203,0,16,16,16,1,17. Me gasto bastante dinero en música y cosas relacionadas con la música.,,,,,,,,,,,,,,,,,,,,,,,,,,,,,,,,,,,,,,,,,,,,,
,,,,,,,s81,B,2023-11-21_21h16.00.177,Unsyncopated1,2022.2.5,MacIntel,200,,,,,,,,,,,,,,,,,,,,,,,,,,,,,,,,,,,,,,,,,,,,,,,,,,,,,,,,,,,,,,,,,,,,,,,,,,,,,,,,,,,,,,,,,,,,,,,,,,,,,,,,,,,,3,3.352,0,17,17,17,1,18. Siento escalofríos cuando escucho una melodía que me gusta.,,,,,,,,,,,,,,,,,,,,,,,,,,,,,,,,,,,,,,,,,,,,,
,,,,,,,s81,B,2023-11-21_21h16.00.177,Unsyncopated1,2022.2.5,MacIntel,200,,,,,,,,,,,,,,,,,,,,,,,,,,,,,,,,,,,,,,,,,,,,,,,,,,,,,,,,,,,,,,,,,,,,,,,,,,,,,,,,,,,,,,,,,,,,,,,,,,,,,,,,,,,,4,2.603,0,18,18,18,1,19. Con la música me puedo desahogar.,,,,,,,,,,,,,,,,,,,,,,,,,,,,,,,,,,,,,,,,,,,,,
,,,,,,,s81,B,2023-11-21_21h16.00.177,Unsyncopated1,2022.2.5,MacIntel,200,,,,,,,,,,,,,,,,,,,,,,,,,,,,,,,,,,,,,,,,,,,,,,,,,,,,,,,,,,,,,,,,,,,,,,,,,,,,,,,,,,,,,,,,,,,,,,,,,,,,,,,,,,,,4,4.986,0,19,19,19,1,20. Cuando escucho una melodía que me gusta mucho no puedo evitar mover el cuerpo.,,,,,,,,,,,,,,,,,,,,,,,,,,,,,,,,,,,,,,,,,,,,,
,,,,,,,s81,B,2023-11-21_21h16.00.177,Unsyncopated1,2022.2.5,MacIntel,200,,,,,,,,,,,,,,,,,,,,,,,,,,,,,,,,,,,,,,,,,,,,,,,,,,,,,,,,,,,,,,,,,,,,,,,,,,,,,,,,,,,,,,,,,,,,,,,,,,,,,,,,,,,,,,,,,,,,space,7.501,,,,,,,,,,,,,,,,,,,,,,,,,,,,,,,,,,,,,,,,,,,
,,,,,,,s81,B,2023-11-21_21h16.00.177,Unsyncopated1,2022.2.5,MacIntel,200,,,,,,,,,,,,,,,,,,,,,,,,,,,,,,,,,,,,,,,,,,,,,,,,,,,,,,,,,,,,,,,,,,,,,,,,,,,,,,,,,,,,,,,,,,,,,,,,,,,,,,,,,,,,,,,,,,,,,,space,13.563,,,,,,,,,,,,,,,,,,,,,,,,,,,,,,,,,,,,,,,,,
,,,,,,,s81,B,2023-11-21_21h16.00.177,Unsyncopated1,2022.2.5,MacIntel,200,,,,,,,,,,,,,,,,,,,,,,,,,,,,,,,,,,,,,,,,,,,,,,,,,,,,,,,,,,,,,,,,,,,,,,,,,,,,,,,,,,,,,,,,,,,,,,,,,,,,,,,,,,,,,,,,,,,,,,,,space,22.446,,,,,,,,,,,,,,,,,,,,,,,,,,,,,,,,,,,,,,,
,,,,,,,s81,B,2023-11-21_21h16.00.177,Unsyncopated1,2022.2.5,MacIntel,200,,,,,,,,,,,,,,,,,,,,,,,,,,,,,,,,,,,,,,,,,,,,,,,,,,,,,,,,,,,,,,,,,,,,,,,,,,,,,,,,,,,,,,,,,,,,,,,,,,,,,,,,,,,,,,,,,,,,,,,,,,space,11.456,,,,,,,,,,,,,,,,,,,,,,,,,,,,,,,,,,,,,
,,,,,,,s81,B,2023-11-21_21h16.00.177,Unsyncopated1,2022.2.5,MacIntel,200,,,,,,,,,,,,,,,,,,,,,,,,,,,,,,,,,,,,,,,,,,,,,,,,,,,,,,,,,,,,,,,,,,,,,,,,,,,,,,,,,,,,,,,,,,,,,,,,,,,,,,,,,,,,,,,,,,,,,,,,,,,,space,11.865,,,,,,,,,,,,,,,,,,,,,,,,,,,,,,,,,,,
,,,,,,,s81,B,2023-11-21_21h16.00.177,Unsyncopated1,2022.2.5,MacIntel,200,,,,,,,,,,,,,,,,,,,,,,,,,,,,,,,,,,,,,,,,,,,,,,,,,,,,,,,,,,,,,,,,,,,,,,,,,,,,,,,,,,,,,,,,,,,,,,,,,,,,,,,,,,,,,,,,,,,,,,,,,,,,,,space,11.134,,,,,,,,,,,,,,,,,,,,,,,,,,,,,,,,,
,,,,,,,s81,B,2023-11-21_21h16.00.177,Unsyncopated1,2022.2.5,MacIntel,200,,,,,,,,,,,,,,,,,,,,,,,,,,,,,,,,,,,,,,,,,,,,,,,,,,,,,,,,,,,,,,,,,,,,,,,,,,,,,,,,,,,,,,,,,,,,,,,,,,,,,,,,,,,,,,,,,,,,,,,,,,,,,,,,space,2.855,,,,,,,,,,,,,,,,,,,,,,,,,,,,,,,
,,,,,,,s81,B,2023-11-21_21h16.00.177,Unsyncopated1,2022.2.5,MacIntel,200,,,,,,,,,,,,,,,,,,,,,,,,,,,,,,,,,,,,,,,,,,,,,,,,,,,,,,,,,,,,,,,,,,,,,,,,,,,,,,,,,,,,,,,,,,,,,,,,,,,,,,,,,,,,,,,,,,,,,,,,,,,,,,,,,,space,21.458,,,,,,,,,,,,,,,,,,,,,,,,,,,,,
,,,,,,,s81,B,2023-11-21_21h16.00.177,Unsyncopated1,2022.2.5,MacIntel,200,,,,,,,,,,,,,,,,,,,,,,,,,,,,,,,,,,,,,,,,,,,,,,,,,,,,,,,,,,,,,,,,,,,,,,,,,,,,,,,,,,,,,,,,,,,,,,,,,,,,,,,,,,,,,,,,,,,,,,,,,,,,,,,,,,,,space,7.319,,,,,,,,,,,,,,,,,,,,,,,,,,,
,,,,,,,s81,B,2023-11-21_21h16.00.177,Unsyncopated1,2022.2.5,MacIntel,200,,,,,,,,,,,,,,,,,,,,,,,,,,,,,,,,,,,,,,,,,,,,,,,,,,,,,,,,,,,,,,,,,,,,,,,,,,,,,,,,,,,,,,,,,,,,,,,,,,,,,,,,,,,,,,,,,,,,,,,,,,,,,,,,,,,,,,space,2.523,,,,,,,,,,,,,,,,,,,,,,,,,
,,,,,,,s81,B,2023-11-21_21h16.00.177,Unsyncopated1,2022.2.5,MacIntel,200,,,,,,,,,,,,,,,,,,,,,,,,,,,,,,,,,,,,,,,,,,,,,,,,,,,,,,,,,,,,,,,,,,,,,,,,,,,,,,,,,,,,,,,,,,,,,,,,,,,,,,,,,,,,,,,,,,,,,,,,,,,,,,,,,,,,,,,,space,10.577,space,13.334,,0,0,0,2,1,Online_conjL1_un//a.pu.ki10.none.none.wav,none,none,ta,ze,ni,sil,be,zu,fa,sil1,ro,fo,sil2,
,,,,,,,s81,B,2023-11-21_21h16.00.177,Unsyncopated1,2022.2.5,MacIntel,200,,,,,,,,,,,,,,,,,,,,,,,,,,,,,,,,,,,,,,,,,,,,,,,,,,,,,,,,,,,,,,,,,,,,,,,,,,,,,,,,,,,,,,,,,,,,,,,,,,,,,,,,,,,,,,,,,,,,,,,,,,,,,,,,,,,,,,,,,,,,"[""space""]",0,1,1,3,1,Online_conjL1_un//a.pu.ki11.0.888.wav,888,0,pu,fa,fo,sil,ki,ze,lu,sil1,ri,ni,sil2,[0.7190000000001646]
,,,,,,,s81,B,2023-11-21_21h16.00.177,Unsyncopated1,2022.2.5,MacIntel,200,,,,,,,,,,,,,,,,,,,,,,,,,,,,,,,,,,,,,,,,,,,,,,,,,,,,,,,,,,,,,,,,,,,,,,,,,,,,,,,,,,,,,,,,,,,,,,,,,,,,,,,,,,,,,,,,,,,,,,,,,,,,,,,,,,,,,,,,,,,,"[""space"",""space""]",0,2,2,0,1,Online_conjL1_un//a.pu.ki8.0.888.wav,888,0,pu,ne,ro,sil,ki,ze,zu,sil1,la,ni,sil2,"[0.5200000000000955,2.45900000000006]"
,,,,,,,s81,B,2023-11-21_21h16.00.177,Unsyncopated1,2022.2.5,MacIntel,200,,,,,,,,,,,,,,,,,,,,,,,,,,,,,,,,,,,,,,,,,,,,,,,,,,,,,,,,,,,,,,,,,,,,,,,,,,,,,,,,,,,,,,,,,,,,,,,,,,,,,,,,,,,,,,,,,,,,,,,,,,,,,,,,,,,,,,,,,,,,,0,3,3,1,1,Online_conjL1_un//a.pu.ki9.0.888.wav,888,0,pu,ne,fo,sil,ki,fa,ni,sil1,ze,ri,sil2,
