Unnamed: 0,date,expName,participant,age,sex,hand,residence,native_lang,education_level,lang_deficit,aud_deficit,group,block,condition,language,rhythm,rule structure online,rule type online,order_trial_on,trial_online,s1,s2,s3,s4,s5,s6,s7,s8,s9,s10,s11,catch_syll_resp,rts_syll_catch,clean_rts,time_syll,beat_no_beat,catch_rtsTR,catch_rts,syllable_catch.keys,cond_syll,syll_to_catch,test_offline,block_off,condition_off,rhythm_off,rule,rule_str_off,rule_norule,conds_offline,language_off,Partz_no_partm.keys,Partz_no_partm.rt,security_1_7.keys,accuracy,security_1_7.rt,n_lang,n_lang_used,lang_1,age_l1,lang_2,age_l2,lang_3,age_l3,lang_4,age_l4,lang_5,age_l5,lang_6,age_l6,ability_learn_l2,tendence_mix_lan,music_experience,muisc_use,partiture,instr_1,age_M1,preguntas_musica1,BMRQ_answer.response,final comment,BMRQ_Score,bilingual
0,2023-11-13_17h24.40.562,Unsyncopated1,s76,23.0,masculino,left,España,"Castellano, Catalán, Lengua de Signos Catalana",Bachelor degree,no,no,A,1,when,L3,unsyncopated,when,when,0,Online_whenL3//c.gu15.none.wav,je,chu,li,sil,mo,ko,di,sil1,ji,do,sil2,['-'],,,none,none,,,,gu,3,testWhenL3Uns//r2.s2.1.wav,1.0,when,unsyncopated,b,s2,rule,rule,L3,z,1.7995,7.0,1.0,1.3457,6.0,3.0,Catalán,0.0,Castellano,0.0,LSC,0.0,Inglés,6.0,Francés,18.0,Italiano,21.0,5.0,4.0,no,no,yes,Flauta dulce,6,1. Cuando comparto música con alguien siento una complicidad especial con aquella persona.,3.0,nada,64.0,yes
1,2023-11-13_17h24.40.562,Unsyncopated1,s76,23.0,masculino,left,España,"Castellano, Catalán, Lengua de Signos Catalana",Bachelor degree,no,no,A,1,when,L3,unsyncopated,when,when,1,Online_whenL3//c.gu13.none.wav,ñe,ko,chu,sil,di,je,fu,sil1,do,le,sil2,['-'],,,none,none,,,,gu,3,testWhenL3Uns//dep_viol.r2.s1.0.wav,1.0,when,unsyncopated,b,s1,no_rule,dep,L3,z,0.6779,7.0,1.0,1.1946,6.0,3.0,Catalán,0.0,Castellano,0.0,LSC,0.0,Inglés,6.0,Francés,18.0,Italiano,21.0,5.0,4.0,no,no,yes,Flauta dulce,6,2. En mi tiempo libre apenas escucho música.,5.0,nada,64.0,yes
2,2023-11-13_17h24.40.562,Unsyncopated1,s76,23.0,masculino,left,España,"Castellano, Catalán, Lengua de Signos Catalana",Bachelor degree,no,no,A,1,when,L3,unsyncopated,when,when,2,Online_whenL3//c.gu12.0.wav,gu,sa,ji,sil,je,ko,do,sil1,le,chu,sil2,['catch'],[0.8455999999046071],[0.8455999999046071],0.0,beat,0.8455999999046071,0.8455999999046071,"[""space""]",gu,3,testWhenL3Uns//r2.s1.2.wav,1.0,when,unsyncopated,b,s1,rule,rule,L3,z,0.5852,7.0,1.0,0.9208,6.0,3.0,Catalán,0.0,Castellano,0.0,LSC,0.0,Inglés,6.0,Francés,18.0,Italiano,21.0,5.0,4.0,no,no,yes,Flauta dulce,6,3. Algunas canciones me ponen los pelos de punta,4.0,nada,64.0,yes
3,2023-11-13_17h24.40.562,Unsyncopated1,s76,23.0,masculino,left,España,"Castellano, Catalán, Lengua de Signos Catalana",Bachelor degree,no,no,A,1,when,L3,unsyncopated,when,when,3,Online_whenL3//c.gu14.444.wav,ka,le,gu,sil,chu,mo,do,sil1,fu,ji,sil2,['catch'],[1.2581999998092215],[1.2581999998092215],0.444,no_beat,0.8141999998092215,0.8141999998092215,"[""space""]",gu,3,testWhenL3Uns//time_viol.r2.s1.0.wav,1.0,when,unsyncopated,b,s1,no_rule,time,L3,z,2.5782,4.0,1.0,2.3082,6.0,3.0,Catalán,0.0,Castellano,0.0,LSC,0.0,Inglés,6.0,Francés,18.0,Italiano,21.0,5.0,4.0,no,no,yes,Flauta dulce,6,4. La música me hace compañía cuando estoy solo,3.0,nada,64.0,yes
4,2023-11-13_17h24.40.562,Unsyncopated1,s76,23.0,masculino,left,España,"Castellano, Catalán, Lengua de Signos Catalana",Bachelor degree,no,no,A,1,when,L3,unsyncopated,when,when,4,Online_whenL3//d.ji7.1776.wav,do,ko,ga,sil,di,chu,sa,sil1,ji,le,sil2,['catch'],[2.5029000000953374],[2.5029000000953374],1.776,beat,0.7269000000953374,0.7269000000953374,"[""space""]",ji,4,testWhenL3Uns//r1.s2.2.wav,1.0,when,unsyncopated,a,s2,rule,rule,L3,z,1.2994,3.0,1.0,1.5547,6.0,3.0,Catalán,0.0,Castellano,0.0,LSC,0.0,Inglés,6.0,Francés,18.0,Italiano,21.0,5.0,4.0,no,no,yes,Flauta dulce,6,5. No me apetece bailar ni con la música que más me gusta,5.0,nada,64.0,yes
5,2023-11-13_17h24.40.562,Unsyncopated1,s76,23.0,masculino,left,España,"Castellano, Catalán, Lengua de Signos Catalana",Bachelor degree,no,no,A,1,when,L3,unsyncopated,when,when,5,Online_whenL3//d.ji6.1998.wav,gu,di,ko,sil,mo,fu,le,sil1,ñe,ji,sil2,['catch_delay'],[0.7346999998092689],[0.7346999998092689],1.998,no_beat,0.7346999998092689,0.7346999998092689,,ji,4,testWhenL3Uns//cat_viol.r1.s2.0.wav,1.0,when,unsyncopated,a,s2,no_rule,cat,L3,z,8.0491,2.0,1.0,1.6327,6.0,3.0,Catalán,0.0,Castellano,0.0,LSC,0.0,Inglés,6.0,Francés,18.0,Italiano,21.0,5.0,4.0,no,no,yes,Flauta dulce,6,6. La música me hace conectar con la gente,4.0,nada,64.0,yes
6,2023-11-13_17h24.40.562,Unsyncopated1,s76,23.0,masculino,left,España,"Castellano, Catalán, Lengua de Signos Catalana",Bachelor degree,no,no,A,1,when,L3,unsyncopated,when,when,6,Online_whenL3//d.ji5.none.wav,di,fu,li,sil,le,chu,je,sil1,ko,sa,sil2,['-'],[0.06869999980926877],[0.06869999980926877],none,none,,,"[""space""]",ji,4,testWhenL3Uns//cat_viol.r2.s2.0.wav,1.0,when,unsyncopated,b,s2,no_rule,cat,L3,z,0.5351,5.0,1.0,1.84,6.0,3.0,Catalán,0.0,Castellano,0.0,LSC,0.0,Inglés,6.0,Francés,18.0,Italiano,21.0,5.0,4.0,no,no,yes,Flauta dulce,6,7. Me informo sobre la música que me gusta.,3.0,nada,64.0,yes
7,2023-11-13_17h24.40.562,Unsyncopated1,s76,23.0,masculino,left,España,"Castellano, Catalán, Lengua de Signos Catalana",Bachelor degree,no,no,A,1,when,L3,unsyncopated,when,when,7,Online_whenL3//d.ji4.0.wav,ji,chu,do,sil,mo,ka,ga,sil1,ko,fu,sil2,['catch'],[0.7524000000953492],[0.7524000000953492],0.0,beat,0.7524000000953492,0.7524000000953492,"[""space""]",ji,4,testWhenL3Uns//r2.s1.1.wav,1.0,when,unsyncopated,b,s1,rule,rule,L3,m,3.2417,2.0,0.0,1.5046,6.0,3.0,Catalán,0.0,Castellano,0.0,LSC,0.0,Inglés,6.0,Francés,18.0,Italiano,21.0,5.0,4.0,no,no,yes,Flauta dulce,6,8.Me emociono escuchando ciertas canciones.,4.0,nada,64.0,yes
8,2023-11-13_17h24.40.562,Unsyncopated1,s76,23.0,masculino,left,España,"Castellano, Catalán, Lengua de Signos Catalana",Bachelor degree,no,no,A,1,when,L3,unsyncopated,when,when,8,Online_whenL3//b.ñe28.none.wav,fu,je,chu,sil,sa,le,ga,sil1,li,ka,sil2,['-'],,,none,none,,,,ñe,1,testWhenL3Uns//cat_viol.r2.s1.0.wav,1.0,when,unsyncopated,b,s1,no_rule,cat,L3,z,0.2726,5.0,1.0,1.4515,6.0,3.0,Catalán,0.0,Castellano,0.0,LSC,0.0,Inglés,6.0,Francés,18.0,Italiano,21.0,5.0,4.0,no,no,yes,Flauta dulce,6,9.La música me tranquiliza y me relaja.,3.0,nada,64.0,yes
9,2023-11-13_17h24.40.562,Unsyncopated1,s76,23.0,masculino,left,España,"Castellano, Catalán, Lengua de Signos Catalana",Bachelor degree,no,no,A,1,when,L3,unsyncopated,when,when,9,Online_whenL3//b.ñe29.0.wav,ñe,gu,ga,sil,ko,li,le,sil1,ka,sa,sil2,['catch'],[0.7733000001907158],[0.7733000001907158],0.0,beat,0.7733000001907158,0.7733000001907158,"[""space""]",ñe,1,testWhenL3Uns//r2.s2.2.wav,1.0,when,unsyncopated,b,s2,rule,rule,L3,m,1.491,3.0,0.0,2.5393,6.0,3.0,Catalán,0.0,Castellano,0.0,LSC,0.0,Inglés,6.0,Francés,18.0,Italiano,21.0,5.0,4.0,no,no,yes,Flauta dulce,6,10.La música me hace bailar,3.0,nada,64.0,yes
10,2023-11-13_17h24.40.562,Unsyncopated1,s76,23.0,masculino,left,España,"Castellano, Catalán, Lengua de Signos Catalana",Bachelor degree,no,no,A,1,when,L3,unsyncopated,when,when,10,Online_whenL3//b.ñe31.none.wav,chu,je,do,sil,le,ka,sa,sil1,li,ga,sil2,['-'],,,none,none,,,,ñe,1,testWhenL3Uns//r1.s2.0.wav,1.0,when,unsyncopated,a,s2,rule,rule,L3,m,0.4725,5.0,0.0,1.7695,6.0,3.0,Catalán,0.0,Castellano,0.0,LSC,0.0,Inglés,6.0,Francés,18.0,Italiano,21.0,5.0,4.0,no,no,yes,Flauta dulce,6,11.Busco novedades musicales continuamente,3.0,nada,64.0,yes
11,2023-11-13_17h24.40.562,Unsyncopated1,s76,23.0,masculino,left,España,"Castellano, Catalán, Lengua de Signos Catalana",Bachelor degree,no,no,A,1,when,L3,unsyncopated,when,when,11,Online_whenL3//b.ñe30.none.wav,ka,di,mo,sil,ko,chu,je,sil1,fu,gu,sil2,['-'],,,none,none,,,,ñe,1,testWhenL3Uns//time_viol.r2.s2.0.wav,1.0,when,unsyncopated,b,s2,no_rule,time,L3,m,1.2175,3.0,0.0,1.387,6.0,3.0,Catalán,0.0,Castellano,0.0,LSC,0.0,Inglés,6.0,Francés,18.0,Italiano,21.0,5.0,4.0,no,no,yes,Flauta dulce,6,12. Puedo llorar cuando escucho algunas melodías que me gustan mucho.,1.0,nada,64.0,yes
12,2023-11-13_17h24.40.562,Unsyncopated1,s76,23.0,masculino,left,España,"Castellano, Catalán, Lengua de Signos Catalana",Bachelor degree,no,no,A,1,when,L3,unsyncopated,when,when,12,Online_whenL3//c.gu0.none.wav,ko,le,ka,sil,mo,di,fu,sil1,ñe,ji,sil2,['-'],,,none,none,,,,gu,3,testWhenL3Uns//r1.s1.1.wav,1.0,when,unsyncopated,a,s1,rule,rule,L3,z,0.9088,3.0,1.0,1.785,6.0,3.0,Catalán,0.0,Castellano,0.0,LSC,0.0,Inglés,6.0,Francés,18.0,Italiano,21.0,5.0,4.0,no,no,yes,Flauta dulce,6,13. Me gusta cantar o tocar un instrumento con más gente,2.0,nada,64.0,yes
13,2023-11-13_17h24.40.562,Unsyncopated1,s76,23.0,masculino,left,España,"Castellano, Catalán, Lengua de Signos Catalana",Bachelor degree,no,no,A,1,when,L3,unsyncopated,when,when,13,Online_whenL3//c.gu1.none.wav,sa,ka,ñe,sil,je,di,ji,sil1,ko,le,sil2,['-'],,,none,none,,,,gu,3,testWhenL3Uns//dep_viol.r1.s1.0.wav,1.0,when,unsyncopated,a,s1,no_rule,dep,L3,m,3.4268,5.0,0.0,1.7519,6.0,3.0,Catalán,0.0,Castellano,0.0,LSC,0.0,Inglés,6.0,Francés,18.0,Italiano,21.0,5.0,4.0,no,no,yes,Flauta dulce,6,14. La música me ayuda a desconectar.,3.0,nada,64.0,yes
14,2023-11-13_17h24.40.562,Unsyncopated1,s76,23.0,masculino,left,España,"Castellano, Catalán, Lengua de Signos Catalana",Bachelor degree,no,no,A,1,when,L3,unsyncopated,when,when,14,Online_whenL3//c.gu3.1110.wav,li,mo,ko,sil,je,gu,chu,sil1,fu,ka,sil2,['catch'],[1.7735999999046044],[1.7735999999046044],1.11,no_beat,0.6635999999046043,0.6635999999046043,"[""space""]",gu,3,testWhenL3Uns//time_viol.r1.s2.0.wav,1.0,when,unsyncopated,a,s2,no_rule,time,L3,z,2.7832,4.0,1.0,2.12,6.0,3.0,Catalán,0.0,Castellano,0.0,LSC,0.0,Inglés,6.0,Francés,18.0,Italiano,21.0,5.0,4.0,no,no,yes,Flauta dulce,6,15. No puedo evitar tararear las canciones que me gustan cuando las escucho.,4.0,nada,64.0,yes
15,2023-11-13_17h24.40.562,Unsyncopated1,s76,23.0,masculino,left,España,"Castellano, Catalán, Lengua de Signos Catalana",Bachelor degree,no,no,A,1,when,L3,unsyncopated,when,when,15,Online_whenL3//c.gu2.1998.wav,ji,ga,je,sil,le,ñe,di,sil1,sa,gu,sil2,['catch_delay'],[0.9610999999046645],[0.9610999999046645],1.998,no_beat,0.9610999999046644,0.9610999999046644,,gu,3,testWhenL3Uns//r1.s1.2.wav,1.0,when,unsyncopated,a,s1,rule,rule,L3,z,2.0168,3.0,1.0,0.6409,6.0,3.0,Catalán,0.0,Castellano,0.0,LSC,0.0,Inglés,6.0,Francés,18.0,Italiano,21.0,5.0,4.0,no,no,yes,Flauta dulce,6,16. En los conciertos me siento en sintonía con los artistas y el público.,3.0,nada,64.0,yes
16,2023-11-13_17h24.40.562,Unsyncopated1,s76,23.0,masculino,left,España,"Castellano, Catalán, Lengua de Signos Catalana",Bachelor degree,no,no,A,1,when,L3,unsyncopated,when,when,16,Online_whenL3//d.ji30.none.wav,mo,je,do,sil,sa,fu,di,sil1,li,gu,sil2,['-'],[0.2950999999046644],[0.2950999999046644],none,none,,,"[""space""]",ji,4,testWhenL3Uns//dep_viol.r2.s2.0.wav,1.0,when,unsyncopated,b,s2,no_rule,dep,L3,m,1.133,7.0,0.0,1.3834,6.0,3.0,Catalán,0.0,Castellano,0.0,LSC,0.0,Inglés,6.0,Francés,18.0,Italiano,21.0,5.0,4.0,no,no,yes,Flauta dulce,6,17. Me gasto bastante dinero en música y cosas relacionadas con la música.,1.0,nada,64.0,yes
17,2023-11-13_17h24.40.562,Unsyncopated1,s76,23.0,masculino,left,España,"Castellano, Catalán, Lengua de Signos Catalana",Bachelor degree,no,no,A,1,when,L3,unsyncopated,when,when,17,Online_whenL3//d.ji31.none.wav,ga,ko,di,sil,li,sa,ka,sil1,gu,chu,sil2,['-'],,,none,none,,,,ji,4,testWhenL3Uns//r2.s1.0.wav,1.0,when,unsyncopated,b,s1,rule,rule,L3,z,3.4353,4.0,1.0,0.6372,6.0,3.0,Catalán,0.0,Castellano,0.0,LSC,0.0,Inglés,6.0,Francés,18.0,Italiano,21.0,5.0,4.0,no,no,yes,Flauta dulce,6,18. Siento escalofríos cuando escucho una melodía que me gusta.,3.0,nada,64.0,yes
18,2023-11-13_17h24.40.562,Unsyncopated1,s76,23.0,masculino,left,España,"Castellano, Catalán, Lengua de Signos Catalana",Bachelor degree,no,no,A,1,when,L3,unsyncopated,when,when,18,Online_whenL3//d.ji29.none.wav,ñe,fu,ga,sil,sa,di,ko,sil1,je,gu,sil2,['-'],,,none,none,,,,ji,4,testWhenL3Uns//time_viol.r1.s1.0.wav,1.0,when,unsyncopated,a,s1,no_rule,time,L3,z,2.4548,5.0,1.0,1.3883,6.0,3.0,Catalán,0.0,Castellano,0.0,LSC,0.0,Inglés,6.0,Francés,18.0,Italiano,21.0,5.0,4.0,no,no,yes,Flauta dulce,6,19. Con la música me puedo desahogar.,3.0,nada,64.0,yes
19,2023-11-13_17h24.40.562,Unsyncopated1,s76,23.0,masculino,left,España,"Castellano, Catalán, Lengua de Signos Catalana",Bachelor degree,no,no,A,1,when,L3,unsyncopated,when,when,19,Online_whenL3//d.ji28.888.wav,di,mo,do,sil,ji,chu,je,sil1,ka,ko,sil2,['miss'],,,0.888,beat,,,,ji,4,testWhenL3Uns//r2.s2.0.wav,1.0,when,unsyncopated,b,s2,rule,rule,L3,z,0.7344,7.0,1.0,0.5534,6.0,3.0,Catalán,0.0,Castellano,0.0,LSC,0.0,Inglés,6.0,Francés,18.0,Italiano,21.0,5.0,4.0,no,no,yes,Flauta dulce,6,20. Cuando escucho una melodía que me gusta mucho no puedo evitar mover el cuerpo.,4.0,nada,64.0,yes
20,2023-11-13_17h24.40.562,Unsyncopated1,s76,23.0,masculino,left,España,"Castellano, Catalán, Lengua de Signos Catalana",Bachelor degree,no,no,A,1,when,L3,unsyncopated,when,when,20,Online_whenL3//a.mo17.none.wav,ji,ko,sa,sil,di,ka,do,sil1,chu,ga,sil2,['-'],,,none,none,,,,mo,2,testWhenL3Uns//r1.s1.0.wav,1.0,when,unsyncopated,a,s1,rule,rule,L3,m,2.7363,4.0,0.0,1.0355,6.0,3.0,Catalán,0.0,Castellano,0.0,LSC,0.0,Inglés,6.0,Francés,18.0,Italiano,21.0,5.0,4.0,no,no,yes,Flauta dulce,6,,,nada,64.0,yes
21,2023-11-13_17h24.40.562,Unsyncopated1,s76,23.0,masculino,left,España,"Castellano, Catalán, Lengua de Signos Catalana",Bachelor degree,no,no,A,1,when,L3,unsyncopated,when,when,21,Online_whenL3//a.mo18.888.wav,je,do,fu,sil,mo,sa,ga,sil1,di,le,sil2,['catch'],[1.8861999998092642],[1.8861999998092642],0.888,beat,0.9981999998092642,0.9981999998092642,"[""space""]",mo,2,testWhenL3Uns//cat_viol.r1.s1.0.wav,1.0,when,unsyncopated,a,s1,no_rule,cat,L3,z,2.1194,1.0,1.0,0.9004,6.0,3.0,Catalán,0.0,Castellano,0.0,LSC,0.0,Inglés,6.0,Francés,18.0,Italiano,21.0,5.0,4.0,no,no,yes,Flauta dulce,6,,,nada,64.0,yes
22,2023-11-13_17h24.40.562,Unsyncopated1,s76,23.0,masculino,left,España,"Castellano, Catalán, Lengua de Signos Catalana",Bachelor degree,no,no,A,1,when,L3,unsyncopated,when,when,22,Online_whenL3//a.mo16.1998.wav,li,je,gu,sil,ka,chu,le,sil1,ji,mo,sil2,['catch_delay'],[0.8180999999046354],[0.8180999999046354],1.998,no_beat,0.8180999999046354,0.8180999999046354,,mo,2,testWhenL3Uns//dep_viol.r1.s2.0.wav,1.0,when,unsyncopated,a,s2,no_rule,dep,L3,m,0.9672,4.0,0.0,0.9683,6.0,3.0,Catalán,0.0,Castellano,0.0,LSC,0.0,Inglés,6.0,Francés,18.0,Italiano,21.0,5.0,4.0,no,no,yes,Flauta dulce,6,,,nada,64.0,yes
23,2023-11-13_17h24.40.562,Unsyncopated1,s76,23.0,masculino,left,España,"Castellano, Catalán, Lengua de Signos Catalana",Bachelor degree,no,no,A,1,when,L3,unsyncopated,when,when,23,Online_whenL3//a.mo19.none.wav,fu,ka,ko,sil,chu,sa,do,sil1,li,le,sil2,['-'],[0.1520999999046353],[0.1520999999046353],none,none,,,"[""space""]",mo,2,testWhenL3Uns//r1.s2.1.wav,1.0,when,unsyncopated,a,s2,rule,rule,L3,m,1.2403,5.0,0.0,0.9604,6.0,3.0,Catalán,0.0,Castellano,0.0,LSC,0.0,Inglés,6.0,Francés,18.0,Italiano,21.0,5.0,4.0,no,no,yes,Flauta dulce,6,,,nada,64.0,yes
24,2023-11-13_17h24.40.562,Unsyncopated1,s76,23.0,masculino,left,España,"Castellano, Catalán, Lengua de Signos Catalana",Bachelor degree,no,no,A,1,when,L3,unsyncopated,when,when,24,Online_whenL3//c.gu4.none.wav,do,ka,ko,sil,fu,chu,mo,sil1,le,ji,sil2,['-'],,,none,none,,,,gu,3,testConjL1Uns//r1.s2.0.wav,2.0,conjunction_un,unsyncopated,a,s2,rule,rule,L1,z,0.5362,6.0,1.0,1.2371,6.0,3.0,Catalán,0.0,Castellano,0.0,LSC,0.0,Inglés,6.0,Francés,18.0,Italiano,21.0,5.0,4.0,no,no,yes,Flauta dulce,6,,,nada,64.0,yes
25,2023-11-13_17h24.40.562,Unsyncopated1,s76,23.0,masculino,left,España,"Castellano, Catalán, Lengua de Signos Catalana",Bachelor degree,no,no,A,1,when,L3,unsyncopated,when,when,25,Online_whenL3//c.gu7.1776.wav,sa,ga,di,sil,mo,ka,ko,sil1,gu,le,sil2,['catch'],[2.5783000001906657],[2.5783000001906657],1.776,beat,0.8023000001906657,0.8023000001906657,"[""space""]",gu,3,testConjL1Uns//dep_viol.r1.s1.0.wav,2.0,conjunction_un,unsyncopated,a,s1,no_rule,dep,L1,z,0.4086,7.0,0.0,1.0013,6.0,3.0,Catalán,0.0,Castellano,0.0,LSC,0.0,Inglés,6.0,Francés,18.0,Italiano,21.0,5.0,4.0,no,no,yes,Flauta dulce,6,,,nada,64.0,yes
26,2023-11-13_17h24.40.562,Unsyncopated1,s76,23.0,masculino,left,España,"Castellano, Catalán, Lengua de Signos Catalana",Bachelor degree,no,no,A,1,when,L3,unsyncopated,when,when,26,Online_whenL3//c.gu6.none.wav,do,je,mo,sil,fu,ko,sa,sil1,ka,di,sil2,['false alarm'],[1.896700000286046],[1.896700000286046],none,none,,,"[""space""]",gu,3,testConjL1Uns//cat_viol.r1.s1.0.wav,2.0,conjunction_un,unsyncopated,a,s1,no_rule,cat,L1,z,0.3199,7.0,0.0,1.6421,6.0,3.0,Catalán,0.0,Castellano,0.0,LSC,0.0,Inglés,6.0,Francés,18.0,Italiano,21.0,5.0,4.0,no,no,yes,Flauta dulce,6,,,nada,64.0,yes
27,2023-11-13_17h24.40.562,Unsyncopated1,s76,23.0,masculino,left,España,"Castellano, Catalán, Lengua de Signos Catalana",Bachelor degree,no,no,A,1,when,L3,unsyncopated,when,when,27,Online_whenL3//c.gu5.0.wav,gu,ko,ji,sil,sa,ñe,le,sil1,fu,di,sil2,['catch'],[0.9722000002861932],[0.9722000002861932],0.0,beat,0.9722000002861932,0.9722000002861932,"[""space""]",gu,3,testConjL1Uns//cat_viol.r2.s2.0.wav,2.0,conjunction_un,unsyncopated,b,s2,no_rule,cat,L1,z,1.8767,4.0,0.0,1.2528,6.0,3.0,Catalán,0.0,Castellano,0.0,LSC,0.0,Inglés,6.0,Francés,18.0,Italiano,21.0,5.0,4.0,no,no,yes,Flauta dulce,6,,,nada,64.0,yes
28,2023-11-13_17h24.40.562,Unsyncopated1,s76,23.0,masculino,left,España,"Castellano, Catalán, Lengua de Signos Catalana",Bachelor degree,no,no,A,1,when,L3,unsyncopated,when,when,28,Online_whenL3//d.ji3.none.wav,je,le,do,sil,sa,ka,ga,sil1,gu,mo,sil2,['-'],,,none,none,,,,ji,4,testConjL1Uns//r1.s1.0.wav,2.0,conjunction_un,unsyncopated,a,s1,rule,rule,L1,m,3.0859,2.0,0.0,1.8063,6.0,3.0,Catalán,0.0,Castellano,0.0,LSC,0.0,Inglés,6.0,Francés,18.0,Italiano,21.0,5.0,4.0,no,no,yes,Flauta dulce,6,,,nada,64.0,yes
29,2023-11-13_17h24.40.562,Unsyncopated1,s76,23.0,masculino,left,España,"Castellano, Catalán, Lengua de Signos Catalana",Bachelor degree,no,no,A,1,when,L3,unsyncopated,when,when,29,Online_whenL3//d.ji1.888.wav,sa,je,le,sil,ji,ko,ñe,sil1,di,gu,sil2,['miss'],,,0.888,beat,,,,ji,4,testConjL1Uns//r1.s1.2.wav,2.0,conjunction_un,unsyncopated,a,s1,rule,rule,L1,z,2.7577,3.0,1.0,0.6331,6.0,3.0,Catalán,0.0,Castellano,0.0,LSC,0.0,Inglés,6.0,Francés,18.0,Italiano,21.0,5.0,4.0,no,no,yes,Flauta dulce,6,,,nada,64.0,yes
30,2023-11-13_17h24.40.562,Unsyncopated1,s76,23.0,masculino,left,España,"Castellano, Catalán, Lengua de Signos Catalana",Bachelor degree,no,no,A,1,when,L3,unsyncopated,when,when,30,Online_whenL3//d.ji2.none.wav,je,ko,sa,sil,le,do,ga,sil1,ñe,di,sil2,['-'],,,none,none,,,,ji,4,testConjL1Uns//r1.s2.1.wav,2.0,conjunction_un,unsyncopated,a,s2,rule,rule,L1,m,2.049,4.0,0.0,0.8171,6.0,3.0,Catalán,0.0,Castellano,0.0,LSC,0.0,Inglés,6.0,Francés,18.0,Italiano,21.0,5.0,4.0,no,no,yes,Flauta dulce,6,,,nada,64.0,yes
31,2023-11-13_17h24.40.562,Unsyncopated1,s76,23.0,masculino,left,España,"Castellano, Catalán, Lengua de Signos Catalana",Bachelor degree,no,no,A,1,when,L3,unsyncopated,when,when,31,Online_whenL3//d.ji0.1332.wav,je,ko,gu,sil,do,ñe,ji,sil1,mo,le,sil2,['catch'],[2.187300000190703],[2.187300000190703],1.332,no_beat,0.855300000190703,0.855300000190703,"[""space""]",ji,4,testConjL1Uns//r1.s2.2.wav,2.0,conjunction_un,unsyncopated,a,s2,rule,rule,L1,z,0.3229,5.0,1.0,1.1194,6.0,3.0,Catalán,0.0,Castellano,0.0,LSC,0.0,Inglés,6.0,Francés,18.0,Italiano,21.0,5.0,4.0,no,no,yes,Flauta dulce,6,,,nada,64.0,yes
32,2023-11-13_17h24.40.562,Unsyncopated1,s76,23.0,masculino,left,España,"Castellano, Catalán, Lengua de Signos Catalana",Bachelor degree,no,no,A,1,when,L3,unsyncopated,when,when,32,Online_whenL3//a.mo3.none.wav,chu,sa,gu,sil,ka,le,je,sil1,ga,di,sil2,['-'],,,none,none,,,,mo,2,testConjL1Uns//r2.s1.2.wav,2.0,conjunction_un,unsyncopated,b,s1,rule,rule,L1,m,0.3516,4.0,0.0,1.101,6.0,3.0,Catalán,0.0,Castellano,0.0,LSC,0.0,Inglés,6.0,Francés,18.0,Italiano,21.0,5.0,4.0,no,no,yes,Flauta dulce,6,,,nada,64.0,yes
33,2023-11-13_17h24.40.562,Unsyncopated1,s76,23.0,masculino,left,España,"Castellano, Catalán, Lengua de Signos Catalana",Bachelor degree,no,no,A,1,when,L3,unsyncopated,when,when,33,Online_whenL3//a.mo2.none.wav,ko,li,ji,sil,je,sa,ñe,sil1,gu,ka,sil2,['-'],,,none,none,,,,mo,2,testConjL1Uns//r1.s1.1.wav,2.0,conjunction_un,unsyncopated,a,s1,rule,rule,L1,m,3.8432,4.0,0.0,1.0693,6.0,3.0,Catalán,0.0,Castellano,0.0,LSC,0.0,Inglés,6.0,Francés,18.0,Italiano,21.0,5.0,4.0,no,no,yes,Flauta dulce,6,,,nada,64.0,yes
34,2023-11-13_17h24.40.562,Unsyncopated1,s76,23.0,masculino,left,España,"Castellano, Catalán, Lengua de Signos Catalana",Bachelor degree,no,no,A,1,when,L3,unsyncopated,when,when,34,Online_whenL3//a.mo1.888.wav,do,ka,fu,sil,mo,ñe,le,sil1,ko,ji,sil2,['catch'],[1.6718000001907285],[1.6718000001907285],0.888,beat,0.7838000001907285,0.7838000001907285,"[""space""]",mo,2,testConjL1Uns//dep_viol.r2.s2.0.wav,2.0,conjunction_un,unsyncopated,b,s2,no_rule,dep,L1,z,1.2825,3.0,0.0,1.2177,6.0,3.0,Catalán,0.0,Castellano,0.0,LSC,0.0,Inglés,6.0,Francés,18.0,Italiano,21.0,5.0,4.0,no,no,yes,Flauta dulce,6,,,nada,64.0,yes
35,2023-11-13_17h24.40.562,Unsyncopated1,s76,23.0,masculino,left,España,"Castellano, Catalán, Lengua de Signos Catalana",Bachelor degree,no,no,A,1,when,L3,unsyncopated,when,when,35,Online_whenL3//a.mo0.222.wav,do,mo,fu,sil,le,ji,gu,sil1,ka,ñe,sil2,['catch'],[1.0755000000000337],[1.0755000000000337],0.222,no_beat,0.8535000000000337,0.8535000000000337,"[""space""]",mo,2,testConjL1Uns//time_viol.r2.s2.0.wav,2.0,conjunction_un,unsyncopated,b,s2,no_rule,time,L1,m,1.8566,5.0,1.0,2.0005,6.0,3.0,Catalán,0.0,Castellano,0.0,LSC,0.0,Inglés,6.0,Francés,18.0,Italiano,21.0,5.0,4.0,no,no,yes,Flauta dulce,6,,,nada,64.0,yes
36,2023-11-13_17h24.40.562,Unsyncopated1,s76,23.0,masculino,left,España,"Castellano, Catalán, Lengua de Signos Catalana",Bachelor degree,no,no,A,1,when,L3,unsyncopated,when,when,36,Online_whenL3//a.mo6.444.wav,fu,ko,mo,sil,chu,le,ji,sil1,ka,je,sil2,['miss'],,,0.444,no_beat,,,,mo,2,testConjL1Uns//r2.s2.0.wav,2.0,conjunction_un,unsyncopated,b,s2,rule,rule,L1,z,3.2167,3.0,1.0,0.7356,6.0,3.0,Catalán,0.0,Castellano,0.0,LSC,0.0,Inglés,6.0,Francés,18.0,Italiano,21.0,5.0,4.0,no,no,yes,Flauta dulce,6,,,nada,64.0,yes
37,2023-11-13_17h24.40.562,Unsyncopated1,s76,23.0,masculino,left,España,"Castellano, Catalán, Lengua de Signos Catalana",Bachelor degree,no,no,A,1,when,L3,unsyncopated,when,when,37,Online_whenL3//a.mo7.none.wav,di,ko,ñe,sil,fu,je,gu,sil1,sa,ji,sil2,['-'],,,none,none,,,,mo,2,testConjL1Uns//cat_viol.r2.s1.0.wav,2.0,conjunction_un,unsyncopated,b,s1,no_rule,cat,L1,z,1.1425,3.0,0.0,0.3167,6.0,3.0,Catalán,0.0,Castellano,0.0,LSC,0.0,Inglés,6.0,Francés,18.0,Italiano,21.0,5.0,4.0,no,no,yes,Flauta dulce,6,,,nada,64.0,yes
38,2023-11-13_17h24.40.562,Unsyncopated1,s76,23.0,masculino,left,España,"Castellano, Catalán, Lengua de Signos Catalana",Bachelor degree,no,no,A,1,when,L3,unsyncopated,when,when,38,Online_whenL3//a.mo4.1776.wav,ga,gu,sa,sil,ko,je,li,sil1,mo,do,sil2,['catch'],[2.5919999999999845],[2.5919999999999845],1.776,beat,0.8159999999999845,0.8159999999999845,"[""space""]",mo,2,testConjL1Uns//r2.s1.0.wav,2.0,conjunction_un,unsyncopated,b,s1,rule,rule,L1,z,0.2194,5.0,1.0,0.7485,6.0,3.0,Catalán,0.0,Castellano,0.0,LSC,0.0,Inglés,6.0,Francés,18.0,Italiano,21.0,5.0,4.0,no,no,yes,Flauta dulce,6,,,nada,64.0,yes
39,2023-11-13_17h24.40.562,Unsyncopated1,s76,23.0,masculino,left,España,"Castellano, Catalán, Lengua de Signos Catalana",Bachelor degree,no,no,A,1,when,L3,unsyncopated,when,when,39,Online_whenL3//a.mo5.222.wav,ko,mo,ji,sil,le,di,ga,sil1,li,sa,sil2,['catch'],[1.1565999999046426],[1.1565999999046426],0.222,no_beat,0.9345999999046426,0.9345999999046426,"[""space""]",mo,2,testConjL1Uns//dep_viol.r1.s2.0.wav,2.0,conjunction_un,unsyncopated,a,s2,no_rule,dep,L1,z,0.3011,7.0,0.0,1.1768,6.0,3.0,Catalán,0.0,Castellano,0.0,LSC,0.0,Inglés,6.0,Francés,18.0,Italiano,21.0,5.0,4.0,no,no,yes,Flauta dulce,6,,,nada,64.0,yes
40,2023-11-13_17h24.40.562,Unsyncopated1,s76,23.0,masculino,left,España,"Castellano, Catalán, Lengua de Signos Catalana",Bachelor degree,no,no,A,1,when,L3,unsyncopated,when,when,40,Online_whenL3//b.ñe26.none.wav,ko,mo,ji,sil,di,le,sa,sil1,fu,ka,sil2,['-'],,,none,none,,,,ñe,1,testConjL1Uns//r2.s2.2.wav,2.0,conjunction_un,unsyncopated,b,s2,rule,rule,L1,m,1.3701,3.0,0.0,0.7853,6.0,3.0,Catalán,0.0,Castellano,0.0,LSC,0.0,Inglés,6.0,Francés,18.0,Italiano,21.0,5.0,4.0,no,no,yes,Flauta dulce,6,,,nada,64.0,yes
41,2023-11-13_17h24.40.562,Unsyncopated1,s76,23.0,masculino,left,España,"Castellano, Catalán, Lengua de Signos Catalana",Bachelor degree,no,no,A,1,when,L3,unsyncopated,when,when,41,Online_whenL3//b.ñe25.222.wav,je,ñe,ji,sil,ko,gu,fu,sil1,li,mo,sil2,['miss'],,,0.222,no_beat,,,,ñe,1,testConjL1Uns//time_viol.r1.s2.0.wav,2.0,conjunction_un,unsyncopated,a,s2,no_rule,time,L1,z,0.5574,5.0,0.0,0.6769,6.0,3.0,Catalán,0.0,Castellano,0.0,LSC,0.0,Inglés,6.0,Francés,18.0,Italiano,21.0,5.0,4.0,no,no,yes,Flauta dulce,6,,,nada,64.0,yes
42,2023-11-13_17h24.40.562,Unsyncopated1,s76,23.0,masculino,left,España,"Castellano, Catalán, Lengua de Signos Catalana",Bachelor degree,no,no,A,1,when,L3,unsyncopated,when,when,42,Online_whenL3//b.ñe24.none.wav,sa,je,ga,sil,mo,fu,ji,sil1,di,gu,sil2,['-'],,,none,none,,,,ñe,1,testConjL1Uns//time_viol.r1.s1.0.wav,2.0,conjunction_un,unsyncopated,a,s1,no_rule,time,L1,z,0.3531,6.0,0.0,1.0549,6.0,3.0,Catalán,0.0,Castellano,0.0,LSC,0.0,Inglés,6.0,Francés,18.0,Italiano,21.0,5.0,4.0,no,no,yes,Flauta dulce,6,,,nada,64.0,yes
43,2023-11-13_17h24.40.562,Unsyncopated1,s76,23.0,masculino,left,España,"Castellano, Catalán, Lengua de Signos Catalana",Bachelor degree,no,no,A,1,when,L3,unsyncopated,when,when,43,Online_whenL3//b.ñe27.none.wav,di,ko,do,sil,fu,chu,ji,sil1,ka,sa,sil2,['-'],,,none,none,,,,ñe,1,testConjL1Uns//time_viol.r2.s1.0.wav,2.0,conjunction_un,unsyncopated,b,s1,no_rule,time,L1,m,1.1417,4.0,1.0,0.6011,6.0,3.0,Catalán,0.0,Castellano,0.0,LSC,0.0,Inglés,6.0,Francés,18.0,Italiano,21.0,5.0,4.0,no,no,yes,Flauta dulce,6,,,nada,64.0,yes
44,2023-11-13_17h24.40.562,Unsyncopated1,s76,23.0,masculino,left,España,"Castellano, Catalán, Lengua de Signos Catalana",Bachelor degree,no,no,A,1,when,L3,unsyncopated,when,when,44,Online_whenL3//c.gu30.0.wav,gu,ka,ga,sil,mo,li,le,sil1,di,sa,sil2,['catch'],[1.3301999998092242],[1.3301999998092242],0.0,beat,,1.3301999998092242,"[""space""]",gu,3,testConjL1Uns//r2.s2.1.wav,2.0,conjunction_un,unsyncopated,b,s2,rule,rule,L1,z,0.689,4.0,1.0,1.2594,6.0,3.0,Catalán,0.0,Castellano,0.0,LSC,0.0,Inglés,6.0,Francés,18.0,Italiano,21.0,5.0,4.0,no,no,yes,Flauta dulce,6,,,nada,64.0,yes
45,2023-11-13_17h24.40.562,Unsyncopated1,s76,23.0,masculino,left,España,"Castellano, Catalán, Lengua de Signos Catalana",Bachelor degree,no,no,A,1,when,L3,unsyncopated,when,when,45,Online_whenL3//c.gu31.none.wav,ka,ñe,sa,sil,li,do,le,sil1,ji,ko,sil2,['-'],,,none,none,,,,gu,3,testConjL1Uns//cat_viol.r1.s2.0.wav,2.0,conjunction_un,unsyncopated,a,s2,no_rule,cat,L1,m,1.2885,4.0,1.0,2.2869,6.0,3.0,Catalán,0.0,Castellano,0.0,LSC,0.0,Inglés,6.0,Francés,18.0,Italiano,21.0,5.0,4.0,no,no,yes,Flauta dulce,6,,,nada,64.0,yes
46,2023-11-13_17h24.40.562,Unsyncopated1,s76,23.0,masculino,left,España,"Castellano, Catalán, Lengua de Signos Catalana",Bachelor degree,no,no,A,1,when,L3,unsyncopated,when,when,46,Online_whenL3//c.gu29.1110.wav,mo,je,ko,sil,ñe,gu,ka,sil1,li,ga,sil2,"['false alarm', 'catch']","[0.1397999997138868, 1.907599999904619]",[1.907599999904619],1.11,no_beat,0.7975999999046188,0.7975999999046188,"[""space"",""space""]",gu,3,testConjL1Uns//dep_viol.r2.s1.0.wav,2.0,conjunction_un,unsyncopated,b,s1,no_rule,dep,L1,m,0.3517,6.0,1.0,0.6857,6.0,3.0,Catalán,0.0,Castellano,0.0,LSC,0.0,Inglés,6.0,Francés,18.0,Italiano,21.0,5.0,4.0,no,no,yes,Flauta dulce,6,,,nada,64.0,yes
47,2023-11-13_17h24.40.562,Unsyncopated1,s76,23.0,masculino,left,España,"Castellano, Catalán, Lengua de Signos Catalana",Bachelor degree,no,no,A,1,when,L3,unsyncopated,when,when,47,Online_whenL3//c.gu28.none.wav,chu,di,ko,sil,sa,le,ji,sil1,li,ka,sil2,['-'],,,none,none,,,,gu,3,testConjL1Uns//r2.s1.1.wav,2.0,conjunction_un,unsyncopated,b,s1,rule,rule,L1,m,1.4579,3.0,0.0,0.4012,6.0,3.0,Catalán,0.0,Castellano,0.0,LSC,0.0,Inglés,6.0,Francés,18.0,Italiano,21.0,5.0,4.0,no,no,yes,Flauta dulce,6,,,nada,64.0,yes
48,2023-11-13_17h24.40.562,Unsyncopated1,s76,23.0,masculino,left,España,"Castellano, Catalán, Lengua de Signos Catalana",Bachelor degree,no,no,A,1,when,L3,unsyncopated,when,when,48,Online_whenL3//a.mo9.1332.wav,fu,sa,do,sil,ji,gu,mo,sil1,ka,je,sil2,['catch'],[2.496499999999969],[2.496499999999969],1.332,no_beat,1.164499999999969,1.164499999999969,"[""space""]",mo,2,testWhatL2Uns//r2.s2.2.wav,3.0,what,unsyncopated,b,s2,rule,rule,L2,m,2.5498,4.0,0.0,1.2021,6.0,3.0,Catalán,0.0,Castellano,0.0,LSC,0.0,Inglés,6.0,Francés,18.0,Italiano,21.0,5.0,4.0,no,no,yes,Flauta dulce,6,,,nada,64.0,yes
49,2023-11-13_17h24.40.562,Unsyncopated1,s76,23.0,masculino,left,España,"Castellano, Catalán, Lengua de Signos Catalana",Bachelor degree,no,no,A,1,when,L3,unsyncopated,when,when,49,Online_whenL3//a.mo11.none.wav,chu,li,ñe,sil,je,fu,le,sil1,ko,di,sil2,['-'],,,none,none,,,,mo,2,testWhatL2Uns//r2.s1.2.wav,3.0,what,unsyncopated,b,s1,rule,rule,L2,z,0.6735,4.0,1.0,0.7897,6.0,3.0,Catalán,0.0,Castellano,0.0,LSC,0.0,Inglés,6.0,Francés,18.0,Italiano,21.0,5.0,4.0,no,no,yes,Flauta dulce,6,,,nada,64.0,yes
50,2023-11-13_17h24.40.562,Unsyncopated1,s76,23.0,masculino,left,España,"Castellano, Catalán, Lengua de Signos Catalana",Bachelor degree,no,no,A,1,when,L3,unsyncopated,when,when,50,Online_whenL3//a.mo10.none.wav,di,ko,le,sil,chu,fu,ka,sil1,sa,ji,sil2,['-'],,,none,none,,,,mo,2,testWhatL2Uns//r2.s1.1.wav,3.0,what,unsyncopated,b,s1,rule,rule,L2,z,0.3027,7.0,1.0,1.107,6.0,3.0,Catalán,0.0,Castellano,0.0,LSC,0.0,Inglés,6.0,Francés,18.0,Italiano,21.0,5.0,4.0,no,no,yes,Flauta dulce,6,,,nada,64.0,yes
51,2023-11-13_17h24.40.562,Unsyncopated1,s76,23.0,masculino,left,España,"Castellano, Catalán, Lengua de Signos Catalana",Bachelor degree,no,no,A,1,when,L3,unsyncopated,when,when,51,Online_whenL3//a.mo8.1776.wav,je,ga,ka,sil,le,li,ñe,sil1,mo,gu,sil2,['catch'],[2.6389000000953047],[2.6389000000953047],1.776,beat,0.8629000000953047,0.8629000000953047,"[""space""]",mo,2,testWhatL2Uns//r2.s2.1.wav,3.0,what,unsyncopated,b,s2,rule,rule,L2,z,0.4528,5.0,1.0,1.2859,6.0,3.0,Catalán,0.0,Castellano,0.0,LSC,0.0,Inglés,6.0,Francés,18.0,Italiano,21.0,5.0,4.0,no,no,yes,Flauta dulce,6,,,nada,64.0,yes
52,2023-11-13_17h24.40.562,Unsyncopated1,s76,23.0,masculino,left,España,"Castellano, Catalán, Lengua de Signos Catalana",Bachelor degree,no,no,A,1,when,L3,unsyncopated,when,when,52,Online_whenL3//a.mo25.none.wav,sa,ji,ga,sil,do,ñe,je,sil1,di,ka,sil2,['-'],,,none,none,,,,mo,2,testWhatL2Uns//r1.s1.2.wav,3.0,what,unsyncopated,a,s1,rule,rule,L2,z,0.4188,7.0,1.0,0.5349,6.0,3.0,Catalán,0.0,Castellano,0.0,LSC,0.0,Inglés,6.0,Francés,18.0,Italiano,21.0,5.0,4.0,no,no,yes,Flauta dulce,6,,,nada,64.0,yes
53,2023-11-13_17h24.40.562,Unsyncopated1,s76,23.0,masculino,left,España,"Castellano, Catalán, Lengua de Signos Catalana",Bachelor degree,no,no,A,1,when,L3,unsyncopated,when,when,53,Online_whenL3//a.mo26.none.wav,di,li,ka,sil,chu,ji,je,sil1,do,ñe,sil2,['-'],,,none,none,,,,mo,2,testWhatL2Uns//time_viol.r1.s2.0.wav,3.0,what,unsyncopated,a,s2,no_rule,time,L2,z,0.521,6.0,0.0,1.2852,6.0,3.0,Catalán,0.0,Castellano,0.0,LSC,0.0,Inglés,6.0,Francés,18.0,Italiano,21.0,5.0,4.0,no,no,yes,Flauta dulce,6,,,nada,64.0,yes
54,2023-11-13_17h24.40.562,Unsyncopated1,s76,23.0,masculino,left,España,"Castellano, Catalán, Lengua de Signos Catalana",Bachelor degree,no,no,A,1,when,L3,unsyncopated,when,when,54,Online_whenL3//a.mo27.888.wav,fu,le,ka,sil,mo,ko,gu,sil1,chu,di,sil2,['catch'],[1.703400000095371],[1.703400000095371],0.888,beat,0.8154000000953711,0.8154000000953711,"[""space""]",mo,2,testWhatL2Uns//time_viol.r2.s1.0.wav,3.0,what,unsyncopated,b,s1,no_rule,time,L2,m,1.072,4.0,1.0,0.8537,6.0,3.0,Catalán,0.0,Castellano,0.0,LSC,0.0,Inglés,6.0,Francés,18.0,Italiano,21.0,5.0,4.0,no,no,yes,Flauta dulce,6,,,nada,64.0,yes
55,2023-11-13_17h24.40.562,Unsyncopated1,s76,23.0,masculino,left,España,"Castellano, Catalán, Lengua de Signos Catalana",Bachelor degree,no,no,A,1,when,L3,unsyncopated,when,when,55,Online_whenL3//a.mo24.1998.wav,ji,le,do,sil,li,chu,fu,sil1,gu,mo,sil2,['catch_delay'],[0.7808000001907123],[0.7808000001907123],1.998,no_beat,0.7808000001907123,0.7808000001907123,,mo,2,testWhatL2Uns//dep_viol.r1.s1.0.wav,3.0,what,unsyncopated,a,s1,no_rule,dep,L2,z,0.4493,4.0,0.0,0.7695,6.0,3.0,Catalán,0.0,Castellano,0.0,LSC,0.0,Inglés,6.0,Francés,18.0,Italiano,21.0,5.0,4.0,no,no,yes,Flauta dulce,6,,,nada,64.0,yes
56,2023-11-13_17h24.40.562,Unsyncopated1,s76,23.0,masculino,left,España,"Castellano, Catalán, Lengua de Signos Catalana",Bachelor degree,no,no,A,1,when,L3,unsyncopated,when,when,56,Online_whenL3//d.ji13.222.wav,fu,ji,di,sil,li,ko,je,sil1,chu,mo,sil2,['catch'],"[0.11480000019071213, 1.1783000001906885]",[1.1783000001906885],0.222,no_beat,0.9563000001906884,0.9563000001906884,"[""space"",""space""]",ji,4,testWhatL2Uns//time_viol.r2.s2.0.wav,3.0,what,unsyncopated,b,s2,no_rule,time,L2,m,0.3923,7.0,1.0,0.7529,6.0,3.0,Catalán,0.0,Castellano,0.0,LSC,0.0,Inglés,6.0,Francés,18.0,Italiano,21.0,5.0,4.0,no,no,yes,Flauta dulce,6,,,nada,64.0,yes
57,2023-11-13_17h24.40.562,Unsyncopated1,s76,23.0,masculino,left,España,"Castellano, Catalán, Lengua de Signos Catalana",Bachelor degree,no,no,A,1,when,L3,unsyncopated,when,when,57,Online_whenL3//d.ji15.444.wav,ga,do,ji,sil,mo,sa,ko,sil1,fu,gu,sil2,['miss'],,,0.444,no_beat,,,,ji,4,testWhatL2Uns//r2.s1.0.wav,3.0,what,unsyncopated,b,s1,rule,rule,L2,m,0.4459,5.0,0.0,0.5209,6.0,3.0,Catalán,0.0,Castellano,0.0,LSC,0.0,Inglés,6.0,Francés,18.0,Italiano,21.0,5.0,4.0,no,no,yes,Flauta dulce,6,,,nada,64.0,yes
58,2023-11-13_17h24.40.562,Unsyncopated1,s76,23.0,masculino,left,España,"Castellano, Catalán, Lengua de Signos Catalana",Bachelor degree,no,no,A,1,when,L3,unsyncopated,when,when,58,Online_whenL3//d.ji14.1998.wav,ga,do,ka,sil,ñe,gu,le,sil1,sa,ji,sil2,['catch_delay'],[0.8073000001906541],[0.8073000001906541],1.998,no_beat,0.8073000001906541,0.8073000001906541,,ji,4,testWhatL2Uns//cat_viol.r1.s1.0.wav,3.0,what,unsyncopated,a,s1,no_rule,cat,L2,z,0.5007,5.0,0.0,2.353,6.0,3.0,Catalán,0.0,Castellano,0.0,LSC,0.0,Inglés,6.0,Francés,18.0,Italiano,21.0,5.0,4.0,no,no,yes,Flauta dulce,6,,,nada,64.0,yes
59,2023-11-13_17h24.40.562,Unsyncopated1,s76,23.0,masculino,left,España,"Castellano, Catalán, Lengua de Signos Catalana",Bachelor degree,no,no,A,1,when,L3,unsyncopated,when,when,59,Online_whenL3//d.ji12.1332.wav,sa,le,gu,sil,ka,ga,ji,sil1,di,mo,sil2,['catch'],"[0.14130000019065392, 2.38959999990459]",[2.38959999990459],1.332,no_beat,1.0575999999045895,1.0575999999045895,"[""space"",""space""]",ji,4,testWhatL2Uns//r1.s2.1.wav,3.0,what,unsyncopated,a,s2,rule,rule,L2,z,3.0044,2.0,1.0,1.0012,6.0,3.0,Catalán,0.0,Castellano,0.0,LSC,0.0,Inglés,6.0,Francés,18.0,Italiano,21.0,5.0,4.0,no,no,yes,Flauta dulce,6,,,nada,64.0,yes
60,2023-11-13_17h24.40.562,Unsyncopated1,s76,23.0,masculino,left,España,"Castellano, Catalán, Lengua de Signos Catalana",Bachelor degree,no,no,A,1,when,L3,unsyncopated,when,when,60,Online_whenL3//c.gu17.none.wav,ga,ji,le,sil,sa,ka,chu,sil1,do,je,sil2,['-'],,,none,none,,,,gu,3,testWhatL2Uns//r1.s2.0.wav,3.0,what,unsyncopated,a,s2,rule,rule,L2,m,2.4708,2.0,0.0,0.7583,6.0,3.0,Catalán,0.0,Castellano,0.0,LSC,0.0,Inglés,6.0,Francés,18.0,Italiano,21.0,5.0,4.0,no,no,yes,Flauta dulce,6,,,nada,64.0,yes
61,2023-11-13_17h24.40.562,Unsyncopated1,s76,23.0,masculino,left,España,"Castellano, Catalán, Lengua de Signos Catalana",Bachelor degree,no,no,A,1,when,L3,unsyncopated,when,when,61,Online_whenL3//c.gu19.1998.wav,ka,sa,je,sil,chu,do,ji,sil1,le,gu,sil2,['catch_delay'],[0.7131000003814199],[0.7131000003814199],1.998,no_beat,0.7131000003814199,0.7131000003814199,,gu,3,testWhatL2Uns//cat_viol.r1.s2.0.wav,3.0,what,unsyncopated,a,s2,no_rule,cat,L2,z,2.1184,3.0,0.0,0.8661,6.0,3.0,Catalán,0.0,Castellano,0.0,LSC,0.0,Inglés,6.0,Francés,18.0,Italiano,21.0,5.0,4.0,no,no,yes,Flauta dulce,6,,,nada,64.0,yes
62,2023-11-13_17h24.40.562,Unsyncopated1,s76,23.0,masculino,left,España,"Castellano, Catalán, Lengua de Signos Catalana",Bachelor degree,no,no,A,1,when,L3,unsyncopated,when,when,62,Online_whenL3//c.gu16.1332.wav,do,ji,ñe,sil,ka,ga,gu,sil1,mo,di,sil2,['catch'],"[0.047100000381419704, 2.2872000002860204]",[2.2872000002860204],1.332,no_beat,0.9552000002860204,0.9552000002860204,"[""space"",""space""]",gu,3,testWhatL2Uns//dep_viol.r1.s2.0.wav,3.0,what,unsyncopated,a,s2,no_rule,dep,L2,m,0.7392,1.0,1.0,1.2742,6.0,3.0,Catalán,0.0,Castellano,0.0,LSC,0.0,Inglés,6.0,Francés,18.0,Italiano,21.0,5.0,4.0,no,no,yes,Flauta dulce,6,,,nada,64.0,yes
63,2023-11-13_17h24.40.562,Unsyncopated1,s76,23.0,masculino,left,España,"Castellano, Catalán, Lengua de Signos Catalana",Bachelor degree,no,no,A,1,when,L3,unsyncopated,when,when,63,Online_whenL3//c.gu18.444.wav,di,ko,gu,sil,chu,sa,ka,sil1,li,do,sil2,['catch'],[1.2824000000954356],[1.2824000000954356],0.444,no_beat,0.8384000000954357,0.8384000000954357,"[""space""]",gu,3,testWhatL2Uns//r1.s1.0.wav,3.0,what,unsyncopated,a,s1,rule,rule,L2,m,0.2986,4.0,0.0,0.6378,6.0,3.0,Catalán,0.0,Castellano,0.0,LSC,0.0,Inglés,6.0,Francés,18.0,Italiano,21.0,5.0,4.0,no,no,yes,Flauta dulce,6,,,nada,64.0,yes
64,2023-11-13_17h24.40.562,Unsyncopated1,s76,23.0,masculino,left,España,"Castellano, Catalán, Lengua de Signos Catalana",Bachelor degree,no,no,A,1,when,L3,unsyncopated,when,when,64,Online_whenL3//a.mo33.0.wav,mo,fu,di,sil,ga,do,le,sil1,ñe,ka,sil2,['catch'],[0.8725999999046508],[0.8725999999046508],0.0,beat,0.8725999999046508,0.8725999999046508,"[""space""]",mo,2,testWhatL2Uns//r2.s2.0.wav,3.0,what,unsyncopated,b,s2,rule,rule,L2,z,0.3198,6.0,1.0,0.6493,6.0,3.0,Catalán,0.0,Castellano,0.0,LSC,0.0,Inglés,6.0,Francés,18.0,Italiano,21.0,5.0,4.0,no,no,yes,Flauta dulce,6,,,nada,64.0,yes
65,2023-11-13_17h24.40.562,Unsyncopated1,s76,23.0,masculino,left,España,"Castellano, Catalán, Lengua de Signos Catalana",Bachelor degree,no,no,A,1,when,L3,unsyncopated,when,when,65,Online_whenL3//a.mo32.none.wav,ji,gu,je,sil,ga,do,ñe,sil1,chu,le,sil2,['-'],,,none,none,,,,mo,2,testWhatL2Uns//dep_viol.r2.s2.0.wav,3.0,what,unsyncopated,b,s2,no_rule,dep,L2,z,0.4418,5.0,0.0,1.0189,6.0,3.0,Catalán,0.0,Castellano,0.0,LSC,0.0,Inglés,6.0,Francés,18.0,Italiano,21.0,5.0,4.0,no,no,yes,Flauta dulce,6,,,nada,64.0,yes
66,2023-11-13_17h24.40.562,Unsyncopated1,s76,23.0,masculino,left,España,"Castellano, Catalán, Lengua de Signos Catalana",Bachelor degree,no,no,A,1,when,L3,unsyncopated,when,when,66,Online_whenL3//a.mo35.none.wav,ji,je,ka,sil,ga,fu,ñe,sil1,sa,li,sil2,['-'],,,none,none,,,,mo,2,testWhatL2Uns//r1.s1.1.wav,3.0,what,unsyncopated,a,s1,rule,rule,L2,z,0.5842,4.0,1.0,0.6014,6.0,3.0,Catalán,0.0,Castellano,0.0,LSC,0.0,Inglés,6.0,Francés,18.0,Italiano,21.0,5.0,4.0,no,no,yes,Flauta dulce,6,,,nada,64.0,yes
67,2023-11-13_17h24.40.562,Unsyncopated1,s76,23.0,masculino,left,España,"Castellano, Catalán, Lengua de Signos Catalana",Bachelor degree,no,no,A,1,when,L3,unsyncopated,when,when,67,Online_whenL3//a.mo34.222.wav,do,mo,ga,sil,chu,ka,ji,sil1,di,ko,sil2,['catch'],[1.2269999999999754],[1.2269999999999754],0.222,no_beat,1.0049999999999757,1.0049999999999757,"[""space""]",mo,2,testWhatL2Uns//time_viol.r1.s1.0.wav,3.0,what,unsyncopated,a,s1,no_rule,time,L2,z,0.652,4.0,0.0,0.9723,6.0,3.0,Catalán,0.0,Castellano,0.0,LSC,0.0,Inglés,6.0,Francés,18.0,Italiano,21.0,5.0,4.0,no,no,yes,Flauta dulce,6,,,nada,64.0,yes
68,2023-11-13_17h24.40.562,Unsyncopated1,s76,23.0,masculino,left,España,"Castellano, Catalán, Lengua de Signos Catalana",Bachelor degree,no,no,A,1,when,L3,unsyncopated,when,when,68,Online_whenL3//b.ñe7.1998.wav,ji,je,sa,sil,ka,ga,di,sil1,gu,ñe,sil2,['catch_delay'],[0.7273000001907268],[0.7273000001907268],1.998,no_beat,0.7273000001907268,0.7273000001907268,,ñe,1,testWhatL2Uns//cat_viol.r2.s2.0.wav,3.0,what,unsyncopated,b,s2,no_rule,cat,L2,z,0.287,6.0,0.0,0.6035,6.0,3.0,Catalán,0.0,Castellano,0.0,LSC,0.0,Inglés,6.0,Francés,18.0,Italiano,21.0,5.0,4.0,no,no,yes,Flauta dulce,6,,,nada,64.0,yes
69,2023-11-13_17h24.40.562,Unsyncopated1,s76,23.0,masculino,left,España,"Castellano, Catalán, Lengua de Signos Catalana",Bachelor degree,no,no,A,1,when,L3,unsyncopated,when,when,69,Online_whenL3//b.ñe6.444.wav,ga,ka,ñe,sil,mo,ji,li,sil1,do,fu,sil2,['catch'],"[0.06130000019072668, 1.4064999999999372]",[1.4064999999999372],0.444,no_beat,0.9624999999999372,0.9624999999999372,"[""space"",""space""]",ñe,1,testWhatL2Uns//dep_viol.r2.s1.0.wav,3.0,what,unsyncopated,b,s1,no_rule,dep,L2,m,0.425,7.0,1.0,0.7263,6.0,3.0,Catalán,0.0,Castellano,0.0,LSC,0.0,Inglés,6.0,Francés,18.0,Italiano,21.0,5.0,4.0,no,no,yes,Flauta dulce,6,,,nada,64.0,yes
70,2023-11-13_17h24.40.562,Unsyncopated1,s76,23.0,masculino,left,España,"Castellano, Catalán, Lengua de Signos Catalana",Bachelor degree,no,no,A,1,when,L3,unsyncopated,when,when,70,Online_whenL3//b.ñe4.1998.wav,ka,di,ga,sil,ko,gu,je,sil1,mo,ñe,sil2,['catch_delay'],[0.8370999999046409],[0.8370999999046409],1.998,no_beat,0.8370999999046409,0.8370999999046409,,ñe,1,testWhatL2Uns//r1.s2.2.wav,3.0,what,unsyncopated,a,s2,rule,rule,L2,m,0.3587,6.0,0.0,2.2564,6.0,3.0,Catalán,0.0,Castellano,0.0,LSC,0.0,Inglés,6.0,Francés,18.0,Italiano,21.0,5.0,4.0,no,no,yes,Flauta dulce,6,,,nada,64.0,yes
71,2023-11-13_17h24.40.562,Unsyncopated1,s76,23.0,masculino,left,España,"Castellano, Catalán, Lengua de Signos Catalana",Bachelor degree,no,no,A,1,when,L3,unsyncopated,when,when,71,Online_whenL3//b.ñe5.1110.wav,li,ko,je,sil,fu,ñe,gu,sil1,ga,sa,sil2,['catch'],"[0.17109999990464075, 2.5197999997138822]",[2.5197999997138822],1.11,no_beat,,1.409799999713882,"[""space"",""space""]",ñe,1,testWhatL2Uns//cat_viol.r2.s1.0.wav,3.0,what,unsyncopated,b,s1,no_rule,cat,L2,z,0.3548,7.0,0.0,0.5092,6.0,3.0,Catalán,0.0,Castellano,0.0,LSC,0.0,Inglés,6.0,Francés,18.0,Italiano,21.0,5.0,4.0,no,no,yes,Flauta dulce,6,,,nada,64.0,yes
72,2023-11-13_17h24.40.562,Unsyncopated1,s76,23.0,masculino,left,España,"Castellano, Catalán, Lengua de Signos Catalana",Bachelor degree,no,no,A,1,when,L3,unsyncopated,when,when,72,Online_whenL3//b.ñe19.1776.wav,ji,mo,li,sil,le,ko,fu,sil1,ñe,do,sil2,['catch_delay'],[0.9205000000000274],[0.9205000000000274],1.776,beat,0.9205000000000274,0.9205000000000274,,ñe,1,testConjL4Syn//r2.s2.0.wav,4.0,conjunction_syn,syncopated,b,s2,rule,rule,L4,z,2.0159,4.0,1.0,0.9007,6.0,3.0,Catalán,0.0,Castellano,0.0,LSC,0.0,Inglés,6.0,Francés,18.0,Italiano,21.0,5.0,4.0,no,no,yes,Flauta dulce,6,,,nada,64.0,yes
73,2023-11-13_17h24.40.562,Unsyncopated1,s76,23.0,masculino,left,España,"Castellano, Catalán, Lengua de Signos Catalana",Bachelor degree,no,no,A,1,when,L3,unsyncopated,when,when,73,Online_whenL3//b.ñe16.1110.wav,do,je,li,sil,gu,ñe,sa,sil1,ji,ko,sil2,['catch'],"[0.032500000000027285, 1.9500999999046371]",[1.9500999999046371],1.11,no_beat,0.840099999904637,0.840099999904637,"[""space"",""space""]",ñe,1,testConjL4Syn//dep_viol.r1.s1.0.wav,4.0,conjunction_syn,syncopated,a,s1,no_rule,dep,L4,m,3.3858,2.0,1.0,0.943,6.0,3.0,Catalán,0.0,Castellano,0.0,LSC,0.0,Inglés,6.0,Francés,18.0,Italiano,21.0,5.0,4.0,no,no,yes,Flauta dulce,6,,,nada,64.0,yes
74,2023-11-13_17h24.40.562,Unsyncopated1,s76,23.0,masculino,left,España,"Castellano, Catalán, Lengua de Signos Catalana",Bachelor degree,no,no,A,1,when,L3,unsyncopated,when,when,74,Online_whenL3//b.ñe17.1998.wav,fu,ga,ka,sil,ji,chu,di,sil1,je,ñe,sil2,['catch_delay'],[0.6854999999999938],[0.6854999999999938],1.998,no_beat,0.6854999999999938,0.6854999999999938,,ñe,1,testConjL4Syn//time_viol.r1.s1.0.wav,4.0,conjunction_syn,syncopated,a,s1,no_rule,time,L4,z,0.8892,3.0,0.0,1.0494,6.0,3.0,Catalán,0.0,Castellano,0.0,LSC,0.0,Inglés,6.0,Francés,18.0,Italiano,21.0,5.0,4.0,no,no,yes,Flauta dulce,6,,,nada,64.0,yes
75,2023-11-13_17h24.40.562,Unsyncopated1,s76,23.0,masculino,left,España,"Castellano, Catalán, Lengua de Signos Catalana",Bachelor degree,no,no,A,1,when,L3,unsyncopated,when,when,75,Online_whenL3//b.ñe18.none.wav,sa,di,chu,sil,do,fu,ko,sil1,gu,ji,sil2,['-'],[0.019499999999993634],[0.019499999999993634],none,none,,,"[""space""]",ñe,1,testConjL4Syn//r2.s1.1.wav,4.0,conjunction_syn,syncopated,b,s1,rule,rule,L4,z,0.6167,4.0,1.0,0.8103,6.0,3.0,Catalán,0.0,Castellano,0.0,LSC,0.0,Inglés,6.0,Francés,18.0,Italiano,21.0,5.0,4.0,no,no,yes,Flauta dulce,6,,,nada,64.0,yes
76,2023-11-13_17h24.40.562,Unsyncopated1,s76,23.0,masculino,left,España,"Castellano, Catalán, Lengua de Signos Catalana",Bachelor degree,no,no,A,1,when,L3,unsyncopated,when,when,76,Online_whenL3//c.gu21.none.wav,je,ñe,do,sil,sa,ko,ji,sil1,di,li,sil2,['false alarm'],[1.163499999999999],[1.163499999999999],none,none,,,"[""space""]",gu,3,testConjL4Syn//r1.s2.2.wav,4.0,conjunction_syn,syncopated,a,s2,rule,rule,L4,m,2.72,2.0,0.0,1.5023,6.0,3.0,Catalán,0.0,Castellano,0.0,LSC,0.0,Inglés,6.0,Francés,18.0,Italiano,21.0,5.0,4.0,no,no,yes,Flauta dulce,6,,,nada,64.0,yes
77,2023-11-13_17h24.40.562,Unsyncopated1,s76,23.0,masculino,left,España,"Castellano, Catalán, Lengua de Signos Catalana",Bachelor degree,no,no,A,1,when,L3,unsyncopated,when,when,77,Online_whenL3//c.gu20.none.wav,fu,li,di,sil,ko,chu,ga,sil1,do,ñe,sil2,['-'],,,none,none,,,,gu,3,testConjL4Syn//r1.s1.0.wav,4.0,conjunction_syn,syncopated,a,s1,rule,rule,L4,z,0.8426,6.0,1.0,0.85,6.0,3.0,Catalán,0.0,Castellano,0.0,LSC,0.0,Inglés,6.0,Francés,18.0,Italiano,21.0,5.0,4.0,no,no,yes,Flauta dulce,6,,,nada,64.0,yes
78,2023-11-13_17h24.40.562,Unsyncopated1,s76,23.0,masculino,left,España,"Castellano, Catalán, Lengua de Signos Catalana",Bachelor degree,no,no,A,1,when,L3,unsyncopated,when,when,78,Online_whenL3//c.gu23.none.wav,ji,fu,di,sil,ñe,je,li,sil1,do,mo,sil2,['-'],,,none,none,,,,gu,3,testConjL4Syn//r2.s2.1.wav,4.0,conjunction_syn,syncopated,b,s2,rule,rule,L4,z,2.3374,3.0,1.0,1.3435,6.0,3.0,Catalán,0.0,Castellano,0.0,LSC,0.0,Inglés,6.0,Francés,18.0,Italiano,21.0,5.0,4.0,no,no,yes,Flauta dulce,6,,,nada,64.0,yes
79,2023-11-13_17h24.40.562,Unsyncopated1,s76,23.0,masculino,left,España,"Castellano, Catalán, Lengua de Signos Catalana",Bachelor degree,no,no,A,1,when,L3,unsyncopated,when,when,79,Online_whenL3//c.gu22.1998.wav,do,chu,le,sil,ga,li,ji,sil1,mo,gu,sil2,['miss'],,,1.998,no_beat,,,,gu,3,testConjL4Syn//r2.s1.0.wav,4.0,conjunction_syn,syncopated,b,s1,rule,rule,L4,m,2.3235,1.0,0.0,1.0567,6.0,3.0,Catalán,0.0,Castellano,0.0,LSC,0.0,Inglés,6.0,Francés,18.0,Italiano,21.0,5.0,4.0,no,no,yes,Flauta dulce,6,,,nada,64.0,yes
80,2023-11-13_17h24.40.562,Unsyncopated1,s76,23.0,masculino,left,España,"Castellano, Catalán, Lengua de Signos Catalana",Bachelor degree,no,no,A,1,when,L3,unsyncopated,when,when,80,Online_whenL3//a.mo28.0.wav,mo,sa,ka,sil,ga,ko,fu,sil1,gu,do,sil2,"['catch', 'false alarm']","[0.13249999999993634, 1.342999999999961]",[0.13249999999993634],0.0,beat,0.1324999999999363,0.1324999999999363,"[""space"",""space""]",mo,2,testConjL4Syn//time_viol.r2.s2.0.wav,4.0,conjunction_syn,syncopated,b,s2,no_rule,time,L4,z,0.8518,4.0,0.0,1.3112,6.0,3.0,Catalán,0.0,Castellano,0.0,LSC,0.0,Inglés,6.0,Francés,18.0,Italiano,21.0,5.0,4.0,no,no,yes,Flauta dulce,6,,,nada,64.0,yes
81,2023-11-13_17h24.40.562,Unsyncopated1,s76,23.0,masculino,left,España,"Castellano, Catalán, Lengua de Signos Catalana",Bachelor degree,no,no,A,1,when,L3,unsyncopated,when,when,81,Online_whenL3//a.mo30.none.wav,ga,li,gu,sil,chu,le,fu,sil1,ka,ñe,sil2,['-'],,,none,none,,,,mo,2,testConjL4Syn//cat_viol.r1.s1.0.wav,4.0,conjunction_syn,syncopated,a,s1,no_rule,cat,L4,z,0.6345,7.0,0.0,0.5663,6.0,3.0,Catalán,0.0,Castellano,0.0,LSC,0.0,Inglés,6.0,Francés,18.0,Italiano,21.0,5.0,4.0,no,no,yes,Flauta dulce,6,,,nada,64.0,yes
82,2023-11-13_17h24.40.562,Unsyncopated1,s76,23.0,masculino,left,España,"Castellano, Catalán, Lengua de Signos Catalana",Bachelor degree,no,no,A,1,when,L3,unsyncopated,when,when,82,Online_whenL3//a.mo31.1776.wav,li,gu,ñe,sil,ga,ji,le,sil1,mo,je,sil2,['catch'],[2.5533999996184775],[2.5533999996184775],1.776,beat,0.7773999996184775,0.7773999996184775,"[""space""]",mo,2,testConjL4Syn//dep_viol.r2.s1.0.wav,4.0,conjunction_syn,syncopated,b,s1,no_rule,dep,L4,m,0.8844,4.0,1.0,0.8088,6.0,3.0,Catalán,0.0,Castellano,0.0,LSC,0.0,Inglés,6.0,Francés,18.0,Italiano,21.0,5.0,4.0,no,no,yes,Flauta dulce,6,,,nada,64.0,yes
83,2023-11-13_17h24.40.562,Unsyncopated1,s76,23.0,masculino,left,España,"Castellano, Catalán, Lengua de Signos Catalana",Bachelor degree,no,no,A,1,when,L3,unsyncopated,when,when,83,Online_whenL3//a.mo29.none.wav,sa,di,je,sil,li,ko,ji,sil1,ga,ñe,sil2,['-'],,,none,none,,,,mo,2,testConjL4Syn//r2.s1.2.wav,4.0,conjunction_syn,syncopated,b,s1,rule,rule,L4,z,2.5538,2.0,1.0,0.4533,6.0,3.0,Catalán,0.0,Castellano,0.0,LSC,0.0,Inglés,6.0,Francés,18.0,Italiano,21.0,5.0,4.0,no,no,yes,Flauta dulce,6,,,nada,64.0,yes
84,2023-11-13_17h24.40.562,Unsyncopated1,s76,23.0,masculino,left,España,"Castellano, Catalán, Lengua de Signos Catalana",Bachelor degree,no,no,A,1,when,L3,unsyncopated,when,when,84,Online_whenL3//d.ji17.none.wav,ñe,ga,di,sil,sa,ka,li,sil1,le,fu,sil2,['-'],,,none,none,,,,ji,4,testConjL4Syn//r1.s1.1.wav,4.0,conjunction_syn,syncopated,a,s1,rule,rule,L4,z,0.6842,7.0,1.0,0.5221,6.0,3.0,Catalán,0.0,Castellano,0.0,LSC,0.0,Inglés,6.0,Francés,18.0,Italiano,21.0,5.0,4.0,no,no,yes,Flauta dulce,6,,,nada,64.0,yes
85,2023-11-13_17h24.40.562,Unsyncopated1,s76,23.0,masculino,left,España,"Castellano, Catalán, Lengua de Signos Catalana",Bachelor degree,no,no,A,1,when,L3,unsyncopated,when,when,85,Online_whenL3//d.ji19.1776.wav,gu,ñe,chu,sil,li,di,le,sil1,ji,fu,sil2,['catch'],[2.568499999999972],[2.568499999999972],1.776,beat,0.7924999999999718,0.7924999999999718,"[""space""]",ji,4,testConjL4Syn//cat_viol.r2.s2.0.wav,4.0,conjunction_syn,syncopated,b,s2,no_rule,cat,L4,m,3.369,2.0,1.0,1.6077,6.0,3.0,Catalán,0.0,Castellano,0.0,LSC,0.0,Inglés,6.0,Francés,18.0,Italiano,21.0,5.0,4.0,no,no,yes,Flauta dulce,6,,,nada,64.0,yes
86,2023-11-13_17h24.40.562,Unsyncopated1,s76,23.0,masculino,left,España,"Castellano, Catalán, Lengua de Signos Catalana",Bachelor degree,no,no,A,1,when,L3,unsyncopated,when,when,86,Online_whenL3//d.ji16.none.wav,ka,je,di,sil,sa,fu,chu,sil1,do,li,sil2,['-'],,,none,none,,,,ji,4,testConjL4Syn//r2.s2.2.wav,4.0,conjunction_syn,syncopated,b,s2,rule,rule,L4,z,0.7831,3.0,1.0,2.956,6.0,3.0,Catalán,0.0,Castellano,0.0,LSC,0.0,Inglés,6.0,Francés,18.0,Italiano,21.0,5.0,4.0,no,no,yes,Flauta dulce,6,,,nada,64.0,yes
87,2023-11-13_17h24.40.562,Unsyncopated1,s76,23.0,masculino,left,España,"Castellano, Catalán, Lengua de Signos Catalana",Bachelor degree,no,no,A,1,when,L3,unsyncopated,when,when,87,Online_whenL3//d.ji18.none.wav,gu,do,ko,sil,di,chu,mo,sil1,ga,le,sil2,['-'],,,none,none,,,,ji,4,testConjL4Syn//cat_viol.r1.s2.0.wav,4.0,conjunction_syn,syncopated,a,s2,no_rule,cat,L4,z,3.1585,3.0,0.0,1.5694,6.0,3.0,Catalán,0.0,Castellano,0.0,LSC,0.0,Inglés,6.0,Francés,18.0,Italiano,21.0,5.0,4.0,no,no,yes,Flauta dulce,6,,,nada,64.0,yes
88,2023-11-13_17h24.40.562,Unsyncopated1,s76,23.0,masculino,left,España,"Castellano, Catalán, Lengua de Signos Catalana",Bachelor degree,no,no,A,1,when,L3,unsyncopated,when,when,88,Online_whenL3//c.gu26.none.wav,sa,ji,li,sil,le,di,ga,sil1,chu,fu,sil2,['-'],,,none,none,,,,gu,3,testConjL4Syn//dep_viol.r1.s2.0.wav,4.0,conjunction_syn,syncopated,a,s2,no_rule,dep,L4,m,3.5361,3.0,1.0,1.0383,6.0,3.0,Catalán,0.0,Castellano,0.0,LSC,0.0,Inglés,6.0,Francés,18.0,Italiano,21.0,5.0,4.0,no,no,yes,Flauta dulce,6,,,nada,64.0,yes
89,2023-11-13_17h24.40.562,Unsyncopated1,s76,23.0,masculino,left,España,"Castellano, Catalán, Lengua de Signos Catalana",Bachelor degree,no,no,A,1,when,L3,unsyncopated,when,when,89,Online_whenL3//c.gu25.222.wav,chu,gu,ko,sil,fu,ga,li,sil1,di,ñe,sil2,['catch'],[1.155499999999961],[1.155499999999961],0.222,no_beat,0.9334999999999608,0.9334999999999608,"[""space""]",gu,3,testConjL4Syn//r1.s1.2.wav,4.0,conjunction_syn,syncopated,a,s1,rule,rule,L4,m,0.8222,6.0,0.0,1.3991,6.0,3.0,Catalán,0.0,Castellano,0.0,LSC,0.0,Inglés,6.0,Francés,18.0,Italiano,21.0,5.0,4.0,no,no,yes,Flauta dulce,6,,,nada,64.0,yes
90,2023-11-13_17h24.40.562,Unsyncopated1,s76,23.0,masculino,left,España,"Castellano, Catalán, Lengua de Signos Catalana",Bachelor degree,no,no,A,1,when,L3,unsyncopated,when,when,90,Online_whenL3//c.gu24.1110.wav,ñe,ko,ji,sil,li,gu,le,sil1,chu,ga,sil2,['catch'],[2.170199999809256],[2.170199999809256],1.11,no_beat,1.060199999809256,1.060199999809256,"[""space""]",gu,3,testConjL4Syn//dep_viol.r2.s2.0.wav,4.0,conjunction_syn,syncopated,b,s2,no_rule,dep,L4,m,3.4341,5.0,1.0,6.1051,6.0,3.0,Catalán,0.0,Castellano,0.0,LSC,0.0,Inglés,6.0,Francés,18.0,Italiano,21.0,5.0,4.0,no,no,yes,Flauta dulce,6,,,nada,64.0,yes
91,2023-11-13_17h24.40.562,Unsyncopated1,s76,23.0,masculino,left,España,"Castellano, Catalán, Lengua de Signos Catalana",Bachelor degree,no,no,A,1,when,L3,unsyncopated,when,when,91,Online_whenL3//c.gu27.none.wav,li,je,ko,sil,ji,fu,mo,sil1,ñe,di,sil2,['-'],,,none,none,,,,gu,3,testConjL4Syn//cat_viol.r2.s1.0.wav,4.0,conjunction_syn,syncopated,b,s1,no_rule,cat,L4,m,0.568,7.0,1.0,0.545,6.0,3.0,Catalán,0.0,Castellano,0.0,LSC,0.0,Inglés,6.0,Francés,18.0,Italiano,21.0,5.0,4.0,no,no,yes,Flauta dulce,6,,,nada,64.0,yes
92,2023-11-13_17h24.40.562,Unsyncopated1,s76,23.0,masculino,left,España,"Castellano, Catalán, Lengua de Signos Catalana",Bachelor degree,no,no,A,1,when,L3,unsyncopated,when,when,92,Online_whenL3//a.mo21.none.wav,ñe,gu,chu,sil,di,ko,le,sil1,fu,li,sil2,['-'],,,none,none,,,,mo,2,testConjL4Syn//time_viol.r1.s2.0.wav,4.0,conjunction_syn,syncopated,a,s2,no_rule,time,L4,z,0.5318,6.0,0.0,1.5911,6.0,3.0,Catalán,0.0,Castellano,0.0,LSC,0.0,Inglés,6.0,Francés,18.0,Italiano,21.0,5.0,4.0,no,no,yes,Flauta dulce,6,,,nada,64.0,yes
93,2023-11-13_17h24.40.562,Unsyncopated1,s76,23.0,masculino,left,España,"Castellano, Catalán, Lengua de Signos Catalana",Bachelor degree,no,no,A,1,when,L3,unsyncopated,when,when,93,Online_whenL3//a.mo20.1776.wav,ga,fu,ko,sil,li,sa,je,sil1,mo,ka,sil2,['catch_delay'],[0.9084000000953785],[0.9084000000953785],1.776,beat,0.9084000000953784,0.9084000000953784,,mo,2,testConjL4Syn//r1.s2.0.wav,4.0,conjunction_syn,syncopated,a,s2,rule,rule,L4,z,0.606,7.0,1.0,0.5092,6.0,3.0,Catalán,0.0,Castellano,0.0,LSC,0.0,Inglés,6.0,Francés,18.0,Italiano,21.0,5.0,4.0,no,no,yes,Flauta dulce,6,,,nada,64.0,yes
94,2023-11-13_17h24.40.562,Unsyncopated1,s76,23.0,masculino,left,España,"Castellano, Catalán, Lengua de Signos Catalana",Bachelor degree,no,no,A,1,when,L3,unsyncopated,when,when,94,Online_whenL3//a.mo22.none.wav,je,ga,ka,sil,ñe,chu,fu,sil1,li,ji,sil2,['-'],[0.020400000095378346],[0.020400000095378346],none,none,,,"[""space""]",mo,2,testConjL4Syn//time_viol.r2.s1.0.wav,4.0,conjunction_syn,syncopated,b,s1,no_rule,time,L4,m,1.9511,4.0,1.0,2.1102,6.0,3.0,Catalán,0.0,Castellano,0.0,LSC,0.0,Inglés,6.0,Francés,18.0,Italiano,21.0,5.0,4.0,no,no,yes,Flauta dulce,6,,,nada,64.0,yes
95,2023-11-13_17h24.40.562,Unsyncopated1,s76,23.0,masculino,left,España,"Castellano, Catalán, Lengua de Signos Catalana",Bachelor degree,no,no,A,1,when,L3,unsyncopated,when,when,95,Online_whenL3//a.mo23.none.wav,ga,sa,je,sil,ko,fu,li,sil1,di,chu,sil2,['-'],,,none,none,,,,mo,2,testConjL4Syn//r1.s2.1.wav,4.0,conjunction_syn,syncopated,a,s2,rule,rule,L4,z,0.7025,5.0,1.0,0.8654,6.0,3.0,Catalán,0.0,Castellano,0.0,LSC,0.0,Inglés,6.0,Francés,18.0,Italiano,21.0,5.0,4.0,no,no,yes,Flauta dulce,6,,,nada,64.0,yes
96,2023-11-13_17h24.40.562,Unsyncopated1,s76,23.0,masculino,left,España,"Castellano, Catalán, Lengua de Signos Catalana",Bachelor degree,no,no,A,1,when,L3,unsyncopated,when,when,96,Online_whenL3//d.ji23.none.wav,mo,ñe,je,sil,fu,ko,le,sil1,li,ka,sil2,['-'],,,none,none,,,,ji,4,,,,,,,,,,,,,,,6.0,3.0,Catalán,0.0,Castellano,0.0,LSC,0.0,Inglés,6.0,Francés,18.0,Italiano,21.0,5.0,4.0,no,no,yes,Flauta dulce,6,,,nada,64.0,yes
97,2023-11-13_17h24.40.562,Unsyncopated1,s76,23.0,masculino,left,España,"Castellano, Catalán, Lengua de Signos Catalana",Bachelor degree,no,no,A,1,when,L3,unsyncopated,when,when,97,Online_whenL3//d.ji20.none.wav,mo,gu,chu,sil,do,je,fu,sil1,di,le,sil2,['-'],,,none,none,,,,ji,4,,,,,,,,,,,,,,,6.0,3.0,Catalán,0.0,Castellano,0.0,LSC,0.0,Inglés,6.0,Francés,18.0,Italiano,21.0,5.0,4.0,no,no,yes,Flauta dulce,6,,,nada,64.0,yes
98,2023-11-13_17h24.40.562,Unsyncopated1,s76,23.0,masculino,left,España,"Castellano, Catalán, Lengua de Signos Catalana",Bachelor degree,no,no,A,1,when,L3,unsyncopated,when,when,98,Online_whenL3//d.ji21.888.wav,ko,li,ñe,sil,ji,ka,fu,sil1,ga,sa,sil2,['miss'],,,0.888,beat,,,,ji,4,,,,,,,,,,,,,,,6.0,3.0,Catalán,0.0,Castellano,0.0,LSC,0.0,Inglés,6.0,Francés,18.0,Italiano,21.0,5.0,4.0,no,no,yes,Flauta dulce,6,,,nada,64.0,yes
99,2023-11-13_17h24.40.562,Unsyncopated1,s76,23.0,masculino,left,España,"Castellano, Catalán, Lengua de Signos Catalana",Bachelor degree,no,no,A,1,when,L3,unsyncopated,when,when,99,Online_whenL3//d.ji22.1332.wav,gu,di,mo,sil,fu,ñe,ji,sil1,ko,le,sil2,['miss'],,,1.332,no_beat,,,,ji,4,,,,,,,,,,,,,,,6.0,3.0,Catalán,0.0,Castellano,0.0,LSC,0.0,Inglés,6.0,Francés,18.0,Italiano,21.0,5.0,4.0,no,no,yes,Flauta dulce,6,,,nada,64.0,yes
100,2023-11-13_17h24.40.562,Unsyncopated1,s76,23.0,masculino,left,España,"Castellano, Catalán, Lengua de Signos Catalana",Bachelor degree,no,no,A,1,when,L3,unsyncopated,when,when,100,Online_whenL3//a.mo12.none.wav,je,ji,ñe,sil,le,do,gu,sil1,ga,sa,sil2,['-'],,,none,none,,,,mo,2,,,,,,,,,,,,,,,6.0,3.0,Catalán,0.0,Castellano,0.0,LSC,0.0,Inglés,6.0,Francés,18.0,Italiano,21.0,5.0,4.0,no,no,yes,Flauta dulce,6,,,nada,64.0,yes
101,2023-11-13_17h24.40.562,Unsyncopated1,s76,23.0,masculino,left,España,"Castellano, Catalán, Lengua de Signos Catalana",Bachelor degree,no,no,A,1,when,L3,unsyncopated,when,when,101,Online_whenL3//a.mo13.1776.wav,chu,ji,do,sil,gu,le,fu,sil1,mo,ka,sil2,['catch_delay'],[0.9074999999999938],[0.9074999999999938],1.776,beat,0.9074999999999938,0.9074999999999938,,mo,2,,,,,,,,,,,,,,,6.0,3.0,Catalán,0.0,Castellano,0.0,LSC,0.0,Inglés,6.0,Francés,18.0,Italiano,21.0,5.0,4.0,no,no,yes,Flauta dulce,6,,,nada,64.0,yes
102,2023-11-13_17h24.40.562,Unsyncopated1,s76,23.0,masculino,left,España,"Castellano, Catalán, Lengua de Signos Catalana",Bachelor degree,no,no,A,1,when,L3,unsyncopated,when,when,102,Online_whenL3//a.mo14.none.wav,di,ko,ga,sil,gu,do,sa,sil1,ka,chu,sil2,['-'],[0.019499999999993634],[0.019499999999993634],none,none,,,"[""space""]",mo,2,,,,,,,,,,,,,,,6.0,3.0,Catalán,0.0,Castellano,0.0,LSC,0.0,Inglés,6.0,Francés,18.0,Italiano,21.0,5.0,4.0,no,no,yes,Flauta dulce,6,,,nada,64.0,yes
103,2023-11-13_17h24.40.562,Unsyncopated1,s76,23.0,masculino,left,España,"Castellano, Catalán, Lengua de Signos Catalana",Bachelor degree,no,no,A,1,when,L3,unsyncopated,when,when,103,Online_whenL3//a.mo15.1110.wav,ga,le,do,sil,ñe,mo,fu,sil1,di,li,sil2,['miss'],,,1.11,no_beat,,,,mo,2,,,,,,,,,,,,,,,6.0,3.0,Catalán,0.0,Castellano,0.0,LSC,0.0,Inglés,6.0,Francés,18.0,Italiano,21.0,5.0,4.0,no,no,yes,Flauta dulce,6,,,nada,64.0,yes
104,2023-11-13_17h24.40.562,Unsyncopated1,s76,23.0,masculino,left,España,"Castellano, Catalán, Lengua de Signos Catalana",Bachelor degree,no,no,A,1,when,L3,unsyncopated,when,when,104,Online_whenL3//b.ñe13.none.wav,chu,ka,le,sil,ko,je,mo,sil1,fu,di,sil2,['-'],,,none,none,,,,ñe,1,,,,,,,,,,,,,,,6.0,3.0,Catalán,0.0,Castellano,0.0,LSC,0.0,Inglés,6.0,Francés,18.0,Italiano,21.0,5.0,4.0,no,no,yes,Flauta dulce,6,,,nada,64.0,yes
105,2023-11-13_17h24.40.562,Unsyncopated1,s76,23.0,masculino,left,España,"Castellano, Catalán, Lengua de Signos Catalana",Bachelor degree,no,no,A,1,when,L3,unsyncopated,when,when,105,Online_whenL3//b.ñe15.none.wav,je,di,li,sil,ji,ko,sa,sil1,mo,ga,sil2,['-'],,,none,none,,,,ñe,1,,,,,,,,,,,,,,,6.0,3.0,Catalán,0.0,Castellano,0.0,LSC,0.0,Inglés,6.0,Francés,18.0,Italiano,21.0,5.0,4.0,no,no,yes,Flauta dulce,6,,,nada,64.0,yes
106,2023-11-13_17h24.40.562,Unsyncopated1,s76,23.0,masculino,left,España,"Castellano, Catalán, Lengua de Signos Catalana",Bachelor degree,no,no,A,1,when,L3,unsyncopated,when,when,106,Online_whenL3//b.ñe12.none.wav,ji,li,je,sil,mo,ka,chu,sil1,fu,ko,sil2,['-'],,,none,none,,,,ñe,1,,,,,,,,,,,,,,,6.0,3.0,Catalán,0.0,Castellano,0.0,LSC,0.0,Inglés,6.0,Francés,18.0,Italiano,21.0,5.0,4.0,no,no,yes,Flauta dulce,6,,,nada,64.0,yes
107,2023-11-13_17h24.40.562,Unsyncopated1,s76,23.0,masculino,left,España,"Castellano, Catalán, Lengua de Signos Catalana",Bachelor degree,no,no,A,1,when,L3,unsyncopated,when,when,107,Online_whenL3//b.ñe14.1776.wav,do,je,ko,sil,fu,gu,chu,sil1,ñe,ka,sil2,['catch_delay'],[0.901300000190725],[0.901300000190725],1.776,beat,0.901300000190725,0.901300000190725,,ñe,1,,,,,,,,,,,,,,,6.0,3.0,Catalán,0.0,Castellano,0.0,LSC,0.0,Inglés,6.0,Francés,18.0,Italiano,21.0,5.0,4.0,no,no,yes,Flauta dulce,6,,,nada,64.0,yes
108,2023-11-13_17h24.40.562,Unsyncopated1,s76,23.0,masculino,left,España,"Castellano, Catalán, Lengua de Signos Catalana",Bachelor degree,no,no,A,1,when,L3,unsyncopated,when,when,108,Online_whenL3//d.ji27.none.wav,chu,ka,di,sil,ñe,je,fu,sil1,do,gu,sil2,['-'],[0.013300000190724859],[0.013300000190724859],none,none,,,"[""space""]",ji,4,,,,,,,,,,,,,,,6.0,3.0,Catalán,0.0,Castellano,0.0,LSC,0.0,Inglés,6.0,Francés,18.0,Italiano,21.0,5.0,4.0,no,no,yes,Flauta dulce,6,,,nada,64.0,yes
109,2023-11-13_17h24.40.562,Unsyncopated1,s76,23.0,masculino,left,España,"Castellano, Catalán, Lengua de Signos Catalana",Bachelor degree,no,no,A,1,when,L3,unsyncopated,when,when,109,Online_whenL3//d.ji26.none.wav,chu,fu,je,sil,ko,gu,ka,sil1,mo,di,sil2,['-'],,,none,none,,,,ji,4,,,,,,,,,,,,,,,6.0,3.0,Catalán,0.0,Castellano,0.0,LSC,0.0,Inglés,6.0,Francés,18.0,Italiano,21.0,5.0,4.0,no,no,yes,Flauta dulce,6,,,nada,64.0,yes
110,2023-11-13_17h24.40.562,Unsyncopated1,s76,23.0,masculino,left,España,"Castellano, Catalán, Lengua de Signos Catalana",Bachelor degree,no,no,A,1,when,L3,unsyncopated,when,when,110,Online_whenL3//d.ji25.none.wav,do,li,je,sil,fu,ka,mo,sil1,ñe,di,sil2,['-'],,,none,none,,,,ji,4,,,,,,,,,,,,,,,6.0,3.0,Catalán,0.0,Castellano,0.0,LSC,0.0,Inglés,6.0,Francés,18.0,Italiano,21.0,5.0,4.0,no,no,yes,Flauta dulce,6,,,nada,64.0,yes
111,2023-11-13_17h24.40.562,Unsyncopated1,s76,23.0,masculino,left,España,"Castellano, Catalán, Lengua de Signos Catalana",Bachelor degree,no,no,A,1,when,L3,unsyncopated,when,when,111,Online_whenL3//d.ji24.1998.wav,do,sa,gu,sil,li,chu,ka,sil1,ko,ji,sil2,['catch_delay'],[0.7019999999999447],[0.7019999999999447],1.998,no_beat,0.7019999999999447,0.7019999999999447,,ji,4,,,,,,,,,,,,,,,6.0,3.0,Catalán,0.0,Castellano,0.0,LSC,0.0,Inglés,6.0,Francés,18.0,Italiano,21.0,5.0,4.0,no,no,yes,Flauta dulce,6,,,nada,64.0,yes
112,2023-11-13_17h24.40.562,Unsyncopated1,s76,23.0,masculino,left,España,"Castellano, Catalán, Lengua de Signos Catalana",Bachelor degree,no,no,A,1,when,L3,unsyncopated,when,when,112,Online_whenL3//c.gu11.1110.wav,do,mo,ñe,sil,ga,gu,li,sil1,di,le,sil2,['catch'],"[0.03599999999994452, 1.9318000001907194]",[1.9318000001907194],1.11,no_beat,0.8218000001907193,0.8218000001907193,"[""space"",""space""]",gu,3,,,,,,,,,,,,,,,6.0,3.0,Catalán,0.0,Castellano,0.0,LSC,0.0,Inglés,6.0,Francés,18.0,Italiano,21.0,5.0,4.0,no,no,yes,Flauta dulce,6,,,nada,64.0,yes
113,2023-11-13_17h24.40.562,Unsyncopated1,s76,23.0,masculino,left,España,"Castellano, Catalán, Lengua de Signos Catalana",Bachelor degree,no,no,A,1,when,L3,unsyncopated,when,when,113,Online_whenL3//c.gu10.none.wav,ji,je,mo,sil,li,do,le,sil1,ka,chu,sil2,['-'],,,none,none,,,,gu,3,,,,,,,,,,,,,,,6.0,3.0,Catalán,0.0,Castellano,0.0,LSC,0.0,Inglés,6.0,Francés,18.0,Italiano,21.0,5.0,4.0,no,no,yes,Flauta dulce,6,,,nada,64.0,yes
114,2023-11-13_17h24.40.562,Unsyncopated1,s76,23.0,masculino,left,España,"Castellano, Catalán, Lengua de Signos Catalana",Bachelor degree,no,no,A,1,when,L3,unsyncopated,when,when,114,Online_whenL3//c.gu9.none.wav,di,ko,le,sil,sa,ji,li,sil1,ka,mo,sil2,['-'],,,none,none,,,,gu,3,,,,,,,,,,,,,,,6.0,3.0,Catalán,0.0,Castellano,0.0,LSC,0.0,Inglés,6.0,Francés,18.0,Italiano,21.0,5.0,4.0,no,no,yes,Flauta dulce,6,,,nada,64.0,yes
115,2023-11-13_17h24.40.562,Unsyncopated1,s76,23.0,masculino,left,España,"Castellano, Catalán, Lengua de Signos Catalana",Bachelor degree,no,no,A,1,when,L3,unsyncopated,when,when,115,Online_whenL3//c.gu8.1332.wav,ka,ñe,li,sil,ko,le,gu,sil1,sa,fu,sil2,['miss'],,,1.332,no_beat,,,,gu,3,,,,,,,,,,,,,,,6.0,3.0,Catalán,0.0,Castellano,0.0,LSC,0.0,Inglés,6.0,Francés,18.0,Italiano,21.0,5.0,4.0,no,no,yes,Flauta dulce,6,,,nada,64.0,yes
116,2023-11-13_17h24.40.562,Unsyncopated1,s76,23.0,masculino,left,España,"Castellano, Catalán, Lengua de Signos Catalana",Bachelor degree,no,no,A,1,when,L3,unsyncopated,when,when,116,Online_whenL3//d.ji11.none.wav,ñe,je,fu,sil,mo,ka,li,sil1,ko,gu,sil2,['-'],,,none,none,,,,ji,4,,,,,,,,,,,,,,,6.0,3.0,Catalán,0.0,Castellano,0.0,LSC,0.0,Inglés,6.0,Francés,18.0,Italiano,21.0,5.0,4.0,no,no,yes,Flauta dulce,6,,,nada,64.0,yes
117,2023-11-13_17h24.40.562,Unsyncopated1,s76,23.0,masculino,left,España,"Castellano, Catalán, Lengua de Signos Catalana",Bachelor degree,no,no,A,1,when,L3,unsyncopated,when,when,117,Online_whenL3//d.ji9.1776.wav,chu,ñe,li,sil,ga,di,gu,sil1,ji,fu,sil2,['catch_delay'],[0.9084000000953785],[0.9084000000953785],1.776,beat,0.9084000000953784,0.9084000000953784,,ji,4,,,,,,,,,,,,,,,6.0,3.0,Catalán,0.0,Castellano,0.0,LSC,0.0,Inglés,6.0,Francés,18.0,Italiano,21.0,5.0,4.0,no,no,yes,Flauta dulce,6,,,nada,64.0,yes
118,2023-11-13_17h24.40.562,Unsyncopated1,s76,23.0,masculino,left,España,"Castellano, Catalán, Lengua de Signos Catalana",Bachelor degree,no,no,A,1,when,L3,unsyncopated,when,when,118,Online_whenL3//d.ji8.none.wav,je,ko,ñe,sil,chu,ga,do,sil1,li,gu,sil2,['-'],[0.020400000095378346],[0.020400000095378346],none,none,,,"[""space""]",ji,4,,,,,,,,,,,,,,,6.0,3.0,Catalán,0.0,Castellano,0.0,LSC,0.0,Inglés,6.0,Francés,18.0,Italiano,21.0,5.0,4.0,no,no,yes,Flauta dulce,6,,,nada,64.0,yes
119,2023-11-13_17h24.40.562,Unsyncopated1,s76,23.0,masculino,left,España,"Castellano, Catalán, Lengua de Signos Catalana",Bachelor degree,no,no,A,1,when,L3,unsyncopated,when,when,119,Online_whenL3//d.ji10.444.wav,do,ga,ji,sil,di,sa,chu,sil1,ka,ko,sil2,['catch'],[1.4394999999999527],[1.4394999999999527],0.444,no_beat,0.9954999999999528,0.9954999999999528,"[""space""]",ji,4,,,,,,,,,,,,,,,6.0,3.0,Catalán,0.0,Castellano,0.0,LSC,0.0,Inglés,6.0,Francés,18.0,Italiano,21.0,5.0,4.0,no,no,yes,Flauta dulce,6,,,nada,64.0,yes
120,2023-11-13_17h24.40.562,Unsyncopated1,s76,23.0,masculino,left,España,"Castellano, Catalán, Lengua de Signos Catalana",Bachelor degree,no,no,A,1,when,L3,unsyncopated,when,when,120,Online_whenL3//b.ñe1.1998.wav,ka,ko,je,sil,ga,gu,di,sil1,sa,ñe,sil2,['catch_delay'],[0.8674000000953048],[0.8674000000953048],1.998,no_beat,0.8674000000953048,0.8674000000953048,,ñe,1,,,,,,,,,,,,,,,6.0,3.0,Catalán,0.0,Castellano,0.0,LSC,0.0,Inglés,6.0,Francés,18.0,Italiano,21.0,5.0,4.0,no,no,yes,Flauta dulce,6,,,nada,64.0,yes
121,2023-11-13_17h24.40.562,Unsyncopated1,s76,23.0,masculino,left,España,"Castellano, Catalán, Lengua de Signos Catalana",Bachelor degree,no,no,A,1,when,L3,unsyncopated,when,when,121,Online_whenL3//b.ñe2.888.wav,ji,li,do,sil,ñe,mo,ga,sil1,le,fu,sil2,['miss'],[0.20140000009530468],[0.20140000009530468],0.888,beat,,,"[""space""]",ñe,1,,,,,,,,,,,,,,,6.0,3.0,Catalán,0.0,Castellano,0.0,LSC,0.0,Inglés,6.0,Francés,18.0,Italiano,21.0,5.0,4.0,no,no,yes,Flauta dulce,6,,,nada,64.0,yes
122,2023-11-13_17h24.40.562,Unsyncopated1,s76,23.0,masculino,left,España,"Castellano, Catalán, Lengua de Signos Catalana",Bachelor degree,no,no,A,1,when,L3,unsyncopated,when,when,122,Online_whenL3//b.ñe3.none.wav,chu,ko,mo,sil,li,je,ji,sil1,fu,do,sil2,['-'],,,none,none,,,,ñe,1,,,,,,,,,,,,,,,6.0,3.0,Catalán,0.0,Castellano,0.0,LSC,0.0,Inglés,6.0,Francés,18.0,Italiano,21.0,5.0,4.0,no,no,yes,Flauta dulce,6,,,nada,64.0,yes
123,2023-11-13_17h24.40.562,Unsyncopated1,s76,23.0,masculino,left,España,"Castellano, Catalán, Lengua de Signos Catalana",Bachelor degree,no,no,A,1,when,L3,unsyncopated,when,when,123,Online_whenL3//b.ñe0.222.wav,ka,ñe,gu,sil,ga,le,chu,sil1,fu,do,sil2,['catch'],[1.270899999618564],[1.270899999618564],0.222,no_beat,1.048899999618564,1.048899999618564,"[""space""]",ñe,1,,,,,,,,,,,,,,,6.0,3.0,Catalán,0.0,Castellano,0.0,LSC,0.0,Inglés,6.0,Francés,18.0,Italiano,21.0,5.0,4.0,no,no,yes,Flauta dulce,6,,,nada,64.0,yes
124,2023-11-13_17h24.40.562,Unsyncopated1,s76,23.0,masculino,left,España,"Castellano, Catalán, Lengua de Signos Catalana",Bachelor degree,no,no,A,1,when,L3,unsyncopated,when,when,124,Online_whenL3//b.ñe11.none.wav,ka,ji,li,sil,ko,ga,sa,sil1,mo,di,sil2,['-'],,,none,none,,,,ñe,1,,,,,,,,,,,,,,,6.0,3.0,Catalán,0.0,Castellano,0.0,LSC,0.0,Inglés,6.0,Francés,18.0,Italiano,21.0,5.0,4.0,no,no,yes,Flauta dulce,6,,,nada,64.0,yes
125,2023-11-13_17h24.40.562,Unsyncopated1,s76,23.0,masculino,left,España,"Castellano, Catalán, Lengua de Signos Catalana",Bachelor degree,no,no,A,1,when,L3,unsyncopated,when,when,125,Online_whenL3//b.ñe9.1110.wav,fu,do,ka,sil,li,ñe,chu,sil1,ko,ji,sil2,['catch'],[2.1274000000953492],[2.1274000000953492],1.11,no_beat,1.0174000000953491,1.0174000000953491,"[""space""]",ñe,1,,,,,,,,,,,,,,,6.0,3.0,Catalán,0.0,Castellano,0.0,LSC,0.0,Inglés,6.0,Francés,18.0,Italiano,21.0,5.0,4.0,no,no,yes,Flauta dulce,6,,,nada,64.0,yes
126,2023-11-13_17h24.40.562,Unsyncopated1,s76,23.0,masculino,left,España,"Castellano, Catalán, Lengua de Signos Catalana",Bachelor degree,no,no,A,1,when,L3,unsyncopated,when,when,126,Online_whenL3//b.ñe10.none.wav,ga,fu,le,sil,chu,ko,ka,sil1,mo,je,sil2,['-'],,,none,none,,,,ñe,1,,,,,,,,,,,,,,,6.0,3.0,Catalán,0.0,Castellano,0.0,LSC,0.0,Inglés,6.0,Francés,18.0,Italiano,21.0,5.0,4.0,no,no,yes,Flauta dulce,6,,,nada,64.0,yes
127,2023-11-13_17h24.40.562,Unsyncopated1,s76,23.0,masculino,left,España,"Castellano, Catalán, Lengua de Signos Catalana",Bachelor degree,no,no,A,1,when,L3,unsyncopated,when,when,127,Online_whenL3//b.ñe8.none.wav,le,do,ko,sil,gu,mo,fu,sil1,ji,sa,sil2,['-'],,,none,none,,,,ñe,1,,,,,,,,,,,,,,,6.0,3.0,Catalán,0.0,Castellano,0.0,LSC,0.0,Inglés,6.0,Francés,18.0,Italiano,21.0,5.0,4.0,no,no,yes,Flauta dulce,6,,,nada,64.0,yes
128,2023-11-13_17h24.40.562,Unsyncopated1,s76,23.0,masculino,left,España,"Castellano, Catalán, Lengua de Signos Catalana",Bachelor degree,no,no,A,1,when,L3,unsyncopated,when,when,128,Online_whenL3//b.ñe23.1776.wav,je,ka,ji,sil,mo,gu,do,sil1,ñe,le,sil2,['catch_delay'],[0.9089000000953666],[0.9089000000953666],1.776,beat,0.9089000000953666,0.9089000000953666,,ñe,1,,,,,,,,,,,,,,,6.0,3.0,Catalán,0.0,Castellano,0.0,LSC,0.0,Inglés,6.0,Francés,18.0,Italiano,21.0,5.0,4.0,no,no,yes,Flauta dulce,6,,,nada,64.0,yes
129,2023-11-13_17h24.40.562,Unsyncopated1,s76,23.0,masculino,left,España,"Castellano, Catalán, Lengua de Signos Catalana",Bachelor degree,no,no,A,1,when,L3,unsyncopated,when,when,129,Online_whenL3//b.ñe22.none.wav,fu,li,ko,sil,mo,je,le,sil1,sa,ka,sil2,['-'],[0.020900000095366522],[0.020900000095366522],none,none,,,"[""space""]",ñe,1,,,,,,,,,,,,,,,6.0,3.0,Catalán,0.0,Castellano,0.0,LSC,0.0,Inglés,6.0,Francés,18.0,Italiano,21.0,5.0,4.0,no,no,yes,Flauta dulce,6,,,nada,64.0,yes
130,2023-11-13_17h24.40.562,Unsyncopated1,s76,23.0,masculino,left,España,"Castellano, Catalán, Lengua de Signos Catalana",Bachelor degree,no,no,A,1,when,L3,unsyncopated,when,when,130,Online_whenL3//b.ñe20.none.wav,li,gu,di,sil,ko,ka,ga,sil1,sa,chu,sil2,['-'],,,none,none,,,,ñe,1,,,,,,,,,,,,,,,6.0,3.0,Catalán,0.0,Castellano,0.0,LSC,0.0,Inglés,6.0,Francés,18.0,Italiano,21.0,5.0,4.0,no,no,yes,Flauta dulce,6,,,nada,64.0,yes
131,2023-11-13_17h24.40.562,Unsyncopated1,s76,23.0,masculino,left,España,"Castellano, Catalán, Lengua de Signos Catalana",Bachelor degree,no,no,A,1,when,L3,unsyncopated,when,when,131,Online_whenL3//b.ñe21.1998.wav,gu,li,le,sil,fu,do,di,sil1,sa,ñe,sil2,['catch_delay'],[0.7932000002861661],[0.7932000002861661],1.998,no_beat,0.7932000002861661,0.7932000002861661,,ñe,1,,,,,,,,,,,,,,,6.0,3.0,Catalán,0.0,Castellano,0.0,LSC,0.0,Inglés,6.0,Francés,18.0,Italiano,21.0,5.0,4.0,no,no,yes,Flauta dulce,6,,,nada,64.0,yes
132,2023-11-13_17h24.40.562,Unsyncopated1,s76,23.0,masculino,left,España,"Castellano, Catalán, Lengua de Signos Catalana",Bachelor degree,no,no,A,1,when,L3,unsyncopated,when,when,132,Online_whenL3//b.ñe34.444.wav,fu,ka,ñe,sil,ko,do,chu,sil1,ga,je,sil2,['catch'],"[0.12720000028616596, 1.725500000000011]",[1.725500000000011],0.444,no_beat,,1.281500000000011,"[""space"",""space""]",ñe,1,,,,,,,,,,,,,,,6.0,3.0,Catalán,0.0,Castellano,0.0,LSC,0.0,Inglés,6.0,Francés,18.0,Italiano,21.0,5.0,4.0,no,no,yes,Flauta dulce,6,,,nada,64.0,yes
133,2023-11-13_17h24.40.562,Unsyncopated1,s76,23.0,masculino,left,España,"Castellano, Catalán, Lengua de Signos Catalana",Bachelor degree,no,no,A,1,when,L3,unsyncopated,when,when,133,Online_whenL3//b.ñe35.1776.wav,le,ka,do,sil,chu,ga,ji,sil1,ñe,gu,sil2,['miss'],,,1.776,beat,,,,ñe,1,,,,,,,,,,,,,,,6.0,3.0,Catalán,0.0,Castellano,0.0,LSC,0.0,Inglés,6.0,Francés,18.0,Italiano,21.0,5.0,4.0,no,no,yes,Flauta dulce,6,,,nada,64.0,yes
134,2023-11-13_17h24.40.562,Unsyncopated1,s76,23.0,masculino,left,España,"Castellano, Catalán, Lengua de Signos Catalana",Bachelor degree,no,no,A,1,when,L3,unsyncopated,when,when,134,Online_whenL3//b.ñe32.none.wav,li,fu,mo,sil,ko,ji,chu,sil1,gu,do,sil2,['-'],,,none,none,,,,ñe,1,,,,,,,,,,,,,,,6.0,3.0,Catalán,0.0,Castellano,0.0,LSC,0.0,Inglés,6.0,Francés,18.0,Italiano,21.0,5.0,4.0,no,no,yes,Flauta dulce,6,,,nada,64.0,yes
135,2023-11-13_17h24.40.562,Unsyncopated1,s76,23.0,masculino,left,España,"Castellano, Catalán, Lengua de Signos Catalana",Bachelor degree,no,no,A,1,when,L3,unsyncopated,when,when,135,Online_whenL3//b.ñe33.none.wav,gu,li,ka,sil,sa,fu,le,sil1,di,chu,sil2,['-'],,,none,none,,,,ñe,1,,,,,,,,,,,,,,,6.0,3.0,Catalán,0.0,Castellano,0.0,LSC,0.0,Inglés,6.0,Francés,18.0,Italiano,21.0,5.0,4.0,no,no,yes,Flauta dulce,6,,,nada,64.0,yes
136,2023-11-13_17h24.40.562,Unsyncopated1,s76,23.0,masculino,left,España,"Castellano, Catalán, Lengua de Signos Catalana",Bachelor degree,no,no,A,2,conjunction_un,L1,unsyncopated,s2,r1,0,Online_conjL1_un//d.ne.ni10.1110.222.wav,la,ni,cho,sil,pu,ne,lu,sil1,ki,zu,sil2,['catch'],[1.897000000000162],[1.897000000000162],1.11,no_beat,0.7870000000001618,0.7870000000001618,"[""space""]",ne,4,,,,,,,,,,,,,,,6.0,3.0,Catalán,0.0,Castellano,0.0,LSC,0.0,Inglés,6.0,Francés,18.0,Italiano,21.0,5.0,4.0,no,no,yes,Flauta dulce,6,,,nada,64.0,yes
137,2023-11-13_17h24.40.562,Unsyncopated1,s76,23.0,masculino,left,España,"Castellano, Catalán, Lengua de Signos Catalana",Bachelor degree,no,no,A,2,conjunction_un,L1,unsyncopated,s2,r2,1,Online_conjL1_un//d.ne.ni11.none.none.wav,ro,zu,la,sil,ta,ze,cho,sil1,be,fa,sil2,['-'],,,none,none,,,,ne,4,,,,,,,,,,,,,,,6.0,3.0,Catalán,0.0,Castellano,0.0,LSC,0.0,Inglés,6.0,Francés,18.0,Italiano,21.0,5.0,4.0,no,no,yes,Flauta dulce,6,,,nada,64.0,yes
138,2023-11-13_17h24.40.562,Unsyncopated1,s76,23.0,masculino,left,España,"Castellano, Catalán, Lengua de Signos Catalana",Bachelor degree,no,no,A,2,conjunction_un,L1,unsyncopated,s1,r2,2,Online_conjL1_un//d.ne.ni8.1776.222.wav,ta,ni,ri,sil,be,zu,lu,sil1,ne,fa,sil2,['catch_delay'],[0.902400000095293],[0.902400000095293],1.776,beat,0.902400000095293,0.902400000095293,,ne,4,,,,,,,,,,,,,,,6.0,3.0,Catalán,0.0,Castellano,0.0,LSC,0.0,Inglés,6.0,Francés,18.0,Italiano,21.0,5.0,4.0,no,no,yes,Flauta dulce,6,,,nada,64.0,yes
139,2023-11-13_17h24.40.562,Unsyncopated1,s76,23.0,masculino,left,España,"Castellano, Catalán, Lengua de Signos Catalana",Bachelor degree,no,no,A,2,conjunction_un,L1,unsyncopated,s1,r2,3,Online_conjL1_un//d.ne.ni9.none.none.wav,ta,ro,fo,sil,be,zu,cho,sil1,lu,ze,sil2,['-'],[0.014400000095292853],[0.014400000095292853],none,none,,,"[""space""]",ne,4,,,,,,,,,,,,,,,6.0,3.0,Catalán,0.0,Castellano,0.0,LSC,0.0,Inglés,6.0,Francés,18.0,Italiano,21.0,5.0,4.0,no,no,yes,Flauta dulce,6,,,nada,64.0,yes
140,2023-11-13_17h24.40.562,Unsyncopated1,s76,23.0,masculino,left,España,"Castellano, Catalán, Lengua de Signos Catalana",Bachelor degree,no,no,A,2,conjunction_un,L1,unsyncopated,s2,r1,4,Online_conjL1_un//d.ne.ni26.none.none.wav,lu,ri,ro,sil,pu,cho,fa,sil1,ki,ze,sil2,['-'],,,none,none,,,,ne,4,,,,,,,,,,,,,,,6.0,3.0,Catalán,0.0,Castellano,0.0,LSC,0.0,Inglés,6.0,Francés,18.0,Italiano,21.0,5.0,4.0,no,no,yes,Flauta dulce,6,,,nada,64.0,yes
141,2023-11-13_17h24.40.562,Unsyncopated1,s76,23.0,masculino,left,España,"Castellano, Catalán, Lengua de Signos Catalana",Bachelor degree,no,no,A,2,conjunction_un,L1,unsyncopated,s2,r1,5,Online_conjL1_un//d.ne.ni24.1110.222.wav,ri,ni,fa,sil,pu,ne,ro,sil1,ki,fo,sil2,['catch'],[2.063000000000102],[2.063000000000102],1.11,no_beat,0.9530000000001018,0.9530000000001018,"[""space""]",ne,4,,,,,,,,,,,,,,,6.0,3.0,Catalán,0.0,Castellano,0.0,LSC,0.0,Inglés,6.0,Francés,18.0,Italiano,21.0,5.0,4.0,no,no,yes,Flauta dulce,6,,,nada,64.0,yes
142,2023-11-13_17h24.40.562,Unsyncopated1,s76,23.0,masculino,left,España,"Castellano, Catalán, Lengua de Signos Catalana",Bachelor degree,no,no,A,2,conjunction_un,L1,unsyncopated,s2,r2,6,Online_conjL1_un//d.ne.ni27.1110.0.wav,ni,fa,ri,sil,ta,ne,zu,sil1,be,la,sil2,['catch'],[2.023399999618505],[2.023399999618505],1.11,no_beat,0.9133999996185048,0.9133999996185048,"[""space""]",ne,4,,,,,,,,,,,,,,,6.0,3.0,Catalán,0.0,Castellano,0.0,LSC,0.0,Inglés,6.0,Francés,18.0,Italiano,21.0,5.0,4.0,no,no,yes,Flauta dulce,6,,,nada,64.0,yes
143,2023-11-13_17h24.40.562,Unsyncopated1,s76,23.0,masculino,left,España,"Castellano, Catalán, Lengua de Signos Catalana",Bachelor degree,no,no,A,2,conjunction_un,L1,unsyncopated,s1,r2,7,Online_conjL1_un//d.ne.ni25.none.none.wav,ta,fa,ze,sil,be,ro,lu,sil1,la,fo,sil2,['-'],,,none,none,,,,ne,4,,,,,,,,,,,,,,,6.0,3.0,Catalán,0.0,Castellano,0.0,LSC,0.0,Inglés,6.0,Francés,18.0,Italiano,21.0,5.0,4.0,no,no,yes,Flauta dulce,6,,,nada,64.0,yes
144,2023-11-13_17h24.40.562,Unsyncopated1,s76,23.0,masculino,left,España,"Castellano, Catalán, Lengua de Signos Catalana",Bachelor degree,no,no,A,2,conjunction_un,L1,unsyncopated,s2,r2,8,Online_conjL1_un//b.ta.be16.888.1776.wav,ze,cho,fo,sil,ta,ne,zu,sil1,be,lu,sil2,['catch'],[1.6261999998091596],[1.6261999998091596],0.888,beat,0.7381999998091596,0.7381999998091596,"[""space""]",ta,1,,,,,,,,,,,,,,,6.0,3.0,Catalán,0.0,Castellano,0.0,LSC,0.0,Inglés,6.0,Francés,18.0,Italiano,21.0,5.0,4.0,no,no,yes,Flauta dulce,6,,,nada,64.0,yes
145,2023-11-13_17h24.40.562,Unsyncopated1,s76,23.0,masculino,left,España,"Castellano, Catalán, Lengua de Signos Catalana",Bachelor degree,no,no,A,2,conjunction_un,L1,unsyncopated,s2,r1,9,Online_conjL1_un//b.ta.be18.none.none.wav,ne,ze,ro,sil,pu,la,cho,sil1,ki,lu,sil2,['-'],,,none,none,,,,ta,1,,,,,,,,,,,,,,,6.0,3.0,Catalán,0.0,Castellano,0.0,LSC,0.0,Inglés,6.0,Francés,18.0,Italiano,21.0,5.0,4.0,no,no,yes,Flauta dulce,6,,,nada,64.0,yes
146,2023-11-13_17h24.40.562,Unsyncopated1,s76,23.0,masculino,left,España,"Castellano, Catalán, Lengua de Signos Catalana",Bachelor degree,no,no,A,2,conjunction_un,L1,unsyncopated,s2,r2,10,Online_conjL1_un//b.ta.be19.888.1776.wav,zu,ni,lu,sil,ta,ri,la,sil1,be,ze,sil2,['catch'],[1.6575000000000273],[1.6575000000000273],0.888,beat,0.7695000000000273,0.7695000000000273,"[""space""]",ta,1,,,,,,,,,,,,,,,6.0,3.0,Catalán,0.0,Castellano,0.0,LSC,0.0,Inglés,6.0,Francés,18.0,Italiano,21.0,5.0,4.0,no,no,yes,Flauta dulce,6,,,nada,64.0,yes
147,2023-11-13_17h24.40.562,Unsyncopated1,s76,23.0,masculino,left,España,"Castellano, Catalán, Lengua de Signos Catalana",Bachelor degree,no,no,A,2,conjunction_un,L1,unsyncopated,s2,r2,11,Online_conjL1_un//b.ta.be17.888.1776.wav,ro,zu,ne,sil,ta,ze,fo,sil1,be,ri,sil2,['catch'],[1.7520999999044307],[1.7520999999044307],0.888,beat,0.8640999999044306,0.8640999999044306,"[""space""]",ta,1,,,,,,,,,,,,,,,6.0,3.0,Catalán,0.0,Castellano,0.0,LSC,0.0,Inglés,6.0,Francés,18.0,Italiano,21.0,5.0,4.0,no,no,yes,Flauta dulce,6,,,nada,64.0,yes
148,2023-11-13_17h24.40.562,Unsyncopated1,s76,23.0,masculino,left,España,"Castellano, Catalán, Lengua de Signos Catalana",Bachelor degree,no,no,A,2,conjunction_un,L1,unsyncopated,s1,r2,12,Online_conjL1_un//a.pu.ki2.none.none.wav,ta,ro,ne,sil,be,lu,fo,sil1,la,ri,sil2,['-'],,,none,none,,,,ki,2,,,,,,,,,,,,,,,6.0,3.0,Catalán,0.0,Castellano,0.0,LSC,0.0,Inglés,6.0,Francés,18.0,Italiano,21.0,5.0,4.0,no,no,yes,Flauta dulce,6,,,nada,64.0,yes
149,2023-11-13_17h24.40.562,Unsyncopated1,s76,23.0,masculino,left,España,"Castellano, Catalán, Lengua de Signos Catalana",Bachelor degree,no,no,A,2,conjunction_un,L1,unsyncopated,s2,r1,13,Online_conjL1_un//a.pu.ki0.888.1776.wav,ni,zu,ne,sil,pu,fa,ze,sil1,ki,ri,sil2,['catch'],[2.486300000190795],[2.486300000190795],1.776,beat,0.7103000001907949,0.7103000001907949,"[""space""]",ki,2,,,,,,,,,,,,,,,6.0,3.0,Catalán,0.0,Castellano,0.0,LSC,0.0,Inglés,6.0,Francés,18.0,Italiano,21.0,5.0,4.0,no,no,yes,Flauta dulce,6,,,nada,64.0,yes
150,2023-11-13_17h24.40.562,Unsyncopated1,s76,23.0,masculino,left,España,"Castellano, Catalán, Lengua de Signos Catalana",Bachelor degree,no,no,A,2,conjunction_un,L1,unsyncopated,s1,r2,14,Online_conjL1_un//a.pu.ki3.none.none.wav,ta,fo,lu,sil,be,ze,cho,sil1,ri,la,sil2,['-'],,,none,none,,,,ki,2,,,,,,,,,,,,,,,6.0,3.0,Catalán,0.0,Castellano,0.0,LSC,0.0,Inglés,6.0,Francés,18.0,Italiano,21.0,5.0,4.0,no,no,yes,Flauta dulce,6,,,nada,64.0,yes
151,2023-11-13_17h24.40.562,Unsyncopated1,s76,23.0,masculino,left,España,"Castellano, Catalán, Lengua de Signos Catalana",Bachelor degree,no,no,A,2,conjunction_un,L1,unsyncopated,s2,r1,15,Online_conjL1_un//a.pu.ki1.888.1776.wav,ro,fa,ne,sil,pu,lu,cho,sil1,ki,ri,sil2,['catch'],[2.553099999904589],[2.553099999904589],1.776,beat,0.7770999999045889,0.7770999999045889,"[""space""]",ki,2,,,,,,,,,,,,,,,6.0,3.0,Catalán,0.0,Castellano,0.0,LSC,0.0,Inglés,6.0,Francés,18.0,Italiano,21.0,5.0,4.0,no,no,yes,Flauta dulce,6,,,nada,64.0,yes
152,2023-11-13_17h24.40.562,Unsyncopated1,s76,23.0,masculino,left,España,"Castellano, Catalán, Lengua de Signos Catalana",Bachelor degree,no,no,A,2,conjunction_un,L1,unsyncopated,s2,r2,16,Online_conjL1_un//c.ro.fo25.none.none.wav,ni,cho,fa,sil,ta,zu,la,sil1,be,lu,sil2,['-'],,,none,none,,,,ro,3,,,,,,,,,,,,,,,6.0,3.0,Catalán,0.0,Castellano,0.0,LSC,0.0,Inglés,6.0,Francés,18.0,Italiano,21.0,5.0,4.0,no,no,yes,Flauta dulce,6,,,nada,64.0,yes
153,2023-11-13_17h24.40.562,Unsyncopated1,s76,23.0,masculino,left,España,"Castellano, Catalán, Lengua de Signos Catalana",Bachelor degree,no,no,A,2,conjunction_un,L1,unsyncopated,s2,r1,17,Online_conjL1_un//c.ro.fo26.1332.0.wav,fo,lu,ne,sil,pu,ri,ro,sil1,ki,ze,sil2,['catch'],[2.220599999904607],[2.220599999904607],1.332,no_beat,0.888599999904607,0.888599999904607,"[""space""]",ro,3,,,,,,,,,,,,,,,6.0,3.0,Catalán,0.0,Castellano,0.0,LSC,0.0,Inglés,6.0,Francés,18.0,Italiano,21.0,5.0,4.0,no,no,yes,Flauta dulce,6,,,nada,64.0,yes
154,2023-11-13_17h24.40.562,Unsyncopated1,s76,23.0,masculino,left,España,"Castellano, Catalán, Lengua de Signos Catalana",Bachelor degree,no,no,A,2,conjunction_un,L1,unsyncopated,s2,r1,18,Online_conjL1_un//c.ro.fo24.none.none.wav,la,lu,cho,sil,pu,fa,ri,sil1,ki,ze,sil2,['-'],,,none,none,,,,ro,3,,,,,,,,,,,,,,,6.0,3.0,Catalán,0.0,Castellano,0.0,LSC,0.0,Inglés,6.0,Francés,18.0,Italiano,21.0,5.0,4.0,no,no,yes,Flauta dulce,6,,,nada,64.0,yes
155,2023-11-13_17h24.40.562,Unsyncopated1,s76,23.0,masculino,left,España,"Castellano, Catalán, Lengua de Signos Catalana",Bachelor degree,no,no,A,2,conjunction_un,L1,unsyncopated,s1,r1,19,Online_conjL1_un//c.ro.fo27.1332.222.wav,pu,fo,lu,sil,ki,la,ro,sil1,ze,zu,sil2,['catch'],[2.013599999904727],[2.013599999904727],1.332,no_beat,0.6815999999047271,0.6815999999047271,"[""space""]",ro,3,,,,,,,,,,,,,,,6.0,3.0,Catalán,0.0,Castellano,0.0,LSC,0.0,Inglés,6.0,Francés,18.0,Italiano,21.0,5.0,4.0,no,no,yes,Flauta dulce,6,,,nada,64.0,yes
156,2023-11-13_17h24.40.562,Unsyncopated1,s76,23.0,masculino,left,España,"Castellano, Catalán, Lengua de Signos Catalana",Bachelor degree,no,no,A,2,conjunction_un,L1,unsyncopated,s2,r1,20,Online_conjL1_un//b.ta.be7.none.none.wav,zu,fa,lu,sil,pu,fo,ri,sil1,ki,ne,sil2,['-'],,,none,none,,,,ta,1,,,,,,,,,,,,,,,6.0,3.0,Catalán,0.0,Castellano,0.0,LSC,0.0,Inglés,6.0,Francés,18.0,Italiano,21.0,5.0,4.0,no,no,yes,Flauta dulce,6,,,nada,64.0,yes
157,2023-11-13_17h24.40.562,Unsyncopated1,s76,23.0,masculino,left,España,"Castellano, Catalán, Lengua de Signos Catalana",Bachelor degree,no,no,A,2,conjunction_un,L1,unsyncopated,s2,r1,21,Online_conjL1_un//b.ta.be6.none.none.wav,la,fo,cho,sil,pu,fa,ro,sil1,ki,ze,sil2,['-'],,,none,none,,,,ta,1,,,,,,,,,,,,,,,6.0,3.0,Catalán,0.0,Castellano,0.0,LSC,0.0,Inglés,6.0,Francés,18.0,Italiano,21.0,5.0,4.0,no,no,yes,Flauta dulce,6,,,nada,64.0,yes
158,2023-11-13_17h24.40.562,Unsyncopated1,s76,23.0,masculino,left,España,"Castellano, Catalán, Lengua de Signos Catalana",Bachelor degree,no,no,A,2,conjunction_un,L1,unsyncopated,s2,r1,22,Online_conjL1_un//b.ta.be5.none.none.wav,ri,ni,fo,sil,pu,la,ze,sil1,ki,zu,sil2,['-'],,,none,none,,,,ta,1,,,,,,,,,,,,,,,6.0,3.0,Catalán,0.0,Castellano,0.0,LSC,0.0,Inglés,6.0,Francés,18.0,Italiano,21.0,5.0,4.0,no,no,yes,Flauta dulce,6,,,nada,64.0,yes
159,2023-11-13_17h24.40.562,Unsyncopated1,s76,23.0,masculino,left,España,"Castellano, Catalán, Lengua de Signos Catalana",Bachelor degree,no,no,A,2,conjunction_un,L1,unsyncopated,s2,r2,23,Online_conjL1_un//b.ta.be4.888.1776.wav,fa,ri,cho,sil,ta,ni,ze,sil1,be,ro,sil2,['catch'],[1.7257000002862242],[1.7257000002862242],0.888,beat,0.8377000002862242,0.8377000002862242,"[""space""]",ta,1,,,,,,,,,,,,,,,6.0,3.0,Catalán,0.0,Castellano,0.0,LSC,0.0,Inglés,6.0,Francés,18.0,Italiano,21.0,5.0,4.0,no,no,yes,Flauta dulce,6,,,nada,64.0,yes
160,2023-11-13_17h24.40.562,Unsyncopated1,s76,23.0,masculino,left,España,"Castellano, Catalán, Lengua de Signos Catalana",Bachelor degree,no,no,A,2,conjunction_un,L1,unsyncopated,s1,r1,24,Online_conjL1_un//c.ro.fo29.1110.1332.wav,pu,fa,ni,sil,ki,ro,fo,sil1,zu,cho,sil2,['catch'],[2.0043000001905966],[2.0043000001905966],1.11,no_beat,0.8943000001905965,0.8943000001905965,"[""space""]",ro,3,,,,,,,,,,,,,,,6.0,3.0,Catalán,0.0,Castellano,0.0,LSC,0.0,Inglés,6.0,Francés,18.0,Italiano,21.0,5.0,4.0,no,no,yes,Flauta dulce,6,,,nada,64.0,yes
161,2023-11-13_17h24.40.562,Unsyncopated1,s76,23.0,masculino,left,España,"Castellano, Catalán, Lengua de Signos Catalana",Bachelor degree,no,no,A,2,conjunction_un,L1,unsyncopated,s1,r1,25,Online_conjL1_un//c.ro.fo30.none.none.wav,pu,ni,cho,sil,ki,la,lu,sil1,ne,fa,sil2,['-'],,,none,none,,,,ro,3,,,,,,,,,,,,,,,6.0,3.0,Catalán,0.0,Castellano,0.0,LSC,0.0,Inglés,6.0,Francés,18.0,Italiano,21.0,5.0,4.0,no,no,yes,Flauta dulce,6,,,nada,64.0,yes
162,2023-11-13_17h24.40.562,Unsyncopated1,s76,23.0,masculino,left,España,"Castellano, Catalán, Lengua de Signos Catalana",Bachelor degree,no,no,A,2,conjunction_un,L1,unsyncopated,s2,r2,26,Online_conjL1_un//c.ro.fo31.0.1110.wav,ro,ne,zu,sil,ta,fo,cho,sil1,be,ri,sil2,['catch'],[0.8299000000954493],[0.8299000000954493],0.0,beat,0.8299000000954493,0.8299000000954493,"[""space""]",ro,3,,,,,,,,,,,,,,,6.0,3.0,Catalán,0.0,Castellano,0.0,LSC,0.0,Inglés,6.0,Francés,18.0,Italiano,21.0,5.0,4.0,no,no,yes,Flauta dulce,6,,,nada,64.0,yes
163,2023-11-13_17h24.40.562,Unsyncopated1,s76,23.0,masculino,left,España,"Castellano, Catalán, Lengua de Signos Catalana",Bachelor degree,no,no,A,2,conjunction_un,L1,unsyncopated,s1,r2,27,Online_conjL1_un//c.ro.fo28.444.1110.wav,ta,lu,ro,sil,be,fo,ri,sil1,cho,fa,sil2,['catch'],[1.3723999996184375],[1.3723999996184375],0.444,no_beat,0.9283999996184376,0.9283999996184376,"[""space""]",ro,3,,,,,,,,,,,,,,,6.0,3.0,Catalán,0.0,Castellano,0.0,LSC,0.0,Inglés,6.0,Francés,18.0,Italiano,21.0,5.0,4.0,no,no,yes,Flauta dulce,6,,,nada,64.0,yes
164,2023-11-13_17h24.40.562,Unsyncopated1,s76,23.0,masculino,left,España,"Castellano, Catalán, Lengua de Signos Catalana",Bachelor degree,no,no,A,2,conjunction_un,L1,unsyncopated,s1,r2,28,Online_conjL1_un//d.ne.ni5.1332.444.wav,ta,fa,ni,sil,be,cho,ne,sil1,ri,lu,sil2,['miss'],,,1.332,no_beat,,,,ne,4,,,,,,,,,,,,,,,6.0,3.0,Catalán,0.0,Castellano,0.0,LSC,0.0,Inglés,6.0,Francés,18.0,Italiano,21.0,5.0,4.0,no,no,yes,Flauta dulce,6,,,nada,64.0,yes
165,2023-11-13_17h24.40.562,Unsyncopated1,s76,23.0,masculino,left,España,"Castellano, Catalán, Lengua de Signos Catalana",Bachelor degree,no,no,A,2,conjunction_un,L1,unsyncopated,s2,r1,29,Online_conjL1_un//d.ne.ni6.0.1110.wav,ne,ro,ze,sil,pu,ni,ri,sil1,ki,zu,sil2,['catch'],[0.7922000002861296],[0.7922000002861296],0.0,beat,0.7922000002861296,0.7922000002861296,"[""space""]",ne,4,,,,,,,,,,,,,,,6.0,3.0,Catalán,0.0,Castellano,0.0,LSC,0.0,Inglés,6.0,Francés,18.0,Italiano,21.0,5.0,4.0,no,no,yes,Flauta dulce,6,,,nada,64.0,yes
166,2023-11-13_17h24.40.562,Unsyncopated1,s76,23.0,masculino,left,España,"Castellano, Catalán, Lengua de Signos Catalana",Bachelor degree,no,no,A,2,conjunction_un,L1,unsyncopated,s2,r2,30,Online_conjL1_un//d.ne.ni7.none.none.wav,cho,ro,la,sil,ta,ze,fa,sil1,be,lu,sil2,['-'],,,none,none,,,,ne,4,,,,,,,,,,,,,,,6.0,3.0,Catalán,0.0,Castellano,0.0,LSC,0.0,Inglés,6.0,Francés,18.0,Italiano,21.0,5.0,4.0,no,no,yes,Flauta dulce,6,,,nada,64.0,yes
167,2023-11-13_17h24.40.562,Unsyncopated1,s76,23.0,masculino,left,España,"Castellano, Catalán, Lengua de Signos Catalana",Bachelor degree,no,no,A,2,conjunction_un,L1,unsyncopated,s1,r2,31,Online_conjL1_un//d.ne.ni4.1110.1332.wav,ta,lu,la,sil,be,ne,ni,sil1,fa,fo,sil2,['catch'],[2.019899999618474],[2.019899999618474],1.11,no_beat,0.9098999996184738,0.9098999996184738,"[""space""]",ne,4,,,,,,,,,,,,,,,6.0,3.0,Catalán,0.0,Castellano,0.0,LSC,0.0,Inglés,6.0,Francés,18.0,Italiano,21.0,5.0,4.0,no,no,yes,Flauta dulce,6,,,nada,64.0,yes
168,2023-11-13_17h24.40.562,Unsyncopated1,s76,23.0,masculino,left,España,"Castellano, Catalán, Lengua de Signos Catalana",Bachelor degree,no,no,A,2,conjunction_un,L1,unsyncopated,s2,r2,32,Online_conjL1_un//a.pu.ki18.none.none.wav,zu,ro,ze,sil,ta,fa,cho,sil1,be,ne,sil2,['-'],,,none,none,,,,ki,2,,,,,,,,,,,,,,,6.0,3.0,Catalán,0.0,Castellano,0.0,LSC,0.0,Inglés,6.0,Francés,18.0,Italiano,21.0,5.0,4.0,no,no,yes,Flauta dulce,6,,,nada,64.0,yes
169,2023-11-13_17h24.40.562,Unsyncopated1,s76,23.0,masculino,left,España,"Castellano, Catalán, Lengua de Signos Catalana",Bachelor degree,no,no,A,2,conjunction_un,L1,unsyncopated,s2,r1,33,Online_conjL1_un//a.pu.ki17.888.1776.wav,ne,ro,ze,sil,pu,fo,lu,sil1,ki,zu,sil2,['catch'],[2.6039999999998145],[2.6039999999998145],1.776,beat,0.8279999999998144,0.8279999999998144,"[""space""]",ki,2,,,,,,,,,,,,,,,6.0,3.0,Catalán,0.0,Castellano,0.0,LSC,0.0,Inglés,6.0,Francés,18.0,Italiano,21.0,5.0,4.0,no,no,yes,Flauta dulce,6,,,nada,64.0,yes
170,2023-11-13_17h24.40.562,Unsyncopated1,s76,23.0,masculino,left,España,"Castellano, Catalán, Lengua de Signos Catalana",Bachelor degree,no,no,A,2,conjunction_un,L1,unsyncopated,s2,r2,34,Online_conjL1_un//a.pu.ki19.none.none.wav,ze,fo,cho,sil,ta,fa,lu,sil1,be,ne,sil2,['-'],,,none,none,,,,ki,2,,,,,,,,,,,,,,,6.0,3.0,Catalán,0.0,Castellano,0.0,LSC,0.0,Inglés,6.0,Francés,18.0,Italiano,21.0,5.0,4.0,no,no,yes,Flauta dulce,6,,,nada,64.0,yes
171,2023-11-13_17h24.40.562,Unsyncopated1,s76,23.0,masculino,left,España,"Castellano, Catalán, Lengua de Signos Catalana",Bachelor degree,no,no,A,2,conjunction_un,L1,unsyncopated,s2,r2,35,Online_conjL1_un//a.pu.ki16.none.none.wav,ze,zu,ni,sil,ta,lu,ne,sil1,be,ri,sil2,['-'],,,none,none,,,,ki,2,,,,,,,,,,,,,,,6.0,3.0,Catalán,0.0,Castellano,0.0,LSC,0.0,Inglés,6.0,Francés,18.0,Italiano,21.0,5.0,4.0,no,no,yes,Flauta dulce,6,,,nada,64.0,yes
172,2023-11-13_17h24.40.562,Unsyncopated1,s76,23.0,masculino,left,España,"Castellano, Catalán, Lengua de Signos Catalana",Bachelor degree,no,no,A,2,conjunction_un,L1,unsyncopated,s1,r1,36,Online_conjL1_un//b.ta.be1.none.none.wav,pu,fa,ne,sil,ki,fo,lu,sil1,cho,la,sil2,['-'],,,none,none,,,,ta,1,,,,,,,,,,,,,,,6.0,3.0,Catalán,0.0,Castellano,0.0,LSC,0.0,Inglés,6.0,Francés,18.0,Italiano,21.0,5.0,4.0,no,no,yes,Flauta dulce,6,,,nada,64.0,yes
173,2023-11-13_17h24.40.562,Unsyncopated1,s76,23.0,masculino,left,España,"Castellano, Catalán, Lengua de Signos Catalana",Bachelor degree,no,no,A,2,conjunction_un,L1,unsyncopated,s1,r2,37,Online_conjL1_un//b.ta.be3.0.888.wav,ta,fa,ri,sil,be,lu,ro,sil1,zu,la,sil2,['catch'],[0.8012999997138195],[0.8012999997138195],0.0,beat,0.8012999997138195,0.8012999997138195,"[""space""]",ta,1,,,,,,,,,,,,,,,6.0,3.0,Catalán,0.0,Castellano,0.0,LSC,0.0,Inglés,6.0,Francés,18.0,Italiano,21.0,5.0,4.0,no,no,yes,Flauta dulce,6,,,nada,64.0,yes
174,2023-11-13_17h24.40.562,Unsyncopated1,s76,23.0,masculino,left,España,"Castellano, Catalán, Lengua de Signos Catalana",Bachelor degree,no,no,A,2,conjunction_un,L1,unsyncopated,s1,r1,38,Online_conjL1_un//b.ta.be2.none.none.wav,pu,ro,ri,sil,ki,fa,la,sil1,ze,zu,sil2,['false alarm'],[1.8615999999044561],[1.8615999999044561],none,none,,,"[""space""]",ta,1,,,,,,,,,,,,,,,6.0,3.0,Catalán,0.0,Castellano,0.0,LSC,0.0,Inglés,6.0,Francés,18.0,Italiano,21.0,5.0,4.0,no,no,yes,Flauta dulce,6,,,nada,64.0,yes
175,2023-11-13_17h24.40.562,Unsyncopated1,s76,23.0,masculino,left,España,"Castellano, Catalán, Lengua de Signos Catalana",Bachelor degree,no,no,A,2,conjunction_un,L1,unsyncopated,s2,r1,39,Online_conjL1_un//b.ta.be0.none.none.wav,fa,fo,ze,sil,pu,ri,zu,sil1,ki,ne,sil2,['-'],,,none,none,,,,ta,1,,,,,,,,,,,,,,,6.0,3.0,Catalán,0.0,Castellano,0.0,LSC,0.0,Inglés,6.0,Francés,18.0,Italiano,21.0,5.0,4.0,no,no,yes,Flauta dulce,6,,,nada,64.0,yes
176,2023-11-13_17h24.40.562,Unsyncopated1,s76,23.0,masculino,left,España,"Castellano, Catalán, Lengua de Signos Catalana",Bachelor degree,no,no,A,2,conjunction_un,L1,unsyncopated,s1,r1,40,Online_conjL1_un//c.ro.fo6.none.none.wav,pu,ne,la,sil,ki,ze,ni,sil1,zu,ri,sil2,['-'],,,none,none,,,,ro,3,,,,,,,,,,,,,,,6.0,3.0,Catalán,0.0,Castellano,0.0,LSC,0.0,Inglés,6.0,Francés,18.0,Italiano,21.0,5.0,4.0,no,no,yes,Flauta dulce,6,,,nada,64.0,yes
177,2023-11-13_17h24.40.562,Unsyncopated1,s76,23.0,masculino,left,España,"Castellano, Catalán, Lengua de Signos Catalana",Bachelor degree,no,no,A,2,conjunction_un,L1,unsyncopated,s2,r2,41,Online_conjL1_un//c.ro.fo7.444.1110.wav,ni,lu,ro,sil,ta,fo,fa,sil1,be,la,sil2,['catch'],[1.1894999999999527],[1.1894999999999527],0.444,no_beat,0.7454999999999528,0.7454999999999528,"[""space""]",ro,3,,,,,,,,,,,,,,,6.0,3.0,Catalán,0.0,Castellano,0.0,LSC,0.0,Inglés,6.0,Francés,18.0,Italiano,21.0,5.0,4.0,no,no,yes,Flauta dulce,6,,,nada,64.0,yes
178,2023-11-13_17h24.40.562,Unsyncopated1,s76,23.0,masculino,left,España,"Castellano, Catalán, Lengua de Signos Catalana",Bachelor degree,no,no,A,2,conjunction_un,L1,unsyncopated,s2,r1,42,Online_conjL1_un//c.ro.fo5.1110.222.wav,ze,fo,lu,sil,pu,ro,zu,sil1,ki,la,sil2,['catch'],[1.904400000095393],[1.904400000095393],1.11,no_beat,0.7944000000953928,0.7944000000953928,"[""space""]",ro,3,,,,,,,,,,,,,,,6.0,3.0,Catalán,0.0,Castellano,0.0,LSC,0.0,Inglés,6.0,Francés,18.0,Italiano,21.0,5.0,4.0,no,no,yes,Flauta dulce,6,,,nada,64.0,yes
179,2023-11-13_17h24.40.562,Unsyncopated1,s76,23.0,masculino,left,España,"Castellano, Catalán, Lengua de Signos Catalana",Bachelor degree,no,no,A,2,conjunction_un,L1,unsyncopated,s2,r2,43,Online_conjL1_un//c.ro.fo4.0.1110.wav,ro,lu,fa,sil,ta,fo,ne,sil1,be,ni,sil2,['catch'],[0.8377000002860768],[0.8377000002860768],0.0,beat,0.8377000002860768,0.8377000002860768,"[""space""]",ro,3,,,,,,,,,,,,,,,6.0,3.0,Catalán,0.0,Castellano,0.0,LSC,0.0,Inglés,6.0,Francés,18.0,Italiano,21.0,5.0,4.0,no,no,yes,Flauta dulce,6,,,nada,64.0,yes
180,2023-11-13_17h24.40.562,Unsyncopated1,s76,23.0,masculino,left,España,"Castellano, Catalán, Lengua de Signos Catalana",Bachelor degree,no,no,A,2,conjunction_un,L1,unsyncopated,s1,r1,44,Online_conjL1_un//d.ne.ni30.none.none.wav,pu,la,ro,sil,ki,ze,fa,sil1,ri,lu,sil2,['-'],,,none,none,,,,ne,4,,,,,,,,,,,,,,,6.0,3.0,Catalán,0.0,Castellano,0.0,LSC,0.0,Inglés,6.0,Francés,18.0,Italiano,21.0,5.0,4.0,no,no,yes,Flauta dulce,6,,,nada,64.0,yes
181,2023-11-13_17h24.40.562,Unsyncopated1,s76,23.0,masculino,left,España,"Castellano, Catalán, Lengua de Signos Catalana",Bachelor degree,no,no,A,2,conjunction_un,L1,unsyncopated,s1,r1,45,Online_conjL1_un//d.ne.ni28.none.none.wav,pu,ro,ri,sil,ki,la,zu,sil1,lu,cho,sil2,['-'],,,none,none,,,,ne,4,,,,,,,,,,,,,,,6.0,3.0,Catalán,0.0,Castellano,0.0,LSC,0.0,Inglés,6.0,Francés,18.0,Italiano,21.0,5.0,4.0,no,no,yes,Flauta dulce,6,,,nada,64.0,yes
182,2023-11-13_17h24.40.562,Unsyncopated1,s76,23.0,masculino,left,España,"Castellano, Catalán, Lengua de Signos Catalana",Bachelor degree,no,no,A,2,conjunction_un,L1,unsyncopated,s2,r2,46,Online_conjL1_un//d.ne.ni29.0.444.wav,ne,ro,ni,sil,ta,fa,cho,sil1,be,ri,sil2,['catch'],[0.9831000003814552],[0.9831000003814552],0.0,beat,0.9831000003814552,0.9831000003814552,"[""space""]",ne,4,,,,,,,,,,,,,,,6.0,3.0,Catalán,0.0,Castellano,0.0,LSC,0.0,Inglés,6.0,Francés,18.0,Italiano,21.0,5.0,4.0,no,no,yes,Flauta dulce,6,,,nada,64.0,yes
183,2023-11-13_17h24.40.562,Unsyncopated1,s76,23.0,masculino,left,España,"Castellano, Catalán, Lengua de Signos Catalana",Bachelor degree,no,no,A,2,conjunction_un,L1,unsyncopated,s1,r2,47,Online_conjL1_un//d.ne.ni31.none.none.wav,ta,ro,cho,sil,be,ri,lu,sil1,fo,fa,sil2,['-'],,,none,none,,,,ne,4,,,,,,,,,,,,,,,6.0,3.0,Catalán,0.0,Castellano,0.0,LSC,0.0,Inglés,6.0,Francés,18.0,Italiano,21.0,5.0,4.0,no,no,yes,Flauta dulce,6,,,nada,64.0,yes
184,2023-11-13_17h24.40.562,Unsyncopated1,s76,23.0,masculino,left,España,"Castellano, Catalán, Lengua de Signos Catalana",Bachelor degree,no,no,A,2,conjunction_un,L1,unsyncopated,s2,r2,48,Online_conjL1_un//c.ro.fo14.none.none.wav,ne,ze,ri,sil,ta,ni,lu,sil1,be,fa,sil2,['-'],,,none,none,,,,ro,3,,,,,,,,,,,,,,,6.0,3.0,Catalán,0.0,Castellano,0.0,LSC,0.0,Inglés,6.0,Francés,18.0,Italiano,21.0,5.0,4.0,no,no,yes,Flauta dulce,6,,,nada,64.0,yes
185,2023-11-13_17h24.40.562,Unsyncopated1,s76,23.0,masculino,left,España,"Castellano, Catalán, Lengua de Signos Catalana",Bachelor degree,no,no,A,2,conjunction_un,L1,unsyncopated,s1,r1,49,Online_conjL1_un//c.ro.fo15.none.none.wav,pu,la,ri,sil,ki,lu,zu,sil1,cho,ni,sil2,['-'],,,none,none,,,,ro,3,,,,,,,,,,,,,,,6.0,3.0,Catalán,0.0,Castellano,0.0,LSC,0.0,Inglés,6.0,Francés,18.0,Italiano,21.0,5.0,4.0,no,no,yes,Flauta dulce,6,,,nada,64.0,yes
186,2023-11-13_17h24.40.562,Unsyncopated1,s76,23.0,masculino,left,España,"Castellano, Catalán, Lengua de Signos Catalana",Bachelor degree,no,no,A,2,conjunction_un,L1,unsyncopated,s2,r1,50,Online_conjL1_un//c.ro.fo12.222.1110.wav,lu,ro,cho,sil,pu,fo,ze,sil1,ki,la,sil2,['catch'],[1.1720999999045034],[1.1720999999045034],0.222,no_beat,0.9500999999045034,0.9500999999045034,"[""space""]",ro,3,,,,,,,,,,,,,,,6.0,3.0,Catalán,0.0,Castellano,0.0,LSC,0.0,Inglés,6.0,Francés,18.0,Italiano,21.0,5.0,4.0,no,no,yes,Flauta dulce,6,,,nada,64.0,yes
187,2023-11-13_17h24.40.562,Unsyncopated1,s76,23.0,masculino,left,España,"Castellano, Catalán, Lengua de Signos Catalana",Bachelor degree,no,no,A,2,conjunction_un,L1,unsyncopated,s1,r2,51,Online_conjL1_un//c.ro.fo13.1332.222.wav,ta,fo,fa,sil,be,ri,ro,sil1,ne,cho,sil2,['miss'],,,1.332,no_beat,,,,ro,3,,,,,,,,,,,,,,,6.0,3.0,Catalán,0.0,Castellano,0.0,LSC,0.0,Inglés,6.0,Francés,18.0,Italiano,21.0,5.0,4.0,no,no,yes,Flauta dulce,6,,,nada,64.0,yes
188,2023-11-13_17h24.40.562,Unsyncopated1,s76,23.0,masculino,left,España,"Castellano, Catalán, Lengua de Signos Catalana",Bachelor degree,no,no,A,2,conjunction_un,L1,unsyncopated,s2,r2,52,Online_conjL1_un//a.pu.ki31.none.none.wav,ze,la,ni,sil,ta,ne,lu,sil1,be,cho,sil2,['-'],,,none,none,,,,ki,2,,,,,,,,,,,,,,,6.0,3.0,Catalán,0.0,Castellano,0.0,LSC,0.0,Inglés,6.0,Francés,18.0,Italiano,21.0,5.0,4.0,no,no,yes,Flauta dulce,6,,,nada,64.0,yes
189,2023-11-13_17h24.40.562,Unsyncopated1,s76,23.0,masculino,left,España,"Castellano, Catalán, Lengua de Signos Catalana",Bachelor degree,no,no,A,2,conjunction_un,L1,unsyncopated,s2,r2,53,Online_conjL1_un//a.pu.ki28.none.none.wav,ne,zu,ze,sil,ta,ni,fa,sil1,be,lu,sil2,['-'],,,none,none,,,,ki,2,,,,,,,,,,,,,,,6.0,3.0,Catalán,0.0,Castellano,0.0,LSC,0.0,Inglés,6.0,Francés,18.0,Italiano,21.0,5.0,4.0,no,no,yes,Flauta dulce,6,,,nada,64.0,yes
