Unnamed: 0,date,expName,participant,age,sex,hand,residence,native_lang,education_level,lang_deficit,aud_deficit,group,block,condition,language,rhythm,rule structure online,rule type online,order_trial_on,trial_online,s1,s2,s3,s4,s5,s6,s7,s8,s9,s10,s11,catch_syll_resp,rts_syll_catch,clean_rts,time_syll,beat_no_beat,catch_rtsTR,catch_rts,syllable_catch.keys,cond_syll,syll_to_catch,test_offline,block_off,condition_off,rhythm_off,rule,rule_str_off,rule_norule,conds_offline,language_off,Partz_no_partm.keys,Partz_no_partm.rt,security_1_7.keys,accuracy,security_1_7.rt,n_lang,n_lang_used,lang_1,age_l1,lang_2,age_l2,lang_3,age_l3,ability_learn_l2,tendence_mix_lan,music_experience,muisc_use,partiture,instr_1,age_M1,instr_2,age_M2,preguntas_musica1,BMRQ_answer.response,final comment,BMRQ_Score,bilingual
0,2024-04-16_12h29.51.504,Experiment4_uns,s184,22 ,feminino,right,España,Catalán y castellano,Bachelor degree,no,no,B,1,when,L2,unsyncopated,when,when,0,Online_whenL2//d.si17.none.wav,mi,su,to,sil,go,ño,du,sil1,cha,ñu,sil2,['-'],,,none,none,,,,si,4,testWhenL2Uns//r1.s2.1.wav,1.0,when,unsyncopated,a,s2,rule,rule,L2,z,1.7128,5.0,1.0,3.1627,3.0,3.0,Catalán,0.0,Castellano,0.0,Inglés,6.0,4.0,6.0,no,no,yes,Nada,,Flauta en el cole no se si cuenta,,1. Cuando comparto música con alguien siento una complicidad especial con aquella persona.,4.0,Ha ido muy bien pero estaba un poco saturada de tantos lenguajes y en el apartado 3 muchos me parecían casi iguales.,68.0,yes
1,2024-04-16_12h29.51.504,Experiment4_uns,s184,22 ,feminino,right,España,Catalán y castellano,Bachelor degree,no,no,B,1,when,L2,unsyncopated,when,when,1,Online_whenL2//d.si18.222.wav,ñu,si,bi,sil,cha,du,me,sil1,fe,ño,sil2,"['catch', 'false alarm']","[0.7747999999969579, 1.571399999998448]",[0.7747999999969579],0.222,no_beat,0.552799999996958,0.552799999996958,"[""space"",""space""]",si,4,testWhenL2Uns//dep_viol.r1.s2.0.wav,1.0,when,unsyncopated,a,s2,no_rule,dep,L2,z,5.8281,2.0,1.0,1.7001,3.0,3.0,Catalán,0.0,Castellano,0.0,Inglés,6.0,4.0,6.0,no,no,yes,Nada,,Flauta en el cole no se si cuenta,,2. En mi tiempo libre apenas escucho música.,5.0,Ha ido muy bien pero estaba un poco saturada de tantos lenguajes y en el apartado 3 muchos me parecían casi iguales.,68.0,yes
2,2024-04-16_12h29.51.504,Experiment4_uns,s184,22 ,feminino,right,España,Catalán y castellano,Bachelor degree,no,no,B,1,when,L2,unsyncopated,when,when,2,Online_whenL2//d.si16.none.wav,su,fe,mi,sil,ño,te,me,sil1,du,ba,sil2,['-'],,,none,none,,,,si,4,testWhenL2Uns//r1.s1.2.wav,1.0,when,unsyncopated,a,s1,rule,rule,L2,m,0.5385,4.0,0.0,1.7834,3.0,3.0,Catalán,0.0,Castellano,0.0,Inglés,6.0,4.0,6.0,no,no,yes,Nada,,Flauta en el cole no se si cuenta,,3. Algunas canciones me ponen los pelos de punta,4.0,Ha ido muy bien pero estaba un poco saturada de tantos lenguajes y en el apartado 3 muchos me parecían casi iguales.,68.0,yes
3,2024-04-16_12h29.51.504,Experiment4_uns,s184,22 ,feminino,right,España,Catalán y castellano,Bachelor degree,no,no,B,1,when,L2,unsyncopated,when,when,3,Online_whenL2//d.si19.none.wav,bi,mi,su,sil,me,cha,du,sil1,fe,te,sil2,['-'],,,none,none,,,,si,4,testWhenL2Uns//cat_viol.r2.s1.0.wav,1.0,when,unsyncopated,b,s1,no_rule,cat,L2,z,0.8499,5.0,1.0,2.3659,3.0,3.0,Catalán,0.0,Castellano,0.0,Inglés,6.0,4.0,6.0,no,no,yes,Nada,,Flauta en el cole no se si cuenta,,4. La música me hace compañía cuando estoy solo,4.0,Ha ido muy bien pero estaba un poco saturada de tantos lenguajes y en el apartado 3 muchos me parecían casi iguales.,68.0,yes
4,2024-04-16_12h29.51.504,Experiment4_uns,s184,22 ,feminino,right,España,Catalán y castellano,Bachelor degree,no,no,B,1,when,L2,unsyncopated,when,when,4,Online_whenL2//b.fe11.1332.wav,ba,bi,go,sil,su,mi,fe,sil1,si,me,sil2,['catch'],[2.196100000001479],[2.196100000001479],1.332,no_beat,0.8641000000014791,0.8641000000014791,"[""space""]",fe,2,testWhenL2Uns//r2.s2.1.wav,1.0,when,unsyncopated,b,s2,rule,rule,L2,z,4.6128,3.0,1.0,1.2533,3.0,3.0,Catalán,0.0,Castellano,0.0,Inglés,6.0,4.0,6.0,no,no,yes,Nada,,Flauta en el cole no se si cuenta,,5. No me apetece bailar ni con la música que más me gusta,5.0,Ha ido muy bien pero estaba un poco saturada de tantos lenguajes y en el apartado 3 muchos me parecían casi iguales.,68.0,yes
5,2024-04-16_12h29.51.504,Experiment4_uns,s184,22 ,feminino,right,España,Catalán y castellano,Bachelor degree,no,no,B,1,when,L2,unsyncopated,when,when,5,Online_whenL2//b.fe10.none.wav,to,du,su,sil,mi,ño,ba,sil1,bi,ra,sil2,['-'],,,none,none,,,,fe,2,testWhenL2Uns//time_viol.r2.s2.0.wav,1.0,when,unsyncopated,b,s2,no_rule,time,L2,m,0.6162,6.0,0.0,1.6175,3.0,3.0,Catalán,0.0,Castellano,0.0,Inglés,6.0,4.0,6.0,no,no,yes,Nada,,Flauta en el cole no se si cuenta,,6. La música me hace conectar con la gente,3.0,Ha ido muy bien pero estaba un poco saturada de tantos lenguajes y en el apartado 3 muchos me parecían casi iguales.,68.0,yes
6,2024-04-16_12h29.51.504,Experiment4_uns,s184,22 ,feminino,right,España,Catalán y castellano,Bachelor degree,no,no,B,1,when,L2,unsyncopated,when,when,6,Online_whenL2//b.fe8.none.wav,su,to,go,sil,mi,ra,si,sil1,ba,ñu,sil2,['-'],,,none,none,,,,fe,2,testWhenL2Uns//r2.s1.2.wav,1.0,when,unsyncopated,b,s1,rule,rule,L2,m,2.7473,4.0,0.0,1.1972,3.0,3.0,Catalán,0.0,Castellano,0.0,Inglés,6.0,4.0,6.0,no,no,yes,Nada,,Flauta en el cole no se si cuenta,,7. Me informo sobre la música que me gusta.,4.0,Ha ido muy bien pero estaba un poco saturada de tantos lenguajes y en el apartado 3 muchos me parecían casi iguales.,68.0,yes
7,2024-04-16_12h29.51.504,Experiment4_uns,s184,22 ,feminino,right,España,Catalán y castellano,Bachelor degree,no,no,B,1,when,L2,unsyncopated,when,when,7,Online_whenL2//b.fe9.none.wav,du,ñu,su,sil,te,to,go,sil1,ño,me,sil2,['-'],,,none,none,,,,fe,2,testWhenL2Uns//r1.s2.2.wav,1.0,when,unsyncopated,a,s2,rule,rule,L2,z,0.5006,3.0,1.0,2.149,3.0,3.0,Catalán,0.0,Castellano,0.0,Inglés,6.0,4.0,6.0,no,no,yes,Nada,,Flauta en el cole no se si cuenta,,8.Me emociono escuchando ciertas canciones.,4.0,Ha ido muy bien pero estaba un poco saturada de tantos lenguajes y en el apartado 3 muchos me parecían casi iguales.,68.0,yes
8,2024-04-16_12h29.51.504,Experiment4_uns,s184,22 ,feminino,right,España,Catalán y castellano,Bachelor degree,no,no,B,1,when,L2,unsyncopated,when,when,8,Online_whenL2//c.cha8.none.wav,mi,si,to,sil,ra,ba,ño,sil1,du,su,sil2,['-'],,,none,none,,,,cha,3,testWhenL2Uns//time_viol.r2.s1.0.wav,1.0,when,unsyncopated,b,s1,no_rule,time,L2,m,0.4993,5.0,0.0,2.3321,3.0,3.0,Catalán,0.0,Castellano,0.0,Inglés,6.0,4.0,6.0,no,no,yes,Nada,,Flauta en el cole no se si cuenta,,9.La música me tranquiliza y me relaja.,3.0,Ha ido muy bien pero estaba un poco saturada de tantos lenguajes y en el apartado 3 muchos me parecían casi iguales.,68.0,yes
9,2024-04-16_12h29.51.504,Experiment4_uns,s184,22 ,feminino,right,España,Catalán y castellano,Bachelor degree,no,no,B,1,when,L2,unsyncopated,when,when,9,Online_whenL2//c.cha11.1998.wav,bi,te,ra,sil,si,su,ñu,sil1,go,cha,sil2,['catch'],[2.5201999999956115],[2.5201999999956115],1.998,no_beat,0.5221999999956115,0.5221999999956115,"[""space""]",cha,3,testWhenL2Uns//r1.s1.1.wav,1.0,when,unsyncopated,a,s1,rule,rule,L2,m,1.1185,3.0,0.0,1.1659,3.0,3.0,Catalán,0.0,Castellano,0.0,Inglés,6.0,4.0,6.0,no,no,yes,Nada,,Flauta en el cole no se si cuenta,,10.La música me hace bailar,4.0,Ha ido muy bien pero estaba un poco saturada de tantos lenguajes y en el apartado 3 muchos me parecían casi iguales.,68.0,yes
10,2024-04-16_12h29.51.504,Experiment4_uns,s184,22 ,feminino,right,España,Catalán y castellano,Bachelor degree,no,no,B,1,when,L2,unsyncopated,when,when,10,Online_whenL2//c.cha9.none.wav,go,ba,ñu,sil,bi,fe,to,sil1,mi,ño,sil2,['-'],,,none,none,,,,cha,3,testWhenL2Uns//dep_viol.r2.s2.0.wav,1.0,when,unsyncopated,b,s2,no_rule,dep,L2,m,0.5666,5.0,0.0,1.1536,3.0,3.0,Catalán,0.0,Castellano,0.0,Inglés,6.0,4.0,6.0,no,no,yes,Nada,,Flauta en el cole no se si cuenta,,11.Busco novedades musicales continuamente,3.0,Ha ido muy bien pero estaba un poco saturada de tantos lenguajes y en el apartado 3 muchos me parecían casi iguales.,68.0,yes
11,2024-04-16_12h29.51.504,Experiment4_uns,s184,22 ,feminino,right,España,Catalán y castellano,Bachelor degree,no,no,B,1,when,L2,unsyncopated,when,when,11,Online_whenL2//c.cha10.444.wav,mi,su,cha,sil,si,me,go,sil1,ra,ñu,sil2,['catch'],[1.2046000000015056],[1.2046000000015056],0.444,no_beat,0.7606000000015056,0.7606000000015056,"[""space""]",cha,3,testWhenL2Uns//dep_viol.r1.s1.0.wav,1.0,when,unsyncopated,a,s1,no_rule,dep,L2,z,0.5496,4.0,1.0,1.3146,3.0,3.0,Catalán,0.0,Castellano,0.0,Inglés,6.0,4.0,6.0,no,no,yes,Nada,,Flauta en el cole no se si cuenta,,12. Puedo llorar cuando escucho algunas melodías que me gustan mucho.,3.0,Ha ido muy bien pero estaba un poco saturada de tantos lenguajes y en el apartado 3 muchos me parecían casi iguales.,68.0,yes
12,2024-04-16_12h29.51.504,Experiment4_uns,s184,22 ,feminino,right,España,Catalán y castellano,Bachelor degree,no,no,B,1,when,L2,unsyncopated,when,when,12,Online_whenL2//a.du4.1998.wav,cha,si,go,sil,mi,ñu,me,sil1,su,du,sil2,['miss'],,,1.998,no_beat,,,,du,1,testWhenL2Uns//r1.s2.0.wav,1.0,when,unsyncopated,a,s2,rule,rule,L2,m,0.9385,7.0,0.0,0.767,3.0,3.0,Catalán,0.0,Castellano,0.0,Inglés,6.0,4.0,6.0,no,no,yes,Nada,,Flauta en el cole no se si cuenta,,13. Me gusta cantar o tocar un instrumento con más gente,0.0,Ha ido muy bien pero estaba un poco saturada de tantos lenguajes y en el apartado 3 muchos me parecían casi iguales.,68.0,yes
13,2024-04-16_12h29.51.504,Experiment4_uns,s184,22 ,feminino,right,España,Catalán y castellano,Bachelor degree,no,no,B,1,when,L2,unsyncopated,when,when,13,Online_whenL2//a.du7.0.wav,du,ño,te,sil,ñu,to,mi,sil1,su,fe,sil2,"['catch', 'false alarm']","[0.31530000000441305, 0.7982000000029075]",[0.31530000000441305],0.0,beat,0.315300000004413,0.315300000004413,"[""space"",""space""]",du,1,testWhenL2Uns//r2.s1.0.wav,1.0,when,unsyncopated,b,s1,rule,rule,L2,m,0.6505,3.0,0.0,0.742,3.0,3.0,Catalán,0.0,Castellano,0.0,Inglés,6.0,4.0,6.0,no,no,yes,Nada,,Flauta en el cole no se si cuenta,,14. La música me ayuda a desconectar.,3.0,Ha ido muy bien pero estaba un poco saturada de tantos lenguajes y en el apartado 3 muchos me parecían casi iguales.,68.0,yes
14,2024-04-16_12h29.51.504,Experiment4_uns,s184,22 ,feminino,right,España,Catalán y castellano,Bachelor degree,no,no,B,1,when,L2,unsyncopated,when,when,14,Online_whenL2//a.du6.888.wav,me,si,bi,sil,du,mi,cha,sil1,te,fe,sil2,['catch'],[1.530200000002992],[1.530200000002992],0.888,beat,0.642200000002992,0.642200000002992,"[""space""]",du,1,testWhenL2Uns//r2.s1.1.wav,1.0,when,unsyncopated,b,s1,rule,rule,L2,z,0.4833,2.0,1.0,0.7391,3.0,3.0,Catalán,0.0,Castellano,0.0,Inglés,6.0,4.0,6.0,no,no,yes,Nada,,Flauta en el cole no se si cuenta,,15. No puedo evitar tararear las canciones que me gustan cuando las escucho.,4.0,Ha ido muy bien pero estaba un poco saturada de tantos lenguajes y en el apartado 3 muchos me parecían casi iguales.,68.0,yes
15,2024-04-16_12h29.51.504,Experiment4_uns,s184,22 ,feminino,right,España,Catalán y castellano,Bachelor degree,no,no,B,1,when,L2,unsyncopated,when,when,15,Online_whenL2//a.du5.1110.wav,bi,ño,ra,sil,ba,du,mi,sil1,to,ñu,sil2,['catch'],[1.6527000000030512],[1.6527000000030512],1.11,no_beat,0.5427000000030511,0.5427000000030511,"[""space""]",du,1,testWhenL2Uns//r1.s1.0.wav,1.0,when,unsyncopated,a,s1,rule,rule,L2,z,0.6659,4.0,1.0,0.5163,3.0,3.0,Catalán,0.0,Castellano,0.0,Inglés,6.0,4.0,6.0,no,no,yes,Nada,,Flauta en el cole no se si cuenta,,16. En los conciertos me siento en sintonía con los artistas y el público.,4.0,Ha ido muy bien pero estaba un poco saturada de tantos lenguajes y en el apartado 3 muchos me parecían casi iguales.,68.0,yes
16,2024-04-16_12h29.51.504,Experiment4_uns,s184,22 ,feminino,right,España,Catalán y castellano,Bachelor degree,no,no,B,1,when,L2,unsyncopated,when,when,16,Online_whenL2//b.fe31.none.wav,me,si,ñu,sil,su,go,du,sil1,bi,ba,sil2,['-'],,,none,none,,,,fe,2,testWhenL2Uns//cat_viol.r2.s2.0.wav,1.0,when,unsyncopated,b,s2,no_rule,cat,L2,z,2.5863,3.0,1.0,1.5656,3.0,3.0,Catalán,0.0,Castellano,0.0,Inglés,6.0,4.0,6.0,no,no,yes,Nada,,Flauta en el cole no se si cuenta,,17. Me gasto bastante dinero en música y cosas relacionadas con la música.,2.0,Ha ido muy bien pero estaba un poco saturada de tantos lenguajes y en el apartado 3 muchos me parecían casi iguales.,68.0,yes
17,2024-04-16_12h29.51.504,Experiment4_uns,s184,22 ,feminino,right,España,Catalán y castellano,Bachelor degree,no,no,B,1,when,L2,unsyncopated,when,when,17,Online_whenL2//b.fe28.1776.wav,me,su,ba,sil,bi,ño,te,sil1,fe,du,sil2,"['catch', 'false alarm']","[2.163000000000011, 2.4781000000015183]",[2.163000000000011],1.776,beat,0.3870000000000109,0.3870000000000109,"[""space"",""space""]",fe,2,testWhenL2Uns//r2.s2.0.wav,1.0,when,unsyncopated,b,s2,rule,rule,L2,m,1.621,2.0,0.0,0.6903,3.0,3.0,Catalán,0.0,Castellano,0.0,Inglés,6.0,4.0,6.0,no,no,yes,Nada,,Flauta en el cole no se si cuenta,,18. Siento escalofríos cuando escucho una melodía que me gusta.,3.0,Ha ido muy bien pero estaba un poco saturada de tantos lenguajes y en el apartado 3 muchos me parecían casi iguales.,68.0,yes
18,2024-04-16_12h29.51.504,Experiment4_uns,s184,22 ,feminino,right,España,Catalán y castellano,Bachelor degree,no,no,B,1,when,L2,unsyncopated,when,when,18,Online_whenL2//b.fe29.none.wav,ra,ñu,du,sil,ño,bi,to,sil1,mi,su,sil2,['-'],,,none,none,,,,fe,2,testWhenL2Uns//dep_viol.r2.s1.0.wav,1.0,when,unsyncopated,b,s1,no_rule,dep,L2,z,2.3863,5.0,1.0,2.9968,3.0,3.0,Catalán,0.0,Castellano,0.0,Inglés,6.0,4.0,6.0,no,no,yes,Nada,,Flauta en el cole no se si cuenta,,19. Con la música me puedo desahogar.,2.0,Ha ido muy bien pero estaba un poco saturada de tantos lenguajes y en el apartado 3 muchos me parecían casi iguales.,68.0,yes
19,2024-04-16_12h29.51.504,Experiment4_uns,s184,22 ,feminino,right,España,Catalán y castellano,Bachelor degree,no,no,B,1,when,L2,unsyncopated,when,when,19,Online_whenL2//b.fe30.none.wav,ra,si,su,sil,ñu,go,te,sil1,to,ño,sil2,['-'],,,none,none,,,,fe,2,testWhenL2Uns//cat_viol.r1.s1.0.wav,1.0,when,unsyncopated,a,s1,no_rule,cat,L2,z,0.7326,4.0,1.0,0.5716,3.0,3.0,Catalán,0.0,Castellano,0.0,Inglés,6.0,4.0,6.0,no,no,yes,Nada,,Flauta en el cole no se si cuenta,,20. Cuando escucho una melodía que me gusta mucho no puedo evitar mover el cuerpo.,4.0,Ha ido muy bien pero estaba un poco saturada de tantos lenguajes y en el apartado 3 muchos me parecían casi iguales.,68.0,yes
20,2024-04-16_12h29.51.504,Experiment4_uns,s184,22 ,feminino,right,España,Catalán y castellano,Bachelor degree,no,no,B,1,when,L2,unsyncopated,when,when,20,Online_whenL2//c.cha25.888.wav,fe,ño,su,sil,cha,te,bi,sil1,me,ra,sil2,"['false alarm', 'catch']","[0.5258000000044376, 1.4583000000044422]",[1.4583000000044422],0.888,beat,0.5703000000044421,0.5703000000044421,"[""space"",""space""]",cha,3,testWhenL2Uns//time_viol.r1.s1.0.wav,1.0,when,unsyncopated,a,s1,no_rule,time,L2,m,0.2836,5.0,0.0,1.506,3.0,3.0,Catalán,0.0,Castellano,0.0,Inglés,6.0,4.0,6.0,no,no,yes,Nada,,Flauta en el cole no se si cuenta,,,,Ha ido muy bien pero estaba un poco saturada de tantos lenguajes y en el apartado 3 muchos me parecían casi iguales.,68.0,yes
21,2024-04-16_12h29.51.504,Experiment4_uns,s184,22 ,feminino,right,España,Catalán y castellano,Bachelor degree,no,no,B,1,when,L2,unsyncopated,when,when,21,Online_whenL2//c.cha27.none.wav,bi,fe,mi,sil,te,ra,ño,sil1,to,ñu,sil2,['-'],,,none,none,,,,cha,3,testWhenL2Uns//time_viol.r1.s2.0.wav,1.0,when,unsyncopated,a,s2,no_rule,time,L2,z,1.516,3.0,1.0,0.9832,3.0,3.0,Catalán,0.0,Castellano,0.0,Inglés,6.0,4.0,6.0,no,no,yes,Nada,,Flauta en el cole no se si cuenta,,,,Ha ido muy bien pero estaba un poco saturada de tantos lenguajes y en el apartado 3 muchos me parecían casi iguales.,68.0,yes
22,2024-04-16_12h29.51.504,Experiment4_uns,s184,22 ,feminino,right,España,Catalán y castellano,Bachelor degree,no,no,B,1,when,L2,unsyncopated,when,when,22,Online_whenL2//c.cha24.444.wav,me,bi,cha,sil,su,ra,ño,sil1,to,fe,sil2,['catch'],[0.9873000000044385],[0.9873000000044385],0.444,no_beat,0.5433000000044386,0.5433000000044386,"[""space""]",cha,3,testWhenL2Uns//r2.s2.2.wav,1.0,when,unsyncopated,b,s2,rule,rule,L2,z,7.4799,4.0,1.0,0.9827,3.0,3.0,Catalán,0.0,Castellano,0.0,Inglés,6.0,4.0,6.0,no,no,yes,Nada,,Flauta en el cole no se si cuenta,,,,Ha ido muy bien pero estaba un poco saturada de tantos lenguajes y en el apartado 3 muchos me parecían casi iguales.,68.0,yes
23,2024-04-16_12h29.51.504,Experiment4_uns,s184,22 ,feminino,right,España,Catalán y castellano,Bachelor degree,no,no,B,1,when,L2,unsyncopated,when,when,23,Online_whenL2//c.cha26.0.wav,cha,to,ra,sil,go,ñu,ba,sil1,bi,te,sil2,['catch'],[0.5147000000030175],[0.5147000000030175],0.0,beat,0.5147000000030175,0.5147000000030175,"[""space""]",cha,3,testWhenL2Uns//cat_viol.r1.s2.0.wav,1.0,when,unsyncopated,a,s2,no_rule,cat,L2,m,1.2211,6.0,0.0,2.3575,3.0,3.0,Catalán,0.0,Castellano,0.0,Inglés,6.0,4.0,6.0,no,no,yes,Nada,,Flauta en el cole no se si cuenta,,,,Ha ido muy bien pero estaba un poco saturada de tantos lenguajes y en el apartado 3 muchos me parecían casi iguales.,68.0,yes
24,2024-04-16_12h29.51.504,Experiment4_uns,s184,22 ,feminino,right,España,Catalán y castellano,Bachelor degree,no,no,B,1,when,L2,unsyncopated,when,when,24,Online_whenL2//b.fe2.1332.wav,ñu,bi,mi,sil,ra,cha,fe,sil1,ba,si,sil2,['catch'],[1.8907000000029939],[1.8907000000029939],1.332,no_beat,0.5587000000029938,0.5587000000029938,"[""space""]",fe,2,testConjL4Uns//r2.s2.1.wav,2.0,conjunction_un,unsyncopated,b,s2,rule,rule,L4,z,2.6812,5.0,1.0,1.5529,3.0,3.0,Catalán,0.0,Castellano,0.0,Inglés,6.0,4.0,6.0,no,no,yes,Nada,,Flauta en el cole no se si cuenta,,,,Ha ido muy bien pero estaba un poco saturada de tantos lenguajes y en el apartado 3 muchos me parecían casi iguales.,68.0,yes
25,2024-04-16_12h29.51.504,Experiment4_uns,s184,22 ,feminino,right,España,Catalán y castellano,Bachelor degree,no,no,B,1,when,L2,unsyncopated,when,when,25,Online_whenL2//b.fe3.1110.wav,me,mi,ñu,sil,bi,fe,si,sil1,to,go,sil2,['catch'],[2.13900000000001],[2.13900000000001],1.11,no_beat,1.02900000000001,1.02900000000001,"[""space""]",fe,2,testConjL4Uns//r2.s2.0.wav,2.0,conjunction_un,unsyncopated,b,s2,rule,rule,L4,m,4.5629,1.0,0.0,1.4822,3.0,3.0,Catalán,0.0,Castellano,0.0,Inglés,6.0,4.0,6.0,no,no,yes,Nada,,Flauta en el cole no se si cuenta,,,,Ha ido muy bien pero estaba un poco saturada de tantos lenguajes y en el apartado 3 muchos me parecían casi iguales.,68.0,yes
26,2024-04-16_12h29.51.504,Experiment4_uns,s184,22 ,feminino,right,España,Catalán y castellano,Bachelor degree,no,no,B,1,when,L2,unsyncopated,when,when,26,Online_whenL2//b.fe1.none.wav,du,te,ba,sil,ra,mi,cha,sil1,ñu,to,sil2,['-'],,,none,none,,,,fe,2,testConjL4Uns//time_viol.r1.s1.0.wav,2.0,conjunction_un,unsyncopated,a,s1,no_rule,time,L4,m,4.1201,2.0,1.0,0.9169,3.0,3.0,Catalán,0.0,Castellano,0.0,Inglés,6.0,4.0,6.0,no,no,yes,Nada,,Flauta en el cole no se si cuenta,,,,Ha ido muy bien pero estaba un poco saturada de tantos lenguajes y en el apartado 3 muchos me parecían casi iguales.,68.0,yes
27,2024-04-16_12h29.51.504,Experiment4_uns,s184,22 ,feminino,right,España,Catalán y castellano,Bachelor degree,no,no,B,1,when,L2,unsyncopated,when,when,27,Online_whenL2//b.fe0.none.wav,te,go,to,sil,si,ra,ño,sil1,cha,su,sil2,['-'],,,none,none,,,,fe,2,testConjL4Uns//r1.s1.0.wav,2.0,conjunction_un,unsyncopated,a,s1,rule,rule,L4,z,1.8693,4.0,1.0,0.64,3.0,3.0,Catalán,0.0,Castellano,0.0,Inglés,6.0,4.0,6.0,no,no,yes,Nada,,Flauta en el cole no se si cuenta,,,,Ha ido muy bien pero estaba un poco saturada de tantos lenguajes y en el apartado 3 muchos me parecían casi iguales.,68.0,yes
28,2024-04-16_12h29.51.504,Experiment4_uns,s184,22 ,feminino,right,España,Catalán y castellano,Bachelor degree,no,no,B,1,when,L2,unsyncopated,when,when,28,Online_whenL2//b.fe35.1998.wav,ra,su,si,sil,to,ba,bi,sil1,me,fe,sil2,['catch'],[2.4218999999985726],[2.4218999999985726],1.998,no_beat,0.4238999999985726,0.4238999999985726,"[""space""]",fe,2,testConjL4Uns//dep_viol.r1.s2.0.wav,2.0,conjunction_un,unsyncopated,a,s2,no_rule,dep,L4,m,1.4164,6.0,1.0,1.2546,3.0,3.0,Catalán,0.0,Castellano,0.0,Inglés,6.0,4.0,6.0,no,no,yes,Nada,,Flauta en el cole no se si cuenta,,,,Ha ido muy bien pero estaba un poco saturada de tantos lenguajes y en el apartado 3 muchos me parecían casi iguales.,68.0,yes
29,2024-04-16_12h29.51.504,Experiment4_uns,s184,22 ,feminino,right,España,Catalán y castellano,Bachelor degree,no,no,B,1,when,L2,unsyncopated,when,when,29,Online_whenL2//b.fe33.none.wav,to,du,mi,sil,go,te,ñu,sil1,bi,me,sil2,['-'],,,none,none,,,,fe,2,testConjL4Uns//r1.s1.2.wav,2.0,conjunction_un,unsyncopated,a,s1,rule,rule,L4,z,3.3475,7.0,1.0,1.9159,3.0,3.0,Catalán,0.0,Castellano,0.0,Inglés,6.0,4.0,6.0,no,no,yes,Nada,,Flauta en el cole no se si cuenta,,,,Ha ido muy bien pero estaba un poco saturada de tantos lenguajes y en el apartado 3 muchos me parecían casi iguales.,68.0,yes
30,2024-04-16_12h29.51.504,Experiment4_uns,s184,22 ,feminino,right,España,Catalán y castellano,Bachelor degree,no,no,B,1,when,L2,unsyncopated,when,when,30,Online_whenL2//b.fe32.222.wav,ño,fe,te,sil,ñu,bi,su,sil1,mi,go,sil2,['catch'],[0.9484000000059041],[0.9484000000059041],0.222,no_beat,0.7264000000059041,0.7264000000059041,"[""space""]",fe,2,testConjL4Uns//time_viol.r2.s1.0.wav,2.0,conjunction_un,unsyncopated,b,s1,no_rule,time,L4,z,1.5745,3.0,0.0,1.936,3.0,3.0,Catalán,0.0,Castellano,0.0,Inglés,6.0,4.0,6.0,no,no,yes,Nada,,Flauta en el cole no se si cuenta,,,,Ha ido muy bien pero estaba un poco saturada de tantos lenguajes y en el apartado 3 muchos me parecían casi iguales.,68.0,yes
31,2024-04-16_12h29.51.504,Experiment4_uns,s184,22 ,feminino,right,España,Catalán y castellano,Bachelor degree,no,no,B,1,when,L2,unsyncopated,when,when,31,Online_whenL2//b.fe34.1776.wav,si,go,mi,sil,ba,ñu,me,sil1,fe,ño,sil2,['catch'],[2.1543000000044685],[2.1543000000044685],1.776,beat,0.3783000000044685,0.3783000000044685,"[""space""]",fe,2,testConjL4Uns//r1.s2.0.wav,2.0,conjunction_un,unsyncopated,a,s2,rule,rule,L4,z,2.2884,3.0,1.0,0.5999,3.0,3.0,Catalán,0.0,Castellano,0.0,Inglés,6.0,4.0,6.0,no,no,yes,Nada,,Flauta en el cole no se si cuenta,,,,Ha ido muy bien pero estaba un poco saturada de tantos lenguajes y en el apartado 3 muchos me parecían casi iguales.,68.0,yes
32,2024-04-16_12h29.51.504,Experiment4_uns,s184,22 ,feminino,right,España,Catalán y castellano,Bachelor degree,no,no,B,1,when,L2,unsyncopated,when,when,32,Online_whenL2//a.du17.none.wav,ra,go,su,sil,me,si,cha,sil1,bi,te,sil2,['-'],,,none,none,,,,du,1,testConjL4Uns//r2.s2.2.wav,2.0,conjunction_un,unsyncopated,b,s2,rule,rule,L4,m,1.6484,5.0,0.0,1.5333,3.0,3.0,Catalán,0.0,Castellano,0.0,Inglés,6.0,4.0,6.0,no,no,yes,Nada,,Flauta en el cole no se si cuenta,,,,Ha ido muy bien pero estaba un poco saturada de tantos lenguajes y en el apartado 3 muchos me parecían casi iguales.,68.0,yes
33,2024-04-16_12h29.51.504,Experiment4_uns,s184,22 ,feminino,right,España,Catalán y castellano,Bachelor degree,no,no,B,1,when,L2,unsyncopated,when,when,33,Online_whenL2//a.du18.none.wav,go,fe,te,sil,si,cha,ba,sil1,ño,to,sil2,['false alarm'],[2.6303000000044676],[2.6303000000044676],none,none,,,"[""space""]",du,1,testConjL4Uns//cat_viol.r1.s2.0.wav,2.0,conjunction_un,unsyncopated,a,s2,no_rule,cat,L4,z,4.7887,1.0,0.0,2.284,3.0,3.0,Catalán,0.0,Castellano,0.0,Inglés,6.0,4.0,6.0,no,no,yes,Nada,,Flauta en el cole no se si cuenta,,,,Ha ido muy bien pero estaba un poco saturada de tantos lenguajes y en el apartado 3 muchos me parecían casi iguales.,68.0,yes
34,2024-04-16_12h29.51.504,Experiment4_uns,s184,22 ,feminino,right,España,Catalán y castellano,Bachelor degree,no,no,B,1,when,L2,unsyncopated,when,when,34,Online_whenL2//a.du19.none.wav,su,ñu,to,sil,bi,fe,me,sil1,ño,go,sil2,"['false alarm', 'false alarm']","[0.9990000000000236, 2.646600000001513]",2.646600000001513,none,none,,,"[""space"",""space""]",du,1,testConjL4Uns//dep_viol.r1.s1.0.wav,2.0,conjunction_un,unsyncopated,a,s1,no_rule,dep,L4,m,2.6154,5.0,1.0,0.7494,3.0,3.0,Catalán,0.0,Castellano,0.0,Inglés,6.0,4.0,6.0,no,no,yes,Nada,,Flauta en el cole no se si cuenta,,,,Ha ido muy bien pero estaba un poco saturada de tantos lenguajes y en el apartado 3 muchos me parecían casi iguales.,68.0,yes
35,2024-04-16_12h29.51.504,Experiment4_uns,s184,22 ,feminino,right,España,Catalán y castellano,Bachelor degree,no,no,B,1,when,L2,unsyncopated,when,when,35,Online_whenL2//a.du16.none.wav,ñu,te,to,sil,su,me,si,sil1,ra,fe,sil2,"['false alarm', 'false alarm']","[1.08110000000147, 1.329300000004423]",1.329300000004423,none,none,,,"[""space"",""space""]",du,1,testConjL4Uns//r1.s2.1.wav,2.0,conjunction_un,unsyncopated,a,s2,rule,rule,L4,m,3.3478,4.0,0.0,0.5922,3.0,3.0,Catalán,0.0,Castellano,0.0,Inglés,6.0,4.0,6.0,no,no,yes,Nada,,Flauta en el cole no se si cuenta,,,,Ha ido muy bien pero estaba un poco saturada de tantos lenguajes y en el apartado 3 muchos me parecían casi iguales.,68.0,yes
36,2024-04-16_12h29.51.504,Experiment4_uns,s184,22 ,feminino,right,España,Catalán y castellano,Bachelor degree,no,no,B,1,when,L2,unsyncopated,when,when,36,Online_whenL2//a.du15.1998.wav,su,si,me,sil,ño,te,mi,sil1,go,du,sil2,['catch'],[2.4687999999970316],[2.4687999999970316],1.998,no_beat,0.4707999999970316,0.4707999999970316,"[""space""]",du,1,testConjL4Uns//time_viol.r2.s2.0.wav,2.0,conjunction_un,unsyncopated,b,s2,no_rule,time,L4,m,2.7521,4.0,1.0,0.7887,3.0,3.0,Catalán,0.0,Castellano,0.0,Inglés,6.0,4.0,6.0,no,no,yes,Nada,,Flauta en el cole no se si cuenta,,,,Ha ido muy bien pero estaba un poco saturada de tantos lenguajes y en el apartado 3 muchos me parecían casi iguales.,68.0,yes
37,2024-04-16_12h29.51.504,Experiment4_uns,s184,22 ,feminino,right,España,Catalán y castellano,Bachelor degree,no,no,B,1,when,L2,unsyncopated,when,when,37,Online_whenL2//a.du12.none.wav,si,bi,fe,sil,ño,mi,su,sil1,ra,me,sil2,['-'],,,none,none,,,,du,1,testConjL4Uns//dep_viol.r2.s1.0.wav,2.0,conjunction_un,unsyncopated,b,s1,no_rule,dep,L4,z,0.8665,3.0,0.0,0.555,3.0,3.0,Catalán,0.0,Castellano,0.0,Inglés,6.0,4.0,6.0,no,no,yes,Nada,,Flauta en el cole no se si cuenta,,,,Ha ido muy bien pero estaba un poco saturada de tantos lenguajes y en el apartado 3 muchos me parecían casi iguales.,68.0,yes
38,2024-04-16_12h29.51.504,Experiment4_uns,s184,22 ,feminino,right,España,Catalán y castellano,Bachelor degree,no,no,B,1,when,L2,unsyncopated,when,when,38,Online_whenL2//a.du14.none.wav,ño,to,bi,sil,ra,mi,me,sil1,ba,fe,sil2,['false alarm'],[0.6899000000059914],[0.6899000000059914],none,none,,,"[""space""]",du,1,testConjL4Uns//r1.s2.2.wav,2.0,conjunction_un,unsyncopated,a,s2,rule,rule,L4,m,1.7828,4.0,0.0,0.7557,3.0,3.0,Catalán,0.0,Castellano,0.0,Inglés,6.0,4.0,6.0,no,no,yes,Nada,,Flauta en el cole no se si cuenta,,,,Ha ido muy bien pero estaba un poco saturada de tantos lenguajes y en el apartado 3 muchos me parecían casi iguales.,68.0,yes
39,2024-04-16_12h29.51.504,Experiment4_uns,s184,22 ,feminino,right,España,Catalán y castellano,Bachelor degree,no,no,B,1,when,L2,unsyncopated,when,when,39,Online_whenL2//a.du13.0.wav,du,ño,to,sil,me,ra,mi,sil1,bi,ba,sil2,"['catch', 'false alarm']","[0.7106000000014774, 1.4799999999999045]",[0.7106000000014774],0.0,beat,0.7106000000014774,0.7106000000014774,"[""space"",""space""]",du,1,testConjL4Uns//r1.s1.1.wav,2.0,conjunction_un,unsyncopated,a,s1,rule,rule,L4,z,1.0858,3.0,1.0,0.7678,3.0,3.0,Catalán,0.0,Castellano,0.0,Inglés,6.0,4.0,6.0,no,no,yes,Nada,,Flauta en el cole no se si cuenta,,,,Ha ido muy bien pero estaba un poco saturada de tantos lenguajes y en el apartado 3 muchos me parecían casi iguales.,68.0,yes
40,2024-04-16_12h29.51.504,Experiment4_uns,s184,22 ,feminino,right,España,Catalán y castellano,Bachelor degree,no,no,B,1,when,L2,unsyncopated,when,when,40,Online_whenL2//d.si5.1332.wav,to,fe,ra,sil,me,cha,si,sil1,su,te,sil2,['catch'],[1.7519999999999527],[1.7519999999999527],1.332,no_beat,0.4199999999999526,0.4199999999999526,"[""space""]",si,4,testConjL4Uns//dep_viol.r2.s2.0.wav,2.0,conjunction_un,unsyncopated,b,s2,no_rule,dep,L4,z,0.8822,3.0,0.0,0.2721,3.0,3.0,Catalán,0.0,Castellano,0.0,Inglés,6.0,4.0,6.0,no,no,yes,Nada,,Flauta en el cole no se si cuenta,,,,Ha ido muy bien pero estaba un poco saturada de tantos lenguajes y en el apartado 3 muchos me parecían casi iguales.,68.0,yes
41,2024-04-16_12h29.51.504,Experiment4_uns,s184,22 ,feminino,right,España,Catalán y castellano,Bachelor degree,no,no,B,1,when,L2,unsyncopated,when,when,41,Online_whenL2//d.si7.none.wav,go,cha,te,sil,fe,ñu,ba,sil1,mi,to,sil2,['-'],,,none,none,,,,si,4,testConjL4Uns//cat_viol.r1.s1.0.wav,2.0,conjunction_un,unsyncopated,a,s1,no_rule,cat,L4,m,0.7494,3.0,1.0,0.9589,3.0,3.0,Catalán,0.0,Castellano,0.0,Inglés,6.0,4.0,6.0,no,no,yes,Nada,,Flauta en el cole no se si cuenta,,,,Ha ido muy bien pero estaba un poco saturada de tantos lenguajes y en el apartado 3 muchos me parecían casi iguales.,68.0,yes
42,2024-04-16_12h29.51.504,Experiment4_uns,s184,22 ,feminino,right,España,Catalán y castellano,Bachelor degree,no,no,B,1,when,L2,unsyncopated,when,when,42,Online_whenL2//d.si4.444.wav,to,ra,si,sil,me,ñu,go,sil1,ño,mi,sil2,['catch'],[1.1312999999970543],[1.1312999999970543],0.444,no_beat,0.6872999999970544,0.6872999999970544,"[""space""]",si,4,testConjL4Uns//time_viol.r1.s2.0.wav,2.0,conjunction_un,unsyncopated,a,s2,no_rule,time,L4,z,0.1834,7.0,0.0,1.306,3.0,3.0,Catalán,0.0,Castellano,0.0,Inglés,6.0,4.0,6.0,no,no,yes,Nada,,Flauta en el cole no se si cuenta,,,,Ha ido muy bien pero estaba un poco saturada de tantos lenguajes y en el apartado 3 muchos me parecían casi iguales.,68.0,yes
43,2024-04-16_12h29.51.504,Experiment4_uns,s184,22 ,feminino,right,España,Catalán y castellano,Bachelor degree,no,no,B,1,when,L2,unsyncopated,when,when,43,Online_whenL2//d.si6.1776.wav,te,cha,du,sil,fe,ño,me,sil1,si,bi,sil2,['catch'],[2.16889999999853],[2.16889999999853],1.776,beat,0.3928999999985298,0.3928999999985298,"[""space""]",si,4,testConjL4Uns//r2.s1.0.wav,2.0,conjunction_un,unsyncopated,b,s1,rule,rule,L4,z,1.0664,5.0,1.0,0.5572,3.0,3.0,Catalán,0.0,Castellano,0.0,Inglés,6.0,4.0,6.0,no,no,yes,Nada,,Flauta en el cole no se si cuenta,,,,Ha ido muy bien pero estaba un poco saturada de tantos lenguajes y en el apartado 3 muchos me parecían casi iguales.,68.0,yes
44,2024-04-16_12h29.51.504,Experiment4_uns,s184,22 ,feminino,right,España,Catalán y castellano,Bachelor degree,no,no,B,1,when,L2,unsyncopated,when,when,44,Online_whenL2//d.si15.1332.wav,mi,ño,ba,sil,ra,fe,si,sil1,ñu,me,sil2,['catch'],[1.9377999999970825],[1.9377999999970825],1.332,no_beat,0.6057999999970825,0.6057999999970825,"[""space""]",si,4,testConjL4Uns//cat_viol.r2.s1.0.wav,2.0,conjunction_un,unsyncopated,b,s1,no_rule,cat,L4,m,0.773,4.0,1.0,0.8324,3.0,3.0,Catalán,0.0,Castellano,0.0,Inglés,6.0,4.0,6.0,no,no,yes,Nada,,Flauta en el cole no se si cuenta,,,,Ha ido muy bien pero estaba un poco saturada de tantos lenguajes y en el apartado 3 muchos me parecían casi iguales.,68.0,yes
45,2024-04-16_12h29.51.504,Experiment4_uns,s184,22 ,feminino,right,España,Catalán y castellano,Bachelor degree,no,no,B,1,when,L2,unsyncopated,when,when,45,Online_whenL2//d.si13.444.wav,go,ñu,si,sil,bi,to,ño,sil1,fe,mi,sil2,['miss'],,,0.444,no_beat,,,,si,4,testConjL4Uns//cat_viol.r2.s2.0.wav,2.0,conjunction_un,unsyncopated,b,s2,no_rule,cat,L4,m,0.8497,6.0,1.0,1.1324,3.0,3.0,Catalán,0.0,Castellano,0.0,Inglés,6.0,4.0,6.0,no,no,yes,Nada,,Flauta en el cole no se si cuenta,,,,Ha ido muy bien pero estaba un poco saturada de tantos lenguajes y en el apartado 3 muchos me parecían casi iguales.,68.0,yes
46,2024-04-16_12h29.51.504,Experiment4_uns,s184,22 ,feminino,right,España,Catalán y castellano,Bachelor degree,no,no,B,1,when,L2,unsyncopated,when,when,46,Online_whenL2//d.si14.1332.wav,ba,te,bi,sil,go,su,si,sil1,du,ñu,sil2,['catch'],[1.8472999999970625],[1.8472999999970625],1.332,no_beat,0.5152999999970624,0.5152999999970624,"[""space""]",si,4,testConjL4Uns//r2.s1.1.wav,2.0,conjunction_un,unsyncopated,b,s1,rule,rule,L4,z,0.4,7.0,1.0,1.0848,3.0,3.0,Catalán,0.0,Castellano,0.0,Inglés,6.0,4.0,6.0,no,no,yes,Nada,,Flauta en el cole no se si cuenta,,,,Ha ido muy bien pero estaba un poco saturada de tantos lenguajes y en el apartado 3 muchos me parecían casi iguales.,68.0,yes
47,2024-04-16_12h29.51.504,Experiment4_uns,s184,22 ,feminino,right,España,Catalán y castellano,Bachelor degree,no,no,B,1,when,L2,unsyncopated,when,when,47,Online_whenL2//d.si12.1776.wav,mi,du,to,sil,go,ño,bi,sil1,si,cha,sil2,['catch'],[2.319100000001413],[2.319100000001413],1.776,beat,0.5431000000014128,0.5431000000014128,"[""space""]",si,4,testConjL4Uns//r2.s1.2.wav,2.0,conjunction_un,unsyncopated,b,s1,rule,rule,L4,m,1.8658,4.0,0.0,0.6573,3.0,3.0,Catalán,0.0,Castellano,0.0,Inglés,6.0,4.0,6.0,no,no,yes,Nada,,Flauta en el cole no se si cuenta,,,,Ha ido muy bien pero estaba un poco saturada de tantos lenguajes y en el apartado 3 muchos me parecían casi iguales.,68.0,yes
48,2024-04-16_12h29.51.504,Experiment4_uns,s184,22 ,feminino,right,España,Catalán y castellano,Bachelor degree,no,no,B,1,when,L2,unsyncopated,when,when,48,Online_whenL2//c.cha28.0.wav,cha,fe,to,sil,ba,ñu,me,sil1,go,te,sil2,['catch'],[0.6771000000014737],[0.6771000000014737],0.0,beat,0.6771000000014737,0.6771000000014737,"[""space""]",cha,3,testConjL3Syn//r2.s2.1.wav,3.0,conjunction_syn,syncopated,b,s2,rule,rule,L3,m,1.7981,3.0,0.0,0.7399,3.0,3.0,Catalán,0.0,Castellano,0.0,Inglés,6.0,4.0,6.0,no,no,yes,Nada,,Flauta en el cole no se si cuenta,,,,Ha ido muy bien pero estaba un poco saturada de tantos lenguajes y en el apartado 3 muchos me parecían casi iguales.,68.0,yes
49,2024-04-16_12h29.51.504,Experiment4_uns,s184,22 ,feminino,right,España,Catalán y castellano,Bachelor degree,no,no,B,1,when,L2,unsyncopated,when,when,49,Online_whenL2//c.cha31.none.wav,to,te,ñu,sil,bi,du,su,sil1,fe,me,sil2,['-'],,,none,none,,,,cha,3,testConjL3Syn//cat_viol.r2.s2.0.wav,3.0,conjunction_syn,syncopated,b,s2,no_rule,cat,L3,m,1.6324,4.0,1.0,0.8222,3.0,3.0,Catalán,0.0,Castellano,0.0,Inglés,6.0,4.0,6.0,no,no,yes,Nada,,Flauta en el cole no se si cuenta,,,,Ha ido muy bien pero estaba un poco saturada de tantos lenguajes y en el apartado 3 muchos me parecían casi iguales.,68.0,yes
50,2024-04-16_12h29.51.504,Experiment4_uns,s184,22 ,feminino,right,España,Catalán y castellano,Bachelor degree,no,no,B,1,when,L2,unsyncopated,when,when,50,Online_whenL2//c.cha30.none.wav,te,mi,to,sil,me,go,si,sil1,ño,du,sil2,['-'],,,none,none,,,,cha,3,testConjL3Syn//r1.s1.1.wav,3.0,conjunction_syn,syncopated,a,s1,rule,rule,L3,z,0.3335,4.0,1.0,1.2393,3.0,3.0,Catalán,0.0,Castellano,0.0,Inglés,6.0,4.0,6.0,no,no,yes,Nada,,Flauta en el cole no se si cuenta,,,,Ha ido muy bien pero estaba un poco saturada de tantos lenguajes y en el apartado 3 muchos me parecían casi iguales.,68.0,yes
51,2024-04-16_12h29.51.504,Experiment4_uns,s184,22 ,feminino,right,España,Catalán y castellano,Bachelor degree,no,no,B,1,when,L2,unsyncopated,when,when,51,Online_whenL2//c.cha29.444.wav,go,du,cha,sil,me,ba,su,sil1,ñu,bi,sil2,"['catch', 'false alarm']","[0.8871000000015101, 1.9968000000044412]",[0.8871000000015101],0.444,no_beat,0.4431000000015101,0.4431000000015101,"[""space"",""space""]",cha,3,testConjL3Syn//time_viol.r2.s2.0.wav,3.0,conjunction_syn,syncopated,b,s2,no_rule,time,L3,z,0.4332,3.0,0.0,0.6229,3.0,3.0,Catalán,0.0,Castellano,0.0,Inglés,6.0,4.0,6.0,no,no,yes,Nada,,Flauta en el cole no se si cuenta,,,,Ha ido muy bien pero estaba un poco saturada de tantos lenguajes y en el apartado 3 muchos me parecían casi iguales.,68.0,yes
52,2024-04-16_12h29.51.504,Experiment4_uns,s184,22 ,feminino,right,España,Catalán y castellano,Bachelor degree,no,no,B,1,when,L2,unsyncopated,when,when,52,Online_whenL2//a.du0.888.wav,ñu,ba,ra,sil,du,su,ño,sil1,cha,te,sil2,['miss'],,,0.888,beat,,,,du,1,testConjL3Syn//r2.s1.0.wav,3.0,conjunction_syn,syncopated,b,s1,rule,rule,L3,z,2.3084,5.0,1.0,0.6488,3.0,3.0,Catalán,0.0,Castellano,0.0,Inglés,6.0,4.0,6.0,no,no,yes,Nada,,Flauta en el cole no se si cuenta,,,,Ha ido muy bien pero estaba un poco saturada de tantos lenguajes y en el apartado 3 muchos me parecían casi iguales.,68.0,yes
53,2024-04-16_12h29.51.504,Experiment4_uns,s184,22 ,feminino,right,España,Catalán y castellano,Bachelor degree,no,no,B,1,when,L2,unsyncopated,when,when,53,Online_whenL2//a.du1.none.wav,bi,si,fe,sil,mi,ra,ba,sil1,su,me,sil2,['false alarm'],[0.6056000000015729],[0.6056000000015729],none,none,,,"[""space""]",du,1,testConjL3Syn//dep_viol.r2.s1.0.wav,3.0,conjunction_syn,syncopated,b,s1,no_rule,dep,L3,m,0.2662,6.0,1.0,0.9874,3.0,3.0,Catalán,0.0,Castellano,0.0,Inglés,6.0,4.0,6.0,no,no,yes,Nada,,Flauta en el cole no se si cuenta,,,,Ha ido muy bien pero estaba un poco saturada de tantos lenguajes y en el apartado 3 muchos me parecían casi iguales.,68.0,yes
54,2024-04-16_12h29.51.504,Experiment4_uns,s184,22 ,feminino,right,España,Catalán y castellano,Bachelor degree,no,no,B,1,when,L2,unsyncopated,when,when,54,Online_whenL2//a.du2.0.wav,du,me,si,sil,mi,to,go,sil1,cha,bi,sil2,"['catch', 'false alarm', 'false alarm']","[0.4321000000015829, 0.7702999999970643, 1.6642000000030066]",[0.4321000000015829],0.0,beat,0.4321000000015829,0.4321000000015829,"[""space"",""space"",""space""]",du,1,testConjL3Syn//r2.s1.1.wav,3.0,conjunction_syn,syncopated,b,s1,rule,rule,L3,z,1.0333,4.0,1.0,0.3593,3.0,3.0,Catalán,0.0,Castellano,0.0,Inglés,6.0,4.0,6.0,no,no,yes,Nada,,Flauta en el cole no se si cuenta,,,,Ha ido muy bien pero estaba un poco saturada de tantos lenguajes y en el apartado 3 muchos me parecían casi iguales.,68.0,yes
55,2024-04-16_12h29.51.504,Experiment4_uns,s184,22 ,feminino,right,España,Catalán y castellano,Bachelor degree,no,no,B,1,when,L2,unsyncopated,when,when,55,Online_whenL2//a.du3.none.wav,me,mi,te,sil,cha,go,ñu,sil1,fe,si,sil2,['false alarm'],[1.7176000000015392],[1.7176000000015392],none,none,,,"[""space""]",du,1,testConjL3Syn//cat_viol.r2.s1.0.wav,3.0,conjunction_syn,syncopated,b,s1,no_rule,cat,L3,z,0.6599,6.0,0.0,0.3005,3.0,3.0,Catalán,0.0,Castellano,0.0,Inglés,6.0,4.0,6.0,no,no,yes,Nada,,Flauta en el cole no se si cuenta,,,,Ha ido muy bien pero estaba un poco saturada de tantos lenguajes y en el apartado 3 muchos me parecían casi iguales.,68.0,yes
56,2024-04-16_12h29.51.504,Experiment4_uns,s184,22 ,feminino,right,España,Catalán y castellano,Bachelor degree,no,no,B,1,when,L2,unsyncopated,when,when,56,Online_whenL2//b.fe19.none.wav,ño,ra,su,sil,cha,du,to,sil1,si,me,sil2,['-'],,,none,none,,,,fe,2,testConjL3Syn//dep_viol.r1.s1.0.wav,3.0,conjunction_syn,syncopated,a,s1,no_rule,dep,L3,z,1.1846,6.0,0.0,0.7664,3.0,3.0,Catalán,0.0,Castellano,0.0,Inglés,6.0,4.0,6.0,no,no,yes,Nada,,Flauta en el cole no se si cuenta,,,,Ha ido muy bien pero estaba un poco saturada de tantos lenguajes y en el apartado 3 muchos me parecían casi iguales.,68.0,yes
57,2024-04-16_12h29.51.504,Experiment4_uns,s184,22 ,feminino,right,España,Catalán y castellano,Bachelor degree,no,no,B,1,when,L2,unsyncopated,when,when,57,Online_whenL2//b.fe18.none.wav,mi,go,su,sil,ba,ra,si,sil1,cha,bi,sil2,['false alarm'],[2.1633999999985463],[2.1633999999985463],none,none,,,"[""space""]",fe,2,testConjL3Syn//time_viol.r1.s1.0.wav,3.0,conjunction_syn,syncopated,a,s1,no_rule,time,L3,z,0.8898,4.0,0.0,0.6996,3.0,3.0,Catalán,0.0,Castellano,0.0,Inglés,6.0,4.0,6.0,no,no,yes,Nada,,Flauta en el cole no se si cuenta,,,,Ha ido muy bien pero estaba un poco saturada de tantos lenguajes y en el apartado 3 muchos me parecían casi iguales.,68.0,yes
58,2024-04-16_12h29.51.504,Experiment4_uns,s184,22 ,feminino,right,España,Catalán y castellano,Bachelor degree,no,no,B,1,when,L2,unsyncopated,when,when,58,Online_whenL2//b.fe17.222.wav,te,fe,ño,sil,su,mi,ra,sil1,si,ñu,sil2,['catch'],[0.7385000000000446],[0.7385000000000446],0.222,no_beat,0.5165000000000446,0.5165000000000446,"[""space""]",fe,2,testConjL3Syn//r1.s2.2.wav,3.0,conjunction_syn,syncopated,a,s2,rule,rule,L3,m,0.6665,6.0,0.0,0.7826,3.0,3.0,Catalán,0.0,Castellano,0.0,Inglés,6.0,4.0,6.0,no,no,yes,Nada,,Flauta en el cole no se si cuenta,,,,Ha ido muy bien pero estaba un poco saturada de tantos lenguajes y en el apartado 3 muchos me parecían casi iguales.,68.0,yes
59,2024-04-16_12h29.51.504,Experiment4_uns,s184,22 ,feminino,right,España,Catalán y castellano,Bachelor degree,no,no,B,1,when,L2,unsyncopated,when,when,59,Online_whenL2//b.fe16.1998.wav,cha,ba,te,sil,ra,ño,si,sil1,me,fe,sil2,['catch'],[2.546299999997018],[2.546299999997018],1.998,no_beat,0.548299999997018,0.548299999997018,"[""space""]",fe,2,testConjL3Syn//time_viol.r1.s2.0.wav,3.0,conjunction_syn,syncopated,a,s2,no_rule,time,L3,z,2.3153,3.0,0.0,0.5347,3.0,3.0,Catalán,0.0,Castellano,0.0,Inglés,6.0,4.0,6.0,no,no,yes,Nada,,Flauta en el cole no se si cuenta,,,,Ha ido muy bien pero estaba un poco saturada de tantos lenguajes y en el apartado 3 muchos me parecían casi iguales.,68.0,yes
60,2024-04-16_12h29.51.504,Experiment4_uns,s184,22 ,feminino,right,España,Catalán y castellano,Bachelor degree,no,no,B,1,when,L2,unsyncopated,when,when,60,Online_whenL2//b.fe7.1998.wav,ba,si,du,sil,cha,ño,bi,sil1,mi,fe,sil2,['catch'],[2.5914999999999964],[2.5914999999999964],1.998,no_beat,0.5934999999999964,0.5934999999999964,"[""space""]",fe,2,testConjL3Syn//r1.s2.0.wav,3.0,conjunction_syn,syncopated,a,s2,rule,rule,L3,z,2.5397,3.0,1.0,1.3389,3.0,3.0,Catalán,0.0,Castellano,0.0,Inglés,6.0,4.0,6.0,no,no,yes,Nada,,Flauta en el cole no se si cuenta,,,,Ha ido muy bien pero estaba un poco saturada de tantos lenguajes y en el apartado 3 muchos me parecían casi iguales.,68.0,yes
61,2024-04-16_12h29.51.504,Experiment4_uns,s184,22 ,feminino,right,España,Catalán y castellano,Bachelor degree,no,no,B,1,when,L2,unsyncopated,when,when,61,Online_whenL2//b.fe4.0.wav,fe,ra,ño,sil,to,ba,cha,sil1,si,te,sil2,['catch'],[0.881699999995476],[0.881699999995476],0.0,beat,0.881699999995476,0.881699999995476,"[""space""]",fe,2,testConjL3Syn//r1.s1.2.wav,3.0,conjunction_syn,syncopated,a,s1,rule,rule,L3,z,1.6681,4.0,1.0,0.6382,3.0,3.0,Catalán,0.0,Castellano,0.0,Inglés,6.0,4.0,6.0,no,no,yes,Nada,,Flauta en el cole no se si cuenta,,,,Ha ido muy bien pero estaba un poco saturada de tantos lenguajes y en el apartado 3 muchos me parecían casi iguales.,68.0,yes
62,2024-04-16_12h29.51.504,Experiment4_uns,s184,22 ,feminino,right,España,Catalán y castellano,Bachelor degree,no,no,B,1,when,L2,unsyncopated,when,when,62,Online_whenL2//b.fe5.1332.wav,si,cha,bi,sil,ñu,su,fe,sil1,ra,te,sil2,['catch'],[1.859200000002943],[1.859200000002943],1.332,no_beat,0.5272000000029429,0.5272000000029429,"[""space""]",fe,2,testConjL3Syn//dep_viol.r1.s2.0.wav,3.0,conjunction_syn,syncopated,a,s2,no_rule,dep,L3,m,1.6985,6.0,1.0,0.6566,3.0,3.0,Catalán,0.0,Castellano,0.0,Inglés,6.0,4.0,6.0,no,no,yes,Nada,,Flauta en el cole no se si cuenta,,,,Ha ido muy bien pero estaba un poco saturada de tantos lenguajes y en el apartado 3 muchos me parecían casi iguales.,68.0,yes
63,2024-04-16_12h29.51.504,Experiment4_uns,s184,22 ,feminino,right,España,Catalán y castellano,Bachelor degree,no,no,B,1,when,L2,unsyncopated,when,when,63,Online_whenL2//b.fe6.1998.wav,du,su,ñu,sil,cha,ba,to,sil1,te,fe,sil2,['catch'],[2.418700000003014],[2.418700000003014],1.998,no_beat,0.4207000000030139,0.4207000000030139,"[""space""]",fe,2,testConjL3Syn//cat_viol.r1.s2.0.wav,3.0,conjunction_syn,syncopated,a,s2,no_rule,cat,L3,z,0.5199,3.0,0.0,0.3894,3.0,3.0,Catalán,0.0,Castellano,0.0,Inglés,6.0,4.0,6.0,no,no,yes,Nada,,Flauta en el cole no se si cuenta,,,,Ha ido muy bien pero estaba un poco saturada de tantos lenguajes y en el apartado 3 muchos me parecían casi iguales.,68.0,yes
64,2024-04-16_12h29.51.504,Experiment4_uns,s184,22 ,feminino,right,España,Catalán y castellano,Bachelor degree,no,no,B,1,when,L2,unsyncopated,when,when,64,Online_whenL2//d.si24.1332.wav,me,du,bi,sil,ñu,cha,si,sil1,ra,su,sil2,['catch'],[1.7917999999971244],[1.7917999999971244],1.332,no_beat,0.4597999999971243,0.4597999999971243,"[""space""]",si,4,testConjL3Syn//r2.s2.0.wav,3.0,conjunction_syn,syncopated,b,s2,rule,rule,L3,z,0.95,4.0,1.0,0.6689,3.0,3.0,Catalán,0.0,Castellano,0.0,Inglés,6.0,4.0,6.0,no,no,yes,Nada,,Flauta en el cole no se si cuenta,,,,Ha ido muy bien pero estaba un poco saturada de tantos lenguajes y en el apartado 3 muchos me parecían casi iguales.,68.0,yes
65,2024-04-16_12h29.51.504,Experiment4_uns,s184,22 ,feminino,right,España,Catalán y castellano,Bachelor degree,no,no,B,1,when,L2,unsyncopated,when,when,65,Online_whenL2//d.si26.none.wav,ra,ño,cha,sil,to,su,bi,sil1,ñu,fe,sil2,['-'],,,none,none,,,,si,4,testConjL3Syn//dep_viol.r2.s2.0.wav,3.0,conjunction_syn,syncopated,b,s2,no_rule,dep,L3,z,0.7697,4.0,0.0,0.7325,3.0,3.0,Catalán,0.0,Castellano,0.0,Inglés,6.0,4.0,6.0,no,no,yes,Nada,,Flauta en el cole no se si cuenta,,,,Ha ido muy bien pero estaba un poco saturada de tantos lenguajes y en el apartado 3 muchos me parecían casi iguales.,68.0,yes
66,2024-04-16_12h29.51.504,Experiment4_uns,s184,22 ,feminino,right,España,Catalán y castellano,Bachelor degree,no,no,B,1,when,L2,unsyncopated,when,when,66,Online_whenL2//d.si25.none.wav,ño,ra,me,sil,to,go,te,sil1,su,mi,sil2,['-'],,,none,none,,,,si,4,testConjL3Syn//r2.s2.2.wav,3.0,conjunction_syn,syncopated,b,s2,rule,rule,L3,z,0.7059,6.0,1.0,0.6671,3.0,3.0,Catalán,0.0,Castellano,0.0,Inglés,6.0,4.0,6.0,no,no,yes,Nada,,Flauta en el cole no se si cuenta,,,,Ha ido muy bien pero estaba un poco saturada de tantos lenguajes y en el apartado 3 muchos me parecían casi iguales.,68.0,yes
67,2024-04-16_12h29.51.504,Experiment4_uns,s184,22 ,feminino,right,España,Catalán y castellano,Bachelor degree,no,no,B,1,when,L2,unsyncopated,when,when,67,Online_whenL2//d.si27.1110.wav,fe,te,ñu,sil,ño,si,mi,sil1,me,go,sil2,['catch'],[1.6964000000059514],[1.6964000000059514],1.11,no_beat,0.5864000000059513,0.5864000000059513,"[""space""]",si,4,testConjL3Syn//r2.s1.2.wav,3.0,conjunction_syn,syncopated,b,s1,rule,rule,L3,m,0.2649,3.0,0.0,1.1331,3.0,3.0,Catalán,0.0,Castellano,0.0,Inglés,6.0,4.0,6.0,no,no,yes,Nada,,Flauta en el cole no se si cuenta,,,,Ha ido muy bien pero estaba un poco saturada de tantos lenguajes y en el apartado 3 muchos me parecían casi iguales.,68.0,yes
68,2024-04-16_12h29.51.504,Experiment4_uns,s184,22 ,feminino,right,España,Catalán y castellano,Bachelor degree,no,no,B,1,when,L2,unsyncopated,when,when,68,Online_whenL2//b.fe15.none.wav,ño,su,to,sil,du,me,go,sil1,cha,mi,sil2,['-'],,,none,none,,,,fe,2,testConjL3Syn//cat_viol.r1.s1.0.wav,3.0,conjunction_syn,syncopated,a,s1,no_rule,cat,L3,z,1.332,4.0,0.0,0.7176,3.0,3.0,Catalán,0.0,Castellano,0.0,Inglés,6.0,4.0,6.0,no,no,yes,Nada,,Flauta en el cole no se si cuenta,,,,Ha ido muy bien pero estaba un poco saturada de tantos lenguajes y en el apartado 3 muchos me parecían casi iguales.,68.0,yes
69,2024-04-16_12h29.51.504,Experiment4_uns,s184,22 ,feminino,right,España,Catalán y castellano,Bachelor degree,no,no,B,1,when,L2,unsyncopated,when,when,69,Online_whenL2//b.fe14.none.wav,ra,du,ba,sil,to,bi,su,sil1,te,ñu,sil2,['-'],,,none,none,,,,fe,2,testConjL3Syn//r1.s1.0.wav,3.0,conjunction_syn,syncopated,a,s1,rule,rule,L3,m,1.4195,5.0,0.0,0.6757,3.0,3.0,Catalán,0.0,Castellano,0.0,Inglés,6.0,4.0,6.0,no,no,yes,Nada,,Flauta en el cole no se si cuenta,,,,Ha ido muy bien pero estaba un poco saturada de tantos lenguajes y en el apartado 3 muchos me parecían casi iguales.,68.0,yes
70,2024-04-16_12h29.51.504,Experiment4_uns,s184,22 ,feminino,right,España,Catalán y castellano,Bachelor degree,no,no,B,1,when,L2,unsyncopated,when,when,70,Online_whenL2//b.fe12.none.wav,su,si,te,sil,cha,go,ñu,sil1,to,du,sil2,['-'],,,none,none,,,,fe,2,testConjL3Syn//r1.s2.1.wav,3.0,conjunction_syn,syncopated,a,s2,rule,rule,L3,z,1.1831,4.0,1.0,0.5999,3.0,3.0,Catalán,0.0,Castellano,0.0,Inglés,6.0,4.0,6.0,no,no,yes,Nada,,Flauta en el cole no se si cuenta,,,,Ha ido muy bien pero estaba un poco saturada de tantos lenguajes y en el apartado 3 muchos me parecían casi iguales.,68.0,yes
71,2024-04-16_12h29.51.504,Experiment4_uns,s184,22 ,feminino,right,España,Catalán y castellano,Bachelor degree,no,no,B,1,when,L2,unsyncopated,when,when,71,Online_whenL2//b.fe13.none.wav,te,su,ra,sil,si,go,ba,sil1,me,mi,sil2,['false alarm'],[0.7397999999971034],[0.7397999999971034],none,none,,,"[""space""]",fe,2,testConjL3Syn//time_viol.r2.s1.0.wav,3.0,conjunction_syn,syncopated,b,s1,no_rule,time,L3,m,4.0806,5.0,1.0,1.3066,3.0,3.0,Catalán,0.0,Castellano,0.0,Inglés,6.0,4.0,6.0,no,no,yes,Nada,,Flauta en el cole no se si cuenta,,,,Ha ido muy bien pero estaba un poco saturada de tantos lenguajes y en el apartado 3 muchos me parecían casi iguales.,68.0,yes
72,2024-04-16_12h29.51.504,Experiment4_uns,s184,22 ,feminino,right,España,Catalán y castellano,Bachelor degree,no,no,B,1,when,L2,unsyncopated,when,when,72,Online_whenL2//a.du30.none.wav,fe,bi,to,sil,cha,su,ra,sil1,ño,ba,sil2,['false alarm'],[0.5583999999985281],[0.5583999999985281],none,none,,,"[""space""]",du,1,testWhatL1Uns//cat_viol.r1.s2.0.wav,4.0,what,unsyncopated,a,s2,no_rule,cat,L1,m,7.6153,1.0,1.0,0.2917,3.0,3.0,Catalán,0.0,Castellano,0.0,Inglés,6.0,4.0,6.0,no,no,yes,Nada,,Flauta en el cole no se si cuenta,,,,Ha ido muy bien pero estaba un poco saturada de tantos lenguajes y en el apartado 3 muchos me parecían casi iguales.,68.0,yes
73,2024-04-16_12h29.51.504,Experiment4_uns,s184,22 ,feminino,right,España,Catalán y castellano,Bachelor degree,no,no,B,1,when,L2,unsyncopated,when,when,73,Online_whenL2//a.du31.222.wav,ba,du,go,sil,to,si,cha,sil1,mi,bi,sil2,"['catch', 'false alarm']","[1.1187000000029457, 1.9138000000044713]",[1.1187000000029457],0.222,no_beat,0.8967000000029457,0.8967000000029457,"[""space"",""space""]",du,1,testWhatL1Uns//dep_viol.r1.s1.0.wav,4.0,what,unsyncopated,a,s1,no_rule,dep,L1,z,0.5864,3.0,0.0,0.4833,3.0,3.0,Catalán,0.0,Castellano,0.0,Inglés,6.0,4.0,6.0,no,no,yes,Nada,,Flauta en el cole no se si cuenta,,,,Ha ido muy bien pero estaba un poco saturada de tantos lenguajes y en el apartado 3 muchos me parecían casi iguales.,68.0,yes
74,2024-04-16_12h29.51.504,Experiment4_uns,s184,22 ,feminino,right,España,Catalán y castellano,Bachelor degree,no,no,B,1,when,L2,unsyncopated,when,when,74,Online_whenL2//a.du29.1998.wav,ra,ño,su,sil,bi,si,mi,sil1,me,du,sil2,['catch_delay'],[0.7253000000044414],[0.7253000000044414],1.998,no_beat,0.7253000000044414,0.7253000000044414,,du,1,testWhatL1Uns//dep_viol.r2.s2.0.wav,4.0,what,unsyncopated,b,s2,no_rule,dep,L1,z,0.1844,2.0,0.0,0.8053,3.0,3.0,Catalán,0.0,Castellano,0.0,Inglés,6.0,4.0,6.0,no,no,yes,Nada,,Flauta en el cole no se si cuenta,,,,Ha ido muy bien pero estaba un poco saturada de tantos lenguajes y en el apartado 3 muchos me parecían casi iguales.,68.0,yes
75,2024-04-16_12h29.51.504,Experiment4_uns,s184,22 ,feminino,right,España,Catalán y castellano,Bachelor degree,no,no,B,1,when,L2,unsyncopated,when,when,75,Online_whenL2//a.du28.none.wav,ño,te,to,sil,go,ba,ra,sil1,su,bi,sil2,['false alarm'],"[0.059300000004441245, 1.018000000000029]",1.018000000000029,none,none,,,"[""space"",""space""]",du,1,testWhatL1Uns//r1.s2.1.wav,4.0,what,unsyncopated,a,s2,rule,rule,L1,m,0.2242,3.0,0.0,0.3037,3.0,3.0,Catalán,0.0,Castellano,0.0,Inglés,6.0,4.0,6.0,no,no,yes,Nada,,Flauta en el cole no se si cuenta,,,,Ha ido muy bien pero estaba un poco saturada de tantos lenguajes y en el apartado 3 muchos me parecían casi iguales.,68.0,yes
76,2024-04-16_12h29.51.504,Experiment4_uns,s184,22 ,feminino,right,España,Catalán y castellano,Bachelor degree,no,no,B,1,when,L2,unsyncopated,when,when,76,Online_whenL2//b.fe27.888.wav,to,cha,su,sil,fe,me,go,sil1,ñu,ño,sil2,['catch'],[2.572399999998538],[2.572399999998538],0.888,beat,,1.6843999999985382,"[""space""]",fe,2,testWhatL1Uns//cat_viol.r2.s2.0.wav,4.0,what,unsyncopated,b,s2,no_rule,cat,L1,z,0.2503,5.0,0.0,0.937,3.0,3.0,Catalán,0.0,Castellano,0.0,Inglés,6.0,4.0,6.0,no,no,yes,Nada,,Flauta en el cole no se si cuenta,,,,Ha ido muy bien pero estaba un poco saturada de tantos lenguajes y en el apartado 3 muchos me parecían casi iguales.,68.0,yes
77,2024-04-16_12h29.51.504,Experiment4_uns,s184,22 ,feminino,right,España,Catalán y castellano,Bachelor degree,no,no,B,1,when,L2,unsyncopated,when,when,77,Online_whenL2//b.fe25.888.wav,ba,me,mi,sil,fe,to,bi,sil1,ñu,du,sil2,['catch'],[1.3980000000000246],[1.3980000000000246],0.888,beat,0.5100000000000245,0.5100000000000245,"[""space""]",fe,2,testWhatL1Uns//r1.s1.0.wav,4.0,what,unsyncopated,a,s1,rule,rule,L1,m,1.3831,2.0,0.0,0.8558,3.0,3.0,Catalán,0.0,Castellano,0.0,Inglés,6.0,4.0,6.0,no,no,yes,Nada,,Flauta en el cole no se si cuenta,,,,Ha ido muy bien pero estaba un poco saturada de tantos lenguajes y en el apartado 3 muchos me parecían casi iguales.,68.0,yes
78,2024-04-16_12h29.51.504,Experiment4_uns,s184,22 ,feminino,right,España,Catalán y castellano,Bachelor degree,no,no,B,1,when,L2,unsyncopated,when,when,78,Online_whenL2//b.fe26.none.wav,ñu,te,ño,sil,go,mi,me,sil1,du,ba,sil2,['false alarm'],[1.030999999999949],[1.030999999999949],none,none,,,"[""space""]",fe,2,testWhatL1Uns//r2.s1.0.wav,4.0,what,unsyncopated,b,s1,rule,rule,L1,z,1.683,5.0,1.0,0.4087,3.0,3.0,Catalán,0.0,Castellano,0.0,Inglés,6.0,4.0,6.0,no,no,yes,Nada,,Flauta en el cole no se si cuenta,,,,Ha ido muy bien pero estaba un poco saturada de tantos lenguajes y en el apartado 3 muchos me parecían casi iguales.,68.0,yes
79,2024-04-16_12h29.51.504,Experiment4_uns,s184,22 ,feminino,right,España,Catalán y castellano,Bachelor degree,no,no,B,1,when,L2,unsyncopated,when,when,79,Online_whenL2//b.fe24.888.wav,to,te,ñu,sil,fe,su,bi,sil1,du,mi,sil2,['catch'],[1.6803000000044221],[1.6803000000044221],0.888,beat,0.7923000000044221,0.7923000000044221,"[""space""]",fe,2,testWhatL1Uns//dep_viol.r2.s1.0.wav,4.0,what,unsyncopated,b,s1,no_rule,dep,L1,z,0.3336,3.0,0.0,0.9663,3.0,3.0,Catalán,0.0,Castellano,0.0,Inglés,6.0,4.0,6.0,no,no,yes,Nada,,Flauta en el cole no se si cuenta,,,,Ha ido muy bien pero estaba un poco saturada de tantos lenguajes y en el apartado 3 muchos me parecían casi iguales.,68.0,yes
80,2024-04-16_12h29.51.504,Experiment4_uns,s184,22 ,feminino,right,España,Catalán y castellano,Bachelor degree,no,no,B,1,when,L2,unsyncopated,when,when,80,Online_whenL2//a.du32.none.wav,to,fe,ñu,sil,cha,te,go,sil1,ño,si,sil2,['false alarm'],[0.7195000000000391],[0.7195000000000391],none,none,,,"[""space""]",du,1,testWhatL1Uns//cat_viol.r1.s1.0.wav,4.0,what,unsyncopated,a,s1,no_rule,cat,L1,m,2.2987,2.0,1.0,0.6339,3.0,3.0,Catalán,0.0,Castellano,0.0,Inglés,6.0,4.0,6.0,no,no,yes,Nada,,Flauta en el cole no se si cuenta,,,,Ha ido muy bien pero estaba un poco saturada de tantos lenguajes y en el apartado 3 muchos me parecían casi iguales.,68.0,yes
81,2024-04-16_12h29.51.504,Experiment4_uns,s184,22 ,feminino,right,España,Catalán y castellano,Bachelor degree,no,no,B,1,when,L2,unsyncopated,when,when,81,Online_whenL2//a.du33.1110.wav,te,su,si,sil,to,du,fe,sil1,mi,me,sil2,['catch'],[1.6468999999984817],[1.6468999999984817],1.11,no_beat,0.5368999999984816,0.5368999999984816,"[""space""]",du,1,testWhatL1Uns//time_viol.r2.s2.0.wav,4.0,what,unsyncopated,b,s2,no_rule,time,L1,m,1.3585,1.0,1.0,0.2006,3.0,3.0,Catalán,0.0,Castellano,0.0,Inglés,6.0,4.0,6.0,no,no,yes,Nada,,Flauta en el cole no se si cuenta,,,,Ha ido muy bien pero estaba un poco saturada de tantos lenguajes y en el apartado 3 muchos me parecían casi iguales.,68.0,yes
82,2024-04-16_12h29.51.504,Experiment4_uns,s184,22 ,feminino,right,España,Catalán y castellano,Bachelor degree,no,no,B,1,when,L2,unsyncopated,when,when,82,Online_whenL2//a.du35.none.wav,to,ñu,su,sil,ba,cha,fe,sil1,ño,go,sil2,['-'],,,none,none,,,,du,1,testWhatL1Uns//r1.s2.0.wav,4.0,what,unsyncopated,a,s2,rule,rule,L1,z,0.3412,4.0,1.0,0.8002,3.0,3.0,Catalán,0.0,Castellano,0.0,Inglés,6.0,4.0,6.0,no,no,yes,Nada,,Flauta en el cole no se si cuenta,,,,Ha ido muy bien pero estaba un poco saturada de tantos lenguajes y en el apartado 3 muchos me parecían casi iguales.,68.0,yes
83,2024-04-16_12h29.51.504,Experiment4_uns,s184,22 ,feminino,right,España,Catalán y castellano,Bachelor degree,no,no,B,1,when,L2,unsyncopated,when,when,83,Online_whenL2//a.du34.1110.wav,ba,ñu,fe,sil,si,du,ño,sil1,te,su,sil2,"['catch', 'false alarm']","[1.6026999999954796, 2.646199999995474]",[1.6026999999954796],1.11,no_beat,0.4926999999954795,0.4926999999954795,"[""space"",""space""]",du,1,testWhatL1Uns//cat_viol.r2.s1.0.wav,4.0,what,unsyncopated,b,s1,no_rule,cat,L1,z,0.6499,3.0,0.0,0.5507,3.0,3.0,Catalán,0.0,Castellano,0.0,Inglés,6.0,4.0,6.0,no,no,yes,Nada,,Flauta en el cole no se si cuenta,,,,Ha ido muy bien pero estaba un poco saturada de tantos lenguajes y en el apartado 3 muchos me parecían casi iguales.,68.0,yes
84,2024-04-16_12h29.51.504,Experiment4_uns,s184,22 ,feminino,right,España,Catalán y castellano,Bachelor degree,no,no,B,1,when,L2,unsyncopated,when,when,84,Online_whenL2//d.si29.888.wav,cha,me,su,sil,si,mi,te,sil1,ra,go,sil2,['catch'],[1.5598000000044294],[1.5598000000044294],0.888,beat,0.6718000000044294,0.6718000000044294,"[""space""]",si,4,testWhatL1Uns//r2.s1.2.wav,4.0,what,unsyncopated,b,s1,rule,rule,L1,m,0.2659,1.0,0.0,0.6338,3.0,3.0,Catalán,0.0,Castellano,0.0,Inglés,6.0,4.0,6.0,no,no,yes,Nada,,Flauta en el cole no se si cuenta,,,,Ha ido muy bien pero estaba un poco saturada de tantos lenguajes y en el apartado 3 muchos me parecían casi iguales.,68.0,yes
85,2024-04-16_12h29.51.504,Experiment4_uns,s184,22 ,feminino,right,España,Catalán y castellano,Bachelor degree,no,no,B,1,when,L2,unsyncopated,when,when,85,Online_whenL2//d.si28.888.wav,ñu,fe,bi,sil,si,cha,to,sil1,du,ba,sil2,['catch'],[1.58110000000147],[1.58110000000147],0.888,beat,0.6931000000014701,0.6931000000014701,"[""space""]",si,4,testWhatL1Uns//r1.s2.2.wav,4.0,what,unsyncopated,a,s2,rule,rule,L1,z,0.2663,5.0,1.0,0.4842,3.0,3.0,Catalán,0.0,Castellano,0.0,Inglés,6.0,4.0,6.0,no,no,yes,Nada,,Flauta en el cole no se si cuenta,,,,Ha ido muy bien pero estaba un poco saturada de tantos lenguajes y en el apartado 3 muchos me parecían casi iguales.,68.0,yes
86,2024-04-16_12h29.51.504,Experiment4_uns,s184,22 ,feminino,right,España,Catalán y castellano,Bachelor degree,no,no,B,1,when,L2,unsyncopated,when,when,86,Online_whenL2//d.si31.none.wav,su,ba,te,sil,ra,ño,to,sil1,mi,go,sil2,['-'],,,none,none,,,,si,4,testWhatL1Uns//r2.s2.1.wav,4.0,what,unsyncopated,b,s2,rule,rule,L1,z,0.2347,4.0,1.0,0.3726,3.0,3.0,Catalán,0.0,Castellano,0.0,Inglés,6.0,4.0,6.0,no,no,yes,Nada,,Flauta en el cole no se si cuenta,,,,Ha ido muy bien pero estaba un poco saturada de tantos lenguajes y en el apartado 3 muchos me parecían casi iguales.,68.0,yes
87,2024-04-16_12h29.51.504,Experiment4_uns,s184,22 ,feminino,right,España,Catalán y castellano,Bachelor degree,no,no,B,1,when,L2,unsyncopated,when,when,87,Online_whenL2//d.si30.none.wav,me,ba,cha,sil,ño,te,bi,sil1,du,go,sil2,['-'],,,none,none,,,,si,4,testWhatL1Uns//r2.s2.0.wav,4.0,what,unsyncopated,b,s2,rule,rule,L1,z,2.4659,2.0,1.0,0.5014,3.0,3.0,Catalán,0.0,Castellano,0.0,Inglés,6.0,4.0,6.0,no,no,yes,Nada,,Flauta en el cole no se si cuenta,,,,Ha ido muy bien pero estaba un poco saturada de tantos lenguajes y en el apartado 3 muchos me parecían casi iguales.,68.0,yes
88,2024-04-16_12h29.51.504,Experiment4_uns,s184,22 ,feminino,right,España,Catalán y castellano,Bachelor degree,no,no,B,1,when,L2,unsyncopated,when,when,88,Online_whenL2//d.si23.none.wav,to,mi,ba,sil,go,du,ñu,sil1,te,ño,sil2,['-'],,,none,none,,,,si,4,testWhatL1Uns//r1.s1.1.wav,4.0,what,unsyncopated,a,s1,rule,rule,L1,z,0.5833,4.0,1.0,0.5502,3.0,3.0,Catalán,0.0,Castellano,0.0,Inglés,6.0,4.0,6.0,no,no,yes,Nada,,Flauta en el cole no se si cuenta,,,,Ha ido muy bien pero estaba un poco saturada de tantos lenguajes y en el apartado 3 muchos me parecían casi iguales.,68.0,yes
89,2024-04-16_12h29.51.504,Experiment4_uns,s184,22 ,feminino,right,España,Catalán y castellano,Bachelor degree,no,no,B,1,when,L2,unsyncopated,when,when,89,Online_whenL2//d.si21.none.wav,te,me,bi,sil,go,ñu,to,sil1,ra,ño,sil2,['-'],,,none,none,,,,si,4,testWhatL1Uns//time_viol.r1.s1.0.wav,4.0,what,unsyncopated,a,s1,no_rule,time,L1,z,0.3338,6.0,0.0,0.8993,3.0,3.0,Catalán,0.0,Castellano,0.0,Inglés,6.0,4.0,6.0,no,no,yes,Nada,,Flauta en el cole no se si cuenta,,,,Ha ido muy bien pero estaba un poco saturada de tantos lenguajes y en el apartado 3 muchos me parecían casi iguales.,68.0,yes
90,2024-04-16_12h29.51.504,Experiment4_uns,s184,22 ,feminino,right,España,Catalán y castellano,Bachelor degree,no,no,B,1,when,L2,unsyncopated,when,when,90,Online_whenL2//d.si20.1998.wav,ba,mi,ñu,sil,cha,to,go,sil1,ra,si,sil2,['catch_delay'],[0.6886000000014894],[0.6886000000014894],1.998,no_beat,0.6886000000014894,0.6886000000014894,,si,4,testWhatL1Uns//r2.s1.1.wav,4.0,what,unsyncopated,b,s1,rule,rule,L1,z,0.5325,5.0,1.0,0.3552,3.0,3.0,Catalán,0.0,Castellano,0.0,Inglés,6.0,4.0,6.0,no,no,yes,Nada,,Flauta en el cole no se si cuenta,,,,Ha ido muy bien pero estaba un poco saturada de tantos lenguajes y en el apartado 3 muchos me parecían casi iguales.,68.0,yes
91,2024-04-16_12h29.51.504,Experiment4_uns,s184,22 ,feminino,right,España,Catalán y castellano,Bachelor degree,no,no,B,1,when,L2,unsyncopated,when,when,91,Online_whenL2//d.si22.none.wav,te,du,fe,sil,cha,su,ñu,sil1,me,ba,sil2,['-'],[0.022600000001489207],[0.022600000001489207],none,none,,,"[""space""]",si,4,testWhatL1Uns//r2.s2.2.wav,4.0,what,unsyncopated,b,s2,rule,rule,L1,m,0.4678,2.0,0.0,0.583,3.0,3.0,Catalán,0.0,Castellano,0.0,Inglés,6.0,4.0,6.0,no,no,yes,Nada,,Flauta en el cole no se si cuenta,,,,Ha ido muy bien pero estaba un poco saturada de tantos lenguajes y en el apartado 3 muchos me parecían casi iguales.,68.0,yes
92,2024-04-16_12h29.51.504,Experiment4_uns,s184,22 ,feminino,right,España,Catalán y castellano,Bachelor degree,no,no,B,1,when,L2,unsyncopated,when,when,92,Online_whenL2//c.cha15.none.wav,si,su,ñu,sil,mi,ba,ra,sil1,to,go,sil2,['-'],,,none,none,,,,cha,3,testWhatL1Uns//r1.s1.2.wav,4.0,what,unsyncopated,a,s1,rule,rule,L1,z,1.2822,6.0,1.0,0.5675,3.0,3.0,Catalán,0.0,Castellano,0.0,Inglés,6.0,4.0,6.0,no,no,yes,Nada,,Flauta en el cole no se si cuenta,,,,Ha ido muy bien pero estaba un poco saturada de tantos lenguajes y en el apartado 3 muchos me parecían casi iguales.,68.0,yes
93,2024-04-16_12h29.51.504,Experiment4_uns,s184,22 ,feminino,right,España,Catalán y castellano,Bachelor degree,no,no,B,1,when,L2,unsyncopated,when,when,93,Online_whenL2//c.cha13.888.wav,te,me,ba,sil,cha,bi,si,sil1,fe,du,sil2,['catch'],[1.3155000000000427],[1.3155000000000427],0.888,beat,0.4275000000000427,0.4275000000000427,"[""space""]",cha,3,testWhatL1Uns//time_viol.r1.s2.0.wav,4.0,what,unsyncopated,a,s2,no_rule,time,L1,m,0.1174,1.0,1.0,0.4158,3.0,3.0,Catalán,0.0,Castellano,0.0,Inglés,6.0,4.0,6.0,no,no,yes,Nada,,Flauta en el cole no se si cuenta,,,,Ha ido muy bien pero estaba un poco saturada de tantos lenguajes y en el apartado 3 muchos me parecían casi iguales.,68.0,yes
94,2024-04-16_12h29.51.504,Experiment4_uns,s184,22 ,feminino,right,España,Catalán y castellano,Bachelor degree,no,no,B,1,when,L2,unsyncopated,when,when,94,Online_whenL2//c.cha12.444.wav,du,ba,cha,sil,te,bi,ño,sil1,ñu,fe,sil2,['catch'],[1.039299999996956],[1.039299999996956],0.444,no_beat,0.5952999999969562,0.5952999999969562,"[""space""]",cha,3,testWhatL1Uns//dep_viol.r1.s2.0.wav,4.0,what,unsyncopated,a,s2,no_rule,dep,L1,m,0.2711,4.0,1.0,0.5831,3.0,3.0,Catalán,0.0,Castellano,0.0,Inglés,6.0,4.0,6.0,no,no,yes,Nada,,Flauta en el cole no se si cuenta,,,,Ha ido muy bien pero estaba un poco saturada de tantos lenguajes y en el apartado 3 muchos me parecían casi iguales.,68.0,yes
95,2024-04-16_12h29.51.504,Experiment4_uns,s184,22 ,feminino,right,España,Catalán y castellano,Bachelor degree,no,no,B,1,when,L2,unsyncopated,when,when,95,Online_whenL2//c.cha14.none.wav,go,te,ñu,sil,mi,bi,ba,sil1,ño,du,sil2,['-'],,,none,none,,,,cha,3,testWhatL1Uns//time_viol.r2.s1.0.wav,4.0,what,unsyncopated,b,s1,no_rule,time,L1,z,0.7491,3.0,0.0,0.3332,3.0,3.0,Catalán,0.0,Castellano,0.0,Inglés,6.0,4.0,6.0,no,no,yes,Nada,,Flauta en el cole no se si cuenta,,,,Ha ido muy bien pero estaba un poco saturada de tantos lenguajes y en el apartado 3 muchos me parecían casi iguales.,68.0,yes
96,2024-04-16_12h29.51.504,Experiment4_uns,s184,22 ,feminino,right,España,Catalán y castellano,Bachelor degree,no,no,B,1,when,L2,unsyncopated,when,when,96,Online_whenL2//c.cha17.none.wav,te,ñu,su,sil,mi,go,me,sil1,ra,si,sil2,['-'],,,none,none,,,,cha,3,,,,,,,,,,,,,,,3.0,3.0,Catalán,0.0,Castellano,0.0,Inglés,6.0,4.0,6.0,no,no,yes,Nada,,Flauta en el cole no se si cuenta,,,,Ha ido muy bien pero estaba un poco saturada de tantos lenguajes y en el apartado 3 muchos me parecían casi iguales.,68.0,yes
97,2024-04-16_12h29.51.504,Experiment4_uns,s184,22 ,feminino,right,España,Catalán y castellano,Bachelor degree,no,no,B,1,when,L2,unsyncopated,when,when,97,Online_whenL2//c.cha19.1998.wav,go,si,du,sil,ñu,to,ba,sil1,te,cha,sil2,['catch'],[2.4879000000058795],[2.4879000000058795],1.998,no_beat,0.4899000000058795,0.4899000000058795,"[""space""]",cha,3,,,,,,,,,,,,,,,3.0,3.0,Catalán,0.0,Castellano,0.0,Inglés,6.0,4.0,6.0,no,no,yes,Nada,,Flauta en el cole no se si cuenta,,,,Ha ido muy bien pero estaba un poco saturada de tantos lenguajes y en el apartado 3 muchos me parecían casi iguales.,68.0,yes
98,2024-04-16_12h29.51.504,Experiment4_uns,s184,22 ,feminino,right,España,Catalán y castellano,Bachelor degree,no,no,B,1,when,L2,unsyncopated,when,when,98,Online_whenL2//c.cha16.none.wav,te,su,to,sil,du,ra,me,sil1,si,mi,sil2,['-'],,,none,none,,,,cha,3,,,,,,,,,,,,,,,3.0,3.0,Catalán,0.0,Castellano,0.0,Inglés,6.0,4.0,6.0,no,no,yes,Nada,,Flauta en el cole no se si cuenta,,,,Ha ido muy bien pero estaba un poco saturada de tantos lenguajes y en el apartado 3 muchos me parecían casi iguales.,68.0,yes
99,2024-04-16_12h29.51.504,Experiment4_uns,s184,22 ,feminino,right,España,Catalán y castellano,Bachelor degree,no,no,B,1,when,L2,unsyncopated,when,when,99,Online_whenL2//c.cha18.1776.wav,ra,ñu,ño,sil,si,to,te,sil1,cha,du,sil2,['catch'],[2.3242000000029748],[2.3242000000029748],1.776,beat,0.5482000000029748,0.5482000000029748,"[""space""]",cha,3,,,,,,,,,,,,,,,3.0,3.0,Catalán,0.0,Castellano,0.0,Inglés,6.0,4.0,6.0,no,no,yes,Nada,,Flauta en el cole no se si cuenta,,,,Ha ido muy bien pero estaba un poco saturada de tantos lenguajes y en el apartado 3 muchos me parecían casi iguales.,68.0,yes
100,2024-04-16_12h29.51.504,Experiment4_uns,s184,22 ,feminino,right,España,Catalán y castellano,Bachelor degree,no,no,B,1,when,L2,unsyncopated,when,when,100,Online_whenL2//a.du9.1332.wav,bi,cha,su,sil,ñu,ba,du,sil1,ra,me,sil2,"['false alarm', 'catch']","[0.9856999999955178, 2.1148999999984426]",[2.1148999999984426],1.332,no_beat,0.7828999999984425,0.7828999999984425,"[""space"",""space""]",du,1,,,,,,,,,,,,,,,3.0,3.0,Catalán,0.0,Castellano,0.0,Inglés,6.0,4.0,6.0,no,no,yes,Nada,,Flauta en el cole no se si cuenta,,,,Ha ido muy bien pero estaba un poco saturada de tantos lenguajes y en el apartado 3 muchos me parecían casi iguales.,68.0,yes
101,2024-04-16_12h29.51.504,Experiment4_uns,s184,22 ,feminino,right,España,Catalán y castellano,Bachelor degree,no,no,B,1,when,L2,unsyncopated,when,when,101,Online_whenL2//a.du11.1998.wav,me,te,go,sil,mi,ñu,si,sil1,bi,du,sil2,['catch'],[2.5219999999999345],[2.5219999999999345],1.998,no_beat,0.5239999999999345,0.5239999999999345,"[""space""]",du,1,,,,,,,,,,,,,,,3.0,3.0,Catalán,0.0,Castellano,0.0,Inglés,6.0,4.0,6.0,no,no,yes,Nada,,Flauta en el cole no se si cuenta,,,,Ha ido muy bien pero estaba un poco saturada de tantos lenguajes y en el apartado 3 muchos me parecían casi iguales.,68.0,yes
102,2024-04-16_12h29.51.504,Experiment4_uns,s184,22 ,feminino,right,España,Catalán y castellano,Bachelor degree,no,no,B,1,when,L2,unsyncopated,when,when,102,Online_whenL2//a.du10.none.wav,cha,ño,to,sil,ra,bi,fe,sil1,ba,mi,sil2,['false alarm'],[2.6141000000014856],[2.6141000000014856],none,none,,,"[""space""]",du,1,,,,,,,,,,,,,,,3.0,3.0,Catalán,0.0,Castellano,0.0,Inglés,6.0,4.0,6.0,no,no,yes,Nada,,Flauta en el cole no se si cuenta,,,,Ha ido muy bien pero estaba un poco saturada de tantos lenguajes y en el apartado 3 muchos me parecían casi iguales.,68.0,yes
103,2024-04-16_12h29.51.504,Experiment4_uns,s184,22 ,feminino,right,España,Catalán y castellano,Bachelor degree,no,no,B,1,when,L2,unsyncopated,when,when,103,Online_whenL2//a.du8.none.wav,ño,su,to,sil,go,te,bi,sil1,ra,si,sil2,['-'],,,none,none,,,,du,1,,,,,,,,,,,,,,,3.0,3.0,Catalán,0.0,Castellano,0.0,Inglés,6.0,4.0,6.0,no,no,yes,Nada,,Flauta en el cole no se si cuenta,,,,Ha ido muy bien pero estaba un poco saturada de tantos lenguajes y en el apartado 3 muchos me parecían casi iguales.,68.0,yes
104,2024-04-16_12h29.51.504,Experiment4_uns,s184,22 ,feminino,right,España,Catalán y castellano,Bachelor degree,no,no,B,1,when,L2,unsyncopated,when,when,104,Online_whenL2//c.cha22.none.wav,ra,to,mi,sil,bi,te,ba,sil1,fe,ñu,sil2,['-'],,,none,none,,,,cha,3,,,,,,,,,,,,,,,3.0,3.0,Catalán,0.0,Castellano,0.0,Inglés,6.0,4.0,6.0,no,no,yes,Nada,,Flauta en el cole no se si cuenta,,,,Ha ido muy bien pero estaba un poco saturada de tantos lenguajes y en el apartado 3 muchos me parecían casi iguales.,68.0,yes
105,2024-04-16_12h29.51.504,Experiment4_uns,s184,22 ,feminino,right,España,Catalán y castellano,Bachelor degree,no,no,B,1,when,L2,unsyncopated,when,when,105,Online_whenL2//c.cha20.none.wav,fe,ño,mi,sil,ra,su,ba,sil1,ñu,to,sil2,['-'],,,none,none,,,,cha,3,,,,,,,,,,,,,,,3.0,3.0,Catalán,0.0,Castellano,0.0,Inglés,6.0,4.0,6.0,no,no,yes,Nada,,Flauta en el cole no se si cuenta,,,,Ha ido muy bien pero estaba un poco saturada de tantos lenguajes y en el apartado 3 muchos me parecían casi iguales.,68.0,yes
106,2024-04-16_12h29.51.504,Experiment4_uns,s184,22 ,feminino,right,España,Catalán y castellano,Bachelor degree,no,no,B,1,when,L2,unsyncopated,when,when,106,Online_whenL2//c.cha23.none.wav,me,ba,fe,sil,ño,ñu,mi,sil1,go,te,sil2,['false alarm'],[0.31139999999845713],[0.31139999999845713],none,none,,,"[""space""]",cha,3,,,,,,,,,,,,,,,3.0,3.0,Catalán,0.0,Castellano,0.0,Inglés,6.0,4.0,6.0,no,no,yes,Nada,,Flauta en el cole no se si cuenta,,,,Ha ido muy bien pero estaba un poco saturada de tantos lenguajes y en el apartado 3 muchos me parecían casi iguales.,68.0,yes
107,2024-04-16_12h29.51.504,Experiment4_uns,s184,22 ,feminino,right,España,Catalán y castellano,Bachelor degree,no,no,B,1,when,L2,unsyncopated,when,when,107,Online_whenL2//c.cha21.1998.wav,si,du,ñu,sil,mi,go,to,sil1,ño,cha,sil2,['catch'],[2.504400000005944],[2.504400000005944],1.998,no_beat,0.5064000000059441,0.5064000000059441,"[""space""]",cha,3,,,,,,,,,,,,,,,3.0,3.0,Catalán,0.0,Castellano,0.0,Inglés,6.0,4.0,6.0,no,no,yes,Nada,,Flauta en el cole no se si cuenta,,,,Ha ido muy bien pero estaba un poco saturada de tantos lenguajes y en el apartado 3 muchos me parecían casi iguales.,68.0,yes
108,2024-04-16_12h29.51.504,Experiment4_uns,s184,22 ,feminino,right,España,Catalán y castellano,Bachelor degree,no,no,B,1,when,L2,unsyncopated,when,when,108,Online_whenL2//c.cha6.none.wav,ño,bi,su,sil,ñu,to,si,sil1,du,go,sil2,['-'],,,none,none,,,,cha,3,,,,,,,,,,,,,,,3.0,3.0,Catalán,0.0,Castellano,0.0,Inglés,6.0,4.0,6.0,no,no,yes,Nada,,Flauta en el cole no se si cuenta,,,,Ha ido muy bien pero estaba un poco saturada de tantos lenguajes y en el apartado 3 muchos me parecían casi iguales.,68.0,yes
109,2024-04-16_12h29.51.504,Experiment4_uns,s184,22 ,feminino,right,España,Catalán y castellano,Bachelor degree,no,no,B,1,when,L2,unsyncopated,when,when,109,Online_whenL2//c.cha7.none.wav,ba,to,bi,sil,ño,du,si,sil1,mi,fe,sil2,['-'],,,none,none,,,,cha,3,,,,,,,,,,,,,,,3.0,3.0,Catalán,0.0,Castellano,0.0,Inglés,6.0,4.0,6.0,no,no,yes,Nada,,Flauta en el cole no se si cuenta,,,,Ha ido muy bien pero estaba un poco saturada de tantos lenguajes y en el apartado 3 muchos me parecían casi iguales.,68.0,yes
110,2024-04-16_12h29.51.504,Experiment4_uns,s184,22 ,feminino,right,España,Catalán y castellano,Bachelor degree,no,no,B,1,when,L2,unsyncopated,when,when,110,Online_whenL2//c.cha4.222.wav,bi,cha,ñu,sil,su,mi,du,sil1,si,fe,sil2,['catch'],[0.7462999999969497],[0.7462999999969497],0.222,no_beat,0.5242999999969498,0.5242999999969498,"[""space""]",cha,3,,,,,,,,,,,,,,,3.0,3.0,Catalán,0.0,Castellano,0.0,Inglés,6.0,4.0,6.0,no,no,yes,Nada,,Flauta en el cole no se si cuenta,,,,Ha ido muy bien pero estaba un poco saturada de tantos lenguajes y en el apartado 3 muchos me parecían casi iguales.,68.0,yes
111,2024-04-16_12h29.51.504,Experiment4_uns,s184,22 ,feminino,right,España,Catalán y castellano,Bachelor degree,no,no,B,1,when,L2,unsyncopated,when,when,111,Online_whenL2//c.cha5.none.wav,bi,mi,to,sil,su,fe,te,sil1,du,si,sil2,['-'],,,none,none,,,,cha,3,,,,,,,,,,,,,,,3.0,3.0,Catalán,0.0,Castellano,0.0,Inglés,6.0,4.0,6.0,no,no,yes,Nada,,Flauta en el cole no se si cuenta,,,,Ha ido muy bien pero estaba un poco saturada de tantos lenguajes y en el apartado 3 muchos me parecían casi iguales.,68.0,yes
112,2024-04-16_12h29.51.504,Experiment4_uns,s184,22 ,feminino,right,España,Catalán y castellano,Bachelor degree,no,no,B,1,when,L2,unsyncopated,when,when,112,Online_whenL2//d.si10.none.wav,to,bi,fe,sil,me,mi,ra,sil1,ba,cha,sil2,['-'],,,none,none,,,,si,4,,,,,,,,,,,,,,,3.0,3.0,Catalán,0.0,Castellano,0.0,Inglés,6.0,4.0,6.0,no,no,yes,Nada,,Flauta en el cole no se si cuenta,,,,Ha ido muy bien pero estaba un poco saturada de tantos lenguajes y en el apartado 3 muchos me parecían casi iguales.,68.0,yes
113,2024-04-16_12h29.51.504,Experiment4_uns,s184,22 ,feminino,right,España,Catalán y castellano,Bachelor degree,no,no,B,1,when,L2,unsyncopated,when,when,113,Online_whenL2//d.si9.none.wav,du,su,to,sil,ba,ra,mi,sil1,te,ño,sil2,['-'],,,none,none,,,,si,4,,,,,,,,,,,,,,,3.0,3.0,Catalán,0.0,Castellano,0.0,Inglés,6.0,4.0,6.0,no,no,yes,Nada,,Flauta en el cole no se si cuenta,,,,Ha ido muy bien pero estaba un poco saturada de tantos lenguajes y en el apartado 3 muchos me parecían casi iguales.,68.0,yes
114,2024-04-16_12h29.51.504,Experiment4_uns,s184,22 ,feminino,right,España,Catalán y castellano,Bachelor degree,no,no,B,1,when,L2,unsyncopated,when,when,114,Online_whenL2//d.si8.none.wav,ñu,su,fe,sil,ra,ño,me,sil1,cha,mi,sil2,['-'],,,none,none,,,,si,4,,,,,,,,,,,,,,,3.0,3.0,Catalán,0.0,Castellano,0.0,Inglés,6.0,4.0,6.0,no,no,yes,Nada,,Flauta en el cole no se si cuenta,,,,Ha ido muy bien pero estaba un poco saturada de tantos lenguajes y en el apartado 3 muchos me parecían casi iguales.,68.0,yes
115,2024-04-16_12h29.51.504,Experiment4_uns,s184,22 ,feminino,right,España,Catalán y castellano,Bachelor degree,no,no,B,1,when,L2,unsyncopated,when,when,115,Online_whenL2//d.si11.none.wav,to,mi,me,sil,ra,ñu,cha,sil1,su,du,sil2,['-'],,,none,none,,,,si,4,,,,,,,,,,,,,,,3.0,3.0,Catalán,0.0,Castellano,0.0,Inglés,6.0,4.0,6.0,no,no,yes,Nada,,Flauta en el cole no se si cuenta,,,,Ha ido muy bien pero estaba un poco saturada de tantos lenguajes y en el apartado 3 muchos me parecían casi iguales.,68.0,yes
116,2024-04-16_12h29.51.504,Experiment4_uns,s184,22 ,feminino,right,España,Catalán y castellano,Bachelor degree,no,no,B,1,when,L2,unsyncopated,when,when,116,Online_whenL2//a.du20.none.wav,su,go,te,sil,ra,si,bi,sil1,ñu,cha,sil2,['false alarm'],[0.9248999999985017],[0.9248999999985017],none,none,,,"[""space""]",du,1,,,,,,,,,,,,,,,3.0,3.0,Catalán,0.0,Castellano,0.0,Inglés,6.0,4.0,6.0,no,no,yes,Nada,,Flauta en el cole no se si cuenta,,,,Ha ido muy bien pero estaba un poco saturada de tantos lenguajes y en el apartado 3 muchos me parecían casi iguales.,68.0,yes
117,2024-04-16_12h29.51.504,Experiment4_uns,s184,22 ,feminino,right,España,Catalán y castellano,Bachelor degree,no,no,B,1,when,L2,unsyncopated,when,when,117,Online_whenL2//a.du23.888.wav,si,fe,to,sil,du,su,ño,sil1,me,ba,sil2,['catch'],[1.4242999999970607],[1.4242999999970607],0.888,beat,0.5362999999970607,0.5362999999970607,"[""space""]",du,1,,,,,,,,,,,,,,,3.0,3.0,Catalán,0.0,Castellano,0.0,Inglés,6.0,4.0,6.0,no,no,yes,Nada,,Flauta en el cole no se si cuenta,,,,Ha ido muy bien pero estaba un poco saturada de tantos lenguajes y en el apartado 3 muchos me parecían casi iguales.,68.0,yes
118,2024-04-16_12h29.51.504,Experiment4_uns,s184,22 ,feminino,right,España,Catalán y castellano,Bachelor degree,no,no,B,1,when,L2,unsyncopated,when,when,118,Online_whenL2//a.du21.none.wav,cha,si,bi,sil,ñu,ra,ño,sil1,ba,go,sil2,['-'],,,none,none,,,,du,1,,,,,,,,,,,,,,,3.0,3.0,Catalán,0.0,Castellano,0.0,Inglés,6.0,4.0,6.0,no,no,yes,Nada,,Flauta en el cole no se si cuenta,,,,Ha ido muy bien pero estaba un poco saturada de tantos lenguajes y en el apartado 3 muchos me parecían casi iguales.,68.0,yes
119,2024-04-16_12h29.51.504,Experiment4_uns,s184,22 ,feminino,right,España,Catalán y castellano,Bachelor degree,no,no,B,1,when,L2,unsyncopated,when,when,119,Online_whenL2//a.du22.444.wav,me,fe,du,sil,to,ba,te,sil1,su,ñu,sil2,['catch'],[1.0450999999940223],[1.0450999999940223],0.444,no_beat,0.6010999999940223,0.6010999999940223,"[""space""]",du,1,,,,,,,,,,,,,,,3.0,3.0,Catalán,0.0,Castellano,0.0,Inglés,6.0,4.0,6.0,no,no,yes,Nada,,Flauta en el cole no se si cuenta,,,,Ha ido muy bien pero estaba un poco saturada de tantos lenguajes y en el apartado 3 muchos me parecían casi iguales.,68.0,yes
120,2024-04-16_12h29.51.504,Experiment4_uns,s184,22 ,feminino,right,España,Catalán y castellano,Bachelor degree,no,no,B,1,when,L2,unsyncopated,when,when,120,Online_whenL2//b.fe22.none.wav,ño,ra,go,sil,ñu,bi,su,sil1,to,te,sil2,['-'],,,none,none,,,,fe,2,,,,,,,,,,,,,,,3.0,3.0,Catalán,0.0,Castellano,0.0,Inglés,6.0,4.0,6.0,no,no,yes,Nada,,Flauta en el cole no se si cuenta,,,,Ha ido muy bien pero estaba un poco saturada de tantos lenguajes y en el apartado 3 muchos me parecían casi iguales.,68.0,yes
121,2024-04-16_12h29.51.504,Experiment4_uns,s184,22 ,feminino,right,España,Catalán y castellano,Bachelor degree,no,no,B,1,when,L2,unsyncopated,when,when,121,Online_whenL2//b.fe21.1332.wav,ñu,mi,go,sil,te,su,fe,sil1,me,cha,sil2,"['catch', 'false alarm']","[1.8948000000044658, 2.2051000000014938]",[1.8948000000044658],1.332,no_beat,0.5628000000044657,0.5628000000044657,"[""space"",""space""]",fe,2,,,,,,,,,,,,,,,3.0,3.0,Catalán,0.0,Castellano,0.0,Inglés,6.0,4.0,6.0,no,no,yes,Nada,,Flauta en el cole no se si cuenta,,,,Ha ido muy bien pero estaba un poco saturada de tantos lenguajes y en el apartado 3 muchos me parecían casi iguales.,68.0,yes
122,2024-04-16_12h29.51.504,Experiment4_uns,s184,22 ,feminino,right,España,Catalán y castellano,Bachelor degree,no,no,B,1,when,L2,unsyncopated,when,when,122,Online_whenL2//b.fe20.1332.wav,cha,ño,du,sil,si,me,fe,sil1,te,mi,sil2,['catch'],[1.8908999999985099],[1.8908999999985099],1.332,no_beat,0.5588999999985098,0.5588999999985098,"[""space""]",fe,2,,,,,,,,,,,,,,,3.0,3.0,Catalán,0.0,Castellano,0.0,Inglés,6.0,4.0,6.0,no,no,yes,Nada,,Flauta en el cole no se si cuenta,,,,Ha ido muy bien pero estaba un poco saturada de tantos lenguajes y en el apartado 3 muchos me parecían casi iguales.,68.0,yes
123,2024-04-16_12h29.51.504,Experiment4_uns,s184,22 ,feminino,right,España,Catalán y castellano,Bachelor degree,no,no,B,1,when,L2,unsyncopated,when,when,123,Online_whenL2//b.fe23.none.wav,me,ba,du,sil,ra,to,bi,sil1,si,ñu,sil2,['-'],,,none,none,,,,fe,2,,,,,,,,,,,,,,,3.0,3.0,Catalán,0.0,Castellano,0.0,Inglés,6.0,4.0,6.0,no,no,yes,Nada,,Flauta en el cole no se si cuenta,,,,Ha ido muy bien pero estaba un poco saturada de tantos lenguajes y en el apartado 3 muchos me parecían casi iguales.,68.0,yes
124,2024-04-16_12h29.51.504,Experiment4_uns,s184,22 ,feminino,right,España,Catalán y castellano,Bachelor degree,no,no,B,1,when,L2,unsyncopated,when,when,124,Online_whenL2//a.du24.222.wav,me,du,to,sil,su,te,ra,sil1,bi,ñu,sil2,['catch'],[0.7918999999984635],[0.7918999999984635],0.222,no_beat,0.5698999999984635,0.5698999999984635,"[""space""]",du,1,,,,,,,,,,,,,,,3.0,3.0,Catalán,0.0,Castellano,0.0,Inglés,6.0,4.0,6.0,no,no,yes,Nada,,Flauta en el cole no se si cuenta,,,,Ha ido muy bien pero estaba un poco saturada de tantos lenguajes y en el apartado 3 muchos me parecían casi iguales.,68.0,yes
125,2024-04-16_12h29.51.504,Experiment4_uns,s184,22 ,feminino,right,España,Catalán y castellano,Bachelor degree,no,no,B,1,when,L2,unsyncopated,when,when,125,Online_whenL2//a.du26.none.wav,bi,ra,te,sil,ba,si,ño,sil1,go,to,sil2,['false alarm'],[1.1414999999999509],[1.1414999999999509],none,none,,,"[""space""]",du,1,,,,,,,,,,,,,,,3.0,3.0,Catalán,0.0,Castellano,0.0,Inglés,6.0,4.0,6.0,no,no,yes,Nada,,Flauta en el cole no se si cuenta,,,,Ha ido muy bien pero estaba un poco saturada de tantos lenguajes y en el apartado 3 muchos me parecían casi iguales.,68.0,yes
126,2024-04-16_12h29.51.504,Experiment4_uns,s184,22 ,feminino,right,España,Catalán y castellano,Bachelor degree,no,no,B,1,when,L2,unsyncopated,when,when,126,Online_whenL2//a.du25.444.wav,ñu,cha,du,sil,mi,su,si,sil1,go,me,sil2,['catch'],[1.7246999999954369],[1.7246999999954369],0.444,no_beat,,1.280699999995437,"[""space""]",du,1,,,,,,,,,,,,,,,3.0,3.0,Catalán,0.0,Castellano,0.0,Inglés,6.0,4.0,6.0,no,no,yes,Nada,,Flauta en el cole no se si cuenta,,,,Ha ido muy bien pero estaba un poco saturada de tantos lenguajes y en el apartado 3 muchos me parecían casi iguales.,68.0,yes
127,2024-04-16_12h29.51.504,Experiment4_uns,s184,22 ,feminino,right,España,Catalán y castellano,Bachelor degree,no,no,B,1,when,L2,unsyncopated,when,when,127,Online_whenL2//a.du27.none.wav,su,go,bi,sil,fe,to,ño,sil1,si,te,sil2,['false alarm'],[2.0457999999970298],[2.0457999999970298],none,none,,,"[""space""]",du,1,,,,,,,,,,,,,,,3.0,3.0,Catalán,0.0,Castellano,0.0,Inglés,6.0,4.0,6.0,no,no,yes,Nada,,Flauta en el cole no se si cuenta,,,,Ha ido muy bien pero estaba un poco saturada de tantos lenguajes y en el apartado 3 muchos me parecían casi iguales.,68.0,yes
128,2024-04-16_12h29.51.504,Experiment4_uns,s184,22 ,feminino,right,España,Catalán y castellano,Bachelor degree,no,no,B,1,when,L2,unsyncopated,when,when,128,Online_whenL2//c.cha2.none.wav,si,me,ra,sil,bi,te,ño,sil1,go,to,sil2,['-'],,,none,none,,,,cha,3,,,,,,,,,,,,,,,3.0,3.0,Catalán,0.0,Castellano,0.0,Inglés,6.0,4.0,6.0,no,no,yes,Nada,,Flauta en el cole no se si cuenta,,,,Ha ido muy bien pero estaba un poco saturada de tantos lenguajes y en el apartado 3 muchos me parecían casi iguales.,68.0,yes
129,2024-04-16_12h29.51.504,Experiment4_uns,s184,22 ,feminino,right,España,Catalán y castellano,Bachelor degree,no,no,B,1,when,L2,unsyncopated,when,when,129,Online_whenL2//c.cha1.1332.wav,bi,ba,te,sil,me,ñu,cha,sil1,go,fe,sil2,['catch'],[2.1706000000015138],[2.1706000000015138],1.332,no_beat,0.8386000000015137,0.8386000000015137,"[""space""]",cha,3,,,,,,,,,,,,,,,3.0,3.0,Catalán,0.0,Castellano,0.0,Inglés,6.0,4.0,6.0,no,no,yes,Nada,,Flauta en el cole no se si cuenta,,,,Ha ido muy bien pero estaba un poco saturada de tantos lenguajes y en el apartado 3 muchos me parecían casi iguales.,68.0,yes
130,2024-04-16_12h29.51.504,Experiment4_uns,s184,22 ,feminino,right,España,Catalán y castellano,Bachelor degree,no,no,B,1,when,L2,unsyncopated,when,when,130,Online_whenL2//c.cha3.1998.wav,te,to,bi,sil,du,ra,ño,sil1,su,cha,sil2,['catch_delay'],[0.7232000000031495],[0.7232000000031495],1.998,no_beat,0.7232000000031495,0.7232000000031495,,cha,3,,,,,,,,,,,,,,,3.0,3.0,Catalán,0.0,Castellano,0.0,Inglés,6.0,4.0,6.0,no,no,yes,Nada,,Flauta en el cole no se si cuenta,,,,Ha ido muy bien pero estaba un poco saturada de tantos lenguajes y en el apartado 3 muchos me parecían casi iguales.,68.0,yes
131,2024-04-16_12h29.51.504,Experiment4_uns,s184,22 ,feminino,right,España,Catalán y castellano,Bachelor degree,no,no,B,1,when,L2,unsyncopated,when,when,131,Online_whenL2//c.cha0.1332.wav,mi,ñu,bi,sil,fe,to,cha,sil1,ra,su,sil2,['miss'],[0.0572000000031494],[0.0572000000031494],1.332,no_beat,,,"[""space""]",cha,3,,,,,,,,,,,,,,,3.0,3.0,Catalán,0.0,Castellano,0.0,Inglés,6.0,4.0,6.0,no,no,yes,Nada,,Flauta en el cole no se si cuenta,,,,Ha ido muy bien pero estaba un poco saturada de tantos lenguajes y en el apartado 3 muchos me parecían casi iguales.,68.0,yes
132,2024-04-16_12h29.51.504,Experiment4_uns,s184,22 ,feminino,right,España,Catalán y castellano,Bachelor degree,no,no,B,1,when,L2,unsyncopated,when,when,132,Online_whenL2//d.si2.0.wav,si,me,fe,sil,to,ba,ñu,sil1,su,ra,sil2,['catch'],[1.4164000000059787],[1.4164000000059787],0.0,beat,,1.4164000000059789,"[""space""]",si,4,,,,,,,,,,,,,,,3.0,3.0,Catalán,0.0,Castellano,0.0,Inglés,6.0,4.0,6.0,no,no,yes,Nada,,Flauta en el cole no se si cuenta,,,,Ha ido muy bien pero estaba un poco saturada de tantos lenguajes y en el apartado 3 muchos me parecían casi iguales.,68.0,yes
133,2024-04-16_12h29.51.504,Experiment4_uns,s184,22 ,feminino,right,España,Catalán y castellano,Bachelor degree,no,no,B,1,when,L2,unsyncopated,when,when,133,Online_whenL2//d.si0.none.wav,ño,fe,go,sil,bi,te,cha,sil1,mi,to,sil2,['-'],,,none,none,,,,si,4,,,,,,,,,,,,,,,3.0,3.0,Catalán,0.0,Castellano,0.0,Inglés,6.0,4.0,6.0,no,no,yes,Nada,,Flauta en el cole no se si cuenta,,,,Ha ido muy bien pero estaba un poco saturada de tantos lenguajes y en el apartado 3 muchos me parecían casi iguales.,68.0,yes
134,2024-04-16_12h29.51.504,Experiment4_uns,s184,22 ,feminino,right,España,Catalán y castellano,Bachelor degree,no,no,B,1,when,L2,unsyncopated,when,when,134,Online_whenL2//d.si1.444.wav,ra,cha,si,sil,te,du,mi,sil1,su,bi,sil2,['catch'],[1.0881999999953678],[1.0881999999953678],0.444,no_beat,0.6441999999953678,0.6441999999953678,"[""space""]",si,4,,,,,,,,,,,,,,,3.0,3.0,Catalán,0.0,Castellano,0.0,Inglés,6.0,4.0,6.0,no,no,yes,Nada,,Flauta en el cole no se si cuenta,,,,Ha ido muy bien pero estaba un poco saturada de tantos lenguajes y en el apartado 3 muchos me parecían casi iguales.,68.0,yes
135,2024-04-16_12h29.51.504,Experiment4_uns,s184,22 ,feminino,right,España,Catalán y castellano,Bachelor degree,no,no,B,1,when,L2,unsyncopated,when,when,135,Online_whenL2//d.si3.444.wav,bi,su,si,sil,go,mi,ba,sil1,ñu,du,sil2,['catch'],[1.1228999999984808],[1.1228999999984808],0.444,no_beat,0.6788999999984808,0.6788999999984808,"[""space""]",si,4,,,,,,,,,,,,,,,3.0,3.0,Catalán,0.0,Castellano,0.0,Inglés,6.0,4.0,6.0,no,no,yes,Nada,,Flauta en el cole no se si cuenta,,,,Ha ido muy bien pero estaba un poco saturada de tantos lenguajes y en el apartado 3 muchos me parecían casi iguales.,68.0,yes
136,2024-04-16_12h29.51.504,Experiment4_uns,s184,22 ,feminino,right,España,Catalán y castellano,Bachelor degree,no,no,B,2,conjunction_un,L4,unsyncopated,s1,r1,0,Online_conjL4_un//c.bu.da0.none.none.wav,zi,ña,ru,sil,lo,re,ñi,sil1,bo,ci,sil2,['-'],,,none,none,,,,da,3,,,,,,,,,,,,,,,3.0,3.0,Catalán,0.0,Castellano,0.0,Inglés,6.0,4.0,6.0,no,no,yes,Nada,,Flauta en el cole no se si cuenta,,,,Ha ido muy bien pero estaba un poco saturada de tantos lenguajes y en el apartado 3 muchos me parecían casi iguales.,68.0,yes
137,2024-04-16_12h29.51.504,Experiment4_uns,s184,22 ,feminino,right,España,Catalán y castellano,Bachelor degree,no,no,B,2,conjunction_un,L4,unsyncopated,s1,r1,1,Online_conjL4_un//c.bu.da2.none.none.wav,zi,pe,ci,sil,lo,de,ña,sil1,ñi,re,sil2,['-'],,,none,none,,,,da,3,,,,,,,,,,,,,,,3.0,3.0,Catalán,0.0,Castellano,0.0,Inglés,6.0,4.0,6.0,no,no,yes,Nada,,Flauta en el cole no se si cuenta,,,,Ha ido muy bien pero estaba un poco saturada de tantos lenguajes y en el apartado 3 muchos me parecían casi iguales.,68.0,yes
138,2024-04-16_12h29.51.504,Experiment4_uns,s184,22 ,feminino,right,España,Catalán y castellano,Bachelor degree,no,no,B,2,conjunction_un,L4,unsyncopated,s2,r2,2,Online_conjL4_un//c.bu.da3.444.1110.wav,po,pe,bu,sil,ja,da,ci,sil1,nu,de,sil2,['catch'],[1.755699999995386],[1.755699999995386],1.11,no_beat,0.6456999999953859,0.6456999999953859,"[""space""]",da,3,,,,,,,,,,,,,,,3.0,3.0,Catalán,0.0,Castellano,0.0,Inglés,6.0,4.0,6.0,no,no,yes,Nada,,Flauta en el cole no se si cuenta,,,,Ha ido muy bien pero estaba un poco saturada de tantos lenguajes y en el apartado 3 muchos me parecían casi iguales.,68.0,yes
139,2024-04-16_12h29.51.504,Experiment4_uns,s184,22 ,feminino,right,España,Catalán y castellano,Bachelor degree,no,no,B,2,conjunction_un,L4,unsyncopated,s1,r1,3,Online_conjL4_un//c.bu.da1.none.none.wav,zi,bo,po,sil,lo,re,ci,sil1,ñi,pe,sil2,['-'],,,none,none,,,,da,3,,,,,,,,,,,,,,,3.0,3.0,Catalán,0.0,Castellano,0.0,Inglés,6.0,4.0,6.0,no,no,yes,Nada,,Flauta en el cole no se si cuenta,,,,Ha ido muy bien pero estaba un poco saturada de tantos lenguajes y en el apartado 3 muchos me parecían casi iguales.,68.0,yes
140,2024-04-16_12h29.51.504,Experiment4_uns,s184,22 ,feminino,right,España,Catalán y castellano,Bachelor degree,no,no,B,2,conjunction_un,L4,unsyncopated,s2,r2,4,Online_conjL4_un//d.pe.po10.1332.444.wav,re,ñi,po,sil,ja,bu,pe,sil1,nu,ru,sil2,['catch'],[1.44600000000014],[1.44600000000014],0.444,no_beat,1.00200000000014,1.00200000000014,"[""space""]",po,4,,,,,,,,,,,,,,,3.0,3.0,Catalán,0.0,Castellano,0.0,Inglés,6.0,4.0,6.0,no,no,yes,Nada,,Flauta en el cole no se si cuenta,,,,Ha ido muy bien pero estaba un poco saturada de tantos lenguajes y en el apartado 3 muchos me parecían casi iguales.,68.0,yes
141,2024-04-16_12h29.51.504,Experiment4_uns,s184,22 ,feminino,right,España,Catalán y castellano,Bachelor degree,no,no,B,2,conjunction_un,L4,unsyncopated,s1,r1,5,Online_conjL4_un//d.pe.po9.222.1110.wav,zi,pe,bo,sil,lo,po,de,sil1,ru,re,sil2,['miss'],,,1.11,no_beat,,,,po,4,,,,,,,,,,,,,,,3.0,3.0,Catalán,0.0,Castellano,0.0,Inglés,6.0,4.0,6.0,no,no,yes,Nada,,Flauta en el cole no se si cuenta,,,,Ha ido muy bien pero estaba un poco saturada de tantos lenguajes y en el apartado 3 muchos me parecían casi iguales.,68.0,yes
142,2024-04-16_12h29.51.504,Experiment4_uns,s184,22 ,feminino,right,España,Catalán y castellano,Bachelor degree,no,no,B,2,conjunction_un,L4,unsyncopated,s2,r1,6,Online_conjL4_un//d.pe.po11.1110.222.wav,bo,po,da,sil,zi,pe,de,sil1,lo,ñi,sil2,['miss'],,,0.222,no_beat,,,,po,4,,,,,,,,,,,,,,,3.0,3.0,Catalán,0.0,Castellano,0.0,Inglés,6.0,4.0,6.0,no,no,yes,Nada,,Flauta en el cole no se si cuenta,,,,Ha ido muy bien pero estaba un poco saturada de tantos lenguajes y en el apartado 3 muchos me parecían casi iguales.,68.0,yes
143,2024-04-16_12h29.51.504,Experiment4_uns,s184,22 ,feminino,right,España,Catalán y castellano,Bachelor degree,no,no,B,2,conjunction_un,L4,unsyncopated,s2,r1,7,Online_conjL4_un//d.pe.po8.none.none.wav,ña,re,ci,sil,zi,ru,ñi,sil1,lo,de,sil2,['-'],,,none,none,,,,po,4,,,,,,,,,,,,,,,3.0,3.0,Catalán,0.0,Castellano,0.0,Inglés,6.0,4.0,6.0,no,no,yes,Nada,,Flauta en el cole no se si cuenta,,,,Ha ido muy bien pero estaba un poco saturada de tantos lenguajes y en el apartado 3 muchos me parecían casi iguales.,68.0,yes
144,2024-04-16_12h29.51.504,Experiment4_uns,s184,22 ,feminino,right,España,Catalán y castellano,Bachelor degree,no,no,B,2,conjunction_un,L4,unsyncopated,s2,r2,8,Online_conjL4_un//c.bu.da10.0.1110.wav,bu,po,ña,sil,ja,da,ru,sil1,nu,ñi,sil2,"['false alarm', 'catch']","[0.813100000001441, 1.9949999999998909]",[1.9949999999998909],1.11,no_beat,0.8849999999998908,0.8849999999998908,"[""space"",""space""]",da,3,,,,,,,,,,,,,,,3.0,3.0,Catalán,0.0,Castellano,0.0,Inglés,6.0,4.0,6.0,no,no,yes,Nada,,Flauta en el cole no se si cuenta,,,,Ha ido muy bien pero estaba un poco saturada de tantos lenguajes y en el apartado 3 muchos me parecían casi iguales.,68.0,yes
145,2024-04-16_12h29.51.504,Experiment4_uns,s184,22 ,feminino,right,España,Catalán y castellano,Bachelor degree,no,no,B,2,conjunction_un,L4,unsyncopated,s1,r2,9,Online_conjL4_un//c.bu.da9.none.none.wav,ja,re,ñi,sil,nu,ña,de,sil1,bo,po,sil2,['-'],,,none,none,,,,da,3,,,,,,,,,,,,,,,3.0,3.0,Catalán,0.0,Castellano,0.0,Inglés,6.0,4.0,6.0,no,no,yes,Nada,,Flauta en el cole no se si cuenta,,,,Ha ido muy bien pero estaba un poco saturada de tantos lenguajes y en el apartado 3 muchos me parecían casi iguales.,68.0,yes
146,2024-04-16_12h29.51.504,Experiment4_uns,s184,22 ,feminino,right,España,Catalán y castellano,Bachelor degree,no,no,B,2,conjunction_un,L4,unsyncopated,s2,r2,10,Online_conjL4_un//c.bu.da8.1332.444.wav,ña,ñi,da,sil,ja,ru,bu,sil1,nu,ci,sil2,['miss'],,,0.444,no_beat,,,,da,3,,,,,,,,,,,,,,,3.0,3.0,Catalán,0.0,Castellano,0.0,Inglés,6.0,4.0,6.0,no,no,yes,Nada,,Flauta en el cole no se si cuenta,,,,Ha ido muy bien pero estaba un poco saturada de tantos lenguajes y en el apartado 3 muchos me parecían casi iguales.,68.0,yes
147,2024-04-16_12h29.51.504,Experiment4_uns,s184,22 ,feminino,right,España,Catalán y castellano,Bachelor degree,no,no,B,2,conjunction_un,L4,unsyncopated,s1,r2,11,Online_conjL4_un//c.bu.da11.none.none.wav,ja,bo,ñi,sil,nu,pe,re,sil1,ci,ña,sil2,['-'],,,none,none,,,,da,3,,,,,,,,,,,,,,,3.0,3.0,Catalán,0.0,Castellano,0.0,Inglés,6.0,4.0,6.0,no,no,yes,Nada,,Flauta en el cole no se si cuenta,,,,Ha ido muy bien pero estaba un poco saturada de tantos lenguajes y en el apartado 3 muchos me parecían casi iguales.,68.0,yes
148,2024-04-16_12h29.51.504,Experiment4_uns,s184,22 ,feminino,right,España,Catalán y castellano,Bachelor degree,no,no,B,2,conjunction_un,L4,unsyncopated,s2,r2,12,Online_conjL4_un//d.pe.po20.444.0.wav,po,bu,pe,sil,ja,ñi,ru,sil1,nu,bo,sil2,['miss'],,,0.0,beat,,,,po,4,,,,,,,,,,,,,,,3.0,3.0,Catalán,0.0,Castellano,0.0,Inglés,6.0,4.0,6.0,no,no,yes,Nada,,Flauta en el cole no se si cuenta,,,,Ha ido muy bien pero estaba un poco saturada de tantos lenguajes y en el apartado 3 muchos me parecían casi iguales.,68.0,yes
149,2024-04-16_12h29.51.504,Experiment4_uns,s184,22 ,feminino,right,España,Catalán y castellano,Bachelor degree,no,no,B,2,conjunction_un,L4,unsyncopated,s2,r1,13,Online_conjL4_un//d.pe.po22.none.none.wav,ñi,bu,de,sil,zi,bo,ña,sil1,lo,ci,sil2,"['false alarm', 'false alarm']","[0.1322000000029675, 1.7639000000060605]",1.7639000000060605,none,none,,,"[""space"",""space""]",po,4,,,,,,,,,,,,,,,3.0,3.0,Catalán,0.0,Castellano,0.0,Inglés,6.0,4.0,6.0,no,no,yes,Nada,,Flauta en el cole no se si cuenta,,,,Ha ido muy bien pero estaba un poco saturada de tantos lenguajes y en el apartado 3 muchos me parecían casi iguales.,68.0,yes
150,2024-04-16_12h29.51.504,Experiment4_uns,s184,22 ,feminino,right,España,Catalán y castellano,Bachelor degree,no,no,B,2,conjunction_un,L4,unsyncopated,s2,r2,14,Online_conjL4_un//d.pe.po23.none.none.wav,ru,ñi,re,sil,ja,de,bu,sil1,nu,ci,sil2,['-'],,,none,none,,,,po,4,,,,,,,,,,,,,,,3.0,3.0,Catalán,0.0,Castellano,0.0,Inglés,6.0,4.0,6.0,no,no,yes,Nada,,Flauta en el cole no se si cuenta,,,,Ha ido muy bien pero estaba un poco saturada de tantos lenguajes y en el apartado 3 muchos me parecían casi iguales.,68.0,yes
151,2024-04-16_12h29.51.504,Experiment4_uns,s184,22 ,feminino,right,España,Catalán y castellano,Bachelor degree,no,no,B,2,conjunction_un,L4,unsyncopated,s2,r1,15,Online_conjL4_un//d.pe.po21.1110.0.wav,po,da,ña,sil,zi,pe,ci,sil1,lo,bu,sil2,['catch'],[0.6976000000015574],[0.6976000000015574],0.0,beat,0.6976000000015574,0.6976000000015574,"[""space""]",po,4,,,,,,,,,,,,,,,3.0,3.0,Catalán,0.0,Castellano,0.0,Inglés,6.0,4.0,6.0,no,no,yes,Nada,,Flauta en el cole no se si cuenta,,,,Ha ido muy bien pero estaba un poco saturada de tantos lenguajes y en el apartado 3 muchos me parecían casi iguales.,68.0,yes
152,2024-04-16_12h29.51.504,Experiment4_uns,s184,22 ,feminino,right,España,Catalán y castellano,Bachelor degree,no,no,B,2,conjunction_un,L4,unsyncopated,s2,r1,16,Online_conjL4_un//c.bu.da23.none.none.wav,po,ru,pe,sil,zi,re,ña,sil1,lo,ci,sil2,['false alarm'],[0.7511000000015429],[0.7511000000015429],none,none,,,"[""space""]",da,3,,,,,,,,,,,,,,,3.0,3.0,Catalán,0.0,Castellano,0.0,Inglés,6.0,4.0,6.0,no,no,yes,Nada,,Flauta en el cole no se si cuenta,,,,Ha ido muy bien pero estaba un poco saturada de tantos lenguajes y en el apartado 3 muchos me parecían casi iguales.,68.0,yes
153,2024-04-16_12h29.51.504,Experiment4_uns,s184,22 ,feminino,right,España,Catalán y castellano,Bachelor degree,no,no,B,2,conjunction_un,L4,unsyncopated,s2,r1,17,Online_conjL4_un//c.bu.da22.1110.0.wav,da,ci,bo,sil,zi,bu,ru,sil1,lo,pe,sil2,['catch'],[0.4707000000030348],[0.4707000000030348],0.0,beat,0.4707000000030348,0.4707000000030348,"[""space""]",da,3,,,,,,,,,,,,,,,3.0,3.0,Catalán,0.0,Castellano,0.0,Inglés,6.0,4.0,6.0,no,no,yes,Nada,,Flauta en el cole no se si cuenta,,,,Ha ido muy bien pero estaba un poco saturada de tantos lenguajes y en el apartado 3 muchos me parecían casi iguales.,68.0,yes
154,2024-04-16_12h29.51.504,Experiment4_uns,s184,22 ,feminino,right,España,Catalán y castellano,Bachelor degree,no,no,B,2,conjunction_un,L4,unsyncopated,s2,r2,18,Online_conjL4_un//c.bu.da21.none.none.wav,de,bo,ñi,sil,ja,ci,po,sil1,nu,re,sil2,['false alarm'],[0.6320000000000618],[0.6320000000000618],none,none,,,"[""space""]",da,3,,,,,,,,,,,,,,,3.0,3.0,Catalán,0.0,Castellano,0.0,Inglés,6.0,4.0,6.0,no,no,yes,Nada,,Flauta en el cole no se si cuenta,,,,Ha ido muy bien pero estaba un poco saturada de tantos lenguajes y en el apartado 3 muchos me parecían casi iguales.,68.0,yes
155,2024-04-16_12h29.51.504,Experiment4_uns,s184,22 ,feminino,right,España,Catalán y castellano,Bachelor degree,no,no,B,2,conjunction_un,L4,unsyncopated,s1,r1,19,Online_conjL4_un//c.bu.da20.1332.222.wav,zi,da,pe,sil,lo,ñi,bu,sil1,po,de,sil2,['catch'],[1.5807000000029348],[1.5807000000029348],0.222,no_beat,,1.3587000000029348,"[""space""]",da,3,,,,,,,,,,,,,,,3.0,3.0,Catalán,0.0,Castellano,0.0,Inglés,6.0,4.0,6.0,no,no,yes,Nada,,Flauta en el cole no se si cuenta,,,,Ha ido muy bien pero estaba un poco saturada de tantos lenguajes y en el apartado 3 muchos me parecían casi iguales.,68.0,yes
156,2024-04-16_12h29.51.504,Experiment4_uns,s184,22 ,feminino,right,España,Catalán y castellano,Bachelor degree,no,no,B,2,conjunction_un,L4,unsyncopated,s1,r1,20,Online_conjL4_un//a.zi.lo28.0.888.wav,zi,da,bo,sil,lo,ña,po,sil1,de,pe,sil2,['catch'],[0.7092999999968015],[0.7092999999968015],0.0,beat,0.7092999999968015,0.7092999999968015,"[""space""]",zi,1,,,,,,,,,,,,,,,3.0,3.0,Catalán,0.0,Castellano,0.0,Inglés,6.0,4.0,6.0,no,no,yes,Nada,,Flauta en el cole no se si cuenta,,,,Ha ido muy bien pero estaba un poco saturada de tantos lenguajes y en el apartado 3 muchos me parecían casi iguales.,68.0,yes
157,2024-04-16_12h29.51.504,Experiment4_uns,s184,22 ,feminino,right,España,Catalán y castellano,Bachelor degree,no,no,B,2,conjunction_un,L4,unsyncopated,s1,r2,21,Online_conjL4_un//a.zi.lo29.none.none.wav,ja,ci,pe,sil,nu,ru,po,sil1,ñi,da,sil2,['-'],,,none,none,,,,zi,1,,,,,,,,,,,,,,,3.0,3.0,Catalán,0.0,Castellano,0.0,Inglés,6.0,4.0,6.0,no,no,yes,Nada,,Flauta en el cole no se si cuenta,,,,Ha ido muy bien pero estaba un poco saturada de tantos lenguajes y en el apartado 3 muchos me parecían casi iguales.,68.0,yes
158,2024-04-16_12h29.51.504,Experiment4_uns,s184,22 ,feminino,right,España,Catalán y castellano,Bachelor degree,no,no,B,2,conjunction_un,L4,unsyncopated,s1,r2,22,Online_conjL4_un//a.zi.lo31.none.none.wav,ja,ru,da,sil,nu,bu,ci,sil1,pe,re,sil2,['-'],,,none,none,,,,zi,1,,,,,,,,,,,,,,,3.0,3.0,Catalán,0.0,Castellano,0.0,Inglés,6.0,4.0,6.0,no,no,yes,Nada,,Flauta en el cole no se si cuenta,,,,Ha ido muy bien pero estaba un poco saturada de tantos lenguajes y en el apartado 3 muchos me parecían casi iguales.,68.0,yes
159,2024-04-16_12h29.51.504,Experiment4_uns,s184,22 ,feminino,right,España,Catalán y castellano,Bachelor degree,no,no,B,2,conjunction_un,L4,unsyncopated,s1,r1,23,Online_conjL4_un//a.zi.lo30.0.888.wav,zi,ci,bu,sil,lo,ru,da,sil1,ñi,de,sil2,['catch'],[0.5057000000028893],[0.5057000000028893],0.0,beat,0.5057000000028893,0.5057000000028893,"[""space""]",zi,1,,,,,,,,,,,,,,,3.0,3.0,Catalán,0.0,Castellano,0.0,Inglés,6.0,4.0,6.0,no,no,yes,Nada,,Flauta en el cole no se si cuenta,,,,Ha ido muy bien pero estaba un poco saturada de tantos lenguajes y en el apartado 3 muchos me parecían casi iguales.,68.0,yes
160,2024-04-16_12h29.51.504,Experiment4_uns,s184,22 ,feminino,right,España,Catalán y castellano,Bachelor degree,no,no,B,2,conjunction_un,L4,unsyncopated,s2,r1,24,Online_conjL4_un//d.pe.po24.444.1110.wav,de,da,pe,sil,zi,po,re,sil1,lo,bu,sil2,['miss'],,,1.11,no_beat,,,,po,4,,,,,,,,,,,,,,,3.0,3.0,Catalán,0.0,Castellano,0.0,Inglés,6.0,4.0,6.0,no,no,yes,Nada,,Flauta en el cole no se si cuenta,,,,Ha ido muy bien pero estaba un poco saturada de tantos lenguajes y en el apartado 3 muchos me parecían casi iguales.,68.0,yes
