Unnamed: 0,date,expName,participant,age,sex,hand,residence,native_lang,education_level,lang_deficit,aud_deficit,group,block,condition,language,rhythm,rule structure online,rule type online,order_trial_on,trial_online,s1,s2,s3,s4,s5,s6,s7,s8,s9,s10,s11,catch_syll_resp,rts_syll_catch,clean_rts,time_syll,beat_no_beat,catch_rtsTR,catch_rts,syllable_catch.keys,cond_syll,syll_to_catch,test_offline,block_off,condition_off,rhythm_off,rule,rule_str_off,rule_norule,conds_offline,language_off,Partz_no_partm.keys,Partz_no_partm.rt,security_1_7.keys,accuracy,security_1_7.rt,n_lang,n_lang_used,lang_1,age_l1,lang_2,age_l2,lang_3,age_l3,lang_4,age_l4,lang_5,age_l5,lang_6,age_l6,ability_learn_l2,tendence_mix_lan,music_experience,muisc_use,partiture,instr_1,age_M1,preguntas_musica1,BMRQ_answer.response,final comment,BMRQ_Score,bilingual
0,2024-02-10_15h45.25.365,Unsyncopated_study2,s97,22.0,feminino,left,"España
","Catalán y español
",Master degree,no,no,B,1,conjunction_syn,L1,syncopated,s1,r1,0,Online_conjL1_syn//d.ne.ni4.222.1332.wav,pu,ne,cho,ki,sil,ri,ni,ro,sil1,zu,sil2,['miss'],,,1.332,no_beat,,,,100:104,4,testConjL1Syn//dep_viol.r1.s2.0.wav,1.0,conjunction_syn,syncopated,a,s2,no_rule,dep,L1,m,5.589,4.0,1.0,3.186,6 ,4 ,Catalán,0.0,Español,0.0,Inglés,5.0,Francés,14.0,Alemán,18.0,Italiano,21.0,5.0,5.0,yes,no,no,Canto,6,1. Cuando comparto música con alguien siento una complicidad especial con aquella persona.,2.0,Me gustó pero me pareció muy larga y iba perdiendo la concentración a medida que avanzaba la tarea ,55.0,yes
1,2024-02-10_15h45.25.365,Unsyncopated_study2,s97,22.0,feminino,left,"España
","Catalán y español
",Master degree,no,no,B,1,conjunction_syn,L1,syncopated,s1,r1,1,Online_conjL1_syn//d.ne.ni7.444.1110.wav,pu,lu,ne,ki,sil,ni,ri,ze,sil1,zu,sil2,['miss'],,,1.11,no_beat,,,,100:104,4,testConjL1Syn//dep_viol.r2.s1.0.wav,1.0,conjunction_syn,syncopated,b,s1,no_rule,dep,L1,m,1.115,4.0,1.0,1.4,6 ,4 ,Catalán,0.0,Español,0.0,Inglés,5.0,Francés,14.0,Alemán,18.0,Italiano,21.0,5.0,5.0,yes,no,no,Canto,6,2. En mi tiempo libre apenas escucho música.,4.0,Me gustó pero me pareció muy larga y iba perdiendo la concentración a medida que avanzaba la tarea ,55.0,yes
2,2024-02-10_15h45.25.365,Unsyncopated_study2,s97,22.0,feminino,left,"España
","Catalán y español
",Master degree,no,no,B,1,conjunction_syn,L1,syncopated,s2,r1,2,Online_conjL1_syn//d.ne.ni5.none.none.wav,zu,ri,ze,pu,sil,cho,fa,ki,sil1,la,sil2,['-'],,,none,none,,,,100:104,4,testConjL1Syn//r2.s1.0.wav,1.0,conjunction_syn,syncopated,b,s1,rule,rule,L1,z,0.636,5.0,1.0,1.792,6 ,4 ,Catalán,0.0,Español,0.0,Inglés,5.0,Francés,14.0,Alemán,18.0,Italiano,21.0,5.0,5.0,yes,no,no,Canto,6,3. Algunas canciones me ponen los pelos de punta,3.0,Me gustó pero me pareció muy larga y iba perdiendo la concentración a medida que avanzaba la tarea ,55.0,yes
3,2024-02-10_15h45.25.365,Unsyncopated_study2,s97,22.0,feminino,left,"España
","Catalán y español
",Master degree,no,no,B,1,conjunction_syn,L1,syncopated,s1,r2,3,Online_conjL1_syn//d.ne.ni6.444.1110.wav,ta,zu,ne,be,sil,ni,ze,la,sil1,fa,sil2,['miss'],,,1.11,no_beat,,,,100:104,4,testConjL1Syn//cat_viol.r2.s1.0.wav,1.0,conjunction_syn,syncopated,b,s1,no_rule,cat,L1,z,1.377,5.0,0.0,1.138,6 ,4 ,Catalán,0.0,Español,0.0,Inglés,5.0,Francés,14.0,Alemán,18.0,Italiano,21.0,5.0,5.0,yes,no,no,Canto,6,4. La música me hace compañía cuando estoy solo,2.0,Me gustó pero me pareció muy larga y iba perdiendo la concentración a medida que avanzaba la tarea ,55.0,yes
4,2024-02-10_15h45.25.365,Unsyncopated_study2,s97,22.0,feminino,left,"España
","Catalán y español
",Master degree,no,no,B,1,conjunction_syn,L1,syncopated,s2,r2,4,Online_conjL1_syn//c.ro.fo31.none.none.wav,ri,fa,la,ta,sil,lu,ne,be,sil1,zu,sil2,['-'],,,none,none,,,,92:96,3,testConjL1Syn//r2.s1.2.wav,1.0,conjunction_syn,syncopated,b,s1,rule,rule,L1,z,0.761,5.0,1.0,0.838,6 ,4 ,Catalán,0.0,Español,0.0,Inglés,5.0,Francés,14.0,Alemán,18.0,Italiano,21.0,5.0,5.0,yes,no,no,Canto,6,5. No me apetece bailar ni con la música que más me gusta,5.0,Me gustó pero me pareció muy larga y iba perdiendo la concentración a medida que avanzaba la tarea ,55.0,yes
5,2024-02-10_15h45.25.365,Unsyncopated_study2,s97,22.0,feminino,left,"España
","Catalán y español
",Master degree,no,no,B,1,conjunction_syn,L1,syncopated,s1,r2,5,Online_conjL1_syn//c.ro.fo29.none.none.wav,ta,zu,ri,be,sil,la,ni,fa,sil1,lu,sil2,['-'],,,none,none,,,,92:96,3,testConjL1Syn//r1.s1.0.wav,1.0,conjunction_syn,syncopated,a,s1,rule,rule,L1,m,0.576,4.0,0.0,1.404,6 ,4 ,Catalán,0.0,Español,0.0,Inglés,5.0,Francés,14.0,Alemán,18.0,Italiano,21.0,5.0,5.0,yes,no,no,Canto,6,6. La música me hace conectar con la gente,3.0,Me gustó pero me pareció muy larga y iba perdiendo la concentración a medida que avanzaba la tarea ,55.0,yes
6,2024-02-10_15h45.25.365,Unsyncopated_study2,s97,22.0,feminino,left,"España
","Catalán y español
",Master degree,no,no,B,1,conjunction_syn,L1,syncopated,s2,r2,6,Online_conjL1_syn//c.ro.fo30.1110.0.wav,fo,ze,fa,ta,sil,ro,ri,be,sil1,ni,sil2,['miss'],,,0.0,beat,,,,92:96,3,testConjL1Syn//r2.s2.0.wav,1.0,conjunction_syn,syncopated,b,s2,rule,rule,L1,z,0.472,5.0,1.0,0.76,6 ,4 ,Catalán,0.0,Español,0.0,Inglés,5.0,Francés,14.0,Alemán,18.0,Italiano,21.0,5.0,5.0,yes,no,no,Canto,6,7. Me informo sobre la música que me gusta.,2.0,Me gustó pero me pareció muy larga y iba perdiendo la concentración a medida que avanzaba la tarea ,55.0,yes
7,2024-02-10_15h45.25.365,Unsyncopated_study2,s97,22.0,feminino,left,"España
","Catalán y español
",Master degree,no,no,B,1,conjunction_syn,L1,syncopated,s1,r1,7,Online_conjL1_syn//c.ro.fo28.none.none.wav,pu,ni,lu,ki,sil,ne,la,ze,sil1,fa,sil2,['-'],,,none,none,,,,92:96,3,testConjL1Syn//cat_viol.r2.s2.0.wav,1.0,conjunction_syn,syncopated,b,s2,no_rule,cat,L1,z,0.419,5.0,0.0,0.667,6 ,4 ,Catalán,0.0,Español,0.0,Inglés,5.0,Francés,14.0,Alemán,18.0,Italiano,21.0,5.0,5.0,yes,no,no,Canto,6,8.Me emociono escuchando ciertas canciones.,4.0,Me gustó pero me pareció muy larga y iba perdiendo la concentración a medida que avanzaba la tarea ,55.0,yes
8,2024-02-10_15h45.25.365,Unsyncopated_study2,s97,22.0,feminino,left,"España
","Catalán y español
",Master degree,no,no,B,1,conjunction_syn,L1,syncopated,s2,r1,8,Online_conjL1_syn//d.ne.ni23.0.444.wav,ne,fo,ni,pu,sil,ri,fa,ki,sil1,lu,sil2,['miss'],,,0.444,no_beat,,,,116:120,4,testConjL1Syn//r1.s2.1.wav,1.0,conjunction_syn,syncopated,a,s2,rule,rule,L1,z,0.35,5.0,1.0,0.621,6 ,4 ,Catalán,0.0,Español,0.0,Inglés,5.0,Francés,14.0,Alemán,18.0,Italiano,21.0,5.0,5.0,yes,no,no,Canto,6,9.La música me tranquiliza y me relaja.,2.0,Me gustó pero me pareció muy larga y iba perdiendo la concentración a medida que avanzaba la tarea ,55.0,yes
9,2024-02-10_15h45.25.365,Unsyncopated_study2,s97,22.0,feminino,left,"España
","Catalán y español
",Master degree,no,no,B,1,conjunction_syn,L1,syncopated,s2,r2,9,Online_conjL1_syn//d.ne.ni20.none.none.wav,ze,lu,ro,ta,sil,fa,ri,be,sil1,cho,sil2,['-'],,,none,none,,,,116:120,4,testConjL1Syn//dep_viol.r2.s2.0.wav,1.0,conjunction_syn,syncopated,b,s2,no_rule,dep,L1,z,0.385,5.0,0.0,0.518,6 ,4 ,Catalán,0.0,Español,0.0,Inglés,5.0,Francés,14.0,Alemán,18.0,Italiano,21.0,5.0,5.0,yes,no,no,Canto,6,10.La música me hace bailar,4.0,Me gustó pero me pareció muy larga y iba perdiendo la concentración a medida que avanzaba la tarea ,55.0,yes
10,2024-02-10_15h45.25.365,Unsyncopated_study2,s97,22.0,feminino,left,"España
","Catalán y español
",Master degree,no,no,B,1,conjunction_syn,L1,syncopated,s1,r1,10,Online_conjL1_syn//d.ne.ni21.none.none.wav,pu,lu,fo,ki,sil,ze,cho,ro,sil1,zu,sil2,['-'],,,none,none,,,,116:120,4,testConjL1Syn//r1.s1.1.wav,1.0,conjunction_syn,syncopated,a,s1,rule,rule,L1,m,0.352,5.0,0.0,0.692,6 ,4 ,Catalán,0.0,Español,0.0,Inglés,5.0,Francés,14.0,Alemán,18.0,Italiano,21.0,5.0,5.0,yes,no,no,Canto,6,11.Busco novedades musicales continuamente,1.0,Me gustó pero me pareció muy larga y iba perdiendo la concentración a medida que avanzaba la tarea ,55.0,yes
11,2024-02-10_15h45.25.365,Unsyncopated_study2,s97,22.0,feminino,left,"España
","Catalán y español
",Master degree,no,no,B,1,conjunction_syn,L1,syncopated,s2,r2,11,Online_conjL1_syn//d.ne.ni22.1110.0.wav,ni,ze,lu,ta,sil,ne,cho,be,sil1,zu,sil2,['miss'],,,0.0,beat,,,,116:120,4,testConjL1Syn//r1.s1.2.wav,1.0,conjunction_syn,syncopated,a,s1,rule,rule,L1,z,0.398,5.0,1.0,0.581,6 ,4 ,Catalán,0.0,Español,0.0,Inglés,5.0,Francés,14.0,Alemán,18.0,Italiano,21.0,5.0,5.0,yes,no,no,Canto,6,12. Puedo llorar cuando escucho algunas melodías que me gustan mucho.,2.0,Me gustó pero me pareció muy larga y iba perdiendo la concentración a medida que avanzaba la tarea ,55.0,yes
12,2024-02-10_15h45.25.365,Unsyncopated_study2,s97,22.0,feminino,left,"España
","Catalán y español
",Master degree,no,no,B,1,conjunction_syn,L1,syncopated,s2,r2,12,Online_conjL1_syn//d.ne.ni29.0.444.wav,ne,fa,ni,ta,sil,ri,zu,be,sil1,lu,sil2,['miss'],,,0.444,no_beat,,,,124:128,4,testConjL1Syn//time_viol.r2.s1.0.wav,1.0,conjunction_syn,syncopated,b,s1,no_rule,time,L1,m,0.313,5.0,1.0,0.599,6 ,4 ,Catalán,0.0,Español,0.0,Inglés,5.0,Francés,14.0,Alemán,18.0,Italiano,21.0,5.0,5.0,yes,no,no,Canto,6,13. Me gusta cantar o tocar un instrumento con más gente,3.0,Me gustó pero me pareció muy larga y iba perdiendo la concentración a medida que avanzaba la tarea ,55.0,yes
13,2024-02-10_15h45.25.365,Unsyncopated_study2,s97,22.0,feminino,left,"España
","Catalán y español
",Master degree,no,no,B,1,conjunction_syn,L1,syncopated,s1,r2,13,Online_conjL1_syn//d.ne.ni28.none.none.wav,ta,lu,zu,be,sil,fa,la,ro,sil1,ri,sil2,['-'],,,none,none,,,,124:128,4,testConjL1Syn//cat_viol.r1.s2.0.wav,1.0,conjunction_syn,syncopated,a,s2,no_rule,cat,L1,m,0.294,5.0,1.0,0.497,6 ,4 ,Catalán,0.0,Español,0.0,Inglés,5.0,Francés,14.0,Alemán,18.0,Italiano,21.0,5.0,5.0,yes,no,no,Canto,6,14. La música me ayuda a desconectar.,3.0,Me gustó pero me pareció muy larga y iba perdiendo la concentración a medida que avanzaba la tarea ,55.0,yes
14,2024-02-10_15h45.25.365,Unsyncopated_study2,s97,22.0,feminino,left,"España
","Catalán y español
",Master degree,no,no,B,1,conjunction_syn,L1,syncopated,s2,r2,14,Online_conjL1_syn//d.ne.ni30.222.1110.wav,fa,ne,lu,ta,sil,ni,ri,be,sil1,ze,sil2,['miss'],,,1.11,no_beat,,,,124:128,4,testConjL1Syn//time_viol.r1.s2.0.wav,1.0,conjunction_syn,syncopated,a,s2,no_rule,time,L1,m,0.303,5.0,1.0,0.488,6 ,4 ,Catalán,0.0,Español,0.0,Inglés,5.0,Francés,14.0,Alemán,18.0,Italiano,21.0,5.0,5.0,yes,no,no,Canto,6,15. No puedo evitar tararear las canciones que me gustan cuando las escucho.,3.0,Me gustó pero me pareció muy larga y iba perdiendo la concentración a medida que avanzaba la tarea ,55.0,yes
15,2024-02-10_15h45.25.365,Unsyncopated_study2,s97,22.0,feminino,left,"España
","Catalán y español
",Master degree,no,no,B,1,conjunction_syn,L1,syncopated,s2,r1,15,Online_conjL1_syn//d.ne.ni31.0.1110.wav,ne,zu,fa,pu,sil,ni,lu,ki,sil1,ro,sil2,['miss'],,,1.11,no_beat,,,,124:128,4,testConjL1Syn//time_viol.r1.s1.0.wav,1.0,conjunction_syn,syncopated,a,s1,no_rule,time,L1,z,0.353,3.0,0.0,1.158,6 ,4 ,Catalán,0.0,Español,0.0,Inglés,5.0,Francés,14.0,Alemán,18.0,Italiano,21.0,5.0,5.0,yes,no,no,Canto,6,16. En los conciertos me siento en sintonía con los artistas y el público.,3.0,Me gustó pero me pareció muy larga y iba perdiendo la concentración a medida que avanzaba la tarea ,55.0,yes
16,2024-02-10_15h45.25.365,Unsyncopated_study2,s97,22.0,feminino,left,"España
","Catalán y español
",Master degree,no,no,B,1,conjunction_syn,L1,syncopated,s1,r2,16,Online_conjL1_syn//a.pu.ki14.none.none.wav,ta,ri,ze,be,sil,lu,fa,cho,sil1,fo,sil2,['-'],,,none,none,,,,12:16,1,testConjL1Syn//r1.s2.0.wav,1.0,conjunction_syn,syncopated,a,s2,rule,rule,L1,m,0.567,3.0,0.0,0.829,6 ,4 ,Catalán,0.0,Español,0.0,Inglés,5.0,Francés,14.0,Alemán,18.0,Italiano,21.0,5.0,5.0,yes,no,no,Canto,6,17. Me gasto bastante dinero en música y cosas relacionadas con la música.,0.0,Me gustó pero me pareció muy larga y iba perdiendo la concentración a medida que avanzaba la tarea ,55.0,yes
17,2024-02-10_15h45.25.365,Unsyncopated_study2,s97,22.0,feminino,left,"España
","Catalán y español
",Master degree,no,no,B,1,conjunction_syn,L1,syncopated,s2,r1,17,Online_conjL1_syn//a.pu.ki13.666.1554.wav,fa,ro,ne,pu,sil,fo,lu,ki,sil1,ni,sil2,['miss'],,,0.666,no_beat,,,,12:16,1,testConjL1Syn//r2.s2.1.wav,1.0,conjunction_syn,syncopated,b,s2,rule,rule,L1,m,0.567,3.0,0.0,0.856,6 ,4 ,Catalán,0.0,Español,0.0,Inglés,5.0,Francés,14.0,Alemán,18.0,Italiano,21.0,5.0,5.0,yes,no,no,Canto,6,18. Siento escalofríos cuando escucho una melodía que me gusta.,3.0,Me gustó pero me pareció muy larga y iba perdiendo la concentración a medida que avanzaba la tarea ,55.0,yes
18,2024-02-10_15h45.25.365,Unsyncopated_study2,s97,22.0,feminino,left,"España
","Catalán y español
",Master degree,no,no,B,1,conjunction_syn,L1,syncopated,s1,r2,18,Online_conjL1_syn//a.pu.ki15.none.none.wav,ta,fo,ne,be,sil,la,ze,fa,sil1,cho,sil2,['-'],,,none,none,,,,12:16,1,testConjL1Syn//r2.s1.1.wav,1.0,conjunction_syn,syncopated,b,s1,rule,rule,L1,m,0.328,3.0,0.0,0.501,6 ,4 ,Catalán,0.0,Español,0.0,Inglés,5.0,Francés,14.0,Alemán,18.0,Italiano,21.0,5.0,5.0,yes,no,no,Canto,6,19. Con la música me puedo desahogar.,2.0,Me gustó pero me pareció muy larga y iba perdiendo la concentración a medida que avanzaba la tarea ,55.0,yes
19,2024-02-10_15h45.25.365,Unsyncopated_study2,s97,22.0,feminino,left,"España
","Catalán y español
",Master degree,no,no,B,1,conjunction_syn,L1,syncopated,s1,r1,19,Online_conjL1_syn//a.pu.ki12.0.666.wav,pu,zu,ni,ki,sil,ne,ro,fo,sil1,cho,sil2,['miss'],,,0.0,beat,,,,12:16,1,testConjL1Syn//dep_viol.r1.s1.0.wav,1.0,conjunction_syn,syncopated,a,s1,no_rule,dep,L1,m,0.398,3.0,1.0,0.386,6 ,4 ,Catalán,0.0,Español,0.0,Inglés,5.0,Francés,14.0,Alemán,18.0,Italiano,21.0,5.0,5.0,yes,no,no,Canto,6,20. Cuando escucho una melodía que me gusta mucho no puedo evitar mover el cuerpo.,4.0,Me gustó pero me pareció muy larga y iba perdiendo la concentración a medida que avanzaba la tarea ,55.0,yes
20,2024-02-10_15h45.25.365,Unsyncopated_study2,s97,22.0,feminino,left,"España
","Catalán y español
",Master degree,no,no,B,1,conjunction_syn,L1,syncopated,s1,r2,20,Online_conjL1_syn//a.pu.ki4.none.none.wav,ta,ze,ri,be,sil,zu,fo,ne,sil1,lu,sil2,['-'],,,none,none,,,,4:8,1,testConjL1Syn//cat_viol.r1.s1.0.wav,1.0,conjunction_syn,syncopated,a,s1,no_rule,cat,L1,m,0.334,3.0,1.0,0.308,6 ,4 ,Catalán,0.0,Español,0.0,Inglés,5.0,Francés,14.0,Alemán,18.0,Italiano,21.0,5.0,5.0,yes,no,no,Canto,6,,,Me gustó pero me pareció muy larga y iba perdiendo la concentración a medida que avanzaba la tarea ,55.0,yes
21,2024-02-10_15h45.25.365,Unsyncopated_study2,s97,22.0,feminino,left,"España
","Catalán y español
",Master degree,no,no,B,1,conjunction_syn,L1,syncopated,s1,r1,21,Online_conjL1_syn//a.pu.ki7.0.666.wav,pu,ri,zu,ki,sil,ne,ze,cho,sil1,la,sil2,['miss'],,,0.0,beat,,,,4:8,1,testConjL1Syn//r2.s2.2.wav,1.0,conjunction_syn,syncopated,b,s2,rule,rule,L1,m,0.348,2.0,0.0,0.732,6 ,4 ,Catalán,0.0,Español,0.0,Inglés,5.0,Francés,14.0,Alemán,18.0,Italiano,21.0,5.0,5.0,yes,no,no,Canto,6,,,Me gustó pero me pareció muy larga y iba perdiendo la concentración a medida que avanzaba la tarea ,55.0,yes
22,2024-02-10_15h45.25.365,Unsyncopated_study2,s97,22.0,feminino,left,"España
","Catalán y español
",Master degree,no,no,B,1,conjunction_syn,L1,syncopated,s2,r2,22,Online_conjL1_syn//a.pu.ki6.none.none.wav,ne,ni,la,ta,sil,zu,cho,be,sil1,ze,sil2,['-'],,,none,none,,,,4:8,1,testConjL1Syn//r1.s2.2.wav,1.0,conjunction_syn,syncopated,a,s2,rule,rule,L1,m,0.466,2.0,0.0,0.451,6 ,4 ,Catalán,0.0,Español,0.0,Inglés,5.0,Francés,14.0,Alemán,18.0,Italiano,21.0,5.0,5.0,yes,no,no,Canto,6,,,Me gustó pero me pareció muy larga y iba perdiendo la concentración a medida que avanzaba la tarea ,55.0,yes
23,2024-02-10_15h45.25.365,Unsyncopated_study2,s97,22.0,feminino,left,"España
","Catalán y español
",Master degree,no,no,B,1,conjunction_syn,L1,syncopated,s1,r1,23,Online_conjL1_syn//a.pu.ki5.0.666.wav,pu,ne,ro,ki,sil,cho,ri,fa,sil1,lu,sil2,['miss'],,,0.0,beat,,,,4:8,1,testConjL1Syn//time_viol.r2.s2.0.wav,1.0,conjunction_syn,syncopated,b,s2,no_rule,time,L1,m,0.291,2.0,1.0,0.435,6 ,4 ,Catalán,0.0,Español,0.0,Inglés,5.0,Francés,14.0,Alemán,18.0,Italiano,21.0,5.0,5.0,yes,no,no,Canto,6,,,Me gustó pero me pareció muy larga y iba perdiendo la concentración a medida que avanzaba la tarea ,55.0,yes
24,2024-02-10_15h45.25.365,Unsyncopated_study2,s97,22.0,feminino,left,"España
","Catalán y español
",Master degree,no,no,B,1,conjunction_syn,L1,syncopated,s2,r2,24,Online_conjL1_syn//a.pu.ki21.none.none.wav,ro,fa,ni,ta,sil,ri,la,be,sil1,lu,sil2,['-'],,,none,none,,,,20:24,1,testWhenL4Uns//time_viol.r1.s1.0.wav,2.0,when,unsyncopated,a,s1,no_rule,time,L4,m,0.879,2.0,0.0,1.329,6 ,4 ,Catalán,0.0,Español,0.0,Inglés,5.0,Francés,14.0,Alemán,18.0,Italiano,21.0,5.0,5.0,yes,no,no,Canto,6,,,Me gustó pero me pareció muy larga y iba perdiendo la concentración a medida que avanzaba la tarea ,55.0,yes
25,2024-02-10_15h45.25.365,Unsyncopated_study2,s97,22.0,feminino,left,"España
","Catalán y español
",Master degree,no,no,B,1,conjunction_syn,L1,syncopated,s2,r2,25,Online_conjL1_syn//a.pu.ki22.none.none.wav,fo,ri,ni,ta,sil,lu,la,be,sil1,cho,sil2,['-'],,,none,none,,,,20:24,1,testWhenL4Uns//cat_viol.r1.s1.0.wav,2.0,when,unsyncopated,a,s1,no_rule,cat,L4,m,0.357,2.0,0.0,0.75,6 ,4 ,Catalán,0.0,Español,0.0,Inglés,5.0,Francés,14.0,Alemán,18.0,Italiano,21.0,5.0,5.0,yes,no,no,Canto,6,,,Me gustó pero me pareció muy larga y iba perdiendo la concentración a medida que avanzaba la tarea ,55.0,yes
26,2024-02-10_15h45.25.365,Unsyncopated_study2,s97,22.0,feminino,left,"España
","Catalán y español
",Master degree,no,no,B,1,conjunction_syn,L1,syncopated,s2,r1,26,Online_conjL1_syn//a.pu.ki20.666.1554.wav,ro,lu,ni,pu,sil,la,fo,ki,sil1,cho,sil2,['miss'],,,0.666,no_beat,,,,20:24,1,testWhenL4Uns//r2.s1.2.wav,2.0,when,unsyncopated,b,s1,rule,rule,L4,m,0.363,2.0,0.0,0.692,6 ,4 ,Catalán,0.0,Español,0.0,Inglés,5.0,Francés,14.0,Alemán,18.0,Italiano,21.0,5.0,5.0,yes,no,no,Canto,6,,,Me gustó pero me pareció muy larga y iba perdiendo la concentración a medida que avanzaba la tarea ,55.0,yes
27,2024-02-10_15h45.25.365,Unsyncopated_study2,s97,22.0,feminino,left,"España
","Catalán y español
",Master degree,no,no,B,1,conjunction_syn,L1,syncopated,s2,r1,27,Online_conjL1_syn//a.pu.ki23.666.1554.wav,ni,la,ro,pu,sil,fo,zu,ki,sil1,ze,sil2,['miss'],,,0.666,no_beat,,,,20:24,1,testWhenL4Uns//r2.s1.0.wav,2.0,when,unsyncopated,b,s1,rule,rule,L4,m,0.282,3.0,0.0,0.525,6 ,4 ,Catalán,0.0,Español,0.0,Inglés,5.0,Francés,14.0,Alemán,18.0,Italiano,21.0,5.0,5.0,yes,no,no,Canto,6,,,Me gustó pero me pareció muy larga y iba perdiendo la concentración a medida que avanzaba la tarea ,55.0,yes
28,2024-02-10_15h45.25.365,Unsyncopated_study2,s97,22.0,feminino,left,"España
","Catalán y español
",Master degree,no,no,B,1,conjunction_syn,L1,syncopated,s2,r1,28,Online_conjL1_syn//d.ne.ni19.none.none.wav,la,ro,cho,pu,sil,ri,zu,ki,sil1,fo,sil2,['-'],,,none,none,,,,112:116,4,testWhenL4Uns//cat_viol.r2.s1.0.wav,2.0,when,unsyncopated,b,s1,no_rule,cat,L4,m,0.395,3.0,0.0,0.651,6 ,4 ,Catalán,0.0,Español,0.0,Inglés,5.0,Francés,14.0,Alemán,18.0,Italiano,21.0,5.0,5.0,yes,no,no,Canto,6,,,Me gustó pero me pareció muy larga y iba perdiendo la concentración a medida que avanzaba la tarea ,55.0,yes
29,2024-02-10_15h45.25.365,Unsyncopated_study2,s97,22.0,feminino,left,"España
","Catalán y español
",Master degree,no,no,B,1,conjunction_syn,L1,syncopated,s2,r2,29,Online_conjL1_syn//d.ne.ni18.none.none.wav,lu,ri,cho,ta,sil,ze,ro,be,sil1,fo,sil2,['-'],,,none,none,,,,112:116,4,testWhenL4Uns//r2.s1.1.wav,2.0,when,unsyncopated,b,s1,rule,rule,L4,z,0.287,4.0,1.0,1.256,6 ,4 ,Catalán,0.0,Español,0.0,Inglés,5.0,Francés,14.0,Alemán,18.0,Italiano,21.0,5.0,5.0,yes,no,no,Canto,6,,,Me gustó pero me pareció muy larga y iba perdiendo la concentración a medida que avanzaba la tarea ,55.0,yes
30,2024-02-10_15h45.25.365,Unsyncopated_study2,s97,22.0,feminino,left,"España
","Catalán y español
",Master degree,no,no,B,1,conjunction_syn,L1,syncopated,s2,r2,30,Online_conjL1_syn//d.ne.ni17.none.none.wav,ze,lu,ri,ta,sil,fo,cho,be,sil1,fa,sil2,['-'],,,none,none,,,,112:116,4,testWhenL4Uns//r1.s1.1.wav,2.0,when,unsyncopated,a,s1,rule,rule,L4,z,0.318,4.0,1.0,0.534,6 ,4 ,Catalán,0.0,Español,0.0,Inglés,5.0,Francés,14.0,Alemán,18.0,Italiano,21.0,5.0,5.0,yes,no,no,Canto,6,,,Me gustó pero me pareció muy larga y iba perdiendo la concentración a medida que avanzaba la tarea ,55.0,yes
31,2024-02-10_15h45.25.365,Unsyncopated_study2,s97,22.0,feminino,left,"España
","Catalán y español
",Master degree,no,no,B,1,conjunction_syn,L1,syncopated,s1,r2,31,Online_conjL1_syn//d.ne.ni16.1332.222.wav,ta,ni,lu,be,sil,ri,ne,fo,sil1,ze,sil2,['miss'],,,0.222,no_beat,,,,112:116,4,testWhenL4Uns//time_viol.r2.s2.0.wav,2.0,when,unsyncopated,b,s2,no_rule,time,L4,m,0.809,2.0,0.0,0.851,6 ,4 ,Catalán,0.0,Español,0.0,Inglés,5.0,Francés,14.0,Alemán,18.0,Italiano,21.0,5.0,5.0,yes,no,no,Canto,6,,,Me gustó pero me pareció muy larga y iba perdiendo la concentración a medida que avanzaba la tarea ,55.0,yes
32,2024-02-10_15h45.25.365,Unsyncopated_study2,s97,22.0,feminino,left,"España
","Catalán y español
",Master degree,no,no,B,1,conjunction_syn,L1,syncopated,s1,r2,32,Online_conjL1_syn//d.ne.ni14.none.none.wav,ta,ri,cho,be,sil,ze,lu,zu,sil1,la,sil2,['-'],,,none,none,,,,108:112,4,testWhenL4Uns//r1.s2.0.wav,2.0,when,unsyncopated,a,s2,rule,rule,L4,m,0.372,3.0,0.0,0.434,6 ,4 ,Catalán,0.0,Español,0.0,Inglés,5.0,Francés,14.0,Alemán,18.0,Italiano,21.0,5.0,5.0,yes,no,no,Canto,6,,,Me gustó pero me pareció muy larga y iba perdiendo la concentración a medida que avanzaba la tarea ,55.0,yes
33,2024-02-10_15h45.25.365,Unsyncopated_study2,s97,22.0,feminino,left,"España
","Catalán y español
",Master degree,no,no,B,1,conjunction_syn,L1,syncopated,s1,r1,33,Online_conjL1_syn//d.ne.ni15.none.none.wav,pu,lu,ze,ki,sil,cho,zu,ri,sil1,la,sil2,['-'],,,none,none,,,,108:112,4,testWhenL4Uns//r1.s2.2.wav,2.0,when,unsyncopated,a,s2,rule,rule,L4,m,0.41,3.0,0.0,0.59,6 ,4 ,Catalán,0.0,Español,0.0,Inglés,5.0,Francés,14.0,Alemán,18.0,Italiano,21.0,5.0,5.0,yes,no,no,Canto,6,,,Me gustó pero me pareció muy larga y iba perdiendo la concentración a medida que avanzaba la tarea ,55.0,yes
34,2024-02-10_15h45.25.365,Unsyncopated_study2,s97,22.0,feminino,left,"España
","Catalán y español
",Master degree,no,no,B,1,conjunction_syn,L1,syncopated,s1,r1,34,Online_conjL1_syn//d.ne.ni12.none.none.wav,pu,fo,ri,ki,sil,ze,zu,ro,sil1,la,sil2,['-'],,,none,none,,,,108:112,4,testWhenL4Uns//time_viol.r1.s2.0.wav,2.0,when,unsyncopated,a,s2,no_rule,time,L4,m,0.316,3.0,0.0,0.409,6 ,4 ,Catalán,0.0,Español,0.0,Inglés,5.0,Francés,14.0,Alemán,18.0,Italiano,21.0,5.0,5.0,yes,no,no,Canto,6,,,Me gustó pero me pareció muy larga y iba perdiendo la concentración a medida que avanzaba la tarea ,55.0,yes
35,2024-02-10_15h45.25.365,Unsyncopated_study2,s97,22.0,feminino,left,"España
","Catalán y español
",Master degree,no,no,B,1,conjunction_syn,L1,syncopated,s2,r1,35,Online_conjL1_syn//d.ne.ni13.1110.222.wav,ze,ni,lu,pu,sil,ne,ro,ki,sil1,zu,sil2,['miss'],,,0.222,no_beat,,,,108:112,4,testWhenL4Uns//r2.s2.2.wav,2.0,when,unsyncopated,b,s2,rule,rule,L4,m,0.327,3.0,0.0,0.385,6 ,4 ,Catalán,0.0,Español,0.0,Inglés,5.0,Francés,14.0,Alemán,18.0,Italiano,21.0,5.0,5.0,yes,no,no,Canto,6,,,Me gustó pero me pareció muy larga y iba perdiendo la concentración a medida que avanzaba la tarea ,55.0,yes
36,2024-02-10_15h45.25.365,Unsyncopated_study2,s97,22.0,feminino,left,"España
","Catalán y español
",Master degree,no,no,B,1,conjunction_syn,L1,syncopated,s1,r2,36,Online_conjL1_syn//a.pu.ki30.none.none.wav,ta,fa,ro,be,sil,ni,zu,la,sil1,ze,sil2,['-'],,,none,none,,,,28:32,1,testWhenL4Uns//dep_viol.r2.s1.0.wav,2.0,when,unsyncopated,b,s1,no_rule,dep,L4,m,0.366,3.0,0.0,0.536,6 ,4 ,Catalán,0.0,Español,0.0,Inglés,5.0,Francés,14.0,Alemán,18.0,Italiano,21.0,5.0,5.0,yes,no,no,Canto,6,,,Me gustó pero me pareció muy larga y iba perdiendo la concentración a medida que avanzaba la tarea ,55.0,yes
37,2024-02-10_15h45.25.365,Unsyncopated_study2,s97,22.0,feminino,left,"España
","Catalán y español
",Master degree,no,no,B,1,conjunction_syn,L1,syncopated,s2,r2,37,Online_conjL1_syn//a.pu.ki31.none.none.wav,lu,fo,fa,ta,sil,ro,ni,be,sil1,la,sil2,['-'],,,none,none,,,,28:32,1,testWhenL4Uns//cat_viol.r2.s2.0.wav,2.0,when,unsyncopated,b,s2,no_rule,cat,L4,z,0.25,4.0,1.0,0.537,6 ,4 ,Catalán,0.0,Español,0.0,Inglés,5.0,Francés,14.0,Alemán,18.0,Italiano,21.0,5.0,5.0,yes,no,no,Canto,6,,,Me gustó pero me pareció muy larga y iba perdiendo la concentración a medida que avanzaba la tarea ,55.0,yes
38,2024-02-10_15h45.25.365,Unsyncopated_study2,s97,22.0,feminino,left,"España
","Catalán y español
",Master degree,no,no,B,1,conjunction_syn,L1,syncopated,s2,r1,38,Online_conjL1_syn//a.pu.ki29.666.1554.wav,ze,ne,ro,pu,sil,lu,la,ki,sil1,fo,sil2,['miss'],,,0.666,no_beat,,,,28:32,1,testWhenL4Uns//r1.s1.2.wav,2.0,when,unsyncopated,a,s1,rule,rule,L4,z,0.505,4.0,1.0,0.483,6 ,4 ,Catalán,0.0,Español,0.0,Inglés,5.0,Francés,14.0,Alemán,18.0,Italiano,21.0,5.0,5.0,yes,no,no,Canto,6,,,Me gustó pero me pareció muy larga y iba perdiendo la concentración a medida que avanzaba la tarea ,55.0,yes
39,2024-02-10_15h45.25.365,Unsyncopated_study2,s97,22.0,feminino,left,"España
","Catalán y español
",Master degree,no,no,B,1,conjunction_syn,L1,syncopated,s2,r1,39,Online_conjL1_syn//a.pu.ki28.666.1554.wav,cho,ro,fo,pu,sil,ze,ni,ki,sil1,zu,sil2,['miss'],,,0.666,no_beat,,,,28:32,1,testWhenL4Uns//r2.s2.0.wav,2.0,when,unsyncopated,b,s2,rule,rule,L4,m,0.382,3.0,0.0,0.463,6 ,4 ,Catalán,0.0,Español,0.0,Inglés,5.0,Francés,14.0,Alemán,18.0,Italiano,21.0,5.0,5.0,yes,no,no,Canto,6,,,Me gustó pero me pareció muy larga y iba perdiendo la concentración a medida que avanzaba la tarea ,55.0,yes
40,2024-02-10_15h45.25.365,Unsyncopated_study2,s97,22.0,feminino,left,"España
","Catalán y español
",Master degree,no,no,B,1,conjunction_syn,L1,syncopated,s2,r2,40,Online_conjL1_syn//a.pu.ki16.none.none.wav,la,ze,fo,ta,sil,zu,lu,be,sil1,ne,sil2,['-'],,,none,none,,,,16:20,1,testWhenL4Uns//r1.s2.1.wav,2.0,when,unsyncopated,a,s2,rule,rule,L4,z,0.596,3.0,1.0,0.421,6 ,4 ,Catalán,0.0,Español,0.0,Inglés,5.0,Francés,14.0,Alemán,18.0,Italiano,21.0,5.0,5.0,yes,no,no,Canto,6,,,Me gustó pero me pareció muy larga y iba perdiendo la concentración a medida que avanzaba la tarea ,55.0,yes
41,2024-02-10_15h45.25.365,Unsyncopated_study2,s97,22.0,feminino,left,"España
","Catalán y español
",Master degree,no,no,B,1,conjunction_syn,L1,syncopated,s1,r2,41,Online_conjL1_syn//a.pu.ki19.none.none.wav,ta,fa,lu,be,sil,ne,fo,ri,sil1,ze,sil2,['-'],,,none,none,,,,16:20,1,testWhenL4Uns//time_viol.r2.s1.0.wav,2.0,when,unsyncopated,b,s1,no_rule,time,L4,m,0.304,3.0,0.0,0.318,6 ,4 ,Catalán,0.0,Español,0.0,Inglés,5.0,Francés,14.0,Alemán,18.0,Italiano,21.0,5.0,5.0,yes,no,no,Canto,6,,,Me gustó pero me pareció muy larga y iba perdiendo la concentración a medida que avanzaba la tarea ,55.0,yes
42,2024-02-10_15h45.25.365,Unsyncopated_study2,s97,22.0,feminino,left,"España
","Catalán y español
",Master degree,no,no,B,1,conjunction_syn,L1,syncopated,s2,r2,42,Online_conjL1_syn//a.pu.ki17.none.none.wav,lu,fa,zu,ta,sil,la,ze,be,sil1,cho,sil2,['-'],,,none,none,,,,16:20,1,testWhenL4Uns//r1.s1.0.wav,2.0,when,unsyncopated,a,s1,rule,rule,L4,m,0.586,3.0,0.0,0.446,6 ,4 ,Catalán,0.0,Español,0.0,Inglés,5.0,Francés,14.0,Alemán,18.0,Italiano,21.0,5.0,5.0,yes,no,no,Canto,6,,,Me gustó pero me pareció muy larga y iba perdiendo la concentración a medida que avanzaba la tarea ,55.0,yes
43,2024-02-10_15h45.25.365,Unsyncopated_study2,s97,22.0,feminino,left,"España
","Catalán y español
",Master degree,no,no,B,1,conjunction_syn,L1,syncopated,s2,r1,43,Online_conjL1_syn//a.pu.ki18.666.1554.wav,lu,ni,ri,pu,sil,ro,fo,ki,sil1,cho,sil2,['miss'],,,0.666,no_beat,,,,16:20,1,testWhenL4Uns//dep_viol.r1.s1.0.wav,2.0,when,unsyncopated,a,s1,no_rule,dep,L4,z,0.932,2.0,1.0,0.72,6 ,4 ,Catalán,0.0,Español,0.0,Inglés,5.0,Francés,14.0,Alemán,18.0,Italiano,21.0,5.0,5.0,yes,no,no,Canto,6,,,Me gustó pero me pareció muy larga y iba perdiendo la concentración a medida que avanzaba la tarea ,55.0,yes
44,2024-02-10_15h45.25.365,Unsyncopated_study2,s97,22.0,feminino,left,"España
","Catalán y español
",Master degree,no,no,B,1,conjunction_syn,L1,syncopated,s1,r2,44,Online_conjL1_syn//a.pu.ki0.none.none.wav,ta,la,ni,be,sil,fa,lu,ro,sil1,fo,sil2,['-'],,,none,none,,,,0:4,1,testWhenL4Uns//dep_viol.r1.s2.0.wav,2.0,when,unsyncopated,a,s2,no_rule,dep,L4,z,0.427,3.0,1.0,0.384,6 ,4 ,Catalán,0.0,Español,0.0,Inglés,5.0,Francés,14.0,Alemán,18.0,Italiano,21.0,5.0,5.0,yes,no,no,Canto,6,,,Me gustó pero me pareció muy larga y iba perdiendo la concentración a medida que avanzaba la tarea ,55.0,yes
45,2024-02-10_15h45.25.365,Unsyncopated_study2,s97,22.0,feminino,left,"España
","Catalán y español
",Master degree,no,no,B,1,conjunction_syn,L1,syncopated,s2,r1,45,Online_conjL1_syn//a.pu.ki1.666.1554.wav,ni,fo,fa,pu,sil,zu,lu,ki,sil1,ne,sil2,['miss'],,,0.666,no_beat,,,,0:4,1,testWhenL4Uns//dep_viol.r2.s2.0.wav,2.0,when,unsyncopated,b,s2,no_rule,dep,L4,m,0.136,3.0,0.0,0.401,6 ,4 ,Catalán,0.0,Español,0.0,Inglés,5.0,Francés,14.0,Alemán,18.0,Italiano,21.0,5.0,5.0,yes,no,no,Canto,6,,,Me gustó pero me pareció muy larga y iba perdiendo la concentración a medida que avanzaba la tarea ,55.0,yes
46,2024-02-10_15h45.25.365,Unsyncopated_study2,s97,22.0,feminino,left,"España
","Catalán y español
",Master degree,no,no,B,1,conjunction_syn,L1,syncopated,s1,r1,46,Online_conjL1_syn//a.pu.ki3.0.666.wav,pu,zu,la,ki,sil,fa,cho,ri,sil1,ro,sil2,['miss'],,,0.0,beat,,,,0:4,1,testWhenL4Uns//r2.s2.1.wav,2.0,when,unsyncopated,b,s2,rule,rule,L4,m,0.297,2.0,0.0,0.423,6 ,4 ,Catalán,0.0,Español,0.0,Inglés,5.0,Francés,14.0,Alemán,18.0,Italiano,21.0,5.0,5.0,yes,no,no,Canto,6,,,Me gustó pero me pareció muy larga y iba perdiendo la concentración a medida que avanzaba la tarea ,55.0,yes
47,2024-02-10_15h45.25.365,Unsyncopated_study2,s97,22.0,feminino,left,"España
","Catalán y español
",Master degree,no,no,B,1,conjunction_syn,L1,syncopated,s2,r2,47,Online_conjL1_syn//a.pu.ki2.none.none.wav,ne,ro,ri,ta,sil,fa,ze,be,sil1,la,sil2,['-'],,,none,none,,,,0:4,1,testWhenL4Uns//cat_viol.r1.s2.0.wav,2.0,when,unsyncopated,a,s2,no_rule,cat,L4,z,0.305,3.0,1.0,0.485,6 ,4 ,Catalán,0.0,Español,0.0,Inglés,5.0,Francés,14.0,Alemán,18.0,Italiano,21.0,5.0,5.0,yes,no,no,Canto,6,,,Me gustó pero me pareció muy larga y iba perdiendo la concentración a medida que avanzaba la tarea ,55.0,yes
48,2024-02-10_15h45.25.365,Unsyncopated_study2,s97,22.0,feminino,left,"España
","Catalán y español
",Master degree,no,no,B,1,conjunction_syn,L1,syncopated,s1,r1,48,Online_conjL1_syn//d.ne.ni3.none.none.wav,pu,fo,la,ki,sil,ro,lu,ri,sil1,cho,sil2,['-'],,,none,none,,,,96:100,4,testConjL2Uns//r1.s2.2.wav,3.0,conjunction_un,unsyncopated,a,s2,rule,rule,L2,z,0.531,3.0,1.0,0.482,6 ,4 ,Catalán,0.0,Español,0.0,Inglés,5.0,Francés,14.0,Alemán,18.0,Italiano,21.0,5.0,5.0,yes,no,no,Canto,6,,,Me gustó pero me pareció muy larga y iba perdiendo la concentración a medida que avanzaba la tarea ,55.0,yes
49,2024-02-10_15h45.25.365,Unsyncopated_study2,s97,22.0,feminino,left,"España
","Catalán y español
",Master degree,no,no,B,1,conjunction_syn,L1,syncopated,s1,r2,49,Online_conjL1_syn//d.ne.ni2.222.1332.wav,ta,ne,lu,be,sil,ri,ni,cho,sil1,ze,sil2,['miss'],,,1.332,no_beat,,,,96:100,4,testConjL2Uns//cat_viol.r2.s1.0.wav,3.0,conjunction_un,unsyncopated,b,s1,no_rule,cat,L2,z,0.253,3.0,0.0,0.326,6 ,4 ,Catalán,0.0,Español,0.0,Inglés,5.0,Francés,14.0,Alemán,18.0,Italiano,21.0,5.0,5.0,yes,no,no,Canto,6,,,Me gustó pero me pareció muy larga y iba perdiendo la concentración a medida que avanzaba la tarea ,55.0,yes
50,2024-02-10_15h45.25.365,Unsyncopated_study2,s97,22.0,feminino,left,"España
","Catalán y español
",Master degree,no,no,B,1,conjunction_syn,L1,syncopated,s2,r1,50,Online_conjL1_syn//d.ne.ni0.none.none.wav,lu,ze,zu,pu,sil,ro,ri,ki,sil1,la,sil2,['-'],,,none,none,,,,96:100,4,testConjL2Uns//dep_viol.r2.s2.0.wav,3.0,conjunction_un,unsyncopated,b,s2,no_rule,dep,L2,m,0.24,3.0,1.0,0.276,6 ,4 ,Catalán,0.0,Español,0.0,Inglés,5.0,Francés,14.0,Alemán,18.0,Italiano,21.0,5.0,5.0,yes,no,no,Canto,6,,,Me gustó pero me pareció muy larga y iba perdiendo la concentración a medida que avanzaba la tarea ,55.0,yes
51,2024-02-10_15h45.25.365,Unsyncopated_study2,s97,22.0,feminino,left,"España
","Catalán y español
",Master degree,no,no,B,1,conjunction_syn,L1,syncopated,s1,r1,51,Online_conjL1_syn//d.ne.ni1.222.1110.wav,pu,ne,ri,ki,sil,ni,la,ze,sil1,lu,sil2,['miss'],,,1.11,no_beat,,,,96:100,4,testConjL2Uns//r2.s2.0.wav,3.0,conjunction_un,unsyncopated,b,s2,rule,rule,L2,z,0.287,3.0,1.0,0.334,6 ,4 ,Catalán,0.0,Español,0.0,Inglés,5.0,Francés,14.0,Alemán,18.0,Italiano,21.0,5.0,5.0,yes,no,no,Canto,6,,,Me gustó pero me pareció muy larga y iba perdiendo la concentración a medida que avanzaba la tarea ,55.0,yes
52,2024-02-10_15h45.25.365,Unsyncopated_study2,s97,22.0,feminino,left,"España
","Catalán y español
",Master degree,no,no,B,1,conjunction_syn,L1,syncopated,s2,r1,52,Online_conjL1_syn//b.ta.be7.none.none.wav,fa,ne,lu,pu,sil,zu,fo,ki,sil1,cho,sil2,['-'],,,none,none,,,,36:40,2,testConjL2Uns//time_viol.r2.s2.0.wav,3.0,conjunction_un,unsyncopated,b,s2,no_rule,time,L2,z,0.3,3.0,0.0,0.34,6 ,4 ,Catalán,0.0,Español,0.0,Inglés,5.0,Francés,14.0,Alemán,18.0,Italiano,21.0,5.0,5.0,yes,no,no,Canto,6,,,Me gustó pero me pareció muy larga y iba perdiendo la concentración a medida que avanzaba la tarea ,55.0,yes
53,2024-02-10_15h45.25.365,Unsyncopated_study2,s97,22.0,feminino,left,"España
","Catalán y español
",Master degree,no,no,B,1,conjunction_syn,L1,syncopated,s1,r1,53,Online_conjL1_syn//b.ta.be4.none.none.wav,pu,la,fo,ki,sil,cho,ze,lu,sil1,ri,sil2,['-'],,,none,none,,,,36:40,2,testConjL2Uns//cat_viol.r1.s2.0.wav,3.0,conjunction_un,unsyncopated,a,s2,no_rule,cat,L2,z,0.319,3.0,0.0,0.328,6 ,4 ,Catalán,0.0,Español,0.0,Inglés,5.0,Francés,14.0,Alemán,18.0,Italiano,21.0,5.0,5.0,yes,no,no,Canto,6,,,Me gustó pero me pareció muy larga y iba perdiendo la concentración a medida que avanzaba la tarea ,55.0,yes
54,2024-02-10_15h45.25.365,Unsyncopated_study2,s97,22.0,feminino,left,"España
","Catalán y español
",Master degree,no,no,B,1,conjunction_syn,L1,syncopated,s1,r1,54,Online_conjL1_syn//b.ta.be6.none.none.wav,pu,cho,fo,ki,sil,ni,ro,ri,sil1,lu,sil2,['-'],,,none,none,,,,36:40,2,testConjL2Uns//r2.s1.2.wav,3.0,conjunction_un,unsyncopated,b,s1,rule,rule,L2,m,0.087,3.0,0.0,0.349,6 ,4 ,Catalán,0.0,Español,0.0,Inglés,5.0,Francés,14.0,Alemán,18.0,Italiano,21.0,5.0,5.0,yes,no,no,Canto,6,,,Me gustó pero me pareció muy larga y iba perdiendo la concentración a medida que avanzaba la tarea ,55.0,yes
55,2024-02-10_15h45.25.365,Unsyncopated_study2,s97,22.0,feminino,left,"España
","Catalán y español
",Master degree,no,no,B,1,conjunction_syn,L1,syncopated,s2,r1,55,Online_conjL1_syn//b.ta.be5.none.none.wav,la,ro,cho,pu,sil,fa,ne,ki,sil1,ze,sil2,['-'],,,none,none,,,,36:40,2,testConjL2Uns//dep_viol.r1.s1.0.wav,3.0,conjunction_un,unsyncopated,a,s1,no_rule,dep,L2,m,0.128,3.0,1.0,0.367,6 ,4 ,Catalán,0.0,Español,0.0,Inglés,5.0,Francés,14.0,Alemán,18.0,Italiano,21.0,5.0,5.0,yes,no,no,Canto,6,,,Me gustó pero me pareció muy larga y iba perdiendo la concentración a medida que avanzaba la tarea ,55.0,yes
56,2024-02-10_15h45.25.365,Unsyncopated_study2,s97,22.0,feminino,left,"España
","Catalán y español
",Master degree,no,no,B,1,conjunction_syn,L1,syncopated,s2,r1,56,Online_conjL1_syn//c.ro.fo17.444.0.wav,fo,fa,ro,pu,sil,lu,ze,ki,sil1,ni,sil2,['miss'],,,0.0,beat,,,,80:84,3,testConjL2Uns//cat_viol.r1.s1.0.wav,3.0,conjunction_un,unsyncopated,a,s1,no_rule,cat,L2,z,0.417,3.0,0.0,0.333,6 ,4 ,Catalán,0.0,Español,0.0,Inglés,5.0,Francés,14.0,Alemán,18.0,Italiano,21.0,5.0,5.0,yes,no,no,Canto,6,,,Me gustó pero me pareció muy larga y iba perdiendo la concentración a medida que avanzaba la tarea ,55.0,yes
57,2024-02-10_15h45.25.365,Unsyncopated_study2,s97,22.0,feminino,left,"España
","Catalán y español
",Master degree,no,no,B,1,conjunction_syn,L1,syncopated,s1,r2,57,Online_conjL1_syn//c.ro.fo16.1332.222.wav,ta,fo,ni,be,sil,la,ro,lu,sil1,fa,sil2,['miss'],,,0.222,no_beat,,,,80:84,3,testConjL2Uns//time_viol.r1.s1.0.wav,3.0,conjunction_un,unsyncopated,a,s1,no_rule,time,L2,m,0.368,3.0,1.0,0.269,6 ,4 ,Catalán,0.0,Español,0.0,Inglés,5.0,Francés,14.0,Alemán,18.0,Italiano,21.0,5.0,5.0,yes,no,no,Canto,6,,,Me gustó pero me pareció muy larga y iba perdiendo la concentración a medida que avanzaba la tarea ,55.0,yes
58,2024-02-10_15h45.25.365,Unsyncopated_study2,s97,22.0,feminino,left,"España
","Catalán y español
",Master degree,no,no,B,1,conjunction_syn,L1,syncopated,s1,r1,58,Online_conjL1_syn//c.ro.fo18.1110.222.wav,pu,fo,zu,ki,sil,ro,cho,ze,sil1,ne,sil2,['miss'],,,0.222,no_beat,,,,80:84,3,testConjL2Uns//r2.s1.1.wav,3.0,conjunction_un,unsyncopated,b,s1,rule,rule,L2,m,0.309,3.0,0.0,0.239,6 ,4 ,Catalán,0.0,Español,0.0,Inglés,5.0,Francés,14.0,Alemán,18.0,Italiano,21.0,5.0,5.0,yes,no,no,Canto,6,,,Me gustó pero me pareció muy larga y iba perdiendo la concentración a medida que avanzaba la tarea ,55.0,yes
59,2024-02-10_15h45.25.365,Unsyncopated_study2,s97,22.0,feminino,left,"España
","Catalán y español
",Master degree,no,no,B,1,conjunction_syn,L1,syncopated,s2,r1,59,Online_conjL1_syn//c.ro.fo19.none.none.wav,la,ni,zu,pu,sil,ne,ri,ki,sil1,lu,sil2,['-'],,,none,none,,,,80:84,3,testConjL2Uns//r2.s2.1.wav,3.0,conjunction_un,unsyncopated,b,s2,rule,rule,L2,m,0.041,3.0,0.0,0.334,6 ,4 ,Catalán,0.0,Español,0.0,Inglés,5.0,Francés,14.0,Alemán,18.0,Italiano,21.0,5.0,5.0,yes,no,no,Canto,6,,,Me gustó pero me pareció muy larga y iba perdiendo la concentración a medida que avanzaba la tarea ,55.0,yes
60,2024-02-10_15h45.25.365,Unsyncopated_study2,s97,22.0,feminino,left,"España
","Catalán y español
",Master degree,no,no,B,1,conjunction_syn,L1,syncopated,s1,r2,60,Online_conjL1_syn//c.ro.fo2.none.none.wav,ta,ze,ni,be,sil,zu,cho,lu,sil1,la,sil2,['-'],,,none,none,,,,64:68,3,testConjL2Uns//r1.s1.0.wav,3.0,conjunction_un,unsyncopated,a,s1,rule,rule,L2,m,0.771,3.0,0.0,0.186,6 ,4 ,Catalán,0.0,Español,0.0,Inglés,5.0,Francés,14.0,Alemán,18.0,Italiano,21.0,5.0,5.0,yes,no,no,Canto,6,,,Me gustó pero me pareció muy larga y iba perdiendo la concentración a medida que avanzaba la tarea ,55.0,yes
61,2024-02-10_15h45.25.365,Unsyncopated_study2,s97,22.0,feminino,left,"España
","Catalán y español
",Master degree,no,no,B,1,conjunction_syn,L1,syncopated,s1,r2,61,Online_conjL1_syn//c.ro.fo1.none.none.wav,ta,ni,lu,be,sil,zu,ze,fa,sil1,la,sil2,['-'],,,none,none,,,,64:68,3,testConjL2Uns//r1.s1.2.wav,3.0,conjunction_un,unsyncopated,a,s1,rule,rule,L2,z,0.22,3.0,1.0,0.351,6 ,4 ,Catalán,0.0,Español,0.0,Inglés,5.0,Francés,14.0,Alemán,18.0,Italiano,21.0,5.0,5.0,yes,no,no,Canto,6,,,Me gustó pero me pareció muy larga y iba perdiendo la concentración a medida que avanzaba la tarea ,55.0,yes
62,2024-02-10_15h45.25.365,Unsyncopated_study2,s97,22.0,feminino,left,"España
","Catalán y español
",Master degree,no,no,B,1,conjunction_syn,L1,syncopated,s2,r1,62,Online_conjL1_syn//c.ro.fo0.444.1110.wav,fa,la,ro,pu,sil,fo,lu,ki,sil1,ze,sil2,['miss'],,,1.11,no_beat,,,,64:68,3,testConjL2Uns//time_viol.r2.s1.0.wav,3.0,conjunction_un,unsyncopated,b,s1,no_rule,time,L2,m,0.294,3.0,1.0,0.403,6 ,4 ,Catalán,0.0,Español,0.0,Inglés,5.0,Francés,14.0,Alemán,18.0,Italiano,21.0,5.0,5.0,yes,no,no,Canto,6,,,Me gustó pero me pareció muy larga y iba perdiendo la concentración a medida que avanzaba la tarea ,55.0,yes
63,2024-02-10_15h45.25.365,Unsyncopated_study2,s97,22.0,feminino,left,"España
","Catalán y español
",Master degree,no,no,B,1,conjunction_syn,L1,syncopated,s2,r1,63,Online_conjL1_syn//c.ro.fo3.none.none.wav,lu,ni,ze,pu,sil,ne,ri,ki,sil1,cho,sil2,['-'],,,none,none,,,,64:68,3,testConjL2Uns//r1.s2.0.wav,3.0,conjunction_un,unsyncopated,a,s2,rule,rule,L2,m,0.269,3.0,0.0,0.282,6 ,4 ,Catalán,0.0,Español,0.0,Inglés,5.0,Francés,14.0,Alemán,18.0,Italiano,21.0,5.0,5.0,yes,no,no,Canto,6,,,Me gustó pero me pareció muy larga y iba perdiendo la concentración a medida que avanzaba la tarea ,55.0,yes
64,2024-02-10_15h45.25.365,Unsyncopated_study2,s97,22.0,feminino,left,"España
","Catalán y español
",Master degree,no,no,B,1,conjunction_syn,L1,syncopated,s2,r2,64,Online_conjL1_syn//a.pu.ki9.none.none.wav,fa,ne,cho,ta,sil,ni,zu,be,sil1,lu,sil2,['-'],,,none,none,,,,8:12,1,testConjL2Uns//r1.s2.1.wav,3.0,conjunction_un,unsyncopated,a,s2,rule,rule,L2,m,0.255,3.0,0.0,0.262,6 ,4 ,Catalán,0.0,Español,0.0,Inglés,5.0,Francés,14.0,Alemán,18.0,Italiano,21.0,5.0,5.0,yes,no,no,Canto,6,,,Me gustó pero me pareció muy larga y iba perdiendo la concentración a medida que avanzaba la tarea ,55.0,yes
65,2024-02-10_15h45.25.365,Unsyncopated_study2,s97,22.0,feminino,left,"España
","Catalán y español
",Master degree,no,no,B,1,conjunction_syn,L1,syncopated,s1,r1,65,Online_conjL1_syn//a.pu.ki8.0.666.wav,pu,ze,ni,ki,sil,ne,ro,ri,sil1,fa,sil2,['miss'],,,0.0,beat,,,,8:12,1,testConjL2Uns//dep_viol.r1.s2.0.wav,3.0,conjunction_un,unsyncopated,a,s2,no_rule,dep,L2,m,0.291,3.0,1.0,0.174,6 ,4 ,Catalán,0.0,Español,0.0,Inglés,5.0,Francés,14.0,Alemán,18.0,Italiano,21.0,5.0,5.0,yes,no,no,Canto,6,,,Me gustó pero me pareció muy larga y iba perdiendo la concentración a medida que avanzaba la tarea ,55.0,yes
66,2024-02-10_15h45.25.365,Unsyncopated_study2,s97,22.0,feminino,left,"España
","Catalán y español
",Master degree,no,no,B,1,conjunction_syn,L1,syncopated,s1,r1,66,Online_conjL1_syn//a.pu.ki11.0.666.wav,pu,fa,ri,ki,sil,lu,cho,zu,sil1,ni,sil2,['miss'],,,0.0,beat,,,,8:12,1,testConjL2Uns//time_viol.r1.s2.0.wav,3.0,conjunction_un,unsyncopated,a,s2,no_rule,time,L2,m,0.234,3.0,1.0,0.167,6 ,4 ,Catalán,0.0,Español,0.0,Inglés,5.0,Francés,14.0,Alemán,18.0,Italiano,21.0,5.0,5.0,yes,no,no,Canto,6,,,Me gustó pero me pareció muy larga y iba perdiendo la concentración a medida que avanzaba la tarea ,55.0,yes
67,2024-02-10_15h45.25.365,Unsyncopated_study2,s97,22.0,feminino,left,"España
","Catalán y español
",Master degree,no,no,B,1,conjunction_syn,L1,syncopated,s1,r1,67,Online_conjL1_syn//a.pu.ki10.0.666.wav,pu,ro,cho,ki,sil,zu,la,fa,sil1,ne,sil2,['miss'],,,0.0,beat,,,,8:12,1,testConjL2Uns//cat_viol.r2.s2.0.wav,3.0,conjunction_un,unsyncopated,b,s2,no_rule,cat,L2,m,0.205,3.0,1.0,0.15,6 ,4 ,Catalán,0.0,Español,0.0,Inglés,5.0,Francés,14.0,Alemán,18.0,Italiano,21.0,5.0,5.0,yes,no,no,Canto,6,,,Me gustó pero me pareció muy larga y iba perdiendo la concentración a medida que avanzaba la tarea ,55.0,yes
68,2024-02-10_15h45.25.365,Unsyncopated_study2,s97,22.0,feminino,left,"España
","Catalán y español
",Master degree,no,no,B,1,conjunction_syn,L1,syncopated,s1,r2,68,Online_conjL1_syn//b.ta.be28.0.666.wav,ta,fa,la,be,sil,zu,fo,ze,sil1,ro,sil2,['miss'],,,0.666,no_beat,,,,60:64,2,testConjL2Uns//r2.s2.2.wav,3.0,conjunction_un,unsyncopated,b,s2,rule,rule,L2,m,0.273,3.0,0.0,0.252,6 ,4 ,Catalán,0.0,Español,0.0,Inglés,5.0,Francés,14.0,Alemán,18.0,Italiano,21.0,5.0,5.0,yes,no,no,Canto,6,,,Me gustó pero me pareció muy larga y iba perdiendo la concentración a medida que avanzaba la tarea ,55.0,yes
69,2024-02-10_15h45.25.365,Unsyncopated_study2,s97,22.0,feminino,left,"España
","Catalán y español
",Master degree,no,no,B,1,conjunction_syn,L1,syncopated,s2,r1,69,Online_conjL1_syn//b.ta.be30.none.none.wav,la,fo,fa,pu,sil,ro,ri,ki,sil1,ze,sil2,['-'],,,none,none,,,,60:64,2,testConjL2Uns//r2.s1.0.wav,3.0,conjunction_un,unsyncopated,b,s1,rule,rule,L2,m,0.293,3.0,0.0,0.22,6 ,4 ,Catalán,0.0,Español,0.0,Inglés,5.0,Francés,14.0,Alemán,18.0,Italiano,21.0,5.0,5.0,yes,no,no,Canto,6,,,Me gustó pero me pareció muy larga y iba perdiendo la concentración a medida que avanzaba la tarea ,55.0,yes
70,2024-02-10_15h45.25.365,Unsyncopated_study2,s97,22.0,feminino,left,"España
","Catalán y español
",Master degree,no,no,B,1,conjunction_syn,L1,syncopated,s1,r2,70,Online_conjL1_syn//b.ta.be31.0.666.wav,ta,fo,cho,be,sil,lu,ri,zu,sil1,la,sil2,['miss'],,,0.666,no_beat,,,,60:64,2,testConjL2Uns//dep_viol.r2.s1.0.wav,3.0,conjunction_un,unsyncopated,b,s1,no_rule,dep,L2,z,0.305,3.0,0.0,0.198,6 ,4 ,Catalán,0.0,Español,0.0,Inglés,5.0,Francés,14.0,Alemán,18.0,Italiano,21.0,5.0,5.0,yes,no,no,Canto,6,,,Me gustó pero me pareció muy larga y iba perdiendo la concentración a medida que avanzaba la tarea ,55.0,yes
71,2024-02-10_15h45.25.365,Unsyncopated_study2,s97,22.0,feminino,left,"España
","Catalán y español
",Master degree,no,no,B,1,conjunction_syn,L1,syncopated,s1,r1,71,Online_conjL1_syn//b.ta.be29.none.none.wav,pu,ro,fa,ki,sil,zu,ni,la,sil1,ze,sil2,['-'],,,none,none,,,,60:64,2,testConjL2Uns//r1.s1.1.wav,3.0,conjunction_un,unsyncopated,a,s1,rule,rule,L2,z,0.14,3.0,1.0,0.295,6 ,4 ,Catalán,0.0,Español,0.0,Inglés,5.0,Francés,14.0,Alemán,18.0,Italiano,21.0,5.0,5.0,yes,no,no,Canto,6,,,Me gustó pero me pareció muy larga y iba perdiendo la concentración a medida que avanzaba la tarea ,55.0,yes
72,2024-02-10_15h45.25.365,Unsyncopated_study2,s97,22.0,feminino,left,"España
","Catalán y español
",Master degree,no,no,B,1,conjunction_syn,L1,syncopated,s1,r2,72,Online_conjL1_syn//d.ne.ni25.222.1110.wav,ta,ne,ze,be,sil,ni,cho,la,sil1,lu,sil2,['miss'],,,1.11,no_beat,,,,120:124,4,testWhatL3Uns//dep_viol.r2.s2.0.wav,4.0,what,unsyncopated,b,s2,no_rule,dep,L3,z,0.424,3.0,0.0,0.19,6 ,4 ,Catalán,0.0,Español,0.0,Inglés,5.0,Francés,14.0,Alemán,18.0,Italiano,21.0,5.0,5.0,yes,no,no,Canto,6,,,Me gustó pero me pareció muy larga y iba perdiendo la concentración a medida que avanzaba la tarea ,55.0,yes
73,2024-02-10_15h45.25.365,Unsyncopated_study2,s97,22.0,feminino,left,"España
","Catalán y español
",Master degree,no,no,B,1,conjunction_syn,L1,syncopated,s1,r2,73,Online_conjL1_syn//d.ne.ni27.none.none.wav,ta,la,fo,be,sil,zu,cho,ze,sil1,ri,sil2,['-'],,,none,none,,,,120:124,4,testWhatL3Uns//r1.s2.1.wav,4.0,what,unsyncopated,a,s2,rule,rule,L3,z,0.3,3.0,1.0,0.251,6 ,4 ,Catalán,0.0,Español,0.0,Inglés,5.0,Francés,14.0,Alemán,18.0,Italiano,21.0,5.0,5.0,yes,no,no,Canto,6,,,Me gustó pero me pareció muy larga y iba perdiendo la concentración a medida que avanzaba la tarea ,55.0,yes
74,2024-02-10_15h45.25.365,Unsyncopated_study2,s97,22.0,feminino,left,"España
","Catalán y español
",Master degree,no,no,B,1,conjunction_syn,L1,syncopated,s2,r2,74,Online_conjL1_syn//d.ne.ni24.none.none.wav,lu,ro,la,ta,sil,fa,fo,be,sil1,zu,sil2,['-'],,,none,none,,,,120:124,4,testWhatL3Uns//dep_viol.r1.s2.0.wav,4.0,what,unsyncopated,a,s2,no_rule,dep,L3,m,0.102,3.0,1.0,0.216,6 ,4 ,Catalán,0.0,Español,0.0,Inglés,5.0,Francés,14.0,Alemán,18.0,Italiano,21.0,5.0,5.0,yes,no,no,Canto,6,,,Me gustó pero me pareció muy larga y iba perdiendo la concentración a medida que avanzaba la tarea ,55.0,yes
75,2024-02-10_15h45.25.365,Unsyncopated_study2,s97,22.0,feminino,left,"España
","Catalán y español
",Master degree,no,no,B,1,conjunction_syn,L1,syncopated,s2,r1,75,Online_conjL1_syn//d.ne.ni26.none.none.wav,ze,zu,fa,pu,sil,cho,lu,ki,sil1,fo,sil2,['-'],,,none,none,,,,120:124,4,testWhatL3Uns//r2.s1.2.wav,4.0,what,unsyncopated,b,s1,rule,rule,L3,m,0.3,3.0,0.0,0.219,6 ,4 ,Catalán,0.0,Español,0.0,Inglés,5.0,Francés,14.0,Alemán,18.0,Italiano,21.0,5.0,5.0,yes,no,no,Canto,6,,,Me gustó pero me pareció muy larga y iba perdiendo la concentración a medida que avanzaba la tarea ,55.0,yes
76,2024-02-10_15h45.25.365,Unsyncopated_study2,s97,22.0,feminino,left,"España
","Catalán y español
",Master degree,no,no,B,1,conjunction_syn,L1,syncopated,s2,r2,76,Online_conjL1_syn//b.ta.be1.666.1554.wav,ni,la,lu,ta,sil,cho,ro,be,sil1,ne,sil2,['miss'],,,1.554,no_beat,,,,32:36,2,testWhatL3Uns//time_viol.r2.s2.0.wav,4.0,what,unsyncopated,b,s2,no_rule,time,L3,z,0.252,3.0,0.0,0.307,6 ,4 ,Catalán,0.0,Español,0.0,Inglés,5.0,Francés,14.0,Alemán,18.0,Italiano,21.0,5.0,5.0,yes,no,no,Canto,6,,,Me gustó pero me pareció muy larga y iba perdiendo la concentración a medida que avanzaba la tarea ,55.0,yes
77,2024-02-10_15h45.25.365,Unsyncopated_study2,s97,22.0,feminino,left,"España
","Catalán y español
",Master degree,no,no,B,1,conjunction_syn,L1,syncopated,s2,r1,77,Online_conjL1_syn//b.ta.be2.none.none.wav,ri,ne,fo,pu,sil,zu,la,ki,sil1,lu,sil2,['-'],,,none,none,,,,32:36,2,testWhatL3Uns//cat_viol.r1.s1.0.wav,4.0,what,unsyncopated,a,s1,no_rule,cat,L3,m,0.767,3.0,1.0,0.332,6 ,4 ,Catalán,0.0,Español,0.0,Inglés,5.0,Francés,14.0,Alemán,18.0,Italiano,21.0,5.0,5.0,yes,no,no,Canto,6,,,Me gustó pero me pareció muy larga y iba perdiendo la concentración a medida que avanzaba la tarea ,55.0,yes
78,2024-02-10_15h45.25.365,Unsyncopated_study2,s97,22.0,feminino,left,"España
","Catalán y español
",Master degree,no,no,B,1,conjunction_syn,L1,syncopated,s2,r2,78,Online_conjL1_syn//b.ta.be3.666.1554.wav,lu,ro,zu,ta,sil,ne,fo,be,sil1,ni,sil2,['miss'],,,1.554,no_beat,,,,32:36,2,testWhatL3Uns//dep_viol.r2.s1.0.wav,4.0,what,unsyncopated,b,s1,no_rule,dep,L3,m,0.685,3.0,1.0,0.321,6 ,4 ,Catalán,0.0,Español,0.0,Inglés,5.0,Francés,14.0,Alemán,18.0,Italiano,21.0,5.0,5.0,yes,no,no,Canto,6,,,Me gustó pero me pareció muy larga y iba perdiendo la concentración a medida que avanzaba la tarea ,55.0,yes
79,2024-02-10_15h45.25.365,Unsyncopated_study2,s97,22.0,feminino,left,"España
","Catalán y español
",Master degree,no,no,B,1,conjunction_syn,L1,syncopated,s2,r2,79,Online_conjL1_syn//b.ta.be0.666.1554.wav,cho,fa,fo,ta,sil,zu,la,be,sil1,ne,sil2,['miss'],,,1.554,no_beat,,,,32:36,2,testWhatL3Uns//r2.s1.1.wav,4.0,what,unsyncopated,b,s1,rule,rule,L3,z,0.249,3.0,1.0,0.308,6 ,4 ,Catalán,0.0,Español,0.0,Inglés,5.0,Francés,14.0,Alemán,18.0,Italiano,21.0,5.0,5.0,yes,no,no,Canto,6,,,Me gustó pero me pareció muy larga y iba perdiendo la concentración a medida que avanzaba la tarea ,55.0,yes
80,2024-02-10_15h45.25.365,Unsyncopated_study2,s97,22.0,feminino,left,"España
","Catalán y español
",Master degree,no,no,B,1,conjunction_syn,L1,syncopated,s1,r2,80,Online_conjL1_syn//b.ta.be10.0.666.wav,ta,cho,ri,be,sil,ni,zu,ze,sil1,ne,sil2,['miss'],,,0.666,no_beat,,,,40:44,2,testWhatL3Uns//r1.s1.1.wav,4.0,what,unsyncopated,a,s1,rule,rule,L3,m,0.372,3.0,0.0,0.257,6 ,4 ,Catalán,0.0,Español,0.0,Inglés,5.0,Francés,14.0,Alemán,18.0,Italiano,21.0,5.0,5.0,yes,no,no,Canto,6,,,Me gustó pero me pareció muy larga y iba perdiendo la concentración a medida que avanzaba la tarea ,55.0,yes
81,2024-02-10_15h45.25.365,Unsyncopated_study2,s97,22.0,feminino,left,"España
","Catalán y español
",Master degree,no,no,B,1,conjunction_syn,L1,syncopated,s1,r2,81,Online_conjL1_syn//b.ta.be8.0.666.wav,ta,la,zu,be,sil,ro,cho,ze,sil1,lu,sil2,['miss'],,,0.666,no_beat,,,,40:44,2,testWhatL3Uns//r2.s2.2.wav,4.0,what,unsyncopated,b,s2,rule,rule,L3,z,0.385,4.0,1.0,0.951,6 ,4 ,Catalán,0.0,Español,0.0,Inglés,5.0,Francés,14.0,Alemán,18.0,Italiano,21.0,5.0,5.0,yes,no,no,Canto,6,,,Me gustó pero me pareció muy larga y iba perdiendo la concentración a medida que avanzaba la tarea ,55.0,yes
82,2024-02-10_15h45.25.365,Unsyncopated_study2,s97,22.0,feminino,left,"España
","Catalán y español
",Master degree,no,no,B,1,conjunction_syn,L1,syncopated,s1,r2,82,Online_conjL1_syn//b.ta.be11.0.666.wav,ta,zu,lu,be,sil,ni,ro,cho,sil1,fo,sil2,['miss'],,,0.666,no_beat,,,,40:44,2,testWhatL3Uns//r1.s1.2.wav,4.0,what,unsyncopated,a,s1,rule,rule,L3,z,0.257,4.0,1.0,0.502,6 ,4 ,Catalán,0.0,Español,0.0,Inglés,5.0,Francés,14.0,Alemán,18.0,Italiano,21.0,5.0,5.0,yes,no,no,Canto,6,,,Me gustó pero me pareció muy larga y iba perdiendo la concentración a medida que avanzaba la tarea ,55.0,yes
83,2024-02-10_15h45.25.365,Unsyncopated_study2,s97,22.0,feminino,left,"España
","Catalán y español
",Master degree,no,no,B,1,conjunction_syn,L1,syncopated,s2,r2,83,Online_conjL1_syn//b.ta.be9.666.1554.wav,la,lu,ne,ta,sil,ze,fo,be,sil1,zu,sil2,['miss'],,,1.554,no_beat,,,,40:44,2,testWhatL3Uns//r1.s1.0.wav,4.0,what,unsyncopated,a,s1,rule,rule,L3,z,0.2,4.0,1.0,0.327,6 ,4 ,Catalán,0.0,Español,0.0,Inglés,5.0,Francés,14.0,Alemán,18.0,Italiano,21.0,5.0,5.0,yes,no,no,Canto,6,,,Me gustó pero me pareció muy larga y iba perdiendo la concentración a medida que avanzaba la tarea ,55.0,yes
84,2024-02-10_15h45.25.365,Unsyncopated_study2,s97,22.0,feminino,left,"España
","Catalán y español
",Master degree,no,no,B,1,conjunction_syn,L1,syncopated,s1,r1,84,Online_conjL1_syn//c.ro.fo13.1554.222.wav,pu,fo,fa,ki,sil,ni,cho,ro,sil1,ze,sil2,['miss'],,,0.222,no_beat,,,,76:80,3,testWhatL3Uns//r2.s2.1.wav,4.0,what,unsyncopated,b,s2,rule,rule,L3,m,0.284,3.0,0.0,0.62,6 ,4 ,Catalán,0.0,Español,0.0,Inglés,5.0,Francés,14.0,Alemán,18.0,Italiano,21.0,5.0,5.0,yes,no,no,Canto,6,,,Me gustó pero me pareció muy larga y iba perdiendo la concentración a medida que avanzaba la tarea ,55.0,yes
85,2024-02-10_15h45.25.365,Unsyncopated_study2,s97,22.0,feminino,left,"España
","Catalán y español
",Master degree,no,no,B,1,conjunction_syn,L1,syncopated,s1,r1,85,Online_conjL1_syn//c.ro.fo15.none.none.wav,pu,ri,ze,ki,sil,lu,ne,la,sil1,cho,sil2,['-'],,,none,none,,,,76:80,3,testWhatL3Uns//dep_viol.r1.s1.0.wav,4.0,what,unsyncopated,a,s1,no_rule,dep,L3,m,0.152,3.0,1.0,0.315,6 ,4 ,Catalán,0.0,Español,0.0,Inglés,5.0,Francés,14.0,Alemán,18.0,Italiano,21.0,5.0,5.0,yes,no,no,Canto,6,,,Me gustó pero me pareció muy larga y iba perdiendo la concentración a medida que avanzaba la tarea ,55.0,yes
86,2024-02-10_15h45.25.365,Unsyncopated_study2,s97,22.0,feminino,left,"España
","Catalán y español
",Master degree,no,no,B,1,conjunction_syn,L1,syncopated,s2,r2,86,Online_conjL1_syn//c.ro.fo14.none.none.wav,fa,zu,ri,ta,sil,la,ni,be,sil1,ne,sil2,['-'],,,none,none,,,,76:80,3,testWhatL3Uns//r2.s2.0.wav,4.0,what,unsyncopated,b,s2,rule,rule,L3,z,0.32,4.0,1.0,0.349,6 ,4 ,Catalán,0.0,Español,0.0,Inglés,5.0,Francés,14.0,Alemán,18.0,Italiano,21.0,5.0,5.0,yes,no,no,Canto,6,,,Me gustó pero me pareció muy larga y iba perdiendo la concentración a medida que avanzaba la tarea ,55.0,yes
87,2024-02-10_15h45.25.365,Unsyncopated_study2,s97,22.0,feminino,left,"España
","Catalán y español
",Master degree,no,no,B,1,conjunction_syn,L1,syncopated,s2,r2,87,Online_conjL1_syn//c.ro.fo12.1332.444.wav,fa,zu,fo,ta,sil,cho,ro,be,sil1,ne,sil2,['miss'],,,0.444,no_beat,,,,76:80,3,testWhatL3Uns//r2.s1.0.wav,4.0,what,unsyncopated,b,s1,rule,rule,L3,z,0.408,4.0,1.0,0.416,6 ,4 ,Catalán,0.0,Español,0.0,Inglés,5.0,Francés,14.0,Alemán,18.0,Italiano,21.0,5.0,5.0,yes,no,no,Canto,6,,,Me gustó pero me pareció muy larga y iba perdiendo la concentración a medida que avanzaba la tarea ,55.0,yes
88,2024-02-10_15h45.25.365,Unsyncopated_study2,s97,22.0,feminino,left,"España
","Catalán y español
",Master degree,no,no,B,1,conjunction_syn,L1,syncopated,s1,r1,88,Online_conjL1_syn//c.ro.fo22.none.none.wav,pu,fa,cho,ki,sil,ne,la,ni,sil1,ze,sil2,['-'],,,none,none,,,,84:88,3,testWhatL3Uns//cat_viol.r2.s1.0.wav,4.0,what,unsyncopated,b,s1,no_rule,cat,L3,z,0.016,4.0,0.0,0.439,6 ,4 ,Catalán,0.0,Español,0.0,Inglés,5.0,Francés,14.0,Alemán,18.0,Italiano,21.0,5.0,5.0,yes,no,no,Canto,6,,,Me gustó pero me pareció muy larga y iba perdiendo la concentración a medida que avanzaba la tarea ,55.0,yes
89,2024-02-10_15h45.25.365,Unsyncopated_study2,s97,22.0,feminino,left,"España
","Catalán y español
",Master degree,no,no,B,1,conjunction_syn,L1,syncopated,s2,r2,89,Online_conjL1_syn//c.ro.fo21.none.none.wav,ze,zu,la,ta,sil,ne,cho,be,sil1,ni,sil2,['-'],,,none,none,,,,84:88,3,testWhatL3Uns//r1.s2.2.wav,4.0,what,unsyncopated,a,s2,rule,rule,L3,z,0.306,4.0,1.0,0.367,6 ,4 ,Catalán,0.0,Español,0.0,Inglés,5.0,Francés,14.0,Alemán,18.0,Italiano,21.0,5.0,5.0,yes,no,no,Canto,6,,,Me gustó pero me pareció muy larga y iba perdiendo la concentración a medida que avanzaba la tarea ,55.0,yes
90,2024-02-10_15h45.25.365,Unsyncopated_study2,s97,22.0,feminino,left,"España
","Catalán y español
",Master degree,no,no,B,1,conjunction_syn,L1,syncopated,s2,r1,90,Online_conjL1_syn//c.ro.fo20.none.none.wav,lu,ne,la,pu,sil,zu,cho,ki,sil1,ni,sil2,['-'],,,none,none,,,,84:88,3,testWhatL3Uns//r1.s2.0.wav,4.0,what,unsyncopated,a,s2,rule,rule,L3,z,0.026,4.0,1.0,0.387,6 ,4 ,Catalán,0.0,Español,0.0,Inglés,5.0,Francés,14.0,Alemán,18.0,Italiano,21.0,5.0,5.0,yes,no,no,Canto,6,,,Me gustó pero me pareció muy larga y iba perdiendo la concentración a medida que avanzaba la tarea ,55.0,yes
91,2024-02-10_15h45.25.365,Unsyncopated_study2,s97,22.0,feminino,left,"España
","Catalán y español
",Master degree,no,no,B,1,conjunction_syn,L1,syncopated,s1,r2,91,Online_conjL1_syn//c.ro.fo23.1110.1332.wav,ta,ne,cho,be,sil,ro,fo,zu,sil1,ni,sil2,['miss'],,,1.332,no_beat,,,,84:88,3,testWhatL3Uns//time_viol.r1.s2.0.wav,4.0,what,unsyncopated,a,s2,no_rule,time,L3,z,1.304,4.0,0.0,0.367,6 ,4 ,Catalán,0.0,Español,0.0,Inglés,5.0,Francés,14.0,Alemán,18.0,Italiano,21.0,5.0,5.0,yes,no,no,Canto,6,,,Me gustó pero me pareció muy larga y iba perdiendo la concentración a medida que avanzaba la tarea ,55.0,yes
92,2024-02-10_15h45.25.365,Unsyncopated_study2,s97,22.0,feminino,left,"España
","Catalán y español
",Master degree,no,no,B,1,conjunction_syn,L1,syncopated,s2,r2,92,Online_conjL1_syn//b.ta.be24.666.1554.wav,fo,ni,ro,ta,sil,ri,cho,be,sil1,ne,sil2,['miss'],,,1.554,no_beat,,,,56:60,2,testWhatL3Uns//cat_viol.r1.s2.0.wav,4.0,what,unsyncopated,a,s2,no_rule,cat,L3,z,0.384,4.0,0.0,0.416,6 ,4 ,Catalán,0.0,Español,0.0,Inglés,5.0,Francés,14.0,Alemán,18.0,Italiano,21.0,5.0,5.0,yes,no,no,Canto,6,,,Me gustó pero me pareció muy larga y iba perdiendo la concentración a medida que avanzaba la tarea ,55.0,yes
93,2024-02-10_15h45.25.365,Unsyncopated_study2,s97,22.0,feminino,left,"España
","Catalán y español
",Master degree,no,no,B,1,conjunction_syn,L1,syncopated,s1,r1,93,Online_conjL1_syn//b.ta.be27.none.none.wav,pu,ze,lu,ki,sil,ro,fo,ni,sil1,ri,sil2,['-'],,,none,none,,,,56:60,2,testWhatL3Uns//time_viol.r1.s1.0.wav,4.0,what,unsyncopated,a,s1,no_rule,time,L3,m,0.869,1.0,1.0,0.454,6 ,4 ,Catalán,0.0,Español,0.0,Inglés,5.0,Francés,14.0,Alemán,18.0,Italiano,21.0,5.0,5.0,yes,no,no,Canto,6,,,Me gustó pero me pareció muy larga y iba perdiendo la concentración a medida que avanzaba la tarea ,55.0,yes
94,2024-02-10_15h45.25.365,Unsyncopated_study2,s97,22.0,feminino,left,"España
","Catalán y español
",Master degree,no,no,B,1,conjunction_syn,L1,syncopated,s1,r2,94,Online_conjL1_syn//b.ta.be25.0.666.wav,ta,ri,ze,be,sil,ni,cho,lu,sil1,ne,sil2,['miss'],,,0.666,no_beat,,,,56:60,2,testWhatL3Uns//cat_viol.r2.s2.0.wav,4.0,what,unsyncopated,b,s2,no_rule,cat,L3,m,0.323,1.0,1.0,0.282,6 ,4 ,Catalán,0.0,Español,0.0,Inglés,5.0,Francés,14.0,Alemán,18.0,Italiano,21.0,5.0,5.0,yes,no,no,Canto,6,,,Me gustó pero me pareció muy larga y iba perdiendo la concentración a medida que avanzaba la tarea ,55.0,yes
95,2024-02-10_15h45.25.365,Unsyncopated_study2,s97,22.0,feminino,left,"España
","Catalán y español
",Master degree,no,no,B,1,conjunction_syn,L1,syncopated,s2,r2,95,Online_conjL1_syn//b.ta.be26.666.1554.wav,cho,lu,la,ta,sil,fo,ro,be,sil1,zu,sil2,['miss'],,,1.554,no_beat,,,,56:60,2,testWhatL3Uns//time_viol.r2.s1.0.wav,4.0,what,unsyncopated,b,s1,no_rule,time,L3,m,0.368,1.0,1.0,0.2,6 ,4 ,Catalán,0.0,Español,0.0,Inglés,5.0,Francés,14.0,Alemán,18.0,Italiano,21.0,5.0,5.0,yes,no,no,Canto,6,,,Me gustó pero me pareció muy larga y iba perdiendo la concentración a medida que avanzaba la tarea ,55.0,yes
96,2024-02-10_15h45.25.365,Unsyncopated_study2,s97,22.0,feminino,left,"España
","Catalán y español
",Master degree,no,no,B,1,conjunction_syn,L1,syncopated,s1,r1,96,Online_conjL1_syn//a.pu.ki27.0.666.wav,pu,ze,lu,ki,sil,cho,fa,fo,sil1,ni,sil2,['miss'],,,0.0,beat,,,,24:28,1,,,,,,,,,,,,,,,6 ,4 ,Catalán,0.0,Español,0.0,Inglés,5.0,Francés,14.0,Alemán,18.0,Italiano,21.0,5.0,5.0,yes,no,no,Canto,6,,,Me gustó pero me pareció muy larga y iba perdiendo la concentración a medida que avanzaba la tarea ,55.0,yes
97,2024-02-10_15h45.25.365,Unsyncopated_study2,s97,22.0,feminino,left,"España
","Catalán y español
",Master degree,no,no,B,1,conjunction_syn,L1,syncopated,s1,r2,97,Online_conjL1_syn//a.pu.ki26.none.none.wav,ta,zu,lu,be,sil,ro,la,ri,sil1,fa,sil2,['-'],,,none,none,,,,24:28,1,,,,,,,,,,,,,,,6 ,4 ,Catalán,0.0,Español,0.0,Inglés,5.0,Francés,14.0,Alemán,18.0,Italiano,21.0,5.0,5.0,yes,no,no,Canto,6,,,Me gustó pero me pareció muy larga y iba perdiendo la concentración a medida que avanzaba la tarea ,55.0,yes
98,2024-02-10_15h45.25.365,Unsyncopated_study2,s97,22.0,feminino,left,"España
","Catalán y español
",Master degree,no,no,B,1,conjunction_syn,L1,syncopated,s1,r2,98,Online_conjL1_syn//a.pu.ki24.none.none.wav,ta,ne,la,be,sil,ri,fa,ze,sil1,zu,sil2,['-'],,,none,none,,,,24:28,1,,,,,,,,,,,,,,,6 ,4 ,Catalán,0.0,Español,0.0,Inglés,5.0,Francés,14.0,Alemán,18.0,Italiano,21.0,5.0,5.0,yes,no,no,Canto,6,,,Me gustó pero me pareció muy larga y iba perdiendo la concentración a medida que avanzaba la tarea ,55.0,yes
99,2024-02-10_15h45.25.365,Unsyncopated_study2,s97,22.0,feminino,left,"España
","Catalán y español
",Master degree,no,no,B,1,conjunction_syn,L1,syncopated,s2,r1,99,Online_conjL1_syn//a.pu.ki25.666.1554.wav,cho,la,ro,pu,sil,ze,ne,ki,sil1,ri,sil2,['miss'],,,0.666,no_beat,,,,24:28,1,,,,,,,,,,,,,,,6 ,4 ,Catalán,0.0,Español,0.0,Inglés,5.0,Francés,14.0,Alemán,18.0,Italiano,21.0,5.0,5.0,yes,no,no,Canto,6,,,Me gustó pero me pareció muy larga y iba perdiendo la concentración a medida que avanzaba la tarea ,55.0,yes
100,2024-02-10_15h45.25.365,Unsyncopated_study2,s97,22.0,feminino,left,"España
","Catalán y español
",Master degree,no,no,B,1,conjunction_syn,L1,syncopated,s2,r1,100,Online_conjL1_syn//c.ro.fo11.none.none.wav,ze,zu,ni,pu,sil,la,cho,ki,sil1,ne,sil2,['-'],,,none,none,,,,72:76,3,,,,,,,,,,,,,,,6 ,4 ,Catalán,0.0,Español,0.0,Inglés,5.0,Francés,14.0,Alemán,18.0,Italiano,21.0,5.0,5.0,yes,no,no,Canto,6,,,Me gustó pero me pareció muy larga y iba perdiendo la concentración a medida que avanzaba la tarea ,55.0,yes
101,2024-02-10_15h45.25.365,Unsyncopated_study2,s97,22.0,feminino,left,"España
","Catalán y español
",Master degree,no,no,B,1,conjunction_syn,L1,syncopated,s2,r2,101,Online_conjL1_syn//c.ro.fo10.222.444.wav,zu,ro,fo,ta,sil,ni,cho,be,sil1,ze,sil2,['miss'],,,0.444,no_beat,,,,72:76,3,,,,,,,,,,,,,,,6 ,4 ,Catalán,0.0,Español,0.0,Inglés,5.0,Francés,14.0,Alemán,18.0,Italiano,21.0,5.0,5.0,yes,no,no,Canto,6,,,Me gustó pero me pareció muy larga y iba perdiendo la concentración a medida que avanzaba la tarea ,55.0,yes
102,2024-02-10_15h45.25.365,Unsyncopated_study2,s97,22.0,feminino,left,"España
","Catalán y español
",Master degree,no,no,B,1,conjunction_syn,L1,syncopated,s1,r2,102,Online_conjL1_syn//c.ro.fo8.444.1332.wav,ta,lu,ro,be,sil,ni,fo,zu,sil1,fa,sil2,['miss'],,,1.332,no_beat,,,,72:76,3,,,,,,,,,,,,,,,6 ,4 ,Catalán,0.0,Español,0.0,Inglés,5.0,Francés,14.0,Alemán,18.0,Italiano,21.0,5.0,5.0,yes,no,no,Canto,6,,,Me gustó pero me pareció muy larga y iba perdiendo la concentración a medida que avanzaba la tarea ,55.0,yes
103,2024-02-10_15h45.25.365,Unsyncopated_study2,s97,22.0,feminino,left,"España
","Catalán y español
",Master degree,no,no,B,1,conjunction_syn,L1,syncopated,s1,r1,103,Online_conjL1_syn//c.ro.fo9.1554.1110.wav,pu,ni,lu,ki,sil,fo,fa,ro,sil1,ne,sil2,['miss'],,,1.11,no_beat,,,,72:76,3,,,,,,,,,,,,,,,6 ,4 ,Catalán,0.0,Español,0.0,Inglés,5.0,Francés,14.0,Alemán,18.0,Italiano,21.0,5.0,5.0,yes,no,no,Canto,6,,,Me gustó pero me pareció muy larga y iba perdiendo la concentración a medida que avanzaba la tarea ,55.0,yes
104,2024-02-10_15h45.25.365,Unsyncopated_study2,s97,22.0,feminino,left,"España
","Catalán y español
",Master degree,no,no,B,1,conjunction_syn,L1,syncopated,s2,r1,104,Online_conjL1_syn//b.ta.be21.none.none.wav,ri,ro,fa,pu,sil,ni,cho,ki,sil1,ze,sil2,['-'],,,none,none,,,,52:56,2,,,,,,,,,,,,,,,6 ,4 ,Catalán,0.0,Español,0.0,Inglés,5.0,Francés,14.0,Alemán,18.0,Italiano,21.0,5.0,5.0,yes,no,no,Canto,6,,,Me gustó pero me pareció muy larga y iba perdiendo la concentración a medida que avanzaba la tarea ,55.0,yes
105,2024-02-10_15h45.25.365,Unsyncopated_study2,s97,22.0,feminino,left,"España
","Catalán y español
",Master degree,no,no,B,1,conjunction_syn,L1,syncopated,s1,r1,105,Online_conjL1_syn//b.ta.be23.none.none.wav,pu,cho,ze,ki,sil,ne,la,ri,sil1,fa,sil2,['-'],,,none,none,,,,52:56,2,,,,,,,,,,,,,,,6 ,4 ,Catalán,0.0,Español,0.0,Inglés,5.0,Francés,14.0,Alemán,18.0,Italiano,21.0,5.0,5.0,yes,no,no,Canto,6,,,Me gustó pero me pareció muy larga y iba perdiendo la concentración a medida que avanzaba la tarea ,55.0,yes
106,2024-02-10_15h45.25.365,Unsyncopated_study2,s97,22.0,feminino,left,"España
","Catalán y español
",Master degree,no,no,B,1,conjunction_syn,L1,syncopated,s2,r1,106,Online_conjL1_syn//b.ta.be22.none.none.wav,zu,la,cho,pu,sil,ne,ri,ki,sil1,fa,sil2,['-'],,,none,none,,,,52:56,2,,,,,,,,,,,,,,,6 ,4 ,Catalán,0.0,Español,0.0,Inglés,5.0,Francés,14.0,Alemán,18.0,Italiano,21.0,5.0,5.0,yes,no,no,Canto,6,,,Me gustó pero me pareció muy larga y iba perdiendo la concentración a medida que avanzaba la tarea ,55.0,yes
107,2024-02-10_15h45.25.365,Unsyncopated_study2,s97,22.0,feminino,left,"España
","Catalán y español
",Master degree,no,no,B,1,conjunction_syn,L1,syncopated,s1,r1,107,Online_conjL1_syn//b.ta.be20.none.none.wav,pu,lu,ze,ki,sil,ro,la,zu,sil1,fo,sil2,['-'],,,none,none,,,,52:56,2,,,,,,,,,,,,,,,6 ,4 ,Catalán,0.0,Español,0.0,Inglés,5.0,Francés,14.0,Alemán,18.0,Italiano,21.0,5.0,5.0,yes,no,no,Canto,6,,,Me gustó pero me pareció muy larga y iba perdiendo la concentración a medida que avanzaba la tarea ,55.0,yes
108,2024-02-10_15h45.25.365,Unsyncopated_study2,s97,22.0,feminino,left,"España
","Catalán y español
",Master degree,no,no,B,1,conjunction_syn,L1,syncopated,s1,r1,108,Online_conjL1_syn//c.ro.fo24.1332.222.wav,pu,fo,ni,ki,sil,la,ro,ze,sil1,zu,sil2,['miss'],,,0.222,no_beat,,,,88:92,3,,,,,,,,,,,,,,,6 ,4 ,Catalán,0.0,Español,0.0,Inglés,5.0,Francés,14.0,Alemán,18.0,Italiano,21.0,5.0,5.0,yes,no,no,Canto,6,,,Me gustó pero me pareció muy larga y iba perdiendo la concentración a medida que avanzaba la tarea ,55.0,yes
109,2024-02-10_15h45.25.365,Unsyncopated_study2,s97,22.0,feminino,left,"España
","Catalán y español
",Master degree,no,no,B,1,conjunction_syn,L1,syncopated,s2,r2,109,Online_conjL1_syn//c.ro.fo27.444.1110.wav,la,fa,ro,ta,sil,fo,lu,be,sil1,ze,sil2,['miss'],,,1.11,no_beat,,,,88:92,3,,,,,,,,,,,,,,,6 ,4 ,Catalán,0.0,Español,0.0,Inglés,5.0,Francés,14.0,Alemán,18.0,Italiano,21.0,5.0,5.0,yes,no,no,Canto,6,,,Me gustó pero me pareció muy larga y iba perdiendo la concentración a medida que avanzaba la tarea ,55.0,yes
110,2024-02-10_15h45.25.365,Unsyncopated_study2,s97,22.0,feminino,left,"España
","Catalán y español
",Master degree,no,no,B,1,conjunction_syn,L1,syncopated,s2,r1,110,Online_conjL1_syn//c.ro.fo26.444.0.wav,fo,ne,ro,pu,sil,ze,ni,ki,sil1,fa,sil2,['miss'],,,0.0,beat,,,,88:92,3,,,,,,,,,,,,,,,6 ,4 ,Catalán,0.0,Español,0.0,Inglés,5.0,Francés,14.0,Alemán,18.0,Italiano,21.0,5.0,5.0,yes,no,no,Canto,6,,,Me gustó pero me pareció muy larga y iba perdiendo la concentración a medida que avanzaba la tarea ,55.0,yes
111,2024-02-10_15h45.25.365,Unsyncopated_study2,s97,22.0,feminino,left,"España
","Catalán y español
",Master degree,no,no,B,1,conjunction_syn,L1,syncopated,s2,r2,111,Online_conjL1_syn//c.ro.fo25.none.none.wav,lu,ri,fa,ta,sil,zu,cho,be,sil1,ze,sil2,['-'],,,none,none,,,,88:92,3,,,,,,,,,,,,,,,6 ,4 ,Catalán,0.0,Español,0.0,Inglés,5.0,Francés,14.0,Alemán,18.0,Italiano,21.0,5.0,5.0,yes,no,no,Canto,6,,,Me gustó pero me pareció muy larga y iba perdiendo la concentración a medida que avanzaba la tarea ,55.0,yes
112,2024-02-10_15h45.25.365,Unsyncopated_study2,s97,22.0,feminino,left,"España
","Catalán y español
",Master degree,no,no,B,1,conjunction_syn,L1,syncopated,s1,r1,112,Online_conjL1_syn//c.ro.fo7.none.none.wav,pu,zu,la,ki,sil,ze,ne,lu,sil1,ri,sil2,['-'],,,none,none,,,,68:72,3,,,,,,,,,,,,,,,6 ,4 ,Catalán,0.0,Español,0.0,Inglés,5.0,Francés,14.0,Alemán,18.0,Italiano,21.0,5.0,5.0,yes,no,no,Canto,6,,,Me gustó pero me pareció muy larga y iba perdiendo la concentración a medida que avanzaba la tarea ,55.0,yes
113,2024-02-10_15h45.25.365,Unsyncopated_study2,s97,22.0,feminino,left,"España
","Catalán y español
",Master degree,no,no,B,1,conjunction_syn,L1,syncopated,s1,r2,113,Online_conjL1_syn//c.ro.fo4.444.1110.wav,ta,ze,ro,be,sil,fo,ni,cho,sil1,zu,sil2,['miss'],,,1.11,no_beat,,,,68:72,3,,,,,,,,,,,,,,,6 ,4 ,Catalán,0.0,Español,0.0,Inglés,5.0,Francés,14.0,Alemán,18.0,Italiano,21.0,5.0,5.0,yes,no,no,Canto,6,,,Me gustó pero me pareció muy larga y iba perdiendo la concentración a medida que avanzaba la tarea ,55.0,yes
114,2024-02-10_15h45.25.365,Unsyncopated_study2,s97,22.0,feminino,left,"España
","Catalán y español
",Master degree,no,no,B,1,conjunction_syn,L1,syncopated,s2,r1,114,Online_conjL1_syn//c.ro.fo5.1332.0.wav,fo,zu,cho,pu,sil,ni,ro,ki,sil1,fa,sil2,['miss'],,,0.0,beat,,,,68:72,3,,,,,,,,,,,,,,,6 ,4 ,Catalán,0.0,Español,0.0,Inglés,5.0,Francés,14.0,Alemán,18.0,Italiano,21.0,5.0,5.0,yes,no,no,Canto,6,,,Me gustó pero me pareció muy larga y iba perdiendo la concentración a medida que avanzaba la tarea ,55.0,yes
115,2024-02-10_15h45.25.365,Unsyncopated_study2,s97,22.0,feminino,left,"España
","Catalán y español
",Master degree,no,no,B,1,conjunction_syn,L1,syncopated,s1,r2,115,Online_conjL1_syn//c.ro.fo6.none.none.wav,ta,fa,ni,be,sil,la,ne,cho,sil1,ze,sil2,['-'],,,none,none,,,,68:72,3,,,,,,,,,,,,,,,6 ,4 ,Catalán,0.0,Español,0.0,Inglés,5.0,Francés,14.0,Alemán,18.0,Italiano,21.0,5.0,5.0,yes,no,no,Canto,6,,,Me gustó pero me pareció muy larga y iba perdiendo la concentración a medida que avanzaba la tarea ,55.0,yes
116,2024-02-10_15h45.25.365,Unsyncopated_study2,s97,22.0,feminino,left,"España
","Catalán y español
",Master degree,no,no,B,1,conjunction_syn,L1,syncopated,s1,r1,116,Online_conjL1_syn//b.ta.be18.none.none.wav,pu,ni,zu,ki,sil,ne,la,ze,sil1,cho,sil2,['-'],,,none,none,,,,48:52,2,,,,,,,,,,,,,,,6 ,4 ,Catalán,0.0,Español,0.0,Inglés,5.0,Francés,14.0,Alemán,18.0,Italiano,21.0,5.0,5.0,yes,no,no,Canto,6,,,Me gustó pero me pareció muy larga y iba perdiendo la concentración a medida que avanzaba la tarea ,55.0,yes
117,2024-02-10_15h45.25.365,Unsyncopated_study2,s97,22.0,feminino,left,"España
","Catalán y español
",Master degree,no,no,B,1,conjunction_syn,L1,syncopated,s2,r2,117,Online_conjL1_syn//b.ta.be16.666.1554.wav,ro,ne,lu,ta,sil,la,ri,be,sil1,fo,sil2,['miss'],,,1.554,no_beat,,,,48:52,2,,,,,,,,,,,,,,,6 ,4 ,Catalán,0.0,Español,0.0,Inglés,5.0,Francés,14.0,Alemán,18.0,Italiano,21.0,5.0,5.0,yes,no,no,Canto,6,,,Me gustó pero me pareció muy larga y iba perdiendo la concentración a medida que avanzaba la tarea ,55.0,yes
118,2024-02-10_15h45.25.365,Unsyncopated_study2,s97,22.0,feminino,left,"España
","Catalán y español
",Master degree,no,no,B,1,conjunction_syn,L1,syncopated,s2,r2,118,Online_conjL1_syn//b.ta.be19.666.1554.wav,fa,la,ni,ta,sil,cho,ne,be,sil1,ri,sil2,['miss'],,,1.554,no_beat,,,,48:52,2,,,,,,,,,,,,,,,6 ,4 ,Catalán,0.0,Español,0.0,Inglés,5.0,Francés,14.0,Alemán,18.0,Italiano,21.0,5.0,5.0,yes,no,no,Canto,6,,,Me gustó pero me pareció muy larga y iba perdiendo la concentración a medida que avanzaba la tarea ,55.0,yes
119,2024-02-10_15h45.25.365,Unsyncopated_study2,s97,22.0,feminino,left,"España
","Catalán y español
",Master degree,no,no,B,1,conjunction_syn,L1,syncopated,s2,r1,119,Online_conjL1_syn//b.ta.be17.none.none.wav,zu,lu,ze,pu,sil,la,cho,ki,sil1,fa,sil2,['-'],,,none,none,,,,48:52,2,,,,,,,,,,,,,,,6 ,4 ,Catalán,0.0,Español,0.0,Inglés,5.0,Francés,14.0,Alemán,18.0,Italiano,21.0,5.0,5.0,yes,no,no,Canto,6,,,Me gustó pero me pareció muy larga y iba perdiendo la concentración a medida que avanzaba la tarea ,55.0,yes
120,2024-02-10_15h45.25.365,Unsyncopated_study2,s97,22.0,feminino,left,"España
","Catalán y español
",Master degree,no,no,B,1,conjunction_syn,L1,syncopated,s2,r1,120,Online_conjL1_syn//b.ta.be15.none.none.wav,la,ni,lu,pu,sil,ri,cho,ki,sil1,fa,sil2,['-'],,,none,none,,,,44:48,2,,,,,,,,,,,,,,,6 ,4 ,Catalán,0.0,Español,0.0,Inglés,5.0,Francés,14.0,Alemán,18.0,Italiano,21.0,5.0,5.0,yes,no,no,Canto,6,,,Me gustó pero me pareció muy larga y iba perdiendo la concentración a medida que avanzaba la tarea ,55.0,yes
121,2024-02-10_15h45.25.365,Unsyncopated_study2,s97,22.0,feminino,left,"España
","Catalán y español
",Master degree,no,no,B,1,conjunction_syn,L1,syncopated,s1,r2,121,Online_conjL1_syn//b.ta.be13.0.666.wav,ta,ni,fo,be,sil,ze,ne,fa,sil1,ri,sil2,['miss'],,,0.666,no_beat,,,,44:48,2,,,,,,,,,,,,,,,6 ,4 ,Catalán,0.0,Español,0.0,Inglés,5.0,Francés,14.0,Alemán,18.0,Italiano,21.0,5.0,5.0,yes,no,no,Canto,6,,,Me gustó pero me pareció muy larga y iba perdiendo la concentración a medida que avanzaba la tarea ,55.0,yes
122,2024-02-10_15h45.25.365,Unsyncopated_study2,s97,22.0,feminino,left,"España
","Catalán y español
",Master degree,no,no,B,1,conjunction_syn,L1,syncopated,s1,r1,122,Online_conjL1_syn//b.ta.be12.none.none.wav,pu,ro,lu,ki,sil,ri,fa,ni,sil1,cho,sil2,['-'],,,none,none,,,,44:48,2,,,,,,,,,,,,,,,6 ,4 ,Catalán,0.0,Español,0.0,Inglés,5.0,Francés,14.0,Alemán,18.0,Italiano,21.0,5.0,5.0,yes,no,no,Canto,6,,,Me gustó pero me pareció muy larga y iba perdiendo la concentración a medida que avanzaba la tarea ,55.0,yes
123,2024-02-10_15h45.25.365,Unsyncopated_study2,s97,22.0,feminino,left,"España
","Catalán y español
",Master degree,no,no,B,1,conjunction_syn,L1,syncopated,s1,r2,123,Online_conjL1_syn//b.ta.be14.0.666.wav,ta,la,fa,be,sil,ni,fo,ro,sil1,lu,sil2,['miss'],,,0.666,no_beat,,,,44:48,2,,,,,,,,,,,,,,,6 ,4 ,Catalán,0.0,Español,0.0,Inglés,5.0,Francés,14.0,Alemán,18.0,Italiano,21.0,5.0,5.0,yes,no,no,Canto,6,,,Me gustó pero me pareció muy larga y iba perdiendo la concentración a medida que avanzaba la tarea ,55.0,yes
124,2024-02-10_15h45.25.365,Unsyncopated_study2,s97,22.0,feminino,left,"España
","Catalán y español
",Master degree,no,no,B,1,conjunction_syn,L1,syncopated,s1,r2,124,Online_conjL1_syn//d.ne.ni10.none.none.wav,ta,ze,fo,be,sil,ro,zu,ri,sil1,lu,sil2,['-'],,,none,none,,,,104:108,4,,,,,,,,,,,,,,,6 ,4 ,Catalán,0.0,Español,0.0,Inglés,5.0,Francés,14.0,Alemán,18.0,Italiano,21.0,5.0,5.0,yes,no,no,Canto,6,,,Me gustó pero me pareció muy larga y iba perdiendo la concentración a medida que avanzaba la tarea ,55.0,yes
125,2024-02-10_15h45.25.365,Unsyncopated_study2,s97,22.0,feminino,left,"España
","Catalán y español
",Master degree,no,no,B,1,conjunction_syn,L1,syncopated,s1,r1,125,Online_conjL1_syn//d.ne.ni11.222.1332.wav,pu,ne,ri,ki,sil,la,ni,cho,sil1,ro,sil2,['miss'],,,1.332,no_beat,,,,104:108,4,,,,,,,,,,,,,,,6 ,4 ,Catalán,0.0,Español,0.0,Inglés,5.0,Francés,14.0,Alemán,18.0,Italiano,21.0,5.0,5.0,yes,no,no,Canto,6,,,Me gustó pero me pareció muy larga y iba perdiendo la concentración a medida que avanzaba la tarea ,55.0,yes
126,2024-02-10_15h45.25.365,Unsyncopated_study2,s97,22.0,feminino,left,"España
","Catalán y español
",Master degree,no,no,B,1,conjunction_syn,L1,syncopated,s2,r1,126,Online_conjL1_syn//d.ne.ni8.222.444.wav,fo,ne,ni,pu,sil,ri,ze,ki,sil1,ro,sil2,['miss'],,,0.444,no_beat,,,,104:108,4,,,,,,,,,,,,,,,6 ,4 ,Catalán,0.0,Español,0.0,Inglés,5.0,Francés,14.0,Alemán,18.0,Italiano,21.0,5.0,5.0,yes,no,no,Canto,6,,,Me gustó pero me pareció muy larga y iba perdiendo la concentración a medida que avanzaba la tarea ,55.0,yes
127,2024-02-10_15h45.25.365,Unsyncopated_study2,s97,22.0,feminino,left,"España
","Catalán y español
",Master degree,no,no,B,1,conjunction_syn,L1,syncopated,s2,r2,127,Online_conjL1_syn//d.ne.ni9.0.444.wav,ne,fo,ni,ta,sil,lu,ri,be,sil1,cho,sil2,['miss'],,,0.444,no_beat,,,,104:108,4,,,,,,,,,,,,,,,6 ,4 ,Catalán,0.0,Español,0.0,Inglés,5.0,Francés,14.0,Alemán,18.0,Italiano,21.0,5.0,5.0,yes,no,no,Canto,6,,,Me gustó pero me pareció muy larga y iba perdiendo la concentración a medida que avanzaba la tarea ,55.0,yes
128,2024-02-10_15h45.25.365,Unsyncopated_study2,s97,22.0,feminino,left,"España
","Catalán y español
",Master degree,no,no,B,2,when,L4,unsyncopated,when,when,0,Online_whenL4//b.ja21.none.wav,bu,da,ci,sil,ru,nu,zi,sil1,de,po,sil2,['-'],,,none,none,,,,56:60,2,,,,,,,,,,,,,,,6 ,4 ,Catalán,0.0,Español,0.0,Inglés,5.0,Francés,14.0,Alemán,18.0,Italiano,21.0,5.0,5.0,yes,no,no,Canto,6,,,Me gustó pero me pareció muy larga y iba perdiendo la concentración a medida que avanzaba la tarea ,55.0,yes
129,2024-02-10_15h45.25.365,Unsyncopated_study2,s97,22.0,feminino,left,"España
","Catalán y español
",Master degree,no,no,B,2,when,L4,unsyncopated,when,when,1,Online_whenL4//b.ja23.444.wav,bu,da,ja,sil,ña,de,nu,sil1,ñi,po,sil2,['catch'],[0.7419999999999618],[0.7419999999999618],0.444,no_beat,0.2979999999999618,0.2979999999999618,"[""space""]",56:60,2,,,,,,,,,,,,,,,6 ,4 ,Catalán,0.0,Español,0.0,Inglés,5.0,Francés,14.0,Alemán,18.0,Italiano,21.0,5.0,5.0,yes,no,no,Canto,6,,,Me gustó pero me pareció muy larga y iba perdiendo la concentración a medida que avanzaba la tarea ,55.0,yes
130,2024-02-10_15h45.25.365,Unsyncopated_study2,s97,22.0,feminino,left,"España
","Catalán y español
",Master degree,no,no,B,2,when,L4,unsyncopated,when,when,2,Online_whenL4//b.ja20.0.wav,ja,bu,ñi,sil,bo,de,lo,sil1,ru,da,sil2,['catch'],[0.6630000000000109],[0.6630000000000109],0.0,beat,0.6630000000000109,0.6630000000000109,"[""space""]",56:60,2,,,,,,,,,,,,,,,6 ,4 ,Catalán,0.0,Español,0.0,Inglés,5.0,Francés,14.0,Alemán,18.0,Italiano,21.0,5.0,5.0,yes,no,no,Canto,6,,,Me gustó pero me pareció muy larga y iba perdiendo la concentración a medida que avanzaba la tarea ,55.0,yes
131,2024-02-10_15h45.25.365,Unsyncopated_study2,s97,22.0,feminino,left,"España
","Catalán y español
",Master degree,no,no,B,2,when,L4,unsyncopated,when,when,3,Online_whenL4//b.ja22.1776.wav,da,ci,zi,sil,ña,ru,bo,sil1,ja,bu,sil2,['catch'],[2.188000000000102],[2.188000000000102],1.776,beat,0.4120000000001018,0.4120000000001018,"[""space""]",56:60,2,,,,,,,,,,,,,,,6 ,4 ,Catalán,0.0,Español,0.0,Inglés,5.0,Francés,14.0,Alemán,18.0,Italiano,21.0,5.0,5.0,yes,no,no,Canto,6,,,Me gustó pero me pareció muy larga y iba perdiendo la concentración a medida que avanzaba la tarea ,55.0,yes
132,2024-02-10_15h45.25.365,Unsyncopated_study2,s97,22.0,feminino,left,"España
","Catalán y español
",Master degree,no,no,B,2,when,L4,unsyncopated,when,when,4,Online_whenL4//d.pe28.none.wav,bo,nu,lo,sil,ru,re,bu,sil1,po,da,sil2,['-'],,,none,none,,,,132:136,4,,,,,,,,,,,,,,,6 ,4 ,Catalán,0.0,Español,0.0,Inglés,5.0,Francés,14.0,Alemán,18.0,Italiano,21.0,5.0,5.0,yes,no,no,Canto,6,,,Me gustó pero me pareció muy larga y iba perdiendo la concentración a medida que avanzaba la tarea ,55.0,yes
133,2024-02-10_15h45.25.365,Unsyncopated_study2,s97,22.0,feminino,left,"España
","Catalán y español
",Master degree,no,no,B,2,when,L4,unsyncopated,when,when,5,Online_whenL4//d.pe29.none.wav,da,po,ja,sil,bu,bo,lo,sil1,ña,de,sil2,['false alarm'],[1.0209999999999582],[1.0209999999999582],none,none,,,"[""space""]",132:136,4,,,,,,,,,,,,,,,6 ,4 ,Catalán,0.0,Español,0.0,Inglés,5.0,Francés,14.0,Alemán,18.0,Italiano,21.0,5.0,5.0,yes,no,no,Canto,6,,,Me gustó pero me pareció muy larga y iba perdiendo la concentración a medida que avanzaba la tarea ,55.0,yes
134,2024-02-10_15h45.25.365,Unsyncopated_study2,s97,22.0,feminino,left,"España
","Catalán y español
",Master degree,no,no,B,2,when,L4,unsyncopated,when,when,6,Online_whenL4//d.pe31.1332.wav,bu,re,ru,sil,ja,de,pe,sil1,ci,zi,sil2,['catch'],[1.9200000000000728],[1.9200000000000728],1.332,no_beat,0.5880000000000727,0.5880000000000727,"[""space""]",132:136,4,,,,,,,,,,,,,,,6 ,4 ,Catalán,0.0,Español,0.0,Inglés,5.0,Francés,14.0,Alemán,18.0,Italiano,21.0,5.0,5.0,yes,no,no,Canto,6,,,Me gustó pero me pareció muy larga y iba perdiendo la concentración a medida que avanzaba la tarea ,55.0,yes
135,2024-02-10_15h45.25.365,Unsyncopated_study2,s97,22.0,feminino,left,"España
","Catalán y español
",Master degree,no,no,B,2,when,L4,unsyncopated,when,when,7,Online_whenL4//d.pe30.none.wav,ru,lo,po,sil,nu,de,da,sil1,ña,ñi,sil2,['-'],,,none,none,,,,132:136,4,,,,,,,,,,,,,,,6 ,4 ,Catalán,0.0,Español,0.0,Inglés,5.0,Francés,14.0,Alemán,18.0,Italiano,21.0,5.0,5.0,yes,no,no,Canto,6,,,Me gustó pero me pareció muy larga y iba perdiendo la concentración a medida que avanzaba la tarea ,55.0,yes
136,2024-02-10_15h45.25.365,Unsyncopated_study2,s97,22.0,feminino,left,"España
","Catalán y español
",Master degree,no,no,B,2,when,L4,unsyncopated,when,when,8,Online_whenL4//b.ja12.444.wav,nu,ñi,ja,sil,pe,da,ña,sil1,re,ru,sil2,['miss'],,,0.444,no_beat,,,,48:52,2,,,,,,,,,,,,,,,6 ,4 ,Catalán,0.0,Español,0.0,Inglés,5.0,Francés,14.0,Alemán,18.0,Italiano,21.0,5.0,5.0,yes,no,no,Canto,6,,,Me gustó pero me pareció muy larga y iba perdiendo la concentración a medida que avanzaba la tarea ,55.0,yes
137,2024-02-10_15h45.25.365,Unsyncopated_study2,s97,22.0,feminino,left,"España
","Catalán y español
",Master degree,no,no,B,2,when,L4,unsyncopated,when,when,9,Online_whenL4//b.ja15.444.wav,da,ci,ja,sil,bo,ru,pe,sil1,zi,bu,sil2,['catch'],[1.1360000000001946],[1.1360000000001946],0.444,no_beat,0.6920000000001947,0.6920000000001947,"[""space""]",48:52,2,,,,,,,,,,,,,,,6 ,4 ,Catalán,0.0,Español,0.0,Inglés,5.0,Francés,14.0,Alemán,18.0,Italiano,21.0,5.0,5.0,yes,no,no,Canto,6,,,Me gustó pero me pareció muy larga y iba perdiendo la concentración a medida que avanzaba la tarea ,55.0,yes
138,2024-02-10_15h45.25.365,Unsyncopated_study2,s97,22.0,feminino,left,"España
","Catalán y español
",Master degree,no,no,B,2,when,L4,unsyncopated,when,when,10,Online_whenL4//b.ja14.888.wav,zi,ña,po,sil,ja,bu,de,sil1,bo,ru,sil2,['false alarm'],[0.8379999999999654],[0.8379999999999654],0.888,beat,,,"[""space""]",48:52,2,,,,,,,,,,,,,,,6 ,4 ,Catalán,0.0,Español,0.0,Inglés,5.0,Francés,14.0,Alemán,18.0,Italiano,21.0,5.0,5.0,yes,no,no,Canto,6,,,Me gustó pero me pareció muy larga y iba perdiendo la concentración a medida que avanzaba la tarea ,55.0,yes
139,2024-02-10_15h45.25.365,Unsyncopated_study2,s97,22.0,feminino,left,"España
","Catalán y español
",Master degree,no,no,B,2,when,L4,unsyncopated,when,when,11,Online_whenL4//b.ja13.none.wav,bo,de,ña,sil,re,bu,lo,sil1,pe,zi,sil2,['false alarm'],[1.0979999999999563],[1.0979999999999563],none,none,,,"[""space""]",48:52,2,,,,,,,,,,,,,,,6 ,4 ,Catalán,0.0,Español,0.0,Inglés,5.0,Francés,14.0,Alemán,18.0,Italiano,21.0,5.0,5.0,yes,no,no,Canto,6,,,Me gustó pero me pareció muy larga y iba perdiendo la concentración a medida que avanzaba la tarea ,55.0,yes
140,2024-02-10_15h45.25.365,Unsyncopated_study2,s97,22.0,feminino,left,"España
","Catalán y español
",Master degree,no,no,B,2,when,L4,unsyncopated,when,when,12,Online_whenL4//a.lo29.none.wav,pe,ña,ru,sil,de,zi,ñi,sil1,nu,re,sil2,['-'],,,none,none,,,,28:32,1,,,,,,,,,,,,,,,6 ,4 ,Catalán,0.0,Español,0.0,Inglés,5.0,Francés,14.0,Alemán,18.0,Italiano,21.0,5.0,5.0,yes,no,no,Canto,6,,,Me gustó pero me pareció muy larga y iba perdiendo la concentración a medida que avanzaba la tarea ,55.0,yes
141,2024-02-10_15h45.25.365,Unsyncopated_study2,s97,22.0,feminino,left,"España
","Catalán y español
",Master degree,no,no,B,2,when,L4,unsyncopated,when,when,13,Online_whenL4//a.lo30.none.wav,de,re,ru,sil,pe,ñi,zi,sil1,bo,nu,sil2,['-'],,,none,none,,,,28:32,1,,,,,,,,,,,,,,,6 ,4 ,Catalán,0.0,Español,0.0,Inglés,5.0,Francés,14.0,Alemán,18.0,Italiano,21.0,5.0,5.0,yes,no,no,Canto,6,,,Me gustó pero me pareció muy larga y iba perdiendo la concentración a medida que avanzaba la tarea ,55.0,yes
142,2024-02-10_15h45.25.365,Unsyncopated_study2,s97,22.0,feminino,left,"España
","Catalán y español
",Master degree,no,no,B,2,when,L4,unsyncopated,when,when,14,Online_whenL4//a.lo31.none.wav,re,de,zi,sil,ru,pe,da,sil1,ci,nu,sil2,['-'],,,none,none,,,,28:32,1,,,,,,,,,,,,,,,6 ,4 ,Catalán,0.0,Español,0.0,Inglés,5.0,Francés,14.0,Alemán,18.0,Italiano,21.0,5.0,5.0,yes,no,no,Canto,6,,,Me gustó pero me pareció muy larga y iba perdiendo la concentración a medida que avanzaba la tarea ,55.0,yes
143,2024-02-10_15h45.25.365,Unsyncopated_study2,s97,22.0,feminino,left,"España
","Catalán y español
",Master degree,no,no,B,2,when,L4,unsyncopated,when,when,15,Online_whenL4//a.lo28.1110.wav,ña,nu,da,sil,ci,lo,po,sil1,re,pe,sil2,['catch'],[1.816000000000031],[1.816000000000031],1.11,no_beat,0.7060000000000308,0.7060000000000308,"[""space""]",28:32,1,,,,,,,,,,,,,,,6 ,4 ,Catalán,0.0,Español,0.0,Inglés,5.0,Francés,14.0,Alemán,18.0,Italiano,21.0,5.0,5.0,yes,no,no,Canto,6,,,Me gustó pero me pareció muy larga y iba perdiendo la concentración a medida que avanzaba la tarea ,55.0,yes
144,2024-02-10_15h45.25.365,Unsyncopated_study2,s97,22.0,feminino,left,"España
","Catalán y español
",Master degree,no,no,B,2,when,L4,unsyncopated,when,when,16,Online_whenL4//d.pe15.888.wav,po,lo,de,sil,pe,ja,bo,sil1,ña,bu,sil2,['false alarm'],[0.4329999999999927],[0.4329999999999927],0.888,beat,,,"[""space""]",116:120,4,,,,,,,,,,,,,,,6 ,4 ,Catalán,0.0,Español,0.0,Inglés,5.0,Francés,14.0,Alemán,18.0,Italiano,21.0,5.0,5.0,yes,no,no,Canto,6,,,Me gustó pero me pareció muy larga y iba perdiendo la concentración a medida que avanzaba la tarea ,55.0,yes
145,2024-02-10_15h45.25.365,Unsyncopated_study2,s97,22.0,feminino,left,"España
","Catalán y español
",Master degree,no,no,B,2,when,L4,unsyncopated,when,when,17,Online_whenL4//d.pe14.none.wav,po,ña,bu,sil,de,ru,nu,sil1,ci,zi,sil2,['-'],,,none,none,,,,116:120,4,,,,,,,,,,,,,,,6 ,4 ,Catalán,0.0,Español,0.0,Inglés,5.0,Francés,14.0,Alemán,18.0,Italiano,21.0,5.0,5.0,yes,no,no,Canto,6,,,Me gustó pero me pareció muy larga y iba perdiendo la concentración a medida que avanzaba la tarea ,55.0,yes
146,2024-02-10_15h45.25.365,Unsyncopated_study2,s97,22.0,feminino,left,"España
","Catalán y español
",Master degree,no,no,B,2,when,L4,unsyncopated,when,when,18,Online_whenL4//d.pe13.none.wav,da,ja,nu,sil,ru,ci,ñi,sil1,bu,po,sil2,['-'],,,none,none,,,,116:120,4,,,,,,,,,,,,,,,6 ,4 ,Catalán,0.0,Español,0.0,Inglés,5.0,Francés,14.0,Alemán,18.0,Italiano,21.0,5.0,5.0,yes,no,no,Canto,6,,,Me gustó pero me pareció muy larga y iba perdiendo la concentración a medida que avanzaba la tarea ,55.0,yes
147,2024-02-10_15h45.25.365,Unsyncopated_study2,s97,22.0,feminino,left,"España
","Catalán y español
",Master degree,no,no,B,2,when,L4,unsyncopated,when,when,19,Online_whenL4//d.pe12.none.wav,ru,zi,ñi,sil,bu,de,ña,sil1,lo,re,sil2,['-'],,,none,none,,,,116:120,4,,,,,,,,,,,,,,,6 ,4 ,Catalán,0.0,Español,0.0,Inglés,5.0,Francés,14.0,Alemán,18.0,Italiano,21.0,5.0,5.0,yes,no,no,Canto,6,,,Me gustó pero me pareció muy larga y iba perdiendo la concentración a medida que avanzaba la tarea ,55.0,yes
148,2024-02-10_15h45.25.365,Unsyncopated_study2,s97,22.0,feminino,left,"España
","Catalán y español
",Master degree,no,no,B,2,when,L4,unsyncopated,when,when,20,Online_whenL4//a.lo4.none.wav,bo,ñi,pe,sil,ja,re,ru,sil1,nu,da,sil2,['-'],,,none,none,,,,4:8,1,,,,,,,,,,,,,,,6 ,4 ,Catalán,0.0,Español,0.0,Inglés,5.0,Francés,14.0,Alemán,18.0,Italiano,21.0,5.0,5.0,yes,no,no,Canto,6,,,Me gustó pero me pareció muy larga y iba perdiendo la concentración a medida que avanzaba la tarea ,55.0,yes
149,2024-02-10_15h45.25.365,Unsyncopated_study2,s97,22.0,feminino,left,"España
","Catalán y español
",Master degree,no,no,B,2,when,L4,unsyncopated,when,when,21,Online_whenL4//a.lo6.none.wav,ñi,ja,ña,sil,de,re,po,sil1,nu,bo,sil2,['false alarm'],[1.8949999999999818],[1.8949999999999818],none,none,,,"[""space""]",4:8,1,,,,,,,,,,,,,,,6 ,4 ,Catalán,0.0,Español,0.0,Inglés,5.0,Francés,14.0,Alemán,18.0,Italiano,21.0,5.0,5.0,yes,no,no,Canto,6,,,Me gustó pero me pareció muy larga y iba perdiendo la concentración a medida que avanzaba la tarea ,55.0,yes
150,2024-02-10_15h45.25.365,Unsyncopated_study2,s97,22.0,feminino,left,"España
","Catalán y español
",Master degree,no,no,B,2,when,L4,unsyncopated,when,when,22,Online_whenL4//a.lo5.1998.wav,ci,bu,zi,sil,ru,bo,pe,sil1,de,lo,sil2,['catch'],[2.492999999999938],[2.492999999999938],1.998,no_beat,0.4949999999999381,0.4949999999999381,"[""space""]",4:8,1,,,,,,,,,,,,,,,6 ,4 ,Catalán,0.0,Español,0.0,Inglés,5.0,Francés,14.0,Alemán,18.0,Italiano,21.0,5.0,5.0,yes,no,no,Canto,6,,,Me gustó pero me pareció muy larga y iba perdiendo la concentración a medida que avanzaba la tarea ,55.0,yes
151,2024-02-10_15h45.25.365,Unsyncopated_study2,s97,22.0,feminino,left,"España
","Catalán y español
",Master degree,no,no,B,2,when,L4,unsyncopated,when,when,23,Online_whenL4//a.lo7.1776.wav,de,po,da,sil,ru,zi,ñi,sil1,lo,pe,sil2,['catch'],[2.5629999999998745],[2.5629999999998745],1.776,beat,0.7869999999998745,0.7869999999998745,"[""space""]",4:8,1,,,,,,,,,,,,,,,6 ,4 ,Catalán,0.0,Español,0.0,Inglés,5.0,Francés,14.0,Alemán,18.0,Italiano,21.0,5.0,5.0,yes,no,no,Canto,6,,,Me gustó pero me pareció muy larga y iba perdiendo la concentración a medida que avanzaba la tarea ,55.0,yes
152,2024-02-10_15h45.25.365,Unsyncopated_study2,s97,22.0,feminino,left,"España
","Catalán y español
",Master degree,no,no,B,2,when,L4,unsyncopated,when,when,24,Online_whenL4//c.bu7.none.wav,lo,ci,ja,sil,pe,ñi,da,sil1,re,ru,sil2,['-'],,,none,none,,,,76:80,3,,,,,,,,,,,,,,,6 ,4 ,Catalán,0.0,Español,0.0,Inglés,5.0,Francés,14.0,Alemán,18.0,Italiano,21.0,5.0,5.0,yes,no,no,Canto,6,,,Me gustó pero me pareció muy larga y iba perdiendo la concentración a medida que avanzaba la tarea ,55.0,yes
153,2024-02-10_15h45.25.365,Unsyncopated_study2,s97,22.0,feminino,left,"España
","Catalán y español
",Master degree,no,no,B,2,when,L4,unsyncopated,when,when,25,Online_whenL4//c.bu5.444.wav,ci,ñi,bu,sil,po,nu,ña,sil1,pe,zi,sil2,['catch'],[1.1549999999999727],[1.1549999999999727],0.444,no_beat,0.7109999999999728,0.7109999999999728,"[""space""]",76:80,3,,,,,,,,,,,,,,,6 ,4 ,Catalán,0.0,Español,0.0,Inglés,5.0,Francés,14.0,Alemán,18.0,Italiano,21.0,5.0,5.0,yes,no,no,Canto,6,,,Me gustó pero me pareció muy larga y iba perdiendo la concentración a medida que avanzaba la tarea ,55.0,yes
154,2024-02-10_15h45.25.365,Unsyncopated_study2,s97,22.0,feminino,left,"España
","Catalán y español
",Master degree,no,no,B,2,when,L4,unsyncopated,when,when,26,Online_whenL4//c.bu4.none.wav,ru,ña,ja,sil,ñi,de,ci,sil1,po,zi,sil2,['-'],,,none,none,,,,76:80,3,,,,,,,,,,,,,,,6 ,4 ,Catalán,0.0,Español,0.0,Inglés,5.0,Francés,14.0,Alemán,18.0,Italiano,21.0,5.0,5.0,yes,no,no,Canto,6,,,Me gustó pero me pareció muy larga y iba perdiendo la concentración a medida que avanzaba la tarea ,55.0,yes
155,2024-02-10_15h45.25.365,Unsyncopated_study2,s97,22.0,feminino,left,"España
","Catalán y español
",Master degree,no,no,B,2,when,L4,unsyncopated,when,when,27,Online_whenL4//c.bu6.none.wav,nu,de,ci,sil,ru,zi,ña,sil1,po,ñi,sil2,['-'],,,none,none,,,,76:80,3,,,,,,,,,,,,,,,6 ,4 ,Catalán,0.0,Español,0.0,Inglés,5.0,Francés,14.0,Alemán,18.0,Italiano,21.0,5.0,5.0,yes,no,no,Canto,6,,,Me gustó pero me pareció muy larga y iba perdiendo la concentración a medida que avanzaba la tarea ,55.0,yes
156,2024-02-10_15h45.25.365,Unsyncopated_study2,s97,22.0,feminino,left,"España
","Catalán y español
",Master degree,no,no,B,2,when,L4,unsyncopated,when,when,28,Online_whenL4//c.bu20.1332.wav,lo,re,ru,sil,ña,de,bu,sil1,zi,ci,sil2,['catch'],[1.8780000000001564],[1.8780000000001564],1.332,no_beat,0.5460000000001564,0.5460000000001564,"[""space""]",92:96,3,,,,,,,,,,,,,,,6 ,4 ,Catalán,0.0,Español,0.0,Inglés,5.0,Francés,14.0,Alemán,18.0,Italiano,21.0,5.0,5.0,yes,no,no,Canto,6,,,Me gustó pero me pareció muy larga y iba perdiendo la concentración a medida que avanzaba la tarea ,55.0,yes
157,2024-02-10_15h45.25.365,Unsyncopated_study2,s97,22.0,feminino,left,"España
","Catalán y español
",Master degree,no,no,B,2,when,L4,unsyncopated,when,when,29,Online_whenL4//c.bu23.none.wav,ña,nu,pe,sil,ru,ja,bo,sil1,re,ñi,sil2,['-'],,,none,none,,,,92:96,3,,,,,,,,,,,,,,,6 ,4 ,Catalán,0.0,Español,0.0,Inglés,5.0,Francés,14.0,Alemán,18.0,Italiano,21.0,5.0,5.0,yes,no,no,Canto,6,,,Me gustó pero me pareció muy larga y iba perdiendo la concentración a medida que avanzaba la tarea ,55.0,yes
158,2024-02-10_15h45.25.365,Unsyncopated_study2,s97,22.0,feminino,left,"España
","Catalán y español
",Master degree,no,no,B,2,when,L4,unsyncopated,when,when,30,Online_whenL4//c.bu22.none.wav,nu,ci,ña,sil,re,ñi,ru,sil1,zi,pe,sil2,['-'],,,none,none,,,,92:96,3,,,,,,,,,,,,,,,6 ,4 ,Catalán,0.0,Español,0.0,Inglés,5.0,Francés,14.0,Alemán,18.0,Italiano,21.0,5.0,5.0,yes,no,no,Canto,6,,,Me gustó pero me pareció muy larga y iba perdiendo la concentración a medida que avanzaba la tarea ,55.0,yes
159,2024-02-10_15h45.25.365,Unsyncopated_study2,s97,22.0,feminino,left,"España
","Catalán y español
",Master degree,no,no,B,2,when,L4,unsyncopated,when,when,31,Online_whenL4//c.bu21.1332.wav,zi,pe,ci,sil,ña,nu,bu,sil1,bo,ru,sil2,['catch'],[1.8179999999999836],[1.8179999999999836],1.332,no_beat,0.4859999999999835,0.4859999999999835,"[""space""]",92:96,3,,,,,,,,,,,,,,,6 ,4 ,Catalán,0.0,Español,0.0,Inglés,5.0,Francés,14.0,Alemán,18.0,Italiano,21.0,5.0,5.0,yes,no,no,Canto,6,,,Me gustó pero me pareció muy larga y iba perdiendo la concentración a medida que avanzaba la tarea ,55.0,yes
160,2024-02-10_15h45.25.365,Unsyncopated_study2,s97,22.0,feminino,left,"España
","Catalán y español
",Master degree,no,no,B,2,when,L4,unsyncopated,when,when,32,Online_whenL4//b.ja1.none.wav,lo,re,po,sil,bu,de,ña,sil1,da,nu,sil2,['false alarm'],[1.8419999999998709],[1.8419999999998709],none,none,,,"[""space""]",36:40,2,,,,,,,,,,,,,,,6 ,4 ,Catalán,0.0,Español,0.0,Inglés,5.0,Francés,14.0,Alemán,18.0,Italiano,21.0,5.0,5.0,yes,no,no,Canto,6,,,Me gustó pero me pareció muy larga y iba perdiendo la concentración a medida que avanzaba la tarea ,55.0,yes
161,2024-02-10_15h45.25.365,Unsyncopated_study2,s97,22.0,feminino,left,"España
","Catalán y español
",Master degree,no,no,B,2,when,L4,unsyncopated,when,when,33,Online_whenL4//b.ja0.222.wav,re,ja,da,sil,ci,ru,bo,sil1,bu,lo,sil2,['miss'],,,0.222,no_beat,,,,36:40,2,,,,,,,,,,,,,,,6 ,4 ,Catalán,0.0,Español,0.0,Inglés,5.0,Francés,14.0,Alemán,18.0,Italiano,21.0,5.0,5.0,yes,no,no,Canto,6,,,Me gustó pero me pareció muy larga y iba perdiendo la concentración a medida que avanzaba la tarea ,55.0,yes
162,2024-02-10_15h45.25.365,Unsyncopated_study2,s97,22.0,feminino,left,"España
","Catalán y español
",Master degree,no,no,B,2,when,L4,unsyncopated,when,when,34,Online_whenL4//b.ja3.none.wav,nu,da,po,sil,ru,zi,bu,sil1,re,ña,sil2,['-'],,,none,none,,,,36:40,2,,,,,,,,,,,,,,,6 ,4 ,Catalán,0.0,Español,0.0,Inglés,5.0,Francés,14.0,Alemán,18.0,Italiano,21.0,5.0,5.0,yes,no,no,Canto,6,,,Me gustó pero me pareció muy larga y iba perdiendo la concentración a medida que avanzaba la tarea ,55.0,yes
163,2024-02-10_15h45.25.365,Unsyncopated_study2,s97,22.0,feminino,left,"España
","Catalán y español
",Master degree,no,no,B,2,when,L4,unsyncopated,when,when,35,Online_whenL4//b.ja2.none.wav,ci,ru,zi,sil,da,de,pe,sil1,re,lo,sil2,['-'],,,none,none,,,,36:40,2,,,,,,,,,,,,,,,6 ,4 ,Catalán,0.0,Español,0.0,Inglés,5.0,Francés,14.0,Alemán,18.0,Italiano,21.0,5.0,5.0,yes,no,no,Canto,6,,,Me gustó pero me pareció muy larga y iba perdiendo la concentración a medida que avanzaba la tarea ,55.0,yes
164,2024-02-10_15h45.25.365,Unsyncopated_study2,s97,22.0,feminino,left,"España
","Catalán y español
",Master degree,no,no,B,2,when,L4,unsyncopated,when,when,36,Online_whenL4//a.lo1.none.wav,nu,ja,ci,sil,bo,ña,de,sil1,po,re,sil2,['-'],,,none,none,,,,0:4,1,,,,,,,,,,,,,,,6 ,4 ,Catalán,0.0,Español,0.0,Inglés,5.0,Francés,14.0,Alemán,18.0,Italiano,21.0,5.0,5.0,yes,no,no,Canto,6,,,Me gustó pero me pareció muy larga y iba perdiendo la concentración a medida que avanzaba la tarea ,55.0,yes
165,2024-02-10_15h45.25.365,Unsyncopated_study2,s97,22.0,feminino,left,"España
","Catalán y español
",Master degree,no,no,B,2,when,L4,unsyncopated,when,when,37,Online_whenL4//a.lo3.none.wav,ci,nu,ja,sil,re,ña,ru,sil1,po,bo,sil2,['false alarm'],[2.6140000000000327],[2.6140000000000327],none,none,,,"[""space""]",0:4,1,,,,,,,,,,,,,,,6 ,4 ,Catalán,0.0,Español,0.0,Inglés,5.0,Francés,14.0,Alemán,18.0,Italiano,21.0,5.0,5.0,yes,no,no,Canto,6,,,Me gustó pero me pareció muy larga y iba perdiendo la concentración a medida que avanzaba la tarea ,55.0,yes
166,2024-02-10_15h45.25.365,Unsyncopated_study2,s97,22.0,feminino,left,"España
","Catalán y español
",Master degree,no,no,B,2,when,L4,unsyncopated,when,when,38,Online_whenL4//a.lo2.444.wav,ñi,bu,lo,sil,da,pe,ña,sil1,zi,bo,sil2,['catch'],[1.1539999999999964],[1.1539999999999964],0.444,no_beat,0.7099999999999964,0.7099999999999964,"[""space""]",0:4,1,,,,,,,,,,,,,,,6 ,4 ,Catalán,0.0,Español,0.0,Inglés,5.0,Francés,14.0,Alemán,18.0,Italiano,21.0,5.0,5.0,yes,no,no,Canto,6,,,Me gustó pero me pareció muy larga y iba perdiendo la concentración a medida que avanzaba la tarea ,55.0,yes
167,2024-02-10_15h45.25.365,Unsyncopated_study2,s97,22.0,feminino,left,"España
","Catalán y español
",Master degree,no,no,B,2,when,L4,unsyncopated,when,when,39,Online_whenL4//a.lo0.none.wav,ru,pe,ci,sil,zi,ja,da,sil1,ñi,ña,sil2,['-'],,,none,none,,,,0:4,1,,,,,,,,,,,,,,,6 ,4 ,Catalán,0.0,Español,0.0,Inglés,5.0,Francés,14.0,Alemán,18.0,Italiano,21.0,5.0,5.0,yes,no,no,Canto,6,,,Me gustó pero me pareció muy larga y iba perdiendo la concentración a medida que avanzaba la tarea ,55.0,yes
168,2024-02-10_15h45.25.365,Unsyncopated_study2,s97,22.0,feminino,left,"España
","Catalán y español
",Master degree,no,no,B,2,when,L4,unsyncopated,when,when,40,Online_whenL4//a.lo14.none.wav,bu,ru,nu,sil,zi,bo,pe,sil1,da,ñi,sil2,['-'],,,none,none,,,,12:16,1,,,,,,,,,,,,,,,6 ,4 ,Catalán,0.0,Español,0.0,Inglés,5.0,Francés,14.0,Alemán,18.0,Italiano,21.0,5.0,5.0,yes,no,no,Canto,6,,,Me gustó pero me pareció muy larga y iba perdiendo la concentración a medida que avanzaba la tarea ,55.0,yes
169,2024-02-10_15h45.25.365,Unsyncopated_study2,s97,22.0,feminino,left,"España
","Catalán y español
",Master degree,no,no,B,2,when,L4,unsyncopated,when,when,41,Online_whenL4//a.lo13.1776.wav,re,ña,ru,sil,ci,ja,ñi,sil1,lo,pe,sil2,['miss'],,,1.776,beat,,,,12:16,1,,,,,,,,,,,,,,,6 ,4 ,Catalán,0.0,Español,0.0,Inglés,5.0,Francés,14.0,Alemán,18.0,Italiano,21.0,5.0,5.0,yes,no,no,Canto,6,,,Me gustó pero me pareció muy larga y iba perdiendo la concentración a medida que avanzaba la tarea ,55.0,yes
170,2024-02-10_15h45.25.365,Unsyncopated_study2,s97,22.0,feminino,left,"España
","Catalán y español
",Master degree,no,no,B,2,when,L4,unsyncopated,when,when,42,Online_whenL4//a.lo15.1776.wav,de,pe,da,sil,ñi,po,re,sil1,lo,ja,sil2,['miss'],,,1.776,beat,,,,12:16,1,,,,,,,,,,,,,,,6 ,4 ,Catalán,0.0,Español,0.0,Inglés,5.0,Francés,14.0,Alemán,18.0,Italiano,21.0,5.0,5.0,yes,no,no,Canto,6,,,Me gustó pero me pareció muy larga y iba perdiendo la concentración a medida que avanzaba la tarea ,55.0,yes
171,2024-02-10_15h45.25.365,Unsyncopated_study2,s97,22.0,feminino,left,"España
","Catalán y español
",Master degree,no,no,B,2,when,L4,unsyncopated,when,when,43,Online_whenL4//a.lo12.none.wav,nu,bu,zi,sil,ñi,bo,ci,sil1,ru,ña,sil2,['-'],,,none,none,,,,12:16,1,,,,,,,,,,,,,,,6 ,4 ,Catalán,0.0,Español,0.0,Inglés,5.0,Francés,14.0,Alemán,18.0,Italiano,21.0,5.0,5.0,yes,no,no,Canto,6,,,Me gustó pero me pareció muy larga y iba perdiendo la concentración a medida que avanzaba la tarea ,55.0,yes
172,2024-02-10_15h45.25.365,Unsyncopated_study2,s97,22.0,feminino,left,"España
","Catalán y español
",Master degree,no,no,B,2,when,L4,unsyncopated,when,when,44,Online_whenL4//d.pe5.444.wav,bu,nu,pe,sil,ci,da,re,sil1,de,lo,sil2,['catch'],[2.0139999999998963],[2.0139999999998963],0.444,no_beat,,1.5699999999998964,"[""space""]",108:112,4,,,,,,,,,,,,,,,6 ,4 ,Catalán,0.0,Español,0.0,Inglés,5.0,Francés,14.0,Alemán,18.0,Italiano,21.0,5.0,5.0,yes,no,no,Canto,6,,,Me gustó pero me pareció muy larga y iba perdiendo la concentración a medida que avanzaba la tarea ,55.0,yes
173,2024-02-10_15h45.25.365,Unsyncopated_study2,s97,22.0,feminino,left,"España
","Catalán y español
",Master degree,no,no,B,2,when,L4,unsyncopated,when,when,45,Online_whenL4//d.pe7.1998.wav,da,lo,ña,sil,bu,ñi,ru,sil1,ja,pe,sil2,['catch'],[2.5670000000000073],[2.5670000000000073],1.998,no_beat,0.5690000000000073,0.5690000000000073,"[""space""]",108:112,4,,,,,,,,,,,,,,,6 ,4 ,Catalán,0.0,Español,0.0,Inglés,5.0,Francés,14.0,Alemán,18.0,Italiano,21.0,5.0,5.0,yes,no,no,Canto,6,,,Me gustó pero me pareció muy larga y iba perdiendo la concentración a medida que avanzaba la tarea ,55.0,yes
174,2024-02-10_15h45.25.365,Unsyncopated_study2,s97,22.0,feminino,left,"España
","Catalán y español
",Master degree,no,no,B,2,when,L4,unsyncopated,when,when,46,Online_whenL4//d.pe6.1110.wav,da,lo,nu,sil,po,pe,ci,sil1,bo,ña,sil2,['miss'],,,1.11,no_beat,,,,108:112,4,,,,,,,,,,,,,,,6 ,4 ,Catalán,0.0,Español,0.0,Inglés,5.0,Francés,14.0,Alemán,18.0,Italiano,21.0,5.0,5.0,yes,no,no,Canto,6,,,Me gustó pero me pareció muy larga y iba perdiendo la concentración a medida que avanzaba la tarea ,55.0,yes
175,2024-02-10_15h45.25.365,Unsyncopated_study2,s97,22.0,feminino,left,"España
","Catalán y español
