Unnamed: 0,date,expName,participant,age,sex,hand,residence,native_lang,education_level,lang_deficit,aud_deficit,group,block,condition,language,rhythm,rule structure online,rule type online,order_trial_on,trial_online,s1,s2,s3,s4,s5,s6,s7,s8,s9,s10,s11,catch_syll_resp,rts_syll_catch,clean_rts,time_syll,beat_no_beat,catch_rtsTR,catch_rts,syllable_catch.keys,cond_syll,syll_to_catch,test_offline,block_off,condition_off,rhythm_off,rule,rule_str_off,rule_norule,conds_offline,language_off,Partz_no_partm.keys,Partz_no_partm.rt,security_1_7.keys,accuracy,security_1_7.rt,n_lang,n_lang_used,lang_1,age_l1,lang_2,age_l2,lang_3,age_l3,ability_learn_l2,tendence_mix_lan,music_experience,muisc_use,partiture,instr_1,age_M1,preguntas_musica1,BMRQ_answer.response,final comment,BMRQ_Score,bilingual
0,2024-04-09_21h39.58.249,Experiment4_uns,s160,23.0,feminino,right,España,CastelloCatalán,Upper secondary,no,no,A,1,what,L1,unsyncopated,s1,r2,0,Online_whatL1//d.ne.ni17.222.1332.wav,ta,ne,fo,sil,be,ri,ni,sil2,lu,fa,sil1,['miss'],,,0.222,no_beat,,,,ne,4,testWhatL1Uns//r2.s1.0.wav,1.0,what,unsyncopated,b,s1,rule,rule,L1,z,0.737,7.0,1.0,1.6223,3.0,2.0,Castellano,0.0,Catalán,0.0,Inglés,3.0,4.0,5.0,yes,yes,yes,Saxofón,8,1. Cuando comparto música con alguien siento una complicidad especial con aquella persona.,4.0,Nada,73.0,yes
1,2024-04-09_21h39.58.249,Experiment4_uns,s160,23.0,feminino,right,España,CastelloCatalán,Upper secondary,no,no,A,1,what,L1,unsyncopated,s2,r2,1,Online_whatL1//d.ne.ni19.1554.444.wav,la,fa,ni,sil2,ta,cho,ne,sil,be,ri,sil1,['catch'],[1.9057000000029802],[1.9057000000029802],1.554,no_beat,0.3517000000029802,0.3517000000029802,"[""space""]",ne,4,testWhatL1Uns//cat_viol.r1.s2.0.wav,1.0,what,unsyncopated,a,s2,no_rule,cat,L1,z,1.9216,7.0,0.0,1.307,3.0,2.0,Castellano,0.0,Catalán,0.0,Inglés,3.0,4.0,5.0,yes,yes,yes,Saxofón,8,2. En mi tiempo libre apenas escucho música.,4.0,Nada,73.0,yes
2,2024-04-09_21h39.58.249,Experiment4_uns,s160,23.0,feminino,right,España,CastelloCatalán,Upper secondary,no,no,A,1,what,L1,unsyncopated,s1,r1,2,Online_whatL1//d.ne.ni18.none.none.wav,pu,ro,fo,sil,ki,ze,zu,sil2,cho,fa,sil1,['-'],,,none,none,,,,ne,4,testWhatL1Uns//r1.s2.2.wav,1.0,what,unsyncopated,a,s2,rule,rule,L1,z,0.654,5.0,1.0,1.4204,3.0,2.0,Castellano,0.0,Catalán,0.0,Inglés,3.0,4.0,5.0,yes,yes,yes,Saxofón,8,3. Algunas canciones me ponen los pelos de punta,3.0,Nada,73.0,yes
3,2024-04-09_21h39.58.249,Experiment4_uns,s160,23.0,feminino,right,España,CastelloCatalán,Upper secondary,no,no,A,1,what,L1,unsyncopated,s2,r1,3,Online_whatL1//d.ne.ni16.0.444.wav,ne,la,ni,sil,pu,ri,zu,sil1,ki,fa,sil2,['catch'],[0.410900000005995],[0.410900000005995],0.0,beat,0.410900000005995,0.410900000005995,"[""space""]",ne,4,testWhatL1Uns//dep_viol.r1.s1.0.wav,1.0,what,unsyncopated,a,s1,no_rule,dep,L1,m,1.7548,3.0,1.0,2.8871,3.0,2.0,Castellano,0.0,Catalán,0.0,Inglés,3.0,4.0,5.0,yes,yes,yes,Saxofón,8,4. La música me hace compañía cuando estoy solo,3.0,Nada,73.0,yes
4,2024-04-09_21h39.58.249,Experiment4_uns,s160,23.0,feminino,right,España,CastelloCatalán,Upper secondary,no,no,A,1,what,L1,unsyncopated,s2,r1,4,Online_whatL1//c.ro.fo16.222.444.wav,zu,ro,fo,sil,pu,lu,fa,sil2,ki,la,sil1,['catch'],[0.7000000000000455],[0.7000000000000455],0.222,no_beat,0.4780000000000455,0.4780000000000455,"[""space""]",ro,3,testWhatL1Uns//time_viol.r2.s2.0.wav,1.0,what,unsyncopated,b,s2,no_rule,time,L1,z,0.6214,5.0,0.0,1.306,3.0,2.0,Castellano,0.0,Catalán,0.0,Inglés,3.0,4.0,5.0,yes,yes,yes,Saxofón,8,5. No me apetece bailar ni con la música que más me gusta,5.0,Nada,73.0,yes
5,2024-04-09_21h39.58.249,Experiment4_uns,s160,23.0,feminino,right,España,CastelloCatalán,Upper secondary,no,no,A,1,what,L1,unsyncopated,s2,r1,5,Online_whatL1//c.ro.fo19.none.none.wav,fa,ri,zu,sil,pu,ze,cho,sil2,ki,ni,sil1,['-'],,,none,none,,,,ro,3,testWhatL1Uns//time_viol.r2.s1.0.wav,1.0,what,unsyncopated,b,s1,no_rule,time,L1,z,0.507,6.0,0.0,1.8341,3.0,2.0,Castellano,0.0,Catalán,0.0,Inglés,3.0,4.0,5.0,yes,yes,yes,Saxofón,8,6. La música me hace conectar con la gente,4.0,Nada,73.0,yes
6,2024-04-09_21h39.58.249,Experiment4_uns,s160,23.0,feminino,right,España,CastelloCatalán,Upper secondary,no,no,A,1,what,L1,unsyncopated,s2,r1,6,Online_whatL1//c.ro.fo18.none.none.wav,ne,zu,la,sil2,pu,fa,ni,sil,ki,lu,sil1,['-'],,,none,none,,,,ro,3,testWhatL1Uns//dep_viol.r2.s1.0.wav,1.0,what,unsyncopated,b,s1,no_rule,dep,L1,m,0.8838,2.0,1.0,1.3853,3.0,2.0,Castellano,0.0,Catalán,0.0,Inglés,3.0,4.0,5.0,yes,yes,yes,Saxofón,8,7. Me informo sobre la música que me gusta.,4.0,Nada,73.0,yes
7,2024-04-09_21h39.58.249,Experiment4_uns,s160,23.0,feminino,right,España,CastelloCatalán,Upper secondary,no,no,A,1,what,L1,unsyncopated,s2,r1,7,Online_whatL1//c.ro.fo17.444.0.wav,fo,lu,ro,sil,pu,zu,ne,sil1,ki,fa,sil2,['catch'],[0.909900000005905],[0.909900000005905],0.444,no_beat,0.465900000005905,0.465900000005905,"[""space""]",ro,3,testWhatL1Uns//cat_viol.r1.s1.0.wav,1.0,what,unsyncopated,a,s1,no_rule,cat,L1,m,1.1723,2.0,1.0,1.2861,3.0,2.0,Castellano,0.0,Catalán,0.0,Inglés,3.0,4.0,5.0,yes,yes,yes,Saxofón,8,8.Me emociono escuchando ciertas canciones.,4.0,Nada,73.0,yes
8,2024-04-09_21h39.58.249,Experiment4_uns,s160,23.0,feminino,right,España,CastelloCatalán,Upper secondary,no,no,A,1,what,L1,unsyncopated,s2,r2,8,Online_whatL1//b.ta.be16.1110.1998.wav,zu,fa,cho,sil2,ta,ri,ro,sil,be,ze,sil1,['catch'],[1.533700000003023],[1.533700000003023],1.11,no_beat,0.4237000000030229,0.4237000000030229,"[""space""]",ta,1,testWhatL1Uns//r1.s2.0.wav,1.0,what,unsyncopated,a,s2,rule,rule,L1,z,0.4176,7.0,1.0,1.4044,3.0,2.0,Castellano,0.0,Catalán,0.0,Inglés,3.0,4.0,5.0,yes,yes,yes,Saxofón,8,9.La música me tranquiliza y me relaja.,4.0,Nada,73.0,yes
9,2024-04-09_21h39.58.249,Experiment4_uns,s160,23.0,feminino,right,España,CastelloCatalán,Upper secondary,no,no,A,1,what,L1,unsyncopated,s1,r2,9,Online_whatL1//b.ta.be17.0.888.wav,ta,fa,zu,sil,be,ze,la,sil1,ni,ro,sil2,"['catch', 'false alarm']","[0.47579999999697975, 1.4593999999984817]",[0.47579999999697975],0.0,beat,0.4757999999969797,0.4757999999969797,"[""space"",""space""]",ta,1,testWhatL1Uns//r2.s2.2.wav,1.0,what,unsyncopated,b,s2,rule,rule,L1,m,1.2836,2.0,0.0,0.6525,3.0,2.0,Castellano,0.0,Catalán,0.0,Inglés,3.0,4.0,5.0,yes,yes,yes,Saxofón,8,10.La música me hace bailar,4.0,Nada,73.0,yes
10,2024-04-09_21h39.58.249,Experiment4_uns,s160,23.0,feminino,right,España,CastelloCatalán,Upper secondary,no,no,A,1,what,L1,unsyncopated,s1,r2,10,Online_whatL1//b.ta.be18.0.1110.wav,ta,zu,lu,sil2,be,ni,ne,sil,ze,la,sil1,['catch'],[0.3126000000015665],[0.3126000000015665],0.0,beat,0.3126000000015665,0.3126000000015665,"[""space""]",ta,1,testWhatL1Uns//cat_viol.r2.s1.0.wav,1.0,what,unsyncopated,b,s1,no_rule,cat,L1,z,0.7076,5.0,0.0,1.1192,3.0,2.0,Castellano,0.0,Catalán,0.0,Inglés,3.0,4.0,5.0,yes,yes,yes,Saxofón,8,11.Busco novedades musicales continuamente,3.0,Nada,73.0,yes
11,2024-04-09_21h39.58.249,Experiment4_uns,s160,23.0,feminino,right,España,CastelloCatalán,Upper secondary,no,no,A,1,what,L1,unsyncopated,s1,r2,11,Online_whatL1//b.ta.be19.0.888.wav,ta,lu,ze,sil,be,la,ro,sil2,cho,fo,sil1,"['catch', 'false alarm']","[0.4250000000000682, 1.6131000000015092]",[0.4250000000000682],0.0,beat,0.4250000000000682,0.4250000000000682,"[""space"",""space""]",ta,1,testWhatL1Uns//r1.s1.0.wav,1.0,what,unsyncopated,a,s1,rule,rule,L1,m,1.541,6.0,0.0,1.5391,3.0,2.0,Castellano,0.0,Catalán,0.0,Inglés,3.0,4.0,5.0,yes,yes,yes,Saxofón,8,12. Puedo llorar cuando escucho algunas melodías que me gustan mucho.,4.0,Nada,73.0,yes
12,2024-04-09_21h39.58.249,Experiment4_uns,s160,23.0,feminino,right,España,CastelloCatalán,Upper secondary,no,no,A,1,what,L1,unsyncopated,s1,r2,12,Online_whatL1//d.ne.ni25.1332.222.wav,ta,ni,ri,sil2,be,ne,cho,sil,lu,zu,sil1,['catch'],[1.7355000000000018],[1.7355000000000018],1.332,no_beat,0.4035000000000017,0.4035000000000017,"[""space""]",ne,4,testWhatL1Uns//r2.s1.1.wav,1.0,what,unsyncopated,b,s1,rule,rule,L1,m,0.8485,4.0,0.0,0.9883,3.0,2.0,Castellano,0.0,Catalán,0.0,Inglés,3.0,4.0,5.0,yes,yes,yes,Saxofón,8,13. Me gusta cantar o tocar un instrumento con más gente,4.0,Nada,73.0,yes
13,2024-04-09_21h39.58.249,Experiment4_uns,s160,23.0,feminino,right,España,CastelloCatalán,Upper secondary,no,no,A,1,what,L1,unsyncopated,s1,r2,13,Online_whatL1//d.ne.ni27.none.none.wav,ta,ri,fa,sil2,be,cho,ro,sil,lu,la,sil1,['-'],,,none,none,,,,ne,4,testWhatL1Uns//time_viol.r1.s1.0.wav,1.0,what,unsyncopated,a,s1,no_rule,time,L1,z,0.4183,5.0,0.0,1.173,3.0,2.0,Castellano,0.0,Catalán,0.0,Inglés,3.0,4.0,5.0,yes,yes,yes,Saxofón,8,14. La música me ayuda a desconectar.,4.0,Nada,73.0,yes
14,2024-04-09_21h39.58.249,Experiment4_uns,s160,23.0,feminino,right,España,CastelloCatalán,Upper secondary,no,no,A,1,what,L1,unsyncopated,s2,r2,14,Online_whatL1//d.ne.ni24.1332.444.wav,zu,la,ni,sil,ta,ri,ne,sil2,be,fo,sil1,['catch'],[1.378800000004503],[1.378800000004503],1.332,no_beat,0.046800000004503,0.046800000004503,"[""space""]",ne,4,testWhatL1Uns//r2.s1.2.wav,1.0,what,unsyncopated,b,s1,rule,rule,L1,z,0.4895,6.0,1.0,2.0354,3.0,2.0,Castellano,0.0,Catalán,0.0,Inglés,3.0,4.0,5.0,yes,yes,yes,Saxofón,8,15. No puedo evitar tararear las canciones que me gustan cuando las escucho.,4.0,Nada,73.0,yes
15,2024-04-09_21h39.58.249,Experiment4_uns,s160,23.0,feminino,right,España,CastelloCatalán,Upper secondary,no,no,A,1,what,L1,unsyncopated,s2,r1,15,Online_whatL1//d.ne.ni26.0.444.wav,ne,lu,ni,sil,pu,ze,fa,sil1,ki,ro,sil2,['miss'],,,0.0,beat,,,,ne,4,testWhatL1Uns//cat_viol.r2.s2.0.wav,1.0,what,unsyncopated,b,s2,no_rule,cat,L1,m,1.3182,2.0,1.0,1.0514,3.0,2.0,Castellano,0.0,Catalán,0.0,Inglés,3.0,4.0,5.0,yes,yes,yes,Saxofón,8,16. En los conciertos me siento en sintonía con los artistas y el público.,4.0,Nada,73.0,yes
16,2024-04-09_21h39.58.249,Experiment4_uns,s160,23.0,feminino,right,España,CastelloCatalán,Upper secondary,no,no,A,1,what,L1,unsyncopated,s1,r2,16,Online_whatL1//a.pu.ki30.none.none.wav,ta,zu,cho,sil,be,ri,ni,sil2,ne,la,sil1,['false alarm'],[0.8318000000044776],[0.8318000000044776],none,none,,,"[""space""]",ki,2,testWhatL1Uns//time_viol.r1.s2.0.wav,1.0,what,unsyncopated,a,s2,no_rule,time,L1,m,2.7017,2.0,1.0,0.7866,3.0,2.0,Castellano,0.0,Catalán,0.0,Inglés,3.0,4.0,5.0,yes,yes,yes,Saxofón,8,17. Me gasto bastante dinero en música y cosas relacionadas con la música.,3.0,Nada,73.0,yes
17,2024-04-09_21h39.58.249,Experiment4_uns,s160,23.0,feminino,right,España,CastelloCatalán,Upper secondary,no,no,A,1,what,L1,unsyncopated,s2,r1,17,Online_whatL1//a.pu.ki28.888.1776.wav,fo,ro,fa,sil,pu,ze,zu,sil1,ki,ni,sil2,['catch'],[2.091299999996977],[2.091299999996977],1.776,beat,0.315299999996977,0.315299999996977,"[""space""]",ki,2,testWhatL1Uns//r2.s2.1.wav,1.0,what,unsyncopated,b,s2,rule,rule,L1,m,1.2331,2.0,0.0,1.1684,3.0,2.0,Castellano,0.0,Catalán,0.0,Inglés,3.0,4.0,5.0,yes,yes,yes,Saxofón,8,18. Siento escalofríos cuando escucho una melodía que me gusta.,1.0,Nada,73.0,yes
18,2024-04-09_21h39.58.249,Experiment4_uns,s160,23.0,feminino,right,España,CastelloCatalán,Upper secondary,no,no,A,1,what,L1,unsyncopated,s2,r2,18,Online_whatL1//a.pu.ki29.none.none.wav,zu,lu,ne,sil,ta,ze,ni,sil1,be,ro,sil2,['-'],,,none,none,,,,ki,2,testWhatL1Uns//r2.s2.0.wav,1.0,what,unsyncopated,b,s2,rule,rule,L1,m,1.3369,5.0,0.0,0.7029,3.0,2.0,Castellano,0.0,Catalán,0.0,Inglés,3.0,4.0,5.0,yes,yes,yes,Saxofón,8,19. Con la música me puedo desahogar.,3.0,Nada,73.0,yes
19,2024-04-09_21h39.58.249,Experiment4_uns,s160,23.0,feminino,right,España,CastelloCatalán,Upper secondary,no,no,A,1,what,L1,unsyncopated,s1,r1,19,Online_whatL1//a.pu.ki31.0.888.wav,pu,la,lu,sil,ki,ro,zu,sil2,ne,cho,sil1,['catch'],[1.2475000000000591],[1.2475000000000591],0.888,beat,0.3595000000000591,0.3595000000000591,"[""space""]",ki,2,testWhatL1Uns//dep_viol.r1.s2.0.wav,1.0,what,unsyncopated,a,s2,no_rule,dep,L1,z,0.384,5.0,0.0,1.3859,3.0,2.0,Castellano,0.0,Catalán,0.0,Inglés,3.0,4.0,5.0,yes,yes,yes,Saxofón,8,20. Cuando escucho una melodía que me gusta mucho no puedo evitar mover el cuerpo.,4.0,Nada,73.0,yes
20,2024-04-09_21h39.58.249,Experiment4_uns,s160,23.0,feminino,right,España,CastelloCatalán,Upper secondary,no,no,A,1,what,L1,unsyncopated,s1,r1,20,Online_whatL1//a.pu.ki0.0.888.wav,pu,la,ne,sil,ki,lu,fa,sil1,ni,fo,sil2,['catch'],[1.5486000000014428],[1.5486000000014428],0.888,beat,0.6606000000014428,0.6606000000014428,"[""space""]",ki,2,testWhatL1Uns//r1.s2.1.wav,1.0,what,unsyncopated,a,s2,rule,rule,L1,z,0.3513,6.0,1.0,0.8891,3.0,2.0,Castellano,0.0,Catalán,0.0,Inglés,3.0,4.0,5.0,yes,yes,yes,Saxofón,8,,,Nada,73.0,yes
21,2024-04-09_21h39.58.249,Experiment4_uns,s160,23.0,feminino,right,España,CastelloCatalán,Upper secondary,no,no,A,1,what,L1,unsyncopated,s1,r2,21,Online_whatL1//a.pu.ki2.none.none.wav,ta,zu,lu,sil2,be,ni,ze,sil,ne,fa,sil1,['-'],,,none,none,,,,ki,2,testWhatL1Uns//r1.s1.2.wav,1.0,what,unsyncopated,a,s1,rule,rule,L1,z,0.4014,6.0,1.0,1.0533,3.0,2.0,Castellano,0.0,Catalán,0.0,Inglés,3.0,4.0,5.0,yes,yes,yes,Saxofón,8,,,Nada,73.0,yes
22,2024-04-09_21h39.58.249,Experiment4_uns,s160,23.0,feminino,right,España,CastelloCatalán,Upper secondary,no,no,A,1,what,L1,unsyncopated,s1,r1,22,Online_whatL1//a.pu.ki1.0.888.wav,pu,ni,ne,sil,ki,ri,la,sil2,ro,cho,sil1,['catch'],[1.293600000001561],[1.293600000001561],0.888,beat,0.405600000001561,0.405600000001561,"[""space""]",ki,2,testWhatL1Uns//dep_viol.r2.s2.0.wav,1.0,what,unsyncopated,b,s2,no_rule,dep,L1,m,0.4873,6.0,1.0,1.2862,3.0,2.0,Castellano,0.0,Catalán,0.0,Inglés,3.0,4.0,5.0,yes,yes,yes,Saxofón,8,,,Nada,73.0,yes
23,2024-04-09_21h39.58.249,Experiment4_uns,s160,23.0,feminino,right,España,CastelloCatalán,Upper secondary,no,no,A,1,what,L1,unsyncopated,s1,r2,23,Online_whatL1//a.pu.ki3.none.none.wav,ta,la,ne,sil,be,cho,ni,sil2,fo,ri,sil1,['-'],,,none,none,,,,ki,2,testWhatL1Uns//r1.s1.1.wav,1.0,what,unsyncopated,a,s1,rule,rule,L1,m,0.4733,7.0,0.0,2.0037,3.0,2.0,Castellano,0.0,Catalán,0.0,Inglés,3.0,4.0,5.0,yes,yes,yes,Saxofón,8,,,Nada,73.0,yes
24,2024-04-09_21h39.58.249,Experiment4_uns,s160,23.0,feminino,right,España,CastelloCatalán,Upper secondary,no,no,A,1,what,L1,unsyncopated,s2,r2,24,Online_whatL1//c.ro.fo31.none.none.wav,ze,zu,ne,sil,ta,la,ri,sil1,be,cho,sil2,['-'],,,none,none,,,,ro,3,testWhenL2Uns//r1.s2.0.wav,2.0,when,unsyncopated,a,s2,rule,rule,L2,z,1.6048,7.0,1.0,0.8845,3.0,2.0,Castellano,0.0,Catalán,0.0,Inglés,3.0,4.0,5.0,yes,yes,yes,Saxofón,8,,,Nada,73.0,yes
25,2024-04-09_21h39.58.249,Experiment4_uns,s160,23.0,feminino,right,España,CastelloCatalán,Upper secondary,no,no,A,1,what,L1,unsyncopated,s1,r1,25,Online_whatL1//c.ro.fo28.222.1332.wav,pu,ro,ni,sil2,ki,fo,cho,sil,zu,lu,sil1,['catch'],[0.630899999998519],[0.630899999998519],0.222,no_beat,0.408899999998519,0.408899999998519,"[""space""]",ro,3,testWhenL2Uns//dep_viol.r1.s1.0.wav,2.0,when,unsyncopated,a,s1,no_rule,dep,L2,z,2.1356,7.0,1.0,0.257,3.0,2.0,Castellano,0.0,Catalán,0.0,Inglés,3.0,4.0,5.0,yes,yes,yes,Saxofón,8,,,Nada,73.0,yes
26,2024-04-09_21h39.58.249,Experiment4_uns,s160,23.0,feminino,right,España,CastelloCatalán,Upper secondary,no,no,A,1,what,L1,unsyncopated,s2,r1,26,Online_whatL1//c.ro.fo29.1332.222.wav,lu,fo,ni,sil2,pu,ro,la,sil,ki,ze,sil1,['catch'],[1.7097000000030675],[1.7097000000030675],1.332,no_beat,0.3777000000030674,0.3777000000030674,"[""space""]",ro,3,testWhenL2Uns//time_viol.r2.s2.0.wav,2.0,when,unsyncopated,b,s2,no_rule,time,L2,m,1.0405,3.0,0.0,0.6999,3.0,2.0,Castellano,0.0,Catalán,0.0,Inglés,3.0,4.0,5.0,yes,yes,yes,Saxofón,8,,,Nada,73.0,yes
27,2024-04-09_21h39.58.249,Experiment4_uns,s160,23.0,feminino,right,España,CastelloCatalán,Upper secondary,no,no,A,1,what,L1,unsyncopated,s2,r2,27,Online_whatL1//c.ro.fo30.none.none.wav,ri,cho,ze,sil,ta,lu,zu,sil2,be,la,sil1,['-'],,,none,none,,,,ro,3,testWhenL2Uns//time_viol.r1.s2.0.wav,2.0,when,unsyncopated,a,s2,no_rule,time,L2,m,1.1235,7.0,0.0,0.6213,3.0,2.0,Castellano,0.0,Catalán,0.0,Inglés,3.0,4.0,5.0,yes,yes,yes,Saxofón,8,,,Nada,73.0,yes
28,2024-04-09_21h39.58.249,Experiment4_uns,s160,23.0,feminino,right,España,CastelloCatalán,Upper secondary,no,no,A,1,what,L1,unsyncopated,s2,r2,28,Online_whatL1//b.ta.be0.888.1776.wav,ni,lu,ne,sil,ta,ze,zu,sil1,be,la,sil2,['catch'],[1.288700000002791],[1.288700000002791],0.888,beat,0.400700000002791,0.400700000002791,"[""space""]",ta,1,testWhenL2Uns//r2.s1.0.wav,2.0,when,unsyncopated,b,s1,rule,rule,L2,m,0.7535,4.0,0.0,0.8728,3.0,2.0,Castellano,0.0,Catalán,0.0,Inglés,3.0,4.0,5.0,yes,yes,yes,Saxofón,8,,,Nada,73.0,yes
29,2024-04-09_21h39.58.249,Experiment4_uns,s160,23.0,feminino,right,España,CastelloCatalán,Upper secondary,no,no,A,1,what,L1,unsyncopated,s2,r1,29,Online_whatL1//b.ta.be3.none.none.wav,ze,ri,la,sil,pu,ni,fo,sil1,ki,cho,sil2,['-'],,,none,none,,,,ta,1,testWhenL2Uns//r1.s1.1.wav,2.0,when,unsyncopated,a,s1,rule,rule,L2,z,0.3558,6.0,1.0,0.6694,3.0,2.0,Castellano,0.0,Catalán,0.0,Inglés,3.0,4.0,5.0,yes,yes,yes,Saxofón,8,,,Nada,73.0,yes
30,2024-04-09_21h39.58.249,Experiment4_uns,s160,23.0,feminino,right,España,CastelloCatalán,Upper secondary,no,no,A,1,what,L1,unsyncopated,s2,r2,30,Online_whatL1//b.ta.be2.1110.1998.wav,ze,fa,lu,sil2,ta,ne,cho,sil,be,ri,sil1,['catch'],[1.5575000000001182],[1.5575000000001182],1.11,no_beat,0.4475000000001181,0.4475000000001181,"[""space""]",ta,1,testWhenL2Uns//dep_viol.r1.s2.0.wav,2.0,when,unsyncopated,a,s2,no_rule,dep,L2,m,0.502,6.0,0.0,0.5573,3.0,2.0,Castellano,0.0,Catalán,0.0,Inglés,3.0,4.0,5.0,yes,yes,yes,Saxofón,8,,,Nada,73.0,yes
31,2024-04-09_21h39.58.249,Experiment4_uns,s160,23.0,feminino,right,España,CastelloCatalán,Upper secondary,no,no,A,1,what,L1,unsyncopated,s1,r1,31,Online_whatL1//b.ta.be1.none.none.wav,pu,fa,fo,sil2,ki,la,zu,sil,ze,ri,sil1,['-'],,,none,none,,,,ta,1,testWhenL2Uns//r1.s2.2.wav,2.0,when,unsyncopated,a,s2,rule,rule,L2,z,0.3563,7.0,1.0,0.4338,3.0,2.0,Castellano,0.0,Catalán,0.0,Inglés,3.0,4.0,5.0,yes,yes,yes,Saxofón,8,,,Nada,73.0,yes
32,2024-04-09_21h39.58.249,Experiment4_uns,s160,23.0,feminino,right,España,CastelloCatalán,Upper secondary,no,no,A,1,what,L1,unsyncopated,s1,r1,32,Online_whatL1//c.ro.fo11.none.none.wav,pu,la,fa,sil2,ki,ri,zu,sil,ni,ne,sil1,['false alarm'],[0.7024000000060369],[0.7024000000060369],none,none,,,"[""space""]",ro,3,testWhenL2Uns//r2.s2.2.wav,2.0,when,unsyncopated,b,s2,rule,rule,L2,m,0.4059,4.0,0.0,0.69,3.0,2.0,Castellano,0.0,Catalán,0.0,Inglés,3.0,4.0,5.0,yes,yes,yes,Saxofón,8,,,Nada,73.0,yes
33,2024-04-09_21h39.58.249,Experiment4_uns,s160,23.0,feminino,right,España,CastelloCatalán,Upper secondary,no,no,A,1,what,L1,unsyncopated,s1,r1,33,Online_whatL1//c.ro.fo10.1332.444.wav,pu,fa,fo,sil,ki,ne,ro,sil1,ni,cho,sil2,['catch'],[1.681600000001481],[1.681600000001481],1.332,no_beat,0.3496000000014809,0.3496000000014809,"[""space""]",ro,3,testWhenL2Uns//r2.s1.1.wav,2.0,when,unsyncopated,b,s1,rule,rule,L2,z,1.2903,3.0,1.0,0.7841,3.0,2.0,Castellano,0.0,Catalán,0.0,Inglés,3.0,4.0,5.0,yes,yes,yes,Saxofón,8,,,Nada,73.0,yes
34,2024-04-09_21h39.58.249,Experiment4_uns,s160,23.0,feminino,right,España,CastelloCatalán,Upper secondary,no,no,A,1,what,L1,unsyncopated,s2,r2,34,Online_whatL1//c.ro.fo9.0.1110.wav,ro,lu,zu,sil,ta,fo,cho,sil2,be,ze,sil1,['catch'],[0.49169999999548963],[0.49169999999548963],0.0,beat,0.4916999999954896,0.4916999999954896,"[""space""]",ro,3,testWhenL2Uns//r1.s1.2.wav,2.0,when,unsyncopated,a,s1,rule,rule,L2,m,0.8997,2.0,0.0,0.4039,3.0,2.0,Castellano,0.0,Catalán,0.0,Inglés,3.0,4.0,5.0,yes,yes,yes,Saxofón,8,,,Nada,73.0,yes
35,2024-04-09_21h39.58.249,Experiment4_uns,s160,23.0,feminino,right,España,CastelloCatalán,Upper secondary,no,no,A,1,what,L1,unsyncopated,s1,r2,35,Online_whatL1//c.ro.fo8.222.444.wav,ta,ro,fo,sil,be,ri,fa,sil2,cho,lu,sil1,['miss'],,,0.222,no_beat,,,,ro,3,testWhenL2Uns//r2.s2.0.wav,2.0,when,unsyncopated,b,s2,rule,rule,L2,z,0.3205,5.0,1.0,1.3015,3.0,2.0,Castellano,0.0,Catalán,0.0,Inglés,3.0,4.0,5.0,yes,yes,yes,Saxofón,8,,,Nada,73.0,yes
36,2024-04-09_21h39.58.249,Experiment4_uns,s160,23.0,feminino,right,España,CastelloCatalán,Upper secondary,no,no,A,1,what,L1,unsyncopated,s2,r1,36,Online_whatL1//a.pu.ki25.888.1998.wav,la,cho,ne,sil,pu,zu,fa,sil2,ki,lu,sil1,['false alarm'],[1.5858999999984462],[1.5858999999984462],1.998,no_beat,,,"[""space""]",ki,2,testWhenL2Uns//cat_viol.r1.s2.0.wav,2.0,when,unsyncopated,a,s2,no_rule,cat,L2,z,0.8363,5.0,1.0,0.4032,3.0,2.0,Castellano,0.0,Catalán,0.0,Inglés,3.0,4.0,5.0,yes,yes,yes,Saxofón,8,,,Nada,73.0,yes
37,2024-04-09_21h39.58.249,Experiment4_uns,s160,23.0,feminino,right,España,CastelloCatalán,Upper secondary,no,no,A,1,what,L1,unsyncopated,s1,r1,37,Online_whatL1//a.pu.ki24.0.888.wav,pu,fa,cho,sil,ki,zu,ne,sil2,fo,ni,sil1,['catch'],[1.4922999999969306],[1.4922999999969306],0.888,beat,0.6042999999969306,0.6042999999969306,"[""space""]",ki,2,testWhenL2Uns//time_viol.r1.s1.0.wav,2.0,when,unsyncopated,a,s1,no_rule,time,L2,m,0.6061,7.0,0.0,0.3354,3.0,2.0,Castellano,0.0,Catalán,0.0,Inglés,3.0,4.0,5.0,yes,yes,yes,Saxofón,8,,,Nada,73.0,yes
38,2024-04-09_21h39.58.249,Experiment4_uns,s160,23.0,feminino,right,España,CastelloCatalán,Upper secondary,no,no,A,1,what,L1,unsyncopated,s1,r1,38,Online_whatL1//a.pu.ki27.0.888.wav,pu,ri,fa,sil,ki,la,ne,sil2,ze,cho,sil1,['catch'],[1.3145999999940159],[1.3145999999940159],0.888,beat,0.4265999999940159,0.4265999999940159,"[""space""]",ki,2,testWhenL2Uns//r2.s1.2.wav,2.0,when,unsyncopated,b,s1,rule,rule,L2,z,0.5582,5.0,1.0,0.3842,3.0,2.0,Castellano,0.0,Catalán,0.0,Inglés,3.0,4.0,5.0,yes,yes,yes,Saxofón,8,,,Nada,73.0,yes
39,2024-04-09_21h39.58.249,Experiment4_uns,s160,23.0,feminino,right,España,CastelloCatalán,Upper secondary,no,no,A,1,what,L1,unsyncopated,s1,r2,39,Online_whatL1//a.pu.ki26.none.none.wav,ta,zu,lu,sil,be,cho,ri,sil1,la,ze,sil2,['-'],,,none,none,,,,ki,2,testWhenL2Uns//r1.s2.1.wav,2.0,when,unsyncopated,a,s2,rule,rule,L2,z,0.3335,7.0,1.0,0.2008,3.0,2.0,Castellano,0.0,Catalán,0.0,Inglés,3.0,4.0,5.0,yes,yes,yes,Saxofón,8,,,Nada,73.0,yes
40,2024-04-09_21h39.58.249,Experiment4_uns,s160,23.0,feminino,right,España,CastelloCatalán,Upper secondary,no,no,A,1,what,L1,unsyncopated,s2,r1,40,Online_whatL1//b.ta.be9.none.none.wav,ze,zu,ni,sil,pu,fa,ne,sil1,ki,fo,sil2,['-'],,,none,none,,,,ta,1,testWhenL2Uns//dep_viol.r2.s2.0.wav,2.0,when,unsyncopated,b,s2,no_rule,dep,L2,m,0.3574,7.0,0.0,0.338,3.0,2.0,Castellano,0.0,Catalán,0.0,Inglés,3.0,4.0,5.0,yes,yes,yes,Saxofón,8,,,Nada,73.0,yes
41,2024-04-09_21h39.58.249,Experiment4_uns,s160,23.0,feminino,right,España,CastelloCatalán,Upper secondary,no,no,A,1,what,L1,unsyncopated,s1,r2,41,Online_whatL1//b.ta.be8.0.1110.wav,ta,la,zu,sil2,be,fo,ri,sil,ne,ze,sil1,['catch'],[0.4103999999986172],[0.4103999999986172],0.0,beat,0.4103999999986172,0.4103999999986172,"[""space""]",ta,1,testWhenL2Uns//r1.s1.0.wav,2.0,when,unsyncopated,a,s1,rule,rule,L2,z,0.4175,6.0,1.0,0.9694,3.0,2.0,Castellano,0.0,Catalán,0.0,Inglés,3.0,4.0,5.0,yes,yes,yes,Saxofón,8,,,Nada,73.0,yes
42,2024-04-09_21h39.58.249,Experiment4_uns,s160,23.0,feminino,right,España,CastelloCatalán,Upper secondary,no,no,A,1,what,L1,unsyncopated,s1,r1,42,Online_whatL1//b.ta.be10.none.none.wav,pu,fo,fa,sil,ki,zu,cho,sil1,la,ri,sil2,['-'],,,none,none,,,,ta,1,testWhenL2Uns//r2.s2.1.wav,2.0,when,unsyncopated,b,s2,rule,rule,L2,m,0.4068,5.0,0.0,1.1336,3.0,2.0,Castellano,0.0,Catalán,0.0,Inglés,3.0,4.0,5.0,yes,yes,yes,Saxofón,8,,,Nada,73.0,yes
43,2024-04-09_21h39.58.249,Experiment4_uns,s160,23.0,feminino,right,España,CastelloCatalán,Upper secondary,no,no,A,1,what,L1,unsyncopated,s1,r2,43,Online_whatL1//b.ta.be11.0.888.wav,ta,ne,fa,sil,be,ri,fo,sil2,cho,ni,sil1,['catch'],[0.548699999995506],[0.548699999995506],0.0,beat,0.548699999995506,0.548699999995506,"[""space""]",ta,1,testWhenL2Uns//cat_viol.r2.s2.0.wav,2.0,when,unsyncopated,b,s2,no_rule,cat,L2,m,0.4879,3.0,0.0,0.3715,3.0,2.0,Castellano,0.0,Catalán,0.0,Inglés,3.0,4.0,5.0,yes,yes,yes,Saxofón,8,,,Nada,73.0,yes
44,2024-04-09_21h39.58.249,Experiment4_uns,s160,23.0,feminino,right,España,CastelloCatalán,Upper secondary,no,no,A,1,what,L1,unsyncopated,s1,r1,44,Online_whatL1//b.ta.be26.none.none.wav,pu,lu,cho,sil,ki,ne,ro,sil2,fa,la,sil1,['-'],,,none,none,,,,ta,1,testWhenL2Uns//cat_viol.r1.s1.0.wav,2.0,when,unsyncopated,a,s1,no_rule,cat,L2,m,0.6328,2.0,0.0,0.7202,3.0,2.0,Castellano,0.0,Catalán,0.0,Inglés,3.0,4.0,5.0,yes,yes,yes,Saxofón,8,,,Nada,73.0,yes
45,2024-04-09_21h39.58.249,Experiment4_uns,s160,23.0,feminino,right,España,CastelloCatalán,Upper secondary,no,no,A,1,what,L1,unsyncopated,s1,r1,45,Online_whatL1//b.ta.be27.none.none.wav,pu,lu,zu,sil,ki,la,ro,sil2,ni,fa,sil1,['-'],,,none,none,,,,ta,1,testWhenL2Uns//time_viol.r2.s1.0.wav,2.0,when,unsyncopated,b,s1,no_rule,time,L2,m,0.389,2.0,0.0,0.5701,3.0,2.0,Castellano,0.0,Catalán,0.0,Inglés,3.0,4.0,5.0,yes,yes,yes,Saxofón,8,,,Nada,73.0,yes
46,2024-04-09_21h39.58.249,Experiment4_uns,s160,23.0,feminino,right,España,CastelloCatalán,Upper secondary,no,no,A,1,what,L1,unsyncopated,s2,r1,46,Online_whatL1//b.ta.be24.none.none.wav,lu,zu,cho,sil,pu,ni,fa,sil2,ki,fo,sil1,['-'],,,none,none,,,,ta,1,testWhenL2Uns//cat_viol.r2.s1.0.wav,2.0,when,unsyncopated,b,s1,no_rule,cat,L2,m,0.3542,5.0,0.0,0.3883,3.0,2.0,Castellano,0.0,Catalán,0.0,Inglés,3.0,4.0,5.0,yes,yes,yes,Saxofón,8,,,Nada,73.0,yes
47,2024-04-09_21h39.58.249,Experiment4_uns,s160,23.0,feminino,right,España,CastelloCatalán,Upper secondary,no,no,A,1,what,L1,unsyncopated,s1,r1,47,Online_whatL1//b.ta.be25.none.none.wav,pu,ze,cho,sil2,ki,fo,ro,sil,ni,ri,sil1,['-'],,,none,none,,,,ta,1,testWhenL2Uns//dep_viol.r2.s1.0.wav,2.0,when,unsyncopated,b,s1,no_rule,dep,L2,z,0.4069,4.0,1.0,0.4994,3.0,2.0,Castellano,0.0,Catalán,0.0,Inglés,3.0,4.0,5.0,yes,yes,yes,Saxofón,8,,,Nada,73.0,yes
48,2024-04-09_21h39.58.249,Experiment4_uns,s160,23.0,feminino,right,España,CastelloCatalán,Upper secondary,no,no,A,1,what,L1,unsyncopated,s1,r1,48,Online_whatL1//a.pu.ki17.0.1110.wav,pu,ro,ni,sil2,ki,zu,la,sil,cho,ri,sil1,['catch'],[1.4823999999985062],[1.4823999999985062],1.11,no_beat,0.3723999999985061,0.3723999999985061,"[""space""]",ki,2,testConjL4Uns//r2.s1.1.wav,3.0,conjunction_un,unsyncopated,b,s1,rule,rule,L4,z,2.4513,7.0,1.0,0.3309,3.0,2.0,Castellano,0.0,Catalán,0.0,Inglés,3.0,4.0,5.0,yes,yes,yes,Saxofón,8,,,Nada,73.0,yes
49,2024-04-09_21h39.58.249,Experiment4_uns,s160,23.0,feminino,right,España,CastelloCatalán,Upper secondary,no,no,A,1,what,L1,unsyncopated,s2,r1,49,Online_whatL1//a.pu.ki19.1110.1998.wav,ne,ze,la,sil2,pu,fo,zu,sil,ki,cho,sil1,['catch'],[2.6098999999983334],[2.6098999999983334],1.998,no_beat,0.6118999999983334,0.6118999999983334,"[""space""]",ki,2,testConjL4Uns//time_viol.r1.s1.0.wav,3.0,conjunction_un,unsyncopated,a,s1,no_rule,time,L4,z,0.803,6.0,0.0,0.1709,3.0,2.0,Castellano,0.0,Catalán,0.0,Inglés,3.0,4.0,5.0,yes,yes,yes,Saxofón,8,,,Nada,73.0,yes
50,2024-04-09_21h39.58.249,Experiment4_uns,s160,23.0,feminino,right,España,CastelloCatalán,Upper secondary,no,no,A,1,what,L1,unsyncopated,s2,r2,50,Online_whatL1//a.pu.ki18.none.none.wav,zu,ne,cho,sil,ta,fo,ri,sil1,be,fa,sil2,['-'],,,none,none,,,,ki,2,testConjL4Uns//r1.s1.0.wav,3.0,conjunction_un,unsyncopated,a,s1,rule,rule,L4,z,2.0017,4.0,1.0,0.3033,3.0,2.0,Castellano,0.0,Catalán,0.0,Inglés,3.0,4.0,5.0,yes,yes,yes,Saxofón,8,,,Nada,73.0,yes
51,2024-04-09_21h39.58.249,Experiment4_uns,s160,23.0,feminino,right,España,CastelloCatalán,Upper secondary,no,no,A,1,what,L1,unsyncopated,s1,r1,51,Online_whatL1//a.pu.ki16.0.888.wav,pu,cho,ze,sil,ki,ri,ni,sil1,lu,fa,sil2,['catch'],[1.828600000001643],[1.828600000001643],0.888,beat,0.9406000000016428,0.9406000000016428,"[""space""]",ki,2,testConjL4Uns//cat_viol.r2.s1.0.wav,3.0,conjunction_un,unsyncopated,b,s1,no_rule,cat,L4,m,1.4326,2.0,1.0,0.439,3.0,2.0,Castellano,0.0,Catalán,0.0,Inglés,3.0,4.0,5.0,yes,yes,yes,Saxofón,8,,,Nada,73.0,yes
52,2024-04-09_21h39.58.249,Experiment4_uns,s160,23.0,feminino,right,España,CastelloCatalán,Upper secondary,no,no,A,1,what,L1,unsyncopated,s1,r2,52,Online_whatL1//d.ne.ni30.444.1332.wav,ta,lu,ne,sil,be,fo,ni,sil2,ro,cho,sil1,['catch'],[1.5521000000014737],[1.5521000000014737],0.444,no_beat,1.1081000000014738,1.1081000000014738,"[""space""]",ne,4,testConjL4Uns//r1.s1.2.wav,3.0,conjunction_un,unsyncopated,a,s1,rule,rule,L4,m,0.7508,6.0,0.0,0.4019,3.0,2.0,Castellano,0.0,Catalán,0.0,Inglés,3.0,4.0,5.0,yes,yes,yes,Saxofón,8,,,Nada,73.0,yes
53,2024-04-09_21h39.58.249,Experiment4_uns,s160,23.0,feminino,right,España,CastelloCatalán,Upper secondary,no,no,A,1,what,L1,unsyncopated,s1,r2,53,Online_whatL1//d.ne.ni29.none.none.wav,ta,la,zu,sil2,be,fo,ri,sil,fa,ro,sil1,['-'],,,none,none,,,,ne,4,testConjL4Uns//cat_viol.r1.s2.0.wav,3.0,conjunction_un,unsyncopated,a,s2,no_rule,cat,L4,z,0.4376,4.0,0.0,0.787,3.0,2.0,Castellano,0.0,Catalán,0.0,Inglés,3.0,4.0,5.0,yes,yes,yes,Saxofón,8,,,Nada,73.0,yes
54,2024-04-09_21h39.58.249,Experiment4_uns,s160,23.0,feminino,right,España,CastelloCatalán,Upper secondary,no,no,A,1,what,L1,unsyncopated,s1,r1,54,Online_whatL1//d.ne.ni28.1332.222.wav,pu,ni,lu,sil2,ki,ne,cho,sil,fo,zu,sil1,['catch'],[1.7974999999999],[1.7974999999999],1.332,no_beat,0.4654999999998999,0.4654999999998999,"[""space""]",ne,4,testConjL4Uns//time_viol.r1.s2.0.wav,3.0,conjunction_un,unsyncopated,a,s2,no_rule,time,L4,m,0.5696,5.0,1.0,0.5695,3.0,2.0,Castellano,0.0,Catalán,0.0,Inglés,3.0,4.0,5.0,yes,yes,yes,Saxofón,8,,,Nada,73.0,yes
55,2024-04-09_21h39.58.249,Experiment4_uns,s160,23.0,feminino,right,España,CastelloCatalán,Upper secondary,no,no,A,1,what,L1,unsyncopated,s1,r1,55,Online_whatL1//d.ne.ni31.1998.1332.wav,pu,la,cho,sil2,ki,ni,lu,sil,ne,fa,sil1,['catch'],[2.542799999996987],[2.542799999996987],1.998,no_beat,0.544799999996987,0.544799999996987,"[""space""]",ne,4,testConjL4Uns//time_viol.r2.s2.0.wav,3.0,conjunction_un,unsyncopated,b,s2,no_rule,time,L4,z,0.4737,5.0,0.0,0.8362,3.0,2.0,Castellano,0.0,Catalán,0.0,Inglés,3.0,4.0,5.0,yes,yes,yes,Saxofón,8,,,Nada,73.0,yes
56,2024-04-09_21h39.58.249,Experiment4_uns,s160,23.0,feminino,right,España,CastelloCatalán,Upper secondary,no,no,A,1,what,L1,unsyncopated,s1,r1,56,Online_whatL1//d.ne.ni22.none.none.wav,pu,ro,cho,sil2,ki,lu,ze,sil,zu,ri,sil1,['-'],,,none,none,,,,ne,4,testConjL4Uns//cat_viol.r2.s2.0.wav,3.0,conjunction_un,unsyncopated,b,s2,no_rule,cat,L4,z,0.4034,5.0,0.0,0.5366,3.0,2.0,Castellano,0.0,Catalán,0.0,Inglés,3.0,4.0,5.0,yes,yes,yes,Saxofón,8,,,Nada,73.0,yes
57,2024-04-09_21h39.58.249,Experiment4_uns,s160,23.0,feminino,right,España,CastelloCatalán,Upper secondary,no,no,A,1,what,L1,unsyncopated,s1,r1,57,Online_whatL1//d.ne.ni23.none.none.wav,pu,fo,zu,sil,ki,cho,ro,sil1,ri,la,sil2,['-'],,,none,none,,,,ne,4,testConjL4Uns//cat_viol.r1.s1.0.wav,3.0,conjunction_un,unsyncopated,a,s1,no_rule,cat,L4,z,0.5382,7.0,0.0,0.1551,3.0,2.0,Castellano,0.0,Catalán,0.0,Inglés,3.0,4.0,5.0,yes,yes,yes,Saxofón,8,,,Nada,73.0,yes
58,2024-04-09_21h39.58.249,Experiment4_uns,s160,23.0,feminino,right,España,CastelloCatalán,Upper secondary,no,no,A,1,what,L1,unsyncopated,s2,r1,58,Online_whatL1//d.ne.ni21.none.none.wav,zu,fo,la,sil,pu,ze,cho,sil2,ki,lu,sil1,['false alarm'],[2.458200000002762],[2.458200000002762],none,none,,,"[""space""]",ne,4,testConjL4Uns//dep_viol.r2.s2.0.wav,3.0,conjunction_un,unsyncopated,b,s2,no_rule,dep,L4,z,0.318,7.0,0.0,0.2739,3.0,2.0,Castellano,0.0,Catalán,0.0,Inglés,3.0,4.0,5.0,yes,yes,yes,Saxofón,8,,,Nada,73.0,yes
59,2024-04-09_21h39.58.249,Experiment4_uns,s160,23.0,feminino,right,España,CastelloCatalán,Upper secondary,no,no,A,1,what,L1,unsyncopated,s1,r2,59,Online_whatL1//d.ne.ni20.none.none.wav,ta,fa,ro,sil2,be,ze,cho,sil,la,zu,sil1,['-'],,,none,none,,,,ne,4,testConjL4Uns//r2.s2.0.wav,3.0,conjunction_un,unsyncopated,b,s2,rule,rule,L4,m,0.5345,5.0,0.0,0.4692,3.0,2.0,Castellano,0.0,Catalán,0.0,Inglés,3.0,4.0,5.0,yes,yes,yes,Saxofón,8,,,Nada,73.0,yes
60,2024-04-09_21h39.58.249,Experiment4_uns,s160,23.0,feminino,right,España,CastelloCatalán,Upper secondary,no,no,A,1,what,L1,unsyncopated,s2,r2,60,Online_whatL1//a.pu.ki15.none.none.wav,fo,ne,ro,sil2,ta,cho,lu,sil,be,ze,sil1,['-'],,,none,none,,,,ki,2,testConjL4Uns//r2.s2.1.wav,3.0,conjunction_un,unsyncopated,b,s2,rule,rule,L4,m,0.3519,4.0,0.0,0.7021,3.0,2.0,Castellano,0.0,Catalán,0.0,Inglés,3.0,4.0,5.0,yes,yes,yes,Saxofón,8,,,Nada,73.0,yes
61,2024-04-09_21h39.58.249,Experiment4_uns,s160,23.0,feminino,right,España,CastelloCatalán,Upper secondary,no,no,A,1,what,L1,unsyncopated,s2,r2,61,Online_whatL1//a.pu.ki14.none.none.wav,ni,ne,ze,sil2,ta,fa,ri,sil,be,ro,sil1,['-'],,,none,none,,,,ki,2,testConjL4Uns//dep_viol.r1.s2.0.wav,3.0,conjunction_un,unsyncopated,a,s2,no_rule,dep,L4,m,0.3682,6.0,1.0,0.5025,3.0,2.0,Castellano,0.0,Catalán,0.0,Inglés,3.0,4.0,5.0,yes,yes,yes,Saxofón,8,,,Nada,73.0,yes
62,2024-04-09_21h39.58.249,Experiment4_uns,s160,23.0,feminino,right,España,CastelloCatalán,Upper secondary,no,no,A,1,what,L1,unsyncopated,s2,r1,62,Online_whatL1//a.pu.ki12.1110.1998.wav,ni,zu,ro,sil2,pu,lu,ze,sil,ki,fa,sil1,['catch'],[2.409799999997176],[2.409799999997176],1.998,no_beat,0.4117999999971762,0.4117999999971762,"[""space""]",ki,2,testConjL4Uns//r2.s1.0.wav,3.0,conjunction_un,unsyncopated,b,s1,rule,rule,L4,z,0.4168,1.0,1.0,1.0532,3.0,2.0,Castellano,0.0,Catalán,0.0,Inglés,3.0,4.0,5.0,yes,yes,yes,Saxofón,8,,,Nada,73.0,yes
63,2024-04-09_21h39.58.249,Experiment4_uns,s160,23.0,feminino,right,España,CastelloCatalán,Upper secondary,no,no,A,1,what,L1,unsyncopated,s2,r2,63,Online_whatL1//a.pu.ki13.none.none.wav,la,fa,ri,sil,ta,cho,ni,sil1,be,fo,sil2,['-'],,,none,none,,,,ki,2,testConjL4Uns//r1.s2.2.wav,3.0,conjunction_un,unsyncopated,a,s2,rule,rule,L4,z,0.353,7.0,1.0,0.1535,3.0,2.0,Castellano,0.0,Catalán,0.0,Inglés,3.0,4.0,5.0,yes,yes,yes,Saxofón,8,,,Nada,73.0,yes
64,2024-04-09_21h39.58.249,Experiment4_uns,s160,23.0,feminino,right,España,CastelloCatalán,Upper secondary,no,no,A,1,what,L1,unsyncopated,s1,r2,64,Online_whatL1//a.pu.ki9.none.none.wav,ta,ne,la,sil2,be,zu,ze,sil,fo,lu,sil1,['-'],,,none,none,,,,ki,2,testConjL4Uns//dep_viol.r1.s1.0.wav,3.0,conjunction_un,unsyncopated,a,s1,no_rule,dep,L4,m,0.4183,5.0,1.0,0.741,3.0,2.0,Castellano,0.0,Catalán,0.0,Inglés,3.0,4.0,5.0,yes,yes,yes,Saxofón,8,,,Nada,73.0,yes
65,2024-04-09_21h39.58.249,Experiment4_uns,s160,23.0,feminino,right,España,CastelloCatalán,Upper secondary,no,no,A,1,what,L1,unsyncopated,s1,r2,65,Online_whatL1//a.pu.ki11.none.none.wav,ta,lu,ri,sil,be,la,fa,sil1,ne,ze,sil2,['-'],,,none,none,,,,ki,2,testConjL4Uns//time_viol.r2.s1.0.wav,3.0,conjunction_un,unsyncopated,b,s1,no_rule,time,L4,m,0.5892,7.0,1.0,0.5013,3.0,2.0,Castellano,0.0,Catalán,0.0,Inglés,3.0,4.0,5.0,yes,yes,yes,Saxofón,8,,,Nada,73.0,yes
66,2024-04-09_21h39.58.249,Experiment4_uns,s160,23.0,feminino,right,España,CastelloCatalán,Upper secondary,no,no,A,1,what,L1,unsyncopated,s2,r1,66,Online_whatL1//a.pu.ki10.888.1776.wav,ni,la,lu,sil,pu,zu,ze,sil1,ki,ne,sil2,['catch'],[2.1784999999999854],[2.1784999999999854],1.776,beat,0.4024999999999854,0.4024999999999854,"[""space""]",ki,2,testConjL4Uns//dep_viol.r2.s1.0.wav,3.0,conjunction_un,unsyncopated,b,s1,no_rule,dep,L4,m,0.7898,2.0,1.0,0.903,3.0,2.0,Castellano,0.0,Catalán,0.0,Inglés,3.0,4.0,5.0,yes,yes,yes,Saxofón,8,,,Nada,73.0,yes
67,2024-04-09_21h39.58.249,Experiment4_uns,s160,23.0,feminino,right,España,CastelloCatalán,Upper secondary,no,no,A,1,what,L1,unsyncopated,s2,r1,67,Online_whatL1//a.pu.ki8.1110.1998.wav,ri,ro,cho,sil2,pu,zu,ne,sil,ki,lu,sil1,['catch'],[2.327599999993936],[2.327599999993936],1.998,no_beat,0.3295999999939358,0.3295999999939358,"[""space""]",ki,2,testConjL4Uns//r2.s2.2.wav,3.0,conjunction_un,unsyncopated,b,s2,rule,rule,L4,z,0.389,3.0,1.0,0.3523,3.0,2.0,Castellano,0.0,Catalán,0.0,Inglés,3.0,4.0,5.0,yes,yes,yes,Saxofón,8,,,Nada,73.0,yes
68,2024-04-09_21h39.58.249,Experiment4_uns,s160,23.0,feminino,right,España,CastelloCatalán,Upper secondary,no,no,A,1,what,L1,unsyncopated,s2,r2,68,Online_whatL1//c.ro.fo12.1332.222.wav,ri,fo,zu,sil,ta,fa,ro,sil2,be,ni,sil1,['catch'],[1.854899999998679],[1.854899999998679],1.332,no_beat,0.522899999998679,0.522899999998679,"[""space""]",ro,3,testConjL4Uns//r2.s1.2.wav,3.0,conjunction_un,unsyncopated,b,s1,rule,rule,L4,m,0.6066,5.0,0.0,0.8182,3.0,2.0,Castellano,0.0,Catalán,0.0,Inglés,3.0,4.0,5.0,yes,yes,yes,Saxofón,8,,,Nada,73.0,yes
69,2024-04-09_21h39.58.249,Experiment4_uns,s160,23.0,feminino,right,España,CastelloCatalán,Upper secondary,no,no,A,1,what,L1,unsyncopated,s2,r1,69,Online_whatL1//c.ro.fo13.1332.444.wav,ni,fa,fo,sil,pu,la,ro,sil1,ki,cho,sil2,['catch'],[1.8966000000016265],[1.8966000000016265],1.332,no_beat,0.5646000000016265,0.5646000000016265,"[""space""]",ro,3,testConjL4Uns//r1.s2.0.wav,3.0,conjunction_un,unsyncopated,a,s2,rule,rule,L4,z,0.3192,7.0,1.0,0.285,3.0,2.0,Castellano,0.0,Catalán,0.0,Inglés,3.0,4.0,5.0,yes,yes,yes,Saxofón,8,,,Nada,73.0,yes
70,2024-04-09_21h39.58.249,Experiment4_uns,s160,23.0,feminino,right,España,CastelloCatalán,Upper secondary,no,no,A,1,what,L1,unsyncopated,s1,r2,70,Online_whatL1//c.ro.fo14.1332.222.wav,ta,fo,cho,sil,be,fa,ro,sil1,lu,ni,sil2,['catch'],[1.875600000001441],[1.875600000001441],1.332,no_beat,0.5436000000014409,0.5436000000014409,"[""space""]",ro,3,testConjL4Uns//r1.s2.1.wav,3.0,conjunction_un,unsyncopated,a,s2,rule,rule,L4,m,0.4179,3.0,0.0,0.2831,3.0,2.0,Castellano,0.0,Catalán,0.0,Inglés,3.0,4.0,5.0,yes,yes,yes,Saxofón,8,,,Nada,73.0,yes
71,2024-04-09_21h39.58.249,Experiment4_uns,s160,23.0,feminino,right,España,CastelloCatalán,Upper secondary,no,no,A,1,what,L1,unsyncopated,s1,r2,71,Online_whatL1//c.ro.fo15.none.none.wav,ta,ri,lu,sil,be,ze,zu,sil1,cho,ni,sil2,['-'],,,none,none,,,,ro,3,testConjL4Uns//r1.s1.1.wav,3.0,conjunction_un,unsyncopated,a,s1,rule,rule,L4,z,0.3022,7.0,1.0,0.2509,3.0,2.0,Castellano,0.0,Catalán,0.0,Inglés,3.0,4.0,5.0,yes,yes,yes,Saxofón,8,,,Nada,73.0,yes
72,2024-04-09_21h39.58.249,Experiment4_uns,s160,23.0,feminino,right,España,CastelloCatalán,Upper secondary,no,no,A,1,what,L1,unsyncopated,s1,r2,72,Online_whatL1//d.ne.ni13.1998.222.wav,ta,ni,fa,sil2,be,ro,ze,sil,ne,fo,sil1,['catch'],[2.363499999999931],[2.363499999999931],1.998,no_beat,0.3654999999999309,0.3654999999999309,"[""space""]",ne,4,testConjL3Syn//r2.s1.0.wav,4.0,conjunction_syn,syncopated,b,s1,rule,rule,L3,z,0.4531,7.0,1.0,0.2551,3.0,2.0,Castellano,0.0,Catalán,0.0,Inglés,3.0,4.0,5.0,yes,yes,yes,Saxofón,8,,,Nada,73.0,yes
73,2024-04-09_21h39.58.249,Experiment4_uns,s160,23.0,feminino,right,España,CastelloCatalán,Upper secondary,no,no,A,1,what,L1,unsyncopated,s2,r2,73,Online_whatL1//d.ne.ni14.1332.0.wav,ni,cho,fo,sil,ta,zu,ne,sil2,be,lu,sil1,['catch'],[2.024700000003122],[2.024700000003122],1.332,no_beat,0.692700000003122,0.692700000003122,"[""space""]",ne,4,testConjL3Syn//cat_viol.r1.s1.0.wav,4.0,conjunction_syn,syncopated,a,s1,no_rule,cat,L3,z,0.6162,5.0,0.0,0.2679,3.0,2.0,Castellano,0.0,Catalán,0.0,Inglés,3.0,4.0,5.0,yes,yes,yes,Saxofón,8,,,Nada,73.0,yes
74,2024-04-09_21h39.58.249,Experiment4_uns,s160,23.0,feminino,right,España,CastelloCatalán,Upper secondary,no,no,A,1,what,L1,unsyncopated,s1,r1,74,Online_whatL1//d.ne.ni12.1554.222.wav,pu,ni,fa,sil2,ki,lu,ne,sil,cho,ro,sil1,['catch'],[2.24420000000282],[2.24420000000282],1.554,no_beat,0.6902000000028201,0.6902000000028201,"[""space""]",ne,4,testConjL3Syn//r1.s2.1.wav,4.0,conjunction_syn,syncopated,a,s2,rule,rule,L3,z,0.3026,5.0,1.0,0.9329,3.0,2.0,Castellano,0.0,Catalán,0.0,Inglés,3.0,4.0,5.0,yes,yes,yes,Saxofón,8,,,Nada,73.0,yes
75,2024-04-09_21h39.58.249,Experiment4_uns,s160,23.0,feminino,right,España,CastelloCatalán,Upper secondary,no,no,A,1,what,L1,unsyncopated,s2,r2,75,Online_whatL1//d.ne.ni15.222.1110.wav,la,ne,ro,sil,ta,ni,cho,sil1,be,zu,sil2,['catch'],[0.7777000000030512],[0.7777000000030512],0.222,no_beat,0.5557000000030512,0.5557000000030512,"[""space""]",ne,4,testConjL3Syn//r2.s2.1.wav,4.0,conjunction_syn,syncopated,b,s2,rule,rule,L3,z,0.349,5.0,1.0,0.217,3.0,2.0,Castellano,0.0,Catalán,0.0,Inglés,3.0,4.0,5.0,yes,yes,yes,Saxofón,8,,,Nada,73.0,yes
76,2024-04-09_21h39.58.249,Experiment4_uns,s160,23.0,feminino,right,España,CastelloCatalán,Upper secondary,no,no,A,1,what,L1,unsyncopated,s2,r2,76,Online_whatL1//b.ta.be4.888.1998.wav,zu,ne,fa,sil,ta,lu,ni,sil2,be,ri,sil1,['catch'],[1.298699999995506],[1.298699999995506],0.888,beat,0.410699999995506,0.410699999995506,"[""space""]",ta,1,testConjL3Syn//time_viol.r1.s1.0.wav,4.0,conjunction_syn,syncopated,a,s1,no_rule,time,L3,m,0.7503,2.0,1.0,0.4681,3.0,2.0,Castellano,0.0,Catalán,0.0,Inglés,3.0,4.0,5.0,yes,yes,yes,Saxofón,8,,,Nada,73.0,yes
77,2024-04-09_21h39.58.249,Experiment4_uns,s160,23.0,feminino,right,España,CastelloCatalán,Upper secondary,no,no,A,1,what,L1,unsyncopated,s2,r1,77,Online_whatL1//b.ta.be5.none.none.wav,ni,fa,ro,sil2,pu,ze,la,sil,ki,ne,sil1,['-'],,,none,none,,,,ta,1,testConjL3Syn//cat_viol.r2.s1.0.wav,4.0,conjunction_syn,syncopated,b,s1,no_rule,cat,L3,m,0.4331,7.0,1.0,0.1861,3.0,2.0,Castellano,0.0,Catalán,0.0,Inglés,3.0,4.0,5.0,yes,yes,yes,Saxofón,8,,,Nada,73.0,yes
78,2024-04-09_21h39.58.249,Experiment4_uns,s160,23.0,feminino,right,España,CastelloCatalán,Upper secondary,no,no,A,1,what,L1,unsyncopated,s2,r1,78,Online_whatL1//b.ta.be6.none.none.wav,cho,fa,fo,sil,pu,ne,ri,sil2,ki,ni,sil1,['-'],,,none,none,,,,ta,1,testConjL3Syn//r2.s1.1.wav,4.0,conjunction_syn,syncopated,b,s1,rule,rule,L3,m,0.4852,5.0,0.0,0.5687,3.0,2.0,Castellano,0.0,Catalán,0.0,Inglés,3.0,4.0,5.0,yes,yes,yes,Saxofón,8,,,Nada,73.0,yes
79,2024-04-09_21h39.58.249,Experiment4_uns,s160,23.0,feminino,right,España,CastelloCatalán,Upper secondary,no,no,A,1,what,L1,unsyncopated,s1,r1,79,Online_whatL1//b.ta.be7.none.none.wav,pu,ro,fa,sil,ki,fo,ni,sil2,la,ze,sil1,['-'],,,none,none,,,,ta,1,testConjL3Syn//dep_viol.r1.s2.0.wav,4.0,conjunction_syn,syncopated,a,s2,no_rule,dep,L3,z,0.3523,4.0,0.0,0.6907,3.0,2.0,Castellano,0.0,Catalán,0.0,Inglés,3.0,4.0,5.0,yes,yes,yes,Saxofón,8,,,Nada,73.0,yes
80,2024-04-09_21h39.58.249,Experiment4_uns,s160,23.0,feminino,right,España,CastelloCatalán,Upper secondary,no,no,A,1,what,L1,unsyncopated,s2,r1,80,Online_whatL1//a.pu.ki4.888.1776.wav,cho,zu,fa,sil,pu,lu,fo,sil1,ki,ze,sil2,['catch'],[2.2876999999955387],[2.2876999999955387],1.776,beat,0.5116999999955387,0.5116999999955387,"[""space""]",ki,2,testConjL3Syn//r1.s1.0.wav,4.0,conjunction_syn,syncopated,a,s1,rule,rule,L3,m,0.3861,3.0,0.0,0.2056,3.0,2.0,Castellano,0.0,Catalán,0.0,Inglés,3.0,4.0,5.0,yes,yes,yes,Saxofón,8,,,Nada,73.0,yes
81,2024-04-09_21h39.58.249,Experiment4_uns,s160,23.0,feminino,right,España,CastelloCatalán,Upper secondary,no,no,A,1,what,L1,unsyncopated,s2,r1,81,Online_whatL1//a.pu.ki6.888.1776.wav,fa,lu,ro,sil,pu,ni,ze,sil1,ki,ri,sil2,['catch'],[2.160699999995586],[2.160699999995586],1.776,beat,0.384699999995586,0.384699999995586,"[""space""]",ki,2,testConjL3Syn//time_viol.r2.s2.0.wav,4.0,conjunction_syn,syncopated,b,s2,no_rule,time,L3,z,0.3254,6.0,0.0,0.2007,3.0,2.0,Castellano,0.0,Catalán,0.0,Inglés,3.0,4.0,5.0,yes,yes,yes,Saxofón,8,,,Nada,73.0,yes
82,2024-04-09_21h39.58.249,Experiment4_uns,s160,23.0,feminino,right,España,CastelloCatalán,Upper secondary,no,no,A,1,what,L1,unsyncopated,s2,r2,82,Online_whatL1//a.pu.ki5.none.none.wav,cho,ri,ne,sil2,ta,ro,ni,sil,be,lu,sil1,['-'],,,none,none,,,,ki,2,testConjL3Syn//r2.s2.2.wav,4.0,conjunction_syn,syncopated,b,s2,rule,rule,L3,m,0.8339,7.0,0.0,0.4231,3.0,2.0,Castellano,0.0,Catalán,0.0,Inglés,3.0,4.0,5.0,yes,yes,yes,Saxofón,8,,,Nada,73.0,yes
83,2024-04-09_21h39.58.249,Experiment4_uns,s160,23.0,feminino,right,España,CastelloCatalán,Upper secondary,no,no,A,1,what,L1,unsyncopated,s2,r2,83,Online_whatL1//a.pu.ki7.none.none.wav,zu,ne,ri,sil,ta,ro,ze,sil1,be,fo,sil2,['-'],,,none,none,,,,ki,2,testConjL3Syn//cat_viol.r1.s2.0.wav,4.0,conjunction_syn,syncopated,a,s2,no_rule,cat,L3,z,0.5873,5.0,0.0,0.1549,3.0,2.0,Castellano,0.0,Catalán,0.0,Inglés,3.0,4.0,5.0,yes,yes,yes,Saxofón,8,,,Nada,73.0,yes
84,2024-04-09_21h39.58.249,Experiment4_uns,s160,23.0,feminino,right,España,CastelloCatalán,Upper secondary,no,no,A,1,what,L1,unsyncopated,s2,r2,84,Online_whatL1//b.ta.be30.1110.1998.wav,ze,lu,fa,sil2,ta,ro,ni,sil,be,la,sil1,['catch'],[1.5853999999985717],[1.5853999999985717],1.11,no_beat,0.4753999999985716,0.4753999999985716,"[""space""]",ta,1,testConjL3Syn//r1.s2.0.wav,4.0,conjunction_syn,syncopated,a,s2,rule,rule,L3,z,0.3227,7.0,1.0,0.2496,3.0,2.0,Castellano,0.0,Catalán,0.0,Inglés,3.0,4.0,5.0,yes,yes,yes,Saxofón,8,,,Nada,73.0,yes
85,2024-04-09_21h39.58.249,Experiment4_uns,s160,23.0,feminino,right,España,CastelloCatalán,Upper secondary,no,no,A,1,what,L1,unsyncopated,s2,r1,85,Online_whatL1//b.ta.be28.none.none.wav,zu,fo,ni,sil,pu,ri,lu,sil1,ki,ne,sil2,['-'],,,none,none,,,,ta,1,testConjL3Syn//cat_viol.r2.s2.0.wav,4.0,conjunction_syn,syncopated,b,s2,no_rule,cat,L3,m,0.2917,7.0,1.0,0.2322,3.0,2.0,Castellano,0.0,Catalán,0.0,Inglés,3.0,4.0,5.0,yes,yes,yes,Saxofón,8,,,Nada,73.0,yes
86,2024-04-09_21h39.58.249,Experiment4_uns,s160,23.0,feminino,right,España,CastelloCatalán,Upper secondary,no,no,A,1,what,L1,unsyncopated,s2,r1,86,Online_whatL1//b.ta.be29.none.none.wav,fa,ro,ni,sil,pu,ne,ri,sil1,ki,ze,sil2,['-'],,,none,none,,,,ta,1,testConjL3Syn//dep_viol.r2.s1.0.wav,4.0,conjunction_syn,syncopated,b,s1,no_rule,dep,L3,m,0.8678,5.0,1.0,0.6682,3.0,2.0,Castellano,0.0,Catalán,0.0,Inglés,3.0,4.0,5.0,yes,yes,yes,Saxofón,8,,,Nada,73.0,yes
87,2024-04-09_21h39.58.249,Experiment4_uns,s160,23.0,feminino,right,España,CastelloCatalán,Upper secondary,no,no,A,1,what,L1,unsyncopated,s2,r2,87,Online_whatL1//b.ta.be31.1110.1998.wav,fo,ze,ri,sil2,ta,ne,zu,sil,be,lu,sil1,['catch'],[1.592699999995375],[1.592699999995375],1.11,no_beat,0.4826999999953749,0.4826999999953749,"[""space""]",ta,1,testConjL3Syn//r2.s1.2.wav,4.0,conjunction_syn,syncopated,b,s1,rule,rule,L3,m,0.4167,5.0,0.0,0.3508,3.0,2.0,Castellano,0.0,Catalán,0.0,Inglés,3.0,4.0,5.0,yes,yes,yes,Saxofón,8,,,Nada,73.0,yes
88,2024-04-09_21h39.58.249,Experiment4_uns,s160,23.0,feminino,right,España,CastelloCatalán,Upper secondary,no,no,A,1,what,L1,unsyncopated,s2,r1,88,Online_whatL1//b.ta.be14.none.none.wav,cho,zu,fo,sil2,pu,ne,ri,sil,ki,ni,sil1,['-'],,,none,none,,,,ta,1,testConjL3Syn//time_viol.r1.s2.0.wav,4.0,conjunction_syn,syncopated,a,s2,no_rule,time,L3,m,1.5062,3.0,1.0,0.3196,3.0,2.0,Castellano,0.0,Catalán,0.0,Inglés,3.0,4.0,5.0,yes,yes,yes,Saxofón,8,,,Nada,73.0,yes
89,2024-04-09_21h39.58.249,Experiment4_uns,s160,23.0,feminino,right,España,CastelloCatalán,Upper secondary,no,no,A,1,what,L1,unsyncopated,s1,r1,89,Online_whatL1//b.ta.be15.none.none.wav,pu,ne,lu,sil2,ki,fo,la,sil,fa,ze,sil1,['-'],,,none,none,,,,ta,1,testConjL3Syn//time_viol.r2.s1.0.wav,4.0,conjunction_syn,syncopated,b,s1,no_rule,time,L3,z,0.3491,5.0,0.0,0.3177,3.0,2.0,Castellano,0.0,Catalán,0.0,Inglés,3.0,4.0,5.0,yes,yes,yes,Saxofón,8,,,Nada,73.0,yes
90,2024-04-09_21h39.58.249,Experiment4_uns,s160,23.0,feminino,right,España,CastelloCatalán,Upper secondary,no,no,A,1,what,L1,unsyncopated,s1,r2,90,Online_whatL1//b.ta.be12.0.888.wav,ta,fo,lu,sil,be,zu,fa,sil2,cho,ne,sil1,['catch'],[0.564299999997047],[0.564299999997047],0.0,beat,0.564299999997047,0.564299999997047,"[""space""]",ta,1,testConjL3Syn//r1.s1.1.wav,4.0,conjunction_syn,syncopated,a,s1,rule,rule,L3,z,0.2904,5.0,1.0,0.173,3.0,2.0,Castellano,0.0,Catalán,0.0,Inglés,3.0,4.0,5.0,yes,yes,yes,Saxofón,8,,,Nada,73.0,yes
91,2024-04-09_21h39.58.249,Experiment4_uns,s160,23.0,feminino,right,España,CastelloCatalán,Upper secondary,no,no,A,1,what,L1,unsyncopated,s2,r2,91,Online_whatL1//b.ta.be13.888.1998.wav,cho,fa,ro,sil,ta,lu,zu,sil2,be,fo,sil1,['catch'],[1.4777999999971598],[1.4777999999971598],0.888,beat,0.5897999999971598,0.5897999999971598,"[""space""]",ta,1,testConjL3Syn//dep_viol.r1.s1.0.wav,4.0,conjunction_syn,syncopated,a,s1,no_rule,dep,L3,z,0.2549,7.0,0.0,0.1519,3.0,2.0,Castellano,0.0,Catalán,0.0,Inglés,3.0,4.0,5.0,yes,yes,yes,Saxofón,8,,,Nada,73.0,yes
92,2024-04-09_21h39.58.249,Experiment4_uns,s160,23.0,feminino,right,España,CastelloCatalán,Upper secondary,no,no,A,1,what,L1,unsyncopated,s1,r1,92,Online_whatL1//c.ro.fo24.none.none.wav,pu,la,ri,sil,ki,fa,ne,sil1,ni,lu,sil2,['-'],,,none,none,,,,ro,3,testConjL3Syn//r2.s2.0.wav,4.0,conjunction_syn,syncopated,b,s2,rule,rule,L3,m,1.0224,2.0,0.0,0.233,3.0,2.0,Castellano,0.0,Catalán,0.0,Inglés,3.0,4.0,5.0,yes,yes,yes,Saxofón,8,,,Nada,73.0,yes
93,2024-04-09_21h39.58.249,Experiment4_uns,s160,23.0,feminino,right,España,CastelloCatalán,Upper secondary,no,no,A,1,what,L1,unsyncopated,s1,r2,93,Online_whatL1//c.ro.fo25.222.1110.wav,ta,ro,lu,sil,be,fo,ri,sil2,ni,zu,sil1,['catch'],[0.6653000000044358],[0.6653000000044358],0.222,no_beat,0.4433000000044358,0.4433000000044358,"[""space""]",ro,3,testConjL3Syn//r1.s1.2.wav,4.0,conjunction_syn,syncopated,a,s1,rule,rule,L3,m,0.3699,5.0,0.0,0.2346,3.0,2.0,Castellano,0.0,Catalán,0.0,Inglés,3.0,4.0,5.0,yes,yes,yes,Saxofón,8,,,Nada,73.0,yes
94,2024-04-09_21h39.58.249,Experiment4_uns,s160,23.0,feminino,right,España,CastelloCatalán,Upper secondary,no,no,A,1,what,L1,unsyncopated,s1,r2,94,Online_whatL1//c.ro.fo26.1332.1554.wav,ta,fa,ri,sil2,be,ro,fo,sil,ze,zu,sil1,['catch'],[1.7925000000000182],[1.7925000000000182],1.332,no_beat,0.4605000000000181,0.4605000000000181,"[""space""]",ro,3,testConjL3Syn//dep_viol.r2.s2.0.wav,4.0,conjunction_syn,syncopated,b,s2,no_rule,dep,L3,z,0.3856,5.0,0.0,0.2838,3.0,2.0,Castellano,0.0,Catalán,0.0,Inglés,3.0,4.0,5.0,yes,yes,yes,Saxofón,8,,,Nada,73.0,yes
95,2024-04-09_21h39.58.249,Experiment4_uns,s160,23.0,feminino,right,España,CastelloCatalán,Upper secondary,no,no,A,1,what,L1,unsyncopated,s1,r1,95,Online_whatL1//c.ro.fo27.none.none.wav,pu,lu,ze,sil,ki,ne,fa,sil2,cho,zu,sil1,['-'],,,none,none,,,,ro,3,testConjL3Syn//r1.s2.2.wav,4.0,conjunction_syn,syncopated,a,s2,rule,rule,L3,z,0.3051,6.0,1.0,0.2668,3.0,2.0,Castellano,0.0,Catalán,0.0,Inglés,3.0,4.0,5.0,yes,yes,yes,Saxofón,8,,,Nada,73.0,yes
96,2024-04-09_21h39.58.249,Experiment4_uns,s160,23.0,feminino,right,España,CastelloCatalán,Upper secondary,no,no,A,1,what,L1,unsyncopated,s2,r2,96,Online_whatL1//d.ne.ni3.none.none.wav,ro,lu,la,sil,ta,ri,fa,sil1,be,ze,sil2,['-'],,,none,none,,,,ne,4,,,,,,,,,,,,,,,3.0,2.0,Castellano,0.0,Catalán,0.0,Inglés,3.0,4.0,5.0,yes,yes,yes,Saxofón,8,,,Nada,73.0,yes
97,2024-04-09_21h39.58.249,Experiment4_uns,s160,23.0,feminino,right,España,CastelloCatalán,Upper secondary,no,no,A,1,what,L1,unsyncopated,s2,r1,97,Online_whatL1//d.ne.ni1.none.none.wav,ze,lu,zu,sil,pu,fa,ri,sil2,ki,la,sil1,['-'],,,none,none,,,,ne,4,,,,,,,,,,,,,,,3.0,2.0,Castellano,0.0,Catalán,0.0,Inglés,3.0,4.0,5.0,yes,yes,yes,Saxofón,8,,,Nada,73.0,yes
98,2024-04-09_21h39.58.249,Experiment4_uns,s160,23.0,feminino,right,España,CastelloCatalán,Upper secondary,no,no,A,1,what,L1,unsyncopated,s2,r1,98,Online_whatL1//d.ne.ni0.0.1332.wav,ne,zu,fo,sil2,pu,ni,cho,sil,ki,ro,sil1,['catch'],[0.5266000000015083],[0.5266000000015083],0.0,beat,0.5266000000015083,0.5266000000015083,"[""space""]",ne,4,,,,,,,,,,,,,,,3.0,2.0,Castellano,0.0,Catalán,0.0,Inglés,3.0,4.0,5.0,yes,yes,yes,Saxofón,8,,,Nada,73.0,yes
99,2024-04-09_21h39.58.249,Experiment4_uns,s160,23.0,feminino,right,España,CastelloCatalán,Upper secondary,no,no,A,1,what,L1,unsyncopated,s2,r1,99,Online_whatL1//d.ne.ni2.444.0.wav,ni,fa,ne,sil,pu,la,ze,sil2,ki,fo,sil1,['catch'],[0.9950999999941814],[0.9950999999941814],0.444,no_beat,0.5510999999941815,0.5510999999941815,"[""space""]",ne,4,,,,,,,,,,,,,,,3.0,2.0,Castellano,0.0,Catalán,0.0,Inglés,3.0,4.0,5.0,yes,yes,yes,Saxofón,8,,,Nada,73.0,yes
100,2024-04-09_21h39.58.249,Experiment4_uns,s160,23.0,feminino,right,España,CastelloCatalán,Upper secondary,no,no,A,1,what,L1,unsyncopated,s2,r2,100,Online_whatL1//c.ro.fo23.none.none.wav,ne,ni,zu,sil,ta,lu,la,sil1,be,ri,sil2,['-'],,,none,none,,,,ro,3,,,,,,,,,,,,,,,3.0,2.0,Castellano,0.0,Catalán,0.0,Inglés,3.0,4.0,5.0,yes,yes,yes,Saxofón,8,,,Nada,73.0,yes
101,2024-04-09_21h39.58.249,Experiment4_uns,s160,23.0,feminino,right,España,CastelloCatalán,Upper secondary,no,no,A,1,what,L1,unsyncopated,s1,r1,101,Online_whatL1//c.ro.fo20.222.1332.wav,pu,ro,la,sil,ki,fa,fo,sil2,ni,ne,sil1,['catch'],[0.7123000000044613],[0.7123000000044613],0.222,no_beat,0.4903000000044613,0.4903000000044613,"[""space""]",ro,3,,,,,,,,,,,,,,,3.0,2.0,Castellano,0.0,Catalán,0.0,Inglés,3.0,4.0,5.0,yes,yes,yes,Saxofón,8,,,Nada,73.0,yes
102,2024-04-09_21h39.58.249,Experiment4_uns,s160,23.0,feminino,right,España,CastelloCatalán,Upper secondary,no,no,A,1,what,L1,unsyncopated,s2,r1,102,Online_whatL1//c.ro.fo21.none.none.wav,ze,cho,ne,sil2,pu,ri,zu,sil,ki,fa,sil1,['-'],,,none,none,,,,ro,3,,,,,,,,,,,,,,,3.0,2.0,Castellano,0.0,Catalán,0.0,Inglés,3.0,4.0,5.0,yes,yes,yes,Saxofón,8,,,Nada,73.0,yes
103,2024-04-09_21h39.58.249,Experiment4_uns,s160,23.0,feminino,right,España,CastelloCatalán,Upper secondary,no,no,A,1,what,L1,unsyncopated,s2,r2,103,Online_whatL1//c.ro.fo22.0.1110.wav,ro,ne,zu,sil,ta,fo,cho,sil1,be,la,sil2,['catch'],[0.5444999999999709],[0.5444999999999709],0.0,beat,0.5444999999999709,0.5444999999999709,"[""space""]",ro,3,,,,,,,,,,,,,,,3.0,2.0,Castellano,0.0,Catalán,0.0,Inglés,3.0,4.0,5.0,yes,yes,yes,Saxofón,8,,,Nada,73.0,yes
104,2024-04-09_21h39.58.249,Experiment4_uns,s160,23.0,feminino,right,España,CastelloCatalán,Upper secondary,no,no,A,1,what,L1,unsyncopated,s2,r2,104,Online_whatL1//d.ne.ni6.none.none.wav,fa,fo,ri,sil,ta,lu,zu,sil1,be,ro,sil2,['-'],,,none,none,,,,ne,4,,,,,,,,,,,,,,,3.0,2.0,Castellano,0.0,Catalán,0.0,Inglés,3.0,4.0,5.0,yes,yes,yes,Saxofón,8,,,Nada,73.0,yes
105,2024-04-09_21h39.58.249,Experiment4_uns,s160,23.0,feminino,right,España,CastelloCatalán,Upper secondary,no,no,A,1,what,L1,unsyncopated,s1,r2,105,Online_whatL1//d.ne.ni4.none.none.wav,ta,cho,lu,sil,be,fa,zu,sil1,ro,ze,sil2,['-'],,,none,none,,,,ne,4,,,,,,,,,,,,,,,3.0,2.0,Castellano,0.0,Catalán,0.0,Inglés,3.0,4.0,5.0,yes,yes,yes,Saxofón,8,,,Nada,73.0,yes
106,2024-04-09_21h39.58.249,Experiment4_uns,s160,23.0,feminino,right,España,CastelloCatalán,Upper secondary,no,no,A,1,what,L1,unsyncopated,s2,r2,106,Online_whatL1//d.ne.ni7.none.none.wav,ze,lu,fa,sil,ta,cho,ri,sil1,be,ro,sil2,['-'],,,none,none,,,,ne,4,,,,,,,,,,,,,,,3.0,2.0,Castellano,0.0,Catalán,0.0,Inglés,3.0,4.0,5.0,yes,yes,yes,Saxofón,8,,,Nada,73.0,yes
107,2024-04-09_21h39.58.249,Experiment4_uns,s160,23.0,feminino,right,España,CastelloCatalán,Upper secondary,no,no,A,1,what,L1,unsyncopated,s1,r1,107,Online_whatL1//d.ne.ni5.none.none.wav,pu,cho,fo,sil,ki,zu,ro,sil2,fa,la,sil1,['-'],,,none,none,,,,ne,4,,,,,,,,,,,,,,,3.0,2.0,Castellano,0.0,Catalán,0.0,Inglés,3.0,4.0,5.0,yes,yes,yes,Saxofón,8,,,Nada,73.0,yes
108,2024-04-09_21h39.58.249,Experiment4_uns,s160,23.0,feminino,right,España,CastelloCatalán,Upper secondary,no,no,A,1,what,L1,unsyncopated,s1,r2,108,Online_whatL1//c.ro.fo0.none.none.wav,ta,lu,ri,sil,be,ze,zu,sil2,ni,la,sil1,['-'],,,none,none,,,,ro,3,,,,,,,,,,,,,,,3.0,2.0,Castellano,0.0,Catalán,0.0,Inglés,3.0,4.0,5.0,yes,yes,yes,Saxofón,8,,,Nada,73.0,yes
109,2024-04-09_21h39.58.249,Experiment4_uns,s160,23.0,feminino,right,España,CastelloCatalán,Upper secondary,no,no,A,1,what,L1,unsyncopated,s1,r1,109,Online_whatL1//c.ro.fo3.1998.444.wav,pu,lu,fo,sil,ki,cho,fa,sil2,ro,ni,sil1,['catch'],[2.4299000000060005],[2.4299000000060005],1.998,no_beat,0.4319000000060005,0.4319000000060005,"[""space""]",ro,3,,,,,,,,,,,,,,,3.0,2.0,Castellano,0.0,Catalán,0.0,Inglés,3.0,4.0,5.0,yes,yes,yes,Saxofón,8,,,Nada,73.0,yes
110,2024-04-09_21h39.58.249,Experiment4_uns,s160,23.0,feminino,right,España,CastelloCatalán,Upper secondary,no,no,A,1,what,L1,unsyncopated,s2,r2,110,Online_whatL1//c.ro.fo1.0.444.wav,ro,zu,fo,sil2,ta,ri,ne,sil,be,fa,sil1,['catch'],[0.7578999999986991],[0.7578999999986991],0.0,beat,0.7578999999986991,0.7578999999986991,"[""space""]",ro,3,,,,,,,,,,,,,,,3.0,2.0,Castellano,0.0,Catalán,0.0,Inglés,3.0,4.0,5.0,yes,yes,yes,Saxofón,8,,,Nada,73.0,yes
111,2024-04-09_21h39.58.249,Experiment4_uns,s160,23.0,feminino,right,España,CastelloCatalán,Upper secondary,no,no,A,1,what,L1,unsyncopated,s1,r2,111,Online_whatL1//c.ro.fo2.none.none.wav,ta,fa,ze,sil,be,ri,lu,sil1,ni,la,sil2,['-'],,,none,none,,,,ro,3,,,,,,,,,,,,,,,3.0,2.0,Castellano,0.0,Catalán,0.0,Inglés,3.0,4.0,5.0,yes,yes,yes,Saxofón,8,,,Nada,73.0,yes
112,2024-04-09_21h39.58.249,Experiment4_uns,s160,23.0,feminino,right,España,CastelloCatalán,Upper secondary,no,no,A,1,what,L1,unsyncopated,s1,r2,112,Online_whatL1//a.pu.ki23.none.none.wav,ta,ne,la,sil2,be,fo,lu,sil,cho,ze,sil1,['-'],,,none,none,,,,ki,2,,,,,,,,,,,,,,,3.0,2.0,Castellano,0.0,Catalán,0.0,Inglés,3.0,4.0,5.0,yes,yes,yes,Saxofón,8,,,Nada,73.0,yes
113,2024-04-09_21h39.58.249,Experiment4_uns,s160,23.0,feminino,right,España,CastelloCatalán,Upper secondary,no,no,A,1,what,L1,unsyncopated,s1,r2,113,Online_whatL1//a.pu.ki22.none.none.wav,ta,ne,cho,sil2,be,ro,lu,sil,fa,fo,sil1,['-'],,,none,none,,,,ki,2,,,,,,,,,,,,,,,3.0,2.0,Castellano,0.0,Catalán,0.0,Inglés,3.0,4.0,5.0,yes,yes,yes,Saxofón,8,,,Nada,73.0,yes
114,2024-04-09_21h39.58.249,Experiment4_uns,s160,23.0,feminino,right,España,CastelloCatalán,Upper secondary,no,no,A,1,what,L1,unsyncopated,s2,r2,114,Online_whatL1//a.pu.ki21.none.none.wav,ze,fo,ri,sil,ta,lu,cho,sil2,be,la,sil1,['-'],,,none,none,,,,ki,2,,,,,,,,,,,,,,,3.0,2.0,Castellano,0.0,Catalán,0.0,Inglés,3.0,4.0,5.0,yes,yes,yes,Saxofón,8,,,Nada,73.0,yes
115,2024-04-09_21h39.58.249,Experiment4_uns,s160,23.0,feminino,right,España,CastelloCatalán,Upper secondary,no,no,A,1,what,L1,unsyncopated,s1,r1,115,Online_whatL1//a.pu.ki20.0.888.wav,pu,ze,ni,sil,ki,la,ne,sil2,zu,ro,sil1,['catch'],[1.3592000000030566],[1.3592000000030566],0.888,beat,0.4712000000030566,0.4712000000030566,"[""space""]",ki,2,,,,,,,,,,,,,,,3.0,2.0,Castellano,0.0,Catalán,0.0,Inglés,3.0,4.0,5.0,yes,yes,yes,Saxofón,8,,,Nada,73.0,yes
116,2024-04-09_21h39.58.249,Experiment4_uns,s160,23.0,feminino,right,España,CastelloCatalán,Upper secondary,no,no,A,1,what,L1,unsyncopated,s2,r1,116,Online_whatL1//c.ro.fo6.none.none.wav,la,ri,cho,sil,pu,ne,ni,sil1,ki,fa,sil2,['-'],,,none,none,,,,ro,3,,,,,,,,,,,,,,,3.0,2.0,Castellano,0.0,Catalán,0.0,Inglés,3.0,4.0,5.0,yes,yes,yes,Saxofón,8,,,Nada,73.0,yes
117,2024-04-09_21h39.58.249,Experiment4_uns,s160,23.0,feminino,right,España,CastelloCatalán,Upper secondary,no,no,A,1,what,L1,unsyncopated,s1,r1,117,Online_whatL1//c.ro.fo4.none.none.wav,pu,lu,fa,sil2,ki,la,zu,sil,cho,ze,sil1,['-'],,,none,none,,,,ro,3,,,,,,,,,,,,,,,3.0,2.0,Castellano,0.0,Catalán,0.0,Inglés,3.0,4.0,5.0,yes,yes,yes,Saxofón,8,,,Nada,73.0,yes
118,2024-04-09_21h39.58.249,Experiment4_uns,s160,23.0,feminino,right,España,CastelloCatalán,Upper secondary,no,no,A,1,what,L1,unsyncopated,s2,r2,118,Online_whatL1//c.ro.fo7.none.none.wav,ri,lu,ni,sil2,ta,la,ne,sil,be,ze,sil1,['-'],,,none,none,,,,ro,3,,,,,,,,,,,,,,,3.0,2.0,Castellano,0.0,Catalán,0.0,Inglés,3.0,4.0,5.0,yes,yes,yes,Saxofón,8,,,Nada,73.0,yes
119,2024-04-09_21h39.58.249,Experiment4_uns,s160,23.0,feminino,right,España,CastelloCatalán,Upper secondary,no,no,A,1,what,L1,unsyncopated,s1,r2,119,Online_whatL1//c.ro.fo5.none.none.wav,ta,ze,lu,sil,be,ne,zu,sil2,ri,ni,sil1,['-'],,,none,none,,,,ro,3,,,,,,,,,,,,,,,3.0,2.0,Castellano,0.0,Catalán,0.0,Inglés,3.0,4.0,5.0,yes,yes,yes,Saxofón,8,,,Nada,73.0,yes
120,2024-04-09_21h39.58.249,Experiment4_uns,s160,23.0,feminino,right,España,CastelloCatalán,Upper secondary,no,no,A,1,what,L1,unsyncopated,s2,r1,120,Online_whatL1//d.ne.ni10.none.none.wav,ri,fa,ro,sil2,pu,zu,ze,sil,ki,la,sil1,['-'],,,none,none,,,,ne,4,,,,,,,,,,,,,,,3.0,2.0,Castellano,0.0,Catalán,0.0,Inglés,3.0,4.0,5.0,yes,yes,yes,Saxofón,8,,,Nada,73.0,yes
121,2024-04-09_21h39.58.249,Experiment4_uns,s160,23.0,feminino,right,España,CastelloCatalán,Upper secondary,no,no,A,1,what,L1,unsyncopated,s1,r1,121,Online_whatL1//d.ne.ni9.222.444.wav,pu,ne,ni,sil,ki,fa,zu,sil2,fo,ro,sil1,['miss'],,,0.222,no_beat,,,,ne,4,,,,,,,,,,,,,,,3.0,2.0,Castellano,0.0,Catalán,0.0,Inglés,3.0,4.0,5.0,yes,yes,yes,Saxofón,8,,,Nada,73.0,yes
122,2024-04-09_21h39.58.249,Experiment4_uns,s160,23.0,feminino,right,España,CastelloCatalán,Upper secondary,no,no,A,1,what,L1,unsyncopated,s2,r1,122,Online_whatL1//d.ne.ni8.none.none.wav,lu,fa,la,sil,pu,cho,ze,sil2,ki,fo,sil1,['-'],,,none,none,,,,ne,4,,,,,,,,,,,,,,,3.0,2.0,Castellano,0.0,Catalán,0.0,Inglés,3.0,4.0,5.0,yes,yes,yes,Saxofón,8,,,Nada,73.0,yes
123,2024-04-09_21h39.58.249,Experiment4_uns,s160,23.0,feminino,right,España,CastelloCatalán,Upper secondary,no,no,A,1,what,L1,unsyncopated,s2,r2,123,Online_whatL1//d.ne.ni11.none.none.wav,lu,fa,ze,sil,ta,ri,la,sil1,be,fo,sil2,['-'],,,none,none,,,,ne,4,,,,,,,,,,,,,,,3.0,2.0,Castellano,0.0,Catalán,0.0,Inglés,3.0,4.0,5.0,yes,yes,yes,Saxofón,8,,,Nada,73.0,yes
124,2024-04-09_21h39.58.249,Experiment4_uns,s160,23.0,feminino,right,España,CastelloCatalán,Upper secondary,no,no,A,1,what,L1,unsyncopated,s1,r2,124,Online_whatL1//b.ta.be20.0.888.wav,ta,ro,ne,sil,be,la,cho,sil1,lu,ri,sil2,['miss'],,,0.0,beat,,,,ta,1,,,,,,,,,,,,,,,3.0,2.0,Castellano,0.0,Catalán,0.0,Inglés,3.0,4.0,5.0,yes,yes,yes,Saxofón,8,,,Nada,73.0,yes
125,2024-04-09_21h39.58.249,Experiment4_uns,s160,23.0,feminino,right,España,CastelloCatalán,Upper secondary,no,no,A,1,what,L1,unsyncopated,s2,r2,125,Online_whatL1//b.ta.be21.1110.1998.wav,fa,ri,zu,sil2,ta,lu,ne,sil,be,la,sil1,['catch'],[1.7002000000029511],[1.7002000000029511],1.11,no_beat,0.590200000002951,0.590200000002951,"[""space""]",ta,1,,,,,,,,,,,,,,,3.0,2.0,Castellano,0.0,Catalán,0.0,Inglés,3.0,4.0,5.0,yes,yes,yes,Saxofón,8,,,Nada,73.0,yes
126,2024-04-09_21h39.58.249,Experiment4_uns,s160,23.0,feminino,right,España,CastelloCatalán,Upper secondary,no,no,A,1,what,L1,unsyncopated,s1,r2,126,Online_whatL1//b.ta.be22.0.888.wav,ta,ze,lu,sil,be,fo,la,sil2,cho,zu,sil1,['catch'],[0.5590000000001965],[0.5590000000001965],0.0,beat,0.5590000000001965,0.5590000000001965,"[""space""]",ta,1,,,,,,,,,,,,,,,3.0,2.0,Castellano,0.0,Catalán,0.0,Inglés,3.0,4.0,5.0,yes,yes,yes,Saxofón,8,,,Nada,73.0,yes
127,2024-04-09_21h39.58.249,Experiment4_uns,s160,23.0,feminino,right,España,CastelloCatalán,Upper secondary,no,no,A,1,what,L1,unsyncopated,s1,r1,127,Online_whatL1//b.ta.be23.none.none.wav,pu,zu,ri,sil,ki,ni,fa,sil1,lu,cho,sil2,['-'],,,none,none,,,,ta,1,,,,,,,,,,,,,,,3.0,2.0,Castellano,0.0,Catalán,0.0,Inglés,3.0,4.0,5.0,yes,yes,yes,Saxofón,8,,,Nada,73.0,yes
128,2024-04-09_21h39.58.249,Experiment4_uns,s160,23.0,feminino,right,España,CastelloCatalán,Upper secondary,no,no,A,2,when,L2,unsyncopated,when,when,0,Online_whenL2//c.cha14.none.wav,go,te,ñu,sil,mi,bi,ba,sil1,ño,du,sil2,['-'],,,none,none,,,,cha,3,,,,,,,,,,,,,,,3.0,2.0,Castellano,0.0,Catalán,0.0,Inglés,3.0,4.0,5.0,yes,yes,yes,Saxofón,8,,,Nada,73.0,yes
129,2024-04-09_21h39.58.249,Experiment4_uns,s160,23.0,feminino,right,España,CastelloCatalán,Upper secondary,no,no,A,2,when,L2,unsyncopated,when,when,1,Online_whenL2//c.cha13.888.wav,te,me,ba,sil,cha,bi,si,sil1,fe,du,sil2,['catch'],[1.48050000000012],[1.48050000000012],0.888,beat,0.59250000000012,0.59250000000012,"[""space""]",cha,3,,,,,,,,,,,,,,,3.0,2.0,Castellano,0.0,Catalán,0.0,Inglés,3.0,4.0,5.0,yes,yes,yes,Saxofón,8,,,Nada,73.0,yes
130,2024-04-09_21h39.58.249,Experiment4_uns,s160,23.0,feminino,right,España,CastelloCatalán,Upper secondary,no,no,A,2,when,L2,unsyncopated,when,when,2,Online_whenL2//c.cha12.444.wav,du,ba,cha,sil,te,bi,ño,sil1,ñu,fe,sil2,['catch'],[0.9907000000030166],[0.9907000000030166],0.444,no_beat,0.5467000000030167,0.5467000000030167,"[""space""]",cha,3,,,,,,,,,,,,,,,3.0,2.0,Castellano,0.0,Catalán,0.0,Inglés,3.0,4.0,5.0,yes,yes,yes,Saxofón,8,,,Nada,73.0,yes
131,2024-04-09_21h39.58.249,Experiment4_uns,s160,23.0,feminino,right,España,CastelloCatalán,Upper secondary,no,no,A,2,when,L2,unsyncopated,when,when,3,Online_whenL2//c.cha15.none.wav,si,su,ñu,sil,mi,ba,ra,sil1,to,go,sil2,['-'],,,none,none,,,,cha,3,,,,,,,,,,,,,,,3.0,2.0,Castellano,0.0,Catalán,0.0,Inglés,3.0,4.0,5.0,yes,yes,yes,Saxofón,8,,,Nada,73.0,yes
132,2024-04-09_21h39.58.249,Experiment4_uns,s160,23.0,feminino,right,España,CastelloCatalán,Upper secondary,no,no,A,2,when,L2,unsyncopated,when,when,4,Online_whenL2//a.du17.none.wav,ra,go,su,sil,me,si,cha,sil1,bi,te,sil2,['-'],,,none,none,,,,du,2,,,,,,,,,,,,,,,3.0,2.0,Castellano,0.0,Catalán,0.0,Inglés,3.0,4.0,5.0,yes,yes,yes,Saxofón,8,,,Nada,73.0,yes
133,2024-04-09_21h39.58.249,Experiment4_uns,s160,23.0,feminino,right,España,CastelloCatalán,Upper secondary,no,no,A,2,when,L2,unsyncopated,when,when,5,Online_whenL2//a.du16.none.wav,ñu,te,to,sil,su,me,si,sil1,ra,fe,sil2,['-'],,,none,none,,,,du,2,,,,,,,,,,,,,,,3.0,2.0,Castellano,0.0,Catalán,0.0,Inglés,3.0,4.0,5.0,yes,yes,yes,Saxofón,8,,,Nada,73.0,yes
134,2024-04-09_21h39.58.249,Experiment4_uns,s160,23.0,feminino,right,España,CastelloCatalán,Upper secondary,no,no,A,2,when,L2,unsyncopated,when,when,6,Online_whenL2//a.du19.none.wav,su,ñu,to,sil,bi,fe,me,sil1,ño,go,sil2,['-'],,,none,none,,,,du,2,,,,,,,,,,,,,,,3.0,2.0,Castellano,0.0,Catalán,0.0,Inglés,3.0,4.0,5.0,yes,yes,yes,Saxofón,8,,,Nada,73.0,yes
135,2024-04-09_21h39.58.249,Experiment4_uns,s160,23.0,feminino,right,España,CastelloCatalán,Upper secondary,no,no,A,2,when,L2,unsyncopated,when,when,7,Online_whenL2//a.du18.none.wav,go,fe,te,sil,si,cha,ba,sil1,ño,to,sil2,['-'],,,none,none,,,,du,2,,,,,,,,,,,,,,,3.0,2.0,Castellano,0.0,Catalán,0.0,Inglés,3.0,4.0,5.0,yes,yes,yes,Saxofón,8,,,Nada,73.0,yes
136,2024-04-09_21h39.58.249,Experiment4_uns,s160,23.0,feminino,right,España,CastelloCatalán,Upper secondary,no,no,A,2,when,L2,unsyncopated,when,when,8,Online_whenL2//c.cha29.444.wav,go,du,cha,sil,me,ba,su,sil1,ñu,bi,sil2,['catch'],[0.8367000000030203],[0.8367000000030203],0.444,no_beat,0.3927000000030202,0.3927000000030202,"[""space""]",cha,3,,,,,,,,,,,,,,,3.0,2.0,Castellano,0.0,Catalán,0.0,Inglés,3.0,4.0,5.0,yes,yes,yes,Saxofón,8,,,Nada,73.0,yes
137,2024-04-09_21h39.58.249,Experiment4_uns,s160,23.0,feminino,right,España,CastelloCatalán,Upper secondary,no,no,A,2,when,L2,unsyncopated,when,when,9,Online_whenL2//c.cha28.0.wav,cha,fe,to,sil,ba,ñu,me,sil1,go,te,sil2,['catch'],[0.8788999999985663],[0.8788999999985663],0.0,beat,0.8788999999985663,0.8788999999985663,"[""space""]",cha,3,,,,,,,,,,,,,,,3.0,2.0,Castellano,0.0,Catalán,0.0,Inglés,3.0,4.0,5.0,yes,yes,yes,Saxofón,8,,,Nada,73.0,yes
138,2024-04-09_21h39.58.249,Experiment4_uns,s160,23.0,feminino,right,España,CastelloCatalán,Upper secondary,no,no,A,2,when,L2,unsyncopated,when,when,10,Online_whenL2//c.cha30.none.wav,te,mi,to,sil,me,go,si,sil1,ño,du,sil2,['-'],,,none,none,,,,cha,3,,,,,,,,,,,,,,,3.0,2.0,Castellano,0.0,Catalán,0.0,Inglés,3.0,4.0,5.0,yes,yes,yes,Saxofón,8,,,Nada,73.0,yes
139,2024-04-09_21h39.58.249,Experiment4_uns,s160,23.0,feminino,right,España,CastelloCatalán,Upper secondary,no,no,A,2,when,L2,unsyncopated,when,when,11,Online_whenL2//c.cha31.none.wav,to,te,ñu,sil,bi,du,su,sil1,fe,me,sil2,['-'],,,none,none,,,,cha,3,,,,,,,,,,,,,,,3.0,2.0,Castellano,0.0,Catalán,0.0,Inglés,3.0,4.0,5.0,yes,yes,yes,Saxofón,8,,,Nada,73.0,yes
140,2024-04-09_21h39.58.249,Experiment4_uns,s160,23.0,feminino,right,España,CastelloCatalán,Upper secondary,no,no,A,2,when,L2,unsyncopated,when,when,12,Online_whenL2//b.fe3.1110.wav,me,mi,ñu,sil,bi,fe,si,sil1,to,go,sil2,['catch'],[1.7828999999985626],[1.7828999999985626],1.11,no_beat,0.6728999999985625,0.6728999999985625,"[""space""]",fe,1,,,,,,,,,,,,,,,3.0,2.0,Castellano,0.0,Catalán,0.0,Inglés,3.0,4.0,5.0,yes,yes,yes,Saxofón,8,,,Nada,73.0,yes
141,2024-04-09_21h39.58.249,Experiment4_uns,s160,23.0,feminino,right,España,CastelloCatalán,Upper secondary,no,no,A,2,when,L2,unsyncopated,when,when,13,Online_whenL2//b.fe1.none.wav,du,te,ba,sil,ra,mi,cha,sil1,ñu,to,sil2,['-'],,,none,none,,,,fe,1,,,,,,,,,,,,,,,3.0,2.0,Castellano,0.0,Catalán,0.0,Inglés,3.0,4.0,5.0,yes,yes,yes,Saxofón,8,,,Nada,73.0,yes
142,2024-04-09_21h39.58.249,Experiment4_uns,s160,23.0,feminino,right,España,CastelloCatalán,Upper secondary,no,no,A,2,when,L2,unsyncopated,when,when,14,Online_whenL2//b.fe0.none.wav,te,go,to,sil,si,ra,ño,sil1,cha,su,sil2,['-'],,,none,none,,,,fe,1,,,,,,,,,,,,,,,3.0,2.0,Castellano,0.0,Catalán,0.0,Inglés,3.0,4.0,5.0,yes,yes,yes,Saxofón,8,,,Nada,73.0,yes
143,2024-04-09_21h39.58.249,Experiment4_uns,s160,23.0,feminino,right,España,CastelloCatalán,Upper secondary,no,no,A,2,when,L2,unsyncopated,when,when,15,Online_whenL2//b.fe2.1332.wav,ñu,bi,mi,sil,ra,cha,fe,sil1,ba,si,sil2,['catch'],[1.7791000000013355],[1.7791000000013355],1.332,no_beat,0.4471000000013354,0.4471000000013354,"[""space""]",fe,1,,,,,,,,,,,,,,,3.0,2.0,Castellano,0.0,Catalán,0.0,Inglés,3.0,4.0,5.0,yes,yes,yes,Saxofón,8,,,Nada,73.0,yes
144,2024-04-09_21h39.58.249,Experiment4_uns,s160,23.0,feminino,right,España,CastelloCatalán,Upper secondary,no,no,A,2,when,L2,unsyncopated,when,when,16,Online_whenL2//b.fe35.1998.wav,ra,su,si,sil,to,ba,bi,sil1,me,fe,sil2,['catch'],[2.533200000003035],[2.533200000003035],1.998,no_beat,0.5352000000030348,0.5352000000030348,"[""space""]",fe,1,,,,,,,,,,,,,,,3.0,2.0,Castellano,0.0,Catalán,0.0,Inglés,3.0,4.0,5.0,yes,yes,yes,Saxofón,8,,,Nada,73.0,yes
145,2024-04-09_21h39.58.249,Experiment4_uns,s160,23.0,feminino,right,España,CastelloCatalán,Upper secondary,no,no,A,2,when,L2,unsyncopated,when,when,17,Online_whenL2//b.fe32.222.wav,ño,fe,te,sil,ñu,bi,su,sil1,mi,go,sil2,['miss'],,,0.222,no_beat,,,,fe,1,,,,,,,,,,,,,,,3.0,2.0,Castellano,0.0,Catalán,0.0,Inglés,3.0,4.0,5.0,yes,yes,yes,Saxofón,8,,,Nada,73.0,yes
146,2024-04-09_21h39.58.249,Experiment4_uns,s160,23.0,feminino,right,España,CastelloCatalán,Upper secondary,no,no,A,2,when,L2,unsyncopated,when,when,18,Online_whenL2//b.fe34.1776.wav,si,go,mi,sil,ba,ñu,me,sil1,fe,ño,sil2,['catch'],[2.2583000000045104],[2.2583000000045104],1.776,beat,0.4823000000045103,0.4823000000045103,"[""space""]",fe,1,,,,,,,,,,,,,,,3.0,2.0,Castellano,0.0,Catalán,0.0,Inglés,3.0,4.0,5.0,yes,yes,yes,Saxofón,8,,,Nada,73.0,yes
147,2024-04-09_21h39.58.249,Experiment4_uns,s160,23.0,feminino,right,España,CastelloCatalán,Upper secondary,no,no,A,2,when,L2,unsyncopated,when,when,19,Online_whenL2//b.fe33.none.wav,to,du,mi,sil,go,te,ñu,sil1,bi,me,sil2,['-'],,,none,none,,,,fe,1,,,,,,,,,,,,,,,3.0,2.0,Castellano,0.0,Catalán,0.0,Inglés,3.0,4.0,5.0,yes,yes,yes,Saxofón,8,,,Nada,73.0,yes
148,2024-04-09_21h39.58.249,Experiment4_uns,s160,23.0,feminino,right,España,CastelloCatalán,Upper secondary,no,no,A,2,when,L2,unsyncopated,when,when,20,Online_whenL2//c.cha1.1332.wav,bi,ba,te,sil,me,ñu,cha,sil1,go,fe,sil2,['catch'],[1.6843000000044412],[1.6843000000044412],1.332,no_beat,0.3523000000044411,0.3523000000044411,"[""space""]",cha,3,,,,,,,,,,,,,,,3.0,2.0,Castellano,0.0,Catalán,0.0,Inglés,3.0,4.0,5.0,yes,yes,yes,Saxofón,8,,,Nada,73.0,yes
149,2024-04-09_21h39.58.249,Experiment4_uns,s160,23.0,feminino,right,España,CastelloCatalán,Upper secondary,no,no,A,2,when,L2,unsyncopated,when,when,21,Online_whenL2//c.cha0.1332.wav,mi,ñu,bi,sil,fe,to,cha,sil1,ra,su,sil2,['catch'],[1.6949999999999363],[1.6949999999999363],1.332,no_beat,0.3629999999999362,0.3629999999999362,"[""space""]",cha,3,,,,,,,,,,,,,,,3.0,2.0,Castellano,0.0,Catalán,0.0,Inglés,3.0,4.0,5.0,yes,yes,yes,Saxofón,8,,,Nada,73.0,yes
150,2024-04-09_21h39.58.249,Experiment4_uns,s160,23.0,feminino,right,España,CastelloCatalán,Upper secondary,no,no,A,2,when,L2,unsyncopated,when,when,22,Online_whenL2//c.cha2.none.wav,si,me,ra,sil,bi,te,ño,sil1,go,to,sil2,['-'],,,none,none,,,,cha,3,,,,,,,,,,,,,,,3.0,2.0,Castellano,0.0,Catalán,0.0,Inglés,3.0,4.0,5.0,yes,yes,yes,Saxofón,8,,,Nada,73.0,yes
151,2024-04-09_21h39.58.249,Experiment4_uns,s160,23.0,feminino,right,España,CastelloCatalán,Upper secondary,no,no,A,2,when,L2,unsyncopated,when,when,23,Online_whenL2//c.cha3.1998.wav,te,to,bi,sil,du,ra,ño,sil1,su,cha,sil2,['catch'],[2.3798000000044794],[2.3798000000044794],1.998,no_beat,0.3818000000044794,0.3818000000044794,"[""space""]",cha,3,,,,,,,,,,,,,,,3.0,2.0,Castellano,0.0,Catalán,0.0,Inglés,3.0,4.0,5.0,yes,yes,yes,Saxofón,8,,,Nada,73.0,yes
152,2024-04-09_21h39.58.249,Experiment4_uns,s160,23.0,feminino,right,España,CastelloCatalán,Upper secondary,no,no,A,2,when,L2,unsyncopated,when,when,24,Online_whenL2//a.du0.888.wav,ñu,ba,ra,sil,du,su,ño,sil1,cha,te,sil2,['catch'],[1.3650999999940723],[1.3650999999940723],0.888,beat,0.4770999999940722,0.4770999999940722,"[""space""]",du,2,,,,,,,,,,,,,,,3.0,2.0,Castellano,0.0,Catalán,0.0,Inglés,3.0,4.0,5.0,yes,yes,yes,Saxofón,8,,,Nada,73.0,yes
153,2024-04-09_21h39.58.249,Experiment4_uns,s160,23.0,feminino,right,España,CastelloCatalán,Upper secondary,no,no,A,2,when,L2,unsyncopated,when,when,25,Online_whenL2//a.du1.none.wav,bi,si,fe,sil,mi,ra,ba,sil1,su,me,sil2,['-'],,,none,none,,,,du,2,,,,,,,,,,,,,,,3.0,2.0,Castellano,0.0,Catalán,0.0,Inglés,3.0,4.0,5.0,yes,yes,yes,Saxofón,8,,,Nada,73.0,yes
154,2024-04-09_21h39.58.249,Experiment4_uns,s160,23.0,feminino,right,España,CastelloCatalán,Upper secondary,no,no,A,2,when,L2,unsyncopated,when,when,26,Online_whenL2//a.du3.none.wav,me,mi,te,sil,cha,go,ñu,sil1,fe,si,sil2,['-'],,,none,none,,,,du,2,,,,,,,,,,,,,,,3.0,2.0,Castellano,0.0,Catalán,0.0,Inglés,3.0,4.0,5.0,yes,yes,yes,Saxofón,8,,,Nada,73.0,yes
155,2024-04-09_21h39.58.249,Experiment4_uns,s160,23.0,feminino,right,España,CastelloCatalán,Upper secondary,no,no,A,2,when,L2,unsyncopated,when,when,27,Online_whenL2//a.du2.0.wav,du,me,si,sil,mi,to,go,sil1,cha,bi,sil2,['catch'],[0.5149999999998727],[0.5149999999998727],0.0,beat,0.5149999999998727,0.5149999999998727,"[""space""]",du,2,,,,,,,,,,,,,,,3.0,2.0,Castellano,0.0,Catalán,0.0,Inglés,3.0,4.0,5.0,yes,yes,yes,Saxofón,8,,,Nada,73.0,yes
156,2024-04-09_21h39.58.249,Experiment4_uns,s160,23.0,feminino,right,España,CastelloCatalán,Upper secondary,no,no,A,2,when,L2,unsyncopated,when,when,28,Online_whenL2//d.si20.1998.wav,ba,mi,ñu,sil,cha,to,go,sil1,ra,si,sil2,['catch'],[2.4647000000029493],[2.4647000000029493],1.998,no_beat,0.4667000000029493,0.4667000000029493,"[""space""]",si,4,,,,,,,,,,,,,,,3.0,2.0,Castellano,0.0,Catalán,0.0,Inglés,3.0,4.0,5.0,yes,yes,yes,Saxofón,8,,,Nada,73.0,yes
157,2024-04-09_21h39.58.249,Experiment4_uns,s160,23.0,feminino,right,España,CastelloCatalán,Upper secondary,no,no,A,2,when,L2,unsyncopated,when,when,29,Online_whenL2//d.si21.none.wav,te,me,bi,sil,go,ñu,to,sil1,ra,ño,sil2,['-'],,,none,none,,,,si,4,,,,,,,,,,,,,,,3.0,2.0,Castellano,0.0,Catalán,0.0,Inglés,3.0,4.0,5.0,yes,yes,yes,Saxofón,8,,,Nada,73.0,yes
158,2024-04-09_21h39.58.249,Experiment4_uns,s160,23.0,feminino,right,España,CastelloCatalán,Upper secondary,no,no,A,2,when,L2,unsyncopated,when,when,30,Online_whenL2//d.si22.none.wav,te,du,fe,sil,cha,su,ñu,sil1,me,ba,sil2,['-'],,,none,none,,,,si,4,,,,,,,,,,,,,,,3.0,2.0,Castellano,0.0,Catalán,0.0,Inglés,3.0,4.0,5.0,yes,yes,yes,Saxofón,8,,,Nada,73.0,yes
159,2024-04-09_21h39.58.249,Experiment4_uns,s160,23.0,feminino,right,España,CastelloCatalán,Upper secondary,no,no,A,2,when,L2,unsyncopated,when,when,31,Online_whenL2//d.si23.none.wav,to,mi,ba,sil,go,du,ñu,sil1,te,ño,sil2,['-'],,,none,none,,,,si,4,,,,,,,,,,,,,,,3.0,2.0,Castellano,0.0,Catalán,0.0,Inglés,3.0,4.0,5.0,yes,yes,yes,Saxofón,8,,,Nada,73.0,yes
160,2024-04-09_21h39.58.249,Experiment4_uns,s160,23.0,feminino,right,España,CastelloCatalán,Upper secondary,no,no,A,2,when,L2,unsyncopated,when,when,32,Online_whenL2//a.du7.0.wav,du,ño,te,sil,ñu,to,mi,sil1,su,fe,sil2,['catch'],[0.5528000000044813],[0.5528000000044813],0.0,beat,0.5528000000044813,0.5528000000044813,"[""space""]",du,2,,,,,,,,,,,,,,,3.0,2.0,Castellano,0.0,Catalán,0.0,Inglés,3.0,4.0,5.0,yes,yes,yes,Saxofón,8,,,Nada,73.0,yes
161,2024-04-09_21h39.58.249,Experiment4_uns,s160,23.0,feminino,right,España,CastelloCatalán,Upper secondary,no,no,A,2,when,L2,unsyncopated,when,when,33,Online_whenL2//a.du6.888.wav,me,si,bi,sil,du,mi,cha,sil1,te,fe,sil2,['catch'],[1.3771000000015192],[1.3771000000015192],0.888,beat,0.4891000000015192,0.4891000000015192,"[""space""]",du,2,,,,,,,,,,,,,,,3.0,2.0,Castellano,0.0,Catalán,0.0,Inglés,3.0,4.0,5.0,yes,yes,yes,Saxofón,8,,,Nada,73.0,yes
162,2024-04-09_21h39.58.249,Experiment4_uns,s160,23.0,feminino,right,España,CastelloCatalán,Upper secondary,no,no,A,2,when,L2,unsyncopated,when,when,34,Online_whenL2//a.du5.1110.wav,bi,ño,ra,sil,ba,du,mi,sil1,to,ñu,sil2,['catch'],[1.5929999999998472],[1.5929999999998472],1.11,no_beat,0.4829999999998471,0.4829999999998471,"[""space""]",du,2,,,,,,,,,,,,,,,3.0,2.0,Castellano,0.0,Catalán,0.0,Inglés,3.0,4.0,5.0,yes,yes,yes,Saxofón,8,,,Nada,73.0,yes
163,2024-04-09_21h39.58.249,Experiment4_uns,s160,23.0,feminino,right,España,CastelloCatalán,Upper secondary,no,no,A,2,when,L2,unsyncopated,when,when,35,Online_whenL2//a.du4.1998.wav,cha,si,go,sil,mi,ñu,me,sil1,su,du,sil2,['catch'],[2.4912000000031185],[2.4912000000031185],1.998,no_beat,0.4932000000031185,0.4932000000031185,"[""space""]",du,2,,,,,,,,,,,,,,,3.0,2.0,Castellano,0.0,Catalán,0.0,Inglés,3.0,4.0,5.0,yes,yes,yes,Saxofón,8,,,Nada,73.0,yes
164,2024-04-09_21h39.58.249,Experiment4_uns,s160,23.0,feminino,right,España,CastelloCatalán,Upper secondary,no,no,A,2,when,L2,unsyncopated,when,when,36,Online_whenL2//a.du25.444.wav,ñu,cha,du,sil,mi,su,si,sil1,go,me,sil2,['miss'],,,0.444,no_beat,,,,du,2,,,,,,,,,,,,,,,3.0,2.0,Castellano,0.0,Catalán,0.0,Inglés,3.0,4.0,5.0,yes,yes,yes,Saxofón,8,,,Nada,73.0,yes
165,2024-04-09_21h39.58.249,Experiment4_uns,s160,23.0,feminino,right,España,CastelloCatalán,Upper secondary,no,no,A,2,when,L2,unsyncopated,when,when,37,Online_whenL2//a.du26.none.wav,bi,ra,te,sil,ba,si,ño,sil1,go,to,sil2,['-'],,,none,none,,,,du,2,,,,,,,,,,,,,,,3.0,2.0,Castellano,0.0,Catalán,0.0,Inglés,3.0,4.0,5.0,yes,yes,yes,Saxofón,8,,,Nada,73.0,yes
166,2024-04-09_21h39.58.249,Experiment4_uns,s160,23.0,feminino,right,España,CastelloCatalán,Upper secondary,no,no,A,2,when,L2,unsyncopated,when,when,38,Online_whenL2//a.du27.none.wav,su,go,bi,sil,fe,to,ño,sil1,si,te,sil2,['-'],,,none,none,,,,du,2,,,,,,,,,,,,,,,3.0,2.0,Castellano,0.0,Catalán,0.0,Inglés,3.0,4.0,5.0,yes,yes,yes,Saxofón,8,,,Nada,73.0,yes
167,2024-04-09_21h39.58.249,Experiment4_uns,s160,23.0,feminino,right,España,CastelloCatalán,Upper secondary,no,no,A,2,when,L2,unsyncopated,when,when,39,Online_whenL2//a.du24.222.wav,me,du,to,sil,su,te,ra,sil1,bi,ñu,sil2,['catch'],[0.9269999999999072],[0.9269999999999072],0.222,no_beat,0.7049999999999073,0.7049999999999073,"[""space""]",du,2,,,,,,,,,,,,,,,3.0,2.0,Castellano,0.0,Catalán,0.0,Inglés,3.0,4.0,5.0,yes,yes,yes,Saxofón,8,,,Nada,73.0,yes
168,2024-04-09_21h39.58.249,Experiment4_uns,s160,23.0,feminino,right,España,CastelloCatalán,Upper secondary,no,no,A,2,when,L2,unsyncopated,when,when,40,Online_whenL2//b.fe15.none.wav,ño,su,to,sil,du,me,go,sil1,cha,mi,sil2,['-'],,,none,none,,,,fe,1,,,,,,,,,,,,,,,3.0,2.0,Castellano,0.0,Catalán,0.0,Inglés,3.0,4.0,5.0,yes,yes,yes,Saxofón,8,,,Nada,73.0,yes
169,2024-04-09_21h39.58.249,Experiment4_uns,s160,23.0,feminino,right,España,CastelloCatalán,Upper secondary,no,no,A,2,when,L2,unsyncopated,when,when,41,Online_whenL2//b.fe14.none.wav,ra,du,ba,sil,to,bi,su,sil1,te,ñu,sil2,['-'],,,none,none,,,,fe,1,,,,,,,,,,,,,,,3.0,2.0,Castellano,0.0,Catalán,0.0,Inglés,3.0,4.0,5.0,yes,yes,yes,Saxofón,8,,,Nada,73.0,yes
170,2024-04-09_21h39.58.249,Experiment4_uns,s160,23.0,feminino,right,España,CastelloCatalán,Upper secondary,no,no,A,2,when,L2,unsyncopated,when,when,42,Online_whenL2//b.fe13.none.wav,te,su,ra,sil,si,go,ba,sil1,me,mi,sil2,['-'],,,none,none,,,,fe,1,,,,,,,,,,,,,,,3.0,2.0,Castellano,0.0,Catalán,0.0,Inglés,3.0,4.0,5.0,yes,yes,yes,Saxofón,8,,,Nada,73.0,yes
171,2024-04-09_21h39.58.249,Experiment4_uns,s160,23.0,feminino,right,España,CastelloCatalán,Upper secondary,no,no,A,2,when,L2,unsyncopated,when,when,43,Online_whenL2//b.fe12.none.wav,su,si,te,sil,cha,go,ñu,sil1,to,du,sil2,['-'],,,none,none,,,,fe,1,,,,,,,,,,,,,,,3.0,2.0,Castellano,0.0,Catalán,0.0,Inglés,3.0,4.0,5.0,yes,yes,yes,Saxofón,8,,,Nada,73.0,yes
172,2024-04-09_21h39.58.249,Experiment4_uns,s160,23.0,feminino,right,España,CastelloCatalán,Upper secondary,no,no,A,2,when,L2,unsyncopated,when,when,44,Online_whenL2//d.si14.1332.wav,ba,te,bi,sil,go,su,si,sil1,du,ñu,sil2,['catch'],[1.8990000000001146],[1.8990000000001146],1.332,no_beat,0.5670000000001145,0.5670000000001145,"[""space""]",si,4,,,,,,,,,,,,,,,3.0,2.0,Castellano,0.0,Catalán,0.0,Inglés,3.0,4.0,5.0,yes,yes,yes,Saxofón,8,,,Nada,73.0,yes
173,2024-04-09_21h39.58.249,Experiment4_uns,s160,23.0,feminino,right,España,CastelloCatalán,Upper secondary,no,no,A,2,when,L2,unsyncopated,when,when,45,Online_whenL2//d.si12.1776.wav,mi,du,to,sil,go,ño,bi,sil1,si,cha,sil2,['catch'],[2.3295000000000528],[2.3295000000000528],1.776,beat,0.5535000000000527,0.5535000000000527,"[""space""]",si,4,,,,,,,,,,,,,,,3.0,2.0,Castellano,0.0,Catalán,0.0,Inglés,3.0,4.0,5.0,yes,yes,yes,Saxofón,8,,,Nada,73.0,yes
174,2024-04-09_21h39.58.249,Experiment4_uns,s160,23.0,feminino,right,España,CastelloCatalán,Upper secondary,no,no,A,2,when,L2,unsyncopated,when,when,46,Online_whenL2//d.si15.1332.wav,mi,ño,ba,sil,ra,fe,si,sil1,ñu,me,sil2,['catch'],[1.875200000003133],[1.875200000003133],1.332,no_beat,0.543200000003133,0.543200000003133,"[""space""]",si,4,,,,,,,,,,,,,,,3.0,2.0,Castellano,0.0,Catalán,0.0,Inglés,3.0,4.0,5.0,yes,yes,yes,Saxofón,8,,,Nada,73.0,yes
175,2024-04-09_21h39.58.249,Experiment4_uns,s160,23.0,feminino,right,España,CastelloCatalán,Upper secondary,no,no,A,2,when,L2,unsyncopated,when,when,47,Online_whenL2//d.si13.444.wav,go,ñu,si,sil,bi,to,ño,sil1,fe,mi,sil2,['catch'],[1.1576000000015938],[1.1576000000015938],0.444,no_beat,0.7136000000015938,0.7136000000015938,"[""space""]",si,4,,,,,,,,,,,,,,,3.0,2.0,Castellano,0.0,Catalán,0.0,Inglés,3.0,4.0,5.0,yes,yes,yes,Saxofón,8,,,Nada,73.0,yes
176,2024-04-09_21h39.58.249,Experiment4_uns,s160,23.0,feminino,right,España,CastelloCatalán,Upper secondary,no,no,A,2,when,L2,unsyncopated,when,when,48,Online_whenL2//a.du30.none.wav,fe,bi,to,sil,cha,su,ra,sil1,ño,ba,sil2,['-'],,,none,none,,,,du,2,,,,,,,,,,,,,,,3.0,2.0,Castellano,0.0,Catalán,0.0,Inglés,3.0,4.0,5.0,yes,yes,yes,Saxofón,8,,,Nada,73.0,yes
177,2024-04-09_21h39.58.249,Experiment4_uns,s160,23.0,feminino,right,España,CastelloCatalán,Upper secondary,no,no,A,2,when,L2,unsyncopated,when,when,49,Online_whenL2//a.du29.1998.wav,ra,ño,su,sil,bi,si,mi,sil1,me,du,sil2,['catch_delay'],[1.0571999999954789],[1.0571999999954789],1.998,no_beat,1.0571999999954789,1.0571999999954789,,du,2,,,,,,,,,,,,,,,3.0,2.0,Castellano,0.0,Catalán,0.0,Inglés,3.0,4.0,5.0,yes,yes,yes,Saxofón,8,,,Nada,73.0,yes
178,2024-04-09_21h39.58.249,Experiment4_uns,s160,23.0,feminino,right,España,CastelloCatalán,Upper secondary,no,no,A,2,when,L2,unsyncopated,when,when,50,Online_whenL2//a.du28.none.wav,ño,te,to,sil,go,ba,ra,sil1,su,bi,sil2,['-'],[0.3911999999954787],[0.3911999999954787],none,none,,,"[""space""]",du,2,,,,,,,,,,,,,,,3.0,2.0,Castellano,0.0,Catalán,0.0,Inglés,3.0,4.0,5.0,yes,yes,yes,Saxofón,8,,,Nada,73.0,yes
179,2024-04-09_21h39.58.249,Experiment4_uns,s160,23.0,feminino,right,España,CastelloCatalán,Upper secondary,no,no,A,2,when,L2,unsyncopated,when,when,51,Online_whenL2//a.du31.222.wav,ba,du,go,sil,to,si,cha,sil1,mi,bi,sil2,['catch'],[0.8969999999999345],[0.8969999999999345],0.222,no_beat,0.6749999999999345,0.6749999999999345,"[""space""]",du,2,,,,,,,,,,,,,,,3.0,2.0,Castellano,0.0,Catalán,0.0,Inglés,3.0,4.0,5.0,yes,yes,yes,Saxofón,8,,,Nada,73.0,yes
180,2024-04-09_21h39.58.249,Experiment4_uns,s160,23.0,feminino,right,España,CastelloCatalán,Upper secondary,no,no,A,2,when,L2,unsyncopated,when,when,52,Online_whenL2//c.cha19.1998.wav,go,si,du,sil,ñu,to,ba,sil1,te,cha,sil2,['catch'],[2.4151999999955933],[2.4151999999955933],1.998,no_beat,0.4171999999955933,0.4171999999955933,"[""space""]",cha,3,,,,,,,,,,,,,,,3.0,2.0,Castellano,0.0,Catalán,0.0,Inglés,3.0,4.0,5.0,yes,yes,yes,Saxofón,8,,,Nada,73.0,yes
181,2024-04-09_21h39.58.249,Experiment4_uns,s160,23.0,feminino,right,España,CastelloCatalán,Upper secondary,no,no,A,2,when,L2,unsyncopated,when,when,53,Online_whenL2//c.cha16.none.wav,te,su,to,sil,du,ra,me,sil1,si,mi,sil2,['-'],,,none,none,,,,cha,3,,,,,,,,,,,,,,,3.0,2.0,Castellano,0.0,Catalán,0.0,Inglés,3.0,4.0,5.0,yes,yes,yes,Saxofón,8,,,Nada,73.0,yes
182,2024-04-09_21h39.58.249,Experiment4_uns,s160,23.0,feminino,right,España,CastelloCatalán,Upper secondary,no,no,A,2,when,L2,unsyncopated,when,when,54,Online_whenL2//c.cha18.1776.wav,ra,ñu,ño,sil,si,to,te,sil1,cha,du,sil2,['catch'],[2.1802000000029693],[2.1802000000029693],1.776,beat,0.4042000000029693,0.4042000000029693,"[""space""]",cha,3,,,,,,,,,,,,,,,3.0,2.0,Castellano,0.0,Catalán,0.0,Inglés,3.0,4.0,5.0,yes,yes,yes,Saxofón,8,,,Nada,73.0,yes
183,2024-04-09_21h39.58.249,Experiment4_uns,s160,23.0,feminino,right,España,CastelloCatalán,Upper secondary,no,no,A,2,when,L2,unsyncopated,when,when,55,Online_whenL2//c.cha17.none.wav,te,ñu,su,sil,mi,go,me,sil1,ra,si,sil2,['-'],,,none,none,,,,cha,3,,,,,,,,,,,,,,,3.0,2.0,Castellano,0.0,Catalán,0.0,Inglés,3.0,4.0,5.0,yes,yes,yes,Saxofón,8,,,Nada,73.0,yes
184,2024-04-09_21h39.58.249,Experiment4_uns,s160,23.0,feminino,right,España,CastelloCatalán,Upper secondary,no,no,A,2,when,L2,unsyncopated,when,when,56,Online_whenL2//d.si27.1110.wav,fe,te,ñu,sil,ño,si,mi,sil1,me,go,sil2,['catch'],[1.5678000000045813],[1.5678000000045813],1.11,no_beat,0.4578000000045812,0.4578000000045812,"[""space""]",si,4,,,,,,,,,,,,,,,3.0,2.0,Castellano,0.0,Catalán,0.0,Inglés,3.0,4.0,5.0,yes,yes,yes,Saxofón,8,,,Nada,73.0,yes
185,2024-04-09_21h39.58.249,Experiment4_uns,s160,23.0,feminino,right,España,CastelloCatalán,Upper secondary,no,no,A,2,when,L2,unsyncopated,when,when,57,Online_whenL2//d.si25.none.wav,ño,ra,me,sil,to,go,te,sil1,su,mi,sil2,['-'],,,none,none,,,,si,4,,,,,,,,,,,,,,,3.0,2.0,Castellano,0.0,Catalán,0.0,Inglés,3.0,4.0,5.0,yes,yes,yes,Saxofón,8,,,Nada,73.0,yes
186,2024-04-09_21h39.58.249,Experiment4_uns,s160,23.0,feminino,right,España,CastelloCatalán,Upper secondary,no,no,A,2,when,L2,unsyncopated,when,when,58,Online_whenL2//d.si26.none.wav,ra,ño,cha,sil,to,su,bi,sil1,ñu,fe,sil2,['-'],,,none,none,,,,si,4,,,,,,,,,,,,,,,3.0,2.0,Castellano,0.0,Catalán,0.0,Inglés,3.0,4.0,5.0,yes,yes,yes,Saxofón,8,,,Nada,73.0,yes
187,2024-04-09_21h39.58.249,Experiment4_uns,s160,23.0,feminino,right,España,CastelloCatalán,Upper secondary,no,no,A,2,when,L2,unsyncopated,when,when,59,Online_whenL2//d.si24.1332.wav,me,du,bi,sil,ñu,cha,si,sil1,ra,su,sil2,['catch'],[1.961600000001681],[1.961600000001681],1.332,no_beat,0.629600000001681,0.629600000001681,"[""space""]",si,4,,,,,,,,,,,,,,,3.0,2.0,Castellano,0.0,Catalán,0.0,Inglés,3.0,4.0,5.0,yes,yes,yes,Saxofón,8,,,Nada,73.0,yes
188,2024-04-09_21h39.58.249,Experiment4_uns,s160,23.0,feminino,right,España,CastelloCatalán,Upper secondary,no,no,A,2,when,L2,unsyncopated,when,when,60,Online_whenL2//b.fe4.0.wav,fe,ra,ño,sil,to,ba,cha,sil1,si,te,sil2,['catch'],[0.6655000000000655],[0.6655000000000655],0.0,beat,0.6655000000000655,0.6655000000000655,"[""space""]",fe,1,,,,,,,,,,,,,,,3.0,2.0,Castellano,0.0,Catalán,0.0,Inglés,3.0,4.0,5.0,yes,yes,yes,Saxofón,8,,,Nada,73.0,yes
189,2024-04-09_21h39.58.249,Experiment4_uns,s160,23.0,feminino,right,España,CastelloCatalán,Upper secondary,no,no,A,2,when,L2,unsyncopated,when,when,61,Online_whenL2//b.fe5.1332.wav,si,cha,bi,sil,ñu,su,fe,sil1,ra,te,sil2,['catch'],[2.192799999997078],[2.192799999997078],1.332,no_beat,0.8607999999970779,0.8607999999970779,"[""space""]",fe,1,,,,,,,,,,,,,,,3.0,2.0,Castellano,0.0,Catalán,0.0,Inglés,3.0,4.0,5.0,yes,yes,yes,Saxofón,8,,,Nada,73.0,yes
190,2024-04-09_21h39.58.249,Experiment4_uns,s160,23.0,feminino,right,España,CastelloCatalán,Upper secondary,no,no,A,2,when,L2,unsyncopated,when,when,62,Online_whenL2//b.fe7.1998.wav,ba,si,du,sil,cha,ño,bi,sil1,mi,fe,sil2,['catch'],[2.5594999999998436],[2.5594999999998436],1.998,no_beat,0.5614999999998436,0.5614999999998436,"[""space""]",fe,1,,,,,,,,,,,,,,,3.0,2.0,Castellano,0.0,Catalán,0.0,Inglés,3.0,4.0,5.0,yes,yes,yes,Saxofón,8,,,Nada,73.0,yes
191,2024-04-09_21h39.58.249,Experiment4_uns,s160,23.0,feminino,right,España,CastelloCatalán,Upper secondary,no,no,A,2,when,L2,unsyncopated,when,when,63,Online_whenL2//b.fe6.1998.wav,du,su,ñu,sil,cha,ba,to,sil1,te,fe,sil2,['miss'],,,1.998,no_beat,,,,fe,1,,,,,,,,,,,,,,,3.0,2.0,Castellano,0.0,Catalán,0.0,Inglés,3.0,4.0,5.0,yes,yes,yes,Saxofón,8,,,Nada,73.0,yes
192,2024-04-09_21h39.58.249,Experiment4_uns,s160,23.0,feminino,right,España,CastelloCatalán,Upper secondary,no,no,A,2,when,L2,unsyncopated,when,when,64,Online_whenL2//c.cha25.888.wav,fe,ño,su,sil,cha,te,bi,sil1,me,ra,sil2,['catch'],[1.6325000000001637],[1.6325000000001637],0.888,beat,0.7445000000001637,0.7445000000001637,"[""space""]",cha,3,,,,,,,,,,,,,,,3.0,2.0,Castellano,0.0,Catalán,0.0,Inglés,3.0,4.0,5.0,yes,yes,yes,Saxofón,8,,,Nada,73.0,yes
193,2024-04-09_21h39.58.249,Experiment4_uns,s160,23.0,feminino,right,España,CastelloCatalán,Upper secondary,no,no,A,2,when,L2,unsyncopated,when,when,65,Online_whenL2//c.cha27.none.wav,bi,fe,mi,sil,te,ra,ño,sil1,to,ñu,sil2,['-'],,,none,none,,,,cha,3,,,,,,,,,,,,,,,3.0,2.0,Castellano,0.0,Catalán,0.0,Inglés,3.0,4.0,5.0,yes,yes,yes,Saxofón,8,,,Nada,73.0,yes
194,2024-04-09_21h39.58.249,Experiment4_uns,s160,23.0,feminino,right,España,CastelloCatalán,Upper secondary,no,no,A,2,when,L2,unsyncopated,when,when,66,Online_whenL2//c.cha26.0.wav,cha,to,ra,sil,go,ñu,ba,sil1,bi,te,sil2,['catch'],[0.5084999999999127],[0.5084999999999127],0.0,beat,0.5084999999999127,0.5084999999999127,"[""space""]",cha,3,,,,,,,,,,,,,,,3.0,2.0,Castellano,0.0,Catalán,0.0,Inglés,3.0,4.0,5.0,yes,yes,yes,Saxofón,8,,,Nada,73.0,yes
195,2024-04-09_21h39.58.249,Experiment4_uns,s160,23.0,feminino,right,España,CastelloCatalán,Upper secondary,no,no,A,2,when,L2,unsyncopated,when,when,67,Online_whenL2//c.cha24.444.wav,me,bi,cha,sil,su,ra,ño,sil1,to,fe,sil2,['catch'],[1.0915999999940595],[1.0915999999940595],0.444,no_beat,0.6475999999940596,0.6475999999940596,"[""space""]",cha,3,,,,,,,,,,,,,,,3.0,2.0,Castellano,0.0,Catalán,0.0,Inglés,3.0,4.0,5.0,yes,yes,yes,Saxofón,8,,,Nada,73.0,yes
196,2024-04-09_21h39.58.249,Experiment4_uns,s160,23.0,feminino,right,España,CastelloCatalán,Upper secondary,no,no,A,2,when,L2,unsyncopated,when,when,68,Online_whenL2//c.cha4.222.wav,bi,cha,ñu,sil,su,mi,du,sil1,si,fe,sil2,['miss'],,,0.222,no_beat,,,,cha,3,,,,,,,,,,,,,,,3.0,2.0,Castellano,0.0,Catalán,0.0,Inglés,3.0,4.0,5.0,yes,yes,yes,Saxofón,8,,,Nada,73.0,yes
197,2024-04-09_21h39.58.249,Experiment4_uns,s160,23.0,feminino,right,España,CastelloCatalán,Upper secondary,no,no,A,2,when,L2,unsyncopated,when,when,69,Online_whenL2//c.cha7.none.wav,ba,to,bi,sil,ño,du,si,sil1,mi,fe,sil2,['-'],,,none,none,,,,cha,3,,,,,,,,,,,,,,,3.0,2.0,Castellano,0.0,Catalán,0.0,Inglés,3.0,4.0,5.0,yes,yes,yes,Saxofón,8,,,Nada,73.0,yes
198,2024-04-09_21h39.58.249,Experiment4_uns,s160,23.0,feminino,right,España,CastelloCatalán,Upper secondary,no,no,A,2,when,L2,unsyncopated,when,when,70,Online_whenL2//c.cha5.none.wav,bi,mi,to,sil,su,fe,te,sil1,du,si,sil2,['-'],,,none,none,,,,cha,3,,,,,,,,,,,,,,,3.0,2.0,Castellano,0.0,Catalán,0.0,Inglés,3.0,4.0,5.0,yes,yes,yes,Saxofón,8,,,Nada,73.0,yes
199,2024-04-09_21h39.58.249,Experiment4_uns,s160,23.0,feminino,right,España,CastelloCatalán,Upper secondary,no,no,A,2,when,L2,unsyncopated,when,when,71,Online_whenL2//c.cha6.none.wav,ño,bi,su,sil,ñu,to,si,sil1,du,go,sil2,['-'],,,none,none,,,,cha,3,,,,,,,,,,,,,,,3.0,2.0,Castellano,0.0,Catalán,0.0,Inglés,3.0,4.0,5.0,yes,yes,yes,Saxofón,8,,,Nada,73.0,yes
200,2024-04-09_21h39.58.249,Experiment4_uns,s160,23.0,feminino,right,España,CastelloCatalán,Upper secondary,no,no,A,2,when,L2,unsyncopated,when,when,72,Online_whenL2//c.cha11.1998.wav,bi,te,ra,sil,si,su,ñu,sil1,go,cha,sil2,['catch'],[2.4664999999999964],[2.4664999999999964],1.998,no_beat,0.4684999999999963,0.4684999999999963,"[""space""]",cha,3,,,,,,,,,,,,,,,3.0,2.0,Castellano,0.0,Catalán,0.0,Inglés,3.0,4.0,5.0,yes,yes,yes,Saxofón,8,,,Nada,73.0,yes
201,2024-04-09_21h39.58.249,Experiment4_uns,s160,23.0,feminino,right,España,CastelloCatalán,Upper secondary,no,no,A,2,when,L2,unsyncopated,when,when,73,Online_whenL2//c.cha10.444.wav,mi,su,cha,sil,si,me,go,sil1,ra,ñu,sil2,['catch'],[1.3777000000029602],[1.3777000000029602],0.444,no_beat,0.9337000000029604,0.9337000000029604,"[""space""]",cha,3,,,,,,,,,,,,,,,3.0,2.0,Castellano,0.0,Catalán,0.0,Inglés,3.0,4.0,5.0,yes,yes,yes,Saxofón,8,,,Nada,73.0,yes
202,2024-04-09_21h39.58.249,Experiment4_uns,s160,23.0,feminino,right,España,CastelloCatalán,Upper secondary,no,no,A,2,when,L2,unsyncopated,when,when,74,Online_whenL2//c.cha8.none.wav,mi,si,to,sil,ra,ba,ño,sil1,du,su,sil2,['-'],,,none,none,,,,cha,3,,,,,,,,,,,,,,,3.0,2.0,Castellano,0.0,Catalán,0.0,Inglés,3.0,4.0,5.0,yes,yes,yes,Saxofón,8,,,Nada,73.0,yes
203,2024-04-09_21h39.58.249,Experiment4_uns,s160,23.0,feminino,right,España,CastelloCatalán,Upper secondary,no,no,A,2,when,L2,unsyncopated,when,when,75,Online_whenL2//c.cha9.none.wav,go,ba,ñu,sil,bi,fe,to,sil1,mi,ño,sil2,['-'],,,none,none,,,,cha,3,,,,,,,,,,,,,,,3.0,2.0,Castellano,0.0,Catalán,0.0,Inglés,3.0,4.0,5.0,yes,yes,yes,Saxofón,8,,,Nada,73.0,yes
204,2024-04-09_21h39.58.249,Experiment4_uns,s160,23.0,feminino,right,España,CastelloCatalán,Upper secondary,no,no,A,2,when,L2,unsyncopated,when,when,76,Online_whenL2//c.cha20.none.wav,fe,ño,mi,sil,ra,su,ba,sil1,ñu,to,sil2,['-'],,,none,none,,,,cha,3,,,,,,,,,,,,,,,3.0,2.0,Castellano,0.0,Catalán,0.0,Inglés,3.0,4.0,5.0,yes,yes,yes,Saxofón,8,,,Nada,73.0,yes
205,2024-04-09_21h39.58.249,Experiment4_uns,s160,23.0,feminino,right,España,CastelloCatalán,Upper secondary,no,no,A,2,when,L2,unsyncopated,when,when,77,Online_whenL2//c.cha22.none.wav,ra,to,mi,sil,bi,te,ba,sil1,fe,ñu,sil2,['-'],,,none,none,,,,cha,3,,,,,,,,,,,,,,,3.0,2.0,Castellano,0.0,Catalán,0.0,Inglés,3.0,4.0,5.0,yes,yes,yes,Saxofón,8,,,Nada,73.0,yes
206,2024-04-09_21h39.58.249,Experiment4_uns,s160,23.0,feminino,right,España,CastelloCatalán,Upper secondary,no,no,A,2,when,L2,unsyncopated,when,when,78,Online_whenL2//c.cha21.1998.wav,si,du,ñu,sil,mi,go,to,sil1,ño,cha,sil2,['catch'],[2.5281999999956497],[2.5281999999956497],1.998,no_beat,0.5301999999956497,0.5301999999956497,"[""space""]",cha,3,,,,,,,,,,,,,,,3.0,2.0,Castellano,0.0,Catalán,0.0,Inglés,3.0,4.0,5.0,yes,yes,yes,Saxofón,8,,,Nada,73.0,yes
207,2024-04-09_21h39.58.249,Experiment4_uns,s160,23.0,feminino,right,España,CastelloCatalán,Upper secondary,no,no,A,2,when,L2,unsyncopated,when,when,79,Online_whenL2//c.cha23.none.wav,me,ba,fe,sil,ño,ñu,mi,sil1,go,te,sil2,['-'],,,none,none,,,,cha,3,,,,,,,,,,,,,,,3.0,2.0,Castellano,0.0,Catalán,0.0,Inglés,3.0,4.0,5.0,yes,yes,yes,Saxofón,8,,,Nada,73.0,yes
208,2024-04-09_21h39.58.249,Experiment4_uns,s160,23.0,feminino,right,España,CastelloCatalán,Upper secondary,no,no,A,2,when,L2,unsyncopated,when,when,80,Online_whenL2//b.fe28.1776.wav,me,su,ba,sil,bi,ño,te,sil1,fe,du,sil2,['catch'],[2.21550000000002],[2.21550000000002],1.776,beat,0.43950000000002,0.43950000000002,"[""space""]",fe,1,,,,,,,,,,,,,,,3.0,2.0,Castellano,0.0,Catalán,0.0,Inglés,3.0,4.0,5.0,yes,yes,yes,Saxofón,8,,,Nada,73.0,yes
209,2024-04-09_21h39.58.249,Experiment4_uns,s160,23.0,feminino,right,España,CastelloCatalán,Upper secondary,no,no,A,2,when,L2,unsyncopated,when,when,81,Online_whenL2//b.fe29.none.wav,ra,ñu,du,sil,ño,bi,to,sil1,mi,su,sil2,['-'],,,none,none,,,,fe,1,,,,,,,,,,,,,,,3.0,2.0,Castellano,0.0,Catalán,0.0,Inglés,3.0,4.0,5.0,yes,yes,yes,Saxofón,8,,,Nada,73.0,yes
210,2024-04-09_21h39.58.249,Experiment4_uns,s160,23.0,feminino,right,España,CastelloCatalán,Upper secondary,no,no,A,2,when,L2,unsyncopated,when,when,82,Online_whenL2//b.fe30.none.wav,ra,si,su,sil,ñu,go,te,sil1,to,ño,sil2,['-'],,,none,none,,,,fe,1,,,,,,,,,,,,,,,3.0,2.0,Castellano,0.0,Catalán,0.0,Inglés,3.0,4.0,5.0,yes,yes,yes,Saxofón,8,,,Nada,73.0,yes
211,2024-04-09_21h39.58.249,Experiment4_uns,s160,23.0,feminino,right,España,CastelloCatalán,Upper secondary,no,no,A,2,when,L2,unsyncopated,when,when,83,Online_whenL2//b.fe31.none.wav,me,si,ñu,sil,su,go,du,sil1,bi,ba,sil2,['-'],,,none,none,,,,fe,1,,,,,,,,,,,,,,,3.0,2.0,Castellano,0.0,Catalán,0.0,Inglés,3.0,4.0,5.0,yes,yes,yes,Saxofón,8,,,Nada,73.0,yes
212,2024-04-09_21h39.58.249,Experiment4_uns,s160,23.0,feminino,right,España,CastelloCatalán,Upper secondary,no,no,A,2,when,L2,unsyncopated,when,when,84,Online_whenL2//d.si19.none.wav,bi,mi,su,sil,me,cha,du,sil1,fe,te,sil2,['-'],,,none,none,,,,si,4,,,,,,,,,,,,,,,3.0,2.0,Castellano,0.0,Catalán,0.0,Inglés,3.0,4.0,5.0,yes,yes,yes,Saxofón,8,,,Nada,73.0,yes
213,2024-04-09_21h39.58.249,Experiment4_uns,s160,23.0,feminino,right,España,CastelloCatalán,Upper secondary,no,no,A,2,when,L2,unsyncopated,when,when,85,Online_whenL2//d.si16.none.wav,su,fe,mi,sil,ño,te,me,sil1,du,ba,sil2,['-'],,,none,none,,,,si,4,,,,,,,,,,,,,,,3.0,2.0,Castellano,0.0,Catalán,0.0,Inglés,3.0,4.0,5.0,yes,yes,yes,Saxofón,8,,,Nada,73.0,yes
214,2024-04-09_21h39.58.249,Experiment4_uns,s160,23.0,feminino,right,España,CastelloCatalán,Upper secondary,no,no,A,2,when,L2,unsyncopated,when,when,86,Online_whenL2//d.si17.none.wav,mi,su,to,sil,go,ño,du,sil1,cha,ñu,sil2,['-'],,,none,none,,,,si,4,,,,,,,,,,,,,,,3.0,2.0,Castellano,0.0,Catalán,0.0,Inglés,3.0,4.0,5.0,yes,yes,yes,Saxofón,8,,,Nada,73.0,yes
215,2024-04-09_21h39.58.249,Experiment4_uns,s160,23.0,feminino,right,España,CastelloCatalán,Upper secondary,no,no,A,2,when,L2,unsyncopated,when,when,87,Online_whenL2//d.si18.222.wav,ñu,si,bi,sil,cha,du,me,sil1,fe,ño,sil2,['catch'],[0.728700000003073],[0.728700000003073],0.222,no_beat,0.506700000003073,0.506700000003073,"[""space""]",si,4,,,,,,,,,,,,,,,3.0,2.0,Castellano,0.0,Catalán,0.0,Inglés,3.0,4.0,5.0,yes,yes,yes,Saxofón,8,,,Nada,73.0,yes
216,2024-04-09_21h39.58.249,Experiment4_uns,s160,23.0,feminino,right,España,CastelloCatalán,Upper secondary,no,no,A,2,when,L2,unsyncopated,when,when,88,Online_whenL2//a.du35.none.wav,to,ñu,su,sil,ba,cha,fe,sil1,ño,go,sil2,['-'],,,none,none,,,,du,2,,,,,,,,,,,,,,,3.0,2.0,Castellano,0.0,Catalán,0.0,Inglés,3.0,4.0,5.0,yes,yes,yes,Saxofón,8,,,Nada,73.0,yes
217,2024-04-09_21h39.58.249,Experiment4_uns,s160,23.0,feminino,right,España,CastelloCatalán,Upper secondary,no,no,A,2,when,L2,unsyncopated,when,when,89,Online_whenL2//a.du32.none.wav,to,fe,ñu,sil,cha,te,go,sil1,ño,si,sil2,['-'],,,none,none,,,,du,2,,,,,,,,,,,,,,,3.0,2.0,Castellano,0.0,Catalán,0.0,Inglés,3.0,4.0,5.0,yes,yes,yes,Saxofón,8,,,Nada,73.0,yes
218,2024-04-09_21h39.58.249,Experiment4_uns,s160,23.0,feminino,right,España,CastelloCatalán,Upper secondary,no,no,A,2,when,L2,unsyncopated,when,when,90,Online_whenL2//a.du34.1110.wav,ba,ñu,fe,sil,si,du,ño,sil1,te,su,sil2,['catch'],[1.6097999999972217],[1.6097999999972217],1.11,no_beat,0.4997999999972216,0.4997999999972216,"[""space""]",du,2,,,,,,,,,,,,,,,3.0,2.0,Castellano,0.0,Catalán,0.0,Inglés,3.0,4.0,5.0,yes,yes,yes,Saxofón,8,,,Nada,73.0,yes
219,2024-04-09_21h39.58.249,Experiment4_uns,s160,23.0,feminino,right,España,CastelloCatalán,Upper secondary,no,no,A,2,when,L2,unsyncopated,when,when,91,Online_whenL2//a.du33.1110.wav,te,su,si,sil,to,du,fe,sil1,mi,me,sil2,['catch'],[1.6783999999986463],[1.6783999999986463],1.11,no_beat,0.5683999999986462,0.5683999999986462,"[""space""]",du,2,,,,,,,,,,,,,,,3.0,2.0,Castellano,0.0,Catalán,0.0,Inglés,3.0,4.0,5.0,yes,yes,yes,Saxofón,8,,,Nada,73.0,yes
220,2024-04-09_21h39.58.249,Experiment4_uns,s160,23.0,feminino,right,España,CastelloCatalán,Upper secondary,no,no,A,2,when,L2,unsyncopated,when,when,92,Online_whenL2//b.fe9.none.wav,du,ñu,su,sil,te,to,go,sil1,ño,me,sil2,['-'],,,none,none,,,,fe,1,,,,,,,,,,,,,,,3.0,2.0,Castellano,0.0,Catalán,0.0,Inglés,3.0,4.0,5.0,yes,yes,yes,Saxofón,8,,,Nada,73.0,yes
221,2024-04-09_21h39.58.249,Experiment4_uns,s160,23.0,feminino,right,España,CastelloCatalán,Upper secondary,no,no,A,2,when,L2,unsyncopated,when,when,93,Online_whenL2//b.fe10.none.wav,to,du,su,sil,mi,ño,ba,sil1,bi,ra,sil2,['-'],,,none,none,,,,fe,1,,,,,,,,,,,,,,,3.0,2.0,Castellano,0.0,Catalán,0.0,Inglés,3.0,4.0,5.0,yes,yes,yes,Saxofón,8,,,Nada,73.0,yes
222,2024-04-09_21h39.58.249,Experiment4_uns,s160,23.0,feminino,right,España,CastelloCatalán,Upper secondary,no,no,A,2,when,L2,unsyncopated,when,when,94,Online_whenL2//b.fe8.none.wav,su,to,go,sil,mi,ra,si,sil1,ba,ñu,sil2,['-'],,,none,none,,,,fe,1,,,,,,,,,,,,,,,3.0,2.0,Castellano,0.0,Catalán,0.0,Inglés,3.0,4.0,5.0,yes,yes,yes,Saxofón,8,,,Nada,73.0,yes
223,2024-04-09_21h39.58.249,Experiment4_uns,s160,23.0,feminino,right,España,CastelloCatalán,Upper secondary,no,no,A,2,when,L2,unsyncopated,when,when,95,Online_whenL2//b.fe11.1332.wav,ba,bi,go,sil,su,mi,fe,sil1,si,me,sil2,['catch'],[1.8274999999998727],[1.8274999999998727],1.332,no_beat,0.4954999999998726,0.4954999999998726,"[""space""]",fe,1,,,,,,,,,,,,,,,3.0,2.0,Castellano,0.0,Catalán,0.0,Inglés,3.0,4.0,5.0,yes,yes,yes,Saxofón,8,,,Nada,73.0,yes
