Unnamed: 0,date,expName,participant,age,sex,hand,residence,native_lang,education_level,lang_deficit,aud_deficit,group,block,condition,language,rhythm,rule structure online,rule type online,order_trial_on,trial_online,s1,s2,s3,s4,s5,s6,s7,s8,s9,s10,s11,catch_syll_resp,rts_syll_catch,clean_rts,time_syll,beat_no_beat,catch_rtsTR,catch_rts,syllable_catch.keys,cond_syll,syll_to_catch,test_offline,block_off,condition_off,rhythm_off,rule,rule_str_off,rule_norule,conds_offline,language_off,Partz_no_partm.keys,Partz_no_partm.rt,security_1_7.keys,accuracy,security_1_7.rt,n_lang,n_lang_used,lang_1,age_l1,lang_2,age_l2,lang_3,age_l3,ability_learn_l2,tendence_mix_lan,music_experience,muisc_use,partiture,instr_1,age_M1,preguntas_musica1,BMRQ_answer.response,final comment,BMRQ_Score,bilingual
0,2024-05-13_09h11.57.750,Experiment4_uns,s158,24.0,feminino,right,España,Castellano y Catalán,Bachelor degree,no,no,A,1,conjunction_un,L4,unsyncopated,s1,r2,0,Online_conjL4_un//a.zi.lo27.none.none.wav,ja,ña,bu,sil,nu,ñi,re,sil1,pe,po,sil2,['-'],,,none,none,,,,lo,2,testConjL4Uns//cat_viol.r1.s1.0.wav,1.0,conjunction_un,unsyncopated,a,s1,no_rule,cat,L4,z,2.169,7.0,0.0,1.872,3.0,2.0,Castellano,0.0,Catalán,0.0,Ingles,4.0,3.0,4.0,no,no,yes,nada,,1. Cuando comparto música con alguien siento una complicidad especial con aquella persona.,4.0,No he tenido ninguna interrupción como tal pero si la sensación de que en la fase 2 confundia alguna silaba y pulsaba el espacio y luego pensaba si no me habria equivocado al escuchar por ejemplo ji en lugar de ki y cosas parecidas. También he detectado el sesgo de querer pulsar el espacio en algunas partes de la fase 2 en las que no detectaba esa silaba. Ha sido curioso que a veces me parecia que podia predecir que iba a salir esa sibala casi antes de que saliera y me daba la sensación de que pulsaba el espacio al mismo tiempo que se pronunciaba y no despues de procesarlo por haberlo previsto o algo asi.  ,74.0,yes
1,2024-05-13_09h11.57.750,Experiment4_uns,s158,24.0,feminino,right,España,Castellano y Catalán,Bachelor degree,no,no,A,1,conjunction_un,L4,unsyncopated,s2,r1,1,Online_conjL4_un//a.zi.lo24.888.1776.wav,re,bo,po,sil,zi,da,ñi,sil1,lo,pe,sil2,['catch'],[2.349999999999909],[2.349999999999909],1.776,beat,0.573999999999909,0.573999999999909,"[""space""]",lo,2,testConjL4Uns//dep_viol.r2.s2.0.wav,1.0,conjunction_un,unsyncopated,b,s2,no_rule,dep,L4,z,2.247,5.0,0.0,2.524,3.0,2.0,Castellano,0.0,Catalán,0.0,Ingles,4.0,3.0,4.0,no,no,yes,nada,,2. En mi tiempo libre apenas escucho música.,5.0,No he tenido ninguna interrupción como tal pero si la sensación de que en la fase 2 confundia alguna silaba y pulsaba el espacio y luego pensaba si no me habria equivocado al escuchar por ejemplo ji en lugar de ki y cosas parecidas. También he detectado el sesgo de querer pulsar el espacio en algunas partes de la fase 2 en las que no detectaba esa silaba. Ha sido curioso que a veces me parecia que podia predecir que iba a salir esa sibala casi antes de que saliera y me daba la sensación de que pulsaba el espacio al mismo tiempo que se pronunciaba y no despues de procesarlo por haberlo previsto o algo asi.  ,74.0,yes
2,2024-05-13_09h11.57.750,Experiment4_uns,s158,24.0,feminino,right,España,Castellano y Catalán,Bachelor degree,no,no,A,1,conjunction_un,L4,unsyncopated,s2,r1,2,Online_conjL4_un//a.zi.lo26.888.1776.wav,pe,bu,de,sil,zi,da,ñi,sil1,lo,bo,sil2,['catch'],[2.4039999999999964],[2.4039999999999964],1.776,beat,0.6279999999999963,0.6279999999999963,"[""space""]",lo,2,testConjL4Uns//r1.s1.1.wav,1.0,conjunction_un,unsyncopated,a,s1,rule,rule,L4,z,2.124,6.0,1.0,1.85,3.0,2.0,Castellano,0.0,Catalán,0.0,Ingles,4.0,3.0,4.0,no,no,yes,nada,,3. Algunas canciones me ponen los pelos de punta,4.0,No he tenido ninguna interrupción como tal pero si la sensación de que en la fase 2 confundia alguna silaba y pulsaba el espacio y luego pensaba si no me habria equivocado al escuchar por ejemplo ji en lugar de ki y cosas parecidas. También he detectado el sesgo de querer pulsar el espacio en algunas partes de la fase 2 en las que no detectaba esa silaba. Ha sido curioso que a veces me parecia que podia predecir que iba a salir esa sibala casi antes de que saliera y me daba la sensación de que pulsaba el espacio al mismo tiempo que se pronunciaba y no despues de procesarlo por haberlo previsto o algo asi.  ,74.0,yes
3,2024-05-13_09h11.57.750,Experiment4_uns,s158,24.0,feminino,right,España,Castellano y Catalán,Bachelor degree,no,no,A,1,conjunction_un,L4,unsyncopated,s2,r1,3,Online_conjL4_un//a.zi.lo25.888.1776.wav,bu,ña,de,sil,zi,ci,pe,sil1,lo,po,sil2,['catch'],[2.1649999999999636],[2.1649999999999636],1.776,beat,0.3889999999999636,0.3889999999999636,"[""space""]",lo,2,testConjL4Uns//time_viol.r2.s1.0.wav,1.0,conjunction_un,unsyncopated,b,s1,no_rule,time,L4,m,1.398,3.0,1.0,3.865,3.0,2.0,Castellano,0.0,Catalán,0.0,Ingles,4.0,3.0,4.0,no,no,yes,nada,,4. La música me hace compañía cuando estoy solo,4.0,No he tenido ninguna interrupción como tal pero si la sensación de que en la fase 2 confundia alguna silaba y pulsaba el espacio y luego pensaba si no me habria equivocado al escuchar por ejemplo ji en lugar de ki y cosas parecidas. También he detectado el sesgo de querer pulsar el espacio en algunas partes de la fase 2 en las que no detectaba esa silaba. Ha sido curioso que a veces me parecia que podia predecir que iba a salir esa sibala casi antes de que saliera y me daba la sensación de que pulsaba el espacio al mismo tiempo que se pronunciaba y no despues de procesarlo por haberlo previsto o algo asi.  ,74.0,yes
4,2024-05-13_09h11.57.750,Experiment4_uns,s158,24.0,feminino,right,España,Castellano y Catalán,Bachelor degree,no,no,A,1,conjunction_un,L4,unsyncopated,s2,r1,4,Online_conjL4_un//a.zi.lo21.888.1776.wav,ci,da,de,sil,zi,bu,po,sil1,lo,re,sil2,['catch'],[2.1800000000000637],[2.1800000000000637],1.776,beat,0.4040000000000636,0.4040000000000636,"[""space""]",lo,2,testConjL4Uns//r1.s2.1.wav,1.0,conjunction_un,unsyncopated,a,s2,rule,rule,L4,m,2.681,3.0,0.0,1.597,3.0,2.0,Castellano,0.0,Catalán,0.0,Ingles,4.0,3.0,4.0,no,no,yes,nada,,5. No me apetece bailar ni con la música que más me gusta,4.0,No he tenido ninguna interrupción como tal pero si la sensación de que en la fase 2 confundia alguna silaba y pulsaba el espacio y luego pensaba si no me habria equivocado al escuchar por ejemplo ji en lugar de ki y cosas parecidas. También he detectado el sesgo de querer pulsar el espacio en algunas partes de la fase 2 en las que no detectaba esa silaba. Ha sido curioso que a veces me parecia que podia predecir que iba a salir esa sibala casi antes de que saliera y me daba la sensación de que pulsaba el espacio al mismo tiempo que se pronunciaba y no despues de procesarlo por haberlo previsto o algo asi.  ,74.0,yes
5,2024-05-13_09h11.57.750,Experiment4_uns,s158,24.0,feminino,right,España,Castellano y Catalán,Bachelor degree,no,no,A,1,conjunction_un,L4,unsyncopated,s1,r2,5,Online_conjL4_un//a.zi.lo20.none.none.wav,ja,da,ñi,sil,nu,ña,ci,sil1,re,ru,sil2,['-'],,,none,none,,,,lo,2,testConjL4Uns//r2.s2.2.wav,1.0,conjunction_un,unsyncopated,b,s2,rule,rule,L4,z,1.54,5.0,1.0,4.782,3.0,2.0,Castellano,0.0,Catalán,0.0,Ingles,4.0,3.0,4.0,no,no,yes,nada,,6. La música me hace conectar con la gente,4.0,No he tenido ninguna interrupción como tal pero si la sensación de que en la fase 2 confundia alguna silaba y pulsaba el espacio y luego pensaba si no me habria equivocado al escuchar por ejemplo ji en lugar de ki y cosas parecidas. También he detectado el sesgo de querer pulsar el espacio en algunas partes de la fase 2 en las que no detectaba esa silaba. Ha sido curioso que a veces me parecia que podia predecir que iba a salir esa sibala casi antes de que saliera y me daba la sensación de que pulsaba el espacio al mismo tiempo que se pronunciaba y no despues de procesarlo por haberlo previsto o algo asi.  ,74.0,yes
6,2024-05-13_09h11.57.750,Experiment4_uns,s158,24.0,feminino,right,España,Castellano y Catalán,Bachelor degree,no,no,A,1,conjunction_un,L4,unsyncopated,s2,r1,6,Online_conjL4_un//a.zi.lo22.888.1776.wav,bu,ñi,pe,sil,zi,bo,ci,sil1,lo,ru,sil2,['catch'],[2.203999999999951],[2.203999999999951],1.776,beat,0.4279999999999508,0.4279999999999508,"[""space""]",lo,2,testConjL4Uns//dep_viol.r1.s1.0.wav,1.0,conjunction_un,unsyncopated,a,s1,no_rule,dep,L4,m,0.585,5.0,1.0,3.439,3.0,2.0,Castellano,0.0,Catalán,0.0,Ingles,4.0,3.0,4.0,no,no,yes,nada,,7. Me informo sobre la música que me gusta.,3.0,No he tenido ninguna interrupción como tal pero si la sensación de que en la fase 2 confundia alguna silaba y pulsaba el espacio y luego pensaba si no me habria equivocado al escuchar por ejemplo ji en lugar de ki y cosas parecidas. También he detectado el sesgo de querer pulsar el espacio en algunas partes de la fase 2 en las que no detectaba esa silaba. Ha sido curioso que a veces me parecia que podia predecir que iba a salir esa sibala casi antes de que saliera y me daba la sensación de que pulsaba el espacio al mismo tiempo que se pronunciaba y no despues de procesarlo por haberlo previsto o algo asi.  ,74.0,yes
7,2024-05-13_09h11.57.750,Experiment4_uns,s158,24.0,feminino,right,España,Castellano y Catalán,Bachelor degree,no,no,A,1,conjunction_un,L4,unsyncopated,s2,r2,7,Online_conjL4_un//a.zi.lo23.none.none.wav,ñi,bo,po,sil,ja,da,ña,sil1,nu,re,sil2,['-'],,,none,none,,,,lo,2,testConjL4Uns//time_viol.r1.s1.0.wav,1.0,conjunction_un,unsyncopated,a,s1,no_rule,time,L4,m,4.636,6.0,1.0,1.067,3.0,2.0,Castellano,0.0,Catalán,0.0,Ingles,4.0,3.0,4.0,no,no,yes,nada,,8.Me emociono escuchando ciertas canciones.,4.0,No he tenido ninguna interrupción como tal pero si la sensación de que en la fase 2 confundia alguna silaba y pulsaba el espacio y luego pensaba si no me habria equivocado al escuchar por ejemplo ji en lugar de ki y cosas parecidas. También he detectado el sesgo de querer pulsar el espacio en algunas partes de la fase 2 en las que no detectaba esa silaba. Ha sido curioso que a veces me parecia que podia predecir que iba a salir esa sibala casi antes de que saliera y me daba la sensación de que pulsaba el espacio al mismo tiempo que se pronunciaba y no despues de procesarlo por haberlo previsto o algo asi.  ,74.0,yes
8,2024-05-13_09h11.57.750,Experiment4_uns,s158,24.0,feminino,right,España,Castellano y Catalán,Bachelor degree,no,no,A,1,conjunction_un,L4,unsyncopated,s1,r1,8,Online_conjL4_un//c.bu.da28.1776.1110.wav,zi,re,ru,sil,lo,da,pe,sil1,bu,ña,sil2,['catch'],[2.2789999999999964],[2.2789999999999964],1.776,beat,0.5029999999999963,0.5029999999999963,"[""space""]",bu,3,testConjL4Uns//r1.s1.2.wav,1.0,conjunction_un,unsyncopated,a,s1,rule,rule,L4,m,5.957,5.0,0.0,3.498,3.0,2.0,Castellano,0.0,Catalán,0.0,Ingles,4.0,3.0,4.0,no,no,yes,nada,,9.La música me tranquiliza y me relaja.,4.0,No he tenido ninguna interrupción como tal pero si la sensación de que en la fase 2 confundia alguna silaba y pulsaba el espacio y luego pensaba si no me habria equivocado al escuchar por ejemplo ji en lugar de ki y cosas parecidas. También he detectado el sesgo de querer pulsar el espacio en algunas partes de la fase 2 en las que no detectaba esa silaba. Ha sido curioso que a veces me parecia que podia predecir que iba a salir esa sibala casi antes de que saliera y me daba la sensación de que pulsaba el espacio al mismo tiempo que se pronunciaba y no despues de procesarlo por haberlo previsto o algo asi.  ,74.0,yes
9,2024-05-13_09h11.57.750,Experiment4_uns,s158,24.0,feminino,right,España,Castellano y Catalán,Bachelor degree,no,no,A,1,conjunction_un,L4,unsyncopated,s2,r2,9,Online_conjL4_un//c.bu.da29.none.none.wav,bo,ña,re,sil,ja,ci,ru,sil1,nu,ñi,sil2,['-'],,,none,none,,,,bu,3,testConjL4Uns//dep_viol.r1.s2.0.wav,1.0,conjunction_un,unsyncopated,a,s2,no_rule,dep,L4,z,1.432,4.0,0.0,8.631,3.0,2.0,Castellano,0.0,Catalán,0.0,Ingles,4.0,3.0,4.0,no,no,yes,nada,,10.La música me hace bailar,3.0,No he tenido ninguna interrupción como tal pero si la sensación de que en la fase 2 confundia alguna silaba y pulsaba el espacio y luego pensaba si no me habria equivocado al escuchar por ejemplo ji en lugar de ki y cosas parecidas. También he detectado el sesgo de querer pulsar el espacio en algunas partes de la fase 2 en las que no detectaba esa silaba. Ha sido curioso que a veces me parecia que podia predecir que iba a salir esa sibala casi antes de que saliera y me daba la sensación de que pulsaba el espacio al mismo tiempo que se pronunciaba y no despues de procesarlo por haberlo previsto o algo asi.  ,74.0,yes
10,2024-05-13_09h11.57.750,Experiment4_uns,s158,24.0,feminino,right,España,Castellano y Catalán,Bachelor degree,no,no,A,1,conjunction_un,L4,unsyncopated,s2,r2,10,Online_conjL4_un//c.bu.da31.none.none.wav,po,re,bo,sil,ja,ña,ñi,sil1,nu,pe,sil2,['false alarm'],[2.492999999999938],[2.492999999999938],none,none,,,"[""space""]",bu,3,testConjL4Uns//cat_viol.r2.s2.0.wav,1.0,conjunction_un,unsyncopated,b,s2,no_rule,cat,L4,z,2.83,4.0,0.0,2.132,3.0,2.0,Castellano,0.0,Catalán,0.0,Ingles,4.0,3.0,4.0,no,no,yes,nada,,11.Busco novedades musicales continuamente,3.0,No he tenido ninguna interrupción como tal pero si la sensación de que en la fase 2 confundia alguna silaba y pulsaba el espacio y luego pensaba si no me habria equivocado al escuchar por ejemplo ji en lugar de ki y cosas parecidas. También he detectado el sesgo de querer pulsar el espacio en algunas partes de la fase 2 en las que no detectaba esa silaba. Ha sido curioso que a veces me parecia que podia predecir que iba a salir esa sibala casi antes de que saliera y me daba la sensación de que pulsaba el espacio al mismo tiempo que se pronunciaba y no despues de procesarlo por haberlo previsto o algo asi.  ,74.0,yes
11,2024-05-13_09h11.57.750,Experiment4_uns,s158,24.0,feminino,right,España,Castellano y Catalán,Bachelor degree,no,no,A,1,conjunction_un,L4,unsyncopated,s1,r2,11,Online_conjL4_un//c.bu.da30.222.444.wav,ja,bu,da,sil,nu,pe,bo,sil1,ña,de,sil2,['catch'],[2.241999999999962],[2.241999999999962],0.222,no_beat,,2.019999999999962,"[""space""]",bu,3,testConjL4Uns//r2.s1.1.wav,1.0,conjunction_un,unsyncopated,b,s1,rule,rule,L4,m,1.357,3.0,0.0,3.355,3.0,2.0,Castellano,0.0,Catalán,0.0,Ingles,4.0,3.0,4.0,no,no,yes,nada,,12. Puedo llorar cuando escucho algunas melodías que me gustan mucho.,4.0,No he tenido ninguna interrupción como tal pero si la sensación de que en la fase 2 confundia alguna silaba y pulsaba el espacio y luego pensaba si no me habria equivocado al escuchar por ejemplo ji en lugar de ki y cosas parecidas. También he detectado el sesgo de querer pulsar el espacio en algunas partes de la fase 2 en las que no detectaba esa silaba. Ha sido curioso que a veces me parecia que podia predecir que iba a salir esa sibala casi antes de que saliera y me daba la sensación de que pulsaba el espacio al mismo tiempo que se pronunciaba y no despues de procesarlo por haberlo previsto o algo asi.  ,74.0,yes
12,2024-05-13_09h11.57.750,Experiment4_uns,s158,24.0,feminino,right,España,Castellano y Catalán,Bachelor degree,no,no,A,1,conjunction_un,L4,unsyncopated,s1,r1,12,Online_conjL4_un//b.ja.nu22.none.none.wav,zi,ña,ci,sil,lo,bu,da,sil1,de,po,sil2,['-'],,,none,none,,,,ja,1,testConjL4Uns//r1.s2.0.wav,1.0,conjunction_un,unsyncopated,a,s2,rule,rule,L4,z,6.683,6.0,1.0,1.432,3.0,2.0,Castellano,0.0,Catalán,0.0,Ingles,4.0,3.0,4.0,no,no,yes,nada,,13. Me gusta cantar o tocar un instrumento con más gente,2.0,No he tenido ninguna interrupción como tal pero si la sensación de que en la fase 2 confundia alguna silaba y pulsaba el espacio y luego pensaba si no me habria equivocado al escuchar por ejemplo ji en lugar de ki y cosas parecidas. También he detectado el sesgo de querer pulsar el espacio en algunas partes de la fase 2 en las que no detectaba esa silaba. Ha sido curioso que a veces me parecia que podia predecir que iba a salir esa sibala casi antes de que saliera y me daba la sensación de que pulsaba el espacio al mismo tiempo que se pronunciaba y no despues de procesarlo por haberlo previsto o algo asi.  ,74.0,yes
13,2024-05-13_09h11.57.750,Experiment4_uns,s158,24.0,feminino,right,España,Castellano y Catalán,Bachelor degree,no,no,A,1,conjunction_un,L4,unsyncopated,s1,r2,13,Online_conjL4_un//b.ja.nu20.0.888.wav,ja,de,ñi,sil,nu,re,bo,sil1,da,po,sil2,['catch'],[0.5529999999998836],[0.5529999999998836],0.0,beat,0.5529999999998836,0.5529999999998836,"[""space""]",ja,1,testConjL4Uns//r2.s1.0.wav,1.0,conjunction_un,unsyncopated,b,s1,rule,rule,L4,m,1.55,4.0,0.0,3.213,3.0,2.0,Castellano,0.0,Catalán,0.0,Ingles,4.0,3.0,4.0,no,no,yes,nada,,14. La música me ayuda a desconectar.,4.0,No he tenido ninguna interrupción como tal pero si la sensación de que en la fase 2 confundia alguna silaba y pulsaba el espacio y luego pensaba si no me habria equivocado al escuchar por ejemplo ji en lugar de ki y cosas parecidas. También he detectado el sesgo de querer pulsar el espacio en algunas partes de la fase 2 en las que no detectaba esa silaba. Ha sido curioso que a veces me parecia que podia predecir que iba a salir esa sibala casi antes de que saliera y me daba la sensación de que pulsaba el espacio al mismo tiempo que se pronunciaba y no despues de procesarlo por haberlo previsto o algo asi.  ,74.0,yes
14,2024-05-13_09h11.57.750,Experiment4_uns,s158,24.0,feminino,right,España,Castellano y Catalán,Bachelor degree,no,no,A,1,conjunction_un,L4,unsyncopated,s2,r2,14,Online_conjL4_un//b.ja.nu23.888.1776.wav,ci,ña,po,sil,ja,bu,ñi,sil1,nu,pe,sil2,['catch'],[1.5190000000000055],[1.5190000000000055],0.888,beat,0.6310000000000054,0.6310000000000054,"[""space""]",ja,1,testConjL4Uns//time_viol.r1.s2.0.wav,1.0,conjunction_un,unsyncopated,a,s2,no_rule,time,L4,m,4.564,5.0,1.0,3.406,3.0,2.0,Castellano,0.0,Catalán,0.0,Ingles,4.0,3.0,4.0,no,no,yes,nada,,15. No puedo evitar tararear las canciones que me gustan cuando las escucho.,4.0,No he tenido ninguna interrupción como tal pero si la sensación de que en la fase 2 confundia alguna silaba y pulsaba el espacio y luego pensaba si no me habria equivocado al escuchar por ejemplo ji en lugar de ki y cosas parecidas. También he detectado el sesgo de querer pulsar el espacio en algunas partes de la fase 2 en las que no detectaba esa silaba. Ha sido curioso que a veces me parecia que podia predecir que iba a salir esa sibala casi antes de que saliera y me daba la sensación de que pulsaba el espacio al mismo tiempo que se pronunciaba y no despues de procesarlo por haberlo previsto o algo asi.  ,74.0,yes
15,2024-05-13_09h11.57.750,Experiment4_uns,s158,24.0,feminino,right,España,Castellano y Catalán,Bachelor degree,no,no,A,1,conjunction_un,L4,unsyncopated,s1,r2,15,Online_conjL4_un//b.ja.nu21.0.888.wav,ja,re,ru,sil,nu,bo,pe,sil1,bu,ña,sil2,['catch'],[1.0640000000000782],[1.0640000000000782],0.0,beat,1.0640000000000782,1.0640000000000782,"[""space""]",ja,1,testConjL4Uns//cat_viol.r2.s1.0.wav,1.0,conjunction_un,unsyncopated,b,s1,no_rule,cat,L4,z,23.93,2.0,0.0,2.369,3.0,2.0,Castellano,0.0,Catalán,0.0,Ingles,4.0,3.0,4.0,no,no,yes,nada,,16. En los conciertos me siento en sintonía con los artistas y el público.,4.0,No he tenido ninguna interrupción como tal pero si la sensación de que en la fase 2 confundia alguna silaba y pulsaba el espacio y luego pensaba si no me habria equivocado al escuchar por ejemplo ji en lugar de ki y cosas parecidas. También he detectado el sesgo de querer pulsar el espacio en algunas partes de la fase 2 en las que no detectaba esa silaba. Ha sido curioso que a veces me parecia que podia predecir que iba a salir esa sibala casi antes de que saliera y me daba la sensación de que pulsaba el espacio al mismo tiempo que se pronunciaba y no despues de procesarlo por haberlo previsto o algo asi.  ,74.0,yes
16,2024-05-13_09h11.57.750,Experiment4_uns,s158,24.0,feminino,right,España,Castellano y Catalán,Bachelor degree,no,no,A,1,conjunction_un,L4,unsyncopated,s2,r2,16,Online_conjL4_un//b.ja.nu26.888.1776.wav,bo,bu,ru,sil,ja,de,ñi,sil1,nu,da,sil2,['catch'],[1.3640000000000327],[1.3640000000000327],0.888,beat,0.4760000000000327,0.4760000000000327,"[""space""]",ja,1,testConjL4Uns//r2.s2.1.wav,1.0,conjunction_un,unsyncopated,b,s2,rule,rule,L4,m,3.085,5.0,0.0,1.948,3.0,2.0,Castellano,0.0,Catalán,0.0,Ingles,4.0,3.0,4.0,no,no,yes,nada,,17. Me gasto bastante dinero en música y cosas relacionadas con la música.,3.0,No he tenido ninguna interrupción como tal pero si la sensación de que en la fase 2 confundia alguna silaba y pulsaba el espacio y luego pensaba si no me habria equivocado al escuchar por ejemplo ji en lugar de ki y cosas parecidas. También he detectado el sesgo de querer pulsar el espacio en algunas partes de la fase 2 en las que no detectaba esa silaba. Ha sido curioso que a veces me parecia que podia predecir que iba a salir esa sibala casi antes de que saliera y me daba la sensación de que pulsaba el espacio al mismo tiempo que se pronunciaba y no despues de procesarlo por haberlo previsto o algo asi.  ,74.0,yes
17,2024-05-13_09h11.57.750,Experiment4_uns,s158,24.0,feminino,right,España,Castellano y Catalán,Bachelor degree,no,no,A,1,conjunction_un,L4,unsyncopated,s2,r2,17,Online_conjL4_un//b.ja.nu24.888.1776.wav,pe,re,po,sil,ja,ñi,de,sil1,nu,bo,sil2,['catch'],[1.2970000000000255],[1.2970000000000255],0.888,beat,0.4090000000000254,0.4090000000000254,"[""space""]",ja,1,testConjL4Uns//time_viol.r2.s2.0.wav,1.0,conjunction_un,unsyncopated,b,s2,no_rule,time,L4,m,7.136,5.0,1.0,1.784,3.0,2.0,Castellano,0.0,Catalán,0.0,Ingles,4.0,3.0,4.0,no,no,yes,nada,,18. Siento escalofríos cuando escucho una melodía que me gusta.,4.0,No he tenido ninguna interrupción como tal pero si la sensación de que en la fase 2 confundia alguna silaba y pulsaba el espacio y luego pensaba si no me habria equivocado al escuchar por ejemplo ji en lugar de ki y cosas parecidas. También he detectado el sesgo de querer pulsar el espacio en algunas partes de la fase 2 en las que no detectaba esa silaba. Ha sido curioso que a veces me parecia que podia predecir que iba a salir esa sibala casi antes de que saliera y me daba la sensación de que pulsaba el espacio al mismo tiempo que se pronunciaba y no despues de procesarlo por haberlo previsto o algo asi.  ,74.0,yes
18,2024-05-13_09h11.57.750,Experiment4_uns,s158,24.0,feminino,right,España,Castellano y Catalán,Bachelor degree,no,no,A,1,conjunction_un,L4,unsyncopated,s1,r1,18,Online_conjL4_un//b.ja.nu25.none.none.wav,zi,da,ru,sil,lo,de,ñi,sil1,re,ña,sil2,['-'],,,none,none,,,,ja,1,testConjL4Uns//r1.s2.2.wav,1.0,conjunction_un,unsyncopated,a,s2,rule,rule,L4,z,2.574,6.0,1.0,3.595,3.0,2.0,Castellano,0.0,Catalán,0.0,Ingles,4.0,3.0,4.0,no,no,yes,nada,,19. Con la música me puedo desahogar.,4.0,No he tenido ninguna interrupción como tal pero si la sensación de que en la fase 2 confundia alguna silaba y pulsaba el espacio y luego pensaba si no me habria equivocado al escuchar por ejemplo ji en lugar de ki y cosas parecidas. También he detectado el sesgo de querer pulsar el espacio en algunas partes de la fase 2 en las que no detectaba esa silaba. Ha sido curioso que a veces me parecia que podia predecir que iba a salir esa sibala casi antes de que saliera y me daba la sensación de que pulsaba el espacio al mismo tiempo que se pronunciaba y no despues de procesarlo por haberlo previsto o algo asi.  ,74.0,yes
19,2024-05-13_09h11.57.750,Experiment4_uns,s158,24.0,feminino,right,España,Castellano y Catalán,Bachelor degree,no,no,A,1,conjunction_un,L4,unsyncopated,s1,r2,19,Online_conjL4_un//b.ja.nu27.0.888.wav,ja,ñi,bu,sil,nu,ña,ci,sil1,da,po,sil2,['catch'],[0.4539999999999509],[0.4539999999999509],0.0,beat,0.4539999999999509,0.4539999999999509,"[""space""]",ja,1,testConjL4Uns//r1.s1.0.wav,1.0,conjunction_un,unsyncopated,a,s1,rule,rule,L4,z,5.245,6.0,1.0,1.657,3.0,2.0,Castellano,0.0,Catalán,0.0,Ingles,4.0,3.0,4.0,no,no,yes,nada,,20. Cuando escucho una melodía que me gusta mucho no puedo evitar mover el cuerpo.,3.0,No he tenido ninguna interrupción como tal pero si la sensación de que en la fase 2 confundia alguna silaba y pulsaba el espacio y luego pensaba si no me habria equivocado al escuchar por ejemplo ji en lugar de ki y cosas parecidas. También he detectado el sesgo de querer pulsar el espacio en algunas partes de la fase 2 en las que no detectaba esa silaba. Ha sido curioso que a veces me parecia que podia predecir que iba a salir esa sibala casi antes de que saliera y me daba la sensación de que pulsaba el espacio al mismo tiempo que se pronunciaba y no despues de procesarlo por haberlo previsto o algo asi.  ,74.0,yes
20,2024-05-13_09h11.57.750,Experiment4_uns,s158,24.0,feminino,right,España,Castellano y Catalán,Bachelor degree,no,no,A,1,conjunction_un,L4,unsyncopated,s1,r2,20,Online_conjL4_un//d.pe.po2.none.none.wav,ja,ña,ru,sil,nu,bu,de,sil1,ci,re,sil2,['-'],,,none,none,,,,pe,4,testConjL4Uns//r2.s1.2.wav,1.0,conjunction_un,unsyncopated,b,s1,rule,rule,L4,z,2.722,6.0,1.0,0.957,3.0,2.0,Castellano,0.0,Catalán,0.0,Ingles,4.0,3.0,4.0,no,no,yes,nada,,,,No he tenido ninguna interrupción como tal pero si la sensación de que en la fase 2 confundia alguna silaba y pulsaba el espacio y luego pensaba si no me habria equivocado al escuchar por ejemplo ji en lugar de ki y cosas parecidas. También he detectado el sesgo de querer pulsar el espacio en algunas partes de la fase 2 en las que no detectaba esa silaba. Ha sido curioso que a veces me parecia que podia predecir que iba a salir esa sibala casi antes de que saliera y me daba la sensación de que pulsaba el espacio al mismo tiempo que se pronunciaba y no despues de procesarlo por haberlo previsto o algo asi.  ,74.0,yes
21,2024-05-13_09h11.57.750,Experiment4_uns,s158,24.0,feminino,right,España,Castellano y Catalán,Bachelor degree,no,no,A,1,conjunction_un,L4,unsyncopated,s1,r1,21,Online_conjL4_un//d.pe.po3.none.none.wav,zi,ci,ñi,sil,lo,re,ru,sil1,bu,da,sil2,['false alarm'],[1.9929999999999382],[1.9929999999999382],none,none,,,"[""space""]",pe,4,testConjL4Uns//r2.s2.0.wav,1.0,conjunction_un,unsyncopated,b,s2,rule,rule,L4,z,1.144,6.0,1.0,0.8,3.0,2.0,Castellano,0.0,Catalán,0.0,Ingles,4.0,3.0,4.0,no,no,yes,nada,,,,No he tenido ninguna interrupción como tal pero si la sensación de que en la fase 2 confundia alguna silaba y pulsaba el espacio y luego pensaba si no me habria equivocado al escuchar por ejemplo ji en lugar de ki y cosas parecidas. También he detectado el sesgo de querer pulsar el espacio en algunas partes de la fase 2 en las que no detectaba esa silaba. Ha sido curioso que a veces me parecia que podia predecir que iba a salir esa sibala casi antes de que saliera y me daba la sensación de que pulsaba el espacio al mismo tiempo que se pronunciaba y no despues de procesarlo por haberlo previsto o algo asi.  ,74.0,yes
22,2024-05-13_09h11.57.750,Experiment4_uns,s158,24.0,feminino,right,España,Castellano y Catalán,Bachelor degree,no,no,A,1,conjunction_un,L4,unsyncopated,s2,r2,22,Online_conjL4_un//d.pe.po1.444.0.wav,po,bu,pe,sil,ja,ñi,ña,sil1,nu,ru,sil2,['catch'],[0.8699999999998909],[0.8699999999998909],0.444,no_beat,0.4259999999998908,0.4259999999998908,"[""space""]",pe,4,testConjL4Uns//cat_viol.r1.s2.0.wav,1.0,conjunction_un,unsyncopated,a,s2,no_rule,cat,L4,z,1.606,5.0,0.0,0.901,3.0,2.0,Castellano,0.0,Catalán,0.0,Ingles,4.0,3.0,4.0,no,no,yes,nada,,,,No he tenido ninguna interrupción como tal pero si la sensación de que en la fase 2 confundia alguna silaba y pulsaba el espacio y luego pensaba si no me habria equivocado al escuchar por ejemplo ji en lugar de ki y cosas parecidas. También he detectado el sesgo de querer pulsar el espacio en algunas partes de la fase 2 en las que no detectaba esa silaba. Ha sido curioso que a veces me parecia que podia predecir que iba a salir esa sibala casi antes de que saliera y me daba la sensación de que pulsaba el espacio al mismo tiempo que se pronunciaba y no despues de procesarlo por haberlo previsto o algo asi.  ,74.0,yes
23,2024-05-13_09h11.57.750,Experiment4_uns,s158,24.0,feminino,right,España,Castellano y Catalán,Bachelor degree,no,no,A,1,conjunction_un,L4,unsyncopated,s1,r2,23,Online_conjL4_un//d.pe.po0.none.none.wav,ja,ci,ñi,sil,nu,ru,da,sil1,de,ña,sil2,['-'],,,none,none,,,,pe,4,testConjL4Uns//dep_viol.r2.s1.0.wav,1.0,conjunction_un,unsyncopated,b,s1,no_rule,dep,L4,m,1.532,4.0,1.0,0.908,3.0,2.0,Castellano,0.0,Catalán,0.0,Ingles,4.0,3.0,4.0,no,no,yes,nada,,,,No he tenido ninguna interrupción como tal pero si la sensación de que en la fase 2 confundia alguna silaba y pulsaba el espacio y luego pensaba si no me habria equivocado al escuchar por ejemplo ji en lugar de ki y cosas parecidas. También he detectado el sesgo de querer pulsar el espacio en algunas partes de la fase 2 en las que no detectaba esa silaba. Ha sido curioso que a veces me parecia que podia predecir que iba a salir esa sibala casi antes de que saliera y me daba la sensación de que pulsaba el espacio al mismo tiempo que se pronunciaba y no despues de procesarlo por haberlo previsto o algo asi.  ,74.0,yes
24,2024-05-13_09h11.57.750,Experiment4_uns,s158,24.0,feminino,right,España,Castellano y Catalán,Bachelor degree,no,no,A,1,conjunction_un,L4,unsyncopated,s2,r1,24,Online_conjL4_un//a.zi.lo8.888.1776.wav,re,pe,da,sil,zi,de,ña,sil1,lo,ru,sil2,['catch'],[2.2469999999998436],[2.2469999999998436],1.776,beat,0.4709999999998435,0.4709999999998435,"[""space""]",lo,2,testConjL3Syn//dep_viol.r1.s2.0.wav,2.0,conjunction_syn,syncopated,a,s2,no_rule,dep,L3,m,4.827,3.0,1.0,2.146,3.0,2.0,Castellano,0.0,Catalán,0.0,Ingles,4.0,3.0,4.0,no,no,yes,nada,,,,No he tenido ninguna interrupción como tal pero si la sensación de que en la fase 2 confundia alguna silaba y pulsaba el espacio y luego pensaba si no me habria equivocado al escuchar por ejemplo ji en lugar de ki y cosas parecidas. También he detectado el sesgo de querer pulsar el espacio en algunas partes de la fase 2 en las que no detectaba esa silaba. Ha sido curioso que a veces me parecia que podia predecir que iba a salir esa sibala casi antes de que saliera y me daba la sensación de que pulsaba el espacio al mismo tiempo que se pronunciaba y no despues de procesarlo por haberlo previsto o algo asi.  ,74.0,yes
25,2024-05-13_09h11.57.750,Experiment4_uns,s158,24.0,feminino,right,España,Castellano y Catalán,Bachelor degree,no,no,A,1,conjunction_un,L4,unsyncopated,s1,r2,25,Online_conjL4_un//a.zi.lo10.none.none.wav,ja,ña,da,sil,nu,re,de,sil1,bu,bo,sil2,['-'],,,none,none,,,,lo,2,testConjL3Syn//time_viol.r2.s2.0.wav,2.0,conjunction_syn,syncopated,b,s2,no_rule,time,L3,m,3.368,3.0,1.0,1.419,3.0,2.0,Castellano,0.0,Catalán,0.0,Ingles,4.0,3.0,4.0,no,no,yes,nada,,,,No he tenido ninguna interrupción como tal pero si la sensación de que en la fase 2 confundia alguna silaba y pulsaba el espacio y luego pensaba si no me habria equivocado al escuchar por ejemplo ji en lugar de ki y cosas parecidas. También he detectado el sesgo de querer pulsar el espacio en algunas partes de la fase 2 en las que no detectaba esa silaba. Ha sido curioso que a veces me parecia que podia predecir que iba a salir esa sibala casi antes de que saliera y me daba la sensación de que pulsaba el espacio al mismo tiempo que se pronunciaba y no despues de procesarlo por haberlo previsto o algo asi.  ,74.0,yes
26,2024-05-13_09h11.57.750,Experiment4_uns,s158,24.0,feminino,right,España,Castellano y Catalán,Bachelor degree,no,no,A,1,conjunction_un,L4,unsyncopated,s2,r2,26,Online_conjL4_un//a.zi.lo11.none.none.wav,po,re,ña,sil,ja,bo,ru,sil1,nu,pe,sil2,['-'],,,none,none,,,,lo,2,testConjL3Syn//cat_viol.r2.s2.0.wav,2.0,conjunction_syn,syncopated,b,s2,no_rule,cat,L3,z,2.326,5.0,0.0,1.44,3.0,2.0,Castellano,0.0,Catalán,0.0,Ingles,4.0,3.0,4.0,no,no,yes,nada,,,,No he tenido ninguna interrupción como tal pero si la sensación de que en la fase 2 confundia alguna silaba y pulsaba el espacio y luego pensaba si no me habria equivocado al escuchar por ejemplo ji en lugar de ki y cosas parecidas. También he detectado el sesgo de querer pulsar el espacio en algunas partes de la fase 2 en las que no detectaba esa silaba. Ha sido curioso que a veces me parecia que podia predecir que iba a salir esa sibala casi antes de que saliera y me daba la sensación de que pulsaba el espacio al mismo tiempo que se pronunciaba y no despues de procesarlo por haberlo previsto o algo asi.  ,74.0,yes
27,2024-05-13_09h11.57.750,Experiment4_uns,s158,24.0,feminino,right,España,Castellano y Catalán,Bachelor degree,no,no,A,1,conjunction_un,L4,unsyncopated,s2,r2,27,Online_conjL4_un//a.zi.lo9.none.none.wav,de,po,ña,sil,ja,bu,da,sil1,nu,ñi,sil2,['-'],,,none,none,,,,lo,2,testConjL3Syn//cat_viol.r2.s1.0.wav,2.0,conjunction_syn,syncopated,b,s1,no_rule,cat,L3,z,3.146,3.0,0.0,0.594,3.0,2.0,Castellano,0.0,Catalán,0.0,Ingles,4.0,3.0,4.0,no,no,yes,nada,,,,No he tenido ninguna interrupción como tal pero si la sensación de que en la fase 2 confundia alguna silaba y pulsaba el espacio y luego pensaba si no me habria equivocado al escuchar por ejemplo ji en lugar de ki y cosas parecidas. También he detectado el sesgo de querer pulsar el espacio en algunas partes de la fase 2 en las que no detectaba esa silaba. Ha sido curioso que a veces me parecia que podia predecir que iba a salir esa sibala casi antes de que saliera y me daba la sensación de que pulsaba el espacio al mismo tiempo que se pronunciaba y no despues de procesarlo por haberlo previsto o algo asi.  ,74.0,yes
28,2024-05-13_09h11.57.750,Experiment4_uns,s158,24.0,feminino,right,España,Castellano y Catalán,Bachelor degree,no,no,A,1,conjunction_un,L4,unsyncopated,s2,r2,28,Online_conjL4_un//b.ja.nu8.888.1776.wav,po,ñi,re,sil,ja,de,da,sil1,nu,pe,sil2,['miss'],,,0.888,beat,,,,ja,1,testConjL3Syn//r2.s2.1.wav,2.0,conjunction_syn,syncopated,b,s2,rule,rule,L3,z,3.014,5.0,1.0,0.65,3.0,2.0,Castellano,0.0,Catalán,0.0,Ingles,4.0,3.0,4.0,no,no,yes,nada,,,,No he tenido ninguna interrupción como tal pero si la sensación de que en la fase 2 confundia alguna silaba y pulsaba el espacio y luego pensaba si no me habria equivocado al escuchar por ejemplo ji en lugar de ki y cosas parecidas. También he detectado el sesgo de querer pulsar el espacio en algunas partes de la fase 2 en las que no detectaba esa silaba. Ha sido curioso que a veces me parecia que podia predecir que iba a salir esa sibala casi antes de que saliera y me daba la sensación de que pulsaba el espacio al mismo tiempo que se pronunciaba y no despues de procesarlo por haberlo previsto o algo asi.  ,74.0,yes
29,2024-05-13_09h11.57.750,Experiment4_uns,s158,24.0,feminino,right,España,Castellano y Catalán,Bachelor degree,no,no,A,1,conjunction_un,L4,unsyncopated,s1,r1,29,Online_conjL4_un//b.ja.nu9.none.none.wav,zi,de,bu,sil,lo,bo,po,sil1,da,ñi,sil2,['false alarm'],[1.0559999999998126],[1.0559999999998126],none,none,,,"[""space""]",ja,1,testConjL3Syn//r2.s1.1.wav,2.0,conjunction_syn,syncopated,b,s1,rule,rule,L3,z,1.217,6.0,1.0,1.325,3.0,2.0,Castellano,0.0,Catalán,0.0,Ingles,4.0,3.0,4.0,no,no,yes,nada,,,,No he tenido ninguna interrupción como tal pero si la sensación de que en la fase 2 confundia alguna silaba y pulsaba el espacio y luego pensaba si no me habria equivocado al escuchar por ejemplo ji en lugar de ki y cosas parecidas. También he detectado el sesgo de querer pulsar el espacio en algunas partes de la fase 2 en las que no detectaba esa silaba. Ha sido curioso que a veces me parecia que podia predecir que iba a salir esa sibala casi antes de que saliera y me daba la sensación de que pulsaba el espacio al mismo tiempo que se pronunciaba y no despues de procesarlo por haberlo previsto o algo asi.  ,74.0,yes
30,2024-05-13_09h11.57.750,Experiment4_uns,s158,24.0,feminino,right,España,Castellano y Catalán,Bachelor degree,no,no,A,1,conjunction_un,L4,unsyncopated,s2,r1,30,Online_conjL4_un//b.ja.nu11.none.none.wav,ci,re,bu,sil,zi,da,ña,sil1,lo,ru,sil2,['false alarm'],[1.63799999999992],[1.63799999999992],none,none,,,"[""space""]",ja,1,testConjL3Syn//r1.s1.2.wav,2.0,conjunction_syn,syncopated,a,s1,rule,rule,L3,m,1.714,4.0,0.0,1.405,3.0,2.0,Castellano,0.0,Catalán,0.0,Ingles,4.0,3.0,4.0,no,no,yes,nada,,,,No he tenido ninguna interrupción como tal pero si la sensación de que en la fase 2 confundia alguna silaba y pulsaba el espacio y luego pensaba si no me habria equivocado al escuchar por ejemplo ji en lugar de ki y cosas parecidas. También he detectado el sesgo de querer pulsar el espacio en algunas partes de la fase 2 en las que no detectaba esa silaba. Ha sido curioso que a veces me parecia que podia predecir que iba a salir esa sibala casi antes de que saliera y me daba la sensación de que pulsaba el espacio al mismo tiempo que se pronunciaba y no despues de procesarlo por haberlo previsto o algo asi.  ,74.0,yes
31,2024-05-13_09h11.57.750,Experiment4_uns,s158,24.0,feminino,right,España,Castellano y Catalán,Bachelor degree,no,no,A,1,conjunction_un,L4,unsyncopated,s2,r1,31,Online_conjL4_un//b.ja.nu10.none.none.wav,bu,da,de,sil,zi,ña,ñi,sil1,lo,ci,sil2,['-'],,,none,none,,,,ja,1,testConjL3Syn//time_viol.r1.s2.0.wav,2.0,conjunction_syn,syncopated,a,s2,no_rule,time,L3,z,2.805,5.0,0.0,1.458,3.0,2.0,Castellano,0.0,Catalán,0.0,Ingles,4.0,3.0,4.0,no,no,yes,nada,,,,No he tenido ninguna interrupción como tal pero si la sensación de que en la fase 2 confundia alguna silaba y pulsaba el espacio y luego pensaba si no me habria equivocado al escuchar por ejemplo ji en lugar de ki y cosas parecidas. También he detectado el sesgo de querer pulsar el espacio en algunas partes de la fase 2 en las que no detectaba esa silaba. Ha sido curioso que a veces me parecia que podia predecir que iba a salir esa sibala casi antes de que saliera y me daba la sensación de que pulsaba el espacio al mismo tiempo que se pronunciaba y no despues de procesarlo por haberlo previsto o algo asi.  ,74.0,yes
32,2024-05-13_09h11.57.750,Experiment4_uns,s158,24.0,feminino,right,España,Castellano y Catalán,Bachelor degree,no,no,A,1,conjunction_un,L4,unsyncopated,s1,r1,32,Online_conjL4_un//c.bu.da20.1332.222.wav,zi,da,pe,sil,lo,ñi,bu,sil1,po,de,sil2,['catch'],[1.780999999999949],[1.780999999999949],1.332,no_beat,0.448999999999949,0.448999999999949,"[""space""]",bu,3,testConjL3Syn//r2.s2.2.wav,2.0,conjunction_syn,syncopated,b,s2,rule,rule,L3,m,12.826,3.0,0.0,2.365,3.0,2.0,Castellano,0.0,Catalán,0.0,Ingles,4.0,3.0,4.0,no,no,yes,nada,,,,No he tenido ninguna interrupción como tal pero si la sensación de que en la fase 2 confundia alguna silaba y pulsaba el espacio y luego pensaba si no me habria equivocado al escuchar por ejemplo ji en lugar de ki y cosas parecidas. También he detectado el sesgo de querer pulsar el espacio en algunas partes de la fase 2 en las que no detectaba esa silaba. Ha sido curioso que a veces me parecia que podia predecir que iba a salir esa sibala casi antes de que saliera y me daba la sensación de que pulsaba el espacio al mismo tiempo que se pronunciaba y no despues de procesarlo por haberlo previsto o algo asi.  ,74.0,yes
33,2024-05-13_09h11.57.750,Experiment4_uns,s158,24.0,feminino,right,España,Castellano y Catalán,Bachelor degree,no,no,A,1,conjunction_un,L4,unsyncopated,s2,r1,33,Online_conjL4_un//c.bu.da23.none.none.wav,po,ru,pe,sil,zi,re,ña,sil1,lo,ci,sil2,['-'],,,none,none,,,,bu,3,testConjL3Syn//cat_viol.r1.s2.0.wav,2.0,conjunction_syn,syncopated,a,s2,no_rule,cat,L3,z,5.095,5.0,0.0,1.287,3.0,2.0,Castellano,0.0,Catalán,0.0,Ingles,4.0,3.0,4.0,no,no,yes,nada,,,,No he tenido ninguna interrupción como tal pero si la sensación de que en la fase 2 confundia alguna silaba y pulsaba el espacio y luego pensaba si no me habria equivocado al escuchar por ejemplo ji en lugar de ki y cosas parecidas. También he detectado el sesgo de querer pulsar el espacio en algunas partes de la fase 2 en las que no detectaba esa silaba. Ha sido curioso que a veces me parecia que podia predecir que iba a salir esa sibala casi antes de que saliera y me daba la sensación de que pulsaba el espacio al mismo tiempo que se pronunciaba y no despues de procesarlo por haberlo previsto o algo asi.  ,74.0,yes
34,2024-05-13_09h11.57.750,Experiment4_uns,s158,24.0,feminino,right,España,Castellano y Catalán,Bachelor degree,no,no,A,1,conjunction_un,L4,unsyncopated,s2,r2,34,Online_conjL4_un//c.bu.da21.none.none.wav,de,bo,ñi,sil,ja,ci,po,sil1,nu,re,sil2,['-'],,,none,none,,,,bu,3,testConjL3Syn//r2.s1.2.wav,2.0,conjunction_syn,syncopated,b,s1,rule,rule,L3,m,1.55,5.0,0.0,1.351,3.0,2.0,Castellano,0.0,Catalán,0.0,Ingles,4.0,3.0,4.0,no,no,yes,nada,,,,No he tenido ninguna interrupción como tal pero si la sensación de que en la fase 2 confundia alguna silaba y pulsaba el espacio y luego pensaba si no me habria equivocado al escuchar por ejemplo ji en lugar de ki y cosas parecidas. También he detectado el sesgo de querer pulsar el espacio en algunas partes de la fase 2 en las que no detectaba esa silaba. Ha sido curioso que a veces me parecia que podia predecir que iba a salir esa sibala casi antes de que saliera y me daba la sensación de que pulsaba el espacio al mismo tiempo que se pronunciaba y no despues de procesarlo por haberlo previsto o algo asi.  ,74.0,yes
35,2024-05-13_09h11.57.750,Experiment4_uns,s158,24.0,feminino,right,España,Castellano y Catalán,Bachelor degree,no,no,A,1,conjunction_un,L4,unsyncopated,s2,r1,35,Online_conjL4_un//c.bu.da22.1110.0.wav,da,ci,bo,sil,zi,bu,ru,sil1,lo,pe,sil2,['false alarm'],[1.1040000000000418],[1.1040000000000418],1.11,no_beat,,,"[""space""]",bu,3,testConjL3Syn//r1.s2.1.wav,2.0,conjunction_syn,syncopated,a,s2,rule,rule,L3,z,7.943,2.0,1.0,3.599,3.0,2.0,Castellano,0.0,Catalán,0.0,Ingles,4.0,3.0,4.0,no,no,yes,nada,,,,No he tenido ninguna interrupción como tal pero si la sensación de que en la fase 2 confundia alguna silaba y pulsaba el espacio y luego pensaba si no me habria equivocado al escuchar por ejemplo ji en lugar de ki y cosas parecidas. También he detectado el sesgo de querer pulsar el espacio en algunas partes de la fase 2 en las que no detectaba esa silaba. Ha sido curioso que a veces me parecia que podia predecir que iba a salir esa sibala casi antes de que saliera y me daba la sensación de que pulsaba el espacio al mismo tiempo que se pronunciaba y no despues de procesarlo por haberlo previsto o algo asi.  ,74.0,yes
36,2024-05-13_09h11.57.750,Experiment4_uns,s158,24.0,feminino,right,España,Castellano y Catalán,Bachelor degree,no,no,A,1,conjunction_un,L4,unsyncopated,s1,r2,36,Online_conjL4_un//a.zi.lo4.none.none.wav,ja,da,ñi,sil,nu,pe,re,sil1,bu,bo,sil2,['-'],,,none,none,,,,lo,2,testConjL3Syn//time_viol.r1.s1.0.wav,2.0,conjunction_syn,syncopated,a,s1,no_rule,time,L3,m,2.701,3.0,1.0,2.087,3.0,2.0,Castellano,0.0,Catalán,0.0,Ingles,4.0,3.0,4.0,no,no,yes,nada,,,,No he tenido ninguna interrupción como tal pero si la sensación de que en la fase 2 confundia alguna silaba y pulsaba el espacio y luego pensaba si no me habria equivocado al escuchar por ejemplo ji en lugar de ki y cosas parecidas. También he detectado el sesgo de querer pulsar el espacio en algunas partes de la fase 2 en las que no detectaba esa silaba. Ha sido curioso que a veces me parecia que podia predecir que iba a salir esa sibala casi antes de que saliera y me daba la sensación de que pulsaba el espacio al mismo tiempo que se pronunciaba y no despues de procesarlo por haberlo previsto o algo asi.  ,74.0,yes
37,2024-05-13_09h11.57.750,Experiment4_uns,s158,24.0,feminino,right,España,Castellano y Catalán,Bachelor degree,no,no,A,1,conjunction_un,L4,unsyncopated,s1,r1,37,Online_conjL4_un//a.zi.lo7.0.888.wav,zi,ci,da,sil,lo,ñi,de,sil1,ru,po,sil2,['catch'],[1.4420000000000073],[1.4420000000000073],0.888,beat,0.5540000000000073,0.5540000000000073,"[""space""]",lo,2,testConjL3Syn//r1.s2.0.wav,2.0,conjunction_syn,syncopated,a,s2,rule,rule,L3,z,2.234,6.0,1.0,0.705,3.0,2.0,Castellano,0.0,Catalán,0.0,Ingles,4.0,3.0,4.0,no,no,yes,nada,,,,No he tenido ninguna interrupción como tal pero si la sensación de que en la fase 2 confundia alguna silaba y pulsaba el espacio y luego pensaba si no me habria equivocado al escuchar por ejemplo ji en lugar de ki y cosas parecidas. También he detectado el sesgo de querer pulsar el espacio en algunas partes de la fase 2 en las que no detectaba esa silaba. Ha sido curioso que a veces me parecia que podia predecir que iba a salir esa sibala casi antes de que saliera y me daba la sensación de que pulsaba el espacio al mismo tiempo que se pronunciaba y no despues de procesarlo por haberlo previsto o algo asi.  ,74.0,yes
38,2024-05-13_09h11.57.750,Experiment4_uns,s158,24.0,feminino,right,España,Castellano y Catalán,Bachelor degree,no,no,A,1,conjunction_un,L4,unsyncopated,s2,r2,38,Online_conjL4_un//a.zi.lo5.none.none.wav,ñi,re,pe,sil,ja,da,ña,sil1,nu,bu,sil2,['-'],,,none,none,,,,lo,2,testConjL3Syn//dep_viol.r2.s1.0.wav,2.0,conjunction_syn,syncopated,b,s1,no_rule,dep,L3,z,5.737,6.0,0.0,1.321,3.0,2.0,Castellano,0.0,Catalán,0.0,Ingles,4.0,3.0,4.0,no,no,yes,nada,,,,No he tenido ninguna interrupción como tal pero si la sensación de que en la fase 2 confundia alguna silaba y pulsaba el espacio y luego pensaba si no me habria equivocado al escuchar por ejemplo ji en lugar de ki y cosas parecidas. También he detectado el sesgo de querer pulsar el espacio en algunas partes de la fase 2 en las que no detectaba esa silaba. Ha sido curioso que a veces me parecia que podia predecir que iba a salir esa sibala casi antes de que saliera y me daba la sensación de que pulsaba el espacio al mismo tiempo que se pronunciaba y no despues de procesarlo por haberlo previsto o algo asi.  ,74.0,yes
39,2024-05-13_09h11.57.750,Experiment4_uns,s158,24.0,feminino,right,España,Castellano y Catalán,Bachelor degree,no,no,A,1,conjunction_un,L4,unsyncopated,s1,r1,39,Online_conjL4_un//a.zi.lo6.0.888.wav,zi,da,po,sil,lo,de,ci,sil1,re,bo,sil2,['catch'],[1.6389999999998963],[1.6389999999998963],0.888,beat,0.7509999999998963,0.7509999999998963,"[""space""]",lo,2,testConjL3Syn//r1.s2.2.wav,2.0,conjunction_syn,syncopated,a,s2,rule,rule,L3,z,1.586,6.0,1.0,0.76,3.0,2.0,Castellano,0.0,Catalán,0.0,Ingles,4.0,3.0,4.0,no,no,yes,nada,,,,No he tenido ninguna interrupción como tal pero si la sensación de que en la fase 2 confundia alguna silaba y pulsaba el espacio y luego pensaba si no me habria equivocado al escuchar por ejemplo ji en lugar de ki y cosas parecidas. También he detectado el sesgo de querer pulsar el espacio en algunas partes de la fase 2 en las que no detectaba esa silaba. Ha sido curioso que a veces me parecia que podia predecir que iba a salir esa sibala casi antes de que saliera y me daba la sensación de que pulsaba el espacio al mismo tiempo que se pronunciaba y no despues de procesarlo por haberlo previsto o algo asi.  ,74.0,yes
40,2024-05-13_09h11.57.750,Experiment4_uns,s158,24.0,feminino,right,España,Castellano y Catalán,Bachelor degree,no,no,A,1,conjunction_un,L4,unsyncopated,s1,r1,40,Online_conjL4_un//d.pe.po28.444.1332.wav,zi,ci,pe,sil,lo,ñi,po,sil1,ña,da,sil2,['catch'],[1.1059999999999945],[1.1059999999999945],0.444,no_beat,0.6619999999999946,0.6619999999999946,"[""space""]",pe,4,testConjL3Syn//r1.s1.0.wav,2.0,conjunction_syn,syncopated,a,s1,rule,rule,L3,m,1.251,3.0,0.0,0.889,3.0,2.0,Castellano,0.0,Catalán,0.0,Ingles,4.0,3.0,4.0,no,no,yes,nada,,,,No he tenido ninguna interrupción como tal pero si la sensación de que en la fase 2 confundia alguna silaba y pulsaba el espacio y luego pensaba si no me habria equivocado al escuchar por ejemplo ji en lugar de ki y cosas parecidas. También he detectado el sesgo de querer pulsar el espacio en algunas partes de la fase 2 en las que no detectaba esa silaba. Ha sido curioso que a veces me parecia que podia predecir que iba a salir esa sibala casi antes de que saliera y me daba la sensación de que pulsaba el espacio al mismo tiempo que se pronunciaba y no despues de procesarlo por haberlo previsto o algo asi.  ,74.0,yes
41,2024-05-13_09h11.57.750,Experiment4_uns,s158,24.0,feminino,right,España,Castellano y Catalán,Bachelor degree,no,no,A,1,conjunction_un,L4,unsyncopated,s1,r2,41,Online_conjL4_un//d.pe.po30.1776.1110.wav,ja,ñi,ru,sil,nu,po,ña,sil1,pe,da,sil2,['catch'],[2.3659999999999854],[2.3659999999999854],1.776,beat,0.5899999999999854,0.5899999999999854,"[""space""]",pe,4,testConjL3Syn//r1.s1.1.wav,2.0,conjunction_syn,syncopated,a,s1,rule,rule,L3,z,3.387,6.0,1.0,0.789,3.0,2.0,Castellano,0.0,Catalán,0.0,Ingles,4.0,3.0,4.0,no,no,yes,nada,,,,No he tenido ninguna interrupción como tal pero si la sensación de que en la fase 2 confundia alguna silaba y pulsaba el espacio y luego pensaba si no me habria equivocado al escuchar por ejemplo ji en lugar de ki y cosas parecidas. También he detectado el sesgo de querer pulsar el espacio en algunas partes de la fase 2 en las que no detectaba esa silaba. Ha sido curioso que a veces me parecia que podia predecir que iba a salir esa sibala casi antes de que saliera y me daba la sensación de que pulsaba el espacio al mismo tiempo que se pronunciaba y no despues de procesarlo por haberlo previsto o algo asi.  ,74.0,yes
42,2024-05-13_09h11.57.750,Experiment4_uns,s158,24.0,feminino,right,España,Castellano y Catalán,Bachelor degree,no,no,A,1,conjunction_un,L4,unsyncopated,s2,r1,42,Online_conjL4_un//d.pe.po29.none.none.wav,bo,ña,bu,sil,zi,ru,ci,sil1,lo,de,sil2,['-'],,,none,none,,,,pe,4,testConjL3Syn//dep_viol.r1.s1.0.wav,2.0,conjunction_syn,syncopated,a,s1,no_rule,dep,L3,z,1.591,5.0,0.0,0.637,3.0,2.0,Castellano,0.0,Catalán,0.0,Ingles,4.0,3.0,4.0,no,no,yes,nada,,,,No he tenido ninguna interrupción como tal pero si la sensación de que en la fase 2 confundia alguna silaba y pulsaba el espacio y luego pensaba si no me habria equivocado al escuchar por ejemplo ji en lugar de ki y cosas parecidas. También he detectado el sesgo de querer pulsar el espacio en algunas partes de la fase 2 en las que no detectaba esa silaba. Ha sido curioso que a veces me parecia que podia predecir que iba a salir esa sibala casi antes de que saliera y me daba la sensación de que pulsaba el espacio al mismo tiempo que se pronunciaba y no despues de procesarlo por haberlo previsto o algo asi.  ,74.0,yes
43,2024-05-13_09h11.57.750,Experiment4_uns,s158,24.0,feminino,right,España,Castellano y Catalán,Bachelor degree,no,no,A,1,conjunction_un,L4,unsyncopated,s1,r2,43,Online_conjL4_un//d.pe.po31.none.none.wav,ja,re,ña,sil,nu,bo,ci,sil1,bu,de,sil2,['-'],,,none,none,,,,pe,4,testConjL3Syn//time_viol.r2.s1.0.wav,2.0,conjunction_syn,syncopated,b,s1,no_rule,time,L3,m,1.318,3.0,1.0,0.597,3.0,2.0,Castellano,0.0,Catalán,0.0,Ingles,4.0,3.0,4.0,no,no,yes,nada,,,,No he tenido ninguna interrupción como tal pero si la sensación de que en la fase 2 confundia alguna silaba y pulsaba el espacio y luego pensaba si no me habria equivocado al escuchar por ejemplo ji en lugar de ki y cosas parecidas. También he detectado el sesgo de querer pulsar el espacio en algunas partes de la fase 2 en las que no detectaba esa silaba. Ha sido curioso que a veces me parecia que podia predecir que iba a salir esa sibala casi antes de que saliera y me daba la sensación de que pulsaba el espacio al mismo tiempo que se pronunciaba y no despues de procesarlo por haberlo previsto o algo asi.  ,74.0,yes
44,2024-05-13_09h11.57.750,Experiment4_uns,s158,24.0,feminino,right,España,Castellano y Catalán,Bachelor degree,no,no,A,1,conjunction_un,L4,unsyncopated,s2,r1,44,Online_conjL4_un//c.bu.da14.none.none.wav,po,ru,pe,sil,zi,ñi,de,sil1,lo,ña,sil2,['-'],,,none,none,,,,bu,3,testConjL3Syn//dep_viol.r2.s2.0.wav,2.0,conjunction_syn,syncopated,b,s2,no_rule,dep,L3,z,1.982,6.0,0.0,1.984,3.0,2.0,Castellano,0.0,Catalán,0.0,Ingles,4.0,3.0,4.0,no,no,yes,nada,,,,No he tenido ninguna interrupción como tal pero si la sensación de que en la fase 2 confundia alguna silaba y pulsaba el espacio y luego pensaba si no me habria equivocado al escuchar por ejemplo ji en lugar de ki y cosas parecidas. También he detectado el sesgo de querer pulsar el espacio en algunas partes de la fase 2 en las que no detectaba esa silaba. Ha sido curioso que a veces me parecia que podia predecir que iba a salir esa sibala casi antes de que saliera y me daba la sensación de que pulsaba el espacio al mismo tiempo que se pronunciaba y no despues de procesarlo por haberlo previsto o algo asi.  ,74.0,yes
45,2024-05-13_09h11.57.750,Experiment4_uns,s158,24.0,feminino,right,España,Castellano y Catalán,Bachelor degree,no,no,A,1,conjunction_un,L4,unsyncopated,s2,r2,45,Online_conjL4_un//c.bu.da15.222.1110.wav,ñi,bu,po,sil,ja,da,re,sil1,nu,pe,sil2,['catch'],[0.7870000000000346],[0.7870000000000346],0.222,no_beat,0.5650000000000346,0.5650000000000346,"[""space""]",bu,3,testConjL3Syn//cat_viol.r1.s1.0.wav,2.0,conjunction_syn,syncopated,a,s1,no_rule,cat,L3,m,2.014,3.0,1.0,1.581,3.0,2.0,Castellano,0.0,Catalán,0.0,Ingles,4.0,3.0,4.0,no,no,yes,nada,,,,No he tenido ninguna interrupción como tal pero si la sensación de que en la fase 2 confundia alguna silaba y pulsaba el espacio y luego pensaba si no me habria equivocado al escuchar por ejemplo ji en lugar de ki y cosas parecidas. También he detectado el sesgo de querer pulsar el espacio en algunas partes de la fase 2 en las que no detectaba esa silaba. Ha sido curioso que a veces me parecia que podia predecir que iba a salir esa sibala casi antes de que saliera y me daba la sensación de que pulsaba el espacio al mismo tiempo que se pronunciaba y no despues de procesarlo por haberlo previsto o algo asi.  ,74.0,yes
46,2024-05-13_09h11.57.750,Experiment4_uns,s158,24.0,feminino,right,España,Castellano y Catalán,Bachelor degree,no,no,A,1,conjunction_un,L4,unsyncopated,s1,r2,46,Online_conjL4_un//c.bu.da12.1776.444.wav,ja,po,da,sil,nu,ñi,re,sil1,bu,de,sil2,['catch_delay'],[1.101000000000193],[1.101000000000193],1.776,beat,1.101000000000193,1.101000000000193,,bu,3,testConjL3Syn//r2.s1.0.wav,2.0,conjunction_syn,syncopated,b,s1,rule,rule,L3,z,1.452,5.0,1.0,0.905,3.0,2.0,Castellano,0.0,Catalán,0.0,Ingles,4.0,3.0,4.0,no,no,yes,nada,,,,No he tenido ninguna interrupción como tal pero si la sensación de que en la fase 2 confundia alguna silaba y pulsaba el espacio y luego pensaba si no me habria equivocado al escuchar por ejemplo ji en lugar de ki y cosas parecidas. También he detectado el sesgo de querer pulsar el espacio en algunas partes de la fase 2 en las que no detectaba esa silaba. Ha sido curioso que a veces me parecia que podia predecir que iba a salir esa sibala casi antes de que saliera y me daba la sensación de que pulsaba el espacio al mismo tiempo que se pronunciaba y no despues de procesarlo por haberlo previsto o algo asi.  ,74.0,yes
47,2024-05-13_09h11.57.750,Experiment4_uns,s158,24.0,feminino,right,España,Castellano y Catalán,Bachelor degree,no,no,A,1,conjunction_un,L4,unsyncopated,s2,r2,47,Online_conjL4_un//c.bu.da13.none.none.wav,pe,ru,de,sil,ja,re,bo,sil1,nu,ña,sil2,['-'],[0.2130000000001928],[0.2130000000001928],none,none,,,"[""space""]",bu,3,testConjL3Syn//r2.s2.0.wav,2.0,conjunction_syn,syncopated,b,s2,rule,rule,L3,m,7.285,4.0,0.0,0.798,3.0,2.0,Castellano,0.0,Catalán,0.0,Ingles,4.0,3.0,4.0,no,no,yes,nada,,,,No he tenido ninguna interrupción como tal pero si la sensación de que en la fase 2 confundia alguna silaba y pulsaba el espacio y luego pensaba si no me habria equivocado al escuchar por ejemplo ji en lugar de ki y cosas parecidas. También he detectado el sesgo de querer pulsar el espacio en algunas partes de la fase 2 en las que no detectaba esa silaba. Ha sido curioso que a veces me parecia que podia predecir que iba a salir esa sibala casi antes de que saliera y me daba la sensación de que pulsaba el espacio al mismo tiempo que se pronunciaba y no despues de procesarlo por haberlo previsto o algo asi.  ,74.0,yes
48,2024-05-13_09h11.57.750,Experiment4_uns,s158,24.0,feminino,right,España,Castellano y Catalán,Bachelor degree,no,no,A,1,conjunction_un,L4,unsyncopated,s2,r1,48,Online_conjL4_un//c.bu.da25.444.1110.wav,ru,de,bu,sil,zi,da,ñi,sil1,lo,ña,sil2,['catch'],[1.086999999999989],[1.086999999999989],0.444,no_beat,0.6429999999999891,0.6429999999999891,"[""space""]",bu,3,testWhatL1Uns//cat_viol.r1.s2.0.wav,3.0,what,unsyncopated,a,s2,no_rule,cat,L1,m,5.743,3.0,1.0,2.366,3.0,2.0,Castellano,0.0,Catalán,0.0,Ingles,4.0,3.0,4.0,no,no,yes,nada,,,,No he tenido ninguna interrupción como tal pero si la sensación de que en la fase 2 confundia alguna silaba y pulsaba el espacio y luego pensaba si no me habria equivocado al escuchar por ejemplo ji en lugar de ki y cosas parecidas. También he detectado el sesgo de querer pulsar el espacio en algunas partes de la fase 2 en las que no detectaba esa silaba. Ha sido curioso que a veces me parecia que podia predecir que iba a salir esa sibala casi antes de que saliera y me daba la sensación de que pulsaba el espacio al mismo tiempo que se pronunciaba y no despues de procesarlo por haberlo previsto o algo asi.  ,74.0,yes
49,2024-05-13_09h11.57.750,Experiment4_uns,s158,24.0,feminino,right,España,Castellano y Catalán,Bachelor degree,no,no,A,1,conjunction_un,L4,unsyncopated,s1,r1,49,Online_conjL4_un//c.bu.da26.444.1110.wav,zi,po,bu,sil,lo,da,ci,sil1,de,ñi,sil2,['catch'],[0.9379999999998745],[0.9379999999998745],0.444,no_beat,0.4939999999998745,0.4939999999998745,"[""space""]",bu,3,testWhatL1Uns//cat_viol.r2.s1.0.wav,3.0,what,unsyncopated,b,s1,no_rule,cat,L1,z,0.934,7.0,0.0,0.566,3.0,2.0,Castellano,0.0,Catalán,0.0,Ingles,4.0,3.0,4.0,no,no,yes,nada,,,,No he tenido ninguna interrupción como tal pero si la sensación de que en la fase 2 confundia alguna silaba y pulsaba el espacio y luego pensaba si no me habria equivocado al escuchar por ejemplo ji en lugar de ki y cosas parecidas. También he detectado el sesgo de querer pulsar el espacio en algunas partes de la fase 2 en las que no detectaba esa silaba. Ha sido curioso que a veces me parecia que podia predecir que iba a salir esa sibala casi antes de que saliera y me daba la sensación de que pulsaba el espacio al mismo tiempo que se pronunciaba y no despues de procesarlo por haberlo previsto o algo asi.  ,74.0,yes
50,2024-05-13_09h11.57.750,Experiment4_uns,s158,24.0,feminino,right,España,Castellano y Catalán,Bachelor degree,no,no,A,1,conjunction_un,L4,unsyncopated,s2,r1,50,Online_conjL4_un//c.bu.da27.0.444.wav,bu,po,da,sil,zi,re,pe,sil1,lo,bo,sil2,['catch'],[0.6209999999998672],[0.6209999999998672],0.0,beat,0.6209999999998672,0.6209999999998672,"[""space""]",bu,3,testWhatL1Uns//r2.s2.2.wav,3.0,what,unsyncopated,b,s2,rule,rule,L1,z,1.155,6.0,1.0,0.55,3.0,2.0,Castellano,0.0,Catalán,0.0,Ingles,4.0,3.0,4.0,no,no,yes,nada,,,,No he tenido ninguna interrupción como tal pero si la sensación de que en la fase 2 confundia alguna silaba y pulsaba el espacio y luego pensaba si no me habria equivocado al escuchar por ejemplo ji en lugar de ki y cosas parecidas. También he detectado el sesgo de querer pulsar el espacio en algunas partes de la fase 2 en las que no detectaba esa silaba. Ha sido curioso que a veces me parecia que podia predecir que iba a salir esa sibala casi antes de que saliera y me daba la sensación de que pulsaba el espacio al mismo tiempo que se pronunciaba y no despues de procesarlo por haberlo previsto o algo asi.  ,74.0,yes
51,2024-05-13_09h11.57.750,Experiment4_uns,s158,24.0,feminino,right,España,Castellano y Catalán,Bachelor degree,no,no,A,1,conjunction_un,L4,unsyncopated,s1,r2,51,Online_conjL4_un//c.bu.da24.none.none.wav,ja,po,ci,sil,nu,ña,ru,sil1,re,bo,sil2,['-'],,,none,none,,,,bu,3,testWhatL1Uns//dep_viol.r1.s1.0.wav,3.0,what,unsyncopated,a,s1,no_rule,dep,L1,m,3.229,3.0,1.0,0.578,3.0,2.0,Castellano,0.0,Catalán,0.0,Ingles,4.0,3.0,4.0,no,no,yes,nada,,,,No he tenido ninguna interrupción como tal pero si la sensación de que en la fase 2 confundia alguna silaba y pulsaba el espacio y luego pensaba si no me habria equivocado al escuchar por ejemplo ji en lugar de ki y cosas parecidas. También he detectado el sesgo de querer pulsar el espacio en algunas partes de la fase 2 en las que no detectaba esa silaba. Ha sido curioso que a veces me parecia que podia predecir que iba a salir esa sibala casi antes de que saliera y me daba la sensación de que pulsaba el espacio al mismo tiempo que se pronunciaba y no despues de procesarlo por haberlo previsto o algo asi.  ,74.0,yes
52,2024-05-13_09h11.57.750,Experiment4_uns,s158,24.0,feminino,right,España,Castellano y Catalán,Bachelor degree,no,no,A,1,conjunction_un,L4,unsyncopated,s1,r2,52,Online_conjL4_un//a.zi.lo19.none.none.wav,ja,bo,po,sil,nu,pe,re,sil1,ci,ña,sil2,['-'],,,none,none,,,,lo,2,testWhatL1Uns//dep_viol.r2.s2.0.wav,3.0,what,unsyncopated,b,s2,no_rule,dep,L1,m,3.224,3.0,1.0,1.226,3.0,2.0,Castellano,0.0,Catalán,0.0,Ingles,4.0,3.0,4.0,no,no,yes,nada,,,,No he tenido ninguna interrupción como tal pero si la sensación de que en la fase 2 confundia alguna silaba y pulsaba el espacio y luego pensaba si no me habria equivocado al escuchar por ejemplo ji en lugar de ki y cosas parecidas. También he detectado el sesgo de querer pulsar el espacio en algunas partes de la fase 2 en las que no detectaba esa silaba. Ha sido curioso que a veces me parecia que podia predecir que iba a salir esa sibala casi antes de que saliera y me daba la sensación de que pulsaba el espacio al mismo tiempo que se pronunciaba y no despues de procesarlo por haberlo previsto o algo asi.  ,74.0,yes
53,2024-05-13_09h11.57.750,Experiment4_uns,s158,24.0,feminino,right,España,Castellano y Catalán,Bachelor degree,no,no,A,1,conjunction_un,L4,unsyncopated,s2,r1,53,Online_conjL4_un//a.zi.lo18.888.1776.wav,po,da,ña,sil,zi,re,ci,sil1,lo,de,sil2,['catch'],[2.283000000000129],[2.283000000000129],1.776,beat,0.5070000000001291,0.5070000000001291,"[""space""]",lo,2,testWhatL1Uns//r2.s2.1.wav,3.0,what,unsyncopated,b,s2,rule,rule,L1,z,0.5,7.0,1.0,0.999,3.0,2.0,Castellano,0.0,Catalán,0.0,Ingles,4.0,3.0,4.0,no,no,yes,nada,,,,No he tenido ninguna interrupción como tal pero si la sensación de que en la fase 2 confundia alguna silaba y pulsaba el espacio y luego pensaba si no me habria equivocado al escuchar por ejemplo ji en lugar de ki y cosas parecidas. También he detectado el sesgo de querer pulsar el espacio en algunas partes de la fase 2 en las que no detectaba esa silaba. Ha sido curioso que a veces me parecia que podia predecir que iba a salir esa sibala casi antes de que saliera y me daba la sensación de que pulsaba el espacio al mismo tiempo que se pronunciaba y no despues de procesarlo por haberlo previsto o algo asi.  ,74.0,yes
54,2024-05-13_09h11.57.750,Experiment4_uns,s158,24.0,feminino,right,España,Castellano y Catalán,Bachelor degree,no,no,A,1,conjunction_un,L4,unsyncopated,s2,r2,54,Online_conjL4_un//a.zi.lo17.none.none.wav,re,pe,ru,sil,ja,bu,ña,sil1,nu,po,sil2,['-'],,,none,none,,,,lo,2,testWhatL1Uns//time_viol.r2.s1.0.wav,3.0,what,unsyncopated,b,s1,no_rule,time,L1,z,1.522,6.0,0.0,0.533,3.0,2.0,Castellano,0.0,Catalán,0.0,Ingles,4.0,3.0,4.0,no,no,yes,nada,,,,No he tenido ninguna interrupción como tal pero si la sensación de que en la fase 2 confundia alguna silaba y pulsaba el espacio y luego pensaba si no me habria equivocado al escuchar por ejemplo ji en lugar de ki y cosas parecidas. También he detectado el sesgo de querer pulsar el espacio en algunas partes de la fase 2 en las que no detectaba esa silaba. Ha sido curioso que a veces me parecia que podia predecir que iba a salir esa sibala casi antes de que saliera y me daba la sensación de que pulsaba el espacio al mismo tiempo que se pronunciaba y no despues de procesarlo por haberlo previsto o algo asi.  ,74.0,yes
55,2024-05-13_09h11.57.750,Experiment4_uns,s158,24.0,feminino,right,España,Castellano y Catalán,Bachelor degree,no,no,A,1,conjunction_un,L4,unsyncopated,s1,r1,55,Online_conjL4_un//a.zi.lo16.0.888.wav,zi,ci,ru,sil,lo,bu,de,sil1,da,po,sil2,['catch'],[1.5030000000001564],[1.5030000000001564],0.888,beat,0.6150000000001564,0.6150000000001564,"[""space""]",lo,2,testWhatL1Uns//time_viol.r1.s1.0.wav,3.0,what,unsyncopated,a,s1,no_rule,time,L1,m,1.338,3.0,1.0,1.832,3.0,2.0,Castellano,0.0,Catalán,0.0,Ingles,4.0,3.0,4.0,no,no,yes,nada,,,,No he tenido ninguna interrupción como tal pero si la sensación de que en la fase 2 confundia alguna silaba y pulsaba el espacio y luego pensaba si no me habria equivocado al escuchar por ejemplo ji en lugar de ki y cosas parecidas. También he detectado el sesgo de querer pulsar el espacio en algunas partes de la fase 2 en las que no detectaba esa silaba. Ha sido curioso que a veces me parecia que podia predecir que iba a salir esa sibala casi antes de que saliera y me daba la sensación de que pulsaba el espacio al mismo tiempo que se pronunciaba y no despues de procesarlo por haberlo previsto o algo asi.  ,74.0,yes
56,2024-05-13_09h11.57.750,Experiment4_uns,s158,24.0,feminino,right,España,Castellano y Catalán,Bachelor degree,no,no,A,1,conjunction_un,L4,unsyncopated,s1,r1,56,Online_conjL4_un//d.pe.po13.1776.1110.wav,zi,ña,ñi,sil,lo,po,bu,sil1,pe,de,sil2,['catch'],[2.4309999999998126],[2.4309999999998126],1.776,beat,0.6549999999998126,0.6549999999998126,"[""space""]",pe,4,testWhatL1Uns//r1.s2.2.wav,3.0,what,unsyncopated,a,s2,rule,rule,L1,m,1.272,3.0,0.0,2.0,3.0,2.0,Castellano,0.0,Catalán,0.0,Ingles,4.0,3.0,4.0,no,no,yes,nada,,,,No he tenido ninguna interrupción como tal pero si la sensación de que en la fase 2 confundia alguna silaba y pulsaba el espacio y luego pensaba si no me habria equivocado al escuchar por ejemplo ji en lugar de ki y cosas parecidas. También he detectado el sesgo de querer pulsar el espacio en algunas partes de la fase 2 en las que no detectaba esa silaba. Ha sido curioso que a veces me parecia que podia predecir que iba a salir esa sibala casi antes de que saliera y me daba la sensación de que pulsaba el espacio al mismo tiempo que se pronunciaba y no despues de procesarlo por haberlo previsto o algo asi.  ,74.0,yes
57,2024-05-13_09h11.57.750,Experiment4_uns,s158,24.0,feminino,right,España,Castellano y Catalán,Bachelor degree,no,no,A,1,conjunction_un,L4,unsyncopated,s2,r2,57,Online_conjL4_un//d.pe.po12.none.none.wav,da,ñi,bo,sil,ja,ña,ru,sil1,nu,bu,sil2,['-'],,,none,none,,,,pe,4,testWhatL1Uns//r2.s1.0.wav,3.0,what,unsyncopated,b,s1,rule,rule,L1,z,0.899,7.0,1.0,0.489,3.0,2.0,Castellano,0.0,Catalán,0.0,Ingles,4.0,3.0,4.0,no,no,yes,nada,,,,No he tenido ninguna interrupción como tal pero si la sensación de que en la fase 2 confundia alguna silaba y pulsaba el espacio y luego pensaba si no me habria equivocado al escuchar por ejemplo ji en lugar de ki y cosas parecidas. También he detectado el sesgo de querer pulsar el espacio en algunas partes de la fase 2 en las que no detectaba esa silaba. Ha sido curioso que a veces me parecia que podia predecir que iba a salir esa sibala casi antes de que saliera y me daba la sensación de que pulsaba el espacio al mismo tiempo que se pronunciaba y no despues de procesarlo por haberlo previsto o algo asi.  ,74.0,yes
58,2024-05-13_09h11.57.750,Experiment4_uns,s158,24.0,feminino,right,España,Castellano y Catalán,Bachelor degree,no,no,A,1,conjunction_un,L4,unsyncopated,s1,r2,58,Online_conjL4_un//d.pe.po15.444.1332.wav,ja,bu,pe,sil,nu,ru,po,sil1,de,da,sil2,['catch'],[1.0769999999999982],[1.0769999999999982],0.444,no_beat,0.6329999999999982,0.6329999999999982,"[""space""]",pe,4,testWhatL1Uns//cat_viol.r1.s1.0.wav,3.0,what,unsyncopated,a,s1,no_rule,cat,L1,z,0.473,7.0,0.0,0.85,3.0,2.0,Castellano,0.0,Catalán,0.0,Ingles,4.0,3.0,4.0,no,no,yes,nada,,,,No he tenido ninguna interrupción como tal pero si la sensación de que en la fase 2 confundia alguna silaba y pulsaba el espacio y luego pensaba si no me habria equivocado al escuchar por ejemplo ji en lugar de ki y cosas parecidas. También he detectado el sesgo de querer pulsar el espacio en algunas partes de la fase 2 en las que no detectaba esa silaba. Ha sido curioso que a veces me parecia que podia predecir que iba a salir esa sibala casi antes de que saliera y me daba la sensación de que pulsaba el espacio al mismo tiempo que se pronunciaba y no despues de procesarlo por haberlo previsto o algo asi.  ,74.0,yes
59,2024-05-13_09h11.57.750,Experiment4_uns,s158,24.0,feminino,right,España,Castellano y Catalán,Bachelor degree,no,no,A,1,conjunction_un,L4,unsyncopated,s1,r1,59,Online_conjL4_un//d.pe.po14.none.none.wav,zi,bo,da,sil,lo,ña,ci,sil1,de,re,sil2,['-'],,,none,none,,,,pe,4,testWhatL1Uns//r2.s2.0.wav,3.0,what,unsyncopated,b,s2,rule,rule,L1,z,1.431,4.0,1.0,1.044,3.0,2.0,Castellano,0.0,Catalán,0.0,Ingles,4.0,3.0,4.0,no,no,yes,nada,,,,No he tenido ninguna interrupción como tal pero si la sensación de que en la fase 2 confundia alguna silaba y pulsaba el espacio y luego pensaba si no me habria equivocado al escuchar por ejemplo ji en lugar de ki y cosas parecidas. También he detectado el sesgo de querer pulsar el espacio en algunas partes de la fase 2 en las que no detectaba esa silaba. Ha sido curioso que a veces me parecia que podia predecir que iba a salir esa sibala casi antes de que saliera y me daba la sensación de que pulsaba el espacio al mismo tiempo que se pronunciaba y no despues de procesarlo por haberlo previsto o algo asi.  ,74.0,yes
60,2024-05-13_09h11.57.750,Experiment4_uns,s158,24.0,feminino,right,España,Castellano y Catalán,Bachelor degree,no,no,A,1,conjunction_un,L4,unsyncopated,s1,r2,60,Online_conjL4_un//c.bu.da6.1776.444.wav,ja,ru,da,sil,nu,ñi,ña,sil1,bu,re,sil2,['catch'],[2.334999999999809],[2.334999999999809],1.776,beat,0.558999999999809,0.558999999999809,"[""space""]",bu,3,testWhatL1Uns//r1.s2.0.wav,3.0,what,unsyncopated,a,s2,rule,rule,L1,m,2.376,3.0,0.0,0.731,3.0,2.0,Castellano,0.0,Catalán,0.0,Ingles,4.0,3.0,4.0,no,no,yes,nada,,,,No he tenido ninguna interrupción como tal pero si la sensación de que en la fase 2 confundia alguna silaba y pulsaba el espacio y luego pensaba si no me habria equivocado al escuchar por ejemplo ji en lugar de ki y cosas parecidas. También he detectado el sesgo de querer pulsar el espacio en algunas partes de la fase 2 en las que no detectaba esa silaba. Ha sido curioso que a veces me parecia que podia predecir que iba a salir esa sibala casi antes de que saliera y me daba la sensación de que pulsaba el espacio al mismo tiempo que se pronunciaba y no despues de procesarlo por haberlo previsto o algo asi.  ,74.0,yes
61,2024-05-13_09h11.57.750,Experiment4_uns,s158,24.0,feminino,right,España,Castellano y Catalán,Bachelor degree,no,no,A,1,conjunction_un,L4,unsyncopated,s1,r1,61,Online_conjL4_un//c.bu.da7.none.none.wav,zi,re,po,sil,lo,bo,ci,sil1,ña,de,sil2,['-'],,,none,none,,,,bu,3,testWhatL1Uns//dep_viol.r2.s1.0.wav,3.0,what,unsyncopated,b,s1,no_rule,dep,L1,z,1.075,7.0,0.0,0.492,3.0,2.0,Castellano,0.0,Catalán,0.0,Ingles,4.0,3.0,4.0,no,no,yes,nada,,,,No he tenido ninguna interrupción como tal pero si la sensación de que en la fase 2 confundia alguna silaba y pulsaba el espacio y luego pensaba si no me habria equivocado al escuchar por ejemplo ji en lugar de ki y cosas parecidas. También he detectado el sesgo de querer pulsar el espacio en algunas partes de la fase 2 en las que no detectaba esa silaba. Ha sido curioso que a veces me parecia que podia predecir que iba a salir esa sibala casi antes de que saliera y me daba la sensación de que pulsaba el espacio al mismo tiempo que se pronunciaba y no despues de procesarlo por haberlo previsto o algo asi.  ,74.0,yes
62,2024-05-13_09h11.57.750,Experiment4_uns,s158,24.0,feminino,right,España,Castellano y Catalán,Bachelor degree,no,no,A,1,conjunction_un,L4,unsyncopated,s1,r1,62,Online_conjL4_un//c.bu.da4.1776.1110.wav,zi,re,bo,sil,lo,da,ru,sil1,bu,de,sil2,['catch'],[2.421000000000049],[2.421000000000049],1.776,beat,0.6450000000000491,0.6450000000000491,"[""space""]",bu,3,testWhatL1Uns//r1.s1.0.wav,3.0,what,unsyncopated,a,s1,rule,rule,L1,m,3.031,2.0,0.0,1.948,3.0,2.0,Castellano,0.0,Catalán,0.0,Ingles,4.0,3.0,4.0,no,no,yes,nada,,,,No he tenido ninguna interrupción como tal pero si la sensación de que en la fase 2 confundia alguna silaba y pulsaba el espacio y luego pensaba si no me habria equivocado al escuchar por ejemplo ji en lugar de ki y cosas parecidas. También he detectado el sesgo de querer pulsar el espacio en algunas partes de la fase 2 en las que no detectaba esa silaba. Ha sido curioso que a veces me parecia que podia predecir que iba a salir esa sibala casi antes de que saliera y me daba la sensación de que pulsaba el espacio al mismo tiempo que se pronunciaba y no despues de procesarlo por haberlo previsto o algo asi.  ,74.0,yes
63,2024-05-13_09h11.57.750,Experiment4_uns,s158,24.0,feminino,right,España,Castellano y Catalán,Bachelor degree,no,no,A,1,conjunction_un,L4,unsyncopated,s2,r1,63,Online_conjL4_un//c.bu.da5.222.444.wav,po,bu,da,sil,zi,de,ci,sil1,lo,re,sil2,['miss'],,,0.222,no_beat,,,,bu,3,testWhatL1Uns//r1.s1.2.wav,3.0,what,unsyncopated,a,s1,rule,rule,L1,z,1.736,6.0,1.0,1.824,3.0,2.0,Castellano,0.0,Catalán,0.0,Ingles,4.0,3.0,4.0,no,no,yes,nada,,,,No he tenido ninguna interrupción como tal pero si la sensación de que en la fase 2 confundia alguna silaba y pulsaba el espacio y luego pensaba si no me habria equivocado al escuchar por ejemplo ji en lugar de ki y cosas parecidas. También he detectado el sesgo de querer pulsar el espacio en algunas partes de la fase 2 en las que no detectaba esa silaba. Ha sido curioso que a veces me parecia que podia predecir que iba a salir esa sibala casi antes de que saliera y me daba la sensación de que pulsaba el espacio al mismo tiempo que se pronunciaba y no despues de procesarlo por haberlo previsto o algo asi.  ,74.0,yes
64,2024-05-13_09h11.57.750,Experiment4_uns,s158,24.0,feminino,right,España,Castellano y Catalán,Bachelor degree,no,no,A,1,conjunction_un,L4,unsyncopated,s1,r1,64,Online_conjL4_un//a.zi.lo2.0.888.wav,zi,ña,re,sil,lo,de,pe,sil1,bu,po,sil2,['catch'],[1.3489999999999327],[1.3489999999999327],0.888,beat,0.4609999999999327,0.4609999999999327,"[""space""]",lo,2,testWhatL1Uns//r2.s1.2.wav,3.0,what,unsyncopated,b,s1,rule,rule,L1,z,0.754,7.0,1.0,0.602,3.0,2.0,Castellano,0.0,Catalán,0.0,Ingles,4.0,3.0,4.0,no,no,yes,nada,,,,No he tenido ninguna interrupción como tal pero si la sensación de que en la fase 2 confundia alguna silaba y pulsaba el espacio y luego pensaba si no me habria equivocado al escuchar por ejemplo ji en lugar de ki y cosas parecidas. También he detectado el sesgo de querer pulsar el espacio en algunas partes de la fase 2 en las que no detectaba esa silaba. Ha sido curioso que a veces me parecia que podia predecir que iba a salir esa sibala casi antes de que saliera y me daba la sensación de que pulsaba el espacio al mismo tiempo que se pronunciaba y no despues de procesarlo por haberlo previsto o algo asi.  ,74.0,yes
65,2024-05-13_09h11.57.750,Experiment4_uns,s158,24.0,feminino,right,España,Castellano y Catalán,Bachelor degree,no,no,A,1,conjunction_un,L4,unsyncopated,s1,r2,65,Online_conjL4_un//a.zi.lo3.none.none.wav,ja,bu,re,sil,nu,pe,ñi,sil1,ru,ci,sil2,['-'],,,none,none,,,,lo,2,testWhatL1Uns//time_viol.r1.s2.0.wav,3.0,what,unsyncopated,a,s2,no_rule,time,L1,m,1.95,4.0,1.0,0.725,3.0,2.0,Castellano,0.0,Catalán,0.0,Ingles,4.0,3.0,4.0,no,no,yes,nada,,,,No he tenido ninguna interrupción como tal pero si la sensación de que en la fase 2 confundia alguna silaba y pulsaba el espacio y luego pensaba si no me habria equivocado al escuchar por ejemplo ji en lugar de ki y cosas parecidas. También he detectado el sesgo de querer pulsar el espacio en algunas partes de la fase 2 en las que no detectaba esa silaba. Ha sido curioso que a veces me parecia que podia predecir que iba a salir esa sibala casi antes de que saliera y me daba la sensación de que pulsaba el espacio al mismo tiempo que se pronunciaba y no despues de procesarlo por haberlo previsto o algo asi.  ,74.0,yes
66,2024-05-13_09h11.57.750,Experiment4_uns,s158,24.0,feminino,right,España,Castellano y Catalán,Bachelor degree,no,no,A,1,conjunction_un,L4,unsyncopated,s2,r1,66,Online_conjL4_un//a.zi.lo0.888.1776.wav,ñi,bu,ci,sil,zi,da,pe,sil1,lo,re,sil2,['catch'],[2.216999999999871],[2.216999999999871],1.776,beat,0.4409999999998708,0.4409999999998708,"[""space""]",lo,2,testWhatL1Uns//cat_viol.r2.s2.0.wav,3.0,what,unsyncopated,b,s2,no_rule,cat,L1,m,2.276,3.0,1.0,0.722,3.0,2.0,Castellano,0.0,Catalán,0.0,Ingles,4.0,3.0,4.0,no,no,yes,nada,,,,No he tenido ninguna interrupción como tal pero si la sensación de que en la fase 2 confundia alguna silaba y pulsaba el espacio y luego pensaba si no me habria equivocado al escuchar por ejemplo ji en lugar de ki y cosas parecidas. También he detectado el sesgo de querer pulsar el espacio en algunas partes de la fase 2 en las que no detectaba esa silaba. Ha sido curioso que a veces me parecia que podia predecir que iba a salir esa sibala casi antes de que saliera y me daba la sensación de que pulsaba el espacio al mismo tiempo que se pronunciaba y no despues de procesarlo por haberlo previsto o algo asi.  ,74.0,yes
67,2024-05-13_09h11.57.750,Experiment4_uns,s158,24.0,feminino,right,España,Castellano y Catalán,Bachelor degree,no,no,A,1,conjunction_un,L4,unsyncopated,s1,r1,67,Online_conjL4_un//a.zi.lo1.0.888.wav,zi,ña,ci,sil,lo,po,pe,sil1,bo,da,sil2,['catch'],[1.9279999999998836],[1.9279999999998836],0.888,beat,1.0399999999998837,1.0399999999998837,"[""space""]",lo,2,testWhatL1Uns//r1.s2.1.wav,3.0,what,unsyncopated,a,s2,rule,rule,L1,m,1.418,4.0,0.0,1.04,3.0,2.0,Castellano,0.0,Catalán,0.0,Ingles,4.0,3.0,4.0,no,no,yes,nada,,,,No he tenido ninguna interrupción como tal pero si la sensación de que en la fase 2 confundia alguna silaba y pulsaba el espacio y luego pensaba si no me habria equivocado al escuchar por ejemplo ji en lugar de ki y cosas parecidas. También he detectado el sesgo de querer pulsar el espacio en algunas partes de la fase 2 en las que no detectaba esa silaba. Ha sido curioso que a veces me parecia que podia predecir que iba a salir esa sibala casi antes de que saliera y me daba la sensación de que pulsaba el espacio al mismo tiempo que se pronunciaba y no despues de procesarlo por haberlo previsto o algo asi.  ,74.0,yes
68,2024-05-13_09h11.57.750,Experiment4_uns,s158,24.0,feminino,right,España,Castellano y Catalán,Bachelor degree,no,no,A,1,conjunction_un,L4,unsyncopated,s2,r2,68,Online_conjL4_un//c.bu.da8.1332.444.wav,ña,ñi,da,sil,ja,ru,bu,sil1,nu,ci,sil2,['catch'],[1.7760000000000673],[1.7760000000000673],1.332,no_beat,0.4440000000000672,0.4440000000000672,"[""space""]",bu,3,testWhatL1Uns//time_viol.r2.s2.0.wav,3.0,what,unsyncopated,b,s2,no_rule,time,L1,m,1.492,2.0,1.0,0.585,3.0,2.0,Castellano,0.0,Catalán,0.0,Ingles,4.0,3.0,4.0,no,no,yes,nada,,,,No he tenido ninguna interrupción como tal pero si la sensación de que en la fase 2 confundia alguna silaba y pulsaba el espacio y luego pensaba si no me habria equivocado al escuchar por ejemplo ji en lugar de ki y cosas parecidas. También he detectado el sesgo de querer pulsar el espacio en algunas partes de la fase 2 en las que no detectaba esa silaba. Ha sido curioso que a veces me parecia que podia predecir que iba a salir esa sibala casi antes de que saliera y me daba la sensación de que pulsaba el espacio al mismo tiempo que se pronunciaba y no despues de procesarlo por haberlo previsto o algo asi.  ,74.0,yes
69,2024-05-13_09h11.57.750,Experiment4_uns,s158,24.0,feminino,right,España,Castellano y Catalán,Bachelor degree,no,no,A,1,conjunction_un,L4,unsyncopated,s1,r2,69,Online_conjL4_un//c.bu.da11.none.none.wav,ja,bo,ñi,sil,nu,pe,re,sil1,ci,ña,sil2,['-'],,,none,none,,,,bu,3,testWhatL1Uns//r1.s1.1.wav,3.0,what,unsyncopated,a,s1,rule,rule,L1,m,1.068,3.0,0.0,0.937,3.0,2.0,Castellano,0.0,Catalán,0.0,Ingles,4.0,3.0,4.0,no,no,yes,nada,,,,No he tenido ninguna interrupción como tal pero si la sensación de que en la fase 2 confundia alguna silaba y pulsaba el espacio y luego pensaba si no me habria equivocado al escuchar por ejemplo ji en lugar de ki y cosas parecidas. También he detectado el sesgo de querer pulsar el espacio en algunas partes de la fase 2 en las que no detectaba esa silaba. Ha sido curioso que a veces me parecia que podia predecir que iba a salir esa sibala casi antes de que saliera y me daba la sensación de que pulsaba el espacio al mismo tiempo que se pronunciaba y no despues de procesarlo por haberlo previsto o algo asi.  ,74.0,yes
70,2024-05-13_09h11.57.750,Experiment4_uns,s158,24.0,feminino,right,España,Castellano y Catalán,Bachelor degree,no,no,A,1,conjunction_un,L4,unsyncopated,s1,r2,70,Online_conjL4_un//c.bu.da9.none.none.wav,ja,re,ñi,sil,nu,ña,de,sil1,bo,po,sil2,['-'],,,none,none,,,,bu,3,testWhatL1Uns//dep_viol.r1.s2.0.wav,3.0,what,unsyncopated,a,s2,no_rule,dep,L1,z,1.267,6.0,0.0,0.699,3.0,2.0,Castellano,0.0,Catalán,0.0,Ingles,4.0,3.0,4.0,no,no,yes,nada,,,,No he tenido ninguna interrupción como tal pero si la sensación de que en la fase 2 confundia alguna silaba y pulsaba el espacio y luego pensaba si no me habria equivocado al escuchar por ejemplo ji en lugar de ki y cosas parecidas. También he detectado el sesgo de querer pulsar el espacio en algunas partes de la fase 2 en las que no detectaba esa silaba. Ha sido curioso que a veces me parecia que podia predecir que iba a salir esa sibala casi antes de que saliera y me daba la sensación de que pulsaba el espacio al mismo tiempo que se pronunciaba y no despues de procesarlo por haberlo previsto o algo asi.  ,74.0,yes
71,2024-05-13_09h11.57.750,Experiment4_uns,s158,24.0,feminino,right,España,Castellano y Catalán,Bachelor degree,no,no,A,1,conjunction_un,L4,unsyncopated,s2,r2,71,Online_conjL4_un//c.bu.da10.0.1110.wav,bu,po,ña,sil,ja,da,ru,sil1,nu,ñi,sil2,['catch'],[0.59699999999998],[0.59699999999998],0.0,beat,0.59699999999998,0.59699999999998,"[""space""]",bu,3,testWhatL1Uns//r2.s1.1.wav,3.0,what,unsyncopated,b,s1,rule,rule,L1,z,0.789,5.0,1.0,1.154,3.0,2.0,Castellano,0.0,Catalán,0.0,Ingles,4.0,3.0,4.0,no,no,yes,nada,,,,No he tenido ninguna interrupción como tal pero si la sensación de que en la fase 2 confundia alguna silaba y pulsaba el espacio y luego pensaba si no me habria equivocado al escuchar por ejemplo ji en lugar de ki y cosas parecidas. También he detectado el sesgo de querer pulsar el espacio en algunas partes de la fase 2 en las que no detectaba esa silaba. Ha sido curioso que a veces me parecia que podia predecir que iba a salir esa sibala casi antes de que saliera y me daba la sensación de que pulsaba el espacio al mismo tiempo que se pronunciaba y no despues de procesarlo por haberlo previsto o algo asi.  ,74.0,yes
72,2024-05-13_09h11.57.750,Experiment4_uns,s158,24.0,feminino,right,España,Castellano y Catalán,Bachelor degree,no,no,A,1,conjunction_un,L4,unsyncopated,s1,r1,72,Online_conjL4_un//d.pe.po5.none.none.wav,zi,de,re,sil,lo,ru,ci,sil1,bo,bu,sil2,['-'],,,none,none,,,,pe,4,testWhenL2Uns//r1.s1.0.wav,4.0,when,unsyncopated,a,s1,rule,rule,L2,z,5.001,4.0,1.0,1.595,3.0,2.0,Castellano,0.0,Catalán,0.0,Ingles,4.0,3.0,4.0,no,no,yes,nada,,,,No he tenido ninguna interrupción como tal pero si la sensación de que en la fase 2 confundia alguna silaba y pulsaba el espacio y luego pensaba si no me habria equivocado al escuchar por ejemplo ji en lugar de ki y cosas parecidas. También he detectado el sesgo de querer pulsar el espacio en algunas partes de la fase 2 en las que no detectaba esa silaba. Ha sido curioso que a veces me parecia que podia predecir que iba a salir esa sibala casi antes de que saliera y me daba la sensación de que pulsaba el espacio al mismo tiempo que se pronunciaba y no despues de procesarlo por haberlo previsto o algo asi.  ,74.0,yes
73,2024-05-13_09h11.57.750,Experiment4_uns,s158,24.0,feminino,right,España,Castellano y Catalán,Bachelor degree,no,no,A,1,conjunction_un,L4,unsyncopated,s1,r2,73,Online_conjL4_un//d.pe.po6.1110.222.wav,ja,po,de,sil,nu,pe,da,sil1,ru,bo,sil2,['miss'],,,1.11,no_beat,,,,pe,4,testWhenL2Uns//r2.s1.1.wav,4.0,when,unsyncopated,b,s1,rule,rule,L2,z,3.253,2.0,1.0,1.898,3.0,2.0,Castellano,0.0,Catalán,0.0,Ingles,4.0,3.0,4.0,no,no,yes,nada,,,,No he tenido ninguna interrupción como tal pero si la sensación de que en la fase 2 confundia alguna silaba y pulsaba el espacio y luego pensaba si no me habria equivocado al escuchar por ejemplo ji en lugar de ki y cosas parecidas. También he detectado el sesgo de querer pulsar el espacio en algunas partes de la fase 2 en las que no detectaba esa silaba. Ha sido curioso que a veces me parecia que podia predecir que iba a salir esa sibala casi antes de que saliera y me daba la sensación de que pulsaba el espacio al mismo tiempo que se pronunciaba y no despues de procesarlo por haberlo previsto o algo asi.  ,74.0,yes
74,2024-05-13_09h11.57.750,Experiment4_uns,s158,24.0,feminino,right,España,Castellano y Catalán,Bachelor degree,no,no,A,1,conjunction_un,L4,unsyncopated,s2,r1,74,Online_conjL4_un//d.pe.po4.0.1110.wav,pe,ru,da,sil,zi,po,ñi,sil1,lo,bu,sil2,['catch'],[0.6270000000001801],[0.6270000000001801],0.0,beat,0.6270000000001801,0.6270000000001801,"[""space""]",pe,4,testWhenL2Uns//dep_viol.r1.s2.0.wav,4.0,when,unsyncopated,a,s2,no_rule,dep,L2,m,3.133,1.0,0.0,2.657,3.0,2.0,Castellano,0.0,Catalán,0.0,Ingles,4.0,3.0,4.0,no,no,yes,nada,,,,No he tenido ninguna interrupción como tal pero si la sensación de que en la fase 2 confundia alguna silaba y pulsaba el espacio y luego pensaba si no me habria equivocado al escuchar por ejemplo ji en lugar de ki y cosas parecidas. También he detectado el sesgo de querer pulsar el espacio en algunas partes de la fase 2 en las que no detectaba esa silaba. Ha sido curioso que a veces me parecia que podia predecir que iba a salir esa sibala casi antes de que saliera y me daba la sensación de que pulsaba el espacio al mismo tiempo que se pronunciaba y no despues de procesarlo por haberlo previsto o algo asi.  ,74.0,yes
75,2024-05-13_09h11.57.750,Experiment4_uns,s158,24.0,feminino,right,España,Castellano y Catalán,Bachelor degree,no,no,A,1,conjunction_un,L4,unsyncopated,s1,r1,75,Online_conjL4_un//d.pe.po7.1110.222.wav,zi,po,ña,sil,lo,pe,ru,sil1,da,re,sil2,['catch'],[1.6209999999998672],[1.6209999999998672],1.11,no_beat,0.5109999999998671,0.5109999999998671,"[""space""]",pe,4,testWhenL2Uns//r2.s1.2.wav,4.0,when,unsyncopated,b,s1,rule,rule,L2,m,2.555,6.0,0.0,1.284,3.0,2.0,Castellano,0.0,Catalán,0.0,Ingles,4.0,3.0,4.0,no,no,yes,nada,,,,No he tenido ninguna interrupción como tal pero si la sensación de que en la fase 2 confundia alguna silaba y pulsaba el espacio y luego pensaba si no me habria equivocado al escuchar por ejemplo ji en lugar de ki y cosas parecidas. También he detectado el sesgo de querer pulsar el espacio en algunas partes de la fase 2 en las que no detectaba esa silaba. Ha sido curioso que a veces me parecia que podia predecir que iba a salir esa sibala casi antes de que saliera y me daba la sensación de que pulsaba el espacio al mismo tiempo que se pronunciaba y no despues de procesarlo por haberlo previsto o algo asi.  ,74.0,yes
76,2024-05-13_09h11.57.750,Experiment4_uns,s158,24.0,feminino,right,España,Castellano y Catalán,Bachelor degree,no,no,A,1,conjunction_un,L4,unsyncopated,s2,r1,76,Online_conjL4_un//d.pe.po11.1110.222.wav,bo,po,da,sil,zi,pe,de,sil1,lo,ñi,sil2,['miss'],,,1.11,no_beat,,,,pe,4,testWhenL2Uns//dep_viol.r2.s1.0.wav,4.0,when,unsyncopated,b,s1,no_rule,dep,L2,z,0.822,6.0,1.0,0.903,3.0,2.0,Castellano,0.0,Catalán,0.0,Ingles,4.0,3.0,4.0,no,no,yes,nada,,,,No he tenido ninguna interrupción como tal pero si la sensación de que en la fase 2 confundia alguna silaba y pulsaba el espacio y luego pensaba si no me habria equivocado al escuchar por ejemplo ji en lugar de ki y cosas parecidas. También he detectado el sesgo de querer pulsar el espacio en algunas partes de la fase 2 en las que no detectaba esa silaba. Ha sido curioso que a veces me parecia que podia predecir que iba a salir esa sibala casi antes de que saliera y me daba la sensación de que pulsaba el espacio al mismo tiempo que se pronunciaba y no despues de procesarlo por haberlo previsto o algo asi.  ,74.0,yes
77,2024-05-13_09h11.57.750,Experiment4_uns,s158,24.0,feminino,right,España,Castellano y Catalán,Bachelor degree,no,no,A,1,conjunction_un,L4,unsyncopated,s2,r2,77,Online_conjL4_un//d.pe.po10.1332.444.wav,re,ñi,po,sil,ja,bu,pe,sil1,nu,ru,sil2,['catch'],[1.8709999999998672],[1.8709999999998672],1.332,no_beat,0.5389999999998671,0.5389999999998671,"[""space""]",pe,4,testWhenL2Uns//cat_viol.r1.s1.0.wav,4.0,when,unsyncopated,a,s1,no_rule,cat,L2,m,0.956,2.0,0.0,1.106,3.0,2.0,Castellano,0.0,Catalán,0.0,Ingles,4.0,3.0,4.0,no,no,yes,nada,,,,No he tenido ninguna interrupción como tal pero si la sensación de que en la fase 2 confundia alguna silaba y pulsaba el espacio y luego pensaba si no me habria equivocado al escuchar por ejemplo ji en lugar de ki y cosas parecidas. También he detectado el sesgo de querer pulsar el espacio en algunas partes de la fase 2 en las que no detectaba esa silaba. Ha sido curioso que a veces me parecia que podia predecir que iba a salir esa sibala casi antes de que saliera y me daba la sensación de que pulsaba el espacio al mismo tiempo que se pronunciaba y no despues de procesarlo por haberlo previsto o algo asi.  ,74.0,yes
78,2024-05-13_09h11.57.750,Experiment4_uns,s158,24.0,feminino,right,España,Castellano y Catalán,Bachelor degree,no,no,A,1,conjunction_un,L4,unsyncopated,s2,r1,78,Online_conjL4_un//d.pe.po8.none.none.wav,ña,re,ci,sil,zi,ru,ñi,sil1,lo,de,sil2,['-'],,,none,none,,,,pe,4,testWhenL2Uns//cat_viol.r2.s2.0.wav,4.0,when,unsyncopated,b,s2,no_rule,cat,L2,z,0.949,7.0,1.0,0.518,3.0,2.0,Castellano,0.0,Catalán,0.0,Ingles,4.0,3.0,4.0,no,no,yes,nada,,,,No he tenido ninguna interrupción como tal pero si la sensación de que en la fase 2 confundia alguna silaba y pulsaba el espacio y luego pensaba si no me habria equivocado al escuchar por ejemplo ji en lugar de ki y cosas parecidas. También he detectado el sesgo de querer pulsar el espacio en algunas partes de la fase 2 en las que no detectaba esa silaba. Ha sido curioso que a veces me parecia que podia predecir que iba a salir esa sibala casi antes de que saliera y me daba la sensación de que pulsaba el espacio al mismo tiempo que se pronunciaba y no despues de procesarlo por haberlo previsto o algo asi.  ,74.0,yes
79,2024-05-13_09h11.57.750,Experiment4_uns,s158,24.0,feminino,right,España,Castellano y Catalán,Bachelor degree,no,no,A,1,conjunction_un,L4,unsyncopated,s1,r1,79,Online_conjL4_un//d.pe.po9.222.1110.wav,zi,pe,bo,sil,lo,po,de,sil1,ru,re,sil2,['miss'],,,0.222,no_beat,,,,pe,4,testWhenL2Uns//time_viol.r1.s2.0.wav,4.0,when,unsyncopated,a,s2,no_rule,time,L2,z,1.119,6.0,1.0,0.505,3.0,2.0,Castellano,0.0,Catalán,0.0,Ingles,4.0,3.0,4.0,no,no,yes,nada,,,,No he tenido ninguna interrupción como tal pero si la sensación de que en la fase 2 confundia alguna silaba y pulsaba el espacio y luego pensaba si no me habria equivocado al escuchar por ejemplo ji en lugar de ki y cosas parecidas. También he detectado el sesgo de querer pulsar el espacio en algunas partes de la fase 2 en las que no detectaba esa silaba. Ha sido curioso que a veces me parecia que podia predecir que iba a salir esa sibala casi antes de que saliera y me daba la sensación de que pulsaba el espacio al mismo tiempo que se pronunciaba y no despues de procesarlo por haberlo previsto o algo asi.  ,74.0,yes
80,2024-05-13_09h11.57.750,Experiment4_uns,s158,24.0,feminino,right,España,Castellano y Catalán,Bachelor degree,no,no,A,1,conjunction_un,L4,unsyncopated,s2,r1,80,Online_conjL4_un//c.bu.da17.none.none.wav,ru,de,re,sil,zi,ci,po,sil1,lo,pe,sil2,['-'],,,none,none,,,,bu,3,testWhenL2Uns//time_viol.r2.s1.0.wav,4.0,when,unsyncopated,b,s1,no_rule,time,L2,z,0.708,7.0,1.0,0.554,3.0,2.0,Castellano,0.0,Catalán,0.0,Ingles,4.0,3.0,4.0,no,no,yes,nada,,,,No he tenido ninguna interrupción como tal pero si la sensación de que en la fase 2 confundia alguna silaba y pulsaba el espacio y luego pensaba si no me habria equivocado al escuchar por ejemplo ji en lugar de ki y cosas parecidas. También he detectado el sesgo de querer pulsar el espacio en algunas partes de la fase 2 en las que no detectaba esa silaba. Ha sido curioso que a veces me parecia que podia predecir que iba a salir esa sibala casi antes de que saliera y me daba la sensación de que pulsaba el espacio al mismo tiempo que se pronunciaba y no despues de procesarlo por haberlo previsto o algo asi.  ,74.0,yes
81,2024-05-13_09h11.57.750,Experiment4_uns,s158,24.0,feminino,right,España,Castellano y Catalán,Bachelor degree,no,no,A,1,conjunction_un,L4,unsyncopated,s1,r2,81,Online_conjL4_un//c.bu.da18.1110.222.wav,ja,da,re,sil,nu,bu,ru,sil1,bo,pe,sil2,['catch'],[2.0019999999999527],[2.0019999999999527],1.11,no_beat,0.8919999999999526,0.8919999999999526,"[""space""]",bu,3,testWhenL2Uns//time_viol.r2.s2.0.wav,4.0,when,unsyncopated,b,s2,no_rule,time,L2,z,1.523,7.0,1.0,0.551,3.0,2.0,Castellano,0.0,Catalán,0.0,Ingles,4.0,3.0,4.0,no,no,yes,nada,,,,No he tenido ninguna interrupción como tal pero si la sensación de que en la fase 2 confundia alguna silaba y pulsaba el espacio y luego pensaba si no me habria equivocado al escuchar por ejemplo ji en lugar de ki y cosas parecidas. También he detectado el sesgo de querer pulsar el espacio en algunas partes de la fase 2 en las que no detectaba esa silaba. Ha sido curioso que a veces me parecia que podia predecir que iba a salir esa sibala casi antes de que saliera y me daba la sensación de que pulsaba el espacio al mismo tiempo que se pronunciaba y no despues de procesarlo por haberlo previsto o algo asi.  ,74.0,yes
82,2024-05-13_09h11.57.750,Experiment4_uns,s158,24.0,feminino,right,España,Castellano y Catalán,Bachelor degree,no,no,A,1,conjunction_un,L4,unsyncopated,s1,r2,82,Online_conjL4_un//c.bu.da16.none.none.wav,ja,de,ñi,sil,nu,pe,ru,sil1,re,ci,sil2,['false alarm'],[2.102000000000089],[2.102000000000089],none,none,,,"[""space""]",bu,3,testWhenL2Uns//dep_viol.r2.s2.0.wav,4.0,when,unsyncopated,b,s2,no_rule,dep,L2,z,1.717,6.0,1.0,1.646,3.0,2.0,Castellano,0.0,Catalán,0.0,Ingles,4.0,3.0,4.0,no,no,yes,nada,,,,No he tenido ninguna interrupción como tal pero si la sensación de que en la fase 2 confundia alguna silaba y pulsaba el espacio y luego pensaba si no me habria equivocado al escuchar por ejemplo ji en lugar de ki y cosas parecidas. También he detectado el sesgo de querer pulsar el espacio en algunas partes de la fase 2 en las que no detectaba esa silaba. Ha sido curioso que a veces me parecia que podia predecir que iba a salir esa sibala casi antes de que saliera y me daba la sensación de que pulsaba el espacio al mismo tiempo que se pronunciaba y no despues de procesarlo por haberlo previsto o algo asi.  ,74.0,yes
83,2024-05-13_09h11.57.750,Experiment4_uns,s158,24.0,feminino,right,España,Castellano y Catalán,Bachelor degree,no,no,A,1,conjunction_un,L4,unsyncopated,s2,r1,83,Online_conjL4_un//c.bu.da19.none.none.wav,ña,ru,pe,sil,zi,re,ñi,sil1,lo,de,sil2,['-'],,,none,none,,,,bu,3,testWhenL2Uns//r1.s2.1.wav,4.0,when,unsyncopated,a,s2,rule,rule,L2,z,1.368,6.0,1.0,0.917,3.0,2.0,Castellano,0.0,Catalán,0.0,Ingles,4.0,3.0,4.0,no,no,yes,nada,,,,No he tenido ninguna interrupción como tal pero si la sensación de que en la fase 2 confundia alguna silaba y pulsaba el espacio y luego pensaba si no me habria equivocado al escuchar por ejemplo ji en lugar de ki y cosas parecidas. También he detectado el sesgo de querer pulsar el espacio en algunas partes de la fase 2 en las que no detectaba esa silaba. Ha sido curioso que a veces me parecia que podia predecir que iba a salir esa sibala casi antes de que saliera y me daba la sensación de que pulsaba el espacio al mismo tiempo que se pronunciaba y no despues de procesarlo por haberlo previsto o algo asi.  ,74.0,yes
84,2024-05-13_09h11.57.750,Experiment4_uns,s158,24.0,feminino,right,España,Castellano y Catalán,Bachelor degree,no,no,A,1,conjunction_un,L4,unsyncopated,s2,r1,84,Online_conjL4_un//b.ja.nu29.none.none.wav,ci,da,po,sil,zi,bu,de,sil1,lo,ña,sil2,['-'],,,none,none,,,,ja,1,testWhenL2Uns//r2.s1.0.wav,4.0,when,unsyncopated,b,s1,rule,rule,L2,z,1.118,6.0,1.0,1.208,3.0,2.0,Castellano,0.0,Catalán,0.0,Ingles,4.0,3.0,4.0,no,no,yes,nada,,,,No he tenido ninguna interrupción como tal pero si la sensación de que en la fase 2 confundia alguna silaba y pulsaba el espacio y luego pensaba si no me habria equivocado al escuchar por ejemplo ji en lugar de ki y cosas parecidas. También he detectado el sesgo de querer pulsar el espacio en algunas partes de la fase 2 en las que no detectaba esa silaba. Ha sido curioso que a veces me parecia que podia predecir que iba a salir esa sibala casi antes de que saliera y me daba la sensación de que pulsaba el espacio al mismo tiempo que se pronunciaba y no despues de procesarlo por haberlo previsto o algo asi.  ,74.0,yes
85,2024-05-13_09h11.57.750,Experiment4_uns,s158,24.0,feminino,right,España,Castellano y Catalán,Bachelor degree,no,no,A,1,conjunction_un,L4,unsyncopated,s2,r2,85,Online_conjL4_un//b.ja.nu30.888.1776.wav,pe,re,ña,sil,ja,po,de,sil1,nu,da,sil2,['catch'],[1.4230000000000018],[1.4230000000000018],0.888,beat,0.5350000000000018,0.5350000000000018,"[""space""]",ja,1,testWhenL2Uns//cat_viol.r2.s1.0.wav,4.0,when,unsyncopated,b,s1,no_rule,cat,L2,m,2.939,3.0,0.0,1.381,3.0,2.0,Castellano,0.0,Catalán,0.0,Ingles,4.0,3.0,4.0,no,no,yes,nada,,,,No he tenido ninguna interrupción como tal pero si la sensación de que en la fase 2 confundia alguna silaba y pulsaba el espacio y luego pensaba si no me habria equivocado al escuchar por ejemplo ji en lugar de ki y cosas parecidas. También he detectado el sesgo de querer pulsar el espacio en algunas partes de la fase 2 en las que no detectaba esa silaba. Ha sido curioso que a veces me parecia que podia predecir que iba a salir esa sibala casi antes de que saliera y me daba la sensación de que pulsaba el espacio al mismo tiempo que se pronunciaba y no despues de procesarlo por haberlo previsto o algo asi.  ,74.0,yes
86,2024-05-13_09h11.57.750,Experiment4_uns,s158,24.0,feminino,right,España,Castellano y Catalán,Bachelor degree,no,no,A,1,conjunction_un,L4,unsyncopated,s1,r1,86,Online_conjL4_un//b.ja.nu28.none.none.wav,zi,po,pe,sil,lo,bo,ñi,sil1,re,ci,sil2,['-'],,,none,none,,,,ja,1,testWhenL2Uns//r1.s2.0.wav,4.0,when,unsyncopated,a,s2,rule,rule,L2,z,2.77,5.0,1.0,1.506,3.0,2.0,Castellano,0.0,Catalán,0.0,Ingles,4.0,3.0,4.0,no,no,yes,nada,,,,No he tenido ninguna interrupción como tal pero si la sensación de que en la fase 2 confundia alguna silaba y pulsaba el espacio y luego pensaba si no me habria equivocado al escuchar por ejemplo ji en lugar de ki y cosas parecidas. También he detectado el sesgo de querer pulsar el espacio en algunas partes de la fase 2 en las que no detectaba esa silaba. Ha sido curioso que a veces me parecia que podia predecir que iba a salir esa sibala casi antes de que saliera y me daba la sensación de que pulsaba el espacio al mismo tiempo que se pronunciaba y no despues de procesarlo por haberlo previsto o algo asi.  ,74.0,yes
87,2024-05-13_09h11.57.750,Experiment4_uns,s158,24.0,feminino,right,España,Castellano y Catalán,Bachelor degree,no,no,A,1,conjunction_un,L4,unsyncopated,s2,r1,87,Online_conjL4_un//b.ja.nu31.none.none.wav,ru,pe,ñi,sil,zi,ña,da,sil1,lo,ci,sil2,['-'],,,none,none,,,,ja,1,testWhenL2Uns//r2.s2.0.wav,4.0,when,unsyncopated,b,s2,rule,rule,L2,z,0.759,6.0,1.0,1.055,3.0,2.0,Castellano,0.0,Catalán,0.0,Ingles,4.0,3.0,4.0,no,no,yes,nada,,,,No he tenido ninguna interrupción como tal pero si la sensación de que en la fase 2 confundia alguna silaba y pulsaba el espacio y luego pensaba si no me habria equivocado al escuchar por ejemplo ji en lugar de ki y cosas parecidas. También he detectado el sesgo de querer pulsar el espacio en algunas partes de la fase 2 en las que no detectaba esa silaba. Ha sido curioso que a veces me parecia que podia predecir que iba a salir esa sibala casi antes de que saliera y me daba la sensación de que pulsaba el espacio al mismo tiempo que se pronunciaba y no despues de procesarlo por haberlo previsto o algo asi.  ,74.0,yes
