Unnamed: 0,date,expName,participant,age,sex,hand,residence,native_lang,education_level,lang_deficit,aud_deficit,group,block,condition,language,rhythm,rule structure online,rule type online,order_trial_on,trial_online,s1,s2,s3,s4,s5,s6,s7,s8,s9,s10,s11,catch_syll_resp,rts_syll_catch,clean_rts,time_syll,beat_no_beat,catch_rtsTR,catch_rts,syllable_catch.keys,cond_syll,syll_to_catch,test_offline,block_off,condition_off,rhythm_off,rule,rule_str_off,rule_norule,conds_offline,language_off,Partz_no_partm.keys,Partz_no_partm.rt,security_1_7.keys,accuracy,security_1_7.rt,n_lang,n_lang_used,lang_1,age_l1,lang_2,age_l2,lang_3,age_l3,ability_learn_l2,tendence_mix_lan,music_experience,muisc_use,partiture,instr_1,age_M1,instr_2,age_M2,instr_3,age_M3,instr_4,age_M4,preguntas_musica1,BMRQ_answer.response,final comment,BMRQ_Score,bilingual
0,2023-12-30_16h55.09.293,Unsyncopated_study2,s86,25.0,masculino,right, españa,catalàcastellano,Master degree,no,no,A,1,conjunction_syn,L1,syncopated,s2,r2,0,Online_conjL1_syn//d.ne.ni17.none.none.wav,ze,lu,ri,ta,sil,fo,cho,be,sil1,fa,sil2,['-'],,,none,none,,,,ne,4,testConjL1Syn//r1.s2.2.wav,1.0,conjunction_syn,syncopated,a,s2,rule,rule,L1,z,1.865,6.0,1.0,10.409,3.0,3.0,catala,0.0,castellano,0.0,ingles,8.0,3.0,3.0,yes,yes,yes,canto,5,flauta travesera,5,guitarra electrica,5,guitarra española,11.0,1. Cuando comparto música con alguien siento una complicidad especial con aquella persona.,4.0, nada ,78.0,yes
1,2023-12-30_16h55.09.293,Unsyncopated_study2,s86,25.0,masculino,right, españa,catalàcastellano,Master degree,no,no,A,1,conjunction_syn,L1,syncopated,s2,r2,1,Online_conjL1_syn//d.ne.ni18.none.none.wav,lu,ri,cho,ta,sil,ze,ro,be,sil1,fo,sil2,['-'],,,none,none,,,,ne,4,testConjL1Syn//cat_viol.r1.s1.0.wav,1.0,conjunction_syn,syncopated,a,s1,no_rule,cat,L1,z,2.5,5.0,0.0,1.538,3.0,3.0,catala,0.0,castellano,0.0,ingles,8.0,3.0,3.0,yes,yes,yes,canto,5,flauta travesera,5,guitarra electrica,5,guitarra española,11.0,2. En mi tiempo libre apenas escucho música.,5.0, nada ,78.0,yes
2,2023-12-30_16h55.09.293,Unsyncopated_study2,s86,25.0,masculino,right, españa,catalàcastellano,Master degree,no,no,A,1,conjunction_syn,L1,syncopated,s1,r2,2,Online_conjL1_syn//d.ne.ni16.1332.222.wav,ta,ni,lu,be,sil,ri,ne,fo,sil1,ze,sil2,"['catch', 'false alarm']","[2.0460000000002765, 2.6490000000012515]",[2.0460000000002765],1.332,no_beat,0.7140000000002764,0.7140000000002764,"[""space"",""space""]",ne,4,testConjL1Syn//r1.s1.2.wav,1.0,conjunction_syn,syncopated,a,s1,rule,rule,L1,m,1.668,6.0,0.0,1.82,3.0,3.0,catala,0.0,castellano,0.0,ingles,8.0,3.0,3.0,yes,yes,yes,canto,5,flauta travesera,5,guitarra electrica,5,guitarra española,11.0,3. Algunas canciones me ponen los pelos de punta,4.0, nada ,78.0,yes
3,2023-12-30_16h55.09.293,Unsyncopated_study2,s86,25.0,masculino,right, españa,catalàcastellano,Master degree,no,no,A,1,conjunction_syn,L1,syncopated,s2,r1,3,Online_conjL1_syn//d.ne.ni19.none.none.wav,la,ro,cho,pu,sil,ri,zu,ki,sil1,fo,sil2,['-'],,,none,none,,,,ne,4,testConjL1Syn//dep_viol.r1.s1.0.wav,1.0,conjunction_syn,syncopated,a,s1,no_rule,dep,L1,z,0.792,6.0,0.0,1.362,3.0,3.0,catala,0.0,castellano,0.0,ingles,8.0,3.0,3.0,yes,yes,yes,canto,5,flauta travesera,5,guitarra electrica,5,guitarra española,11.0,4. La música me hace compañía cuando estoy solo,4.0, nada ,78.0,yes
4,2023-12-30_16h55.09.293,Unsyncopated_study2,s86,25.0,masculino,right, españa,catalàcastellano,Master degree,no,no,A,1,conjunction_syn,L1,syncopated,s1,r1,4,Online_conjL1_syn//d.ne.ni1.222.1110.wav,pu,ne,ri,ki,sil,ni,la,ze,sil1,lu,sil2,['miss'],,,0.222,no_beat,,,,ne,4,testConjL1Syn//r2.s1.0.wav,1.0,conjunction_syn,syncopated,b,s1,rule,rule,L1,m,1.014,5.0,0.0,1.512,3.0,3.0,catala,0.0,castellano,0.0,ingles,8.0,3.0,3.0,yes,yes,yes,canto,5,flauta travesera,5,guitarra electrica,5,guitarra española,11.0,5. No me apetece bailar ni con la música que más me gusta,5.0, nada ,78.0,yes
5,2023-12-30_16h55.09.293,Unsyncopated_study2,s86,25.0,masculino,right, españa,catalàcastellano,Master degree,no,no,A,1,conjunction_syn,L1,syncopated,s1,r2,5,Online_conjL1_syn//d.ne.ni2.222.1332.wav,ta,ne,lu,be,sil,ri,ni,cho,sil1,ze,sil2,['catch'],[0.7469999999993888],[0.7469999999993888],0.222,no_beat,0.5249999999993888,0.5249999999993888,"[""space""]",ne,4,testConjL1Syn//r2.s2.2.wav,1.0,conjunction_syn,syncopated,b,s2,rule,rule,L1,m,0.601,7.0,0.0,1.417,3.0,3.0,catala,0.0,castellano,0.0,ingles,8.0,3.0,3.0,yes,yes,yes,canto,5,flauta travesera,5,guitarra electrica,5,guitarra española,11.0,6. La música me hace conectar con la gente,4.0, nada ,78.0,yes
6,2023-12-30_16h55.09.293,Unsyncopated_study2,s86,25.0,masculino,right, españa,catalàcastellano,Master degree,no,no,A,1,conjunction_syn,L1,syncopated,s1,r1,6,Online_conjL1_syn//d.ne.ni3.none.none.wav,pu,fo,la,ki,sil,ro,lu,ri,sil1,cho,sil2,['-'],,,none,none,,,,ne,4,testConjL1Syn//time_viol.r1.s1.0.wav,1.0,conjunction_syn,syncopated,a,s1,no_rule,time,L1,m,0.685,6.0,1.0,1.573,3.0,3.0,catala,0.0,castellano,0.0,ingles,8.0,3.0,3.0,yes,yes,yes,canto,5,flauta travesera,5,guitarra electrica,5,guitarra española,11.0,7. Me informo sobre la música que me gusta.,4.0, nada ,78.0,yes
7,2023-12-30_16h55.09.293,Unsyncopated_study2,s86,25.0,masculino,right, españa,catalàcastellano,Master degree,no,no,A,1,conjunction_syn,L1,syncopated,s2,r1,7,Online_conjL1_syn//d.ne.ni0.none.none.wav,lu,ze,zu,pu,sil,ro,ri,ki,sil1,la,sil2,['-'],,,none,none,,,,ne,4,testConjL1Syn//cat_viol.r1.s2.0.wav,1.0,conjunction_syn,syncopated,a,s2,no_rule,cat,L1,z,0.566,5.0,0.0,1.288,3.0,3.0,catala,0.0,castellano,0.0,ingles,8.0,3.0,3.0,yes,yes,yes,canto,5,flauta travesera,5,guitarra electrica,5,guitarra española,11.0,8.Me emociono escuchando ciertas canciones.,4.0, nada ,78.0,yes
8,2023-12-30_16h55.09.293,Unsyncopated_study2,s86,25.0,masculino,right, españa,catalàcastellano,Master degree,no,no,A,1,conjunction_syn,L1,syncopated,s1,r1,8,Online_conjL1_syn//a.pu.ki10.0.666.wav,pu,ro,cho,ki,sil,zu,la,fa,sil1,ne,sil2,['catch'],[1.4210000000002765],[1.4210000000002765],0.666,no_beat,0.7550000000002764,0.7550000000002764,"[""space""]",ki,2,testConjL1Syn//r1.s1.0.wav,1.0,conjunction_syn,syncopated,a,s1,rule,rule,L1,m,0.946,6.0,0.0,1.532,3.0,3.0,catala,0.0,castellano,0.0,ingles,8.0,3.0,3.0,yes,yes,yes,canto,5,flauta travesera,5,guitarra electrica,5,guitarra española,11.0,9.La música me tranquiliza y me relaja.,4.0, nada ,78.0,yes
9,2023-12-30_16h55.09.293,Unsyncopated_study2,s86,25.0,masculino,right, españa,catalàcastellano,Master degree,no,no,A,1,conjunction_syn,L1,syncopated,s1,r1,9,Online_conjL1_syn//a.pu.ki8.0.666.wav,pu,ze,ni,ki,sil,ne,ro,ri,sil1,fa,sil2,['catch'],[1.532999999999447],[1.532999999999447],0.666,no_beat,0.866999999999447,0.866999999999447,"[""space""]",ki,2,testConjL1Syn//r1.s2.0.wav,1.0,conjunction_syn,syncopated,a,s2,rule,rule,L1,z,0.381,6.0,1.0,1.198,3.0,3.0,catala,0.0,castellano,0.0,ingles,8.0,3.0,3.0,yes,yes,yes,canto,5,flauta travesera,5,guitarra electrica,5,guitarra española,11.0,10.La música me hace bailar,4.0, nada ,78.0,yes
10,2023-12-30_16h55.09.293,Unsyncopated_study2,s86,25.0,masculino,right, españa,catalàcastellano,Master degree,no,no,A,1,conjunction_syn,L1,syncopated,s2,r2,10,Online_conjL1_syn//a.pu.ki9.none.none.wav,fa,ne,cho,ta,sil,ni,zu,be,sil1,lu,sil2,['-'],,,none,none,,,,ki,2,testConjL1Syn//r1.s1.1.wav,1.0,conjunction_syn,syncopated,a,s1,rule,rule,L1,m,1.049,4.0,0.0,0.784,3.0,3.0,catala,0.0,castellano,0.0,ingles,8.0,3.0,3.0,yes,yes,yes,canto,5,flauta travesera,5,guitarra electrica,5,guitarra española,11.0,11.Busco novedades musicales continuamente,4.0, nada ,78.0,yes
11,2023-12-30_16h55.09.293,Unsyncopated_study2,s86,25.0,masculino,right, españa,catalàcastellano,Master degree,no,no,A,1,conjunction_syn,L1,syncopated,s1,r1,11,Online_conjL1_syn//a.pu.ki11.0.666.wav,pu,fa,ri,ki,sil,lu,cho,zu,sil1,ni,sil2,['catch'],[0.9979999999995925],[0.9979999999995925],0.666,no_beat,0.3319999999995925,0.3319999999995925,"[""space""]",ki,2,testConjL1Syn//r2.s1.2.wav,1.0,conjunction_syn,syncopated,b,s1,rule,rule,L1,z,1.133,6.0,1.0,0.468,3.0,3.0,catala,0.0,castellano,0.0,ingles,8.0,3.0,3.0,yes,yes,yes,canto,5,flauta travesera,5,guitarra electrica,5,guitarra española,11.0,12. Puedo llorar cuando escucho algunas melodías que me gustan mucho.,4.0, nada ,78.0,yes
12,2023-12-30_16h55.09.293,Unsyncopated_study2,s86,25.0,masculino,right, españa,catalàcastellano,Master degree,no,no,A,1,conjunction_syn,L1,syncopated,s2,r1,12,Online_conjL1_syn//a.pu.ki25.666.1554.wav,cho,la,ro,pu,sil,ze,ne,ki,sil1,ri,sil2,['catch'],[1.9060000000008586],[1.9060000000008586],1.554,no_beat,0.3520000000008585,0.3520000000008585,"[""space""]",ki,2,testConjL1Syn//cat_viol.r2.s2.0.wav,1.0,conjunction_syn,syncopated,b,s2,no_rule,cat,L1,m,1.414,4.0,1.0,0.967,3.0,3.0,catala,0.0,castellano,0.0,ingles,8.0,3.0,3.0,yes,yes,yes,canto,5,flauta travesera,5,guitarra electrica,5,guitarra española,11.0,13. Me gusta cantar o tocar un instrumento con más gente,4.0, nada ,78.0,yes
13,2023-12-30_16h55.09.293,Unsyncopated_study2,s86,25.0,masculino,right, españa,catalàcastellano,Master degree,no,no,A,1,conjunction_syn,L1,syncopated,s1,r2,13,Online_conjL1_syn//a.pu.ki26.none.none.wav,ta,zu,lu,be,sil,ro,la,ri,sil1,fa,sil2,['-'],,,none,none,,,,ki,2,testConjL1Syn//r2.s1.1.wav,1.0,conjunction_syn,syncopated,b,s1,rule,rule,L1,z,0.585,6.0,1.0,0.548,3.0,3.0,catala,0.0,castellano,0.0,ingles,8.0,3.0,3.0,yes,yes,yes,canto,5,flauta travesera,5,guitarra electrica,5,guitarra española,11.0,14. La música me ayuda a desconectar.,4.0, nada ,78.0,yes
14,2023-12-30_16h55.09.293,Unsyncopated_study2,s86,25.0,masculino,right, españa,catalàcastellano,Master degree,no,no,A,1,conjunction_syn,L1,syncopated,s1,r1,14,Online_conjL1_syn//a.pu.ki27.0.666.wav,pu,ze,lu,ki,sil,cho,fa,fo,sil1,ni,sil2,['catch'],[0.9320000000006985],[0.9320000000006985],0.666,no_beat,0.2660000000006984,0.2660000000006984,"[""space""]",ki,2,testConjL1Syn//r2.s2.0.wav,1.0,conjunction_syn,syncopated,b,s2,rule,rule,L1,z,1.901,4.0,1.0,0.799,3.0,3.0,catala,0.0,castellano,0.0,ingles,8.0,3.0,3.0,yes,yes,yes,canto,5,flauta travesera,5,guitarra electrica,5,guitarra española,11.0,15. No puedo evitar tararear las canciones que me gustan cuando las escucho.,4.0, nada ,78.0,yes
15,2023-12-30_16h55.09.293,Unsyncopated_study2,s86,25.0,masculino,right, españa,catalàcastellano,Master degree,no,no,A,1,conjunction_syn,L1,syncopated,s1,r2,15,Online_conjL1_syn//a.pu.ki24.none.none.wav,ta,ne,la,be,sil,ri,fa,ze,sil1,zu,sil2,['-'],,,none,none,,,,ki,2,testConjL1Syn//r1.s2.1.wav,1.0,conjunction_syn,syncopated,a,s2,rule,rule,L1,z,0.283,7.0,1.0,0.585,3.0,3.0,catala,0.0,castellano,0.0,ingles,8.0,3.0,3.0,yes,yes,yes,canto,5,flauta travesera,5,guitarra electrica,5,guitarra española,11.0,16. En los conciertos me siento en sintonía con los artistas y el público.,2.0, nada ,78.0,yes
16,2023-12-30_16h55.09.293,Unsyncopated_study2,s86,25.0,masculino,right, españa,catalàcastellano,Master degree,no,no,A,1,conjunction_syn,L1,syncopated,s1,r1,16,Online_conjL1_syn//b.ta.be18.none.none.wav,pu,ni,zu,ki,sil,ne,la,ze,sil1,cho,sil2,['-'],,,none,none,,,,ta,1,testConjL1Syn//time_viol.r1.s2.0.wav,1.0,conjunction_syn,syncopated,a,s2,no_rule,time,L1,m,0.186,4.0,1.0,1.803,3.0,3.0,catala,0.0,castellano,0.0,ingles,8.0,3.0,3.0,yes,yes,yes,canto,5,flauta travesera,5,guitarra electrica,5,guitarra española,11.0,17. Me gasto bastante dinero en música y cosas relacionadas con la música.,2.0, nada ,78.0,yes
17,2023-12-30_16h55.09.293,Unsyncopated_study2,s86,25.0,masculino,right, españa,catalàcastellano,Master degree,no,no,A,1,conjunction_syn,L1,syncopated,s2,r2,17,Online_conjL1_syn//b.ta.be19.666.1554.wav,fa,la,ni,ta,sil,cho,ne,be,sil1,ri,sil2,['catch'],[1.014999999999418],[1.014999999999418],0.666,no_beat,0.3489999999994179,0.3489999999994179,"[""space""]",ta,1,testConjL1Syn//dep_viol.r2.s1.0.wav,1.0,conjunction_syn,syncopated,b,s1,no_rule,dep,L1,z,1.111,5.0,0.0,0.732,3.0,3.0,catala,0.0,castellano,0.0,ingles,8.0,3.0,3.0,yes,yes,yes,canto,5,flauta travesera,5,guitarra electrica,5,guitarra española,11.0,18. Siento escalofríos cuando escucho una melodía que me gusta.,4.0, nada ,78.0,yes
18,2023-12-30_16h55.09.293,Unsyncopated_study2,s86,25.0,masculino,right, españa,catalàcastellano,Master degree,no,no,A,1,conjunction_syn,L1,syncopated,s2,r2,18,Online_conjL1_syn//b.ta.be16.666.1554.wav,ro,ne,lu,ta,sil,la,ri,be,sil1,fo,sil2,['catch'],[1.055000000000291],[1.055000000000291],0.666,no_beat,0.389000000000291,0.389000000000291,"[""space""]",ta,1,testConjL1Syn//time_viol.r2.s2.0.wav,1.0,conjunction_syn,syncopated,b,s2,no_rule,time,L1,m,1.805,3.0,1.0,0.716,3.0,3.0,catala,0.0,castellano,0.0,ingles,8.0,3.0,3.0,yes,yes,yes,canto,5,flauta travesera,5,guitarra electrica,5,guitarra española,11.0,19. Con la música me puedo desahogar.,4.0, nada ,78.0,yes
19,2023-12-30_16h55.09.293,Unsyncopated_study2,s86,25.0,masculino,right, españa,catalàcastellano,Master degree,no,no,A,1,conjunction_syn,L1,syncopated,s2,r1,19,Online_conjL1_syn//b.ta.be17.none.none.wav,zu,lu,ze,pu,sil,la,cho,ki,sil1,fa,sil2,['-'],,,none,none,,,,ta,1,testConjL1Syn//dep_viol.r2.s2.0.wav,1.0,conjunction_syn,syncopated,b,s2,no_rule,dep,L1,m,1.551,3.0,1.0,0.655,3.0,3.0,catala,0.0,castellano,0.0,ingles,8.0,3.0,3.0,yes,yes,yes,canto,5,flauta travesera,5,guitarra electrica,5,guitarra española,11.0,20. Cuando escucho una melodía que me gusta mucho no puedo evitar mover el cuerpo.,4.0, nada ,78.0,yes
20,2023-12-30_16h55.09.293,Unsyncopated_study2,s86,25.0,masculino,right, españa,catalàcastellano,Master degree,no,no,A,1,conjunction_syn,L1,syncopated,s1,r1,20,Online_conjL1_syn//a.pu.ki3.0.666.wav,pu,zu,la,ki,sil,fa,cho,ri,sil1,ro,sil2,['catch'],[0.978000000000975],[0.978000000000975],0.666,no_beat,0.3120000000009749,0.3120000000009749,"[""space""]",ki,2,testConjL1Syn//r2.s2.1.wav,1.0,conjunction_syn,syncopated,b,s2,rule,rule,L1,z,0.25,7.0,1.0,0.293,3.0,3.0,catala,0.0,castellano,0.0,ingles,8.0,3.0,3.0,yes,yes,yes,canto,5,flauta travesera,5,guitarra electrica,5,guitarra española,11.0,,, nada ,78.0,yes
21,2023-12-30_16h55.09.293,Unsyncopated_study2,s86,25.0,masculino,right, españa,catalàcastellano,Master degree,no,no,A,1,conjunction_syn,L1,syncopated,s2,r1,21,Online_conjL1_syn//a.pu.ki1.666.1554.wav,ni,fo,fa,pu,sil,zu,lu,ki,sil1,ne,sil2,['catch'],[1.9380000000001019],[1.9380000000001019],1.554,no_beat,0.3840000000001018,0.3840000000001018,"[""space""]",ki,2,testConjL1Syn//cat_viol.r2.s1.0.wav,1.0,conjunction_syn,syncopated,b,s1,no_rule,cat,L1,z,0.348,5.0,0.0,0.204,3.0,3.0,catala,0.0,castellano,0.0,ingles,8.0,3.0,3.0,yes,yes,yes,canto,5,flauta travesera,5,guitarra electrica,5,guitarra española,11.0,,, nada ,78.0,yes
22,2023-12-30_16h55.09.293,Unsyncopated_study2,s86,25.0,masculino,right, españa,catalàcastellano,Master degree,no,no,A,1,conjunction_syn,L1,syncopated,s2,r2,22,Online_conjL1_syn//a.pu.ki2.none.none.wav,ne,ro,ri,ta,sil,fa,ze,be,sil1,la,sil2,['-'],,,none,none,,,,ki,2,testConjL1Syn//time_viol.r2.s1.0.wav,1.0,conjunction_syn,syncopated,b,s1,no_rule,time,L1,m,1.466,2.0,1.0,0.515,3.0,3.0,catala,0.0,castellano,0.0,ingles,8.0,3.0,3.0,yes,yes,yes,canto,5,flauta travesera,5,guitarra electrica,5,guitarra española,11.0,,, nada ,78.0,yes
23,2023-12-30_16h55.09.293,Unsyncopated_study2,s86,25.0,masculino,right, españa,catalàcastellano,Master degree,no,no,A,1,conjunction_syn,L1,syncopated,s1,r2,23,Online_conjL1_syn//a.pu.ki0.none.none.wav,ta,la,ni,be,sil,fa,lu,ro,sil1,fo,sil2,['-'],,,none,none,,,,ki,2,testConjL1Syn//dep_viol.r1.s2.0.wav,1.0,conjunction_syn,syncopated,a,s2,no_rule,dep,L1,m,0.367,2.0,1.0,0.362,3.0,3.0,catala,0.0,castellano,0.0,ingles,8.0,3.0,3.0,yes,yes,yes,canto,5,flauta travesera,5,guitarra electrica,5,guitarra española,11.0,,, nada ,78.0,yes
24,2023-12-30_16h55.09.293,Unsyncopated_study2,s86,25.0,masculino,right, españa,catalàcastellano,Master degree,no,no,A,1,conjunction_syn,L1,syncopated,s2,r2,24,Online_conjL1_syn//d.ne.ni22.1110.0.wav,ni,ze,lu,ta,sil,ne,cho,be,sil1,zu,sil2,['false alarm'],[0.6869999999998981],[0.6869999999998981],1.11,no_beat,,,"[""space""]",ne,4,testWhenL4Uns//r2.s2.0.wav,2.0,when,unsyncopated,b,s2,rule,rule,L4,z,0.298,6.0,1.0,1.128,3.0,3.0,catala,0.0,castellano,0.0,ingles,8.0,3.0,3.0,yes,yes,yes,canto,5,flauta travesera,5,guitarra electrica,5,guitarra española,11.0,,, nada ,78.0,yes
25,2023-12-30_16h55.09.293,Unsyncopated_study2,s86,25.0,masculino,right, españa,catalàcastellano,Master degree,no,no,A,1,conjunction_syn,L1,syncopated,s1,r1,25,Online_conjL1_syn//d.ne.ni21.none.none.wav,pu,lu,fo,ki,sil,ze,cho,ro,sil1,zu,sil2,['-'],,,none,none,,,,ne,4,testWhenL4Uns//cat_viol.r2.s2.0.wav,2.0,when,unsyncopated,b,s2,no_rule,cat,L4,z,0.416,5.0,1.0,0.76,3.0,3.0,catala,0.0,castellano,0.0,ingles,8.0,3.0,3.0,yes,yes,yes,canto,5,flauta travesera,5,guitarra electrica,5,guitarra española,11.0,,, nada ,78.0,yes
26,2023-12-30_16h55.09.293,Unsyncopated_study2,s86,25.0,masculino,right, españa,catalàcastellano,Master degree,no,no,A,1,conjunction_syn,L1,syncopated,s2,r1,26,Online_conjL1_syn//d.ne.ni23.0.444.wav,ne,fo,ni,pu,sil,ri,fa,ki,sil1,lu,sil2,['miss'],,,0.0,beat,,,,ne,4,testWhenL4Uns//r1.s1.2.wav,2.0,when,unsyncopated,a,s1,rule,rule,L4,z,0.294,6.0,1.0,0.834,3.0,3.0,catala,0.0,castellano,0.0,ingles,8.0,3.0,3.0,yes,yes,yes,canto,5,flauta travesera,5,guitarra electrica,5,guitarra española,11.0,,, nada ,78.0,yes
27,2023-12-30_16h55.09.293,Unsyncopated_study2,s86,25.0,masculino,right, españa,catalàcastellano,Master degree,no,no,A,1,conjunction_syn,L1,syncopated,s2,r2,27,Online_conjL1_syn//d.ne.ni20.none.none.wav,ze,lu,ro,ta,sil,fa,ri,be,sil1,cho,sil2,['-'],,,none,none,,,,ne,4,testWhenL4Uns//r2.s2.1.wav,2.0,when,unsyncopated,b,s2,rule,rule,L4,z,0.319,7.0,1.0,0.717,3.0,3.0,catala,0.0,castellano,0.0,ingles,8.0,3.0,3.0,yes,yes,yes,canto,5,flauta travesera,5,guitarra electrica,5,guitarra española,11.0,,, nada ,78.0,yes
28,2023-12-30_16h55.09.293,Unsyncopated_study2,s86,25.0,masculino,right, españa,catalàcastellano,Master degree,no,no,A,1,conjunction_syn,L1,syncopated,s2,r1,28,Online_conjL1_syn//a.pu.ki23.666.1554.wav,ni,la,ro,pu,sil,fo,zu,ki,sil1,ze,sil2,"['false alarm', 'false alarm', 'catch']","[0.4899999999997817, 1.1629999999986467, 2.4569999999985157]",[2.4569999999985157],1.554,no_beat,0.9029999999985155,0.9029999999985155,"[""space"",""space"",""space""]",ki,2,testWhenL4Uns//cat_viol.r1.s2.0.wav,2.0,when,unsyncopated,a,s2,no_rule,cat,L4,z,0.368,7.0,1.0,0.827,3.0,3.0,catala,0.0,castellano,0.0,ingles,8.0,3.0,3.0,yes,yes,yes,canto,5,flauta travesera,5,guitarra electrica,5,guitarra española,11.0,,, nada ,78.0,yes
29,2023-12-30_16h55.09.293,Unsyncopated_study2,s86,25.0,masculino,right, españa,catalàcastellano,Master degree,no,no,A,1,conjunction_syn,L1,syncopated,s2,r2,29,Online_conjL1_syn//a.pu.ki22.none.none.wav,fo,ri,ni,ta,sil,lu,la,be,sil1,cho,sil2,['-'],,,none,none,,,,ki,2,testWhenL4Uns//r1.s2.1.wav,2.0,when,unsyncopated,a,s2,rule,rule,L4,z,0.486,5.0,1.0,0.583,3.0,3.0,catala,0.0,castellano,0.0,ingles,8.0,3.0,3.0,yes,yes,yes,canto,5,flauta travesera,5,guitarra electrica,5,guitarra española,11.0,,, nada ,78.0,yes
30,2023-12-30_16h55.09.293,Unsyncopated_study2,s86,25.0,masculino,right, españa,catalàcastellano,Master degree,no,no,A,1,conjunction_syn,L1,syncopated,s2,r2,30,Online_conjL1_syn//a.pu.ki21.none.none.wav,ro,fa,ni,ta,sil,ri,la,be,sil1,lu,sil2,['-'],,,none,none,,,,ki,2,testWhenL4Uns//time_viol.r2.s1.0.wav,2.0,when,unsyncopated,b,s1,no_rule,time,L4,z,0.475,6.0,1.0,0.842,3.0,3.0,catala,0.0,castellano,0.0,ingles,8.0,3.0,3.0,yes,yes,yes,canto,5,flauta travesera,5,guitarra electrica,5,guitarra española,11.0,,, nada ,78.0,yes
31,2023-12-30_16h55.09.293,Unsyncopated_study2,s86,25.0,masculino,right, españa,catalàcastellano,Master degree,no,no,A,1,conjunction_syn,L1,syncopated,s2,r1,31,Online_conjL1_syn//a.pu.ki20.666.1554.wav,ro,lu,ni,pu,sil,la,fo,ki,sil1,cho,sil2,['catch'],[1.897000000000844],[1.897000000000844],1.554,no_beat,0.3430000000008439,0.3430000000008439,"[""space""]",ki,2,testWhenL4Uns//dep_viol.r1.s1.0.wav,2.0,when,unsyncopated,a,s1,no_rule,dep,L4,z,0.876,4.0,1.0,0.818,3.0,3.0,catala,0.0,castellano,0.0,ingles,8.0,3.0,3.0,yes,yes,yes,canto,5,flauta travesera,5,guitarra electrica,5,guitarra española,11.0,,, nada ,78.0,yes
32,2023-12-30_16h55.09.293,Unsyncopated_study2,s86,25.0,masculino,right, españa,catalàcastellano,Master degree,no,no,A,1,conjunction_syn,L1,syncopated,s1,r1,32,Online_conjL1_syn//b.ta.be23.none.none.wav,pu,cho,ze,ki,sil,ne,la,ri,sil1,fa,sil2,['-'],,,none,none,,,,ta,1,testWhenL4Uns//cat_viol.r2.s1.0.wav,2.0,when,unsyncopated,b,s1,no_rule,cat,L4,z,0.997,6.0,1.0,0.593,3.0,3.0,catala,0.0,castellano,0.0,ingles,8.0,3.0,3.0,yes,yes,yes,canto,5,flauta travesera,5,guitarra electrica,5,guitarra española,11.0,,, nada ,78.0,yes
33,2023-12-30_16h55.09.293,Unsyncopated_study2,s86,25.0,masculino,right, españa,catalàcastellano,Master degree,no,no,A,1,conjunction_syn,L1,syncopated,s2,r1,33,Online_conjL1_syn//b.ta.be22.none.none.wav,zu,la,cho,pu,sil,ne,ri,ki,sil1,fa,sil2,['-'],,,none,none,,,,ta,1,testWhenL4Uns//r1.s1.0.wav,2.0,when,unsyncopated,a,s1,rule,rule,L4,z,0.244,7.0,1.0,0.783,3.0,3.0,catala,0.0,castellano,0.0,ingles,8.0,3.0,3.0,yes,yes,yes,canto,5,flauta travesera,5,guitarra electrica,5,guitarra española,11.0,,, nada ,78.0,yes
34,2023-12-30_16h55.09.293,Unsyncopated_study2,s86,25.0,masculino,right, españa,catalàcastellano,Master degree,no,no,A,1,conjunction_syn,L1,syncopated,s1,r1,34,Online_conjL1_syn//b.ta.be20.none.none.wav,pu,lu,ze,ki,sil,ro,la,zu,sil1,fo,sil2,['-'],,,none,none,,,,ta,1,testWhenL4Uns//r2.s2.2.wav,2.0,when,unsyncopated,b,s2,rule,rule,L4,m,0.718,7.0,0.0,1.939,3.0,3.0,catala,0.0,castellano,0.0,ingles,8.0,3.0,3.0,yes,yes,yes,canto,5,flauta travesera,5,guitarra electrica,5,guitarra española,11.0,,, nada ,78.0,yes
35,2023-12-30_16h55.09.293,Unsyncopated_study2,s86,25.0,masculino,right, españa,catalàcastellano,Master degree,no,no,A,1,conjunction_syn,L1,syncopated,s2,r1,35,Online_conjL1_syn//b.ta.be21.none.none.wav,ri,ro,fa,pu,sil,ni,cho,ki,sil1,ze,sil2,['-'],,,none,none,,,,ta,1,testWhenL4Uns//r1.s1.1.wav,2.0,when,unsyncopated,a,s1,rule,rule,L4,m,0.376,3.0,0.0,0.84,3.0,3.0,catala,0.0,castellano,0.0,ingles,8.0,3.0,3.0,yes,yes,yes,canto,5,flauta travesera,5,guitarra electrica,5,guitarra española,11.0,,, nada ,78.0,yes
36,2023-12-30_16h55.09.293,Unsyncopated_study2,s86,25.0,masculino,right, españa,catalàcastellano,Master degree,no,no,A,1,conjunction_syn,L1,syncopated,s2,r2,36,Online_conjL1_syn//c.ro.fo30.1110.0.wav,fo,ze,fa,ta,sil,ro,ri,be,sil1,ni,sil2,['catch'],[1.59900000000016],[1.59900000000016],1.11,no_beat,0.48900000000016,0.48900000000016,"[""space""]",ro,3,testWhenL4Uns//r1.s2.0.wav,2.0,when,unsyncopated,a,s2,rule,rule,L4,m,1.667,7.0,0.0,1.137,3.0,3.0,catala,0.0,castellano,0.0,ingles,8.0,3.0,3.0,yes,yes,yes,canto,5,flauta travesera,5,guitarra electrica,5,guitarra española,11.0,,, nada ,78.0,yes
37,2023-12-30_16h55.09.293,Unsyncopated_study2,s86,25.0,masculino,right, españa,catalàcastellano,Master degree,no,no,A,1,conjunction_syn,L1,syncopated,s1,r1,37,Online_conjL1_syn//c.ro.fo28.none.none.wav,pu,ni,lu,ki,sil,ne,la,ze,sil1,fa,sil2,['-'],,,none,none,,,,ro,3,testWhenL4Uns//cat_viol.r1.s1.0.wav,2.0,when,unsyncopated,a,s1,no_rule,cat,L4,z,0.439,5.0,1.0,1.096,3.0,3.0,catala,0.0,castellano,0.0,ingles,8.0,3.0,3.0,yes,yes,yes,canto,5,flauta travesera,5,guitarra electrica,5,guitarra española,11.0,,, nada ,78.0,yes
38,2023-12-30_16h55.09.293,Unsyncopated_study2,s86,25.0,masculino,right, españa,catalàcastellano,Master degree,no,no,A,1,conjunction_syn,L1,syncopated,s2,r2,38,Online_conjL1_syn//c.ro.fo31.none.none.wav,ri,fa,la,ta,sil,lu,ne,be,sil1,zu,sil2,['-'],,,none,none,,,,ro,3,testWhenL4Uns//r1.s2.2.wav,2.0,when,unsyncopated,a,s2,rule,rule,L4,z,1.11,4.0,1.0,0.668,3.0,3.0,catala,0.0,castellano,0.0,ingles,8.0,3.0,3.0,yes,yes,yes,canto,5,flauta travesera,5,guitarra electrica,5,guitarra española,11.0,,, nada ,78.0,yes
39,2023-12-30_16h55.09.293,Unsyncopated_study2,s86,25.0,masculino,right, españa,catalàcastellano,Master degree,no,no,A,1,conjunction_syn,L1,syncopated,s1,r2,39,Online_conjL1_syn//c.ro.fo29.none.none.wav,ta,zu,ri,be,sil,la,ni,fa,sil1,lu,sil2,['-'],,,none,none,,,,ro,3,testWhenL4Uns//r2.s1.0.wav,2.0,when,unsyncopated,b,s1,rule,rule,L4,m,1.037,3.0,0.0,0.761,3.0,3.0,catala,0.0,castellano,0.0,ingles,8.0,3.0,3.0,yes,yes,yes,canto,5,flauta travesera,5,guitarra electrica,5,guitarra española,11.0,,, nada ,78.0,yes
40,2023-12-30_16h55.09.293,Unsyncopated_study2,s86,25.0,masculino,right, españa,catalàcastellano,Master degree,no,no,A,1,conjunction_syn,L1,syncopated,s1,r2,40,Online_conjL1_syn//b.ta.be11.0.666.wav,ta,zu,lu,be,sil,ni,ro,cho,sil1,fo,sil2,['catch'],[0.6430000000000291],[0.6430000000000291],0.0,beat,0.6430000000000291,0.6430000000000291,"[""space""]",ta,1,testWhenL4Uns//dep_viol.r1.s2.0.wav,2.0,when,unsyncopated,a,s2,no_rule,dep,L4,z,0.317,6.0,1.0,1.196,3.0,3.0,catala,0.0,castellano,0.0,ingles,8.0,3.0,3.0,yes,yes,yes,canto,5,flauta travesera,5,guitarra electrica,5,guitarra española,11.0,,, nada ,78.0,yes
41,2023-12-30_16h55.09.293,Unsyncopated_study2,s86,25.0,masculino,right, españa,catalàcastellano,Master degree,no,no,A,1,conjunction_syn,L1,syncopated,s1,r2,41,Online_conjL1_syn//b.ta.be8.0.666.wav,ta,la,zu,be,sil,ro,cho,ze,sil1,lu,sil2,['catch'],[0.7219999999997526],[0.7219999999997526],0.0,beat,0.7219999999997526,0.7219999999997526,"[""space""]",ta,1,testWhenL4Uns//r2.s1.1.wav,2.0,when,unsyncopated,b,s1,rule,rule,L4,z,0.281,5.0,1.0,0.864,3.0,3.0,catala,0.0,castellano,0.0,ingles,8.0,3.0,3.0,yes,yes,yes,canto,5,flauta travesera,5,guitarra electrica,5,guitarra española,11.0,,, nada ,78.0,yes
42,2023-12-30_16h55.09.293,Unsyncopated_study2,s86,25.0,masculino,right, españa,catalàcastellano,Master degree,no,no,A,1,conjunction_syn,L1,syncopated,s2,r2,42,Online_conjL1_syn//b.ta.be9.666.1554.wav,la,lu,ne,ta,sil,ze,fo,be,sil1,zu,sil2,['catch'],[1.018000000000029],[1.018000000000029],0.666,no_beat,0.352000000000029,0.352000000000029,"[""space""]",ta,1,testWhenL4Uns//dep_viol.r2.s2.0.wav,2.0,when,unsyncopated,b,s2,no_rule,dep,L4,m,0.277,5.0,0.0,1.133,3.0,3.0,catala,0.0,castellano,0.0,ingles,8.0,3.0,3.0,yes,yes,yes,canto,5,flauta travesera,5,guitarra electrica,5,guitarra española,11.0,,, nada ,78.0,yes
43,2023-12-30_16h55.09.293,Unsyncopated_study2,s86,25.0,masculino,right, españa,catalàcastellano,Master degree,no,no,A,1,conjunction_syn,L1,syncopated,s1,r2,43,Online_conjL1_syn//b.ta.be10.0.666.wav,ta,cho,ri,be,sil,ni,zu,ze,sil1,ne,sil2,['catch'],[0.6549999999988358],[0.6549999999988358],0.0,beat,0.6549999999988358,0.6549999999988358,"[""space""]",ta,1,testWhenL4Uns//dep_viol.r2.s1.0.wav,2.0,when,unsyncopated,b,s1,no_rule,dep,L4,m,1.412,4.0,0.0,0.687,3.0,3.0,catala,0.0,castellano,0.0,ingles,8.0,3.0,3.0,yes,yes,yes,canto,5,flauta travesera,5,guitarra electrica,5,guitarra española,11.0,,, nada ,78.0,yes
44,2023-12-30_16h55.09.293,Unsyncopated_study2,s86,25.0,masculino,right, españa,catalàcastellano,Master degree,no,no,A,1,conjunction_syn,L1,syncopated,s1,r2,44,Online_conjL1_syn//a.pu.ki14.none.none.wav,ta,ri,ze,be,sil,lu,fa,cho,sil1,fo,sil2,['false alarm'],[0.40099999999983993],[0.40099999999983993],none,none,,,"[""space""]",ki,2,testWhenL4Uns//time_viol.r1.s1.0.wav,2.0,when,unsyncopated,a,s1,no_rule,time,L4,z,1.262,4.0,1.0,0.645,3.0,3.0,catala,0.0,castellano,0.0,ingles,8.0,3.0,3.0,yes,yes,yes,canto,5,flauta travesera,5,guitarra electrica,5,guitarra española,11.0,,, nada ,78.0,yes
45,2023-12-30_16h55.09.293,Unsyncopated_study2,s86,25.0,masculino,right, españa,catalàcastellano,Master degree,no,no,A,1,conjunction_syn,L1,syncopated,s1,r1,45,Online_conjL1_syn//a.pu.ki12.0.666.wav,pu,zu,ni,ki,sil,ne,ro,fo,sil1,cho,sil2,['catch'],[0.9690000000009604],[0.9690000000009604],0.666,no_beat,0.3030000000009604,0.3030000000009604,"[""space""]",ki,2,testWhenL4Uns//r2.s1.2.wav,2.0,when,unsyncopated,b,s1,rule,rule,L4,m,0.42,4.0,0.0,0.268,3.0,3.0,catala,0.0,castellano,0.0,ingles,8.0,3.0,3.0,yes,yes,yes,canto,5,flauta travesera,5,guitarra electrica,5,guitarra española,11.0,,, nada ,78.0,yes
46,2023-12-30_16h55.09.293,Unsyncopated_study2,s86,25.0,masculino,right, españa,catalàcastellano,Master degree,no,no,A,1,conjunction_syn,L1,syncopated,s1,r2,46,Online_conjL1_syn//a.pu.ki15.none.none.wav,ta,fo,ne,be,sil,la,ze,fa,sil1,cho,sil2,['-'],,,none,none,,,,ki,2,testWhenL4Uns//time_viol.r2.s2.0.wav,2.0,when,unsyncopated,b,s2,no_rule,time,L4,m,0.284,3.0,0.0,0.543,3.0,3.0,catala,0.0,castellano,0.0,ingles,8.0,3.0,3.0,yes,yes,yes,canto,5,flauta travesera,5,guitarra electrica,5,guitarra española,11.0,,, nada ,78.0,yes
47,2023-12-30_16h55.09.293,Unsyncopated_study2,s86,25.0,masculino,right, españa,catalàcastellano,Master degree,no,no,A,1,conjunction_syn,L1,syncopated,s2,r1,47,Online_conjL1_syn//a.pu.ki13.666.1554.wav,fa,ro,ne,pu,sil,fo,lu,ki,sil1,ni,sil2,['catch'],[1.8840000000000146],[1.8840000000000146],1.554,no_beat,0.3300000000000145,0.3300000000000145,"[""space""]",ki,2,testWhenL4Uns//time_viol.r1.s2.0.wav,2.0,when,unsyncopated,a,s2,no_rule,time,L4,z,0.897,5.0,1.0,0.394,3.0,3.0,catala,0.0,castellano,0.0,ingles,8.0,3.0,3.0,yes,yes,yes,canto,5,flauta travesera,5,guitarra electrica,5,guitarra española,11.0,,, nada ,78.0,yes
48,2023-12-30_16h55.09.293,Unsyncopated_study2,s86,25.0,masculino,right, españa,catalàcastellano,Master degree,no,no,A,1,conjunction_syn,L1,syncopated,s1,r1,48,Online_conjL1_syn//b.ta.be4.none.none.wav,pu,la,fo,ki,sil,cho,ze,lu,sil1,ri,sil2,['-'],,,none,none,,,,ta,1,testWhatL3Uns//cat_viol.r1.s1.0.wav,3.0,what,unsyncopated,a,s1,no_rule,cat,L3,z,1.171,7.0,0.0,0.302,3.0,3.0,catala,0.0,castellano,0.0,ingles,8.0,3.0,3.0,yes,yes,yes,canto,5,flauta travesera,5,guitarra electrica,5,guitarra española,11.0,,, nada ,78.0,yes
49,2023-12-30_16h55.09.293,Unsyncopated_study2,s86,25.0,masculino,right, españa,catalàcastellano,Master degree,no,no,A,1,conjunction_syn,L1,syncopated,s2,r1,49,Online_conjL1_syn//b.ta.be7.none.none.wav,fa,ne,lu,pu,sil,zu,fo,ki,sil1,cho,sil2,['-'],,,none,none,,,,ta,1,testWhatL3Uns//dep_viol.r2.s1.0.wav,3.0,what,unsyncopated,b,s1,no_rule,dep,L3,z,0.931,7.0,0.0,0.327,3.0,3.0,catala,0.0,castellano,0.0,ingles,8.0,3.0,3.0,yes,yes,yes,canto,5,flauta travesera,5,guitarra electrica,5,guitarra española,11.0,,, nada ,78.0,yes
50,2023-12-30_16h55.09.293,Unsyncopated_study2,s86,25.0,masculino,right, españa,catalàcastellano,Master degree,no,no,A,1,conjunction_syn,L1,syncopated,s1,r1,50,Online_conjL1_syn//b.ta.be6.none.none.wav,pu,cho,fo,ki,sil,ni,ro,ri,sil1,lu,sil2,['-'],,,none,none,,,,ta,1,testWhatL3Uns//dep_viol.r1.s1.0.wav,3.0,what,unsyncopated,a,s1,no_rule,dep,L3,z,0.424,6.0,0.0,0.326,3.0,3.0,catala,0.0,castellano,0.0,ingles,8.0,3.0,3.0,yes,yes,yes,canto,5,flauta travesera,5,guitarra electrica,5,guitarra española,11.0,,, nada ,78.0,yes
51,2023-12-30_16h55.09.293,Unsyncopated_study2,s86,25.0,masculino,right, españa,catalàcastellano,Master degree,no,no,A,1,conjunction_syn,L1,syncopated,s2,r1,51,Online_conjL1_syn//b.ta.be5.none.none.wav,la,ro,cho,pu,sil,fa,ne,ki,sil1,ze,sil2,['-'],,,none,none,,,,ta,1,testWhatL3Uns//r2.s2.2.wav,3.0,what,unsyncopated,b,s2,rule,rule,L3,z,0.36,6.0,1.0,0.494,3.0,3.0,catala,0.0,castellano,0.0,ingles,8.0,3.0,3.0,yes,yes,yes,canto,5,flauta travesera,5,guitarra electrica,5,guitarra española,11.0,,, nada ,78.0,yes
52,2023-12-30_16h55.09.293,Unsyncopated_study2,s86,25.0,masculino,right, españa,catalàcastellano,Master degree,no,no,A,1,conjunction_syn,L1,syncopated,s2,r2,52,Online_conjL1_syn//b.ta.be3.666.1554.wav,lu,ro,zu,ta,sil,ne,fo,be,sil1,ni,sil2,['catch'],[1.0020000000004075],[1.0020000000004075],0.666,no_beat,0.3360000000004074,0.3360000000004074,"[""space""]",ta,1,testWhatL3Uns//r2.s1.2.wav,3.0,what,unsyncopated,b,s1,rule,rule,L3,z,0.314,6.0,1.0,0.269,3.0,3.0,catala,0.0,castellano,0.0,ingles,8.0,3.0,3.0,yes,yes,yes,canto,5,flauta travesera,5,guitarra electrica,5,guitarra española,11.0,,, nada ,78.0,yes
53,2023-12-30_16h55.09.293,Unsyncopated_study2,s86,25.0,masculino,right, españa,catalàcastellano,Master degree,no,no,A,1,conjunction_syn,L1,syncopated,s2,r2,53,Online_conjL1_syn//b.ta.be1.666.1554.wav,ni,la,lu,ta,sil,cho,ro,be,sil1,ne,sil2,['catch'],[0.9940000000005966],[0.9940000000005966],0.666,no_beat,0.3280000000005966,0.3280000000005966,"[""space""]",ta,1,testWhatL3Uns//dep_viol.r1.s2.0.wav,3.0,what,unsyncopated,a,s2,no_rule,dep,L3,m,0.738,6.0,1.0,0.393,3.0,3.0,catala,0.0,castellano,0.0,ingles,8.0,3.0,3.0,yes,yes,yes,canto,5,flauta travesera,5,guitarra electrica,5,guitarra española,11.0,,, nada ,78.0,yes
54,2023-12-30_16h55.09.293,Unsyncopated_study2,s86,25.0,masculino,right, españa,catalàcastellano,Master degree,no,no,A,1,conjunction_syn,L1,syncopated,s2,r2,54,Online_conjL1_syn//b.ta.be0.666.1554.wav,cho,fa,fo,ta,sil,zu,la,be,sil1,ne,sil2,['catch'],[1.2160000000003492],[1.2160000000003492],0.666,no_beat,0.5500000000003492,0.5500000000003492,"[""space""]",ta,1,testWhatL3Uns//cat_viol.r2.s2.0.wav,3.0,what,unsyncopated,b,s2,no_rule,cat,L3,m,0.5,4.0,1.0,0.917,3.0,3.0,catala,0.0,castellano,0.0,ingles,8.0,3.0,3.0,yes,yes,yes,canto,5,flauta travesera,5,guitarra electrica,5,guitarra española,11.0,,, nada ,78.0,yes
55,2023-12-30_16h55.09.293,Unsyncopated_study2,s86,25.0,masculino,right, españa,catalàcastellano,Master degree,no,no,A,1,conjunction_syn,L1,syncopated,s2,r1,55,Online_conjL1_syn//b.ta.be2.none.none.wav,ri,ne,fo,pu,sil,zu,la,ki,sil1,lu,sil2,['-'],,,none,none,,,,ta,1,testWhatL3Uns//time_viol.r1.s2.0.wav,3.0,what,unsyncopated,a,s2,no_rule,time,L3,m,0.33,7.0,1.0,0.328,3.0,3.0,catala,0.0,castellano,0.0,ingles,8.0,3.0,3.0,yes,yes,yes,canto,5,flauta travesera,5,guitarra electrica,5,guitarra española,11.0,,, nada ,78.0,yes
56,2023-12-30_16h55.09.293,Unsyncopated_study2,s86,25.0,masculino,right, españa,catalàcastellano,Master degree,no,no,A,1,conjunction_syn,L1,syncopated,s1,r2,56,Online_conjL1_syn//d.ne.ni27.none.none.wav,ta,la,fo,be,sil,zu,cho,ze,sil1,ri,sil2,['false alarm'],[0.39900000000125146],[0.39900000000125146],none,none,,,"[""space""]",ne,4,testWhatL3Uns//time_viol.r1.s1.0.wav,3.0,what,unsyncopated,a,s1,no_rule,time,L3,m,0.299,7.0,1.0,0.266,3.0,3.0,catala,0.0,castellano,0.0,ingles,8.0,3.0,3.0,yes,yes,yes,canto,5,flauta travesera,5,guitarra electrica,5,guitarra española,11.0,,, nada ,78.0,yes
57,2023-12-30_16h55.09.293,Unsyncopated_study2,s86,25.0,masculino,right, españa,catalàcastellano,Master degree,no,no,A,1,conjunction_syn,L1,syncopated,s1,r2,57,Online_conjL1_syn//d.ne.ni25.222.1110.wav,ta,ne,ze,be,sil,ni,cho,la,sil1,lu,sil2,['miss'],,,0.222,no_beat,,,,ne,4,testWhatL3Uns//r2.s2.0.wav,3.0,what,unsyncopated,b,s2,rule,rule,L3,z,0.854,5.0,1.0,0.273,3.0,3.0,catala,0.0,castellano,0.0,ingles,8.0,3.0,3.0,yes,yes,yes,canto,5,flauta travesera,5,guitarra electrica,5,guitarra española,11.0,,, nada ,78.0,yes
58,2023-12-30_16h55.09.293,Unsyncopated_study2,s86,25.0,masculino,right, españa,catalàcastellano,Master degree,no,no,A,1,conjunction_syn,L1,syncopated,s2,r1,58,Online_conjL1_syn//d.ne.ni26.none.none.wav,ze,zu,fa,pu,sil,cho,lu,ki,sil1,fo,sil2,['-'],,,none,none,,,,ne,4,testWhatL3Uns//r2.s1.0.wav,3.0,what,unsyncopated,b,s1,rule,rule,L3,z,1.336,5.0,1.0,0.33,3.0,3.0,catala,0.0,castellano,0.0,ingles,8.0,3.0,3.0,yes,yes,yes,canto,5,flauta travesera,5,guitarra electrica,5,guitarra española,11.0,,, nada ,78.0,yes
59,2023-12-30_16h55.09.293,Unsyncopated_study2,s86,25.0,masculino,right, españa,catalàcastellano,Master degree,no,no,A,1,conjunction_syn,L1,syncopated,s2,r2,59,Online_conjL1_syn//d.ne.ni24.none.none.wav,lu,ro,la,ta,sil,fa,fo,be,sil1,zu,sil2,['-'],,,none,none,,,,ne,4,testWhatL3Uns//r1.s2.1.wav,3.0,what,unsyncopated,a,s2,rule,rule,L3,m,0.473,1.0,0.0,1.629,3.0,3.0,catala,0.0,castellano,0.0,ingles,8.0,3.0,3.0,yes,yes,yes,canto,5,flauta travesera,5,guitarra electrica,5,guitarra española,11.0,,, nada ,78.0,yes
60,2023-12-30_16h55.09.293,Unsyncopated_study2,s86,25.0,masculino,right, españa,catalàcastellano,Master degree,no,no,A,1,conjunction_syn,L1,syncopated,s2,r1,60,Online_conjL1_syn//c.ro.fo26.444.0.wav,fo,ne,ro,pu,sil,ze,ni,ki,sil1,fa,sil2,['catch'],[1.0580000000009022],[1.0580000000009022],0.444,no_beat,0.6140000000009023,0.6140000000009023,"[""space""]",ro,3,testWhatL3Uns//r1.s1.0.wav,3.0,what,unsyncopated,a,s1,rule,rule,L3,m,2.024,5.0,0.0,0.721,3.0,3.0,catala,0.0,castellano,0.0,ingles,8.0,3.0,3.0,yes,yes,yes,canto,5,flauta travesera,5,guitarra electrica,5,guitarra española,11.0,,, nada ,78.0,yes
61,2023-12-30_16h55.09.293,Unsyncopated_study2,s86,25.0,masculino,right, españa,catalàcastellano,Master degree,no,no,A,1,conjunction_syn,L1,syncopated,s1,r1,61,Online_conjL1_syn//c.ro.fo24.1332.222.wav,pu,fo,ni,ki,sil,la,ro,ze,sil1,zu,sil2,['catch'],[2.1779999999998836],[2.1779999999998836],1.332,no_beat,0.8459999999998835,0.8459999999998835,"[""space""]",ro,3,testWhatL3Uns//time_viol.r2.s1.0.wav,3.0,what,unsyncopated,b,s1,no_rule,time,L3,m,0.343,5.0,1.0,1.598,3.0,3.0,catala,0.0,castellano,0.0,ingles,8.0,3.0,3.0,yes,yes,yes,canto,5,flauta travesera,5,guitarra electrica,5,guitarra española,11.0,,, nada ,78.0,yes
62,2023-12-30_16h55.09.293,Unsyncopated_study2,s86,25.0,masculino,right, españa,catalàcastellano,Master degree,no,no,A,1,conjunction_syn,L1,syncopated,s2,r2,62,Online_conjL1_syn//c.ro.fo27.444.1110.wav,la,fa,ro,ta,sil,fo,lu,be,sil1,ze,sil2,['miss'],,,0.444,no_beat,,,,ro,3,testWhatL3Uns//cat_viol.r2.s1.0.wav,3.0,what,unsyncopated,b,s1,no_rule,cat,L3,z,1.191,4.0,0.0,0.378,3.0,3.0,catala,0.0,castellano,0.0,ingles,8.0,3.0,3.0,yes,yes,yes,canto,5,flauta travesera,5,guitarra electrica,5,guitarra española,11.0,,, nada ,78.0,yes
63,2023-12-30_16h55.09.293,Unsyncopated_study2,s86,25.0,masculino,right, españa,catalàcastellano,Master degree,no,no,A,1,conjunction_syn,L1,syncopated,s2,r2,63,Online_conjL1_syn//c.ro.fo25.none.none.wav,lu,ri,fa,ta,sil,zu,cho,be,sil1,ze,sil2,['-'],,,none,none,,,,ro,3,testWhatL3Uns//r1.s2.0.wav,3.0,what,unsyncopated,a,s2,rule,rule,L3,z,1.4,3.0,1.0,0.377,3.0,3.0,catala,0.0,castellano,0.0,ingles,8.0,3.0,3.0,yes,yes,yes,canto,5,flauta travesera,5,guitarra electrica,5,guitarra española,11.0,,, nada ,78.0,yes
64,2023-12-30_16h55.09.293,Unsyncopated_study2,s86,25.0,masculino,right, españa,catalàcastellano,Master degree,no,no,A,1,conjunction_syn,L1,syncopated,s2,r2,64,Online_conjL1_syn//a.pu.ki31.none.none.wav,lu,fo,fa,ta,sil,ro,ni,be,sil1,la,sil2,['-'],,,none,none,,,,ki,2,testWhatL3Uns//cat_viol.r1.s2.0.wav,3.0,what,unsyncopated,a,s2,no_rule,cat,L3,z,1.07,6.0,0.0,0.172,3.0,3.0,catala,0.0,castellano,0.0,ingles,8.0,3.0,3.0,yes,yes,yes,canto,5,flauta travesera,5,guitarra electrica,5,guitarra española,11.0,,, nada ,78.0,yes
65,2023-12-30_16h55.09.293,Unsyncopated_study2,s86,25.0,masculino,right, españa,catalàcastellano,Master degree,no,no,A,1,conjunction_syn,L1,syncopated,s2,r1,65,Online_conjL1_syn//a.pu.ki28.666.1554.wav,cho,ro,fo,pu,sil,ze,ni,ki,sil1,zu,sil2,['catch'],[2.0270000000000437],[2.0270000000000437],1.554,no_beat,0.4730000000000436,0.4730000000000436,"[""space""]",ki,2,testWhatL3Uns//r2.s1.1.wav,3.0,what,unsyncopated,b,s1,rule,rule,L3,z,0.404,3.0,1.0,0.33,3.0,3.0,catala,0.0,castellano,0.0,ingles,8.0,3.0,3.0,yes,yes,yes,canto,5,flauta travesera,5,guitarra electrica,5,guitarra española,11.0,,, nada ,78.0,yes
66,2023-12-30_16h55.09.293,Unsyncopated_study2,s86,25.0,masculino,right, españa,catalàcastellano,Master degree,no,no,A,1,conjunction_syn,L1,syncopated,s2,r1,66,Online_conjL1_syn//a.pu.ki29.666.1554.wav,ze,ne,ro,pu,sil,lu,la,ki,sil1,fo,sil2,['catch'],[1.966999999998734],[1.966999999998734],1.554,no_beat,0.4129999999987339,0.4129999999987339,"[""space""]",ki,2,testWhatL3Uns//r1.s1.2.wav,3.0,what,unsyncopated,a,s1,rule,rule,L3,z,0.31,5.0,1.0,0.357,3.0,3.0,catala,0.0,castellano,0.0,ingles,8.0,3.0,3.0,yes,yes,yes,canto,5,flauta travesera,5,guitarra electrica,5,guitarra española,11.0,,, nada ,78.0,yes
67,2023-12-30_16h55.09.293,Unsyncopated_study2,s86,25.0,masculino,right, españa,catalàcastellano,Master degree,no,no,A,1,conjunction_syn,L1,syncopated,s1,r2,67,Online_conjL1_syn//a.pu.ki30.none.none.wav,ta,fa,ro,be,sil,ni,zu,la,sil1,ze,sil2,['-'],,,none,none,,,,ki,2,testWhatL3Uns//r1.s1.1.wav,3.0,what,unsyncopated,a,s1,rule,rule,L3,m,0.326,2.0,0.0,0.591,3.0,3.0,catala,0.0,castellano,0.0,ingles,8.0,3.0,3.0,yes,yes,yes,canto,5,flauta travesera,5,guitarra electrica,5,guitarra española,11.0,,, nada ,78.0,yes
68,2023-12-30_16h55.09.293,Unsyncopated_study2,s86,25.0,masculino,right, españa,catalàcastellano,Master degree,no,no,A,1,conjunction_syn,L1,syncopated,s2,r1,68,Online_conjL1_syn//c.ro.fo19.none.none.wav,la,ni,zu,pu,sil,ne,ri,ki,sil1,lu,sil2,['-'],,,none,none,,,,ro,3,testWhatL3Uns//time_viol.r2.s2.0.wav,3.0,what,unsyncopated,b,s2,no_rule,time,L3,m,0.39,7.0,1.0,0.946,3.0,3.0,catala,0.0,castellano,0.0,ingles,8.0,3.0,3.0,yes,yes,yes,canto,5,flauta travesera,5,guitarra electrica,5,guitarra española,11.0,,, nada ,78.0,yes
69,2023-12-30_16h55.09.293,Unsyncopated_study2,s86,25.0,masculino,right, españa,catalàcastellano,Master degree,no,no,A,1,conjunction_syn,L1,syncopated,s1,r1,69,Online_conjL1_syn//c.ro.fo18.1110.222.wav,pu,fo,zu,ki,sil,ro,cho,ze,sil1,ne,sil2,['catch'],[1.4860000000007858],[1.4860000000007858],1.11,no_beat,0.3760000000007857,0.3760000000007857,"[""space""]",ro,3,testWhatL3Uns//dep_viol.r2.s2.0.wav,3.0,what,unsyncopated,b,s2,no_rule,dep,L3,z,0.596,7.0,0.0,0.378,3.0,3.0,catala,0.0,castellano,0.0,ingles,8.0,3.0,3.0,yes,yes,yes,canto,5,flauta travesera,5,guitarra electrica,5,guitarra española,11.0,,, nada ,78.0,yes
70,2023-12-30_16h55.09.293,Unsyncopated_study2,s86,25.0,masculino,right, españa,catalàcastellano,Master degree,no,no,A,1,conjunction_syn,L1,syncopated,s1,r2,70,Online_conjL1_syn//c.ro.fo16.1332.222.wav,ta,fo,ni,be,sil,la,ro,lu,sil1,fa,sil2,['catch'],[1.7700000000004366],[1.7700000000004366],1.332,no_beat,0.4380000000004365,0.4380000000004365,"[""space""]",ro,3,testWhatL3Uns//r2.s2.1.wav,3.0,what,unsyncopated,b,s2,rule,rule,L3,z,0.109,5.0,1.0,0.376,3.0,3.0,catala,0.0,castellano,0.0,ingles,8.0,3.0,3.0,yes,yes,yes,canto,5,flauta travesera,5,guitarra electrica,5,guitarra española,11.0,,, nada ,78.0,yes
71,2023-12-30_16h55.09.293,Unsyncopated_study2,s86,25.0,masculino,right, españa,catalàcastellano,Master degree,no,no,A,1,conjunction_syn,L1,syncopated,s2,r1,71,Online_conjL1_syn//c.ro.fo17.444.0.wav,fo,fa,ro,pu,sil,lu,ze,ki,sil1,ni,sil2,['miss'],,,0.444,no_beat,,,,ro,3,testWhatL3Uns//r1.s2.2.wav,3.0,what,unsyncopated,a,s2,rule,rule,L3,z,1.196,3.0,1.0,0.252,3.0,3.0,catala,0.0,castellano,0.0,ingles,8.0,3.0,3.0,yes,yes,yes,canto,5,flauta travesera,5,guitarra electrica,5,guitarra española,11.0,,, nada ,78.0,yes
72,2023-12-30_16h55.09.293,Unsyncopated_study2,s86,25.0,masculino,right, españa,catalàcastellano,Master degree,no,no,A,1,conjunction_syn,L1,syncopated,s1,r2,72,Online_conjL1_syn//a.pu.ki19.none.none.wav,ta,fa,lu,be,sil,ne,fo,ri,sil1,ze,sil2,['-'],,,none,none,,,,ki,2,testConjL2Uns//r2.s2.2.wav,4.0,conjunction_un,unsyncopated,b,s2,rule,rule,L2,z,1.346,6.0,1.0,0.203,3.0,3.0,catala,0.0,castellano,0.0,ingles,8.0,3.0,3.0,yes,yes,yes,canto,5,flauta travesera,5,guitarra electrica,5,guitarra española,11.0,,, nada ,78.0,yes
73,2023-12-30_16h55.09.293,Unsyncopated_study2,s86,25.0,masculino,right, españa,catalàcastellano,Master degree,no,no,A,1,conjunction_syn,L1,syncopated,s2,r2,73,Online_conjL1_syn//a.pu.ki16.none.none.wav,la,ze,fo,ta,sil,zu,lu,be,sil1,ne,sil2,['-'],,,none,none,,,,ki,2,testConjL2Uns//r2.s2.0.wav,4.0,conjunction_un,unsyncopated,b,s2,rule,rule,L2,z,0.431,5.0,1.0,0.273,3.0,3.0,catala,0.0,castellano,0.0,ingles,8.0,3.0,3.0,yes,yes,yes,canto,5,flauta travesera,5,guitarra electrica,5,guitarra española,11.0,,, nada ,78.0,yes
74,2023-12-30_16h55.09.293,Unsyncopated_study2,s86,25.0,masculino,right, españa,catalàcastellano,Master degree,no,no,A,1,conjunction_syn,L1,syncopated,s2,r1,74,Online_conjL1_syn//a.pu.ki18.666.1554.wav,lu,ni,ri,pu,sil,ro,fo,ki,sil1,cho,sil2,['catch'],[2.006999999999607],[2.006999999999607],1.554,no_beat,0.452999999999607,0.452999999999607,"[""space""]",ki,2,testConjL2Uns//r2.s2.1.wav,4.0,conjunction_un,unsyncopated,b,s2,rule,rule,L2,z,0.486,4.0,1.0,0.397,3.0,3.0,catala,0.0,castellano,0.0,ingles,8.0,3.0,3.0,yes,yes,yes,canto,5,flauta travesera,5,guitarra electrica,5,guitarra española,11.0,,, nada ,78.0,yes
75,2023-12-30_16h55.09.293,Unsyncopated_study2,s86,25.0,masculino,right, españa,catalàcastellano,Master degree,no,no,A,1,conjunction_syn,L1,syncopated,s2,r2,75,Online_conjL1_syn//a.pu.ki17.none.none.wav,lu,fa,zu,ta,sil,la,ze,be,sil1,cho,sil2,['-'],,,none,none,,,,ki,2,testConjL2Uns//dep_viol.r2.s1.0.wav,4.0,conjunction_un,unsyncopated,b,s1,no_rule,dep,L2,m,0.6,5.0,1.0,0.466,3.0,3.0,catala,0.0,castellano,0.0,ingles,8.0,3.0,3.0,yes,yes,yes,canto,5,flauta travesera,5,guitarra electrica,5,guitarra española,11.0,,, nada ,78.0,yes
76,2023-12-30_16h55.09.293,Unsyncopated_study2,s86,25.0,masculino,right, españa,catalàcastellano,Master degree,no,no,A,1,conjunction_syn,L1,syncopated,s1,r2,76,Online_conjL1_syn//a.pu.ki4.none.none.wav,ta,ze,ri,be,sil,zu,fo,ne,sil1,lu,sil2,['-'],,,none,none,,,,ki,2,testConjL2Uns//dep_viol.r1.s1.0.wav,4.0,conjunction_un,unsyncopated,a,s1,no_rule,dep,L2,m,0.291,7.0,1.0,0.299,3.0,3.0,catala,0.0,castellano,0.0,ingles,8.0,3.0,3.0,yes,yes,yes,canto,5,flauta travesera,5,guitarra electrica,5,guitarra española,11.0,,, nada ,78.0,yes
77,2023-12-30_16h55.09.293,Unsyncopated_study2,s86,25.0,masculino,right, españa,catalàcastellano,Master degree,no,no,A,1,conjunction_syn,L1,syncopated,s2,r2,77,Online_conjL1_syn//a.pu.ki6.none.none.wav,ne,ni,la,ta,sil,zu,cho,be,sil1,ze,sil2,['-'],,,none,none,,,,ki,2,testConjL2Uns//dep_viol.r1.s2.0.wav,4.0,conjunction_un,unsyncopated,a,s2,no_rule,dep,L2,z,0.511,6.0,0.0,0.601,3.0,3.0,catala,0.0,castellano,0.0,ingles,8.0,3.0,3.0,yes,yes,yes,canto,5,flauta travesera,5,guitarra electrica,5,guitarra española,11.0,,, nada ,78.0,yes
78,2023-12-30_16h55.09.293,Unsyncopated_study2,s86,25.0,masculino,right, españa,catalàcastellano,Master degree,no,no,A,1,conjunction_syn,L1,syncopated,s1,r1,78,Online_conjL1_syn//a.pu.ki5.0.666.wav,pu,ne,ro,ki,sil,cho,ri,fa,sil1,lu,sil2,['catch'],[1.0780000000013388],[1.0780000000013388],0.666,no_beat,0.4120000000013387,0.4120000000013387,"[""space""]",ki,2,testConjL2Uns//time_viol.r2.s1.0.wav,4.0,conjunction_un,unsyncopated,b,s1,no_rule,time,L2,z,0.305,6.0,0.0,0.424,3.0,3.0,catala,0.0,castellano,0.0,ingles,8.0,3.0,3.0,yes,yes,yes,canto,5,flauta travesera,5,guitarra electrica,5,guitarra española,11.0,,, nada ,78.0,yes
79,2023-12-30_16h55.09.293,Unsyncopated_study2,s86,25.0,masculino,right, españa,catalàcastellano,Master degree,no,no,A,1,conjunction_syn,L1,syncopated,s1,r1,79,Online_conjL1_syn//a.pu.ki7.0.666.wav,pu,ri,zu,ki,sil,ne,ze,cho,sil1,la,sil2,['catch'],[1.1779999999998836],[1.1779999999998836],0.666,no_beat,0.5119999999998835,0.5119999999998835,"[""space""]",ki,2,testConjL2Uns//r1.s2.2.wav,4.0,conjunction_un,unsyncopated,a,s2,rule,rule,L2,z,0.043,7.0,1.0,0.553,3.0,3.0,catala,0.0,castellano,0.0,ingles,8.0,3.0,3.0,yes,yes,yes,canto,5,flauta travesera,5,guitarra electrica,5,guitarra española,11.0,,, nada ,78.0,yes
80,2023-12-30_16h55.09.293,Unsyncopated_study2,s86,25.0,masculino,right, españa,catalàcastellano,Master degree,no,no,A,1,conjunction_syn,L1,syncopated,s1,r1,80,Online_conjL1_syn//d.ne.ni15.none.none.wav,pu,lu,ze,ki,sil,cho,zu,ri,sil1,la,sil2,['false alarm'],[1.077000000001135],[1.077000000001135],none,none,,,"[""space""]",ne,4,testConjL2Uns//time_viol.r1.s2.0.wav,4.0,conjunction_un,unsyncopated,a,s2,no_rule,time,L2,z,0.954,4.0,0.0,0.328,3.0,3.0,catala,0.0,castellano,0.0,ingles,8.0,3.0,3.0,yes,yes,yes,canto,5,flauta travesera,5,guitarra electrica,5,guitarra española,11.0,,, nada ,78.0,yes
81,2023-12-30_16h55.09.293,Unsyncopated_study2,s86,25.0,masculino,right, españa,catalàcastellano,Master degree,no,no,A,1,conjunction_syn,L1,syncopated,s2,r1,81,Online_conjL1_syn//d.ne.ni13.1110.222.wav,ze,ni,lu,pu,sil,ne,ro,ki,sil1,zu,sil2,['catch'],[1.6940000000013242],[1.6940000000013242],1.11,no_beat,0.5840000000013241,0.5840000000013241,"[""space""]",ne,4,testConjL2Uns//r1.s1.2.wav,4.0,conjunction_un,unsyncopated,a,s1,rule,rule,L2,z,0.317,6.0,1.0,0.278,3.0,3.0,catala,0.0,castellano,0.0,ingles,8.0,3.0,3.0,yes,yes,yes,canto,5,flauta travesera,5,guitarra electrica,5,guitarra española,11.0,,, nada ,78.0,yes
82,2023-12-30_16h55.09.293,Unsyncopated_study2,s86,25.0,masculino,right, españa,catalàcastellano,Master degree,no,no,A,1,conjunction_syn,L1,syncopated,s1,r1,82,Online_conjL1_syn//d.ne.ni12.none.none.wav,pu,fo,ri,ki,sil,ze,zu,ro,sil1,la,sil2,['-'],,,none,none,,,,ne,4,testConjL2Uns//dep_viol.r2.s2.0.wav,4.0,conjunction_un,unsyncopated,b,s2,no_rule,dep,L2,m,0.409,4.0,1.0,0.615,3.0,3.0,catala,0.0,castellano,0.0,ingles,8.0,3.0,3.0,yes,yes,yes,canto,5,flauta travesera,5,guitarra electrica,5,guitarra española,11.0,,, nada ,78.0,yes
83,2023-12-30_16h55.09.293,Unsyncopated_study2,s86,25.0,masculino,right, españa,catalàcastellano,Master degree,no,no,A,1,conjunction_syn,L1,syncopated,s1,r2,83,Online_conjL1_syn//d.ne.ni14.none.none.wav,ta,ri,cho,be,sil,ze,lu,zu,sil1,la,sil2,['false alarm'],[1.1500000000014552],[1.1500000000014552],none,none,,,"[""space""]",ne,4,testConjL2Uns//cat_viol.r1.s2.0.wav,4.0,conjunction_un,unsyncopated,a,s2,no_rule,cat,L2,z,0.313,7.0,0.0,0.326,3.0,3.0,catala,0.0,castellano,0.0,ingles,8.0,3.0,3.0,yes,yes,yes,canto,5,flauta travesera,5,guitarra electrica,5,guitarra española,11.0,,, nada ,78.0,yes
84,2023-12-30_16h55.09.293,Unsyncopated_study2,s86,25.0,masculino,right, españa,catalàcastellano,Master degree,no,no,A,1,conjunction_syn,L1,syncopated,s2,r1,84,Online_conjL1_syn//b.ta.be15.none.none.wav,la,ni,lu,pu,sil,ri,cho,ki,sil1,fa,sil2,['-'],,,none,none,,,,ta,1,testConjL2Uns//r1.s1.0.wav,4.0,conjunction_un,unsyncopated,a,s1,rule,rule,L2,z,1.732,6.0,1.0,0.55,3.0,3.0,catala,0.0,castellano,0.0,ingles,8.0,3.0,3.0,yes,yes,yes,canto,5,flauta travesera,5,guitarra electrica,5,guitarra española,11.0,,, nada ,78.0,yes
85,2023-12-30_16h55.09.293,Unsyncopated_study2,s86,25.0,masculino,right, españa,catalàcastellano,Master degree,no,no,A,1,conjunction_syn,L1,syncopated,s1,r2,85,Online_conjL1_syn//b.ta.be13.0.666.wav,ta,ni,fo,be,sil,ze,ne,fa,sil1,ri,sil2,['catch'],[0.581000000000131],[0.581000000000131],0.0,beat,0.581000000000131,0.581000000000131,"[""space""]",ta,1,testConjL2Uns//time_viol.r1.s1.0.wav,4.0,conjunction_un,unsyncopated,a,s1,no_rule,time,L2,z,0.747,5.0,0.0,0.3,3.0,3.0,catala,0.0,castellano,0.0,ingles,8.0,3.0,3.0,yes,yes,yes,canto,5,flauta travesera,5,guitarra electrica,5,guitarra española,11.0,,, nada ,78.0,yes
86,2023-12-30_16h55.09.293,Unsyncopated_study2,s86,25.0,masculino,right, españa,catalàcastellano,Master degree,no,no,A,1,conjunction_syn,L1,syncopated,s1,r1,86,Online_conjL1_syn//b.ta.be12.none.none.wav,pu,ro,lu,ki,sil,ri,fa,ni,sil1,cho,sil2,['-'],,,none,none,,,,ta,1,testConjL2Uns//r1.s2.1.wav,4.0,conjunction_un,unsyncopated,a,s2,rule,rule,L2,m,0.363,4.0,0.0,0.591,3.0,3.0,catala,0.0,castellano,0.0,ingles,8.0,3.0,3.0,yes,yes,yes,canto,5,flauta travesera,5,guitarra electrica,5,guitarra española,11.0,,, nada ,78.0,yes
87,2023-12-30_16h55.09.293,Unsyncopated_study2,s86,25.0,masculino,right, españa,catalàcastellano,Master degree,no,no,A,1,conjunction_syn,L1,syncopated,s1,r2,87,Online_conjL1_syn//b.ta.be14.0.666.wav,ta,la,fa,be,sil,ni,fo,ro,sil1,lu,sil2,['catch'],[0.5509999999994761],[0.5509999999994761],0.0,beat,0.5509999999994761,0.5509999999994761,"[""space""]",ta,1,testConjL2Uns//r2.s1.2.wav,4.0,conjunction_un,unsyncopated,b,s1,rule,rule,L2,z,0.126,6.0,1.0,0.326,3.0,3.0,catala,0.0,castellano,0.0,ingles,8.0,3.0,3.0,yes,yes,yes,canto,5,flauta travesera,5,guitarra electrica,5,guitarra española,11.0,,, nada ,78.0,yes
88,2023-12-30_16h55.09.293,Unsyncopated_study2,s86,25.0,masculino,right, españa,catalàcastellano,Master degree,no,no,A,1,conjunction_syn,L1,syncopated,s2,r1,88,Online_conjL1_syn//c.ro.fo3.none.none.wav,lu,ni,ze,pu,sil,ne,ri,ki,sil1,cho,sil2,['-'],,,none,none,,,,ro,3,testConjL2Uns//cat_viol.r2.s1.0.wav,4.0,conjunction_un,unsyncopated,b,s1,no_rule,cat,L2,m,0.258,3.0,1.0,0.539,3.0,3.0,catala,0.0,castellano,0.0,ingles,8.0,3.0,3.0,yes,yes,yes,canto,5,flauta travesera,5,guitarra electrica,5,guitarra española,11.0,,, nada ,78.0,yes
89,2023-12-30_16h55.09.293,Unsyncopated_study2,s86,25.0,masculino,right, españa,catalàcastellano,Master degree,no,no,A,1,conjunction_syn,L1,syncopated,s1,r2,89,Online_conjL1_syn//c.ro.fo2.none.none.wav,ta,ze,ni,be,sil,zu,cho,lu,sil1,la,sil2,['-'],,,none,none,,,,ro,3,testConjL2Uns//cat_viol.r2.s2.0.wav,4.0,conjunction_un,unsyncopated,b,s2,no_rule,cat,L2,z,0.218,6.0,0.0,0.286,3.0,3.0,catala,0.0,castellano,0.0,ingles,8.0,3.0,3.0,yes,yes,yes,canto,5,flauta travesera,5,guitarra electrica,5,guitarra española,11.0,,, nada ,78.0,yes
90,2023-12-30_16h55.09.293,Unsyncopated_study2,s86,25.0,masculino,right, españa,catalàcastellano,Master degree,no,no,A,1,conjunction_syn,L1,syncopated,s2,r1,90,Online_conjL1_syn//c.ro.fo0.444.1110.wav,fa,la,ro,pu,sil,fo,lu,ki,sil1,ze,sil2,['catch'],[0.9659999999985303],[0.9659999999985303],0.444,no_beat,0.5219999999985303,0.5219999999985303,"[""space""]",ro,3,testConjL2Uns//time_viol.r2.s2.0.wav,4.0,conjunction_un,unsyncopated,b,s2,no_rule,time,L2,z,0.34,5.0,0.0,0.222,3.0,3.0,catala,0.0,castellano,0.0,ingles,8.0,3.0,3.0,yes,yes,yes,canto,5,flauta travesera,5,guitarra electrica,5,guitarra española,11.0,,, nada ,78.0,yes
91,2023-12-30_16h55.09.293,Unsyncopated_study2,s86,25.0,masculino,right, españa,catalàcastellano,Master degree,no,no,A,1,conjunction_syn,L1,syncopated,s1,r2,91,Online_conjL1_syn//c.ro.fo1.none.none.wav,ta,ni,lu,be,sil,zu,ze,fa,sil1,la,sil2,['-'],,,none,none,,,,ro,3,testConjL2Uns//r2.s1.0.wav,4.0,conjunction_un,unsyncopated,b,s1,rule,rule,L2,z,0.24,6.0,1.0,0.23,3.0,3.0,catala,0.0,castellano,0.0,ingles,8.0,3.0,3.0,yes,yes,yes,canto,5,flauta travesera,5,guitarra electrica,5,guitarra española,11.0,,, nada ,78.0,yes
92,2023-12-30_16h55.09.293,Unsyncopated_study2,s86,25.0,masculino,right, españa,catalàcastellano,Master degree,no,no,A,1,conjunction_syn,L1,syncopated,s1,r2,92,Online_conjL1_syn//d.ne.ni28.none.none.wav,ta,lu,zu,be,sil,fa,la,ro,sil1,ri,sil2,['-'],,,none,none,,,,ne,4,testConjL2Uns//r2.s1.1.wav,4.0,conjunction_un,unsyncopated,b,s1,rule,rule,L2,m,0.222,6.0,0.0,0.421,3.0,3.0,catala,0.0,castellano,0.0,ingles,8.0,3.0,3.0,yes,yes,yes,canto,5,flauta travesera,5,guitarra electrica,5,guitarra española,11.0,,, nada ,78.0,yes
93,2023-12-30_16h55.09.293,Unsyncopated_study2,s86,25.0,masculino,right, españa,catalàcastellano,Master degree,no,no,A,1,conjunction_syn,L1,syncopated,s2,r2,93,Online_conjL1_syn//d.ne.ni30.222.1110.wav,fa,ne,lu,ta,sil,ni,ri,be,sil1,ze,sil2,['catch'],[2.1790000000000873],[2.1790000000000873],0.222,no_beat,,1.9570000000000876,"[""space""]",ne,4,testConjL2Uns//r1.s1.1.wav,4.0,conjunction_un,unsyncopated,a,s1,rule,rule,L2,z,0.289,6.0,1.0,0.129,3.0,3.0,catala,0.0,castellano,0.0,ingles,8.0,3.0,3.0,yes,yes,yes,canto,5,flauta travesera,5,guitarra electrica,5,guitarra española,11.0,,, nada ,78.0,yes
94,2023-12-30_16h55.09.293,Unsyncopated_study2,s86,25.0,masculino,right, españa,catalàcastellano,Master degree,no,no,A,1,conjunction_syn,L1,syncopated,s2,r1,94,Online_conjL1_syn//d.ne.ni31.0.1110.wav,ne,zu,fa,pu,sil,ni,lu,ki,sil1,ro,sil2,['miss'],,,0.0,beat,,,,ne,4,testConjL2Uns//cat_viol.r1.s1.0.wav,4.0,conjunction_un,unsyncopated,a,s1,no_rule,cat,L2,z,0.341,4.0,0.0,0.452,3.0,3.0,catala,0.0,castellano,0.0,ingles,8.0,3.0,3.0,yes,yes,yes,canto,5,flauta travesera,5,guitarra electrica,5,guitarra española,11.0,,, nada ,78.0,yes
95,2023-12-30_16h55.09.293,Unsyncopated_study2,s86,25.0,masculino,right, españa,catalàcastellano,Master degree,no,no,A,1,conjunction_syn,L1,syncopated,s2,r2,95,Online_conjL1_syn//d.ne.ni29.0.444.wav,ne,fa,ni,ta,sil,ri,zu,be,sil1,lu,sil2,['catch'],[2.04700000000048],[2.04700000000048],0.0,beat,,2.04700000000048,"[""space""]",ne,4,testConjL2Uns//r1.s2.0.wav,4.0,conjunction_un,unsyncopated,a,s2,rule,rule,L2,z,0.239,7.0,1.0,0.279,3.0,3.0,catala,0.0,castellano,0.0,ingles,8.0,3.0,3.0,yes,yes,yes,canto,5,flauta travesera,5,guitarra electrica,5,guitarra española,11.0,,, nada ,78.0,yes
96,2023-12-30_16h55.09.293,Unsyncopated_study2,s86,25.0,masculino,right, españa,catalàcastellano,Master degree,no,no,A,1,conjunction_syn,L1,syncopated,s1,r2,96,Online_conjL1_syn//c.ro.fo6.none.none.wav,ta,fa,ni,be,sil,la,ne,cho,sil1,ze,sil2,['-'],,,none,none,,,,ro,3,,,,,,,,,,,,,,,3.0,3.0,catala,0.0,castellano,0.0,ingles,8.0,3.0,3.0,yes,yes,yes,canto,5,flauta travesera,5,guitarra electrica,5,guitarra española,11.0,,, nada ,78.0,yes
97,2023-12-30_16h55.09.293,Unsyncopated_study2,s86,25.0,masculino,right, españa,catalàcastellano,Master degree,no,no,A,1,conjunction_syn,L1,syncopated,s1,r1,97,Online_conjL1_syn//c.ro.fo7.none.none.wav,pu,zu,la,ki,sil,ze,ne,lu,sil1,ri,sil2,['-'],,,none,none,,,,ro,3,,,,,,,,,,,,,,,3.0,3.0,catala,0.0,castellano,0.0,ingles,8.0,3.0,3.0,yes,yes,yes,canto,5,flauta travesera,5,guitarra electrica,5,guitarra española,11.0,,, nada ,78.0,yes
98,2023-12-30_16h55.09.293,Unsyncopated_study2,s86,25.0,masculino,right, españa,catalàcastellano,Master degree,no,no,A,1,conjunction_syn,L1,syncopated,s1,r2,98,Online_conjL1_syn//c.ro.fo4.444.1110.wav,ta,ze,ro,be,sil,fo,ni,cho,sil1,zu,sil2,['catch'],[0.9500000000007276],[0.9500000000007276],0.444,no_beat,0.5060000000007276,0.5060000000007276,"[""space""]",ro,3,,,,,,,,,,,,,,,3.0,3.0,catala,0.0,castellano,0.0,ingles,8.0,3.0,3.0,yes,yes,yes,canto,5,flauta travesera,5,guitarra electrica,5,guitarra española,11.0,,, nada ,78.0,yes
99,2023-12-30_16h55.09.293,Unsyncopated_study2,s86,25.0,masculino,right, españa,catalàcastellano,Master degree,no,no,A,1,conjunction_syn,L1,syncopated,s2,r1,99,Online_conjL1_syn//c.ro.fo5.1332.0.wav,fo,zu,cho,pu,sil,ni,ro,ki,sil1,fa,sil2,['catch'],[2.280000000000655],[2.280000000000655],1.332,no_beat,0.9480000000006548,0.9480000000006548,"[""space""]",ro,3,,,,,,,,,,,,,,,3.0,3.0,catala,0.0,castellano,0.0,ingles,8.0,3.0,3.0,yes,yes,yes,canto,5,flauta travesera,5,guitarra electrica,5,guitarra española,11.0,,, nada ,78.0,yes
100,2023-12-30_16h55.09.293,Unsyncopated_study2,s86,25.0,masculino,right, españa,catalàcastellano,Master degree,no,no,A,1,conjunction_syn,L1,syncopated,s2,r2,100,Online_conjL1_syn//b.ta.be24.666.1554.wav,fo,ni,ro,ta,sil,ri,cho,be,sil1,ne,sil2,['catch'],[1.055000000000291],[1.055000000000291],0.666,no_beat,0.389000000000291,0.389000000000291,"[""space""]",ta,1,,,,,,,,,,,,,,,3.0,3.0,catala,0.0,castellano,0.0,ingles,8.0,3.0,3.0,yes,yes,yes,canto,5,flauta travesera,5,guitarra electrica,5,guitarra española,11.0,,, nada ,78.0,yes
101,2023-12-30_16h55.09.293,Unsyncopated_study2,s86,25.0,masculino,right, españa,catalàcastellano,Master degree,no,no,A,1,conjunction_syn,L1,syncopated,s1,r1,101,Online_conjL1_syn//b.ta.be27.none.none.wav,pu,ze,lu,ki,sil,ro,fo,ni,sil1,ri,sil2,['-'],,,none,none,,,,ta,1,,,,,,,,,,,,,,,3.0,3.0,catala,0.0,castellano,0.0,ingles,8.0,3.0,3.0,yes,yes,yes,canto,5,flauta travesera,5,guitarra electrica,5,guitarra española,11.0,,, nada ,78.0,yes
102,2023-12-30_16h55.09.293,Unsyncopated_study2,s86,25.0,masculino,right, españa,catalàcastellano,Master degree,no,no,A,1,conjunction_syn,L1,syncopated,s2,r2,102,Online_conjL1_syn//b.ta.be26.666.1554.wav,cho,lu,la,ta,sil,fo,ro,be,sil1,zu,sil2,['catch'],[1.4110000000000582],[1.4110000000000582],0.666,no_beat,0.7450000000000582,0.7450000000000582,"[""space""]",ta,1,,,,,,,,,,,,,,,3.0,3.0,catala,0.0,castellano,0.0,ingles,8.0,3.0,3.0,yes,yes,yes,canto,5,flauta travesera,5,guitarra electrica,5,guitarra española,11.0,,, nada ,78.0,yes
103,2023-12-30_16h55.09.293,Unsyncopated_study2,s86,25.0,masculino,right, españa,catalàcastellano,Master degree,no,no,A,1,conjunction_syn,L1,syncopated,s1,r2,103,Online_conjL1_syn//b.ta.be25.0.666.wav,ta,ri,ze,be,sil,ni,cho,lu,sil1,ne,sil2,"['catch', 'false alarm']","[0.29799999999886495, 2.0019999999985885]",[0.29799999999886495],0.0,beat,0.2979999999988649,0.2979999999988649,"[""space"",""space""]",ta,1,,,,,,,,,,,,,,,3.0,3.0,catala,0.0,castellano,0.0,ingles,8.0,3.0,3.0,yes,yes,yes,canto,5,flauta travesera,5,guitarra electrica,5,guitarra española,11.0,,, nada ,78.0,yes
104,2023-12-30_16h55.09.293,Unsyncopated_study2,s86,25.0,masculino,right, españa,catalàcastellano,Master degree,no,no,A,1,conjunction_syn,L1,syncopated,s1,r1,104,Online_conjL1_syn//b.ta.be29.none.none.wav,pu,ro,fa,ki,sil,zu,ni,la,sil1,ze,sil2,['-'],,,none,none,,,,ta,1,,,,,,,,,,,,,,,3.0,3.0,catala,0.0,castellano,0.0,ingles,8.0,3.0,3.0,yes,yes,yes,canto,5,flauta travesera,5,guitarra electrica,5,guitarra española,11.0,,, nada ,78.0,yes
105,2023-12-30_16h55.09.293,Unsyncopated_study2,s86,25.0,masculino,right, españa,catalàcastellano,Master degree,no,no,A,1,conjunction_syn,L1,syncopated,s1,r2,105,Online_conjL1_syn//b.ta.be28.0.666.wav,ta,fa,la,be,sil,zu,fo,ze,sil1,ro,sil2,['catch'],[0.4219999999986612],[0.4219999999986612],0.0,beat,0.4219999999986612,0.4219999999986612,"[""space""]",ta,1,,,,,,,,,,,,,,,3.0,3.0,catala,0.0,castellano,0.0,ingles,8.0,3.0,3.0,yes,yes,yes,canto,5,flauta travesera,5,guitarra electrica,5,guitarra española,11.0,,, nada ,78.0,yes
106,2023-12-30_16h55.09.293,Unsyncopated_study2,s86,25.0,masculino,right, españa,catalàcastellano,Master degree,no,no,A,1,conjunction_syn,L1,syncopated,s1,r2,106,Online_conjL1_syn//b.ta.be31.0.666.wav,ta,fo,cho,be,sil,lu,ri,zu,sil1,la,sil2,['miss'],,,0.0,beat,,,,ta,1,,,,,,,,,,,,,,,3.0,3.0,catala,0.0,castellano,0.0,ingles,8.0,3.0,3.0,yes,yes,yes,canto,5,flauta travesera,5,guitarra electrica,5,guitarra española,11.0,,, nada ,78.0,yes
107,2023-12-30_16h55.09.293,Unsyncopated_study2,s86,25.0,masculino,right, españa,catalàcastellano,Master degree,no,no,A,1,conjunction_syn,L1,syncopated,s2,r1,107,Online_conjL1_syn//b.ta.be30.none.none.wav,la,fo,fa,pu,sil,ro,ri,ki,sil1,ze,sil2,['-'],,,none,none,,,,ta,1,,,,,,,,,,,,,,,3.0,3.0,catala,0.0,castellano,0.0,ingles,8.0,3.0,3.0,yes,yes,yes,canto,5,flauta travesera,5,guitarra electrica,5,guitarra española,11.0,,, nada ,78.0,yes
108,2023-12-30_16h55.09.293,Unsyncopated_study2,s86,25.0,masculino,right, españa,catalàcastellano,Master degree,no,no,A,1,conjunction_syn,L1,syncopated,s2,r2,108,Online_conjL1_syn//c.ro.fo14.none.none.wav,fa,zu,ri,ta,sil,la,ni,be,sil1,ne,sil2,['false alarm'],[0.9320000000006985],[0.9320000000006985],none,none,,,"[""space""]",ro,3,,,,,,,,,,,,,,,3.0,3.0,catala,0.0,castellano,0.0,ingles,8.0,3.0,3.0,yes,yes,yes,canto,5,flauta travesera,5,guitarra electrica,5,guitarra española,11.0,,, nada ,78.0,yes
109,2023-12-30_16h55.09.293,Unsyncopated_study2,s86,25.0,masculino,right, españa,catalàcastellano,Master degree,no,no,A,1,conjunction_syn,L1,syncopated,s1,r1,109,Online_conjL1_syn//c.ro.fo15.none.none.wav,pu,ri,ze,ki,sil,lu,ne,la,sil1,cho,sil2,['-'],,,none,none,,,,ro,3,,,,,,,,,,,,,,,3.0,3.0,catala,0.0,castellano,0.0,ingles,8.0,3.0,3.0,yes,yes,yes,canto,5,flauta travesera,5,guitarra electrica,5,guitarra española,11.0,,, nada ,78.0,yes
110,2023-12-30_16h55.09.293,Unsyncopated_study2,s86,25.0,masculino,right, españa,catalàcastellano,Master degree,no,no,A,1,conjunction_syn,L1,syncopated,s1,r1,110,Online_conjL1_syn//c.ro.fo13.1554.222.wav,pu,fo,fa,ki,sil,ni,cho,ro,sil1,ze,sil2,['catch'],[1.9789999999993597],[1.9789999999993597],1.554,no_beat,0.4249999999993596,0.4249999999993596,"[""space""]",ro,3,,,,,,,,,,,,,,,3.0,3.0,catala,0.0,castellano,0.0,ingles,8.0,3.0,3.0,yes,yes,yes,canto,5,flauta travesera,5,guitarra electrica,5,guitarra española,11.0,,, nada ,78.0,yes
111,2023-12-30_16h55.09.293,Unsyncopated_study2,s86,25.0,masculino,right, españa,catalàcastellano,Master degree,no,no,A,1,conjunction_syn,L1,syncopated,s2,r2,111,Online_conjL1_syn//c.ro.fo12.1332.444.wav,fa,zu,fo,ta,sil,cho,ro,be,sil1,ne,sil2,['catch'],[1.8669999999983702],[1.8669999999983702],1.332,no_beat,0.5349999999983701,0.5349999999983701,"[""space""]",ro,3,,,,,,,,,,,,,,,3.0,3.0,catala,0.0,castellano,0.0,ingles,8.0,3.0,3.0,yes,yes,yes,canto,5,flauta travesera,5,guitarra electrica,5,guitarra española,11.0,,, nada ,78.0,yes
112,2023-12-30_16h55.09.293,Unsyncopated_study2,s86,25.0,masculino,right, españa,catalàcastellano,Master degree,no,no,A,1,conjunction_syn,L1,syncopated,s2,r2,112,Online_conjL1_syn//c.ro.fo21.none.none.wav,ze,zu,la,ta,sil,ne,cho,be,sil1,ni,sil2,['-'],,,none,none,,,,ro,3,,,,,,,,,,,,,,,3.0,3.0,catala,0.0,castellano,0.0,ingles,8.0,3.0,3.0,yes,yes,yes,canto,5,flauta travesera,5,guitarra electrica,5,guitarra española,11.0,,, nada ,78.0,yes
113,2023-12-30_16h55.09.293,Unsyncopated_study2,s86,25.0,masculino,right, españa,catalàcastellano,Master degree,no,no,A,1,conjunction_syn,L1,syncopated,s1,r1,113,Online_conjL1_syn//c.ro.fo22.none.none.wav,pu,fa,cho,ki,sil,ne,la,ni,sil1,ze,sil2,['-'],,,none,none,,,,ro,3,,,,,,,,,,,,,,,3.0,3.0,catala,0.0,castellano,0.0,ingles,8.0,3.0,3.0,yes,yes,yes,canto,5,flauta travesera,5,guitarra electrica,5,guitarra española,11.0,,, nada ,78.0,yes
114,2023-12-30_16h55.09.293,Unsyncopated_study2,s86,25.0,masculino,right, españa,catalàcastellano,Master degree,no,no,A,1,conjunction_syn,L1,syncopated,s2,r1,114,Online_conjL1_syn//c.ro.fo20.none.none.wav,lu,ne,la,pu,sil,zu,cho,ki,sil1,ni,sil2,['-'],,,none,none,,,,ro,3,,,,,,,,,,,,,,,3.0,3.0,catala,0.0,castellano,0.0,ingles,8.0,3.0,3.0,yes,yes,yes,canto,5,flauta travesera,5,guitarra electrica,5,guitarra española,11.0,,, nada ,78.0,yes
115,2023-12-30_16h55.09.293,Unsyncopated_study2,s86,25.0,masculino,right, españa,catalàcastellano,Master degree,no,no,A,1,conjunction_syn,L1,syncopated,s1,r2,115,Online_conjL1_syn//c.ro.fo23.1110.1332.wav,ta,ne,cho,be,sil,ro,fo,zu,sil1,ni,sil2,['catch'],[1.5310000000008586],[1.5310000000008586],1.11,no_beat,0.4210000000008584,0.4210000000008584,"[""space""]",ro,3,,,,,,,,,,,,,,,3.0,3.0,catala,0.0,castellano,0.0,ingles,8.0,3.0,3.0,yes,yes,yes,canto,5,flauta travesera,5,guitarra electrica,5,guitarra española,11.0,,, nada ,78.0,yes
116,2023-12-30_16h55.09.293,Unsyncopated_study2,s86,25.0,masculino,right, españa,catalàcastellano,Master degree,no,no,A,1,conjunction_syn,L1,syncopated,s2,r2,116,Online_conjL1_syn//d.ne.ni9.0.444.wav,ne,fo,ni,ta,sil,lu,ri,be,sil1,cho,sil2,['miss'],,,0.0,beat,,,,ne,4,,,,,,,,,,,,,,,3.0,3.0,catala,0.0,castellano,0.0,ingles,8.0,3.0,3.0,yes,yes,yes,canto,5,flauta travesera,5,guitarra electrica,5,guitarra española,11.0,,, nada ,78.0,yes
117,2023-12-30_16h55.09.293,Unsyncopated_study2,s86,25.0,masculino,right, españa,catalàcastellano,Master degree,no,no,A,1,conjunction_syn,L1,syncopated,s2,r1,117,Online_conjL1_syn//d.ne.ni8.222.444.wav,fo,ne,ni,pu,sil,ri,ze,ki,sil1,ro,sil2,['catch'],[0.684000000001106],[0.684000000001106],0.222,no_beat,0.4620000000011059,0.4620000000011059,"[""space""]",ne,4,,,,,,,,,,,,,,,3.0,3.0,catala,0.0,castellano,0.0,ingles,8.0,3.0,3.0,yes,yes,yes,canto,5,flauta travesera,5,guitarra electrica,5,guitarra española,11.0,,, nada ,78.0,yes
118,2023-12-30_16h55.09.293,Unsyncopated_study2,s86,25.0,masculino,right, españa,catalàcastellano,Master degree,no,no,A,1,conjunction_syn,L1,syncopated,s1,r1,118,Online_conjL1_syn//d.ne.ni11.222.1332.wav,pu,ne,ri,ki,sil,la,ni,cho,sil1,ro,sil2,['miss'],,,0.222,no_beat,,,,ne,4,,,,,,,,,,,,,,,3.0,3.0,catala,0.0,castellano,0.0,ingles,8.0,3.0,3.0,yes,yes,yes,canto,5,flauta travesera,5,guitarra electrica,5,guitarra española,11.0,,, nada ,78.0,yes
119,2023-12-30_16h55.09.293,Unsyncopated_study2,s86,25.0,masculino,right, españa,catalàcastellano,Master degree,no,no,A,1,conjunction_syn,L1,syncopated,s1,r2,119,Online_conjL1_syn//d.ne.ni10.none.none.wav,ta,ze,fo,be,sil,ro,zu,ri,sil1,lu,sil2,['-'],,,none,none,,,,ne,4,,,,,,,,,,,,,,,3.0,3.0,catala,0.0,castellano,0.0,ingles,8.0,3.0,3.0,yes,yes,yes,canto,5,flauta travesera,5,guitarra electrica,5,guitarra española,11.0,,, nada ,78.0,yes
120,2023-12-30_16h55.09.293,Unsyncopated_study2,s86,25.0,masculino,right, españa,catalàcastellano,Master degree,no,no,A,1,conjunction_syn,L1,syncopated,s1,r2,120,Online_conjL1_syn//c.ro.fo8.444.1332.wav,ta,lu,ro,be,sil,ni,fo,zu,sil1,fa,sil2,['catch'],[0.8670000000001892],[0.8670000000001892],0.444,no_beat,0.4230000000001891,0.4230000000001891,"[""space""]",ro,3,,,,,,,,,,,,,,,3.0,3.0,catala,0.0,castellano,0.0,ingles,8.0,3.0,3.0,yes,yes,yes,canto,5,flauta travesera,5,guitarra electrica,5,guitarra española,11.0,,, nada ,78.0,yes
121,2023-12-30_16h55.09.293,Unsyncopated_study2,s86,25.0,masculino,right, españa,catalàcastellano,Master degree,no,no,A,1,conjunction_syn,L1,syncopated,s2,r1,121,Online_conjL1_syn//c.ro.fo11.none.none.wav,ze,zu,ni,pu,sil,la,cho,ki,sil1,ne,sil2,['-'],,,none,none,,,,ro,3,,,,,,,,,,,,,,,3.0,3.0,catala,0.0,castellano,0.0,ingles,8.0,3.0,3.0,yes,yes,yes,canto,5,flauta travesera,5,guitarra electrica,5,guitarra española,11.0,,, nada ,78.0,yes
122,2023-12-30_16h55.09.293,Unsyncopated_study2,s86,25.0,masculino,right, españa,catalàcastellano,Master degree,no,no,A,1,conjunction_syn,L1,syncopated,s2,r2,122,Online_conjL1_syn//c.ro.fo10.222.444.wav,zu,ro,fo,ta,sil,ni,cho,be,sil1,ze,sil2,['catch'],[0.7989999999990687],[0.7989999999990687],0.222,no_beat,0.5769999999990687,0.5769999999990687,"[""space""]",ro,3,,,,,,,,,,,,,,,3.0,3.0,catala,0.0,castellano,0.0,ingles,8.0,3.0,3.0,yes,yes,yes,canto,5,flauta travesera,5,guitarra electrica,5,guitarra española,11.0,,, nada ,78.0,yes
123,2023-12-30_16h55.09.293,Unsyncopated_study2,s86,25.0,masculino,right, españa,catalàcastellano,Master degree,no,no,A,1,conjunction_syn,L1,syncopated,s1,r1,123,Online_conjL1_syn//c.ro.fo9.1554.1110.wav,pu,ni,lu,ki,sil,fo,fa,ro,sil1,ne,sil2,['catch'],[2.2299999999995634],[2.2299999999995634],1.554,no_beat,0.6759999999995634,0.6759999999995634,"[""space""]",ro,3,,,,,,,,,,,,,,,3.0,3.0,catala,0.0,castellano,0.0,ingles,8.0,3.0,3.0,yes,yes,yes,canto,5,flauta travesera,5,guitarra electrica,5,guitarra española,11.0,,, nada ,78.0,yes
124,2023-12-30_16h55.09.293,Unsyncopated_study2,s86,25.0,masculino,right, españa,catalàcastellano,Master degree,no,no,A,1,conjunction_syn,L1,syncopated,s1,r2,124,Online_conjL1_syn//d.ne.ni6.444.1110.wav,ta,zu,ne,be,sil,ni,ze,la,sil1,fa,sil2,['catch'],[0.9460000000017317],[0.9460000000017317],0.444,no_beat,0.5020000000017317,0.5020000000017317,"[""space""]",ne,4,,,,,,,,,,,,,,,3.0,3.0,catala,0.0,castellano,0.0,ingles,8.0,3.0,3.0,yes,yes,yes,canto,5,flauta travesera,5,guitarra electrica,5,guitarra española,11.0,,, nada ,78.0,yes
125,2023-12-30_16h55.09.293,Unsyncopated_study2,s86,25.0,masculino,right, españa,catalàcastellano,Master degree,no,no,A,1,conjunction_syn,L1,syncopated,s1,r1,125,Online_conjL1_syn//d.ne.ni7.444.1110.wav,pu,lu,ne,ki,sil,ni,ri,ze,sil1,zu,sil2,['miss'],,,0.444,no_beat,,,,ne,4,,,,,,,,,,,,,,,3.0,3.0,catala,0.0,castellano,0.0,ingles,8.0,3.0,3.0,yes,yes,yes,canto,5,flauta travesera,5,guitarra electrica,5,guitarra española,11.0,,, nada ,78.0,yes
126,2023-12-30_16h55.09.293,Unsyncopated_study2,s86,25.0,masculino,right, españa,catalàcastellano,Master degree,no,no,A,1,conjunction_syn,L1,syncopated,s2,r1,126,Online_conjL1_syn//d.ne.ni5.none.none.wav,zu,ri,ze,pu,sil,cho,fa,ki,sil1,la,sil2,['-'],,,none,none,,,,ne,4,,,,,,,,,,,,,,,3.0,3.0,catala,0.0,castellano,0.0,ingles,8.0,3.0,3.0,yes,yes,yes,canto,5,flauta travesera,5,guitarra electrica,5,guitarra española,11.0,,, nada ,78.0,yes
127,2023-12-30_16h55.09.293,Unsyncopated_study2,s86,25.0,masculino,right, españa,catalàcastellano,Master degree,no,no,A,1,conjunction_syn,L1,syncopated,s1,r1,127,Online_conjL1_syn//d.ne.ni4.222.1332.wav,pu,ne,cho,ki,sil,ri,ni,ro,sil1,zu,sil2,['catch'],[0.702000000001135],[0.702000000001135],0.222,no_beat,0.4800000000011351,0.4800000000011351,"[""space""]",ne,4,,,,,,,,,,,,,,,3.0,3.0,catala,0.0,castellano,0.0,ingles,8.0,3.0,3.0,yes,yes,yes,canto,5,flauta travesera,5,guitarra electrica,5,guitarra española,11.0,,, nada ,78.0,yes
128,2023-12-30_16h55.09.293,Unsyncopated_study2,s86,25.0,masculino,right, españa,catalàcastellano,Master degree,no,no,A,2,when,L4,unsyncopated,when,when,0,Online_whenL4//b.ja30.none.wav,zi,ci,de,sil,bo,da,lo,sil1,re,bu,sil2,['-'],,,none,none,,,,ja,1,,,,,,,,,,,,,,,3.0,3.0,catala,0.0,castellano,0.0,ingles,8.0,3.0,3.0,yes,yes,yes,canto,5,flauta travesera,5,guitarra electrica,5,guitarra española,11.0,,, nada ,78.0,yes
129,2023-12-30_16h55.09.293,Unsyncopated_study2,s86,25.0,masculino,right, españa,catalàcastellano,Master degree,no,no,A,2,when,L4,unsyncopated,when,when,1,Online_whenL4//b.ja29.none.wav,bu,da,nu,sil,ci,ru,ña,sil1,lo,bo,sil2,['-'],,,none,none,,,,ja,1,,,,,,,,,,,,,,,3.0,3.0,catala,0.0,castellano,0.0,ingles,8.0,3.0,3.0,yes,yes,yes,canto,5,flauta travesera,5,guitarra electrica,5,guitarra española,11.0,,, nada ,78.0,yes
130,2023-12-30_16h55.09.293,Unsyncopated_study2,s86,25.0,masculino,right, españa,catalàcastellano,Master degree,no,no,A,2,when,L4,unsyncopated,when,when,2,Online_whenL4//b.ja31.1332.wav,ci,re,da,sil,lo,pe,ja,sil1,de,ñi,sil2,['catch'],[1.6889999999984866],[1.6889999999984866],1.332,no_beat,0.3569999999984865,0.3569999999984865,"[""space""]",ja,1,,,,,,,,,,,,,,,3.0,3.0,catala,0.0,castellano,0.0,ingles,8.0,3.0,3.0,yes,yes,yes,canto,5,flauta travesera,5,guitarra electrica,5,guitarra española,11.0,,, nada ,78.0,yes
131,2023-12-30_16h55.09.293,Unsyncopated_study2,s86,25.0,masculino,right, españa,catalàcastellano,Master degree,no,no,A,2,when,L4,unsyncopated,when,when,3,Online_whenL4//b.ja28.1776.wav,ru,po,bu,sil,bo,da,lo,sil1,ja,pe,sil2,['miss'],,,1.776,beat,,,,ja,1,,,,,,,,,,,,,,,3.0,3.0,catala,0.0,castellano,0.0,ingles,8.0,3.0,3.0,yes,yes,yes,canto,5,flauta travesera,5,guitarra electrica,5,guitarra española,11.0,,, nada ,78.0,yes
132,2023-12-30_16h55.09.293,Unsyncopated_study2,s86,25.0,masculino,right, españa,catalàcastellano,Master degree,no,no,A,2,when,L4,unsyncopated,when,when,4,Online_whenL4//c.bu29.none.wav,ja,nu,po,sil,da,re,de,sil1,ru,ci,sil2,['false alarm'],[0.4419999999990978],[0.4419999999990978],none,none,,,"[""space""]",bu,3,,,,,,,,,,,,,,,3.0,3.0,catala,0.0,castellano,0.0,ingles,8.0,3.0,3.0,yes,yes,yes,canto,5,flauta travesera,5,guitarra electrica,5,guitarra española,11.0,,, nada ,78.0,yes
133,2023-12-30_16h55.09.293,Unsyncopated_study2,s86,25.0,masculino,right, españa,catalàcastellano,Master degree,no,no,A,2,when,L4,unsyncopated,when,when,5,Online_whenL4//c.bu31.none.wav,ru,bo,ci,sil,lo,po,pe,sil1,zi,ña,sil2,['-'],,,none,none,,,,bu,3,,,,,,,,,,,,,,,3.0,3.0,catala,0.0,castellano,0.0,ingles,8.0,3.0,3.0,yes,yes,yes,canto,5,flauta travesera,5,guitarra electrica,5,guitarra española,11.0,,, nada ,78.0,yes
134,2023-12-30_16h55.09.293,Unsyncopated_study2,s86,25.0,masculino,right, españa,catalàcastellano,Master degree,no,no,A,2,when,L4,unsyncopated,when,when,6,Online_whenL4//c.bu28.1998.wav,ñi,re,ru,sil,ja,zi,ña,sil1,pe,bu,sil2,['catch'],[2.433000000000902],[2.433000000000902],1.998,no_beat,0.4350000000009022,0.4350000000009022,"[""space""]",bu,3,,,,,,,,,,,,,,,3.0,3.0,catala,0.0,castellano,0.0,ingles,8.0,3.0,3.0,yes,yes,yes,canto,5,flauta travesera,5,guitarra electrica,5,guitarra española,11.0,,, nada ,78.0,yes
135,2023-12-30_16h55.09.293,Unsyncopated_study2,s86,25.0,masculino,right, españa,catalàcastellano,Master degree,no,no,A,2,when,L4,unsyncopated,when,when,7,Online_whenL4//c.bu30.none.wav,ña,ru,lo,sil,bo,ci,ñi,sil1,nu,po,sil2,['-'],,,none,none,,,,bu,3,,,,,,,,,,,,,,,3.0,3.0,catala,0.0,castellano,0.0,ingles,8.0,3.0,3.0,yes,yes,yes,canto,5,flauta travesera,5,guitarra electrica,5,guitarra española,11.0,,, nada ,78.0,yes
136,2023-12-30_16h55.09.293,Unsyncopated_study2,s86,25.0,masculino,right, españa,catalàcastellano,Master degree,no,no,A,2,when,L4,unsyncopated,when,when,8,Online_whenL4//c.bu0.888.wav,ci,ñi,ja,sil,bu,da,ru,sil1,po,nu,sil2,['catch'],[1.4769999999989523],[1.4769999999989523],0.888,beat,0.5889999999989523,0.5889999999989523,"[""space""]",bu,3,,,,,,,,,,,,,,,3.0,3.0,catala,0.0,castellano,0.0,ingles,8.0,3.0,3.0,yes,yes,yes,canto,5,flauta travesera,5,guitarra electrica,5,guitarra española,11.0,,, nada ,78.0,yes
137,2023-12-30_16h55.09.293,Unsyncopated_study2,s86,25.0,masculino,right, españa,catalàcastellano,Master degree,no,no,A,2,when,L4,unsyncopated,when,when,9,Online_whenL4//c.bu1.none.wav,lo,pe,po,sil,ci,ja,de,sil1,bo,ru,sil2,['-'],,,none,none,,,,bu,3,,,,,,,,,,,,,,,3.0,3.0,catala,0.0,castellano,0.0,ingles,8.0,3.0,3.0,yes,yes,yes,canto,5,flauta travesera,5,guitarra electrica,5,guitarra española,11.0,,, nada ,78.0,yes
138,2023-12-30_16h55.09.293,Unsyncopated_study2,s86,25.0,masculino,right, españa,catalàcastellano,Master degree,no,no,A,2,when,L4,unsyncopated,when,when,10,Online_whenL4//c.bu2.1110.wav,lo,bo,ci,sil,da,bu,ñi,sil1,ja,de,sil2,['false alarm'],[0.046000000000276486],[0.046000000000276486],1.11,no_beat,,,"[""space""]",bu,3,,,,,,,,,,,,,,,3.0,3.0,catala,0.0,castellano,0.0,ingles,8.0,3.0,3.0,yes,yes,yes,canto,5,flauta travesera,5,guitarra electrica,5,guitarra española,11.0,,, nada ,78.0,yes
139,2023-12-30_16h55.09.293,Unsyncopated_study2,s86,25.0,masculino,right, españa,catalàcastellano,Master degree,no,no,A,2,when,L4,unsyncopated,when,when,11,Online_whenL4//c.bu3.none.wav,ja,de,pe,sil,ña,ñi,bo,sil1,nu,po,sil2,['false alarm'],[2.452000000001135],[2.452000000001135],none,none,,,"[""space""]",bu,3,,,,,,,,,,,,,,,3.0,3.0,catala,0.0,castellano,0.0,ingles,8.0,3.0,3.0,yes,yes,yes,canto,5,flauta travesera,5,guitarra electrica,5,guitarra española,11.0,,, nada ,78.0,yes
140,2023-12-30_16h55.09.293,Unsyncopated_study2,s86,25.0,masculino,right, españa,catalàcastellano,Master degree,no,no,A,2,when,L4,unsyncopated,when,when,12,Online_whenL4//d.pe1.222.wav,bo,pe,bu,sil,ja,ña,ru,sil1,ñi,nu,sil2,['miss'],,,0.222,no_beat,,,,pe,4,,,,,,,,,,,,,,,3.0,3.0,catala,0.0,castellano,0.0,ingles,8.0,3.0,3.0,yes,yes,yes,canto,5,flauta travesera,5,guitarra electrica,5,guitarra española,11.0,,, nada ,78.0,yes
141,2023-12-30_16h55.09.293,Unsyncopated_study2,s86,25.0,masculino,right, españa,catalàcastellano,Master degree,no,no,A,2,when,L4,unsyncopated,when,when,13,Online_whenL4//d.pe3.888.wav,nu,bo,de,sil,pe,bu,po,sil1,da,zi,sil2,['catch'],[1.3659999999999854],[1.3659999999999854],0.888,beat,0.4779999999999854,0.4779999999999854,"[""space""]",pe,4,,,,,,,,,,,,,,,3.0,3.0,catala,0.0,castellano,0.0,ingles,8.0,3.0,3.0,yes,yes,yes,canto,5,flauta travesera,5,guitarra electrica,5,guitarra española,11.0,,, nada ,78.0,yes
142,2023-12-30_16h55.09.293,Unsyncopated_study2,s86,25.0,masculino,right, españa,catalàcastellano,Master degree,no,no,A,2,when,L4,unsyncopated,when,when,14,Online_whenL4//d.pe0.none.wav,ja,zi,ñi,sil,ru,ci,ña,sil1,da,bu,sil2,['-'],,,none,none,,,,pe,4,,,,,,,,,,,,,,,3.0,3.0,catala,0.0,castellano,0.0,ingles,8.0,3.0,3.0,yes,yes,yes,canto,5,flauta travesera,5,guitarra electrica,5,guitarra española,11.0,,, nada ,78.0,yes
143,2023-12-30_16h55.09.293,Unsyncopated_study2,s86,25.0,masculino,right, españa,catalàcastellano,Master degree,no,no,A,2,when,L4,unsyncopated,when,when,15,Online_whenL4//d.pe2.none.wav,ñi,ña,ru,sil,nu,da,po,sil1,de,ja,sil2,['-'],,,none,none,,,,pe,4,,,,,,,,,,,,,,,3.0,3.0,catala,0.0,castellano,0.0,ingles,8.0,3.0,3.0,yes,yes,yes,canto,5,flauta travesera,5,guitarra electrica,5,guitarra española,11.0,,, nada ,78.0,yes
144,2023-12-30_16h55.09.293,Unsyncopated_study2,s86,25.0,masculino,right, españa,catalàcastellano,Master degree,no,no,A,2,when,L4,unsyncopated,when,when,16,Online_whenL4//a.lo31.none.wav,re,de,zi,sil,ru,pe,da,sil1,ci,nu,sil2,['-'],,,none,none,,,,lo,2,,,,,,,,,,,,,,,3.0,3.0,catala,0.0,castellano,0.0,ingles,8.0,3.0,3.0,yes,yes,yes,canto,5,flauta travesera,5,guitarra electrica,5,guitarra española,11.0,,, nada ,78.0,yes
145,2023-12-30_16h55.09.293,Unsyncopated_study2,s86,25.0,masculino,right, españa,catalàcastellano,Master degree,no,no,A,2,when,L4,unsyncopated,when,when,17,Online_whenL4//a.lo30.none.wav,de,re,ru,sil,pe,ñi,zi,sil1,bo,nu,sil2,['-'],,,none,none,,,,lo,2,,,,,,,,,,,,,,,3.0,3.0,catala,0.0,castellano,0.0,ingles,8.0,3.0,3.0,yes,yes,yes,canto,5,flauta travesera,5,guitarra electrica,5,guitarra española,11.0,,, nada ,78.0,yes
146,2023-12-30_16h55.09.293,Unsyncopated_study2,s86,25.0,masculino,right, españa,catalàcastellano,Master degree,no,no,A,2,when,L4,unsyncopated,when,when,18,Online_whenL4//a.lo28.1110.wav,ña,nu,da,sil,ci,lo,po,sil1,re,pe,sil2,['miss'],,,1.11,no_beat,,,,lo,2,,,,,,,,,,,,,,,3.0,3.0,catala,0.0,castellano,0.0,ingles,8.0,3.0,3.0,yes,yes,yes,canto,5,flauta travesera,5,guitarra electrica,5,guitarra española,11.0,,, nada ,78.0,yes
147,2023-12-30_16h55.09.293,Unsyncopated_study2,s86,25.0,masculino,right, españa,catalàcastellano,Master degree,no,no,A,2,when,L4,unsyncopated,when,when,19,Online_whenL4//a.lo29.none.wav,pe,ña,ru,sil,de,zi,ñi,sil1,nu,re,sil2,['-'],,,none,none,,,,lo,2,,,,,,,,,,,,,,,3.0,3.0,catala,0.0,castellano,0.0,ingles,8.0,3.0,3.0,yes,yes,yes,canto,5,flauta travesera,5,guitarra electrica,5,guitarra española,11.0,,, nada ,78.0,yes
148,2023-12-30_16h55.09.293,Unsyncopated_study2,s86,25.0,masculino,right, españa,catalàcastellano,Master degree,no,no,A,2,when,L4,unsyncopated,when,when,20,Online_whenL4//a.lo14.none.wav,bu,ru,nu,sil,zi,bo,pe,sil1,da,ñi,sil2,['-'],,,none,none,,,,lo,2,,,,,,,,,,,,,,,3.0,3.0,catala,0.0,castellano,0.0,ingles,8.0,3.0,3.0,yes,yes,yes,canto,5,flauta travesera,5,guitarra electrica,5,guitarra española,11.0,,, nada ,78.0,yes
149,2023-12-30_16h55.09.293,Unsyncopated_study2,s86,25.0,masculino,right, españa,catalàcastellano,Master degree,no,no,A,2,when,L4,unsyncopated,when,when,21,Online_whenL4//a.lo13.1776.wav,re,ña,ru,sil,ci,ja,ñi,sil1,lo,pe,sil2,['catch'],[2.2409999999999854],[2.2409999999999854],1.776,beat,0.4649999999999854,0.4649999999999854,"[""space""]",lo,2,,,,,,,,,,,,,,,3.0,3.0,catala,0.0,castellano,0.0,ingles,8.0,3.0,3.0,yes,yes,yes,canto,5,flauta travesera,5,guitarra electrica,5,guitarra española,11.0,,, nada ,78.0,yes
150,2023-12-30_16h55.09.293,Unsyncopated_study2,s86,25.0,masculino,right, españa,catalàcastellano,Master degree,no,no,A,2,when,L4,unsyncopated,when,when,22,Online_whenL4//a.lo15.1776.wav,de,pe,da,sil,ñi,po,re,sil1,lo,ja,sil2,['catch'],[2.3589999999985594],[2.3589999999985594],1.776,beat,0.5829999999985593,0.5829999999985593,"[""space""]",lo,2,,,,,,,,,,,,,,,3.0,3.0,catala,0.0,castellano,0.0,ingles,8.0,3.0,3.0,yes,yes,yes,canto,5,flauta travesera,5,guitarra electrica,5,guitarra española,11.0,,, nada ,78.0,yes
151,2023-12-30_16h55.09.293,Unsyncopated_study2,s86,25.0,masculino,right, españa,catalàcastellano,Master degree,no,no,A,2,when,L4,unsyncopated,when,when,23,Online_whenL4//a.lo12.none.wav,nu,bu,zi,sil,ñi,bo,ci,sil1,ru,ña,sil2,['-'],,,none,none,,,,lo,2,,,,,,,,,,,,,,,3.0,3.0,catala,0.0,castellano,0.0,ingles,8.0,3.0,3.0,yes,yes,yes,canto,5,flauta travesera,5,guitarra electrica,5,guitarra española,11.0,,, nada ,78.0,yes
152,2023-12-30_16h55.09.293,Unsyncopated_study2,s86,25.0,masculino,right, españa,catalàcastellano,Master degree,no,no,A,2,when,L4,unsyncopated,when,when,24,Online_whenL4//a.lo10.none.wav,pe,da,re,sil,de,ja,zi,sil1,bu,po,sil2,['-'],,,none,none,,,,lo,2,,,,,,,,,,,,,,,3.0,3.0,catala,0.0,castellano,0.0,ingles,8.0,3.0,3.0,yes,yes,yes,canto,5,flauta travesera,5,guitarra electrica,5,guitarra española,11.0,,, nada ,78.0,yes
153,2023-12-30_16h55.09.293,Unsyncopated_study2,s86,25.0,masculino,right, españa,catalàcastellano,Master degree,no,no,A,2,when,L4,unsyncopated,when,when,25,Online_whenL4//a.lo8.0.wav,lo,ñi,nu,sil,de,bo,pe,sil1,da,bu,sil2,['catch'],[0.8389999999999418],[0.8389999999999418],0.0,beat,0.8389999999999418,0.8389999999999418,"[""space""]",lo,2,,,,,,,,,,,,,,,3.0,3.0,catala,0.0,castellano,0.0,ingles,8.0,3.0,3.0,yes,yes,yes,canto,5,flauta travesera,5,guitarra electrica,5,guitarra española,11.0,,, nada ,78.0,yes
154,2023-12-30_16h55.09.293,Unsyncopated_study2,s86,25.0,masculino,right, españa,catalàcastellano,Master degree,no,no,A,2,when,L4,unsyncopated,when,when,26,Online_whenL4//a.lo11.0.wav,lo,ci,pe,sil,ñi,de,zi,sil1,ru,da,sil2,['catch'],[0.8789999999989959],[0.8789999999989959],0.0,beat,0.8789999999989959,0.8789999999989959,"[""space""]",lo,2,,,,,,,,,,,,,,,3.0,3.0,catala,0.0,castellano,0.0,ingles,8.0,3.0,3.0,yes,yes,yes,canto,5,flauta travesera,5,guitarra electrica,5,guitarra española,11.0,,, nada ,78.0,yes
155,2023-12-30_16h55.09.293,Unsyncopated_study2,s86,25.0,masculino,right, españa,catalàcastellano,Master degree,no,no,A,2,when,L4,unsyncopated,when,when,27,Online_whenL4//a.lo9.none.wav,bo,ci,po,sil,de,zi,ñi,sil1,ja,ña,sil2,['-'],,,none,none,,,,lo,2,,,,,,,,,,,,,,,3.0,3.0,catala,0.0,castellano,0.0,ingles,8.0,3.0,3.0,yes,yes,yes,canto,5,flauta travesera,5,guitarra electrica,5,guitarra española,11.0,,, nada ,78.0,yes
156,2023-12-30_16h55.09.293,Unsyncopated_study2,s86,25.0,masculino,right, españa,catalàcastellano,Master degree,no,no,A,2,when,L4,unsyncopated,when,when,28,Online_whenL4//a.lo1.none.wav,nu,ja,ci,sil,bo,ña,de,sil1,po,re,sil2,['-'],,,none,none,,,,lo,2,,,,,,,,,,,,,,,3.0,3.0,catala,0.0,castellano,0.0,ingles,8.0,3.0,3.0,yes,yes,yes,canto,5,flauta travesera,5,guitarra electrica,5,guitarra española,11.0,,, nada ,78.0,yes
157,2023-12-30_16h55.09.293,Unsyncopated_study2,s86,25.0,masculino,right, españa,catalàcastellano,Master degree,no,no,A,2,when,L4,unsyncopated,when,when,29,Online_whenL4//a.lo3.none.wav,ci,nu,ja,sil,re,ña,ru,sil1,po,bo,sil2,['-'],,,none,none,,,,lo,2,,,,,,,,,,,,,,,3.0,3.0,catala,0.0,castellano,0.0,ingles,8.0,3.0,3.0,yes,yes,yes,canto,5,flauta travesera,5,guitarra electrica,5,guitarra española,11.0,,, nada ,78.0,yes
158,2023-12-30_16h55.09.293,Unsyncopated_study2,s86,25.0,masculino,right, españa,catalàcastellano,Master degree,no,no,A,2,when,L4,unsyncopated,when,when,30,Online_whenL4//a.lo0.none.wav,ru,pe,ci,sil,zi,ja,da,sil1,ñi,ña,sil2,['-'],,,none,none,,,,lo,2,,,,,,,,,,,,,,,3.0,3.0,catala,0.0,castellano,0.0,ingles,8.0,3.0,3.0,yes,yes,yes,canto,5,flauta travesera,5,guitarra electrica,5,guitarra española,11.0,,, nada ,78.0,yes
159,2023-12-30_16h55.09.293,Unsyncopated_study2,s86,25.0,masculino,right, españa,catalàcastellano,Master degree,no,no,A,2,when,L4,unsyncopated,when,when,31,Online_whenL4//a.lo2.444.wav,ñi,bu,lo,sil,da,pe,ña,sil1,zi,bo,sil2,['catch'],[1.0489999999990687],[1.0489999999990687],0.444,no_beat,0.6049999999990687,0.6049999999990687,"[""space""]",lo,2,,,,,,,,,,,,,,,3.0,3.0,catala,0.0,castellano,0.0,ingles,8.0,3.0,3.0,yes,yes,yes,canto,5,flauta travesera,5,guitarra electrica,5,guitarra española,11.0,,, nada ,78.0,yes
160,2023-12-30_16h55.09.293,Unsyncopated_study2,s86,25.0,masculino,right, españa,catalàcastellano,Master degree,no,no,A,2,when,L4,unsyncopated,when,when,32,Online_whenL4//d.pe31.1332.wav,bu,re,ru,sil,ja,de,pe,sil1,ci,zi,sil2,['catch'],[1.8890000000010332],[1.8890000000010332],1.332,no_beat,0.5570000000010331,0.5570000000010331,"[""space""]",pe,4,,,,,,,,,,,,,,,3.0,3.0,catala,0.0,castellano,0.0,ingles,8.0,3.0,3.0,yes,yes,yes,canto,5,flauta travesera,5,guitarra electrica,5,guitarra española,11.0,,, nada ,78.0,yes
161,2023-12-30_16h55.09.293,Unsyncopated_study2,s86,25.0,masculino,right, españa,catalàcastellano,Master degree,no,no,A,2,when,L4,unsyncopated,when,when,33,Online_whenL4//d.pe29.none.wav,da,po,ja,sil,bu,bo,lo,sil1,ña,de,sil2,['-'],,,none,none,,,,pe,4,,,,,,,,,,,,,,,3.0,3.0,catala,0.0,castellano,0.0,ingles,8.0,3.0,3.0,yes,yes,yes,canto,5,flauta travesera,5,guitarra electrica,5,guitarra española,11.0,,, nada ,78.0,yes
162,2023-12-30_16h55.09.293,Unsyncopated_study2,s86,25.0,masculino,right, españa,catalàcastellano,Master degree,no,no,A,2,when,L4,unsyncopated,when,when,34,Online_whenL4//d.pe28.none.wav,bo,nu,lo,sil,ru,re,bu,sil1,po,da,sil2,['false alarm'],[2.2630000000008295],[2.2630000000008295],none,none,,,"[""space""]",pe,4,,,,,,,,,,,,,,,3.0,3.0,catala,0.0,castellano,0.0,ingles,8.0,3.0,3.0,yes,yes,yes,canto,5,flauta travesera,5,guitarra electrica,5,guitarra española,11.0,,, nada ,78.0,yes
163,2023-12-30_16h55.09.293,Unsyncopated_study2,s86,25.0,masculino,right, españa,catalàcastellano,Master degree,no,no,A,2,when,L4,unsyncopated,when,when,35,Online_whenL4//d.pe30.none.wav,ru,lo,po,sil,nu,de,da,sil1,ña,ñi,sil2,['-'],,,none,none,,,,pe,4,,,,,,,,,,,,,,,3.0,3.0,catala,0.0,castellano,0.0,ingles,8.0,3.0,3.0,yes,yes,yes,canto,5,flauta travesera,5,guitarra electrica,5,guitarra española,11.0,,, nada ,78.0,yes
164,2023-12-30_16h55.09.293,Unsyncopated_study2,s86,25.0,masculino,right, españa,catalàcastellano,Master degree,no,no,A,2,when,L4,unsyncopated,when,when,36,Online_whenL4//c.bu27.0.wav,bu,de,zi,sil,ja,da,ru,sil1,bo,po,sil2,['miss'],,,0.0,beat,,,,bu,3,,,,,,,,,,,,,,,3.0,3.0,catala,0.0,castellano,0.0,ingles,8.0,3.0,3.0,yes,yes,yes,canto,5,flauta travesera,5,guitarra electrica,5,guitarra española,11.0,,, nada ,78.0,yes
165,2023-12-30_16h55.09.293,Unsyncopated_study2,s86,25.0,masculino,right, españa,catalàcastellano,Master degree,no,no,A,2,when,L4,unsyncopated,when,when,37,Online_whenL4//c.bu25.222.wav,ña,bu,de,sil,da,po,lo,sil1,ja,pe,sil2,['catch'],[0.8899999999994179],[0.8899999999994179],0.222,no_beat,0.667999999999418,0.667999999999418,"[""space""]",bu,3,,,,,,,,,,,,,,,3.0,3.0,catala,0.0,castellano,0.0,ingles,8.0,3.0,3.0,yes,yes,yes,canto,5,flauta travesera,5,guitarra electrica,5,guitarra española,11.0,,, nada ,78.0,yes
166,2023-12-30_16h55.09.293,Unsyncopated_study2,s86,25.0,masculino,right, españa,catalàcastellano,Master degree,no,no,A,2,when,L4,unsyncopated,when,when,38,Online_whenL4//c.bu26.none.wav,po,da,ña,sil,zi,ru,lo,sil1,ci,re,sil2,['-'],,,none,none,,,,bu,3,,,,,,,,,,,,,,,3.0,3.0,catala,0.0,castellano,0.0,ingles,8.0,3.0,3.0,yes,yes,yes,canto,5,flauta travesera,5,guitarra electrica,5,guitarra española,11.0,,, nada ,78.0,yes
167,2023-12-30_16h55.09.293,Unsyncopated_study2,s86,25.0,masculino,right, españa,catalàcastellano,Master degree,no,no,A,2,when,L4,unsyncopated,when,when,39,Online_whenL4//c.bu24.1998.wav,lo,po,ci,sil,nu,re,ñi,sil1,pe,bu,sil2,['catch'],[2.5319999999992433],[2.5319999999992433],1.998,no_beat,0.5339999999992433,0.5339999999992433,"[""space""]",bu,3,,,,,,,,,,,,,,,3.0,3.0,catala,0.0,castellano,0.0,ingles,8.0,3.0,3.0,yes,yes,yes,canto,5,flauta travesera,5,guitarra electrica,5,guitarra española,11.0,,, nada ,78.0,yes
168,2023-12-30_16h55.09.293,Unsyncopated_study2,s86,25.0,masculino,right, españa,catalàcastellano,Master degree,no,no,A,2,when,L4,unsyncopated,when,when,40,Online_whenL4//a.lo24.1776.wav,de,ja,ci,sil,re,ña,po,sil1,lo,bu,sil2,['miss'],,,1.776,beat,,,,lo,2,,,,,,,,,,,,,,,3.0,3.0,catala,0.0,castellano,0.0,ingles,8.0,3.0,3.0,yes,yes,yes,canto,5,flauta travesera,5,guitarra electrica,5,guitarra española,11.0,,, nada ,78.0,yes
169,2023-12-30_16h55.09.293,Unsyncopated_study2,s86,25.0,masculino,right, españa,catalàcastellano,Master degree,no,no,A,2,when,L4,unsyncopated,when,when,41,Online_whenL4//a.lo27.none.wav,ci,nu,ñi,sil,da,ru,ja,sil1,po,bu,sil2,['-'],,,none,none,,,,lo,2,,,,,,,,,,,,,,,3.0,3.0,catala,0.0,castellano,0.0,ingles,8.0,3.0,3.0,yes,yes,yes,canto,5,flauta travesera,5,guitarra electrica,5,guitarra española,11.0,,, nada ,78.0,yes
170,2023-12-30_16h55.09.293,Unsyncopated_study2,s86,25.0,masculino,right, españa,catalàcastellano,Master degree,no,no,A,2,when,L4,unsyncopated,when,when,42,Online_whenL4//a.lo26.1998.wav,po,ja,bu,sil,ci,pe,ru,sil1,ñi,lo,sil2,['miss'],,,1.998,no_beat,,,,lo,2,,,,,,,,,,,,,,,3.0,3.0,catala,0.0,castellano,0.0,ingles,8.0,3.0,3.0,yes,yes,yes,canto,5,flauta travesera,5,guitarra electrica,5,guitarra española,11.0,,, nada ,78.0,yes
171,2023-12-30_16h55.09.293,Unsyncopated_study2,s86,25.0,masculino,right, españa,catalàcastellano,Master degree,no,no,A,2,when,L4,unsyncopated,when,when,43,Online_whenL4//a.lo25.none.wav,ñi,ja,ru,sil,bo,ci,ña,sil1,de,zi,sil2,['-'],,,none,none,,,,lo,2,,,,,,,,,,,,,,,3.0,3.0,catala,0.0,castellano,0.0,ingles,8.0,3.0,3.0,yes,yes,yes,canto,5,flauta travesera,5,guitarra electrica,5,guitarra española,11.0,,, nada ,78.0,yes
172,2023-12-30_16h55.09.293,Unsyncopated_study2,s86,25.0,masculino,right, españa,catalàcastellano,Master degree,no,no,A,2,when,L4,unsyncopated,when,when,44,Online_whenL4//b.ja4.none.wav,ñi,nu,ru,sil,po,de,da,sil1,re,lo,sil2,['-'],,,none,none,,,,ja,1,,,,,,,,,,,,,,,3.0,3.0,catala,0.0,castellano,0.0,ingles,8.0,3.0,3.0,yes,yes,yes,canto,5,flauta travesera,5,guitarra electrica,5,guitarra española,11.0,,, nada ,78.0,yes
173,2023-12-30_16h55.09.293,Unsyncopated_study2,s86,25.0,masculino,right, españa,catalàcastellano,Master degree,no,no,A,2,when,L4,unsyncopated,when,when,45,Online_whenL4//b.ja6.1332.wav,pe,ña,de,sil,bo,ci,ja,sil1,lo,po,sil2,['catch'],[2.2620000000006257],[2.2620000000006257],1.332,no_beat,0.9300000000006255,0.9300000000006255,"[""space""]",ja,1,,,,,,,,,,,,,,,3.0,3.0,catala,0.0,castellano,0.0,ingles,8.0,3.0,3.0,yes,yes,yes,canto,5,flauta travesera,5,guitarra electrica,5,guitarra española,11.0,,, nada ,78.0,yes
174,2023-12-30_16h55.09.293,Unsyncopated_study2,s86,25.0,masculino,right, españa,catalàcastellano,Master degree,no,no,A,2,when,L4,unsyncopated,when,when,46,Online_whenL4//b.ja7.none.wav,de,bo,zi,sil,ru,pe,da,sil1,po,nu,sil2,['-'],,,none,none,,,,ja,1,,,,,,,,,,,,,,,3.0,3.0,catala,0.0,castellano,0.0,ingles,8.0,3.0,3.0,yes,yes,yes,canto,5,flauta travesera,5,guitarra electrica,5,guitarra española,11.0,,, nada ,78.0,yes
175,2023-12-30_16h55.09.293,Unsyncopated_study2,s86,25.0,masculino,right, españa,catalàcastellano,Master degree,no,no,A,2,when,L4,unsyncopated,when,when,47,Online_whenL4//b.ja5.none.wav,re,pe,ña,sil,bu,po,ci,sil1,lo,nu,sil2,['-'],,,none,none,,,,ja,1,,,,,,,,,,,,,,,3.0,3.0,catala,0.0,castellano,0.0,ingles,8.0,3.0,3.0,yes,yes,yes,canto,5,flauta travesera,5,guitarra electrica,5,guitarra española,11.0,,, nada ,78.0,yes
176,2023-12-30_16h55.09.293,Unsyncopated_study2,s86,25.0,masculino,right, españa,catalàcastellano,Master degree,no,no,A,2,when,L4,unsyncopated,when,when,48,Online_whenL4//d.pe8.1998.wav,bo,ru,ña,sil,nu,ñi,ja,sil1,po,pe,sil2,['miss'],,,1.998,no_beat,,,,pe,4,,,,,,,,,,,,,,,3.0,3.0,catala,0.0,castellano,0.0,ingles,8.0,3.0,3.0,yes,yes,yes,canto,5,flauta travesera,5,guitarra electrica,5,guitarra española,11.0,,, nada ,78.0,yes
177,2023-12-30_16h55.09.293,Unsyncopated_study2,s86,25.0,masculino,right, españa,catalàcastellano,Master degree,no,no,A,2,when,L4,unsyncopated,when,when,49,Online_whenL4//d.pe10.888.wav,da,zi,po,sil,pe,lo,ru,sil1,ci,re,sil2,['miss'],,,0.888,beat,,,,pe,4,,,,,,,,,,,,,,,3.0,3.0,catala,0.0,castellano,0.0,ingles,8.0,3.0,3.0,yes,yes,yes,canto,5,flauta travesera,5,guitarra electrica,5,guitarra española,11.0,,, nada ,78.0,yes
178,2023-12-30_16h55.09.293,Unsyncopated_study2,s86,25.0,masculino,right, españa,catalàcastellano,Master degree,no,no,A,2,when,L4,unsyncopated,when,when,50,Online_whenL4//d.pe9.none.wav,de,bu,da,sil,zi,ña,nu,sil1,ci,re,sil2,['false alarm'],[0.030999999999039574],[0.030999999999039574],none,none,,,"[""space""]",pe,4,,,,,,,,,,,,,,,3.0,3.0,catala,0.0,castellano,0.0,ingles,8.0,3.0,3.0,yes,yes,yes,canto,5,flauta travesera,5,guitarra electrica,5,guitarra española,11.0,,, nada ,78.0,yes
179,2023-12-30_16h55.09.293,Unsyncopated_study2,s86,25.0,masculino,right, españa,catalàcastellano,Master degree,no,no,A,2,when,L4,unsyncopated,when,when,51,Online_whenL4//d.pe11.none.wav,re,da,zi,sil,bu,lo,ña,sil1,ci,po,sil2,['-'],,,none,none,,,,pe,4,,,,,,,,,,,,,,,3.0,3.0,catala,0.0,castellano,0.0,ingles,8.0,3.0,3.0,yes,yes,yes,canto,5,flauta travesera,5,guitarra electrica,5,guitarra española,11.0,,, nada ,78.0,yes
180,2023-12-30_16h55.09.293,Unsyncopated_study2,s86,25.0,masculino,right, españa,catalàcastellano,Master degree,no,no,A,2,when,L4,unsyncopated,when,when,52,Online_whenL4//d.pe19.none.wav,nu,ci,ñi,sil,de,po,ru,sil1,ña,zi,sil2,['false alarm'],[1.4580000000005384],[1.4580000000005384],none,none,,,"[""space""]",pe,4,,,,,,,,,,,,,,,3.0,3.0,catala,0.0,castellano,0.0,ingles,8.0,3.0,3.0,yes,yes,yes,canto,5,flauta travesera,5,guitarra electrica,5,guitarra española,11.0,,, nada ,78.0,yes
181,2023-12-30_16h55.09.293,Unsyncopated_study2,s86,25.0,masculino,right, españa,catalàcastellano,Master degree,no,no,A,2,when,L4,unsyncopated,when,when,53,Online_whenL4//d.pe16.888.wav,lo,bu,zi,sil,pe,ñi,da,sil1,ci,ña,sil2,['miss'],,,0.888,beat,,,,pe,4,,,,,,,,,,,,,,,3.0,3.0,catala,0.0,castellano,0.0,ingles,8.0,3.0,3.0,yes,yes,yes,canto,5,flauta travesera,5,guitarra electrica,5,guitarra española,11.0,,, nada ,78.0,yes
182,2023-12-30_16h55.09.293,Unsyncopated_study2,s86,25.0,masculino,right, españa,catalàcastellano,Master degree,no,no,A,2,when,L4,unsyncopated,when,when,54,Online_whenL4//d.pe18.none.wav,zi,re,po,sil,bo,ja,ci,sil1,ru,da,sil2,['-'],,,none,none,,,,pe,4,,,,,,,,,,,,,,,3.0,3.0,catala,0.0,castellano,0.0,ingles,8.0,3.0,3.0,yes,yes,yes,canto,5,flauta travesera,5,guitarra electrica,5,guitarra española,11.0,,, nada ,78.0,yes
183,2023-12-30_16h55.09.293,Unsyncopated_study2,s86,25.0,masculino,right, españa,catalàcastellano,Master degree,no,no,A,2,when,L4,unsyncopated,when,when,55,Online_whenL4//d.pe17.444.wav,ci,ru,pe,sil,ña,bu,zi,sil1,ñi,nu,sil2,['catch'],[0.8350000000009459],[0.8350000000009459],0.444,no_beat,0.3910000000009458,0.3910000000009458,"[""space""]",pe,4,,,,,,,,,,,,,,,3.0,3.0,catala,0.0,castellano,0.0,ingles,8.0,3.0,3.0,yes,yes,yes,canto,5,flauta travesera,5,guitarra electrica,5,guitarra española,11.0,,, nada ,78.0,yes
184,2023-12-30_16h55.09.293,Unsyncopated_study2,s86,25.0,masculino,right, españa,catalàcastellano,Master degree,no,no,A,2,when,L4,unsyncopated,when,when,56,Online_whenL4//c.bu21.1332.wav,zi,pe,ci,sil,ña,nu,bu,sil1,bo,ru,sil2,['false alarm'],[0.728000000000975],[0.728000000000975],1.332,no_beat,,,"[""space""]",bu,3,,,,,,,,,,,,,,,3.0,3.0,catala,0.0,castellano,0.0,ingles,8.0,3.0,3.0,yes,yes,yes,canto,5,flauta travesera,5,guitarra electrica,5,guitarra española,11.0,,, nada ,78.0,yes
185,2023-12-30_16h55.09.293,Unsyncopated_study2,s86,25.0,masculino,right, españa,catalàcastellano,Master degree,no,no,A,2,when,L4,unsyncopated,when,when,57,Online_whenL4//c.bu20.1332.wav,lo,re,ru,sil,ña,de,bu,sil1,zi,ci,sil2,['miss'],,,1.332,no_beat,,,,bu,3,,,,,,,,,,,,,,,3.0,3.0,catala,0.0,castellano,0.0,ingles,8.0,3.0,3.0,yes,yes,yes,canto,5,flauta travesera,5,guitarra electrica,5,guitarra española,11.0,,, nada ,78.0,yes
186,2023-12-30_16h55.09.293,Unsyncopated_study2,s86,25.0,masculino,right, españa,catalàcastellano,Master degree,no,no,A,2,when,L4,unsyncopated,when,when,58,Online_whenL4//c.bu23.none.wav,ña,nu,pe,sil,ru,ja,bo,sil1,re,ñi,sil2,['false alarm'],[0.8899999999994179],[0.8899999999994179],none,none,,,"[""space""]",bu,3,,,,,,,,,,,,,,,3.0,3.0,catala,0.0,castellano,0.0,ingles,8.0,3.0,3.0,yes,yes,yes,canto,5,flauta travesera,5,guitarra electrica,5,guitarra española,11.0,,, nada ,78.0,yes
187,2023-12-30_16h55.09.293,Unsyncopated_study2,s86,25.0,masculino,right, españa,catalàcastellano,Master degree,no,no,A,2,when,L4,unsyncopated,when,when,59,Online_whenL4//c.bu22.none.wav,nu,ci,ña,sil,re,ñi,ru,sil1,zi,pe,sil2,['-'],,,none,none,,,,bu,3,,,,,,,,,,,,,,,3.0,3.0,catala,0.0,castellano,0.0,ingles,8.0,3.0,3.0,yes,yes,yes,canto,5,flauta travesera,5,guitarra electrica,5,guitarra española,11.0,,, nada ,78.0,yes
188,2023-12-30_16h55.09.293,Unsyncopated_study2,s86,25.0,masculino,right, españa,catalàcastellano,Master degree,no,no,A,2,when,L4,unsyncopated,when,when,60,Online_whenL4//d.pe13.none.wav,da,ja,nu,sil,ru,ci,ñi,sil1,bu,po,sil2,['-'],,,none,none,,,,pe,4,,,,,,,,,,,,,,,3.0,3.0,catala,0.0,castellano,0.0,ingles,8.0,3.0,3.0,yes,yes,yes,canto,5,flauta travesera,5,guitarra electrica,5,guitarra española,11.0,,, nada ,78.0,yes
189,2023-12-30_16h55.09.293,Unsyncopated_study2,s86,25.0,masculino,right, españa,catalàcastellano,Master degree,no,no,A,2,when,L4,unsyncopated,when,when,61,Online_whenL4//d.pe14.none.wav,po,ña,bu,sil,de,ru,nu,sil1,ci,zi,sil2,['-'],,,none,none,,,,pe,4,,,,,,,,,,,,,,,3.0,3.0,catala,0.0,castellano,0.0,ingles,8.0,3.0,3.0,yes,yes,yes,canto,5,flauta travesera,5,guitarra electrica,5,guitarra española,11.0,,, nada ,78.0,yes
190,2023-12-30_16h55.09.293,Unsyncopated_study2,s86,25.0,masculino,right, españa,catalàcastellano,Master degree,no,no,A,2,when,L4,unsyncopated,when,when,62,Online_whenL4//d.pe12.none.wav,ru,zi,ñi,sil,bu,de,ña,sil1,lo,re,sil2,['-'],,,none,none,,,,pe,4,,,,,,,,,,,,,,,3.0,3.0,catala,0.0,castellano,0.0,ingles,8.0,3.0,3.0,yes,yes,yes,canto,5,flauta travesera,5,guitarra electrica,5,guitarra española,11.0,,, nada ,78.0,yes
