Unnamed: 0,date,expName,participant,age,sex,hand,residence,native_lang,education_level,lang_deficit,aud_deficit,group,block,condition,language,rhythm,rule structure online,rule type online,order_trial_on,trial_online,s1,s2,s3,s4,s5,s6,s7,s8,s9,s10,s11,catch_syll_resp,rts_syll_catch,clean_rts,time_syll,beat_no_beat,catch_rtsTR,catch_rts,syllable_catch.keys,cond_syll,syll_to_catch,test_offline,block_off,condition_off,rhythm_off,rule,rule_str_off,rule_norule,conds_offline,language_off,Partz_no_partm.keys,Partz_no_partm.rt,security_1_7.keys,accuracy,security_1_7.rt,n_lang,n_lang_used,lang_1,age_l1,lang_2,age_l2,lang_3,age_l3,lang_4,age_l4,ability_learn_l2,tendence_mix_lan,music_experience,muisc_use,partiture,instr_1,age_M1,preguntas_musica1,BMRQ_answer.response,final comment,BMRQ_Score,bilingual
0,2024-03-20_08h36.53.506,Unsyncopated_study3,s125,18.0,feminino,right,España,Catalan y Español,Upper secondary,no,no,A,1,what,L4,unsyncopated,s2,r1,0,Online_whatL4//b.ja.nu13.none.none.wav,da,po,bu,sil,zi,ña,ru,sil2,lo,de,sil1,['-'],,,none,none,,,,ja,1,testWhatL4Uns//r2.s1.1.wav,1.0,what,unsyncopated,b,s1,rule,rule,L4,z,1.449,4.0,1.0,3.718,3.0,2.0,Español,0.0,Catalan,0.0,Ingles,5.0,Gallego,8.0,1.0,6.0,yes,no,yes,Flauta,7,1. Cuando comparto música con alguien siento una complicidad especial con aquella persona.,4.0,nada ,69.0,yes
1,2024-03-20_08h36.53.506,Unsyncopated_study3,s125,18.0,feminino,right,España,Catalan y Español,Upper secondary,no,no,A,1,what,L4,unsyncopated,s1,r1,1,Online_whatL4//b.ja.nu14.none.none.wav,zi,bo,re,sil2,lo,ña,po,sil,ru,ñi,sil1,['-'],,,none,none,,,,ja,1,testWhatL4Uns//dep_viol.r1.s1.0.wav,1.0,what,unsyncopated,a,s1,no_rule,dep,L4,m,1.126,3.0,1.0,1.62,3.0,2.0,Español,0.0,Catalan,0.0,Ingles,5.0,Gallego,8.0,1.0,6.0,yes,no,yes,Flauta,7,2. En mi tiempo libre apenas escucho música.,5.0,nada ,69.0,yes
2,2024-03-20_08h36.53.506,Unsyncopated_study3,s125,18.0,feminino,right,España,Catalan y Español,Upper secondary,no,no,A,1,what,L4,unsyncopated,s1,r1,2,Online_whatL4//b.ja.nu12.none.none.wav,zi,re,de,sil,lo,bu,pe,sil2,ru,ña,sil1,['-'],,,none,none,,,,ja,1,testWhatL4Uns//dep_viol.r2.s1.0.wav,1.0,what,unsyncopated,b,s1,no_rule,dep,L4,m,0.527,5.0,1.0,2.42,3.0,2.0,Español,0.0,Catalan,0.0,Ingles,5.0,Gallego,8.0,1.0,6.0,yes,no,yes,Flauta,7,3. Algunas canciones me ponen los pelos de punta,4.0,nada ,69.0,yes
3,2024-03-20_08h36.53.506,Unsyncopated_study3,s125,18.0,feminino,right,España,Catalan y Español,Upper secondary,no,no,A,1,what,L4,unsyncopated,s1,r2,3,Online_whatL4//b.ja.nu15.0.1110.wav,ja,bu,bo,sil2,nu,pe,re,sil,ci,po,sil1,"['catch', 'false alarm']","[0.5030000000000427, 1.4840000000000373]",[0.5030000000000427],0.0,beat,0.5030000000000427,0.5030000000000427,"[""space"",""space""]",ja,1,testWhatL4Uns//cat_viol.r2.s1.0.wav,1.0,what,unsyncopated,b,s1,no_rule,cat,L4,m,2.415,7.0,1.0,0.983,3.0,2.0,Español,0.0,Catalan,0.0,Ingles,5.0,Gallego,8.0,1.0,6.0,yes,no,yes,Flauta,7,4. La música me hace compañía cuando estoy solo,4.0,nada ,69.0,yes
4,2024-03-20_08h36.53.506,Unsyncopated_study3,s125,18.0,feminino,right,España,Catalan y Español,Upper secondary,no,no,A,1,what,L4,unsyncopated,s2,r1,4,Online_whatL4//a.zi.lo6.1110.1998.wav,pe,de,ñi,sil2,zi,ru,bu,sil,lo,ci,sil1,['miss'],,,1.998,no_beat,,,,lo,2,testWhatL4Uns//r2.s2.2.wav,1.0,what,unsyncopated,b,s2,rule,rule,L4,z,0.776,5.0,1.0,0.634,3.0,2.0,Español,0.0,Catalan,0.0,Ingles,5.0,Gallego,8.0,1.0,6.0,yes,no,yes,Flauta,7,5. No me apetece bailar ni con la música que más me gusta,5.0,nada ,69.0,yes
5,2024-03-20_08h36.53.506,Unsyncopated_study3,s125,18.0,feminino,right,España,Catalan y Español,Upper secondary,no,no,A,1,what,L4,unsyncopated,s2,r2,5,Online_whatL4//a.zi.lo7.none.none.wav,po,ci,ñi,sil2,ja,bo,de,sil,nu,ña,sil1,"['false alarm', 'false alarm']","[1.0839999999999463, 1.76299999999992]",1.76299999999992,none,none,,,"[""space"",""space""]",lo,2,testWhatL4Uns//time_viol.r1.s2.0.wav,1.0,what,unsyncopated,a,s2,no_rule,time,L4,z,1.213,4.0,0.0,0.704,3.0,2.0,Español,0.0,Catalan,0.0,Ingles,5.0,Gallego,8.0,1.0,6.0,yes,no,yes,Flauta,7,6. La música me hace conectar con la gente,4.0,nada ,69.0,yes
6,2024-03-20_08h36.53.506,Unsyncopated_study3,s125,18.0,feminino,right,España,Catalan y Español,Upper secondary,no,no,A,1,what,L4,unsyncopated,s1,r2,6,Online_whatL4//a.zi.lo5.none.none.wav,ja,ci,bo,sil,nu,da,bu,sil1,ña,ru,sil2,['-'],,,none,none,,,,lo,2,testWhatL4Uns//r2.s1.2.wav,1.0,what,unsyncopated,b,s1,rule,rule,L4,m,0.495,6.0,0.0,0.759,3.0,2.0,Español,0.0,Catalan,0.0,Ingles,5.0,Gallego,8.0,1.0,6.0,yes,no,yes,Flauta,7,7. Me informo sobre la música que me gusta.,2.0,nada ,69.0,yes
7,2024-03-20_08h36.53.506,Unsyncopated_study3,s125,18.0,feminino,right,España,Catalan y Español,Upper secondary,no,no,A,1,what,L4,unsyncopated,s2,r1,7,Online_whatL4//a.zi.lo4.1110.1998.wav,ci,ñi,po,sil2,zi,bo,re,sil,lo,pe,sil1,['false alarm'],[1.183999999999969],[1.183999999999969],1.998,no_beat,,,"[""space""]",lo,2,testWhatL4Uns//r1.s2.1.wav,1.0,what,unsyncopated,a,s2,rule,rule,L4,z,0.509,3.0,1.0,0.332,3.0,2.0,Español,0.0,Catalan,0.0,Ingles,5.0,Gallego,8.0,1.0,6.0,yes,no,yes,Flauta,7,8.Me emociono escuchando ciertas canciones.,3.0,nada ,69.0,yes
8,2024-03-20_08h36.53.506,Unsyncopated_study3,s125,18.0,feminino,right,España,Catalan y Español,Upper secondary,no,no,A,1,what,L4,unsyncopated,s2,r2,8,Online_whatL4//d.pe.po16.none.none.wav,ci,bo,ña,sil2,ja,bu,da,sil,nu,ru,sil1,['false alarm'],[1.9249999999999545],[1.9249999999999545],none,none,,,"[""space""]",pe,4,testWhatL4Uns//time_viol.r1.s1.0.wav,1.0,what,unsyncopated,a,s1,no_rule,time,L4,m,2.544,5.0,1.0,0.606,3.0,2.0,Español,0.0,Catalan,0.0,Ingles,5.0,Gallego,8.0,1.0,6.0,yes,no,yes,Flauta,7,9.La música me tranquiliza y me relaja.,3.0,nada ,69.0,yes
9,2024-03-20_08h36.53.506,Unsyncopated_study3,s125,18.0,feminino,right,España,Catalan y Español,Upper secondary,no,no,A,1,what,L4,unsyncopated,s1,r2,9,Online_whatL4//d.pe.po17.none.none.wav,ja,re,bo,sil,nu,ci,ru,sil1,ñi,da,sil2,['-'],,,none,none,,,,pe,4,testWhatL4Uns//cat_viol.r1.s1.0.wav,1.0,what,unsyncopated,a,s1,no_rule,cat,L4,z,0.44,4.0,0.0,0.369,3.0,2.0,Español,0.0,Catalan,0.0,Ingles,5.0,Gallego,8.0,1.0,6.0,yes,no,yes,Flauta,7,10.La música me hace bailar,3.0,nada ,69.0,yes
10,2024-03-20_08h36.53.506,Unsyncopated_study3,s125,18.0,feminino,right,España,Catalan y Español,Upper secondary,no,no,A,1,what,L4,unsyncopated,s2,r2,10,Online_whatL4//d.pe.po18.0.444.wav,pe,de,po,sil,ja,ña,ñi,sil1,nu,re,sil2,['catch'],[2.3029999999999973],[2.3029999999999973],0.0,beat,,2.3029999999999973,"[""space""]",pe,4,testWhatL4Uns//r2.s2.1.wav,1.0,what,unsyncopated,b,s2,rule,rule,L4,m,0.411,3.0,0.0,0.149,3.0,2.0,Español,0.0,Catalan,0.0,Ingles,5.0,Gallego,8.0,1.0,6.0,yes,no,yes,Flauta,7,11.Busco novedades musicales continuamente,3.0,nada ,69.0,yes
11,2024-03-20_08h36.53.506,Unsyncopated_study3,s125,18.0,feminino,right,España,Catalan y Español,Upper secondary,no,no,A,1,what,L4,unsyncopated,s1,r2,11,Online_whatL4//d.pe.po19.1776.222.wav,ja,po,re,sil,nu,ru,ña,sil1,pe,da,sil2,"['false alarm', 'catch']","[1.0419999999999163, 2.4029999999999063]",[2.4029999999999063],1.776,beat,0.6269999999999063,0.6269999999999063,"[""space"",""space""]",pe,4,testWhatL4Uns//cat_viol.r2.s2.0.wav,1.0,what,unsyncopated,b,s2,no_rule,cat,L4,m,1.724,3.0,1.0,0.119,3.0,2.0,Español,0.0,Catalan,0.0,Ingles,5.0,Gallego,8.0,1.0,6.0,yes,no,yes,Flauta,7,12. Puedo llorar cuando escucho algunas melodías que me gustan mucho.,4.0,nada ,69.0,yes
12,2024-03-20_08h36.53.506,Unsyncopated_study3,s125,18.0,feminino,right,España,Catalan y Español,Upper secondary,no,no,A,1,what,L4,unsyncopated,s2,r2,12,Online_whatL4//a.zi.lo22.none.none.wav,ci,bu,da,sil,ja,re,ñi,sil1,nu,de,sil2,['-'],,,none,none,,,,lo,2,testWhatL4Uns//dep_viol.r2.s2.0.wav,1.0,what,unsyncopated,b,s2,no_rule,dep,L4,z,0.327,4.0,0.0,0.252,3.0,2.0,Español,0.0,Catalan,0.0,Ingles,5.0,Gallego,8.0,1.0,6.0,yes,no,yes,Flauta,7,13. Me gusta cantar o tocar un instrumento con más gente,1.0,nada ,69.0,yes
13,2024-03-20_08h36.53.506,Unsyncopated_study3,s125,18.0,feminino,right,España,Catalan y Español,Upper secondary,no,no,A,1,what,L4,unsyncopated,s1,r1,13,Online_whatL4//a.zi.lo21.0.888.wav,zi,ru,ña,sil,lo,pe,po,sil1,re,bo,sil2,"['catch', 'false alarm']","[1.7530000000000427, 2.1689999999999827]",[1.7530000000000427],0.888,beat,0.8650000000000427,0.8650000000000427,"[""space"",""space""]",lo,2,testWhatL4Uns//r1.s2.0.wav,1.0,what,unsyncopated,a,s2,rule,rule,L4,m,0.142,7.0,0.0,0.2,3.0,2.0,Español,0.0,Catalan,0.0,Ingles,5.0,Gallego,8.0,1.0,6.0,yes,no,yes,Flauta,7,14. La música me ayuda a desconectar.,3.0,nada ,69.0,yes
14,2024-03-20_08h36.53.506,Unsyncopated_study3,s125,18.0,feminino,right,España,Catalan y Español,Upper secondary,no,no,A,1,what,L4,unsyncopated,s2,r2,14,Online_whatL4//a.zi.lo23.none.none.wav,pe,ci,po,sil,ja,bu,de,sil2,nu,ñi,sil1,['false alarm'],[0.2380000000000564],[0.2380000000000564],none,none,,,"[""space""]",lo,2,testWhatL4Uns//r2.s1.0.wav,1.0,what,unsyncopated,b,s1,rule,rule,L4,z,0.546,4.0,1.0,0.334,3.0,2.0,Español,0.0,Catalan,0.0,Ingles,5.0,Gallego,8.0,1.0,6.0,yes,no,yes,Flauta,7,15. No puedo evitar tararear las canciones que me gustan cuando las escucho.,4.0,nada ,69.0,yes
15,2024-03-20_08h36.53.506,Unsyncopated_study3,s125,18.0,feminino,right,España,Catalan y Español,Upper secondary,no,no,A,1,what,L4,unsyncopated,s2,r2,15,Online_whatL4//a.zi.lo20.none.none.wav,re,ña,ci,sil,ja,ñi,pe,sil1,nu,bo,sil2,['-'],,,none,none,,,,lo,2,testWhatL4Uns//cat_viol.r1.s2.0.wav,1.0,what,unsyncopated,a,s2,no_rule,cat,L4,z,0.446,6.0,0.0,0.32,3.0,2.0,Español,0.0,Catalan,0.0,Ingles,5.0,Gallego,8.0,1.0,6.0,yes,no,yes,Flauta,7,16. En los conciertos me siento en sintonía con los artistas y el público.,4.0,nada ,69.0,yes
16,2024-03-20_08h36.53.506,Unsyncopated_study3,s125,18.0,feminino,right,España,Catalan y Español,Upper secondary,no,no,A,1,what,L4,unsyncopated,s2,r2,16,Online_whatL4//a.zi.lo25.none.none.wav,ña,ci,bu,sil2,ja,po,bo,sil,nu,pe,sil1,['-'],,,none,none,,,,lo,2,testWhatL4Uns//r2.s2.0.wav,1.0,what,unsyncopated,b,s2,rule,rule,L4,m,0.246,2.0,0.0,1.394,3.0,2.0,Español,0.0,Catalan,0.0,Ingles,5.0,Gallego,8.0,1.0,6.0,yes,no,yes,Flauta,7,17. Me gasto bastante dinero en música y cosas relacionadas con la música.,3.0,nada ,69.0,yes
17,2024-03-20_08h36.53.506,Unsyncopated_study3,s125,18.0,feminino,right,España,Catalan y Español,Upper secondary,no,no,A,1,what,L4,unsyncopated,s2,r1,17,Online_whatL4//a.zi.lo24.888.1998.wav,ñi,bu,ña,sil,zi,pe,ru,sil2,lo,ci,sil1,['catch'],[2.506999999999948],[2.506999999999948],1.998,no_beat,0.5089999999999482,0.5089999999999482,"[""space""]",lo,2,testWhatL4Uns//time_viol.r2.s1.0.wav,1.0,what,unsyncopated,b,s1,no_rule,time,L4,m,0.494,6.0,1.0,0.05,3.0,2.0,Español,0.0,Catalan,0.0,Ingles,5.0,Gallego,8.0,1.0,6.0,yes,no,yes,Flauta,7,18. Siento escalofríos cuando escucho una melodía que me gusta.,2.0,nada ,69.0,yes
18,2024-03-20_08h36.53.506,Unsyncopated_study3,s125,18.0,feminino,right,España,Catalan y Español,Upper secondary,no,no,A,1,what,L4,unsyncopated,s1,r2,18,Online_whatL4//a.zi.lo27.none.none.wav,ja,da,re,sil,nu,ña,po,sil2,ru,ci,sil1,['-'],,,none,none,,,,lo,2,testWhatL4Uns//r1.s1.2.wav,1.0,what,unsyncopated,a,s1,rule,rule,L4,z,0.895,5.0,1.0,0.082,3.0,2.0,Español,0.0,Catalan,0.0,Ingles,5.0,Gallego,8.0,1.0,6.0,yes,no,yes,Flauta,7,19. Con la música me puedo desahogar.,4.0,nada ,69.0,yes
19,2024-03-20_08h36.53.506,Unsyncopated_study3,s125,18.0,feminino,right,España,Catalan y Español,Upper secondary,no,no,A,1,what,L4,unsyncopated,s1,r2,19,Online_whatL4//a.zi.lo26.none.none.wav,ja,pe,ru,sil2,nu,bu,de,sil,ñi,ña,sil1,['false alarm'],[1.3029999999999973],[1.3029999999999973],none,none,,,"[""space""]",lo,2,testWhatL4Uns//r1.s2.2.wav,1.0,what,unsyncopated,a,s2,rule,rule,L4,m,0.31,3.0,0.0,0.086,3.0,2.0,Español,0.0,Catalan,0.0,Ingles,5.0,Gallego,8.0,1.0,6.0,yes,no,yes,Flauta,7,20. Cuando escucho una melodía que me gusta mucho no puedo evitar mover el cuerpo.,4.0,nada ,69.0,yes
20,2024-03-20_08h36.53.506,Unsyncopated_study3,s125,18.0,feminino,right,España,Catalan y Español,Upper secondary,no,no,A,1,what,L4,unsyncopated,s1,r2,20,Online_whatL4//c.bu.da1.none.none.wav,ja,ña,ñi,sil2,nu,re,de,sil,ru,pe,sil1,['-'],,,none,none,,,,bu,3,testWhatL4Uns//time_viol.r2.s2.0.wav,1.0,what,unsyncopated,b,s2,no_rule,time,L4,m,0.435,5.0,1.0,0.121,3.0,2.0,Español,0.0,Catalan,0.0,Ingles,5.0,Gallego,8.0,1.0,6.0,yes,no,yes,Flauta,7,,,nada ,69.0,yes
21,2024-03-20_08h36.53.506,Unsyncopated_study3,s125,18.0,feminino,right,España,Catalan y Español,Upper secondary,no,no,A,1,what,L4,unsyncopated,s2,r2,21,Online_whatL4//c.bu.da0.444.1332.wav,re,de,bu,sil2,ja,da,bo,sil,nu,pe,sil1,['catch'],[2.022000000000048],[2.022000000000048],0.444,no_beat,,1.5780000000000485,"[""space""]",bu,3,testWhatL4Uns//dep_viol.r1.s2.0.wav,1.0,what,unsyncopated,a,s2,no_rule,dep,L4,m,0.16,7.0,1.0,0.218,3.0,2.0,Español,0.0,Catalan,0.0,Ingles,5.0,Gallego,8.0,1.0,6.0,yes,no,yes,Flauta,7,,,nada ,69.0,yes
22,2024-03-20_08h36.53.506,Unsyncopated_study3,s125,18.0,feminino,right,España,Catalan y Español,Upper secondary,no,no,A,1,what,L4,unsyncopated,s2,r1,22,Online_whatL4//c.bu.da3.none.none.wav,pe,po,bo,sil,zi,re,ña,sil1,lo,ru,sil2,['-'],,,none,none,,,,bu,3,testWhatL4Uns//r1.s1.0.wav,1.0,what,unsyncopated,a,s1,rule,rule,L4,z,0.478,3.0,1.0,0.347,3.0,2.0,Español,0.0,Catalan,0.0,Ingles,5.0,Gallego,8.0,1.0,6.0,yes,no,yes,Flauta,7,,,nada ,69.0,yes
23,2024-03-20_08h36.53.506,Unsyncopated_study3,s125,18.0,feminino,right,España,Catalan y Español,Upper secondary,no,no,A,1,what,L4,unsyncopated,s2,r1,23,Online_whatL4//c.bu.da2.1332.222.wav,de,da,po,sil,zi,ru,bu,sil2,lo,ña,sil1,['miss'],,,1.332,no_beat,,,,bu,3,testWhatL4Uns//r1.s1.1.wav,1.0,what,unsyncopated,a,s1,rule,rule,L4,z,0.24,3.0,1.0,0.219,3.0,2.0,Español,0.0,Catalan,0.0,Ingles,5.0,Gallego,8.0,1.0,6.0,yes,no,yes,Flauta,7,,,nada ,69.0,yes
24,2024-03-20_08h36.53.506,Unsyncopated_study3,s125,18.0,feminino,right,España,Catalan y Español,Upper secondary,no,no,A,1,what,L4,unsyncopated,s1,r2,24,Online_whatL4//a.zi.lo18.none.none.wav,ja,de,da,sil,nu,ña,re,sil2,ci,ru,sil1,['-'],,,none,none,,,,lo,2,testWhenL1Uns//r2.s1.1.wav,2.0,when,unsyncopated,b,s1,rule,rule,L1,z,0.739,4.0,1.0,1.376,3.0,2.0,Español,0.0,Catalan,0.0,Ingles,5.0,Gallego,8.0,1.0,6.0,yes,no,yes,Flauta,7,,,nada ,69.0,yes
25,2024-03-20_08h36.53.506,Unsyncopated_study3,s125,18.0,feminino,right,España,Catalan y Español,Upper secondary,no,no,A,1,what,L4,unsyncopated,s1,r1,25,Online_whatL4//a.zi.lo16.0.888.wav,zi,ñi,bo,sil,lo,da,ña,sil1,ru,bu,sil2,"['false alarm', 'catch']","[0.5629999999999882, 1.4370000000000118]",[1.4370000000000118],0.888,beat,0.5490000000000118,0.5490000000000118,"[""space"",""space""]",lo,2,testWhenL1Uns//r1.s1.0.wav,2.0,when,unsyncopated,a,s1,rule,rule,L1,m,0.83,5.0,0.0,1.033,3.0,2.0,Español,0.0,Catalan,0.0,Ingles,5.0,Gallego,8.0,1.0,6.0,yes,no,yes,Flauta,7,,,nada ,69.0,yes
26,2024-03-20_08h36.53.506,Unsyncopated_study3,s125,18.0,feminino,right,España,Catalan y Español,Upper secondary,no,no,A,1,what,L4,unsyncopated,s2,r1,26,Online_whatL4//a.zi.lo19.888.1776.wav,da,ru,re,sil,zi,ña,po,sil1,lo,ci,sil2,['catch'],[2.06899999999996],[2.06899999999996],1.776,beat,0.2929999999999599,0.2929999999999599,"[""space""]",lo,2,testWhenL1Uns//cat_viol.r1.s2.0.wav,2.0,when,unsyncopated,a,s2,no_rule,cat,L1,z,0.53,4.0,1.0,0.885,3.0,2.0,Español,0.0,Catalan,0.0,Ingles,5.0,Gallego,8.0,1.0,6.0,yes,no,yes,Flauta,7,,,nada ,69.0,yes
27,2024-03-20_08h36.53.506,Unsyncopated_study3,s125,18.0,feminino,right,España,Catalan y Español,Upper secondary,no,no,A,1,what,L4,unsyncopated,s2,r1,27,Online_whatL4//a.zi.lo17.1110.1998.wav,po,pe,ru,sil2,zi,ci,re,sil,lo,ña,sil1,"['false alarm', 'catch']","[0.5059999999999718, 2.461999999999989]",[2.461999999999989],1.998,no_beat,0.4639999999999891,0.4639999999999891,"[""space"",""space""]",lo,2,testWhenL1Uns//r2.s2.0.wav,2.0,when,unsyncopated,b,s2,rule,rule,L1,m,0.27,5.0,0.0,0.394,3.0,2.0,Español,0.0,Catalan,0.0,Ingles,5.0,Gallego,8.0,1.0,6.0,yes,no,yes,Flauta,7,,,nada ,69.0,yes
28,2024-03-20_08h36.53.506,Unsyncopated_study3,s125,18.0,feminino,right,España,Catalan y Español,Upper secondary,no,no,A,1,what,L4,unsyncopated,s2,r1,28,Online_whatL4//c.bu.da24.1332.0.wav,da,bo,ña,sil,zi,po,bu,sil2,lo,re,sil1,['catch'],[2.0960000000000036],[2.0960000000000036],1.332,no_beat,0.7640000000000036,0.7640000000000036,"[""space""]",bu,3,testWhenL1Uns//r2.s1.2.wav,2.0,when,unsyncopated,b,s1,rule,rule,L1,z,0.258,5.0,1.0,0.294,3.0,2.0,Español,0.0,Catalan,0.0,Ingles,5.0,Gallego,8.0,1.0,6.0,yes,no,yes,Flauta,7,,,nada ,69.0,yes
29,2024-03-20_08h36.53.506,Unsyncopated_study3,s125,18.0,feminino,right,España,Catalan y Español,Upper secondary,no,no,A,1,what,L4,unsyncopated,s2,r1,29,Online_whatL4//c.bu.da26.none.none.wav,de,pe,ña,sil,zi,ci,ñi,sil1,lo,re,sil2,['-'],,,none,none,,,,bu,3,testWhenL1Uns//time_viol.r2.s1.0.wav,2.0,when,unsyncopated,b,s1,no_rule,time,L1,z,0.28,4.0,1.0,0.721,3.0,2.0,Español,0.0,Catalan,0.0,Ingles,5.0,Gallego,8.0,1.0,6.0,yes,no,yes,Flauta,7,,,nada ,69.0,yes
30,2024-03-20_08h36.53.506,Unsyncopated_study3,s125,18.0,feminino,right,España,Catalan y Español,Upper secondary,no,no,A,1,what,L4,unsyncopated,s1,r1,30,Online_whatL4//c.bu.da27.1998.222.wav,zi,da,ñi,sil2,lo,ña,pe,sil,bu,ru,sil1,['catch'],[2.45900000000006],[2.45900000000006],1.998,no_beat,0.46100000000006,0.46100000000006,"[""space""]",bu,3,testWhenL1Uns//r1.s2.2.wav,2.0,when,unsyncopated,a,s2,rule,rule,L1,m,0.384,3.0,0.0,0.355,3.0,2.0,Español,0.0,Catalan,0.0,Ingles,5.0,Gallego,8.0,1.0,6.0,yes,no,yes,Flauta,7,,,nada ,69.0,yes
31,2024-03-20_08h36.53.506,Unsyncopated_study3,s125,18.0,feminino,right,España,Catalan y Español,Upper secondary,no,no,A,1,what,L4,unsyncopated,s1,r2,31,Online_whatL4//c.bu.da25.1110.1332.wav,ja,bo,ci,sil,nu,bu,da,sil2,ru,de,sil1,['catch'],[1.6299999999998818],[1.6299999999998818],1.11,no_beat,0.5199999999998817,0.5199999999998817,"[""space""]",bu,3,testWhenL1Uns//cat_viol.r1.s1.0.wav,2.0,when,unsyncopated,a,s1,no_rule,cat,L1,m,1.004,3.0,0.0,0.383,3.0,2.0,Español,0.0,Catalan,0.0,Ingles,5.0,Gallego,8.0,1.0,6.0,yes,no,yes,Flauta,7,,,nada ,69.0,yes
32,2024-03-20_08h36.53.506,Unsyncopated_study3,s125,18.0,feminino,right,España,Catalan y Español,Upper secondary,no,no,A,1,what,L4,unsyncopated,s2,r2,32,Online_whatL4//d.pe.po15.none.none.wav,ña,ci,bo,sil2,ja,bu,ñi,sil,nu,ru,sil1,['-'],,,none,none,,,,pe,4,testWhenL1Uns//r2.s1.0.wav,2.0,when,unsyncopated,b,s1,rule,rule,L1,m,3.2,5.0,0.0,0.985,3.0,2.0,Español,0.0,Catalan,0.0,Ingles,5.0,Gallego,8.0,1.0,6.0,yes,no,yes,Flauta,7,,,nada ,69.0,yes
33,2024-03-20_08h36.53.506,Unsyncopated_study3,s125,18.0,feminino,right,España,Catalan y Español,Upper secondary,no,no,A,1,what,L4,unsyncopated,s1,r2,33,Online_whatL4//d.pe.po12.none.none.wav,ja,ci,da,sil,nu,re,ñi,sil2,ña,bu,sil1,['-'],,,none,none,,,,pe,4,testWhenL1Uns//dep_viol.r2.s1.0.wav,2.0,when,unsyncopated,b,s1,no_rule,dep,L1,m,0.408,5.0,0.0,0.18,3.0,2.0,Español,0.0,Catalan,0.0,Ingles,5.0,Gallego,8.0,1.0,6.0,yes,no,yes,Flauta,7,,,nada ,69.0,yes
34,2024-03-20_08h36.53.506,Unsyncopated_study3,s125,18.0,feminino,right,España,Catalan y Español,Upper secondary,no,no,A,1,what,L4,unsyncopated,s1,r2,34,Online_whatL4//d.pe.po13.none.none.wav,ja,da,bo,sil2,nu,ru,re,sil,ci,bu,sil1,['-'],,,none,none,,,,pe,4,testWhenL1Uns//time_viol.r2.s2.0.wav,2.0,when,unsyncopated,b,s2,no_rule,time,L1,z,0.346,4.0,1.0,0.119,3.0,2.0,Español,0.0,Catalan,0.0,Ingles,5.0,Gallego,8.0,1.0,6.0,yes,no,yes,Flauta,7,,,nada ,69.0,yes
35,2024-03-20_08h36.53.506,Unsyncopated_study3,s125,18.0,feminino,right,España,Catalan y Español,Upper secondary,no,no,A,1,what,L4,unsyncopated,s2,r1,35,Online_whatL4//d.pe.po14.222.444.wav,ñi,pe,po,sil2,zi,ña,da,sil,lo,ci,sil1,['catch'],[0.6960000000000264],[0.6960000000000264],0.222,no_beat,0.4740000000000264,0.4740000000000264,"[""space""]",pe,4,testWhenL1Uns//dep_viol.r1.s1.0.wav,2.0,when,unsyncopated,a,s1,no_rule,dep,L1,z,0.361,4.0,1.0,0.152,3.0,2.0,Español,0.0,Catalan,0.0,Ingles,5.0,Gallego,8.0,1.0,6.0,yes,no,yes,Flauta,7,,,nada ,69.0,yes
36,2024-03-20_08h36.53.506,Unsyncopated_study3,s125,18.0,feminino,right,España,Catalan y Español,Upper secondary,no,no,A,1,what,L4,unsyncopated,s1,r1,36,Online_whatL4//c.bu.da22.none.none.wav,zi,de,ña,sil2,lo,re,ñi,sil,po,ru,sil1,['-'],,,none,none,,,,bu,3,testWhenL1Uns//time_viol.r1.s2.0.wav,2.0,when,unsyncopated,a,s2,no_rule,time,L1,z,0.275,4.0,1.0,0.125,3.0,2.0,Español,0.0,Catalan,0.0,Ingles,5.0,Gallego,8.0,1.0,6.0,yes,no,yes,Flauta,7,,,nada ,69.0,yes
37,2024-03-20_08h36.53.506,Unsyncopated_study3,s125,18.0,feminino,right,España,Catalan y Español,Upper secondary,no,no,A,1,what,L4,unsyncopated,s1,r2,37,Online_whatL4//c.bu.da20.1776.444.wav,ja,ci,da,sil,nu,po,ru,sil1,bu,de,sil2,"['false alarm', 'catch']","[1.6179999999999382, 2.269999999999982]",[2.269999999999982],1.776,beat,0.4939999999999818,0.4939999999999818,"[""space"",""space""]",bu,3,testWhenL1Uns//time_viol.r1.s1.0.wav,2.0,when,unsyncopated,a,s1,no_rule,time,L1,m,0.096,3.0,0.0,0.148,3.0,2.0,Español,0.0,Catalan,0.0,Ingles,5.0,Gallego,8.0,1.0,6.0,yes,no,yes,Flauta,7,,,nada ,69.0,yes
38,2024-03-20_08h36.53.506,Unsyncopated_study3,s125,18.0,feminino,right,España,Catalan y Español,Upper secondary,no,no,A,1,what,L4,unsyncopated,s1,r1,38,Online_whatL4//c.bu.da21.none.none.wav,zi,ci,re,sil2,lo,ñi,de,sil,ña,bo,sil1,['false alarm'],[1.7850000000000819],[1.7850000000000819],none,none,,,"[""space""]",bu,3,testWhenL1Uns//cat_viol.r2.s1.0.wav,2.0,when,unsyncopated,b,s1,no_rule,cat,L1,m,0.042,3.0,0.0,0.122,3.0,2.0,Español,0.0,Catalan,0.0,Ingles,5.0,Gallego,8.0,1.0,6.0,yes,no,yes,Flauta,7,,,nada ,69.0,yes
39,2024-03-20_08h36.53.506,Unsyncopated_study3,s125,18.0,feminino,right,España,Catalan y Español,Upper secondary,no,no,A,1,what,L4,unsyncopated,s1,r1,39,Online_whatL4//c.bu.da23.none.none.wav,zi,pe,ru,sil,lo,re,po,sil2,ci,ña,sil1,['-'],,,none,none,,,,bu,3,testWhenL1Uns//r1.s2.0.wav,2.0,when,unsyncopated,a,s2,rule,rule,L1,z,0.031,4.0,1.0,0.217,3.0,2.0,Español,0.0,Catalan,0.0,Ingles,5.0,Gallego,8.0,1.0,6.0,yes,no,yes,Flauta,7,,,nada ,69.0,yes
40,2024-03-20_08h36.53.506,Unsyncopated_study3,s125,18.0,feminino,right,España,Catalan y Español,Upper secondary,no,no,A,1,what,L4,unsyncopated,s1,r2,40,Online_whatL4//c.bu.da10.none.none.wav,ja,ru,ña,sil,nu,ci,ñi,sil2,pe,re,sil1,['-'],,,none,none,,,,bu,3,testWhenL1Uns//dep_viol.r1.s2.0.wav,2.0,when,unsyncopated,a,s2,no_rule,dep,L1,z,0.276,3.0,1.0,0.07,3.0,2.0,Español,0.0,Catalan,0.0,Ingles,5.0,Gallego,8.0,1.0,6.0,yes,no,yes,Flauta,7,,,nada ,69.0,yes
41,2024-03-20_08h36.53.506,Unsyncopated_study3,s125,18.0,feminino,right,España,Catalan y Español,Upper secondary,no,no,A,1,what,L4,unsyncopated,s2,r2,41,Online_whatL4//c.bu.da9.none.none.wav,pe,po,de,sil,ja,ru,ña,sil2,nu,re,sil1,['-'],,,none,none,,,,bu,3,testWhenL1Uns//r1.s1.1.wav,2.0,when,unsyncopated,a,s1,rule,rule,L1,m,0.111,2.0,0.0,0.152,3.0,2.0,Español,0.0,Catalan,0.0,Ingles,5.0,Gallego,8.0,1.0,6.0,yes,no,yes,Flauta,7,,,nada ,69.0,yes
42,2024-03-20_08h36.53.506,Unsyncopated_study3,s125,18.0,feminino,right,España,Catalan y Español,Upper secondary,no,no,A,1,what,L4,unsyncopated,s2,r1,42,Online_whatL4//c.bu.da8.none.none.wav,ña,ñi,pe,sil,zi,ci,re,sil1,lo,de,sil2,['-'],,,none,none,,,,bu,3,testWhenL1Uns//cat_viol.r2.s2.0.wav,2.0,when,unsyncopated,b,s2,no_rule,cat,L1,m,0.16,5.0,0.0,0.173,3.0,2.0,Español,0.0,Catalan,0.0,Ingles,5.0,Gallego,8.0,1.0,6.0,yes,no,yes,Flauta,7,,,nada ,69.0,yes
43,2024-03-20_08h36.53.506,Unsyncopated_study3,s125,18.0,feminino,right,España,Catalan y Español,Upper secondary,no,no,A,1,what,L4,unsyncopated,s2,r2,43,Online_whatL4//c.bu.da11.none.none.wav,ci,bo,po,sil,ja,ña,pe,sil1,nu,re,sil2,['false alarm'],[1.6039999999999281],[1.6039999999999281],none,none,,,"[""space""]",bu,3,testWhenL1Uns//r2.s2.2.wav,2.0,when,unsyncopated,b,s2,rule,rule,L1,m,0.388,6.0,0.0,0.491,3.0,2.0,Español,0.0,Catalan,0.0,Ingles,5.0,Gallego,8.0,1.0,6.0,yes,no,yes,Flauta,7,,,nada ,69.0,yes
44,2024-03-20_08h36.53.506,Unsyncopated_study3,s125,18.0,feminino,right,España,Catalan y Español,Upper secondary,no,no,A,1,what,L4,unsyncopated,s2,r1,44,Online_whatL4//d.pe.po1.none.none.wav,ña,ru,de,sil,zi,da,bo,sil1,lo,ñi,sil2,['-'],,,none,none,,,,pe,4,testWhenL1Uns//r1.s2.1.wav,2.0,when,unsyncopated,a,s2,rule,rule,L1,m,3.115,4.0,0.0,0.205,3.0,2.0,Español,0.0,Catalan,0.0,Ingles,5.0,Gallego,8.0,1.0,6.0,yes,no,yes,Flauta,7,,,nada ,69.0,yes
45,2024-03-20_08h36.53.506,Unsyncopated_study3,s125,18.0,feminino,right,España,Catalan y Español,Upper secondary,no,no,A,1,what,L4,unsyncopated,s1,r1,45,Online_whatL4//d.pe.po2.none.none.wav,zi,de,ña,sil,lo,bo,da,sil2,re,ñi,sil1,['-'],,,none,none,,,,pe,4,testWhenL1Uns//r1.s1.2.wav,2.0,when,unsyncopated,a,s1,rule,rule,L1,z,0.235,3.0,1.0,0.219,3.0,2.0,Español,0.0,Catalan,0.0,Ingles,5.0,Gallego,8.0,1.0,6.0,yes,no,yes,Flauta,7,,,nada ,69.0,yes
46,2024-03-20_08h36.53.506,Unsyncopated_study3,s125,18.0,feminino,right,España,Catalan y Español,Upper secondary,no,no,A,1,what,L4,unsyncopated,s1,r1,46,Online_whatL4//d.pe.po3.none.none.wav,zi,ci,ñi,sil2,lo,de,ña,sil,da,bu,sil1,['-'],,,none,none,,,,pe,4,testWhenL1Uns//r2.s2.1.wav,2.0,when,unsyncopated,b,s2,rule,rule,L1,z,0.19,3.0,1.0,0.151,3.0,2.0,Español,0.0,Catalan,0.0,Ingles,5.0,Gallego,8.0,1.0,6.0,yes,no,yes,Flauta,7,,,nada ,69.0,yes
47,2024-03-20_08h36.53.506,Unsyncopated_study3,s125,18.0,feminino,right,España,Catalan y Español,Upper secondary,no,no,A,1,what,L4,unsyncopated,s2,r1,47,Online_whatL4//d.pe.po0.0.222.wav,pe,po,ru,sil,zi,ña,ñi,sil1,lo,bo,sil2,"['catch', 'false alarm']","[0.5589999999999691, 1.02699999999993]",[0.5589999999999691],0.0,beat,0.5589999999999691,0.5589999999999691,"[""space"",""space""]",pe,4,testWhenL1Uns//dep_viol.r2.s2.0.wav,2.0,when,unsyncopated,b,s2,no_rule,dep,L1,m,0.283,4.0,0.0,0.183,3.0,2.0,Español,0.0,Catalan,0.0,Ingles,5.0,Gallego,8.0,1.0,6.0,yes,no,yes,Flauta,7,,,nada ,69.0,yes
48,2024-03-20_08h36.53.506,Unsyncopated_study3,s125,18.0,feminino,right,España,Catalan y Español,Upper secondary,no,no,A,1,what,L4,unsyncopated,s1,r2,48,Online_whatL4//c.bu.da19.1998.444.wav,ja,de,da,sil,nu,re,ci,sil2,bu,ña,sil1,['miss'],,,1.998,no_beat,,,,bu,3,testConjL2Syn//r2.s2.0.wav,3.0,conjunction_syn,syncopated,b,s2,rule,rule,L2,z,3.379,4.0,1.0,0.48,3.0,2.0,Español,0.0,Catalan,0.0,Ingles,5.0,Gallego,8.0,1.0,6.0,yes,no,yes,Flauta,7,,,nada ,69.0,yes
49,2024-03-20_08h36.53.506,Unsyncopated_study3,s125,18.0,feminino,right,España,Catalan y Español,Upper secondary,no,no,A,1,what,L4,unsyncopated,s2,r2,49,Online_whatL4//c.bu.da18.444.1332.wav,ña,pe,bu,sil2,ja,da,de,sil,nu,re,sil1,"['catch', 'false alarm']","[0.5299999999999727, 1.0199999999999818]",[0.5299999999999727],0.444,no_beat,0.0859999999999727,0.0859999999999727,"[""space"",""space""]",bu,3,testConjL2Syn//cat_viol.r2.s2.0.wav,3.0,conjunction_syn,syncopated,b,s2,no_rule,cat,L2,m,1.424,2.0,1.0,0.868,3.0,2.0,Español,0.0,Catalan,0.0,Ingles,5.0,Gallego,8.0,1.0,6.0,yes,no,yes,Flauta,7,,,nada ,69.0,yes
50,2024-03-20_08h36.53.506,Unsyncopated_study3,s125,18.0,feminino,right,España,Catalan y Español,Upper secondary,no,no,A,1,what,L4,unsyncopated,s2,r2,50,Online_whatL4//c.bu.da16.none.none.wav,re,de,po,sil,ja,ci,ru,sil2,nu,ña,sil1,['-'],,,none,none,,,,bu,3,testConjL2Syn//dep_viol.r1.s2.0.wav,3.0,conjunction_syn,syncopated,a,s2,no_rule,dep,L2,m,0.71,4.0,1.0,1.585,3.0,2.0,Español,0.0,Catalan,0.0,Ingles,5.0,Gallego,8.0,1.0,6.0,yes,no,yes,Flauta,7,,,nada ,69.0,yes
51,2024-03-20_08h36.53.506,Unsyncopated_study3,s125,18.0,feminino,right,España,Catalan y Español,Upper secondary,no,no,A,1,what,L4,unsyncopated,s2,r1,51,Online_whatL4//c.bu.da17.none.none.wav,ña,po,pe,sil,zi,ñi,re,sil1,lo,bo,sil2,['-'],,,none,none,,,,bu,3,testConjL2Syn//cat_viol.r1.s2.0.wav,3.0,conjunction_syn,syncopated,a,s2,no_rule,cat,L2,z,1.266,5.0,0.0,0.633,3.0,2.0,Español,0.0,Catalan,0.0,Ingles,5.0,Gallego,8.0,1.0,6.0,yes,no,yes,Flauta,7,,,nada ,69.0,yes
52,2024-03-20_08h36.53.506,Unsyncopated_study3,s125,18.0,feminino,right,España,Catalan y Español,Upper secondary,no,no,A,1,what,L4,unsyncopated,s1,r2,52,Online_whatL4//d.pe.po21.none.none.wav,ja,ru,de,sil,nu,da,ñi,sil2,ña,re,sil1,"['false alarm', 'false alarm']","[0.8179999999999836, 1.6870000000000118]",1.6870000000000118,none,none,,,"[""space"",""space""]",pe,4,testConjL2Syn//r1.s2.1.wav,3.0,conjunction_syn,syncopated,a,s2,rule,rule,L2,z,0.558,6.0,1.0,0.083,3.0,2.0,Español,0.0,Catalan,0.0,Ingles,5.0,Gallego,8.0,1.0,6.0,yes,no,yes,Flauta,7,,,nada ,69.0,yes
53,2024-03-20_08h36.53.506,Unsyncopated_study3,s125,18.0,feminino,right,España,Catalan y Español,Upper secondary,no,no,A,1,what,L4,unsyncopated,s1,r1,53,Online_whatL4//d.pe.po22.1332.222.wav,zi,po,bu,sil,lo,ci,pe,sil2,ñi,bo,sil1,['catch'],[1.8859999999999673],[1.8859999999999673],1.332,no_beat,0.5539999999999672,0.5539999999999672,"[""space""]",pe,4,testConjL2Syn//cat_viol.r2.s1.0.wav,3.0,conjunction_syn,syncopated,b,s1,no_rule,cat,L2,m,0.408,2.0,1.0,0.099,3.0,2.0,Español,0.0,Catalan,0.0,Ingles,5.0,Gallego,8.0,1.0,6.0,yes,no,yes,Flauta,7,,,nada ,69.0,yes
54,2024-03-20_08h36.53.506,Unsyncopated_study3,s125,18.0,feminino,right,España,Catalan y Español,Upper secondary,no,no,A,1,what,L4,unsyncopated,s1,r1,54,Online_whatL4//d.pe.po20.444.1332.wav,zi,ña,pe,sil,lo,re,po,sil2,de,ci,sil1,['catch'],[1.0210000000000719],[1.0210000000000719],0.444,no_beat,0.5770000000000719,0.5770000000000719,"[""space""]",pe,4,testConjL2Syn//r1.s1.0.wav,3.0,conjunction_syn,syncopated,a,s1,rule,rule,L2,m,0.374,3.0,0.0,0.085,3.0,2.0,Español,0.0,Catalan,0.0,Ingles,5.0,Gallego,8.0,1.0,6.0,yes,no,yes,Flauta,7,,,nada ,69.0,yes
55,2024-03-20_08h36.53.506,Unsyncopated_study3,s125,18.0,feminino,right,España,Catalan y Español,Upper secondary,no,no,A,1,what,L4,unsyncopated,s2,r1,55,Online_whatL4//d.pe.po23.none.none.wav,ña,ñi,de,sil2,zi,ru,bu,sil,lo,ci,sil1,['-'],,,none,none,,,,pe,4,testConjL2Syn//r2.s1.2.wav,3.0,conjunction_syn,syncopated,b,s1,rule,rule,L2,m,0.359,3.0,0.0,0.121,3.0,2.0,Español,0.0,Catalan,0.0,Ingles,5.0,Gallego,8.0,1.0,6.0,yes,no,yes,Flauta,7,,,nada ,69.0,yes
56,2024-03-20_08h36.53.506,Unsyncopated_study3,s125,18.0,feminino,right,España,Catalan y Español,Upper secondary,no,no,A,1,what,L4,unsyncopated,s2,r1,56,Online_whatL4//b.ja.nu16.none.none.wav,bo,pe,po,sil,zi,ci,ñi,sil2,lo,ru,sil1,['false alarm'],[0.22500000000002274],[0.22500000000002274],none,none,,,"[""space""]",ja,1,testConjL2Syn//dep_viol.r2.s2.0.wav,3.0,conjunction_syn,syncopated,b,s2,no_rule,dep,L2,z,0.308,5.0,0.0,0.064,3.0,2.0,Español,0.0,Catalan,0.0,Ingles,5.0,Gallego,8.0,1.0,6.0,yes,no,yes,Flauta,7,,,nada ,69.0,yes
57,2024-03-20_08h36.53.506,Unsyncopated_study3,s125,18.0,feminino,right,España,Catalan y Español,Upper secondary,no,no,A,1,what,L4,unsyncopated,s1,r2,57,Online_whatL4//b.ja.nu18.0.1110.wav,ja,re,ru,sil2,nu,bu,bo,sil,po,de,sil1,['catch'],[0.4580000000000837],[0.4580000000000837],0.0,beat,0.4580000000000837,0.4580000000000837,"[""space""]",ja,1,testConjL2Syn//r2.s2.2.wav,3.0,conjunction_syn,syncopated,b,s2,rule,rule,L2,z,1.042,6.0,1.0,0.023,3.0,2.0,Español,0.0,Catalan,0.0,Ingles,5.0,Gallego,8.0,1.0,6.0,yes,no,yes,Flauta,7,,,nada ,69.0,yes
58,2024-03-20_08h36.53.506,Unsyncopated_study3,s125,18.0,feminino,right,España,Catalan y Español,Upper secondary,no,no,A,1,what,L4,unsyncopated,s1,r1,58,Online_whatL4//b.ja.nu19.none.none.wav,zi,pe,de,sil2,lo,bo,ru,sil,bu,po,sil1,['-'],,,none,none,,,,ja,1,testConjL2Syn//r1.s1.1.wav,3.0,conjunction_syn,syncopated,a,s1,rule,rule,L2,m,0.161,3.0,0.0,0.139,3.0,2.0,Español,0.0,Catalan,0.0,Ingles,5.0,Gallego,8.0,1.0,6.0,yes,no,yes,Flauta,7,,,nada ,69.0,yes
59,2024-03-20_08h36.53.506,Unsyncopated_study3,s125,18.0,feminino,right,España,Catalan y Español,Upper secondary,no,no,A,1,what,L4,unsyncopated,s1,r1,59,Online_whatL4//b.ja.nu17.none.none.wav,zi,ñi,ña,sil2,lo,pe,ci,sil,po,re,sil1,['-'],,,none,none,,,,ja,1,testConjL2Syn//dep_viol.r2.s1.0.wav,3.0,conjunction_syn,syncopated,b,s1,no_rule,dep,L2,m,0.34,5.0,1.0,0.071,3.0,2.0,Español,0.0,Catalan,0.0,Ingles,5.0,Gallego,8.0,1.0,6.0,yes,no,yes,Flauta,7,,,nada ,69.0,yes
60,2024-03-20_08h36.53.506,Unsyncopated_study3,s125,18.0,feminino,right,España,Catalan y Español,Upper secondary,no,no,A,1,what,L4,unsyncopated,s2,r1,60,Online_whatL4//b.ja.nu31.none.none.wav,bu,po,ru,sil2,zi,re,ña,sil,lo,de,sil1,['-'],,,none,none,,,,ja,1,testConjL2Syn//time_viol.r2.s1.0.wav,3.0,conjunction_syn,syncopated,b,s1,no_rule,time,L2,z,0.474,6.0,0.0,0.075,3.0,2.0,Español,0.0,Catalan,0.0,Ingles,5.0,Gallego,8.0,1.0,6.0,yes,no,yes,Flauta,7,,,nada ,69.0,yes
61,2024-03-20_08h36.53.506,Unsyncopated_study3,s125,18.0,feminino,right,España,Catalan y Español,Upper secondary,no,no,A,1,what,L4,unsyncopated,s1,r1,61,Online_whatL4//b.ja.nu30.none.none.wav,zi,da,bu,sil2,lo,bo,po,sil,de,ñi,sil1,['-'],,,none,none,,,,ja,1,testConjL2Syn//cat_viol.r1.s1.0.wav,3.0,conjunction_syn,syncopated,a,s1,no_rule,cat,L2,z,0.177,5.0,0.0,0.122,3.0,2.0,Español,0.0,Catalan,0.0,Ingles,5.0,Gallego,8.0,1.0,6.0,yes,no,yes,Flauta,7,,,nada ,69.0,yes
62,2024-03-20_08h36.53.506,Unsyncopated_study3,s125,18.0,feminino,right,España,Catalan y Español,Upper secondary,no,no,A,1,what,L4,unsyncopated,s1,r2,62,Online_whatL4//b.ja.nu29.0.888.wav,ja,de,da,sil,nu,ñi,ru,sil1,ci,ña,sil2,"['catch', 'false alarm']","[0.55499999999995, 0.9879999999999427]",[0.55499999999995],0.0,beat,0.55499999999995,0.55499999999995,"[""space"",""space""]",ja,1,testConjL2Syn//dep_viol.r1.s1.0.wav,3.0,conjunction_syn,syncopated,a,s1,no_rule,dep,L2,m,0.292,3.0,1.0,0.1,3.0,2.0,Español,0.0,Catalan,0.0,Ingles,5.0,Gallego,8.0,1.0,6.0,yes,no,yes,Flauta,7,,,nada ,69.0,yes
63,2024-03-20_08h36.53.506,Unsyncopated_study3,s125,18.0,feminino,right,España,Catalan y Español,Upper secondary,no,no,A,1,what,L4,unsyncopated,s2,r1,63,Online_whatL4//b.ja.nu28.none.none.wav,de,ci,bu,sil,zi,bo,ña,sil2,lo,re,sil1,['-'],,,none,none,,,,ja,1,testConjL2Syn//time_viol.r2.s2.0.wav,3.0,conjunction_syn,syncopated,b,s2,no_rule,time,L2,m,0.279,2.0,1.0,0.218,3.0,2.0,Español,0.0,Catalan,0.0,Ingles,5.0,Gallego,8.0,1.0,6.0,yes,no,yes,Flauta,7,,,nada ,69.0,yes
64,2024-03-20_08h36.53.506,Unsyncopated_study3,s125,18.0,feminino,right,España,Catalan y Español,Upper secondary,no,no,A,1,what,L4,unsyncopated,s1,r1,64,Online_whatL4//a.zi.lo30.0.1110.wav,zi,da,ña,sil2,lo,bo,pe,sil,bu,re,sil1,['catch'],[1.5130000000000337],[1.5130000000000337],1.11,no_beat,0.4030000000000335,0.4030000000000335,"[""space""]",lo,2,testConjL2Syn//time_viol.r1.s2.0.wav,3.0,conjunction_syn,syncopated,a,s2,no_rule,time,L2,m,0.307,4.0,1.0,0.125,3.0,2.0,Español,0.0,Catalan,0.0,Ingles,5.0,Gallego,8.0,1.0,6.0,yes,no,yes,Flauta,7,,,nada ,69.0,yes
65,2024-03-20_08h36.53.506,Unsyncopated_study3,s125,18.0,feminino,right,España,Catalan y Español,Upper secondary,no,no,A,1,what,L4,unsyncopated,s1,r2,65,Online_whatL4//a.zi.lo29.none.none.wav,ja,da,pe,sil,nu,ña,ru,sil1,ñi,ci,sil2,['-'],,,none,none,,,,lo,2,testConjL2Syn//r2.s1.0.wav,3.0,conjunction_syn,syncopated,b,s1,rule,rule,L2,z,0.228,5.0,1.0,0.106,3.0,2.0,Español,0.0,Catalan,0.0,Ingles,5.0,Gallego,8.0,1.0,6.0,yes,no,yes,Flauta,7,,,nada ,69.0,yes
66,2024-03-20_08h36.53.506,Unsyncopated_study3,s125,18.0,feminino,right,España,Catalan y Español,Upper secondary,no,no,A,1,what,L4,unsyncopated,s2,r2,66,Online_whatL4//a.zi.lo28.none.none.wav,ñi,re,de,sil,ja,bu,po,sil1,nu,ci,sil2,['-'],,,none,none,,,,lo,2,testConjL2Syn//r1.s2.0.wav,3.0,conjunction_syn,syncopated,a,s2,rule,rule,L2,z,0.147,5.0,1.0,0.052,3.0,2.0,Español,0.0,Catalan,0.0,Ingles,5.0,Gallego,8.0,1.0,6.0,yes,no,yes,Flauta,7,,,nada ,69.0,yes
67,2024-03-20_08h36.53.506,Unsyncopated_study3,s125,18.0,feminino,right,España,Catalan y Español,Upper secondary,no,no,A,1,what,L4,unsyncopated,s1,r2,67,Online_whatL4//a.zi.lo31.none.none.wav,ja,da,ru,sil,nu,pe,bu,sil2,ñi,ña,sil1,"['false alarm', 'false alarm']","[1.7220000000000937, 2.5160000000000764]",2.5160000000000764,none,none,,,"[""space"",""space""]",lo,2,testConjL2Syn//r2.s1.1.wav,3.0,conjunction_syn,syncopated,b,s1,rule,rule,L2,z,1.028,4.0,1.0,0.282,3.0,2.0,Español,0.0,Catalan,0.0,Ingles,5.0,Gallego,8.0,1.0,6.0,yes,no,yes,Flauta,7,,,nada ,69.0,yes
68,2024-03-20_08h36.53.506,Unsyncopated_study3,s125,18.0,feminino,right,España,Catalan y Español,Upper secondary,no,no,A,1,what,L4,unsyncopated,s1,r1,68,Online_whatL4//a.zi.lo1.0.888.wav,zi,ru,po,sil,lo,ñi,da,sil2,de,bu,sil1,['catch'],[1.6259999999999764],[1.6259999999999764],0.888,beat,0.7379999999999763,0.7379999999999763,"[""space""]",lo,2,testConjL2Syn//r1.s1.2.wav,3.0,conjunction_syn,syncopated,a,s1,rule,rule,L2,m,0.179,3.0,0.0,0.083,3.0,2.0,Español,0.0,Catalan,0.0,Ingles,5.0,Gallego,8.0,1.0,6.0,yes,no,yes,Flauta,7,,,nada ,69.0,yes
69,2024-03-20_08h36.53.506,Unsyncopated_study3,s125,18.0,feminino,right,España,Catalan y Español,Upper secondary,no,no,A,1,what,L4,unsyncopated,s2,r1,69,Online_whatL4//a.zi.lo3.888.1998.wav,po,re,ñi,sil,zi,de,ña,sil2,lo,ci,sil1,['catch'],[2.5419999999999163],[2.5419999999999163],1.998,no_beat,0.5439999999999163,0.5439999999999163,"[""space""]",lo,2,testConjL2Syn//r1.s2.2.wav,3.0,conjunction_syn,syncopated,a,s2,rule,rule,L2,z,0.824,4.0,1.0,0.185,3.0,2.0,Español,0.0,Catalan,0.0,Ingles,5.0,Gallego,8.0,1.0,6.0,yes,no,yes,Flauta,7,,,nada ,69.0,yes
70,2024-03-20_08h36.53.506,Unsyncopated_study3,s125,18.0,feminino,right,España,Catalan y Español,Upper secondary,no,no,A,1,what,L4,unsyncopated,s1,r1,70,Online_whatL4//a.zi.lo0.0.888.wav,zi,re,bo,sil,lo,pe,ña,sil1,de,bu,sil2,['miss'],,,0.888,beat,,,,lo,2,testConjL2Syn//r2.s2.1.wav,3.0,conjunction_syn,syncopated,b,s2,rule,rule,L2,z,0.857,3.0,1.0,0.216,3.0,2.0,Español,0.0,Catalan,0.0,Ingles,5.0,Gallego,8.0,1.0,6.0,yes,no,yes,Flauta,7,,,nada ,69.0,yes
71,2024-03-20_08h36.53.506,Unsyncopated_study3,s125,18.0,feminino,right,España,Catalan y Español,Upper secondary,no,no,A,1,what,L4,unsyncopated,s1,r1,71,Online_whatL4//a.zi.lo2.0.1110.wav,zi,ñi,po,sil2,lo,re,bu,sil,de,da,sil1,['catch'],[1.6030000000000655],[1.6030000000000655],1.11,no_beat,0.4930000000000654,0.4930000000000654,"[""space""]",lo,2,testConjL2Syn//time_viol.r1.s1.0.wav,3.0,conjunction_syn,syncopated,a,s1,no_rule,time,L2,m,0.291,5.0,1.0,0.114,3.0,2.0,Español,0.0,Catalan,0.0,Ingles,5.0,Gallego,8.0,1.0,6.0,yes,no,yes,Flauta,7,,,nada ,69.0,yes
72,2024-03-20_08h36.53.506,Unsyncopated_study3,s125,18.0,feminino,right,España,Catalan y Español,Upper secondary,no,no,A,1,what,L4,unsyncopated,s1,r2,72,Online_whatL4//d.pe.po8.222.1332.wav,ja,pe,bu,sil,nu,ci,po,sil2,da,re,sil1,['false alarm'],[0.04800000000000182],[0.04800000000000182],0.222,no_beat,,,"[""space""]",pe,4,testConjL3Uns//r2.s2.0.wav,4.0,conjunction_un,unsyncopated,b,s2,rule,rule,L3,z,0.291,5.0,1.0,0.077,3.0,2.0,Español,0.0,Catalan,0.0,Ingles,5.0,Gallego,8.0,1.0,6.0,yes,no,yes,Flauta,7,,,nada ,69.0,yes
73,2024-03-20_08h36.53.506,Unsyncopated_study3,s125,18.0,feminino,right,España,Catalan y Español,Upper secondary,no,no,A,1,what,L4,unsyncopated,s2,r1,73,Online_whatL4//d.pe.po11.222.1332.wav,re,pe,ñi,sil2,zi,po,bu,sil,lo,de,sil1,['catch'],[0.7390000000000327],[0.7390000000000327],0.222,no_beat,0.5170000000000328,0.5170000000000328,"[""space""]",pe,4,testConjL3Uns//r1.s1.2.wav,4.0,conjunction_un,unsyncopated,a,s1,rule,rule,L3,m,0.042,2.0,0.0,0.133,3.0,2.0,Español,0.0,Catalan,0.0,Ingles,5.0,Gallego,8.0,1.0,6.0,yes,no,yes,Flauta,7,,,nada ,69.0,yes
74,2024-03-20_08h36.53.506,Unsyncopated_study3,s125,18.0,feminino,right,España,Catalan y Español,Upper secondary,no,no,A,1,what,L4,unsyncopated,s1,r1,74,Online_whatL4//d.pe.po10.444.1332.wav,zi,ci,pe,sil,lo,bo,po,sil2,re,bu,sil1,['miss'],,,0.444,no_beat,,,,pe,4,testConjL3Uns//cat_viol.r2.s2.0.wav,4.0,conjunction_un,unsyncopated,b,s2,no_rule,cat,L3,m,1.592,5.0,1.0,0.534,3.0,2.0,Español,0.0,Catalan,0.0,Ingles,5.0,Gallego,8.0,1.0,6.0,yes,no,yes,Flauta,7,,,nada ,69.0,yes
75,2024-03-20_08h36.53.506,Unsyncopated_study3,s125,18.0,feminino,right,España,Catalan y Español,Upper secondary,no,no,A,1,what,L4,unsyncopated,s2,r1,75,Online_whatL4//d.pe.po9.none.none.wav,ña,da,bo,sil,zi,ñi,ru,sil2,lo,de,sil1,['-'],,,none,none,,,,pe,4,testConjL3Uns//r1.s2.1.wav,4.0,conjunction_un,unsyncopated,a,s2,rule,rule,L3,z,0.378,4.0,1.0,0.132,3.0,2.0,Español,0.0,Catalan,0.0,Ingles,5.0,Gallego,8.0,1.0,6.0,yes,no,yes,Flauta,7,,,nada ,69.0,yes
76,2024-03-20_08h36.53.506,Unsyncopated_study3,s125,18.0,feminino,right,España,Catalan y Español,Upper secondary,no,no,A,1,what,L4,unsyncopated,s1,r2,76,Online_whatL4//b.ja.nu11.0.888.wav,ja,bo,ru,sil,nu,ñi,ci,sil2,pe,po,sil1,['catch'],[0.4939999999999145],[0.4939999999999145],0.0,beat,0.4939999999999145,0.4939999999999145,"[""space""]",ja,1,testConjL3Uns//time_viol.r2.s2.0.wav,4.0,conjunction_un,unsyncopated,b,s2,no_rule,time,L3,m,0.781,3.0,1.0,0.175,3.0,2.0,Español,0.0,Catalan,0.0,Ingles,5.0,Gallego,8.0,1.0,6.0,yes,no,yes,Flauta,7,,,nada ,69.0,yes
77,2024-03-20_08h36.53.506,Unsyncopated_study3,s125,18.0,feminino,right,España,Catalan y Español,Upper secondary,no,no,A,1,what,L4,unsyncopated,s2,r1,77,Online_whatL4//b.ja.nu9.none.none.wav,re,ña,ru,sil2,zi,ñi,de,sil,lo,bo,sil1,['-'],,,none,none,,,,ja,1,testConjL3Uns//r2.s2.1.wav,4.0,conjunction_un,unsyncopated,b,s2,rule,rule,L3,m,0.508,4.0,0.0,0.087,3.0,2.0,Español,0.0,Catalan,0.0,Ingles,5.0,Gallego,8.0,1.0,6.0,yes,no,yes,Flauta,7,,,nada ,69.0,yes
78,2024-03-20_08h36.53.506,Unsyncopated_study3,s125,18.0,feminino,right,España,Catalan y Español,Upper secondary,no,no,A,1,what,L4,unsyncopated,s2,r1,78,Online_whatL4//b.ja.nu8.none.none.wav,po,de,re,sil2,zi,ru,pe,sil,lo,bu,sil1,['-'],,,none,none,,,,ja,1,testConjL3Uns//dep_viol.r2.s1.0.wav,4.0,conjunction_un,unsyncopated,b,s1,no_rule,dep,L3,z,0.311,5.0,0.0,0.102,3.0,2.0,Español,0.0,Catalan,0.0,Ingles,5.0,Gallego,8.0,1.0,6.0,yes,no,yes,Flauta,7,,,nada ,69.0,yes
79,2024-03-20_08h36.53.506,Unsyncopated_study3,s125,18.0,feminino,right,España,Catalan y Español,Upper secondary,no,no,A,1,what,L4,unsyncopated,s1,r1,79,Online_whatL4//b.ja.nu10.none.none.wav,zi,ñi,re,sil,lo,de,pe,sil1,ña,po,sil2,['-'],,,none,none,,,,ja,1,testConjL3Uns//time_viol.r1.s1.0.wav,4.0,conjunction_un,unsyncopated,a,s1,no_rule,time,L3,z,0.607,4.0,0.0,0.184,3.0,2.0,Español,0.0,Catalan,0.0,Ingles,5.0,Gallego,8.0,1.0,6.0,yes,no,yes,Flauta,7,,,nada ,69.0,yes
80,2024-03-20_08h36.53.506,Unsyncopated_study3,s125,18.0,feminino,right,España,Catalan y Español,Upper secondary,no,no,A,1,what,L4,unsyncopated,s2,r1,80,Online_whatL4//a.zi.lo14.888.1998.wav,ru,bo,re,sil,zi,de,po,sil2,lo,ñi,sil1,['catch_delay'],[0.6949999999999965],[0.6949999999999965],1.998,no_beat,0.6949999999999965,0.6949999999999965,"[""space""]",lo,2,testConjL3Uns//r2.s2.2.wav,4.0,conjunction_un,unsyncopated,b,s2,rule,rule,L3,z,0.316,3.0,1.0,0.068,3.0,2.0,Español,0.0,Catalan,0.0,Ingles,5.0,Gallego,8.0,1.0,6.0,yes,no,yes,Flauta,7,,,nada ,69.0,yes
81,2024-03-20_08h36.53.506,Unsyncopated_study3,s125,18.0,feminino,right,España,Catalan y Español,Upper secondary,no,no,A,1,what,L4,unsyncopated,s1,r1,81,Online_whatL4//a.zi.lo13.0.888.wav,zi,pe,da,sil,lo,ru,ci,sil2,re,bu,sil1,['miss'],[0.028999999999996362],[0.028999999999996362],0.888,beat,,,"[""space""]",lo,2,testConjL3Uns//dep_viol.r2.s2.0.wav,4.0,conjunction_un,unsyncopated,b,s2,no_rule,dep,L3,m,0.524,5.0,1.0,0.151,3.0,2.0,Español,0.0,Catalan,0.0,Ingles,5.0,Gallego,8.0,1.0,6.0,yes,no,yes,Flauta,7,,,nada ,69.0,yes
82,2024-03-20_08h36.53.506,Unsyncopated_study3,s125,18.0,feminino,right,España,Catalan y Español,Upper secondary,no,no,A,1,what,L4,unsyncopated,s1,r1,82,Online_whatL4//a.zi.lo12.0.888.wav,zi,po,da,sil,lo,bo,de,sil1,ña,pe,sil2,['catch'],[1.4260000000000446],[1.4260000000000446],0.888,beat,0.5380000000000446,0.5380000000000446,"[""space""]",lo,2,testConjL3Uns//r1.s1.0.wav,4.0,conjunction_un,unsyncopated,a,s1,rule,rule,L3,m,0.423,4.0,0.0,0.087,3.0,2.0,Español,0.0,Catalan,0.0,Ingles,5.0,Gallego,8.0,1.0,6.0,yes,no,yes,Flauta,7,,,nada ,69.0,yes
83,2024-03-20_08h36.53.506,Unsyncopated_study3,s125,18.0,feminino,right,España,Catalan y Español,Upper secondary,no,no,A,1,what,L4,unsyncopated,s1,r2,83,Online_whatL4//a.zi.lo15.none.none.wav,ja,ru,po,sil2,nu,de,bo,sil,ña,bu,sil1,['-'],,,none,none,,,,lo,2,testConjL3Uns//r1.s1.1.wav,4.0,conjunction_un,unsyncopated,a,s1,rule,rule,L3,z,0.36,4.0,1.0,0.141,3.0,2.0,Español,0.0,Catalan,0.0,Ingles,5.0,Gallego,8.0,1.0,6.0,yes,no,yes,Flauta,7,,,nada ,69.0,yes
84,2024-03-20_08h36.53.506,Unsyncopated_study3,s125,18.0,feminino,right,España,Catalan y Español,Upper secondary,no,no,A,1,what,L4,unsyncopated,s1,r1,84,Online_whatL4//c.bu.da4.none.none.wav,zi,ru,de,sil2,lo,ci,po,sil,pe,bo,sil1,['false alarm'],[0.5009999999999764],[0.5009999999999764],none,none,,,"[""space""]",bu,3,testConjL3Uns//time_viol.r1.s2.0.wav,4.0,conjunction_un,unsyncopated,a,s2,no_rule,time,L3,m,0.31,4.0,1.0,0.159,3.0,2.0,Español,0.0,Catalan,0.0,Ingles,5.0,Gallego,8.0,1.0,6.0,yes,no,yes,Flauta,7,,,nada ,69.0,yes
85,2024-03-20_08h36.53.506,Unsyncopated_study3,s125,18.0,feminino,right,España,Catalan y Español,Upper secondary,no,no,A,1,what,L4,unsyncopated,s1,r1,85,Online_whatL4//c.bu.da6.1110.1332.wav,zi,ña,ci,sil,lo,bu,da,sil1,pe,ñi,sil2,['miss'],,,1.11,no_beat,,,,bu,3,testConjL3Uns//time_viol.r2.s1.0.wav,4.0,conjunction_un,unsyncopated,b,s1,no_rule,time,L3,z,0.435,5.0,0.0,0.252,3.0,2.0,Español,0.0,Catalan,0.0,Ingles,5.0,Gallego,8.0,1.0,6.0,yes,no,yes,Flauta,7,,,nada ,69.0,yes
86,2024-03-20_08h36.53.506,Unsyncopated_study3,s125,18.0,feminino,right,España,Catalan y Español,Upper secondary,no,no,A,1,what,L4,unsyncopated,s1,r1,86,Online_whatL4//c.bu.da7.222.1332.wav,zi,bu,re,sil,lo,po,da,sil2,bo,ci,sil1,['miss'],,,0.222,no_beat,,,,bu,3,testConjL3Uns//cat_viol.r2.s1.0.wav,4.0,conjunction_un,unsyncopated,b,s1,no_rule,cat,L3,m,0.307,5.0,1.0,0.417,3.0,2.0,Español,0.0,Catalan,0.0,Ingles,5.0,Gallego,8.0,1.0,6.0,yes,no,yes,Flauta,7,,,nada ,69.0,yes
87,2024-03-20_08h36.53.506,Unsyncopated_study3,s125,18.0,feminino,right,España,Catalan y Español,Upper secondary,no,no,A,1,what,L4,unsyncopated,s1,r2,87,Online_whatL4//c.bu.da5.none.none.wav,ja,ci,ña,sil2,nu,bo,de,sil,ñi,re,sil1,['-'],,,none,none,,,,bu,3,testConjL3Uns//r2.s1.1.wav,4.0,conjunction_un,unsyncopated,b,s1,rule,rule,L3,m,0.0,2.0,0.0,0.618,3.0,2.0,Español,0.0,Catalan,0.0,Ingles,5.0,Gallego,8.0,1.0,6.0,yes,no,yes,Flauta,7,,,nada ,69.0,yes
88,2024-03-20_08h36.53.506,Unsyncopated_study3,s125,18.0,feminino,right,España,Catalan y Español,Upper secondary,no,no,A,1,what,L4,unsyncopated,s2,r1,88,Online_whatL4//c.bu.da14.222.444.wav,po,bu,da,sil,zi,pe,re,sil2,lo,ña,sil1,"['catch', 'false alarm']","[0.5419999999999163, 1.794999999999959]",[0.5419999999999163],0.222,no_beat,0.3199999999999163,0.3199999999999163,"[""space"",""space""]",bu,3,testConjL3Uns//r1.s2.2.wav,4.0,conjunction_un,unsyncopated,a,s2,rule,rule,L3,z,1.643,3.0,1.0,0.833,3.0,2.0,Español,0.0,Catalan,0.0,Ingles,5.0,Gallego,8.0,1.0,6.0,yes,no,yes,Flauta,7,,,nada ,69.0,yes
89,2024-03-20_08h36.53.506,Unsyncopated_study3,s125,18.0,feminino,right,España,Catalan y Español,Upper secondary,no,no,A,1,what,L4,unsyncopated,s1,r2,89,Online_whatL4//c.bu.da13.1332.444.wav,ja,de,da,sil,nu,ci,bu,sil1,ña,po,sil2,['catch'],[1.8599999999999],[1.8599999999999],1.332,no_beat,0.5279999999998999,0.5279999999998999,"[""space""]",bu,3,testConjL3Uns//cat_viol.r1.s2.0.wav,4.0,conjunction_un,unsyncopated,a,s2,no_rule,cat,L3,z,0.683,2.0,0.0,0.267,3.0,2.0,Español,0.0,Catalan,0.0,Ingles,5.0,Gallego,8.0,1.0,6.0,yes,no,yes,Flauta,7,,,nada ,69.0,yes
90,2024-03-20_08h36.53.506,Unsyncopated_study3,s125,18.0,feminino,right,España,Catalan y Español,Upper secondary,no,no,A,1,what,L4,unsyncopated,s1,r1,90,Online_whatL4//c.bu.da15.1110.222.wav,zi,da,ru,sil,lo,bu,bo,sil1,ñi,ci,sil2,['false alarm'],[0.9360000000000355],[0.9360000000000355],1.11,no_beat,,,"[""space""]",bu,3,testConjL3Uns//dep_viol.r1.s2.0.wav,4.0,conjunction_un,unsyncopated,a,s2,no_rule,dep,L3,m,0.541,4.0,1.0,0.366,3.0,2.0,Español,0.0,Catalan,0.0,Ingles,5.0,Gallego,8.0,1.0,6.0,yes,no,yes,Flauta,7,,,nada ,69.0,yes
91,2024-03-20_08h36.53.506,Unsyncopated_study3,s125,18.0,feminino,right,España,Catalan y Español,Upper secondary,no,no,A,1,what,L4,unsyncopated,s2,r2,91,Online_whatL4//c.bu.da12.none.none.wav,re,ñi,ña,sil,ja,po,bo,sil2,nu,de,sil1,['-'],,,none,none,,,,bu,3,testConjL3Uns//cat_viol.r1.s1.0.wav,4.0,conjunction_un,unsyncopated,a,s1,no_rule,cat,L3,z,0.881,4.0,0.0,0.468,3.0,2.0,Español,0.0,Catalan,0.0,Ingles,5.0,Gallego,8.0,1.0,6.0,yes,no,yes,Flauta,7,,,nada ,69.0,yes
92,2024-03-20_08h36.53.506,Unsyncopated_study3,s125,18.0,feminino,right,España,Catalan y Español,Upper secondary,no,no,A,1,what,L4,unsyncopated,s2,r1,92,Online_whatL4//c.bu.da29.1110.0.wav,da,ru,pe,sil,zi,bu,ci,sil1,lo,de,sil2,['false alarm'],[0.5170000000000528],[0.5170000000000528],1.11,no_beat,,,"[""space""]",bu,3,testConjL3Uns//r2.s1.0.wav,4.0,conjunction_un,unsyncopated,b,s1,rule,rule,L3,z,4.327,5.0,1.0,0.494,3.0,2.0,Español,0.0,Catalan,0.0,Ingles,5.0,Gallego,8.0,1.0,6.0,yes,no,yes,Flauta,7,,,nada ,69.0,yes
93,2024-03-20_08h36.53.506,Unsyncopated_study3,s125,18.0,feminino,right,España,Catalan y Español,Upper secondary,no,no,A,1,what,L4,unsyncopated,s2,r2,93,Online_whatL4//c.bu.da30.1554.0.wav,da,ña,re,sil2,ja,po,bu,sil,nu,ci,sil1,['miss'],,,1.554,no_beat,,,,bu,3,testConjL3Uns//dep_viol.r1.s1.0.wav,4.0,conjunction_un,unsyncopated,a,s1,no_rule,dep,L3,m,0.309,4.0,1.0,0.367,3.0,2.0,Español,0.0,Catalan,0.0,Ingles,5.0,Gallego,8.0,1.0,6.0,yes,no,yes,Flauta,7,,,nada ,69.0,yes
94,2024-03-20_08h36.53.506,Unsyncopated_study3,s125,18.0,feminino,right,España,Catalan y Español,Upper secondary,no,no,A,1,what,L4,unsyncopated,s1,r2,94,Online_whatL4//c.bu.da28.none.none.wav,ja,ña,bo,sil,nu,pe,ñi,sil1,re,de,sil2,['-'],,,none,none,,,,bu,3,testConjL3Uns//r2.s1.2.wav,4.0,conjunction_un,unsyncopated,b,s1,rule,rule,L3,m,0.309,4.0,0.0,0.527,3.0,2.0,Español,0.0,Catalan,0.0,Ingles,5.0,Gallego,8.0,1.0,6.0,yes,no,yes,Flauta,7,,,nada ,69.0,yes
95,2024-03-20_08h36.53.506,Unsyncopated_study3,s125,18.0,feminino,right,España,Catalan y Español,Upper secondary,no,no,A,1,what,L4,unsyncopated,s2,r2,95,Online_whatL4//c.bu.da31.222.444.wav,de,bu,da,sil,ja,ci,bo,sil2,nu,ña,sil1,"['catch', 'false alarm']","[0.6870000000000118, 1.1569999999999254]",[0.6870000000000118],0.222,no_beat,0.4650000000000118,0.4650000000000118,"[""space"",""space""]",bu,3,testConjL3Uns//r1.s2.0.wav,4.0,conjunction_un,unsyncopated,a,s2,rule,rule,L3,z,0.563,3.0,1.0,0.249,3.0,2.0,Español,0.0,Catalan,0.0,Ingles,5.0,Gallego,8.0,1.0,6.0,yes,no,yes,Flauta,7,,,nada ,69.0,yes
96,2024-03-20_08h36.53.506,Unsyncopated_study3,s125,18.0,feminino,right,España,Catalan y Español,Upper secondary,no,no,A,1,what,L4,unsyncopated,s1,r1,96,Online_whatL4//d.pe.po28.none.none.wav,zi,ci,bu,sil,lo,ru,ñi,sil1,de,da,sil2,['-'],,,none,none,,,,pe,4,,,,,,,,,,,,,,,3.0,2.0,Español,0.0,Catalan,0.0,Ingles,5.0,Gallego,8.0,1.0,6.0,yes,no,yes,Flauta,7,,,nada ,69.0,yes
97,2024-03-20_08h36.53.506,Unsyncopated_study3,s125,18.0,feminino,right,España,Catalan y Español,Upper secondary,no,no,A,1,what,L4,unsyncopated,s2,r2,97,Online_whatL4//d.pe.po31.1554.0.wav,po,de,ña,sil2,ja,ci,pe,sil,nu,re,sil1,"['false alarm', 'catch']","[0.7089999999999463, 2.342999999999961]",[2.342999999999961],1.554,no_beat,0.7889999999999608,0.7889999999999608,"[""space"",""space""]",pe,4,,,,,,,,,,,,,,,3.0,2.0,Español,0.0,Catalan,0.0,Ingles,5.0,Gallego,8.0,1.0,6.0,yes,no,yes,Flauta,7,,,nada ,69.0,yes
98,2024-03-20_08h36.53.506,Unsyncopated_study3,s125,18.0,feminino,right,España,Catalan y Español,Upper secondary,no,no,A,1,what,L4,unsyncopated,s1,r2,98,Online_whatL4//d.pe.po29.222.444.wav,ja,pe,po,sil2,nu,de,ñi,sil,ru,da,sil1,['miss'],,,0.222,no_beat,,,,pe,4,,,,,,,,,,,,,,,3.0,2.0,Español,0.0,Catalan,0.0,Ingles,5.0,Gallego,8.0,1.0,6.0,yes,no,yes,Flauta,7,,,nada ,69.0,yes
99,2024-03-20_08h36.53.506,Unsyncopated_study3,s125,18.0,feminino,right,España,Catalan y Español,Upper secondary,no,no,A,1,what,L4,unsyncopated,s1,r1,99,Online_whatL4//d.pe.po30.none.none.wav,zi,ci,ña,sil,lo,re,bu,sil2,ñi,de,sil1,"['false alarm', 'false alarm']","[0.3369999999999891, 1.0030000000000427]",1.0030000000000427,none,none,,,"[""space"",""space""]",pe,4,,,,,,,,,,,,,,,3.0,2.0,Español,0.0,Catalan,0.0,Ingles,5.0,Gallego,8.0,1.0,6.0,yes,no,yes,Flauta,7,,,nada ,69.0,yes
100,2024-03-20_08h36.53.506,Unsyncopated_study3,s125,18.0,feminino,right,España,Catalan y Español,Upper secondary,no,no,A,1,what,L4,unsyncopated,s1,r2,100,Online_whatL4//b.ja.nu20.0.888.wav,ja,ñi,ci,sil,nu,bo,de,sil2,po,pe,sil1,['catch'],[0.9180000000000064],[0.9180000000000064],0.0,beat,0.9180000000000064,0.9180000000000064,"[""space""]",ja,1,,,,,,,,,,,,,,,3.0,2.0,Español,0.0,Catalan,0.0,Ingles,5.0,Gallego,8.0,1.0,6.0,yes,no,yes,Flauta,7,,,nada ,69.0,yes
101,2024-03-20_08h36.53.506,Unsyncopated_study3,s125,18.0,feminino,right,España,Catalan y Español,Upper secondary,no,no,A,1,what,L4,unsyncopated,s2,r2,101,Online_whatL4//b.ja.nu23.888.1776.wav,bo,ci,ña,sil,ja,de,ru,sil1,nu,pe,sil2,['catch'],[1.77800000000002],[1.77800000000002],0.888,beat,0.89000000000002,0.89000000000002,"[""space""]",ja,1,,,,,,,,,,,,,,,3.0,2.0,Español,0.0,Catalan,0.0,Ingles,5.0,Gallego,8.0,1.0,6.0,yes,no,yes,Flauta,7,,,nada ,69.0,yes
102,2024-03-20_08h36.53.506,Unsyncopated_study3,s125,18.0,feminino,right,España,Catalan y Español,Upper secondary,no,no,A,1,what,L4,unsyncopated,s1,r1,102,Online_whatL4//b.ja.nu22.none.none.wav,zi,ñi,ci,sil,lo,da,pe,sil2,po,bo,sil1,['-'],,,none,none,,,,ja,1,,,,,,,,,,,,,,,3.0,2.0,Español,0.0,Catalan,0.0,Ingles,5.0,Gallego,8.0,1.0,6.0,yes,no,yes,Flauta,7,,,nada ,69.0,yes
103,2024-03-20_08h36.53.506,Unsyncopated_study3,s125,18.0,feminino,right,España,Catalan y Español,Upper secondary,no,no,A,1,what,L4,unsyncopated,s2,r2,103,Online_whatL4//b.ja.nu21.1110.1998.wav,po,da,ci,sil2,ja,bu,re,sil,nu,pe,sil1,['catch'],[1.592999999999961],[1.592999999999961],1.11,no_beat,0.4829999999999608,0.4829999999999608,"[""space""]",ja,1,,,,,,,,,,,,,,,3.0,2.0,Español,0.0,Catalan,0.0,Ingles,5.0,Gallego,8.0,1.0,6.0,yes,no,yes,Flauta,7,,,nada ,69.0,yes
104,2024-03-20_08h36.53.506,Unsyncopated_study3,s125,18.0,feminino,right,España,Catalan y Español,Upper secondary,no,no,A,1,what,L4,unsyncopated,s2,r2,104,Online_whatL4//d.pe.po7.444.0.wav,po,bo,pe,sil,ja,ci,da,sil1,nu,ñi,sil2,['catch'],[0.6599999999999682],[0.6599999999999682],0.444,no_beat,0.2159999999999681,0.2159999999999681,"[""space""]",pe,4,,,,,,,,,,,,,,,3.0,2.0,Español,0.0,Catalan,0.0,Ingles,5.0,Gallego,8.0,1.0,6.0,yes,no,yes,Flauta,7,,,nada ,69.0,yes
105,2024-03-20_08h36.53.506,Unsyncopated_study3,s125,18.0,feminino,right,España,Catalan y Español,Upper secondary,no,no,A,1,what,L4,unsyncopated,s2,r1,105,Online_whatL4//d.pe.po4.1554.444.wav,bu,ci,po,sil2,zi,de,pe,sil,lo,bo,sil1,['miss'],,,1.554,no_beat,,,,pe,4,,,,,,,,,,,,,,,3.0,2.0,Español,0.0,Catalan,0.0,Ingles,5.0,Gallego,8.0,1.0,6.0,yes,no,yes,Flauta,7,,,nada ,69.0,yes
106,2024-03-20_08h36.53.506,Unsyncopated_study3,s125,18.0,feminino,right,España,Catalan y Español,Upper secondary,no,no,A,1,what,L4,unsyncopated,s2,r1,106,Online_whatL4//d.pe.po5.none.none.wav,bo,da,ña,sil,zi,bu,re,sil2,lo,de,sil1,['-'],,,none,none,,,,pe,4,,,,,,,,,,,,,,,3.0,2.0,Español,0.0,Catalan,0.0,Ingles,5.0,Gallego,8.0,1.0,6.0,yes,no,yes,Flauta,7,,,nada ,69.0,yes
107,2024-03-20_08h36.53.506,Unsyncopated_study3,s125,18.0,feminino,right,España,Catalan y Español,Upper secondary,no,no,A,1,what,L4,unsyncopated,s2,r2,107,Online_whatL4//d.pe.po6.none.none.wav,ñi,bu,ru,sil,ja,ña,ci,sil1,nu,de,sil2,['-'],,,none,none,,,,pe,4,,,,,,,,,,,,,,,3.0,2.0,Español,0.0,Catalan,0.0,Ingles,5.0,Gallego,8.0,1.0,6.0,yes,no,yes,Flauta,7,,,nada ,69.0,yes
108,2024-03-20_08h36.53.506,Unsyncopated_study3,s125,18.0,feminino,right,España,Catalan y Español,Upper secondary,no,no,A,1,what,L4,unsyncopated,s1,r1,108,Online_whatL4//b.ja.nu3.none.none.wav,zi,ci,pe,sil,lo,da,bu,sil2,bo,re,sil1,['false alarm'],[0.7419999999999618],[0.7419999999999618],none,none,,,"[""space""]",ja,1,,,,,,,,,,,,,,,3.0,2.0,Español,0.0,Catalan,0.0,Ingles,5.0,Gallego,8.0,1.0,6.0,yes,no,yes,Flauta,7,,,nada ,69.0,yes
109,2024-03-20_08h36.53.506,Unsyncopated_study3,s125,18.0,feminino,right,España,Catalan y Español,Upper secondary,no,no,A,1,what,L4,unsyncopated,s2,r1,109,Online_whatL4//b.ja.nu2.none.none.wav,ña,re,ru,sil2,zi,de,bu,sil,lo,pe,sil1,['-'],,,none,none,,,,ja,1,,,,,,,,,,,,,,,3.0,2.0,Español,0.0,Catalan,0.0,Ingles,5.0,Gallego,8.0,1.0,6.0,yes,no,yes,Flauta,7,,,nada ,69.0,yes
110,2024-03-20_08h36.53.506,Unsyncopated_study3,s125,18.0,feminino,right,España,Catalan y Español,Upper secondary,no,no,A,1,what,L4,unsyncopated,s2,r1,110,Online_whatL4//b.ja.nu1.none.none.wav,pe,re,de,sil2,zi,ñi,da,sil,lo,po,sil1,['-'],,,none,none,,,,ja,1,,,,,,,,,,,,,,,3.0,2.0,Español,0.0,Catalan,0.0,Ingles,5.0,Gallego,8.0,1.0,6.0,yes,no,yes,Flauta,7,,,nada ,69.0,yes
111,2024-03-20_08h36.53.506,Unsyncopated_study3,s125,18.0,feminino,right,España,Catalan y Español,Upper secondary,no,no,A,1,what,L4,unsyncopated,s1,r2,111,Online_whatL4//b.ja.nu0.0.888.wav,ja,pe,da,sil,nu,po,ña,sil1,ci,de,sil2,"['catch', 'false alarm']","[0.6089999999999236, 1.0529999999999973]",[0.6089999999999236],0.0,beat,0.6089999999999236,0.6089999999999236,"[""space"",""space""]",ja,1,,,,,,,,,,,,,,,3.0,2.0,Español,0.0,Catalan,0.0,Ingles,5.0,Gallego,8.0,1.0,6.0,yes,no,yes,Flauta,7,,,nada ,69.0,yes
112,2024-03-20_08h36.53.506,Unsyncopated_study3,s125,18.0,feminino,right,España,Catalan y Español,Upper secondary,no,no,A,1,what,L4,unsyncopated,s2,r2,112,Online_whatL4//b.ja.nu6.888.1776.wav,bo,ña,bu,sil,ja,re,pe,sil1,nu,ci,sil2,['catch'],[1.5450000000000728],[1.5450000000000728],0.888,beat,0.6570000000000727,0.6570000000000727,"[""space""]",ja,1,,,,,,,,,,,,,,,3.0,2.0,Español,0.0,Catalan,0.0,Ingles,5.0,Gallego,8.0,1.0,6.0,yes,no,yes,Flauta,7,,,nada ,69.0,yes
113,2024-03-20_08h36.53.506,Unsyncopated_study3,s125,18.0,feminino,right,España,Catalan y Español,Upper secondary,no,no,A,1,what,L4,unsyncopated,s2,r2,113,Online_whatL4//b.ja.nu7.888.1776.wav,de,bo,re,sil,ja,ñi,bu,sil1,nu,da,sil2,['catch'],[1.4390000000000782],[1.4390000000000782],0.888,beat,0.5510000000000782,0.5510000000000782,"[""space""]",ja,1,,,,,,,,,,,,,,,3.0,2.0,Español,0.0,Catalan,0.0,Ingles,5.0,Gallego,8.0,1.0,6.0,yes,no,yes,Flauta,7,,,nada ,69.0,yes
114,2024-03-20_08h36.53.506,Unsyncopated_study3,s125,18.0,feminino,right,España,Catalan y Español,Upper secondary,no,no,A,1,what,L4,unsyncopated,s1,r2,114,Online_whatL4//b.ja.nu4.0.888.wav,ja,po,ru,sil,nu,ñi,de,sil2,ña,bo,sil1,['catch'],[0.46100000000001273],[0.46100000000001273],0.0,beat,0.4610000000000127,0.4610000000000127,"[""space""]",ja,1,,,,,,,,,,,,,,,3.0,2.0,Español,0.0,Catalan,0.0,Ingles,5.0,Gallego,8.0,1.0,6.0,yes,no,yes,Flauta,7,,,nada ,69.0,yes
115,2024-03-20_08h36.53.506,Unsyncopated_study3,s125,18.0,feminino,right,España,Catalan y Español,Upper secondary,no,no,A,1,what,L4,unsyncopated,s2,r2,115,Online_whatL4//b.ja.nu5.888.1776.wav,re,ña,ci,sil,ja,bu,ru,sil1,nu,de,sil2,['catch'],[1.3539999999999281],[1.3539999999999281],0.888,beat,0.4659999999999281,0.4659999999999281,"[""space""]",ja,1,,,,,,,,,,,,,,,3.0,2.0,Español,0.0,Catalan,0.0,Ingles,5.0,Gallego,8.0,1.0,6.0,yes,no,yes,Flauta,7,,,nada ,69.0,yes
116,2024-03-20_08h36.53.506,Unsyncopated_study3,s125,18.0,feminino,right,España,Catalan y Español,Upper secondary,no,no,A,1,what,L4,unsyncopated,s1,r1,116,Online_whatL4//d.pe.po25.222.444.wav,zi,pe,po,sil2,lo,re,bu,sil,de,ru,sil1,['catch'],[1.0810000000000173],[1.0810000000000173],0.222,no_beat,0.8590000000000173,0.8590000000000173,"[""space""]",pe,4,,,,,,,,,,,,,,,3.0,2.0,Español,0.0,Catalan,0.0,Ingles,5.0,Gallego,8.0,1.0,6.0,yes,no,yes,Flauta,7,,,nada ,69.0,yes
117,2024-03-20_08h36.53.506,Unsyncopated_study3,s125,18.0,feminino,right,España,Catalan y Español,Upper secondary,no,no,A,1,what,L4,unsyncopated,s2,r2,117,Online_whatL4//d.pe.po27.222.444.wav,re,pe,po,sil2,ja,ña,ru,sil,nu,ci,sil1,"['catch', 'false alarm', 'false alarm']","[0.90300000000002, 1.4879999999999427, 2.3210000000000264]",[0.90300000000002],0.222,no_beat,0.68100000000002,0.68100000000002,"[""space"",""space"",""space""]",pe,4,,,,,,,,,,,,,,,3.0,2.0,Español,0.0,Catalan,0.0,Ingles,5.0,Gallego,8.0,1.0,6.0,yes,no,yes,Flauta,7,,,nada ,69.0,yes
118,2024-03-20_08h36.53.506,Unsyncopated_study3,s125,18.0,feminino,right,España,Catalan y Español,Upper secondary,no,no,A,1,what,L4,unsyncopated,s1,r2,118,Online_whatL4//d.pe.po24.1110.1332.wav,ja,re,bu,sil,nu,pe,po,sil2,ci,ru,sil1,['miss'],,,1.11,no_beat,,,,pe,4,,,,,,,,,,,,,,,3.0,2.0,Español,0.0,Catalan,0.0,Ingles,5.0,Gallego,8.0,1.0,6.0,yes,no,yes,Flauta,7,,,nada ,69.0,yes
119,2024-03-20_08h36.53.506,Unsyncopated_study3,s125,18.0,feminino,right,España,Catalan y Español,Upper secondary,no,no,A,1,what,L4,unsyncopated,s2,r2,119,Online_whatL4//d.pe.po26.none.none.wav,ru,da,ñi,sil,ja,bu,re,sil1,nu,de,sil2,['-'],,,none,none,,,,pe,4,,,,,,,,,,,,,,,3.0,2.0,Español,0.0,Catalan,0.0,Ingles,5.0,Gallego,8.0,1.0,6.0,yes,no,yes,Flauta,7,,,nada ,69.0,yes
120,2024-03-20_08h36.53.506,Unsyncopated_study3,s125,18.0,feminino,right,España,Catalan y Español,Upper secondary,no,no,A,1,what,L4,unsyncopated,s2,r1,120,Online_whatL4//a.zi.lo10.888.1776.wav,ña,ci,de,sil,zi,bu,re,sil1,lo,ñi,sil2,['catch_delay'],[1.1449999999999483],[1.1449999999999483],1.776,beat,1.1449999999999485,1.1449999999999485,,lo,2,,,,,,,,,,,,,,,3.0,2.0,Español,0.0,Catalan,0.0,Ingles,5.0,Gallego,8.0,1.0,6.0,yes,no,yes,Flauta,7,,,nada ,69.0,yes
121,2024-03-20_08h36.53.506,Unsyncopated_study3,s125,18.0,feminino,right,España,Catalan y Español,Upper secondary,no,no,A,1,what,L4,unsyncopated,s2,r2,121,Online_whatL4//a.zi.lo9.none.none.wav,pe,bu,ñi,sil2,ja,re,de,sil,nu,ña,sil1,['-'],[0.25699999999994816],[0.25699999999994816],none,none,,,"[""space""]",lo,2,,,,,,,,,,,,,,,3.0,2.0,Español,0.0,Catalan,0.0,Ingles,5.0,Gallego,8.0,1.0,6.0,yes,no,yes,Flauta,7,,,nada ,69.0,yes
122,2024-03-20_08h36.53.506,Unsyncopated_study3,s125,18.0,feminino,right,España,Catalan y Español,Upper secondary,no,no,A,1,what,L4,unsyncopated,s1,r2,122,Online_whatL4//a.zi.lo8.none.none.wav,ja,bo,ña,sil2,nu,po,pe,sil,de,ñi,sil1,['-'],,,none,none,,,,lo,2,,,,,,,,,,,,,,,3.0,2.0,Español,0.0,Catalan,0.0,Ingles,5.0,Gallego,8.0,1.0,6.0,yes,no,yes,Flauta,7,,,nada ,69.0,yes
123,2024-03-20_08h36.53.506,Unsyncopated_study3,s125,18.0,feminino,right,España,Catalan y Español,Upper secondary,no,no,A,1,what,L4,unsyncopated,s2,r2,123,Online_whatL4//a.zi.lo11.none.none.wav,ru,po,re,sil,ja,bo,ña,sil1,nu,de,sil2,['-'],,,none,none,,,,lo,2,,,,,,,,,,,,,,,3.0,2.0,Español,0.0,Catalan,0.0,Ingles,5.0,Gallego,8.0,1.0,6.0,yes,no,yes,Flauta,7,,,nada ,69.0,yes
124,2024-03-20_08h36.53.506,Unsyncopated_study3,s125,18.0,feminino,right,España,Catalan y Español,Upper secondary,no,no,A,1,what,L4,unsyncopated,s2,r2,124,Online_whatL4//b.ja.nu25.888.1998.wav,bu,ru,de,sil,ja,ñi,bo,sil2,nu,pe,sil1,['false alarm'],[0.7099999999999227],[0.7099999999999227],0.888,beat,,,"[""space""]",ja,1,,,,,,,,,,,,,,,3.0,2.0,Español,0.0,Catalan,0.0,Ingles,5.0,Gallego,8.0,1.0,6.0,yes,no,yes,Flauta,7,,,nada ,69.0,yes
125,2024-03-20_08h36.53.506,Unsyncopated_study3,s125,18.0,feminino,right,España,Catalan y Español,Upper secondary,no,no,A,1,what,L4,unsyncopated,s2,r2,125,Online_whatL4//b.ja.nu24.888.1998.wav,ñi,ru,bo,sil,ja,po,de,sil2,nu,da,sil1,['catch'],[1.90300000000002],[1.90300000000002],0.888,beat,1.01500000000002,1.01500000000002,"[""space""]",ja,1,,,,,,,,,,,,,,,3.0,2.0,Español,0.0,Catalan,0.0,Ingles,5.0,Gallego,8.0,1.0,6.0,yes,no,yes,Flauta,7,,,nada ,69.0,yes
126,2024-03-20_08h36.53.506,Unsyncopated_study3,s125,18.0,feminino,right,España,Catalan y Español,Upper secondary,no,no,A,1,what,L4,unsyncopated,s1,r2,126,Online_whatL4//b.ja.nu27.0.888.wav,ja,de,re,sil,nu,ci,pe,sil1,po,ñi,sil2,['miss'],,,0.0,beat,,,,ja,1,,,,,,,,,,,,,,,3.0,2.0,Español,0.0,Catalan,0.0,Ingles,5.0,Gallego,8.0,1.0,6.0,yes,no,yes,Flauta,7,,,nada ,69.0,yes
127,2024-03-20_08h36.53.506,Unsyncopated_study3,s125,18.0,feminino,right,España,Catalan y Español,Upper secondary,no,no,A,1,what,L4,unsyncopated,s2,r2,127,Online_whatL4//b.ja.nu26.888.1776.wav,da,ña,re,sil,ja,ci,bo,sil1,nu,bu,sil2,['miss'],,,0.888,beat,,,,ja,1,,,,,,,,,,,,,,,3.0,2.0,Español,0.0,Catalan,0.0,Ingles,5.0,Gallego,8.0,1.0,6.0,yes,no,yes,Flauta,7,,,nada ,69.0,yes
128,2024-03-20_08h36.53.506,Unsyncopated_study3,s125,18.0,feminino,right,España,Catalan y Español,Upper secondary,no,no,A,2,when,L1,unsyncopated,when,when,0,Online_whenL1//a.ki8.none.wav,ne,fo,zu,sil,pu,be,ni,sil1,ze,la,sil2,['-'],,,none,none,,,,ki,2,,,,,,,,,,,,,,,3.0,2.0,Español,0.0,Catalan,0.0,Ingles,5.0,Gallego,8.0,1.0,6.0,yes,no,yes,Flauta,7,,,nada ,69.0,yes
129,2024-03-20_08h36.53.506,Unsyncopated_study3,s125,18.0,feminino,right,España,Catalan y Español,Upper secondary,no,no,A,2,when,L1,unsyncopated,when,when,1,Online_whenL1//a.ki10.222.wav,ro,ki,be,sil,la,ri,lu,sil1,fo,fa,sil2,['catch'],[1.0920000000000982],[1.0920000000000982],0.222,no_beat,0.8700000000000983,0.8700000000000983,"[""space""]",ki,2,,,,,,,,,,,,,,,3.0,2.0,Español,0.0,Catalan,0.0,Ingles,5.0,Gallego,8.0,1.0,6.0,yes,no,yes,Flauta,7,,,nada ,69.0,yes
130,2024-03-20_08h36.53.506,Unsyncopated_study3,s125,18.0,feminino,right,España,Catalan y Español,Upper secondary,no,no,A,2,when,L1,unsyncopated,when,when,2,Online_whenL1//a.ki9.none.wav,la,ro,ze,sil,cho,fa,pu,sil1,ne,ta,sil2,['-'],,,none,none,,,,ki,2,,,,,,,,,,,,,,,3.0,2.0,Español,0.0,Catalan,0.0,Ingles,5.0,Gallego,8.0,1.0,6.0,yes,no,yes,Flauta,7,,,nada ,69.0,yes
131,2024-03-20_08h36.53.506,Unsyncopated_study3,s125,18.0,feminino,right,España,Catalan y Español,Upper secondary,no,no,A,2,when,L1,unsyncopated,when,when,3,Online_whenL1//a.ki11.none.wav,cho,la,pu,sil,zu,ta,ro,sil1,ni,ri,sil2,['-'],,,none,none,,,,ki,2,,,,,,,,,,,,,,,3.0,2.0,Español,0.0,Catalan,0.0,Ingles,5.0,Gallego,8.0,1.0,6.0,yes,no,yes,Flauta,7,,,nada ,69.0,yes
132,2024-03-20_08h36.53.506,Unsyncopated_study3,s125,18.0,feminino,right,España,Catalan y Español,Upper secondary,no,no,A,2,when,L1,unsyncopated,when,when,4,Online_whenL1//d.ne2.none.wav,lu,ze,ni,sil,pu,la,ri,sil1,ki,zu,sil2,"['false alarm', 'false alarm']","[1.0570000000000164, 2.105000000000018]",2.105000000000018,none,none,,,"[""space"",""space""]",ne,4,,,,,,,,,,,,,,,3.0,2.0,Español,0.0,Catalan,0.0,Ingles,5.0,Gallego,8.0,1.0,6.0,yes,no,yes,Flauta,7,,,nada ,69.0,yes
133,2024-03-20_08h36.53.506,Unsyncopated_study3,s125,18.0,feminino,right,España,Catalan y Español,Upper secondary,no,no,A,2,when,L1,unsyncopated,when,when,5,Online_whenL1//d.ne1.none.wav,pu,zu,fo,sil,ze,fa,ni,sil1,ta,lu,sil2,['false alarm'],[1.9359999999999218],[1.9359999999999218],none,none,,,"[""space""]",ne,4,,,,,,,,,,,,,,,3.0,2.0,Español,0.0,Catalan,0.0,Ingles,5.0,Gallego,8.0,1.0,6.0,yes,no,yes,Flauta,7,,,nada ,69.0,yes
134,2024-03-20_08h36.53.506,Unsyncopated_study3,s125,18.0,feminino,right,España,Catalan y Español,Upper secondary,no,no,A,2,when,L1,unsyncopated,when,when,6,Online_whenL1//d.ne3.none.wav,fo,la,be,sil,pu,fa,ni,sil1,lu,cho,sil2,['false alarm'],[1.8610000000001037],[1.8610000000001037],none,none,,,"[""space""]",ne,4,,,,,,,,,,,,,,,3.0,2.0,Español,0.0,Catalan,0.0,Ingles,5.0,Gallego,8.0,1.0,6.0,yes,no,yes,Flauta,7,,,nada ,69.0,yes
135,2024-03-20_08h36.53.506,Unsyncopated_study3,s125,18.0,feminino,right,España,Catalan y Español,Upper secondary,no,no,A,2,when,L1,unsyncopated,when,when,7,Online_whenL1//d.ne0.1110.wav,ze,fa,fo,sil,pu,ne,ta,sil1,la,ni,sil2,['catch'],[2.5519999999999072],[2.5519999999999072],1.11,no_beat,,1.4419999999999071,"[""space""]",ne,4,,,,,,,,,,,,,,,3.0,2.0,Español,0.0,Catalan,0.0,Ingles,5.0,Gallego,8.0,1.0,6.0,yes,no,yes,Flauta,7,,,nada ,69.0,yes
136,2024-03-20_08h36.53.506,Unsyncopated_study3,s125,18.0,feminino,right,España,Catalan y Español,Upper secondary,no,no,A,2,when,L1,unsyncopated,when,when,8,Online_whenL1//b.ta17.none.wav,ni,fo,zu,sil,be,ki,ze,sil1,ro,ri,sil2,['-'],,,none,none,,,,ta,1,,,,,,,,,,,,,,,3.0,2.0,Español,0.0,Catalan,0.0,Ingles,5.0,Gallego,8.0,1.0,6.0,yes,no,yes,Flauta,7,,,nada ,69.0,yes
137,2024-03-20_08h36.53.506,Unsyncopated_study3,s125,18.0,feminino,right,España,Catalan y Español,Upper secondary,no,no,A,2,when,L1,unsyncopated,when,when,9,Online_whenL1//b.ta18.0.wav,ta,ze,zu,sil,ri,ro,lu,sil1,pu,la,sil2,['catch'],[0.32100000000014006],[0.32100000000014006],0.0,beat,0.32100000000014,0.32100000000014,"[""space""]",ta,1,,,,,,,,,,,,,,,3.0,2.0,Español,0.0,Catalan,0.0,Ingles,5.0,Gallego,8.0,1.0,6.0,yes,no,yes,Flauta,7,,,nada ,69.0,yes
138,2024-03-20_08h36.53.506,Unsyncopated_study3,s125,18.0,feminino,right,España,Catalan y Español,Upper secondary,no,no,A,2,when,L1,unsyncopated,when,when,10,Online_whenL1//b.ta16.none.wav,ni,pu,fa,sil,ne,ki,cho,sil1,fo,ro,sil2,['false alarm'],[1.40300000000002],[1.40300000000002],none,none,,,"[""space""]",ta,1,,,,,,,,,,,,,,,3.0,2.0,Español,0.0,Catalan,0.0,Ingles,5.0,Gallego,8.0,1.0,6.0,yes,no,yes,Flauta,7,,,nada ,69.0,yes
139,2024-03-20_08h36.53.506,Unsyncopated_study3,s125,18.0,feminino,right,España,Catalan y Español,Upper secondary,no,no,A,2,when,L1,unsyncopated,when,when,11,Online_whenL1//b.ta19.none.wav,pu,fa,lu,sil,fo,cho,la,sil1,be,ri,sil2,['-'],,,none,none,,,,ta,1,,,,,,,,,,,,,,,3.0,2.0,Español,0.0,Catalan,0.0,Ingles,5.0,Gallego,8.0,1.0,6.0,yes,no,yes,Flauta,7,,,nada ,69.0,yes
140,2024-03-20_08h36.53.506,Unsyncopated_study3,s125,18.0,feminino,right,España,Catalan y Español,Upper secondary,no,no,A,2,when,L1,unsyncopated,when,when,12,Online_whenL1//b.ta12.1998.wav,lu,la,ro,sil,ne,zu,fo,sil1,ki,ta,sil2,['miss'],,,1.998,no_beat,,,,ta,1,,,,,,,,,,,,,,,3.0,2.0,Español,0.0,Catalan,0.0,Ingles,5.0,Gallego,8.0,1.0,6.0,yes,no,yes,Flauta,7,,,nada ,69.0,yes
141,2024-03-20_08h36.53.506,Unsyncopated_study3,s125,18.0,feminino,right,España,Catalan y Español,Upper secondary,no,no,A,2,when,L1,unsyncopated,when,when,13,Online_whenL1//b.ta14.none.wav,lu,fo,zu,sil,ni,be,cho,sil1,pu,ri,sil2,['-'],,,none,none,,,,ta,1,,,,,,,,,,,,,,,3.0,2.0,Español,0.0,Catalan,0.0,Ingles,5.0,Gallego,8.0,1.0,6.0,yes,no,yes,Flauta,7,,,nada ,69.0,yes
142,2024-03-20_08h36.53.506,Unsyncopated_study3,s125,18.0,feminino,right,España,Catalan y Español,Upper secondary,no,no,A,2,when,L1,unsyncopated,when,when,14,Online_whenL1//b.ta15.none.wav,fa,ro,la,sil,ki,ze,pu,sil1,ne,ri,sil2,['false alarm'],[0.6200000000001182],[0.6200000000001182],none,none,,,"[""space""]",ta,1,,,,,,,,,,,,,,,3.0,2.0,Español,0.0,Catalan,0.0,Ingles,5.0,Gallego,8.0,1.0,6.0,yes,no,yes,Flauta,7,,,nada ,69.0,yes
143,2024-03-20_08h36.53.506,Unsyncopated_study3,s125,18.0,feminino,right,España,Catalan y Español,Upper secondary,no,no,A,2,when,L1,unsyncopated,when,when,15,Online_whenL1//b.ta13.none.wav,pu,la,be,sil,zu,ze,ri,sil1,ne,ni,sil2,['false alarm'],[2.0700000000001637],[2.0700000000001637],none,none,,,"[""space""]",ta,1,,,,,,,,,,,,,,,3.0,2.0,Español,0.0,Catalan,0.0,Ingles,5.0,Gallego,8.0,1.0,6.0,yes,no,yes,Flauta,7,,,nada ,69.0,yes
144,2024-03-20_08h36.53.506,Unsyncopated_study3,s125,18.0,feminino,right,España,Catalan y Español,Upper secondary,no,no,A,2,when,L1,unsyncopated,when,when,16,Online_whenL1//c.ro23.1998.wav,cho,la,pu,sil,ri,fo,ta,sil1,lu,ro,sil2,['catch_delay'],[0.7020000000000584],[0.7020000000000584],1.998,no_beat,0.7020000000000584,0.7020000000000584,"[""space""]",ro,3,,,,,,,,,,,,,,,3.0,2.0,Español,0.0,Catalan,0.0,Ingles,5.0,Gallego,8.0,1.0,6.0,yes,no,yes,Flauta,7,,,nada ,69.0,yes
145,2024-03-20_08h36.53.506,Unsyncopated_study3,s125,18.0,feminino,right,España,Catalan y Español,Upper secondary,no,no,A,2,when,L1,unsyncopated,when,when,17,Online_whenL1//c.ro22.none.wav,cho,la,zu,sil,fa,fo,ta,sil1,ni,be,sil2,['-'],[0.03600000000005821],[0.03600000000005821],none,none,,,"[""space""]",ro,3,,,,,,,,,,,,,,,3.0,2.0,Español,0.0,Catalan,0.0,Ingles,5.0,Gallego,8.0,1.0,6.0,yes,no,yes,Flauta,7,,,nada ,69.0,yes
146,2024-03-20_08h36.53.506,Unsyncopated_study3,s125,18.0,feminino,right,España,Catalan y Español,Upper secondary,no,no,A,2,when,L1,unsyncopated,when,when,18,Online_whenL1//c.ro20.none.wav,cho,zu,ri,sil,la,be,ne,sil1,fa,ta,sil2,['-'],,,none,none,,,,ro,3,,,,,,,,,,,,,,,3.0,2.0,Español,0.0,Catalan,0.0,Ingles,5.0,Gallego,8.0,1.0,6.0,yes,no,yes,Flauta,7,,,nada ,69.0,yes
147,2024-03-20_08h36.53.506,Unsyncopated_study3,s125,18.0,feminino,right,España,Catalan y Español,Upper secondary,no,no,A,2,when,L1,unsyncopated,when,when,19,Online_whenL1//c.ro21.none.wav,ni,ta,ki,sil,fo,lu,cho,sil1,la,ne,sil2,['-'],,,none,none,,,,ro,3,,,,,,,,,,,,,,,3.0,2.0,Español,0.0,Catalan,0.0,Ingles,5.0,Gallego,8.0,1.0,6.0,yes,no,yes,Flauta,7,,,nada ,69.0,yes
148,2024-03-20_08h36.53.506,Unsyncopated_study3,s125,18.0,feminino,right,España,Catalan y Español,Upper secondary,no,no,A,2,when,L1,unsyncopated,when,when,20,Online_whenL1//c.ro13.none.wav,ne,lu,be,sil,fo,ki,ri,sil1,ni,cho,sil2,['-'],,,none,none,,,,ro,3,,,,,,,,,,,,,,,3.0,2.0,Español,0.0,Catalan,0.0,Ingles,5.0,Gallego,8.0,1.0,6.0,yes,no,yes,Flauta,7,,,nada ,69.0,yes
149,2024-03-20_08h36.53.506,Unsyncopated_study3,s125,18.0,feminino,right,España,Catalan y Español,Upper secondary,no,no,A,2,when,L1,unsyncopated,when,when,21,Online_whenL1//c.ro14.none.wav,zu,ki,fa,sil,pu,ni,lu,sil1,fo,la,sil2,['-'],,,none,none,,,,ro,3,,,,,,,,,,,,,,,3.0,2.0,Español,0.0,Catalan,0.0,Ingles,5.0,Gallego,8.0,1.0,6.0,yes,no,yes,Flauta,7,,,nada ,69.0,yes
150,2024-03-20_08h36.53.506,Unsyncopated_study3,s125,18.0,feminino,right,España,Catalan y Español,Upper secondary,no,no,A,2,when,L1,unsyncopated,when,when,22,Online_whenL1//c.ro12.444.wav,fa,la,ro,sil,ze,be,ki,sil1,fo,ni,sil2,['catch'],[0.9200000000000728],[0.9200000000000728],0.444,no_beat,0.4760000000000727,0.4760000000000727,"[""space""]",ro,3,,,,,,,,,,,,,,,3.0,2.0,Español,0.0,Catalan,0.0,Ingles,5.0,Gallego,8.0,1.0,6.0,yes,no,yes,Flauta,7,,,nada ,69.0,yes
151,2024-03-20_08h36.53.506,Unsyncopated_study3,s125,18.0,feminino,right,España,Catalan y Español,Upper secondary,no,no,A,2,when,L1,unsyncopated,when,when,23,Online_whenL1//c.ro15.0.wav,ro,ne,zu,sil,la,ri,pu,sil1,ki,ni,sil2,['catch'],[0.5769999999999982],[0.5769999999999982],0.0,beat,0.5769999999999982,0.5769999999999982,"[""space""]",ro,3,,,,,,,,,,,,,,,3.0,2.0,Español,0.0,Catalan,0.0,Ingles,5.0,Gallego,8.0,1.0,6.0,yes,no,yes,Flauta,7,,,nada ,69.0,yes
152,2024-03-20_08h36.53.506,Unsyncopated_study3,s125,18.0,feminino,right,España,Catalan y Español,Upper secondary,no,no,A,2,when,L1,unsyncopated,when,when,24,Online_whenL1//b.ta24.1998.wav,ro,lu,ki,sil,cho,ne,ri,sil1,ni,ta,sil2,['catch_delay'],[0.6720000000000856],[0.6720000000000856],1.998,no_beat,0.6720000000000856,0.6720000000000856,"[""space""]",ta,1,,,,,,,,,,,,,,,3.0,2.0,Español,0.0,Catalan,0.0,Ingles,5.0,Gallego,8.0,1.0,6.0,yes,no,yes,Flauta,7,,,nada ,69.0,yes
153,2024-03-20_08h36.53.506,Unsyncopated_study3,s125,18.0,feminino,right,España,Catalan y Español,Upper secondary,no,no,A,2,when,L1,unsyncopated,when,when,25,Online_whenL1//b.ta27.none.wav,be,fa,cho,sil,pu,ze,ni,sil1,lu,zu,sil2,['false alarm'],"[0.0060000000000854925, 1.6420000000000528]",1.6420000000000528,none,none,,,"[""space"",""space""]",ta,1,,,,,,,,,,,,,,,3.0,2.0,Español,0.0,Catalan,0.0,Ingles,5.0,Gallego,8.0,1.0,6.0,yes,no,yes,Flauta,7,,,nada ,69.0,yes
154,2024-03-20_08h36.53.506,Unsyncopated_study3,s125,18.0,feminino,right,España,Catalan y Español,Upper secondary,no,no,A,2,when,L1,unsyncopated,when,when,26,Online_whenL1//b.ta25.0.wav,ta,ne,ro,sil,fo,be,lu,sil1,zu,fa,sil2,['catch'],[0.6849999999999454],[0.6849999999999454],0.0,beat,0.6849999999999454,0.6849999999999454,"[""space""]",ta,1,,,,,,,,,,,,,,,3.0,2.0,Español,0.0,Catalan,0.0,Ingles,5.0,Gallego,8.0,1.0,6.0,yes,no,yes,Flauta,7,,,nada ,69.0,yes
155,2024-03-20_08h36.53.506,Unsyncopated_study3,s125,18.0,feminino,right,España,Catalan y Español,Upper secondary,no,no,A,2,when,L1,unsyncopated,when,when,27,Online_whenL1//b.ta26.888.wav,zu,la,be,sil,ta,ro,cho,sil1,fo,ne,sil2,['catch'],[1.3869999999999436],[1.3869999999999436],0.888,beat,0.4989999999999436,0.4989999999999436,"[""space""]",ta,1,,,,,,,,,,,,,,,3.0,2.0,Español,0.0,Catalan,0.0,Ingles,5.0,Gallego,8.0,1.0,6.0,yes,no,yes,Flauta,7,,,nada ,69.0,yes
156,2024-03-20_08h36.53.506,Unsyncopated_study3,s125,18.0,feminino,right,España,Catalan y Español,Upper secondary,no,no,A,2,when,L1,unsyncopated,when,when,28,Online_whenL1//b.ta31.none.wav,pu,lu,zu,sil,cho,la,ki,sil1,fa,ro,sil2,['-'],,,none,none,,,,ta,1,,,,,,,,,,,,,,,3.0,2.0,Español,0.0,Catalan,0.0,Ingles,5.0,Gallego,8.0,1.0,6.0,yes,no,yes,Flauta,7,,,nada ,69.0,yes
157,2024-03-20_08h36.53.506,Unsyncopated_study3,s125,18.0,feminino,right,España,Catalan y Español,Upper secondary,no,no,A,2,when,L1,unsyncopated,when,when,29,Online_whenL1//b.ta30.444.wav,lu,ze,ta,sil,ne,ni,fo,sil1,la,be,sil2,['catch'],[1.0190000000000055],[1.0190000000000055],0.444,no_beat,0.5750000000000055,0.5750000000000055,"[""space""]",ta,1,,,,,,,,,,,,,,,3.0,2.0,Español,0.0,Catalan,0.0,Ingles,5.0,Gallego,8.0,1.0,6.0,yes,no,yes,Flauta,7,,,nada ,69.0,yes
158,2024-03-20_08h36.53.506,Unsyncopated_study3,s125,18.0,feminino,right,España,Catalan y Español,Upper secondary,no,no,A,2,when,L1,unsyncopated,when,when,30,Online_whenL1//b.ta29.none.wav,ri,ki,cho,sil,lu,zu,ze,sil1,fo,pu,sil2,['-'],,,none,none,,,,ta,1,,,,,,,,,,,,,,,3.0,2.0,Español,0.0,Catalan,0.0,Ingles,5.0,Gallego,8.0,1.0,6.0,yes,no,yes,Flauta,7,,,nada ,69.0,yes
159,2024-03-20_08h36.53.506,Unsyncopated_study3,s125,18.0,feminino,right,España,Catalan y Español,Upper secondary,no,no,A,2,when,L1,unsyncopated,when,when,31,Online_whenL1//b.ta28.222.wav,la,ta,lu,sil,fo,ni,ro,sil1,ki,cho,sil2,['catch'],[0.6539999999999964],[0.6539999999999964],0.222,no_beat,0.4319999999999964,0.4319999999999964,"[""space""]",ta,1,,,,,,,,,,,,,,,3.0,2.0,Español,0.0,Catalan,0.0,Ingles,5.0,Gallego,8.0,1.0,6.0,yes,no,yes,Flauta,7,,,nada ,69.0,yes
160,2024-03-20_08h36.53.506,Unsyncopated_study3,s125,18.0,feminino,right,España,Catalan y Español,Upper secondary,no,no,A,2,when,L1,unsyncopated,when,when,32,Online_whenL1//b.ta11.none.wav,cho,pu,ri,sil,ro,zu,lu,sil1,ki,fa,sil2,['-'],,,none,none,,,,ta,1,,,,,,,,,,,,,,,3.0,2.0,Español,0.0,Catalan,0.0,Ingles,5.0,Gallego,8.0,1.0,6.0,yes,no,yes,Flauta,7,,,nada ,69.0,yes
161,2024-03-20_08h36.53.506,Unsyncopated_study3,s125,18.0,feminino,right,España,Catalan y Español,Upper secondary,no,no,A,2,when,L1,unsyncopated,when,when,33,Online_whenL1//b.ta9.0.wav,ta,ri,ni,sil,ki,ro,ze,sil1,lu,la,sil2,['catch'],[0.3830000000000382],[0.3830000000000382],0.0,beat,0.3830000000000382,0.3830000000000382,"[""space""]",ta,1,,,,,,,,,,,,,,,3.0,2.0,Español,0.0,Catalan,0.0,Ingles,5.0,Gallego,8.0,1.0,6.0,yes,no,yes,Flauta,7,,,nada ,69.0,yes
162,2024-03-20_08h36.53.506,Unsyncopated_study3,s125,18.0,feminino,right,España,Catalan y Español,Upper secondary,no,no,A,2,when,L1,unsyncopated,when,when,34,Online_whenL1//b.ta10.none.wav,lu,ro,la,sil,be,ze,ki,sil1,fo,ne,sil2,['-'],,,none,none,,,,ta,1,,,,,,,,,,,,,,,3.0,2.0,Español,0.0,Catalan,0.0,Ingles,5.0,Gallego,8.0,1.0,6.0,yes,no,yes,Flauta,7,,,nada ,69.0,yes
163,2024-03-20_08h36.53.506,Unsyncopated_study3,s125,18.0,feminino,right,España,Catalan y Español,Upper secondary,no,no,A,2,when,L1,unsyncopated,when,when,35,Online_whenL1//b.ta8.0.wav,ta,ki,lu,sil,cho,ne,ro,sil1,fo,ri,sil2,['catch'],[0.5670000000000073],[0.5670000000000073],0.0,beat,0.5670000000000073,0.5670000000000073,"[""space""]",ta,1,,,,,,,,,,,,,,,3.0,2.0,Español,0.0,Catalan,0.0,Ingles,5.0,Gallego,8.0,1.0,6.0,yes,no,yes,Flauta,7,,,nada ,69.0,yes
164,2024-03-20_08h36.53.506,Unsyncopated_study3,s125,18.0,feminino,right,España,Catalan y Español,Upper secondary,no,no,A,2,when,L1,unsyncopated,when,when,36,Online_whenL1//c.ro17.none.wav,la,ze,pu,sil,ki,cho,zu,sil1,fa,ne,sil2,['-'],,,none,none,,,,ro,3,,,,,,,,,,,,,,,3.0,2.0,Español,0.0,Catalan,0.0,Ingles,5.0,Gallego,8.0,1.0,6.0,yes,no,yes,Flauta,7,,,nada ,69.0,yes
165,2024-03-20_08h36.53.506,Unsyncopated_study3,s125,18.0,feminino,right,España,Catalan y Español,Upper secondary,no,no,A,2,when,L1,unsyncopated,when,when,37,Online_whenL1//c.ro18.none.wav,ki,ri,ni,sil,ne,ta,cho,sil1,fo,ze,sil2,['-'],,,none,none,,,,ro,3,,,,,,,,,,,,,,,3.0,2.0,Español,0.0,Catalan,0.0,Ingles,5.0,Gallego,8.0,1.0,6.0,yes,no,yes,Flauta,7,,,nada ,69.0,yes
166,2024-03-20_08h36.53.506,Unsyncopated_study3,s125,18.0,feminino,right,España,Catalan y Español,Upper secondary,no,no,A,2,when,L1,unsyncopated,when,when,38,Online_whenL1//c.ro16.1776.wav,fa,ne,zu,sil,ki,ta,ze,sil1,ro,cho,sil2,['catch'],[2.23700000000008],[2.23700000000008],1.776,beat,0.46100000000008,0.46100000000008,"[""space""]",ro,3,,,,,,,,,,,,,,,3.0,2.0,Español,0.0,Catalan,0.0,Ingles,5.0,Gallego,8.0,1.0,6.0,yes,no,yes,Flauta,7,,,nada ,69.0,yes
167,2024-03-20_08h36.53.506,Unsyncopated_study3,s125,18.0,feminino,right,España,Catalan y Español,Upper secondary,no,no,A,2,when,L1,unsyncopated,when,when,39,Online_whenL1//c.ro19.1332.wav,ze,be,pu,sil,ne,fo,ro,sil1,lu,cho,sil2,['false alarm'],[0.9039999999999964],[0.9039999999999964],1.332,no_beat,,,"[""space""]",ro,3,,,,,,,,,,,,,,,3.0,2.0,Español,0.0,Catalan,0.0,Ingles,5.0,Gallego,8.0,1.0,6.0,yes,no,yes,Flauta,7,,,nada ,69.0,yes
168,2024-03-20_08h36.53.506,Unsyncopated_study3,s125,18.0,feminino,right,España,Catalan y Español,Upper secondary,no,no,A,2,when,L1,unsyncopated,when,when,40,Online_whenL1//d.ne30.888.wav,cho,ta,la,sil,ne,zu,fa,sil1,be,ri,sil2,['catch'],[1.4110000000000582],[1.4110000000000582],0.888,beat,0.5230000000000582,0.5230000000000582,"[""space""]",ne,4,,,,,,,,,,,,,,,3.0,2.0,Español,0.0,Catalan,0.0,Ingles,5.0,Gallego,8.0,1.0,6.0,yes,no,yes,Flauta,7,,,nada ,69.0,yes
169,2024-03-20_08h36.53.506,Unsyncopated_study3,s125,18.0,feminino,right,España,Catalan y Español,Upper secondary,no,no,A,2,when,L1,unsyncopated,when,when,41,Online_whenL1//d.ne28.1332.wav,ta,ze,cho,sil,ro,zu,ne,sil1,ki,ri,sil2,['miss'],,,1.332,no_beat,,,,ne,4,,,,,,,,,,,,,,,3.0,2.0,Español,0.0,Catalan,0.0,Ingles,5.0,Gallego,8.0,1.0,6.0,yes,no,yes,Flauta,7,,,nada ,69.0,yes
170,2024-03-20_08h36.53.506,Unsyncopated_study3,s125,18.0,feminino,right,España,Catalan y Español,Upper secondary,no,no,A,2,when,L1,unsyncopated,when,when,42,Online_whenL1//d.ne31.1998.wav,ni,ta,la,sil,be,ze,lu,sil1,fa,ne,sil2,['catch'],[2.520999999999958],[2.520999999999958],1.998,no_beat,0.5229999999999582,0.5229999999999582,"[""space""]",ne,4,,,,,,,,,,,,,,,3.0,2.0,Español,0.0,Catalan,0.0,Ingles,5.0,Gallego,8.0,1.0,6.0,yes,no,yes,Flauta,7,,,nada ,69.0,yes
171,2024-03-20_08h36.53.506,Unsyncopated_study3,s125,18.0,feminino,right,España,Catalan y Español,Upper secondary,no,no,A,2,when,L1,unsyncopated,when,when,43,Online_whenL1//d.ne29.444.wav,lu,ri,ne,sil,zu,la,ze,sil1,pu,ki,sil2,['miss'],,,0.444,no_beat,,,,ne,4,,,,,,,,,,,,,,,3.0,2.0,Español,0.0,Catalan,0.0,Ingles,5.0,Gallego,8.0,1.0,6.0,yes,no,yes,Flauta,7,,,nada ,69.0,yes
172,2024-03-20_08h36.53.506,Unsyncopated_study3,s125,18.0,feminino,right,España,Catalan y Español,Upper secondary,no,no,A,2,when,L1,unsyncopated,when,when,44,Online_whenL1//a.ki4.222.wav,fa,ki,zu,sil,ni,ta,lu,sil1,ro,ri,sil2,['catch'],[1.1589999999998781],[1.1589999999998781],0.222,no_beat,0.9369999999998782,0.9369999999998782,"[""space""]",ki,2,,,,,,,,,,,,,,,3.0,2.0,Español,0.0,Catalan,0.0,Ingles,5.0,Gallego,8.0,1.0,6.0,yes,no,yes,Flauta,7,,,nada ,69.0,yes
173,2024-03-20_08h36.53.506,Unsyncopated_study3,s125,18.0,feminino,right,España,Catalan y Español,Upper secondary,no,no,A,2,when,L1,unsyncopated,when,when,45,Online_whenL1//a.ki6.none.wav,la,ri,ni,sil,pu,ro,ne,sil1,be,zu,sil2,['-'],,,none,none,,,,ki,2,,,,,,,,,,,,,,,3.0,2.0,Español,0.0,Catalan,0.0,Ingles,5.0,Gallego,8.0,1.0,6.0,yes,no,yes,Flauta,7,,,nada ,69.0,yes
174,2024-03-20_08h36.53.506,Unsyncopated_study3,s125,18.0,feminino,right,España,Catalan y Español,Upper secondary,no,no,A,2,when,L1,unsyncopated,when,when,46,Online_whenL1//a.ki5.none.wav,fo,be,lu,sil,ze,ro,cho,sil1,ta,zu,sil2,['-'],,,none,none,,,,ki,2,,,,,,,,,,,,,,,3.0,2.0,Español,0.0,Catalan,0.0,Ingles,5.0,Gallego,8.0,1.0,6.0,yes,no,yes,Flauta,7,,,nada ,69.0,yes
175,2024-03-20_08h36.53.506,Unsyncopated_study3,s125,18.0,feminino,right,España,Catalan y Español,Upper secondary,no,no,A,2,when,L1,unsyncopated,when,when,47,Online_whenL1//a.ki7.none.wav,cho,ro,ri,sil,pu,zu,fa,sil1,ni,be,sil2,['-'],,,none,none,,,,ki,2,,,,,,,,,,,,,,,3.0,2.0,Español,0.0,Catalan,0.0,Ingles,5.0,Gallego,8.0,1.0,6.0,yes,no,yes,Flauta,7,,,nada ,69.0,yes
176,2024-03-20_08h36.53.506,Unsyncopated_study3,s125,18.0,feminino,right,España,Catalan y Español,Upper secondary,no,no,A,2,when,L1,unsyncopated,when,when,48,Online_whenL1//b.ta6.none.wav,ze,zu,la,sil,ni,ri,ki,sil1,ro,pu,sil2,['-'],,,none,none,,,,ta,1,,,,,,,,,,,,,,,3.0,2.0,Español,0.0,Catalan,0.0,Ingles,5.0,Gallego,8.0,1.0,6.0,yes,no,yes,Flauta,7,,,nada ,69.0,yes
177,2024-03-20_08h36.53.506,Unsyncopated_study3,s125,18.0,feminino,right,España,Catalan y Español,Upper secondary,no,no,A,2,when,L1,unsyncopated,when,when,49,Online_whenL1//b.ta7.888.wav,lu,fa,fo,sil,ta,pu,ri,sil1,ni,ne,sil2,['catch'],[1.5209999999999582],[1.5209999999999582],0.888,beat,0.6329999999999582,0.6329999999999582,"[""space""]",ta,1,,,,,,,,,,,,,,,3.0,2.0,Español,0.0,Catalan,0.0,Ingles,5.0,Gallego,8.0,1.0,6.0,yes,no,yes,Flauta,7,,,nada ,69.0,yes
178,2024-03-20_08h36.53.506,Unsyncopated_study3,s125,18.0,feminino,right,España,Catalan y Español,Upper secondary,no,no,A,2,when,L1,unsyncopated,when,when,50,Online_whenL1//b.ta5.1332.wav,pu,ro,cho,sil,zu,fa,ta,sil1,ri,ne,sil2,['catch'],[1.9420000000000073],[1.9420000000000073],1.332,no_beat,0.6100000000000072,0.6100000000000072,"[""space""]",ta,1,,,,,,,,,,,,,,,3.0,2.0,Español,0.0,Catalan,0.0,Ingles,5.0,Gallego,8.0,1.0,6.0,yes,no,yes,Flauta,7,,,nada ,69.0,yes
179,2024-03-20_08h36.53.506,Unsyncopated_study3,s125,18.0,feminino,right,España,Catalan y Español,Upper secondary,no,no,A,2,when,L1,unsyncopated,when,when,51,Online_whenL1//b.ta4.1776.wav,ni,pu,ze,sil,fo,ro,ne,sil1,ta,zu,sil2,['catch'],[2.492999999999938],[2.492999999999938],1.776,beat,0.7169999999999381,0.7169999999999381,"[""space""]",ta,1,,,,,,,,,,,,,,,3.0,2.0,Español,0.0,Catalan,0.0,Ingles,5.0,Gallego,8.0,1.0,6.0,yes,no,yes,Flauta,7,,,nada ,69.0,yes
180,2024-03-20_08h36.53.506,Unsyncopated_study3,s125,18.0,feminino,right,España,Catalan y Español,Upper secondary,no,no,A,2,when,L1,unsyncopated,when,when,52,Online_whenL1//c.ro24.222.wav,fo,ro,ta,sil,fa,ne,cho,sil1,be,ze,sil2,['miss'],,,0.222,no_beat,,,,ro,3,,,,,,,,,,,,,,,3.0,2.0,Español,0.0,Catalan,0.0,Ingles,5.0,Gallego,8.0,1.0,6.0,yes,no,yes,Flauta,7,,,nada ,69.0,yes
181,2024-03-20_08h36.53.506,Unsyncopated_study3,s125,18.0,feminino,right,España,Catalan y Español,Upper secondary,no,no,A,2,when,L1,unsyncopated,when,when,53,Online_whenL1//c.ro25.none.wav,la,pu,cho,sil,ki,fo,ze,sil1,ne,ni,sil2,['-'],,,none,none,,,,ro,3,,,,,,,,,,,,,,,3.0,2.0,Español,0.0,Catalan,0.0,Ingles,5.0,Gallego,8.0,1.0,6.0,yes,no,yes,Flauta,7,,,nada ,69.0,yes
182,2024-03-20_08h36.53.506,Unsyncopated_study3,s125,18.0,feminino,right,España,Catalan y Español,Upper secondary,no,no,A,2,when,L1,unsyncopated,when,when,54,Online_whenL1//c.ro26.444.wav,ki,zu,ro,sil,cho,ta,ne,sil1,ri,fa,sil2,['catch'],[1.1620000000000346],[1.1620000000000346],0.444,no_beat,0.7180000000000346,0.7180000000000346,"[""space""]",ro,3,,,,,,,,,,,,,,,3.0,2.0,Español,0.0,Catalan,0.0,Ingles,5.0,Gallego,8.0,1.0,6.0,yes,no,yes,Flauta,7,,,nada ,69.0,yes
183,2024-03-20_08h36.53.506,Unsyncopated_study3,s125,18.0,feminino,right,España,Catalan y Español,Upper secondary,no,no,A,2,when,L1,unsyncopated,when,when,55,Online_whenL1//c.ro27.none.wav,ni,be,la,sil,lu,zu,ri,sil1,pu,ze,sil2,['-'],,,none,none,,,,ro,3,,,,,,,,,,,,,,,3.0,2.0,Español,0.0,Catalan,0.0,Ingles,5.0,Gallego,8.0,1.0,6.0,yes,no,yes,Flauta,7,,,nada ,69.0,yes
184,2024-03-20_08h36.53.506,Unsyncopated_study3,s125,18.0,feminino,right,España,Catalan y Español,Upper secondary,no,no,A,2,when,L1,unsyncopated,when,when,56,Online_whenL1//a.ki23.1110.wav,be,ri,zu,sil,ro,ki,ni,sil1,la,ne,sil2,['false alarm'],[0.6420000000000528],[0.6420000000000528],1.11,no_beat,,,"[""space""]",ki,2,,,,,,,,,,,,,,,3.0,2.0,Español,0.0,Catalan,0.0,Ingles,5.0,Gallego,8.0,1.0,6.0,yes,no,yes,Flauta,7,,,nada ,69.0,yes
185,2024-03-20_08h36.53.506,Unsyncopated_study3,s125,18.0,feminino,right,España,Catalan y Español,Upper secondary,no,no,A,2,when,L1,unsyncopated,when,when,57,Online_whenL1//a.ki20.0.wav,ki,ne,zu,sil,ri,ni,cho,sil1,lu,pu,sil2,['catch'],[0.5219999999999345],[0.5219999999999345],0.0,beat,0.5219999999999345,0.5219999999999345,"[""space""]",ki,2,,,,,,,,,,,,,,,3.0,2.0,Español,0.0,Catalan,0.0,Ingles,5.0,Gallego,8.0,1.0,6.0,yes,no,yes,Flauta,7,,,nada ,69.0,yes
186,2024-03-20_08h36.53.506,Unsyncopated_study3,s125,18.0,feminino,right,España,Catalan y Español,Upper secondary,no,no,A,2,when,L1,unsyncopated,when,when,58,Online_whenL1//a.ki21.0.wav,ki,ni,cho,sil,fo,ri,lu,sil1,ze,be,sil2,['miss'],,,0.0,beat,,,,ki,2,,,,,,,,,,,,,,,3.0,2.0,Español,0.0,Catalan,0.0,Ingles,5.0,Gallego,8.0,1.0,6.0,yes,no,yes,Flauta,7,,,nada ,69.0,yes
187,2024-03-20_08h36.53.506,Unsyncopated_study3,s125,18.0,feminino,right,España,Catalan y Español,Upper secondary,no,no,A,2,when,L1,unsyncopated,when,when,59,Online_whenL1//a.ki22.444.wav,zu,pu,ki,sil,ze,cho,ne,sil1,ni,ro,sil2,['catch'],[1.102999999999838],[1.102999999999838],0.444,no_beat,0.6589999999998382,0.6589999999998382,"[""space""]",ki,2,,,,,,,,,,,,,,,3.0,2.0,Español,0.0,Catalan,0.0,Ingles,5.0,Gallego,8.0,1.0,6.0,yes,no,yes,Flauta,7,,,nada ,69.0,yes
188,2024-03-20_08h36.53.506,Unsyncopated_study3,s125,18.0,feminino,right,España,Catalan y Español,Upper secondary,no,no,A,2,when,L1,unsyncopated,when,when,60,Online_whenL1//b.ta35.222.wav,fa,ta,ze,sil,fo,lu,ro,sil1,ni,be,sil2,['catch'],[0.7590000000000146],[0.7590000000000146],0.222,no_beat,0.5370000000000146,0.5370000000000146,"[""space""]",ta,1,,,,,,,,,,,,,,,3.0,2.0,Español,0.0,Catalan,0.0,Ingles,5.0,Gallego,8.0,1.0,6.0,yes,no,yes,Flauta,7,,,nada ,69.0,yes
189,2024-03-20_08h36.53.506,Unsyncopated_study3,s125,18.0,feminino,right,España,Catalan y Español,Upper secondary,no,no,A,2,when,L1,unsyncopated,when,when,61,Online_whenL1//b.ta33.none.wav,ro,cho,be,sil,la,pu,ri,sil1,lu,zu,sil2,['-'],,,none,none,,,,ta,1,,,,,,,,,,,,,,,3.0,2.0,Español,0.0,Catalan,0.0,Ingles,5.0,Gallego,8.0,1.0,6.0,yes,no,yes,Flauta,7,,,nada ,69.0,yes
190,2024-03-20_08h36.53.506,Unsyncopated_study3,s125,18.0,feminino,right,España,Catalan y Español,Upper secondary,no,no,A,2,when,L1,unsyncopated,when,when,62,Online_whenL1//b.ta32.none.wav,ki,ni,fo,sil,lu,zu,cho,sil1,be,ri,sil2,['-'],,,none,none,,,,ta,1,,,,,,,,,,,,,,,3.0,2.0,Español,0.0,Catalan,0.0,Ingles,5.0,Gallego,8.0,1.0,6.0,yes,no,yes,Flauta,7,,,nada ,69.0,yes
191,2024-03-20_08h36.53.506,Unsyncopated_study3,s125,18.0,feminino,right,España,Catalan y Español,Upper secondary,no,no,A,2,when,L1,unsyncopated,when,when,63,Online_whenL1//b.ta34.1110.wav,be,cho,la,sil,ro,ta,fo,sil1,lu,ni,sil2,['catch'],[2.3209999999999127],[2.3209999999999127],1.11,no_beat,,1.2109999999999126,"[""space""]",ta,1,,,,,,,,,,,,,,,3.0,2.0,Español,0.0,Catalan,0.0,Ingles,5.0,Gallego,8.0,1.0,6.0,yes,no,yes,Flauta,7,,,nada ,69.0,yes
192,2024-03-20_08h36.53.506,Unsyncopated_study3,s125,18.0,feminino,right,España,Catalan y Español,Upper secondary,no,no,A,2,when,L1,unsyncopated,when,when,64,Online_whenL1//d.ne16.1776.wav,cho,fo,ri,sil,lu,pu,zu,sil1,ne,be,sil2,['catch_delay'],[1.1750000000000347],[1.1750000000000347],1.776,beat,1.175000000000035,1.175000000000035,,ne,4,,,,,,,,,,,,,,,3.0,2.0,Español,0.0,Catalan,0.0,Ingles,5.0,Gallego,8.0,1.0,6.0,yes,no,yes,Flauta,7,,,nada ,69.0,yes
193,2024-03-20_08h36.53.506,Unsyncopated_study3,s125,18.0,feminino,right,España,Catalan y Español,Upper secondary,no,no,A,2,when,L1,unsyncopated,when,when,65,Online_whenL1//d.ne17.none.wav,fa,cho,ki,sil,la,ta,lu,sil1,fo,ni,sil2,['-'],[0.28700000000003456],[0.28700000000003456],none,none,,,"[""space""]",ne,4,,,,,,,,,,,,,,,3.0,2.0,Español,0.0,Catalan,0.0,Ingles,5.0,Gallego,8.0,1.0,6.0,yes,no,yes,Flauta,7,,,nada ,69.0,yes
194,2024-03-20_08h36.53.506,Unsyncopated_study3,s125,18.0,feminino,right,España,Catalan y Español,Upper secondary,no,no,A,2,when,L1,unsyncopated,when,when,66,Online_whenL1//d.ne18.1998.wav,fo,ri,be,sil,ki,ze,la,sil1,lu,ne,sil2,['miss'],,,1.998,no_beat,,,,ne,4,,,,,,,,,,,,,,,3.0,2.0,Español,0.0,Catalan,0.0,Ingles,5.0,Gallego,8.0,1.0,6.0,yes,no,yes,Flauta,7,,,nada ,69.0,yes
195,2024-03-20_08h36.53.506,Unsyncopated_study3,s125,18.0,feminino,right,España,Catalan y Español,Upper secondary,no,no,A,2,when,L1,unsyncopated,when,when,67,Online_whenL1//d.ne19.222.wav,ri,ne,ni,sil,cho,be,zu,sil1,pu,fa,sil2,['miss'],,,0.222,no_beat,,,,ne,4,,,,,,,,,,,,,,,3.0,2.0,Español,0.0,Catalan,0.0,Ingles,5.0,Gallego,8.0,1.0,6.0,yes,no,yes,Flauta,7,,,nada ,69.0,yes
196,2024-03-20_08h36.53.506,Unsyncopated_study3,s125,18.0,feminino,right,España,Catalan y Español,Upper secondary,no,no,A,2,when,L1,unsyncopated,when,when,68,Online_whenL1//a.ki24.none.wav,cho,ze,ni,sil,zu,la,ri,sil1,be,pu,sil2,['-'],,,none,none,,,,ki,2,,,,,,,,,,,,,,,3.0,2.0,Español,0.0,Catalan,0.0,Ingles,5.0,Gallego,8.0,1.0,6.0,yes,no,yes,Flauta,7,,,nada ,69.0,yes
197,2024-03-20_08h36.53.506,Unsyncopated_study3,s125,18.0,feminino,right,España,Catalan y Español,Upper secondary,no,no,A,2,when,L1,unsyncopated,when,when,69,Online_whenL1//a.ki27.none.wav,fa,fo,cho,sil,ze,ri,ta,sil1,pu,zu,sil2,['-'],,,none,none,,,,ki,2,,,,,,,,,,,,,,,3.0,2.0,Español,0.0,Catalan,0.0,Ingles,5.0,Gallego,8.0,1.0,6.0,yes,no,yes,Flauta,7,,,nada ,69.0,yes
198,2024-03-20_08h36.53.506,Unsyncopated_study3,s125,18.0,feminino,right,España,Catalan y Español,Upper secondary,no,no,A,2,when,L1,unsyncopated,when,when,70,Online_whenL1//a.ki25.none.wav,pu,lu,ni,sil,ro,ne,zu,sil1,la,ta,sil2,['-'],,,none,none,,,,ki,2,,,,,,,,,,,,,,,3.0,2.0,Español,0.0,Catalan,0.0,Ingles,5.0,Gallego,8.0,1.0,6.0,yes,no,yes,Flauta,7,,,nada ,69.0,yes
199,2024-03-20_08h36.53.506,Unsyncopated_study3,s125,18.0,feminino,right,España,Catalan y Español,Upper secondary,no,no,A,2,when,L1,unsyncopated,when,when,71,Online_whenL1//a.ki26.none.wav,fo,be,ne,sil,ta,ze,ri,sil1,la,cho,sil2,['-'],,,none,none,,,,ki,2,,,,,,,,,,,,,,,3.0,2.0,Español,0.0,Catalan,0.0,Ingles,5.0,Gallego,8.0,1.0,6.0,yes,no,yes,Flauta,7,,,nada ,69.0,yes
200,2024-03-20_08h36.53.506,Unsyncopated_study3,s125,18.0,feminino,right,España,Catalan y Español,Upper secondary,no,no,A,2,when,L1,unsyncopated,when,when,72,Online_whenL1//b.ta1.none.wav,ki,cho,fa,sil,ne,ze,ri,sil1,be,la,sil2,['false alarm'],[1.875],[1.875],none,none,,,"[""space""]",ta,1,,,,,,,,,,,,,,,3.0,2.0,Español,0.0,Catalan,0.0,Ingles,5.0,Gallego,8.0,1.0,6.0,yes,no,yes,Flauta,7,,,nada ,69.0,yes
201,2024-03-20_08h36.53.506,Unsyncopated_study3,s125,18.0,feminino,right,España,Catalan y Español,Upper secondary,no,no,A,2,when,L1,unsyncopated,when,when,73,Online_whenL1//b.ta3.222.wav,ri,ta,fo,sil,ro,ni,pu,sil1,zu,ne,sil2,['catch'],[0.7610000000001946],[0.7610000000001946],0.222,no_beat,0.5390000000001947,0.5390000000001947,"[""space""]",ta,1,,,,,,,,,,,,,,,3.0,2.0,Español,0.0,Catalan,0.0,Ingles,5.0,Gallego,8.0,1.0,6.0,yes,no,yes,Flauta,7,,,nada ,69.0,yes
202,2024-03-20_08h36.53.506,Unsyncopated_study3,s125,18.0,feminino,right,España,Catalan y Español,Upper secondary,no,no,A,2,when,L1,unsyncopated,when,when,74,Online_whenL1//b.ta0.none.wav,ri,lu,ze,sil,zu,la,pu,sil1,cho,be,sil2,['-'],,,none,none,,,,ta,1,,,,,,,,,,,,,,,3.0,2.0,Español,0.0,Catalan,0.0,Ingles,5.0,Gallego,8.0,1.0,6.0,yes,no,yes,Flauta,7,,,nada ,69.0,yes
203,2024-03-20_08h36.53.506,Unsyncopated_study3,s125,18.0,feminino,right,España,Catalan y Español,Upper secondary,no,no,A,2,when,L1,unsyncopated,when,when,75,Online_whenL1//b.ta2.1332.wav,zu,ni,pu,sil,ri,ne,ta,sil1,ze,fa,sil2,['catch'],[1.8050000000000637],[1.8050000000000637],1.332,no_beat,0.4730000000000636,0.4730000000000636,"[""space""]",ta,1,,,,,,,,,,,,,,,3.0,2.0,Español,0.0,Catalan,0.0,Ingles,5.0,Gallego,8.0,1.0,6.0,yes,no,yes,Flauta,7,,,nada ,69.0,yes
204,2024-03-20_08h36.53.506,Unsyncopated_study3,s125,18.0,feminino,right,España,Catalan y Español,Upper secondary,no,no,A,2,when,L1,unsyncopated,when,when,76,Online_whenL1//c.ro7.0.wav,ro,ta,pu,sil,fa,lu,fo,sil1,cho,ri,sil2,['catch'],[1.0109999999999673],[1.0109999999999673],0.0,beat,1.0109999999999673,1.0109999999999673,"[""space""]",ro,3,,,,,,,,,,,,,,,3.0,2.0,Español,0.0,Catalan,0.0,Ingles,5.0,Gallego,8.0,1.0,6.0,yes,no,yes,Flauta,7,,,nada ,69.0,yes
205,2024-03-20_08h36.53.506,Unsyncopated_study3,s125,18.0,feminino,right,España,Catalan y Español,Upper secondary,no,no,A,2,when,L1,unsyncopated,when,when,77,Online_whenL1//c.ro6.none.wav,ri,ze,ta,sil,ne,zu,lu,sil1,be,fo,sil2,['-'],,,none,none,,,,ro,3,,,,,,,,,,,,,,,3.0,2.0,Español,0.0,Catalan,0.0,Ingles,5.0,Gallego,8.0,1.0,6.0,yes,no,yes,Flauta,7,,,nada ,69.0,yes
206,2024-03-20_08h36.53.506,Unsyncopated_study3,s125,18.0,feminino,right,España,Catalan y Español,Upper secondary,no,no,A,2,when,L1,unsyncopated,when,when,78,Online_whenL1//c.ro4.0.wav,ro,ri,ni,sil,pu,be,la,sil1,fa,ze,sil2,['catch'],[0.49700000000007094],[0.49700000000007094],0.0,beat,0.4970000000000709,0.4970000000000709,"[""space""]",ro,3,,,,,,,,,,,,,,,3.0,2.0,Español,0.0,Catalan,0.0,Ingles,5.0,Gallego,8.0,1.0,6.0,yes,no,yes,Flauta,7,,,nada ,69.0,yes
207,2024-03-20_08h36.53.506,Unsyncopated_study3,s125,18.0,feminino,right,España,Catalan y Español,Upper secondary,no,no,A,2,when,L1,unsyncopated,when,when,79,Online_whenL1//c.ro5.none.wav,ni,zu,ze,sil,pu,be,fa,sil1,cho,fo,sil2,['-'],,,none,none,,,,ro,3,,,,,,,,,,,,,,,3.0,2.0,Español,0.0,Catalan,0.0,Ingles,5.0,Gallego,8.0,1.0,6.0,yes,no,yes,Flauta,7,,,nada ,69.0,yes
208,2024-03-20_08h36.53.506,Unsyncopated_study3,s125,18.0,feminino,right,España,Catalan y Español,Upper secondary,no,no,A,2,when,L1,unsyncopated,when,when,80,Online_whenL1//d.ne7.none.wav,ri,lu,ki,sil,zu,ni,ta,sil1,cho,ro,sil2,['-'],,,none,none,,,,ne,4,,,,,,,,,,,,,,,3.0,2.0,Español,0.0,Catalan,0.0,Ingles,5.0,Gallego,8.0,1.0,6.0,yes,no,yes,Flauta,7,,,nada ,69.0,yes
209,2024-03-20_08h36.53.506,Unsyncopated_study3,s125,18.0,feminino,right,España,Catalan y Español,Upper secondary,no,no,A,2,when,L1,unsyncopated,when,when,81,Online_whenL1//d.ne6.444.wav,fo,pu,ne,sil,cho,ro,lu,sil1,ki,zu,sil2,['catch'],[1.0699999999999363],[1.0699999999999363],0.444,no_beat,0.6259999999999364,0.6259999999999364,"[""space""]",ne,4,,,,,,,,,,,,,,,3.0,2.0,Español,0.0,Catalan,0.0,Ingles,5.0,Gallego,8.0,1.0,6.0,yes,no,yes,Flauta,7,,,nada ,69.0,yes
210,2024-03-20_08h36.53.506,Unsyncopated_study3,s125,18.0,feminino,right,España,Catalan y Español,Upper secondary,no,no,A,2,when,L1,unsyncopated,when,when,82,Online_whenL1//d.ne5.none.wav,zu,ta,lu,sil,la,ni,ri,sil1,fa,be,sil2,['-'],,,none,none,,,,ne,4,,,,,,,,,,,,,,,3.0,2.0,Español,0.0,Catalan,0.0,Ingles,5.0,Gallego,8.0,1.0,6.0,yes,no,yes,Flauta,7,,,nada ,69.0,yes
211,2024-03-20_08h36.53.506,Unsyncopated_study3,s125,18.0,feminino,right,España,Catalan y Español,Upper secondary,no,no,A,2,when,L1,unsyncopated,when,when,83,Online_whenL1//d.ne4.1998.wav,fo,ki,ta,sil,ri,cho,zu,sil1,ni,ne,sil2,['catch'],[2.3869999999999436],[2.3869999999999436],1.998,no_beat,0.3889999999999436,0.3889999999999436,"[""space""]",ne,4,,,,,,,,,,,,,,,3.0,2.0,Español,0.0,Catalan,0.0,Ingles,5.0,Gallego,8.0,1.0,6.0,yes,no,yes,Flauta,7,,,nada ,69.0,yes
212,2024-03-20_08h36.53.506,Unsyncopated_study3,s125,18.0,feminino,right,España,Catalan y Español,Upper secondary,no,no,A,2,when,L1,unsyncopated,when,when,84,Online_whenL1//a.ki18.444.wav,ni,fa,ki,sil,pu,ri,fo,sil1,zu,ne,sil2,"['catch', 'false alarm']","[1.5670000000000073, 2.2950000000000728]",[1.5670000000000073],0.444,no_beat,1.123000000000007,1.123000000000007,"[""space"",""space""]",ki,2,,,,,,,,,,,,,,,3.0,2.0,Español,0.0,Catalan,0.0,Ingles,5.0,Gallego,8.0,1.0,6.0,yes,no,yes,Flauta,7,,,nada ,69.0,yes
213,2024-03-20_08h36.53.506,Unsyncopated_study3,s125,18.0,feminino,right,España,Catalan y Español,Upper secondary,no,no,A,2,when,L1,unsyncopated,when,when,85,Online_whenL1//a.ki19.1998.wav,pu,ze,ro,sil,fo,zu,cho,sil1,fa,ki,sil2,['catch'],[2.508999999999787],[2.508999999999787],1.998,no_beat,0.5109999999997872,0.5109999999997872,"[""space""]",ki,2,,,,,,,,,,,,,,,3.0,2.0,Español,0.0,Catalan,0.0,Ingles,5.0,Gallego,8.0,1.0,6.0,yes,no,yes,Flauta,7,,,nada ,69.0,yes
214,2024-03-20_08h36.53.506,Unsyncopated_study3,s125,18.0,feminino,right,España,Catalan y Español,Upper secondary,no,no,A,2,when,L1,unsyncopated,when,when,86,Online_whenL1//a.ki16.888.wav,ni,ro,ta,sil,ki,lu,cho,sil1,fo,ri,sil2,['catch'],[1.3709999999998672],[1.3709999999998672],0.888,beat,0.4829999999998672,0.4829999999998672,"[""space""]",ki,2,,,,,,,,,,,,,,,3.0,2.0,Español,0.0,Catalan,0.0,Ingles,5.0,Gallego,8.0,1.0,6.0,yes,no,yes,Flauta,7,,,nada ,69.0,yes
