Unnamed: 0,date,expName,participant,age,sex,hand,residence,native_lang,education_level,lang_deficit,aud_deficit,group,block,condition,language,rhythm,rule structure online,rule type online,order_trial_on,trial_online,s1,s2,s3,s4,s5,s6,s7,s8,s9,s10,s11,catch_syll_resp,rts_syll_catch,clean_rts,time_syll,beat_no_beat,catch_rtsTR,catch_rts,syllable_catch.keys,cond_syll,syll_to_catch,test_offline,block_off,condition_off,rhythm_off,rule,rule_str_off,rule_norule,conds_offline,language_off,Partz_no_partm.keys,Partz_no_partm.rt,security_1_7.keys,accuracy,security_1_7.rt,n_lang,n_lang_used,lang_1,age_l1,lang_2,age_l2,lang_3,age_l3,lang_4,age_l4,ability_learn_l2,tendence_mix_lan,music_experience,muisc_use,partiture,instr_1,age_M1,preguntas_musica1,BMRQ_answer.response,final comment,BMRQ_Score,bilingual
0,2024-02-14_11h57.37.103,Unsyncopated_study2,s112,22.0,feminino,right,España,Español,Bachelor degree,no,no,A,1,conjunction_syn,L1,syncopated,s2,r2,0,Online_conjL1_syn//c.ro.fo10.222.444.wav,zu,ro,fo,ta,sil,ni,cho,be,sil1,ze,sil2,['catch'],[1.208700000000249],[1.208700000000249],0.222,no_beat,0.986700000000249,0.986700000000249,"[""space""]",ro,3,testConjL1Syn//r1.s1.0.wav,1.0,conjunction_syn,syncopated,a,s1,rule,rule,L1,z,1.0159,7.0,1.0,8.6802,4.0,2.0,Español,0.0,Catalán,6.0,Inglés,2.0,Alemán,17.0,5.0,3.0,yes,no,yes,piano,13,1. Cuando comparto música con alguien siento una complicidad especial con aquella persona.,3.0,"Después de dos lenguajes, fui a tomar agua para continuar atenta en los siguientes dos. ",49.0,yes
1,2024-02-14_11h57.37.103,Unsyncopated_study2,s112,22.0,feminino,right,España,Español,Bachelor degree,no,no,A,1,conjunction_syn,L1,syncopated,s1,r1,1,Online_conjL1_syn//c.ro.fo9.1554.1110.wav,pu,ni,lu,ki,sil,fo,fa,ro,sil1,ne,sil2,['catch'],[2.488199999999665],[2.488199999999665],1.554,no_beat,0.9341999999996652,0.9341999999996652,"[""space""]",ro,3,testConjL1Syn//dep_viol.r1.s2.0.wav,1.0,conjunction_syn,syncopated,a,s2,no_rule,dep,L1,m,2.4896,3.0,1.0,1.5602,4.0,2.0,Español,0.0,Catalán,6.0,Inglés,2.0,Alemán,17.0,5.0,3.0,yes,no,yes,piano,13,2. En mi tiempo libre apenas escucho música.,5.0,"Después de dos lenguajes, fui a tomar agua para continuar atenta en los siguientes dos. ",49.0,yes
2,2024-02-14_11h57.37.103,Unsyncopated_study2,s112,22.0,feminino,right,España,Español,Bachelor degree,no,no,A,1,conjunction_syn,L1,syncopated,s1,r2,2,Online_conjL1_syn//c.ro.fo8.444.1332.wav,ta,lu,ro,be,sil,ni,fo,zu,sil1,fa,sil2,['catch'],[1.30820000000017],[1.30820000000017],0.444,no_beat,0.8642000000001699,0.8642000000001699,"[""space""]",ro,3,testConjL1Syn//cat_viol.r1.s2.0.wav,1.0,conjunction_syn,syncopated,a,s2,no_rule,cat,L1,z,1.0399,6.0,0.0,2.6476,4.0,2.0,Español,0.0,Catalán,6.0,Inglés,2.0,Alemán,17.0,5.0,3.0,yes,no,yes,piano,13,3. Algunas canciones me ponen los pelos de punta,1.0,"Después de dos lenguajes, fui a tomar agua para continuar atenta en los siguientes dos. ",49.0,yes
3,2024-02-14_11h57.37.103,Unsyncopated_study2,s112,22.0,feminino,right,España,Español,Bachelor degree,no,no,A,1,conjunction_syn,L1,syncopated,s2,r1,3,Online_conjL1_syn//c.ro.fo11.none.none.wav,ze,zu,ni,pu,sil,la,cho,ki,sil1,ne,sil2,['-'],,,none,none,,,,ro,3,testConjL1Syn//r2.s1.2.wav,1.0,conjunction_syn,syncopated,b,s1,rule,rule,L1,z,1.0035,5.0,1.0,2.3873,4.0,2.0,Español,0.0,Catalán,6.0,Inglés,2.0,Alemán,17.0,5.0,3.0,yes,no,yes,piano,13,4. La música me hace compañía cuando estoy solo,4.0,"Después de dos lenguajes, fui a tomar agua para continuar atenta en los siguientes dos. ",49.0,yes
4,2024-02-14_11h57.37.103,Unsyncopated_study2,s112,22.0,feminino,right,España,Español,Bachelor degree,no,no,A,1,conjunction_syn,L1,syncopated,s2,r2,4,Online_conjL1_syn//d.ne.ni18.none.none.wav,lu,ri,cho,ta,sil,ze,ro,be,sil1,fo,sil2,['false alarm'],[0.8451000000001159],[0.8451000000001159],none,none,,,"[""space""]",ne,4,testConjL1Syn//cat_viol.r2.s1.0.wav,1.0,conjunction_syn,syncopated,b,s1,no_rule,cat,L1,m,0.8095,5.0,1.0,2.1924,4.0,2.0,Español,0.0,Catalán,6.0,Inglés,2.0,Alemán,17.0,5.0,3.0,yes,no,yes,piano,13,5. No me apetece bailar ni con la música que más me gusta,3.0,"Después de dos lenguajes, fui a tomar agua para continuar atenta en los siguientes dos. ",49.0,yes
5,2024-02-14_11h57.37.103,Unsyncopated_study2,s112,22.0,feminino,right,España,Español,Bachelor degree,no,no,A,1,conjunction_syn,L1,syncopated,s2,r2,5,Online_conjL1_syn//d.ne.ni17.none.none.wav,ze,lu,ri,ta,sil,fo,cho,be,sil1,fa,sil2,['-'],,,none,none,,,,ne,4,testConjL1Syn//r1.s1.2.wav,1.0,conjunction_syn,syncopated,a,s1,rule,rule,L1,z,0.8501,6.0,1.0,1.7649,4.0,2.0,Español,0.0,Catalán,6.0,Inglés,2.0,Alemán,17.0,5.0,3.0,yes,no,yes,piano,13,6. La música me hace conectar con la gente,3.0,"Después de dos lenguajes, fui a tomar agua para continuar atenta en los siguientes dos. ",49.0,yes
6,2024-02-14_11h57.37.103,Unsyncopated_study2,s112,22.0,feminino,right,España,Español,Bachelor degree,no,no,A,1,conjunction_syn,L1,syncopated,s1,r2,6,Online_conjL1_syn//d.ne.ni16.1332.222.wav,ta,ni,lu,be,sil,ri,ne,fo,sil1,ze,sil2,['catch'],[2.149000000000001],[2.149000000000001],1.332,no_beat,0.8170000000000008,0.8170000000000008,"[""space""]",ne,4,testConjL1Syn//r1.s2.2.wav,1.0,conjunction_syn,syncopated,a,s2,rule,rule,L1,z,1.378,7.0,1.0,1.5855,4.0,2.0,Español,0.0,Catalán,6.0,Inglés,2.0,Alemán,17.0,5.0,3.0,yes,no,yes,piano,13,7. Me informo sobre la música que me gusta.,2.0,"Después de dos lenguajes, fui a tomar agua para continuar atenta en los siguientes dos. ",49.0,yes
7,2024-02-14_11h57.37.103,Unsyncopated_study2,s112,22.0,feminino,right,España,Español,Bachelor degree,no,no,A,1,conjunction_syn,L1,syncopated,s2,r1,7,Online_conjL1_syn//d.ne.ni19.none.none.wav,la,ro,cho,pu,sil,ri,zu,ki,sil1,fo,sil2,['-'],,,none,none,,,,ne,4,testConjL1Syn//dep_viol.r1.s1.0.wav,1.0,conjunction_syn,syncopated,a,s1,no_rule,dep,L1,z,3.1011,3.0,0.0,0.7169,4.0,2.0,Español,0.0,Catalán,6.0,Inglés,2.0,Alemán,17.0,5.0,3.0,yes,no,yes,piano,13,8.Me emociono escuchando ciertas canciones.,1.0,"Después de dos lenguajes, fui a tomar agua para continuar atenta en los siguientes dos. ",49.0,yes
8,2024-02-14_11h57.37.103,Unsyncopated_study2,s112,22.0,feminino,right,España,Español,Bachelor degree,no,no,A,1,conjunction_syn,L1,syncopated,s1,r2,8,Online_conjL1_syn//b.ta.be28.0.666.wav,ta,fa,la,be,sil,zu,fo,ze,sil1,ro,sil2,['miss'],,,0.0,beat,,,,ta,1,testConjL1Syn//time_viol.r2.s1.0.wav,1.0,conjunction_syn,syncopated,b,s1,no_rule,time,L1,m,1.0303,4.0,1.0,1.5607,4.0,2.0,Español,0.0,Catalán,6.0,Inglés,2.0,Alemán,17.0,5.0,3.0,yes,no,yes,piano,13,9.La música me tranquiliza y me relaja.,4.0,"Después de dos lenguajes, fui a tomar agua para continuar atenta en los siguientes dos. ",49.0,yes
9,2024-02-14_11h57.37.103,Unsyncopated_study2,s112,22.0,feminino,right,España,Español,Bachelor degree,no,no,A,1,conjunction_syn,L1,syncopated,s2,r1,9,Online_conjL1_syn//b.ta.be30.none.none.wav,la,fo,fa,pu,sil,ro,ri,ki,sil1,ze,sil2,['-'],,,none,none,,,,ta,1,testConjL1Syn//dep_viol.r2.s2.0.wav,1.0,conjunction_syn,syncopated,b,s2,no_rule,dep,L1,z,1.4869,3.0,0.0,4.0957,4.0,2.0,Español,0.0,Catalán,6.0,Inglés,2.0,Alemán,17.0,5.0,3.0,yes,no,yes,piano,13,10.La música me hace bailar,2.0,"Después de dos lenguajes, fui a tomar agua para continuar atenta en los siguientes dos. ",49.0,yes
10,2024-02-14_11h57.37.103,Unsyncopated_study2,s112,22.0,feminino,right,España,Español,Bachelor degree,no,no,A,1,conjunction_syn,L1,syncopated,s1,r1,10,Online_conjL1_syn//b.ta.be29.none.none.wav,pu,ro,fa,ki,sil,zu,ni,la,sil1,ze,sil2,['-'],,,none,none,,,,ta,1,testConjL1Syn//time_viol.r1.s2.0.wav,1.0,conjunction_syn,syncopated,a,s2,no_rule,time,L1,z,1.1389,6.0,0.0,0.7872,4.0,2.0,Español,0.0,Catalán,6.0,Inglés,2.0,Alemán,17.0,5.0,3.0,yes,no,yes,piano,13,11.Busco novedades musicales continuamente,3.0,"Después de dos lenguajes, fui a tomar agua para continuar atenta en los siguientes dos. ",49.0,yes
11,2024-02-14_11h57.37.103,Unsyncopated_study2,s112,22.0,feminino,right,España,Español,Bachelor degree,no,no,A,1,conjunction_syn,L1,syncopated,s1,r2,11,Online_conjL1_syn//b.ta.be31.0.666.wav,ta,fo,cho,be,sil,lu,ri,zu,sil1,la,sil2,['catch'],[0.9319000000003825],[0.9319000000003825],0.0,beat,0.9319000000003824,0.9319000000003824,"[""space""]",ta,1,testConjL1Syn//r2.s2.0.wav,1.0,conjunction_syn,syncopated,b,s2,rule,rule,L1,z,0.7055,4.0,1.0,0.6114,4.0,2.0,Español,0.0,Catalán,6.0,Inglés,2.0,Alemán,17.0,5.0,3.0,yes,no,yes,piano,13,12. Puedo llorar cuando escucho algunas melodías que me gustan mucho.,0.0,"Después de dos lenguajes, fui a tomar agua para continuar atenta en los siguientes dos. ",49.0,yes
12,2024-02-14_11h57.37.103,Unsyncopated_study2,s112,22.0,feminino,right,España,Español,Bachelor degree,no,no,A,1,conjunction_syn,L1,syncopated,s2,r2,12,Online_conjL1_syn//a.pu.ki6.none.none.wav,ne,ni,la,ta,sil,zu,cho,be,sil1,ze,sil2,['-'],,,none,none,,,,ki,2,testConjL1Syn//r1.s2.1.wav,1.0,conjunction_syn,syncopated,a,s2,rule,rule,L1,z,1.5648,3.0,1.0,1.3172,4.0,2.0,Español,0.0,Catalán,6.0,Inglés,2.0,Alemán,17.0,5.0,3.0,yes,no,yes,piano,13,13. Me gusta cantar o tocar un instrumento con más gente,0.0,"Después de dos lenguajes, fui a tomar agua para continuar atenta en los siguientes dos. ",49.0,yes
13,2024-02-14_11h57.37.103,Unsyncopated_study2,s112,22.0,feminino,right,España,Español,Bachelor degree,no,no,A,1,conjunction_syn,L1,syncopated,s1,r1,13,Online_conjL1_syn//a.pu.ki5.0.666.wav,pu,ne,ro,ki,sil,cho,ri,fa,sil1,lu,sil2,['catch'],[1.505899999999997],[1.505899999999997],0.666,no_beat,0.8398999999999969,0.8398999999999969,"[""space""]",ki,2,testConjL1Syn//time_viol.r2.s2.0.wav,1.0,conjunction_syn,syncopated,b,s2,no_rule,time,L1,m,1.4899,6.0,1.0,1.6791,4.0,2.0,Español,0.0,Catalán,6.0,Inglés,2.0,Alemán,17.0,5.0,3.0,yes,no,yes,piano,13,14. La música me ayuda a desconectar.,4.0,"Después de dos lenguajes, fui a tomar agua para continuar atenta en los siguientes dos. ",49.0,yes
14,2024-02-14_11h57.37.103,Unsyncopated_study2,s112,22.0,feminino,right,España,Español,Bachelor degree,no,no,A,1,conjunction_syn,L1,syncopated,s1,r1,14,Online_conjL1_syn//a.pu.ki7.0.666.wav,pu,ri,zu,ki,sil,ne,ze,cho,sil1,la,sil2,['miss'],,,0.666,no_beat,,,,ki,2,testConjL1Syn//r1.s2.0.wav,1.0,conjunction_syn,syncopated,a,s2,rule,rule,L1,z,0.4549,6.0,1.0,1.543,4.0,2.0,Español,0.0,Catalán,6.0,Inglés,2.0,Alemán,17.0,5.0,3.0,yes,no,yes,piano,13,15. No puedo evitar tararear las canciones que me gustan cuando las escucho.,3.0,"Después de dos lenguajes, fui a tomar agua para continuar atenta en los siguientes dos. ",49.0,yes
15,2024-02-14_11h57.37.103,Unsyncopated_study2,s112,22.0,feminino,right,España,Español,Bachelor degree,no,no,A,1,conjunction_syn,L1,syncopated,s1,r2,15,Online_conjL1_syn//a.pu.ki4.none.none.wav,ta,ze,ri,be,sil,zu,fo,ne,sil1,lu,sil2,['-'],,,none,none,,,,ki,2,testConjL1Syn//time_viol.r1.s1.0.wav,1.0,conjunction_syn,syncopated,a,s1,no_rule,time,L1,m,3.7073,6.0,1.0,3.058,4.0,2.0,Español,0.0,Catalán,6.0,Inglés,2.0,Alemán,17.0,5.0,3.0,yes,no,yes,piano,13,16. En los conciertos me siento en sintonía con los artistas y el público.,4.0,"Después de dos lenguajes, fui a tomar agua para continuar atenta en los siguientes dos. ",49.0,yes
16,2024-02-14_11h57.37.103,Unsyncopated_study2,s112,22.0,feminino,right,España,Español,Bachelor degree,no,no,A,1,conjunction_syn,L1,syncopated,s1,r2,16,Online_conjL1_syn//d.ne.ni10.none.none.wav,ta,ze,fo,be,sil,ro,zu,ri,sil1,lu,sil2,['-'],,,none,none,,,,ne,4,testConjL1Syn//r2.s1.1.wav,1.0,conjunction_syn,syncopated,b,s1,rule,rule,L1,m,1.2131,6.0,0.0,1.3466,4.0,2.0,Español,0.0,Catalán,6.0,Inglés,2.0,Alemán,17.0,5.0,3.0,yes,no,yes,piano,13,17. Me gasto bastante dinero en música y cosas relacionadas con la música.,1.0,"Después de dos lenguajes, fui a tomar agua para continuar atenta en los siguientes dos. ",49.0,yes
17,2024-02-14_11h57.37.103,Unsyncopated_study2,s112,22.0,feminino,right,España,Español,Bachelor degree,no,no,A,1,conjunction_syn,L1,syncopated,s1,r1,17,Online_conjL1_syn//d.ne.ni11.222.1332.wav,pu,ne,ri,ki,sil,la,ni,cho,sil1,ro,sil2,['catch'],[1.0222000000002254],[1.0222000000002254],0.222,no_beat,0.8002000000002254,0.8002000000002254,"[""space""]",ne,4,testConjL1Syn//r2.s2.1.wav,1.0,conjunction_syn,syncopated,b,s2,rule,rule,L1,z,0.4019,7.0,1.0,0.8634,4.0,2.0,Español,0.0,Catalán,6.0,Inglés,2.0,Alemán,17.0,5.0,3.0,yes,no,yes,piano,13,18. Siento escalofríos cuando escucho una melodía que me gusta.,0.0,"Después de dos lenguajes, fui a tomar agua para continuar atenta en los siguientes dos. ",49.0,yes
18,2024-02-14_11h57.37.103,Unsyncopated_study2,s112,22.0,feminino,right,España,Español,Bachelor degree,no,no,A,1,conjunction_syn,L1,syncopated,s2,r1,18,Online_conjL1_syn//d.ne.ni8.222.444.wav,fo,ne,ni,pu,sil,ri,ze,ki,sil1,ro,sil2,['miss'],,,0.222,no_beat,,,,ne,4,testConjL1Syn//r2.s2.2.wav,1.0,conjunction_syn,syncopated,b,s2,rule,rule,L1,m,0.9692,3.0,0.0,0.5286,4.0,2.0,Español,0.0,Catalán,6.0,Inglés,2.0,Alemán,17.0,5.0,3.0,yes,no,yes,piano,13,19. Con la música me puedo desahogar.,3.0,"Después de dos lenguajes, fui a tomar agua para continuar atenta en los siguientes dos. ",49.0,yes
19,2024-02-14_11h57.37.103,Unsyncopated_study2,s112,22.0,feminino,right,España,Español,Bachelor degree,no,no,A,1,conjunction_syn,L1,syncopated,s2,r2,19,Online_conjL1_syn//d.ne.ni9.0.444.wav,ne,fo,ni,ta,sil,lu,ri,be,sil1,cho,sil2,['catch'],[1.0364999999999327],[1.0364999999999327],0.0,beat,1.0364999999999327,1.0364999999999327,"[""space""]",ne,4,testConjL1Syn//dep_viol.r2.s1.0.wav,1.0,conjunction_syn,syncopated,b,s1,no_rule,dep,L1,z,1.0812,6.0,0.0,0.9762,4.0,2.0,Español,0.0,Catalán,6.0,Inglés,2.0,Alemán,17.0,5.0,3.0,yes,no,yes,piano,13,20. Cuando escucho una melodía que me gusta mucho no puedo evitar mover el cuerpo.,3.0,"Después de dos lenguajes, fui a tomar agua para continuar atenta en los siguientes dos. ",49.0,yes
20,2024-02-14_11h57.37.103,Unsyncopated_study2,s112,22.0,feminino,right,España,Español,Bachelor degree,no,no,A,1,conjunction_syn,L1,syncopated,s1,r1,20,Online_conjL1_syn//a.pu.ki8.0.666.wav,pu,ze,ni,ki,sil,ne,ro,ri,sil1,fa,sil2,['catch'],[1.485700000000179],[1.485700000000179],0.666,no_beat,0.819700000000179,0.819700000000179,"[""space""]",ki,2,testConjL1Syn//cat_viol.r2.s2.0.wav,1.0,conjunction_syn,syncopated,b,s2,no_rule,cat,L1,m,0.4604,4.0,1.0,3.0064,4.0,2.0,Español,0.0,Catalán,6.0,Inglés,2.0,Alemán,17.0,5.0,3.0,yes,no,yes,piano,13,,,"Después de dos lenguajes, fui a tomar agua para continuar atenta en los siguientes dos. ",49.0,yes
21,2024-02-14_11h57.37.103,Unsyncopated_study2,s112,22.0,feminino,right,España,Español,Bachelor degree,no,no,A,1,conjunction_syn,L1,syncopated,s1,r1,21,Online_conjL1_syn//a.pu.ki10.0.666.wav,pu,ro,cho,ki,sil,zu,la,fa,sil1,ne,sil2,['miss'],,,0.666,no_beat,,,,ki,2,testConjL1Syn//r2.s1.0.wav,1.0,conjunction_syn,syncopated,b,s1,rule,rule,L1,z,0.7056,6.0,1.0,0.8864,4.0,2.0,Español,0.0,Catalán,6.0,Inglés,2.0,Alemán,17.0,5.0,3.0,yes,no,yes,piano,13,,,"Después de dos lenguajes, fui a tomar agua para continuar atenta en los siguientes dos. ",49.0,yes
22,2024-02-14_11h57.37.103,Unsyncopated_study2,s112,22.0,feminino,right,España,Español,Bachelor degree,no,no,A,1,conjunction_syn,L1,syncopated,s1,r1,22,Online_conjL1_syn//a.pu.ki11.0.666.wav,pu,fa,ri,ki,sil,lu,cho,zu,sil1,ni,sil2,['catch'],[1.6408999999998741],[1.6408999999998741],0.666,no_beat,0.974899999999874,0.974899999999874,"[""space""]",ki,2,testConjL1Syn//cat_viol.r1.s1.0.wav,1.0,conjunction_syn,syncopated,a,s1,no_rule,cat,L1,m,5.0514,3.0,1.0,1.0785,4.0,2.0,Español,0.0,Catalán,6.0,Inglés,2.0,Alemán,17.0,5.0,3.0,yes,no,yes,piano,13,,,"Después de dos lenguajes, fui a tomar agua para continuar atenta en los siguientes dos. ",49.0,yes
23,2024-02-14_11h57.37.103,Unsyncopated_study2,s112,22.0,feminino,right,España,Español,Bachelor degree,no,no,A,1,conjunction_syn,L1,syncopated,s2,r2,23,Online_conjL1_syn//a.pu.ki9.none.none.wav,fa,ne,cho,ta,sil,ni,zu,be,sil1,lu,sil2,['-'],,,none,none,,,,ki,2,testConjL1Syn//r1.s1.1.wav,1.0,conjunction_syn,syncopated,a,s1,rule,rule,L1,z,0.3467,7.0,1.0,0.5942,4.0,2.0,Español,0.0,Catalán,6.0,Inglés,2.0,Alemán,17.0,5.0,3.0,yes,no,yes,piano,13,,,"Después de dos lenguajes, fui a tomar agua para continuar atenta en los siguientes dos. ",49.0,yes
24,2024-02-14_11h57.37.103,Unsyncopated_study2,s112,22.0,feminino,right,España,Español,Bachelor degree,no,no,A,1,conjunction_syn,L1,syncopated,s1,r2,24,Online_conjL1_syn//b.ta.be14.0.666.wav,ta,la,fa,be,sil,ni,fo,ro,sil1,lu,sil2,['catch'],[0.8403000000002976],[0.8403000000002976],0.0,beat,0.8403000000002976,0.8403000000002976,"[""space""]",ta,1,testConjL2Uns//r1.s1.0.wav,2.0,conjunction_un,unsyncopated,a,s1,rule,rule,L2,m,0.76,6.0,0.0,2.0163,4.0,2.0,Español,0.0,Catalán,6.0,Inglés,2.0,Alemán,17.0,5.0,3.0,yes,no,yes,piano,13,,,"Después de dos lenguajes, fui a tomar agua para continuar atenta en los siguientes dos. ",49.0,yes
25,2024-02-14_11h57.37.103,Unsyncopated_study2,s112,22.0,feminino,right,España,Español,Bachelor degree,no,no,A,1,conjunction_syn,L1,syncopated,s1,r2,25,Online_conjL1_syn//b.ta.be13.0.666.wav,ta,ni,fo,be,sil,ze,ne,fa,sil1,ri,sil2,['miss'],,,0.0,beat,,,,ta,1,testConjL2Uns//cat_viol.r2.s1.0.wav,2.0,conjunction_un,unsyncopated,b,s1,no_rule,cat,L2,z,0.8711,7.0,0.0,1.2208,4.0,2.0,Español,0.0,Catalán,6.0,Inglés,2.0,Alemán,17.0,5.0,3.0,yes,no,yes,piano,13,,,"Después de dos lenguajes, fui a tomar agua para continuar atenta en los siguientes dos. ",49.0,yes
26,2024-02-14_11h57.37.103,Unsyncopated_study2,s112,22.0,feminino,right,España,Español,Bachelor degree,no,no,A,1,conjunction_syn,L1,syncopated,s2,r1,26,Online_conjL1_syn//b.ta.be15.none.none.wav,la,ni,lu,pu,sil,ri,cho,ki,sil1,fa,sil2,['-'],,,none,none,,,,ta,1,testConjL2Uns//r1.s1.1.wav,2.0,conjunction_un,unsyncopated,a,s1,rule,rule,L2,z,0.9115,4.0,1.0,0.612,4.0,2.0,Español,0.0,Catalán,6.0,Inglés,2.0,Alemán,17.0,5.0,3.0,yes,no,yes,piano,13,,,"Después de dos lenguajes, fui a tomar agua para continuar atenta en los siguientes dos. ",49.0,yes
27,2024-02-14_11h57.37.103,Unsyncopated_study2,s112,22.0,feminino,right,España,Español,Bachelor degree,no,no,A,1,conjunction_syn,L1,syncopated,s1,r1,27,Online_conjL1_syn//b.ta.be12.none.none.wav,pu,ro,lu,ki,sil,ri,fa,ni,sil1,cho,sil2,['-'],,,none,none,,,,ta,1,testConjL2Uns//r2.s1.1.wav,2.0,conjunction_un,unsyncopated,b,s1,rule,rule,L2,z,0.9879,3.0,1.0,0.5755,4.0,2.0,Español,0.0,Catalán,6.0,Inglés,2.0,Alemán,17.0,5.0,3.0,yes,no,yes,piano,13,,,"Después de dos lenguajes, fui a tomar agua para continuar atenta en los siguientes dos. ",49.0,yes
28,2024-02-14_11h57.37.103,Unsyncopated_study2,s112,22.0,feminino,right,España,Español,Bachelor degree,no,no,A,1,conjunction_syn,L1,syncopated,s1,r1,28,Online_conjL1_syn//d.ne.ni4.222.1332.wav,pu,ne,cho,ki,sil,ri,ni,ro,sil1,zu,sil2,['catch'],[0.925600000000145],[0.925600000000145],0.222,no_beat,0.703600000000145,0.703600000000145,"[""space""]",ne,4,testConjL2Uns//cat_viol.r1.s1.0.wav,2.0,conjunction_un,unsyncopated,a,s1,no_rule,cat,L2,m,1.6932,2.0,1.0,0.9362,4.0,2.0,Español,0.0,Catalán,6.0,Inglés,2.0,Alemán,17.0,5.0,3.0,yes,no,yes,piano,13,,,"Después de dos lenguajes, fui a tomar agua para continuar atenta en los siguientes dos. ",49.0,yes
29,2024-02-14_11h57.37.103,Unsyncopated_study2,s112,22.0,feminino,right,España,Español,Bachelor degree,no,no,A,1,conjunction_syn,L1,syncopated,s1,r1,29,Online_conjL1_syn//d.ne.ni7.444.1110.wav,pu,lu,ne,ki,sil,ni,ri,ze,sil1,zu,sil2,['miss'],,,0.444,no_beat,,,,ne,4,testConjL2Uns//time_viol.r1.s1.0.wav,2.0,conjunction_un,unsyncopated,a,s1,no_rule,time,L2,z,0.9425,6.0,0.0,0.8275,4.0,2.0,Español,0.0,Catalán,6.0,Inglés,2.0,Alemán,17.0,5.0,3.0,yes,no,yes,piano,13,,,"Después de dos lenguajes, fui a tomar agua para continuar atenta en los siguientes dos. ",49.0,yes
30,2024-02-14_11h57.37.103,Unsyncopated_study2,s112,22.0,feminino,right,España,Español,Bachelor degree,no,no,A,1,conjunction_syn,L1,syncopated,s1,r2,30,Online_conjL1_syn//d.ne.ni6.444.1110.wav,ta,zu,ne,be,sil,ni,ze,la,sil1,fa,sil2,['catch'],[1.2892000000001644],[1.2892000000001644],0.444,no_beat,0.8452000000001645,0.8452000000001645,"[""space""]",ne,4,testConjL2Uns//time_viol.r2.s2.0.wav,2.0,conjunction_un,unsyncopated,b,s2,no_rule,time,L2,m,0.7059,2.0,1.0,0.8125,4.0,2.0,Español,0.0,Catalán,6.0,Inglés,2.0,Alemán,17.0,5.0,3.0,yes,no,yes,piano,13,,,"Después de dos lenguajes, fui a tomar agua para continuar atenta en los siguientes dos. ",49.0,yes
31,2024-02-14_11h57.37.103,Unsyncopated_study2,s112,22.0,feminino,right,España,Español,Bachelor degree,no,no,A,1,conjunction_syn,L1,syncopated,s2,r1,31,Online_conjL1_syn//d.ne.ni5.none.none.wav,zu,ri,ze,pu,sil,cho,fa,ki,sil1,la,sil2,['-'],,,none,none,,,,ne,4,testConjL2Uns//cat_viol.r2.s2.0.wav,2.0,conjunction_un,unsyncopated,b,s2,no_rule,cat,L2,z,1.2186,6.0,0.0,1.1015,4.0,2.0,Español,0.0,Catalán,6.0,Inglés,2.0,Alemán,17.0,5.0,3.0,yes,no,yes,piano,13,,,"Después de dos lenguajes, fui a tomar agua para continuar atenta en los siguientes dos. ",49.0,yes
32,2024-02-14_11h57.37.103,Unsyncopated_study2,s112,22.0,feminino,right,España,Español,Bachelor degree,no,no,A,1,conjunction_syn,L1,syncopated,s2,r1,32,Online_conjL1_syn//c.ro.fo5.1332.0.wav,fo,zu,cho,pu,sil,ni,ro,ki,sil1,fa,sil2,['catch'],[2.102100000000064],[2.102100000000064],1.332,no_beat,0.770100000000064,0.770100000000064,"[""space""]",ro,3,testConjL2Uns//r1.s2.1.wav,2.0,conjunction_un,unsyncopated,a,s2,rule,rule,L2,m,3.7041,2.0,0.0,0.4752,4.0,2.0,Español,0.0,Catalán,6.0,Inglés,2.0,Alemán,17.0,5.0,3.0,yes,no,yes,piano,13,,,"Después de dos lenguajes, fui a tomar agua para continuar atenta en los siguientes dos. ",49.0,yes
33,2024-02-14_11h57.37.103,Unsyncopated_study2,s112,22.0,feminino,right,España,Español,Bachelor degree,no,no,A,1,conjunction_syn,L1,syncopated,s1,r2,33,Online_conjL1_syn//c.ro.fo4.444.1110.wav,ta,ze,ro,be,sil,fo,ni,cho,sil1,zu,sil2,['catch'],[1.4089999999999918],[1.4089999999999918],0.444,no_beat,0.964999999999992,0.964999999999992,"[""space""]",ro,3,testConjL2Uns//r2.s2.1.wav,2.0,conjunction_un,unsyncopated,b,s2,rule,rule,L2,z,0.537,6.0,1.0,1.0106,4.0,2.0,Español,0.0,Catalán,6.0,Inglés,2.0,Alemán,17.0,5.0,3.0,yes,no,yes,piano,13,,,"Después de dos lenguajes, fui a tomar agua para continuar atenta en los siguientes dos. ",49.0,yes
34,2024-02-14_11h57.37.103,Unsyncopated_study2,s112,22.0,feminino,right,España,Español,Bachelor degree,no,no,A,1,conjunction_syn,L1,syncopated,s1,r1,34,Online_conjL1_syn//c.ro.fo7.none.none.wav,pu,zu,la,ki,sil,ze,ne,lu,sil1,ri,sil2,['-'],,,none,none,,,,ro,3,testConjL2Uns//dep_viol.r2.s2.0.wav,2.0,conjunction_un,unsyncopated,b,s2,no_rule,dep,L2,z,0.4388,5.0,0.0,0.5221,4.0,2.0,Español,0.0,Catalán,6.0,Inglés,2.0,Alemán,17.0,5.0,3.0,yes,no,yes,piano,13,,,"Después de dos lenguajes, fui a tomar agua para continuar atenta en los siguientes dos. ",49.0,yes
35,2024-02-14_11h57.37.103,Unsyncopated_study2,s112,22.0,feminino,right,España,Español,Bachelor degree,no,no,A,1,conjunction_syn,L1,syncopated,s1,r2,35,Online_conjL1_syn//c.ro.fo6.none.none.wav,ta,fa,ni,be,sil,la,ne,cho,sil1,ze,sil2,['-'],,,none,none,,,,ro,3,testConjL2Uns//r1.s2.0.wav,2.0,conjunction_un,unsyncopated,a,s2,rule,rule,L2,z,0.5614,2.0,1.0,4.4872,4.0,2.0,Español,0.0,Catalán,6.0,Inglés,2.0,Alemán,17.0,5.0,3.0,yes,no,yes,piano,13,,,"Después de dos lenguajes, fui a tomar agua para continuar atenta en los siguientes dos. ",49.0,yes
36,2024-02-14_11h57.37.103,Unsyncopated_study2,s112,22.0,feminino,right,España,Español,Bachelor degree,no,no,A,1,conjunction_syn,L1,syncopated,s2,r2,36,Online_conjL1_syn//d.ne.ni20.none.none.wav,ze,lu,ro,ta,sil,fa,ri,be,sil1,cho,sil2,['false alarm'],[0.7986999999998261],[0.7986999999998261],none,none,,,"[""space""]",ne,4,testConjL2Uns//r1.s1.2.wav,2.0,conjunction_un,unsyncopated,a,s1,rule,rule,L2,m,2.5009,4.0,0.0,1.385,4.0,2.0,Español,0.0,Catalán,6.0,Inglés,2.0,Alemán,17.0,5.0,3.0,yes,no,yes,piano,13,,,"Después de dos lenguajes, fui a tomar agua para continuar atenta en los siguientes dos. ",49.0,yes
37,2024-02-14_11h57.37.103,Unsyncopated_study2,s112,22.0,feminino,right,España,Español,Bachelor degree,no,no,A,1,conjunction_syn,L1,syncopated,s2,r2,37,Online_conjL1_syn//d.ne.ni22.1110.0.wav,ni,ze,lu,ta,sil,ne,cho,be,sil1,zu,sil2,['miss'],,,1.11,no_beat,,,,ne,4,testConjL2Uns//r2.s1.0.wav,2.0,conjunction_un,unsyncopated,b,s1,rule,rule,L2,z,0.7792,6.0,1.0,0.4879,4.0,2.0,Español,0.0,Catalán,6.0,Inglés,2.0,Alemán,17.0,5.0,3.0,yes,no,yes,piano,13,,,"Después de dos lenguajes, fui a tomar agua para continuar atenta en los siguientes dos. ",49.0,yes
38,2024-02-14_11h57.37.103,Unsyncopated_study2,s112,22.0,feminino,right,España,Español,Bachelor degree,no,no,A,1,conjunction_syn,L1,syncopated,s1,r1,38,Online_conjL1_syn//d.ne.ni21.none.none.wav,pu,lu,fo,ki,sil,ze,cho,ro,sil1,zu,sil2,['-'],,,none,none,,,,ne,4,testConjL2Uns//r1.s2.2.wav,2.0,conjunction_un,unsyncopated,a,s2,rule,rule,L2,m,0.6835,2.0,0.0,0.7877,4.0,2.0,Español,0.0,Catalán,6.0,Inglés,2.0,Alemán,17.0,5.0,3.0,yes,no,yes,piano,13,,,"Después de dos lenguajes, fui a tomar agua para continuar atenta en los siguientes dos. ",49.0,yes
39,2024-02-14_11h57.37.103,Unsyncopated_study2,s112,22.0,feminino,right,España,Español,Bachelor degree,no,no,A,1,conjunction_syn,L1,syncopated,s2,r1,39,Online_conjL1_syn//d.ne.ni23.0.444.wav,ne,fo,ni,pu,sil,ri,fa,ki,sil1,lu,sil2,['catch'],[1.167299999999841],[1.167299999999841],0.0,beat,1.167299999999841,1.167299999999841,"[""space""]",ne,4,testConjL2Uns//r2.s1.2.wav,2.0,conjunction_un,unsyncopated,b,s1,rule,rule,L2,m,0.7165,5.0,0.0,1.8454,4.0,2.0,Español,0.0,Catalán,6.0,Inglés,2.0,Alemán,17.0,5.0,3.0,yes,no,yes,piano,13,,,"Después de dos lenguajes, fui a tomar agua para continuar atenta en los siguientes dos. ",49.0,yes
40,2024-02-14_11h57.37.103,Unsyncopated_study2,s112,22.0,feminino,right,España,Español,Bachelor degree,no,no,A,1,conjunction_syn,L1,syncopated,s2,r1,40,Online_conjL1_syn//a.pu.ki25.666.1554.wav,cho,la,ro,pu,sil,ze,ne,ki,sil1,ri,sil2,['catch'],[2.344200000000228],[2.344200000000228],1.554,no_beat,0.790200000000228,0.790200000000228,"[""space""]",ki,2,testConjL2Uns//time_viol.r1.s2.0.wav,2.0,conjunction_un,unsyncopated,a,s2,no_rule,time,L2,m,0.5704,2.0,1.0,0.371,4.0,2.0,Español,0.0,Catalán,6.0,Inglés,2.0,Alemán,17.0,5.0,3.0,yes,no,yes,piano,13,,,"Después de dos lenguajes, fui a tomar agua para continuar atenta en los siguientes dos. ",49.0,yes
41,2024-02-14_11h57.37.103,Unsyncopated_study2,s112,22.0,feminino,right,España,Español,Bachelor degree,no,no,A,1,conjunction_syn,L1,syncopated,s1,r2,41,Online_conjL1_syn//a.pu.ki26.none.none.wav,ta,zu,lu,be,sil,ro,la,ri,sil1,fa,sil2,['-'],,,none,none,,,,ki,2,testConjL2Uns//dep_viol.r2.s1.0.wav,2.0,conjunction_un,unsyncopated,b,s1,no_rule,dep,L2,z,0.3901,6.0,0.0,0.3697,4.0,2.0,Español,0.0,Catalán,6.0,Inglés,2.0,Alemán,17.0,5.0,3.0,yes,no,yes,piano,13,,,"Después de dos lenguajes, fui a tomar agua para continuar atenta en los siguientes dos. ",49.0,yes
42,2024-02-14_11h57.37.103,Unsyncopated_study2,s112,22.0,feminino,right,España,Español,Bachelor degree,no,no,A,1,conjunction_syn,L1,syncopated,s1,r1,42,Online_conjL1_syn//a.pu.ki27.0.666.wav,pu,ze,lu,ki,sil,cho,fa,fo,sil1,ni,sil2,['catch'],[1.4646999999996524],[1.4646999999996524],0.666,no_beat,0.7986999999996524,0.7986999999996524,"[""space""]",ki,2,testConjL2Uns//dep_viol.r1.s1.0.wav,2.0,conjunction_un,unsyncopated,a,s1,no_rule,dep,L2,z,0.4989,5.0,0.0,0.3503,4.0,2.0,Español,0.0,Catalán,6.0,Inglés,2.0,Alemán,17.0,5.0,3.0,yes,no,yes,piano,13,,,"Después de dos lenguajes, fui a tomar agua para continuar atenta en los siguientes dos. ",49.0,yes
43,2024-02-14_11h57.37.103,Unsyncopated_study2,s112,22.0,feminino,right,España,Español,Bachelor degree,no,no,A,1,conjunction_syn,L1,syncopated,s1,r2,43,Online_conjL1_syn//a.pu.ki24.none.none.wav,ta,ne,la,be,sil,ri,fa,ze,sil1,zu,sil2,['-'],,,none,none,,,,ki,2,testConjL2Uns//time_viol.r2.s1.0.wav,2.0,conjunction_un,unsyncopated,b,s1,no_rule,time,L2,z,1.6154,5.0,0.0,0.5812,4.0,2.0,Español,0.0,Catalán,6.0,Inglés,2.0,Alemán,17.0,5.0,3.0,yes,no,yes,piano,13,,,"Después de dos lenguajes, fui a tomar agua para continuar atenta en los siguientes dos. ",49.0,yes
44,2024-02-14_11h57.37.103,Unsyncopated_study2,s112,22.0,feminino,right,España,Español,Bachelor degree,no,no,A,1,conjunction_syn,L1,syncopated,s2,r1,44,Online_conjL1_syn//c.ro.fo3.none.none.wav,lu,ni,ze,pu,sil,ne,ri,ki,sil1,cho,sil2,['-'],,,none,none,,,,ro,3,testConjL2Uns//r2.s2.2.wav,2.0,conjunction_un,unsyncopated,b,s2,rule,rule,L2,m,0.754,2.0,0.0,0.6633,4.0,2.0,Español,0.0,Catalán,6.0,Inglés,2.0,Alemán,17.0,5.0,3.0,yes,no,yes,piano,13,,,"Después de dos lenguajes, fui a tomar agua para continuar atenta en los siguientes dos. ",49.0,yes
45,2024-02-14_11h57.37.103,Unsyncopated_study2,s112,22.0,feminino,right,España,Español,Bachelor degree,no,no,A,1,conjunction_syn,L1,syncopated,s1,r2,45,Online_conjL1_syn//c.ro.fo2.none.none.wav,ta,ze,ni,be,sil,zu,cho,lu,sil1,la,sil2,['-'],,,none,none,,,,ro,3,testConjL2Uns//r2.s2.0.wav,2.0,conjunction_un,unsyncopated,b,s2,rule,rule,L2,z,0.9497,7.0,1.0,0.6667,4.0,2.0,Español,0.0,Catalán,6.0,Inglés,2.0,Alemán,17.0,5.0,3.0,yes,no,yes,piano,13,,,"Después de dos lenguajes, fui a tomar agua para continuar atenta en los siguientes dos. ",49.0,yes
46,2024-02-14_11h57.37.103,Unsyncopated_study2,s112,22.0,feminino,right,España,Español,Bachelor degree,no,no,A,1,conjunction_syn,L1,syncopated,s2,r1,46,Online_conjL1_syn//c.ro.fo0.444.1110.wav,fa,la,ro,pu,sil,fo,lu,ki,sil1,ze,sil2,['catch'],[1.361800000000244],[1.361800000000244],0.444,no_beat,0.917800000000244,0.917800000000244,"[""space""]",ro,3,testConjL2Uns//cat_viol.r1.s2.0.wav,2.0,conjunction_un,unsyncopated,a,s2,no_rule,cat,L2,z,1.0626,6.0,0.0,0.5749,4.0,2.0,Español,0.0,Catalán,6.0,Inglés,2.0,Alemán,17.0,5.0,3.0,yes,no,yes,piano,13,,,"Después de dos lenguajes, fui a tomar agua para continuar atenta en los siguientes dos. ",49.0,yes
47,2024-02-14_11h57.37.103,Unsyncopated_study2,s112,22.0,feminino,right,España,Español,Bachelor degree,no,no,A,1,conjunction_syn,L1,syncopated,s1,r2,47,Online_conjL1_syn//c.ro.fo1.none.none.wav,ta,ni,lu,be,sil,zu,ze,fa,sil1,la,sil2,['-'],,,none,none,,,,ro,3,testConjL2Uns//dep_viol.r1.s2.0.wav,2.0,conjunction_un,unsyncopated,a,s2,no_rule,dep,L2,m,0.5401,2.0,1.0,0.2337,4.0,2.0,Español,0.0,Catalán,6.0,Inglés,2.0,Alemán,17.0,5.0,3.0,yes,no,yes,piano,13,,,"Después de dos lenguajes, fui a tomar agua para continuar atenta en los siguientes dos. ",49.0,yes
48,2024-02-14_11h57.37.103,Unsyncopated_study2,s112,22.0,feminino,right,España,Español,Bachelor degree,no,no,A,1,conjunction_syn,L1,syncopated,s2,r2,48,Online_conjL1_syn//a.pu.ki31.none.none.wav,lu,fo,fa,ta,sil,ro,ni,be,sil1,la,sil2,['-'],,,none,none,,,,ki,2,testWhatL3Uns//time_viol.r1.s2.0.wav,3.0,what,unsyncopated,a,s2,no_rule,time,L3,m,1.1714,7.0,1.0,1.2313,4.0,2.0,Español,0.0,Catalán,6.0,Inglés,2.0,Alemán,17.0,5.0,3.0,yes,no,yes,piano,13,,,"Después de dos lenguajes, fui a tomar agua para continuar atenta en los siguientes dos. ",49.0,yes
49,2024-02-14_11h57.37.103,Unsyncopated_study2,s112,22.0,feminino,right,España,Español,Bachelor degree,no,no,A,1,conjunction_syn,L1,syncopated,s2,r1,49,Online_conjL1_syn//a.pu.ki28.666.1554.wav,cho,ro,fo,pu,sil,ze,ni,ki,sil1,zu,sil2,['catch'],[2.436699999999746],[2.436699999999746],1.554,no_beat,0.882699999999746,0.882699999999746,"[""space""]",ki,2,testWhatL3Uns//r1.s2.2.wav,3.0,what,unsyncopated,a,s2,rule,rule,L3,z,0.4388,5.0,1.0,1.2198,4.0,2.0,Español,0.0,Catalán,6.0,Inglés,2.0,Alemán,17.0,5.0,3.0,yes,no,yes,piano,13,,,"Después de dos lenguajes, fui a tomar agua para continuar atenta en los siguientes dos. ",49.0,yes
50,2024-02-14_11h57.37.103,Unsyncopated_study2,s112,22.0,feminino,right,España,Español,Bachelor degree,no,no,A,1,conjunction_syn,L1,syncopated,s1,r2,50,Online_conjL1_syn//a.pu.ki30.none.none.wav,ta,fa,ro,be,sil,ni,zu,la,sil1,ze,sil2,['-'],,,none,none,,,,ki,2,testWhatL3Uns//dep_viol.r1.s2.0.wav,3.0,what,unsyncopated,a,s2,no_rule,dep,L3,z,0.6328,3.0,0.0,0.9012,4.0,2.0,Español,0.0,Catalán,6.0,Inglés,2.0,Alemán,17.0,5.0,3.0,yes,no,yes,piano,13,,,"Después de dos lenguajes, fui a tomar agua para continuar atenta en los siguientes dos. ",49.0,yes
51,2024-02-14_11h57.37.103,Unsyncopated_study2,s112,22.0,feminino,right,España,Español,Bachelor degree,no,no,A,1,conjunction_syn,L1,syncopated,s2,r1,51,Online_conjL1_syn//a.pu.ki29.666.1554.wav,ze,ne,ro,pu,sil,lu,la,ki,sil1,fo,sil2,['miss'],,,1.554,no_beat,,,,ki,2,testWhatL3Uns//r2.s1.0.wav,3.0,what,unsyncopated,b,s1,rule,rule,L3,m,0.8446,5.0,0.0,2.0993,4.0,2.0,Español,0.0,Catalán,6.0,Inglés,2.0,Alemán,17.0,5.0,3.0,yes,no,yes,piano,13,,,"Después de dos lenguajes, fui a tomar agua para continuar atenta en los siguientes dos. ",49.0,yes
52,2024-02-14_11h57.37.103,Unsyncopated_study2,s112,22.0,feminino,right,España,Español,Bachelor degree,no,no,A,1,conjunction_syn,L1,syncopated,s1,r2,52,Online_conjL1_syn//a.pu.ki0.none.none.wav,ta,la,ni,be,sil,fa,lu,ro,sil1,fo,sil2,['false alarm'],[0.3277000000002772],[0.3277000000002772],none,none,,,"[""space""]",ki,2,testWhatL3Uns//time_viol.r2.s1.0.wav,3.0,what,unsyncopated,b,s1,no_rule,time,L3,z,0.2278,6.0,0.0,0.575,4.0,2.0,Español,0.0,Catalán,6.0,Inglés,2.0,Alemán,17.0,5.0,3.0,yes,no,yes,piano,13,,,"Después de dos lenguajes, fui a tomar agua para continuar atenta en los siguientes dos. ",49.0,yes
53,2024-02-14_11h57.37.103,Unsyncopated_study2,s112,22.0,feminino,right,España,Español,Bachelor degree,no,no,A,1,conjunction_syn,L1,syncopated,s2,r2,53,Online_conjL1_syn//a.pu.ki2.none.none.wav,ne,ro,ri,ta,sil,fa,ze,be,sil1,la,sil2,['-'],,,none,none,,,,ki,2,testWhatL3Uns//cat_viol.r2.s1.0.wav,3.0,what,unsyncopated,b,s1,no_rule,cat,L3,z,0.6475,6.0,0.0,0.4615,4.0,2.0,Español,0.0,Catalán,6.0,Inglés,2.0,Alemán,17.0,5.0,3.0,yes,no,yes,piano,13,,,"Después de dos lenguajes, fui a tomar agua para continuar atenta en los siguientes dos. ",49.0,yes
54,2024-02-14_11h57.37.103,Unsyncopated_study2,s112,22.0,feminino,right,España,Español,Bachelor degree,no,no,A,1,conjunction_syn,L1,syncopated,s1,r1,54,Online_conjL1_syn//a.pu.ki3.0.666.wav,pu,zu,la,ki,sil,fa,cho,ri,sil1,ro,sil2,['miss'],,,0.666,no_beat,,,,ki,2,testWhatL3Uns//r2.s2.2.wav,3.0,what,unsyncopated,b,s2,rule,rule,L3,z,2.1864,4.0,1.0,1.2056,4.0,2.0,Español,0.0,Catalán,6.0,Inglés,2.0,Alemán,17.0,5.0,3.0,yes,no,yes,piano,13,,,"Después de dos lenguajes, fui a tomar agua para continuar atenta en los siguientes dos. ",49.0,yes
55,2024-02-14_11h57.37.103,Unsyncopated_study2,s112,22.0,feminino,right,España,Español,Bachelor degree,no,no,A,1,conjunction_syn,L1,syncopated,s2,r1,55,Online_conjL1_syn//a.pu.ki1.666.1554.wav,ni,fo,fa,pu,sil,zu,lu,ki,sil1,ne,sil2,['miss'],,,1.554,no_beat,,,,ki,2,testWhatL3Uns//cat_viol.r2.s2.0.wav,3.0,what,unsyncopated,b,s2,no_rule,cat,L3,z,0.4227,6.0,0.0,0.4584,4.0,2.0,Español,0.0,Catalán,6.0,Inglés,2.0,Alemán,17.0,5.0,3.0,yes,no,yes,piano,13,,,"Después de dos lenguajes, fui a tomar agua para continuar atenta en los siguientes dos. ",49.0,yes
56,2024-02-14_11h57.37.103,Unsyncopated_study2,s112,22.0,feminino,right,España,Español,Bachelor degree,no,no,A,1,conjunction_syn,L1,syncopated,s2,r2,56,Online_conjL1_syn//b.ta.be0.666.1554.wav,cho,fa,fo,ta,sil,zu,la,be,sil1,ne,sil2,['catch'],[1.5339999999999918],[1.5339999999999918],0.666,no_beat,0.8679999999999918,0.8679999999999918,"[""space""]",ta,1,testWhatL3Uns//cat_viol.r1.s2.0.wav,3.0,what,unsyncopated,a,s2,no_rule,cat,L3,z,0.4409,7.0,0.0,0.3311,4.0,2.0,Español,0.0,Catalán,6.0,Inglés,2.0,Alemán,17.0,5.0,3.0,yes,no,yes,piano,13,,,"Después de dos lenguajes, fui a tomar agua para continuar atenta en los siguientes dos. ",49.0,yes
57,2024-02-14_11h57.37.103,Unsyncopated_study2,s112,22.0,feminino,right,España,Español,Bachelor degree,no,no,A,1,conjunction_syn,L1,syncopated,s2,r2,57,Online_conjL1_syn//b.ta.be1.666.1554.wav,ni,la,lu,ta,sil,cho,ro,be,sil1,ne,sil2,['miss'],,,0.666,no_beat,,,,ta,1,testWhatL3Uns//r2.s1.1.wav,3.0,what,unsyncopated,b,s1,rule,rule,L3,m,1.007,2.0,0.0,0.4444,4.0,2.0,Español,0.0,Catalán,6.0,Inglés,2.0,Alemán,17.0,5.0,3.0,yes,no,yes,piano,13,,,"Después de dos lenguajes, fui a tomar agua para continuar atenta en los siguientes dos. ",49.0,yes
58,2024-02-14_11h57.37.103,Unsyncopated_study2,s112,22.0,feminino,right,España,Español,Bachelor degree,no,no,A,1,conjunction_syn,L1,syncopated,s2,r2,58,Online_conjL1_syn//b.ta.be3.666.1554.wav,lu,ro,zu,ta,sil,ne,fo,be,sil1,ni,sil2,['miss'],,,0.666,no_beat,,,,ta,1,testWhatL3Uns//dep_viol.r1.s1.0.wav,3.0,what,unsyncopated,a,s1,no_rule,dep,L3,m,1.2501,3.0,1.0,0.3502,4.0,2.0,Español,0.0,Catalán,6.0,Inglés,2.0,Alemán,17.0,5.0,3.0,yes,no,yes,piano,13,,,"Después de dos lenguajes, fui a tomar agua para continuar atenta en los siguientes dos. ",49.0,yes
59,2024-02-14_11h57.37.103,Unsyncopated_study2,s112,22.0,feminino,right,España,Español,Bachelor degree,no,no,A,1,conjunction_syn,L1,syncopated,s2,r1,59,Online_conjL1_syn//b.ta.be2.none.none.wav,ri,ne,fo,pu,sil,zu,la,ki,sil1,lu,sil2,['-'],,,none,none,,,,ta,1,testWhatL3Uns//r2.s2.0.wav,3.0,what,unsyncopated,b,s2,rule,rule,L3,z,0.3195,6.0,1.0,0.9058,4.0,2.0,Español,0.0,Catalán,6.0,Inglés,2.0,Alemán,17.0,5.0,3.0,yes,no,yes,piano,13,,,"Después de dos lenguajes, fui a tomar agua para continuar atenta en los siguientes dos. ",49.0,yes
60,2024-02-14_11h57.37.103,Unsyncopated_study2,s112,22.0,feminino,right,España,Español,Bachelor degree,no,no,A,1,conjunction_syn,L1,syncopated,s2,r1,60,Online_conjL1_syn//c.ro.fo26.444.0.wav,fo,ne,ro,pu,sil,ze,ni,ki,sil1,fa,sil2,['catch'],[1.2834000000003698],[1.2834000000003698],0.444,no_beat,0.8394000000003699,0.8394000000003699,"[""space""]",ro,3,testWhatL3Uns//dep_viol.r2.s1.0.wav,3.0,what,unsyncopated,b,s1,no_rule,dep,L3,m,0.4406,2.0,1.0,0.4542,4.0,2.0,Español,0.0,Catalán,6.0,Inglés,2.0,Alemán,17.0,5.0,3.0,yes,no,yes,piano,13,,,"Después de dos lenguajes, fui a tomar agua para continuar atenta en los siguientes dos. ",49.0,yes
61,2024-02-14_11h57.37.103,Unsyncopated_study2,s112,22.0,feminino,right,España,Español,Bachelor degree,no,no,A,1,conjunction_syn,L1,syncopated,s2,r2,61,Online_conjL1_syn//c.ro.fo27.444.1110.wav,la,fa,ro,ta,sil,fo,lu,be,sil1,ze,sil2,['catch'],[1.494399999999814],[1.494399999999814],0.444,no_beat,1.050399999999814,1.050399999999814,"[""space""]",ro,3,testWhatL3Uns//dep_viol.r2.s2.0.wav,3.0,what,unsyncopated,b,s2,no_rule,dep,L3,z,0.5378,6.0,0.0,0.3497,4.0,2.0,Español,0.0,Catalán,6.0,Inglés,2.0,Alemán,17.0,5.0,3.0,yes,no,yes,piano,13,,,"Después de dos lenguajes, fui a tomar agua para continuar atenta en los siguientes dos. ",49.0,yes
62,2024-02-14_11h57.37.103,Unsyncopated_study2,s112,22.0,feminino,right,España,Español,Bachelor degree,no,no,A,1,conjunction_syn,L1,syncopated,s2,r2,62,Online_conjL1_syn//c.ro.fo25.none.none.wav,lu,ri,fa,ta,sil,zu,cho,be,sil1,ze,sil2,['-'],,,none,none,,,,ro,3,testWhatL3Uns//r1.s1.1.wav,3.0,what,unsyncopated,a,s1,rule,rule,L3,m,1.606,7.0,0.0,0.8929,4.0,2.0,Español,0.0,Catalán,6.0,Inglés,2.0,Alemán,17.0,5.0,3.0,yes,no,yes,piano,13,,,"Después de dos lenguajes, fui a tomar agua para continuar atenta en los siguientes dos. ",49.0,yes
63,2024-02-14_11h57.37.103,Unsyncopated_study2,s112,22.0,feminino,right,España,Español,Bachelor degree,no,no,A,1,conjunction_syn,L1,syncopated,s1,r1,63,Online_conjL1_syn//c.ro.fo24.1332.222.wav,pu,fo,ni,ki,sil,la,ro,ze,sil1,zu,sil2,['catch'],[2.1295000000000073],[2.1295000000000073],1.332,no_beat,0.7975000000000072,0.7975000000000072,"[""space""]",ro,3,testWhatL3Uns//r1.s2.0.wav,3.0,what,unsyncopated,a,s2,rule,rule,L3,z,0.4109,5.0,1.0,0.8918,4.0,2.0,Español,0.0,Catalán,6.0,Inglés,2.0,Alemán,17.0,5.0,3.0,yes,no,yes,piano,13,,,"Después de dos lenguajes, fui a tomar agua para continuar atenta en los siguientes dos. ",49.0,yes
64,2024-02-14_11h57.37.103,Unsyncopated_study2,s112,22.0,feminino,right,España,Español,Bachelor degree,no,no,A,1,conjunction_syn,L1,syncopated,s1,r1,64,Online_conjL1_syn//b.ta.be27.none.none.wav,pu,ze,lu,ki,sil,ro,fo,ni,sil1,ri,sil2,['-'],,,none,none,,,,ta,1,testWhatL3Uns//cat_viol.r1.s1.0.wav,3.0,what,unsyncopated,a,s1,no_rule,cat,L3,z,0.3301,7.0,0.0,0.4591,4.0,2.0,Español,0.0,Catalán,6.0,Inglés,2.0,Alemán,17.0,5.0,3.0,yes,no,yes,piano,13,,,"Después de dos lenguajes, fui a tomar agua para continuar atenta en los siguientes dos. ",49.0,yes
65,2024-02-14_11h57.37.103,Unsyncopated_study2,s112,22.0,feminino,right,España,Español,Bachelor degree,no,no,A,1,conjunction_syn,L1,syncopated,s1,r2,65,Online_conjL1_syn//b.ta.be25.0.666.wav,ta,ri,ze,be,sil,ni,cho,lu,sil1,ne,sil2,['catch'],[0.965799999999831],[0.965799999999831],0.0,beat,0.965799999999831,0.965799999999831,"[""space""]",ta,1,testWhatL3Uns//r2.s1.2.wav,3.0,what,unsyncopated,b,s1,rule,rule,L3,z,0.7329,6.0,1.0,0.4389,4.0,2.0,Español,0.0,Catalán,6.0,Inglés,2.0,Alemán,17.0,5.0,3.0,yes,no,yes,piano,13,,,"Después de dos lenguajes, fui a tomar agua para continuar atenta en los siguientes dos. ",49.0,yes
66,2024-02-14_11h57.37.103,Unsyncopated_study2,s112,22.0,feminino,right,España,Español,Bachelor degree,no,no,A,1,conjunction_syn,L1,syncopated,s2,r2,66,Online_conjL1_syn//b.ta.be24.666.1554.wav,fo,ni,ro,ta,sil,ri,cho,be,sil1,ne,sil2,['miss'],,,0.666,no_beat,,,,ta,1,testWhatL3Uns//time_viol.r2.s2.0.wav,3.0,what,unsyncopated,b,s2,no_rule,time,L3,m,0.7762,7.0,1.0,1.4135,4.0,2.0,Español,0.0,Catalán,6.0,Inglés,2.0,Alemán,17.0,5.0,3.0,yes,no,yes,piano,13,,,"Después de dos lenguajes, fui a tomar agua para continuar atenta en los siguientes dos. ",49.0,yes
67,2024-02-14_11h57.37.103,Unsyncopated_study2,s112,22.0,feminino,right,España,Español,Bachelor degree,no,no,A,1,conjunction_syn,L1,syncopated,s2,r2,67,Online_conjL1_syn//b.ta.be26.666.1554.wav,cho,lu,la,ta,sil,fo,ro,be,sil1,zu,sil2,['catch'],[1.4803999999999178],[1.4803999999999178],0.666,no_beat,0.8143999999999177,0.8143999999999177,"[""space""]",ta,1,testWhatL3Uns//r2.s2.1.wav,3.0,what,unsyncopated,b,s2,rule,rule,L3,z,0.3175,6.0,1.0,0.4333,4.0,2.0,Español,0.0,Catalán,6.0,Inglés,2.0,Alemán,17.0,5.0,3.0,yes,no,yes,piano,13,,,"Después de dos lenguajes, fui a tomar agua para continuar atenta en los siguientes dos. ",49.0,yes
68,2024-02-14_11h57.37.103,Unsyncopated_study2,s112,22.0,feminino,right,España,Español,Bachelor degree,no,no,A,1,conjunction_syn,L1,syncopated,s1,r1,68,Online_conjL1_syn//c.ro.fo22.none.none.wav,pu,fa,cho,ki,sil,ne,la,ni,sil1,ze,sil2,['-'],,,none,none,,,,ro,3,testWhatL3Uns//time_viol.r1.s1.0.wav,3.0,what,unsyncopated,a,s1,no_rule,time,L3,m,0.4067,4.0,1.0,0.3342,4.0,2.0,Español,0.0,Catalán,6.0,Inglés,2.0,Alemán,17.0,5.0,3.0,yes,no,yes,piano,13,,,"Después de dos lenguajes, fui a tomar agua para continuar atenta en los siguientes dos. ",49.0,yes
69,2024-02-14_11h57.37.103,Unsyncopated_study2,s112,22.0,feminino,right,España,Español,Bachelor degree,no,no,A,1,conjunction_syn,L1,syncopated,s2,r1,69,Online_conjL1_syn//c.ro.fo20.none.none.wav,lu,ne,la,pu,sil,zu,cho,ki,sil1,ni,sil2,['-'],,,none,none,,,,ro,3,testWhatL3Uns//r1.s1.0.wav,3.0,what,unsyncopated,a,s1,rule,rule,L3,m,2.2799,7.0,0.0,1.2717,4.0,2.0,Español,0.0,Catalán,6.0,Inglés,2.0,Alemán,17.0,5.0,3.0,yes,no,yes,piano,13,,,"Después de dos lenguajes, fui a tomar agua para continuar atenta en los siguientes dos. ",49.0,yes
70,2024-02-14_11h57.37.103,Unsyncopated_study2,s112,22.0,feminino,right,España,Español,Bachelor degree,no,no,A,1,conjunction_syn,L1,syncopated,s2,r2,70,Online_conjL1_syn//c.ro.fo21.none.none.wav,ze,zu,la,ta,sil,ne,cho,be,sil1,ni,sil2,['-'],,,none,none,,,,ro,3,testWhatL3Uns//r1.s2.1.wav,3.0,what,unsyncopated,a,s2,rule,rule,L3,z,0.4296,5.0,1.0,0.4653,4.0,2.0,Español,0.0,Catalán,6.0,Inglés,2.0,Alemán,17.0,5.0,3.0,yes,no,yes,piano,13,,,"Después de dos lenguajes, fui a tomar agua para continuar atenta en los siguientes dos. ",49.0,yes
71,2024-02-14_11h57.37.103,Unsyncopated_study2,s112,22.0,feminino,right,España,Español,Bachelor degree,no,no,A,1,conjunction_syn,L1,syncopated,s1,r2,71,Online_conjL1_syn//c.ro.fo23.1110.1332.wav,ta,ne,cho,be,sil,ro,fo,zu,sil1,ni,sil2,['catch'],[2.0536000000001877],[2.0536000000001877],1.11,no_beat,0.9436000000001876,0.9436000000001876,"[""space""]",ro,3,testWhatL3Uns//r1.s1.2.wav,3.0,what,unsyncopated,a,s1,rule,rule,L3,m,1.9327,6.0,0.0,1.0052,4.0,2.0,Español,0.0,Catalán,6.0,Inglés,2.0,Alemán,17.0,5.0,3.0,yes,no,yes,piano,13,,,"Después de dos lenguajes, fui a tomar agua para continuar atenta en los siguientes dos. ",49.0,yes
72,2024-02-14_11h57.37.103,Unsyncopated_study2,s112,22.0,feminino,right,España,Español,Bachelor degree,no,no,A,1,conjunction_syn,L1,syncopated,s2,r1,72,Online_conjL1_syn//c.ro.fo19.none.none.wav,la,ni,zu,pu,sil,ne,ri,ki,sil1,lu,sil2,['-'],,,none,none,,,,ro,3,testWhenL4Uns//cat_viol.r1.s1.0.wav,4.0,when,unsyncopated,a,s1,no_rule,cat,L4,m,0.5571,7.0,0.0,1.1193,4.0,2.0,Español,0.0,Catalán,6.0,Inglés,2.0,Alemán,17.0,5.0,3.0,yes,no,yes,piano,13,,,"Después de dos lenguajes, fui a tomar agua para continuar atenta en los siguientes dos. ",49.0,yes
73,2024-02-14_11h57.37.103,Unsyncopated_study2,s112,22.0,feminino,right,España,Español,Bachelor degree,no,no,A,1,conjunction_syn,L1,syncopated,s2,r1,73,Online_conjL1_syn//c.ro.fo17.444.0.wav,fo,fa,ro,pu,sil,lu,ze,ki,sil1,ni,sil2,['miss'],,,0.444,no_beat,,,,ro,3,testWhenL4Uns//time_viol.r2.s1.0.wav,4.0,when,unsyncopated,b,s1,no_rule,time,L4,m,1.1684,4.0,0.0,0.9729,4.0,2.0,Español,0.0,Catalán,6.0,Inglés,2.0,Alemán,17.0,5.0,3.0,yes,no,yes,piano,13,,,"Después de dos lenguajes, fui a tomar agua para continuar atenta en los siguientes dos. ",49.0,yes
74,2024-02-14_11h57.37.103,Unsyncopated_study2,s112,22.0,feminino,right,España,Español,Bachelor degree,no,no,A,1,conjunction_syn,L1,syncopated,s1,r2,74,Online_conjL1_syn//c.ro.fo16.1332.222.wav,ta,fo,ni,be,sil,la,ro,lu,sil1,fa,sil2,['catch'],[2.2918999999998277],[2.2918999999998277],1.332,no_beat,0.9598999999998276,0.9598999999998276,"[""space""]",ro,3,testWhenL4Uns//r1.s2.0.wav,4.0,when,unsyncopated,a,s2,rule,rule,L4,z,0.2512,6.0,1.0,1.1926,4.0,2.0,Español,0.0,Catalán,6.0,Inglés,2.0,Alemán,17.0,5.0,3.0,yes,no,yes,piano,13,,,"Después de dos lenguajes, fui a tomar agua para continuar atenta en los siguientes dos. ",49.0,yes
75,2024-02-14_11h57.37.103,Unsyncopated_study2,s112,22.0,feminino,right,España,Español,Bachelor degree,no,no,A,1,conjunction_syn,L1,syncopated,s1,r1,75,Online_conjL1_syn//c.ro.fo18.1110.222.wav,pu,fo,zu,ki,sil,ro,cho,ze,sil1,ne,sil2,['catch'],[2.436399999999935],[2.436399999999935],1.11,no_beat,,1.326399999999935,"[""space""]",ro,3,testWhenL4Uns//r2.s1.0.wav,4.0,when,unsyncopated,b,s1,rule,rule,L4,z,0.9318,5.0,1.0,0.8492,4.0,2.0,Español,0.0,Catalán,6.0,Inglés,2.0,Alemán,17.0,5.0,3.0,yes,no,yes,piano,13,,,"Después de dos lenguajes, fui a tomar agua para continuar atenta en los siguientes dos. ",49.0,yes
76,2024-02-14_11h57.37.103,Unsyncopated_study2,s112,22.0,feminino,right,España,Español,Bachelor degree,no,no,A,1,conjunction_syn,L1,syncopated,s1,r2,76,Online_conjL1_syn//d.ne.ni28.none.none.wav,ta,lu,zu,be,sil,fa,la,ro,sil1,ri,sil2,['-'],,,none,none,,,,ne,4,testWhenL4Uns//cat_viol.r2.s1.0.wav,4.0,when,unsyncopated,b,s1,no_rule,cat,L4,z,1.8463,5.0,1.0,0.9849,4.0,2.0,Español,0.0,Catalán,6.0,Inglés,2.0,Alemán,17.0,5.0,3.0,yes,no,yes,piano,13,,,"Después de dos lenguajes, fui a tomar agua para continuar atenta en los siguientes dos. ",49.0,yes
77,2024-02-14_11h57.37.103,Unsyncopated_study2,s112,22.0,feminino,right,España,Español,Bachelor degree,no,no,A,1,conjunction_syn,L1,syncopated,s2,r1,77,Online_conjL1_syn//d.ne.ni31.0.1110.wav,ne,zu,fa,pu,sil,ni,lu,ki,sil1,ro,sil2,['miss'],,,0.0,beat,,,,ne,4,testWhenL4Uns//r1.s2.1.wav,4.0,when,unsyncopated,a,s2,rule,rule,L4,m,1.6553,3.0,0.0,0.4084,4.0,2.0,Español,0.0,Catalán,6.0,Inglés,2.0,Alemán,17.0,5.0,3.0,yes,no,yes,piano,13,,,"Después de dos lenguajes, fui a tomar agua para continuar atenta en los siguientes dos. ",49.0,yes
78,2024-02-14_11h57.37.103,Unsyncopated_study2,s112,22.0,feminino,right,España,Español,Bachelor degree,no,no,A,1,conjunction_syn,L1,syncopated,s2,r2,78,Online_conjL1_syn//d.ne.ni29.0.444.wav,ne,fa,ni,ta,sil,ri,zu,be,sil1,lu,sil2,['catch'],[0.9054999999999609],[0.9054999999999609],0.0,beat,0.9054999999999608,0.9054999999999608,"[""space""]",ne,4,testWhenL4Uns//cat_viol.r1.s2.0.wav,4.0,when,unsyncopated,a,s2,no_rule,cat,L4,z,0.2538,7.0,1.0,1.5145,4.0,2.0,Español,0.0,Catalán,6.0,Inglés,2.0,Alemán,17.0,5.0,3.0,yes,no,yes,piano,13,,,"Después de dos lenguajes, fui a tomar agua para continuar atenta en los siguientes dos. ",49.0,yes
79,2024-02-14_11h57.37.103,Unsyncopated_study2,s112,22.0,feminino,right,España,Español,Bachelor degree,no,no,A,1,conjunction_syn,L1,syncopated,s2,r2,79,Online_conjL1_syn//d.ne.ni30.222.1110.wav,fa,ne,lu,ta,sil,ni,ri,be,sil1,ze,sil2,['miss'],,,0.222,no_beat,,,,ne,4,testWhenL4Uns//r2.s2.0.wav,4.0,when,unsyncopated,b,s2,rule,rule,L4,m,1.5542,6.0,0.0,1.4434,4.0,2.0,Español,0.0,Catalán,6.0,Inglés,2.0,Alemán,17.0,5.0,3.0,yes,no,yes,piano,13,,,"Después de dos lenguajes, fui a tomar agua para continuar atenta en los siguientes dos. ",49.0,yes
80,2024-02-14_11h57.37.103,Unsyncopated_study2,s112,22.0,feminino,right,España,Español,Bachelor degree,no,no,A,1,conjunction_syn,L1,syncopated,s2,r2,80,Online_conjL1_syn//a.pu.ki22.none.none.wav,fo,ri,ni,ta,sil,lu,la,be,sil1,cho,sil2,['-'],,,none,none,,,,ki,2,testWhenL4Uns//dep_viol.r2.s1.0.wav,4.0,when,unsyncopated,b,s1,no_rule,dep,L4,m,3.1558,4.0,0.0,0.8985,4.0,2.0,Español,0.0,Catalán,6.0,Inglés,2.0,Alemán,17.0,5.0,3.0,yes,no,yes,piano,13,,,"Después de dos lenguajes, fui a tomar agua para continuar atenta en los siguientes dos. ",49.0,yes
81,2024-02-14_11h57.37.103,Unsyncopated_study2,s112,22.0,feminino,right,España,Español,Bachelor degree,no,no,A,1,conjunction_syn,L1,syncopated,s2,r1,81,Online_conjL1_syn//a.pu.ki20.666.1554.wav,ro,lu,ni,pu,sil,la,fo,ki,sil1,cho,sil2,['miss'],,,1.554,no_beat,,,,ki,2,testWhenL4Uns//dep_viol.r2.s2.0.wav,4.0,when,unsyncopated,b,s2,no_rule,dep,L4,z,3.3787,5.0,1.0,0.835,4.0,2.0,Español,0.0,Catalán,6.0,Inglés,2.0,Alemán,17.0,5.0,3.0,yes,no,yes,piano,13,,,"Después de dos lenguajes, fui a tomar agua para continuar atenta en los siguientes dos. ",49.0,yes
82,2024-02-14_11h57.37.103,Unsyncopated_study2,s112,22.0,feminino,right,España,Español,Bachelor degree,no,no,A,1,conjunction_syn,L1,syncopated,s2,r1,82,Online_conjL1_syn//a.pu.ki23.666.1554.wav,ni,la,ro,pu,sil,fo,zu,ki,sil1,ze,sil2,['miss'],,,1.554,no_beat,,,,ki,2,testWhenL4Uns//r1.s1.1.wav,4.0,when,unsyncopated,a,s1,rule,rule,L4,z,0.2598,7.0,1.0,0.5029,4.0,2.0,Español,0.0,Catalán,6.0,Inglés,2.0,Alemán,17.0,5.0,3.0,yes,no,yes,piano,13,,,"Después de dos lenguajes, fui a tomar agua para continuar atenta en los siguientes dos. ",49.0,yes
83,2024-02-14_11h57.37.103,Unsyncopated_study2,s112,22.0,feminino,right,España,Español,Bachelor degree,no,no,A,1,conjunction_syn,L1,syncopated,s2,r2,83,Online_conjL1_syn//a.pu.ki21.none.none.wav,ro,fa,ni,ta,sil,ri,la,be,sil1,lu,sil2,['-'],,,none,none,,,,ki,2,testWhenL4Uns//cat_viol.r2.s2.0.wav,4.0,when,unsyncopated,b,s2,no_rule,cat,L4,z,0.5053,6.0,1.0,0.905,4.0,2.0,Español,0.0,Catalán,6.0,Inglés,2.0,Alemán,17.0,5.0,3.0,yes,no,yes,piano,13,,,"Después de dos lenguajes, fui a tomar agua para continuar atenta en los siguientes dos. ",49.0,yes
84,2024-02-14_11h57.37.103,Unsyncopated_study2,s112,22.0,feminino,right,España,Español,Bachelor degree,no,no,A,1,conjunction_syn,L1,syncopated,s1,r2,84,Online_conjL1_syn//a.pu.ki19.none.none.wav,ta,fa,lu,be,sil,ne,fo,ri,sil1,ze,sil2,['false alarm'],[1.9587999999997692],[1.9587999999997692],none,none,,,"[""space""]",ki,2,testWhenL4Uns//r1.s2.2.wav,4.0,when,unsyncopated,a,s2,rule,rule,L4,m,0.4786,2.0,0.0,0.3736,4.0,2.0,Español,0.0,Catalán,6.0,Inglés,2.0,Alemán,17.0,5.0,3.0,yes,no,yes,piano,13,,,"Después de dos lenguajes, fui a tomar agua para continuar atenta en los siguientes dos. ",49.0,yes
85,2024-02-14_11h57.37.103,Unsyncopated_study2,s112,22.0,feminino,right,España,Español,Bachelor degree,no,no,A,1,conjunction_syn,L1,syncopated,s2,r2,85,Online_conjL1_syn//a.pu.ki16.none.none.wav,la,ze,fo,ta,sil,zu,lu,be,sil1,ne,sil2,['-'],,,none,none,,,,ki,2,testWhenL4Uns//r1.s1.2.wav,4.0,when,unsyncopated,a,s1,rule,rule,L4,m,2.4901,6.0,0.0,0.8872,4.0,2.0,Español,0.0,Catalán,6.0,Inglés,2.0,Alemán,17.0,5.0,3.0,yes,no,yes,piano,13,,,"Después de dos lenguajes, fui a tomar agua para continuar atenta en los siguientes dos. ",49.0,yes
86,2024-02-14_11h57.37.103,Unsyncopated_study2,s112,22.0,feminino,right,España,Español,Bachelor degree,no,no,A,1,conjunction_syn,L1,syncopated,s2,r2,86,Online_conjL1_syn//a.pu.ki17.none.none.wav,lu,fa,zu,ta,sil,la,ze,be,sil1,cho,sil2,['-'],,,none,none,,,,ki,2,testWhenL4Uns//r2.s1.2.wav,4.0,when,unsyncopated,b,s1,rule,rule,L4,z,0.6415,7.0,1.0,0.6468,4.0,2.0,Español,0.0,Catalán,6.0,Inglés,2.0,Alemán,17.0,5.0,3.0,yes,no,yes,piano,13,,,"Después de dos lenguajes, fui a tomar agua para continuar atenta en los siguientes dos. ",49.0,yes
87,2024-02-14_11h57.37.103,Unsyncopated_study2,s112,22.0,feminino,right,España,Español,Bachelor degree,no,no,A,1,conjunction_syn,L1,syncopated,s2,r1,87,Online_conjL1_syn//a.pu.ki18.666.1554.wav,lu,ni,ri,pu,sil,ro,fo,ki,sil1,cho,sil2,['catch'],[2.4527000000001635],[2.4527000000001635],1.554,no_beat,0.8987000000001635,0.8987000000001635,"[""space""]",ki,2,testWhenL4Uns//r2.s2.2.wav,4.0,when,unsyncopated,b,s2,rule,rule,L4,z,0.3624,7.0,1.0,0.4848,4.0,2.0,Español,0.0,Catalán,6.0,Inglés,2.0,Alemán,17.0,5.0,3.0,yes,no,yes,piano,13,,,"Después de dos lenguajes, fui a tomar agua para continuar atenta en los siguientes dos. ",49.0,yes
88,2024-02-14_11h57.37.103,Unsyncopated_study2,s112,22.0,feminino,right,España,Español,Bachelor degree,no,no,A,1,conjunction_syn,L1,syncopated,s1,r1,88,Online_conjL1_syn//c.ro.fo28.none.none.wav,pu,ni,lu,ki,sil,ne,la,ze,sil1,fa,sil2,['-'],,,none,none,,,,ro,3,testWhenL4Uns//dep_viol.r1.s1.0.wav,4.0,when,unsyncopated,a,s1,no_rule,dep,L4,m,1.6863,5.0,0.0,1.4797,4.0,2.0,Español,0.0,Catalán,6.0,Inglés,2.0,Alemán,17.0,5.0,3.0,yes,no,yes,piano,13,,,"Después de dos lenguajes, fui a tomar agua para continuar atenta en los siguientes dos. ",49.0,yes
89,2024-02-14_11h57.37.103,Unsyncopated_study2,s112,22.0,feminino,right,España,Español,Bachelor degree,no,no,A,1,conjunction_syn,L1,syncopated,s2,r2,89,Online_conjL1_syn//c.ro.fo30.1110.0.wav,fo,ze,fa,ta,sil,ro,ri,be,sil1,ni,sil2,['catch'],[1.9793999999999414],[1.9793999999999414],1.11,no_beat,0.8693999999999413,0.8693999999999413,"[""space""]",ro,3,testWhenL4Uns//r2.s2.1.wav,4.0,when,unsyncopated,b,s2,rule,rule,L4,z,1.3775,5.0,1.0,1.1378,4.0,2.0,Español,0.0,Catalán,6.0,Inglés,2.0,Alemán,17.0,5.0,3.0,yes,no,yes,piano,13,,,"Después de dos lenguajes, fui a tomar agua para continuar atenta en los siguientes dos. ",49.0,yes
90,2024-02-14_11h57.37.103,Unsyncopated_study2,s112,22.0,feminino,right,España,Español,Bachelor degree,no,no,A,1,conjunction_syn,L1,syncopated,s1,r2,90,Online_conjL1_syn//c.ro.fo29.none.none.wav,ta,zu,ri,be,sil,la,ni,fa,sil1,lu,sil2,['false alarm'],[1.3396000000001322],[1.3396000000001322],none,none,,,"[""space""]",ro,3,testWhenL4Uns//time_viol.r1.s1.0.wav,4.0,when,unsyncopated,a,s1,no_rule,time,L4,m,1.4483,6.0,0.0,2.9392,4.0,2.0,Español,0.0,Catalán,6.0,Inglés,2.0,Alemán,17.0,5.0,3.0,yes,no,yes,piano,13,,,"Después de dos lenguajes, fui a tomar agua para continuar atenta en los siguientes dos. ",49.0,yes
91,2024-02-14_11h57.37.103,Unsyncopated_study2,s112,22.0,feminino,right,España,Español,Bachelor degree,no,no,A,1,conjunction_syn,L1,syncopated,s2,r2,91,Online_conjL1_syn//c.ro.fo31.none.none.wav,ri,fa,la,ta,sil,lu,ne,be,sil1,zu,sil2,['-'],,,none,none,,,,ro,3,testWhenL4Uns//time_viol.r1.s2.0.wav,4.0,when,unsyncopated,a,s2,no_rule,time,L4,z,0.3767,4.0,1.0,1.3277,4.0,2.0,Español,0.0,Catalán,6.0,Inglés,2.0,Alemán,17.0,5.0,3.0,yes,no,yes,piano,13,,,"Después de dos lenguajes, fui a tomar agua para continuar atenta en los siguientes dos. ",49.0,yes
92,2024-02-14_11h57.37.103,Unsyncopated_study2,s112,22.0,feminino,right,España,Español,Bachelor degree,no,no,A,1,conjunction_syn,L1,syncopated,s2,r2,92,Online_conjL1_syn//c.ro.fo12.1332.444.wav,fa,zu,fo,ta,sil,cho,ro,be,sil1,ne,sil2,['miss'],,,1.332,no_beat,,,,ro,3,testWhenL4Uns//time_viol.r2.s2.0.wav,4.0,when,unsyncopated,b,s2,no_rule,time,L4,z,2.9618,6.0,1.0,0.5188,4.0,2.0,Español,0.0,Catalán,6.0,Inglés,2.0,Alemán,17.0,5.0,3.0,yes,no,yes,piano,13,,,"Después de dos lenguajes, fui a tomar agua para continuar atenta en los siguientes dos. ",49.0,yes
93,2024-02-14_11h57.37.103,Unsyncopated_study2,s112,22.0,feminino,right,España,Español,Bachelor degree,no,no,A,1,conjunction_syn,L1,syncopated,s2,r2,93,Online_conjL1_syn//c.ro.fo14.none.none.wav,fa,zu,ri,ta,sil,la,ni,be,sil1,ne,sil2,['-'],,,none,none,,,,ro,3,testWhenL4Uns//dep_viol.r1.s2.0.wav,4.0,when,unsyncopated,a,s2,no_rule,dep,L4,z,0.5132,7.0,1.0,0.4797,4.0,2.0,Español,0.0,Catalán,6.0,Inglés,2.0,Alemán,17.0,5.0,3.0,yes,no,yes,piano,13,,,"Después de dos lenguajes, fui a tomar agua para continuar atenta en los siguientes dos. ",49.0,yes
94,2024-02-14_11h57.37.103,Unsyncopated_study2,s112,22.0,feminino,right,España,Español,Bachelor degree,no,no,A,1,conjunction_syn,L1,syncopated,s1,r1,94,Online_conjL1_syn//c.ro.fo13.1554.222.wav,pu,fo,fa,ki,sil,ni,cho,ro,sil1,ze,sil2,['catch'],[2.4228000000002794],[2.4228000000002794],1.554,no_beat,0.8688000000002793,0.8688000000002793,"[""space""]",ro,3,testWhenL4Uns//r2.s1.1.wav,4.0,when,unsyncopated,b,s1,rule,rule,L4,z,1.2164,6.0,1.0,0.6283,4.0,2.0,Español,0.0,Catalán,6.0,Inglés,2.0,Alemán,17.0,5.0,3.0,yes,no,yes,piano,13,,,"Después de dos lenguajes, fui a tomar agua para continuar atenta en los siguientes dos. ",49.0,yes
95,2024-02-14_11h57.37.103,Unsyncopated_study2,s112,22.0,feminino,right,España,Español,Bachelor degree,no,no,A,1,conjunction_syn,L1,syncopated,s1,r1,95,Online_conjL1_syn//c.ro.fo15.none.none.wav,pu,ri,ze,ki,sil,lu,ne,la,sil1,cho,sil2,['-'],,,none,none,,,,ro,3,testWhenL4Uns//r1.s1.0.wav,4.0,when,unsyncopated,a,s1,rule,rule,L4,z,0.7129,6.0,1.0,0.4764,4.0,2.0,Español,0.0,Catalán,6.0,Inglés,2.0,Alemán,17.0,5.0,3.0,yes,no,yes,piano,13,,,"Después de dos lenguajes, fui a tomar agua para continuar atenta en los siguientes dos. ",49.0,yes
96,2024-02-14_11h57.37.103,Unsyncopated_study2,s112,22.0,feminino,right,España,Español,Bachelor degree,no,no,A,1,conjunction_syn,L1,syncopated,s1,r1,96,Online_conjL1_syn//d.ne.ni15.none.none.wav,pu,lu,ze,ki,sil,cho,zu,ri,sil1,la,sil2,['-'],,,none,none,,,,ne,4,,,,,,,,,,,,,,,4.0,2.0,Español,0.0,Catalán,6.0,Inglés,2.0,Alemán,17.0,5.0,3.0,yes,no,yes,piano,13,,,"Después de dos lenguajes, fui a tomar agua para continuar atenta en los siguientes dos. ",49.0,yes
97,2024-02-14_11h57.37.103,Unsyncopated_study2,s112,22.0,feminino,right,España,Español,Bachelor degree,no,no,A,1,conjunction_syn,L1,syncopated,s2,r1,97,Online_conjL1_syn//d.ne.ni13.1110.222.wav,ze,ni,lu,pu,sil,ne,ro,ki,sil1,zu,sil2,['catch'],[2.0238000000002785],[2.0238000000002785],1.11,no_beat,0.9138000000002784,0.9138000000002784,"[""space""]",ne,4,,,,,,,,,,,,,,,4.0,2.0,Español,0.0,Catalán,6.0,Inglés,2.0,Alemán,17.0,5.0,3.0,yes,no,yes,piano,13,,,"Después de dos lenguajes, fui a tomar agua para continuar atenta en los siguientes dos. ",49.0,yes
98,2024-02-14_11h57.37.103,Unsyncopated_study2,s112,22.0,feminino,right,España,Español,Bachelor degree,no,no,A,1,conjunction_syn,L1,syncopated,s1,r1,98,Online_conjL1_syn//d.ne.ni12.none.none.wav,pu,fo,ri,ki,sil,ze,zu,ro,sil1,la,sil2,['-'],,,none,none,,,,ne,4,,,,,,,,,,,,,,,4.0,2.0,Español,0.0,Catalán,6.0,Inglés,2.0,Alemán,17.0,5.0,3.0,yes,no,yes,piano,13,,,"Después de dos lenguajes, fui a tomar agua para continuar atenta en los siguientes dos. ",49.0,yes
99,2024-02-14_11h57.37.103,Unsyncopated_study2,s112,22.0,feminino,right,España,Español,Bachelor degree,no,no,A,1,conjunction_syn,L1,syncopated,s1,r2,99,Online_conjL1_syn//d.ne.ni14.none.none.wav,ta,ri,cho,be,sil,ze,lu,zu,sil1,la,sil2,['-'],,,none,none,,,,ne,4,,,,,,,,,,,,,,,4.0,2.0,Español,0.0,Catalán,6.0,Inglés,2.0,Alemán,17.0,5.0,3.0,yes,no,yes,piano,13,,,"Después de dos lenguajes, fui a tomar agua para continuar atenta en los siguientes dos. ",49.0,yes
100,2024-02-14_11h57.37.103,Unsyncopated_study2,s112,22.0,feminino,right,España,Español,Bachelor degree,no,no,A,1,conjunction_syn,L1,syncopated,s2,r1,100,Online_conjL1_syn//d.ne.ni26.none.none.wav,ze,zu,fa,pu,sil,cho,lu,ki,sil1,fo,sil2,['-'],,,none,none,,,,ne,4,,,,,,,,,,,,,,,4.0,2.0,Español,0.0,Catalán,6.0,Inglés,2.0,Alemán,17.0,5.0,3.0,yes,no,yes,piano,13,,,"Después de dos lenguajes, fui a tomar agua para continuar atenta en los siguientes dos. ",49.0,yes
101,2024-02-14_11h57.37.103,Unsyncopated_study2,s112,22.0,feminino,right,España,Español,Bachelor degree,no,no,A,1,conjunction_syn,L1,syncopated,s2,r2,101,Online_conjL1_syn//d.ne.ni24.none.none.wav,lu,ro,la,ta,sil,fa,fo,be,sil1,zu,sil2,['-'],,,none,none,,,,ne,4,,,,,,,,,,,,,,,4.0,2.0,Español,0.0,Catalán,6.0,Inglés,2.0,Alemán,17.0,5.0,3.0,yes,no,yes,piano,13,,,"Después de dos lenguajes, fui a tomar agua para continuar atenta en los siguientes dos. ",49.0,yes
102,2024-02-14_11h57.37.103,Unsyncopated_study2,s112,22.0,feminino,right,España,Español,Bachelor degree,no,no,A,1,conjunction_syn,L1,syncopated,s1,r2,102,Online_conjL1_syn//d.ne.ni25.222.1110.wav,ta,ne,ze,be,sil,ni,cho,la,sil1,lu,sil2,['miss'],,,0.222,no_beat,,,,ne,4,,,,,,,,,,,,,,,4.0,2.0,Español,0.0,Catalán,6.0,Inglés,2.0,Alemán,17.0,5.0,3.0,yes,no,yes,piano,13,,,"Después de dos lenguajes, fui a tomar agua para continuar atenta en los siguientes dos. ",49.0,yes
103,2024-02-14_11h57.37.103,Unsyncopated_study2,s112,22.0,feminino,right,España,Español,Bachelor degree,no,no,A,1,conjunction_syn,L1,syncopated,s1,r2,103,Online_conjL1_syn//d.ne.ni27.none.none.wav,ta,la,fo,be,sil,zu,cho,ze,sil1,ri,sil2,['-'],,,none,none,,,,ne,4,,,,,,,,,,,,,,,4.0,2.0,Español,0.0,Catalán,6.0,Inglés,2.0,Alemán,17.0,5.0,3.0,yes,no,yes,piano,13,,,"Después de dos lenguajes, fui a tomar agua para continuar atenta en los siguientes dos. ",49.0,yes
104,2024-02-14_11h57.37.103,Unsyncopated_study2,s112,22.0,feminino,right,España,Español,Bachelor degree,no,no,A,1,conjunction_syn,L1,syncopated,s2,r1,104,Online_conjL1_syn//b.ta.be17.none.none.wav,zu,lu,ze,pu,sil,la,cho,ki,sil1,fa,sil2,['-'],,,none,none,,,,ta,1,,,,,,,,,,,,,,,4.0,2.0,Español,0.0,Catalán,6.0,Inglés,2.0,Alemán,17.0,5.0,3.0,yes,no,yes,piano,13,,,"Después de dos lenguajes, fui a tomar agua para continuar atenta en los siguientes dos. ",49.0,yes
105,2024-02-14_11h57.37.103,Unsyncopated_study2,s112,22.0,feminino,right,España,Español,Bachelor degree,no,no,A,1,conjunction_syn,L1,syncopated,s1,r1,105,Online_conjL1_syn//b.ta.be18.none.none.wav,pu,ni,zu,ki,sil,ne,la,ze,sil1,cho,sil2,['-'],,,none,none,,,,ta,1,,,,,,,,,,,,,,,4.0,2.0,Español,0.0,Catalán,6.0,Inglés,2.0,Alemán,17.0,5.0,3.0,yes,no,yes,piano,13,,,"Después de dos lenguajes, fui a tomar agua para continuar atenta en los siguientes dos. ",49.0,yes
106,2024-02-14_11h57.37.103,Unsyncopated_study2,s112,22.0,feminino,right,España,Español,Bachelor degree,no,no,A,1,conjunction_syn,L1,syncopated,s2,r2,106,Online_conjL1_syn//b.ta.be16.666.1554.wav,ro,ne,lu,ta,sil,la,ri,be,sil1,fo,sil2,['miss'],,,0.666,no_beat,,,,ta,1,,,,,,,,,,,,,,,4.0,2.0,Español,0.0,Catalán,6.0,Inglés,2.0,Alemán,17.0,5.0,3.0,yes,no,yes,piano,13,,,"Después de dos lenguajes, fui a tomar agua para continuar atenta en los siguientes dos. ",49.0,yes
107,2024-02-14_11h57.37.103,Unsyncopated_study2,s112,22.0,feminino,right,España,Español,Bachelor degree,no,no,A,1,conjunction_syn,L1,syncopated,s2,r2,107,Online_conjL1_syn//b.ta.be19.666.1554.wav,fa,la,ni,ta,sil,cho,ne,be,sil1,ri,sil2,['catch'],[1.4733000000003358],[1.4733000000003358],0.666,no_beat,0.8073000000003357,0.8073000000003357,"[""space""]",ta,1,,,,,,,,,,,,,,,4.0,2.0,Español,0.0,Catalán,6.0,Inglés,2.0,Alemán,17.0,5.0,3.0,yes,no,yes,piano,13,,,"Después de dos lenguajes, fui a tomar agua para continuar atenta en los siguientes dos. ",49.0,yes
108,2024-02-14_11h57.37.103,Unsyncopated_study2,s112,22.0,feminino,right,España,Español,Bachelor degree,no,no,A,1,conjunction_syn,L1,syncopated,s1,r1,108,Online_conjL1_syn//b.ta.be23.none.none.wav,pu,cho,ze,ki,sil,ne,la,ri,sil1,fa,sil2,['-'],,,none,none,,,,ta,1,,,,,,,,,,,,,,,4.0,2.0,Español,0.0,Catalán,6.0,Inglés,2.0,Alemán,17.0,5.0,3.0,yes,no,yes,piano,13,,,"Después de dos lenguajes, fui a tomar agua para continuar atenta en los siguientes dos. ",49.0,yes
109,2024-02-14_11h57.37.103,Unsyncopated_study2,s112,22.0,feminino,right,España,Español,Bachelor degree,no,no,A,1,conjunction_syn,L1,syncopated,s2,r1,109,Online_conjL1_syn//b.ta.be22.none.none.wav,zu,la,cho,pu,sil,ne,ri,ki,sil1,fa,sil2,['-'],,,none,none,,,,ta,1,,,,,,,,,,,,,,,4.0,2.0,Español,0.0,Catalán,6.0,Inglés,2.0,Alemán,17.0,5.0,3.0,yes,no,yes,piano,13,,,"Después de dos lenguajes, fui a tomar agua para continuar atenta en los siguientes dos. ",49.0,yes
110,2024-02-14_11h57.37.103,Unsyncopated_study2,s112,22.0,feminino,right,España,Español,Bachelor degree,no,no,A,1,conjunction_syn,L1,syncopated,s1,r1,110,Online_conjL1_syn//b.ta.be20.none.none.wav,pu,lu,ze,ki,sil,ro,la,zu,sil1,fo,sil2,['-'],,,none,none,,,,ta,1,,,,,,,,,,,,,,,4.0,2.0,Español,0.0,Catalán,6.0,Inglés,2.0,Alemán,17.0,5.0,3.0,yes,no,yes,piano,13,,,"Después de dos lenguajes, fui a tomar agua para continuar atenta en los siguientes dos. ",49.0,yes
111,2024-02-14_11h57.37.103,Unsyncopated_study2,s112,22.0,feminino,right,España,Español,Bachelor degree,no,no,A,1,conjunction_syn,L1,syncopated,s2,r1,111,Online_conjL1_syn//b.ta.be21.none.none.wav,ri,ro,fa,pu,sil,ni,cho,ki,sil1,ze,sil2,['-'],,,none,none,,,,ta,1,,,,,,,,,,,,,,,4.0,2.0,Español,0.0,Catalán,6.0,Inglés,2.0,Alemán,17.0,5.0,3.0,yes,no,yes,piano,13,,,"Después de dos lenguajes, fui a tomar agua para continuar atenta en los siguientes dos. ",49.0,yes
112,2024-02-14_11h57.37.103,Unsyncopated_study2,s112,22.0,feminino,right,España,Español,Bachelor degree,no,no,A,1,conjunction_syn,L1,syncopated,s1,r1,112,Online_conjL1_syn//a.pu.ki12.0.666.wav,pu,zu,ni,ki,sil,ne,ro,fo,sil1,cho,sil2,['catch'],[1.3123000000002776],[1.3123000000002776],0.666,no_beat,0.6463000000002775,0.6463000000002775,"[""space""]",ki,2,,,,,,,,,,,,,,,4.0,2.0,Español,0.0,Catalán,6.0,Inglés,2.0,Alemán,17.0,5.0,3.0,yes,no,yes,piano,13,,,"Después de dos lenguajes, fui a tomar agua para continuar atenta en los siguientes dos. ",49.0,yes
113,2024-02-14_11h57.37.103,Unsyncopated_study2,s112,22.0,feminino,right,España,Español,Bachelor degree,no,no,A,1,conjunction_syn,L1,syncopated,s2,r1,113,Online_conjL1_syn//a.pu.ki13.666.1554.wav,fa,ro,ne,pu,sil,fo,lu,ki,sil1,ni,sil2,['catch'],[2.5186999999997397],[2.5186999999997397],1.554,no_beat,0.9646999999997397,0.9646999999997397,"[""space""]",ki,2,,,,,,,,,,,,,,,4.0,2.0,Español,0.0,Catalán,6.0,Inglés,2.0,Alemán,17.0,5.0,3.0,yes,no,yes,piano,13,,,"Después de dos lenguajes, fui a tomar agua para continuar atenta en los siguientes dos. ",49.0,yes
114,2024-02-14_11h57.37.103,Unsyncopated_study2,s112,22.0,feminino,right,España,Español,Bachelor degree,no,no,A,1,conjunction_syn,L1,syncopated,s1,r2,114,Online_conjL1_syn//a.pu.ki14.none.none.wav,ta,ri,ze,be,sil,lu,fa,cho,sil1,fo,sil2,['-'],,,none,none,,,,ki,2,,,,,,,,,,,,,,,4.0,2.0,Español,0.0,Catalán,6.0,Inglés,2.0,Alemán,17.0,5.0,3.0,yes,no,yes,piano,13,,,"Después de dos lenguajes, fui a tomar agua para continuar atenta en los siguientes dos. ",49.0,yes
115,2024-02-14_11h57.37.103,Unsyncopated_study2,s112,22.0,feminino,right,España,Español,Bachelor degree,no,no,A,1,conjunction_syn,L1,syncopated,s1,r2,115,Online_conjL1_syn//a.pu.ki15.none.none.wav,ta,fo,ne,be,sil,la,ze,fa,sil1,cho,sil2,['-'],,,none,none,,,,ki,2,,,,,,,,,,,,,,,4.0,2.0,Español,0.0,Catalán,6.0,Inglés,2.0,Alemán,17.0,5.0,3.0,yes,no,yes,piano,13,,,"Después de dos lenguajes, fui a tomar agua para continuar atenta en los siguientes dos. ",49.0,yes
116,2024-02-14_11h57.37.103,Unsyncopated_study2,s112,22.0,feminino,right,España,Español,Bachelor degree,no,no,A,1,conjunction_syn,L1,syncopated,s2,r1,116,Online_conjL1_syn//b.ta.be5.none.none.wav,la,ro,cho,pu,sil,fa,ne,ki,sil1,ze,sil2,['-'],,,none,none,,,,ta,1,,,,,,,,,,,,,,,4.0,2.0,Español,0.0,Catalán,6.0,Inglés,2.0,Alemán,17.0,5.0,3.0,yes,no,yes,piano,13,,,"Después de dos lenguajes, fui a tomar agua para continuar atenta en los siguientes dos. ",49.0,yes
117,2024-02-14_11h57.37.103,Unsyncopated_study2,s112,22.0,feminino,right,España,Español,Bachelor degree,no,no,A,1,conjunction_syn,L1,syncopated,s1,r1,117,Online_conjL1_syn//b.ta.be4.none.none.wav,pu,la,fo,ki,sil,cho,ze,lu,sil1,ri,sil2,['-'],,,none,none,,,,ta,1,,,,,,,,,,,,,,,4.0,2.0,Español,0.0,Catalán,6.0,Inglés,2.0,Alemán,17.0,5.0,3.0,yes,no,yes,piano,13,,,"Después de dos lenguajes, fui a tomar agua para continuar atenta en los siguientes dos. ",49.0,yes
118,2024-02-14_11h57.37.103,Unsyncopated_study2,s112,22.0,feminino,right,España,Español,Bachelor degree,no,no,A,1,conjunction_syn,L1,syncopated,s2,r1,118,Online_conjL1_syn//b.ta.be7.none.none.wav,fa,ne,lu,pu,sil,zu,fo,ki,sil1,cho,sil2,['-'],,,none,none,,,,ta,1,,,,,,,,,,,,,,,4.0,2.0,Español,0.0,Catalán,6.0,Inglés,2.0,Alemán,17.0,5.0,3.0,yes,no,yes,piano,13,,,"Después de dos lenguajes, fui a tomar agua para continuar atenta en los siguientes dos. ",49.0,yes
119,2024-02-14_11h57.37.103,Unsyncopated_study2,s112,22.0,feminino,right,España,Español,Bachelor degree,no,no,A,1,conjunction_syn,L1,syncopated,s1,r1,119,Online_conjL1_syn//b.ta.be6.none.none.wav,pu,cho,fo,ki,sil,ni,ro,ri,sil1,lu,sil2,['-'],,,none,none,,,,ta,1,,,,,,,,,,,,,,,4.0,2.0,Español,0.0,Catalán,6.0,Inglés,2.0,Alemán,17.0,5.0,3.0,yes,no,yes,piano,13,,,"Después de dos lenguajes, fui a tomar agua para continuar atenta en los siguientes dos. ",49.0,yes
120,2024-02-14_11h57.37.103,Unsyncopated_study2,s112,22.0,feminino,right,España,Español,Bachelor degree,no,no,A,1,conjunction_syn,L1,syncopated,s1,r2,120,Online_conjL1_syn//b.ta.be11.0.666.wav,ta,zu,lu,be,sil,ni,ro,cho,sil1,fo,sil2,['catch'],[1.1071000000001732],[1.1071000000001732],0.0,beat,1.1071000000001732,1.1071000000001732,"[""space""]",ta,1,,,,,,,,,,,,,,,4.0,2.0,Español,0.0,Catalán,6.0,Inglés,2.0,Alemán,17.0,5.0,3.0,yes,no,yes,piano,13,,,"Después de dos lenguajes, fui a tomar agua para continuar atenta en los siguientes dos. ",49.0,yes
121,2024-02-14_11h57.37.103,Unsyncopated_study2,s112,22.0,feminino,right,España,Español,Bachelor degree,no,no,A,1,conjunction_syn,L1,syncopated,s1,r2,121,Online_conjL1_syn//b.ta.be8.0.666.wav,ta,la,zu,be,sil,ro,cho,ze,sil1,lu,sil2,['catch'],[1.1759999999999309],[1.1759999999999309],0.0,beat,1.1759999999999309,1.1759999999999309,"[""space""]",ta,1,,,,,,,,,,,,,,,4.0,2.0,Español,0.0,Catalán,6.0,Inglés,2.0,Alemán,17.0,5.0,3.0,yes,no,yes,piano,13,,,"Después de dos lenguajes, fui a tomar agua para continuar atenta en los siguientes dos. ",49.0,yes
122,2024-02-14_11h57.37.103,Unsyncopated_study2,s112,22.0,feminino,right,España,Español,Bachelor degree,no,no,A,1,conjunction_syn,L1,syncopated,s1,r2,122,Online_conjL1_syn//b.ta.be10.0.666.wav,ta,cho,ri,be,sil,ni,zu,ze,sil1,ne,sil2,['miss'],,,0.0,beat,,,,ta,1,,,,,,,,,,,,,,,4.0,2.0,Español,0.0,Catalán,6.0,Inglés,2.0,Alemán,17.0,5.0,3.0,yes,no,yes,piano,13,,,"Después de dos lenguajes, fui a tomar agua para continuar atenta en los siguientes dos. ",49.0,yes
123,2024-02-14_11h57.37.103,Unsyncopated_study2,s112,22.0,feminino,right,España,Español,Bachelor degree,no,no,A,1,conjunction_syn,L1,syncopated,s2,r2,123,Online_conjL1_syn//b.ta.be9.666.1554.wav,la,lu,ne,ta,sil,ze,fo,be,sil1,zu,sil2,['catch'],[2.0931000000000495],[2.0931000000000495],0.666,no_beat,,1.4271000000000496,"[""space""]",ta,1,,,,,,,,,,,,,,,4.0,2.0,Español,0.0,Catalán,6.0,Inglés,2.0,Alemán,17.0,5.0,3.0,yes,no,yes,piano,13,,,"Después de dos lenguajes, fui a tomar agua para continuar atenta en los siguientes dos. ",49.0,yes
124,2024-02-14_11h57.37.103,Unsyncopated_study2,s112,22.0,feminino,right,España,Español,Bachelor degree,no,no,A,1,conjunction_syn,L1,syncopated,s1,r1,124,Online_conjL1_syn//d.ne.ni3.none.none.wav,pu,fo,la,ki,sil,ro,lu,ri,sil1,cho,sil2,['-'],,,none,none,,,,ne,4,,,,,,,,,,,,,,,4.0,2.0,Español,0.0,Catalán,6.0,Inglés,2.0,Alemán,17.0,5.0,3.0,yes,no,yes,piano,13,,,"Después de dos lenguajes, fui a tomar agua para continuar atenta en los siguientes dos. ",49.0,yes
125,2024-02-14_11h57.37.103,Unsyncopated_study2,s112,22.0,feminino,right,España,Español,Bachelor degree,no,no,A,1,conjunction_syn,L1,syncopated,s1,r2,125,Online_conjL1_syn//d.ne.ni2.222.1332.wav,ta,ne,lu,be,sil,ri,ni,cho,sil1,ze,sil2,['catch'],[1.1502999999997883],[1.1502999999997883],0.222,no_beat,0.9282999999997884,0.9282999999997884,"[""space""]",ne,4,,,,,,,,,,,,,,,4.0,2.0,Español,0.0,Catalán,6.0,Inglés,2.0,Alemán,17.0,5.0,3.0,yes,no,yes,piano,13,,,"Después de dos lenguajes, fui a tomar agua para continuar atenta en los siguientes dos. ",49.0,yes
126,2024-02-14_11h57.37.103,Unsyncopated_study2,s112,22.0,feminino,right,España,Español,Bachelor degree,no,no,A,1,conjunction_syn,L1,syncopated,s1,r1,126,Online_conjL1_syn//d.ne.ni1.222.1110.wav,pu,ne,ri,ki,sil,ni,la,ze,sil1,lu,sil2,['catch'],[1.516399999999976],[1.516399999999976],0.222,no_beat,,1.294399999999976,"[""space""]",ne,4,,,,,,,,,,,,,,,4.0,2.0,Español,0.0,Catalán,6.0,Inglés,2.0,Alemán,17.0,5.0,3.0,yes,no,yes,piano,13,,,"Después de dos lenguajes, fui a tomar agua para continuar atenta en los siguientes dos. ",49.0,yes
127,2024-02-14_11h57.37.103,Unsyncopated_study2,s112,22.0,feminino,right,España,Español,Bachelor degree,no,no,A,1,conjunction_syn,L1,syncopated,s2,r1,127,Online_conjL1_syn//d.ne.ni0.none.none.wav,lu,ze,zu,pu,sil,ro,ri,ki,sil1,la,sil2,['-'],,,none,none,,,,ne,4,,,,,,,,,,,,,,,4.0,2.0,Español,0.0,Catalán,6.0,Inglés,2.0,Alemán,17.0,5.0,3.0,yes,no,yes,piano,13,,,"Después de dos lenguajes, fui a tomar agua para continuar atenta en los siguientes dos. ",49.0,yes
128,2024-02-14_11h57.37.103,Unsyncopated_study2,s112,22.0,feminino,right,España,Español,Bachelor degree,no,no,A,2,conjunction_un,L2,unsyncopated,s2,r1,0,Online_conjL2_un//d.si.ñu11.none.none.wav,ba,to,bi,sil,go,mi,te,sil1,du,su,sil2,['-'],,,none,none,,,,si,4,,,,,,,,,,,,,,,4.0,2.0,Español,0.0,Catalán,6.0,Inglés,2.0,Alemán,17.0,5.0,3.0,yes,no,yes,piano,13,,,"Después de dos lenguajes, fui a tomar agua para continuar atenta en los siguientes dos. ",49.0,yes
129,2024-02-14_11h57.37.103,Unsyncopated_study2,s112,22.0,feminino,right,España,Español,Bachelor degree,no,no,A,2,conjunction_un,L2,unsyncopated,s2,r2,1,Online_conjL2_un//d.si.ñu9.none.none.wav,bi,cha,to,sil,fe,te,ba,sil1,ra,me,sil2,['-'],,,none,none,,,,si,4,,,,,,,,,,,,,,,4.0,2.0,Español,0.0,Catalán,6.0,Inglés,2.0,Alemán,17.0,5.0,3.0,yes,no,yes,piano,13,,,"Después de dos lenguajes, fui a tomar agua para continuar atenta en los siguientes dos. ",49.0,yes
130,2024-02-14_11h57.37.103,Unsyncopated_study2,s112,22.0,feminino,right,España,Español,Bachelor degree,no,no,A,2,conjunction_un,L2,unsyncopated,s2,r1,2,Online_conjL2_un//d.si.ñu8.0.222.wav,si,ñu,bi,sil,go,me,to,sil1,du,ba,sil2,['catch'],[0.6060999999999694],[0.6060999999999694],0.0,beat,0.6060999999999694,0.6060999999999694,"[""space""]",si,4,,,,,,,,,,,,,,,4.0,2.0,Español,0.0,Catalán,6.0,Inglés,2.0,Alemán,17.0,5.0,3.0,yes,no,yes,piano,13,,,"Después de dos lenguajes, fui a tomar agua para continuar atenta en los siguientes dos. ",49.0,yes
131,2024-02-14_11h57.37.103,Unsyncopated_study2,s112,22.0,feminino,right,España,Español,Bachelor degree,no,no,A,2,conjunction_un,L2,unsyncopated,s1,r2,3,Online_conjL2_un//d.si.ñu10.none.none.wav,fe,ba,bi,sil,ra,te,mi,sil1,me,to,sil2,['-'],,,none,none,,,,si,4,,,,,,,,,,,,,,,4.0,2.0,Español,0.0,Catalán,6.0,Inglés,2.0,Alemán,17.0,5.0,3.0,yes,no,yes,piano,13,,,"Después de dos lenguajes, fui a tomar agua para continuar atenta en los siguientes dos. ",49.0,yes
132,2024-02-14_11h57.37.103,Unsyncopated_study2,s112,22.0,feminino,right,España,Español,Bachelor degree,no,no,A,2,conjunction_un,L2,unsyncopated,s2,r1,4,Online_conjL2_un//b.fe.ra23.none.none.wav,ñu,ba,mi,sil,go,to,ñi,sil1,du,bi,sil2,['-'],,,none,none,,,,fe,1,,,,,,,,,,,,,,,4.0,2.0,Español,0.0,Catalán,6.0,Inglés,2.0,Alemán,17.0,5.0,3.0,yes,no,yes,piano,13,,,"Después de dos lenguajes, fui a tomar agua para continuar atenta en los siguientes dos. ",49.0,yes
133,2024-02-14_11h57.37.103,Unsyncopated_study2,s112,22.0,feminino,right,España,Español,Bachelor degree,no,no,A,2,conjunction_un,L2,unsyncopated,s1,r1,5,Online_conjL2_un//b.fe.ra22.none.none.wav,go,te,to,sil,du,me,ñu,sil1,ñi,si,sil2,['-'],,,none,none,,,,fe,1,,,,,,,,,,,,,,,4.0,2.0,Español,0.0,Catalán,6.0,Inglés,2.0,Alemán,17.0,5.0,3.0,yes,no,yes,piano,13,,,"Después de dos lenguajes, fui a tomar agua para continuar atenta en los siguientes dos. ",49.0,yes
134,2024-02-14_11h57.37.103,Unsyncopated_study2,s112,22.0,feminino,right,España,Español,Bachelor degree,no,no,A,2,conjunction_un,L2,unsyncopated,s2,r1,6,Online_conjL2_un//b.fe.ra21.none.none.wav,bi,ba,to,sil,go,te,si,sil1,du,me,sil2,['-'],,,none,none,,,,fe,1,,,,,,,,,,,,,,,4.0,2.0,Español,0.0,Catalán,6.0,Inglés,2.0,Alemán,17.0,5.0,3.0,yes,no,yes,piano,13,,,"Después de dos lenguajes, fui a tomar agua para continuar atenta en los siguientes dos. ",49.0,yes
135,2024-02-14_11h57.37.103,Unsyncopated_study2,s112,22.0,feminino,right,España,Español,Bachelor degree,no,no,A,2,conjunction_un,L2,unsyncopated,s2,r2,7,Online_conjL2_un//b.fe.ra20.888.1776.wav,bi,ñi,me,sil,fe,cha,si,sil1,ra,su,sil2,['catch'],[1.6893000000004577],[1.6893000000004577],0.888,beat,0.8013000000004576,0.8013000000004576,"[""space""]",fe,1,,,,,,,,,,,,,,,4.0,2.0,Español,0.0,Catalán,6.0,Inglés,2.0,Alemán,17.0,5.0,3.0,yes,no,yes,piano,13,,,"Después de dos lenguajes, fui a tomar agua para continuar atenta en los siguientes dos. ",49.0,yes
136,2024-02-14_11h57.37.103,Unsyncopated_study2,s112,22.0,feminino,right,España,Español,Bachelor degree,no,no,A,2,conjunction_un,L2,unsyncopated,s2,r2,8,Online_conjL2_un//b.fe.ra2.888.1776.wav,bi,te,mi,sil,fe,ñu,si,sil1,ra,ba,sil2,['catch'],[1.9527999999997974],[1.9527999999997974],0.888,beat,1.0647999999997977,1.0647999999997977,"[""space""]",fe,1,,,,,,,,,,,,,,,4.0,2.0,Español,0.0,Catalán,6.0,Inglés,2.0,Alemán,17.0,5.0,3.0,yes,no,yes,piano,13,,,"Después de dos lenguajes, fui a tomar agua para continuar atenta en los siguientes dos. ",49.0,yes
137,2024-02-14_11h57.37.103,Unsyncopated_study2,s112,22.0,feminino,right,España,Español,Bachelor degree,no,no,A,2,conjunction_un,L2,unsyncopated,s1,r1,9,Online_conjL2_un//b.fe.ra3.none.none.wav,go,bi,to,sil,du,me,ba,sil1,su,ñi,sil2,['-'],,,none,none,,,,fe,1,,,,,,,,,,,,,,,4.0,2.0,Español,0.0,Catalán,6.0,Inglés,2.0,Alemán,17.0,5.0,3.0,yes,no,yes,piano,13,,,"Después de dos lenguajes, fui a tomar agua para continuar atenta en los siguientes dos. ",49.0,yes
138,2024-02-14_11h57.37.103,Unsyncopated_study2,s112,22.0,feminino,right,España,Español,Bachelor degree,no,no,A,2,conjunction_un,L2,unsyncopated,s1,r1,10,Online_conjL2_un//b.fe.ra1.none.none.wav,go,te,su,sil,du,mi,ba,sil1,si,me,sil2,['-'],,,none,none,,,,fe,1,,,,,,,,,,,,,,,4.0,2.0,Español,0.0,Catalán,6.0,Inglés,2.0,Alemán,17.0,5.0,3.0,yes,no,yes,piano,13,,,"Después de dos lenguajes, fui a tomar agua para continuar atenta en los siguientes dos. ",49.0,yes
139,2024-02-14_11h57.37.103,Unsyncopated_study2,s112,22.0,feminino,right,España,Español,Bachelor degree,no,no,A,2,conjunction_un,L2,unsyncopated,s2,r2,11,Online_conjL2_un//b.fe.ra0.888.1776.wav,ñi,mi,si,sil,fe,to,ñu,sil1,ra,ba,sil2,['catch'],[1.93100000000004],[1.93100000000004],0.888,beat,1.04300000000004,1.04300000000004,"[""space""]",fe,1,,,,,,,,,,,,,,,4.0,2.0,Español,0.0,Catalán,6.0,Inglés,2.0,Alemán,17.0,5.0,3.0,yes,no,yes,piano,13,,,"Después de dos lenguajes, fui a tomar agua para continuar atenta en los siguientes dos. ",49.0,yes
140,2024-02-14_11h57.37.103,Unsyncopated_study2,s112,22.0,feminino,right,España,Español,Bachelor degree,no,no,A,2,conjunction_un,L2,unsyncopated,s1,r1,12,Online_conjL2_un//d.si.ñu6.444.1110.wav,go,cha,si,sil,du,ñu,ba,sil1,me,to,sil2,['catch'],[1.2946000000001732],[1.2946000000001732],0.444,no_beat,0.8506000000001732,0.8506000000001732,"[""space""]",si,4,,,,,,,,,,,,,,,4.0,2.0,Español,0.0,Catalán,6.0,Inglés,2.0,Alemán,17.0,5.0,3.0,yes,no,yes,piano,13,,,"Después de dos lenguajes, fui a tomar agua para continuar atenta en los siguientes dos. ",49.0,yes
141,2024-02-14_11h57.37.103,Unsyncopated_study2,s112,22.0,feminino,right,España,Español,Bachelor degree,no,no,A,2,conjunction_un,L2,unsyncopated,s2,r2,13,Online_conjL2_un//d.si.ñu5.none.none.wav,bi,ñi,mi,sil,fe,te,ba,sil1,ra,to,sil2,['false alarm'],[2.0073999999999614],[2.0073999999999614],none,none,,,"[""space""]",si,4,,,,,,,,,,,,,,,4.0,2.0,Español,0.0,Catalán,6.0,Inglés,2.0,Alemán,17.0,5.0,3.0,yes,no,yes,piano,13,,,"Después de dos lenguajes, fui a tomar agua para continuar atenta en los siguientes dos. ",49.0,yes
142,2024-02-14_11h57.37.103,Unsyncopated_study2,s112,22.0,feminino,right,España,Español,Bachelor degree,no,no,A,2,conjunction_un,L2,unsyncopated,s1,r1,14,Online_conjL2_un//d.si.ñu4.1332.444.wav,go,me,ñu,sil,du,cha,si,sil1,bi,to,sil2,['catch'],[2.185999999999922],[2.185999999999922],1.332,no_beat,0.8539999999999217,0.8539999999999217,"[""space""]",si,4,,,,,,,,,,,,,,,4.0,2.0,Español,0.0,Catalán,6.0,Inglés,2.0,Alemán,17.0,5.0,3.0,yes,no,yes,piano,13,,,"Después de dos lenguajes, fui a tomar agua para continuar atenta en los siguientes dos. ",49.0,yes
143,2024-02-14_11h57.37.103,Unsyncopated_study2,s112,22.0,feminino,right,España,Español,Bachelor degree,no,no,A,2,conjunction_un,L2,unsyncopated,s1,r1,15,Online_conjL2_un//d.si.ñu7.none.none.wav,go,ñi,mi,sil,du,te,ba,sil1,su,to,sil2,['-'],,,none,none,,,,si,4,,,,,,,,,,,,,,,4.0,2.0,Español,0.0,Catalán,6.0,Inglés,2.0,Alemán,17.0,5.0,3.0,yes,no,yes,piano,13,,,"Después de dos lenguajes, fui a tomar agua para continuar atenta en los siguientes dos. ",49.0,yes
144,2024-02-14_11h57.37.103,Unsyncopated_study2,s112,22.0,feminino,right,España,Español,Bachelor degree,no,no,A,2,conjunction_un,L2,unsyncopated,s1,r1,16,Online_conjL2_un//c.cha.me9.none.none.wav,go,to,ñi,sil,du,mi,ñu,sil1,bi,su,sil2,['-'],,,none,none,,,,cha,3,,,,,,,,,,,,,,,4.0,2.0,Español,0.0,Catalán,6.0,Inglés,2.0,Alemán,17.0,5.0,3.0,yes,no,yes,piano,13,,,"Después de dos lenguajes, fui a tomar agua para continuar atenta en los siguientes dos. ",49.0,yes
145,2024-02-14_11h57.37.103,Unsyncopated_study2,s112,22.0,feminino,right,España,Español,Bachelor degree,no,no,A,2,conjunction_un,L2,unsyncopated,s1,r1,17,Online_conjL2_un//c.cha.me11.none.none.wav,go,su,ñu,sil,du,ñi,mi,sil1,ba,to,sil2,['-'],,,none,none,,,,cha,3,,,,,,,,,,,,,,,4.0,2.0,Español,0.0,Catalán,6.0,Inglés,2.0,Alemán,17.0,5.0,3.0,yes,no,yes,piano,13,,,"Después de dos lenguajes, fui a tomar agua para continuar atenta en los siguientes dos. ",49.0,yes
146,2024-02-14_11h57.37.103,Unsyncopated_study2,s112,22.0,feminino,right,España,Español,Bachelor degree,no,no,A,2,conjunction_un,L2,unsyncopated,s2,r2,18,Online_conjL2_un//c.cha.me10.0.222.wav,cha,me,mi,sil,fe,su,si,sil1,ra,ba,sil2,['catch'],[0.8634999999999309],[0.8634999999999309],0.0,beat,0.8634999999999309,0.8634999999999309,"[""space""]",cha,3,,,,,,,,,,,,,,,4.0,2.0,Español,0.0,Catalán,6.0,Inglés,2.0,Alemán,17.0,5.0,3.0,yes,no,yes,piano,13,,,"Después de dos lenguajes, fui a tomar agua para continuar atenta en los siguientes dos. ",49.0,yes
147,2024-02-14_11h57.37.103,Unsyncopated_study2,s112,22.0,feminino,right,España,Español,Bachelor degree,no,no,A,2,conjunction_un,L2,unsyncopated,s1,r2,19,Online_conjL2_un//c.cha.me8.444.1332.wav,fe,bi,cha,sil,ra,ñi,me,sil1,te,si,sil2,['catch'],[1.3560999999999694],[1.3560999999999694],0.444,no_beat,0.9120999999999696,0.9120999999999696,"[""space""]",cha,3,,,,,,,,,,,,,,,4.0,2.0,Español,0.0,Catalán,6.0,Inglés,2.0,Alemán,17.0,5.0,3.0,yes,no,yes,piano,13,,,"Después de dos lenguajes, fui a tomar agua para continuar atenta en los siguientes dos. ",49.0,yes
148,2024-02-14_11h57.37.103,Unsyncopated_study2,s112,22.0,feminino,right,España,Español,Bachelor degree,no,no,A,2,conjunction_un,L2,unsyncopated,s2,r2,20,Online_conjL2_un//b.fe.ra26.888.1776.wav,ba,su,si,sil,fe,ñu,mi,sil1,ra,ñi,sil2,['catch'],[1.7049999999999272],[1.7049999999999272],0.888,beat,0.8169999999999272,0.8169999999999272,"[""space""]",fe,1,,,,,,,,,,,,,,,4.0,2.0,Español,0.0,Catalán,6.0,Inglés,2.0,Alemán,17.0,5.0,3.0,yes,no,yes,piano,13,,,"Después de dos lenguajes, fui a tomar agua para continuar atenta en los siguientes dos. ",49.0,yes
149,2024-02-14_11h57.37.103,Unsyncopated_study2,s112,22.0,feminino,right,España,Español,Bachelor degree,no,no,A,2,conjunction_un,L2,unsyncopated,s2,r2,21,Online_conjL2_un//b.fe.ra25.888.1776.wav,me,bi,si,sil,fe,su,te,sil1,ra,cha,sil2,['catch'],[1.76729999999975],[1.76729999999975],0.888,beat,0.8792999999997501,0.8792999999997501,"[""space""]",fe,1,,,,,,,,,,,,,,,4.0,2.0,Español,0.0,Catalán,6.0,Inglés,2.0,Alemán,17.0,5.0,3.0,yes,no,yes,piano,13,,,"Después de dos lenguajes, fui a tomar agua para continuar atenta en los siguientes dos. ",49.0,yes
150,2024-02-14_11h57.37.103,Unsyncopated_study2,s112,22.0,feminino,right,España,Español,Bachelor degree,no,no,A,2,conjunction_un,L2,unsyncopated,s2,r1,22,Online_conjL2_un//b.fe.ra27.none.none.wav,mi,si,me,sil,go,ñu,to,sil1,du,te,sil2,['-'],,,none,none,,,,fe,1,,,,,,,,,,,,,,,4.0,2.0,Español,0.0,Catalán,6.0,Inglés,2.0,Alemán,17.0,5.0,3.0,yes,no,yes,piano,13,,,"Después de dos lenguajes, fui a tomar agua para continuar atenta en los siguientes dos. ",49.0,yes
151,2024-02-14_11h57.37.103,Unsyncopated_study2,s112,22.0,feminino,right,España,Español,Bachelor degree,no,no,A,2,conjunction_un,L2,unsyncopated,s1,r1,23,Online_conjL2_un//b.fe.ra24.none.none.wav,go,su,bi,sil,du,me,ñi,sil1,mi,cha,sil2,['-'],,,none,none,,,,fe,1,,,,,,,,,,,,,,,4.0,2.0,Español,0.0,Catalán,6.0,Inglés,2.0,Alemán,17.0,5.0,3.0,yes,no,yes,piano,13,,,"Después de dos lenguajes, fui a tomar agua para continuar atenta en los siguientes dos. ",49.0,yes
152,2024-02-14_11h57.37.103,Unsyncopated_study2,s112,22.0,feminino,right,España,Español,Bachelor degree,no,no,A,2,conjunction_un,L2,unsyncopated,s2,r1,24,Online_conjL2_un//b.fe.ra5.none.none.wav,cha,si,su,sil,go,bi,mi,sil1,du,ñu,sil2,['-'],,,none,none,,,,fe,1,,,,,,,,,,,,,,,4.0,2.0,Español,0.0,Catalán,6.0,Inglés,2.0,Alemán,17.0,5.0,3.0,yes,no,yes,piano,13,,,"Después de dos lenguajes, fui a tomar agua para continuar atenta en los siguientes dos. ",49.0,yes
153,2024-02-14_11h57.37.103,Unsyncopated_study2,s112,22.0,feminino,right,España,Español,Bachelor degree,no,no,A,2,conjunction_un,L2,unsyncopated,s1,r2,25,Online_conjL2_un//b.fe.ra6.0.888.wav,fe,me,ñu,sil,ra,ñi,mi,sil1,to,bi,sil2,['catch'],[1.0430999999996402],[1.0430999999996402],0.0,beat,1.0430999999996402,1.0430999999996402,"[""space""]",fe,1,,,,,,,,,,,,,,,4.0,2.0,Español,0.0,Catalán,6.0,Inglés,2.0,Alemán,17.0,5.0,3.0,yes,no,yes,piano,13,,,"Después de dos lenguajes, fui a tomar agua para continuar atenta en los siguientes dos. ",49.0,yes
154,2024-02-14_11h57.37.103,Unsyncopated_study2,s112,22.0,feminino,right,España,Español,Bachelor degree,no,no,A,2,conjunction_un,L2,unsyncopated,s2,r2,26,Online_conjL2_un//b.fe.ra4.888.1776.wav,bi,ñi,to,sil,fe,me,ba,sil1,ra,cha,sil2,['catch'],[2.008100000000013],[2.008100000000013],0.888,beat,1.1201000000000132,1.1201000000000132,"[""space""]",fe,1,,,,,,,,,,,,,,,4.0,2.0,Español,0.0,Catalán,6.0,Inglés,2.0,Alemán,17.0,5.0,3.0,yes,no,yes,piano,13,,,"Después de dos lenguajes, fui a tomar agua para continuar atenta en los siguientes dos. ",49.0,yes
155,2024-02-14_11h57.37.103,Unsyncopated_study2,s112,22.0,feminino,right,España,Español,Bachelor degree,no,no,A,2,conjunction_un,L2,unsyncopated,s1,r1,27,Online_conjL2_un//b.fe.ra7.none.none.wav,go,ñu,si,sil,du,me,ñi,sil1,te,ba,sil2,['-'],,,none,none,,,,fe,1,,,,,,,,,,,,,,,4.0,2.0,Español,0.0,Catalán,6.0,Inglés,2.0,Alemán,17.0,5.0,3.0,yes,no,yes,piano,13,,,"Después de dos lenguajes, fui a tomar agua para continuar atenta en los siguientes dos. ",49.0,yes
156,2024-02-14_11h57.37.103,Unsyncopated_study2,s112,22.0,feminino,right,España,Español,Bachelor degree,no,no,A,2,conjunction_un,L2,unsyncopated,s2,r1,28,Online_conjL2_un//d.si.ñu18.1332.222.wav,bi,ñu,me,sil,go,cha,si,sil1,du,ba,sil2,['catch'],[1.8419999999998709],[1.8419999999998709],1.332,no_beat,0.5099999999998708,0.5099999999998708,"[""space""]",si,4,,,,,,,,,,,,,,,4.0,2.0,Español,0.0,Catalán,6.0,Inglés,2.0,Alemán,17.0,5.0,3.0,yes,no,yes,piano,13,,,"Después de dos lenguajes, fui a tomar agua para continuar atenta en los siguientes dos. ",49.0,yes
157,2024-02-14_11h57.37.103,Unsyncopated_study2,s112,22.0,feminino,right,España,Español,Bachelor degree,no,no,A,2,conjunction_un,L2,unsyncopated,s2,r2,29,Online_conjL2_un//d.si.ñu17.1110.0.wav,ñu,bi,te,sil,fe,si,me,sil1,ra,ba,sil2,['catch'],[2.380799999999681],[2.380799999999681],1.11,no_beat,,1.2707999999996809,"[""space""]",si,4,,,,,,,,,,,,,,,4.0,2.0,Español,0.0,Catalán,6.0,Inglés,2.0,Alemán,17.0,5.0,3.0,yes,no,yes,piano,13,,,"Después de dos lenguajes, fui a tomar agua para continuar atenta en los siguientes dos. ",49.0,yes
158,2024-02-14_11h57.37.103,Unsyncopated_study2,s112,22.0,feminino,right,España,Español,Bachelor degree,no,no,A,2,conjunction_un,L2,unsyncopated,s2,r1,30,Online_conjL2_un//d.si.ñu16.1110.222.wav,te,ñu,mi,sil,go,si,to,sil1,du,me,sil2,['catch'],[2.114699999999857],[2.114699999999857],1.11,no_beat,1.004699999999857,1.004699999999857,"[""space""]",si,4,,,,,,,,,,,,,,,4.0,2.0,Español,0.0,Catalán,6.0,Inglés,2.0,Alemán,17.0,5.0,3.0,yes,no,yes,piano,13,,,"Después de dos lenguajes, fui a tomar agua para continuar atenta en los siguientes dos. ",49.0,yes
159,2024-02-14_11h57.37.103,Unsyncopated_study2,s112,22.0,feminino,right,España,Español,Bachelor degree,no,no,A,2,conjunction_un,L2,unsyncopated,s1,r1,31,Online_conjL2_un//d.si.ñu19.444.1332.wav,go,su,si,sil,du,to,ñu,sil1,te,me,sil2,['catch'],[1.3493999999998323],[1.3493999999998323],0.444,no_beat,0.9053999999998324,0.9053999999998324,"[""space""]",si,4,,,,,,,,,,,,,,,4.0,2.0,Español,0.0,Catalán,6.0,Inglés,2.0,Alemán,17.0,5.0,3.0,yes,no,yes,piano,13,,,"Después de dos lenguajes, fui a tomar agua para continuar atenta en los siguientes dos. ",49.0,yes
160,2024-02-14_11h57.37.103,Unsyncopated_study2,s112,22.0,feminino,right,España,Español,Bachelor degree,no,no,A,2,conjunction_un,L2,unsyncopated,s2,r2,32,Online_conjL2_un//c.cha.me16.none.none.wav,te,mi,si,sil,fe,ñi,bi,sil1,ra,ñu,sil2,['-'],,,none,none,,,,cha,3,,,,,,,,,,,,,,,4.0,2.0,Español,0.0,Catalán,6.0,Inglés,2.0,Alemán,17.0,5.0,3.0,yes,no,yes,piano,13,,,"Después de dos lenguajes, fui a tomar agua para continuar atenta en los siguientes dos. ",49.0,yes
161,2024-02-14_11h57.37.103,Unsyncopated_study2,s112,22.0,feminino,right,España,Español,Bachelor degree,no,no,A,2,conjunction_un,L2,unsyncopated,s2,r1,33,Online_conjL2_un//c.cha.me19.none.none.wav,bi,mi,to,sil,go,ñu,si,sil1,du,ñi,sil2,['-'],,,none,none,,,,cha,3,,,,,,,,,,,,,,,4.0,2.0,Español,0.0,Catalán,6.0,Inglés,2.0,Alemán,17.0,5.0,3.0,yes,no,yes,piano,13,,,"Después de dos lenguajes, fui a tomar agua para continuar atenta en los siguientes dos. ",49.0,yes
162,2024-02-14_11h57.37.103,Unsyncopated_study2,s112,22.0,feminino,right,España,Español,Bachelor degree,no,no,A,2,conjunction_un,L2,unsyncopated,s2,r1,34,Online_conjL2_un//c.cha.me18.none.none.wav,ba,su,mi,sil,go,ñu,te,sil1,du,ñi,sil2,['-'],,,none,none,,,,cha,3,,,,,,,,,,,,,,,4.0,2.0,Español,0.0,Catalán,6.0,Inglés,2.0,Alemán,17.0,5.0,3.0,yes,no,yes,piano,13,,,"Después de dos lenguajes, fui a tomar agua para continuar atenta en los siguientes dos. ",49.0,yes
163,2024-02-14_11h57.37.103,Unsyncopated_study2,s112,22.0,feminino,right,España,Español,Bachelor degree,no,no,A,2,conjunction_un,L2,unsyncopated,s2,r1,35,Online_conjL2_un//c.cha.me17.1332.444.wav,bi,ba,me,sil,go,ñi,cha,sil1,du,si,sil2,['catch'],[2.173700000000281],[2.173700000000281],1.332,no_beat,0.8417000000002808,0.8417000000002808,"[""space""]",cha,3,,,,,,,,,,,,,,,4.0,2.0,Español,0.0,Catalán,6.0,Inglés,2.0,Alemán,17.0,5.0,3.0,yes,no,yes,piano,13,,,"Después de dos lenguajes, fui a tomar agua para continuar atenta en los siguientes dos. ",49.0,yes
164,2024-02-14_11h57.37.103,Unsyncopated_study2,s112,22.0,feminino,right,España,Español,Bachelor degree,no,no,A,2,conjunction_un,L2,unsyncopated,s2,r2,36,Online_conjL2_un//a.go.du7.none.none.wav,to,ñi,su,sil,fe,si,ñu,sil1,ra,cha,sil2,['-'],,,none,none,,,,du,2,,,,,,,,,,,,,,,4.0,2.0,Español,0.0,Catalán,6.0,Inglés,2.0,Alemán,17.0,5.0,3.0,yes,no,yes,piano,13,,,"Después de dos lenguajes, fui a tomar agua para continuar atenta en los siguientes dos. ",49.0,yes
165,2024-02-14_11h57.37.103,Unsyncopated_study2,s112,22.0,feminino,right,España,Español,Bachelor degree,no,no,A,2,conjunction_un,L2,unsyncopated,s1,r2,37,Online_conjL2_un//a.go.du5.none.none.wav,fe,bi,me,sil,ra,to,si,sil1,ñi,ñu,sil2,['-'],,,none,none,,,,du,2,,,,,,,,,,,,,,,4.0,2.0,Español,0.0,Catalán,6.0,Inglés,2.0,Alemán,17.0,5.0,3.0,yes,no,yes,piano,13,,,"Después de dos lenguajes, fui a tomar agua para continuar atenta en los siguientes dos. ",49.0,yes
166,2024-02-14_11h57.37.103,Unsyncopated_study2,s112,22.0,feminino,right,España,Español,Bachelor degree,no,no,A,2,conjunction_un,L2,unsyncopated,s2,r2,38,Online_conjL2_un//a.go.du4.none.none.wav,ñi,ba,cha,sil,fe,bi,ñu,sil1,ra,mi,sil2,['-'],,,none,none,,,,du,2,,,,,,,,,,,,,,,4.0,2.0,Español,0.0,Catalán,6.0,Inglés,2.0,Alemán,17.0,5.0,3.0,yes,no,yes,piano,13,,,"Después de dos lenguajes, fui a tomar agua para continuar atenta en los siguientes dos. ",49.0,yes
167,2024-02-14_11h57.37.103,Unsyncopated_study2,s112,22.0,feminino,right,España,Español,Bachelor degree,no,no,A,2,conjunction_un,L2,unsyncopated,s2,r2,39,Online_conjL2_un//a.go.du6.none.none.wav,ñu,ba,bi,sil,fe,me,su,sil1,ra,to,sil2,['-'],,,none,none,,,,du,2,,,,,,,,,,,,,,,4.0,2.0,Español,0.0,Catalán,6.0,Inglés,2.0,Alemán,17.0,5.0,3.0,yes,no,yes,piano,13,,,"Después de dos lenguajes, fui a tomar agua para continuar atenta en los siguientes dos. ",49.0,yes
168,2024-02-14_11h57.37.103,Unsyncopated_study2,s112,22.0,feminino,right,España,Español,Bachelor degree,no,no,A,2,conjunction_un,L2,unsyncopated,s1,r2,40,Online_conjL2_un//d.si.ñu25.none.none.wav,fe,me,ñi,sil,ra,to,mi,sil1,bi,cha,sil2,['false alarm'],[0.22460000000000946],[0.22460000000000946],none,none,,,"[""space""]",si,4,,,,,,,,,,,,,,,4.0,2.0,Español,0.0,Catalán,6.0,Inglés,2.0,Alemán,17.0,5.0,3.0,yes,no,yes,piano,13,,,"Después de dos lenguajes, fui a tomar agua para continuar atenta en los siguientes dos. ",49.0,yes
169,2024-02-14_11h57.37.103,Unsyncopated_study2,s112,22.0,feminino,right,España,Español,Bachelor degree,no,no,A,2,conjunction_un,L2,unsyncopated,s2,r2,41,Online_conjL2_un//d.si.ñu24.0.1110.wav,si,bi,to,sil,fe,ñu,te,sil1,ra,ñi,sil2,['catch'],[0.8514999999999873],[0.8514999999999873],0.0,beat,0.8514999999999873,0.8514999999999873,"[""space""]",si,4,,,,,,,,,,,,,,,4.0,2.0,Español,0.0,Catalán,6.0,Inglés,2.0,Alemán,17.0,5.0,3.0,yes,no,yes,piano,13,,,"Después de dos lenguajes, fui a tomar agua para continuar atenta en los siguientes dos. ",49.0,yes
170,2024-02-14_11h57.37.103,Unsyncopated_study2,s112,22.0,feminino,right,España,Español,Bachelor degree,no,no,A,2,conjunction_un,L2,unsyncopated,s2,r2,42,Online_conjL2_un//d.si.ñu27.1332.0.wav,ñu,bi,to,sil,fe,ba,si,sil1,ra,te,sil2,['miss'],,,1.332,no_beat,,,,si,4,,,,,,,,,,,,,,,4.0,2.0,Español,0.0,Catalán,6.0,Inglés,2.0,Alemán,17.0,5.0,3.0,yes,no,yes,piano,13,,,"Después de dos lenguajes, fui a tomar agua para continuar atenta en los siguientes dos. ",49.0,yes
171,2024-02-14_11h57.37.103,Unsyncopated_study2,s112,22.0,feminino,right,España,Español,Bachelor degree,no,no,A,2,conjunction_un,L2,unsyncopated,s1,r2,43,Online_conjL2_un//d.si.ñu26.none.none.wav,fe,bi,to,sil,ra,mi,me,sil1,te,ba,sil2,['false alarm'],[0.5106000000000677],[0.5106000000000677],none,none,,,"[""space""]",si,4,,,,,,,,,,,,,,,4.0,2.0,Español,0.0,Catalán,6.0,Inglés,2.0,Alemán,17.0,5.0,3.0,yes,no,yes,piano,13,,,"Después de dos lenguajes, fui a tomar agua para continuar atenta en los siguientes dos. ",49.0,yes
172,2024-02-14_11h57.37.103,Unsyncopated_study2,s112,22.0,feminino,right,España,Español,Bachelor degree,no,no,A,2,conjunction_un,L2,unsyncopated,s1,r2,44,Online_conjL2_un//a.go.du17.none.none.wav,fe,mi,su,sil,ra,me,bi,sil1,te,si,sil2,['-'],,,none,none,,,,du,2,,,,,,,,,,,,,,,4.0,2.0,Español,0.0,Catalán,6.0,Inglés,2.0,Alemán,17.0,5.0,3.0,yes,no,yes,piano,13,,,"Después de dos lenguajes, fui a tomar agua para continuar atenta en los siguientes dos. ",49.0,yes
173,2024-02-14_11h57.37.103,Unsyncopated_study2,s112,22.0,feminino,right,España,Español,Bachelor degree,no,no,A,2,conjunction_un,L2,unsyncopated,s1,r1,45,Online_conjL2_un//a.go.du19.0.888.wav,go,ba,si,sil,du,su,mi,sil1,ñi,cha,sil2,['catch'],[1.917599999999993],[1.917599999999993],0.888,beat,1.0295999999999932,1.0295999999999932,"[""space""]",du,2,,,,,,,,,,,,,,,4.0,2.0,Español,0.0,Catalán,6.0,Inglés,2.0,Alemán,17.0,5.0,3.0,yes,no,yes,piano,13,,,"Después de dos lenguajes, fui a tomar agua para continuar atenta en los siguientes dos. ",49.0,yes
174,2024-02-14_11h57.37.103,Unsyncopated_study2,s112,22.0,feminino,right,España,Español,Bachelor degree,no,no,A,2,conjunction_un,L2,unsyncopated,s2,r1,46,Online_conjL2_un//a.go.du16.888.1776.wav,cha,me,ba,sil,go,to,si,sil1,du,ñi,sil2,['miss'],,,1.776,beat,,,,du,2,,,,,,,,,,,,,,,4.0,2.0,Español,0.0,Catalán,6.0,Inglés,2.0,Alemán,17.0,5.0,3.0,yes,no,yes,piano,13,,,"Después de dos lenguajes, fui a tomar agua para continuar atenta en los siguientes dos. ",49.0,yes
175,2024-02-14_11h57.37.103,Unsyncopated_study2,s112,22.0,feminino,right,España,Español,Bachelor degree,no,no,A,2,conjunction_un,L2,unsyncopated,s1,r1,47,Online_conjL2_un//a.go.du18.0.888.wav,go,me,si,sil,du,ñi,ba,sil1,su,to,sil2,['miss'],,,0.888,beat,,,,du,2,,,,,,,,,,,,,,,4.0,2.0,Español,0.0,Catalán,6.0,Inglés,2.0,Alemán,17.0,5.0,3.0,yes,no,yes,piano,13,,,"Después de dos lenguajes, fui a tomar agua para continuar atenta en los siguientes dos. ",49.0,yes
176,2024-02-14_11h57.37.103,Unsyncopated_study2,s112,22.0,feminino,right,España,Español,Bachelor degree,no,no,A,2,conjunction_un,L2,unsyncopated,s1,r1,48,Online_conjL2_un//c.cha.me28.222.444.wav,go,cha,me,sil,du,mi,ba,sil1,bi,to,sil2,['catch'],[1.0760999999999967],[1.0760999999999967],0.222,no_beat,0.8540999999999968,0.8540999999999968,"[""space""]",cha,3,,,,,,,,,,,,,,,4.0,2.0,Español,0.0,Catalán,6.0,Inglés,2.0,Alemán,17.0,5.0,3.0,yes,no,yes,piano,13,,,"Después de dos lenguajes, fui a tomar agua para continuar atenta en los siguientes dos. ",49.0,yes
177,2024-02-14_11h57.37.103,Unsyncopated_study2,s112,22.0,feminino,right,España,Español,Bachelor degree,no,no,A,2,conjunction_un,L2,unsyncopated,s2,r2,49,Online_conjL2_un//c.cha.me29.none.none.wav,ba,ñu,mi,sil,fe,te,si,sil1,ra,ñi,sil2,['-'],,,none,none,,,,cha,3,,,,,,,,,,,,,,,4.0,2.0,Español,0.0,Catalán,6.0,Inglés,2.0,Alemán,17.0,5.0,3.0,yes,no,yes,piano,13,,,"Después de dos lenguajes, fui a tomar agua para continuar atenta en los siguientes dos. ",49.0,yes
178,2024-02-14_11h57.37.103,Unsyncopated_study2,s112,22.0,feminino,right,España,Español,Bachelor degree,no,no,A,2,conjunction_un,L2,unsyncopated,s2,r2,50,Online_conjL2_un//c.cha.me30.0.1110.wav,cha,mi,ba,sil,fe,me,si,sil1,ra,ñi,sil2,['catch'],[0.9226000000001022],[0.9226000000001022],0.0,beat,0.9226000000001022,0.9226000000001022,"[""space""]",cha,3,,,,,,,,,,,,,,,4.0,2.0,Español,0.0,Catalán,6.0,Inglés,2.0,Alemán,17.0,5.0,3.0,yes,no,yes,piano,13,,,"Después de dos lenguajes, fui a tomar agua para continuar atenta en los siguientes dos. ",49.0,yes
179,2024-02-14_11h57.37.103,Unsyncopated_study2,s112,22.0,feminino,right,España,Español,Bachelor degree,no,no,A,2,conjunction_un,L2,unsyncopated,s1,r2,51,Online_conjL2_un//c.cha.me31.none.none.wav,fe,ñi,ba,sil,ra,si,te,sil1,ñu,mi,sil2,['-'],,,none,none,,,,cha,3,,,,,,,,,,,,,,,4.0,2.0,Español,0.0,Catalán,6.0,Inglés,2.0,Alemán,17.0,5.0,3.0,yes,no,yes,piano,13,,,"Después de dos lenguajes, fui a tomar agua para continuar atenta en los siguientes dos. ",49.0,yes
180,2024-02-14_11h57.37.103,Unsyncopated_study2,s112,22.0,feminino,right,España,Español,Bachelor degree,no,no,A,2,conjunction_un,L2,unsyncopated,s1,r2,52,Online_conjL2_un//a.go.du22.none.none.wav,fe,bi,ñi,sil,ra,mi,me,sil1,su,ñu,sil2,['-'],,,none,none,,,,du,2,,,,,,,,,,,,,,,4.0,2.0,Español,0.0,Catalán,6.0,Inglés,2.0,Alemán,17.0,5.0,3.0,yes,no,yes,piano,13,,,"Después de dos lenguajes, fui a tomar agua para continuar atenta en los siguientes dos. ",49.0,yes
