Unnamed: 0,date,expName,participant,age,sex,hand,residence,native_lang,education_level,lang_deficit,aud_deficit,group,block,condition,language,rhythm,rule structure online,rule type online,order_trial_on,trial_online,s1,s2,s3,s4,s5,s6,s7,s8,s9,s10,s11,catch_syll_resp,rts_syll_catch,clean_rts,time_syll,beat_no_beat,catch_rtsTR,catch_rts,syllable_catch.keys,cond_syll,syll_to_catch,test_offline,block_off,condition_off,rhythm_off,rule,rule_str_off,rule_norule,conds_offline,language_off,Partz_no_partm.keys,Partz_no_partm.rt,security_1_7.keys,accuracy,security_1_7.rt,n_lang,n_lang_used,lang_1,age_l1,lang_2,age_l2,lang_3,age_l3,ability_learn_l2,tendence_mix_lan,music_experience,muisc_use,partiture,instr_1,age_M1,preguntas_musica1,BMRQ_answer.response,final comment,BMRQ_Score,bilingual
0,2024-03-15_09h09.39.686,Unsyncopated_study3,s140,21.0,feminino,right,españa,catalán y castellano,Bachelor degree,no,no,B,1,conjunction_syn,L2,syncopated,s2,r2,0,Online_conjL2_syn//b.fe.ra0.666.1554.wav,te,si,ba,fe,sil,mi,ño,ra,sil1,cha,sil2,['catch_delay'],[1.1138000001907222],[1.1138000001907222],1.554,no_beat,1.1138000001907222,1.1138000001907222,,ra,2,testConjL2Syn//r2.s1.1.wav,1.0,conjunction_syn,syncopated,b,s1,rule,rule,L2,z,4.3157,5.0,1.0,2.9845,3.0,2.0,catalan,0.0,castellano,0.0,inglés,4.0,4.0,4.0,yes,no,yes,guitarra,8,1. Cuando comparto música con alguien siento una complicidad especial con aquella persona.,4.0,nada ,77.0,yes
1,2024-03-15_09h09.39.686,Unsyncopated_study3,s140,21.0,feminino,right,españa,catalán y castellano,Bachelor degree,no,no,B,1,conjunction_syn,L2,syncopated,s2,r2,1,Online_conjL2_syn//b.fe.ra3.666.1554.wav,cha,ba,ñu,fe,sil,me,ño,ra,sil1,bi,sil2,['catch'],"[0.0038000001907221304, 2.038100000381405]",[2.038100000381405],1.554,no_beat,0.4841000003814051,0.4841000003814051,"[""space"",""space""]",ra,2,testConjL2Syn//r1.s1.0.wav,1.0,conjunction_syn,syncopated,a,s1,rule,rule,L2,z,0.8997,6.0,1.0,2.3173,3.0,2.0,catalan,0.0,castellano,0.0,inglés,4.0,4.0,4.0,yes,no,yes,guitarra,8,2. En mi tiempo libre apenas escucho música.,5.0,nada ,77.0,yes
2,2024-03-15_09h09.39.686,Unsyncopated_study3,s140,21.0,feminino,right,españa,catalán y castellano,Bachelor degree,no,no,B,1,conjunction_syn,L2,syncopated,s1,r2,2,Online_conjL2_syn//b.fe.ra1.0.666.wav,fe,to,bi,ra,sil,me,te,su,sil1,ño,sil2,['catch'],[1.3066999998093252],[1.3066999998093252],0.666,no_beat,0.6406999998093251,0.6406999998093251,"[""space""]",ra,2,testConjL2Syn//r2.s2.1.wav,1.0,conjunction_syn,syncopated,b,s2,rule,rule,L2,z,0.6902,6.0,1.0,1.5198,3.0,2.0,catalan,0.0,castellano,0.0,inglés,4.0,4.0,4.0,yes,no,yes,guitarra,8,3. Algunas canciones me ponen los pelos de punta,4.0,nada ,77.0,yes
3,2024-03-15_09h09.39.686,Unsyncopated_study3,s140,21.0,feminino,right,españa,catalán y castellano,Bachelor degree,no,no,B,1,conjunction_syn,L2,syncopated,s2,r1,3,Online_conjL2_syn//b.fe.ra2.none.none.wav,te,to,bi,go,sil,cha,ñu,du,sil1,su,sil2,['-'],,,none,none,,,,ra,2,testConjL2Syn//cat_viol.r1.s1.0.wav,1.0,conjunction_syn,syncopated,a,s1,no_rule,cat,L2,z,1.2391,6.0,0.0,1.6003,3.0,2.0,catalan,0.0,castellano,0.0,inglés,4.0,4.0,4.0,yes,no,yes,guitarra,8,4. La música me hace compañía cuando estoy solo,4.0,nada ,77.0,yes
4,2024-03-15_09h09.39.686,Unsyncopated_study3,s140,21.0,feminino,right,españa,catalán y castellano,Bachelor degree,no,no,B,1,conjunction_syn,L2,syncopated,s1,r2,4,Online_conjL2_syn//b.fe.ra10.0.666.wav,fe,bi,cha,ra,sil,si,te,su,sil1,ba,sil2,['catch'],[1.145299999713984],[1.145299999713984],0.666,no_beat,0.479299999713984,0.479299999713984,"[""space""]",ra,2,testConjL2Syn//time_viol.r1.s1.0.wav,1.0,conjunction_syn,syncopated,a,s1,no_rule,time,L2,z,1.4019,6.0,0.0,1.4373,3.0,2.0,catalan,0.0,castellano,0.0,inglés,4.0,4.0,4.0,yes,no,yes,guitarra,8,5. No me apetece bailar ni con la música que más me gusta,5.0,nada ,77.0,yes
5,2024-03-15_09h09.39.686,Unsyncopated_study3,s140,21.0,feminino,right,españa,catalán y castellano,Bachelor degree,no,no,B,1,conjunction_syn,L2,syncopated,s2,r2,5,Online_conjL2_syn//b.fe.ra9.666.1554.wav,cha,to,bi,fe,sil,ñu,me,ra,sil1,ño,sil2,['catch'],[2.0379000000954193],[2.0379000000954193],1.554,no_beat,0.4839000000954192,0.4839000000954192,"[""space""]",ra,2,testConjL2Syn//cat_viol.r2.s2.0.wav,1.0,conjunction_syn,syncopated,b,s2,no_rule,cat,L2,z,2.0365,5.0,0.0,2.1878,3.0,2.0,catalan,0.0,castellano,0.0,inglés,4.0,4.0,4.0,yes,no,yes,guitarra,8,6. La música me hace conectar con la gente,4.0,nada ,77.0,yes
6,2024-03-15_09h09.39.686,Unsyncopated_study3,s140,21.0,feminino,right,españa,catalán y castellano,Bachelor degree,no,no,B,1,conjunction_syn,L2,syncopated,s2,r2,6,Online_conjL2_syn//b.fe.ra8.666.1554.wav,to,mi,ño,fe,sil,cha,te,ra,sil1,me,sil2,['catch'],[1.9923000001907667],[1.9923000001907667],1.554,no_beat,0.4383000001907666,0.4383000001907666,"[""space""]",ra,2,testConjL2Syn//r1.s2.0.wav,1.0,conjunction_syn,syncopated,a,s2,rule,rule,L2,z,1.2191,5.0,1.0,0.4887,3.0,2.0,catalan,0.0,castellano,0.0,inglés,4.0,4.0,4.0,yes,no,yes,guitarra,8,7. Me informo sobre la música que me gusta.,4.0,nada ,77.0,yes
7,2024-03-15_09h09.39.686,Unsyncopated_study3,s140,21.0,feminino,right,españa,catalán y castellano,Bachelor degree,no,no,B,1,conjunction_syn,L2,syncopated,s1,r2,7,Online_conjL2_syn//b.fe.ra11.0.666.wav,fe,to,bi,ra,sil,mi,me,ñu,sil1,ba,sil2,['catch'],[1.2924000000954265],[1.2924000000954265],0.666,no_beat,0.6264000000954265,0.6264000000954265,"[""space""]",ra,2,testConjL2Syn//dep_viol.r2.s2.0.wav,1.0,conjunction_syn,syncopated,b,s2,no_rule,dep,L2,z,1.9233,5.0,0.0,1.1215,3.0,2.0,catalan,0.0,castellano,0.0,inglés,4.0,4.0,4.0,yes,no,yes,guitarra,8,8.Me emociono escuchando ciertas canciones.,4.0,nada ,77.0,yes
8,2024-03-15_09h09.39.686,Unsyncopated_study3,s140,21.0,feminino,right,españa,catalán y castellano,Bachelor degree,no,no,B,1,conjunction_syn,L2,syncopated,s1,r2,8,Online_conjL2_syn//b.fe.ra17.0.666.wav,fe,ño,ba,ra,sil,me,to,su,sil1,bi,sil2,['catch'],[1.1179000000954602],[1.1179000000954602],0.666,no_beat,0.4519000000954601,0.4519000000954601,"[""space""]",ra,2,testConjL2Syn//r2.s2.0.wav,1.0,conjunction_syn,syncopated,b,s2,rule,rule,L2,z,0.8492,5.0,1.0,1.0699,3.0,2.0,catalan,0.0,castellano,0.0,inglés,4.0,4.0,4.0,yes,no,yes,guitarra,8,9.La música me tranquiliza y me relaja.,4.0,nada ,77.0,yes
9,2024-03-15_09h09.39.686,Unsyncopated_study3,s140,21.0,feminino,right,españa,catalán y castellano,Bachelor degree,no,no,B,1,conjunction_syn,L2,syncopated,s1,r1,9,Online_conjL2_syn//b.fe.ra19.none.none.wav,go,bi,ño,du,sil,si,mi,me,sil1,cha,sil2,['-'],,,none,none,,,,ra,2,testConjL2Syn//r1.s1.1.wav,1.0,conjunction_syn,syncopated,a,s1,rule,rule,L2,z,0.3676,5.0,1.0,0.7752,3.0,2.0,catalan,0.0,castellano,0.0,inglés,4.0,4.0,4.0,yes,no,yes,guitarra,8,10.La música me hace bailar,3.0,nada ,77.0,yes
10,2024-03-15_09h09.39.686,Unsyncopated_study3,s140,21.0,feminino,right,españa,catalán y castellano,Bachelor degree,no,no,B,1,conjunction_syn,L2,syncopated,s2,r2,10,Online_conjL2_syn//b.fe.ra16.666.1554.wav,to,ñu,mi,fe,sil,ño,cha,ra,sil1,me,sil2,['catch'],[2.104199999809225],[2.104199999809225],1.554,no_beat,0.5501999998092251,0.5501999998092251,"[""space""]",ra,2,testConjL2Syn//r2.s1.2.wav,1.0,conjunction_syn,syncopated,b,s1,rule,rule,L2,z,0.9176,5.0,1.0,0.5196,3.0,2.0,catalan,0.0,castellano,0.0,inglés,4.0,4.0,4.0,yes,no,yes,guitarra,8,11.Busco novedades musicales continuamente,4.0,nada ,77.0,yes
11,2024-03-15_09h09.39.686,Unsyncopated_study3,s140,21.0,feminino,right,españa,catalán y castellano,Bachelor degree,no,no,B,1,conjunction_syn,L2,syncopated,s1,r1,11,Online_conjL2_syn//b.fe.ra18.none.none.wav,go,ba,mi,du,sil,su,ñu,me,sil1,ño,sil2,['-'],,,none,none,,,,ra,2,testConjL2Syn//r1.s1.2.wav,1.0,conjunction_syn,syncopated,a,s1,rule,rule,L2,z,0.788,5.0,1.0,1.3181,3.0,2.0,catalan,0.0,castellano,0.0,inglés,4.0,4.0,4.0,yes,no,yes,guitarra,8,12. Puedo llorar cuando escucho algunas melodías que me gustan mucho.,4.0,nada ,77.0,yes
12,2024-03-15_09h09.39.686,Unsyncopated_study3,s140,21.0,feminino,right,españa,catalán y castellano,Bachelor degree,no,no,B,1,conjunction_syn,L2,syncopated,s2,r1,12,Online_conjL2_syn//d.si.ñu17.0.222.wav,si,ñu,te,go,sil,to,ba,du,sil1,bi,sil2,['miss'],,,0.222,no_beat,,,,ñu,4,testConjL2Syn//time_viol.r2.s2.0.wav,1.0,conjunction_syn,syncopated,b,s2,no_rule,time,L2,z,3.1506,5.0,0.0,0.5188,3.0,2.0,catalan,0.0,castellano,0.0,inglés,4.0,4.0,4.0,yes,no,yes,guitarra,8,13. Me gusta cantar o tocar un instrumento con más gente,4.0,nada ,77.0,yes
13,2024-03-15_09h09.39.686,Unsyncopated_study3,s140,21.0,feminino,right,españa,catalán y castellano,Bachelor degree,no,no,B,1,conjunction_syn,L2,syncopated,s1,r2,13,Online_conjL2_syn//d.si.ñu19.444.1110.wav,fe,bi,si,ra,sil,ñu,te,to,sil1,ño,sil2,['catch'],[1.806700000286014],[1.806700000286014],1.11,no_beat,0.696700000286014,0.696700000286014,"[""space""]",ñu,4,testConjL2Syn//dep_viol.r1.s1.0.wav,1.0,conjunction_syn,syncopated,a,s1,no_rule,dep,L2,z,1.3865,5.0,0.0,0.426,3.0,2.0,catalan,0.0,castellano,0.0,inglés,4.0,4.0,4.0,yes,no,yes,guitarra,8,14. La música me ayuda a desconectar.,4.0,nada ,77.0,yes
14,2024-03-15_09h09.39.686,Unsyncopated_study3,s140,21.0,feminino,right,españa,catalán y castellano,Bachelor degree,no,no,B,1,conjunction_syn,L2,syncopated,s2,r2,14,Online_conjL2_syn//d.si.ñu16.none.none.wav,te,to,bi,fe,sil,me,mi,ra,sil1,cha,sil2,['false alarm'],[0.6892999997139668],[0.6892999997139668],none,none,,,"[""space""]",ñu,4,testConjL2Syn//r2.s1.0.wav,1.0,conjunction_syn,syncopated,b,s1,rule,rule,L2,z,0.7018,5.0,1.0,1.2791,3.0,2.0,catalan,0.0,castellano,0.0,inglés,4.0,4.0,4.0,yes,no,yes,guitarra,8,15. No puedo evitar tararear las canciones que me gustan cuando las escucho.,4.0,nada ,77.0,yes
15,2024-03-15_09h09.39.686,Unsyncopated_study3,s140,21.0,feminino,right,españa,catalán y castellano,Bachelor degree,no,no,B,1,conjunction_syn,L2,syncopated,s2,r2,15,Online_conjL2_syn//d.si.ñu18.none.none.wav,te,su,to,fe,sil,me,cha,ra,sil1,ba,sil2,['-'],,,none,none,,,,ñu,4,testConjL2Syn//r1.s2.1.wav,1.0,conjunction_syn,syncopated,a,s2,rule,rule,L2,m,2.6049,1.0,0.0,0.3692,3.0,2.0,catalan,0.0,castellano,0.0,inglés,4.0,4.0,4.0,yes,no,yes,guitarra,8,16. En los conciertos me siento en sintonía con los artistas y el público.,3.0,nada ,77.0,yes
16,2024-03-15_09h09.39.686,Unsyncopated_study3,s140,21.0,feminino,right,españa,catalán y castellano,Bachelor degree,no,no,B,1,conjunction_syn,L2,syncopated,s1,r1,16,Online_conjL2_syn//d.si.ñu31.none.none.wav,go,me,ño,du,sil,ba,te,mi,sil1,cha,sil2,['false alarm'],[1.1281999998093397],[1.1281999998093397],none,none,,,"[""space""]",ñu,4,testConjL2Syn//r1.s2.2.wav,1.0,conjunction_syn,syncopated,a,s2,rule,rule,L2,m,1.3846,1.0,0.0,0.2015,3.0,2.0,catalan,0.0,castellano,0.0,inglés,4.0,4.0,4.0,yes,no,yes,guitarra,8,17. Me gasto bastante dinero en música y cosas relacionadas con la música.,2.0,nada ,77.0,yes
17,2024-03-15_09h09.39.686,Unsyncopated_study3,s140,21.0,feminino,right,españa,catalán y castellano,Bachelor degree,no,no,B,1,conjunction_syn,L2,syncopated,s1,r1,17,Online_conjL2_syn//d.si.ñu30.222.1332.wav,go,si,te,du,sil,ño,ñu,mi,sil1,bi,sil2,['catch'],[1.8215000000000146],[1.8215000000000146],1.332,no_beat,0.4895000000000145,0.4895000000000145,"[""space""]",ñu,4,testConjL2Syn//dep_viol.r2.s1.0.wav,1.0,conjunction_syn,syncopated,b,s1,no_rule,dep,L2,z,0.5002,5.0,0.0,0.4876,3.0,2.0,catalan,0.0,castellano,0.0,inglés,4.0,4.0,4.0,yes,no,yes,guitarra,8,18. Siento escalofríos cuando escucho una melodía que me gusta.,4.0,nada ,77.0,yes
18,2024-03-15_09h09.39.686,Unsyncopated_study3,s140,21.0,feminino,right,españa,catalán y castellano,Bachelor degree,no,no,B,1,conjunction_syn,L2,syncopated,s1,r2,18,Online_conjL2_syn//d.si.ñu28.1554.1110.wav,fe,te,su,ra,sil,ñu,bi,si,sil1,mi,sil2,['catch'],[1.8561000003815025],[1.8561000003815025],1.11,no_beat,0.7461000003815024,0.7461000003815024,"[""space""]",ñu,4,testConjL2Syn//cat_viol.r1.s2.0.wav,1.0,conjunction_syn,syncopated,a,s2,no_rule,cat,L2,z,2.6875,5.0,0.0,0.4686,3.0,2.0,catalan,0.0,castellano,0.0,inglés,4.0,4.0,4.0,yes,no,yes,guitarra,8,19. Con la música me puedo desahogar.,4.0,nada ,77.0,yes
19,2024-03-15_09h09.39.686,Unsyncopated_study3,s140,21.0,feminino,right,españa,catalán y castellano,Bachelor degree,no,no,B,1,conjunction_syn,L2,syncopated,s1,r1,19,Online_conjL2_syn//d.si.ñu29.1554.222.wav,go,ñu,me,du,sil,ño,mi,si,sil1,to,sil2,['catch'],[1.896599999904538],[1.896599999904538],0.222,no_beat,,1.674599999904538,"[""space""]",ñu,4,testConjL2Syn//dep_viol.r1.s2.0.wav,1.0,conjunction_syn,syncopated,a,s2,no_rule,dep,L2,z,0.9758,5.0,0.0,0.4366,3.0,2.0,catalan,0.0,castellano,0.0,inglés,4.0,4.0,4.0,yes,no,yes,guitarra,8,20. Cuando escucho una melodía que me gusta mucho no puedo evitar mover el cuerpo.,3.0,nada ,77.0,yes
20,2024-03-15_09h09.39.686,Unsyncopated_study3,s140,21.0,feminino,right,españa,catalán y castellano,Bachelor degree,no,no,B,1,conjunction_syn,L2,syncopated,s1,r1,20,Online_conjL2_syn//c.cha.me10.none.none.wav,go,te,bi,du,sil,si,ño,ba,sil1,to,sil2,['-'],,,none,none,,,,me,3,testConjL2Syn//r2.s2.2.wav,1.0,conjunction_syn,syncopated,b,s2,rule,rule,L2,m,1.5999,1.0,0.0,0.34,3.0,2.0,catalan,0.0,castellano,0.0,inglés,4.0,4.0,4.0,yes,no,yes,guitarra,8,,,nada ,77.0,yes
21,2024-03-15_09h09.39.686,Unsyncopated_study3,s140,21.0,feminino,right,españa,catalán y castellano,Bachelor degree,no,no,B,1,conjunction_syn,L2,syncopated,s2,r2,21,Online_conjL2_syn//c.cha.me8.222.1110.wav,si,cha,to,fe,sil,me,ba,ra,sil1,ñu,sil2,['catch'],[1.6910999999046226],[1.6910999999046226],1.11,no_beat,0.5810999999046225,0.5810999999046225,"[""space""]",me,3,testConjL2Syn//time_viol.r1.s2.0.wav,1.0,conjunction_syn,syncopated,a,s2,no_rule,time,L2,z,2.6669,3.0,0.0,0.8858,3.0,2.0,catalan,0.0,castellano,0.0,inglés,4.0,4.0,4.0,yes,no,yes,guitarra,8,,,nada ,77.0,yes
22,2024-03-15_09h09.39.686,Unsyncopated_study3,s140,21.0,feminino,right,españa,catalán y castellano,Bachelor degree,no,no,B,1,conjunction_syn,L2,syncopated,s2,r2,22,Online_conjL2_syn//c.cha.me9.none.none.wav,ño,mi,to,fe,sil,si,te,ra,sil1,ñu,sil2,['-'],,,none,none,,,,me,3,testConjL2Syn//time_viol.r2.s1.0.wav,1.0,conjunction_syn,syncopated,b,s1,no_rule,time,L2,z,0.5749,4.0,0.0,0.3529,3.0,2.0,catalan,0.0,castellano,0.0,inglés,4.0,4.0,4.0,yes,no,yes,guitarra,8,,,nada ,77.0,yes
23,2024-03-15_09h09.39.686,Unsyncopated_study3,s140,21.0,feminino,right,españa,catalán y castellano,Bachelor degree,no,no,B,1,conjunction_syn,L2,syncopated,s1,r2,23,Online_conjL2_syn//c.cha.me11.1554.1110.wav,fe,mi,ñu,ra,sil,me,si,cha,sil1,ba,sil2,['catch'],[1.8507000002861105],[1.8507000002861105],1.11,no_beat,0.7407000002861104,0.7407000002861104,"[""space""]",me,3,testConjL2Syn//cat_viol.r2.s1.0.wav,1.0,conjunction_syn,syncopated,b,s1,no_rule,cat,L2,z,7.0738,2.0,0.0,0.3382,3.0,2.0,catalan,0.0,castellano,0.0,inglés,4.0,4.0,4.0,yes,no,yes,guitarra,8,,,nada ,77.0,yes
24,2024-03-15_09h09.39.686,Unsyncopated_study3,s140,21.0,feminino,right,españa,catalán y castellano,Bachelor degree,no,no,B,1,conjunction_syn,L2,syncopated,s2,r1,24,Online_conjL2_syn//a.go.du13.666.1554.wav,su,bi,ba,go,sil,ño,to,du,sil1,te,sil2,['catch'],[1.551499999999919],[1.551499999999919],0.666,no_beat,0.885499999999919,0.885499999999919,"[""space""]",go,1,testConjL3Uns//time_viol.r2.s2.0.wav,2.0,conjunction_un,unsyncopated,b,s2,no_rule,time,L3,z,2.7326,5.0,0.0,1.121,3.0,2.0,catalan,0.0,castellano,0.0,inglés,4.0,4.0,4.0,yes,no,yes,guitarra,8,,,nada ,77.0,yes
25,2024-03-15_09h09.39.686,Unsyncopated_study3,s140,21.0,feminino,right,españa,catalán y castellano,Bachelor degree,no,no,B,1,conjunction_syn,L2,syncopated,s2,r1,25,Online_conjL2_syn//a.go.du14.666.1554.wav,si,ba,me,go,sil,ño,su,du,sil1,to,sil2,['catch'],[1.4885999999046362],[1.4885999999046362],0.666,no_beat,0.8225999999046362,0.8225999999046362,"[""space""]",go,1,testConjL3Uns//time_viol.r1.s1.0.wav,2.0,conjunction_un,unsyncopated,a,s1,no_rule,time,L3,z,2.5842,5.0,0.0,0.3507,3.0,2.0,catalan,0.0,castellano,0.0,inglés,4.0,4.0,4.0,yes,no,yes,guitarra,8,,,nada ,77.0,yes
26,2024-03-15_09h09.39.686,Unsyncopated_study3,s140,21.0,feminino,right,españa,catalán y castellano,Bachelor degree,no,no,B,1,conjunction_syn,L2,syncopated,s1,r1,26,Online_conjL2_syn//a.go.du15.0.666.wav,go,bi,cha,du,sil,su,si,ño,sil1,me,sil2,['catch'],[0.6893000001907694],[0.6893000001907694],0.0,beat,0.6893000001907694,0.6893000001907694,"[""space""]",go,1,testConjL3Uns//r2.s1.2.wav,2.0,conjunction_un,unsyncopated,b,s1,rule,rule,L3,z,0.4709,7.0,1.0,0.4819,3.0,2.0,catalan,0.0,castellano,0.0,inglés,4.0,4.0,4.0,yes,no,yes,guitarra,8,,,nada ,77.0,yes
27,2024-03-15_09h09.39.686,Unsyncopated_study3,s140,21.0,feminino,right,españa,catalán y castellano,Bachelor degree,no,no,B,1,conjunction_syn,L2,syncopated,s2,r1,27,Online_conjL2_syn//a.go.du12.666.1554.wav,cha,bi,te,go,sil,ba,ñu,du,sil1,si,sil2,['catch'],[1.2554999999999836],[1.2554999999999836],0.666,no_beat,0.5894999999999836,0.5894999999999836,"[""space""]",go,1,testConjL3Uns//cat_viol.r1.s1.0.wav,2.0,conjunction_un,unsyncopated,a,s1,no_rule,cat,L3,z,0.3995,6.0,0.0,0.478,3.0,2.0,catalan,0.0,castellano,0.0,inglés,4.0,4.0,4.0,yes,no,yes,guitarra,8,,,nada ,77.0,yes
28,2024-03-15_09h09.39.686,Unsyncopated_study3,s140,21.0,feminino,right,españa,catalán y castellano,Bachelor degree,no,no,B,1,conjunction_syn,L2,syncopated,s1,r1,28,Online_conjL2_syn//a.go.du31.0.666.wav,go,ba,su,du,sil,ñu,si,bi,sil1,me,sil2,['catch'],[0.6113000001906812],[0.6113000001906812],0.0,beat,0.6113000001906812,0.6113000001906812,"[""space""]",go,1,testConjL3Uns//dep_viol.r1.s2.0.wav,2.0,conjunction_un,unsyncopated,a,s2,no_rule,dep,L3,z,2.2349,5.0,0.0,0.4012,3.0,2.0,catalan,0.0,castellano,0.0,inglés,4.0,4.0,4.0,yes,no,yes,guitarra,8,,,nada ,77.0,yes
29,2024-03-15_09h09.39.686,Unsyncopated_study3,s140,21.0,feminino,right,españa,catalán y castellano,Bachelor degree,no,no,B,1,conjunction_syn,L2,syncopated,s2,r2,29,Online_conjL2_syn//a.go.du30.none.none.wav,to,ñu,me,fe,sil,bi,ño,ra,sil1,su,sil2,['-'],,,none,none,,,,go,1,testConjL3Uns//r2.s2.0.wav,2.0,conjunction_un,unsyncopated,b,s2,rule,rule,L3,m,2.903,2.0,0.0,0.4417,3.0,2.0,catalan,0.0,castellano,0.0,inglés,4.0,4.0,4.0,yes,no,yes,guitarra,8,,,nada ,77.0,yes
30,2024-03-15_09h09.39.686,Unsyncopated_study3,s140,21.0,feminino,right,españa,catalán y castellano,Bachelor degree,no,no,B,1,conjunction_syn,L2,syncopated,s2,r2,30,Online_conjL2_syn//a.go.du28.none.none.wav,me,su,ba,fe,sil,mi,to,ra,sil1,cha,sil2,['-'],,,none,none,,,,go,1,testConjL3Uns//r1.s2.2.wav,2.0,conjunction_un,unsyncopated,a,s2,rule,rule,L3,z,2.9489,5.0,1.0,0.2507,3.0,2.0,catalan,0.0,castellano,0.0,inglés,4.0,4.0,4.0,yes,no,yes,guitarra,8,,,nada ,77.0,yes
31,2024-03-15_09h09.39.686,Unsyncopated_study3,s140,21.0,feminino,right,españa,catalán y castellano,Bachelor degree,no,no,B,1,conjunction_syn,L2,syncopated,s1,r1,31,Online_conjL2_syn//a.go.du29.0.666.wav,go,ñu,su,du,sil,si,me,to,sil1,bi,sil2,['catch'],[0.5784999999999627],[0.5784999999999627],0.0,beat,0.5784999999999627,0.5784999999999627,"[""space""]",go,1,testConjL3Uns//r1.s1.2.wav,2.0,conjunction_un,unsyncopated,a,s1,rule,rule,L3,m,4.3388,1.0,0.0,0.2952,3.0,2.0,catalan,0.0,castellano,0.0,inglés,4.0,4.0,4.0,yes,no,yes,guitarra,8,,,nada ,77.0,yes
32,2024-03-15_09h09.39.686,Unsyncopated_study3,s140,21.0,feminino,right,españa,catalán y castellano,Bachelor degree,no,no,B,1,conjunction_syn,L2,syncopated,s2,r2,32,Online_conjL2_syn//d.si.ñu24.222.1110.wav,ba,si,cha,fe,sil,ñu,su,ra,sil1,ño,sil2,['catch'],[1.6137000002861441],[1.6137000002861441],1.11,no_beat,0.503700000286144,0.503700000286144,"[""space""]",ñu,4,testConjL3Uns//dep_viol.r2.s2.0.wav,2.0,conjunction_un,unsyncopated,b,s2,no_rule,dep,L3,z,0.3678,5.0,0.0,1.0522,3.0,2.0,catalan,0.0,castellano,0.0,inglés,4.0,4.0,4.0,yes,no,yes,guitarra,8,,,nada ,77.0,yes
33,2024-03-15_09h09.39.686,Unsyncopated_study3,s140,21.0,feminino,right,españa,catalán y castellano,Bachelor degree,no,no,B,1,conjunction_syn,L2,syncopated,s2,r2,33,Online_conjL2_syn//d.si.ñu25.none.none.wav,mi,to,ño,fe,sil,bi,ba,ra,sil1,su,sil2,['-'],,,none,none,,,,ñu,4,testConjL3Uns//time_viol.r1.s2.0.wav,2.0,conjunction_un,unsyncopated,a,s2,no_rule,time,L3,z,12.3721,3.0,0.0,1.1191,3.0,2.0,catalan,0.0,castellano,0.0,inglés,4.0,4.0,4.0,yes,no,yes,guitarra,8,,,nada ,77.0,yes
34,2024-03-15_09h09.39.686,Unsyncopated_study3,s140,21.0,feminino,right,españa,catalán y castellano,Bachelor degree,no,no,B,1,conjunction_syn,L2,syncopated,s2,r2,34,Online_conjL2_syn//d.si.ñu26.none.none.wav,ba,su,cha,fe,sil,mi,me,ra,sil1,to,sil2,['-'],,,none,none,,,,ñu,4,testConjL3Uns//cat_viol.r1.s2.0.wav,2.0,conjunction_un,unsyncopated,a,s2,no_rule,cat,L3,m,2.9669,3.0,1.0,1.32,3.0,2.0,catalan,0.0,castellano,0.0,inglés,4.0,4.0,4.0,yes,no,yes,guitarra,8,,,nada ,77.0,yes
35,2024-03-15_09h09.39.686,Unsyncopated_study3,s140,21.0,feminino,right,españa,catalán y castellano,Bachelor degree,no,no,B,1,conjunction_syn,L2,syncopated,s2,r1,35,Online_conjL2_syn//d.si.ñu27.none.none.wav,cha,ño,ba,go,sil,mi,to,du,sil1,bi,sil2,['false alarm'],[0.9144000000952701],[0.9144000000952701],none,none,,,"[""space""]",ñu,4,testConjL3Uns//r1.s2.1.wav,2.0,conjunction_un,unsyncopated,a,s2,rule,rule,L3,m,5.0647,2.0,0.0,1.1851,3.0,2.0,catalan,0.0,castellano,0.0,inglés,4.0,4.0,4.0,yes,no,yes,guitarra,8,,,nada ,77.0,yes
36,2024-03-15_09h09.39.686,Unsyncopated_study3,s140,21.0,feminino,right,españa,catalán y castellano,Bachelor degree,no,no,B,1,conjunction_syn,L2,syncopated,s2,r1,36,Online_conjL2_syn//c.cha.me3.444.0.wav,me,ba,cha,go,sil,te,mi,du,sil1,ñu,sil2,['catch'],[0.9599000000954447],[0.9599000000954447],0.0,beat,0.9599000000954448,0.9599000000954448,"[""space""]",me,3,testConjL3Uns//time_viol.r2.s1.0.wav,2.0,conjunction_un,unsyncopated,b,s1,no_rule,time,L3,z,2.7335,4.0,0.0,1.4241,3.0,2.0,catalan,0.0,castellano,0.0,inglés,4.0,4.0,4.0,yes,no,yes,guitarra,8,,,nada ,77.0,yes
37,2024-03-15_09h09.39.686,Unsyncopated_study3,s140,21.0,feminino,right,españa,catalán y castellano,Bachelor degree,no,no,B,1,conjunction_syn,L2,syncopated,s2,r2,37,Online_conjL2_syn//c.cha.me0.444.1110.wav,te,su,cha,fe,sil,me,si,ra,sil1,ba,sil2,['catch'],[1.619400000095311],[1.619400000095311],1.11,no_beat,0.509400000095311,0.509400000095311,"[""space""]",me,3,testConjL3Uns//r1.s1.0.wav,2.0,conjunction_un,unsyncopated,a,s1,rule,rule,L3,z,6.9509,2.0,1.0,0.254,3.0,2.0,catalan,0.0,castellano,0.0,inglés,4.0,4.0,4.0,yes,no,yes,guitarra,8,,,nada ,77.0,yes
38,2024-03-15_09h09.39.686,Unsyncopated_study3,s140,21.0,feminino,right,españa,catalán y castellano,Bachelor degree,no,no,B,1,conjunction_syn,L2,syncopated,s2,r1,38,Online_conjL2_syn//c.cha.me2.444.0.wav,me,te,cha,go,sil,mi,su,du,sil1,ño,sil2,['catch'],[0.6085000000000491],[0.6085000000000491],0.0,beat,0.6085000000000491,0.6085000000000491,"[""space""]",me,3,testConjL3Uns//r2.s2.1.wav,2.0,conjunction_un,unsyncopated,b,s2,rule,rule,L3,m,5.5944,1.0,0.0,0.237,3.0,2.0,catalan,0.0,castellano,0.0,inglés,4.0,4.0,4.0,yes,no,yes,guitarra,8,,,nada ,77.0,yes
39,2024-03-15_09h09.39.686,Unsyncopated_study3,s140,21.0,feminino,right,españa,catalán y castellano,Bachelor degree,no,no,B,1,conjunction_syn,L2,syncopated,s2,r1,39,Online_conjL2_syn//c.cha.me1.222.444.wav,bi,cha,me,go,sil,ño,ñu,du,sil1,su,sil2,['miss'],,,0.444,no_beat,,,,me,3,testConjL3Uns//dep_viol.r2.s1.0.wav,2.0,conjunction_un,unsyncopated,b,s1,no_rule,dep,L3,m,2.083,1.0,1.0,0.2034,3.0,2.0,catalan,0.0,castellano,0.0,inglés,4.0,4.0,4.0,yes,no,yes,guitarra,8,,,nada ,77.0,yes
40,2024-03-15_09h09.39.686,Unsyncopated_study3,s140,21.0,feminino,right,españa,catalán y castellano,Bachelor degree,no,no,B,1,conjunction_syn,L2,syncopated,s2,r1,40,Online_conjL2_syn//c.cha.me5.none.none.wav,ño,mi,ñu,go,sil,ba,te,du,sil1,su,sil2,['-'],,,none,none,,,,me,3,testConjL3Uns//r1.s2.0.wav,2.0,conjunction_un,unsyncopated,a,s2,rule,rule,L3,z,0.5846,4.0,1.0,0.8035,3.0,2.0,catalan,0.0,castellano,0.0,inglés,4.0,4.0,4.0,yes,no,yes,guitarra,8,,,nada ,77.0,yes
41,2024-03-15_09h09.39.686,Unsyncopated_study3,s140,21.0,feminino,right,españa,catalán y castellano,Bachelor degree,no,no,B,1,conjunction_syn,L2,syncopated,s2,r2,41,Online_conjL2_syn//c.cha.me7.none.none.wav,te,mi,ba,fe,sil,ñu,su,ra,sil1,to,sil2,['-'],,,none,none,,,,me,3,testConjL3Uns//dep_viol.r1.s1.0.wav,2.0,conjunction_un,unsyncopated,a,s1,no_rule,dep,L3,z,2.0514,4.0,0.0,0.3984,3.0,2.0,catalan,0.0,castellano,0.0,inglés,4.0,4.0,4.0,yes,no,yes,guitarra,8,,,nada ,77.0,yes
42,2024-03-15_09h09.39.686,Unsyncopated_study3,s140,21.0,feminino,right,españa,catalán y castellano,Bachelor degree,no,no,B,1,conjunction_syn,L2,syncopated,s1,r1,42,Online_conjL2_syn//c.cha.me6.none.none.wav,go,to,si,du,sil,ñu,ño,mi,sil1,ba,sil2,['-'],,,none,none,,,,me,3,testConjL3Uns//cat_viol.r2.s1.0.wav,2.0,conjunction_un,unsyncopated,b,s1,no_rule,cat,L3,z,5.0195,2.0,0.0,0.8782,3.0,2.0,catalan,0.0,castellano,0.0,inglés,4.0,4.0,4.0,yes,no,yes,guitarra,8,,,nada ,77.0,yes
43,2024-03-15_09h09.39.686,Unsyncopated_study3,s140,21.0,feminino,right,españa,catalán y castellano,Bachelor degree,no,no,B,1,conjunction_syn,L2,syncopated,s2,r2,43,Online_conjL2_syn//c.cha.me4.1110.0.wav,me,si,bi,fe,sil,cha,to,ra,sil1,su,sil2,['catch'],[0.5096999998092997],[0.5096999998092997],0.0,beat,0.5096999998092997,0.5096999998092997,"[""space""]",me,3,testConjL3Uns//cat_viol.r2.s2.0.wav,2.0,conjunction_un,unsyncopated,b,s2,no_rule,cat,L3,z,2.3062,5.0,0.0,0.6579,3.0,2.0,catalan,0.0,castellano,0.0,inglés,4.0,4.0,4.0,yes,no,yes,guitarra,8,,,nada ,77.0,yes
44,2024-03-15_09h09.39.686,Unsyncopated_study3,s140,21.0,feminino,right,españa,catalán y castellano,Bachelor degree,no,no,B,1,conjunction_syn,L2,syncopated,s1,r2,44,Online_conjL2_syn//a.go.du25.none.none.wav,fe,ba,to,ra,sil,me,cha,si,sil1,ño,sil2,['-'],,,none,none,,,,go,1,testConjL3Uns//r2.s1.0.wav,2.0,conjunction_un,unsyncopated,b,s1,rule,rule,L3,z,4.2846,1.0,1.0,0.3502,3.0,2.0,catalan,0.0,castellano,0.0,inglés,4.0,4.0,4.0,yes,no,yes,guitarra,8,,,nada ,77.0,yes
45,2024-03-15_09h09.39.686,Unsyncopated_study3,s140,21.0,feminino,right,españa,catalán y castellano,Bachelor degree,no,no,B,1,conjunction_syn,L2,syncopated,s1,r1,45,Online_conjL2_syn//a.go.du27.0.666.wav,go,te,ñu,du,sil,bi,ño,su,sil1,me,sil2,['catch'],[0.6717999997138122],[0.6717999997138122],0.0,beat,0.6717999997138122,0.6717999997138122,"[""space""]",go,1,testConjL3Uns//r2.s1.1.wav,2.0,conjunction_un,unsyncopated,b,s1,rule,rule,L3,z,1.6662,2.0,1.0,0.255,3.0,2.0,catalan,0.0,castellano,0.0,inglés,4.0,4.0,4.0,yes,no,yes,guitarra,8,,,nada ,77.0,yes
46,2024-03-15_09h09.39.686,Unsyncopated_study3,s140,21.0,feminino,right,españa,catalán y castellano,Bachelor degree,no,no,B,1,conjunction_syn,L2,syncopated,s1,r2,46,Online_conjL2_syn//a.go.du26.none.none.wav,fe,ba,su,ra,sil,bi,me,ñu,sil1,cha,sil2,['-'],,,none,none,,,,go,1,testConjL3Uns//r2.s2.2.wav,2.0,conjunction_un,unsyncopated,b,s2,rule,rule,L3,m,2.4218,1.0,0.0,0.3517,3.0,2.0,catalan,0.0,castellano,0.0,inglés,4.0,4.0,4.0,yes,no,yes,guitarra,8,,,nada ,77.0,yes
47,2024-03-15_09h09.39.686,Unsyncopated_study3,s140,21.0,feminino,right,españa,catalán y castellano,Bachelor degree,no,no,B,1,conjunction_syn,L2,syncopated,s2,r1,47,Online_conjL2_syn//a.go.du24.666.1554.wav,ño,ñu,si,go,sil,me,su,du,sil1,te,sil2,['catch'],[1.4560000000000173],[1.4560000000000173],0.666,no_beat,0.7900000000000172,0.7900000000000172,"[""space""]",go,1,testConjL3Uns//r1.s1.1.wav,2.0,conjunction_un,unsyncopated,a,s1,rule,rule,L3,z,6.3867,2.0,1.0,0.3868,3.0,2.0,catalan,0.0,castellano,0.0,inglés,4.0,4.0,4.0,yes,no,yes,guitarra,8,,,nada ,77.0,yes
48,2024-03-15_09h09.39.686,Unsyncopated_study3,s140,21.0,feminino,right,españa,catalán y castellano,Bachelor degree,no,no,B,1,conjunction_syn,L2,syncopated,s1,r2,48,Online_conjL2_syn//a.go.du5.none.none.wav,fe,ñu,cha,ra,sil,te,ño,ba,sil1,si,sil2,['-'],,,none,none,,,,go,1,testWhenL1Uns//r1.s2.2.wav,3.0,when,unsyncopated,a,s2,rule,rule,L1,z,0.8019,7.0,1.0,0.5472,3.0,2.0,catalan,0.0,castellano,0.0,inglés,4.0,4.0,4.0,yes,no,yes,guitarra,8,,,nada ,77.0,yes
49,2024-03-15_09h09.39.686,Unsyncopated_study3,s140,21.0,feminino,right,españa,catalán y castellano,Bachelor degree,no,no,B,1,conjunction_syn,L2,syncopated,s1,r2,49,Online_conjL2_syn//a.go.du7.none.none.wav,fe,mi,ñu,ra,sil,ño,ba,me,sil1,su,sil2,['-'],,,none,none,,,,go,1,testWhenL1Uns//dep_viol.r1.s2.0.wav,3.0,when,unsyncopated,a,s2,no_rule,dep,L1,z,0.938,6.0,1.0,0.3436,3.0,2.0,catalan,0.0,castellano,0.0,inglés,4.0,4.0,4.0,yes,no,yes,guitarra,8,,,nada ,77.0,yes
50,2024-03-15_09h09.39.686,Unsyncopated_study3,s140,21.0,feminino,right,españa,catalán y castellano,Bachelor degree,no,no,B,1,conjunction_syn,L2,syncopated,s2,r1,50,Online_conjL2_syn//a.go.du4.666.1554.wav,mi,si,te,go,sil,ño,to,du,sil1,ñu,sil2,['catch'],[1.2714999999999463],[1.2714999999999463],0.666,no_beat,0.6054999999999463,0.6054999999999463,"[""space""]",go,1,testWhenL1Uns//time_viol.r1.s1.0.wav,3.0,when,unsyncopated,a,s1,no_rule,time,L1,z,6.1815,2.0,1.0,0.9339,3.0,2.0,catalan,0.0,castellano,0.0,inglés,4.0,4.0,4.0,yes,no,yes,guitarra,8,,,nada ,77.0,yes
51,2024-03-15_09h09.39.686,Unsyncopated_study3,s140,21.0,feminino,right,españa,catalán y castellano,Bachelor degree,no,no,B,1,conjunction_syn,L2,syncopated,s1,r1,51,Online_conjL2_syn//a.go.du6.0.666.wav,go,bi,to,du,sil,me,su,ba,sil1,te,sil2,['catch'],[0.6282000002860286],[0.6282000002860286],0.0,beat,0.6282000002860286,0.6282000002860286,"[""space""]",go,1,testWhenL1Uns//r1.s2.0.wav,3.0,when,unsyncopated,a,s2,rule,rule,L1,z,0.2582,6.0,1.0,0.4024,3.0,2.0,catalan,0.0,castellano,0.0,inglés,4.0,4.0,4.0,yes,no,yes,guitarra,8,,,nada ,77.0,yes
52,2024-03-15_09h09.39.686,Unsyncopated_study3,s140,21.0,feminino,right,españa,catalán y castellano,Bachelor degree,no,no,B,1,conjunction_syn,L2,syncopated,s2,r2,52,Online_conjL2_syn//a.go.du16.none.none.wav,ño,te,ñu,fe,sil,me,si,ra,sil1,cha,sil2,['-'],,,none,none,,,,go,1,testWhenL1Uns//r1.s1.1.wav,3.0,when,unsyncopated,a,s1,rule,rule,L1,z,0.581,6.0,1.0,0.2526,3.0,2.0,catalan,0.0,castellano,0.0,inglés,4.0,4.0,4.0,yes,no,yes,guitarra,8,,,nada ,77.0,yes
53,2024-03-15_09h09.39.686,Unsyncopated_study3,s140,21.0,feminino,right,españa,catalán y castellano,Bachelor degree,no,no,B,1,conjunction_syn,L2,syncopated,s2,r1,53,Online_conjL2_syn//a.go.du19.666.1554.wav,ba,ño,mi,go,sil,me,te,du,sil1,to,sil2,['catch'],[1.3235999999046726],[1.3235999999046726],0.666,no_beat,0.6575999999046725,0.6575999999046725,"[""space""]",go,1,testWhenL1Uns//r1.s1.2.wav,3.0,when,unsyncopated,a,s1,rule,rule,L1,z,5.582,1.0,1.0,0.2524,3.0,2.0,catalan,0.0,castellano,0.0,inglés,4.0,4.0,4.0,yes,no,yes,guitarra,8,,,nada ,77.0,yes
54,2024-03-15_09h09.39.686,Unsyncopated_study3,s140,21.0,feminino,right,españa,catalán y castellano,Bachelor degree,no,no,B,1,conjunction_syn,L2,syncopated,s1,r2,54,Online_conjL2_syn//a.go.du18.none.none.wav,fe,ba,su,ra,sil,cha,mi,to,sil1,ño,sil2,['-'],,,none,none,,,,go,1,testWhenL1Uns//dep_viol.r2.s2.0.wav,3.0,when,unsyncopated,b,s2,no_rule,dep,L1,z,0.4829,4.0,1.0,0.1711,3.0,2.0,catalan,0.0,castellano,0.0,inglés,4.0,4.0,4.0,yes,no,yes,guitarra,8,,,nada ,77.0,yes
55,2024-03-15_09h09.39.686,Unsyncopated_study3,s140,21.0,feminino,right,españa,catalán y castellano,Bachelor degree,no,no,B,1,conjunction_syn,L2,syncopated,s1,r1,55,Online_conjL2_syn//a.go.du17.0.666.wav,go,ba,ño,du,sil,to,si,te,sil1,cha,sil2,['catch'],[0.641299999713965],[0.641299999713965],0.0,beat,0.641299999713965,0.641299999713965,"[""space""]",go,1,testWhenL1Uns//r2.s1.2.wav,3.0,when,unsyncopated,b,s1,rule,rule,L1,z,3.7505,4.0,1.0,0.2047,3.0,2.0,catalan,0.0,castellano,0.0,inglés,4.0,4.0,4.0,yes,no,yes,guitarra,8,,,nada ,77.0,yes
56,2024-03-15_09h09.39.686,Unsyncopated_study3,s140,21.0,feminino,right,españa,catalán y castellano,Bachelor degree,no,no,B,1,conjunction_syn,L2,syncopated,s2,r1,56,Online_conjL2_syn//c.cha.me16.none.none.wav,mi,ñu,ba,go,sil,to,ño,du,sil1,si,sil2,['-'],,,none,none,,,,me,3,testWhenL1Uns//cat_viol.r1.s2.0.wav,3.0,when,unsyncopated,a,s2,no_rule,cat,L1,z,0.9361,4.0,1.0,0.254,3.0,2.0,catalan,0.0,castellano,0.0,inglés,4.0,4.0,4.0,yes,no,yes,guitarra,8,,,nada ,77.0,yes
57,2024-03-15_09h09.39.686,Unsyncopated_study3,s140,21.0,feminino,right,españa,catalán y castellano,Bachelor degree,no,no,B,1,conjunction_syn,L2,syncopated,s2,r1,57,Online_conjL2_syn//c.cha.me19.none.none.wav,te,ño,ba,go,sil,ñu,si,du,sil1,bi,sil2,['-'],,,none,none,,,,me,3,testWhenL1Uns//time_viol.r2.s2.0.wav,3.0,when,unsyncopated,b,s2,no_rule,time,L1,z,3.1347,1.0,1.0,0.5021,3.0,2.0,catalan,0.0,castellano,0.0,inglés,4.0,4.0,4.0,yes,no,yes,guitarra,8,,,nada ,77.0,yes
58,2024-03-15_09h09.39.686,Unsyncopated_study3,s140,21.0,feminino,right,españa,catalán y castellano,Bachelor degree,no,no,B,1,conjunction_syn,L2,syncopated,s1,r1,58,Online_conjL2_syn//c.cha.me18.1332.222.wav,go,me,to,du,sil,te,cha,mi,sil1,si,sil2,['catch'],[1.0059000000953802],[1.0059000000953802],0.222,no_beat,0.7839000000953802,0.7839000000953802,"[""space""]",me,3,testWhenL1Uns//cat_viol.r2.s1.0.wav,3.0,when,unsyncopated,b,s1,no_rule,cat,L1,z,1.1669,4.0,1.0,0.7003,3.0,2.0,catalan,0.0,castellano,0.0,inglés,4.0,4.0,4.0,yes,no,yes,guitarra,8,,,nada ,77.0,yes
59,2024-03-15_09h09.39.686,Unsyncopated_study3,s140,21.0,feminino,right,españa,catalán y castellano,Bachelor degree,no,no,B,1,conjunction_syn,L2,syncopated,s1,r2,59,Online_conjL2_syn//c.cha.me17.1110.222.wav,fe,me,ñu,ra,sil,cha,ba,mi,sil1,te,sil2,['catch'],[1.0203000001907867],[1.0203000001907867],0.222,no_beat,0.7983000001907867,0.7983000001907867,"[""space""]",me,3,testWhenL1Uns//r1.s2.1.wav,3.0,when,unsyncopated,a,s2,rule,rule,L1,z,1.4177,4.0,1.0,0.3344,3.0,2.0,catalan,0.0,castellano,0.0,inglés,4.0,4.0,4.0,yes,no,yes,guitarra,8,,,nada ,77.0,yes
60,2024-03-15_09h09.39.686,Unsyncopated_study3,s140,21.0,feminino,right,españa,catalán y castellano,Bachelor degree,no,no,B,1,conjunction_syn,L2,syncopated,s2,r2,60,Online_conjL2_syn//a.go.du8.none.none.wav,to,bi,te,fe,sil,ñu,mi,ra,sil1,si,sil2,['-'],,,none,none,,,,go,1,testWhenL1Uns//time_viol.r1.s2.0.wav,3.0,when,unsyncopated,a,s2,no_rule,time,L1,m,3.5501,1.0,0.0,0.3375,3.0,2.0,catalan,0.0,castellano,0.0,inglés,4.0,4.0,4.0,yes,no,yes,guitarra,8,,,nada ,77.0,yes
61,2024-03-15_09h09.39.686,Unsyncopated_study3,s140,21.0,feminino,right,españa,catalán y castellano,Bachelor degree,no,no,B,1,conjunction_syn,L2,syncopated,s1,r2,61,Online_conjL2_syn//a.go.du9.none.none.wav,fe,ñu,bi,ra,sil,to,te,si,sil1,su,sil2,['-'],,,none,none,,,,go,1,testWhenL1Uns//cat_viol.r2.s2.0.wav,3.0,when,unsyncopated,b,s2,no_rule,cat,L1,m,3.8029,2.0,0.0,0.7346,3.0,2.0,catalan,0.0,castellano,0.0,inglés,4.0,4.0,4.0,yes,no,yes,guitarra,8,,,nada ,77.0,yes
62,2024-03-15_09h09.39.686,Unsyncopated_study3,s140,21.0,feminino,right,españa,catalán y castellano,Bachelor degree,no,no,B,1,conjunction_syn,L2,syncopated,s2,r2,62,Online_conjL2_syn//a.go.du11.none.none.wav,to,te,ba,fe,sil,cha,me,ra,sil1,bi,sil2,['-'],,,none,none,,,,go,1,testWhenL1Uns//r2.s2.0.wav,3.0,when,unsyncopated,b,s2,rule,rule,L1,m,1.7486,2.0,0.0,0.2181,3.0,2.0,catalan,0.0,castellano,0.0,inglés,4.0,4.0,4.0,yes,no,yes,guitarra,8,,,nada ,77.0,yes
63,2024-03-15_09h09.39.686,Unsyncopated_study3,s140,21.0,feminino,right,españa,catalán y castellano,Bachelor degree,no,no,B,1,conjunction_syn,L2,syncopated,s1,r2,63,Online_conjL2_syn//a.go.du10.none.none.wav,fe,cha,ba,ra,sil,ño,si,me,sil1,mi,sil2,['-'],,,none,none,,,,go,1,testWhenL1Uns//time_viol.r2.s1.0.wav,3.0,when,unsyncopated,b,s1,no_rule,time,L1,z,0.2722,3.0,1.0,0.7499,3.0,2.0,catalan,0.0,castellano,0.0,inglés,4.0,4.0,4.0,yes,no,yes,guitarra,8,,,nada ,77.0,yes
64,2024-03-15_09h09.39.686,Unsyncopated_study3,s140,21.0,feminino,right,españa,catalán y castellano,Bachelor degree,no,no,B,1,conjunction_syn,L2,syncopated,s1,r1,64,Online_conjL2_syn//d.si.ñu4.none.none.wav,go,su,to,du,sil,bi,me,cha,sil1,mi,sil2,['false alarm'],[0.6484000000954211],[0.6484000000954211],none,none,,,"[""space""]",ñu,4,testWhenL1Uns//r2.s1.0.wav,3.0,when,unsyncopated,b,s1,rule,rule,L1,m,6.1834,2.0,0.0,0.8556,3.0,2.0,catalan,0.0,castellano,0.0,inglés,4.0,4.0,4.0,yes,no,yes,guitarra,8,,,nada ,77.0,yes
65,2024-03-15_09h09.39.686,Unsyncopated_study3,s140,21.0,feminino,right,españa,catalán y castellano,Bachelor degree,no,no,B,1,conjunction_syn,L2,syncopated,s1,r1,65,Online_conjL2_syn//d.si.ñu7.444.1110.wav,go,to,si,du,sil,ñu,te,mi,sil1,su,sil2,['false alarm'],[0.6354999999999791],[0.6354999999999791],1.11,no_beat,,,"[""space""]",ñu,4,testWhenL1Uns//r2.s2.1.wav,3.0,when,unsyncopated,b,s2,rule,rule,L1,m,0.6488,2.0,0.0,0.2264,3.0,2.0,catalan,0.0,castellano,0.0,inglés,4.0,4.0,4.0,yes,no,yes,guitarra,8,,,nada ,77.0,yes
66,2024-03-15_09h09.39.686,Unsyncopated_study3,s140,21.0,feminino,right,españa,catalán y castellano,Bachelor degree,no,no,B,1,conjunction_syn,L2,syncopated,s2,r2,66,Online_conjL2_syn//d.si.ñu5.1332.444.wav,cha,ño,ñu,fe,sil,bi,si,ra,sil1,to,sil2,['miss'],,,0.444,no_beat,,,,ñu,4,testWhenL1Uns//dep_viol.r2.s1.0.wav,3.0,when,unsyncopated,b,s1,no_rule,dep,L1,m,1.9024,1.0,0.0,0.2853,3.0,2.0,catalan,0.0,castellano,0.0,inglés,4.0,4.0,4.0,yes,no,yes,guitarra,8,,,nada ,77.0,yes
67,2024-03-15_09h09.39.686,Unsyncopated_study3,s140,21.0,feminino,right,españa,catalán y castellano,Bachelor degree,no,no,B,1,conjunction_syn,L2,syncopated,s1,r2,67,Online_conjL2_syn//d.si.ñu6.1110.1332.wav,fe,ño,bi,ra,sil,si,ñu,te,sil1,me,sil2,['miss'],,,1.332,no_beat,,,,ñu,4,testWhenL1Uns//r1.s1.0.wav,3.0,when,unsyncopated,a,s1,rule,rule,L1,z,0.4328,4.0,1.0,1.2278,3.0,2.0,catalan,0.0,castellano,0.0,inglés,4.0,4.0,4.0,yes,no,yes,guitarra,8,,,nada ,77.0,yes
68,2024-03-15_09h09.39.686,Unsyncopated_study3,s140,21.0,feminino,right,españa,catalán y castellano,Bachelor degree,no,no,B,1,conjunction_syn,L2,syncopated,s2,r1,68,Online_conjL2_syn//c.cha.me25.222.1110.wav,mi,cha,ñu,go,sil,me,ño,du,sil1,bi,sil2,['catch'],[1.732499999999959],[1.732499999999959],1.11,no_beat,0.622499999999959,0.622499999999959,"[""space""]",me,3,testWhenL1Uns//cat_viol.r1.s1.0.wav,3.0,when,unsyncopated,a,s1,no_rule,cat,L1,m,2.0831,1.0,0.0,0.4507,3.0,2.0,catalan,0.0,castellano,0.0,inglés,4.0,4.0,4.0,yes,no,yes,guitarra,8,,,nada ,77.0,yes
69,2024-03-15_09h09.39.686,Unsyncopated_study3,s140,21.0,feminino,right,españa,catalán y castellano,Bachelor degree,no,no,B,1,conjunction_syn,L2,syncopated,s1,r2,69,Online_conjL2_syn//c.cha.me24.none.none.wav,fe,ba,su,ra,sil,ñu,to,ño,sil1,si,sil2,['-'],,,none,none,,,,me,3,testWhenL1Uns//r2.s2.2.wav,3.0,when,unsyncopated,b,s2,rule,rule,L1,z,3.95,2.0,1.0,0.3868,3.0,2.0,catalan,0.0,castellano,0.0,inglés,4.0,4.0,4.0,yes,no,yes,guitarra,8,,,nada ,77.0,yes
70,2024-03-15_09h09.39.686,Unsyncopated_study3,s140,21.0,feminino,right,españa,catalán y castellano,Bachelor degree,no,no,B,1,conjunction_syn,L2,syncopated,s1,r1,70,Online_conjL2_syn//c.cha.me26.1332.222.wav,go,me,si,du,sil,ño,cha,su,sil1,ba,sil2,['catch'],[1.4997000002861114],[1.4997000002861114],0.222,no_beat,,1.2777000002861114,"[""space""]",me,3,testWhenL1Uns//r2.s1.1.wav,3.0,when,unsyncopated,b,s1,rule,rule,L1,m,2.2828,1.0,0.0,0.3166,3.0,2.0,catalan,0.0,castellano,0.0,inglés,4.0,4.0,4.0,yes,no,yes,guitarra,8,,,nada ,77.0,yes
71,2024-03-15_09h09.39.686,Unsyncopated_study3,s140,21.0,feminino,right,españa,catalán y castellano,Bachelor degree,no,no,B,1,conjunction_syn,L2,syncopated,s1,r2,71,Online_conjL2_syn//c.cha.me27.none.none.wav,fe,si,su,ra,sil,ño,to,ñu,sil1,ba,sil2,['-'],,,none,none,,,,me,3,testWhenL1Uns//dep_viol.r1.s1.0.wav,3.0,when,unsyncopated,a,s1,no_rule,dep,L1,m,2.4006,1.0,0.0,0.2472,3.0,2.0,catalan,0.0,castellano,0.0,inglés,4.0,4.0,4.0,yes,no,yes,guitarra,8,,,nada ,77.0,yes
72,2024-03-15_09h09.39.686,Unsyncopated_study3,s140,21.0,feminino,right,españa,catalán y castellano,Bachelor degree,no,no,B,1,conjunction_syn,L2,syncopated,s1,r2,72,Online_conjL2_syn//b.fe.ra13.0.666.wav,fe,si,ba,ra,sil,bi,su,ñu,sil1,ño,sil2,['miss'],,,0.666,no_beat,,,,ra,2,testWhatL4Uns//r1.s1.0.wav,4.0,what,unsyncopated,a,s1,rule,rule,L4,z,1.2745,7.0,1.0,0.5998,3.0,2.0,catalan,0.0,castellano,0.0,inglés,4.0,4.0,4.0,yes,no,yes,guitarra,8,,,nada ,77.0,yes
73,2024-03-15_09h09.39.686,Unsyncopated_study3,s140,21.0,feminino,right,españa,catalán y castellano,Bachelor degree,no,no,B,1,conjunction_syn,L2,syncopated,s2,r1,73,Online_conjL2_syn//b.fe.ra12.none.none.wav,ba,to,mi,go,sil,bi,si,du,sil1,me,sil2,['-'],,,none,none,,,,ra,2,testWhatL4Uns//time_viol.r2.s1.0.wav,4.0,what,unsyncopated,b,s1,no_rule,time,L4,z,0.1513,7.0,0.0,0.3839,3.0,2.0,catalan,0.0,castellano,0.0,inglés,4.0,4.0,4.0,yes,no,yes,guitarra,8,,,nada ,77.0,yes
74,2024-03-15_09h09.39.686,Unsyncopated_study3,s140,21.0,feminino,right,españa,catalán y castellano,Bachelor degree,no,no,B,1,conjunction_syn,L2,syncopated,s1,r2,74,Online_conjL2_syn//b.fe.ra14.0.666.wav,fe,te,ño,ra,sil,su,cha,bi,sil1,to,sil2,['catch'],[0.7764000000953502],[0.7764000000953502],0.666,no_beat,0.1104000000953501,0.1104000000953501,"[""space""]",ra,2,testWhatL4Uns//r1.s2.1.wav,4.0,what,unsyncopated,a,s2,rule,rule,L4,z,0.7003,6.0,1.0,0.5008,3.0,2.0,catalan,0.0,castellano,0.0,inglés,4.0,4.0,4.0,yes,no,yes,guitarra,8,,,nada ,77.0,yes
75,2024-03-15_09h09.39.686,Unsyncopated_study3,s140,21.0,feminino,right,españa,catalán y castellano,Bachelor degree,no,no,B,1,conjunction_syn,L2,syncopated,s1,r1,75,Online_conjL2_syn//b.fe.ra15.none.none.wav,go,ñu,to,du,sil,bi,cha,ño,sil1,ba,sil2,['-'],,,none,none,,,,ra,2,testWhatL4Uns//r2.s1.0.wav,4.0,what,unsyncopated,b,s1,rule,rule,L4,z,0.7222,6.0,1.0,0.3562,3.0,2.0,catalan,0.0,castellano,0.0,inglés,4.0,4.0,4.0,yes,no,yes,guitarra,8,,,nada ,77.0,yes
76,2024-03-15_09h09.39.686,Unsyncopated_study3,s140,21.0,feminino,right,españa,catalán y castellano,Bachelor degree,no,no,B,1,conjunction_syn,L2,syncopated,s1,r2,76,Online_conjL2_syn//a.go.du2.none.none.wav,fe,me,to,ra,sil,mi,te,ñu,sil1,ño,sil2,['false alarm'],[0.915099999904669],[0.915099999904669],none,none,,,"[""space""]",go,1,testWhatL4Uns//dep_viol.r1.s1.0.wav,4.0,what,unsyncopated,a,s1,no_rule,dep,L4,z,0.5088,5.0,0.0,0.3996,3.0,2.0,catalan,0.0,castellano,0.0,inglés,4.0,4.0,4.0,yes,no,yes,guitarra,8,,,nada ,77.0,yes
77,2024-03-15_09h09.39.686,Unsyncopated_study3,s140,21.0,feminino,right,españa,catalán y castellano,Bachelor degree,no,no,B,1,conjunction_syn,L2,syncopated,s2,r1,77,Online_conjL2_syn//a.go.du1.666.1554.wav,su,me,mi,go,sil,ño,cha,du,sil1,te,sil2,['catch'],[1.320700000286024],[1.320700000286024],0.666,no_beat,0.654700000286024,0.654700000286024,"[""space""]",go,1,testWhatL4Uns//r2.s1.2.wav,4.0,what,unsyncopated,b,s1,rule,rule,L4,z,1.8338,1.0,1.0,0.3343,3.0,2.0,catalan,0.0,castellano,0.0,inglés,4.0,4.0,4.0,yes,no,yes,guitarra,8,,,nada ,77.0,yes
78,2024-03-15_09h09.39.686,Unsyncopated_study3,s140,21.0,feminino,right,españa,catalán y castellano,Bachelor degree,no,no,B,1,conjunction_syn,L2,syncopated,s2,r1,78,Online_conjL2_syn//a.go.du3.666.1554.wav,su,bi,te,go,sil,ñu,mi,du,sil1,si,sil2,['catch'],[1.206900000095402],[1.206900000095402],0.666,no_beat,0.540900000095402,0.540900000095402,"[""space""]",go,1,testWhatL4Uns//dep_viol.r1.s2.0.wav,4.0,what,unsyncopated,a,s2,no_rule,dep,L4,z,0.5165,4.0,0.0,1.0241,3.0,2.0,catalan,0.0,castellano,0.0,inglés,4.0,4.0,4.0,yes,no,yes,guitarra,8,,,nada ,77.0,yes
79,2024-03-15_09h09.39.686,Unsyncopated_study3,s140,21.0,feminino,right,españa,catalán y castellano,Bachelor degree,no,no,B,1,conjunction_syn,L2,syncopated,s1,r1,79,Online_conjL2_syn//a.go.du0.0.666.wav,go,me,bi,du,sil,te,su,ba,sil1,cha,sil2,['catch'],[0.7200000000000273],[0.7200000000000273],0.0,beat,0.7200000000000273,0.7200000000000273,"[""space""]",go,1,testWhatL4Uns//r1.s1.2.wav,4.0,what,unsyncopated,a,s1,rule,rule,L4,z,3.0193,4.0,1.0,0.6677,3.0,2.0,catalan,0.0,castellano,0.0,inglés,4.0,4.0,4.0,yes,no,yes,guitarra,8,,,nada ,77.0,yes
80,2024-03-15_09h09.39.686,Unsyncopated_study3,s140,21.0,feminino,right,españa,catalán y castellano,Bachelor degree,no,no,B,1,conjunction_syn,L2,syncopated,s1,r2,80,Online_conjL2_syn//d.si.ñu9.1110.1332.wav,fe,te,ño,ra,sil,si,ñu,bi,sil1,cha,sil2,['false alarm'],[1.1306000003814916],[1.1306000003814916],1.332,no_beat,,,"[""space""]",ñu,4,testWhatL4Uns//r2.s2.2.wav,4.0,what,unsyncopated,b,s2,rule,rule,L4,z,1.4531,6.0,1.0,0.3753,3.0,2.0,catalan,0.0,castellano,0.0,inglés,4.0,4.0,4.0,yes,no,yes,guitarra,8,,,nada ,77.0,yes
81,2024-03-15_09h09.39.686,Unsyncopated_study3,s140,21.0,feminino,right,españa,catalán y castellano,Bachelor degree,no,no,B,1,conjunction_syn,L2,syncopated,s1,r2,81,Online_conjL2_syn//d.si.ñu8.none.none.wav,fe,ba,bi,ra,sil,cha,ño,te,sil1,mi,sil2,['false alarm'],[2.1404999999999745],[2.1404999999999745],none,none,,,"[""space""]",ñu,4,testWhatL4Uns//time_viol.r2.s2.0.wav,4.0,what,unsyncopated,b,s2,no_rule,time,L4,m,1.119,2.0,1.0,0.8027,3.0,2.0,catalan,0.0,castellano,0.0,inglés,4.0,4.0,4.0,yes,no,yes,guitarra,8,,,nada ,77.0,yes
82,2024-03-15_09h09.39.686,Unsyncopated_study3,s140,21.0,feminino,right,españa,catalán y castellano,Bachelor degree,no,no,B,1,conjunction_syn,L2,syncopated,s2,r1,82,Online_conjL2_syn//d.si.ñu10.none.none.wav,ño,te,me,go,sil,su,to,du,sil1,ba,sil2,['false alarm'],[0.8210000000000264],[0.8210000000000264],none,none,,,"[""space""]",ñu,4,testWhatL4Uns//time_viol.r1.s1.0.wav,4.0,what,unsyncopated,a,s1,no_rule,time,L4,m,2.516,2.0,1.0,0.6052,3.0,2.0,catalan,0.0,castellano,0.0,inglés,4.0,4.0,4.0,yes,no,yes,guitarra,8,,,nada ,77.0,yes
83,2024-03-15_09h09.39.686,Unsyncopated_study3,s140,21.0,feminino,right,españa,catalán y castellano,Bachelor degree,no,no,B,1,conjunction_syn,L2,syncopated,s1,r2,83,Online_conjL2_syn//d.si.ñu11.none.none.wav,fe,me,ño,ra,sil,su,to,cha,sil1,bi,sil2,['false alarm'],[0.970900000095412],[0.970900000095412],none,none,,,"[""space""]",ñu,4,testWhatL4Uns//r2.s2.1.wav,4.0,what,unsyncopated,b,s2,rule,rule,L4,z,1.3332,3.0,1.0,0.389,3.0,2.0,catalan,0.0,castellano,0.0,inglés,4.0,4.0,4.0,yes,no,yes,guitarra,8,,,nada ,77.0,yes
84,2024-03-15_09h09.39.686,Unsyncopated_study3,s140,21.0,feminino,right,españa,catalán y castellano,Bachelor degree,no,no,B,1,conjunction_syn,L2,syncopated,s2,r1,84,Online_conjL2_syn//d.si.ñu21.0.1110.wav,si,su,bi,go,sil,ñu,me,du,sil1,mi,sil2,['catch'],[1.5983000001907612],[1.5983000001907612],1.11,no_beat,0.4883000001907611,0.4883000001907611,"[""space""]",ñu,4,testWhatL4Uns//r1.s2.0.wav,4.0,what,unsyncopated,a,s2,rule,rule,L4,m,1.65,2.0,0.0,0.3663,3.0,2.0,catalan,0.0,castellano,0.0,inglés,4.0,4.0,4.0,yes,no,yes,guitarra,8,,,nada ,77.0,yes
85,2024-03-15_09h09.39.686,Unsyncopated_study3,s140,21.0,feminino,right,españa,catalán y castellano,Bachelor degree,no,no,B,1,conjunction_syn,L2,syncopated,s2,r1,85,Online_conjL2_syn//d.si.ñu22.1332.222.wav,ba,ñu,me,go,sil,ño,si,du,sil1,te,sil2,"['catch', 'false alarm']","[0.9969999999999573, 1.9750000000000227]",[0.9969999999999573],0.222,no_beat,0.7749999999999573,0.7749999999999573,"[""space"",""space""]",ñu,4,testWhatL4Uns//r2.s1.1.wav,4.0,what,unsyncopated,b,s1,rule,rule,L4,m,1.2739,2.0,0.0,0.3679,3.0,2.0,catalan,0.0,castellano,0.0,inglés,4.0,4.0,4.0,yes,no,yes,guitarra,8,,,nada ,77.0,yes
86,2024-03-15_09h09.39.686,Unsyncopated_study3,s140,21.0,feminino,right,españa,catalán y castellano,Bachelor degree,no,no,B,1,conjunction_syn,L2,syncopated,s2,r1,86,Online_conjL2_syn//d.si.ñu20.1110.0.wav,ñu,ño,mi,go,sil,si,to,du,sil1,me,sil2,"['catch', 'false alarm']","[0.6750999999046599, 0.8894999999999982]",[0.6750999999046599],0.0,beat,0.6750999999046599,0.6750999999046599,"[""space"",""space""]",ñu,4,testWhatL4Uns//r2.s2.0.wav,4.0,what,unsyncopated,b,s2,rule,rule,L4,z,1.9197,3.0,1.0,0.6396,3.0,2.0,catalan,0.0,castellano,0.0,inglés,4.0,4.0,4.0,yes,no,yes,guitarra,8,,,nada ,77.0,yes
87,2024-03-15_09h09.39.686,Unsyncopated_study3,s140,21.0,feminino,right,españa,catalán y castellano,Bachelor degree,no,no,B,1,conjunction_syn,L2,syncopated,s2,r2,87,Online_conjL2_syn//d.si.ñu23.0.444.wav,si,su,ñu,fe,sil,mi,ño,ra,sil1,cha,sil2,"['catch', 'false alarm']","[1.0875999999046826, 2.1872000002861114]",[1.0875999999046826],0.444,no_beat,0.6435999999046826,0.6435999999046826,"[""space"",""space""]",ñu,4,testWhatL4Uns//dep_viol.r2.s1.0.wav,4.0,what,unsyncopated,b,s1,no_rule,dep,L4,z,4.6173,4.0,0.0,0.5349,3.0,2.0,catalan,0.0,castellano,0.0,inglés,4.0,4.0,4.0,yes,no,yes,guitarra,8,,,nada ,77.0,yes
88,2024-03-15_09h09.39.686,Unsyncopated_study3,s140,21.0,feminino,right,españa,catalán y castellano,Bachelor degree,no,no,B,1,conjunction_syn,L2,syncopated,s1,r1,88,Online_conjL2_syn//b.fe.ra21.none.none.wav,go,bi,cha,du,sil,te,me,mi,sil1,ba,sil2,['-'],,,none,none,,,,ra,2,testWhatL4Uns//cat_viol.r1.s1.0.wav,4.0,what,unsyncopated,a,s1,no_rule,cat,L4,z,1.486,4.0,0.0,0.4186,3.0,2.0,catalan,0.0,castellano,0.0,inglés,4.0,4.0,4.0,yes,no,yes,guitarra,8,,,nada ,77.0,yes
89,2024-03-15_09h09.39.686,Unsyncopated_study3,s140,21.0,feminino,right,españa,catalán y castellano,Bachelor degree,no,no,B,1,conjunction_syn,L2,syncopated,s2,r2,89,Online_conjL2_syn//b.fe.ra20.666.1554.wav,si,ño,cha,fe,sil,to,me,ra,sil1,su,sil2,"['false alarm', 'catch']","[1.0487000002860896, 1.994200000286014]",[1.994200000286014],1.554,no_beat,0.440200000286014,0.440200000286014,"[""space"",""space""]",ra,2,testWhatL4Uns//time_viol.r1.s2.0.wav,4.0,what,unsyncopated,a,s2,no_rule,time,L4,m,1.0674,1.0,1.0,0.4354,3.0,2.0,catalan,0.0,castellano,0.0,inglés,4.0,4.0,4.0,yes,no,yes,guitarra,8,,,nada ,77.0,yes
90,2024-03-15_09h09.39.686,Unsyncopated_study3,s140,21.0,feminino,right,españa,catalán y castellano,Bachelor degree,no,no,B,1,conjunction_syn,L2,syncopated,s2,r1,90,Online_conjL2_syn//b.fe.ra22.none.none.wav,cha,ño,me,go,sil,ñu,to,du,sil1,mi,sil2,['-'],,,none,none,,,,ra,2,testWhatL4Uns//dep_viol.r2.s2.0.wav,4.0,what,unsyncopated,b,s2,no_rule,dep,L4,z,1.0168,3.0,0.0,1.3528,3.0,2.0,catalan,0.0,castellano,0.0,inglés,4.0,4.0,4.0,yes,no,yes,guitarra,8,,,nada ,77.0,yes
91,2024-03-15_09h09.39.686,Unsyncopated_study3,s140,21.0,feminino,right,españa,catalán y castellano,Bachelor degree,no,no,B,1,conjunction_syn,L2,syncopated,s2,r1,91,Online_conjL2_syn//b.fe.ra23.none.none.wav,me,su,bi,go,sil,ñu,mi,du,sil1,si,sil2,['-'],,,none,none,,,,ra,2,testWhatL4Uns//cat_viol.r1.s2.0.wav,4.0,what,unsyncopated,a,s2,no_rule,cat,L4,z,1.4173,3.0,0.0,1.5339,3.0,2.0,catalan,0.0,castellano,0.0,inglés,4.0,4.0,4.0,yes,no,yes,guitarra,8,,,nada ,77.0,yes
92,2024-03-15_09h09.39.686,Unsyncopated_study3,s140,21.0,feminino,right,españa,catalán y castellano,Bachelor degree,no,no,B,1,conjunction_syn,L2,syncopated,s2,r2,92,Online_conjL2_syn//a.go.du22.none.none.wav,to,cha,mi,fe,sil,bi,ba,ra,sil1,si,sil2,['-'],,,none,none,,,,go,1,testWhatL4Uns//cat_viol.r2.s2.0.wav,4.0,what,unsyncopated,b,s2,no_rule,cat,L4,m,2.1496,2.0,1.0,0.8718,3.0,2.0,catalan,0.0,castellano,0.0,inglés,4.0,4.0,4.0,yes,no,yes,guitarra,8,,,nada ,77.0,yes
93,2024-03-15_09h09.39.686,Unsyncopated_study3,s140,21.0,feminino,right,españa,catalán y castellano,Bachelor degree,no,no,B,1,conjunction_syn,L2,syncopated,s2,r2,93,Online_conjL2_syn//a.go.du21.none.none.wav,cha,te,to,fe,sil,si,ba,ra,sil1,bi,sil2,['-'],,,none,none,,,,go,1,testWhatL4Uns//cat_viol.r2.s1.0.wav,4.0,what,unsyncopated,b,s1,no_rule,cat,L4,m,0.617,2.0,1.0,0.4365,3.0,2.0,catalan,0.0,castellano,0.0,inglés,4.0,4.0,4.0,yes,no,yes,guitarra,8,,,nada ,77.0,yes
94,2024-03-15_09h09.39.686,Unsyncopated_study3,s140,21.0,feminino,right,españa,catalán y castellano,Bachelor degree,no,no,B,1,conjunction_syn,L2,syncopated,s2,r2,94,Online_conjL2_syn//a.go.du20.none.none.wav,to,ba,me,fe,sil,su,te,ra,sil1,ñu,sil2,['-'],,,none,none,,,,go,1,testWhatL4Uns//r1.s1.1.wav,4.0,what,unsyncopated,a,s1,rule,rule,L4,z,0.3419,6.0,1.0,0.5511,3.0,2.0,catalan,0.0,castellano,0.0,inglés,4.0,4.0,4.0,yes,no,yes,guitarra,8,,,nada ,77.0,yes
95,2024-03-15_09h09.39.686,Unsyncopated_study3,s140,21.0,feminino,right,españa,catalán y castellano,Bachelor degree,no,no,B,1,conjunction_syn,L2,syncopated,s1,r1,95,Online_conjL2_syn//a.go.du23.0.666.wav,go,te,ba,du,sil,bi,si,su,sil1,ñu,sil2,['catch'],[0.689599999904658],[0.689599999904658],0.0,beat,0.689599999904658,0.689599999904658,"[""space""]",go,1,testWhatL4Uns//r1.s2.2.wav,4.0,what,unsyncopated,a,s2,rule,rule,L4,z,1.2,5.0,1.0,0.2665,3.0,2.0,catalan,0.0,castellano,0.0,inglés,4.0,4.0,4.0,yes,no,yes,guitarra,8,,,nada ,77.0,yes
96,2024-03-15_09h09.39.686,Unsyncopated_study3,s140,21.0,feminino,right,españa,catalán y castellano,Bachelor degree,no,no,B,1,conjunction_syn,L2,syncopated,s1,r1,96,Online_conjL2_syn//b.fe.ra28.none.none.wav,go,te,ñu,du,sil,ba,mi,me,sil1,ño,sil2,['-'],,,none,none,,,,ra,2,,,,,,,,,,,,,,,3.0,2.0,catalan,0.0,castellano,0.0,inglés,4.0,4.0,4.0,yes,no,yes,guitarra,8,,,nada ,77.0,yes
97,2024-03-15_09h09.39.686,Unsyncopated_study3,s140,21.0,feminino,right,españa,catalán y castellano,Bachelor degree,no,no,B,1,conjunction_syn,L2,syncopated,s1,r2,97,Online_conjL2_syn//b.fe.ra30.0.666.wav,fe,ba,ñu,ra,sil,su,ño,mi,sil1,cha,sil2,['catch'],[1.3133000001906794],[1.3133000001906794],0.666,no_beat,0.6473000001906793,0.6473000001906793,"[""space""]",ra,2,,,,,,,,,,,,,,,3.0,2.0,catalan,0.0,castellano,0.0,inglés,4.0,4.0,4.0,yes,no,yes,guitarra,8,,,nada ,77.0,yes
98,2024-03-15_09h09.39.686,Unsyncopated_study3,s140,21.0,feminino,right,españa,catalán y castellano,Bachelor degree,no,no,B,1,conjunction_syn,L2,syncopated,s2,r2,98,Online_conjL2_syn//b.fe.ra31.666.1554.wav,bi,cha,te,fe,sil,me,ñu,ra,sil1,si,sil2,['catch'],[1.9735000000000582],[1.9735000000000582],1.554,no_beat,0.4195000000000581,0.4195000000000581,"[""space""]",ra,2,,,,,,,,,,,,,,,3.0,2.0,catalan,0.0,castellano,0.0,inglés,4.0,4.0,4.0,yes,no,yes,guitarra,8,,,nada ,77.0,yes
99,2024-03-15_09h09.39.686,Unsyncopated_study3,s140,21.0,feminino,right,españa,catalán y castellano,Bachelor degree,no,no,B,1,conjunction_syn,L2,syncopated,s1,r1,99,Online_conjL2_syn//b.fe.ra29.none.none.wav,go,cha,si,du,sil,bi,to,ñu,sil1,ba,sil2,['-'],,,none,none,,,,ra,2,,,,,,,,,,,,,,,3.0,2.0,catalan,0.0,castellano,0.0,inglés,4.0,4.0,4.0,yes,no,yes,guitarra,8,,,nada ,77.0,yes
100,2024-03-15_09h09.39.686,Unsyncopated_study3,s140,21.0,feminino,right,españa,catalán y castellano,Bachelor degree,no,no,B,1,conjunction_syn,L2,syncopated,s2,r1,100,Online_conjL2_syn//b.fe.ra24.none.none.wav,ñu,me,cha,go,sil,ba,to,du,sil1,si,sil2,['-'],,,none,none,,,,ra,2,,,,,,,,,,,,,,,3.0,2.0,catalan,0.0,castellano,0.0,inglés,4.0,4.0,4.0,yes,no,yes,guitarra,8,,,nada ,77.0,yes
101,2024-03-15_09h09.39.686,Unsyncopated_study3,s140,21.0,feminino,right,españa,catalán y castellano,Bachelor degree,no,no,B,1,conjunction_syn,L2,syncopated,s1,r2,101,Online_conjL2_syn//b.fe.ra27.0.666.wav,fe,ñu,si,ra,sil,ño,to,te,sil1,su,sil2,['catch'],[1.2577999997139386],[1.2577999997139386],0.666,no_beat,0.5917999997139386,0.5917999997139386,"[""space""]",ra,2,,,,,,,,,,,,,,,3.0,2.0,catalan,0.0,castellano,0.0,inglés,4.0,4.0,4.0,yes,no,yes,guitarra,8,,,nada ,77.0,yes
102,2024-03-15_09h09.39.686,Unsyncopated_study3,s140,21.0,feminino,right,españa,catalán y castellano,Bachelor degree,no,no,B,1,conjunction_syn,L2,syncopated,s1,r1,102,Online_conjL2_syn//b.fe.ra26.none.none.wav,go,ño,mi,du,sil,me,si,bi,sil1,ba,sil2,['-'],,,none,none,,,,ra,2,,,,,,,,,,,,,,,3.0,2.0,catalan,0.0,castellano,0.0,inglés,4.0,4.0,4.0,yes,no,yes,guitarra,8,,,nada ,77.0,yes
103,2024-03-15_09h09.39.686,Unsyncopated_study3,s140,21.0,feminino,right,españa,catalán y castellano,Bachelor degree,no,no,B,1,conjunction_syn,L2,syncopated,s1,r1,103,Online_conjL2_syn//b.fe.ra25.none.none.wav,go,to,mi,du,sil,me,ba,si,sil1,su,sil2,['-'],,,none,none,,,,ra,2,,,,,,,,,,,,,,,3.0,2.0,catalan,0.0,castellano,0.0,inglés,4.0,4.0,4.0,yes,no,yes,guitarra,8,,,nada ,77.0,yes
104,2024-03-15_09h09.39.686,Unsyncopated_study3,s140,21.0,feminino,right,españa,catalán y castellano,Bachelor degree,no,no,B,1,conjunction_syn,L2,syncopated,s1,r1,104,Online_conjL2_syn//c.cha.me13.222.1110.wav,go,cha,su,du,sil,me,ño,ñu,sil1,mi,sil2,['catch'],[1.7769000000953383],[1.7769000000953383],1.11,no_beat,0.6669000000953382,0.6669000000953382,"[""space""]",me,3,,,,,,,,,,,,,,,3.0,2.0,catalan,0.0,castellano,0.0,inglés,4.0,4.0,4.0,yes,no,yes,guitarra,8,,,nada ,77.0,yes
105,2024-03-15_09h09.39.686,Unsyncopated_study3,s140,21.0,feminino,right,españa,catalán y castellano,Bachelor degree,no,no,B,1,conjunction_syn,L2,syncopated,s1,r1,105,Online_conjL2_syn//c.cha.me12.none.none.wav,go,te,ño,du,sil,bi,ñu,to,sil1,mi,sil2,['-'],,,none,none,,,,me,3,,,,,,,,,,,,,,,3.0,2.0,catalan,0.0,castellano,0.0,inglés,4.0,4.0,4.0,yes,no,yes,guitarra,8,,,nada ,77.0,yes
106,2024-03-15_09h09.39.686,Unsyncopated_study3,s140,21.0,feminino,right,españa,catalán y castellano,Bachelor degree,no,no,B,1,conjunction_syn,L2,syncopated,s1,r2,106,Online_conjL2_syn//c.cha.me14.none.none.wav,fe,to,su,ra,sil,si,te,mi,sil1,bi,sil2,['-'],,,none,none,,,,me,3,,,,,,,,,,,,,,,3.0,2.0,catalan,0.0,castellano,0.0,inglés,4.0,4.0,4.0,yes,no,yes,guitarra,8,,,nada ,77.0,yes
107,2024-03-15_09h09.39.686,Unsyncopated_study3,s140,21.0,feminino,right,españa,catalán y castellano,Bachelor degree,no,no,B,1,conjunction_syn,L2,syncopated,s1,r2,107,Online_conjL2_syn//c.cha.me15.222.1110.wav,fe,cha,si,ra,sil,me,su,ba,sil1,ñu,sil2,['catch'],[1.7588000001908313],[1.7588000001908313],1.11,no_beat,0.6488000001908312,0.6488000001908312,"[""space""]",me,3,,,,,,,,,,,,,,,3.0,2.0,catalan,0.0,castellano,0.0,inglés,4.0,4.0,4.0,yes,no,yes,guitarra,8,,,nada ,77.0,yes
108,2024-03-15_09h09.39.686,Unsyncopated_study3,s140,21.0,feminino,right,españa,catalán y castellano,Bachelor degree,no,no,B,1,conjunction_syn,L2,syncopated,s2,r2,108,Online_conjL2_syn//c.cha.me31.0.1110.wav,cha,ño,si,fe,sil,me,ba,ra,sil1,su,sil2,['catch'],[1.7472000002861705],[1.7472000002861705],1.11,no_beat,0.6372000002861704,0.6372000002861704,"[""space""]",me,3,,,,,,,,,,,,,,,3.0,2.0,catalan,0.0,castellano,0.0,inglés,4.0,4.0,4.0,yes,no,yes,guitarra,8,,,nada ,77.0,yes
109,2024-03-15_09h09.39.686,Unsyncopated_study3,s140,21.0,feminino,right,españa,catalán y castellano,Bachelor degree,no,no,B,1,conjunction_syn,L2,syncopated,s2,r2,109,Online_conjL2_syn//c.cha.me30.none.none.wav,to,ño,su,fe,sil,te,bi,ra,sil1,ñu,sil2,['-'],,,none,none,,,,me,3,,,,,,,,,,,,,,,3.0,2.0,catalan,0.0,castellano,0.0,inglés,4.0,4.0,4.0,yes,no,yes,guitarra,8,,,nada ,77.0,yes
110,2024-03-15_09h09.39.686,Unsyncopated_study3,s140,21.0,feminino,right,españa,catalán y castellano,Bachelor degree,no,no,B,1,conjunction_syn,L2,syncopated,s2,r1,110,Online_conjL2_syn//c.cha.me28.none.none.wav,su,te,ba,go,sil,mi,to,du,sil1,ño,sil2,['-'],,,none,none,,,,me,3,,,,,,,,,,,,,,,3.0,2.0,catalan,0.0,castellano,0.0,inglés,4.0,4.0,4.0,yes,no,yes,guitarra,8,,,nada ,77.0,yes
111,2024-03-15_09h09.39.686,Unsyncopated_study3,s140,21.0,feminino,right,españa,catalán y castellano,Bachelor degree,no,no,B,1,conjunction_syn,L2,syncopated,s2,r2,111,Online_conjL2_syn//c.cha.me29.none.none.wav,te,bi,to,fe,sil,ño,si,ra,sil1,mi,sil2,['-'],,,none,none,,,,me,3,,,,,,,,,,,,,,,3.0,2.0,catalan,0.0,castellano,0.0,inglés,4.0,4.0,4.0,yes,no,yes,guitarra,8,,,nada ,77.0,yes
112,2024-03-15_09h09.39.686,Unsyncopated_study3,s140,21.0,feminino,right,españa,catalán y castellano,Bachelor degree,no,no,B,1,conjunction_syn,L2,syncopated,s1,r1,112,Online_conjL2_syn//d.si.ñu0.1554.1110.wav,go,su,bi,du,sil,ñu,ba,si,sil1,ño,sil2,['catch'],[1.6769000000954293],[1.6769000000954293],1.11,no_beat,0.5669000000954292,0.5669000000954292,"[""space""]",ñu,4,,,,,,,,,,,,,,,3.0,2.0,catalan,0.0,castellano,0.0,inglés,4.0,4.0,4.0,yes,no,yes,guitarra,8,,,nada ,77.0,yes
113,2024-03-15_09h09.39.686,Unsyncopated_study3,s140,21.0,feminino,right,españa,catalán y castellano,Bachelor degree,no,no,B,1,conjunction_syn,L2,syncopated,s1,r2,113,Online_conjL2_syn//d.si.ñu2.none.none.wav,fe,bi,me,ra,sil,te,mi,to,sil1,cha,sil2,['false alarm'],[0.6095999999046171],[0.6095999999046171],none,none,,,"[""space""]",ñu,4,,,,,,,,,,,,,,,3.0,2.0,catalan,0.0,castellano,0.0,inglés,4.0,4.0,4.0,yes,no,yes,guitarra,8,,,nada ,77.0,yes
114,2024-03-15_09h09.39.686,Unsyncopated_study3,s140,21.0,feminino,right,españa,catalán y castellano,Bachelor degree,no,no,B,1,conjunction_syn,L2,syncopated,s1,r1,114,Online_conjL2_syn//d.si.ñu3.none.none.wav,go,to,cha,du,sil,bi,te,mi,sil1,ño,sil2,['-'],,,none,none,,,,ñu,4,,,,,,,,,,,,,,,3.0,2.0,catalan,0.0,castellano,0.0,inglés,4.0,4.0,4.0,yes,no,yes,guitarra,8,,,nada ,77.0,yes
115,2024-03-15_09h09.39.686,Unsyncopated_study3,s140,21.0,feminino,right,españa,catalán y castellano,Bachelor degree,no,no,B,1,conjunction_syn,L2,syncopated,s1,r1,115,Online_conjL2_syn//d.si.ñu1.none.none.wav,go,te,ba,du,sil,bi,mi,me,sil1,to,sil2,['false alarm'],[0.05930000019077397],[0.05930000019077397],none,none,,,"[""space""]",ñu,4,,,,,,,,,,,,,,,3.0,2.0,catalan,0.0,castellano,0.0,inglés,4.0,4.0,4.0,yes,no,yes,guitarra,8,,,nada ,77.0,yes
116,2024-03-15_09h09.39.686,Unsyncopated_study3,s140,21.0,feminino,right,españa,catalán y castellano,Bachelor degree,no,no,B,1,conjunction_syn,L2,syncopated,s2,r1,116,Online_conjL2_syn//b.fe.ra4.none.none.wav,me,bi,ño,go,sil,ñu,to,du,sil1,te,sil2,['-'],,,none,none,,,,ra,2,,,,,,,,,,,,,,,3.0,2.0,catalan,0.0,castellano,0.0,inglés,4.0,4.0,4.0,yes,no,yes,guitarra,8,,,nada ,77.0,yes
117,2024-03-15_09h09.39.686,Unsyncopated_study3,s140,21.0,feminino,right,españa,catalán y castellano,Bachelor degree,no,no,B,1,conjunction_syn,L2,syncopated,s2,r1,117,Online_conjL2_syn//b.fe.ra6.none.none.wav,te,ño,ba,go,sil,ñu,cha,du,sil1,su,sil2,['-'],,,none,none,,,,ra,2,,,,,,,,,,,,,,,3.0,2.0,catalan,0.0,castellano,0.0,inglés,4.0,4.0,4.0,yes,no,yes,guitarra,8,,,nada ,77.0,yes
118,2024-03-15_09h09.39.686,Unsyncopated_study3,s140,21.0,feminino,right,españa,catalán y castellano,Bachelor degree,no,no,B,1,conjunction_syn,L2,syncopated,s2,r1,118,Online_conjL2_syn//b.fe.ra7.none.none.wav,ba,cha,me,go,sil,su,si,du,sil1,mi,sil2,['-'],,,none,none,,,,ra,2,,,,,,,,,,,,,,,3.0,2.0,catalan,0.0,castellano,0.0,inglés,4.0,4.0,4.0,yes,no,yes,guitarra,8,,,nada ,77.0,yes
119,2024-03-15_09h09.39.686,Unsyncopated_study3,s140,21.0,feminino,right,españa,catalán y castellano,Bachelor degree,no,no,B,1,conjunction_syn,L2,syncopated,s2,r2,119,Online_conjL2_syn//b.fe.ra5.666.1554.wav,ñu,te,to,fe,sil,ba,su,ra,sil1,mi,sil2,['catch'],[2.145999999999958],[2.145999999999958],1.554,no_beat,0.5919999999999581,0.5919999999999581,"[""space""]",ra,2,,,,,,,,,,,,,,,3.0,2.0,catalan,0.0,castellano,0.0,inglés,4.0,4.0,4.0,yes,no,yes,guitarra,8,,,nada ,77.0,yes
120,2024-03-15_09h09.39.686,Unsyncopated_study3,s140,21.0,feminino,right,españa,catalán y castellano,Bachelor degree,no,no,B,1,conjunction_syn,L2,syncopated,s2,r1,120,Online_conjL2_syn//d.si.ñu13.none.none.wav,bi,te,to,go,sil,ño,cha,du,sil1,me,sil2,['false alarm'],[1.9836999998092324],[1.9836999998092324],none,none,,,"[""space""]",ñu,4,,,,,,,,,,,,,,,3.0,2.0,catalan,0.0,castellano,0.0,inglés,4.0,4.0,4.0,yes,no,yes,guitarra,8,,,nada ,77.0,yes
121,2024-03-15_09h09.39.686,Unsyncopated_study3,s140,21.0,feminino,right,españa,catalán y castellano,Bachelor degree,no,no,B,1,conjunction_syn,L2,syncopated,s2,r1,121,Online_conjL2_syn//d.si.ñu15.none.none.wav,su,ño,ba,go,sil,bi,mi,du,sil1,to,sil2,['-'],,,none,none,,,,ñu,4,,,,,,,,,,,,,,,3.0,2.0,catalan,0.0,castellano,0.0,inglés,4.0,4.0,4.0,yes,no,yes,guitarra,8,,,nada ,77.0,yes
122,2024-03-15_09h09.39.686,Unsyncopated_study3,s140,21.0,feminino,right,españa,catalán y castellano,Bachelor degree,no,no,B,1,conjunction_syn,L2,syncopated,s1,r2,122,Online_conjL2_syn//d.si.ñu14.none.none.wav,fe,cha,bi,ra,sil,to,mi,me,sil1,ba,sil2,['-'],,,none,none,,,,ñu,4,,,,,,,,,,,,,,,3.0,2.0,catalan,0.0,castellano,0.0,inglés,4.0,4.0,4.0,yes,no,yes,guitarra,8,,,nada ,77.0,yes
123,2024-03-15_09h09.39.686,Unsyncopated_study3,s140,21.0,feminino,right,españa,catalán y castellano,Bachelor degree,no,no,B,1,conjunction_syn,L2,syncopated,s2,r2,123,Online_conjL2_syn//d.si.ñu12.0.222.wav,si,ñu,cha,fe,sil,te,me,ra,sil1,to,sil2,['miss'],,,0.222,no_beat,,,,ñu,4,,,,,,,,,,,,,,,3.0,2.0,catalan,0.0,castellano,0.0,inglés,4.0,4.0,4.0,yes,no,yes,guitarra,8,,,nada ,77.0,yes
124,2024-03-15_09h09.39.686,Unsyncopated_study3,s140,21.0,feminino,right,españa,catalán y castellano,Bachelor degree,no,no,B,1,conjunction_syn,L2,syncopated,s1,r2,124,Online_conjL2_syn//c.cha.me21.222.444.wav,fe,cha,me,ra,sil,su,ñu,to,sil1,mi,sil2,['catch'],[1.2782999997139086],[1.2782999997139086],0.444,no_beat,0.8342999997139087,0.8342999997139087,"[""space""]",me,3,,,,,,,,,,,,,,,3.0,2.0,catalan,0.0,castellano,0.0,inglés,4.0,4.0,4.0,yes,no,yes,guitarra,8,,,nada ,77.0,yes
125,2024-03-15_09h09.39.686,Unsyncopated_study3,s140,21.0,feminino,right,españa,catalán y castellano,Bachelor degree,no,no,B,1,conjunction_syn,L2,syncopated,s1,r2,125,Online_conjL2_syn//c.cha.me23.none.none.wav,fe,bi,ñu,ra,sil,ba,su,to,sil1,te,sil2,['-'],,,none,none,,,,me,3,,,,,,,,,,,,,,,3.0,2.0,catalan,0.0,castellano,0.0,inglés,4.0,4.0,4.0,yes,no,yes,guitarra,8,,,nada ,77.0,yes
126,2024-03-15_09h09.39.686,Unsyncopated_study3,s140,21.0,feminino,right,españa,catalán y castellano,Bachelor degree,no,no,B,1,conjunction_syn,L2,syncopated,s1,r1,126,Online_conjL2_syn//c.cha.me20.none.none.wav,go,mi,si,du,sil,bi,ba,ño,sil1,su,sil2,['-'],,,none,none,,,,me,3,,,,,,,,,,,,,,,3.0,2.0,catalan,0.0,castellano,0.0,inglés,4.0,4.0,4.0,yes,no,yes,guitarra,8,,,nada ,77.0,yes
127,2024-03-15_09h09.39.686,Unsyncopated_study3,s140,21.0,feminino,right,españa,catalán y castellano,Bachelor degree,no,no,B,1,conjunction_syn,L2,syncopated,s1,r1,127,Online_conjL2_syn//c.cha.me22.1554.444.wav,go,bi,me,du,sil,to,ba,cha,sil1,ño,sil2,['miss'],,,0.444,no_beat,,,,me,3,,,,,,,,,,,,,,,3.0,2.0,catalan,0.0,castellano,0.0,inglés,4.0,4.0,4.0,yes,no,yes,guitarra,8,,,nada ,77.0,yes
128,2024-03-15_09h09.39.686,Unsyncopated_study3,s140,21.0,feminino,right,españa,catalán y castellano,Bachelor degree,no,no,B,2,conjunction_un,L3,unsyncopated,s2,r1,0,Online_conjL3_un//c.gu.je24.none.none.wav,di,ji,le,sil,chu,li,fu,sil1,mo,do,sil2,['-'],,,none,none,,,,je,3,,,,,,,,,,,,,,,3.0,2.0,catalan,0.0,castellano,0.0,inglés,4.0,4.0,4.0,yes,no,yes,guitarra,8,,,nada ,77.0,yes
129,2024-03-15_09h09.39.686,Unsyncopated_study3,s140,21.0,feminino,right,españa,catalán y castellano,Bachelor degree,no,no,B,2,conjunction_un,L3,unsyncopated,s2,r2,1,Online_conjL3_un//c.gu.je26.222.444.wav,do,gu,je,sil,ñe,le,ko,sil1,sa,ka,sil2,['catch'],[1.0745999999044216],[1.0745999999044216],0.444,no_beat,0.6305999999044216,0.6305999999044216,"[""space""]",je,3,,,,,,,,,,,,,,,3.0,2.0,catalan,0.0,castellano,0.0,inglés,4.0,4.0,4.0,yes,no,yes,guitarra,8,,,nada ,77.0,yes
130,2024-03-15_09h09.39.686,Unsyncopated_study3,s140,21.0,feminino,right,españa,catalán y castellano,Bachelor degree,no,no,B,2,conjunction_un,L3,unsyncopated,s2,r2,2,Online_conjL3_un//c.gu.je25.none.none.wav,le,li,ji,sil,ñe,ka,fu,sil1,sa,di,sil2,['-'],,,none,none,,,,je,3,,,,,,,,,,,,,,,3.0,2.0,catalan,0.0,castellano,0.0,inglés,4.0,4.0,4.0,yes,no,yes,guitarra,8,,,nada ,77.0,yes
131,2024-03-15_09h09.39.686,Unsyncopated_study3,s140,21.0,feminino,right,españa,catalán y castellano,Bachelor degree,no,no,B,2,conjunction_un,L3,unsyncopated,s2,r2,3,Online_conjL3_un//c.gu.je27.222.1110.wav,li,gu,ji,sil,ñe,je,ka,sil1,sa,ga,sil2,['catch'],[1.7432999997138268],[1.7432999997138268],1.11,no_beat,0.6332999997138267,0.6332999997138267,"[""space""]",je,3,,,,,,,,,,,,,,,3.0,2.0,catalan,0.0,castellano,0.0,inglés,4.0,4.0,4.0,yes,no,yes,guitarra,8,,,nada ,77.0,yes
132,2024-03-15_09h09.39.686,Unsyncopated_study3,s140,21.0,feminino,right,españa,catalán y castellano,Bachelor degree,no,no,B,2,conjunction_un,L3,unsyncopated,s1,r1,4,Online_conjL3_un//b.ñe.sa12.none.none.wav,chu,je,li,sil,mo,ka,ga,sil1,ko,di,sil2,['-'],,,none,none,,,,sa,2,,,,,,,,,,,,,,,3.0,2.0,catalan,0.0,castellano,0.0,inglés,4.0,4.0,4.0,yes,no,yes,guitarra,8,,,nada ,77.0,yes
133,2024-03-15_09h09.39.686,Unsyncopated_study3,s140,21.0,feminino,right,españa,catalán y castellano,Bachelor degree,no,no,B,2,conjunction_un,L3,unsyncopated,s2,r2,5,Online_conjL3_un//b.ñe.sa14.888.1776.wav,gu,ko,le,sil,ñe,ka,fu,sil1,sa,di,sil2,['catch'],[2.3762000002861896],[2.3762000002861896],1.776,beat,0.6002000002861896,0.6002000002861896,"[""space""]",sa,2,,,,,,,,,,,,,,,3.0,2.0,catalan,0.0,castellano,0.0,inglés,4.0,4.0,4.0,yes,no,yes,guitarra,8,,,nada ,77.0,yes
134,2024-03-15_09h09.39.686,Unsyncopated_study3,s140,21.0,feminino,right,españa,catalán y castellano,Bachelor degree,no,no,B,2,conjunction_un,L3,unsyncopated,s2,r1,6,Online_conjL3_un//b.ñe.sa13.none.none.wav,ji,je,gu,sil,chu,ko,do,sil1,mo,di,sil2,['-'],,,none,none,,,,sa,2,,,,,,,,,,,,,,,3.0,2.0,catalan,0.0,castellano,0.0,inglés,4.0,4.0,4.0,yes,no,yes,guitarra,8,,,nada ,77.0,yes
135,2024-03-15_09h09.39.686,Unsyncopated_study3,s140,21.0,feminino,right,españa,catalán y castellano,Bachelor degree,no,no,B,2,conjunction_un,L3,unsyncopated,s1,r2,7,Online_conjL3_un//b.ñe.sa15.0.888.wav,ñe,le,di,sil,sa,je,ji,sil1,fu,gu,sil2,['catch'],[1.5402999997138522],[1.5402999997138522],0.888,beat,0.6522999997138522,0.6522999997138522,"[""space""]",sa,2,,,,,,,,,,,,,,,3.0,2.0,catalan,0.0,castellano,0.0,inglés,4.0,4.0,4.0,yes,no,yes,guitarra,8,,,nada ,77.0,yes
136,2024-03-15_09h09.39.686,Unsyncopated_study3,s140,21.0,feminino,right,españa,catalán y castellano,Bachelor degree,no,no,B,2,conjunction_un,L3,unsyncopated,s2,r2,8,Online_conjL3_un//d.ji.li19.none.none.wav,gu,ga,di,sil,ñe,do,ka,sil1,sa,ko,sil2,['-'],,,none,none,,,,li,4,,,,,,,,,,,,,,,3.0,2.0,catalan,0.0,castellano,0.0,inglés,4.0,4.0,4.0,yes,no,yes,guitarra,8,,,nada ,77.0,yes
137,2024-03-15_09h09.39.686,Unsyncopated_study3,s140,21.0,feminino,right,españa,catalán y castellano,Bachelor degree,no,no,B,2,conjunction_un,L3,unsyncopated,s2,r2,9,Online_conjL3_un//d.ji.li16.none.none.wav,di,gu,je,sil,ñe,ga,ko,sil1,sa,ka,sil2,['-'],,,none,none,,,,li,4,,,,,,,,,,,,,,,3.0,2.0,catalan,0.0,castellano,0.0,inglés,4.0,4.0,4.0,yes,no,yes,guitarra,8,,,nada ,77.0,yes
138,2024-03-15_09h09.39.686,Unsyncopated_study3,s140,21.0,feminino,right,españa,catalán y castellano,Bachelor degree,no,no,B,2,conjunction_un,L3,unsyncopated,s2,r2,10,Online_conjL3_un//d.ji.li18.1332.444.wav,ka,le,li,sil,ñe,gu,ji,sil1,sa,ko,sil2,['catch'],[0.9555000000000291],[0.9555000000000291],0.444,no_beat,0.5115000000000292,0.5115000000000292,"[""space""]",li,4,,,,,,,,,,,,,,,3.0,2.0,catalan,0.0,castellano,0.0,inglés,4.0,4.0,4.0,yes,no,yes,guitarra,8,,,nada ,77.0,yes
139,2024-03-15_09h09.39.686,Unsyncopated_study3,s140,21.0,feminino,right,españa,catalán y castellano,Bachelor degree,no,no,B,2,conjunction_un,L3,unsyncopated,s1,r1,11,Online_conjL3_un//d.ji.li17.none.none.wav,chu,je,gu,sil,mo,do,ko,sil1,ga,le,sil2,['-'],,,none,none,,,,li,4,,,,,,,,,,,,,,,3.0,2.0,catalan,0.0,castellano,0.0,inglés,4.0,4.0,4.0,yes,no,yes,guitarra,8,,,nada ,77.0,yes
140,2024-03-15_09h09.39.686,Unsyncopated_study3,s140,21.0,feminino,right,españa,catalán y castellano,Bachelor degree,no,no,B,2,conjunction_un,L3,unsyncopated,s2,r1,12,Online_conjL3_un//d.ji.li0.none.none.wav,je,fu,do,sil,chu,ga,ka,sil1,mo,gu,sil2,['-'],,,none,none,,,,li,4,,,,,,,,,,,,,,,3.0,2.0,catalan,0.0,castellano,0.0,inglés,4.0,4.0,4.0,yes,no,yes,guitarra,8,,,nada ,77.0,yes
141,2024-03-15_09h09.39.686,Unsyncopated_study3,s140,21.0,feminino,right,españa,catalán y castellano,Bachelor degree,no,no,B,2,conjunction_un,L3,unsyncopated,s2,r2,13,Online_conjL3_un//d.ji.li1.0.1110.wav,ji,ko,gu,sil,ñe,li,fu,sil1,sa,di,sil2,['catch'],[1.8459000000952983],[1.8459000000952983],1.11,no_beat,0.7359000000952982,0.7359000000952982,"[""space""]",li,4,,,,,,,,,,,,,,,3.0,2.0,catalan,0.0,castellano,0.0,inglés,4.0,4.0,4.0,yes,no,yes,guitarra,8,,,nada ,77.0,yes
142,2024-03-15_09h09.39.686,Unsyncopated_study3,s140,21.0,feminino,right,españa,catalán y castellano,Bachelor degree,no,no,B,2,conjunction_un,L3,unsyncopated,s1,r1,14,Online_conjL3_un//d.ji.li2.222.444.wav,chu,ji,li,sil,mo,je,ko,sil1,fu,ga,sil2,['catch'],[1.1142000002860186],[1.1142000002860186],0.444,no_beat,0.6702000002860187,0.6702000002860187,"[""space""]",li,4,,,,,,,,,,,,,,,3.0,2.0,catalan,0.0,castellano,0.0,inglés,4.0,4.0,4.0,yes,no,yes,guitarra,8,,,nada ,77.0,yes
143,2024-03-15_09h09.39.686,Unsyncopated_study3,s140,21.0,feminino,right,españa,catalán y castellano,Bachelor degree,no,no,B,2,conjunction_un,L3,unsyncopated,s2,r2,15,Online_conjL3_un//d.ji.li3.444.1110.wav,gu,je,ji,sil,ñe,li,fu,sil1,sa,do,sil2,['miss'],,,1.11,no_beat,,,,li,4,,,,,,,,,,,,,,,3.0,2.0,catalan,0.0,castellano,0.0,inglés,4.0,4.0,4.0,yes,no,yes,guitarra,8,,,nada ,77.0,yes
144,2024-03-15_09h09.39.686,Unsyncopated_study3,s140,21.0,feminino,right,españa,catalán y castellano,Bachelor degree,no,no,B,2,conjunction_un,L3,unsyncopated,s2,r1,16,Online_conjL3_un//c.gu.je2.none.none.wav,ga,ko,li,sil,chu,ka,le,sil1,mo,ji,sil2,['-'],,,none,none,,,,je,3,,,,,,,,,,,,,,,3.0,2.0,catalan,0.0,castellano,0.0,inglés,4.0,4.0,4.0,yes,no,yes,guitarra,8,,,nada ,77.0,yes
145,2024-03-15_09h09.39.686,Unsyncopated_study3,s140,21.0,feminino,right,españa,catalán y castellano,Bachelor degree,no,no,B,2,conjunction_un,L3,unsyncopated,s2,r1,17,Online_conjL3_un//c.gu.je0.1110.0.wav,je,ji,le,sil,chu,gu,ga,sil1,mo,li,sil2,['catch'],[0.8593000001906148],[0.8593000001906148],0.0,beat,0.8593000001906148,0.8593000001906148,"[""space""]",je,3,,,,,,,,,,,,,,,3.0,2.0,catalan,0.0,castellano,0.0,inglés,4.0,4.0,4.0,yes,no,yes,guitarra,8,,,nada ,77.0,yes
146,2024-03-15_09h09.39.686,Unsyncopated_study3,s140,21.0,feminino,right,españa,catalán y castellano,Bachelor degree,no,no,B,2,conjunction_un,L3,unsyncopated,s1,r2,18,Online_conjL3_un//c.gu.je1.444.1110.wav,ñe,fu,gu,sil,sa,je,ka,sil1,li,ji,sil2,['miss'],,,1.11,no_beat,,,,je,3,,,,,,,,,,,,,,,3.0,2.0,catalan,0.0,castellano,0.0,inglés,4.0,4.0,4.0,yes,no,yes,guitarra,8,,,nada ,77.0,yes
147,2024-03-15_09h09.39.686,Unsyncopated_study3,s140,21.0,feminino,right,españa,catalán y castellano,Bachelor degree,no,no,B,2,conjunction_un,L3,unsyncopated,s1,r1,19,Online_conjL3_un//c.gu.je3.1110.1332.wav,chu,li,le,sil,mo,gu,je,sil1,do,ka,sil2,['catch'],[2.055899999618532],[2.055899999618532],1.332,no_beat,0.723899999618532,0.723899999618532,"[""space""]",je,3,,,,,,,,,,,,,,,3.0,2.0,catalan,0.0,castellano,0.0,inglés,4.0,4.0,4.0,yes,no,yes,guitarra,8,,,nada ,77.0,yes
148,2024-03-15_09h09.39.686,Unsyncopated_study3,s140,21.0,feminino,right,españa,catalán y castellano,Bachelor degree,no,no,B,2,conjunction_un,L3,unsyncopated,s2,r2,20,Online_conjL3_un//c.gu.je28.none.none.wav,ga,do,le,sil,ñe,ji,ka,sil1,sa,ko,sil2,['false alarm'],[2.2289000000953365],[2.2289000000953365],none,none,,,"[""space""]",je,3,,,,,,,,,,,,,,,3.0,2.0,catalan,0.0,castellano,0.0,inglés,4.0,4.0,4.0,yes,no,yes,guitarra,8,,,nada ,77.0,yes
149,2024-03-15_09h09.39.686,Unsyncopated_study3,s140,21.0,feminino,right,españa,catalán y castellano,Bachelor degree,no,no,B,2,conjunction_un,L3,unsyncopated,s1,r1,21,Online_conjL3_un//c.gu.je29.none.none.wav,chu,di,fu,sil,mo,li,ji,sil1,do,ga,sil2,['-'],,,none,none,,,,je,3,,,,,,,,,,,,,,,3.0,2.0,catalan,0.0,castellano,0.0,inglés,4.0,4.0,4.0,yes,no,yes,guitarra,8,,,nada ,77.0,yes
150,2024-03-15_09h09.39.686,Unsyncopated_study3,s140,21.0,feminino,right,españa,catalán y castellano,Bachelor degree,no,no,B,2,conjunction_un,L3,unsyncopated,s1,r1,22,Online_conjL3_un//c.gu.je31.none.none.wav,chu,ga,di,sil,mo,ji,li,sil1,ka,le,sil2,['-'],,,none,none,,,,je,3,,,,,,,,,,,,,,,3.0,2.0,catalan,0.0,castellano,0.0,inglés,4.0,4.0,4.0,yes,no,yes,guitarra,8,,,nada ,77.0,yes
151,2024-03-15_09h09.39.686,Unsyncopated_study3,s140,21.0,feminino,right,españa,catalán y castellano,Bachelor degree,no,no,B,2,conjunction_un,L3,unsyncopated,s1,r2,23,Online_conjL3_un//c.gu.je30.none.none.wav,ñe,ka,ko,sil,sa,ga,do,sil1,di,ji,sil2,['-'],,,none,none,,,,je,3,,,,,,,,,,,,,,,3.0,2.0,catalan,0.0,castellano,0.0,inglés,4.0,4.0,4.0,yes,no,yes,guitarra,8,,,nada ,77.0,yes
152,2024-03-15_09h09.39.686,Unsyncopated_study3,s140,21.0,feminino,right,españa,catalán y castellano,Bachelor degree,no,no,B,2,conjunction_un,L3,unsyncopated,s2,r1,24,Online_conjL3_un//d.ji.li10.222.444.wav,le,ji,li,sil,chu,fu,do,sil1,mo,gu,sil2,['catch'],[0.9692999997137122],[0.9692999997137122],0.444,no_beat,0.5252999997137122,0.5252999997137122,"[""space""]",li,4,,,,,,,,,,,,,,,3.0,2.0,catalan,0.0,castellano,0.0,inglés,4.0,4.0,4.0,yes,no,yes,guitarra,8,,,nada ,77.0,yes
153,2024-03-15_09h09.39.686,Unsyncopated_study3,s140,21.0,feminino,right,españa,catalán y castellano,Bachelor degree,no,no,B,2,conjunction_un,L3,unsyncopated,s2,r2,25,Online_conjL3_un//d.ji.li9.1332.222.wav,fu,li,je,sil,ñe,ko,ji,sil1,sa,do,sil2,['catch'],[0.9747999997139232],[0.9747999997139232],0.222,no_beat,0.7527999997139232,0.7527999997139232,"[""space""]",li,4,,,,,,,,,,,,,,,3.0,2.0,catalan,0.0,castellano,0.0,inglés,4.0,4.0,4.0,yes,no,yes,guitarra,8,,,nada ,77.0,yes
154,2024-03-15_09h09.39.686,Unsyncopated_study3,s140,21.0,feminino,right,españa,catalán y castellano,Bachelor degree,no,no,B,2,conjunction_un,L3,unsyncopated,s1,r2,26,Online_conjL3_un//d.ji.li11.1776.222.wav,ñe,li,ga,sil,sa,je,le,sil1,ji,ko,sil2,['miss'],,,0.222,no_beat,,,,li,4,,,,,,,,,,,,,,,3.0,2.0,catalan,0.0,castellano,0.0,inglés,4.0,4.0,4.0,yes,no,yes,guitarra,8,,,nada ,77.0,yes
155,2024-03-15_09h09.39.686,Unsyncopated_study3,s140,21.0,feminino,right,españa,catalán y castellano,Bachelor degree,no,no,B,2,conjunction_un,L3,unsyncopated,s2,r2,27,Online_conjL3_un//d.ji.li8.none.none.wav,fu,ko,le,sil,ñe,do,gu,sil1,sa,di,sil2,['-'],,,none,none,,,,li,4,,,,,,,,,,,,,,,3.0,2.0,catalan,0.0,castellano,0.0,inglés,4.0,4.0,4.0,yes,no,yes,guitarra,8,,,nada ,77.0,yes
156,2024-03-15_09h09.39.686,Unsyncopated_study3,s140,21.0,feminino,right,españa,catalán y castellano,Bachelor degree,no,no,B,2,conjunction_un,L3,unsyncopated,s2,r2,28,Online_conjL3_un//b.ñe.sa30.888.1776.wav,le,ji,di,sil,ñe,ko,fu,sil1,sa,li,sil2,['catch'],[2.337500000000091],[2.337500000000091],1.776,beat,0.5615000000000909,0.5615000000000909,"[""space""]",sa,2,,,,,,,,,,,,,,,3.0,2.0,catalan,0.0,castellano,0.0,inglés,4.0,4.0,4.0,yes,no,yes,guitarra,8,,,nada ,77.0,yes
157,2024-03-15_09h09.39.686,Unsyncopated_study3,s140,21.0,feminino,right,españa,catalán y castellano,Bachelor degree,no,no,B,2,conjunction_un,L3,unsyncopated,s2,r1,29,Online_conjL3_un//b.ñe.sa31.none.none.wav,li,ji,je,sil,chu,fu,le,sil1,mo,di,sil2,['-'],,,none,none,,,,sa,2,,,,,,,,,,,,,,,3.0,2.0,catalan,0.0,castellano,0.0,inglés,4.0,4.0,4.0,yes,no,yes,guitarra,8,,,nada ,77.0,yes
158,2024-03-15_09h09.39.686,Unsyncopated_study3,s140,21.0,feminino,right,españa,catalán y castellano,Bachelor degree,no,no,B,2,conjunction_un,L3,unsyncopated,s1,r2,30,Online_conjL3_un//b.ñe.sa29.0.888.wav,ñe,ka,di,sil,sa,ji,je,sil1,ga,fu,sil2,['catch'],[1.4770999999047945],[1.4770999999047945],0.888,beat,0.5890999999047944,0.5890999999047944,"[""space""]",sa,2,,,,,,,,,,,,,,,3.0,2.0,catalan,0.0,castellano,0.0,inglés,4.0,4.0,4.0,yes,no,yes,guitarra,8,,,nada ,77.0,yes
159,2024-03-15_09h09.39.686,Unsyncopated_study3,s140,21.0,feminino,right,españa,catalán y castellano,Bachelor degree,no,no,B,2,conjunction_un,L3,unsyncopated,s1,r1,31,Online_conjL3_un//b.ñe.sa28.none.none.wav,chu,je,ko,sil,mo,fu,di,sil1,li,do,sil2,['-'],,,none,none,,,,sa,2,,,,,,,,,,,,,,,3.0,2.0,catalan,0.0,castellano,0.0,inglés,4.0,4.0,4.0,yes,no,yes,guitarra,8,,,nada ,77.0,yes
160,2024-03-15_09h09.39.686,Unsyncopated_study3,s140,21.0,feminino,right,españa,catalán y castellano,Bachelor degree,no,no,B,2,conjunction_un,L3,unsyncopated,s1,r1,32,Online_conjL3_un//d.ji.li26.1776.1110.wav,chu,do,ga,sil,mo,li,je,sil1,ji,fu,sil2,['catch'],[1.7064000000953001],[1.7064000000953001],1.11,no_beat,0.5964000000953,0.5964000000953,"[""space""]",li,4,,,,,,,,,,,,,,,3.0,2.0,catalan,0.0,castellano,0.0,inglés,4.0,4.0,4.0,yes,no,yes,guitarra,8,,,nada ,77.0,yes
161,2024-03-15_09h09.39.686,Unsyncopated_study3,s140,21.0,feminino,right,españa,catalán y castellano,Bachelor degree,no,no,B,2,conjunction_un,L3,unsyncopated,s2,r1,33,Online_conjL3_un//d.ji.li27.none.none.wav,ga,le,ko,sil,chu,gu,ka,sil1,mo,fu,sil2,['-'],,,none,none,,,,li,4,,,,,,,,,,,,,,,3.0,2.0,catalan,0.0,castellano,0.0,inglés,4.0,4.0,4.0,yes,no,yes,guitarra,8,,,nada ,77.0,yes
162,2024-03-15_09h09.39.686,Unsyncopated_study3,s140,21.0,feminino,right,españa,catalán y castellano,Bachelor degree,no,no,B,2,conjunction_un,L3,unsyncopated,s2,r1,34,Online_conjL3_un//d.ji.li25.1332.444.wav,di,je,li,sil,chu,le,ji,sil1,mo,ko,sil2,"['catch', 'false alarm']","[1.0284000000951892, 2.0225999999045143]",[1.0284000000951892],0.444,no_beat,0.5844000000951892,0.5844000000951892,"[""space"",""space""]",li,4,,,,,,,,,,,,,,,3.0,2.0,catalan,0.0,castellano,0.0,inglés,4.0,4.0,4.0,yes,no,yes,guitarra,8,,,nada ,77.0,yes
163,2024-03-15_09h09.39.686,Unsyncopated_study3,s140,21.0,feminino,right,españa,catalán y castellano,Bachelor degree,no,no,B,2,conjunction_un,L3,unsyncopated,s1,r1,35,Online_conjL3_un//d.ji.li24.none.none.wav,chu,le,do,sil,mo,fu,ko,sil1,di,ga,sil2,['-'],,,none,none,,,,li,4,,,,,,,,,,,,,,,3.0,2.0,catalan,0.0,castellano,0.0,inglés,4.0,4.0,4.0,yes,no,yes,guitarra,8,,,nada ,77.0,yes
164,2024-03-15_09h09.39.686,Unsyncopated_study3,s140,21.0,feminino,right,españa,catalán y castellano,Bachelor degree,no,no,B,2,conjunction_un,L3,unsyncopated,s1,r2,36,Online_conjL3_un//a.chu.mo16.none.none.wav,ñe,ga,je,sil,sa,li,ko,sil1,fu,gu,sil2,['-'],,,none,none,,,,chu,1,,,,,,,,,,,,,,,3.0,2.0,catalan,0.0,castellano,0.0,inglés,4.0,4.0,4.0,yes,no,yes,guitarra,8,,,nada ,77.0,yes
165,2024-03-15_09h09.39.686,Unsyncopated_study3,s140,21.0,feminino,right,españa,catalán y castellano,Bachelor degree,no,no,B,2,conjunction_un,L3,unsyncopated,s2,r1,37,Online_conjL3_un//a.chu.mo18.888.1776.wav,do,fu,ka,sil,chu,ko,ga,sil1,mo,ji,sil2,['catch'],[1.61200000000008],[1.61200000000008],0.888,beat,0.72400000000008,0.72400000000008,"[""space""]",chu,1,,,,,,,,,,,,,,,3.0,2.0,catalan,0.0,castellano,0.0,inglés,4.0,4.0,4.0,yes,no,yes,guitarra,8,,,nada ,77.0,yes
166,2024-03-15_09h09.39.686,Unsyncopated_study3,s140,21.0,feminino,right,españa,catalán y castellano,Bachelor degree,no,no,B,2,conjunction_un,L3,unsyncopated,s1,r2,38,Online_conjL3_un//a.chu.mo19.none.none.wav,ñe,ji,je,sil,sa,fu,di,sil1,li,ko,sil2,['-'],,,none,none,,,,chu,1,,,,,,,,,,,,,,,3.0,2.0,catalan,0.0,castellano,0.0,inglés,4.0,4.0,4.0,yes,no,yes,guitarra,8,,,nada ,77.0,yes
167,2024-03-15_09h09.39.686,Unsyncopated_study3,s140,21.0,feminino,right,españa,catalán y castellano,Bachelor degree,no,no,B,2,conjunction_un,L3,unsyncopated,s1,r2,39,Online_conjL3_un//a.chu.mo17.none.none.wav,ñe,li,do,sil,sa,je,gu,sil1,fu,ko,sil2,['-'],,,none,none,,,,chu,1,,,,,,,,,,,,,,,3.0,2.0,catalan,0.0,castellano,0.0,inglés,4.0,4.0,4.0,yes,no,yes,guitarra,8,,,nada ,77.0,yes
168,2024-03-15_09h09.39.686,Unsyncopated_study3,s140,21.0,feminino,right,españa,catalán y castellano,Bachelor degree,no,no,B,2,conjunction_un,L3,unsyncopated,s2,r1,40,Online_conjL3_un//b.ñe.sa26.none.none.wav,do,je,gu,sil,chu,ga,ko,sil1,mo,ka,sil2,['-'],,,none,none,,,,sa,2,,,,,,,,,,,,,,,3.0,2.0,catalan,0.0,castellano,0.0,inglés,4.0,4.0,4.0,yes,no,yes,guitarra,8,,,nada ,77.0,yes
169,2024-03-15_09h09.39.686,Unsyncopated_study3,s140,21.0,feminino,right,españa,catalán y castellano,Bachelor degree,no,no,B,2,conjunction_un,L3,unsyncopated,s1,r2,41,Online_conjL3_un//b.ñe.sa24.0.888.wav,ñe,fu,le,sil,sa,ko,ji,sil1,ka,do,sil2,['catch'],[1.4902999997138977],[1.4902999997138977],0.888,beat,0.6022999997138977,0.6022999997138977,"[""space""]",sa,2,,,,,,,,,,,,,,,3.0,2.0,catalan,0.0,castellano,0.0,inglés,4.0,4.0,4.0,yes,no,yes,guitarra,8,,,nada ,77.0,yes
170,2024-03-15_09h09.39.686,Unsyncopated_study3,s140,21.0,feminino,right,españa,catalán y castellano,Bachelor degree,no,no,B,2,conjunction_un,L3,unsyncopated,s2,r2,42,Online_conjL3_un//b.ñe.sa25.888.1776.wav,le,ji,gu,sil,ñe,di,fu,sil1,sa,ko,sil2,['catch'],[2.358599999904527],[2.358599999904527],1.776,beat,0.582599999904527,0.582599999904527,"[""space""]",sa,2,,,,,,,,,,,,,,,3.0,2.0,catalan,0.0,castellano,0.0,inglés,4.0,4.0,4.0,yes,no,yes,guitarra,8,,,nada ,77.0,yes
171,2024-03-15_09h09.39.686,Unsyncopated_study3,s140,21.0,feminino,right,españa,catalán y castellano,Bachelor degree,no,no,B,2,conjunction_un,L3,unsyncopated,s2,r2,43,Online_conjL3_un//b.ñe.sa27.888.1776.wav,ji,do,ka,sil,ñe,je,ko,sil1,sa,gu,sil2,['catch'],[2.252699999809238],[2.252699999809238],1.776,beat,0.4766999998092378,0.4766999998092378,"[""space""]",sa,2,,,,,,,,,,,,,,,3.0,2.0,catalan,0.0,castellano,0.0,inglés,4.0,4.0,4.0,yes,no,yes,guitarra,8,,,nada ,77.0,yes
172,2024-03-15_09h09.39.686,Unsyncopated_study3,s140,21.0,feminino,right,españa,catalán y castellano,Bachelor degree,no,no,B,2,conjunction_un,L3,unsyncopated,s2,r1,44,Online_conjL3_un//c.gu.je17.0.1110.wav,gu,ka,ko,sil,chu,je,ji,sil1,mo,di,sil2,['catch'],[1.8074999999998909],[1.8074999999998909],1.11,no_beat,0.6974999999998908,0.6974999999998908,"[""space""]",je,3,,,,,,,,,,,,,,,3.0,2.0,catalan,0.0,castellano,0.0,inglés,4.0,4.0,4.0,yes,no,yes,guitarra,8,,,nada ,77.0,yes
173,2024-03-15_09h09.39.686,Unsyncopated_study3,s140,21.0,feminino,right,españa,catalán y castellano,Bachelor degree,no,no,B,2,conjunction_un,L3,unsyncopated,s1,r1,45,Online_conjL3_un//c.gu.je18.1110.222.wav,chu,je,ga,sil,mo,gu,di,sil1,ko,li,sil2,['catch'],[0.9260999999046362],[0.9260999999046362],0.222,no_beat,0.7040999999046362,0.7040999999046362,"[""space""]",je,3,,,,,,,,,,,,,,,3.0,2.0,catalan,0.0,castellano,0.0,inglés,4.0,4.0,4.0,yes,no,yes,guitarra,8,,,nada ,77.0,yes
174,2024-03-15_09h09.39.686,Unsyncopated_study3,s140,21.0,feminino,right,españa,catalán y castellano,Bachelor degree,no,no,B,2,conjunction_un,L3,unsyncopated,s1,r2,46,Online_conjL3_un//c.gu.je16.222.1332.wav,ñe,gu,fu,sil,sa,do,je,sil1,li,le,sil2,['catch'],[2.640699999809158],[2.640699999809158],1.332,no_beat,,1.3086999998091575,"[""space""]",je,3,,,,,,,,,,,,,,,3.0,2.0,catalan,0.0,castellano,0.0,inglés,4.0,4.0,4.0,yes,no,yes,guitarra,8,,,nada ,77.0,yes
175,2024-03-15_09h09.39.686,Unsyncopated_study3,s140,21.0,feminino,right,españa,catalán y castellano,Bachelor degree,no,no,B,2,conjunction_un,L3,unsyncopated,s2,r2,47,Online_conjL3_un//c.gu.je19.none.none.wav,le,li,do,sil,ñe,fu,di,sil1,sa,ko,sil2,['-'],,,none,none,,,,je,3,,,,,,,,,,,,,,,3.0,2.0,catalan,0.0,castellano,0.0,inglés,4.0,4.0,4.0,yes,no,yes,guitarra,8,,,nada ,77.0,yes
176,2024-03-15_09h09.39.686,Unsyncopated_study3,s140,21.0,feminino,right,españa,catalán y castellano,Bachelor degree,no,no,B,2,conjunction_un,L3,unsyncopated,s1,r2,48,Online_conjL3_un//a.chu.mo9.none.none.wav,ñe,di,gu,sil,sa,ka,ga,sil1,je,do,sil2,['-'],,,none,none,,,,chu,1,,,,,,,,,,,,,,,3.0,2.0,catalan,0.0,castellano,0.0,inglés,4.0,4.0,4.0,yes,no,yes,guitarra,8,,,nada ,77.0,yes
177,2024-03-15_09h09.39.686,Unsyncopated_study3,s140,21.0,feminino,right,españa,catalán y castellano,Bachelor degree,no,no,B,2,conjunction_un,L3,unsyncopated,s1,r2,49,Online_conjL3_un//a.chu.mo11.none.none.wav,ñe,fu,ko,sil,sa,li,ka,sil1,le,ji,sil2,['-'],,,none,none,,,,chu,1,,,,,,,,,,,,,,,3.0,2.0,catalan,0.0,castellano,0.0,inglés,4.0,4.0,4.0,yes,no,yes,guitarra,8,,,nada ,77.0,yes
178,2024-03-15_09h09.39.686,Unsyncopated_study3,s140,21.0,feminino,right,españa,catalán y castellano,Bachelor degree,no,no,B,2,conjunction_un,L3,unsyncopated,s1,r1,50,Online_conjL3_un//a.chu.mo8.0.888.wav,chu,gu,ji,sil,mo,di,le,sil1,li,fu,sil2,['catch'],[0.7229999999999563],[0.7229999999999563],0.0,beat,0.7229999999999563,0.7229999999999563,"[""space""]",chu,1,,,,,,,,,,,,,,,3.0,2.0,catalan,0.0,castellano,0.0,inglés,4.0,4.0,4.0,yes,no,yes,guitarra,8,,,nada ,77.0,yes
179,2024-03-15_09h09.39.686,Unsyncopated_study3,s140,21.0,feminino,right,españa,catalán y castellano,Bachelor degree,no,no,B,2,conjunction_un,L3,unsyncopated,s1,r1,51,Online_conjL3_un//a.chu.mo10.0.888.wav,chu,do,fu,sil,mo,le,ga,sil1,di,ji,sil2,['catch'],[0.6973000001908076],[0.6973000001908076],0.0,beat,0.6973000001908076,0.6973000001908076,"[""space""]",chu,1,,,,,,,,,,,,,,,3.0,2.0,catalan,0.0,castellano,0.0,inglés,4.0,4.0,4.0,yes,no,yes,guitarra,8,,,nada ,77.0,yes
180,2024-03-15_09h09.39.686,Unsyncopated_study3,s140,21.0,feminino,right,españa,catalán y castellano,Bachelor degree,no,no,B,2,conjunction_un,L3,unsyncopated,s2,r2,52,Online_conjL3_un//a.chu.mo5.none.none.wav,fu,di,ga,sil,ñe,gu,do,sil1,sa,li,sil2,['-'],,,none,none,,,,chu,1,,,,,,,,,,,,,,,3.0,2.0,catalan,0.0,castellano,0.0,inglés,4.0,4.0,4.0,yes,no,yes,guitarra,8,,,nada ,77.0,yes
181,2024-03-15_09h09.39.686,Unsyncopated_study3,s140,21.0,feminino,right,españa,catalán y castellano,Bachelor degree,no,no,B,2,conjunction_un,L3,unsyncopated,s1,r2,53,Online_conjL3_un//a.chu.mo4.none.none.wav,ñe,je,do,sil,sa,le,fu,sil1,li,ko,sil2,['-'],,,none,none,,,,chu,1,,,,,,,,,,,,,,,3.0,2.0,catalan,0.0,castellano,0.0,inglés,4.0,4.0,4.0,yes,no,yes,guitarra,8,,,nada ,77.0,yes
182,2024-03-15_09h09.39.686,Unsyncopated_study3,s140,21.0,feminino,right,españa,catalán y castellano,Bachelor degree,no,no,B,2,conjunction_un,L3,unsyncopated,s2,r1,54,Online_conjL3_un//a.chu.mo7.888.1776.wav,ka,ji,ko,sil,chu,ga,le,sil1,mo,gu,sil2,['catch'],[1.4101999998092651],[1.4101999998092651],0.888,beat,0.5221999998092651,0.5221999998092651,"[""space""]",chu,1,,,,,,,,,,,,,,,3.0,2.0,catalan,0.0,castellano,0.0,inglés,4.0,4.0,4.0,yes,no,yes,guitarra,8,,,nada ,77.0,yes
183,2024-03-15_09h09.39.686,Unsyncopated_study3,s140,21.0,feminino,right,españa,catalán y castellano,Bachelor degree,no,no,B,2,conjunction_un,L3,unsyncopated,s1,r1,55,Online_conjL3_un//a.chu.mo6.0.888.wav,chu,fu,do,sil,mo,ga,li,sil1,di,gu,sil2,['catch'],[0.8098000001907621],[0.8098000001907621],0.0,beat,0.8098000001907621,0.8098000001907621,"[""space""]",chu,1,,,,,,,,,,,,,,,3.0,2.0,catalan,0.0,castellano,0.0,inglés,4.0,4.0,4.0,yes,no,yes,guitarra,8,,,nada ,77.0,yes
184,2024-03-15_09h09.39.686,Unsyncopated_study3,s140,21.0,feminino,right,españa,catalán y castellano,Bachelor degree,no,no,B,2,conjunction_un,L3,unsyncopated,s1,r1,56,Online_conjL3_un//c.gu.je22.222.1332.wav,chu,gu,di,sil,mo,ga,je,sil1,do,le,sil2,['catch'],[2.0599000000954675],[2.0599000000954675],1.332,no_beat,0.7279000000954674,0.7279000000954674,"[""space""]",je,3,,,,,,,,,,,,,,,3.0,2.0,catalan,0.0,castellano,0.0,inglés,4.0,4.0,4.0,yes,no,yes,guitarra,8,,,nada ,77.0,yes
185,2024-03-15_09h09.39.686,Unsyncopated_study3,s140,21.0,feminino,right,españa,catalán y castellano,Bachelor degree,no,no,B,2,conjunction_un,L3,unsyncopated,s1,r1,57,Online_conjL3_un//c.gu.je21.1110.1332.wav,chu,do,fu,sil,mo,gu,je,sil1,di,ga,sil2,['catch'],[2.0063000001907767],[2.0063000001907767],1.332,no_beat,0.6743000001907766,0.6743000001907766,"[""space""]",je,3,,,,,,,,,,,,,,,3.0,2.0,catalan,0.0,castellano,0.0,inglés,4.0,4.0,4.0,yes,no,yes,guitarra,8,,,nada ,77.0,yes
186,2024-03-15_09h09.39.686,Unsyncopated_study3,s140,21.0,feminino,right,españa,catalán y castellano,Bachelor degree,no,no,B,2,conjunction_un,L3,unsyncopated,s2,r2,58,Online_conjL3_un//c.gu.je23.1332.444.wav,fu,ji,je,sil,ñe,ka,gu,sil1,sa,li,sil2,['catch'],[1.211300000190704],[1.211300000190704],0.444,no_beat,0.767300000190704,0.767300000190704,"[""space""]",je,3,,,,,,,,,,,,,,,3.0,2.0,catalan,0.0,castellano,0.0,inglés,4.0,4.0,4.0,yes,no,yes,guitarra,8,,,nada ,77.0,yes
187,2024-03-15_09h09.39.686,Unsyncopated_study3,s140,21.0,feminino,right,españa,catalán y castellano,Bachelor degree,no,no,B,2,conjunction_un,L3,unsyncopated,s2,r1,59,Online_conjL3_un//c.gu.je20.none.none.wav,li,fu,ji,sil,chu,ga,di,sil1,mo,ko,sil2,['-'],,,none,none,,,,je,3,,,,,,,,,,,,,,,3.0,2.0,catalan,0.0,castellano,0.0,inglés,4.0,4.0,4.0,yes,no,yes,guitarra,8,,,nada ,77.0,yes
188,2024-03-15_09h09.39.686,Unsyncopated_study3,s140,21.0,feminino,right,españa,catalán y castellano,Bachelor degree,no,no,B,2,conjunction_un,L3,unsyncopated,s2,r2,60,Online_conjL3_un//a.chu.mo24.none.none.wav,je,ka,ga,sil,ñe,do,fu,sil1,sa,gu,sil2,['-'],,,none,none,,,,chu,1,,,,,,,,,,,,,,,3.0,2.0,catalan,0.0,castellano,0.0,inglés,4.0,4.0,4.0,yes,no,yes,guitarra,8,,,nada ,77.0,yes
189,2024-03-15_09h09.39.686,Unsyncopated_study3,s140,21.0,feminino,right,españa,catalán y castellano,Bachelor degree,no,no,B,2,conjunction_un,L3,unsyncopated,s1,r1,61,Online_conjL3_un//a.chu.mo25.0.888.wav,chu,li,ka,sil,mo,ga,ko,sil1,je,ji,sil2,['catch'],[0.7215000000001055],[0.7215000000001055],0.0,beat,0.7215000000001055,0.7215000000001055,"[""space""]",chu,1,,,,,,,,,,,,,,,3.0,2.0,catalan,0.0,castellano,0.0,inglés,4.0,4.0,4.0,yes,no,yes,guitarra,8,,,nada ,77.0,yes
190,2024-03-15_09h09.39.686,Unsyncopated_study3,s140,21.0,feminino,right,españa,catalán y castellano,Bachelor degree,no,no,B,2,conjunction_un,L3,unsyncopated,s2,r1,62,Online_conjL3_un//a.chu.mo27.888.1776.wav,ji,le,ga,sil,chu,je,ko,sil1,mo,li,sil2,['catch'],[1.7439000000954366],[1.7439000000954366],0.888,beat,0.8559000000954365,0.8559000000954365,"[""space""]",chu,1,,,,,,,,,,,,,,,3.0,2.0,catalan,0.0,castellano,0.0,inglés,4.0,4.0,4.0,yes,no,yes,guitarra,8,,,nada ,77.0,yes
191,2024-03-15_09h09.39.686,Unsyncopated_study3,s140,21.0,feminino,right,españa,catalán y castellano,Bachelor degree,no,no,B,2,conjunction_un,L3,unsyncopated,s2,r1,63,Online_conjL3_un//a.chu.mo26.888.1776.wav,le,ko,fu,sil,chu,di,li,sil1,mo,ga,sil2,['catch'],[1.6890000000000782],[1.6890000000000782],0.888,beat,0.8010000000000782,0.8010000000000782,"[""space""]",chu,1,,,,,,,,,,,,,,,3.0,2.0,catalan,0.0,castellano,0.0,inglés,4.0,4.0,4.0,yes,no,yes,guitarra,8,,,nada ,77.0,yes
192,2024-03-15_09h09.39.686,Unsyncopated_study3,s140,21.0,feminino,right,españa,catalán y castellano,Bachelor degree,no,no,B,2,conjunction_un,L3,unsyncopated,s2,r1,64,Online_conjL3_un//a.chu.mo31.888.1776.wav,fu,je,ji,sil,chu,le,ko,sil1,mo,gu,sil2,['catch'],[1.571900000095411],[1.571900000095411],0.888,beat,0.6839000000954111,0.6839000000954111,"[""space""]",chu,1,,,,,,,,,,,,,,,3.0,2.0,catalan,0.0,castellano,0.0,inglés,4.0,4.0,4.0,yes,no,yes,guitarra,8,,,nada ,77.0,yes
193,2024-03-15_09h09.39.686,Unsyncopated_study3,s140,21.0,feminino,right,españa,catalán y castellano,Bachelor degree,no,no,B,2,conjunction_un,L3,unsyncopated,s2,r2,65,Online_conjL3_un//a.chu.mo30.none.none.wav,ji,ga,ka,sil,ñe,fu,li,sil1,sa,do,sil2,['-'],,,none,none,,,,chu,1,,,,,,,,,,,,,,,3.0,2.0,catalan,0.0,castellano,0.0,inglés,4.0,4.0,4.0,yes,no,yes,guitarra,8,,,nada ,77.0,yes
194,2024-03-15_09h09.39.686,Unsyncopated_study3,s140,21.0,feminino,right,españa,catalán y castellano,Bachelor degree,no,no,B,2,conjunction_un,L3,unsyncopated,s1,r1,66,Online_conjL3_un//a.chu.mo28.0.888.wav,chu,fu,di,sil,mo,do,li,sil1,ji,ka,sil2,['catch'],[0.6722999997139141],[0.6722999997139141],0.0,beat,0.6722999997139141,0.6722999997139141,"[""space""]",chu,1,,,,,,,,,,,,,,,3.0,2.0,catalan,0.0,castellano,0.0,inglés,4.0,4.0,4.0,yes,no,yes,guitarra,8,,,nada ,77.0,yes
195,2024-03-15_09h09.39.686,Unsyncopated_study3,s140,21.0,feminino,right,españa,catalán y castellano,Bachelor degree,no,no,B,2,conjunction_un,L3,unsyncopated,s2,r1,67,Online_conjL3_un//a.chu.mo29.888.1776.wav,li,ji,ko,sil,chu,gu,do,sil1,mo,je,sil2,['catch'],[1.6643000001906785],[1.6643000001906785],0.888,beat,0.7763000001906785,0.7763000001906785,"[""space""]",chu,1,,,,,,,,,,,,,,,3.0,2.0,catalan,0.0,castellano,0.0,inglés,4.0,4.0,4.0,yes,no,yes,guitarra,8,,,nada ,77.0,yes
196,2024-03-15_09h09.39.686,Unsyncopated_study3,s140,21.0,feminino,right,españa,catalán y castellano,Bachelor degree,no,no,B,2,conjunction_un,L3,unsyncopated,s1,r2,68,Online_conjL3_un//c.gu.je14.444.1332.wav,ñe,ka,gu,sil,sa,li,je,sil1,le,di,sil2,['catch'],[1.981499999999869],[1.981499999999869],1.332,no_beat,0.649499999999869,0.649499999999869,"[""space""]",je,3,,,,,,,,,,,,,,,3.0,2.0,catalan,0.0,castellano,0.0,inglés,4.0,4.0,4.0,yes,no,yes,guitarra,8,,,nada ,77.0,yes
197,2024-03-15_09h09.39.686,Unsyncopated_study3,s140,21.0,feminino,right,españa,catalán y castellano,Bachelor degree,no,no,B,2,conjunction_un,L3,unsyncopated,s2,r2,69,Online_conjL3_un//c.gu.je15.none.none.wav,fu,ko,li,sil,ñe,ka,le,sil1,sa,di,sil2,['-'],,,none,none,,,,je,3,,,,,,,,,,,,,,,3.0,2.0,catalan,0.0,castellano,0.0,inglés,4.0,4.0,4.0,yes,no,yes,guitarra,8,,,nada ,77.0,yes
198,2024-03-15_09h09.39.686,Unsyncopated_study3,s140,21.0,feminino,right,españa,catalán y castellano,Bachelor degree,no,no,B,2,conjunction_un,L3,unsyncopated,s1,r1,70,Online_conjL3_un//c.gu.je12.none.none.wav,chu,ga,le,sil,mo,do,li,sil1,ji,fu,sil2,['-'],,,none,none,,,,je,3,,,,,,,,,,,,,,,3.0,2.0,catalan,0.0,castellano,0.0,inglés,4.0,4.0,4.0,yes,no,yes,guitarra,8,,,nada ,77.0,yes
199,2024-03-15_09h09.39.686,Unsyncopated_study3,s140,21.0,feminino,right,españa,catalán y castellano,Bachelor degree,no,no,B,2,conjunction_un,L3,unsyncopated,s1,r1,71,Online_conjL3_un//c.gu.je13.none.none.wav,chu,di,ko,sil,mo,ji,le,sil1,fu,li,sil2,['false alarm'],[1.792099999904849],[1.792099999904849],none,none,,,"[""space""]",je,3,,,,,,,,,,,,,,,3.0,2.0,catalan,0.0,castellano,0.0,inglés,4.0,4.0,4.0,yes,no,yes,guitarra,8,,,nada ,77.0,yes
200,2024-03-15_09h09.39.686,Unsyncopated_study3,s140,21.0,feminino,right,españa,catalán y castellano,Bachelor degree,no,no,B,2,conjunction_un,L3,unsyncopated,s1,r1,72,Online_conjL3_un//d.ji.li14.1332.444.wav,chu,ko,li,sil,mo,do,ji,sil1,di,gu,sil2,['catch'],[1.1289000000954275],[1.1289000000954275],0.444,no_beat,0.6849000000954275,0.6849000000954275,"[""space""]",li,4,,,,,,,,,,,,,,,3.0,2.0,catalan,0.0,castellano,0.0,inglés,4.0,4.0,4.0,yes,no,yes,guitarra,8,,,nada ,77.0,yes
201,2024-03-15_09h09.39.686,Unsyncopated_study3,s140,21.0,feminino,right,españa,catalán y castellano,Bachelor degree,no,no,B,2,conjunction_un,L3,unsyncopated,s1,r1,73,Online_conjL3_un//d.ji.li15.none.none.wav,chu,fu,ga,sil,mo,je,gu,sil1,do,di,sil2,['-'],,,none,none,,,,li,4,,,,,,,,,,,,,,,3.0,2.0,catalan,0.0,castellano,0.0,inglés,4.0,4.0,4.0,yes,no,yes,guitarra,8,,,nada ,77.0,yes
202,2024-03-15_09h09.39.686,Unsyncopated_study3,s140,21.0,feminino,right,españa,catalán y castellano,Bachelor degree,no,no,B,2,conjunction_un,L3,unsyncopated,s1,r2,74,Online_conjL3_un//d.ji.li12.1332.222.wav,ñe,li,le,sil,sa,je,ji,sil1,di,ga,sil2,['catch'],[0.9248000001907712],[0.9248000001907712],0.222,no_beat,0.7028000001907713,0.7028000001907713,"[""space""]",li,4,,,,,,,,,,,,,,,3.0,2.0,catalan,0.0,castellano,0.0,inglés,4.0,4.0,4.0,yes,no,yes,guitarra,8,,,nada ,77.0,yes
203,2024-03-15_09h09.39.686,Unsyncopated_study3,s140,21.0,feminino,right,españa,catalán y castellano,Bachelor degree,no,no,B,2,conjunction_un,L3,unsyncopated,s2,r1,75,Online_conjL3_un//d.ji.li13.0.1110.wav,ji,ko,gu,sil,chu,li,je,sil1,mo,ka,sil2,['catch'],[1.9049000000954948],[1.9049000000954948],1.11,no_beat,0.7949000000954947,0.7949000000954947,"[""space""]",li,4,,,,,,,,,,,,,,,3.0,2.0,catalan,0.0,castellano,0.0,inglés,4.0,4.0,4.0,yes,no,yes,guitarra,8,,,nada ,77.0,yes
204,2024-03-15_09h09.39.686,Unsyncopated_study3,s140,21.0,feminino,right,españa,catalán y castellano,Bachelor degree,no,no,B,2,conjunction_un,L3,unsyncopated,s2,r2,76,Online_conjL3_un//d.ji.li4.none.none.wav,je,ga,di,sil,ñe,ko,do,sil1,sa,le,sil2,['-'],,,none,none,,,,li,4,,,,,,,,,,,,,,,3.0,2.0,catalan,0.0,castellano,0.0,inglés,4.0,4.0,4.0,yes,no,yes,guitarra,8,,,nada ,77.0,yes
205,2024-03-15_09h09.39.686,Unsyncopated_study3,s140,21.0,feminino,right,españa,catalán y castellano,Bachelor degree,no,no,B,2,conjunction_un,L3,unsyncopated,s1,r2,77,Online_conjL3_un//d.ji.li5.none.none.wav,ñe,fu,je,sil,sa,gu,le,sil1,ga,di,sil2,['-'],,,none,none,,,,li,4,,,,,,,,,,,,,,,3.0,2.0,catalan,0.0,castellano,0.0,inglés,4.0,4.0,4.0,yes,no,yes,guitarra,8,,,nada ,77.0,yes
206,2024-03-15_09h09.39.686,Unsyncopated_study3,s140,21.0,feminino,right,españa,catalán y castellano,Bachelor degree,no,no,B,2,conjunction_un,L3,unsyncopated,s1,r2,78,Online_conjL3_un//d.ji.li6.none.none.wav,ñe,do,di,sil,sa,je,ga,sil1,gu,ka,sil2,['-'],,,none,none,,,,li,4,,,,,,,,,,,,,,,3.0,2.0,catalan,0.0,castellano,0.0,inglés,4.0,4.0,4.0,yes,no,yes,guitarra,8,,,nada ,77.0,yes
207,2024-03-15_09h09.39.686,Unsyncopated_study3,s140,21.0,feminino,right,españa,catalán y castellano,Bachelor degree,no,no,B,2,conjunction_un,L3,unsyncopated,s2,r1,79,Online_conjL3_un//d.ji.li7.1332.222.wav,le,li,ka,sil,chu,do,ji,sil1,mo,di,sil2,['catch'],[0.9899000000953038],[0.9899000000953038],0.222,no_beat,0.7679000000953038,0.7679000000953038,"[""space""]",li,4,,,,,,,,,,,,,,,3.0,2.0,catalan,0.0,castellano,0.0,inglés,4.0,4.0,4.0,yes,no,yes,guitarra,8,,,nada ,77.0,yes
208,2024-03-15_09h09.39.686,Unsyncopated_study3,s140,21.0,feminino,right,españa,catalán y castellano,Bachelor degree,no,no,B,2,conjunction_un,L3,unsyncopated,s1,r1,80,Online_conjL3_un//b.ñe.sa7.none.none.wav,chu,gu,ka,sil,mo,di,li,sil1,do,je,sil2,['-'],,,none,none,,,,sa,2,,,,,,,,,,,,,,,3.0,2.0,catalan,0.0,castellano,0.0,inglés,4.0,4.0,4.0,yes,no,yes,guitarra,8,,,nada ,77.0,yes
