Unnamed: 0,date,expName,participant,age,sex,hand,residence,native_lang,education_level,lang_deficit,aud_deficit,group,block,condition,language,rhythm,rule structure online,rule type online,order_trial_on,trial_online,s1,s2,s3,s4,s5,s6,s7,s8,s9,s10,s11,catch_syll_resp,rts_syll_catch,clean_rts,time_syll,beat_no_beat,catch_rtsTR,catch_rts,syllable_catch.keys,cond_syll,syll_to_catch,test_offline,block_off,condition_off,rhythm_off,rule,rule_str_off,rule_norule,conds_offline,language_off,Partz_no_partm.keys,Partz_no_partm.rt,security_1_7.keys,accuracy,security_1_7.rt,n_lang,n_lang_used,lang_1,age_l1,lang_2,age_l2,lang_3,age_l3,lang_4,age_l4,ability_learn_l2,tendence_mix_lan,music_experience,muisc_use,partiture,instr_1,age_M1,preguntas_musica1,BMRQ_answer.response,final comment,BMRQ_Score,bilingual
0,2024-04-12_11h37.04.728,Experiment4_uns,s177,22.0,masculino,left,Espanya,Catalán y castellano,Bachelor degree,no,no,B,1,conjunction_un,L4,unsyncopated,s1,r2,0,Online_conjL4_un//d.pe.po16.1776.444.wav,ja,re,po,sil,nu,da,bu,sil1,pe,bo,sil2,['catch'],[1.142500000000041],[1.142500000000041],0.444,no_beat,0.698500000000041,0.698500000000041,"[""space""]",po,4,testConjL4Uns//dep_viol.r1.s2.0.wav,1.0,conjunction_un,unsyncopated,a,s2,no_rule,dep,L4,m,1.8301,5.0,1.0,0.8415,4.0,3.0,Catalan,Nativo,Castellano,Nativo,Inglés,7 años,Francés,13 años,5.0,4.0,yes,no,no,Flauta de viento,13,1. Cuando comparto música con alguien siento una complicidad especial con aquella persona.,3.0,nada,36.0,yes
1,2024-04-12_11h37.04.728,Experiment4_uns,s177,22.0,masculino,left,Espanya,Catalán y castellano,Bachelor degree,no,no,B,1,conjunction_un,L4,unsyncopated,s1,r2,1,Online_conjL4_un//d.pe.po18.none.none.wav,ja,ña,ñi,sil,nu,de,ru,sil1,da,bo,sil2,['-'],,,none,none,,,,po,4,testConjL4Uns//r2.s2.1.wav,1.0,conjunction_un,unsyncopated,b,s2,rule,rule,L4,z,1.868,4.0,1.0,0.8818,4.0,3.0,Catalan,Nativo,Castellano,Nativo,Inglés,7 años,Francés,13 años,5.0,4.0,yes,no,no,Flauta de viento,13,2. En mi tiempo libre apenas escucho música.,5.0,nada,36.0,yes
2,2024-04-12_11h37.04.728,Experiment4_uns,s177,22.0,masculino,left,Espanya,Catalán y castellano,Bachelor degree,no,no,B,1,conjunction_un,L4,unsyncopated,s1,r1,2,Online_conjL4_un//d.pe.po19.none.none.wav,zi,da,ña,sil,lo,bo,bu,sil1,ñi,re,sil2,['-'],,,none,none,,,,po,4,testConjL4Uns//time_viol.r2.s2.0.wav,1.0,conjunction_un,unsyncopated,b,s2,no_rule,time,L4,z,1.1665,5.0,0.0,0.8516,4.0,3.0,Catalan,Nativo,Castellano,Nativo,Inglés,7 años,Francés,13 años,5.0,4.0,yes,no,no,Flauta de viento,13,3. Algunas canciones me ponen los pelos de punta,3.0,nada,36.0,yes
3,2024-04-12_11h37.04.728,Experiment4_uns,s177,22.0,masculino,left,Espanya,Catalán y castellano,Bachelor degree,no,no,B,1,conjunction_un,L4,unsyncopated,s2,r2,3,Online_conjL4_un//d.pe.po17.222.444.wav,re,pe,po,sil,ja,ci,ña,sil1,nu,bo,sil2,['miss'],,,0.444,no_beat,,,,po,4,testConjL4Uns//r2.s1.0.wav,1.0,conjunction_un,unsyncopated,b,s1,rule,rule,L4,z,2.206,4.0,1.0,0.7684,4.0,3.0,Catalan,Nativo,Castellano,Nativo,Inglés,7 años,Francés,13 años,5.0,4.0,yes,no,no,Flauta de viento,13,4. La música me hace compañía cuando estoy solo,3.0,nada,36.0,yes
4,2024-04-12_11h37.04.728,Experiment4_uns,s177,22.0,masculino,left,Espanya,Catalán y castellano,Bachelor degree,no,no,B,1,conjunction_un,L4,unsyncopated,s2,r2,4,Online_conjL4_un//a.zi.lo5.none.none.wav,ñi,re,pe,sil,ja,da,ña,sil1,nu,bu,sil2,['-'],,,none,none,,,,zi,1,testConjL4Uns//time_viol.r1.s2.0.wav,1.0,conjunction_un,unsyncopated,a,s2,no_rule,time,L4,m,3.1186,7.0,1.0,1.5516,4.0,3.0,Catalan,Nativo,Castellano,Nativo,Inglés,7 años,Francés,13 años,5.0,4.0,yes,no,no,Flauta de viento,13,5. No me apetece bailar ni con la música que más me gusta,2.0,nada,36.0,yes
5,2024-04-12_11h37.04.728,Experiment4_uns,s177,22.0,masculino,left,Espanya,Catalán y castellano,Bachelor degree,no,no,B,1,conjunction_un,L4,unsyncopated,s1,r1,5,Online_conjL4_un//a.zi.lo6.0.888.wav,zi,da,po,sil,lo,de,ci,sil1,re,bo,sil2,['miss'],,,0.0,beat,,,,zi,1,testConjL4Uns//dep_viol.r1.s1.0.wav,1.0,conjunction_un,unsyncopated,a,s1,no_rule,dep,L4,z,1.1831,5.0,0.0,0.7661,4.0,3.0,Catalan,Nativo,Castellano,Nativo,Inglés,7 años,Francés,13 años,5.0,4.0,yes,no,no,Flauta de viento,13,6. La música me hace conectar con la gente,3.0,nada,36.0,yes
6,2024-04-12_11h37.04.728,Experiment4_uns,s177,22.0,masculino,left,Espanya,Catalán y castellano,Bachelor degree,no,no,B,1,conjunction_un,L4,unsyncopated,s1,r1,6,Online_conjL4_un//a.zi.lo7.0.888.wav,zi,ci,da,sil,lo,ñi,de,sil1,ru,po,sil2,['catch'],[2.6199000000059414],[2.6199000000059414],0.0,beat,,2.6199000000059414,"[""space""]",zi,1,testConjL4Uns//r1.s2.0.wav,1.0,conjunction_un,unsyncopated,a,s2,rule,rule,L4,z,1.582,5.0,1.0,0.636,4.0,3.0,Catalan,Nativo,Castellano,Nativo,Inglés,7 años,Francés,13 años,5.0,4.0,yes,no,no,Flauta de viento,13,7. Me informo sobre la música que me gusta.,0.0,nada,36.0,yes
7,2024-04-12_11h37.04.728,Experiment4_uns,s177,22.0,masculino,left,Espanya,Catalán y castellano,Bachelor degree,no,no,B,1,conjunction_un,L4,unsyncopated,s1,r2,7,Online_conjL4_un//a.zi.lo4.none.none.wav,ja,da,ñi,sil,nu,pe,re,sil1,bu,bo,sil2,['false alarm'],[2.496200000017893],[2.496200000017893],none,none,,,"[""space""]",zi,1,testConjL4Uns//r1.s1.2.wav,1.0,conjunction_un,unsyncopated,a,s1,rule,rule,L4,z,0.8562,5.0,1.0,0.4324,4.0,3.0,Catalan,Nativo,Castellano,Nativo,Inglés,7 años,Francés,13 años,5.0,4.0,yes,no,no,Flauta de viento,13,8.Me emociono escuchando ciertas canciones.,3.0,nada,36.0,yes
8,2024-04-12_11h37.04.728,Experiment4_uns,s177,22.0,masculino,left,Espanya,Catalán y castellano,Bachelor degree,no,no,B,1,conjunction_un,L4,unsyncopated,s1,r2,8,Online_conjL4_un//b.ja.nu20.0.888.wav,ja,de,ñi,sil,nu,re,bo,sil1,da,po,sil2,['miss'],,,0.888,beat,,,,nu,2,testConjL4Uns//cat_viol.r1.s1.0.wav,1.0,conjunction_un,unsyncopated,a,s1,no_rule,cat,L4,z,0.6332,7.0,0.0,0.5682,4.0,3.0,Catalan,Nativo,Castellano,Nativo,Inglés,7 años,Francés,13 años,5.0,4.0,yes,no,no,Flauta de viento,13,9.La música me tranquiliza y me relaja.,3.0,nada,36.0,yes
9,2024-04-12_11h37.04.728,Experiment4_uns,s177,22.0,masculino,left,Espanya,Catalán y castellano,Bachelor degree,no,no,B,1,conjunction_un,L4,unsyncopated,s1,r2,9,Online_conjL4_un//b.ja.nu21.0.888.wav,ja,re,ru,sil,nu,bo,pe,sil1,bu,ña,sil2,['miss'],,,0.888,beat,,,,nu,2,testConjL4Uns//cat_viol.r2.s1.0.wav,1.0,conjunction_un,unsyncopated,b,s1,no_rule,cat,L4,z,0.5757,5.0,0.0,0.4661,4.0,3.0,Catalan,Nativo,Castellano,Nativo,Inglés,7 años,Francés,13 años,5.0,4.0,yes,no,no,Flauta de viento,13,10.La música me hace bailar,1.0,nada,36.0,yes
10,2024-04-12_11h37.04.728,Experiment4_uns,s177,22.0,masculino,left,Espanya,Catalán y castellano,Bachelor degree,no,no,B,1,conjunction_un,L4,unsyncopated,s2,r2,10,Online_conjL4_un//b.ja.nu23.888.1776.wav,ci,ña,po,sil,ja,bu,ñi,sil1,nu,pe,sil2,['catch'],[2.1862999999821113],[2.1862999999821113],1.776,beat,0.4102999999821113,0.4102999999821113,"[""space""]",nu,2,testConjL4Uns//r1.s1.0.wav,1.0,conjunction_un,unsyncopated,a,s1,rule,rule,L4,z,0.8844,7.0,1.0,0.4868,4.0,3.0,Catalan,Nativo,Castellano,Nativo,Inglés,7 años,Francés,13 años,5.0,4.0,yes,no,no,Flauta de viento,13,11.Busco novedades musicales continuamente,0.0,nada,36.0,yes
11,2024-04-12_11h37.04.728,Experiment4_uns,s177,22.0,masculino,left,Espanya,Catalán y castellano,Bachelor degree,no,no,B,1,conjunction_un,L4,unsyncopated,s1,r1,11,Online_conjL4_un//b.ja.nu22.none.none.wav,zi,ña,ci,sil,lo,bu,da,sil1,de,po,sil2,['-'],,,none,none,,,,nu,2,testConjL4Uns//cat_viol.r1.s2.0.wav,1.0,conjunction_un,unsyncopated,a,s2,no_rule,cat,L4,m,0.4569,6.0,1.0,1.8165,4.0,3.0,Catalan,Nativo,Castellano,Nativo,Inglés,7 años,Francés,13 años,5.0,4.0,yes,no,no,Flauta de viento,13,12. Puedo llorar cuando escucho algunas melodías que me gustan mucho.,0.0,nada,36.0,yes
12,2024-04-12_11h37.04.728,Experiment4_uns,s177,22.0,masculino,left,Espanya,Catalán y castellano,Bachelor degree,no,no,B,1,conjunction_un,L4,unsyncopated,s1,r2,12,Online_conjL4_un//c.bu.da24.none.none.wav,ja,po,ci,sil,nu,ña,ru,sil1,re,bo,sil2,['-'],,,none,none,,,,da,3,testConjL4Uns//dep_viol.r2.s2.0.wav,1.0,conjunction_un,unsyncopated,b,s2,no_rule,dep,L4,m,1.4765,5.0,1.0,0.6828,4.0,3.0,Catalan,Nativo,Castellano,Nativo,Inglés,7 años,Francés,13 años,5.0,4.0,yes,no,no,Flauta de viento,13,13. Me gusta cantar o tocar un instrumento con más gente,0.0,nada,36.0,yes
13,2024-04-12_11h37.04.728,Experiment4_uns,s177,22.0,masculino,left,Espanya,Catalán y castellano,Bachelor degree,no,no,B,1,conjunction_un,L4,unsyncopated,s2,r1,13,Online_conjL4_un//c.bu.da25.444.1110.wav,ru,de,bu,sil,zi,da,ñi,sil1,lo,ña,sil2,['miss'],,,1.11,no_beat,,,,da,3,testConjL4Uns//r2.s1.2.wav,1.0,conjunction_un,unsyncopated,b,s1,rule,rule,L4,m,1.2246,5.0,0.0,0.7002,4.0,3.0,Catalan,Nativo,Castellano,Nativo,Inglés,7 años,Francés,13 años,5.0,4.0,yes,no,no,Flauta de viento,13,14. La música me ayuda a desconectar.,3.0,nada,36.0,yes
14,2024-04-12_11h37.04.728,Experiment4_uns,s177,22.0,masculino,left,Espanya,Catalán y castellano,Bachelor degree,no,no,B,1,conjunction_un,L4,unsyncopated,s2,r1,14,Online_conjL4_un//c.bu.da27.0.444.wav,bu,po,da,sil,zi,re,pe,sil1,lo,bo,sil2,['catch'],[0.9436000000238209],[0.9436000000238209],0.444,no_beat,0.4996000000238209,0.4996000000238209,"[""space""]",da,3,testConjL4Uns//r2.s1.1.wav,1.0,conjunction_un,unsyncopated,b,s1,rule,rule,L4,z,0.7839,5.0,1.0,1.5181,4.0,3.0,Catalan,Nativo,Castellano,Nativo,Inglés,7 años,Francés,13 años,5.0,4.0,yes,no,no,Flauta de viento,13,15. No puedo evitar tararear las canciones que me gustan cuando las escucho.,1.0,nada,36.0,yes
15,2024-04-12_11h37.04.728,Experiment4_uns,s177,22.0,masculino,left,Espanya,Catalán y castellano,Bachelor degree,no,no,B,1,conjunction_un,L4,unsyncopated,s1,r1,15,Online_conjL4_un//c.bu.da26.444.1110.wav,zi,po,bu,sil,lo,da,ci,sil1,de,ñi,sil2,['catch'],[2.104400000005967],[2.104400000005967],1.11,no_beat,0.9944000000059668,0.9944000000059668,"[""space""]",da,3,testConjL4Uns//r1.s2.2.wav,1.0,conjunction_un,unsyncopated,a,s2,rule,rule,L4,m,1.1228,5.0,0.0,0.4676,4.0,3.0,Catalan,Nativo,Castellano,Nativo,Inglés,7 años,Francés,13 años,5.0,4.0,yes,no,no,Flauta de viento,13,16. En los conciertos me siento en sintonía con los artistas y el público.,0.0,nada,36.0,yes
16,2024-04-12_11h37.04.728,Experiment4_uns,s177,22.0,masculino,left,Espanya,Catalán y castellano,Bachelor degree,no,no,B,1,conjunction_un,L4,unsyncopated,s2,r1,16,Online_conjL4_un//a.zi.lo24.888.1776.wav,re,bo,po,sil,zi,da,ñi,sil1,lo,pe,sil2,['catch'],[1.3334999999999582],[1.3334999999999582],0.888,beat,0.4454999999999581,0.4454999999999581,"[""space""]",zi,1,testConjL4Uns//dep_viol.r2.s1.0.wav,1.0,conjunction_un,unsyncopated,b,s1,no_rule,dep,L4,m,1.6045,5.0,1.0,0.4817,4.0,3.0,Catalan,Nativo,Castellano,Nativo,Inglés,7 años,Francés,13 años,5.0,4.0,yes,no,no,Flauta de viento,13,17. Me gasto bastante dinero en música y cosas relacionadas con la música.,0.0,nada,36.0,yes
17,2024-04-12_11h37.04.728,Experiment4_uns,s177,22.0,masculino,left,Espanya,Catalán y castellano,Bachelor degree,no,no,B,1,conjunction_un,L4,unsyncopated,s2,r1,17,Online_conjL4_un//a.zi.lo26.888.1776.wav,pe,bu,de,sil,zi,da,ñi,sil1,lo,bo,sil2,['catch'],[1.2929999999998927],[1.2929999999998927],0.888,beat,0.4049999999998926,0.4049999999998926,"[""space""]",zi,1,testConjL4Uns//time_viol.r1.s1.0.wav,1.0,conjunction_un,unsyncopated,a,s1,no_rule,time,L4,m,0.5021,4.0,1.0,0.5401,4.0,3.0,Catalan,Nativo,Castellano,Nativo,Inglés,7 años,Francés,13 años,5.0,4.0,yes,no,no,Flauta de viento,13,18. Siento escalofríos cuando escucho una melodía que me gusta.,2.0,nada,36.0,yes
18,2024-04-12_11h37.04.728,Experiment4_uns,s177,22.0,masculino,left,Espanya,Catalán y castellano,Bachelor degree,no,no,B,1,conjunction_un,L4,unsyncopated,s2,r1,18,Online_conjL4_un//a.zi.lo25.888.1776.wav,bu,ña,de,sil,zi,ci,pe,sil1,lo,po,sil2,['catch'],[1.6580000000000155],[1.6580000000000155],0.888,beat,0.7700000000000154,0.7700000000000154,"[""space""]",zi,1,testConjL4Uns//cat_viol.r2.s2.0.wav,1.0,conjunction_un,unsyncopated,b,s2,no_rule,cat,L4,m,0.5983,6.0,1.0,1.0084,4.0,3.0,Catalan,Nativo,Castellano,Nativo,Inglés,7 años,Francés,13 años,5.0,4.0,yes,no,no,Flauta de viento,13,19. Con la música me puedo desahogar.,3.0,nada,36.0,yes
19,2024-04-12_11h37.04.728,Experiment4_uns,s177,22.0,masculino,left,Espanya,Catalán y castellano,Bachelor degree,no,no,B,1,conjunction_un,L4,unsyncopated,s1,r2,19,Online_conjL4_un//a.zi.lo27.none.none.wav,ja,ña,bu,sil,nu,ñi,re,sil1,pe,po,sil2,['-'],,,none,none,,,,zi,1,testConjL4Uns//r1.s1.1.wav,1.0,conjunction_un,unsyncopated,a,s1,rule,rule,L4,z,0.5001,6.0,1.0,0.5022,4.0,3.0,Catalan,Nativo,Castellano,Nativo,Inglés,7 años,Francés,13 años,5.0,4.0,yes,no,no,Flauta de viento,13,20. Cuando escucho una melodía que me gusta mucho no puedo evitar mover el cuerpo.,1.0,nada,36.0,yes
20,2024-04-12_11h37.04.728,Experiment4_uns,s177,22.0,masculino,left,Espanya,Catalán y castellano,Bachelor degree,no,no,B,1,conjunction_un,L4,unsyncopated,s2,r1,20,Online_conjL4_un//c.bu.da19.none.none.wav,ña,ru,pe,sil,zi,re,ñi,sil1,lo,de,sil2,['false alarm'],[0.3981999999881509],[0.3981999999881509],none,none,,,"[""space""]",da,3,testConjL4Uns//r2.s2.2.wav,1.0,conjunction_un,unsyncopated,b,s2,rule,rule,L4,z,1.023,5.0,1.0,0.6404,4.0,3.0,Catalan,Nativo,Castellano,Nativo,Inglés,7 años,Francés,13 años,5.0,4.0,yes,no,no,Flauta de viento,13,,,nada,36.0,yes
21,2024-04-12_11h37.04.728,Experiment4_uns,s177,22.0,masculino,left,Espanya,Catalán y castellano,Bachelor degree,no,no,B,1,conjunction_un,L4,unsyncopated,s2,r1,21,Online_conjL4_un//c.bu.da17.none.none.wav,ru,de,re,sil,zi,ci,po,sil1,lo,pe,sil2,['-'],,,none,none,,,,da,3,testConjL4Uns//r2.s2.0.wav,1.0,conjunction_un,unsyncopated,b,s2,rule,rule,L4,z,0.6202,6.0,1.0,0.504,4.0,3.0,Catalan,Nativo,Castellano,Nativo,Inglés,7 años,Francés,13 años,5.0,4.0,yes,no,no,Flauta de viento,13,,,nada,36.0,yes
22,2024-04-12_11h37.04.728,Experiment4_uns,s177,22.0,masculino,left,Espanya,Catalán y castellano,Bachelor degree,no,no,B,1,conjunction_un,L4,unsyncopated,s1,r2,22,Online_conjL4_un//c.bu.da16.none.none.wav,ja,de,ñi,sil,nu,pe,ru,sil1,re,ci,sil2,['-'],,,none,none,,,,da,3,testConjL4Uns//r1.s2.1.wav,1.0,conjunction_un,unsyncopated,a,s2,rule,rule,L4,m,1.1262,7.0,0.0,0.5672,4.0,3.0,Catalan,Nativo,Castellano,Nativo,Inglés,7 años,Francés,13 años,5.0,4.0,yes,no,no,Flauta de viento,13,,,nada,36.0,yes
23,2024-04-12_11h37.04.728,Experiment4_uns,s177,22.0,masculino,left,Espanya,Catalán y castellano,Bachelor degree,no,no,B,1,conjunction_un,L4,unsyncopated,s1,r2,23,Online_conjL4_un//c.bu.da18.1110.222.wav,ja,da,re,sil,nu,bu,ru,sil1,bo,pe,sil2,['miss'],,,0.222,no_beat,,,,da,3,testConjL4Uns//time_viol.r2.s1.0.wav,1.0,conjunction_un,unsyncopated,b,s1,no_rule,time,L4,z,0.6595,5.0,0.0,0.4228,4.0,3.0,Catalan,Nativo,Castellano,Nativo,Inglés,7 años,Francés,13 años,5.0,4.0,yes,no,no,Flauta de viento,13,,,nada,36.0,yes
24,2024-04-12_11h37.04.728,Experiment4_uns,s177,22.0,masculino,left,Espanya,Catalán y castellano,Bachelor degree,no,no,B,1,conjunction_un,L4,unsyncopated,s1,r2,24,Online_conjL4_un//b.ja.nu3.0.888.wav,ja,ña,re,sil,nu,bo,po,sil1,ci,ñi,sil2,['catch'],[1.2534000000059677],[1.2534000000059677],0.888,beat,0.3654000000059677,0.3654000000059677,"[""space""]",nu,2,testWhenL2Uns//time_viol.r2.s1.0.wav,2.0,when,unsyncopated,b,s1,no_rule,time,L2,m,2.3789,5.0,0.0,0.266,4.0,3.0,Catalan,Nativo,Castellano,Nativo,Inglés,7 años,Francés,13 años,5.0,4.0,yes,no,no,Flauta de viento,13,,,nada,36.0,yes
25,2024-04-12_11h37.04.728,Experiment4_uns,s177,22.0,masculino,left,Espanya,Catalán y castellano,Bachelor degree,no,no,B,1,conjunction_un,L4,unsyncopated,s2,r1,25,Online_conjL4_un//b.ja.nu0.none.none.wav,de,ru,da,sil,zi,re,pe,sil1,lo,bu,sil2,['-'],,,none,none,,,,nu,2,testWhenL2Uns//r2.s1.2.wav,2.0,when,unsyncopated,b,s1,rule,rule,L2,z,0.269,6.0,1.0,0.6857,4.0,3.0,Catalan,Nativo,Castellano,Nativo,Inglés,7 años,Francés,13 años,5.0,4.0,yes,no,no,Flauta de viento,13,,,nada,36.0,yes
26,2024-04-12_11h37.04.728,Experiment4_uns,s177,22.0,masculino,left,Espanya,Catalán y castellano,Bachelor degree,no,no,B,1,conjunction_un,L4,unsyncopated,s2,r1,26,Online_conjL4_un//b.ja.nu1.none.none.wav,bo,ci,ru,sil,zi,re,da,sil1,lo,de,sil2,['false alarm'],[1.0027999999820167],[1.0027999999820167],none,none,,,"[""space""]",nu,2,testWhenL2Uns//r2.s2.1.wav,2.0,when,unsyncopated,b,s2,rule,rule,L2,z,0.6364,4.0,1.0,0.3693,4.0,3.0,Catalan,Nativo,Castellano,Nativo,Inglés,7 años,Francés,13 años,5.0,4.0,yes,no,no,Flauta de viento,13,,,nada,36.0,yes
27,2024-04-12_11h37.04.728,Experiment4_uns,s177,22.0,masculino,left,Espanya,Catalán y castellano,Bachelor degree,no,no,B,1,conjunction_un,L4,unsyncopated,s2,r2,27,Online_conjL4_un//b.ja.nu2.888.1776.wav,po,ci,bu,sil,ja,pe,ru,sil1,nu,de,sil2,['catch_delay'],[0.9126999999881156],[0.9126999999881156],1.776,beat,0.9126999999881156,0.9126999999881156,,nu,2,testWhenL2Uns//r1.s2.2.wav,2.0,when,unsyncopated,a,s2,rule,rule,L2,z,0.115,5.0,1.0,0.6003,4.0,3.0,Catalan,Nativo,Castellano,Nativo,Inglés,7 años,Francés,13 años,5.0,4.0,yes,no,no,Flauta de viento,13,,,nada,36.0,yes
28,2024-04-12_11h37.04.728,Experiment4_uns,s177,22.0,masculino,left,Espanya,Catalán y castellano,Bachelor degree,no,no,B,1,conjunction_un,L4,unsyncopated,s1,r2,28,Online_conjL4_un//b.ja.nu17.0.888.wav,ja,da,ru,sil,nu,ña,ci,sil1,po,re,sil2,['catch'],"[0.02469999998811545, 1.5829000000060205]",[1.5829000000060205],0.888,beat,0.6949000000060205,0.6949000000060205,"[""space"",""space""]",nu,2,testWhenL2Uns//cat_viol.r2.s1.0.wav,2.0,when,unsyncopated,b,s1,no_rule,cat,L2,z,0.4342,5.0,1.0,0.6167,4.0,3.0,Catalan,Nativo,Castellano,Nativo,Inglés,7 años,Francés,13 años,5.0,4.0,yes,no,no,Flauta de viento,13,,,nada,36.0,yes
29,2024-04-12_11h37.04.728,Experiment4_uns,s177,22.0,masculino,left,Espanya,Catalán y castellano,Bachelor degree,no,no,B,1,conjunction_un,L4,unsyncopated,s1,r2,29,Online_conjL4_un//b.ja.nu16.0.888.wav,ja,da,po,sil,nu,ru,bu,sil1,ci,de,sil2,['catch'],[1.4220000000000255],[1.4220000000000255],0.888,beat,0.5340000000000255,0.5340000000000255,"[""space""]",nu,2,testWhenL2Uns//r2.s2.0.wav,2.0,when,unsyncopated,b,s2,rule,rule,L2,m,0.9313,4.0,0.0,0.5427,4.0,3.0,Catalan,Nativo,Castellano,Nativo,Inglés,7 años,Francés,13 años,5.0,4.0,yes,no,no,Flauta de viento,13,,,nada,36.0,yes
30,2024-04-12_11h37.04.728,Experiment4_uns,s177,22.0,masculino,left,Espanya,Catalán y castellano,Bachelor degree,no,no,B,1,conjunction_un,L4,unsyncopated,s2,r1,30,Online_conjL4_un//b.ja.nu18.none.none.wav,re,ci,bu,sil,zi,ñi,ña,sil1,lo,pe,sil2,['-'],,,none,none,,,,nu,2,testWhenL2Uns//r1.s1.1.wav,2.0,when,unsyncopated,a,s1,rule,rule,L2,z,0.6981,4.0,1.0,1.0227,4.0,3.0,Catalan,Nativo,Castellano,Nativo,Inglés,7 años,Francés,13 años,5.0,4.0,yes,no,no,Flauta de viento,13,,,nada,36.0,yes
31,2024-04-12_11h37.04.728,Experiment4_uns,s177,22.0,masculino,left,Espanya,Catalán y castellano,Bachelor degree,no,no,B,1,conjunction_un,L4,unsyncopated,s1,r1,31,Online_conjL4_un//b.ja.nu19.none.none.wav,zi,ña,pe,sil,lo,bu,ñi,sil1,da,ru,sil2,['-'],,,none,none,,,,nu,2,testWhenL2Uns//cat_viol.r2.s2.0.wav,2.0,when,unsyncopated,b,s2,no_rule,cat,L2,z,0.1677,6.0,1.0,0.527,4.0,3.0,Catalan,Nativo,Castellano,Nativo,Inglés,7 años,Francés,13 años,5.0,4.0,yes,no,no,Flauta de viento,13,,,nada,36.0,yes
32,2024-04-12_11h37.04.728,Experiment4_uns,s177,22.0,masculino,left,Espanya,Catalán y castellano,Bachelor degree,no,no,B,1,conjunction_un,L4,unsyncopated,s1,r1,32,Online_conjL4_un//c.bu.da28.1776.1110.wav,zi,re,ru,sil,lo,da,pe,sil1,bu,ña,sil2,['catch'],[1.7326999999880854],[1.7326999999880854],1.11,no_beat,0.6226999999880853,0.6226999999880853,"[""space""]",da,3,testWhenL2Uns//cat_viol.r1.s2.0.wav,2.0,when,unsyncopated,a,s2,no_rule,cat,L2,m,0.4417,5.0,0.0,0.9517,4.0,3.0,Catalan,Nativo,Castellano,Nativo,Inglés,7 años,Francés,13 años,5.0,4.0,yes,no,no,Flauta de viento,13,,,nada,36.0,yes
33,2024-04-12_11h37.04.728,Experiment4_uns,s177,22.0,masculino,left,Espanya,Catalán y castellano,Bachelor degree,no,no,B,1,conjunction_un,L4,unsyncopated,s2,r2,33,Online_conjL4_un//c.bu.da29.none.none.wav,bo,ña,re,sil,ja,ci,ru,sil1,nu,ñi,sil2,['-'],,,none,none,,,,da,3,testWhenL2Uns//r2.s2.2.wav,2.0,when,unsyncopated,b,s2,rule,rule,L2,m,0.8687,4.0,0.0,0.1492,4.0,3.0,Catalan,Nativo,Castellano,Nativo,Inglés,7 años,Francés,13 años,5.0,4.0,yes,no,no,Flauta de viento,13,,,nada,36.0,yes
34,2024-04-12_11h37.04.728,Experiment4_uns,s177,22.0,masculino,left,Espanya,Catalán y castellano,Bachelor degree,no,no,B,1,conjunction_un,L4,unsyncopated,s1,r2,34,Online_conjL4_un//c.bu.da30.222.444.wav,ja,bu,da,sil,nu,pe,bo,sil1,ña,de,sil2,['miss'],,,0.444,no_beat,,,,da,3,testWhenL2Uns//dep_viol.r2.s2.0.wav,2.0,when,unsyncopated,b,s2,no_rule,dep,L2,z,0.9022,5.0,1.0,0.549,4.0,3.0,Catalan,Nativo,Castellano,Nativo,Inglés,7 años,Francés,13 años,5.0,4.0,yes,no,no,Flauta de viento,13,,,nada,36.0,yes
35,2024-04-12_11h37.04.728,Experiment4_uns,s177,22.0,masculino,left,Espanya,Catalán y castellano,Bachelor degree,no,no,B,1,conjunction_un,L4,unsyncopated,s2,r2,35,Online_conjL4_un//c.bu.da31.none.none.wav,po,re,bo,sil,ja,ña,ñi,sil1,nu,pe,sil2,['-'],,,none,none,,,,da,3,testWhenL2Uns//r1.s1.2.wav,2.0,when,unsyncopated,a,s1,rule,rule,L2,z,1.7639,6.0,1.0,0.4481,4.0,3.0,Catalan,Nativo,Castellano,Nativo,Inglés,7 años,Francés,13 años,5.0,4.0,yes,no,no,Flauta de viento,13,,,nada,36.0,yes
36,2024-04-12_11h37.04.728,Experiment4_uns,s177,22.0,masculino,left,Espanya,Catalán y castellano,Bachelor degree,no,no,B,1,conjunction_un,L4,unsyncopated,s1,r2,36,Online_conjL4_un//a.zi.lo3.none.none.wav,ja,bu,re,sil,nu,pe,ñi,sil1,ru,ci,sil2,['-'],,,none,none,,,,zi,1,testWhenL2Uns//r1.s2.0.wav,2.0,when,unsyncopated,a,s2,rule,rule,L2,m,0.525,4.0,0.0,0.5742,4.0,3.0,Catalan,Nativo,Castellano,Nativo,Inglés,7 años,Francés,13 años,5.0,4.0,yes,no,no,Flauta de viento,13,,,nada,36.0,yes
37,2024-04-12_11h37.04.728,Experiment4_uns,s177,22.0,masculino,left,Espanya,Catalán y castellano,Bachelor degree,no,no,B,1,conjunction_un,L4,unsyncopated,s1,r1,37,Online_conjL4_un//a.zi.lo1.0.888.wav,zi,ña,ci,sil,lo,po,pe,sil1,bo,da,sil2,['catch'],[0.5967999999821814],[0.5967999999821814],0.0,beat,0.5967999999821814,0.5967999999821814,"[""space""]",zi,1,testWhenL2Uns//r2.s1.0.wav,2.0,when,unsyncopated,b,s1,rule,rule,L2,z,1.3188,5.0,1.0,0.467,4.0,3.0,Catalan,Nativo,Castellano,Nativo,Inglés,7 años,Francés,13 años,5.0,4.0,yes,no,no,Flauta de viento,13,,,nada,36.0,yes
38,2024-04-12_11h37.04.728,Experiment4_uns,s177,22.0,masculino,left,Espanya,Catalán y castellano,Bachelor degree,no,no,B,1,conjunction_un,L4,unsyncopated,s1,r1,38,Online_conjL4_un//a.zi.lo2.0.888.wav,zi,ña,re,sil,lo,de,pe,sil1,bu,po,sil2,['catch'],[0.5056000000238328],[0.5056000000238328],0.0,beat,0.5056000000238328,0.5056000000238328,"[""space""]",zi,1,testWhenL2Uns//cat_viol.r1.s1.0.wav,2.0,when,unsyncopated,a,s1,no_rule,cat,L2,z,0.4423,6.0,1.0,0.4994,4.0,3.0,Catalan,Nativo,Castellano,Nativo,Inglés,7 años,Francés,13 años,5.0,4.0,yes,no,no,Flauta de viento,13,,,nada,36.0,yes
39,2024-04-12_11h37.04.728,Experiment4_uns,s177,22.0,masculino,left,Espanya,Catalán y castellano,Bachelor degree,no,no,B,1,conjunction_un,L4,unsyncopated,s2,r1,39,Online_conjL4_un//a.zi.lo0.888.1776.wav,ñi,bu,ci,sil,zi,da,pe,sil1,lo,re,sil2,['catch'],[1.0866999999881273],[1.0866999999881273],0.888,beat,0.1986999999881272,0.1986999999881272,"[""space""]",zi,1,testWhenL2Uns//time_viol.r1.s2.0.wav,2.0,when,unsyncopated,a,s2,no_rule,time,L2,z,0.3708,6.0,1.0,0.4324,4.0,3.0,Catalan,Nativo,Castellano,Nativo,Inglés,7 años,Francés,13 años,5.0,4.0,yes,no,no,Flauta de viento,13,,,nada,36.0,yes
40,2024-04-12_11h37.04.728,Experiment4_uns,s177,22.0,masculino,left,Espanya,Catalán y castellano,Bachelor degree,no,no,B,1,conjunction_un,L4,unsyncopated,s1,r2,40,Online_conjL4_un//d.pe.po15.444.1332.wav,ja,bu,pe,sil,nu,ru,po,sil1,de,da,sil2,['false alarm'],[0.4014999999999418],[0.4014999999999418],1.332,no_beat,,,"[""space""]",po,4,testWhenL2Uns//dep_viol.r1.s1.0.wav,2.0,when,unsyncopated,a,s1,no_rule,dep,L2,z,0.8985,6.0,1.0,0.1682,4.0,3.0,Catalan,Nativo,Castellano,Nativo,Inglés,7 años,Francés,13 años,5.0,4.0,yes,no,no,Flauta de viento,13,,,nada,36.0,yes
41,2024-04-12_11h37.04.728,Experiment4_uns,s177,22.0,masculino,left,Espanya,Catalán y castellano,Bachelor degree,no,no,B,1,conjunction_un,L4,unsyncopated,s1,r1,41,Online_conjL4_un//d.pe.po13.1776.1110.wav,zi,ña,ñi,sil,lo,po,bu,sil1,pe,de,sil2,['catch'],[1.703599999994026],[1.703599999994026],1.11,no_beat,0.5935999999940258,0.5935999999940258,"[""space""]",po,4,testWhenL2Uns//dep_viol.r1.s2.0.wav,2.0,when,unsyncopated,a,s2,no_rule,dep,L2,m,2.7885,3.0,0.0,0.567,4.0,3.0,Catalan,Nativo,Castellano,Nativo,Inglés,7 años,Francés,13 años,5.0,4.0,yes,no,no,Flauta de viento,13,,,nada,36.0,yes
42,2024-04-12_11h37.04.728,Experiment4_uns,s177,22.0,masculino,left,Espanya,Catalán y castellano,Bachelor degree,no,no,B,1,conjunction_un,L4,unsyncopated,s1,r1,42,Online_conjL4_un//d.pe.po14.none.none.wav,zi,bo,da,sil,lo,ña,ci,sil1,de,re,sil2,['-'],,,none,none,,,,po,4,testWhenL2Uns//time_viol.r2.s2.0.wav,2.0,when,unsyncopated,b,s2,no_rule,time,L2,z,0.4512,7.0,1.0,0.5022,4.0,3.0,Catalan,Nativo,Castellano,Nativo,Inglés,7 años,Francés,13 años,5.0,4.0,yes,no,no,Flauta de viento,13,,,nada,36.0,yes
43,2024-04-12_11h37.04.728,Experiment4_uns,s177,22.0,masculino,left,Espanya,Catalán y castellano,Bachelor degree,no,no,B,1,conjunction_un,L4,unsyncopated,s2,r2,43,Online_conjL4_un//d.pe.po12.none.none.wav,da,ñi,bo,sil,ja,ña,ru,sil1,nu,bu,sil2,['-'],,,none,none,,,,po,4,testWhenL2Uns//r2.s1.1.wav,2.0,when,unsyncopated,b,s1,rule,rule,L2,z,0.8149,6.0,1.0,0.5174,4.0,3.0,Catalan,Nativo,Castellano,Nativo,Inglés,7 años,Francés,13 años,5.0,4.0,yes,no,no,Flauta de viento,13,,,nada,36.0,yes
44,2024-04-12_11h37.04.728,Experiment4_uns,s177,22.0,masculino,left,Espanya,Catalán y castellano,Bachelor degree,no,no,B,1,conjunction_un,L4,unsyncopated,s1,r1,44,Online_conjL4_un//a.zi.lo30.0.888.wav,zi,ci,bu,sil,lo,ru,da,sil1,ñi,de,sil2,['catch'],[0.5734000000059041],[0.5734000000059041],0.0,beat,0.5734000000059041,0.5734000000059041,"[""space""]",zi,1,testWhenL2Uns//time_viol.r1.s1.0.wav,2.0,when,unsyncopated,a,s1,no_rule,time,L2,m,0.5558,7.0,0.0,0.6898,4.0,3.0,Catalan,Nativo,Castellano,Nativo,Inglés,7 años,Francés,13 años,5.0,4.0,yes,no,no,Flauta de viento,13,,,nada,36.0,yes
45,2024-04-12_11h37.04.728,Experiment4_uns,s177,22.0,masculino,left,Espanya,Catalán y castellano,Bachelor degree,no,no,B,1,conjunction_un,L4,unsyncopated,s1,r1,45,Online_conjL4_un//a.zi.lo28.0.888.wav,zi,da,bo,sil,lo,ña,po,sil1,de,pe,sil2,['catch'],[0.7032999999820504],[0.7032999999820504],0.0,beat,0.7032999999820504,0.7032999999820504,"[""space""]",zi,1,testWhenL2Uns//r1.s1.0.wav,2.0,when,unsyncopated,a,s1,rule,rule,L2,z,0.4507,6.0,1.0,0.5673,4.0,3.0,Catalan,Nativo,Castellano,Nativo,Inglés,7 años,Francés,13 años,5.0,4.0,yes,no,no,Flauta de viento,13,,,nada,36.0,yes
46,2024-04-12_11h37.04.728,Experiment4_uns,s177,22.0,masculino,left,Espanya,Catalán y castellano,Bachelor degree,no,no,B,1,conjunction_un,L4,unsyncopated,s1,r2,46,Online_conjL4_un//a.zi.lo29.none.none.wav,ja,ci,pe,sil,nu,ru,po,sil1,ñi,da,sil2,['-'],,,none,none,,,,zi,1,testWhenL2Uns//r1.s2.1.wav,2.0,when,unsyncopated,a,s2,rule,rule,L2,z,0.5072,6.0,1.0,0.4152,4.0,3.0,Catalan,Nativo,Castellano,Nativo,Inglés,7 años,Francés,13 años,5.0,4.0,yes,no,no,Flauta de viento,13,,,nada,36.0,yes
47,2024-04-12_11h37.04.728,Experiment4_uns,s177,22.0,masculino,left,Espanya,Catalán y castellano,Bachelor degree,no,no,B,1,conjunction_un,L4,unsyncopated,s1,r2,47,Online_conjL4_un//a.zi.lo31.none.none.wav,ja,ru,da,sil,nu,bu,ci,sil1,pe,re,sil2,['-'],,,none,none,,,,zi,1,testWhenL2Uns//dep_viol.r2.s1.0.wav,2.0,when,unsyncopated,b,s1,no_rule,dep,L2,m,1.1001,5.0,0.0,0.5587,4.0,3.0,Catalan,Nativo,Castellano,Nativo,Inglés,7 años,Francés,13 años,5.0,4.0,yes,no,no,Flauta de viento,13,,,nada,36.0,yes
48,2024-04-12_11h37.04.728,Experiment4_uns,s177,22.0,masculino,left,Espanya,Catalán y castellano,Bachelor degree,no,no,B,1,conjunction_un,L4,unsyncopated,s2,r1,48,Online_conjL4_un//d.pe.po22.none.none.wav,ñi,bu,de,sil,zi,bo,ña,sil1,lo,ci,sil2,['-'],,,none,none,,,,po,4,testConjL3Syn//time_viol.r2.s2.0.wav,3.0,conjunction_syn,syncopated,b,s2,no_rule,time,L3,z,2.2205,6.0,0.0,0.6281,4.0,3.0,Catalan,Nativo,Castellano,Nativo,Inglés,7 años,Francés,13 años,5.0,4.0,yes,no,no,Flauta de viento,13,,,nada,36.0,yes
49,2024-04-12_11h37.04.728,Experiment4_uns,s177,22.0,masculino,left,Espanya,Catalán y castellano,Bachelor degree,no,no,B,1,conjunction_un,L4,unsyncopated,s2,r2,49,Online_conjL4_un//d.pe.po20.444.0.wav,po,bu,pe,sil,ja,ñi,ru,sil1,nu,bo,sil2,['catch'],[0.4050999999940359],[0.4050999999940359],0.0,beat,0.4050999999940359,0.4050999999940359,"[""space""]",po,4,testConjL3Syn//r2.s1.0.wav,3.0,conjunction_syn,syncopated,b,s1,rule,rule,L3,m,0.534,6.0,0.0,0.4322,4.0,3.0,Catalan,Nativo,Castellano,Nativo,Inglés,7 años,Francés,13 años,5.0,4.0,yes,no,no,Flauta de viento,13,,,nada,36.0,yes
50,2024-04-12_11h37.04.728,Experiment4_uns,s177,22.0,masculino,left,Espanya,Catalán y castellano,Bachelor degree,no,no,B,1,conjunction_un,L4,unsyncopated,s2,r1,50,Online_conjL4_un//d.pe.po21.1110.0.wav,po,da,ña,sil,zi,pe,ci,sil1,lo,bu,sil2,['catch'],[0.3569000000059077],[0.3569000000059077],0.0,beat,0.3569000000059077,0.3569000000059077,"[""space""]",po,4,testConjL3Syn//dep_viol.r2.s2.0.wav,3.0,conjunction_syn,syncopated,b,s2,no_rule,dep,L3,m,0.6974,5.0,1.0,0.308,4.0,3.0,Catalan,Nativo,Castellano,Nativo,Inglés,7 años,Francés,13 años,5.0,4.0,yes,no,no,Flauta de viento,13,,,nada,36.0,yes
51,2024-04-12_11h37.04.728,Experiment4_uns,s177,22.0,masculino,left,Espanya,Catalán y castellano,Bachelor degree,no,no,B,1,conjunction_un,L4,unsyncopated,s2,r2,51,Online_conjL4_un//d.pe.po23.none.none.wav,ru,ñi,re,sil,ja,de,bu,sil1,nu,ci,sil2,['-'],,,none,none,,,,po,4,testConjL3Syn//dep_viol.r2.s1.0.wav,3.0,conjunction_syn,syncopated,b,s1,no_rule,dep,L3,z,0.6652,6.0,0.0,0.6357,4.0,3.0,Catalan,Nativo,Castellano,Nativo,Inglés,7 años,Francés,13 años,5.0,4.0,yes,no,no,Flauta de viento,13,,,nada,36.0,yes
52,2024-04-12_11h37.04.728,Experiment4_uns,s177,22.0,masculino,left,Espanya,Catalán y castellano,Bachelor degree,no,no,B,1,conjunction_un,L4,unsyncopated,s2,r2,52,Online_conjL4_un//a.zi.lo23.none.none.wav,ñi,bo,po,sil,ja,da,ña,sil1,nu,re,sil2,['-'],,,none,none,,,,zi,1,testConjL3Syn//r2.s2.2.wav,3.0,conjunction_syn,syncopated,b,s2,rule,rule,L3,m,0.6849,6.0,0.0,1.4156,4.0,3.0,Catalan,Nativo,Castellano,Nativo,Inglés,7 años,Francés,13 años,5.0,4.0,yes,no,no,Flauta de viento,13,,,nada,36.0,yes
53,2024-04-12_11h37.04.728,Experiment4_uns,s177,22.0,masculino,left,Espanya,Catalán y castellano,Bachelor degree,no,no,B,1,conjunction_un,L4,unsyncopated,s1,r2,53,Online_conjL4_un//a.zi.lo20.none.none.wav,ja,da,ñi,sil,nu,ña,ci,sil1,re,ru,sil2,['false alarm'],[1.8367999999820768],[1.8367999999820768],none,none,,,"[""space""]",zi,1,testConjL3Syn//r1.s1.2.wav,3.0,conjunction_syn,syncopated,a,s1,rule,rule,L3,z,0.6676,6.0,1.0,0.4803,4.0,3.0,Catalan,Nativo,Castellano,Nativo,Inglés,7 años,Francés,13 años,5.0,4.0,yes,no,no,Flauta de viento,13,,,nada,36.0,yes
54,2024-04-12_11h37.04.728,Experiment4_uns,s177,22.0,masculino,left,Espanya,Catalán y castellano,Bachelor degree,no,no,B,1,conjunction_un,L4,unsyncopated,s2,r1,54,Online_conjL4_un//a.zi.lo21.888.1776.wav,ci,da,de,sil,zi,bu,po,sil1,lo,re,sil2,"['false alarm', 'catch']","[0.4125999999940859, 1.5090000000000146]",[1.5090000000000146],0.888,beat,0.6210000000000145,0.6210000000000145,"[""space"",""space""]",zi,1,testConjL3Syn//r1.s2.2.wav,3.0,conjunction_syn,syncopated,a,s2,rule,rule,L3,z,0.1035,6.0,1.0,0.4513,4.0,3.0,Catalan,Nativo,Castellano,Nativo,Inglés,7 años,Francés,13 años,5.0,4.0,yes,no,no,Flauta de viento,13,,,nada,36.0,yes
55,2024-04-12_11h37.04.728,Experiment4_uns,s177,22.0,masculino,left,Espanya,Catalán y castellano,Bachelor degree,no,no,B,1,conjunction_un,L4,unsyncopated,s2,r1,55,Online_conjL4_un//a.zi.lo22.888.1776.wav,bu,ñi,pe,sil,zi,bo,ci,sil1,lo,ru,sil2,['catch'],[1.4767000000178996],[1.4767000000178996],0.888,beat,0.5887000000178996,0.5887000000178996,"[""space""]",zi,1,testConjL3Syn//r1.s1.0.wav,3.0,conjunction_syn,syncopated,a,s1,rule,rule,L3,z,0.4165,6.0,1.0,0.4355,4.0,3.0,Catalan,Nativo,Castellano,Nativo,Inglés,7 años,Francés,13 años,5.0,4.0,yes,no,no,Flauta de viento,13,,,nada,36.0,yes
56,2024-04-12_11h37.04.728,Experiment4_uns,s177,22.0,masculino,left,Espanya,Catalán y castellano,Bachelor degree,no,no,B,1,conjunction_un,L4,unsyncopated,s1,r1,56,Online_conjL4_un//c.bu.da7.none.none.wav,zi,re,po,sil,lo,bo,ci,sil1,ña,de,sil2,['-'],,,none,none,,,,da,3,testConjL3Syn//r2.s2.0.wav,3.0,conjunction_syn,syncopated,b,s2,rule,rule,L3,z,0.6395,5.0,1.0,0.4153,4.0,3.0,Catalan,Nativo,Castellano,Nativo,Inglés,7 años,Francés,13 años,5.0,4.0,yes,no,no,Flauta de viento,13,,,nada,36.0,yes
57,2024-04-12_11h37.04.728,Experiment4_uns,s177,22.0,masculino,left,Espanya,Catalán y castellano,Bachelor degree,no,no,B,1,conjunction_un,L4,unsyncopated,s1,r1,57,Online_conjL4_un//c.bu.da4.1776.1110.wav,zi,re,bo,sil,lo,da,ru,sil1,bu,de,sil2,['catch'],[2.6361999999880936],[2.6361999999880936],1.11,no_beat,,1.5261999999880935,"[""space""]",da,3,testConjL3Syn//r1.s1.1.wav,3.0,conjunction_syn,syncopated,a,s1,rule,rule,L3,m,0.9521,6.0,0.0,0.854,4.0,3.0,Catalan,Nativo,Castellano,Nativo,Inglés,7 años,Francés,13 años,5.0,4.0,yes,no,no,Flauta de viento,13,,,nada,36.0,yes
58,2024-04-12_11h37.04.728,Experiment4_uns,s177,22.0,masculino,left,Espanya,Catalán y castellano,Bachelor degree,no,no,B,1,conjunction_un,L4,unsyncopated,s2,r1,58,Online_conjL4_un//c.bu.da5.222.444.wav,po,bu,da,sil,zi,de,ci,sil1,lo,re,sil2,['catch'],[1.1192000000178268],[1.1192000000178268],0.444,no_beat,0.6752000000178269,0.6752000000178269,"[""space""]",da,3,testConjL3Syn//r1.s2.1.wav,3.0,conjunction_syn,syncopated,a,s2,rule,rule,L3,z,0.8042,6.0,1.0,0.4675,4.0,3.0,Catalan,Nativo,Castellano,Nativo,Inglés,7 años,Francés,13 años,5.0,4.0,yes,no,no,Flauta de viento,13,,,nada,36.0,yes
59,2024-04-12_11h37.04.728,Experiment4_uns,s177,22.0,masculino,left,Espanya,Catalán y castellano,Bachelor degree,no,no,B,1,conjunction_un,L4,unsyncopated,s1,r2,59,Online_conjL4_un//c.bu.da6.1776.444.wav,ja,ru,da,sil,nu,ñi,ña,sil1,bu,re,sil2,['miss'],,,0.444,no_beat,,,,da,3,testConjL3Syn//r1.s2.0.wav,3.0,conjunction_syn,syncopated,a,s2,rule,rule,L3,z,1.2967,5.0,1.0,0.4224,4.0,3.0,Catalan,Nativo,Castellano,Nativo,Inglés,7 años,Francés,13 años,5.0,4.0,yes,no,no,Flauta de viento,13,,,nada,36.0,yes
60,2024-04-12_11h37.04.728,Experiment4_uns,s177,22.0,masculino,left,Espanya,Catalán y castellano,Bachelor degree,no,no,B,1,conjunction_un,L4,unsyncopated,s1,r2,60,Online_conjL4_un//c.bu.da9.none.none.wav,ja,re,ñi,sil,nu,ña,de,sil1,bo,po,sil2,['-'],,,none,none,,,,da,3,testConjL3Syn//r2.s1.1.wav,3.0,conjunction_syn,syncopated,b,s1,rule,rule,L3,z,0.674,6.0,1.0,0.4167,4.0,3.0,Catalan,Nativo,Castellano,Nativo,Inglés,7 años,Francés,13 años,5.0,4.0,yes,no,no,Flauta de viento,13,,,nada,36.0,yes
61,2024-04-12_11h37.04.728,Experiment4_uns,s177,22.0,masculino,left,Espanya,Catalán y castellano,Bachelor degree,no,no,B,1,conjunction_un,L4,unsyncopated,s2,r2,61,Online_conjL4_un//c.bu.da10.0.1110.wav,bu,po,ña,sil,ja,da,ru,sil1,nu,ñi,sil2,['miss'],,,1.11,no_beat,,,,da,3,testConjL3Syn//dep_viol.r1.s2.0.wav,3.0,conjunction_syn,syncopated,a,s2,no_rule,dep,L3,z,0.8752,6.0,0.0,0.4583,4.0,3.0,Catalan,Nativo,Castellano,Nativo,Inglés,7 años,Francés,13 años,5.0,4.0,yes,no,no,Flauta de viento,13,,,nada,36.0,yes
62,2024-04-12_11h37.04.728,Experiment4_uns,s177,22.0,masculino,left,Espanya,Catalán y castellano,Bachelor degree,no,no,B,1,conjunction_un,L4,unsyncopated,s1,r2,62,Online_conjL4_un//c.bu.da11.none.none.wav,ja,bo,ñi,sil,nu,pe,re,sil1,ci,ña,sil2,['-'],,,none,none,,,,da,3,testConjL3Syn//dep_viol.r1.s1.0.wav,3.0,conjunction_syn,syncopated,a,s1,no_rule,dep,L3,m,0.3364,7.0,1.0,0.3657,4.0,3.0,Catalan,Nativo,Castellano,Nativo,Inglés,7 años,Francés,13 años,5.0,4.0,yes,no,no,Flauta de viento,13,,,nada,36.0,yes
63,2024-04-12_11h37.04.728,Experiment4_uns,s177,22.0,masculino,left,Espanya,Catalán y castellano,Bachelor degree,no,no,B,1,conjunction_un,L4,unsyncopated,s2,r2,63,Online_conjL4_un//c.bu.da8.1332.444.wav,ña,ñi,da,sil,ja,ru,bu,sil1,nu,ci,sil2,['catch'],[1.127699999988181],[1.127699999988181],0.444,no_beat,0.683699999988181,0.683699999988181,"[""space""]",da,3,testConjL3Syn//time_viol.r1.s2.0.wav,3.0,conjunction_syn,syncopated,a,s2,no_rule,time,L3,z,0.5878,5.0,0.0,0.4987,4.0,3.0,Catalan,Nativo,Castellano,Nativo,Inglés,7 años,Francés,13 años,5.0,4.0,yes,no,no,Flauta de viento,13,,,nada,36.0,yes
64,2024-04-12_11h37.04.728,Experiment4_uns,s177,22.0,masculino,left,Espanya,Catalán y castellano,Bachelor degree,no,no,B,1,conjunction_un,L4,unsyncopated,s1,r1,64,Online_conjL4_un//c.bu.da0.none.none.wav,zi,ña,ru,sil,lo,re,ñi,sil1,bo,ci,sil2,['-'],,,none,none,,,,da,3,testConjL3Syn//r2.s1.2.wav,3.0,conjunction_syn,syncopated,b,s1,rule,rule,L3,m,0.6051,6.0,0.0,0.6222,4.0,3.0,Catalan,Nativo,Castellano,Nativo,Inglés,7 años,Francés,13 años,5.0,4.0,yes,no,no,Flauta de viento,13,,,nada,36.0,yes
65,2024-04-12_11h37.04.728,Experiment4_uns,s177,22.0,masculino,left,Espanya,Catalán y castellano,Bachelor degree,no,no,B,1,conjunction_un,L4,unsyncopated,s2,r2,65,Online_conjL4_un//c.bu.da3.444.1110.wav,po,pe,bu,sil,ja,da,ci,sil1,nu,de,sil2,['miss'],,,1.11,no_beat,,,,da,3,testConjL3Syn//cat_viol.r1.s1.0.wav,3.0,conjunction_syn,syncopated,a,s1,no_rule,cat,L3,z,1.6682,5.0,0.0,0.3857,4.0,3.0,Catalan,Nativo,Castellano,Nativo,Inglés,7 años,Francés,13 años,5.0,4.0,yes,no,no,Flauta de viento,13,,,nada,36.0,yes
66,2024-04-12_11h37.04.728,Experiment4_uns,s177,22.0,masculino,left,Espanya,Catalán y castellano,Bachelor degree,no,no,B,1,conjunction_un,L4,unsyncopated,s1,r1,66,Online_conjL4_un//c.bu.da1.none.none.wav,zi,bo,po,sil,lo,re,ci,sil1,ñi,pe,sil2,['-'],,,none,none,,,,da,3,testConjL3Syn//r2.s2.1.wav,3.0,conjunction_syn,syncopated,b,s2,rule,rule,L3,z,0.5504,7.0,1.0,0.4169,4.0,3.0,Catalan,Nativo,Castellano,Nativo,Inglés,7 años,Francés,13 años,5.0,4.0,yes,no,no,Flauta de viento,13,,,nada,36.0,yes
67,2024-04-12_11h37.04.728,Experiment4_uns,s177,22.0,masculino,left,Espanya,Catalán y castellano,Bachelor degree,no,no,B,1,conjunction_un,L4,unsyncopated,s1,r1,67,Online_conjL4_un//c.bu.da2.none.none.wav,zi,pe,ci,sil,lo,de,ña,sil1,ñi,re,sil2,['-'],,,none,none,,,,da,3,testConjL3Syn//cat_viol.r2.s1.0.wav,3.0,conjunction_syn,syncopated,b,s1,no_rule,cat,L3,z,0.5,6.0,0.0,0.5019,4.0,3.0,Catalan,Nativo,Castellano,Nativo,Inglés,7 años,Francés,13 años,5.0,4.0,yes,no,no,Flauta de viento,13,,,nada,36.0,yes
68,2024-04-12_11h37.04.728,Experiment4_uns,s177,22.0,masculino,left,Espanya,Catalán y castellano,Bachelor degree,no,no,B,1,conjunction_un,L4,unsyncopated,s1,r1,68,Online_conjL4_un//d.pe.po9.222.1110.wav,zi,pe,bo,sil,lo,po,de,sil1,ru,re,sil2,"['false alarm', 'catch']","[0.8819999999999482, 1.80319999998801]",[1.80319999998801],1.11,no_beat,0.6931999999880099,0.6931999999880099,"[""space"",""space""]",po,4,testConjL3Syn//time_viol.r1.s1.0.wav,3.0,conjunction_syn,syncopated,a,s1,no_rule,time,L3,z,0.7606,6.0,0.0,0.4585,4.0,3.0,Catalan,Nativo,Castellano,Nativo,Inglés,7 años,Francés,13 años,5.0,4.0,yes,no,no,Flauta de viento,13,,,nada,36.0,yes
69,2024-04-12_11h37.04.728,Experiment4_uns,s177,22.0,masculino,left,Espanya,Catalán y castellano,Bachelor degree,no,no,B,1,conjunction_un,L4,unsyncopated,s2,r1,69,Online_conjL4_un//d.pe.po11.1110.222.wav,bo,po,da,sil,zi,pe,de,sil1,lo,ñi,sil2,['catch'],[0.6875999999939495],[0.6875999999939495],0.222,no_beat,0.4655999999939495,0.4655999999939495,"[""space""]",po,4,testConjL3Syn//cat_viol.r2.s2.0.wav,3.0,conjunction_syn,syncopated,b,s2,no_rule,cat,L3,z,0.4603,6.0,0.0,0.4649,4.0,3.0,Catalan,Nativo,Castellano,Nativo,Inglés,7 años,Francés,13 años,5.0,4.0,yes,no,no,Flauta de viento,13,,,nada,36.0,yes
70,2024-04-12_11h37.04.728,Experiment4_uns,s177,22.0,masculino,left,Espanya,Catalán y castellano,Bachelor degree,no,no,B,1,conjunction_un,L4,unsyncopated,s2,r1,70,Online_conjL4_un//d.pe.po8.none.none.wav,ña,re,ci,sil,zi,ru,ñi,sil1,lo,de,sil2,['-'],,,none,none,,,,po,4,testConjL3Syn//time_viol.r2.s1.0.wav,3.0,conjunction_syn,syncopated,b,s1,no_rule,time,L3,z,0.1925,6.0,0.0,0.4698,4.0,3.0,Catalan,Nativo,Castellano,Nativo,Inglés,7 años,Francés,13 años,5.0,4.0,yes,no,no,Flauta de viento,13,,,nada,36.0,yes
71,2024-04-12_11h37.04.728,Experiment4_uns,s177,22.0,masculino,left,Espanya,Catalán y castellano,Bachelor degree,no,no,B,1,conjunction_un,L4,unsyncopated,s2,r2,71,Online_conjL4_un//d.pe.po10.1332.444.wav,re,ñi,po,sil,ja,bu,pe,sil1,nu,ru,sil2,['catch'],[1.2068000000118673],[1.2068000000118673],0.444,no_beat,0.7628000000118673,0.7628000000118673,"[""space""]",po,4,testConjL3Syn//cat_viol.r1.s2.0.wav,3.0,conjunction_syn,syncopated,a,s2,no_rule,cat,L3,m,0.3836,5.0,1.0,0.3537,4.0,3.0,Catalan,Nativo,Castellano,Nativo,Inglés,7 años,Francés,13 años,5.0,4.0,yes,no,no,Flauta de viento,13,,,nada,36.0,yes
72,2024-04-12_11h37.04.728,Experiment4_uns,s177,22.0,masculino,left,Espanya,Catalán y castellano,Bachelor degree,no,no,B,1,conjunction_un,L4,unsyncopated,s1,r2,72,Online_conjL4_un//b.ja.nu12.0.888.wav,ja,ñi,ci,sil,nu,ña,pe,sil1,da,bu,sil2,['catch'],[1.3139999999999645],[1.3139999999999645],0.888,beat,0.4259999999999645,0.4259999999999645,"[""space""]",nu,2,testWhatL1Uns//time_viol.r1.s2.0.wav,4.0,what,unsyncopated,a,s2,no_rule,time,L1,m,1.7399,5.0,1.0,0.5105,4.0,3.0,Catalan,Nativo,Castellano,Nativo,Inglés,7 años,Francés,13 años,5.0,4.0,yes,no,no,Flauta de viento,13,,,nada,36.0,yes
73,2024-04-12_11h37.04.728,Experiment4_uns,s177,22.0,masculino,left,Espanya,Catalán y castellano,Bachelor degree,no,no,B,1,conjunction_un,L4,unsyncopated,s2,r2,73,Online_conjL4_un//b.ja.nu14.888.1776.wav,ru,ñi,re,sil,ja,pe,po,sil1,nu,da,sil2,['catch_delay'],[1.101599999994017],[1.101599999994017],1.776,beat,1.101599999994017,1.101599999994017,,nu,2,testWhatL1Uns//time_viol.r1.s1.0.wav,4.0,what,unsyncopated,a,s1,no_rule,time,L1,z,0.2001,6.0,0.0,0.4695,4.0,3.0,Catalan,Nativo,Castellano,Nativo,Inglés,7 años,Francés,13 años,5.0,4.0,yes,no,no,Flauta de viento,13,,,nada,36.0,yes
74,2024-04-12_11h37.04.728,Experiment4_uns,s177,22.0,masculino,left,Espanya,Catalán y castellano,Bachelor degree,no,no,B,1,conjunction_un,L4,unsyncopated,s1,r1,74,Online_conjL4_un//b.ja.nu13.none.none.wav,zi,pe,de,sil,lo,bu,ru,sil1,ñi,ña,sil2,['-'],[0.2135999999940168],[0.2135999999940168],none,none,,,"[""space""]",nu,2,testWhatL1Uns//r1.s1.0.wav,4.0,what,unsyncopated,a,s1,rule,rule,L1,z,0.2312,7.0,1.0,0.6056,4.0,3.0,Catalan,Nativo,Castellano,Nativo,Inglés,7 años,Francés,13 años,5.0,4.0,yes,no,no,Flauta de viento,13,,,nada,36.0,yes
75,2024-04-12_11h37.04.728,Experiment4_uns,s177,22.0,masculino,left,Espanya,Catalán y castellano,Bachelor degree,no,no,B,1,conjunction_un,L4,unsyncopated,s1,r2,75,Online_conjL4_un//b.ja.nu15.0.888.wav,ja,bu,re,sil,nu,pe,bo,sil1,ñi,ci,sil2,['catch'],[1.3736999999880481],[1.3736999999880481],0.888,beat,0.4856999999880481,0.4856999999880481,"[""space""]",nu,2,testWhatL1Uns//dep_viol.r2.s1.0.wav,4.0,what,unsyncopated,b,s1,no_rule,dep,L1,z,0.0878,6.0,0.0,0.4149,4.0,3.0,Catalan,Nativo,Castellano,Nativo,Inglés,7 años,Francés,13 años,5.0,4.0,yes,no,no,Flauta de viento,13,,,nada,36.0,yes
76,2024-04-12_11h37.04.728,Experiment4_uns,s177,22.0,masculino,left,Espanya,Catalán y castellano,Bachelor degree,no,no,B,1,conjunction_un,L4,unsyncopated,s1,r2,76,Online_conjL4_un//b.ja.nu27.0.888.wav,ja,ñi,bu,sil,nu,ña,ci,sil1,da,po,sil2,['miss'],,,0.888,beat,,,,nu,2,testWhatL1Uns//dep_viol.r2.s2.0.wav,4.0,what,unsyncopated,b,s2,no_rule,dep,L1,z,0.2246,5.0,0.0,0.4343,4.0,3.0,Catalan,Nativo,Castellano,Nativo,Inglés,7 años,Francés,13 años,5.0,4.0,yes,no,no,Flauta de viento,13,,,nada,36.0,yes
77,2024-04-12_11h37.04.728,Experiment4_uns,s177,22.0,masculino,left,Espanya,Catalán y castellano,Bachelor degree,no,no,B,1,conjunction_un,L4,unsyncopated,s2,r2,77,Online_conjL4_un//b.ja.nu26.888.1776.wav,bo,bu,ru,sil,ja,de,ñi,sil1,nu,da,sil2,['catch'],[2.238599999993994],[2.238599999993994],1.776,beat,0.462599999993994,0.462599999993994,"[""space""]",nu,2,testWhatL1Uns//r2.s2.2.wav,4.0,what,unsyncopated,b,s2,rule,rule,L1,m,0.4986,5.0,0.0,0.4391,4.0,3.0,Catalan,Nativo,Castellano,Nativo,Inglés,7 años,Francés,13 años,5.0,4.0,yes,no,no,Flauta de viento,13,,,nada,36.0,yes
78,2024-04-12_11h37.04.728,Experiment4_uns,s177,22.0,masculino,left,Espanya,Catalán y castellano,Bachelor degree,no,no,B,1,conjunction_un,L4,unsyncopated,s1,r1,78,Online_conjL4_un//b.ja.nu25.none.none.wav,zi,da,ru,sil,lo,de,ñi,sil1,re,ña,sil2,['-'],,,none,none,,,,nu,2,testWhatL1Uns//cat_viol.r2.s1.0.wav,4.0,what,unsyncopated,b,s1,no_rule,cat,L1,z,0.7183,7.0,0.0,0.5838,4.0,3.0,Catalan,Nativo,Castellano,Nativo,Inglés,7 años,Francés,13 años,5.0,4.0,yes,no,no,Flauta de viento,13,,,nada,36.0,yes
79,2024-04-12_11h37.04.728,Experiment4_uns,s177,22.0,masculino,left,Espanya,Catalán y castellano,Bachelor degree,no,no,B,1,conjunction_un,L4,unsyncopated,s2,r2,79,Online_conjL4_un//b.ja.nu24.888.1776.wav,pe,re,po,sil,ja,ñi,de,sil1,nu,bo,sil2,['catch'],[2.62030000001198],[2.62030000001198],1.776,beat,0.84430000001198,0.84430000001198,"[""space""]",nu,2,testWhatL1Uns//r2.s1.1.wav,4.0,what,unsyncopated,b,s1,rule,rule,L1,z,0.173,6.0,1.0,0.3741,4.0,3.0,Catalan,Nativo,Castellano,Nativo,Inglés,7 años,Francés,13 años,5.0,4.0,yes,no,no,Flauta de viento,13,,,nada,36.0,yes
80,2024-04-12_11h37.04.728,Experiment4_uns,s177,22.0,masculino,left,Espanya,Catalán y castellano,Bachelor degree,no,no,B,1,conjunction_un,L4,unsyncopated,s2,r1,80,Online_conjL4_un//d.pe.po24.444.1110.wav,de,da,pe,sil,zi,po,re,sil1,lo,bu,sil2,['catch'],[1.6083999999762],[1.6083999999762],1.11,no_beat,0.4983999999761999,0.4983999999761999,"[""space""]",po,4,testWhatL1Uns//r1.s1.1.wav,4.0,what,unsyncopated,a,s1,rule,rule,L1,m,0.1326,5.0,0.0,0.5991,4.0,3.0,Catalan,Nativo,Castellano,Nativo,Inglés,7 años,Francés,13 años,5.0,4.0,yes,no,no,Flauta de viento,13,,,nada,36.0,yes
81,2024-04-12_11h37.04.728,Experiment4_uns,s177,22.0,masculino,left,Espanya,Catalán y castellano,Bachelor degree,no,no,B,1,conjunction_un,L4,unsyncopated,s2,r2,81,Online_conjL4_un//d.pe.po25.none.none.wav,re,bu,ña,sil,ja,bo,de,sil1,nu,da,sil2,['-'],,,none,none,,,,po,4,testWhatL1Uns//r1.s2.1.wav,4.0,what,unsyncopated,a,s2,rule,rule,L1,m,1.3188,5.0,0.0,0.3724,4.0,3.0,Catalan,Nativo,Castellano,Nativo,Inglés,7 años,Francés,13 años,5.0,4.0,yes,no,no,Flauta de viento,13,,,nada,36.0,yes
82,2024-04-12_11h37.04.728,Experiment4_uns,s177,22.0,masculino,left,Espanya,Catalán y castellano,Bachelor degree,no,no,B,1,conjunction_un,L4,unsyncopated,s2,r2,82,Online_conjL4_un//d.pe.po27.none.none.wav,ru,ci,bo,sil,ja,de,ñi,sil1,nu,ña,sil2,['-'],,,none,none,,,,po,4,testWhatL1Uns//r2.s2.1.wav,4.0,what,unsyncopated,b,s2,rule,rule,L1,z,0.6711,6.0,1.0,0.5346,4.0,3.0,Catalan,Nativo,Castellano,Nativo,Inglés,7 años,Francés,13 años,5.0,4.0,yes,no,no,Flauta de viento,13,,,nada,36.0,yes
83,2024-04-12_11h37.04.728,Experiment4_uns,s177,22.0,masculino,left,Espanya,Catalán y castellano,Bachelor degree,no,no,B,1,conjunction_un,L4,unsyncopated,s2,r1,83,Online_conjL4_un//d.pe.po26.none.none.wav,ci,bo,bu,sil,zi,re,ru,sil1,lo,ñi,sil2,['-'],,,none,none,,,,po,4,testWhatL1Uns//r1.s1.2.wav,4.0,what,unsyncopated,a,s1,rule,rule,L1,z,2.1958,6.0,1.0,0.837,4.0,3.0,Catalan,Nativo,Castellano,Nativo,Inglés,7 años,Francés,13 años,5.0,4.0,yes,no,no,Flauta de viento,13,,,nada,36.0,yes
84,2024-04-12_11h37.04.728,Experiment4_uns,s177,22.0,masculino,left,Espanya,Catalán y castellano,Bachelor degree,no,no,B,1,conjunction_un,L4,unsyncopated,s1,r1,84,Online_conjL4_un//b.ja.nu5.none.none.wav,zi,ci,ñi,sil,lo,bo,da,sil1,po,ña,sil2,['-'],,,none,none,,,,nu,2,testWhatL1Uns//time_viol.r2.s1.0.wav,4.0,what,unsyncopated,b,s1,no_rule,time,L1,m,0.1645,5.0,1.0,0.2852,4.0,3.0,Catalan,Nativo,Castellano,Nativo,Inglés,7 años,Francés,13 años,5.0,4.0,yes,no,no,Flauta de viento,13,,,nada,36.0,yes
85,2024-04-12_11h37.04.728,Experiment4_uns,s177,22.0,masculino,left,Espanya,Catalán y castellano,Bachelor degree,no,no,B,1,conjunction_un,L4,unsyncopated,s1,r1,85,Online_conjL4_un//b.ja.nu6.none.none.wav,zi,de,bo,sil,lo,ñi,da,sil1,ña,bu,sil2,['-'],,,none,none,,,,nu,2,testWhatL1Uns//cat_viol.r1.s2.0.wav,4.0,what,unsyncopated,a,s2,no_rule,cat,L1,z,0.2836,6.0,0.0,0.4232,4.0,3.0,Catalan,Nativo,Castellano,Nativo,Inglés,7 años,Francés,13 años,5.0,4.0,yes,no,no,Flauta de viento,13,,,nada,36.0,yes
86,2024-04-12_11h37.04.728,Experiment4_uns,s177,22.0,masculino,left,Espanya,Catalán y castellano,Bachelor degree,no,no,B,1,conjunction_un,L4,unsyncopated,s2,r2,86,Online_conjL4_un//b.ja.nu7.888.1776.wav,pe,bu,bo,sil,ja,de,da,sil1,nu,ña,sil2,['catch'],[2.27150000000006],[2.27150000000006],1.776,beat,0.49550000000006,0.49550000000006,"[""space""]",nu,2,testWhatL1Uns//cat_viol.r2.s2.0.wav,4.0,what,unsyncopated,b,s2,no_rule,cat,L1,z,0.4019,6.0,0.0,0.6071,4.0,3.0,Catalan,Nativo,Castellano,Nativo,Inglés,7 años,Francés,13 años,5.0,4.0,yes,no,no,Flauta de viento,13,,,nada,36.0,yes
87,2024-04-12_11h37.04.728,Experiment4_uns,s177,22.0,masculino,left,Espanya,Catalán y castellano,Bachelor degree,no,no,B,1,conjunction_un,L4,unsyncopated,s2,r1,87,Online_conjL4_un//b.ja.nu4.none.none.wav,ru,pe,bo,sil,zi,ña,ci,sil1,lo,da,sil2,['-'],,,none,none,,,,nu,2,testWhatL1Uns//r2.s1.0.wav,4.0,what,unsyncopated,b,s1,rule,rule,L1,z,0.1425,6.0,1.0,0.4044,4.0,3.0,Catalan,Nativo,Castellano,Nativo,Inglés,7 años,Francés,13 años,5.0,4.0,yes,no,no,Flauta de viento,13,,,nada,36.0,yes
88,2024-04-12_11h37.04.728,Experiment4_uns,s177,22.0,masculino,left,Espanya,Catalán y castellano,Bachelor degree,no,no,B,1,conjunction_un,L4,unsyncopated,s2,r1,88,Online_conjL4_un//a.zi.lo8.888.1776.wav,re,pe,da,sil,zi,de,ña,sil1,lo,ru,sil2,['catch'],[1.2994000000060169],[1.2994000000060169],0.888,beat,0.4114000000060168,0.4114000000060168,"[""space""]",zi,1,testWhatL1Uns//cat_viol.r1.s1.0.wav,4.0,what,unsyncopated,a,s1,no_rule,cat,L1,z,1.447,6.0,0.0,0.5087,4.0,3.0,Catalan,Nativo,Castellano,Nativo,Inglés,7 años,Francés,13 años,5.0,4.0,yes,no,no,Flauta de viento,13,,,nada,36.0,yes
89,2024-04-12_11h37.04.728,Experiment4_uns,s177,22.0,masculino,left,Espanya,Catalán y castellano,Bachelor degree,no,no,B,1,conjunction_un,L4,unsyncopated,s2,r2,89,Online_conjL4_un//a.zi.lo9.none.none.wav,de,po,ña,sil,ja,bu,da,sil1,nu,ñi,sil2,['-'],,,none,none,,,,zi,1,testWhatL1Uns//r2.s2.0.wav,4.0,what,unsyncopated,b,s2,rule,rule,L1,m,0.8912,5.0,0.0,0.6815,4.0,3.0,Catalan,Nativo,Castellano,Nativo,Inglés,7 años,Francés,13 años,5.0,4.0,yes,no,no,Flauta de viento,13,,,nada,36.0,yes
90,2024-04-12_11h37.04.728,Experiment4_uns,s177,22.0,masculino,left,Espanya,Catalán y castellano,Bachelor degree,no,no,B,1,conjunction_un,L4,unsyncopated,s1,r2,90,Online_conjL4_un//a.zi.lo10.none.none.wav,ja,ña,da,sil,nu,re,de,sil1,bu,bo,sil2,['-'],,,none,none,,,,zi,1,testWhatL1Uns//dep_viol.r1.s2.0.wav,4.0,what,unsyncopated,a,s2,no_rule,dep,L1,z,0.4772,6.0,0.0,0.4167,4.0,3.0,Catalan,Nativo,Castellano,Nativo,Inglés,7 años,Francés,13 años,5.0,4.0,yes,no,no,Flauta de viento,13,,,nada,36.0,yes
91,2024-04-12_11h37.04.728,Experiment4_uns,s177,22.0,masculino,left,Espanya,Catalán y castellano,Bachelor degree,no,no,B,1,conjunction_un,L4,unsyncopated,s2,r2,91,Online_conjL4_un//a.zi.lo11.none.none.wav,po,re,ña,sil,ja,bo,ru,sil1,nu,pe,sil2,['-'],,,none,none,,,,zi,1,testWhatL1Uns//r2.s1.2.wav,4.0,what,unsyncopated,b,s1,rule,rule,L1,z,0.4816,6.0,1.0,0.3846,4.0,3.0,Catalan,Nativo,Castellano,Nativo,Inglés,7 años,Francés,13 años,5.0,4.0,yes,no,no,Flauta de viento,13,,,nada,36.0,yes
92,2024-04-12_11h37.04.728,Experiment4_uns,s177,22.0,masculino,left,Espanya,Catalán y castellano,Bachelor degree,no,no,B,1,conjunction_un,L4,unsyncopated,s2,r1,92,Online_conjL4_un//c.bu.da22.1110.0.wav,da,ci,bo,sil,zi,bu,ru,sil1,lo,pe,sil2,['catch'],[0.6900999999941178],[0.6900999999941178],0.0,beat,0.6900999999941178,0.6900999999941178,"[""space""]",da,3,testWhatL1Uns//r1.s2.0.wav,4.0,what,unsyncopated,a,s2,rule,rule,L1,z,0.0233,6.0,1.0,0.5162,4.0,3.0,Catalan,Nativo,Castellano,Nativo,Inglés,7 años,Francés,13 años,5.0,4.0,yes,no,no,Flauta de viento,13,,,nada,36.0,yes
93,2024-04-12_11h37.04.728,Experiment4_uns,s177,22.0,masculino,left,Espanya,Catalán y castellano,Bachelor degree,no,no,B,1,conjunction_un,L4,unsyncopated,s2,r2,93,Online_conjL4_un//c.bu.da21.none.none.wav,de,bo,ñi,sil,ja,ci,po,sil1,nu,re,sil2,['-'],,,none,none,,,,da,3,testWhatL1Uns//dep_viol.r1.s1.0.wav,4.0,what,unsyncopated,a,s1,no_rule,dep,L1,z,0.3682,5.0,0.0,0.371,4.0,3.0,Catalan,Nativo,Castellano,Nativo,Inglés,7 años,Francés,13 años,5.0,4.0,yes,no,no,Flauta de viento,13,,,nada,36.0,yes
94,2024-04-12_11h37.04.728,Experiment4_uns,s177,22.0,masculino,left,Espanya,Catalán y castellano,Bachelor degree,no,no,B,1,conjunction_un,L4,unsyncopated,s2,r1,94,Online_conjL4_un//c.bu.da23.none.none.wav,po,ru,pe,sil,zi,re,ña,sil1,lo,ci,sil2,['-'],,,none,none,,,,da,3,testWhatL1Uns//r1.s2.2.wav,4.0,what,unsyncopated,a,s2,rule,rule,L1,m,0.1645,7.0,0.0,0.6206,4.0,3.0,Catalan,Nativo,Castellano,Nativo,Inglés,7 años,Francés,13 años,5.0,4.0,yes,no,no,Flauta de viento,13,,,nada,36.0,yes
95,2024-04-12_11h37.04.728,Experiment4_uns,s177,22.0,masculino,left,Espanya,Catalán y castellano,Bachelor degree,no,no,B,1,conjunction_un,L4,unsyncopated,s1,r1,95,Online_conjL4_un//c.bu.da20.1332.222.wav,zi,da,pe,sil,lo,ñi,bu,sil1,po,de,sil2,['miss'],,,0.222,no_beat,,,,da,3,testWhatL1Uns//time_viol.r2.s2.0.wav,4.0,what,unsyncopated,b,s2,no_rule,time,L1,m,0.2667,7.0,1.0,0.3838,4.0,3.0,Catalan,Nativo,Castellano,Nativo,Inglés,7 años,Francés,13 años,5.0,4.0,yes,no,no,Flauta de viento,13,,,nada,36.0,yes
96,2024-04-12_11h37.04.728,Experiment4_uns,s177,22.0,masculino,left,Espanya,Catalán y castellano,Bachelor degree,no,no,B,1,conjunction_un,L4,unsyncopated,s1,r2,96,Online_conjL4_un//c.bu.da12.1776.444.wav,ja,po,da,sil,nu,ñi,re,sil1,bu,de,sil2,['miss'],,,0.444,no_beat,,,,da,3,,,,,,,,,,,,,,,4.0,3.0,Catalan,Nativo,Castellano,Nativo,Inglés,7 años,Francés,13 años,5.0,4.0,yes,no,no,Flauta de viento,13,,,nada,36.0,yes
97,2024-04-12_11h37.04.728,Experiment4_uns,s177,22.0,masculino,left,Espanya,Catalán y castellano,Bachelor degree,no,no,B,1,conjunction_un,L4,unsyncopated,s2,r1,97,Online_conjL4_un//c.bu.da14.none.none.wav,po,ru,pe,sil,zi,ñi,de,sil1,lo,ña,sil2,['-'],,,none,none,,,,da,3,,,,,,,,,,,,,,,4.0,3.0,Catalan,Nativo,Castellano,Nativo,Inglés,7 años,Francés,13 años,5.0,4.0,yes,no,no,Flauta de viento,13,,,nada,36.0,yes
98,2024-04-12_11h37.04.728,Experiment4_uns,s177,22.0,masculino,left,Espanya,Catalán y castellano,Bachelor degree,no,no,B,1,conjunction_un,L4,unsyncopated,s2,r2,98,Online_conjL4_un//c.bu.da13.none.none.wav,pe,ru,de,sil,ja,re,bo,sil1,nu,ña,sil2,['-'],,,none,none,,,,da,3,,,,,,,,,,,,,,,4.0,3.0,Catalan,Nativo,Castellano,Nativo,Inglés,7 años,Francés,13 años,5.0,4.0,yes,no,no,Flauta de viento,13,,,nada,36.0,yes
99,2024-04-12_11h37.04.728,Experiment4_uns,s177,22.0,masculino,left,Espanya,Catalán y castellano,Bachelor degree,no,no,B,1,conjunction_un,L4,unsyncopated,s2,r2,99,Online_conjL4_un//c.bu.da15.222.1110.wav,ñi,bu,po,sil,ja,da,re,sil1,nu,pe,sil2,['miss'],,,1.11,no_beat,,,,da,3,,,,,,,,,,,,,,,4.0,3.0,Catalan,Nativo,Castellano,Nativo,Inglés,7 años,Francés,13 años,5.0,4.0,yes,no,no,Flauta de viento,13,,,nada,36.0,yes
100,2024-04-12_11h37.04.728,Experiment4_uns,s177,22.0,masculino,left,Espanya,Catalán y castellano,Bachelor degree,no,no,B,1,conjunction_un,L4,unsyncopated,s1,r1,100,Online_conjL4_un//b.ja.nu9.none.none.wav,zi,de,bu,sil,lo,bo,po,sil1,da,ñi,sil2,['-'],,,none,none,,,,nu,2,,,,,,,,,,,,,,,4.0,3.0,Catalan,Nativo,Castellano,Nativo,Inglés,7 años,Francés,13 años,5.0,4.0,yes,no,no,Flauta de viento,13,,,nada,36.0,yes
101,2024-04-12_11h37.04.728,Experiment4_uns,s177,22.0,masculino,left,Espanya,Catalán y castellano,Bachelor degree,no,no,B,1,conjunction_un,L4,unsyncopated,s2,r1,101,Online_conjL4_un//b.ja.nu10.none.none.wav,bu,da,de,sil,zi,ña,ñi,sil1,lo,ci,sil2,['-'],,,none,none,,,,nu,2,,,,,,,,,,,,,,,4.0,3.0,Catalan,Nativo,Castellano,Nativo,Inglés,7 años,Francés,13 años,5.0,4.0,yes,no,no,Flauta de viento,13,,,nada,36.0,yes
102,2024-04-12_11h37.04.728,Experiment4_uns,s177,22.0,masculino,left,Espanya,Catalán y castellano,Bachelor degree,no,no,B,1,conjunction_un,L4,unsyncopated,s2,r2,102,Online_conjL4_un//b.ja.nu8.888.1776.wav,po,ñi,re,sil,ja,de,da,sil1,nu,pe,sil2,['catch'],[2.3526000000238128],[2.3526000000238128],1.776,beat,0.5766000000238127,0.5766000000238127,"[""space""]",nu,2,,,,,,,,,,,,,,,4.0,3.0,Catalan,Nativo,Castellano,Nativo,Inglés,7 años,Francés,13 años,5.0,4.0,yes,no,no,Flauta de viento,13,,,nada,36.0,yes
103,2024-04-12_11h37.04.728,Experiment4_uns,s177,22.0,masculino,left,Espanya,Catalán y castellano,Bachelor degree,no,no,B,1,conjunction_un,L4,unsyncopated,s2,r1,103,Online_conjL4_un//b.ja.nu11.none.none.wav,ci,re,bu,sil,zi,da,ña,sil1,lo,ru,sil2,['-'],,,none,none,,,,nu,2,,,,,,,,,,,,,,,4.0,3.0,Catalan,Nativo,Castellano,Nativo,Inglés,7 años,Francés,13 años,5.0,4.0,yes,no,no,Flauta de viento,13,,,nada,36.0,yes
104,2024-04-12_11h37.04.728,Experiment4_uns,s177,22.0,masculino,left,Espanya,Catalán y castellano,Bachelor degree,no,no,B,1,conjunction_un,L4,unsyncopated,s1,r2,104,Online_conjL4_un//d.pe.po0.none.none.wav,ja,ci,ñi,sil,nu,ru,da,sil1,de,ña,sil2,['-'],,,none,none,,,,po,4,,,,,,,,,,,,,,,4.0,3.0,Catalan,Nativo,Castellano,Nativo,Inglés,7 años,Francés,13 años,5.0,4.0,yes,no,no,Flauta de viento,13,,,nada,36.0,yes
105,2024-04-12_11h37.04.728,Experiment4_uns,s177,22.0,masculino,left,Espanya,Catalán y castellano,Bachelor degree,no,no,B,1,conjunction_un,L4,unsyncopated,s1,r2,105,Online_conjL4_un//d.pe.po2.none.none.wav,ja,ña,ru,sil,nu,bu,de,sil1,ci,re,sil2,['-'],,,none,none,,,,po,4,,,,,,,,,,,,,,,4.0,3.0,Catalan,Nativo,Castellano,Nativo,Inglés,7 años,Francés,13 años,5.0,4.0,yes,no,no,Flauta de viento,13,,,nada,36.0,yes
106,2024-04-12_11h37.04.728,Experiment4_uns,s177,22.0,masculino,left,Espanya,Catalán y castellano,Bachelor degree,no,no,B,1,conjunction_un,L4,unsyncopated,s2,r2,106,Online_conjL4_un//d.pe.po1.444.0.wav,po,bu,pe,sil,ja,ñi,ña,sil1,nu,ru,sil2,['catch'],[0.4714999999998781],[0.4714999999998781],0.0,beat,0.4714999999998781,0.4714999999998781,"[""space""]",po,4,,,,,,,,,,,,,,,4.0,3.0,Catalan,Nativo,Castellano,Nativo,Inglés,7 años,Francés,13 años,5.0,4.0,yes,no,no,Flauta de viento,13,,,nada,36.0,yes
107,2024-04-12_11h37.04.728,Experiment4_uns,s177,22.0,masculino,left,Espanya,Catalán y castellano,Bachelor degree,no,no,B,1,conjunction_un,L4,unsyncopated,s1,r1,107,Online_conjL4_un//d.pe.po3.none.none.wav,zi,ci,ñi,sil,lo,re,ru,sil1,bu,da,sil2,['-'],,,none,none,,,,po,4,,,,,,,,,,,,,,,4.0,3.0,Catalan,Nativo,Castellano,Nativo,Inglés,7 años,Francés,13 años,5.0,4.0,yes,no,no,Flauta de viento,13,,,nada,36.0,yes
108,2024-04-12_11h37.04.728,Experiment4_uns,s177,22.0,masculino,left,Espanya,Catalán y castellano,Bachelor degree,no,no,B,1,conjunction_un,L4,unsyncopated,s1,r1,108,Online_conjL4_un//d.pe.po7.1110.222.wav,zi,po,ña,sil,lo,pe,ru,sil1,da,re,sil2,['catch'],[0.7465999999940323],[0.7465999999940323],0.222,no_beat,0.5245999999940323,0.5245999999940323,"[""space""]",po,4,,,,,,,,,,,,,,,4.0,3.0,Catalan,Nativo,Castellano,Nativo,Inglés,7 años,Francés,13 años,5.0,4.0,yes,no,no,Flauta de viento,13,,,nada,36.0,yes
109,2024-04-12_11h37.04.728,Experiment4_uns,s177,22.0,masculino,left,Espanya,Catalán y castellano,Bachelor degree,no,no,B,1,conjunction_un,L4,unsyncopated,s1,r1,109,Online_conjL4_un//d.pe.po5.none.none.wav,zi,de,re,sil,lo,ru,ci,sil1,bo,bu,sil2,['-'],,,none,none,,,,po,4,,,,,,,,,,,,,,,4.0,3.0,Catalan,Nativo,Castellano,Nativo,Inglés,7 años,Francés,13 años,5.0,4.0,yes,no,no,Flauta de viento,13,,,nada,36.0,yes
110,2024-04-12_11h37.04.728,Experiment4_uns,s177,22.0,masculino,left,Espanya,Catalán y castellano,Bachelor degree,no,no,B,1,conjunction_un,L4,unsyncopated,s2,r1,110,Online_conjL4_un//d.pe.po4.0.1110.wav,pe,ru,da,sil,zi,po,ñi,sil1,lo,bu,sil2,['false alarm'],[0.006499999999959982],[0.006499999999959982],1.11,no_beat,,,"[""space""]",po,4,,,,,,,,,,,,,,,4.0,3.0,Catalan,Nativo,Castellano,Nativo,Inglés,7 años,Francés,13 años,5.0,4.0,yes,no,no,Flauta de viento,13,,,nada,36.0,yes
111,2024-04-12_11h37.04.728,Experiment4_uns,s177,22.0,masculino,left,Espanya,Catalán y castellano,Bachelor degree,no,no,B,1,conjunction_un,L4,unsyncopated,s1,r2,111,Online_conjL4_un//d.pe.po6.1110.222.wav,ja,po,de,sil,nu,pe,da,sil1,ru,bo,sil2,['miss'],,,0.222,no_beat,,,,po,4,,,,,,,,,,,,,,,4.0,3.0,Catalan,Nativo,Castellano,Nativo,Inglés,7 años,Francés,13 años,5.0,4.0,yes,no,no,Flauta de viento,13,,,nada,36.0,yes
112,2024-04-12_11h37.04.728,Experiment4_uns,s177,22.0,masculino,left,Espanya,Catalán y castellano,Bachelor degree,no,no,B,1,conjunction_un,L4,unsyncopated,s1,r2,112,Online_conjL4_un//d.pe.po30.1776.1110.wav,ja,ñi,ru,sil,nu,po,ña,sil1,pe,da,sil2,['miss'],,,1.11,no_beat,,,,po,4,,,,,,,,,,,,,,,4.0,3.0,Catalan,Nativo,Castellano,Nativo,Inglés,7 años,Francés,13 años,5.0,4.0,yes,no,no,Flauta de viento,13,,,nada,36.0,yes
113,2024-04-12_11h37.04.728,Experiment4_uns,s177,22.0,masculino,left,Espanya,Catalán y castellano,Bachelor degree,no,no,B,1,conjunction_un,L4,unsyncopated,s1,r2,113,Online_conjL4_un//d.pe.po31.none.none.wav,ja,re,ña,sil,nu,bo,ci,sil1,bu,de,sil2,['-'],,,none,none,,,,po,4,,,,,,,,,,,,,,,4.0,3.0,Catalan,Nativo,Castellano,Nativo,Inglés,7 años,Francés,13 años,5.0,4.0,yes,no,no,Flauta de viento,13,,,nada,36.0,yes
114,2024-04-12_11h37.04.728,Experiment4_uns,s177,22.0,masculino,left,Espanya,Catalán y castellano,Bachelor degree,no,no,B,1,conjunction_un,L4,unsyncopated,s1,r1,114,Online_conjL4_un//d.pe.po28.444.1332.wav,zi,ci,pe,sil,lo,ñi,po,sil1,ña,da,sil2,['miss'],,,1.332,no_beat,,,,po,4,,,,,,,,,,,,,,,4.0,3.0,Catalan,Nativo,Castellano,Nativo,Inglés,7 años,Francés,13 años,5.0,4.0,yes,no,no,Flauta de viento,13,,,nada,36.0,yes
115,2024-04-12_11h37.04.728,Experiment4_uns,s177,22.0,masculino,left,Espanya,Catalán y castellano,Bachelor degree,no,no,B,1,conjunction_un,L4,unsyncopated,s2,r1,115,Online_conjL4_un//d.pe.po29.none.none.wav,bo,ña,bu,sil,zi,ru,ci,sil1,lo,de,sil2,['-'],,,none,none,,,,po,4,,,,,,,,,,,,,,,4.0,3.0,Catalan,Nativo,Castellano,Nativo,Inglés,7 años,Francés,13 años,5.0,4.0,yes,no,no,Flauta de viento,13,,,nada,36.0,yes
116,2024-04-12_11h37.04.728,Experiment4_uns,s177,22.0,masculino,left,Espanya,Catalán y castellano,Bachelor degree,no,no,B,1,conjunction_un,L4,unsyncopated,s2,r2,116,Online_conjL4_un//b.ja.nu30.888.1776.wav,pe,re,ña,sil,ja,po,de,sil1,nu,da,sil2,['catch'],[2.365700000017796],[2.365700000017796],1.776,beat,0.5897000000177959,0.5897000000177959,"[""space""]",nu,2,,,,,,,,,,,,,,,4.0,3.0,Catalan,Nativo,Castellano,Nativo,Inglés,7 años,Francés,13 años,5.0,4.0,yes,no,no,Flauta de viento,13,,,nada,36.0,yes
117,2024-04-12_11h37.04.728,Experiment4_uns,s177,22.0,masculino,left,Espanya,Catalán y castellano,Bachelor degree,no,no,B,1,conjunction_un,L4,unsyncopated,s2,r1,117,Online_conjL4_un//b.ja.nu29.none.none.wav,ci,da,po,sil,zi,bu,de,sil1,lo,ña,sil2,['-'],,,none,none,,,,nu,2,,,,,,,,,,,,,,,4.0,3.0,Catalan,Nativo,Castellano,Nativo,Inglés,7 años,Francés,13 años,5.0,4.0,yes,no,no,Flauta de viento,13,,,nada,36.0,yes
118,2024-04-12_11h37.04.728,Experiment4_uns,s177,22.0,masculino,left,Espanya,Catalán y castellano,Bachelor degree,no,no,B,1,conjunction_un,L4,unsyncopated,s1,r1,118,Online_conjL4_un//b.ja.nu28.none.none.wav,zi,po,pe,sil,lo,bo,ñi,sil1,re,ci,sil2,['-'],,,none,none,,,,nu,2,,,,,,,,,,,,,,,4.0,3.0,Catalan,Nativo,Castellano,Nativo,Inglés,7 años,Francés,13 años,5.0,4.0,yes,no,no,Flauta de viento,13,,,nada,36.0,yes
119,2024-04-12_11h37.04.728,Experiment4_uns,s177,22.0,masculino,left,Espanya,Catalán y castellano,Bachelor degree,no,no,B,1,conjunction_un,L4,unsyncopated,s2,r1,119,Online_conjL4_un//b.ja.nu31.none.none.wav,ru,pe,ñi,sil,zi,ña,da,sil1,lo,ci,sil2,['-'],,,none,none,,,,nu,2,,,,,,,,,,,,,,,4.0,3.0,Catalan,Nativo,Castellano,Nativo,Inglés,7 años,Francés,13 años,5.0,4.0,yes,no,no,Flauta de viento,13,,,nada,36.0,yes
120,2024-04-12_11h37.04.728,Experiment4_uns,s177,22.0,masculino,left,Espanya,Catalán y castellano,Bachelor degree,no,no,B,1,conjunction_un,L4,unsyncopated,s2,r2,120,Online_conjL4_un//a.zi.lo17.none.none.wav,re,pe,ru,sil,ja,bu,ña,sil1,nu,po,sil2,['-'],,,none,none,,,,zi,1,,,,,,,,,,,,,,,4.0,3.0,Catalan,Nativo,Castellano,Nativo,Inglés,7 años,Francés,13 años,5.0,4.0,yes,no,no,Flauta de viento,13,,,nada,36.0,yes
121,2024-04-12_11h37.04.728,Experiment4_uns,s177,22.0,masculino,left,Espanya,Catalán y castellano,Bachelor degree,no,no,B,1,conjunction_un,L4,unsyncopated,s1,r1,121,Online_conjL4_un//a.zi.lo16.0.888.wav,zi,ci,ru,sil,lo,bu,de,sil1,da,po,sil2,['catch'],[0.4219000000059623],[0.4219000000059623],0.0,beat,0.4219000000059623,0.4219000000059623,"[""space""]",zi,1,,,,,,,,,,,,,,,4.0,3.0,Catalan,Nativo,Castellano,Nativo,Inglés,7 años,Francés,13 años,5.0,4.0,yes,no,no,Flauta de viento,13,,,nada,36.0,yes
122,2024-04-12_11h37.04.728,Experiment4_uns,s177,22.0,masculino,left,Espanya,Catalán y castellano,Bachelor degree,no,no,B,1,conjunction_un,L4,unsyncopated,s1,r2,122,Online_conjL4_un//a.zi.lo19.none.none.wav,ja,bo,po,sil,nu,pe,re,sil1,ci,ña,sil2,['false alarm'],[2.1864000000059605],[2.1864000000059605],none,none,,,"[""space""]",zi,1,,,,,,,,,,,,,,,4.0,3.0,Catalan,Nativo,Castellano,Nativo,Inglés,7 años,Francés,13 años,5.0,4.0,yes,no,no,Flauta de viento,13,,,nada,36.0,yes
123,2024-04-12_11h37.04.728,Experiment4_uns,s177,22.0,masculino,left,Espanya,Catalán y castellano,Bachelor degree,no,no,B,1,conjunction_un,L4,unsyncopated,s2,r1,123,Online_conjL4_un//a.zi.lo18.888.1776.wav,po,da,ña,sil,zi,re,ci,sil1,lo,de,sil2,['catch'],[1.720700000017814],[1.720700000017814],0.888,beat,0.8327000000178141,0.8327000000178141,"[""space""]",zi,1,,,,,,,,,,,,,,,4.0,3.0,Catalan,Nativo,Castellano,Nativo,Inglés,7 años,Francés,13 años,5.0,4.0,yes,no,no,Flauta de viento,13,,,nada,36.0,yes
124,2024-04-12_11h37.04.728,Experiment4_uns,s177,22.0,masculino,left,Espanya,Catalán y castellano,Bachelor degree,no,no,B,1,conjunction_un,L4,unsyncopated,s2,r2,124,Online_conjL4_un//a.zi.lo12.none.none.wav,re,bo,pe,sil,ja,bu,ru,sil1,nu,de,sil2,['-'],,,none,none,,,,zi,1,,,,,,,,,,,,,,,4.0,3.0,Catalan,Nativo,Castellano,Nativo,Inglés,7 años,Francés,13 años,5.0,4.0,yes,no,no,Flauta de viento,13,,,nada,36.0,yes
125,2024-04-12_11h37.04.728,Experiment4_uns,s177,22.0,masculino,left,Espanya,Catalán y castellano,Bachelor degree,no,no,B,1,conjunction_un,L4,unsyncopated,s1,r1,125,Online_conjL4_un//a.zi.lo14.0.888.wav,zi,po,ñi,sil,lo,bo,da,sil1,pe,bu,sil2,['miss'],,,0.0,beat,,,,zi,1,,,,,,,,,,,,,,,4.0,3.0,Catalan,Nativo,Castellano,Nativo,Inglés,7 años,Francés,13 años,5.0,4.0,yes,no,no,Flauta de viento,13,,,nada,36.0,yes
126,2024-04-12_11h37.04.728,Experiment4_uns,s177,22.0,masculino,left,Espanya,Catalán y castellano,Bachelor degree,no,no,B,1,conjunction_un,L4,unsyncopated,s2,r2,126,Online_conjL4_un//a.zi.lo13.none.none.wav,re,ña,bo,sil,ja,bu,ñi,sil1,nu,da,sil2,['-'],,,none,none,,,,zi,1,,,,,,,,,,,,,,,4.0,3.0,Catalan,Nativo,Castellano,Nativo,Inglés,7 años,Francés,13 años,5.0,4.0,yes,no,no,Flauta de viento,13,,,nada,36.0,yes
127,2024-04-12_11h37.04.728,Experiment4_uns,s177,22.0,masculino,left,Espanya,Catalán y castellano,Bachelor degree,no,no,B,1,conjunction_un,L4,unsyncopated,s2,r2,127,Online_conjL4_un//a.zi.lo15.none.none.wav,po,ñi,pe,sil,ja,da,bo,sil1,nu,de,sil2,['-'],,,none,none,,,,zi,1,,,,,,,,,,,,,,,4.0,3.0,Catalan,Nativo,Castellano,Nativo,Inglés,7 años,Francés,13 años,5.0,4.0,yes,no,no,Flauta de viento,13,,,nada,36.0,yes
128,2024-04-12_11h37.04.728,Experiment4_uns,s177,22.0,masculino,left,Espanya,Catalán y castellano,Bachelor degree,no,no,B,2,when,L2,unsyncopated,when,when,0,Online_whenL2//a.du19.none.wav,su,ñu,to,sil,bi,fe,me,sil1,ño,go,sil2,['-'],,,none,none,,,,du,1,,,,,,,,,,,,,,,4.0,3.0,Catalan,Nativo,Castellano,Nativo,Inglés,7 años,Francés,13 años,5.0,4.0,yes,no,no,Flauta de viento,13,,,nada,36.0,yes
129,2024-04-12_11h37.04.728,Experiment4_uns,s177,22.0,masculino,left,Espanya,Catalán y castellano,Bachelor degree,no,no,B,2,when,L2,unsyncopated,when,when,1,Online_whenL2//a.du18.none.wav,go,fe,te,sil,si,cha,ba,sil1,ño,to,sil2,['-'],,,none,none,,,,du,1,,,,,,,,,,,,,,,4.0,3.0,Catalan,Nativo,Castellano,Nativo,Inglés,7 años,Francés,13 años,5.0,4.0,yes,no,no,Flauta de viento,13,,,nada,36.0,yes
130,2024-04-12_11h37.04.728,Experiment4_uns,s177,22.0,masculino,left,Espanya,Catalán y castellano,Bachelor degree,no,no,B,2,when,L2,unsyncopated,when,when,2,Online_whenL2//a.du16.none.wav,ñu,te,to,sil,su,me,si,sil1,ra,fe,sil2,['false alarm'],[0.6878000000119755],[0.6878000000119755],none,none,,,"[""space""]",du,1,,,,,,,,,,,,,,,4.0,3.0,Catalan,Nativo,Castellano,Nativo,Inglés,7 años,Francés,13 años,5.0,4.0,yes,no,no,Flauta de viento,13,,,nada,36.0,yes
131,2024-04-12_11h37.04.728,Experiment4_uns,s177,22.0,masculino,left,Espanya,Catalán y castellano,Bachelor degree,no,no,B,2,when,L2,unsyncopated,when,when,3,Online_whenL2//a.du17.none.wav,ra,go,su,sil,me,si,cha,sil1,bi,te,sil2,['-'],,,none,none,,,,du,1,,,,,,,,,,,,,,,4.0,3.0,Catalan,Nativo,Castellano,Nativo,Inglés,7 años,Francés,13 años,5.0,4.0,yes,no,no,Flauta de viento,13,,,nada,36.0,yes
132,2024-04-12_11h37.04.728,Experiment4_uns,s177,22.0,masculino,left,Espanya,Catalán y castellano,Bachelor degree,no,no,B,2,when,L2,unsyncopated,when,when,4,Online_whenL2//d.si29.888.wav,cha,me,su,sil,si,mi,te,sil1,ra,go,sil2,['miss'],,,0.888,beat,,,,si,4,,,,,,,,,,,,,,,4.0,3.0,Catalan,Nativo,Castellano,Nativo,Inglés,7 años,Francés,13 años,5.0,4.0,yes,no,no,Flauta de viento,13,,,nada,36.0,yes
133,2024-04-12_11h37.04.728,Experiment4_uns,s177,22.0,masculino,left,Espanya,Catalán y castellano,Bachelor degree,no,no,B,2,when,L2,unsyncopated,when,when,5,Online_whenL2//d.si31.none.wav,su,ba,te,sil,ra,ño,to,sil1,mi,go,sil2,['-'],,,none,none,,,,si,4,,,,,,,,,,,,,,,4.0,3.0,Catalan,Nativo,Castellano,Nativo,Inglés,7 años,Francés,13 años,5.0,4.0,yes,no,no,Flauta de viento,13,,,nada,36.0,yes
134,2024-04-12_11h37.04.728,Experiment4_uns,s177,22.0,masculino,left,Espanya,Catalán y castellano,Bachelor degree,no,no,B,2,when,L2,unsyncopated,when,when,6,Online_whenL2//d.si30.none.wav,me,ba,cha,sil,ño,te,bi,sil1,du,go,sil2,['-'],,,none,none,,,,si,4,,,,,,,,,,,,,,,4.0,3.0,Catalan,Nativo,Castellano,Nativo,Inglés,7 años,Francés,13 años,5.0,4.0,yes,no,no,Flauta de viento,13,,,nada,36.0,yes
135,2024-04-12_11h37.04.728,Experiment4_uns,s177,22.0,masculino,left,Espanya,Catalán y castellano,Bachelor degree,no,no,B,2,when,L2,unsyncopated,when,when,7,Online_whenL2//d.si28.888.wav,ñu,fe,bi,sil,si,cha,to,sil1,du,ba,sil2,['catch'],[1.5257000000178778],[1.5257000000178778],0.888,beat,0.6377000000178777,0.6377000000178777,"[""space""]",si,4,,,,,,,,,,,,,,,4.0,3.0,Catalan,Nativo,Castellano,Nativo,Inglés,7 años,Francés,13 años,5.0,4.0,yes,no,no,Flauta de viento,13,,,nada,36.0,yes
136,2024-04-12_11h37.04.728,Experiment4_uns,s177,22.0,masculino,left,Espanya,Catalán y castellano,Bachelor degree,no,no,B,2,when,L2,unsyncopated,when,when,8,Online_whenL2//d.si10.none.wav,to,bi,fe,sil,me,mi,ra,sil1,ba,cha,sil2,['-'],,,none,none,,,,si,4,,,,,,,,,,,,,,,4.0,3.0,Catalan,Nativo,Castellano,Nativo,Inglés,7 años,Francés,13 años,5.0,4.0,yes,no,no,Flauta de viento,13,,,nada,36.0,yes
137,2024-04-12_11h37.04.728,Experiment4_uns,s177,22.0,masculino,left,Espanya,Catalán y castellano,Bachelor degree,no,no,B,2,when,L2,unsyncopated,when,when,9,Online_whenL2//d.si8.none.wav,ñu,su,fe,sil,ra,ño,me,sil1,cha,mi,sil2,['false alarm'],[1.4035000000001219],[1.4035000000001219],none,none,,,"[""space""]",si,4,,,,,,,,,,,,,,,4.0,3.0,Catalan,Nativo,Castellano,Nativo,Inglés,7 años,Francés,13 años,5.0,4.0,yes,no,no,Flauta de viento,13,,,nada,36.0,yes
138,2024-04-12_11h37.04.728,Experiment4_uns,s177,22.0,masculino,left,Espanya,Catalán y castellano,Bachelor degree,no,no,B,2,when,L2,unsyncopated,when,when,10,Online_whenL2//d.si9.none.wav,du,su,to,sil,ba,ra,mi,sil1,te,ño,sil2,['-'],,,none,none,,,,si,4,,,,,,,,,,,,,,,4.0,3.0,Catalan,Nativo,Castellano,Nativo,Inglés,7 años,Francés,13 años,5.0,4.0,yes,no,no,Flauta de viento,13,,,nada,36.0,yes
139,2024-04-12_11h37.04.728,Experiment4_uns,s177,22.0,masculino,left,Espanya,Catalán y castellano,Bachelor degree,no,no,B,2,when,L2,unsyncopated,when,when,11,Online_whenL2//d.si11.none.wav,to,mi,me,sil,ra,ñu,cha,sil1,su,du,sil2,['-'],,,none,none,,,,si,4,,,,,,,,,,,,,,,4.0,3.0,Catalan,Nativo,Castellano,Nativo,Inglés,7 años,Francés,13 años,5.0,4.0,yes,no,no,Flauta de viento,13,,,nada,36.0,yes
140,2024-04-12_11h37.04.728,Experiment4_uns,s177,22.0,masculino,left,Espanya,Catalán y castellano,Bachelor degree,no,no,B,2,when,L2,unsyncopated,when,when,12,Online_whenL2//c.cha13.888.wav,te,me,ba,sil,cha,bi,si,sil1,fe,du,sil2,['catch'],[1.249799999982315],[1.249799999982315],0.888,beat,0.361799999982315,0.361799999982315,"[""space""]",cha,3,,,,,,,,,,,,,,,4.0,3.0,Catalan,Nativo,Castellano,Nativo,Inglés,7 años,Francés,13 años,5.0,4.0,yes,no,no,Flauta de viento,13,,,nada,36.0,yes
141,2024-04-12_11h37.04.728,Experiment4_uns,s177,22.0,masculino,left,Espanya,Catalán y castellano,Bachelor degree,no,no,B,2,when,L2,unsyncopated,when,when,13,Online_whenL2//c.cha15.none.wav,si,su,ñu,sil,mi,ba,ra,sil1,to,go,sil2,['-'],,,none,none,,,,cha,3,,,,,,,,,,,,,,,4.0,3.0,Catalan,Nativo,Castellano,Nativo,Inglés,7 años,Francés,13 años,5.0,4.0,yes,no,no,Flauta de viento,13,,,nada,36.0,yes
142,2024-04-12_11h37.04.728,Experiment4_uns,s177,22.0,masculino,left,Espanya,Catalán y castellano,Bachelor degree,no,no,B,2,when,L2,unsyncopated,when,when,14,Online_whenL2//c.cha12.444.wav,du,ba,cha,sil,te,bi,ño,sil1,ñu,fe,sil2,['miss'],,,0.444,no_beat,,,,cha,3,,,,,,,,,,,,,,,4.0,3.0,Catalan,Nativo,Castellano,Nativo,Inglés,7 años,Francés,13 años,5.0,4.0,yes,no,no,Flauta de viento,13,,,nada,36.0,yes
143,2024-04-12_11h37.04.728,Experiment4_uns,s177,22.0,masculino,left,Espanya,Catalán y castellano,Bachelor degree,no,no,B,2,when,L2,unsyncopated,when,when,15,Online_whenL2//c.cha14.none.wav,go,te,ñu,sil,mi,bi,ba,sil1,ño,du,sil2,['-'],,,none,none,,,,cha,3,,,,,,,,,,,,,,,4.0,3.0,Catalan,Nativo,Castellano,Nativo,Inglés,7 años,Francés,13 años,5.0,4.0,yes,no,no,Flauta de viento,13,,,nada,36.0,yes
144,2024-04-12_11h37.04.728,Experiment4_uns,s177,22.0,masculino,left,Espanya,Catalán y castellano,Bachelor degree,no,no,B,2,when,L2,unsyncopated,when,when,16,Online_whenL2//c.cha22.none.wav,ra,to,mi,sil,bi,te,ba,sil1,fe,ñu,sil2,['-'],,,none,none,,,,cha,3,,,,,,,,,,,,,,,4.0,3.0,Catalan,Nativo,Castellano,Nativo,Inglés,7 años,Francés,13 años,5.0,4.0,yes,no,no,Flauta de viento,13,,,nada,36.0,yes
145,2024-04-12_11h37.04.728,Experiment4_uns,s177,22.0,masculino,left,Espanya,Catalán y castellano,Bachelor degree,no,no,B,2,when,L2,unsyncopated,when,when,17,Online_whenL2//c.cha20.none.wav,fe,ño,mi,sil,ra,su,ba,sil1,ñu,to,sil2,['-'],,,none,none,,,,cha,3,,,,,,,,,,,,,,,4.0,3.0,Catalan,Nativo,Castellano,Nativo,Inglés,7 años,Francés,13 años,5.0,4.0,yes,no,no,Flauta de viento,13,,,nada,36.0,yes
146,2024-04-12_11h37.04.728,Experiment4_uns,s177,22.0,masculino,left,Espanya,Catalán y castellano,Bachelor degree,no,no,B,2,when,L2,unsyncopated,when,when,18,Online_whenL2//c.cha21.1998.wav,si,du,ñu,sil,mi,go,to,sil1,ño,cha,sil2,['miss'],,,1.998,no_beat,,,,cha,3,,,,,,,,,,,,,,,4.0,3.0,Catalan,Nativo,Castellano,Nativo,Inglés,7 años,Francés,13 años,5.0,4.0,yes,no,no,Flauta de viento,13,,,nada,36.0,yes
147,2024-04-12_11h37.04.728,Experiment4_uns,s177,22.0,masculino,left,Espanya,Catalán y castellano,Bachelor degree,no,no,B,2,when,L2,unsyncopated,when,when,19,Online_whenL2//c.cha23.none.wav,me,ba,fe,sil,ño,ñu,mi,sil1,go,te,sil2,['-'],,,none,none,,,,cha,3,,,,,,,,,,,,,,,4.0,3.0,Catalan,Nativo,Castellano,Nativo,Inglés,7 años,Francés,13 años,5.0,4.0,yes,no,no,Flauta de viento,13,,,nada,36.0,yes
148,2024-04-12_11h37.04.728,Experiment4_uns,s177,22.0,masculino,left,Espanya,Catalán y castellano,Bachelor degree,no,no,B,2,when,L2,unsyncopated,when,when,20,Online_whenL2//b.fe1.none.wav,du,te,ba,sil,ra,mi,cha,sil1,ñu,to,sil2,['-'],,,none,none,,,,fe,2,,,,,,,,,,,,,,,4.0,3.0,Catalan,Nativo,Castellano,Nativo,Inglés,7 años,Francés,13 años,5.0,4.0,yes,no,no,Flauta de viento,13,,,nada,36.0,yes
149,2024-04-12_11h37.04.728,Experiment4_uns,s177,22.0,masculino,left,Espanya,Catalán y castellano,Bachelor degree,no,no,B,2,when,L2,unsyncopated,when,when,21,Online_whenL2//b.fe0.none.wav,te,go,to,sil,si,ra,ño,sil1,cha,su,sil2,['-'],,,none,none,,,,fe,2,,,,,,,,,,,,,,,4.0,3.0,Catalan,Nativo,Castellano,Nativo,Inglés,7 años,Francés,13 años,5.0,4.0,yes,no,no,Flauta de viento,13,,,nada,36.0,yes
150,2024-04-12_11h37.04.728,Experiment4_uns,s177,22.0,masculino,left,Espanya,Catalán y castellano,Bachelor degree,no,no,B,2,when,L2,unsyncopated,when,when,22,Online_whenL2//b.fe3.1110.wav,me,mi,ñu,sil,bi,fe,si,sil1,to,go,sil2,['catch'],[1.6726999999880263],[1.6726999999880263],1.11,no_beat,0.5626999999880262,0.5626999999880262,"[""space""]",fe,2,,,,,,,,,,,,,,,4.0,3.0,Catalan,Nativo,Castellano,Nativo,Inglés,7 años,Francés,13 años,5.0,4.0,yes,no,no,Flauta de viento,13,,,nada,36.0,yes
151,2024-04-12_11h37.04.728,Experiment4_uns,s177,22.0,masculino,left,Espanya,Catalán y castellano,Bachelor degree,no,no,B,2,when,L2,unsyncopated,when,when,23,Online_whenL2//b.fe2.1332.wav,ñu,bi,mi,sil,ra,cha,fe,sil1,ba,si,sil2,['catch'],[2.054300000012063],[2.054300000012063],1.332,no_beat,0.7223000000120627,0.7223000000120627,"[""space""]",fe,2,,,,,,,,,,,,,,,4.0,3.0,Catalan,Nativo,Castellano,Nativo,Inglés,7 años,Francés,13 años,5.0,4.0,yes,no,no,Flauta de viento,13,,,nada,36.0,yes
152,2024-04-12_11h37.04.728,Experiment4_uns,s177,22.0,masculino,left,Espanya,Catalán y castellano,Bachelor degree,no,no,B,2,when,L2,unsyncopated,when,when,24,Online_whenL2//b.fe12.none.wav,su,si,te,sil,cha,go,ñu,sil1,to,du,sil2,['-'],,,none,none,,,,fe,2,,,,,,,,,,,,,,,4.0,3.0,Catalan,Nativo,Castellano,Nativo,Inglés,7 años,Francés,13 años,5.0,4.0,yes,no,no,Flauta de viento,13,,,nada,36.0,yes
153,2024-04-12_11h37.04.728,Experiment4_uns,s177,22.0,masculino,left,Espanya,Catalán y castellano,Bachelor degree,no,no,B,2,when,L2,unsyncopated,when,when,25,Online_whenL2//b.fe15.none.wav,ño,su,to,sil,du,me,go,sil1,cha,mi,sil2,['-'],,,none,none,,,,fe,2,,,,,,,,,,,,,,,4.0,3.0,Catalan,Nativo,Castellano,Nativo,Inglés,7 años,Francés,13 años,5.0,4.0,yes,no,no,Flauta de viento,13,,,nada,36.0,yes
154,2024-04-12_11h37.04.728,Experiment4_uns,s177,22.0,masculino,left,Espanya,Catalán y castellano,Bachelor degree,no,no,B,2,when,L2,unsyncopated,when,when,26,Online_whenL2//b.fe14.none.wav,ra,du,ba,sil,to,bi,su,sil1,te,ñu,sil2,['-'],,,none,none,,,,fe,2,,,,,,,,,,,,,,,4.0,3.0,Catalan,Nativo,Castellano,Nativo,Inglés,7 años,Francés,13 años,5.0,4.0,yes,no,no,Flauta de viento,13,,,nada,36.0,yes
155,2024-04-12_11h37.04.728,Experiment4_uns,s177,22.0,masculino,left,Espanya,Catalán y castellano,Bachelor degree,no,no,B,2,when,L2,unsyncopated,when,when,27,Online_whenL2//b.fe13.none.wav,te,su,ra,sil,si,go,ba,sil1,me,mi,sil2,['-'],,,none,none,,,,fe,2,,,,,,,,,,,,,,,4.0,3.0,Catalan,Nativo,Castellano,Nativo,Inglés,7 años,Francés,13 años,5.0,4.0,yes,no,no,Flauta de viento,13,,,nada,36.0,yes
156,2024-04-12_11h37.04.728,Experiment4_uns,s177,22.0,masculino,left,Espanya,Catalán y castellano,Bachelor degree,no,no,B,2,when,L2,unsyncopated,when,when,28,Online_whenL2//c.cha2.none.wav,si,me,ra,sil,bi,te,ño,sil1,go,to,sil2,['-'],,,none,none,,,,cha,3,,,,,,,,,,,,,,,4.0,3.0,Catalan,Nativo,Castellano,Nativo,Inglés,7 años,Francés,13 años,5.0,4.0,yes,no,no,Flauta de viento,13,,,nada,36.0,yes
157,2024-04-12_11h37.04.728,Experiment4_uns,s177,22.0,masculino,left,Espanya,Catalán y castellano,Bachelor degree,no,no,B,2,when,L2,unsyncopated,when,when,29,Online_whenL2//c.cha0.1332.wav,mi,ñu,bi,sil,fe,to,cha,sil1,ra,su,sil2,['catch'],[1.9026999999880445],[1.9026999999880445],1.332,no_beat,0.5706999999880444,0.5706999999880444,"[""space""]",cha,3,,,,,,,,,,,,,,,4.0,3.0,Catalan,Nativo,Castellano,Nativo,Inglés,7 años,Francés,13 años,5.0,4.0,yes,no,no,Flauta de viento,13,,,nada,36.0,yes
158,2024-04-12_11h37.04.728,Experiment4_uns,s177,22.0,masculino,left,Espanya,Catalán y castellano,Bachelor degree,no,no,B,2,when,L2,unsyncopated,when,when,30,Online_whenL2//c.cha3.1998.wav,te,to,bi,sil,du,ra,ño,sil1,su,cha,sil2,['catch'],[2.3915999999942414],[2.3915999999942414],1.998,no_beat,0.3935999999942414,0.3935999999942414,"[""space""]",cha,3,,,,,,,,,,,,,,,4.0,3.0,Catalan,Nativo,Castellano,Nativo,Inglés,7 años,Francés,13 años,5.0,4.0,yes,no,no,Flauta de viento,13,,,nada,36.0,yes
159,2024-04-12_11h37.04.728,Experiment4_uns,s177,22.0,masculino,left,Espanya,Catalán y castellano,Bachelor degree,no,no,B,2,when,L2,unsyncopated,when,when,31,Online_whenL2//c.cha1.1332.wav,bi,ba,te,sil,me,ñu,cha,sil1,go,fe,sil2,['catch'],[1.9304999999999382],[1.9304999999999382],1.332,no_beat,0.5984999999999381,0.5984999999999381,"[""space""]",cha,3,,,,,,,,,,,,,,,4.0,3.0,Catalan,Nativo,Castellano,Nativo,Inglés,7 años,Francés,13 años,5.0,4.0,yes,no,no,Flauta de viento,13,,,nada,36.0,yes
160,2024-04-12_11h37.04.728,Experiment4_uns,s177,22.0,masculino,left,Espanya,Catalán y castellano,Bachelor degree,no,no,B,2,when,L2,unsyncopated,when,when,32,Online_whenL2//a.du8.none.wav,ño,su,to,sil,go,te,bi,sil1,ra,si,sil2,['-'],,,none,none,,,,du,1,,,,,,,,,,,,,,,4.0,3.0,Catalan,Nativo,Castellano,Nativo,Inglés,7 años,Francés,13 años,5.0,4.0,yes,no,no,Flauta de viento,13,,,nada,36.0,yes
161,2024-04-12_11h37.04.728,Experiment4_uns,s177,22.0,masculino,left,Espanya,Catalán y castellano,Bachelor degree,no,no,B,2,when,L2,unsyncopated,when,when,33,Online_whenL2//a.du9.1332.wav,bi,cha,su,sil,ñu,ba,du,sil1,ra,me,sil2,['catch'],[1.8854000000060296],[1.8854000000060296],1.332,no_beat,0.5534000000060295,0.5534000000060295,"[""space""]",du,1,,,,,,,,,,,,,,,4.0,3.0,Catalan,Nativo,Castellano,Nativo,Inglés,7 años,Francés,13 años,5.0,4.0,yes,no,no,Flauta de viento,13,,,nada,36.0,yes
162,2024-04-12_11h37.04.728,Experiment4_uns,s177,22.0,masculino,left,Espanya,Catalán y castellano,Bachelor degree,no,no,B,2,when,L2,unsyncopated,when,when,34,Online_whenL2//a.du10.none.wav,cha,ño,to,sil,ra,bi,fe,sil1,ba,mi,sil2,['-'],,,none,none,,,,du,1,,,,,,,,,,,,,,,4.0,3.0,Catalan,Nativo,Castellano,Nativo,Inglés,7 años,Francés,13 años,5.0,4.0,yes,no,no,Flauta de viento,13,,,nada,36.0,yes
163,2024-04-12_11h37.04.728,Experiment4_uns,s177,22.0,masculino,left,Espanya,Catalán y castellano,Bachelor degree,no,no,B,2,when,L2,unsyncopated,when,when,35,Online_whenL2//a.du11.1998.wav,me,te,go,sil,mi,ñu,si,sil1,bi,du,sil2,['catch'],[2.493599999994103],[2.493599999994103],1.998,no_beat,0.4955999999941032,0.4955999999941032,"[""space""]",du,1,,,,,,,,,,,,,,,4.0,3.0,Catalan,Nativo,Castellano,Nativo,Inglés,7 años,Francés,13 años,5.0,4.0,yes,no,no,Flauta de viento,13,,,nada,36.0,yes
164,2024-04-12_11h37.04.728,Experiment4_uns,s177,22.0,masculino,left,Espanya,Catalán y castellano,Bachelor degree,no,no,B,2,when,L2,unsyncopated,when,when,36,Online_whenL2//b.fe4.0.wav,fe,ra,ño,sil,to,ba,cha,sil1,si,te,sil2,['catch'],[0.7995999999941432],[0.7995999999941432],0.0,beat,0.7995999999941432,0.7995999999941432,"[""space""]",fe,2,,,,,,,,,,,,,,,4.0,3.0,Catalan,Nativo,Castellano,Nativo,Inglés,7 años,Francés,13 años,5.0,4.0,yes,no,no,Flauta de viento,13,,,nada,36.0,yes
165,2024-04-12_11h37.04.728,Experiment4_uns,s177,22.0,masculino,left,Espanya,Catalán y castellano,Bachelor degree,no,no,B,2,when,L2,unsyncopated,when,when,37,Online_whenL2//b.fe6.1998.wav,du,su,ñu,sil,cha,ba,to,sil1,te,fe,sil2,['catch'],[2.451900000005935],[2.451900000005935],1.998,no_beat,0.453900000005935,0.453900000005935,"[""space""]",fe,2,,,,,,,,,,,,,,,4.0,3.0,Catalan,Nativo,Castellano,Nativo,Inglés,7 años,Francés,13 años,5.0,4.0,yes,no,no,Flauta de viento,13,,,nada,36.0,yes
166,2024-04-12_11h37.04.728,Experiment4_uns,s177,22.0,masculino,left,Espanya,Catalán y castellano,Bachelor degree,no,no,B,2,when,L2,unsyncopated,when,when,38,Online_whenL2//b.fe5.1332.wav,si,cha,bi,sil,ñu,su,fe,sil1,ra,te,sil2,['catch'],[1.9350999999940086],[1.9350999999940086],1.332,no_beat,0.6030999999940085,0.6030999999940085,"[""space""]",fe,2,,,,,,,,,,,,,,,4.0,3.0,Catalan,Nativo,Castellano,Nativo,Inglés,7 años,Francés,13 años,5.0,4.0,yes,no,no,Flauta de viento,13,,,nada,36.0,yes
167,2024-04-12_11h37.04.728,Experiment4_uns,s177,22.0,masculino,left,Espanya,Catalán y castellano,Bachelor degree,no,no,B,2,when,L2,unsyncopated,when,when,39,Online_whenL2//b.fe7.1998.wav,ba,si,du,sil,cha,ño,bi,sil1,mi,fe,sil2,['catch'],[2.538800000011861],[2.538800000011861],1.998,no_beat,0.5408000000118609,0.5408000000118609,"[""space""]",fe,2,,,,,,,,,,,,,,,4.0,3.0,Catalan,Nativo,Castellano,Nativo,Inglés,7 años,Francés,13 años,5.0,4.0,yes,no,no,Flauta de viento,13,,,nada,36.0,yes
168,2024-04-12_11h37.04.728,Experiment4_uns,s177,22.0,masculino,left,Espanya,Catalán y castellano,Bachelor degree,no,no,B,2,when,L2,unsyncopated,when,when,40,Online_whenL2//a.du26.none.wav,bi,ra,te,sil,ba,si,ño,sil1,go,to,sil2,['-'],,,none,none,,,,du,1,,,,,,,,,,,,,,,4.0,3.0,Catalan,Nativo,Castellano,Nativo,Inglés,7 años,Francés,13 años,5.0,4.0,yes,no,no,Flauta de viento,13,,,nada,36.0,yes
169,2024-04-12_11h37.04.728,Experiment4_uns,s177,22.0,masculino,left,Espanya,Catalán y castellano,Bachelor degree,no,no,B,2,when,L2,unsyncopated,when,when,41,Online_whenL2//a.du25.444.wav,ñu,cha,du,sil,mi,su,si,sil1,go,me,sil2,['catch'],[1.0215999999938958],[1.0215999999938958],0.444,no_beat,0.5775999999938959,0.5775999999938959,"[""space""]",du,1,,,,,,,,,,,,,,,4.0,3.0,Catalan,Nativo,Castellano,Nativo,Inglés,7 años,Francés,13 años,5.0,4.0,yes,no,no,Flauta de viento,13,,,nada,36.0,yes
170,2024-04-12_11h37.04.728,Experiment4_uns,s177,22.0,masculino,left,Espanya,Catalán y castellano,Bachelor degree,no,no,B,2,when,L2,unsyncopated,when,when,42,Online_whenL2//a.du27.none.wav,su,go,bi,sil,fe,to,ño,sil1,si,te,sil2,['-'],,,none,none,,,,du,1,,,,,,,,,,,,,,,4.0,3.0,Catalan,Nativo,Castellano,Nativo,Inglés,7 años,Francés,13 años,5.0,4.0,yes,no,no,Flauta de viento,13,,,nada,36.0,yes
171,2024-04-12_11h37.04.728,Experiment4_uns,s177,22.0,masculino,left,Espanya,Catalán y castellano,Bachelor degree,no,no,B,2,when,L2,unsyncopated,when,when,43,Online_whenL2//a.du24.222.wav,me,du,to,sil,su,te,ra,sil1,bi,ñu,sil2,"['catch', 'false alarm']","[0.9135000000001128, 2.54300000000012]",[0.9135000000001128],0.222,no_beat,0.6915000000001128,0.6915000000001128,"[""space"",""space""]",du,1,,,,,,,,,,,,,,,4.0,3.0,Catalan,Nativo,Castellano,Nativo,Inglés,7 años,Francés,13 años,5.0,4.0,yes,no,no,Flauta de viento,13,,,nada,36.0,yes
172,2024-04-12_11h37.04.728,Experiment4_uns,s177,22.0,masculino,left,Espanya,Catalán y castellano,Bachelor degree,no,no,B,2,when,L2,unsyncopated,when,when,44,Online_whenL2//c.cha24.444.wav,me,bi,cha,sil,su,ra,ño,sil1,to,fe,sil2,['catch'],[0.8394000000059805],[0.8394000000059805],0.444,no_beat,0.3954000000059804,0.3954000000059804,"[""space""]",cha,3,,,,,,,,,,,,,,,4.0,3.0,Catalan,Nativo,Castellano,Nativo,Inglés,7 años,Francés,13 años,5.0,4.0,yes,no,no,Flauta de viento,13,,,nada,36.0,yes
173,2024-04-12_11h37.04.728,Experiment4_uns,s177,22.0,masculino,left,Espanya,Catalán y castellano,Bachelor degree,no,no,B,2,when,L2,unsyncopated,when,when,45,Online_whenL2//c.cha27.none.wav,bi,fe,mi,sil,te,ra,ño,sil1,to,ñu,sil2,['-'],,,none,none,,,,cha,3,,,,,,,,,,,,,,,4.0,3.0,Catalan,Nativo,Castellano,Nativo,Inglés,7 años,Francés,13 años,5.0,4.0,yes,no,no,Flauta de viento,13,,,nada,36.0,yes
174,2024-04-12_11h37.04.728,Experiment4_uns,s177,22.0,masculino,left,Espanya,Catalán y castellano,Bachelor degree,no,no,B,2,when,L2,unsyncopated,when,when,46,Online_whenL2//c.cha25.888.wav,fe,ño,su,sil,cha,te,bi,sil1,me,ra,sil2,['miss'],,,0.888,beat,,,,cha,3,,,,,,,,,,,,,,,4.0,3.0,Catalan,Nativo,Castellano,Nativo,Inglés,7 años,Francés,13 años,5.0,4.0,yes,no,no,Flauta de viento,13,,,nada,36.0,yes
175,2024-04-12_11h37.04.728,Experiment4_uns,s177,22.0,masculino,left,Espanya,Catalán y castellano,Bachelor degree,no,no,B,2,when,L2,unsyncopated,when,when,47,Online_whenL2//c.cha26.0.wav,cha,to,ra,sil,go,ñu,ba,sil1,bi,te,sil2,['miss'],,,0.0,beat,,,,cha,3,,,,,,,,,,,,,,,4.0,3.0,Catalan,Nativo,Castellano,Nativo,Inglés,7 años,Francés,13 años,5.0,4.0,yes,no,no,Flauta de viento,13,,,nada,36.0,yes
176,2024-04-12_11h37.04.728,Experiment4_uns,s177,22.0,masculino,left,Espanya,Catalán y castellano,Bachelor degree,no,no,B,2,when,L2,unsyncopated,when,when,48,Online_whenL2//b.fe28.1776.wav,me,su,ba,sil,bi,ño,te,sil1,fe,du,sil2,['catch'],[2.329099999994014],[2.329099999994014],1.776,beat,0.553099999994014,0.553099999994014,"[""space""]",fe,2,,,,,,,,,,,,,,,4.0,3.0,Catalan,Nativo,Castellano,Nativo,Inglés,7 años,Francés,13 años,5.0,4.0,yes,no,no,Flauta de viento,13,,,nada,36.0,yes
177,2024-04-12_11h37.04.728,Experiment4_uns,s177,22.0,masculino,left,Espanya,Catalán y castellano,Bachelor degree,no,no,B,2,when,L2,unsyncopated,when,when,49,Online_whenL2//b.fe29.none.wav,ra,ñu,du,sil,ño,bi,to,sil1,mi,su,sil2,['-'],,,none,none,,,,fe,2,,,,,,,,,,,,,,,4.0,3.0,Catalan,Nativo,Castellano,Nativo,Inglés,7 años,Francés,13 años,5.0,4.0,yes,no,no,Flauta de viento,13,,,nada,36.0,yes
178,2024-04-12_11h37.04.728,Experiment4_uns,s177,22.0,masculino,left,Espanya,Catalán y castellano,Bachelor degree,no,no,B,2,when,L2,unsyncopated,when,when,50,Online_whenL2//b.fe30.none.wav,ra,si,su,sil,ñu,go,te,sil1,to,ño,sil2,['-'],,,none,none,,,,fe,2,,,,,,,,,,,,,,,4.0,3.0,Catalan,Nativo,Castellano,Nativo,Inglés,7 años,Francés,13 años,5.0,4.0,yes,no,no,Flauta de viento,13,,,nada,36.0,yes
179,2024-04-12_11h37.04.728,Experiment4_uns,s177,22.0,masculino,left,Espanya,Catalán y castellano,Bachelor degree,no,no,B,2,when,L2,unsyncopated,when,when,51,Online_whenL2//b.fe31.none.wav,me,si,ñu,sil,su,go,du,sil1,bi,ba,sil2,['-'],,,none,none,,,,fe,2,,,,,,,,,,,,,,,4.0,3.0,Catalan,Nativo,Castellano,Nativo,Inglés,7 años,Francés,13 años,5.0,4.0,yes,no,no,Flauta de viento,13,,,nada,36.0,yes
180,2024-04-12_11h37.04.728,Experiment4_uns,s177,22.0,masculino,left,Espanya,Catalán y castellano,Bachelor degree,no,no,B,2,when,L2,unsyncopated,when,when,52,Online_whenL2//d.si15.1332.wav,mi,ño,ba,sil,ra,fe,si,sil1,ñu,me,sil2,['catch'],[1.8492999999821222],[1.8492999999821222],1.332,no_beat,0.5172999999821222,0.5172999999821222,"[""space""]",si,4,,,,,,,,,,,,,,,4.0,3.0,Catalan,Nativo,Castellano,Nativo,Inglés,7 años,Francés,13 años,5.0,4.0,yes,no,no,Flauta de viento,13,,,nada,36.0,yes
181,2024-04-12_11h37.04.728,Experiment4_uns,s177,22.0,masculino,left,Espanya,Catalán y castellano,Bachelor degree,no,no,B,2,when,L2,unsyncopated,when,when,53,Online_whenL2//d.si12.1776.wav,mi,du,to,sil,go,ño,bi,sil1,si,cha,sil2,['miss'],,,1.776,beat,,,,si,4,,,,,,,,,,,,,,,4.0,3.0,Catalan,Nativo,Castellano,Nativo,Inglés,7 años,Francés,13 años,5.0,4.0,yes,no,no,Flauta de viento,13,,,nada,36.0,yes
182,2024-04-12_11h37.04.728,Experiment4_uns,s177,22.0,masculino,left,Espanya,Catalán y castellano,Bachelor degree,no,no,B,2,when,L2,unsyncopated,when,when,54,Online_whenL2//d.si14.1332.wav,ba,te,bi,sil,go,su,si,sil1,du,ñu,sil2,['catch'],[1.808099999994056],[1.808099999994056],1.332,no_beat,0.4760999999940558,0.4760999999940558,"[""space""]",si,4,,,,,,,,,,,,,,,4.0,3.0,Catalan,Nativo,Castellano,Nativo,Inglés,7 años,Francés,13 años,5.0,4.0,yes,no,no,Flauta de viento,13,,,nada,36.0,yes
183,2024-04-12_11h37.04.728,Experiment4_uns,s177,22.0,masculino,left,Espanya,Catalán y castellano,Bachelor degree,no,no,B,2,when,L2,unsyncopated,when,when,55,Online_whenL2//d.si13.444.wav,go,ñu,si,sil,bi,to,ño,sil1,fe,mi,sil2,['miss'],,,0.444,no_beat,,,,si,4,,,,,,,,,,,,,,,4.0,3.0,Catalan,Nativo,Castellano,Nativo,Inglés,7 años,Francés,13 años,5.0,4.0,yes,no,no,Flauta de viento,13,,,nada,36.0,yes
184,2024-04-12_11h37.04.728,Experiment4_uns,s177,22.0,masculino,left,Espanya,Catalán y castellano,Bachelor degree,no,no,B,2,when,L2,unsyncopated,when,when,56,Online_whenL2//d.si0.none.wav,ño,fe,go,sil,bi,te,cha,sil1,mi,to,sil2,['-'],,,none,none,,,,si,4,,,,,,,,,,,,,,,4.0,3.0,Catalan,Nativo,Castellano,Nativo,Inglés,7 años,Francés,13 años,5.0,4.0,yes,no,no,Flauta de viento,13,,,nada,36.0,yes
185,2024-04-12_11h37.04.728,Experiment4_uns,s177,22.0,masculino,left,Espanya,Catalán y castellano,Bachelor degree,no,no,B,2,when,L2,unsyncopated,when,when,57,Online_whenL2//d.si3.444.wav,bi,su,si,sil,go,mi,ba,sil1,ñu,du,sil2,['catch'],[0.8361999999879117],[0.8361999999879117],0.444,no_beat,0.3921999999879117,0.3921999999879117,"[""space""]",si,4,,,,,,,,,,,,,,,4.0,3.0,Catalan,Nativo,Castellano,Nativo,Inglés,7 años,Francés,13 años,5.0,4.0,yes,no,no,Flauta de viento,13,,,nada,36.0,yes
186,2024-04-12_11h37.04.728,Experiment4_uns,s177,22.0,masculino,left,Espanya,Catalán y castellano,Bachelor degree,no,no,B,2,when,L2,unsyncopated,when,when,58,Online_whenL2//d.si2.0.wav,si,me,fe,sil,to,ba,ñu,sil1,su,ra,sil2,['catch'],[0.542400000005955],[0.542400000005955],0.0,beat,0.542400000005955,0.542400000005955,"[""space""]",si,4,,,,,,,,,,,,,,,4.0,3.0,Catalan,Nativo,Castellano,Nativo,Inglés,7 años,Francés,13 años,5.0,4.0,yes,no,no,Flauta de viento,13,,,nada,36.0,yes
187,2024-04-12_11h37.04.728,Experiment4_uns,s177,22.0,masculino,left,Espanya,Catalán y castellano,Bachelor degree,no,no,B,2,when,L2,unsyncopated,when,when,59,Online_whenL2//d.si1.444.wav,ra,cha,si,sil,te,du,mi,sil1,su,bi,sil2,['catch'],[1.0072000000177468],[1.0072000000177468],0.444,no_beat,0.5632000000177468,0.5632000000177468,"[""space""]",si,4,,,,,,,,,,,,,,,4.0,3.0,Catalan,Nativo,Castellano,Nativo,Inglés,7 años,Francés,13 años,5.0,4.0,yes,no,no,Flauta de viento,13,,,nada,36.0,yes
188,2024-04-12_11h37.04.728,Experiment4_uns,s177,22.0,masculino,left,Espanya,Catalán y castellano,Bachelor degree,no,no,B,2,when,L2,unsyncopated,when,when,60,Online_whenL2//b.fe34.1776.wav,si,go,mi,sil,ba,ñu,me,sil1,fe,ño,sil2,"['false alarm', 'catch']","[0.7162000000180342, 2.1550000000002]",[2.1550000000002],1.776,beat,0.3790000000002,0.3790000000002,"[""space"",""space""]",fe,2,,,,,,,,,,,,,,,4.0,3.0,Catalan,Nativo,Castellano,Nativo,Inglés,7 años,Francés,13 años,5.0,4.0,yes,no,no,Flauta de viento,13,,,nada,36.0,yes
189,2024-04-12_11h37.04.728,Experiment4_uns,s177,22.0,masculino,left,Espanya,Catalán y castellano,Bachelor degree,no,no,B,2,when,L2,unsyncopated,when,when,61,Online_whenL2//b.fe33.none.wav,to,du,mi,sil,go,te,ñu,sil1,bi,me,sil2,['-'],,,none,none,,,,fe,2,,,,,,,,,,,,,,,4.0,3.0,Catalan,Nativo,Castellano,Nativo,Inglés,7 años,Francés,13 años,5.0,4.0,yes,no,no,Flauta de viento,13,,,nada,36.0,yes
190,2024-04-12_11h37.04.728,Experiment4_uns,s177,22.0,masculino,left,Espanya,Catalán y castellano,Bachelor degree,no,no,B,2,when,L2,unsyncopated,when,when,62,Online_whenL2//b.fe35.1998.wav,ra,su,si,sil,to,ba,bi,sil1,me,fe,sil2,['catch'],[2.536400000006097],[2.536400000006097],1.998,no_beat,0.5384000000060969,0.5384000000060969,"[""space""]",fe,2,,,,,,,,,,,,,,,4.0,3.0,Catalan,Nativo,Castellano,Nativo,Inglés,7 años,Francés,13 años,5.0,4.0,yes,no,no,Flauta de viento,13,,,nada,36.0,yes
191,2024-04-12_11h37.04.728,Experiment4_uns,s177,22.0,masculino,left,Espanya,Catalán y castellano,Bachelor degree,no,no,B,2,when,L2,unsyncopated,when,when,63,Online_whenL2//b.fe32.222.wav,ño,fe,te,sil,ñu,bi,su,sil1,mi,go,sil2,['catch'],[1.0435999999938304],[1.0435999999938304],0.222,no_beat,0.8215999999938304,0.8215999999938304,"[""space""]",fe,2,,,,,,,,,,,,,,,4.0,3.0,Catalan,Nativo,Castellano,Nativo,Inglés,7 años,Francés,13 años,5.0,4.0,yes,no,no,Flauta de viento,13,,,nada,36.0,yes
192,2024-04-12_11h37.04.728,Experiment4_uns,s177,22.0,masculino,left,Espanya,Catalán y castellano,Bachelor degree,no,no,B,2,when,L2,unsyncopated,when,when,64,Online_whenL2//d.si27.1110.wav,fe,te,ñu,sil,ño,si,mi,sil1,me,go,sil2,['catch'],[1.8344000000060987],[1.8344000000060987],1.11,no_beat,0.7244000000060986,0.7244000000060986,"[""space""]",si,4,,,,,,,,,,,,,,,4.0,3.0,Catalan,Nativo,Castellano,Nativo,Inglés,7 años,Francés,13 años,5.0,4.0,yes,no,no,Flauta de viento,13,,,nada,36.0,yes
193,2024-04-12_11h37.04.728,Experiment4_uns,s177,22.0,masculino,left,Espanya,Catalán y castellano,Bachelor degree,no,no,B,2,when,L2,unsyncopated,when,when,65,Online_whenL2//d.si25.none.wav,ño,ra,me,sil,to,go,te,sil1,su,mi,sil2,['-'],,,none,none,,,,si,4,,,,,,,,,,,,,,,4.0,3.0,Catalan,Nativo,Castellano,Nativo,Inglés,7 años,Francés,13 años,5.0,4.0,yes,no,no,Flauta de viento,13,,,nada,36.0,yes
194,2024-04-12_11h37.04.728,Experiment4_uns,s177,22.0,masculino,left,Espanya,Catalán y castellano,Bachelor degree,no,no,B,2,when,L2,unsyncopated,when,when,66,Online_whenL2//d.si24.1332.wav,me,du,bi,sil,ñu,cha,si,sil1,ra,su,sil2,['catch'],[2.0360999999941214],[2.0360999999941214],1.332,no_beat,0.7040999999941213,0.7040999999941213,"[""space""]",si,4,,,,,,,,,,,,,,,4.0,3.0,Catalan,Nativo,Castellano,Nativo,Inglés,7 años,Francés,13 años,5.0,4.0,yes,no,no,Flauta de viento,13,,,nada,36.0,yes
195,2024-04-12_11h37.04.728,Experiment4_uns,s177,22.0,masculino,left,Espanya,Catalán y castellano,Bachelor degree,no,no,B,2,when,L2,unsyncopated,when,when,67,Online_whenL2//d.si26.none.wav,ra,ño,cha,sil,to,su,bi,sil1,ñu,fe,sil2,['false alarm'],[1.8366999999880136],[1.8366999999880136],none,none,,,"[""space""]",si,4,,,,,,,,,,,,,,,4.0,3.0,Catalan,Nativo,Castellano,Nativo,Inglés,7 años,Francés,13 años,5.0,4.0,yes,no,no,Flauta de viento,13,,,nada,36.0,yes
196,2024-04-12_11h37.04.728,Experiment4_uns,s177,22.0,masculino,left,Espanya,Catalán y castellano,Bachelor degree,no,no,B,2,when,L2,unsyncopated,when,when,68,Online_whenL2//d.si7.none.wav,go,cha,te,sil,fe,ñu,ba,sil1,mi,to,sil2,['-'],,,none,none,,,,si,4,,,,,,,,,,,,,,,4.0,3.0,Catalan,Nativo,Castellano,Nativo,Inglés,7 años,Francés,13 años,5.0,4.0,yes,no,no,Flauta de viento,13,,,nada,36.0,yes
197,2024-04-12_11h37.04.728,Experiment4_uns,s177,22.0,masculino,left,Espanya,Catalán y castellano,Bachelor degree,no,no,B,2,when,L2,unsyncopated,when,when,69,Online_whenL2//d.si6.1776.wav,te,cha,du,sil,fe,ño,me,sil1,si,bi,sil2,['catch'],[2.221400000005815],[2.221400000005815],1.776,beat,0.4454000000058149,0.4454000000058149,"[""space""]",si,4,,,,,,,,,,,,,,,4.0,3.0,Catalan,Nativo,Castellano,Nativo,Inglés,7 años,Francés,13 años,5.0,4.0,yes,no,no,Flauta de viento,13,,,nada,36.0,yes
198,2024-04-12_11h37.04.728,Experiment4_uns,s177,22.0,masculino,left,Espanya,Catalán y castellano,Bachelor degree,no,no,B,2,when,L2,unsyncopated,when,when,70,Online_whenL2//d.si5.1332.wav,to,fe,ra,sil,me,cha,si,sil1,su,te,sil2,['catch'],[1.7852999999822714],[1.7852999999822714],1.332,no_beat,0.4532999999822713,0.4532999999822713,"[""space""]",si,4,,,,,,,,,,,,,,,4.0,3.0,Catalan,Nativo,Castellano,Nativo,Inglés,7 años,Francés,13 años,5.0,4.0,yes,no,no,Flauta de viento,13,,,nada,36.0,yes
199,2024-04-12_11h37.04.728,Experiment4_uns,s177,22.0,masculino,left,Espanya,Catalán y castellano,Bachelor degree,no,no,B,2,when,L2,unsyncopated,when,when,71,Online_whenL2//d.si4.444.wav,to,ra,si,sil,me,ñu,go,sil1,ño,mi,sil2,['miss'],,,0.444,no_beat,,,,si,4,,,,,,,,,,,,,,,4.0,3.0,Catalan,Nativo,Castellano,Nativo,Inglés,7 años,Francés,13 años,5.0,4.0,yes,no,no,Flauta de viento,13,,,nada,36.0,yes
200,2024-04-12_11h37.04.728,Experiment4_uns,s177,22.0,masculino,left,Espanya,Catalán y castellano,Bachelor degree,no,no,B,2,when,L2,unsyncopated,when,when,72,Online_whenL2//c.cha4.222.wav,bi,cha,ñu,sil,su,mi,du,sil1,si,fe,sil2,['catch'],[0.7419000000058986],[0.7419000000058986],0.222,no_beat,0.5199000000058986,0.5199000000058986,"[""space""]",cha,3,,,,,,,,,,,,,,,4.0,3.0,Catalan,Nativo,Castellano,Nativo,Inglés,7 años,Francés,13 años,5.0,4.0,yes,no,no,Flauta de viento,13,,,nada,36.0,yes
201,2024-04-12_11h37.04.728,Experiment4_uns,s177,22.0,masculino,left,Espanya,Catalán y castellano,Bachelor degree,no,no,B,2,when,L2,unsyncopated,when,when,73,Online_whenL2//c.cha6.none.wav,ño,bi,su,sil,ñu,to,si,sil1,du,go,sil2,['-'],,,none,none,,,,cha,3,,,,,,,,,,,,,,,4.0,3.0,Catalan,Nativo,Castellano,Nativo,Inglés,7 años,Francés,13 años,5.0,4.0,yes,no,no,Flauta de viento,13,,,nada,36.0,yes
202,2024-04-12_11h37.04.728,Experiment4_uns,s177,22.0,masculino,left,Espanya,Catalán y castellano,Bachelor degree,no,no,B,2,when,L2,unsyncopated,when,when,74,Online_whenL2//c.cha7.none.wav,ba,to,bi,sil,ño,du,si,sil1,mi,fe,sil2,['-'],,,none,none,,,,cha,3,,,,,,,,,,,,,,,4.0,3.0,Catalan,Nativo,Castellano,Nativo,Inglés,7 años,Francés,13 años,5.0,4.0,yes,no,no,Flauta de viento,13,,,nada,36.0,yes
