Unnamed: 0,date,expName,participant,age,sex,hand,residence,native_lang,education_level,lang_deficit,aud_deficit,group,block,condition,language,rhythm,rule structure online,rule type online,order_trial_on,trial_online,s1,s2,s3,s4,s5,s6,s7,s8,s9,s10,s11,catch_syll_resp,rts_syll_catch,clean_rts,time_syll,beat_no_beat,catch_rtsTR,catch_rts,syllable_catch.keys,cond_syll,syll_to_catch,test_offline,block_off,condition_off,rhythm_off,rule,rule_str_off,rule_norule,conds_offline,language_off,Partz_no_partm.keys,Partz_no_partm.rt,security_1_7.keys,accuracy,security_1_7.rt,n_lang,n_lang_used,lang_1,age_l1,lang_2,age_l2,ability_learn_l2,tendence_mix_lan,music_experience,muisc_use,partiture,instr_1,age_M1,preguntas_musica1,BMRQ_answer.response,BMRQ_Score,bilingual
0,2023-07-30_17h24.25.873,Unsyncopated1,s4,30 ,feminino,right, España,CatalánCastellano,Upper secondary,no,yes,A,1,conjunction_un,L1,unsyncopated,s2,r2,0,Online_conjL1_un//b.ta.be17.888.1776.wav,ro,zu,ne,sil,ta,ze,fo,sil1,be,ri,sil2,['catch'],"[0.8410000000000082, 1.551499999999976]",[1.551499999999976],0.888,beat,0.6634999999999759,0.6634999999999759,"[""space"",""space""]",ta,1,testConjL1Uns//r2.s1.1.wav,1.0,conjunction_un,unsyncopated,b,s1,rule,rule,L1,z,1.419,7.0,1.0,10.3575,2 ,2.0,catalan,6.0,castellano,0.0,3.0,4.0,yes,no,yes,piano,10,1. Cuando comparto música con alguien siento una complicidad especial con aquella persona.,0.0,59.0,yes
1,2023-07-30_17h24.25.873,Unsyncopated1,s4,30 ,feminino,right, España,CatalánCastellano,Upper secondary,no,yes,A,1,conjunction_un,L1,unsyncopated,s2,r1,1,Online_conjL1_un//b.ta.be18.none.none.wav,ne,ze,ro,sil,pu,la,cho,sil1,ki,lu,sil2,['false alarm'],[0.5728999999761868],[0.5728999999761868],none,none,,,"[""space""]",ta,1,testConjL1Uns//r1.s2.1.wav,1.0,conjunction_un,unsyncopated,a,s2,rule,rule,L1,z,1.1844,7.0,1.0,1.9529,2 ,2.0,catalan,6.0,castellano,0.0,3.0,4.0,yes,no,yes,piano,10,2. En mi tiempo libre apenas escucho música.,5.0,59.0,yes
2,2023-07-30_17h24.25.873,Unsyncopated1,s4,30 ,feminino,right, España,CatalánCastellano,Upper secondary,no,yes,A,1,conjunction_un,L1,unsyncopated,s2,r2,2,Online_conjL1_un//b.ta.be19.888.1776.wav,zu,ni,lu,sil,ta,ri,la,sil1,be,ze,sil2,['catch'],[1.2571999999880745],[1.2571999999880745],0.888,beat,0.3691999999880745,0.3691999999880745,"[""space""]",ta,1,testConjL1Uns//time_viol.r1.s2.0.wav,1.0,conjunction_un,unsyncopated,a,s2,no_rule,time,L1,z,1.6044,5.0,0.0,1.6474,2 ,2.0,catalan,6.0,castellano,0.0,3.0,4.0,yes,no,yes,piano,10,3. Algunas canciones me ponen los pelos de punta,4.0,59.0,yes
3,2023-07-30_17h24.25.873,Unsyncopated1,s4,30 ,feminino,right, España,CatalánCastellano,Upper secondary,no,yes,A,1,conjunction_un,L1,unsyncopated,s2,r2,3,Online_conjL1_un//b.ta.be16.888.1776.wav,ze,cho,fo,sil,ta,ne,zu,sil1,be,lu,sil2,['catch'],[1.2241000000238387],[1.2241000000238387],0.888,beat,0.3361000000238386,0.3361000000238386,"[""space""]",ta,1,testConjL1Uns//r1.s1.2.wav,1.0,conjunction_un,unsyncopated,a,s1,rule,rule,L1,m,3.379,5.0,0.0,2.6739,2 ,2.0,catalan,6.0,castellano,0.0,3.0,4.0,yes,no,yes,piano,10,4. La música me hace compañía cuando estoy solo,4.0,59.0,yes
4,2023-07-30_17h24.25.873,Unsyncopated1,s4,30 ,feminino,right, España,CatalánCastellano,Upper secondary,no,yes,A,1,conjunction_un,L1,unsyncopated,s2,r1,4,Online_conjL1_un//a.pu.ki21.888.1776.wav,zu,ri,ni,sil,pu,lu,fa,sil1,ki,ro,sil2,"['false alarm', 'catch']","[0.3341000000238523, 2.168400000035774]",[2.168400000035774],1.776,beat,0.3924000000357741,0.3924000000357741,"[""space"",""space""]",ki,2,testConjL1Uns//r1.s2.0.wav,1.0,conjunction_un,unsyncopated,a,s2,rule,rule,L1,z,0.587,7.0,1.0,1.9195,2 ,2.0,catalan,6.0,castellano,0.0,3.0,4.0,yes,no,yes,piano,10,5. No me apetece bailar ni con la música que más me gusta,5.0,59.0,yes
5,2023-07-30_17h24.25.873,Unsyncopated1,s4,30 ,feminino,right, España,CatalánCastellano,Upper secondary,no,yes,A,1,conjunction_un,L1,unsyncopated,s1,r1,5,Online_conjL1_un//a.pu.ki23.0.888.wav,pu,la,ze,sil,ki,cho,fo,sil1,ne,zu,sil2,['catch'],[1.3778000000119164],[1.3778000000119164],0.888,beat,0.4898000000119163,0.4898000000119163,"[""space""]",ki,2,testConjL1Uns//time_viol.r1.s1.0.wav,1.0,conjunction_un,unsyncopated,a,s1,no_rule,time,L1,m,2.6551,4.0,1.0,1.9181,2 ,2.0,catalan,6.0,castellano,0.0,3.0,4.0,yes,no,yes,piano,10,6. La música me hace conectar con la gente,0.0,59.0,yes
6,2023-07-30_17h24.25.873,Unsyncopated1,s4,30 ,feminino,right, España,CatalánCastellano,Upper secondary,no,yes,A,1,conjunction_un,L1,unsyncopated,s2,r1,6,Online_conjL1_un//a.pu.ki22.888.1776.wav,la,ze,zu,sil,pu,ne,cho,sil1,ki,ri,sil2,['catch'],[2.1055000000000064],[2.1055000000000064],1.776,beat,0.3295000000000063,0.3295000000000063,"[""space""]",ki,2,testConjL1Uns//time_viol.r2.s2.0.wav,1.0,conjunction_un,unsyncopated,b,s2,no_rule,time,L1,m,1.0197,6.0,1.0,2.8185,2 ,2.0,catalan,6.0,castellano,0.0,3.0,4.0,yes,no,yes,piano,10,7. Me informo sobre la música que me gusta.,3.0,59.0,yes
7,2023-07-30_17h24.25.873,Unsyncopated1,s4,30 ,feminino,right, España,CatalánCastellano,Upper secondary,no,yes,A,1,conjunction_un,L1,unsyncopated,s1,r2,7,Online_conjL1_un//a.pu.ki20.none.none.wav,ta,ni,ze,sil,be,ri,ne,sil1,cho,fo,sil2,['-'],,,none,none,,,,ki,2,testConjL1Uns//dep_viol.r2.s2.0.wav,1.0,conjunction_un,unsyncopated,b,s2,no_rule,dep,L1,z,0.4546,7.0,0.0,1.6684,2 ,2.0,catalan,6.0,castellano,0.0,3.0,4.0,yes,no,yes,piano,10,8.Me emociono escuchando ciertas canciones.,4.0,59.0,yes
8,2023-07-30_17h24.25.873,Unsyncopated1,s4,30 ,feminino,right, España,CatalánCastellano,Upper secondary,no,yes,A,1,conjunction_un,L1,unsyncopated,s1,r1,8,Online_conjL1_un//b.ta.be20.none.none.wav,pu,ri,ro,sil,ki,ze,ne,sil1,zu,fa,sil2,['-'],,,none,none,,,,ta,1,testConjL1Uns//dep_viol.r1.s1.0.wav,1.0,conjunction_un,unsyncopated,a,s1,no_rule,dep,L1,z,0.571,5.0,0.0,1.4695,2 ,2.0,catalan,6.0,castellano,0.0,3.0,4.0,yes,no,yes,piano,10,9.La música me tranquiliza y me relaja.,4.0,59.0,yes
9,2023-07-30_17h24.25.873,Unsyncopated1,s4,30 ,feminino,right, España,CatalánCastellano,Upper secondary,no,yes,A,1,conjunction_un,L1,unsyncopated,s1,r1,9,Online_conjL1_un//b.ta.be22.none.none.wav,pu,ze,fa,sil,ki,zu,cho,sil1,ro,la,sil2,['-'],,,none,none,,,,ta,1,testConjL1Uns//dep_viol.r2.s1.0.wav,1.0,conjunction_un,unsyncopated,b,s1,no_rule,dep,L1,m,1.3057,7.0,1.0,1.9087,2 ,2.0,catalan,6.0,castellano,0.0,3.0,4.0,yes,no,yes,piano,10,10.La música me hace bailar,4.0,59.0,yes
10,2023-07-30_17h24.25.873,Unsyncopated1,s4,30 ,feminino,right, España,CatalánCastellano,Upper secondary,no,yes,A,1,conjunction_un,L1,unsyncopated,s1,r2,10,Online_conjL1_un//b.ta.be21.0.888.wav,ta,fo,ri,sil,be,lu,ni,sil1,zu,la,sil2,['catch'],[0.5458000000119227],[0.5458000000119227],0.0,beat,0.5458000000119227,0.5458000000119227,"[""space""]",ta,1,testConjL1Uns//dep_viol.r1.s2.0.wav,1.0,conjunction_un,unsyncopated,a,s2,no_rule,dep,L1,z,0.4872,6.0,0.0,1.6405,2 ,2.0,catalan,6.0,castellano,0.0,3.0,4.0,yes,no,yes,piano,10,11.Busco novedades musicales continuamente,0.0,59.0,yes
11,2023-07-30_17h24.25.873,Unsyncopated1,s4,30 ,feminino,right, España,CatalánCastellano,Upper secondary,no,yes,A,1,conjunction_un,L1,unsyncopated,s1,r1,11,Online_conjL1_un//b.ta.be23.none.none.wav,pu,ro,zu,sil,ki,ze,ni,sil1,fo,ri,sil2,['-'],,,none,none,,,,ta,1,testConjL1Uns//r1.s1.0.wav,1.0,conjunction_un,unsyncopated,a,s1,rule,rule,L1,z,1.6396,7.0,1.0,1.2197,2 ,2.0,catalan,6.0,castellano,0.0,3.0,4.0,yes,no,yes,piano,10,12. Puedo llorar cuando escucho algunas melodías que me gustan mucho.,4.0,59.0,yes
12,2023-07-30_17h24.25.873,Unsyncopated1,s4,30 ,feminino,right, España,CatalánCastellano,Upper secondary,no,yes,A,1,conjunction_un,L1,unsyncopated,s1,r2,12,Online_conjL1_un//b.ta.be25.0.888.wav,ta,la,lu,sil,be,cho,zu,sil1,ne,ro,sil2,['catch'],[0.5269000000357664],[0.5269000000357664],0.0,beat,0.5269000000357664,0.5269000000357664,"[""space""]",ta,1,testConjL1Uns//r1.s1.1.wav,1.0,conjunction_un,unsyncopated,a,s1,rule,rule,L1,m,1.1542,6.0,0.0,0.8858,2 ,2.0,catalan,6.0,castellano,0.0,3.0,4.0,yes,no,yes,piano,10,13. Me gusta cantar o tocar un instrumento con más gente,2.0,59.0,yes
13,2023-07-30_17h24.25.873,Unsyncopated1,s4,30 ,feminino,right, España,CatalánCastellano,Upper secondary,no,yes,A,1,conjunction_un,L1,unsyncopated,s2,r2,13,Online_conjL1_un//b.ta.be24.888.1776.wav,ze,ne,ri,sil,ta,fa,la,sil1,be,fo,sil2,['catch'],[1.5798000000119146],[1.5798000000119146],0.888,beat,0.6918000000119146,0.6918000000119146,"[""space""]",ta,1,testConjL1Uns//r2.s1.2.wav,1.0,conjunction_un,unsyncopated,b,s1,rule,rule,L1,m,1.2897,6.0,0.0,1.8363,2 ,2.0,catalan,6.0,castellano,0.0,3.0,4.0,yes,no,yes,piano,10,14. La música me ayuda a desconectar.,4.0,59.0,yes
14,2023-07-30_17h24.25.873,Unsyncopated1,s4,30 ,feminino,right, España,CatalánCastellano,Upper secondary,no,yes,A,1,conjunction_un,L1,unsyncopated,s2,r2,14,Online_conjL1_un//b.ta.be27.888.1776.wav,fo,ni,lu,sil,ta,ne,ro,sil1,be,fa,sil2,['catch'],[1.3138000000119519],[1.3138000000119519],0.888,beat,0.4258000000119518,0.4258000000119518,"[""space""]",ta,1,testConjL1Uns//r2.s2.2.wav,1.0,conjunction_un,unsyncopated,b,s2,rule,rule,L1,z,0.5697,7.0,1.0,1.4874,2 ,2.0,catalan,6.0,castellano,0.0,3.0,4.0,yes,no,yes,piano,10,15. No puedo evitar tararear las canciones que me gustan cuando las escucho.,4.0,59.0,yes
15,2023-07-30_17h24.25.873,Unsyncopated1,s4,30 ,feminino,right, España,CatalánCastellano,Upper secondary,no,yes,A,1,conjunction_un,L1,unsyncopated,s2,r2,15,Online_conjL1_un//b.ta.be26.888.1776.wav,ni,ri,fa,sil,ta,zu,lu,sil1,be,ze,sil2,['catch'],[1.3317999999523522],[1.3317999999523522],0.888,beat,0.4437999999523522,0.4437999999523522,"[""space""]",ta,1,testConjL1Uns//r1.s2.2.wav,1.0,conjunction_un,unsyncopated,a,s2,rule,rule,L1,z,0.5687,7.0,1.0,1.1571,2 ,2.0,catalan,6.0,castellano,0.0,3.0,4.0,yes,no,yes,piano,10,16. En los conciertos me siento en sintonía con los artistas y el público.,0.0,59.0,yes
16,2023-07-30_17h24.25.873,Unsyncopated1,s4,30 ,feminino,right, España,CatalánCastellano,Upper secondary,no,yes,A,1,conjunction_un,L1,unsyncopated,s1,r2,16,Online_conjL1_un//b.ta.be12.0.888.wav,ta,lu,fa,sil,be,ri,la,sil1,fo,zu,sil2,"['catch', 'false alarm']","[0.39749999999997954, 1.5810000000000173]",[0.39749999999997954],0.0,beat,0.3974999999999795,0.3974999999999795,"[""space"",""space""]",ta,1,testConjL1Uns//time_viol.r2.s1.0.wav,1.0,conjunction_un,unsyncopated,b,s1,no_rule,time,L1,m,0.4534,6.0,1.0,1.603,2 ,2.0,catalan,6.0,castellano,0.0,3.0,4.0,yes,no,yes,piano,10,17. Me gasto bastante dinero en música y cosas relacionadas con la música.,0.0,59.0,yes
17,2023-07-30_17h24.25.873,Unsyncopated1,s4,30 ,feminino,right, España,CatalánCastellano,Upper secondary,no,yes,A,1,conjunction_un,L1,unsyncopated,s1,r1,17,Online_conjL1_un//b.ta.be14.none.none.wav,pu,ri,la,sil,ki,cho,fo,sil1,lu,ze,sil2,['false alarm'],[0.5808000000119478],[0.5808000000119478],none,none,,,"[""space""]",ta,1,testConjL1Uns//cat_viol.r2.s1.0.wav,1.0,conjunction_un,unsyncopated,b,s1,no_rule,cat,L1,m,1.1871,6.0,1.0,1.2234,2 ,2.0,catalan,6.0,castellano,0.0,3.0,4.0,yes,no,yes,piano,10,18. Siento escalofríos cuando escucho una melodía que me gusta.,4.0,59.0,yes
18,2023-07-30_17h24.25.873,Unsyncopated1,s4,30 ,feminino,right, España,CatalánCastellano,Upper secondary,no,yes,A,1,conjunction_un,L1,unsyncopated,s1,r1,18,Online_conjL1_un//b.ta.be13.none.none.wav,pu,zu,fo,sil,ki,fa,ri,sil1,ro,ne,sil2,['-'],,,none,none,,,,ta,1,testConjL1Uns//r2.s2.0.wav,1.0,conjunction_un,unsyncopated,b,s2,rule,rule,L1,z,2.6964,4.0,1.0,1.1165,2 ,2.0,catalan,6.0,castellano,0.0,3.0,4.0,yes,no,yes,piano,10,19. Con la música me puedo desahogar.,4.0,59.0,yes
19,2023-07-30_17h24.25.873,Unsyncopated1,s4,30 ,feminino,right, España,CatalánCastellano,Upper secondary,no,yes,A,1,conjunction_un,L1,unsyncopated,s2,r1,19,Online_conjL1_un//b.ta.be15.none.none.wav,fa,ri,cho,sil,pu,ne,la,sil1,ki,zu,sil2,['-'],,,none,none,,,,ta,1,testConjL1Uns//cat_viol.r1.s2.0.wav,1.0,conjunction_un,unsyncopated,a,s2,no_rule,cat,L1,m,1.371,5.0,1.0,0.8253,2 ,2.0,catalan,6.0,castellano,0.0,3.0,4.0,yes,no,yes,piano,10,20. Cuando escucho una melodía que me gusta mucho no puedo evitar mover el cuerpo.,4.0,59.0,yes
20,2023-07-30_17h24.25.873,Unsyncopated1,s4,30 ,feminino,right, España,CatalánCastellano,Upper secondary,no,yes,A,1,conjunction_un,L1,unsyncopated,s1,r2,20,Online_conjL1_un//d.ne.ni25.none.none.wav,ta,fa,ze,sil,be,ro,lu,sil1,la,fo,sil2,['false alarm'],[0.5133999999761727],[0.5133999999761727],none,none,,,"[""space""]",ne,4,testConjL1Uns//r2.s2.1.wav,1.0,conjunction_un,unsyncopated,b,s2,rule,rule,L1,m,1.6038,5.0,0.0,1.4118,2 ,2.0,catalan,6.0,castellano,0.0,3.0,4.0,yes,no,yes,piano,10,,,59.0,yes
21,2023-07-30_17h24.25.873,Unsyncopated1,s4,30 ,feminino,right, España,CatalánCastellano,Upper secondary,no,yes,A,1,conjunction_un,L1,unsyncopated,s2,r1,21,Online_conjL1_un//d.ne.ni26.none.none.wav,lu,ri,ro,sil,pu,cho,fa,sil1,ki,ze,sil2,['-'],,,none,none,,,,ne,4,testConjL1Uns//cat_viol.r2.s2.0.wav,1.0,conjunction_un,unsyncopated,b,s2,no_rule,cat,L1,m,0.7721,5.0,1.0,1.1192,2 ,2.0,catalan,6.0,castellano,0.0,3.0,4.0,yes,no,yes,piano,10,,,59.0,yes
22,2023-07-30_17h24.25.873,Unsyncopated1,s4,30 ,feminino,right, España,CatalánCastellano,Upper secondary,no,yes,A,1,conjunction_un,L1,unsyncopated,s2,r2,22,Online_conjL1_un//d.ne.ni27.1110.0.wav,ni,fa,ri,sil,ta,ne,zu,sil1,be,la,sil2,['miss'],,,1.11,no_beat,,,,ne,4,testConjL1Uns//r2.s1.0.wav,1.0,conjunction_un,unsyncopated,b,s1,rule,rule,L1,m,0.3589,5.0,0.0,0.7032,2 ,2.0,catalan,6.0,castellano,0.0,3.0,4.0,yes,no,yes,piano,10,,,59.0,yes
23,2023-07-30_17h24.25.873,Unsyncopated1,s4,30 ,feminino,right, España,CatalánCastellano,Upper secondary,no,yes,A,1,conjunction_un,L1,unsyncopated,s2,r1,23,Online_conjL1_un//d.ne.ni24.1110.222.wav,ri,ni,fa,sil,pu,ne,ro,sil1,ki,fo,sil2,['miss'],,,1.11,no_beat,,,,ne,4,testConjL1Uns//cat_viol.r1.s1.0.wav,1.0,conjunction_un,unsyncopated,a,s1,no_rule,cat,L1,m,0.3913,5.0,1.0,1.6062,2 ,2.0,catalan,6.0,castellano,0.0,3.0,4.0,yes,no,yes,piano,10,,,59.0,yes
24,2023-07-30_17h24.25.873,Unsyncopated1,s4,30 ,feminino,right, España,CatalánCastellano,Upper secondary,no,yes,A,1,conjunction_un,L1,unsyncopated,s1,r2,24,Online_conjL1_un//c.ro.fo3.222.1110.wav,ta,ro,ne,sil,be,fo,fa,sil1,cho,ze,sil2,['catch'],[1.0903999999761709],[1.0903999999761709],0.222,no_beat,0.8683999999761709,0.8683999999761709,"[""space""]",ro,3,testConjL4Syn//cat_viol.r1.s1.0.wav,2.0,conjunction_syn,syncopated,a,s1,no_rule,cat,L4,z,1.487,7.0,0.0,1.711,2 ,2.0,catalan,6.0,castellano,0.0,3.0,4.0,yes,no,yes,piano,10,,,59.0,yes
25,2023-07-30_17h24.25.873,Unsyncopated1,s4,30 ,feminino,right, España,CatalánCastellano,Upper secondary,no,yes,A,1,conjunction_un,L1,unsyncopated,s2,r1,25,Online_conjL1_un//c.ro.fo1.none.none.wav,cho,zu,fa,sil,pu,lu,ni,sil1,ki,ze,sil2,['-'],,,none,none,,,,ro,3,testConjL4Syn//r1.s2.0.wav,2.0,conjunction_syn,syncopated,a,s2,rule,rule,L4,z,1.2871,7.0,1.0,0.8189,2 ,2.0,catalan,6.0,castellano,0.0,3.0,4.0,yes,no,yes,piano,10,,,59.0,yes
26,2023-07-30_17h24.25.873,Unsyncopated1,s4,30 ,feminino,right, España,CatalánCastellano,Upper secondary,no,yes,A,1,conjunction_un,L1,unsyncopated,s2,r2,26,Online_conjL1_un//c.ro.fo0.0.222.wav,ro,fo,ri,sil,ta,fa,zu,sil1,be,ze,sil2,['catch'],[0.47160000002384095],[0.47160000002384095],0.0,beat,0.4716000000238409,0.4716000000238409,"[""space""]",ro,3,testConjL4Syn//r2.s1.2.wav,2.0,conjunction_syn,syncopated,b,s1,rule,rule,L4,z,0.5351,7.0,1.0,0.3534,2 ,2.0,catalan,6.0,castellano,0.0,3.0,4.0,yes,no,yes,piano,10,,,59.0,yes
27,2023-07-30_17h24.25.873,Unsyncopated1,s4,30 ,feminino,right, España,CatalánCastellano,Upper secondary,no,yes,A,1,conjunction_un,L1,unsyncopated,s1,r1,27,Online_conjL1_un//c.ro.fo2.none.none.wav,pu,ni,ne,sil,ki,la,ri,sil1,cho,zu,sil2,['-'],,,none,none,,,,ro,3,testConjL4Syn//r1.s1.0.wav,2.0,conjunction_syn,syncopated,a,s1,rule,rule,L4,z,0.6687,7.0,1.0,0.6606,2 ,2.0,catalan,6.0,castellano,0.0,3.0,4.0,yes,no,yes,piano,10,,,59.0,yes
28,2023-07-30_17h24.25.873,Unsyncopated1,s4,30 ,feminino,right, España,CatalánCastellano,Upper secondary,no,yes,A,1,conjunction_un,L1,unsyncopated,s2,r1,28,Online_conjL1_un//c.ro.fo24.none.none.wav,la,lu,cho,sil,pu,fa,ri,sil1,ki,ze,sil2,['-'],,,none,none,,,,ro,3,testConjL4Syn//time_viol.r2.s2.0.wav,2.0,conjunction_syn,syncopated,b,s2,no_rule,time,L4,z,0.9084,7.0,0.0,0.3525,2 ,2.0,catalan,6.0,castellano,0.0,3.0,4.0,yes,no,yes,piano,10,,,59.0,yes
29,2023-07-30_17h24.25.873,Unsyncopated1,s4,30 ,feminino,right, España,CatalánCastellano,Upper secondary,no,yes,A,1,conjunction_un,L1,unsyncopated,s1,r1,29,Online_conjL1_un//c.ro.fo27.1332.222.wav,pu,fo,lu,sil,ki,la,ro,sil1,ze,zu,sil2,['catch'],[1.8899999999999864],[1.8899999999999864],1.332,no_beat,0.5579999999999863,0.5579999999999863,"[""space""]",ro,3,testConjL4Syn//time_viol.r2.s1.0.wav,2.0,conjunction_syn,syncopated,b,s1,no_rule,time,L4,z,0.3878,7.0,0.0,0.3195,2 ,2.0,catalan,6.0,castellano,0.0,3.0,4.0,yes,no,yes,piano,10,,,59.0,yes
30,2023-07-30_17h24.25.873,Unsyncopated1,s4,30 ,feminino,right, España,CatalánCastellano,Upper secondary,no,yes,A,1,conjunction_un,L1,unsyncopated,s2,r1,30,Online_conjL1_un//c.ro.fo26.1332.0.wav,fo,lu,ne,sil,pu,ri,ro,sil1,ki,ze,sil2,['catch'],[2.090199999988158],[2.090199999988158],1.332,no_beat,0.7581999999881581,0.7581999999881581,"[""space""]",ro,3,testConjL4Syn//r2.s2.2.wav,2.0,conjunction_syn,syncopated,b,s2,rule,rule,L4,z,0.0613,7.0,1.0,0.5003,2 ,2.0,catalan,6.0,castellano,0.0,3.0,4.0,yes,no,yes,piano,10,,,59.0,yes
31,2023-07-30_17h24.25.873,Unsyncopated1,s4,30 ,feminino,right, España,CatalánCastellano,Upper secondary,no,yes,A,1,conjunction_un,L1,unsyncopated,s2,r2,31,Online_conjL1_un//c.ro.fo25.none.none.wav,ni,cho,fa,sil,ta,zu,la,sil1,be,lu,sil2,['-'],,,none,none,,,,ro,3,testConjL4Syn//r1.s1.2.wav,2.0,conjunction_syn,syncopated,a,s1,rule,rule,L4,z,1.3021,7.0,1.0,0.4241,2 ,2.0,catalan,6.0,castellano,0.0,3.0,4.0,yes,no,yes,piano,10,,,59.0,yes
32,2023-07-30_17h24.25.873,Unsyncopated1,s4,30 ,feminino,right, España,CatalánCastellano,Upper secondary,no,yes,A,1,conjunction_un,L1,unsyncopated,s2,r1,32,Online_conjL1_un//c.ro.fo5.1110.222.wav,ze,fo,lu,sil,pu,ro,zu,sil1,ki,la,sil2,['catch'],[1.87889999997617],[1.87889999997617],1.11,no_beat,0.7688999999761699,0.7688999999761699,"[""space""]",ro,3,testConjL4Syn//cat_viol.r2.s1.0.wav,2.0,conjunction_syn,syncopated,b,s1,no_rule,cat,L4,z,0.3525,7.0,0.0,0.4029,2 ,2.0,catalan,6.0,castellano,0.0,3.0,4.0,yes,no,yes,piano,10,,,59.0,yes
33,2023-07-30_17h24.25.873,Unsyncopated1,s4,30 ,feminino,right, España,CatalánCastellano,Upper secondary,no,yes,A,1,conjunction_un,L1,unsyncopated,s1,r1,33,Online_conjL1_un//c.ro.fo6.none.none.wav,pu,ne,la,sil,ki,ze,ni,sil1,zu,ri,sil2,['-'],,,none,none,,,,ro,3,testConjL4Syn//cat_viol.r1.s2.0.wav,2.0,conjunction_syn,syncopated,a,s2,no_rule,cat,L4,m,1.2889,5.0,1.0,0.736,2 ,2.0,catalan,6.0,castellano,0.0,3.0,4.0,yes,no,yes,piano,10,,,59.0,yes
34,2023-07-30_17h24.25.873,Unsyncopated1,s4,30 ,feminino,right, España,CatalánCastellano,Upper secondary,no,yes,A,1,conjunction_un,L1,unsyncopated,s2,r2,34,Online_conjL1_un//c.ro.fo7.444.1110.wav,ni,lu,ro,sil,ta,fo,fa,sil1,be,la,sil2,['catch'],[1.0283000000118818],[1.0283000000118818],0.444,no_beat,0.5843000000118819,0.5843000000118819,"[""space""]",ro,3,testConjL4Syn//r2.s2.0.wav,2.0,conjunction_syn,syncopated,b,s2,rule,rule,L4,z,0.0713,7.0,1.0,0.3705,2 ,2.0,catalan,6.0,castellano,0.0,3.0,4.0,yes,no,yes,piano,10,,,59.0,yes
35,2023-07-30_17h24.25.873,Unsyncopated1,s4,30 ,feminino,right, España,CatalánCastellano,Upper secondary,no,yes,A,1,conjunction_un,L1,unsyncopated,s2,r2,35,Online_conjL1_un//c.ro.fo4.0.1110.wav,ro,lu,fa,sil,ta,fo,ne,sil1,be,ni,sil2,['catch'],[0.6438000000118791],[0.6438000000118791],0.0,beat,0.6438000000118791,0.6438000000118791,"[""space""]",ro,3,testConjL4Syn//time_viol.r1.s2.0.wav,2.0,conjunction_syn,syncopated,a,s2,no_rule,time,L4,z,0.2048,7.0,0.0,0.2526,2 ,2.0,catalan,6.0,castellano,0.0,3.0,4.0,yes,no,yes,piano,10,,,59.0,yes
36,2023-07-30_17h24.25.873,Unsyncopated1,s4,30 ,feminino,right, España,CatalánCastellano,Upper secondary,no,yes,A,1,conjunction_un,L1,unsyncopated,s1,r1,36,Online_conjL1_un//a.pu.ki5.0.888.wav,pu,lu,zu,sil,ki,fo,la,sil1,cho,ze,sil2,"['false alarm', 'catch']","[0.44710000002385186, 2.076999999999998]",[2.076999999999998],0.888,beat,1.1889999999999985,1.1889999999999985,"[""space"",""space""]",ki,2,testConjL4Syn//cat_viol.r2.s2.0.wav,2.0,conjunction_syn,syncopated,b,s2,no_rule,cat,L4,m,2.5026,3.0,1.0,0.8853,2 ,2.0,catalan,6.0,castellano,0.0,3.0,4.0,yes,no,yes,piano,10,,,59.0,yes
37,2023-07-30_17h24.25.873,Unsyncopated1,s4,30 ,feminino,right, España,CatalánCastellano,Upper secondary,no,yes,A,1,conjunction_un,L1,unsyncopated,s1,r1,37,Online_conjL1_un//a.pu.ki7.0.888.wav,pu,la,fa,sil,ki,ri,ze,sil1,lu,ro,sil2,['catch'],[1.2573000000119237],[1.2573000000119237],0.888,beat,0.3693000000119236,0.3693000000119236,"[""space""]",ki,2,testConjL4Syn//dep_viol.r1.s1.0.wav,2.0,conjunction_syn,syncopated,a,s1,no_rule,dep,L4,m,0.319,7.0,1.0,2.5853,2 ,2.0,catalan,6.0,castellano,0.0,3.0,4.0,yes,no,yes,piano,10,,,59.0,yes
38,2023-07-30_17h24.25.873,Unsyncopated1,s4,30 ,feminino,right, España,CatalánCastellano,Upper secondary,no,yes,A,1,conjunction_un,L1,unsyncopated,s2,r1,38,Online_conjL1_un//a.pu.ki4.888.1776.wav,ni,cho,fa,sil,pu,fo,ne,sil1,ki,la,sil2,['catch'],[2.13459999996428],[2.13459999996428],1.776,beat,0.3585999999642799,0.3585999999642799,"[""space""]",ki,2,testConjL4Syn//r1.s2.1.wav,2.0,conjunction_syn,syncopated,a,s2,rule,rule,L4,m,0.3848,7.0,0.0,0.5029,2 ,2.0,catalan,6.0,castellano,0.0,3.0,4.0,yes,no,yes,piano,10,,,59.0,yes
39,2023-07-30_17h24.25.873,Unsyncopated1,s4,30 ,feminino,right, España,CatalánCastellano,Upper secondary,no,yes,A,1,conjunction_un,L1,unsyncopated,s1,r1,39,Online_conjL1_un//a.pu.ki6.0.888.wav,pu,cho,fa,sil,ki,zu,ni,sil1,ne,ro,sil2,['catch'],[1.4470000000000027],[1.4470000000000027],0.888,beat,0.5590000000000027,0.5590000000000027,"[""space""]",ki,2,testConjL4Syn//r1.s1.1.wav,2.0,conjunction_syn,syncopated,a,s1,rule,rule,L4,m,0.3674,7.0,0.0,0.6278,2 ,2.0,catalan,6.0,castellano,0.0,3.0,4.0,yes,no,yes,piano,10,,,59.0,yes
40,2023-07-30_17h24.25.873,Unsyncopated1,s4,30 ,feminino,right, España,CatalánCastellano,Upper secondary,no,yes,A,1,conjunction_un,L1,unsyncopated,s1,r1,40,Online_conjL1_un//d.ne.ni20.1110.1332.wav,pu,ro,fa,sil,ki,ne,ni,sil1,cho,fo,sil2,['catch'],[1.6894000000357892],[1.6894000000357892],1.11,no_beat,0.5794000000357891,0.5794000000357891,"[""space""]",ne,4,testConjL4Syn//r2.s1.0.wav,2.0,conjunction_syn,syncopated,b,s1,rule,rule,L4,m,0.5196,7.0,0.0,0.4958,2 ,2.0,catalan,6.0,castellano,0.0,3.0,4.0,yes,no,yes,piano,10,,,59.0,yes
41,2023-07-30_17h24.25.873,Unsyncopated1,s4,30 ,feminino,right, España,CatalánCastellano,Upper secondary,no,yes,A,1,conjunction_un,L1,unsyncopated,s1,r1,41,Online_conjL1_un//d.ne.ni22.none.none.wav,pu,cho,la,sil,ki,ro,ze,sil1,ri,lu,sil2,['false alarm'],[1.2621000000239064],[1.2621000000239064],none,none,,,"[""space""]",ne,4,testConjL4Syn//r1.s2.2.wav,2.0,conjunction_syn,syncopated,a,s2,rule,rule,L4,z,0.3351,7.0,1.0,0.4683,2 ,2.0,catalan,6.0,castellano,0.0,3.0,4.0,yes,no,yes,piano,10,,,59.0,yes
42,2023-07-30_17h24.25.873,Unsyncopated1,s4,30 ,feminino,right, España,CatalánCastellano,Upper secondary,no,yes,A,1,conjunction_un,L1,unsyncopated,s1,r1,42,Online_conjL1_un//d.ne.ni23.1110.222.wav,pu,ni,ro,sil,ki,ne,lu,sil1,zu,fa,sil2,['catch'],[1.599699999988161],[1.599699999988161],1.11,no_beat,0.4896999999881608,0.4896999999881608,"[""space""]",ne,4,testConjL4Syn//r2.s2.1.wav,2.0,conjunction_syn,syncopated,b,s2,rule,rule,L4,z,2.1025,5.0,1.0,0.3396,2 ,2.0,catalan,6.0,castellano,0.0,3.0,4.0,yes,no,yes,piano,10,,,59.0,yes
43,2023-07-30_17h24.25.873,Unsyncopated1,s4,30 ,feminino,right, España,CatalánCastellano,Upper secondary,no,yes,A,1,conjunction_un,L1,unsyncopated,s2,r2,43,Online_conjL1_un//d.ne.ni21.none.none.wav,lu,ro,ze,sil,ta,fo,cho,sil1,be,zu,sil2,['-'],,,none,none,,,,ne,4,testConjL4Syn//dep_viol.r1.s2.0.wav,2.0,conjunction_syn,syncopated,a,s2,no_rule,dep,L4,m,1.7536,7.0,1.0,0.4066,2 ,2.0,catalan,6.0,castellano,0.0,3.0,4.0,yes,no,yes,piano,10,,,59.0,yes
44,2023-07-30_17h24.25.873,Unsyncopated1,s4,30 ,feminino,right, España,CatalánCastellano,Upper secondary,no,yes,A,1,conjunction_un,L1,unsyncopated,s1,r2,44,Online_conjL1_un//a.pu.ki13.none.none.wav,ta,ne,ro,sil,be,lu,fa,sil1,zu,la,sil2,['-'],,,none,none,,,,ki,2,testConjL4Syn//time_viol.r1.s1.0.wav,2.0,conjunction_syn,syncopated,a,s1,no_rule,time,L4,z,0.6805,7.0,0.0,0.4551,2 ,2.0,catalan,6.0,castellano,0.0,3.0,4.0,yes,no,yes,piano,10,,,59.0,yes
45,2023-07-30_17h24.25.873,Unsyncopated1,s4,30 ,feminino,right, España,CatalánCastellano,Upper secondary,no,yes,A,1,conjunction_un,L1,unsyncopated,s2,r1,45,Online_conjL1_un//a.pu.ki15.888.1776.wav,cho,ri,ne,sil,pu,ze,ni,sil1,ki,zu,sil2,['catch'],[2.141199999988089],[2.141199999988089],1.776,beat,0.365199999988089,0.365199999988089,"[""space""]",ki,2,testConjL4Syn//dep_viol.r2.s2.0.wav,2.0,conjunction_syn,syncopated,b,s2,no_rule,dep,L4,z,0.2183,7.0,0.0,0.2516,2 ,2.0,catalan,6.0,castellano,0.0,3.0,4.0,yes,no,yes,piano,10,,,59.0,yes
46,2023-07-30_17h24.25.873,Unsyncopated1,s4,30 ,feminino,right, España,CatalánCastellano,Upper secondary,no,yes,A,1,conjunction_un,L1,unsyncopated,s2,r2,46,Online_conjL1_un//a.pu.ki14.none.none.wav,ne,ze,ni,sil,ta,zu,fo,sil1,be,lu,sil2,['-'],,,none,none,,,,ki,2,testConjL4Syn//dep_viol.r2.s1.0.wav,2.0,conjunction_syn,syncopated,b,s1,no_rule,dep,L4,z,0.4697,7.0,0.0,0.4532,2 ,2.0,catalan,6.0,castellano,0.0,3.0,4.0,yes,no,yes,piano,10,,,59.0,yes
47,2023-07-30_17h24.25.873,Unsyncopated1,s4,30 ,feminino,right, España,CatalánCastellano,Upper secondary,no,yes,A,1,conjunction_un,L1,unsyncopated,s2,r2,47,Online_conjL1_un//a.pu.ki12.none.none.wav,ri,ze,fo,sil,ta,lu,ro,sil1,be,ne,sil2,['-'],,,none,none,,,,ki,2,testConjL4Syn//r2.s1.1.wav,2.0,conjunction_syn,syncopated,b,s1,rule,rule,L4,m,1.0202,7.0,0.0,0.404,2 ,2.0,catalan,6.0,castellano,0.0,3.0,4.0,yes,no,yes,piano,10,,,59.0,yes
48,2023-07-30_17h24.25.873,Unsyncopated1,s4,30 ,feminino,right, España,CatalánCastellano,Upper secondary,no,yes,A,1,conjunction_un,L1,unsyncopated,s1,r2,48,Online_conjL1_un//d.ne.ni31.none.none.wav,ta,ro,cho,sil,be,ri,lu,sil1,fo,fa,sil2,['-'],,,none,none,,,,ne,4,testWhenL3Uns//cat_viol.r2.s1.0.wav,3.0,when,unsyncopated,b,s1,no_rule,cat,L3,z,0.3572,6.0,1.0,1.4625,2 ,2.0,catalan,6.0,castellano,0.0,3.0,4.0,yes,no,yes,piano,10,,,59.0,yes
49,2023-07-30_17h24.25.873,Unsyncopated1,s4,30 ,feminino,right, España,CatalánCastellano,Upper secondary,no,yes,A,1,conjunction_un,L1,unsyncopated,s2,r2,49,Online_conjL1_un//d.ne.ni29.0.444.wav,ne,ro,ni,sil,ta,fa,cho,sil1,be,ri,sil2,['catch'],[0.5801999999880536],[0.5801999999880536],0.0,beat,0.5801999999880536,0.5801999999880536,"[""space""]",ne,4,testWhenL3Uns//cat_viol.r1.s1.0.wav,3.0,when,unsyncopated,a,s1,no_rule,cat,L3,z,2.2679,7.0,1.0,0.3287,2 ,2.0,catalan,6.0,castellano,0.0,3.0,4.0,yes,no,yes,piano,10,,,59.0,yes
50,2023-07-30_17h24.25.873,Unsyncopated1,s4,30 ,feminino,right, España,CatalánCastellano,Upper secondary,no,yes,A,1,conjunction_un,L1,unsyncopated,s1,r1,50,Online_conjL1_un//d.ne.ni30.none.none.wav,pu,la,ro,sil,ki,ze,fa,sil1,ri,lu,sil2,['-'],,,none,none,,,,ne,4,testWhenL3Uns//time_viol.r2.s2.0.wav,3.0,when,unsyncopated,b,s2,no_rule,time,L3,m,1.5035,5.0,0.0,0.8705,2 ,2.0,catalan,6.0,castellano,0.0,3.0,4.0,yes,no,yes,piano,10,,,59.0,yes
51,2023-07-30_17h24.25.873,Unsyncopated1,s4,30 ,feminino,right, España,CatalánCastellano,Upper secondary,no,yes,A,1,conjunction_un,L1,unsyncopated,s1,r1,51,Online_conjL1_un//d.ne.ni28.none.none.wav,pu,ro,ri,sil,ki,la,zu,sil1,lu,cho,sil2,['-'],,,none,none,,,,ne,4,testWhenL3Uns//cat_viol.r2.s2.0.wav,3.0,when,unsyncopated,b,s2,no_rule,cat,L3,z,0.0123,7.0,1.0,0.6847,2 ,2.0,catalan,6.0,castellano,0.0,3.0,4.0,yes,no,yes,piano,10,,,59.0,yes
52,2023-07-30_17h24.25.873,Unsyncopated1,s4,30 ,feminino,right, España,CatalánCastellano,Upper secondary,no,yes,A,1,conjunction_un,L1,unsyncopated,s2,r2,52,Online_conjL1_un//c.ro.fo14.none.none.wav,ne,ze,ri,sil,ta,ni,lu,sil1,be,fa,sil2,['-'],,,none,none,,,,ro,3,testWhenL3Uns//r2.s2.2.wav,3.0,when,unsyncopated,b,s2,rule,rule,L3,m,1.0276,6.0,0.0,0.4738,2 ,2.0,catalan,6.0,castellano,0.0,3.0,4.0,yes,no,yes,piano,10,,,59.0,yes
53,2023-07-30_17h24.25.873,Unsyncopated1,s4,30 ,feminino,right, España,CatalánCastellano,Upper secondary,no,yes,A,1,conjunction_un,L1,unsyncopated,s1,r2,53,Online_conjL1_un//c.ro.fo13.1332.222.wav,ta,fo,fa,sil,be,ri,ro,sil1,ne,cho,sil2,['catch'],[2.1642000000476855],[2.1642000000476855],1.332,no_beat,0.8322000000476855,0.8322000000476855,"[""space""]",ro,3,testWhenL3Uns//r1.s2.1.wav,3.0,when,unsyncopated,a,s2,rule,rule,L3,z,0.0183,7.0,1.0,0.553,2 ,2.0,catalan,6.0,castellano,0.0,3.0,4.0,yes,no,yes,piano,10,,,59.0,yes
54,2023-07-30_17h24.25.873,Unsyncopated1,s4,30 ,feminino,right, España,CatalánCastellano,Upper secondary,no,yes,A,1,conjunction_un,L1,unsyncopated,s2,r1,54,Online_conjL1_un//c.ro.fo12.222.1110.wav,lu,ro,cho,sil,pu,fo,ze,sil1,ki,la,sil2,['catch'],[0.9641999999880682],[0.9641999999880682],0.222,no_beat,0.7421999999880682,0.7421999999880682,"[""space""]",ro,3,testWhenL3Uns//r2.s1.2.wav,3.0,when,unsyncopated,b,s1,rule,rule,L3,z,0.3519,4.0,1.0,0.6551,2 ,2.0,catalan,6.0,castellano,0.0,3.0,4.0,yes,no,yes,piano,10,,,59.0,yes
55,2023-07-30_17h24.25.873,Unsyncopated1,s4,30 ,feminino,right, España,CatalánCastellano,Upper secondary,no,yes,A,1,conjunction_un,L1,unsyncopated,s1,r1,55,Online_conjL1_un//c.ro.fo15.none.none.wav,pu,la,ri,sil,ki,lu,zu,sil1,cho,ni,sil2,['-'],,,none,none,,,,ro,3,testWhenL3Uns//r1.s1.2.wav,3.0,when,unsyncopated,a,s1,rule,rule,L3,z,0.4182,5.0,1.0,0.8353,2 ,2.0,catalan,6.0,castellano,0.0,3.0,4.0,yes,no,yes,piano,10,,,59.0,yes
56,2023-07-30_17h24.25.873,Unsyncopated1,s4,30 ,feminino,right, España,CatalánCastellano,Upper secondary,no,yes,A,1,conjunction_un,L1,unsyncopated,s1,r2,56,Online_conjL1_un//a.pu.ki10.none.none.wav,ta,ze,ni,sil,be,zu,fa,sil1,ro,fo,sil2,['-'],,,none,none,,,,ki,2,testWhenL3Uns//dep_viol.r1.s2.0.wav,3.0,when,unsyncopated,a,s2,no_rule,dep,L3,z,0.5431,7.0,1.0,0.3894,2 ,2.0,catalan,6.0,castellano,0.0,3.0,4.0,yes,no,yes,piano,10,,,59.0,yes
57,2023-07-30_17h24.25.873,Unsyncopated1,s4,30 ,feminino,right, España,CatalánCastellano,Upper secondary,no,yes,A,1,conjunction_un,L1,unsyncopated,s1,r1,57,Online_conjL1_un//a.pu.ki8.0.888.wav,pu,ne,ro,sil,ki,ze,zu,sil1,la,ni,sil2,['catch'],[1.3044999999999618],[1.3044999999999618],0.888,beat,0.4164999999999618,0.4164999999999618,"[""space""]",ki,2,testWhenL3Uns//dep_viol.r2.s2.0.wav,3.0,when,unsyncopated,b,s2,no_rule,dep,L3,m,1.3181,5.0,0.0,0.8686,2 ,2.0,catalan,6.0,castellano,0.0,3.0,4.0,yes,no,yes,piano,10,,,59.0,yes
58,2023-07-30_17h24.25.873,Unsyncopated1,s4,30 ,feminino,right, España,CatalánCastellano,Upper secondary,no,yes,A,1,conjunction_un,L1,unsyncopated,s1,r1,58,Online_conjL1_un//a.pu.ki9.0.888.wav,pu,ne,fo,sil,ki,fa,ni,sil1,ze,ri,sil2,['catch'],[1.6918999999761581],[1.6918999999761581],0.888,beat,0.8038999999761581,0.8038999999761581,"[""space""]",ki,2,testWhenL3Uns//dep_viol.r1.s1.0.wav,3.0,when,unsyncopated,a,s1,no_rule,dep,L3,m,0.4422,5.0,0.0,0.7293,2 ,2.0,catalan,6.0,castellano,0.0,3.0,4.0,yes,no,yes,piano,10,,,59.0,yes
59,2023-07-30_17h24.25.873,Unsyncopated1,s4,30 ,feminino,right, España,CatalánCastellano,Upper secondary,no,yes,A,1,conjunction_un,L1,unsyncopated,s1,r1,59,Online_conjL1_un//a.pu.ki11.0.888.wav,pu,fa,fo,sil,ki,ze,lu,sil1,ri,ni,sil2,['catch'],[1.5421999999881564],[1.5421999999881564],0.888,beat,0.6541999999881564,0.6541999999881564,"[""space""]",ki,2,testWhenL3Uns//time_viol.r1.s1.0.wav,3.0,when,unsyncopated,a,s1,no_rule,time,L3,m,1.2763,5.0,0.0,0.6869,2 ,2.0,catalan,6.0,castellano,0.0,3.0,4.0,yes,no,yes,piano,10,,,59.0,yes
60,2023-07-30_17h24.25.873,Unsyncopated1,s4,30 ,feminino,right, España,CatalánCastellano,Upper secondary,no,yes,A,1,conjunction_un,L1,unsyncopated,s1,r2,60,Online_conjL1_un//d.ne.ni8.1776.222.wav,ta,ni,ri,sil,be,zu,lu,sil1,ne,fa,sil2,['catch'],[2.58760000002394],[2.58760000002394],1.776,beat,0.8116000000239401,0.8116000000239401,"[""space""]",ne,4,testWhenL3Uns//r1.s2.0.wav,3.0,when,unsyncopated,a,s2,rule,rule,L3,m,0.9764,5.0,0.0,0.5726,2 ,2.0,catalan,6.0,castellano,0.0,3.0,4.0,yes,no,yes,piano,10,,,59.0,yes
61,2023-07-30_17h24.25.873,Unsyncopated1,s4,30 ,feminino,right, España,CatalánCastellano,Upper secondary,no,yes,A,1,conjunction_un,L1,unsyncopated,s2,r1,61,Online_conjL1_un//d.ne.ni10.1110.222.wav,la,ni,cho,sil,pu,ne,lu,sil1,ki,zu,sil2,['miss'],,,1.11,no_beat,,,,ne,4,testWhenL3Uns//r2.s1.0.wav,3.0,when,unsyncopated,b,s1,rule,rule,L3,z,1.1048,6.0,1.0,0.3857,2 ,2.0,catalan,6.0,castellano,0.0,3.0,4.0,yes,no,yes,piano,10,,,59.0,yes
62,2023-07-30_17h24.25.873,Unsyncopated1,s4,30 ,feminino,right, España,CatalánCastellano,Upper secondary,no,yes,A,1,conjunction_un,L1,unsyncopated,s1,r2,62,Online_conjL1_un//d.ne.ni9.none.none.wav,ta,ro,fo,sil,be,zu,cho,sil1,lu,ze,sil2,['-'],,,none,none,,,,ne,4,testWhenL3Uns//r1.s2.2.wav,3.0,when,unsyncopated,a,s2,rule,rule,L3,z,1.6185,7.0,1.0,0.3036,2 ,2.0,catalan,6.0,castellano,0.0,3.0,4.0,yes,no,yes,piano,10,,,59.0,yes
63,2023-07-30_17h24.25.873,Unsyncopated1,s4,30 ,feminino,right, España,CatalánCastellano,Upper secondary,no,yes,A,1,conjunction_un,L1,unsyncopated,s2,r2,63,Online_conjL1_un//d.ne.ni11.none.none.wav,ro,zu,la,sil,ta,ze,cho,sil1,be,fa,sil2,['-'],,,none,none,,,,ne,4,testWhenL3Uns//r2.s1.1.wav,3.0,when,unsyncopated,b,s1,rule,rule,L3,z,1.0858,5.0,1.0,0.9256,2 ,2.0,catalan,6.0,castellano,0.0,3.0,4.0,yes,no,yes,piano,10,,,59.0,yes
64,2023-07-30_17h24.25.873,Unsyncopated1,s4,30 ,feminino,right, España,CatalánCastellano,Upper secondary,no,yes,A,1,conjunction_un,L1,unsyncopated,s2,r1,64,Online_conjL1_un//b.ta.be10.none.none.wav,ni,lu,cho,sil,pu,fa,zu,sil1,ki,fo,sil2,['-'],,,none,none,,,,ta,1,testWhenL3Uns//r1.s1.1.wav,3.0,when,unsyncopated,a,s1,rule,rule,L3,z,0.085,6.0,1.0,0.4854,2 ,2.0,catalan,6.0,castellano,0.0,3.0,4.0,yes,no,yes,piano,10,,,59.0,yes
65,2023-07-30_17h24.25.873,Unsyncopated1,s4,30 ,feminino,right, España,CatalánCastellano,Upper secondary,no,yes,A,1,conjunction_un,L1,unsyncopated,s1,r2,65,Online_conjL1_un//b.ta.be11.0.888.wav,ta,fa,lu,sil,be,ni,ze,sil1,ri,ro,sil2,['catch'],[0.4486000000238164],[0.4486000000238164],0.0,beat,0.4486000000238164,0.4486000000238164,"[""space""]",ta,1,testWhenL3Uns//dep_viol.r2.s1.0.wav,3.0,when,unsyncopated,b,s1,no_rule,dep,L3,z,0.6398,6.0,1.0,0.8566,2 ,2.0,catalan,6.0,castellano,0.0,3.0,4.0,yes,no,yes,piano,10,,,59.0,yes
66,2023-07-30_17h24.25.873,Unsyncopated1,s4,30 ,feminino,right, España,CatalánCastellano,Upper secondary,no,yes,A,1,conjunction_un,L1,unsyncopated,s2,r1,66,Online_conjL1_un//b.ta.be9.none.none.wav,fa,ne,lu,sil,pu,ri,la,sil1,ki,ni,sil2,['-'],,,none,none,,,,ta,1,testWhenL3Uns//r1.s1.0.wav,3.0,when,unsyncopated,a,s1,rule,rule,L3,z,1.6192,6.0,1.0,0.3205,2 ,2.0,catalan,6.0,castellano,0.0,3.0,4.0,yes,no,yes,piano,10,,,59.0,yes
67,2023-07-30_17h24.25.873,Unsyncopated1,s4,30 ,feminino,right, España,CatalánCastellano,Upper secondary,no,yes,A,1,conjunction_un,L1,unsyncopated,s1,r2,67,Online_conjL1_un//b.ta.be8.0.888.wav,ta,la,ne,sil,be,lu,ni,sil1,ro,fa,sil2,['catch'],[0.5623000000119873],[0.5623000000119873],0.0,beat,0.5623000000119873,0.5623000000119873,"[""space""]",ta,1,testWhenL3Uns//r2.s2.1.wav,3.0,when,unsyncopated,b,s2,rule,rule,L3,z,0.4682,5.0,1.0,2.9275,2 ,2.0,catalan,6.0,castellano,0.0,3.0,4.0,yes,no,yes,piano,10,,,59.0,yes
68,2023-07-30_17h24.25.873,Unsyncopated1,s4,30 ,feminino,right, España,CatalánCastellano,Upper secondary,no,yes,A,1,conjunction_un,L1,unsyncopated,s2,r1,68,Online_conjL1_un//d.ne.ni1.222.444.wav,ro,ne,ni,sil,pu,ze,fo,sil1,ki,cho,sil2,['catch'],[0.841699999988009],[0.841699999988009],0.222,no_beat,0.6196999999880091,0.6196999999880091,"[""space""]",ne,4,testWhenL3Uns//cat_viol.r1.s2.0.wav,3.0,when,unsyncopated,a,s2,no_rule,cat,L3,m,1.437,5.0,0.0,0.5366,2 ,2.0,catalan,6.0,castellano,0.0,3.0,4.0,yes,no,yes,piano,10,,,59.0,yes
69,2023-07-30_17h24.25.873,Unsyncopated1,s4,30 ,feminino,right, España,CatalánCastellano,Upper secondary,no,yes,A,1,conjunction_un,L1,unsyncopated,s2,r1,69,Online_conjL1_un//d.ne.ni0.none.none.wav,ro,lu,fa,sil,pu,fo,ri,sil1,ki,ze,sil2,['-'],,,none,none,,,,ne,4,testWhenL3Uns//time_viol.r2.s1.0.wav,3.0,when,unsyncopated,b,s1,no_rule,time,L3,z,0.3867,5.0,1.0,0.4724,2 ,2.0,catalan,6.0,castellano,0.0,3.0,4.0,yes,no,yes,piano,10,,,59.0,yes
70,2023-07-30_17h24.25.873,Unsyncopated1,s4,30 ,feminino,right, España,CatalánCastellano,Upper secondary,no,yes,A,1,conjunction_un,L1,unsyncopated,s1,r1,70,Online_conjL1_un//d.ne.ni2.none.none.wav,pu,ze,fa,sil,ki,ro,cho,sil1,lu,zu,sil2,['-'],,,none,none,,,,ne,4,testWhenL3Uns//r2.s2.0.wav,3.0,when,unsyncopated,b,s2,rule,rule,L3,z,0.2862,6.0,1.0,1.0536,2 ,2.0,catalan,6.0,castellano,0.0,3.0,4.0,yes,no,yes,piano,10,,,59.0,yes
71,2023-07-30_17h24.25.873,Unsyncopated1,s4,30 ,feminino,right, España,CatalánCastellano,Upper secondary,no,yes,A,1,conjunction_un,L1,unsyncopated,s2,r1,71,Online_conjL1_un//d.ne.ni3.none.none.wav,cho,lu,zu,sil,pu,ro,la,sil1,ki,ri,sil2,['-'],,,none,none,,,,ne,4,testWhenL3Uns//time_viol.r1.s2.0.wav,3.0,when,unsyncopated,a,s2,no_rule,time,L3,z,0.3363,6.0,1.0,1.4015,2 ,2.0,catalan,6.0,castellano,0.0,3.0,4.0,yes,no,yes,piano,10,,,59.0,yes
72,2023-07-30_17h24.25.873,Unsyncopated1,s4,30 ,feminino,right, España,CatalánCastellano,Upper secondary,no,yes,A,1,conjunction_un,L1,unsyncopated,s1,r2,72,Online_conjL1_un//a.pu.ki3.none.none.wav,ta,fo,lu,sil,be,ze,cho,sil1,ri,la,sil2,['false alarm'],[0.8145000000000664],[0.8145000000000664],none,none,,,"[""space""]",ki,2,testWhatL2Uns//r2.s1.2.wav,4.0,what,unsyncopated,b,s1,rule,rule,L2,z,0.4521,7.0,1.0,1.4751,2 ,2.0,catalan,6.0,castellano,0.0,3.0,4.0,yes,no,yes,piano,10,,,59.0,yes
73,2023-07-30_17h24.25.873,Unsyncopated1,s4,30 ,feminino,right, España,CatalánCastellano,Upper secondary,no,yes,A,1,conjunction_un,L1,unsyncopated,s1,r2,73,Online_conjL1_un//a.pu.ki2.none.none.wav,ta,ro,ne,sil,be,lu,fo,sil1,la,ri,sil2,['-'],,,none,none,,,,ki,2,testWhatL2Uns//r1.s2.1.wav,4.0,what,unsyncopated,a,s2,rule,rule,L2,z,0.4474,7.0,1.0,0.4175,2 ,2.0,catalan,6.0,castellano,0.0,3.0,4.0,yes,no,yes,piano,10,,,59.0,yes
74,2023-07-30_17h24.25.873,Unsyncopated1,s4,30 ,feminino,right, España,CatalánCastellano,Upper secondary,no,yes,A,1,conjunction_un,L1,unsyncopated,s2,r1,74,Online_conjL1_un//a.pu.ki1.888.1776.wav,ro,fa,ne,sil,pu,lu,cho,sil1,ki,ri,sil2,['catch'],[2.223900000035769],[2.223900000035769],1.776,beat,0.4479000000357691,0.4479000000357691,"[""space""]",ki,2,testWhatL2Uns//dep_viol.r2.s1.0.wav,4.0,what,unsyncopated,b,s1,no_rule,dep,L2,z,0.602,7.0,0.0,0.3886,2 ,2.0,catalan,6.0,castellano,0.0,3.0,4.0,yes,no,yes,piano,10,,,59.0,yes
75,2023-07-30_17h24.25.873,Unsyncopated1,s4,30 ,feminino,right, España,CatalánCastellano,Upper secondary,no,yes,A,1,conjunction_un,L1,unsyncopated,s2,r1,75,Online_conjL1_un//a.pu.ki0.888.1776.wav,ni,zu,ne,sil,pu,fa,ze,sil1,ki,ri,sil2,['catch'],[2.3706999999880054],[2.3706999999880054],1.776,beat,0.5946999999880054,0.5946999999880054,"[""space""]",ki,2,testWhatL2Uns//time_viol.r1.s2.0.wav,4.0,what,unsyncopated,a,s2,no_rule,time,L2,m,0.7036,5.0,1.0,0.822,2 ,2.0,catalan,6.0,castellano,0.0,3.0,4.0,yes,no,yes,piano,10,,,59.0,yes
76,2023-07-30_17h24.25.873,Unsyncopated1,s4,30 ,feminino,right, España,CatalánCastellano,Upper secondary,no,yes,A,1,conjunction_un,L1,unsyncopated,s1,r2,76,Online_conjL1_un//c.ro.fo20.none.none.wav,ta,ri,ni,sil,be,ze,cho,sil1,la,fa,sil2,['false alarm'],[0.9092000000476901],[0.9092000000476901],none,none,,,"[""space""]",ro,3,testWhatL2Uns//r1.s2.0.wav,4.0,what,unsyncopated,a,s2,rule,rule,L2,m,0.32,6.0,0.0,0.7854,2 ,2.0,catalan,6.0,castellano,0.0,3.0,4.0,yes,no,yes,piano,10,,,59.0,yes
77,2023-07-30_17h24.25.873,Unsyncopated1,s4,30 ,feminino,right, España,CatalánCastellano,Upper secondary,no,yes,A,1,conjunction_un,L1,unsyncopated,s1,r1,77,Online_conjL1_un//c.ro.fo22.444.1332.wav,pu,la,ro,sil,ki,ri,fo,sil1,cho,ni,sil2,"['catch', 'false alarm']","[1.9566000000238546, 2.270999999999958]",[1.9566000000238546],0.444,no_beat,,1.5126000000238546,"[""space"",""space""]",ro,3,testWhatL2Uns//cat_viol.r1.s2.0.wav,4.0,what,unsyncopated,a,s2,no_rule,cat,L2,z,0.2688,7.0,0.0,0.3359,2 ,2.0,catalan,6.0,castellano,0.0,3.0,4.0,yes,no,yes,piano,10,,,59.0,yes
78,2023-07-30_17h24.25.873,Unsyncopated1,s4,30 ,feminino,right, España,CatalánCastellano,Upper secondary,no,yes,A,1,conjunction_un,L1,unsyncopated,s2,r1,78,Online_conjL1_un//c.ro.fo21.none.none.wav,zu,lu,cho,sil,pu,la,ne,sil1,ki,fa,sil2,['-'],,,none,none,,,,ro,3,testWhatL2Uns//time_viol.r2.s2.0.wav,4.0,what,unsyncopated,b,s2,no_rule,time,L2,m,1.1571,6.0,1.0,0.4967,2 ,2.0,catalan,6.0,castellano,0.0,3.0,4.0,yes,no,yes,piano,10,,,59.0,yes
79,2023-07-30_17h24.25.873,Unsyncopated1,s4,30 ,feminino,right, España,CatalánCastellano,Upper secondary,no,yes,A,1,conjunction_un,L1,unsyncopated,s1,r1,79,Online_conjL1_un//c.ro.fo23.444.1332.wav,pu,ri,ro,sil,ki,ne,fo,sil1,cho,ze,sil2,['catch'],[1.1044999999999163],[1.1044999999999163],0.444,no_beat,0.6604999999999164,0.6604999999999164,"[""space""]",ro,3,testWhatL2Uns//dep_viol.r2.s2.0.wav,4.0,what,unsyncopated,b,s2,no_rule,dep,L2,z,1.3855,7.0,0.0,1.0206,2 ,2.0,catalan,6.0,castellano,0.0,3.0,4.0,yes,no,yes,piano,10,,,59.0,yes
80,2023-07-30_17h24.25.873,Unsyncopated1,s4,30 ,feminino,right, España,CatalánCastellano,Upper secondary,no,yes,A,1,conjunction_un,L1,unsyncopated,s1,r2,80,Online_conjL1_un//c.ro.fo11.none.none.wav,ta,lu,la,sil,be,fa,ne,sil1,ze,ni,sil2,['-'],,,none,none,,,,ro,3,testWhatL2Uns//r1.s2.2.wav,4.0,what,unsyncopated,a,s2,rule,rule,L2,m,2.4282,6.0,0.0,0.7243,2 ,2.0,catalan,6.0,castellano,0.0,3.0,4.0,yes,no,yes,piano,10,,,59.0,yes
81,2023-07-30_17h24.25.873,Unsyncopated1,s4,30 ,feminino,right, España,CatalánCastellano,Upper secondary,no,yes,A,1,conjunction_un,L1,unsyncopated,s1,r2,81,Online_conjL1_un//c.ro.fo10.none.none.wav,ta,zu,cho,sil,be,ze,la,sil1,ne,lu,sil2,['-'],,,none,none,,,,ro,3,testWhatL2Uns//r1.s1.1.wav,4.0,what,unsyncopated,a,s1,rule,rule,L2,m,0.6017,7.0,0.0,0.6355,2 ,2.0,catalan,6.0,castellano,0.0,3.0,4.0,yes,no,yes,piano,10,,,59.0,yes
82,2023-07-30_17h24.25.873,Unsyncopated1,s4,30 ,feminino,right, España,CatalánCastellano,Upper secondary,no,yes,A,1,conjunction_un,L1,unsyncopated,s2,r2,82,Online_conjL1_un//c.ro.fo8.none.none.wav,ni,cho,ri,sil,ta,la,ze,sil1,be,zu,sil2,['-'],,,none,none,,,,ro,3,testWhatL2Uns//r1.s1.2.wav,4.0,what,unsyncopated,a,s1,rule,rule,L2,z,3.3131,7.0,1.0,0.333,2 ,2.0,catalan,6.0,castellano,0.0,3.0,4.0,yes,no,yes,piano,10,,,59.0,yes
83,2023-07-30_17h24.25.873,Unsyncopated1,s4,30 ,feminino,right, España,CatalánCastellano,Upper secondary,no,yes,A,1,conjunction_un,L1,unsyncopated,s2,r1,83,Online_conjL1_un//c.ro.fo9.1332.444.wav,ri,ze,fo,sil,pu,fa,ro,sil1,ki,ne,sil2,['miss'],,,1.332,no_beat,,,,ro,3,testWhatL2Uns//r1.s1.0.wav,4.0,what,unsyncopated,a,s1,rule,rule,L2,m,0.6861,7.0,0.0,0.4524,2 ,2.0,catalan,6.0,castellano,0.0,3.0,4.0,yes,no,yes,piano,10,,,59.0,yes
84,2023-07-30_17h24.25.873,Unsyncopated1,s4,30 ,feminino,right, España,CatalánCastellano,Upper secondary,no,yes,A,1,conjunction_un,L1,unsyncopated,s1,r2,84,Online_conjL1_un//d.ne.ni4.1110.1332.wav,ta,lu,la,sil,be,ne,ni,sil1,fa,fo,sil2,['catch'],[1.6821000000238655],[1.6821000000238655],1.11,no_beat,0.5721000000238654,0.5721000000238654,"[""space""]",ne,4,testWhatL2Uns//r2.s2.0.wav,4.0,what,unsyncopated,b,s2,rule,rule,L2,z,1.0411,6.0,1.0,0.4621,2 ,2.0,catalan,6.0,castellano,0.0,3.0,4.0,yes,no,yes,piano,10,,,59.0,yes
85,2023-07-30_17h24.25.873,Unsyncopated1,s4,30 ,feminino,right, España,CatalánCastellano,Upper secondary,no,yes,A,1,conjunction_un,L1,unsyncopated,s1,r2,85,Online_conjL1_un//d.ne.ni5.1332.444.wav,ta,fa,ni,sil,be,cho,ne,sil1,ri,lu,sil2,['miss'],,,1.332,no_beat,,,,ne,4,testWhatL2Uns//dep_viol.r1.s1.0.wav,4.0,what,unsyncopated,a,s1,no_rule,dep,L2,m,1.5332,5.0,1.0,0.886,2 ,2.0,catalan,6.0,castellano,0.0,3.0,4.0,yes,no,yes,piano,10,,,59.0,yes
86,2023-07-30_17h24.25.873,Unsyncopated1,s4,30 ,feminino,right, España,CatalánCastellano,Upper secondary,no,yes,A,1,conjunction_un,L1,unsyncopated,s2,r1,86,Online_conjL1_un//d.ne.ni6.0.1110.wav,ne,ro,ze,sil,pu,ni,ri,sil1,ki,zu,sil2,['catch'],[0.661700000047631],[0.661700000047631],0.0,beat,0.661700000047631,0.661700000047631,"[""space""]",ne,4,testWhatL2Uns//dep_viol.r1.s2.0.wav,4.0,what,unsyncopated,a,s2,no_rule,dep,L2,m,0.5461,5.0,1.0,0.533,2 ,2.0,catalan,6.0,castellano,0.0,3.0,4.0,yes,no,yes,piano,10,,,59.0,yes
87,2023-07-30_17h24.25.873,Unsyncopated1,s4,30 ,feminino,right, España,CatalánCastellano,Upper secondary,no,yes,A,1,conjunction_un,L1,unsyncopated,s2,r2,87,Online_conjL1_un//d.ne.ni7.none.none.wav,cho,ro,la,sil,ta,ze,fa,sil1,be,lu,sil2,['-'],,,none,none,,,,ne,4,testWhatL2Uns//r2.s1.0.wav,4.0,what,unsyncopated,b,s1,rule,rule,L2,m,0.3687,6.0,0.0,0.6361,2 ,2.0,catalan,6.0,castellano,0.0,3.0,4.0,yes,no,yes,piano,10,,,59.0,yes
88,2023-07-30_17h24.25.873,Unsyncopated1,s4,30 ,feminino,right, España,CatalánCastellano,Upper secondary,no,yes,A,1,conjunction_un,L1,unsyncopated,s2,r2,88,Online_conjL1_un//a.pu.ki30.none.none.wav,ri,lu,ze,sil,ta,zu,fa,sil1,be,ne,sil2,['-'],,,none,none,,,,ki,2,testWhatL2Uns//cat_viol.r2.s2.0.wav,4.0,what,unsyncopated,b,s2,no_rule,cat,L2,z,1.2524,5.0,0.0,0.6509,2 ,2.0,catalan,6.0,castellano,0.0,3.0,4.0,yes,no,yes,piano,10,,,59.0,yes
89,2023-07-30_17h24.25.873,Unsyncopated1,s4,30 ,feminino,right, España,CatalánCastellano,Upper secondary,no,yes,A,1,conjunction_un,L1,unsyncopated,s2,r2,89,Online_conjL1_un//a.pu.ki28.none.none.wav,ne,zu,ze,sil,ta,ni,fa,sil1,be,lu,sil2,['-'],,,none,none,,,,ki,2,testWhatL2Uns//time_viol.r2.s1.0.wav,4.0,what,unsyncopated,b,s1,no_rule,time,L2,z,0.3355,5.0,0.0,0.9092,2 ,2.0,catalan,6.0,castellano,0.0,3.0,4.0,yes,no,yes,piano,10,,,59.0,yes
90,2023-07-30_17h24.25.873,Unsyncopated1,s4,30 ,feminino,right, España,CatalánCastellano,Upper secondary,no,yes,A,1,conjunction_un,L1,unsyncopated,s1,r1,90,Online_conjL1_un//a.pu.ki29.0.888.wav,pu,fa,ze,sil,ki,la,cho,sil1,ro,ni,sil2,['miss'],,,0.888,beat,,,,ki,2,testWhatL2Uns//r2.s1.1.wav,4.0,what,unsyncopated,b,s1,rule,rule,L2,m,1.4768,7.0,0.0,0.4864,2 ,2.0,catalan,6.0,castellano,0.0,3.0,4.0,yes,no,yes,piano,10,,,59.0,yes
91,2023-07-30_17h24.25.873,Unsyncopated1,s4,30 ,feminino,right, España,CatalánCastellano,Upper secondary,no,yes,A,1,conjunction_un,L1,unsyncopated,s2,r2,91,Online_conjL1_un//a.pu.ki31.none.none.wav,ze,la,ni,sil,ta,ne,lu,sil1,be,cho,sil2,['-'],,,none,none,,,,ki,2,testWhatL2Uns//cat_viol.r1.s1.0.wav,4.0,what,unsyncopated,a,s1,no_rule,cat,L2,m,0.8208,6.0,1.0,0.5744,2 ,2.0,catalan,6.0,castellano,0.0,3.0,4.0,yes,no,yes,piano,10,,,59.0,yes
92,2023-07-30_17h24.25.873,Unsyncopated1,s4,30 ,feminino,right, España,CatalánCastellano,Upper secondary,no,yes,A,1,conjunction_un,L1,unsyncopated,s1,r2,92,Online_conjL1_un//b.ta.be29.0.888.wav,ta,ze,lu,sil,be,la,zu,sil1,fo,fa,sil2,['catch'],[0.5900999999641954],[0.5900999999641954],0.0,beat,0.5900999999641954,0.5900999999641954,"[""space""]",ta,1,testWhatL2Uns//time_viol.r1.s1.0.wav,4.0,what,unsyncopated,a,s1,no_rule,time,L2,m,0.1762,5.0,1.0,0.8365,2 ,2.0,catalan,6.0,castellano,0.0,3.0,4.0,yes,no,yes,piano,10,,,59.0,yes
93,2023-07-30_17h24.25.873,Unsyncopated1,s4,30 ,feminino,right, España,CatalánCastellano,Upper secondary,no,yes,A,1,conjunction_un,L1,unsyncopated,s1,r2,93,Online_conjL1_un//b.ta.be28.0.888.wav,ta,fo,ni,sil,be,ze,ne,sil1,fa,ri,sil2,['catch'],[0.7479000000357701],[0.7479000000357701],0.0,beat,0.7479000000357701,0.7479000000357701,"[""space""]",ta,1,testWhatL2Uns//r2.s2.1.wav,4.0,what,unsyncopated,b,s2,rule,rule,L2,z,2.0233,5.0,1.0,0.6867,2 ,2.0,catalan,6.0,castellano,0.0,3.0,4.0,yes,no,yes,piano,10,,,59.0,yes
94,2023-07-30_17h24.25.873,Unsyncopated1,s4,30 ,feminino,right, España,CatalánCastellano,Upper secondary,no,yes,A,1,conjunction_un,L1,unsyncopated,s2,r2,94,Online_conjL1_un//b.ta.be31.888.1776.wav,la,cho,zu,sil,ta,ne,ri,sil1,be,ze,sil2,['catch'],[1.77800000000002],[1.77800000000002],0.888,beat,0.89000000000002,0.89000000000002,"[""space""]",ta,1,testWhatL2Uns//cat_viol.r2.s1.0.wav,4.0,what,unsyncopated,b,s1,no_rule,cat,L2,z,0.2191,7.0,0.0,0.7585,2 ,2.0,catalan,6.0,castellano,0.0,3.0,4.0,yes,no,yes,piano,10,,,59.0,yes
95,2023-07-30_17h24.25.873,Unsyncopated1,s4,30 ,feminino,right, España,CatalánCastellano,Upper secondary,no,yes,A,1,conjunction_un,L1,unsyncopated,s1,r1,95,Online_conjL1_un//b.ta.be30.none.none.wav,pu,fa,lu,sil,ki,ni,ne,sil1,ri,ro,sil2,['-'],,,none,none,,,,ta,1,testWhatL2Uns//r2.s2.2.wav,4.0,what,unsyncopated,b,s2,rule,rule,L2,z,0.6528,6.0,1.0,0.8353,2 ,2.0,catalan,6.0,castellano,0.0,3.0,4.0,yes,no,yes,piano,10,,,59.0,yes
96,2023-07-30_17h24.25.873,Unsyncopated1,s4,30 ,feminino,right, España,CatalánCastellano,Upper secondary,no,yes,A,1,conjunction_un,L1,unsyncopated,s1,r2,96,Online_conjL1_un//c.ro.fo18.1776.222.wav,ta,fo,ni,sil,be,cho,zu,sil1,ro,ne,sil2,"['false alarm', 'catch']","[0.4887999999523345, 2.339099999964219]",[2.339099999964219],1.776,beat,0.563099999964219,0.563099999964219,"[""space"",""space""]",ro,3,,,,,,,,,,,,,,,2 ,2.0,catalan,6.0,castellano,0.0,3.0,4.0,yes,no,yes,piano,10,,,59.0,yes
97,2023-07-30_17h24.25.873,Unsyncopated1,s4,30 ,feminino,right, España,CatalánCastellano,Upper secondary,no,yes,A,1,conjunction_un,L1,unsyncopated,s2,r2,97,Online_conjL1_un//c.ro.fo19.none.none.wav,cho,ne,zu,sil,ta,fa,lu,sil1,be,ze,sil2,['-'],,,none,none,,,,ro,3,,,,,,,,,,,,,,,2 ,2.0,catalan,6.0,castellano,0.0,3.0,4.0,yes,no,yes,piano,10,,,59.0,yes
98,2023-07-30_17h24.25.873,Unsyncopated1,s4,30 ,feminino,right, España,CatalánCastellano,Upper secondary,no,yes,A,1,conjunction_un,L1,unsyncopated,s1,r2,98,Online_conjL1_un//c.ro.fo16.none.none.wav,ta,lu,fa,sil,be,zu,ze,sil1,ne,cho,sil2,['-'],,,none,none,,,,ro,3,,,,,,,,,,,,,,,2 ,2.0,catalan,6.0,castellano,0.0,3.0,4.0,yes,no,yes,piano,10,,,59.0,yes
99,2023-07-30_17h24.25.873,Unsyncopated1,s4,30 ,feminino,right, España,CatalánCastellano,Upper secondary,no,yes,A,1,conjunction_un,L1,unsyncopated,s2,r1,99,Online_conjL1_un//c.ro.fo17.none.none.wav,cho,lu,zu,sil,pu,ze,ni,sil1,ki,la,sil2,['-'],,,none,none,,,,ro,3,,,,,,,,,,,,,,,2 ,2.0,catalan,6.0,castellano,0.0,3.0,4.0,yes,no,yes,piano,10,,,59.0,yes
100,2023-07-30_17h24.25.873,Unsyncopated1,s4,30 ,feminino,right, España,CatalánCastellano,Upper secondary,no,yes,A,1,conjunction_un,L1,unsyncopated,s2,r1,100,Online_conjL1_un//a.pu.ki26.888.1776.wav,zu,ze,cho,sil,pu,ni,ne,sil1,ki,fo,sil2,['catch_delay'],[1.079000000000031],[1.079000000000031],1.776,beat,1.079000000000031,1.079000000000031,"[""space""]",ki,2,,,,,,,,,,,,,,,2 ,2.0,catalan,6.0,castellano,0.0,3.0,4.0,yes,no,yes,piano,10,,,59.0,yes
101,2023-07-30_17h24.25.873,Unsyncopated1,s4,30 ,feminino,right, España,CatalánCastellano,Upper secondary,no,yes,A,1,conjunction_un,L1,unsyncopated,s1,r2,101,Online_conjL1_un//a.pu.ki24.none.none.wav,ta,lu,ri,sil,be,la,zu,sil1,fa,ze,sil2,['-'],[0.19100000000003092],[0.19100000000003092],none,none,,,"[""space""]",ki,2,,,,,,,,,,,,,,,2 ,2.0,catalan,6.0,castellano,0.0,3.0,4.0,yes,no,yes,piano,10,,,59.0,yes
102,2023-07-30_17h24.25.873,Unsyncopated1,s4,30 ,feminino,right, España,CatalánCastellano,Upper secondary,no,yes,A,1,conjunction_un,L1,unsyncopated,s1,r2,102,Online_conjL1_un//a.pu.ki25.none.none.wav,ta,lu,la,sil,be,cho,ro,sil1,ni,zu,sil2,['-'],,,none,none,,,,ki,2,,,,,,,,,,,,,,,2 ,2.0,catalan,6.0,castellano,0.0,3.0,4.0,yes,no,yes,piano,10,,,59.0,yes
103,2023-07-30_17h24.25.873,Unsyncopated1,s4,30 ,feminino,right, España,CatalánCastellano,Upper secondary,no,yes,A,1,conjunction_un,L1,unsyncopated,s1,r2,103,Online_conjL1_un//a.pu.ki27.none.none.wav,ta,fa,ro,sil,be,ze,ni,sil1,lu,fo,sil2,['-'],,,none,none,,,,ki,2,,,,,,,,,,,,,,,2 ,2.0,catalan,6.0,castellano,0.0,3.0,4.0,yes,no,yes,piano,10,,,59.0,yes
104,2023-07-30_17h24.25.873,Unsyncopated1,s4,30 ,feminino,right, España,CatalánCastellano,Upper secondary,no,yes,A,1,conjunction_un,L1,unsyncopated,s2,r1,104,Online_conjL1_un//b.ta.be7.none.none.wav,zu,fa,lu,sil,pu,fo,ri,sil1,ki,ne,sil2,['-'],,,none,none,,,,ta,1,,,,,,,,,,,,,,,2 ,2.0,catalan,6.0,castellano,0.0,3.0,4.0,yes,no,yes,piano,10,,,59.0,yes
105,2023-07-30_17h24.25.873,Unsyncopated1,s4,30 ,feminino,right, España,CatalánCastellano,Upper secondary,no,yes,A,1,conjunction_un,L1,unsyncopated,s2,r2,105,Online_conjL1_un//b.ta.be4.888.1776.wav,fa,ri,cho,sil,ta,ni,ze,sil1,be,ro,sil2,['catch'],[1.3784000000357537],[1.3784000000357537],0.888,beat,0.4904000000357537,0.4904000000357537,"[""space""]",ta,1,,,,,,,,,,,,,,,2 ,2.0,catalan,6.0,castellano,0.0,3.0,4.0,yes,no,yes,piano,10,,,59.0,yes
106,2023-07-30_17h24.25.873,Unsyncopated1,s4,30 ,feminino,right, España,CatalánCastellano,Upper secondary,no,yes,A,1,conjunction_un,L1,unsyncopated,s2,r1,106,Online_conjL1_un//b.ta.be6.none.none.wav,la,fo,cho,sil,pu,fa,ro,sil1,ki,ze,sil2,['-'],,,none,none,,,,ta,1,,,,,,,,,,,,,,,2 ,2.0,catalan,6.0,castellano,0.0,3.0,4.0,yes,no,yes,piano,10,,,59.0,yes
107,2023-07-30_17h24.25.873,Unsyncopated1,s4,30 ,feminino,right, España,CatalánCastellano,Upper secondary,no,yes,A,1,conjunction_un,L1,unsyncopated,s2,r1,107,Online_conjL1_un//b.ta.be5.none.none.wav,ri,ni,fo,sil,pu,la,ze,sil1,ki,zu,sil2,['-'],,,none,none,,,,ta,1,,,,,,,,,,,,,,,2 ,2.0,catalan,6.0,castellano,0.0,3.0,4.0,yes,no,yes,piano,10,,,59.0,yes
108,2023-07-30_17h24.25.873,Unsyncopated1,s4,30 ,feminino,right, España,CatalánCastellano,Upper secondary,no,yes,A,1,conjunction_un,L1,unsyncopated,s1,r1,108,Online_conjL1_un//d.ne.ni12.1332.444.wav,pu,fo,ni,sil,ki,ri,ne,sil1,fa,zu,sil2,['catch'],[1.8017999999523227],[1.8017999999523227],1.332,no_beat,0.4697999999523226,0.4697999999523226,"[""space""]",ne,4,,,,,,,,,,,,,,,2 ,2.0,catalan,6.0,castellano,0.0,3.0,4.0,yes,no,yes,piano,10,,,59.0,yes
109,2023-07-30_17h24.25.873,Unsyncopated1,s4,30 ,feminino,right, España,CatalánCastellano,Upper secondary,no,yes,A,1,conjunction_un,L1,unsyncopated,s1,r2,109,Online_conjL1_un//d.ne.ni14.222.1332.wav,ta,ne,ri,sil,be,fa,ni,sil1,cho,ro,sil2,['miss'],,,0.222,no_beat,,,,ne,4,,,,,,,,,,,,,,,2 ,2.0,catalan,6.0,castellano,0.0,3.0,4.0,yes,no,yes,piano,10,,,59.0,yes
110,2023-07-30_17h24.25.873,Unsyncopated1,s4,30 ,feminino,right, España,CatalánCastellano,Upper secondary,no,yes,A,1,conjunction_un,L1,unsyncopated,s1,r2,110,Online_conjL1_un//d.ne.ni13.none.none.wav,ta,ri,fa,sil,be,fo,ze,sil1,ro,zu,sil2,['-'],,,none,none,,,,ne,4,,,,,,,,,,,,,,,2 ,2.0,catalan,6.0,castellano,0.0,3.0,4.0,yes,no,yes,piano,10,,,59.0,yes
111,2023-07-30_17h24.25.873,Unsyncopated1,s4,30 ,feminino,right, España,CatalánCastellano,Upper secondary,no,yes,A,1,conjunction_un,L1,unsyncopated,s1,r1,111,Online_conjL1_un//d.ne.ni15.222.1110.wav,pu,ne,ze,sil,ki,ni,cho,sil1,lu,zu,sil2,['miss'],,,0.222,no_beat,,,,ne,4,,,,,,,,,,,,,,,2 ,2.0,catalan,6.0,castellano,0.0,3.0,4.0,yes,no,yes,piano,10,,,59.0,yes
112,2023-07-30_17h24.25.873,Unsyncopated1,s4,30 ,feminino,right, España,CatalánCastellano,Upper secondary,no,yes,A,1,conjunction_un,L1,unsyncopated,s1,r1,112,Online_conjL1_un//c.ro.fo30.none.none.wav,pu,ni,cho,sil,ki,la,lu,sil1,ne,fa,sil2,['-'],,,none,none,,,,ro,3,,,,,,,,,,,,,,,2 ,2.0,catalan,6.0,castellano,0.0,3.0,4.0,yes,no,yes,piano,10,,,59.0,yes
113,2023-07-30_17h24.25.873,Unsyncopated1,s4,30 ,feminino,right, España,CatalánCastellano,Upper secondary,no,yes,A,1,conjunction_un,L1,unsyncopated,s1,r1,113,Online_conjL1_un//c.ro.fo29.1110.1332.wav,pu,fa,ni,sil,ki,ro,fo,sil1,zu,cho,sil2,['catch'],[1.7645999999642754],[1.7645999999642754],1.11,no_beat,0.6545999999642753,0.6545999999642753,"[""space""]",ro,3,,,,,,,,,,,,,,,2 ,2.0,catalan,6.0,castellano,0.0,3.0,4.0,yes,no,yes,piano,10,,,59.0,yes
114,2023-07-30_17h24.25.873,Unsyncopated1,s4,30 ,feminino,right, España,CatalánCastellano,Upper secondary,no,yes,A,1,conjunction_un,L1,unsyncopated,s1,r2,114,Online_conjL1_un//c.ro.fo28.444.1110.wav,ta,lu,ro,sil,be,fo,ri,sil1,cho,fa,sil2,['miss'],,,0.444,no_beat,,,,ro,3,,,,,,,,,,,,,,,2 ,2.0,catalan,6.0,castellano,0.0,3.0,4.0,yes,no,yes,piano,10,,,59.0,yes
115,2023-07-30_17h24.25.873,Unsyncopated1,s4,30 ,feminino,right, España,CatalánCastellano,Upper secondary,no,yes,A,1,conjunction_un,L1,unsyncopated,s2,r2,115,Online_conjL1_un//c.ro.fo31.0.1110.wav,ro,ne,zu,sil,ta,fo,cho,sil1,be,ri,sil2,['miss'],,,0.0,beat,,,,ro,3,,,,,,,,,,,,,,,2 ,2.0,catalan,6.0,castellano,0.0,3.0,4.0,yes,no,yes,piano,10,,,59.0,yes
116,2023-07-30_17h24.25.873,Unsyncopated1,s4,30 ,feminino,right, España,CatalánCastellano,Upper secondary,no,yes,A,1,conjunction_un,L1,unsyncopated,s2,r2,116,Online_conjL1_un//a.pu.ki16.none.none.wav,ze,zu,ni,sil,ta,lu,ne,sil1,be,ri,sil2,['-'],,,none,none,,,,ki,2,,,,,,,,,,,,,,,2 ,2.0,catalan,6.0,castellano,0.0,3.0,4.0,yes,no,yes,piano,10,,,59.0,yes
117,2023-07-30_17h24.25.873,Unsyncopated1,s4,30 ,feminino,right, España,CatalánCastellano,Upper secondary,no,yes,A,1,conjunction_un,L1,unsyncopated,s2,r2,117,Online_conjL1_un//a.pu.ki18.none.none.wav,zu,ro,ze,sil,ta,fa,cho,sil1,be,ne,sil2,['-'],,,none,none,,,,ki,2,,,,,,,,,,,,,,,2 ,2.0,catalan,6.0,castellano,0.0,3.0,4.0,yes,no,yes,piano,10,,,59.0,yes
118,2023-07-30_17h24.25.873,Unsyncopated1,s4,30 ,feminino,right, España,CatalánCastellano,Upper secondary,no,yes,A,1,conjunction_un,L1,unsyncopated,s2,r1,118,Online_conjL1_un//a.pu.ki17.888.1776.wav,ne,ro,ze,sil,pu,fo,lu,sil1,ki,zu,sil2,['catch'],[2.440899999976182],[2.440899999976182],1.776,beat,0.6648999999761818,0.6648999999761818,"[""space""]",ki,2,,,,,,,,,,,,,,,2 ,2.0,catalan,6.0,castellano,0.0,3.0,4.0,yes,no,yes,piano,10,,,59.0,yes
119,2023-07-30_17h24.25.873,Unsyncopated1,s4,30 ,feminino,right, España,CatalánCastellano,Upper secondary,no,yes,A,1,conjunction_un,L1,unsyncopated,s2,r2,119,Online_conjL1_un//a.pu.ki19.none.none.wav,ze,fo,cho,sil,ta,fa,lu,sil1,be,ne,sil2,['-'],,,none,none,,,,ki,2,,,,,,,,,,,,,,,2 ,2.0,catalan,6.0,castellano,0.0,3.0,4.0,yes,no,yes,piano,10,,,59.0,yes
120,2023-07-30_17h24.25.873,Unsyncopated1,s4,30 ,feminino,right, España,CatalánCastellano,Upper secondary,no,yes,A,1,conjunction_un,L1,unsyncopated,s2,r2,120,Online_conjL1_un//d.ne.ni17.0.1110.wav,ne,la,ro,sil,ta,ni,ri,sil1,be,cho,sil2,['miss'],,,0.0,beat,,,,ne,4,,,,,,,,,,,,,,,2 ,2.0,catalan,6.0,castellano,0.0,3.0,4.0,yes,no,yes,piano,10,,,59.0,yes
121,2023-07-30_17h24.25.873,Unsyncopated1,s4,30 ,feminino,right, España,CatalánCastellano,Upper secondary,no,yes,A,1,conjunction_un,L1,unsyncopated,s2,r2,121,Online_conjL1_un//d.ne.ni16.444.1110.wav,ze,zu,ne,sil,ta,ni,fo,sil1,be,cho,sil2,['catch'],[1.5976999999880945],[1.5976999999880945],0.444,no_beat,1.1536999999880946,1.1536999999880946,"[""space""]",ne,4,,,,,,,,,,,,,,,2 ,2.0,catalan,6.0,castellano,0.0,3.0,4.0,yes,no,yes,piano,10,,,59.0,yes
122,2023-07-30_17h24.25.873,Unsyncopated1,s4,30 ,feminino,right, España,CatalánCastellano,Upper secondary,no,yes,A,1,conjunction_un,L1,unsyncopated,s2,r1,122,Online_conjL1_un//d.ne.ni19.none.none.wav,zu,fa,ri,sil,pu,lu,la,sil1,ki,ze,sil2,['-'],,,none,none,,,,ne,4,,,,,,,,,,,,,,,2 ,2.0,catalan,6.0,castellano,0.0,3.0,4.0,yes,no,yes,piano,10,,,59.0,yes
123,2023-07-30_17h24.25.873,Unsyncopated1,s4,30 ,feminino,right, España,CatalánCastellano,Upper secondary,no,yes,A,1,conjunction_un,L1,unsyncopated,s2,r2,123,Online_conjL1_un//d.ne.ni18.none.none.wav,fa,ro,fo,sil,ta,ri,lu,sil1,be,la,sil2,['-'],,,none,none,,,,ne,4,,,,,,,,,,,,,,,2 ,2.0,catalan,6.0,castellano,0.0,3.0,4.0,yes,no,yes,piano,10,,,59.0,yes
124,2023-07-30_17h24.25.873,Unsyncopated1,s4,30 ,feminino,right, España,CatalánCastellano,Upper secondary,no,yes,A,1,conjunction_un,L1,unsyncopated,s1,r1,124,Online_conjL1_un//b.ta.be1.none.none.wav,pu,fa,ne,sil,ki,fo,lu,sil1,cho,la,sil2,['-'],,,none,none,,,,ta,1,,,,,,,,,,,,,,,2 ,2.0,catalan,6.0,castellano,0.0,3.0,4.0,yes,no,yes,piano,10,,,59.0,yes
125,2023-07-30_17h24.25.873,Unsyncopated1,s4,30 ,feminino,right, España,CatalánCastellano,Upper secondary,no,yes,A,1,conjunction_un,L1,unsyncopated,s1,r2,125,Online_conjL1_un//b.ta.be3.0.888.wav,ta,fa,ri,sil,be,lu,ro,sil1,zu,la,sil2,['catch'],[0.6918000000119946],[0.6918000000119946],0.0,beat,0.6918000000119946,0.6918000000119946,"[""space""]",ta,1,,,,,,,,,,,,,,,2 ,2.0,catalan,6.0,castellano,0.0,3.0,4.0,yes,no,yes,piano,10,,,59.0,yes
126,2023-07-30_17h24.25.873,Unsyncopated1,s4,30 ,feminino,right, España,CatalánCastellano,Upper secondary,no,yes,A,1,conjunction_un,L1,unsyncopated,s1,r1,126,Online_conjL1_un//b.ta.be2.none.none.wav,pu,ro,ri,sil,ki,fa,la,sil1,ze,zu,sil2,['-'],,,none,none,,,,ta,1,,,,,,,,,,,,,,,2 ,2.0,catalan,6.0,castellano,0.0,3.0,4.0,yes,no,yes,piano,10,,,59.0,yes
127,2023-07-30_17h24.25.873,Unsyncopated1,s4,30 ,feminino,right, España,CatalánCastellano,Upper secondary,no,yes,A,1,conjunction_un,L1,unsyncopated,s2,r1,127,Online_conjL1_un//b.ta.be0.none.none.wav,fa,fo,ze,sil,pu,ri,zu,sil1,ki,ne,sil2,['-'],,,none,none,,,,ta,1,,,,,,,,,,,,,,,2 ,2.0,catalan,6.0,castellano,0.0,3.0,4.0,yes,no,yes,piano,10,,,59.0,yes
128,2023-07-30_17h24.25.873,Unsyncopated1,s4,30 ,feminino,right, España,CatalánCastellano,Upper secondary,no,yes,A,2,conjunction_syn,L4,syncopated,s1,r1,0,Online_conjL4_syn//c.bu.da29.none.none.wav,zi,ñi,pe,lo,sil,re,ci,ru,sil1,ña,sil2,['-'],,,none,none,,,,bu,3,,,,,,,,,,,,,,,2 ,2.0,catalan,6.0,castellano,0.0,3.0,4.0,yes,no,yes,piano,10,,,59.0,yes
129,2023-07-30_17h24.25.873,Unsyncopated1,s4,30 ,feminino,right, España,CatalánCastellano,Upper secondary,no,yes,A,2,conjunction_syn,L4,syncopated,s1,r1,1,Online_conjL4_syn//c.bu.da31.none.none.wav,zi,ñi,pe,lo,sil,de,ci,ña,sil1,bo,sil2,['-'],,,none,none,,,,bu,3,,,,,,,,,,,,,,,2 ,2.0,catalan,6.0,castellano,0.0,3.0,4.0,yes,no,yes,piano,10,,,59.0,yes
130,2023-07-30_17h24.25.873,Unsyncopated1,s4,30 ,feminino,right, España,CatalánCastellano,Upper secondary,no,yes,A,2,conjunction_syn,L4,syncopated,s2,r2,2,Online_conjL4_syn//c.bu.da30.none.none.wav,po,ci,ña,ja,sil,ru,bo,nu,sil1,ñi,sil2,['-'],,,none,none,,,,bu,3,,,,,,,,,,,,,,,2 ,2.0,catalan,6.0,castellano,0.0,3.0,4.0,yes,no,yes,piano,10,,,59.0,yes
131,2023-07-30_17h24.25.873,Unsyncopated1,s4,30 ,feminino,right, España,CatalánCastellano,Upper secondary,no,yes,A,2,conjunction_syn,L4,syncopated,s1,r2,3,Online_conjL4_syn//c.bu.da28.none.none.wav,ja,ru,ñi,nu,sil,po,ci,de,sil1,bo,sil2,['-'],,,none,none,,,,bu,3,,,,,,,,,,,,,,,2 ,2.0,catalan,6.0,castellano,0.0,3.0,4.0,yes,no,yes,piano,10,,,59.0,yes
132,2023-07-30_17h24.25.873,Unsyncopated1,s4,30 ,feminino,right, España,CatalánCastellano,Upper secondary,no,yes,A,2,conjunction_syn,L4,syncopated,s1,r1,4,Online_conjL4_syn//c.bu.da12.1110.1332.wav,zi,ci,ña,lo,sil,bu,da,pe,sil1,po,sil2,['catch'],[1.848700000047529],[1.848700000047529],1.11,no_beat,0.738700000047529,0.738700000047529,"[""space""]",bu,3,,,,,,,,,,,,,,,2 ,2.0,catalan,6.0,castellano,0.0,3.0,4.0,yes,no,yes,piano,10,,,59.0,yes
133,2023-07-30_17h24.25.873,Unsyncopated1,s4,30 ,feminino,right, España,CatalánCastellano,Upper secondary,no,yes,A,2,conjunction_syn,L4,syncopated,s2,r2,5,Online_conjL4_syn//c.bu.da15.222.444.wav,de,bu,da,ja,sil,ci,bo,nu,sil1,re,sil2,['catch'],[1.2465999999642463],[1.2465999999642463],0.222,no_beat,1.0245999999642463,1.0245999999642463,"[""space""]",bu,3,,,,,,,,,,,,,,,2 ,2.0,catalan,6.0,castellano,0.0,3.0,4.0,yes,no,yes,piano,10,,,59.0,yes
134,2023-07-30_17h24.25.873,Unsyncopated1,s4,30 ,feminino,right, España,CatalánCastellano,Upper secondary,no,yes,A,2,conjunction_syn,L4,syncopated,s2,r1,6,Online_conjL4_syn//c.bu.da13.none.none.wav,ci,ñi,ña,zi,sil,ru,re,lo,sil1,po,sil2,['-'],,,none,none,,,,bu,3,,,,,,,,,,,,,,,2 ,2.0,catalan,6.0,castellano,0.0,3.0,4.0,yes,no,yes,piano,10,,,59.0,yes
135,2023-07-30_17h24.25.873,Unsyncopated1,s4,30 ,feminino,right, España,CatalánCastellano,Upper secondary,no,yes,A,2,conjunction_syn,L4,syncopated,s2,r2,7,Online_conjL4_syn//c.bu.da14.none.none.wav,ci,ñi,pe,ja,sil,ru,re,nu,sil1,ña,sil2,['-'],,,none,none,,,,bu,3,,,,,,,,,,,,,,,2 ,2.0,catalan,6.0,castellano,0.0,3.0,4.0,yes,no,yes,piano,10,,,59.0,yes
136,2023-07-30_17h24.25.873,Unsyncopated1,s4,30 ,feminino,right, España,CatalánCastellano,Upper secondary,no,yes,A,2,conjunction_syn,L4,syncopated,s2,r2,8,Online_conjL4_syn//d.pe.po17.222.444.wav,bo,pe,po,ja,sil,re,ci,nu,sil1,ru,sil2,['miss'],,,0.222,no_beat,,,,pe,4,,,,,,,,,,,,,,,2 ,2.0,catalan,6.0,castellano,0.0,3.0,4.0,yes,no,yes,piano,10,,,59.0,yes
137,2023-07-30_17h24.25.873,Unsyncopated1,s4,30 ,feminino,right, España,CatalánCastellano,Upper secondary,no,yes,A,2,conjunction_syn,L4,syncopated,s1,r2,9,Online_conjL4_syn//d.pe.po16.none.none.wav,ja,bo,ci,nu,sil,da,ru,re,sil1,de,sil2,['-'],,,none,none,,,,pe,4,,,,,,,,,,,,,,,2 ,2.0,catalan,6.0,castellano,0.0,3.0,4.0,yes,no,yes,piano,10,,,59.0,yes
138,2023-07-30_17h24.25.873,Unsyncopated1,s4,30 ,feminino,right, España,CatalánCastellano,Upper secondary,no,yes,A,2,conjunction_syn,L4,syncopated,s1,r1,10,Online_conjL4_syn//d.pe.po18.1554.1110.wav,zi,ña,da,lo,sil,po,bo,pe,sil1,ru,sil2,['miss'],,,1.554,no_beat,,,,pe,4,,,,,,,,,,,,,,,2 ,2.0,catalan,6.0,castellano,0.0,3.0,4.0,yes,no,yes,piano,10,,,59.0,yes
139,2023-07-30_17h24.25.873,Unsyncopated1,s4,30 ,feminino,right, España,CatalánCastellano,Upper secondary,no,yes,A,2,conjunction_syn,L4,syncopated,s2,r1,11,Online_conjL4_syn//d.pe.po19.none.none.wav,da,de,ña,zi,sil,bo,ru,lo,sil1,ñi,sil2,['-'],,,none,none,,,,pe,4,,,,,,,,,,,,,,,2 ,2.0,catalan,6.0,castellano,0.0,3.0,4.0,yes,no,yes,piano,10,,,59.0,yes
140,2023-07-30_17h24.25.873,Unsyncopated1,s4,30 ,feminino,right, España,CatalánCastellano,Upper secondary,no,yes,A,2,conjunction_syn,L4,syncopated,s2,r1,12,Online_conjL4_syn//b.ja.nu17.none.none.wav,ci,ru,de,zi,sil,bo,po,lo,sil1,bu,sil2,['-'],,,none,none,,,,ja,1,,,,,,,,,,,,,,,2 ,2.0,catalan,6.0,castellano,0.0,3.0,4.0,yes,no,yes,piano,10,,,59.0,yes
141,2023-07-30_17h24.25.873,Unsyncopated1,s4,30 ,feminino,right, España,CatalánCastellano,Upper secondary,no,yes,A,2,conjunction_syn,L4,syncopated,s2,r2,13,Online_conjL4_syn//b.ja.nu18.666.1554.wav,ru,pe,po,ja,sil,bu,bo,nu,sil1,da,sil2,['miss'],,,0.666,no_beat,,,,ja,1,,,,,,,,,,,,,,,2 ,2.0,catalan,6.0,castellano,0.0,3.0,4.0,yes,no,yes,piano,10,,,59.0,yes
142,2023-07-30_17h24.25.873,Unsyncopated1,s4,30 ,feminino,right, España,CatalánCastellano,Upper secondary,no,yes,A,2,conjunction_syn,L4,syncopated,s2,r1,14,Online_conjL4_syn//b.ja.nu16.none.none.wav,da,ru,bo,zi,sil,re,pe,lo,sil1,bu,sil2,['-'],,,none,none,,,,ja,1,,,,,,,,,,,,,,,2 ,2.0,catalan,6.0,castellano,0.0,3.0,4.0,yes,no,yes,piano,10,,,59.0,yes
143,2023-07-30_17h24.25.873,Unsyncopated1,s4,30 ,feminino,right, España,CatalánCastellano,Upper secondary,no,yes,A,2,conjunction_syn,L4,syncopated,s1,r2,15,Online_conjL4_syn//b.ja.nu19.0.666.wav,ja,ña,po,nu,sil,ñi,ru,re,sil1,da,sil2,['catch'],[0.6726000000239765],[0.6726000000239765],0.0,beat,0.6726000000239765,0.6726000000239765,"[""space""]",ja,1,,,,,,,,,,,,,,,2 ,2.0,catalan,6.0,castellano,0.0,3.0,4.0,yes,no,yes,piano,10,,,59.0,yes
144,2023-07-30_17h24.25.873,Unsyncopated1,s4,30 ,feminino,right, España,CatalánCastellano,Upper secondary,no,yes,A,2,conjunction_syn,L4,syncopated,s1,r1,16,Online_conjL4_syn//b.ja.nu25.none.none.wav,zi,pe,da,lo,sil,re,po,bo,sil1,ci,sil2,['-'],,,none,none,,,,ja,1,,,,,,,,,,,,,,,2 ,2.0,catalan,6.0,castellano,0.0,3.0,4.0,yes,no,yes,piano,10,,,59.0,yes
145,2023-07-30_17h24.25.873,Unsyncopated1,s4,30 ,feminino,right, España,CatalánCastellano,Upper secondary,no,yes,A,2,conjunction_syn,L4,syncopated,s2,r1,17,Online_conjL4_syn//b.ja.nu24.none.none.wav,bo,ñi,re,zi,sil,pe,ci,lo,sil1,de,sil2,['-'],,,none,none,,,,ja,1,,,,,,,,,,,,,,,2 ,2.0,catalan,6.0,castellano,0.0,3.0,4.0,yes,no,yes,piano,10,,,59.0,yes
146,2023-07-30_17h24.25.873,Unsyncopated1,s4,30 ,feminino,right, España,CatalánCastellano,Upper secondary,no,yes,A,2,conjunction_syn,L4,syncopated,s2,r2,18,Online_conjL4_syn//b.ja.nu26.666.1554.wav,pe,bu,ña,ja,sil,po,ru,nu,sil1,bo,sil2,['catch'],[1.3207999999522144],[1.3207999999522144],0.666,no_beat,0.6547999999522144,0.6547999999522144,"[""space""]",ja,1,,,,,,,,,,,,,,,2 ,2.0,catalan,6.0,castellano,0.0,3.0,4.0,yes,no,yes,piano,10,,,59.0,yes
147,2023-07-30_17h24.25.873,Unsyncopated1,s4,30 ,feminino,right, España,CatalánCastellano,Upper secondary,no,yes,A,2,conjunction_syn,L4,syncopated,s2,r2,19,Online_conjL4_syn//b.ja.nu27.666.1554.wav,ña,po,re,ja,sil,de,bo,nu,sil1,ci,sil2,['catch'],[1.3134000000356991],[1.3134000000356991],0.666,no_beat,0.6474000000356991,0.6474000000356991,"[""space""]",ja,1,,,,,,,,,,,,,,,2 ,2.0,catalan,6.0,castellano,0.0,3.0,4.0,yes,no,yes,piano,10,,,59.0,yes
148,2023-07-30_17h24.25.873,Unsyncopated1,s4,30 ,feminino,right, España,CatalánCastellano,Upper secondary,no,yes,A,2,conjunction_syn,L4,syncopated,s1,r1,20,Online_conjL4_syn//d.pe.po25.none.none.wav,zi,ña,ru,lo,sil,da,re,bu,sil1,ci,sil2,['-'],,,none,none,,,,pe,4,,,,,,,,,,,,,,,2 ,2.0,catalan,6.0,castellano,0.0,3.0,4.0,yes,no,yes,piano,10,,,59.0,yes
149,2023-07-30_17h24.25.873,Unsyncopated1,s4,30 ,feminino,right, España,CatalánCastellano,Upper secondary,no,yes,A,2,conjunction_syn,L4,syncopated,s1,r1,21,Online_conjL4_syn//d.pe.po27.none.none.wav,zi,bo,ñi,lo,sil,ña,de,ci,sil1,ru,sil2,['-'],,,none,none,,,,pe,4,,,,,,,,,,,,,,,2 ,2.0,catalan,6.0,castellano,0.0,3.0,4.0,yes,no,yes,piano,10,,,59.0,yes
150,2023-07-30_17h24.25.873,Unsyncopated1,s4,30 ,feminino,right, España,CatalánCastellano,Upper secondary,no,yes,A,2,conjunction_syn,L4,syncopated,s1,r1,22,Online_conjL4_syn//d.pe.po26.none.none.wav,zi,bo,ci,lo,sil,de,ña,da,sil1,ru,sil2,['-'],,,none,none,,,,pe,4,,,,,,,,,,,,,,,2 ,2.0,catalan,6.0,castellano,0.0,3.0,4.0,yes,no,yes,piano,10,,,59.0,yes
151,2023-07-30_17h24.25.873,Unsyncopated1,s4,30 ,feminino,right, España,CatalánCastellano,Upper secondary,no,yes,A,2,conjunction_syn,L4,syncopated,s1,r2,23,Online_conjL4_syn//d.pe.po24.1332.222.wav,ja,po,ña,nu,sil,re,pe,ñi,sil1,ci,sil2,['miss'],,,1.332,no_beat,,,,pe,4,,,,,,,,,,,,,,,2 ,2.0,catalan,6.0,castellano,0.0,3.0,4.0,yes,no,yes,piano,10,,,59.0,yes
152,2023-07-30_17h24.25.873,Unsyncopated1,s4,30 ,feminino,right, España,CatalánCastellano,Upper secondary,no,yes,A,2,conjunction_syn,L4,syncopated,s2,r1,24,Online_conjL4_syn//a.zi.lo16.666.1554.wav,ña,po,ci,zi,sil,pe,de,lo,sil1,ru,sil2,['catch'],[2.3128000000119755],[2.3128000000119755],1.554,no_beat,0.7588000000119755,0.7588000000119755,"[""space""]",lo,2,,,,,,,,,,,,,,,2 ,2.0,catalan,6.0,castellano,0.0,3.0,4.0,yes,no,yes,piano,10,,,59.0,yes
153,2023-07-30_17h24.25.873,Unsyncopated1,s4,30 ,feminino,right, España,CatalánCastellano,Upper secondary,no,yes,A,2,conjunction_syn,L4,syncopated,s1,r2,25,Online_conjL4_syn//a.zi.lo18.none.none.wav,ja,pe,ru,nu,sil,de,ñi,bu,sil1,re,sil2,['-'],,,none,none,,,,lo,2,,,,,,,,,,,,,,,2 ,2.0,catalan,6.0,castellano,0.0,3.0,4.0,yes,no,yes,piano,10,,,59.0,yes
154,2023-07-30_17h24.25.873,Unsyncopated1,s4,30 ,feminino,right, España,CatalánCastellano,Upper secondary,no,yes,A,2,conjunction_syn,L4,syncopated,s1,r2,26,Online_conjL4_syn//a.zi.lo17.none.none.wav,ja,po,bu,nu,sil,de,ru,ñi,sil1,ci,sil2,['false alarm'],[2.1051000000238673],[2.1051000000238673],none,none,,,"[""space""]",lo,2,,,,,,,,,,,,,,,2 ,2.0,catalan,6.0,castellano,0.0,3.0,4.0,yes,no,yes,piano,10,,,59.0,yes
155,2023-07-30_17h24.25.873,Unsyncopated1,s4,30 ,feminino,right, España,CatalánCastellano,Upper secondary,no,yes,A,2,conjunction_syn,L4,syncopated,s2,r1,27,Online_conjL4_syn//a.zi.lo19.666.1554.wav,da,bo,po,zi,sil,ru,ci,lo,sil1,bu,sil2,['catch'],[2.157300000011901],[2.157300000011901],1.554,no_beat,0.6033000000119009,0.6033000000119009,"[""space""]",lo,2,,,,,,,,,,,,,,,2 ,2.0,catalan,6.0,castellano,0.0,3.0,4.0,yes,no,yes,piano,10,,,59.0,yes
156,2023-07-30_17h24.25.873,Unsyncopated1,s4,30 ,feminino,right, España,CatalánCastellano,Upper secondary,no,yes,A,2,conjunction_syn,L4,syncopated,s2,r2,28,Online_conjL4_syn//d.pe.po13.none.none.wav,ci,ru,da,ja,sil,de,ñi,nu,sil1,bu,sil2,['-'],,,none,none,,,,pe,4,,,,,,,,,,,,,,,2 ,2.0,catalan,6.0,castellano,0.0,3.0,4.0,yes,no,yes,piano,10,,,59.0,yes
157,2023-07-30_17h24.25.873,Unsyncopated1,s4,30 ,feminino,right, España,CatalánCastellano,Upper secondary,no,yes,A,2,conjunction_syn,L4,syncopated,s2,r1,29,Online_conjL4_syn//d.pe.po12.none.none.wav,bu,de,re,zi,sil,ña,ci,lo,sil1,ñi,sil2,['-'],,,none,none,,,,pe,4,,,,,,,,,,,,,,,2 ,2.0,catalan,6.0,castellano,0.0,3.0,4.0,yes,no,yes,piano,10,,,59.0,yes
158,2023-07-30_17h24.25.873,Unsyncopated1,s4,30 ,feminino,right, España,CatalánCastellano,Upper secondary,no,yes,A,2,conjunction_syn,L4,syncopated,s2,r2,30,Online_conjL4_syn//d.pe.po15.222.1110.wav,ci,pe,de,ja,sil,po,bo,nu,sil1,da,sil2,['miss'],,,0.222,no_beat,,,,pe,4,,,,,,,,,,,,,,,2 ,2.0,catalan,6.0,castellano,0.0,3.0,4.0,yes,no,yes,piano,10,,,59.0,yes
159,2023-07-30_17h24.25.873,Unsyncopated1,s4,30 ,feminino,right, España,CatalánCastellano,Upper secondary,no,yes,A,2,conjunction_syn,L4,syncopated,s1,r2,31,Online_conjL4_syn//d.pe.po14.1110.1332.wav,ja,bo,bu,nu,sil,pe,po,de,sil1,da,sil2,['miss'],,,1.11,no_beat,,,,pe,4,,,,,,,,,,,,,,,2 ,2.0,catalan,6.0,castellano,0.0,3.0,4.0,yes,no,yes,piano,10,,,59.0,yes
160,2023-07-30_17h24.25.873,Unsyncopated1,s4,30 ,feminino,right, España,CatalánCastellano,Upper secondary,no,yes,A,2,conjunction_syn,L4,syncopated,s2,r1,32,Online_conjL4_syn//c.bu.da9.444.1110.wav,pe,re,bu,zi,sil,da,po,lo,sil1,de,sil2,['catch'],[1.3701999999880172],[1.3701999999880172],0.444,no_beat,0.9261999999880172,0.9261999999880172,"[""space""]",bu,3,,,,,,,,,,,,,,,2 ,2.0,catalan,6.0,castellano,0.0,3.0,4.0,yes,no,yes,piano,10,,,59.0,yes
161,2023-07-30_17h24.25.873,Unsyncopated1,s4,30 ,feminino,right, España,CatalánCastellano,Upper secondary,no,yes,A,2,conjunction_syn,L4,syncopated,s1,r1,33,Online_conjL4_syn//c.bu.da11.1332.222.wav,zi,da,po,lo,sil,bo,bu,ci,sil1,pe,sil2,['catch'],[1.8792000000476037],[1.8792000000476037],1.332,no_beat,0.5472000000476036,0.5472000000476036,"[""space""]",bu,3,,,,,,,,,,,,,,,2 ,2.0,catalan,6.0,castellano,0.0,3.0,4.0,yes,no,yes,piano,10,,,59.0,yes
162,2023-07-30_17h24.25.873,Unsyncopated1,s4,30 ,feminino,right, España,CatalánCastellano,Upper secondary,no,yes,A,2,conjunction_syn,L4,syncopated,s1,r2,34,Online_conjL4_syn//c.bu.da8.222.444.wav,ja,bu,da,nu,sil,re,ru,ñi,sil1,de,sil2,['miss'],,,0.222,no_beat,,,,bu,3,,,,,,,,,,,,,,,2 ,2.0,catalan,6.0,castellano,0.0,3.0,4.0,yes,no,yes,piano,10,,,59.0,yes
163,2023-07-30_17h24.25.873,Unsyncopated1,s4,30 ,feminino,right, España,CatalánCastellano,Upper secondary,no,yes,A,2,conjunction_syn,L4,syncopated,s1,r2,35,Online_conjL4_syn//c.bu.da10.none.none.wav,ja,de,bo,nu,sil,ñi,ru,po,sil1,pe,sil2,['-'],,,none,none,,,,bu,3,,,,,,,,,,,,,,,2 ,2.0,catalan,6.0,castellano,0.0,3.0,4.0,yes,no,yes,piano,10,,,59.0,yes
164,2023-07-30_17h24.25.873,Unsyncopated1,s4,30 ,feminino,right, España,CatalánCastellano,Upper secondary,no,yes,A,2,conjunction_syn,L4,syncopated,s1,r2,36,Online_conjL4_syn//b.ja.nu4.0.666.wav,ja,re,ru,nu,sil,po,pe,da,sil1,ñi,sil2,['miss'],,,0.0,beat,,,,ja,1,,,,,,,,,,,,,,,2 ,2.0,catalan,6.0,castellano,0.0,3.0,4.0,yes,no,yes,piano,10,,,59.0,yes
165,2023-07-30_17h24.25.873,Unsyncopated1,s4,30 ,feminino,right, España,CatalánCastellano,Upper secondary,no,yes,A,2,conjunction_syn,L4,syncopated,s2,r1,37,Online_conjL4_syn//b.ja.nu6.none.none.wav,ña,po,ru,zi,sil,ñi,re,lo,sil1,bo,sil2,['-'],,,none,none,,,,ja,1,,,,,,,,,,,,,,,2 ,2.0,catalan,6.0,castellano,0.0,3.0,4.0,yes,no,yes,piano,10,,,59.0,yes
166,2023-07-30_17h24.25.873,Unsyncopated1,s4,30 ,feminino,right, España,CatalánCastellano,Upper secondary,no,yes,A,2,conjunction_syn,L4,syncopated,s1,r1,38,Online_conjL4_syn//b.ja.nu5.none.none.wav,zi,bo,pe,lo,sil,po,re,da,sil1,ñi,sil2,['-'],,,none,none,,,,ja,1,,,,,,,,,,,,,,,2 ,2.0,catalan,6.0,castellano,0.0,3.0,4.0,yes,no,yes,piano,10,,,59.0,yes
167,2023-07-30_17h24.25.873,Unsyncopated1,s4,30 ,feminino,right, España,CatalánCastellano,Upper secondary,no,yes,A,2,conjunction_syn,L4,syncopated,s1,r1,39,Online_conjL4_syn//b.ja.nu7.none.none.wav,zi,po,pe,lo,sil,ci,bu,ñi,sil1,ru,sil2,['-'],,,none,none,,,,ja,1,,,,,,,,,,,,,,,2 ,2.0,catalan,6.0,castellano,0.0,3.0,4.0,yes,no,yes,piano,10,,,59.0,yes
168,2023-07-30_17h24.25.873,Unsyncopated1,s4,30 ,feminino,right, España,CatalánCastellano,Upper secondary,no,yes,A,2,conjunction_syn,L4,syncopated,s2,r1,40,Online_conjL4_syn//d.pe.po1.1332.222.wav,ñi,po,da,zi,sil,bu,pe,lo,sil1,bo,sil2,['miss'],,,1.332,no_beat,,,,pe,4,,,,,,,,,,,,,,,2 ,2.0,catalan,6.0,castellano,0.0,3.0,4.0,yes,no,yes,piano,10,,,59.0,yes
169,2023-07-30_17h24.25.873,Unsyncopated1,s4,30 ,feminino,right, España,CatalánCastellano,Upper secondary,no,yes,A,2,conjunction_syn,L4,syncopated,s2,r1,41,Online_conjL4_syn//d.pe.po2.none.none.wav,de,bo,da,zi,sil,ci,ñi,lo,sil1,ña,sil2,['-'],,,none,none,,,,pe,4,,,,,,,,,,,,,,,2 ,2.0,catalan,6.0,castellano,0.0,3.0,4.0,yes,no,yes,piano,10,,,59.0,yes
170,2023-07-30_17h24.25.873,Unsyncopated1,s4,30 ,feminino,right, España,CatalánCastellano,Upper secondary,no,yes,A,2,conjunction_syn,L4,syncopated,s2,r1,42,Online_conjL4_syn//d.pe.po0.none.none.wav,ci,ru,ña,zi,sil,de,bu,lo,sil1,da,sil2,['-'],,,none,none,,,,pe,4,,,,,,,,,,,,,,,2 ,2.0,catalan,6.0,castellano,0.0,3.0,4.0,yes,no,yes,piano,10,,,59.0,yes
171,2023-07-30_17h24.25.873,Unsyncopated1,s4,30 ,feminino,right, España,CatalánCastellano,Upper secondary,no,yes,A,2,conjunction_syn,L4,syncopated,s2,r2,43,Online_conjL4_syn//d.pe.po3.none.none.wav,re,ñi,ña,ja,sil,ci,da,nu,sil1,bo,sil2,['-'],,,none,none,,,,pe,4,,,,,,,,,,,,,,,2 ,2.0,catalan,6.0,castellano,0.0,3.0,4.0,yes,no,yes,piano,10,,,59.0,yes
172,2023-07-30_17h24.25.873,Unsyncopated1,s4,30 ,feminino,right, España,CatalánCastellano,Upper secondary,no,yes,A,2,conjunction_syn,L4,syncopated,s2,r2,44,Online_conjL4_syn//b.ja.nu8.666.1554.wav,da,bu,de,ja,sil,ci,pe,nu,sil1,re,sil2,['catch'],[1.2358000000119773],[1.2358000000119773],0.666,no_beat,0.5698000000119773,0.5698000000119773,"[""space""]",ja,1,,,,,,,,,,,,,,,2 ,2.0,catalan,6.0,castellano,0.0,3.0,4.0,yes,no,yes,piano,10,,,59.0,yes
173,2023-07-30_17h24.25.873,Unsyncopated1,s4,30 ,feminino,right, España,CatalánCastellano,Upper secondary,no,yes,A,2,conjunction_syn,L4,syncopated,s2,r2,45,Online_conjL4_syn//b.ja.nu11.666.1554.wav,de,ru,po,ja,sil,ci,pe,nu,sil1,ña,sil2,['catch'],[1.3971000000237837],[1.3971000000237837],0.666,no_beat,0.7311000000237836,0.7311000000237836,"[""space""]",ja,1,,,,,,,,,,,,,,,2 ,2.0,catalan,6.0,castellano,0.0,3.0,4.0,yes,no,yes,piano,10,,,59.0,yes
174,2023-07-30_17h24.25.873,Unsyncopated1,s4,30 ,feminino,right, España,CatalánCastellano,Upper secondary,no,yes,A,2,conjunction_syn,L4,syncopated,s2,r2,46,Online_conjL4_syn//b.ja.nu9.666.1554.wav,bo,ñi,po,ja,sil,da,re,nu,sil1,ru,sil2,['catch'],[1.3623999999761054],[1.3623999999761054],0.666,no_beat,0.6963999999761054,0.6963999999761054,"[""space""]",ja,1,,,,,,,,,,,,,,,2 ,2.0,catalan,6.0,castellano,0.0,3.0,4.0,yes,no,yes,piano,10,,,59.0,yes
175,2023-07-30_17h24.25.873,Unsyncopated1,s4,30 ,feminino,right, España,CatalánCastellano,Upper secondary,no,yes,A,2,conjunction_syn,L4,syncopated,s1,r2,47,Online_conjL4_syn//b.ja.nu10.0.666.wav,ja,pe,ñi,nu,sil,bu,ci,de,sil1,ru,sil2,['miss'],,,0.0,beat,,,,ja,1,,,,,,,,,,,,,,,2 ,2.0,catalan,6.0,castellano,0.0,3.0,4.0,yes,no,yes,piano,10,,,59.0,yes
176,2023-07-30_17h24.25.873,Unsyncopated1,s4,30 ,feminino,right, España,CatalánCastellano,Upper secondary,no,yes,A,2,conjunction_syn,L4,syncopated,s2,r1,48,Online_conjL4_syn//a.zi.lo9.666.1554.wav,po,ci,bu,zi,sil,de,ña,lo,sil1,ñi,sil2,['false alarm'],[0.4721000000238291],[0.4721000000238291],1.554,no_beat,,,"[""space""]",lo,2,,,,,,,,,,,,,,,2 ,2.0,catalan,6.0,castellano,0.0,3.0,4.0,yes,no,yes,piano,10,,,59.0,yes
177,2023-07-30_17h24.25.873,Unsyncopated1,s4,30 ,feminino,right, España,CatalánCastellano,Upper secondary,no,yes,A,2,conjunction_syn,L4,syncopated,s1,r1,49,Online_conjL4_syn//a.zi.lo8.0.666.wav,zi,pe,re,lo,sil,ña,bo,bu,sil1,de,sil2,['miss'],,,0.666,no_beat,,,,lo,2,,,,,,,,,,,,,,,2 ,2.0,catalan,6.0,castellano,0.0,3.0,4.0,yes,no,yes,piano,10,,,59.0,yes
178,2023-07-30_17h24.25.873,Unsyncopated1,s4,30 ,feminino,right, España,CatalánCastellano,Upper secondary,no,yes,A,2,conjunction_syn,L4,syncopated,s2,r1,50,Online_conjL4_syn//a.zi.lo11.666.1554.wav,bu,ru,ci,zi,sil,po,de,lo,sil1,da,sil2,['catch'],[2.5219999999999345],[2.5219999999999345],1.554,no_beat,0.9679999999999344,0.9679999999999344,"[""space""]",lo,2,,,,,,,,,,,,,,,2 ,2.0,catalan,6.0,castellano,0.0,3.0,4.0,yes,no,yes,piano,10,,,59.0,yes
179,2023-07-30_17h24.25.873,Unsyncopated1,s4,30 ,feminino,right, España,CatalánCastellano,Upper secondary,no,yes,A,2,conjunction_syn,L4,syncopated,s1,r2,51,Online_conjL4_syn//a.zi.lo10.none.none.wav,ja,bu,de,nu,sil,re,ci,bo,sil1,ña,sil2,['-'],,,none,none,,,,lo,2,,,,,,,,,,,,,,,2 ,2.0,catalan,6.0,castellano,0.0,3.0,4.0,yes,no,yes,piano,10,,,59.0,yes
180,2023-07-30_17h24.25.873,Unsyncopated1,s4,30 ,feminino,right, España,CatalánCastellano,Upper secondary,no,yes,A,2,conjunction_syn,L4,syncopated,s2,r1,52,Online_conjL4_syn//b.ja.nu30.none.none.wav,ci,ña,ru,zi,sil,bo,pe,lo,sil1,bu,sil2,['false alarm'],[2.1849999999999454],[2.1849999999999454],none,none,,,"[""space""]",ja,1,,,,,,,,,,,,,,,2 ,2.0,catalan,6.0,castellano,0.0,3.0,4.0,yes,no,yes,piano,10,,,59.0,yes
181,2023-07-30_17h24.25.873,Unsyncopated1,s4,30 ,feminino,right, España,CatalánCastellano,Upper secondary,no,yes,A,2,conjunction_syn,L4,syncopated,s1,r1,53,Online_conjL4_syn//b.ja.nu28.none.none.wav,zi,ña,bu,lo,sil,re,de,ci,sil1,pe,sil2,['-'],,,none,none,,,,ja,1,,,,,,,,,,,,,,,2 ,2.0,catalan,6.0,castellano,0.0,3.0,4.0,yes,no,yes,piano,10,,,59.0,yes
182,2023-07-30_17h24.25.873,Unsyncopated1,s4,30 ,feminino,right, España,CatalánCastellano,Upper secondary,no,yes,A,2,conjunction_syn,L4,syncopated,s2,r1,54,Online_conjL4_syn//b.ja.nu29.none.none.wav,da,po,ña,zi,sil,pe,re,lo,sil1,bo,sil2,['-'],,,none,none,,,,ja,1,,,,,,,,,,,,,,,2 ,2.0,catalan,6.0,castellano,0.0,3.0,4.0,yes,no,yes,piano,10,,,59.0,yes
183,2023-07-30_17h24.25.873,Unsyncopated1,s4,30 ,feminino,right, España,CatalánCastellano,Upper secondary,no,yes,A,2,conjunction_syn,L4,syncopated,s2,r2,55,Online_conjL4_syn//b.ja.nu31.666.1554.wav,po,ru,ña,ja,sil,da,ci,nu,sil1,re,sil2,['catch'],[1.342699999988099],[1.342699999988099],0.666,no_beat,0.676699999988099,0.676699999988099,"[""space""]",ja,1,,,,,,,,,,,,,,,2 ,2.0,catalan,6.0,castellano,0.0,3.0,4.0,yes,no,yes,piano,10,,,59.0,yes
184,2023-07-30_17h24.25.873,Unsyncopated1,s4,30 ,feminino,right, España,CatalánCastellano,Upper secondary,no,yes,A,2,conjunction_syn,L4,syncopated,s2,r2,56,Online_conjL4_syn//c.bu.da21.none.none.wav,ña,re,po,ja,sil,de,ñi,nu,sil1,ru,sil2,['-'],,,none,none,,,,bu,3,,,,,,,,,,,,,,,2 ,2.0,catalan,6.0,castellano,0.0,3.0,4.0,yes,no,yes,piano,10,,,59.0,yes
185,2023-07-30_17h24.25.873,Unsyncopated1,s4,30 ,feminino,right, España,CatalánCastellano,Upper secondary,no,yes,A,2,conjunction_syn,L4,syncopated,s1,r2,57,Online_conjL4_syn//c.bu.da20.444.1332.wav,ja,pe,bu,nu,sil,ci,da,re,sil1,ru,sil2,['miss'],,,0.444,no_beat,,,,bu,3,,,,,,,,,,,,,,,2 ,2.0,catalan,6.0,castellano,0.0,3.0,4.0,yes,no,yes,piano,10,,,59.0,yes
186,2023-07-30_17h24.25.873,Unsyncopated1,s4,30 ,feminino,right, España,CatalánCastellano,Upper secondary,no,yes,A,2,conjunction_syn,L4,syncopated,s2,r1,58,Online_conjL4_syn//c.bu.da22.0.222.wav,bu,da,bo,zi,sil,re,ru,lo,sil1,ñi,sil2,['catch'],[0.8326999999881082],[0.8326999999881082],0.0,beat,0.8326999999881082,0.8326999999881082,"[""space""]",bu,3,,,,,,,,,,,,,,,2 ,2.0,catalan,6.0,castellano,0.0,3.0,4.0,yes,no,yes,piano,10,,,59.0,yes
187,2023-07-30_17h24.25.873,Unsyncopated1,s4,30 ,feminino,right, España,CatalánCastellano,Upper secondary,no,yes,A,2,conjunction_syn,L4,syncopated,s2,r2,59,Online_conjL4_syn//c.bu.da23.444.1110.wav,ña,re,bu,ja,sil,da,de,nu,sil1,ci,sil2,['miss'],,,0.444,no_beat,,,,bu,3,,,,,,,,,,,,,,,2 ,2.0,catalan,6.0,castellano,0.0,3.0,4.0,yes,no,yes,piano,10,,,59.0,yes
188,2023-07-30_17h24.25.873,Unsyncopated1,s4,30 ,feminino,right, España,CatalánCastellano,Upper secondary,no,yes,A,2,conjunction_syn,L4,syncopated,s1,r1,60,Online_conjL4_syn//a.zi.lo25.0.666.wav,zi,po,ci,lo,sil,re,da,ru,sil1,pe,sil2,['catch'],[1.6924999999998818],[1.6924999999998818],0.666,no_beat,1.0264999999998818,1.0264999999998818,"[""space""]",lo,2,,,,,,,,,,,,,,,2 ,2.0,catalan,6.0,castellano,0.0,3.0,4.0,yes,no,yes,piano,10,,,59.0,yes
189,2023-07-30_17h24.25.873,Unsyncopated1,s4,30 ,feminino,right, España,CatalánCastellano,Upper secondary,no,yes,A,2,conjunction_syn,L4,syncopated,s1,r2,61,Online_conjL4_syn//a.zi.lo27.none.none.wav,ja,re,bo,nu,sil,bu,pe,ru,sil1,ñi,sil2,['-'],,,none,none,,,,lo,2,,,,,,,,,,,,,,,2 ,2.0,catalan,6.0,castellano,0.0,3.0,4.0,yes,no,yes,piano,10,,,59.0,yes
190,2023-07-30_17h24.25.873,Unsyncopated1,s4,30 ,feminino,right, España,CatalánCastellano,Upper secondary,no,yes,A,2,conjunction_syn,L4,syncopated,s1,r1,62,Online_conjL4_syn//a.zi.lo26.0.666.wav,zi,bu,po,lo,sil,bo,da,re,sil1,pe,sil2,['catch'],[1.6687999999523981],[1.6687999999523981],0.666,no_beat,1.0027999999523982,1.0027999999523982,"[""space""]",lo,2,,,,,,,,,,,,,,,2 ,2.0,catalan,6.0,castellano,0.0,3.0,4.0,yes,no,yes,piano,10,,,59.0,yes
191,2023-07-30_17h24.25.873,Unsyncopated1,s4,30 ,feminino,right, España,CatalánCastellano,Upper secondary,no,yes,A,2,conjunction_syn,L4,syncopated,s2,r2,63,Online_conjL4_syn//a.zi.lo24.none.none.wav,ñi,po,de,ja,sil,pe,ci,nu,sil1,bo,sil2,['-'],,,none,none,,,,lo,2,,,,,,,,,,,,,,,2 ,2.0,catalan,6.0,castellano,0.0,3.0,4.0,yes,no,yes,piano,10,,,59.0,yes
192,2023-07-30_17h24.25.873,Unsyncopated1,s4,30 ,feminino,right, España,CatalánCastellano,Upper secondary,no,yes,A,2,conjunction_syn,L4,syncopated,s1,r2,64,Online_conjL4_syn//d.pe.po21.none.none.wav,ja,bo,bu,nu,sil,ci,ña,de,sil1,ru,sil2,['-'],,,none,none,,,,pe,4,,,,,,,,,,,,,,,2 ,2.0,catalan,6.0,castellano,0.0,3.0,4.0,yes,no,yes,piano,10,,,59.0,yes
193,2023-07-30_17h24.25.873,Unsyncopated1,s4,30 ,feminino,right, España,CatalánCastellano,Upper secondary,no,yes,A,2,conjunction_syn,L4,syncopated,s2,r2,65,Online_conjL4_syn//d.pe.po22.444.1110.wav,de,ru,pe,ja,sil,po,re,nu,sil1,bo,sil2,['miss'],,,0.444,no_beat,,,,pe,4,,,,,,,,,,,,,,,2 ,2.0,catalan,6.0,castellano,0.0,3.0,4.0,yes,no,yes,piano,10,,,59.0,yes
194,2023-07-30_17h24.25.873,Unsyncopated1,s4,30 ,feminino,right, España,CatalánCastellano,Upper secondary,no,yes,A,2,conjunction_syn,L4,syncopated,s1,r1,66,Online_conjL4_syn//d.pe.po20.1332.444.wav,zi,ru,po,lo,sil,bo,pe,de,sil1,da,sil2,['miss'],,,1.332,no_beat,,,,pe,4,,,,,,,,,,,,,,,2 ,2.0,catalan,6.0,castellano,0.0,3.0,4.0,yes,no,yes,piano,10,,,59.0,yes
195,2023-07-30_17h24.25.873,Unsyncopated1,s4,30 ,feminino,right, España,CatalánCastellano,Upper secondary,no,yes,A,2,conjunction_syn,L4,syncopated,s1,r1,67,Online_conjL4_syn//d.pe.po23.none.none.wav,zi,bo,da,lo,sil,de,ña,ñi,sil1,ru,sil2,['-'],,,none,none,,,,pe,4,,,,,,,,,,,,,,,2 ,2.0,catalan,6.0,castellano,0.0,3.0,4.0,yes,no,yes,piano,10,,,59.0,yes
196,2023-07-30_17h24.25.873,Unsyncopated1,s4,30 ,feminino,right, España,CatalánCastellano,Upper secondary,no,yes,A,2,conjunction_syn,L4,syncopated,s1,r1,68,Online_conjL4_syn//b.ja.nu2.none.none.wav,zi,da,ru,lo,sil,bo,ci,ñi,sil1,de,sil2,['-'],,,none,none,,,,ja,1,,,,,,,,,,,,,,,2 ,2.0,catalan,6.0,castellano,0.0,3.0,4.0,yes,no,yes,piano,10,,,59.0,yes
197,2023-07-30_17h24.25.873,Unsyncopated1,s4,30 ,feminino,right, España,CatalánCastellano,Upper secondary,no,yes,A,2,conjunction_syn,L4,syncopated,s1,r2,69,Online_conjL4_syn//b.ja.nu3.0.666.wav,ja,bu,bo,nu,sil,pe,ru,re,sil1,ñi,sil2,['catch'],[0.955599999964079],[0.955599999964079],0.0,beat,0.955599999964079,0.955599999964079,"[""space""]",ja,1,,,,,,,,,,,,,,,2 ,2.0,catalan,6.0,castellano,0.0,3.0,4.0,yes,no,yes,piano,10,,,59.0,yes
198,2023-07-30_17h24.25.873,Unsyncopated1,s4,30 ,feminino,right, España,CatalánCastellano,Upper secondary,no,yes,A,2,conjunction_syn,L4,syncopated,s1,r1,70,Online_conjL4_syn//b.ja.nu1.none.none.wav,zi,de,ru,lo,sil,po,ña,bu,sil1,da,sil2,['-'],,,none,none,,,,ja,1,,,,,,,,,,,,,,,2 ,2.0,catalan,6.0,castellano,0.0,3.0,4.0,yes,no,yes,piano,10,,,59.0,yes
199,2023-07-30_17h24.25.873,Unsyncopated1,s4,30 ,feminino,right, España,CatalánCastellano,Upper secondary,no,yes,A,2,conjunction_syn,L4,syncopated,s2,r2,71,Online_conjL4_syn//b.ja.nu0.666.1554.wav,ña,bu,ci,ja,sil,ñi,re,nu,sil1,po,sil2,['catch'],[1.1848999999760963],[1.1848999999760963],0.666,no_beat,0.5188999999760963,0.5188999999760963,"[""space""]",ja,1,,,,,,,,,,,,,,,2 ,2.0,catalan,6.0,castellano,0.0,3.0,4.0,yes,no,yes,piano,10,,,59.0,yes
200,2023-07-30_17h24.25.873,Unsyncopated1,s4,30 ,feminino,right, España,CatalánCastellano,Upper secondary,no,yes,A,2,conjunction_syn,L4,syncopated,s2,r1,72,Online_conjL4_syn//a.zi.lo21.666.1554.wav,ñi,bo,ru,zi,sil,pe,ña,lo,sil1,de,sil2,['catch'],[2.376599999964128],[2.376599999964128],1.554,no_beat,0.822599999964128,0.822599999964128,"[""space""]",lo,2,,,,,,,,,,,,,,,2 ,2.0,catalan,6.0,castellano,0.0,3.0,4.0,yes,no,yes,piano,10,,,59.0,yes
201,2023-07-30_17h24.25.873,Unsyncopated1,s4,30 ,feminino,right, España,CatalánCastellano,Upper secondary,no,yes,A,2,conjunction_syn,L4,syncopated,s1,r2,73,Online_conjL4_syn//a.zi.lo20.none.none.wav,ja,ru,po,nu,sil,ña,re,da,sil1,de,sil2,['-'],,,none,none,,,,lo,2,,,,,,,,,,,,,,,2 ,2.0,catalan,6.0,castellano,0.0,3.0,4.0,yes,no,yes,piano,10,,,59.0,yes
202,2023-07-30_17h24.25.873,Unsyncopated1,s4,30 ,feminino,right, España,CatalánCastellano,Upper secondary,no,yes,A,2,conjunction_syn,L4,syncopated,s2,r2,74,Online_conjL4_syn//a.zi.lo23.none.none.wav,da,ci,po,ja,sil,ñi,pe,nu,sil1,bo,sil2,['-'],,,none,none,,,,lo,2,,,,,,,,,,,,,,,2 ,2.0,catalan,6.0,castellano,0.0,3.0,4.0,yes,no,yes,piano,10,,,59.0,yes
203,2023-07-30_17h24.25.873,Unsyncopated1,s4,30 ,feminino,right, España,CatalánCastellano,Upper secondary,no,yes,A,2,conjunction_syn,L4,syncopated,s2,r1,75,Online_conjL4_syn//a.zi.lo22.666.1554.wav,po,bo,pe,zi,sil,re,bu,lo,sil1,da,sil2,['catch'],[2.1076999999879718],[2.1076999999879718],1.554,no_beat,0.5536999999879717,0.5536999999879717,"[""space""]",lo,2,,,,,,,,,,,,,,,2 ,2.0,catalan,6.0,castellano,0.0,3.0,4.0,yes,no,yes,piano,10,,,59.0,yes
204,2023-07-30_17h24.25.873,Unsyncopated1,s4,30 ,feminino,right, España,CatalánCastellano,Upper secondary,no,yes,A,2,conjunction_syn,L4,syncopated,s1,r2,76,Online_conjL4_syn//b.ja.nu15.0.666.wav,ja,ru,ci,nu,sil,de,da,po,sil1,bo,sil2,['miss'],,,0.0,beat,,,,ja,1,,,,,,,,,,,,,,,2 ,2.0,catalan,6.0,castellano,0.0,3.0,4.0,yes,no,yes,piano,10,,,59.0,yes
205,2023-07-30_17h24.25.873,Unsyncopated1,s4,30 ,feminino,right, España,CatalánCastellano,Upper secondary,no,yes,A,2,conjunction_syn,L4,syncopated,s2,r1,77,Online_conjL4_syn//b.ja.nu14.none.none.wav,pe,ci,da,zi,sil,po,bu,lo,sil1,ña,sil2,['-'],,,none,none,,,,ja,1,,,,,,,,,,,,,,,2 ,2.0,catalan,6.0,castellano,0.0,3.0,4.0,yes,no,yes,piano,10,,,59.0,yes
206,2023-07-30_17h24.25.873,Unsyncopated1,s4,30 ,feminino,right, España,CatalánCastellano,Upper secondary,no,yes,A,2,conjunction_syn,L4,syncopated,s1,r2,78,Online_conjL4_syn//b.ja.nu12.0.666.wav,ja,ñi,de,nu,sil,pe,po,da,sil1,ru,sil2,['miss'],,,0.0,beat,,,,ja,1,,,,,,,,,,,,,,,2 ,2.0,catalan,6.0,castellano,0.0,3.0,4.0,yes,no,yes,piano,10,,,59.0,yes
207,2023-07-30_17h24.25.873,Unsyncopated1,s4,30 ,feminino,right, España,CatalánCastellano,Upper secondary,no,yes,A,2,conjunction_syn,L4,syncopated,s2,r1,79,Online_conjL4_syn//b.ja.nu13.none.none.wav,re,ci,bu,zi,sil,po,bo,lo,sil1,pe,sil2,['-'],,,none,none,,,,ja,1,,,,,,,,,,,,,,,2 ,2.0,catalan,6.0,castellano,0.0,3.0,4.0,yes,no,yes,piano,10,,,59.0,yes
208,2023-07-30_17h24.25.873,Unsyncopated1,s4,30 ,feminino,right, España,CatalánCastellano,Upper secondary,no,yes,A,2,conjunction_syn,L4,syncopated,s1,r2,80,Online_conjL4_syn//d.pe.po8.none.none.wav,ja,re,de,nu,sil,ci,ru,ñi,sil1,bu,sil2,['false alarm'],[1.1406000000238237],[1.1406000000238237],none,none,,,"[""space""]",pe,4,,,,,,,,,,,,,,,2 ,2.0,catalan,6.0,castellano,0.0,3.0,4.0,yes,no,yes,piano,10,,,59.0,yes
209,2023-07-30_17h24.25.873,Unsyncopated1,s4,30 ,feminino,right, España,CatalánCastellano,Upper secondary,no,yes,A,2,conjunction_syn,L4,syncopated,s1,r2,81,Online_conjL4_syn//d.pe.po11.1332.222.wav,ja,po,re,nu,sil,ñi,pe,ña,sil1,ci,sil2,['catch'],[2.197400000035941],[2.197400000035941],1.332,no_beat,0.865400000035941,0.865400000035941,"[""space""]",pe,4,,,,,,,,,,,,,,,2 ,2.0,catalan,6.0,castellano,0.0,3.0,4.0,yes,no,yes,piano,10,,,59.0,yes
210,2023-07-30_17h24.25.873,Unsyncopated1,s4,30 ,feminino,right, España,CatalánCastellano,Upper secondary,no,yes,A,2,conjunction_syn,L4,syncopated,s2,r2,82,Online_conjL4_syn//d.pe.po10.1332.444.wav,bu,ci,po,ja,sil,bo,pe,nu,sil1,de,sil2,['miss'],,,1.332,no_beat,,,,pe,4,,,,,,,,,,,,,,,2 ,2.0,catalan,6.0,castellano,0.0,3.0,4.0,yes,no,yes,piano,10,,,59.0,yes
211,2023-07-30_17h24.25.873,Unsyncopated1,s4,30 ,feminino,right, España,CatalánCastellano,Upper secondary,no,yes,A,2,conjunction_syn,L4,syncopated,s1,r1,83,Online_conjL4_syn//d.pe.po9.1554.1110.wav,zi,bo,ci,lo,sil,po,de,pe,sil1,ru,sil2,['catch'],[2.4554999999998017],[2.4554999999998017],1.554,no_beat,0.9014999999998016,0.9014999999998016,"[""space""]",pe,4,,,,,,,,,,,,,,,2 ,2.0,catalan,6.0,castellano,0.0,3.0,4.0,yes,no,yes,piano,10,,,59.0,yes
212,2023-07-30_17h24.25.873,Unsyncopated1,s4,30 ,feminino,right, España,CatalánCastellano,Upper secondary,no,yes,A,2,conjunction_syn,L4,syncopated,s1,r2,84,Online_conjL4_syn//b.ja.nu23.0.666.wav,ja,bu,da,nu,sil,po,ña,pe,sil1,ru,sil2,['catch'],[0.66030000001183],[0.66030000001183],0.0,beat,0.66030000001183,0.66030000001183,"[""space""]",ja,1,,,,,,,,,,,,,,,2 ,2.0,catalan,6.0,castellano,0.0,3.0,4.0,yes,no,yes,piano,10,,,59.0,yes
213,2023-07-30_17h24.25.873,Unsyncopated1,s4,30 ,feminino,right, España,CatalánCastellano,Upper secondary,no,yes,A,2,conjunction_syn,L4,syncopated,s1,r1,85,Online_conjL4_syn//b.ja.nu21.none.none.wav,zi,ñi,ru,lo,sil,da,ci,po,sil1,re,sil2,['-'],,,none,none,,,,ja,1,,,,,,,,,,,,,,,2 ,2.0,catalan,6.0,castellano,0.0,3.0,4.0,yes,no,yes,piano,10,,,59.0,yes
214,2023-07-30_17h24.25.873,Unsyncopated1,s4,30 ,feminino,right, España,CatalánCastellano,Upper secondary,no,yes,A,2,conjunction_syn,L4,syncopated,s1,r2,86,Online_conjL4_syn//b.ja.nu20.0.666.wav,ja,bu,po,nu,sil,da,ña,ru,sil1,ci,sil2,['catch'],[0.5886000000236891],[0.5886000000236891],0.0,beat,0.5886000000236891,0.5886000000236891,"[""space""]",ja,1,,,,,,,,,,,,,,,2 ,2.0,catalan,6.0,castellano,0.0,3.0,4.0,yes,no,yes,piano,10,,,59.0,yes
215,2023-07-30_17h24.25.873,Unsyncopated1,s4,30 ,feminino,right, España,CatalánCastellano,Upper secondary,no,yes,A,2,conjunction_syn,L4,syncopated,s1,r1,87,Online_conjL4_syn//b.ja.nu22.none.none.wav,zi,ñi,re,lo,sil,bu,po,pe,sil1,ña,sil2,['-'],,,none,none,,,,ja,1,,,,,,,,,,,,,,,2 ,2.0,catalan,6.0,castellano,0.0,3.0,4.0,yes,no,yes,piano,10,,,59.0,yes
216,2023-07-30_17h24.25.873,Unsyncopated1,s4,30 ,feminino,right, España,CatalánCastellano,Upper secondary,no,yes,A,2,conjunction_syn,L4,syncopated,s2,r2,88,Online_conjL4_syn//c.bu.da3.0.444.wav,bu,ci,da,ja,sil,pe,po,nu,sil1,bo,sil2,['catch'],[1.0704999999998108],[1.0704999999998108],0.0,beat,1.0704999999998108,1.0704999999998108,"[""space""]",bu,3,,,,,,,,,,,,,,,2 ,2.0,catalan,6.0,castellano,0.0,3.0,4.0,yes,no,yes,piano,10,,,59.0,yes
217,2023-07-30_17h24.25.873,Unsyncopated1,s4,30 ,feminino,right, España,CatalánCastellano,Upper secondary,no,yes,A,2,conjunction_syn,L4,syncopated,s2,r2,89,Online_conjL4_syn//c.bu.da2.0.222.wav,bu,da,ñi,ja,sil,pe,re,nu,sil1,bo,sil2,['miss'],,,0.0,beat,,,,bu,3,,,,,,,,,,,,,,,2 ,2.0,catalan,6.0,castellano,0.0,3.0,4.0,yes,no,yes,piano,10,,,59.0,yes
218,2023-07-30_17h24.25.873,Unsyncopated1,s4,30 ,feminino,right, España,CatalánCastellano,Upper secondary,no,yes,A,2,conjunction_syn,L4,syncopated,s1,r2,90,Online_conjL4_syn//c.bu.da1.none.none.wav,ja,po,pe,nu,sil,ñi,ru,bo,sil1,ci,sil2,"['false alarm', 'false alarm']","[0.2409000000359356, 1.9078000000120028]",1.9078000000120028,none,none,,,"[""space"",""space""]",bu,3,,,,,,,,,,,,,,,2 ,2.0,catalan,6.0,castellano,0.0,3.0,4.0,yes,no,yes,piano,10,,,59.0,yes
219,2023-07-30_17h24.25.873,Unsyncopated1,s4,30 ,feminino,right, España,CatalánCastellano,Upper secondary,no,yes,A,2,conjunction_syn,L4,syncopated,s1,r2,91,Online_conjL4_syn//c.bu.da0.none.none.wav,ja,bo,re,nu,sil,ñi,ña,pe,sil1,ci,sil2,['-'],,,none,none,,,,bu,3,,,,,,,,,,,,,,,2 ,2.0,catalan,6.0,castellano,0.0,3.0,4.0,yes,no,yes,piano,10,,,59.0,yes
220,2023-07-30_17h24.25.873,Unsyncopated1,s4,30 ,feminino,right, España,CatalánCastellano,Upper secondary,no,yes,A,2,conjunction_syn,L4,syncopated,s1,r1,92,Online_conjL4_syn//c.bu.da17.none.none.wav,zi,bo,de,lo,sil,po,ña,re,sil1,ci,sil2,['-'],,,none,none,,,,bu,3,,,,,,,,,,,,,,,2 ,2.0,catalan,6.0,castellano,0.0,3.0,4.0,yes,no,yes,piano,10,,,59.0,yes
221,2023-07-30_17h24.25.873,Unsyncopated1,s4,30 ,feminino,right, España,CatalánCastellano,Upper secondary,no,yes,A,2,conjunction_syn,L4,syncopated,s1,r1,93,Online_conjL4_syn//c.bu.da18.1110.1332.wav,zi,bo,ñi,lo,sil,bu,da,de,sil1,po,sil2,['catch'],[1.814699999988079],[1.814699999988079],1.11,no_beat,0.704699999988079,0.704699999988079,"[""space""]",bu,3,,,,,,,,,,,,,,,2 ,2.0,catalan,6.0,castellano,0.0,3.0,4.0,yes,no,yes,piano,10,,,59.0,yes
222,2023-07-30_17h24.25.873,Unsyncopated1,s4,30 ,feminino,right, España,CatalánCastellano,Upper secondary,no,yes,A,2,conjunction_syn,L4,syncopated,s2,r2,94,Online_conjL4_syn//c.bu.da16.none.none.wav,po,ci,re,ja,sil,pe,de,nu,sil1,ru,sil2,['-'],,,none,none,,,,bu,3,,,,,,,,,,,,,,,2 ,2.0,catalan,6.0,castellano,0.0,3.0,4.0,yes,no,yes,piano,10,,,59.0,yes
223,2023-07-30_17h24.25.873,Unsyncopated1,s4,30 ,feminino,right, España,CatalánCastellano,Upper secondary,no,yes,A,2,conjunction_syn,L4,syncopated,s2,r1,95,Online_conjL4_syn//c.bu.da19.none.none.wav,po,ña,ru,zi,sil,de,pe,lo,sil1,ci,sil2,['-'],,,none,none,,,,bu,3,,,,,,,,,,,,,,,2 ,2.0,catalan,6.0,castellano,0.0,3.0,4.0,yes,no,yes,piano,10,,,59.0,yes
224,2023-07-30_17h24.25.873,Unsyncopated1,s4,30 ,feminino,right, España,CatalánCastellano,Upper secondary,no,yes,A,2,conjunction_syn,L4,syncopated,s1,r1,96,Online_conjL4_syn//a.zi.lo15.0.666.wav,zi,pe,ci,lo,sil,bo,po,ña,sil1,da,sil2,['catch'],[0.8353000000120119],[0.8353000000120119],0.666,no_beat,0.1693000000120118,0.1693000000120118,"[""space""]",lo,2,,,,,,,,,,,,,,,2 ,2.0,catalan,6.0,castellano,0.0,3.0,4.0,yes,no,yes,piano,10,,,59.0,yes
225,2023-07-30_17h24.25.873,Unsyncopated1,s4,30 ,feminino,right, España,CatalánCastellano,Upper secondary,no,yes,A,2,conjunction_syn,L4,syncopated,s2,r1,97,Online_conjL4_syn//a.zi.lo14.666.1554.wav,ci,bo,pe,zi,sil,re,bu,lo,sil1,da,sil2,['catch'],[2.264399999976149],[2.264399999976149],1.554,no_beat,0.710399999976149,0.710399999976149,"[""space""]",lo,2,,,,,,,,,,,,,,,2 ,2.0,catalan,6.0,castellano,0.0,3.0,4.0,yes,no,yes,piano,10,,,59.0,yes
226,2023-07-30_17h24.25.873,Unsyncopated1,s4,30 ,feminino,right, España,CatalánCastellano,Upper secondary,no,yes,A,2,conjunction_syn,L4,syncopated,s1,r2,98,Online_conjL4_syn//a.zi.lo12.none.none.wav,ja,ci,ña,nu,sil,bu,bo,de,sil1,re,sil2,['-'],,,none,none,,,,lo,2,,,,,,,,,,,,,,,2 ,2.0,catalan,6.0,castellano,0.0,3.0,4.0,yes,no,yes,piano,10,,,59.0,yes
227,2023-07-30_17h24.25.873,Unsyncopated1,s4,30 ,feminino,right, España,CatalánCastellano,Upper secondary,no,yes,A,2,conjunction_syn,L4,syncopated,s2,r2,99,Online_conjL4_syn//a.zi.lo13.none.none.wav,pe,de,ña,ja,sil,ci,ru,nu,sil1,po,sil2,['-'],,,none,none,,,,lo,2,,,,,,,,,,,,,,,2 ,2.0,catalan,6.0,castellano,0.0,3.0,4.0,yes,no,yes,piano,10,,,59.0,yes
228,2023-07-30_17h24.25.873,Unsyncopated1,s4,30 ,feminino,right, España,CatalánCastellano,Upper secondary,no,yes,A,2,conjunction_syn,L4,syncopated,s2,r1,100,Online_conjL4_syn//d.pe.po5.222.1110.wav,ñi,pe,da,zi,sil,po,ru,lo,sil1,bo,sil2,['miss'],,,0.222,no_beat,,,,pe,4,,,,,,,,,,,,,,,2 ,2.0,catalan,6.0,castellano,0.0,3.0,4.0,yes,no,yes,piano,10,,,59.0,yes
229,2023-07-30_17h24.25.873,Unsyncopated1,s4,30 ,feminino,right, España,CatalánCastellano,Upper secondary,no,yes,A,2,conjunction_syn,L4,syncopated,s1,r1,101,Online_conjL4_syn//d.pe.po6.1110.222.wav,zi,po,de,lo,sil,pe,ñi,ru,sil1,ci,sil2,['catch'],[1.7734000000357355],[1.7734000000357355],1.11,no_beat,0.6634000000357354,0.6634000000357354,"[""space""]",pe,4,,,,,,,,,,,,,,,2 ,2.0,catalan,6.0,castellano,0.0,3.0,4.0,yes,no,yes,piano,10,,,59.0,yes
230,2023-07-30_17h24.25.873,Unsyncopated1,s4,30 ,feminino,right, España,CatalánCastellano,Upper secondary,no,yes,A,2,conjunction_syn,L4,syncopated,s2,r2,102,Online_conjL4_syn//d.pe.po4.none.none.wav,ña,bu,de,ja,sil,re,ci,nu,sil1,bo,sil2,['-'],,,none,none,,,,pe,4,,,,,,,,,,,,,,,2 ,2.0,catalan,6.0,castellano,0.0,3.0,4.0,yes,no,yes,piano,10,,,59.0,yes
