Unnamed: 0,date,expName,participant,age,sex,hand,residence,native_lang,education_level,lang_deficit,aud_deficit,group,block,condition,language,rhythm,rule structure online,rule type online,order_trial_on,trial_online,s1,s2,s3,s4,s5,s6,s7,s8,s9,s10,s11,catch_syll_resp,rts_syll_catch,clean_rts,time_syll,beat_no_beat,catch_rtsTR,catch_rts,syllable_catch.keys,cond_syll,syll_to_catch,test_offline,block_off,condition_off,rhythm_off,rule,rule_str_off,rule_norule,conds_offline,language_off,Partz_no_partm.keys,Partz_no_partm.rt,security_1_7.keys,accuracy,security_1_7.rt,n_lang,n_lang_used,lang_1,age_l1,lang_2,age_l2,lang_3,age_l3,ability_learn_l2,tendence_mix_lan,music_experience,muisc_use,partiture,instr_1,age_M1,instr_2,age_M2,preguntas_musica1,BMRQ_answer.response,final comment,BMRQ_Score,bilingual
0,2024-04-09_21h40.07.950,Experiment4_uns,s159,24.0,feminino,right,España,Español y catalán,Upper secondary,no,no,A,1,conjunction_un,L4,unsyncopated,s2,r2,0,Online_conjL4_un//d.pe.po25.none.none.wav,re,bu,ña,sil,ja,bo,de,sil1,nu,da,sil2,['-'],,,none,none,,,,pe,4,testConjL4Uns//time_viol.r1.s1.0.wav,1.0,conjunction_un,unsyncopated,a,s1,no_rule,time,L4,z,2.5727,6.0,0.0,3.7476,3.0,2.0,Catalán,0.0,Castellano,0.0,Inglés,6.0,3.0,0.0,yes,no,yes,Piano,15,Canto,15,1. Cuando comparto música con alguien siento una complicidad especial con aquella persona.,4.0,nada,82.0,yes
1,2024-04-09_21h40.07.950,Experiment4_uns,s159,24.0,feminino,right,España,Español y catalán,Upper secondary,no,no,A,1,conjunction_un,L4,unsyncopated,s2,r1,1,Online_conjL4_un//d.pe.po26.none.none.wav,ci,bo,bu,sil,zi,re,ru,sil1,lo,ñi,sil2,['-'],,,none,none,,,,pe,4,testConjL4Uns//dep_viol.r1.s2.0.wav,1.0,conjunction_un,unsyncopated,a,s2,no_rule,dep,L4,z,1.6324,6.0,0.0,1.899,3.0,2.0,Catalán,0.0,Castellano,0.0,Inglés,6.0,3.0,0.0,yes,no,yes,Piano,15,Canto,15,2. En mi tiempo libre apenas escucho música.,5.0,nada,82.0,yes
2,2024-04-09_21h40.07.950,Experiment4_uns,s159,24.0,feminino,right,España,Español y catalán,Upper secondary,no,no,A,1,conjunction_un,L4,unsyncopated,s2,r1,2,Online_conjL4_un//d.pe.po24.444.1110.wav,de,da,pe,sil,zi,po,re,sil1,lo,bu,sil2,['catch'],[1.1528999999761709],[1.1528999999761709],0.444,no_beat,0.7088999999761709,0.7088999999761709,"[""space""]",pe,4,testConjL4Uns//r1.s2.2.wav,1.0,conjunction_un,unsyncopated,a,s2,rule,rule,L4,z,1.3829,6.0,1.0,1.8991,3.0,2.0,Catalán,0.0,Castellano,0.0,Inglés,6.0,3.0,0.0,yes,no,yes,Piano,15,Canto,15,3. Algunas canciones me ponen los pelos de punta,4.0,nada,82.0,yes
3,2024-04-09_21h40.07.950,Experiment4_uns,s159,24.0,feminino,right,España,Español y catalán,Upper secondary,no,no,A,1,conjunction_un,L4,unsyncopated,s2,r2,3,Online_conjL4_un//d.pe.po27.none.none.wav,ru,ci,bo,sil,ja,de,ñi,sil1,nu,ña,sil2,['-'],,,none,none,,,,pe,4,testConjL4Uns//cat_viol.r1.s2.0.wav,1.0,conjunction_un,unsyncopated,a,s2,no_rule,cat,L4,m,3.7511,4.0,1.0,1.7004,3.0,2.0,Catalán,0.0,Castellano,0.0,Inglés,6.0,3.0,0.0,yes,no,yes,Piano,15,Canto,15,4. La música me hace compañía cuando estoy solo,4.0,nada,82.0,yes
4,2024-04-09_21h40.07.950,Experiment4_uns,s159,24.0,feminino,right,España,Español y catalán,Upper secondary,no,no,A,1,conjunction_un,L4,unsyncopated,s2,r2,4,Online_conjL4_un//b.ja.nu8.888.1776.wav,po,ñi,re,sil,ja,de,da,sil1,nu,pe,sil2,['miss'],,,0.888,beat,,,,ja,1,testConjL4Uns//r2.s2.0.wav,1.0,conjunction_un,unsyncopated,b,s2,rule,rule,L4,z,1.0509,7.0,1.0,2.3161,3.0,2.0,Catalán,0.0,Castellano,0.0,Inglés,6.0,3.0,0.0,yes,no,yes,Piano,15,Canto,15,5. No me apetece bailar ni con la música que más me gusta,5.0,nada,82.0,yes
5,2024-04-09_21h40.07.950,Experiment4_uns,s159,24.0,feminino,right,España,Español y catalán,Upper secondary,no,no,A,1,conjunction_un,L4,unsyncopated,s1,r1,5,Online_conjL4_un//b.ja.nu9.none.none.wav,zi,de,bu,sil,lo,bo,po,sil1,da,ñi,sil2,['-'],,,none,none,,,,ja,1,testConjL4Uns//r1.s1.0.wav,1.0,conjunction_un,unsyncopated,a,s1,rule,rule,L4,m,1.3838,4.0,0.0,4.0806,3.0,2.0,Catalán,0.0,Castellano,0.0,Inglés,6.0,3.0,0.0,yes,no,yes,Piano,15,Canto,15,6. La música me hace conectar con la gente,4.0,nada,82.0,yes
6,2024-04-09_21h40.07.950,Experiment4_uns,s159,24.0,feminino,right,España,Español y catalán,Upper secondary,no,no,A,1,conjunction_un,L4,unsyncopated,s2,r1,6,Online_conjL4_un//b.ja.nu11.none.none.wav,ci,re,bu,sil,zi,da,ña,sil1,lo,ru,sil2,['false alarm'],[1.8016000000237682],[1.8016000000237682],none,none,,,"[""space""]",ja,1,testConjL4Uns//r1.s2.0.wav,1.0,conjunction_un,unsyncopated,a,s2,rule,rule,L4,z,2.6285,5.0,1.0,3.7146,3.0,2.0,Catalán,0.0,Castellano,0.0,Inglés,6.0,3.0,0.0,yes,no,yes,Piano,15,Canto,15,7. Me informo sobre la música que me gusta.,4.0,nada,82.0,yes
7,2024-04-09_21h40.07.950,Experiment4_uns,s159,24.0,feminino,right,España,Español y catalán,Upper secondary,no,no,A,1,conjunction_un,L4,unsyncopated,s2,r1,7,Online_conjL4_un//b.ja.nu10.none.none.wav,bu,da,de,sil,zi,ña,ñi,sil1,lo,ci,sil2,['false alarm'],[1.7192999999523408],[1.7192999999523408],none,none,,,"[""space""]",ja,1,testConjL4Uns//r1.s2.1.wav,1.0,conjunction_un,unsyncopated,a,s2,rule,rule,L4,m,0.6791,4.0,0.0,1.882,3.0,2.0,Catalán,0.0,Castellano,0.0,Inglés,6.0,3.0,0.0,yes,no,yes,Piano,15,Canto,15,8.Me emociono escuchando ciertas canciones.,4.0,nada,82.0,yes
8,2024-04-09_21h40.07.950,Experiment4_uns,s159,24.0,feminino,right,España,Español y catalán,Upper secondary,no,no,A,1,conjunction_un,L4,unsyncopated,s1,r1,8,Online_conjL4_un//c.bu.da7.none.none.wav,zi,re,po,sil,lo,bo,ci,sil1,ña,de,sil2,['-'],,,none,none,,,,bu,3,testConjL4Uns//r1.s1.1.wav,1.0,conjunction_un,unsyncopated,a,s1,rule,rule,L4,z,0.8624,7.0,1.0,0.5849,3.0,2.0,Catalán,0.0,Castellano,0.0,Inglés,6.0,3.0,0.0,yes,no,yes,Piano,15,Canto,15,9.La música me tranquiliza y me relaja.,4.0,nada,82.0,yes
9,2024-04-09_21h40.07.950,Experiment4_uns,s159,24.0,feminino,right,España,Español y catalán,Upper secondary,no,no,A,1,conjunction_un,L4,unsyncopated,s1,r2,9,Online_conjL4_un//c.bu.da6.1776.444.wav,ja,ru,da,sil,nu,ñi,ña,sil1,bu,re,sil2,"['false alarm', 'catch']","[1.0254999999999654, 2.417399999976169]",[2.417399999976169],1.776,beat,0.641399999976169,0.641399999976169,"[""space"",""space""]",bu,3,testConjL4Uns//r2.s1.2.wav,1.0,conjunction_un,unsyncopated,b,s1,rule,rule,L4,m,1.0837,7.0,0.0,1.0502,3.0,2.0,Catalán,0.0,Castellano,0.0,Inglés,6.0,3.0,0.0,yes,no,yes,Piano,15,Canto,15,10.La música me hace bailar,4.0,nada,82.0,yes
10,2024-04-09_21h40.07.950,Experiment4_uns,s159,24.0,feminino,right,España,Español y catalán,Upper secondary,no,no,A,1,conjunction_un,L4,unsyncopated,s2,r1,10,Online_conjL4_un//c.bu.da5.222.444.wav,po,bu,da,sil,zi,de,ci,sil1,lo,re,sil2,['catch'],[0.7245000000000346],[0.7245000000000346],0.222,no_beat,0.5025000000000346,0.5025000000000346,"[""space""]",bu,3,testConjL4Uns//r2.s2.2.wav,1.0,conjunction_un,unsyncopated,b,s2,rule,rule,L4,m,0.555,7.0,0.0,1.0677,3.0,2.0,Catalán,0.0,Castellano,0.0,Inglés,6.0,3.0,0.0,yes,no,yes,Piano,15,Canto,15,11.Busco novedades musicales continuamente,4.0,nada,82.0,yes
11,2024-04-09_21h40.07.950,Experiment4_uns,s159,24.0,feminino,right,España,Español y catalán,Upper secondary,no,no,A,1,conjunction_un,L4,unsyncopated,s1,r1,11,Online_conjL4_un//c.bu.da4.1776.1110.wav,zi,re,bo,sil,lo,da,ru,sil1,bu,de,sil2,['catch'],[2.287200000047733],[2.287200000047733],1.776,beat,0.5112000000477328,0.5112000000477328,"[""space""]",bu,3,testConjL4Uns//r2.s1.0.wav,1.0,conjunction_un,unsyncopated,b,s1,rule,rule,L4,m,0.6179,7.0,0.0,1.0507,3.0,2.0,Catalán,0.0,Castellano,0.0,Inglés,6.0,3.0,0.0,yes,no,yes,Piano,15,Canto,15,12. Puedo llorar cuando escucho algunas melodías que me gustan mucho.,4.0,nada,82.0,yes
12,2024-04-09_21h40.07.950,Experiment4_uns,s159,24.0,feminino,right,España,Español y catalán,Upper secondary,no,no,A,1,conjunction_un,L4,unsyncopated,s1,r2,12,Online_conjL4_un//a.zi.lo20.none.none.wav,ja,da,ñi,sil,nu,ña,ci,sil1,re,ru,sil2,['-'],,,none,none,,,,lo,2,testConjL4Uns//dep_viol.r1.s1.0.wav,1.0,conjunction_un,unsyncopated,a,s1,no_rule,dep,L4,m,0.6404,6.0,1.0,1.1342,3.0,2.0,Catalán,0.0,Castellano,0.0,Inglés,6.0,3.0,0.0,yes,no,yes,Piano,15,Canto,15,13. Me gusta cantar o tocar un instrumento con más gente,4.0,nada,82.0,yes
13,2024-04-09_21h40.07.950,Experiment4_uns,s159,24.0,feminino,right,España,Español y catalán,Upper secondary,no,no,A,1,conjunction_un,L4,unsyncopated,s2,r2,13,Online_conjL4_un//a.zi.lo23.none.none.wav,ñi,bo,po,sil,ja,da,ña,sil1,nu,re,sil2,['-'],,,none,none,,,,lo,2,testConjL4Uns//cat_viol.r2.s2.0.wav,1.0,conjunction_un,unsyncopated,b,s2,no_rule,cat,L4,m,2.2021,4.0,1.0,1.5331,3.0,2.0,Catalán,0.0,Castellano,0.0,Inglés,6.0,3.0,0.0,yes,no,yes,Piano,15,Canto,15,14. La música me ayuda a desconectar.,4.0,nada,82.0,yes
14,2024-04-09_21h40.07.950,Experiment4_uns,s159,24.0,feminino,right,España,Español y catalán,Upper secondary,no,no,A,1,conjunction_un,L4,unsyncopated,s2,r1,14,Online_conjL4_un//a.zi.lo22.888.1776.wav,bu,ñi,pe,sil,zi,bo,ci,sil1,lo,ru,sil2,['catch'],[2.315600000023892],[2.315600000023892],1.776,beat,0.5396000000238919,0.5396000000238919,"[""space""]",lo,2,testConjL4Uns//dep_viol.r2.s2.0.wav,1.0,conjunction_un,unsyncopated,b,s2,no_rule,dep,L4,m,1.7379,2.0,1.0,1.0005,3.0,2.0,Catalán,0.0,Castellano,0.0,Inglés,6.0,3.0,0.0,yes,no,yes,Piano,15,Canto,15,15. No puedo evitar tararear las canciones que me gustan cuando las escucho.,4.0,nada,82.0,yes
15,2024-04-09_21h40.07.950,Experiment4_uns,s159,24.0,feminino,right,España,Español y catalán,Upper secondary,no,no,A,1,conjunction_un,L4,unsyncopated,s2,r1,15,Online_conjL4_un//a.zi.lo21.888.1776.wav,ci,da,de,sil,zi,bu,po,sil1,lo,re,sil2,['catch'],[2.2345000000000255],[2.2345000000000255],1.776,beat,0.4585000000000254,0.4585000000000254,"[""space""]",lo,2,testConjL4Uns//r2.s1.1.wav,1.0,conjunction_un,unsyncopated,b,s1,rule,rule,L4,z,0.6011,5.0,1.0,1.5223,3.0,2.0,Catalán,0.0,Castellano,0.0,Inglés,6.0,3.0,0.0,yes,no,yes,Piano,15,Canto,15,16. En los conciertos me siento en sintonía con los artistas y el público.,4.0,nada,82.0,yes
16,2024-04-09_21h40.07.950,Experiment4_uns,s159,24.0,feminino,right,España,Español y catalán,Upper secondary,no,no,A,1,conjunction_un,L4,unsyncopated,s2,r1,16,Online_conjL4_un//d.pe.po22.none.none.wav,ñi,bu,de,sil,zi,bo,ña,sil1,lo,ci,sil2,['-'],,,none,none,,,,pe,4,testConjL4Uns//cat_viol.r2.s1.0.wav,1.0,conjunction_un,unsyncopated,b,s1,no_rule,cat,L4,z,0.4333,7.0,0.0,1.0551,3.0,2.0,Catalán,0.0,Castellano,0.0,Inglés,6.0,3.0,0.0,yes,no,yes,Piano,15,Canto,15,17. Me gasto bastante dinero en música y cosas relacionadas con la música.,4.0,nada,82.0,yes
17,2024-04-09_21h40.07.950,Experiment4_uns,s159,24.0,feminino,right,España,Español y catalán,Upper secondary,no,no,A,1,conjunction_un,L4,unsyncopated,s2,r2,17,Online_conjL4_un//d.pe.po23.none.none.wav,ru,ñi,re,sil,ja,de,bu,sil1,nu,ci,sil2,['-'],,,none,none,,,,pe,4,testConjL4Uns//dep_viol.r2.s1.0.wav,1.0,conjunction_un,unsyncopated,b,s1,no_rule,dep,L4,m,0.7499,5.0,1.0,0.6528,3.0,2.0,Catalán,0.0,Castellano,0.0,Inglés,6.0,3.0,0.0,yes,no,yes,Piano,15,Canto,15,18. Siento escalofríos cuando escucho una melodía que me gusta.,4.0,nada,82.0,yes
18,2024-04-09_21h40.07.950,Experiment4_uns,s159,24.0,feminino,right,España,Español y catalán,Upper secondary,no,no,A,1,conjunction_un,L4,unsyncopated,s2,r1,18,Online_conjL4_un//d.pe.po21.1110.0.wav,po,da,ña,sil,zi,pe,ci,sil1,lo,bu,sil2,['miss'],,,1.11,no_beat,,,,pe,4,testConjL4Uns//r1.s1.2.wav,1.0,conjunction_un,unsyncopated,a,s1,rule,rule,L4,m,0.3409,7.0,0.0,1.334,3.0,2.0,Catalán,0.0,Castellano,0.0,Inglés,6.0,3.0,0.0,yes,no,yes,Piano,15,Canto,15,19. Con la música me puedo desahogar.,4.0,nada,82.0,yes
19,2024-04-09_21h40.07.950,Experiment4_uns,s159,24.0,feminino,right,España,Español y catalán,Upper secondary,no,no,A,1,conjunction_un,L4,unsyncopated,s2,r2,19,Online_conjL4_un//d.pe.po20.444.0.wav,po,bu,pe,sil,ja,ñi,ru,sil1,nu,bo,sil2,['miss'],,,0.444,no_beat,,,,pe,4,testConjL4Uns//cat_viol.r1.s1.0.wav,1.0,conjunction_un,unsyncopated,a,s1,no_rule,cat,L4,m,1.9178,3.0,1.0,1.536,3.0,2.0,Catalán,0.0,Castellano,0.0,Inglés,6.0,3.0,0.0,yes,no,yes,Piano,15,Canto,15,20. Cuando escucho una melodía que me gusta mucho no puedo evitar mover el cuerpo.,4.0,nada,82.0,yes
20,2024-04-09_21h40.07.950,Experiment4_uns,s159,24.0,feminino,right,España,Español y catalán,Upper secondary,no,no,A,1,conjunction_un,L4,unsyncopated,s1,r2,20,Online_conjL4_un//c.bu.da11.none.none.wav,ja,bo,ñi,sil,nu,pe,re,sil1,ci,ña,sil2,['-'],,,none,none,,,,bu,3,testConjL4Uns//time_viol.r2.s1.0.wav,1.0,conjunction_un,unsyncopated,b,s1,no_rule,time,L4,m,0.604,6.0,1.0,1.1524,3.0,2.0,Catalán,0.0,Castellano,0.0,Inglés,6.0,3.0,0.0,yes,no,yes,Piano,15,Canto,15,,,nada,82.0,yes
21,2024-04-09_21h40.07.950,Experiment4_uns,s159,24.0,feminino,right,España,Español y catalán,Upper secondary,no,no,A,1,conjunction_un,L4,unsyncopated,s2,r2,21,Online_conjL4_un//c.bu.da8.1332.444.wav,ña,ñi,da,sil,ja,ru,bu,sil1,nu,ci,sil2,['catch'],[1.7882000000475955],[1.7882000000475955],1.332,no_beat,0.4562000000475954,0.4562000000475954,"[""space""]",bu,3,testConjL4Uns//time_viol.r2.s2.0.wav,1.0,conjunction_un,unsyncopated,b,s2,no_rule,time,L4,m,1.3324,3.0,1.0,1.3342,3.0,2.0,Catalán,0.0,Castellano,0.0,Inglés,6.0,3.0,0.0,yes,no,yes,Piano,15,Canto,15,,,nada,82.0,yes
22,2024-04-09_21h40.07.950,Experiment4_uns,s159,24.0,feminino,right,España,Español y catalán,Upper secondary,no,no,A,1,conjunction_un,L4,unsyncopated,s1,r2,22,Online_conjL4_un//c.bu.da9.none.none.wav,ja,re,ñi,sil,nu,ña,de,sil1,bo,po,sil2,['-'],,,none,none,,,,bu,3,testConjL4Uns//r2.s2.1.wav,1.0,conjunction_un,unsyncopated,b,s2,rule,rule,L4,m,1.4523,7.0,0.0,3.2183,3.0,2.0,Catalán,0.0,Castellano,0.0,Inglés,6.0,3.0,0.0,yes,no,yes,Piano,15,Canto,15,,,nada,82.0,yes
23,2024-04-09_21h40.07.950,Experiment4_uns,s159,24.0,feminino,right,España,Español y catalán,Upper secondary,no,no,A,1,conjunction_un,L4,unsyncopated,s2,r2,23,Online_conjL4_un//c.bu.da10.0.1110.wav,bu,po,ña,sil,ja,da,ru,sil1,nu,ñi,sil2,['catch'],[0.6382999999523236],[0.6382999999523236],0.0,beat,0.6382999999523236,0.6382999999523236,"[""space""]",bu,3,testConjL4Uns//time_viol.r1.s2.0.wav,1.0,conjunction_un,unsyncopated,a,s2,no_rule,time,L4,m,0.7605,6.0,1.0,0.6921,3.0,2.0,Catalán,0.0,Castellano,0.0,Inglés,6.0,3.0,0.0,yes,no,yes,Piano,15,Canto,15,,,nada,82.0,yes
24,2024-04-09_21h40.07.950,Experiment4_uns,s159,24.0,feminino,right,España,Español y catalán,Upper secondary,no,no,A,1,conjunction_un,L4,unsyncopated,s1,r1,24,Online_conjL4_un//c.bu.da28.1776.1110.wav,zi,re,ru,sil,lo,da,pe,sil1,bu,ña,sil2,['catch'],[2.2958000000714947],[2.2958000000714947],1.776,beat,0.5198000000714946,0.5198000000714946,"[""space""]",bu,3,testWhenL2Uns//r2.s2.2.wav,2.0,when,unsyncopated,b,s2,rule,rule,L2,z,0.7177,3.0,1.0,3.2235,3.0,2.0,Catalán,0.0,Castellano,0.0,Inglés,6.0,3.0,0.0,yes,no,yes,Piano,15,Canto,15,,,nada,82.0,yes
25,2024-04-09_21h40.07.950,Experiment4_uns,s159,24.0,feminino,right,España,Español y catalán,Upper secondary,no,no,A,1,conjunction_un,L4,unsyncopated,s2,r2,25,Online_conjL4_un//c.bu.da29.none.none.wav,bo,ña,re,sil,ja,ci,ru,sil1,nu,ñi,sil2,['-'],,,none,none,,,,bu,3,testWhenL2Uns//time_viol.r1.s1.0.wav,2.0,when,unsyncopated,a,s1,no_rule,time,L2,m,1.167,7.0,0.0,0.7681,3.0,2.0,Catalán,0.0,Castellano,0.0,Inglés,6.0,3.0,0.0,yes,no,yes,Piano,15,Canto,15,,,nada,82.0,yes
26,2024-04-09_21h40.07.950,Experiment4_uns,s159,24.0,feminino,right,España,Español y catalán,Upper secondary,no,no,A,1,conjunction_un,L4,unsyncopated,s1,r2,26,Online_conjL4_un//c.bu.da30.222.444.wav,ja,bu,da,sil,nu,pe,bo,sil1,ña,de,sil2,['catch'],[0.9117999999523363],[0.9117999999523363],0.222,no_beat,0.6897999999523363,0.6897999999523363,"[""space""]",bu,3,testWhenL2Uns//cat_viol.r2.s1.0.wav,2.0,when,unsyncopated,b,s1,no_rule,cat,L2,m,2.2587,5.0,0.0,0.6849,3.0,2.0,Catalán,0.0,Castellano,0.0,Inglés,6.0,3.0,0.0,yes,no,yes,Piano,15,Canto,15,,,nada,82.0,yes
27,2024-04-09_21h40.07.950,Experiment4_uns,s159,24.0,feminino,right,España,Español y catalán,Upper secondary,no,no,A,1,conjunction_un,L4,unsyncopated,s2,r2,27,Online_conjL4_un//c.bu.da31.none.none.wav,po,re,bo,sil,ja,ña,ñi,sil1,nu,pe,sil2,['-'],,,none,none,,,,bu,3,testWhenL2Uns//r1.s1.0.wav,2.0,when,unsyncopated,a,s1,rule,rule,L2,z,2.8343,4.0,1.0,1.4678,3.0,2.0,Catalán,0.0,Castellano,0.0,Inglés,6.0,3.0,0.0,yes,no,yes,Piano,15,Canto,15,,,nada,82.0,yes
28,2024-04-09_21h40.07.950,Experiment4_uns,s159,24.0,feminino,right,España,Español y catalán,Upper secondary,no,no,A,1,conjunction_un,L4,unsyncopated,s1,r2,28,Online_conjL4_un//a.zi.lo19.none.none.wav,ja,bo,po,sil,nu,pe,re,sil1,ci,ña,sil2,['-'],,,none,none,,,,lo,2,testWhenL2Uns//r1.s2.2.wav,2.0,when,unsyncopated,a,s2,rule,rule,L2,z,0.3518,7.0,1.0,1.6179,3.0,2.0,Catalán,0.0,Castellano,0.0,Inglés,6.0,3.0,0.0,yes,no,yes,Piano,15,Canto,15,,,nada,82.0,yes
29,2024-04-09_21h40.07.950,Experiment4_uns,s159,24.0,feminino,right,España,Español y catalán,Upper secondary,no,no,A,1,conjunction_un,L4,unsyncopated,s2,r2,29,Online_conjL4_un//a.zi.lo17.none.none.wav,re,pe,ru,sil,ja,bu,ña,sil1,nu,po,sil2,['-'],,,none,none,,,,lo,2,testWhenL2Uns//r1.s1.2.wav,2.0,when,unsyncopated,a,s1,rule,rule,L2,z,0.8022,7.0,1.0,0.8526,3.0,2.0,Catalán,0.0,Castellano,0.0,Inglés,6.0,3.0,0.0,yes,no,yes,Piano,15,Canto,15,,,nada,82.0,yes
30,2024-04-09_21h40.07.950,Experiment4_uns,s159,24.0,feminino,right,España,Español y catalán,Upper secondary,no,no,A,1,conjunction_un,L4,unsyncopated,s1,r1,30,Online_conjL4_un//a.zi.lo16.0.888.wav,zi,ci,ru,sil,lo,bu,de,sil1,da,po,sil2,['catch'],[1.5220999999046398],[1.5220999999046398],0.888,beat,0.6340999999046398,0.6340999999046398,"[""space""]",lo,2,testWhenL2Uns//time_viol.r2.s1.0.wav,2.0,when,unsyncopated,b,s1,no_rule,time,L2,m,0.7017,6.0,0.0,1.0658,3.0,2.0,Catalán,0.0,Castellano,0.0,Inglés,6.0,3.0,0.0,yes,no,yes,Piano,15,Canto,15,,,nada,82.0,yes
31,2024-04-09_21h40.07.950,Experiment4_uns,s159,24.0,feminino,right,España,Español y catalán,Upper secondary,no,no,A,1,conjunction_un,L4,unsyncopated,s2,r1,31,Online_conjL4_un//a.zi.lo18.888.1776.wav,po,da,ña,sil,zi,re,ci,sil1,lo,de,sil2,['catch'],[2.300300000071502],[2.300300000071502],1.776,beat,0.5243000000715019,0.5243000000715019,"[""space""]",lo,2,testWhenL2Uns//r2.s1.0.wav,2.0,when,unsyncopated,b,s1,rule,rule,L2,m,0.7177,7.0,0.0,1.0264,3.0,2.0,Catalán,0.0,Castellano,0.0,Inglés,6.0,3.0,0.0,yes,no,yes,Piano,15,Canto,15,,,nada,82.0,yes
32,2024-04-09_21h40.07.950,Experiment4_uns,s159,24.0,feminino,right,España,Español y catalán,Upper secondary,no,no,A,1,conjunction_un,L4,unsyncopated,s1,r2,32,Online_conjL4_un//d.pe.po16.1776.444.wav,ja,re,po,sil,nu,da,bu,sil1,pe,bo,sil2,['catch'],[2.52829999995231],[2.52829999995231],1.776,beat,0.7522999999523099,0.7522999999523099,"[""space""]",pe,4,testWhenL2Uns//dep_viol.r1.s2.0.wav,2.0,when,unsyncopated,a,s2,no_rule,dep,L2,m,0.5315,5.0,0.0,1.3511,3.0,2.0,Catalán,0.0,Castellano,0.0,Inglés,6.0,3.0,0.0,yes,no,yes,Piano,15,Canto,15,,,nada,82.0,yes
33,2024-04-09_21h40.07.950,Experiment4_uns,s159,24.0,feminino,right,España,Español y catalán,Upper secondary,no,no,A,1,conjunction_un,L4,unsyncopated,s2,r2,33,Online_conjL4_un//d.pe.po17.222.444.wav,re,pe,po,sil,ja,ci,ña,sil1,nu,bo,sil2,['catch'],[0.9316000000238773],[0.9316000000238773],0.222,no_beat,0.7096000000238774,0.7096000000238774,"[""space""]",pe,4,testWhenL2Uns//r1.s2.0.wav,2.0,when,unsyncopated,a,s2,rule,rule,L2,z,0.8008,7.0,1.0,1.516,3.0,2.0,Catalán,0.0,Castellano,0.0,Inglés,6.0,3.0,0.0,yes,no,yes,Piano,15,Canto,15,,,nada,82.0,yes
34,2024-04-09_21h40.07.950,Experiment4_uns,s159,24.0,feminino,right,España,Español y catalán,Upper secondary,no,no,A,1,conjunction_un,L4,unsyncopated,s1,r1,34,Online_conjL4_un//d.pe.po19.none.none.wav,zi,da,ña,sil,lo,bo,bu,sil1,ñi,re,sil2,['-'],,,none,none,,,,pe,4,testWhenL2Uns//time_viol.r1.s2.0.wav,2.0,when,unsyncopated,a,s2,no_rule,time,L2,z,4.8466,4.0,1.0,0.9478,3.0,2.0,Catalán,0.0,Castellano,0.0,Inglés,6.0,3.0,0.0,yes,no,yes,Piano,15,Canto,15,,,nada,82.0,yes
35,2024-04-09_21h40.07.950,Experiment4_uns,s159,24.0,feminino,right,España,Español y catalán,Upper secondary,no,no,A,1,conjunction_un,L4,unsyncopated,s1,r2,35,Online_conjL4_un//d.pe.po18.none.none.wav,ja,ña,ñi,sil,nu,de,ru,sil1,da,bo,sil2,['-'],,,none,none,,,,pe,4,testWhenL2Uns//r1.s1.1.wav,2.0,when,unsyncopated,a,s1,rule,rule,L2,m,1.9647,3.0,0.0,2.1174,3.0,2.0,Catalán,0.0,Castellano,0.0,Inglés,6.0,3.0,0.0,yes,no,yes,Piano,15,Canto,15,,,nada,82.0,yes
36,2024-04-09_21h40.07.950,Experiment4_uns,s159,24.0,feminino,right,España,Español y catalán,Upper secondary,no,no,A,1,conjunction_un,L4,unsyncopated,s2,r2,36,Online_conjL4_un//c.bu.da21.none.none.wav,de,bo,ñi,sil,ja,ci,po,sil1,nu,re,sil2,['-'],,,none,none,,,,bu,3,testWhenL2Uns//r1.s2.1.wav,2.0,when,unsyncopated,a,s2,rule,rule,L2,z,0.9168,5.0,1.0,1.1,3.0,2.0,Catalán,0.0,Castellano,0.0,Inglés,6.0,3.0,0.0,yes,no,yes,Piano,15,Canto,15,,,nada,82.0,yes
37,2024-04-09_21h40.07.950,Experiment4_uns,s159,24.0,feminino,right,España,Español y catalán,Upper secondary,no,no,A,1,conjunction_un,L4,unsyncopated,s1,r1,37,Online_conjL4_un//c.bu.da20.1332.222.wav,zi,da,pe,sil,lo,ñi,bu,sil1,po,de,sil2,['catch'],[1.91989999997611],[1.91989999997611],1.332,no_beat,0.5878999999761099,0.5878999999761099,"[""space""]",bu,3,testWhenL2Uns//dep_viol.r2.s2.0.wav,2.0,when,unsyncopated,b,s2,no_rule,dep,L2,m,0.7176,7.0,0.0,0.9179,3.0,2.0,Catalán,0.0,Castellano,0.0,Inglés,6.0,3.0,0.0,yes,no,yes,Piano,15,Canto,15,,,nada,82.0,yes
38,2024-04-09_21h40.07.950,Experiment4_uns,s159,24.0,feminino,right,España,Español y catalán,Upper secondary,no,no,A,1,conjunction_un,L4,unsyncopated,s2,r1,38,Online_conjL4_un//c.bu.da22.1110.0.wav,da,ci,bo,sil,zi,bu,ru,sil1,lo,pe,sil2,['catch'],[1.6682999999522963],[1.6682999999522963],1.11,no_beat,0.5582999999522962,0.5582999999522962,"[""space""]",bu,3,testWhenL2Uns//time_viol.r2.s2.0.wav,2.0,when,unsyncopated,b,s2,no_rule,time,L2,m,0.8174,7.0,0.0,0.4505,3.0,2.0,Catalán,0.0,Castellano,0.0,Inglés,6.0,3.0,0.0,yes,no,yes,Piano,15,Canto,15,,,nada,82.0,yes
39,2024-04-09_21h40.07.950,Experiment4_uns,s159,24.0,feminino,right,España,Español y catalán,Upper secondary,no,no,A,1,conjunction_un,L4,unsyncopated,s2,r1,39,Online_conjL4_un//c.bu.da23.none.none.wav,po,ru,pe,sil,zi,re,ña,sil1,lo,ci,sil2,['false alarm'],[0.8037000000476837],[0.8037000000476837],none,none,,,"[""space""]",bu,3,testWhenL2Uns//dep_viol.r2.s1.0.wav,2.0,when,unsyncopated,b,s1,no_rule,dep,L2,m,0.7822,7.0,0.0,0.3668,3.0,2.0,Catalán,0.0,Castellano,0.0,Inglés,6.0,3.0,0.0,yes,no,yes,Piano,15,Canto,15,,,nada,82.0,yes
40,2024-04-09_21h40.07.950,Experiment4_uns,s159,24.0,feminino,right,España,Español y catalán,Upper secondary,no,no,A,1,conjunction_un,L4,unsyncopated,s1,r1,40,Online_conjL4_un//c.bu.da1.none.none.wav,zi,bo,po,sil,lo,re,ci,sil1,ñi,pe,sil2,['-'],,,none,none,,,,bu,3,testWhenL2Uns//cat_viol.r2.s2.0.wav,2.0,when,unsyncopated,b,s2,no_rule,cat,L2,m,0.4342,7.0,0.0,0.7743,3.0,2.0,Catalán,0.0,Castellano,0.0,Inglés,6.0,3.0,0.0,yes,no,yes,Piano,15,Canto,15,,,nada,82.0,yes
41,2024-04-09_21h40.07.950,Experiment4_uns,s159,24.0,feminino,right,España,Español y catalán,Upper secondary,no,no,A,1,conjunction_un,L4,unsyncopated,s1,r1,41,Online_conjL4_un//c.bu.da0.none.none.wav,zi,ña,ru,sil,lo,re,ñi,sil1,bo,ci,sil2,['-'],,,none,none,,,,bu,3,testWhenL2Uns//r2.s2.1.wav,2.0,when,unsyncopated,b,s2,rule,rule,L2,m,1.4019,7.0,0.0,0.8023,3.0,2.0,Catalán,0.0,Castellano,0.0,Inglés,6.0,3.0,0.0,yes,no,yes,Piano,15,Canto,15,,,nada,82.0,yes
42,2024-04-09_21h40.07.950,Experiment4_uns,s159,24.0,feminino,right,España,Español y catalán,Upper secondary,no,no,A,1,conjunction_un,L4,unsyncopated,s2,r2,42,Online_conjL4_un//c.bu.da3.444.1110.wav,po,pe,bu,sil,ja,da,ci,sil1,nu,de,sil2,['catch'],[1.152300000071591],[1.152300000071591],0.444,no_beat,0.7083000000715911,0.7083000000715911,"[""space""]",bu,3,testWhenL2Uns//cat_viol.r1.s2.0.wav,2.0,when,unsyncopated,a,s2,no_rule,cat,L2,z,2.7167,4.0,1.0,0.5859,3.0,2.0,Catalán,0.0,Castellano,0.0,Inglés,6.0,3.0,0.0,yes,no,yes,Piano,15,Canto,15,,,nada,82.0,yes
43,2024-04-09_21h40.07.950,Experiment4_uns,s159,24.0,feminino,right,España,Español y catalán,Upper secondary,no,no,A,1,conjunction_un,L4,unsyncopated,s1,r1,43,Online_conjL4_un//c.bu.da2.none.none.wav,zi,pe,ci,sil,lo,de,ña,sil1,ñi,re,sil2,['-'],,,none,none,,,,bu,3,testWhenL2Uns//dep_viol.r1.s1.0.wav,2.0,when,unsyncopated,a,s1,no_rule,dep,L2,z,1.5155,5.0,1.0,0.8842,3.0,2.0,Catalán,0.0,Castellano,0.0,Inglés,6.0,3.0,0.0,yes,no,yes,Piano,15,Canto,15,,,nada,82.0,yes
44,2024-04-09_21h40.07.950,Experiment4_uns,s159,24.0,feminino,right,España,Español y catalán,Upper secondary,no,no,A,1,conjunction_un,L4,unsyncopated,s1,r2,44,Online_conjL4_un//d.pe.po15.444.1332.wav,ja,bu,pe,sil,nu,ru,po,sil1,de,da,sil2,['miss'],,,0.444,no_beat,,,,pe,4,testWhenL2Uns//r2.s2.0.wav,2.0,when,unsyncopated,b,s2,rule,rule,L2,m,1.6906,6.0,0.0,0.9365,3.0,2.0,Catalán,0.0,Castellano,0.0,Inglés,6.0,3.0,0.0,yes,no,yes,Piano,15,Canto,15,,,nada,82.0,yes
45,2024-04-09_21h40.07.950,Experiment4_uns,s159,24.0,feminino,right,España,Español y catalán,Upper secondary,no,no,A,1,conjunction_un,L4,unsyncopated,s1,r1,45,Online_conjL4_un//d.pe.po14.none.none.wav,zi,bo,da,sil,lo,ña,ci,sil1,de,re,sil2,['-'],,,none,none,,,,pe,4,testWhenL2Uns//cat_viol.r1.s1.0.wav,2.0,when,unsyncopated,a,s1,no_rule,cat,L2,m,1.0177,5.0,0.0,1.117,3.0,2.0,Catalán,0.0,Castellano,0.0,Inglés,6.0,3.0,0.0,yes,no,yes,Piano,15,Canto,15,,,nada,82.0,yes
46,2024-04-09_21h40.07.950,Experiment4_uns,s159,24.0,feminino,right,España,Español y catalán,Upper secondary,no,no,A,1,conjunction_un,L4,unsyncopated,s2,r2,46,Online_conjL4_un//d.pe.po12.none.none.wav,da,ñi,bo,sil,ja,ña,ru,sil1,nu,bu,sil2,['-'],,,none,none,,,,pe,4,testWhenL2Uns//r2.s1.1.wav,2.0,when,unsyncopated,b,s1,rule,rule,L2,z,3.6135,6.0,1.0,1.5367,3.0,2.0,Catalán,0.0,Castellano,0.0,Inglés,6.0,3.0,0.0,yes,no,yes,Piano,15,Canto,15,,,nada,82.0,yes
47,2024-04-09_21h40.07.950,Experiment4_uns,s159,24.0,feminino,right,España,Español y catalán,Upper secondary,no,no,A,1,conjunction_un,L4,unsyncopated,s1,r1,47,Online_conjL4_un//d.pe.po13.1776.1110.wav,zi,ña,ñi,sil,lo,po,bu,sil1,pe,de,sil2,['catch_delay'],[0.8960000000000383],[0.8960000000000383],1.776,beat,0.8960000000000383,0.8960000000000383,,pe,4,testWhenL2Uns//r2.s1.2.wav,2.0,when,unsyncopated,b,s1,rule,rule,L2,m,1.3161,5.0,0.0,1.2183,3.0,2.0,Catalán,0.0,Castellano,0.0,Inglés,6.0,3.0,0.0,yes,no,yes,Piano,15,Canto,15,,,nada,82.0,yes
48,2024-04-09_21h40.07.950,Experiment4_uns,s159,24.0,feminino,right,España,Español y catalán,Upper secondary,no,no,A,1,conjunction_un,L4,unsyncopated,s1,r1,48,Online_conjL4_un//d.pe.po7.1110.222.wav,zi,po,ña,sil,lo,pe,ru,sil1,da,re,sil2,['miss'],[0.008000000000038199],[0.008000000000038199],1.11,no_beat,,,"[""space""]",pe,4,testWhatL1Uns//r1.s2.0.wav,3.0,what,unsyncopated,a,s2,rule,rule,L1,z,0.7335,7.0,1.0,0.797,3.0,2.0,Catalán,0.0,Castellano,0.0,Inglés,6.0,3.0,0.0,yes,no,yes,Piano,15,Canto,15,,,nada,82.0,yes
49,2024-04-09_21h40.07.950,Experiment4_uns,s159,24.0,feminino,right,España,Español y catalán,Upper secondary,no,no,A,1,conjunction_un,L4,unsyncopated,s1,r1,49,Online_conjL4_un//d.pe.po5.none.none.wav,zi,de,re,sil,lo,ru,ci,sil1,bo,bu,sil2,['false alarm'],[0.871799999952259],[0.871799999952259],none,none,,,"[""space""]",pe,4,testWhatL1Uns//r2.s1.1.wav,3.0,what,unsyncopated,b,s1,rule,rule,L1,m,1.1031,7.0,0.0,0.711,3.0,2.0,Catalán,0.0,Castellano,0.0,Inglés,6.0,3.0,0.0,yes,no,yes,Piano,15,Canto,15,,,nada,82.0,yes
50,2024-04-09_21h40.07.950,Experiment4_uns,s159,24.0,feminino,right,España,Español y catalán,Upper secondary,no,no,A,1,conjunction_un,L4,unsyncopated,s2,r1,50,Online_conjL4_un//d.pe.po4.0.1110.wav,pe,ru,da,sil,zi,po,ñi,sil1,lo,bu,sil2,['miss'],,,0.0,beat,,,,pe,4,testWhatL1Uns//r2.s2.1.wav,3.0,what,unsyncopated,b,s2,rule,rule,L1,m,0.5229,6.0,0.0,1.8691,3.0,2.0,Catalán,0.0,Castellano,0.0,Inglés,6.0,3.0,0.0,yes,no,yes,Piano,15,Canto,15,,,nada,82.0,yes
51,2024-04-09_21h40.07.950,Experiment4_uns,s159,24.0,feminino,right,España,Español y catalán,Upper secondary,no,no,A,1,conjunction_un,L4,unsyncopated,s1,r2,51,Online_conjL4_un//d.pe.po6.1110.222.wav,ja,po,de,sil,nu,pe,da,sil1,ru,bo,sil2,['catch'],[1.3757000000476864],[1.3757000000476864],1.11,no_beat,0.2657000000476863,0.2657000000476863,"[""space""]",pe,4,testWhatL1Uns//time_viol.r2.s2.0.wav,3.0,what,unsyncopated,b,s2,no_rule,time,L1,m,1.4341,7.0,1.0,0.6942,3.0,2.0,Catalán,0.0,Castellano,0.0,Inglés,6.0,3.0,0.0,yes,no,yes,Piano,15,Canto,15,,,nada,82.0,yes
52,2024-04-09_21h40.07.950,Experiment4_uns,s159,24.0,feminino,right,España,Español y catalán,Upper secondary,no,no,A,1,conjunction_un,L4,unsyncopated,s1,r2,52,Online_conjL4_un//a.zi.lo29.none.none.wav,ja,ci,pe,sil,nu,ru,po,sil1,ñi,da,sil2,['-'],,,none,none,,,,lo,2,testWhatL1Uns//time_viol.r1.s1.0.wav,3.0,what,unsyncopated,a,s1,no_rule,time,L1,m,2.771,5.0,1.0,0.9846,3.0,2.0,Catalán,0.0,Castellano,0.0,Inglés,6.0,3.0,0.0,yes,no,yes,Piano,15,Canto,15,,,nada,82.0,yes
53,2024-04-09_21h40.07.950,Experiment4_uns,s159,24.0,feminino,right,España,Español y catalán,Upper secondary,no,no,A,1,conjunction_un,L4,unsyncopated,s1,r2,53,Online_conjL4_un//a.zi.lo31.none.none.wav,ja,ru,da,sil,nu,bu,ci,sil1,pe,re,sil2,['-'],,,none,none,,,,lo,2,testWhatL1Uns//r1.s1.1.wav,3.0,what,unsyncopated,a,s1,rule,rule,L1,m,5.0163,5.0,0.0,0.5836,3.0,2.0,Catalán,0.0,Castellano,0.0,Inglés,6.0,3.0,0.0,yes,no,yes,Piano,15,Canto,15,,,nada,82.0,yes
54,2024-04-09_21h40.07.950,Experiment4_uns,s159,24.0,feminino,right,España,Español y catalán,Upper secondary,no,no,A,1,conjunction_un,L4,unsyncopated,s1,r1,54,Online_conjL4_un//a.zi.lo30.0.888.wav,zi,ci,bu,sil,lo,ru,da,sil1,ñi,de,sil2,['catch'],[1.5194999999999936],[1.5194999999999936],0.888,beat,0.6314999999999936,0.6314999999999936,"[""space""]",lo,2,testWhatL1Uns//cat_viol.r2.s2.0.wav,3.0,what,unsyncopated,b,s2,no_rule,cat,L1,m,0.97,5.0,1.0,0.722,3.0,2.0,Catalán,0.0,Castellano,0.0,Inglés,6.0,3.0,0.0,yes,no,yes,Piano,15,Canto,15,,,nada,82.0,yes
55,2024-04-09_21h40.07.950,Experiment4_uns,s159,24.0,feminino,right,España,Español y catalán,Upper secondary,no,no,A,1,conjunction_un,L4,unsyncopated,s1,r1,55,Online_conjL4_un//a.zi.lo28.0.888.wav,zi,da,bo,sil,lo,ña,po,sil1,de,pe,sil2,['catch'],[1.3138999999761154],[1.3138999999761154],0.888,beat,0.4258999999761154,0.4258999999761154,"[""space""]",lo,2,testWhatL1Uns//time_viol.r2.s1.0.wav,3.0,what,unsyncopated,b,s1,no_rule,time,L1,m,1.1299,6.0,1.0,1.5001,3.0,2.0,Catalán,0.0,Castellano,0.0,Inglés,6.0,3.0,0.0,yes,no,yes,Piano,15,Canto,15,,,nada,82.0,yes
56,2024-04-09_21h40.07.950,Experiment4_uns,s159,24.0,feminino,right,España,Español y catalán,Upper secondary,no,no,A,1,conjunction_un,L4,unsyncopated,s1,r1,56,Online_conjL4_un//d.pe.po28.444.1332.wav,zi,ci,pe,sil,lo,ñi,po,sil1,ña,da,sil2,['catch'],[1.222399999976119],[1.222399999976119],0.444,no_beat,0.7783999999761191,0.7783999999761191,"[""space""]",pe,4,testWhatL1Uns//dep_viol.r1.s1.0.wav,3.0,what,unsyncopated,a,s1,no_rule,dep,L1,z,1.6656,6.0,0.0,1.286,3.0,2.0,Catalán,0.0,Castellano,0.0,Inglés,6.0,3.0,0.0,yes,no,yes,Piano,15,Canto,15,,,nada,82.0,yes
57,2024-04-09_21h40.07.950,Experiment4_uns,s159,24.0,feminino,right,España,Español y catalán,Upper secondary,no,no,A,1,conjunction_un,L4,unsyncopated,s1,r2,57,Online_conjL4_un//d.pe.po31.none.none.wav,ja,re,ña,sil,nu,bo,ci,sil1,bu,de,sil2,['-'],,,none,none,,,,pe,4,testWhatL1Uns//r2.s1.0.wav,3.0,what,unsyncopated,b,s1,rule,rule,L1,m,0.8332,6.0,0.0,0.6676,3.0,2.0,Catalán,0.0,Castellano,0.0,Inglés,6.0,3.0,0.0,yes,no,yes,Piano,15,Canto,15,,,nada,82.0,yes
58,2024-04-09_21h40.07.950,Experiment4_uns,s159,24.0,feminino,right,España,Español y catalán,Upper secondary,no,no,A,1,conjunction_un,L4,unsyncopated,s2,r1,58,Online_conjL4_un//d.pe.po29.none.none.wav,bo,ña,bu,sil,zi,ru,ci,sil1,lo,de,sil2,['-'],,,none,none,,,,pe,4,testWhatL1Uns//r1.s1.0.wav,3.0,what,unsyncopated,a,s1,rule,rule,L1,m,0.8582,5.0,0.0,0.9011,3.0,2.0,Catalán,0.0,Castellano,0.0,Inglés,6.0,3.0,0.0,yes,no,yes,Piano,15,Canto,15,,,nada,82.0,yes
59,2024-04-09_21h40.07.950,Experiment4_uns,s159,24.0,feminino,right,España,Español y catalán,Upper secondary,no,no,A,1,conjunction_un,L4,unsyncopated,s1,r2,59,Online_conjL4_un//d.pe.po30.1776.1110.wav,ja,ñi,ru,sil,nu,po,ña,sil1,pe,da,sil2,['catch'],[2.571700000047713],[2.571700000047713],1.776,beat,0.7957000000477128,0.7957000000477128,"[""space""]",pe,4,testWhatL1Uns//dep_viol.r2.s1.0.wav,3.0,what,unsyncopated,b,s1,no_rule,dep,L1,m,0.9224,6.0,1.0,1.4335,3.0,2.0,Catalán,0.0,Castellano,0.0,Inglés,6.0,3.0,0.0,yes,no,yes,Piano,15,Canto,15,,,nada,82.0,yes
60,2024-04-09_21h40.07.950,Experiment4_uns,s159,24.0,feminino,right,España,Español y catalán,Upper secondary,no,no,A,1,conjunction_un,L4,unsyncopated,s2,r2,60,Online_conjL4_un//b.ja.nu24.888.1776.wav,pe,re,po,sil,ja,ñi,de,sil1,nu,bo,sil2,['miss'],,,0.888,beat,,,,ja,1,testWhatL1Uns//r1.s2.1.wav,3.0,what,unsyncopated,a,s2,rule,rule,L1,m,0.584,6.0,0.0,0.5689,3.0,2.0,Catalán,0.0,Castellano,0.0,Inglés,6.0,3.0,0.0,yes,no,yes,Piano,15,Canto,15,,,nada,82.0,yes
61,2024-04-09_21h40.07.950,Experiment4_uns,s159,24.0,feminino,right,España,Español y catalán,Upper secondary,no,no,A,1,conjunction_un,L4,unsyncopated,s1,r1,61,Online_conjL4_un//b.ja.nu25.none.none.wav,zi,da,ru,sil,lo,de,ñi,sil1,re,ña,sil2,['false alarm'],[2.5244000000953974],[2.5244000000953974],none,none,,,"[""space""]",ja,1,testWhatL1Uns//cat_viol.r1.s1.0.wav,3.0,what,unsyncopated,a,s1,no_rule,cat,L1,m,1.1847,7.0,1.0,0.5244,3.0,2.0,Catalán,0.0,Castellano,0.0,Inglés,6.0,3.0,0.0,yes,no,yes,Piano,15,Canto,15,,,nada,82.0,yes
62,2024-04-09_21h40.07.950,Experiment4_uns,s159,24.0,feminino,right,España,Español y catalán,Upper secondary,no,no,A,1,conjunction_un,L4,unsyncopated,s1,r2,62,Online_conjL4_un//b.ja.nu27.0.888.wav,ja,ñi,bu,sil,nu,ña,ci,sil1,da,po,sil2,['catch'],[1.1720000000000255],[1.1720000000000255],0.0,beat,1.1720000000000257,1.1720000000000257,"[""space""]",ja,1,testWhatL1Uns//r1.s1.2.wav,3.0,what,unsyncopated,a,s1,rule,rule,L1,z,1.0221,6.0,1.0,0.8243,3.0,2.0,Catalán,0.0,Castellano,0.0,Inglés,6.0,3.0,0.0,yes,no,yes,Piano,15,Canto,15,,,nada,82.0,yes
63,2024-04-09_21h40.07.950,Experiment4_uns,s159,24.0,feminino,right,España,Español y catalán,Upper secondary,no,no,A,1,conjunction_un,L4,unsyncopated,s2,r2,63,Online_conjL4_un//b.ja.nu26.888.1776.wav,bo,bu,ru,sil,ja,de,ñi,sil1,nu,da,sil2,['catch'],[1.3671999999284026],[1.3671999999284026],0.888,beat,0.4791999999284025,0.4791999999284025,"[""space""]",ja,1,testWhatL1Uns//dep_viol.r1.s2.0.wav,3.0,what,unsyncopated,a,s2,no_rule,dep,L1,m,0.3021,6.0,1.0,0.3897,3.0,2.0,Catalán,0.0,Castellano,0.0,Inglés,6.0,3.0,0.0,yes,no,yes,Piano,15,Canto,15,,,nada,82.0,yes
64,2024-04-09_21h40.07.950,Experiment4_uns,s159,24.0,feminino,right,España,Español y catalán,Upper secondary,no,no,A,1,conjunction_un,L4,unsyncopated,s1,r1,64,Online_conjL4_un//b.ja.nu28.none.none.wav,zi,po,pe,sil,lo,bo,ñi,sil1,re,ci,sil2,['-'],,,none,none,,,,ja,1,testWhatL1Uns//r2.s1.2.wav,3.0,what,unsyncopated,b,s1,rule,rule,L1,m,0.4033,7.0,0.0,0.5823,3.0,2.0,Catalán,0.0,Castellano,0.0,Inglés,6.0,3.0,0.0,yes,no,yes,Piano,15,Canto,15,,,nada,82.0,yes
65,2024-04-09_21h40.07.950,Experiment4_uns,s159,24.0,feminino,right,España,Español y catalán,Upper secondary,no,no,A,1,conjunction_un,L4,unsyncopated,s2,r1,65,Online_conjL4_un//b.ja.nu29.none.none.wav,ci,da,po,sil,zi,bu,de,sil1,lo,ña,sil2,['-'],,,none,none,,,,ja,1,testWhatL1Uns//r2.s2.2.wav,3.0,what,unsyncopated,b,s2,rule,rule,L1,z,1.034,4.0,1.0,0.5847,3.0,2.0,Catalán,0.0,Castellano,0.0,Inglés,6.0,3.0,0.0,yes,no,yes,Piano,15,Canto,15,,,nada,82.0,yes
66,2024-04-09_21h40.07.950,Experiment4_uns,s159,24.0,feminino,right,España,Español y catalán,Upper secondary,no,no,A,1,conjunction_un,L4,unsyncopated,s2,r2,66,Online_conjL4_un//b.ja.nu30.888.1776.wav,pe,re,ña,sil,ja,po,de,sil1,nu,da,sil2,['catch'],[1.376900000095361],[1.376900000095361],0.888,beat,0.488900000095361,0.488900000095361,"[""space""]",ja,1,testWhatL1Uns//time_viol.r1.s2.0.wav,3.0,what,unsyncopated,a,s2,no_rule,time,L1,m,0.0679,7.0,1.0,0.5219,3.0,2.0,Catalán,0.0,Castellano,0.0,Inglés,6.0,3.0,0.0,yes,no,yes,Piano,15,Canto,15,,,nada,82.0,yes
67,2024-04-09_21h40.07.950,Experiment4_uns,s159,24.0,feminino,right,España,Español y catalán,Upper secondary,no,no,A,1,conjunction_un,L4,unsyncopated,s2,r1,67,Online_conjL4_un//b.ja.nu31.none.none.wav,ru,pe,ñi,sil,zi,ña,da,sil1,lo,ci,sil2,['-'],,,none,none,,,,ja,1,testWhatL1Uns//cat_viol.r2.s1.0.wav,3.0,what,unsyncopated,b,s1,no_rule,cat,L1,z,0.4271,7.0,0.0,0.5521,3.0,2.0,Catalán,0.0,Castellano,0.0,Inglés,6.0,3.0,0.0,yes,no,yes,Piano,15,Canto,15,,,nada,82.0,yes
68,2024-04-09_21h40.07.950,Experiment4_uns,s159,24.0,feminino,right,España,Español y catalán,Upper secondary,no,no,A,1,conjunction_un,L4,unsyncopated,s2,r1,68,Online_conjL4_un//b.ja.nu4.none.none.wav,ru,pe,bo,sil,zi,ña,ci,sil1,lo,da,sil2,['-'],,,none,none,,,,ja,1,testWhatL1Uns//r2.s2.0.wav,3.0,what,unsyncopated,b,s2,rule,rule,L1,z,1.167,3.0,1.0,0.5528,3.0,2.0,Catalán,0.0,Castellano,0.0,Inglés,6.0,3.0,0.0,yes,no,yes,Piano,15,Canto,15,,,nada,82.0,yes
69,2024-04-09_21h40.07.950,Experiment4_uns,s159,24.0,feminino,right,España,Español y catalán,Upper secondary,no,no,A,1,conjunction_un,L4,unsyncopated,s1,r1,69,Online_conjL4_un//b.ja.nu5.none.none.wav,zi,ci,ñi,sil,lo,bo,da,sil1,po,ña,sil2,['-'],,,none,none,,,,ja,1,testWhatL1Uns//cat_viol.r1.s2.0.wav,3.0,what,unsyncopated,a,s2,no_rule,cat,L1,m,0.5901,5.0,1.0,0.8065,3.0,2.0,Catalán,0.0,Castellano,0.0,Inglés,6.0,3.0,0.0,yes,no,yes,Piano,15,Canto,15,,,nada,82.0,yes
70,2024-04-09_21h40.07.950,Experiment4_uns,s159,24.0,feminino,right,España,Español y catalán,Upper secondary,no,no,A,1,conjunction_un,L4,unsyncopated,s2,r2,70,Online_conjL4_un//b.ja.nu7.888.1776.wav,pe,bu,bo,sil,ja,de,da,sil1,nu,ña,sil2,['catch'],[1.5528999999761481],[1.5528999999761481],0.888,beat,0.6648999999761481,0.6648999999761481,"[""space""]",ja,1,testWhatL1Uns//r1.s2.2.wav,3.0,what,unsyncopated,a,s2,rule,rule,L1,z,1.3025,3.0,1.0,0.5156,3.0,2.0,Catalán,0.0,Castellano,0.0,Inglés,6.0,3.0,0.0,yes,no,yes,Piano,15,Canto,15,,,nada,82.0,yes
71,2024-04-09_21h40.07.950,Experiment4_uns,s159,24.0,feminino,right,España,Español y catalán,Upper secondary,no,no,A,1,conjunction_un,L4,unsyncopated,s1,r1,71,Online_conjL4_un//b.ja.nu6.none.none.wav,zi,de,bo,sil,lo,ñi,da,sil1,ña,bu,sil2,['-'],,,none,none,,,,ja,1,testWhatL1Uns//dep_viol.r2.s2.0.wav,3.0,what,unsyncopated,b,s2,no_rule,dep,L1,m,1.4609,5.0,1.0,0.4883,3.0,2.0,Catalán,0.0,Castellano,0.0,Inglés,6.0,3.0,0.0,yes,no,yes,Piano,15,Canto,15,,,nada,82.0,yes
72,2024-04-09_21h40.07.950,Experiment4_uns,s159,24.0,feminino,right,España,Español y catalán,Upper secondary,no,no,A,1,conjunction_un,L4,unsyncopated,s1,r2,72,Online_conjL4_un//c.bu.da18.1110.222.wav,ja,da,re,sil,nu,bu,ru,sil1,bo,pe,sil2,['catch'],[1.543699999928549],[1.543699999928549],1.11,no_beat,0.4336999999285489,0.4336999999285489,"[""space""]",bu,3,testConjL3Syn//cat_viol.r2.s2.0.wav,4.0,conjunction_syn,syncopated,b,s2,no_rule,cat,L3,z,1.3074,7.0,0.0,1.0092,3.0,2.0,Catalán,0.0,Castellano,0.0,Inglés,6.0,3.0,0.0,yes,no,yes,Piano,15,Canto,15,,,nada,82.0,yes
73,2024-04-09_21h40.07.950,Experiment4_uns,s159,24.0,feminino,right,España,Español y catalán,Upper secondary,no,no,A,1,conjunction_un,L4,unsyncopated,s2,r1,73,Online_conjL4_un//c.bu.da17.none.none.wav,ru,de,re,sil,zi,ci,po,sil1,lo,pe,sil2,['-'],,,none,none,,,,bu,3,testConjL3Syn//dep_viol.r1.s1.0.wav,4.0,conjunction_syn,syncopated,a,s1,no_rule,dep,L3,m,1.1513,6.0,1.0,0.6507,3.0,2.0,Catalán,0.0,Castellano,0.0,Inglés,6.0,3.0,0.0,yes,no,yes,Piano,15,Canto,15,,,nada,82.0,yes
74,2024-04-09_21h40.07.950,Experiment4_uns,s159,24.0,feminino,right,España,Español y catalán,Upper secondary,no,no,A,1,conjunction_un,L4,unsyncopated,s2,r1,74,Online_conjL4_un//c.bu.da19.none.none.wav,ña,ru,pe,sil,zi,re,ñi,sil1,lo,de,sil2,['false alarm'],[0.7953999999762118],[0.7953999999762118],none,none,,,"[""space""]",bu,3,testConjL3Syn//r2.s2.1.wav,4.0,conjunction_syn,syncopated,b,s2,rule,rule,L3,m,0.7711,6.0,0.0,0.8266,3.0,2.0,Catalán,0.0,Castellano,0.0,Inglés,6.0,3.0,0.0,yes,no,yes,Piano,15,Canto,15,,,nada,82.0,yes
75,2024-04-09_21h40.07.950,Experiment4_uns,s159,24.0,feminino,right,España,Español y catalán,Upper secondary,no,no,A,1,conjunction_un,L4,unsyncopated,s1,r2,75,Online_conjL4_un//c.bu.da16.none.none.wav,ja,de,ñi,sil,nu,pe,ru,sil1,re,ci,sil2,['false alarm'],[2.0428999999760435],[2.0428999999760435],none,none,,,"[""space""]",bu,3,testConjL3Syn//cat_viol.r2.s1.0.wav,4.0,conjunction_syn,syncopated,b,s1,no_rule,cat,L3,m,1.0191,7.0,1.0,1.5351,3.0,2.0,Catalán,0.0,Castellano,0.0,Inglés,6.0,3.0,0.0,yes,no,yes,Piano,15,Canto,15,,,nada,82.0,yes
76,2024-04-09_21h40.07.950,Experiment4_uns,s159,24.0,feminino,right,España,Español y catalán,Upper secondary,no,no,A,1,conjunction_un,L4,unsyncopated,s2,r2,76,Online_conjL4_un//a.zi.lo12.none.none.wav,re,bo,pe,sil,ja,bu,ru,sil1,nu,de,sil2,['-'],,,none,none,,,,lo,2,testConjL3Syn//time_viol.r2.s2.0.wav,4.0,conjunction_syn,syncopated,b,s2,no_rule,time,L3,m,0.5716,5.0,1.0,1.1848,3.0,2.0,Catalán,0.0,Castellano,0.0,Inglés,6.0,3.0,0.0,yes,no,yes,Piano,15,Canto,15,,,nada,82.0,yes
77,2024-04-09_21h40.07.950,Experiment4_uns,s159,24.0,feminino,right,España,Español y catalán,Upper secondary,no,no,A,1,conjunction_un,L4,unsyncopated,s2,r2,77,Online_conjL4_un//a.zi.lo13.none.none.wav,re,ña,bo,sil,ja,bu,ñi,sil1,nu,da,sil2,['-'],,,none,none,,,,lo,2,testConjL3Syn//cat_viol.r1.s2.0.wav,4.0,conjunction_syn,syncopated,a,s2,no_rule,cat,L3,z,0.9036,5.0,0.0,0.8542,3.0,2.0,Catalán,0.0,Castellano,0.0,Inglés,6.0,3.0,0.0,yes,no,yes,Piano,15,Canto,15,,,nada,82.0,yes
78,2024-04-09_21h40.07.950,Experiment4_uns,s159,24.0,feminino,right,España,Español y catalán,Upper secondary,no,no,A,1,conjunction_un,L4,unsyncopated,s2,r2,78,Online_conjL4_un//a.zi.lo15.none.none.wav,po,ñi,pe,sil,ja,da,bo,sil1,nu,de,sil2,['-'],,,none,none,,,,lo,2,testConjL3Syn//r2.s2.0.wav,4.0,conjunction_syn,syncopated,b,s2,rule,rule,L3,m,0.7194,5.0,0.0,0.9348,3.0,2.0,Catalán,0.0,Castellano,0.0,Inglés,6.0,3.0,0.0,yes,no,yes,Piano,15,Canto,15,,,nada,82.0,yes
79,2024-04-09_21h40.07.950,Experiment4_uns,s159,24.0,feminino,right,España,Español y catalán,Upper secondary,no,no,A,1,conjunction_un,L4,unsyncopated,s1,r1,79,Online_conjL4_un//a.zi.lo14.0.888.wav,zi,po,ñi,sil,lo,bo,da,sil1,pe,bu,sil2,['catch'],[1.4873000000716274],[1.4873000000716274],0.888,beat,0.5993000000716274,0.5993000000716274,"[""space""]",lo,2,testConjL3Syn//r2.s1.1.wav,4.0,conjunction_syn,syncopated,b,s1,rule,rule,L3,m,0.9183,6.0,0.0,0.8019,3.0,2.0,Catalán,0.0,Castellano,0.0,Inglés,6.0,3.0,0.0,yes,no,yes,Piano,15,Canto,15,,,nada,82.0,yes
80,2024-04-09_21h40.07.950,Experiment4_uns,s159,24.0,feminino,right,España,Español y catalán,Upper secondary,no,no,A,1,conjunction_un,L4,unsyncopated,s2,r2,80,Online_conjL4_un//a.zi.lo5.none.none.wav,ñi,re,pe,sil,ja,da,ña,sil1,nu,bu,sil2,['-'],,,none,none,,,,lo,2,testConjL3Syn//r1.s2.1.wav,4.0,conjunction_syn,syncopated,a,s2,rule,rule,L3,m,0.6835,6.0,0.0,0.5229,3.0,2.0,Catalán,0.0,Castellano,0.0,Inglés,6.0,3.0,0.0,yes,no,yes,Piano,15,Canto,15,,,nada,82.0,yes
81,2024-04-09_21h40.07.950,Experiment4_uns,s159,24.0,feminino,right,España,Español y catalán,Upper secondary,no,no,A,1,conjunction_un,L4,unsyncopated,s1,r2,81,Online_conjL4_un//a.zi.lo4.none.none.wav,ja,da,ñi,sil,nu,pe,re,sil1,bu,bo,sil2,['-'],,,none,none,,,,lo,2,testConjL3Syn//r2.s2.2.wav,4.0,conjunction_syn,syncopated,b,s2,rule,rule,L3,z,0.529,6.0,1.0,0.5646,3.0,2.0,Catalán,0.0,Castellano,0.0,Inglés,6.0,3.0,0.0,yes,no,yes,Piano,15,Canto,15,,,nada,82.0,yes
82,2024-04-09_21h40.07.950,Experiment4_uns,s159,24.0,feminino,right,España,Español y catalán,Upper secondary,no,no,A,1,conjunction_un,L4,unsyncopated,s1,r1,82,Online_conjL4_un//a.zi.lo6.0.888.wav,zi,da,po,sil,lo,de,ci,sil1,re,bo,sil2,['catch'],[1.6539999999999964],[1.6539999999999964],0.888,beat,0.7659999999999964,0.7659999999999964,"[""space""]",lo,2,testConjL3Syn//r1.s1.1.wav,4.0,conjunction_syn,syncopated,a,s1,rule,rule,L3,z,0.4172,7.0,1.0,1.2659,3.0,2.0,Catalán,0.0,Castellano,0.0,Inglés,6.0,3.0,0.0,yes,no,yes,Piano,15,Canto,15,,,nada,82.0,yes
83,2024-04-09_21h40.07.950,Experiment4_uns,s159,24.0,feminino,right,España,Español y catalán,Upper secondary,no,no,A,1,conjunction_un,L4,unsyncopated,s1,r1,83,Online_conjL4_un//a.zi.lo7.0.888.wav,zi,ci,da,sil,lo,ñi,de,sil1,ru,po,sil2,['miss'],,,0.888,beat,,,,lo,2,testConjL3Syn//r2.s1.0.wav,4.0,conjunction_syn,syncopated,b,s1,rule,rule,L3,m,0.4692,5.0,0.0,0.9992,3.0,2.0,Catalán,0.0,Castellano,0.0,Inglés,6.0,3.0,0.0,yes,no,yes,Piano,15,Canto,15,,,nada,82.0,yes
84,2024-04-09_21h40.07.950,Experiment4_uns,s159,24.0,feminino,right,España,Español y catalán,Upper secondary,no,no,A,1,conjunction_un,L4,unsyncopated,s2,r1,84,Online_conjL4_un//a.zi.lo8.888.1776.wav,re,pe,da,sil,zi,de,ña,sil1,lo,ru,sil2,['catch'],[2.3236000000238164],[2.3236000000238164],1.776,beat,0.5476000000238164,0.5476000000238164,"[""space""]",lo,2,testConjL3Syn//r1.s2.2.wav,4.0,conjunction_syn,syncopated,a,s2,rule,rule,L3,z,0.7403,7.0,1.0,0.3606,3.0,2.0,Catalán,0.0,Castellano,0.0,Inglés,6.0,3.0,0.0,yes,no,yes,Piano,15,Canto,15,,,nada,82.0,yes
85,2024-04-09_21h40.07.950,Experiment4_uns,s159,24.0,feminino,right,España,Español y catalán,Upper secondary,no,no,A,1,conjunction_un,L4,unsyncopated,s2,r2,85,Online_conjL4_un//a.zi.lo9.none.none.wav,de,po,ña,sil,ja,bu,da,sil1,nu,ñi,sil2,['-'],,,none,none,,,,lo,2,testConjL3Syn//r2.s1.2.wav,4.0,conjunction_syn,syncopated,b,s1,rule,rule,L3,m,0.9379,2.0,0.0,3.3423,3.0,2.0,Catalán,0.0,Castellano,0.0,Inglés,6.0,3.0,0.0,yes,no,yes,Piano,15,Canto,15,,,nada,82.0,yes
86,2024-04-09_21h40.07.950,Experiment4_uns,s159,24.0,feminino,right,España,Español y catalán,Upper secondary,no,no,A,1,conjunction_un,L4,unsyncopated,s1,r2,86,Online_conjL4_un//a.zi.lo10.none.none.wav,ja,ña,da,sil,nu,re,de,sil1,bu,bo,sil2,['-'],,,none,none,,,,lo,2,testConjL3Syn//cat_viol.r1.s1.0.wav,4.0,conjunction_syn,syncopated,a,s1,no_rule,cat,L3,m,0.8024,3.0,1.0,1.4504,3.0,2.0,Catalán,0.0,Castellano,0.0,Inglés,6.0,3.0,0.0,yes,no,yes,Piano,15,Canto,15,,,nada,82.0,yes
87,2024-04-09_21h40.07.950,Experiment4_uns,s159,24.0,feminino,right,España,Español y catalán,Upper secondary,no,no,A,1,conjunction_un,L4,unsyncopated,s2,r2,87,Online_conjL4_un//a.zi.lo11.none.none.wav,po,re,ña,sil,ja,bo,ru,sil1,nu,pe,sil2,['-'],,,none,none,,,,lo,2,testConjL3Syn//time_viol.r1.s2.0.wav,4.0,conjunction_syn,syncopated,a,s2,no_rule,time,L3,m,1.1372,4.0,1.0,1.2507,3.0,2.0,Catalán,0.0,Castellano,0.0,Inglés,6.0,3.0,0.0,yes,no,yes,Piano,15,Canto,15,,,nada,82.0,yes
88,2024-04-09_21h40.07.950,Experiment4_uns,s159,24.0,feminino,right,España,Español y catalán,Upper secondary,no,no,A,1,conjunction_un,L4,unsyncopated,s2,r2,88,Online_conjL4_un//c.bu.da15.222.1110.wav,ñi,bu,po,sil,ja,da,re,sil1,nu,pe,sil2,['catch'],[0.8540000000000418],[0.8540000000000418],0.222,no_beat,0.6320000000000419,0.6320000000000419,"[""space""]",bu,3,testConjL3Syn//dep_viol.r2.s1.0.wav,4.0,conjunction_syn,syncopated,b,s1,no_rule,dep,L3,m,0.7911,4.0,1.0,1.6562,3.0,2.0,Catalán,0.0,Castellano,0.0,Inglés,6.0,3.0,0.0,yes,no,yes,Piano,15,Canto,15,,,nada,82.0,yes
89,2024-04-09_21h40.07.950,Experiment4_uns,s159,24.0,feminino,right,España,Español y catalán,Upper secondary,no,no,A,1,conjunction_un,L4,unsyncopated,s2,r2,89,Online_conjL4_un//c.bu.da13.none.none.wav,pe,ru,de,sil,ja,re,bo,sil1,nu,ña,sil2,['false alarm'],[1.1551000000238218],[1.1551000000238218],none,none,,,"[""space""]",bu,3,testConjL3Syn//r1.s1.2.wav,4.0,conjunction_syn,syncopated,a,s1,rule,rule,L3,m,0.6173,7.0,0.0,0.7381,3.0,2.0,Catalán,0.0,Castellano,0.0,Inglés,6.0,3.0,0.0,yes,no,yes,Piano,15,Canto,15,,,nada,82.0,yes
90,2024-04-09_21h40.07.950,Experiment4_uns,s159,24.0,feminino,right,España,Español y catalán,Upper secondary,no,no,A,1,conjunction_un,L4,unsyncopated,s1,r2,90,Online_conjL4_un//c.bu.da12.1776.444.wav,ja,po,da,sil,nu,ñi,re,sil1,bu,de,sil2,['catch'],[2.277700000047844],[2.277700000047844],1.776,beat,0.5017000000478438,0.5017000000478438,"[""space""]",bu,3,testConjL3Syn//dep_viol.r2.s2.0.wav,4.0,conjunction_syn,syncopated,b,s2,no_rule,dep,L3,m,1.4254,3.0,1.0,1.0945,3.0,2.0,Catalán,0.0,Castellano,0.0,Inglés,6.0,3.0,0.0,yes,no,yes,Piano,15,Canto,15,,,nada,82.0,yes
91,2024-04-09_21h40.07.950,Experiment4_uns,s159,24.0,feminino,right,España,Español y catalán,Upper secondary,no,no,A,1,conjunction_un,L4,unsyncopated,s2,r1,91,Online_conjL4_un//c.bu.da14.none.none.wav,po,ru,pe,sil,zi,ñi,de,sil1,lo,ña,sil2,['-'],,,none,none,,,,bu,3,testConjL3Syn//r1.s2.0.wav,4.0,conjunction_syn,syncopated,a,s2,rule,rule,L3,z,1.792,5.0,1.0,1.0925,3.0,2.0,Catalán,0.0,Castellano,0.0,Inglés,6.0,3.0,0.0,yes,no,yes,Piano,15,Canto,15,,,nada,82.0,yes
92,2024-04-09_21h40.07.950,Experiment4_uns,s159,24.0,feminino,right,España,Español y catalán,Upper secondary,no,no,A,1,conjunction_un,L4,unsyncopated,s2,r1,92,Online_conjL4_un//b.ja.nu18.none.none.wav,re,ci,bu,sil,zi,ñi,ña,sil1,lo,pe,sil2,['-'],,,none,none,,,,ja,1,testConjL3Syn//time_viol.r2.s1.0.wav,4.0,conjunction_syn,syncopated,b,s1,no_rule,time,L3,z,1.8038,4.0,0.0,0.2522,3.0,2.0,Catalán,0.0,Castellano,0.0,Inglés,6.0,3.0,0.0,yes,no,yes,Piano,15,Canto,15,,,nada,82.0,yes
93,2024-04-09_21h40.07.950,Experiment4_uns,s159,24.0,feminino,right,España,Español y catalán,Upper secondary,no,no,A,1,conjunction_un,L4,unsyncopated,s1,r2,93,Online_conjL4_un//b.ja.nu16.0.888.wav,ja,da,po,sil,nu,ru,bu,sil1,ci,de,sil2,['catch'],[0.3589999999999236],[0.3589999999999236],0.0,beat,0.3589999999999236,0.3589999999999236,"[""space""]",ja,1,testConjL3Syn//r1.s1.0.wav,4.0,conjunction_syn,syncopated,a,s1,rule,rule,L3,z,0.7388,7.0,1.0,0.5369,3.0,2.0,Catalán,0.0,Castellano,0.0,Inglés,6.0,3.0,0.0,yes,no,yes,Piano,15,Canto,15,,,nada,82.0,yes
94,2024-04-09_21h40.07.950,Experiment4_uns,s159,24.0,feminino,right,España,Español y catalán,Upper secondary,no,no,A,1,conjunction_un,L4,unsyncopated,s1,r1,94,Online_conjL4_un//b.ja.nu19.none.none.wav,zi,ña,pe,sil,lo,bu,ñi,sil1,da,ru,sil2,['-'],,,none,none,,,,ja,1,testConjL3Syn//time_viol.r1.s1.0.wav,4.0,conjunction_syn,syncopated,a,s1,no_rule,time,L3,m,0.6521,3.0,1.0,1.2091,3.0,2.0,Catalán,0.0,Castellano,0.0,Inglés,6.0,3.0,0.0,yes,no,yes,Piano,15,Canto,15,,,nada,82.0,yes
95,2024-04-09_21h40.07.950,Experiment4_uns,s159,24.0,feminino,right,España,Español y catalán,Upper secondary,no,no,A,1,conjunction_un,L4,unsyncopated,s1,r2,95,Online_conjL4_un//b.ja.nu17.0.888.wav,ja,da,ru,sil,nu,ña,ci,sil1,po,re,sil2,['catch'],[0.5544999999999618],[0.5544999999999618],0.0,beat,0.5544999999999618,0.5544999999999618,"[""space""]",ja,1,testConjL3Syn//dep_viol.r1.s2.0.wav,4.0,conjunction_syn,syncopated,a,s2,no_rule,dep,L3,m,1.7199,3.0,1.0,1.2843,3.0,2.0,Catalán,0.0,Castellano,0.0,Inglés,6.0,3.0,0.0,yes,no,yes,Piano,15,Canto,15,,,nada,82.0,yes
96,2024-04-09_21h40.07.950,Experiment4_uns,s159,24.0,feminino,right,España,Español y catalán,Upper secondary,no,no,A,1,conjunction_un,L4,unsyncopated,s1,r2,96,Online_conjL4_un//b.ja.nu21.0.888.wav,ja,re,ru,sil,nu,bo,pe,sil1,bu,ña,sil2,['miss'],,,0.0,beat,,,,ja,1,,,,,,,,,,,,,,,3.0,2.0,Catalán,0.0,Castellano,0.0,Inglés,6.0,3.0,0.0,yes,no,yes,Piano,15,Canto,15,,,nada,82.0,yes
97,2024-04-09_21h40.07.950,Experiment4_uns,s159,24.0,feminino,right,España,Español y catalán,Upper secondary,no,no,A,1,conjunction_un,L4,unsyncopated,s1,r1,97,Online_conjL4_un//b.ja.nu22.none.none.wav,zi,ña,ci,sil,lo,bu,da,sil1,de,po,sil2,['-'],,,none,none,,,,ja,1,,,,,,,,,,,,,,,3.0,2.0,Catalán,0.0,Castellano,0.0,Inglés,6.0,3.0,0.0,yes,no,yes,Piano,15,Canto,15,,,nada,82.0,yes
98,2024-04-09_21h40.07.950,Experiment4_uns,s159,24.0,feminino,right,España,Español y catalán,Upper secondary,no,no,A,1,conjunction_un,L4,unsyncopated,s2,r2,98,Online_conjL4_un//b.ja.nu23.888.1776.wav,ci,ña,po,sil,ja,bu,ñi,sil1,nu,pe,sil2,['catch'],[1.7273999999761145],[1.7273999999761145],0.888,beat,0.8393999999761145,0.8393999999761145,"[""space""]",ja,1,,,,,,,,,,,,,,,3.0,2.0,Catalán,0.0,Castellano,0.0,Inglés,6.0,3.0,0.0,yes,no,yes,Piano,15,Canto,15,,,nada,82.0,yes
99,2024-04-09_21h40.07.950,Experiment4_uns,s159,24.0,feminino,right,España,Español y catalán,Upper secondary,no,no,A,1,conjunction_un,L4,unsyncopated,s1,r2,99,Online_conjL4_un//b.ja.nu20.0.888.wav,ja,de,ñi,sil,nu,re,bo,sil1,da,po,sil2,['catch'],[0.7408999999761363],[0.7408999999761363],0.0,beat,0.7408999999761363,0.7408999999761363,"[""space""]",ja,1,,,,,,,,,,,,,,,3.0,2.0,Catalán,0.0,Castellano,0.0,Inglés,6.0,3.0,0.0,yes,no,yes,Piano,15,Canto,15,,,nada,82.0,yes
100,2024-04-09_21h40.07.950,Experiment4_uns,s159,24.0,feminino,right,España,Español y catalán,Upper secondary,no,no,A,1,conjunction_un,L4,unsyncopated,s2,r2,100,Online_conjL4_un//b.ja.nu2.888.1776.wav,po,ci,bu,sil,ja,pe,ru,sil1,nu,de,sil2,['catch'],[1.4403000000713746],[1.4403000000713746],0.888,beat,0.5523000000713746,0.5523000000713746,"[""space""]",ja,1,,,,,,,,,,,,,,,3.0,2.0,Catalán,0.0,Castellano,0.0,Inglés,6.0,3.0,0.0,yes,no,yes,Piano,15,Canto,15,,,nada,82.0,yes
101,2024-04-09_21h40.07.950,Experiment4_uns,s159,24.0,feminino,right,España,Español y catalán,Upper secondary,no,no,A,1,conjunction_un,L4,unsyncopated,s2,r1,101,Online_conjL4_un//b.ja.nu1.none.none.wav,bo,ci,ru,sil,zi,re,da,sil1,lo,de,sil2,['-'],,,none,none,,,,ja,1,,,,,,,,,,,,,,,3.0,2.0,Catalán,0.0,Castellano,0.0,Inglés,6.0,3.0,0.0,yes,no,yes,Piano,15,Canto,15,,,nada,82.0,yes
102,2024-04-09_21h40.07.950,Experiment4_uns,s159,24.0,feminino,right,España,Español y catalán,Upper secondary,no,no,A,1,conjunction_un,L4,unsyncopated,s2,r1,102,Online_conjL4_un//b.ja.nu0.none.none.wav,de,ru,da,sil,zi,re,pe,sil1,lo,bu,sil2,['-'],,,none,none,,,,ja,1,,,,,,,,,,,,,,,3.0,2.0,Catalán,0.0,Castellano,0.0,Inglés,6.0,3.0,0.0,yes,no,yes,Piano,15,Canto,15,,,nada,82.0,yes
103,2024-04-09_21h40.07.950,Experiment4_uns,s159,24.0,feminino,right,España,Español y catalán,Upper secondary,no,no,A,1,conjunction_un,L4,unsyncopated,s1,r2,103,Online_conjL4_un//b.ja.nu3.0.888.wav,ja,ña,re,sil,nu,bo,po,sil1,ci,ñi,sil2,['catch'],[0.6706000000237964],[0.6706000000237964],0.0,beat,0.6706000000237964,0.6706000000237964,"[""space""]",ja,1,,,,,,,,,,,,,,,3.0,2.0,Catalán,0.0,Castellano,0.0,Inglés,6.0,3.0,0.0,yes,no,yes,Piano,15,Canto,15,,,nada,82.0,yes
104,2024-04-09_21h40.07.950,Experiment4_uns,s159,24.0,feminino,right,España,Español y catalán,Upper secondary,no,no,A,1,conjunction_un,L4,unsyncopated,s2,r2,104,Online_conjL4_un//b.ja.nu14.888.1776.wav,ru,ñi,re,sil,ja,pe,po,sil1,nu,da,sil2,['catch'],[1.5366999999284872],[1.5366999999284872],0.888,beat,0.6486999999284871,0.6486999999284871,"[""space""]",ja,1,,,,,,,,,,,,,,,3.0,2.0,Catalán,0.0,Castellano,0.0,Inglés,6.0,3.0,0.0,yes,no,yes,Piano,15,Canto,15,,,nada,82.0,yes
105,2024-04-09_21h40.07.950,Experiment4_uns,s159,24.0,feminino,right,España,Español y catalán,Upper secondary,no,no,A,1,conjunction_un,L4,unsyncopated,s1,r2,105,Online_conjL4_un//b.ja.nu15.0.888.wav,ja,bu,re,sil,nu,pe,bo,sil1,ñi,ci,sil2,['catch'],[0.5906000000238691],[0.5906000000238691],0.0,beat,0.5906000000238691,0.5906000000238691,"[""space""]",ja,1,,,,,,,,,,,,,,,3.0,2.0,Catalán,0.0,Castellano,0.0,Inglés,6.0,3.0,0.0,yes,no,yes,Piano,15,Canto,15,,,nada,82.0,yes
106,2024-04-09_21h40.07.950,Experiment4_uns,s159,24.0,feminino,right,España,Español y catalán,Upper secondary,no,no,A,1,conjunction_un,L4,unsyncopated,s1,r2,106,Online_conjL4_un//b.ja.nu12.0.888.wav,ja,ñi,ci,sil,nu,ña,pe,sil1,da,bu,sil2,['catch'],[0.5039000000952001],[0.5039000000952001],0.0,beat,0.5039000000952001,0.5039000000952001,"[""space""]",ja,1,,,,,,,,,,,,,,,3.0,2.0,Catalán,0.0,Castellano,0.0,Inglés,6.0,3.0,0.0,yes,no,yes,Piano,15,Canto,15,,,nada,82.0,yes
107,2024-04-09_21h40.07.950,Experiment4_uns,s159,24.0,feminino,right,España,Español y catalán,Upper secondary,no,no,A,1,conjunction_un,L4,unsyncopated,s1,r1,107,Online_conjL4_un//b.ja.nu13.none.none.wav,zi,pe,de,sil,lo,bu,ru,sil1,ñi,ña,sil2,['-'],,,none,none,,,,ja,1,,,,,,,,,,,,,,,3.0,2.0,Catalán,0.0,Castellano,0.0,Inglés,6.0,3.0,0.0,yes,no,yes,Piano,15,Canto,15,,,nada,82.0,yes
108,2024-04-09_21h40.07.950,Experiment4_uns,s159,24.0,feminino,right,España,Español y catalán,Upper secondary,no,no,A,1,conjunction_un,L4,unsyncopated,s2,r1,108,Online_conjL4_un//c.bu.da25.444.1110.wav,ru,de,bu,sil,zi,da,ñi,sil1,lo,ña,sil2,['catch'],[1.10420000004774],[1.10420000004774],0.444,no_beat,0.6602000000477402,0.6602000000477402,"[""space""]",bu,3,,,,,,,,,,,,,,,3.0,2.0,Catalán,0.0,Castellano,0.0,Inglés,6.0,3.0,0.0,yes,no,yes,Piano,15,Canto,15,,,nada,82.0,yes
109,2024-04-09_21h40.07.950,Experiment4_uns,s159,24.0,feminino,right,España,Español y catalán,Upper secondary,no,no,A,1,conjunction_un,L4,unsyncopated,s2,r1,109,Online_conjL4_un//c.bu.da27.0.444.wav,bu,po,da,sil,zi,re,pe,sil1,lo,bo,sil2,['catch'],[0.9529999999999745],[0.9529999999999745],0.0,beat,0.9529999999999744,0.9529999999999744,"[""space""]",bu,3,,,,,,,,,,,,,,,3.0,2.0,Catalán,0.0,Castellano,0.0,Inglés,6.0,3.0,0.0,yes,no,yes,Piano,15,Canto,15,,,nada,82.0,yes
110,2024-04-09_21h40.07.950,Experiment4_uns,s159,24.0,feminino,right,España,Español y catalán,Upper secondary,no,no,A,1,conjunction_un,L4,unsyncopated,s1,r1,110,Online_conjL4_un//c.bu.da26.444.1110.wav,zi,po,bu,sil,lo,da,ci,sil1,de,ñi,sil2,['catch'],[1.173199999928329],[1.173199999928329],0.444,no_beat,0.729199999928329,0.729199999928329,"[""space""]",bu,3,,,,,,,,,,,,,,,3.0,2.0,Catalán,0.0,Castellano,0.0,Inglés,6.0,3.0,0.0,yes,no,yes,Piano,15,Canto,15,,,nada,82.0,yes
111,2024-04-09_21h40.07.950,Experiment4_uns,s159,24.0,feminino,right,España,Español y catalán,Upper secondary,no,no,A,1,conjunction_un,L4,unsyncopated,s1,r2,111,Online_conjL4_un//c.bu.da24.none.none.wav,ja,po,ci,sil,nu,ña,ru,sil1,re,bo,sil2,['-'],,,none,none,,,,bu,3,,,,,,,,,,,,,,,3.0,2.0,Catalán,0.0,Castellano,0.0,Inglés,6.0,3.0,0.0,yes,no,yes,Piano,15,Canto,15,,,nada,82.0,yes
112,2024-04-09_21h40.07.950,Experiment4_uns,s159,24.0,feminino,right,España,Español y catalán,Upper secondary,no,no,A,1,conjunction_un,L4,unsyncopated,s1,r1,112,Online_conjL4_un//a.zi.lo1.0.888.wav,zi,ña,ci,sil,lo,po,pe,sil1,bo,da,sil2,['catch'],[1.298100000023851],[1.298100000023851],0.888,beat,0.4101000000238509,0.4101000000238509,"[""space""]",lo,2,,,,,,,,,,,,,,,3.0,2.0,Catalán,0.0,Castellano,0.0,Inglés,6.0,3.0,0.0,yes,no,yes,Piano,15,Canto,15,,,nada,82.0,yes
113,2024-04-09_21h40.07.950,Experiment4_uns,s159,24.0,feminino,right,España,Español y catalán,Upper secondary,no,no,A,1,conjunction_un,L4,unsyncopated,s1,r1,113,Online_conjL4_un//a.zi.lo2.0.888.wav,zi,ña,re,sil,lo,de,pe,sil1,bu,po,sil2,['false alarm'],[0.13129999995226171],[0.13129999995226171],0.888,beat,,,"[""space""]",lo,2,,,,,,,,,,,,,,,3.0,2.0,Catalán,0.0,Castellano,0.0,Inglés,6.0,3.0,0.0,yes,no,yes,Piano,15,Canto,15,,,nada,82.0,yes
114,2024-04-09_21h40.07.950,Experiment4_uns,s159,24.0,feminino,right,España,Español y catalán,Upper secondary,no,no,A,1,conjunction_un,L4,unsyncopated,s2,r1,114,Online_conjL4_un//a.zi.lo0.888.1776.wav,ñi,bu,ci,sil,zi,da,pe,sil1,lo,re,sil2,['catch'],[2.4512999999524254],[2.4512999999524254],1.776,beat,0.6752999999524254,0.6752999999524254,"[""space""]",lo,2,,,,,,,,,,,,,,,3.0,2.0,Catalán,0.0,Castellano,0.0,Inglés,6.0,3.0,0.0,yes,no,yes,Piano,15,Canto,15,,,nada,82.0,yes
115,2024-04-09_21h40.07.950,Experiment4_uns,s159,24.0,feminino,right,España,Español y catalán,Upper secondary,no,no,A,1,conjunction_un,L4,unsyncopated,s1,r2,115,Online_conjL4_un//a.zi.lo3.none.none.wav,ja,bu,re,sil,nu,pe,ñi,sil1,ru,ci,sil2,['-'],,,none,none,,,,lo,2,,,,,,,,,,,,,,,3.0,2.0,Catalán,0.0,Castellano,0.0,Inglés,6.0,3.0,0.0,yes,no,yes,Piano,15,Canto,15,,,nada,82.0,yes
116,2024-04-09_21h40.07.950,Experiment4_uns,s159,24.0,feminino,right,España,Español y catalán,Upper secondary,no,no,A,1,conjunction_un,L4,unsyncopated,s1,r1,116,Online_conjL4_un//d.pe.po9.222.1110.wav,zi,pe,bo,sil,lo,po,de,sil1,ru,re,sil2,['miss'],,,0.222,no_beat,,,,pe,4,,,,,,,,,,,,,,,3.0,2.0,Catalán,0.0,Castellano,0.0,Inglés,6.0,3.0,0.0,yes,no,yes,Piano,15,Canto,15,,,nada,82.0,yes
117,2024-04-09_21h40.07.950,Experiment4_uns,s159,24.0,feminino,right,España,Español y catalán,Upper secondary,no,no,A,1,conjunction_un,L4,unsyncopated,s2,r1,117,Online_conjL4_un//d.pe.po11.1110.222.wav,bo,po,da,sil,zi,pe,de,sil1,lo,ñi,sil2,['miss'],,,1.11,no_beat,,,,pe,4,,,,,,,,,,,,,,,3.0,2.0,Catalán,0.0,Castellano,0.0,Inglés,6.0,3.0,0.0,yes,no,yes,Piano,15,Canto,15,,,nada,82.0,yes
118,2024-04-09_21h40.07.950,Experiment4_uns,s159,24.0,feminino,right,España,Español y catalán,Upper secondary,no,no,A,1,conjunction_un,L4,unsyncopated,s2,r2,118,Online_conjL4_un//d.pe.po10.1332.444.wav,re,ñi,po,sil,ja,bu,pe,sil1,nu,ru,sil2,['miss'],,,1.332,no_beat,,,,pe,4,,,,,,,,,,,,,,,3.0,2.0,Catalán,0.0,Castellano,0.0,Inglés,6.0,3.0,0.0,yes,no,yes,Piano,15,Canto,15,,,nada,82.0,yes
119,2024-04-09_21h40.07.950,Experiment4_uns,s159,24.0,feminino,right,España,Español y catalán,Upper secondary,no,no,A,1,conjunction_un,L4,unsyncopated,s2,r1,119,Online_conjL4_un//d.pe.po8.none.none.wav,ña,re,ci,sil,zi,ru,ñi,sil1,lo,de,sil2,['-'],,,none,none,,,,pe,4,,,,,,,,,,,,,,,3.0,2.0,Catalán,0.0,Castellano,0.0,Inglés,6.0,3.0,0.0,yes,no,yes,Piano,15,Canto,15,,,nada,82.0,yes
120,2024-04-09_21h40.07.950,Experiment4_uns,s159,24.0,feminino,right,España,Español y catalán,Upper secondary,no,no,A,1,conjunction_un,L4,unsyncopated,s1,r1,120,Online_conjL4_un//d.pe.po3.none.none.wav,zi,ci,ñi,sil,lo,re,ru,sil1,bu,da,sil2,['-'],,,none,none,,,,pe,4,,,,,,,,,,,,,,,3.0,2.0,Catalán,0.0,Castellano,0.0,Inglés,6.0,3.0,0.0,yes,no,yes,Piano,15,Canto,15,,,nada,82.0,yes
121,2024-04-09_21h40.07.950,Experiment4_uns,s159,24.0,feminino,right,España,Español y catalán,Upper secondary,no,no,A,1,conjunction_un,L4,unsyncopated,s2,r2,121,Online_conjL4_un//d.pe.po1.444.0.wav,po,bu,pe,sil,ja,ñi,ña,sil1,nu,ru,sil2,['miss'],,,0.444,no_beat,,,,pe,4,,,,,,,,,,,,,,,3.0,2.0,Catalán,0.0,Castellano,0.0,Inglés,6.0,3.0,0.0,yes,no,yes,Piano,15,Canto,15,,,nada,82.0,yes
122,2024-04-09_21h40.07.950,Experiment4_uns,s159,24.0,feminino,right,España,Español y catalán,Upper secondary,no,no,A,1,conjunction_un,L4,unsyncopated,s1,r2,122,Online_conjL4_un//d.pe.po0.none.none.wav,ja,ci,ñi,sil,nu,ru,da,sil1,de,ña,sil2,['-'],,,none,none,,,,pe,4,,,,,,,,,,,,,,,3.0,2.0,Catalán,0.0,Castellano,0.0,Inglés,6.0,3.0,0.0,yes,no,yes,Piano,15,Canto,15,,,nada,82.0,yes
123,2024-04-09_21h40.07.950,Experiment4_uns,s159,24.0,feminino,right,España,Español y catalán,Upper secondary,no,no,A,1,conjunction_un,L4,unsyncopated,s1,r2,123,Online_conjL4_un//d.pe.po2.none.none.wav,ja,ña,ru,sil,nu,bu,de,sil1,ci,re,sil2,['-'],,,none,none,,,,pe,4,,,,,,,,,,,,,,,3.0,2.0,Catalán,0.0,Castellano,0.0,Inglés,6.0,3.0,0.0,yes,no,yes,Piano,15,Canto,15,,,nada,82.0,yes
124,2024-04-09_21h40.07.950,Experiment4_uns,s159,24.0,feminino,right,España,Español y catalán,Upper secondary,no,no,A,1,conjunction_un,L4,unsyncopated,s2,r1,124,Online_conjL4_un//a.zi.lo24.888.1776.wav,re,bo,po,sil,zi,da,ñi,sil1,lo,pe,sil2,['catch'],[2.471499999999878],[2.471499999999878],1.776,beat,0.6954999999998781,0.6954999999998781,"[""space""]",lo,2,,,,,,,,,,,,,,,3.0,2.0,Catalán,0.0,Castellano,0.0,Inglés,6.0,3.0,0.0,yes,no,yes,Piano,15,Canto,15,,,nada,82.0,yes
125,2024-04-09_21h40.07.950,Experiment4_uns,s159,24.0,feminino,right,España,Español y catalán,Upper secondary,no,no,A,1,conjunction_un,L4,unsyncopated,s2,r1,125,Online_conjL4_un//a.zi.lo26.888.1776.wav,pe,bu,de,sil,zi,da,ñi,sil1,lo,bo,sil2,['catch'],[2.2634000000953165],[2.2634000000953165],1.776,beat,0.4874000000953165,0.4874000000953165,"[""space""]",lo,2,,,,,,,,,,,,,,,3.0,2.0,Catalán,0.0,Castellano,0.0,Inglés,6.0,3.0,0.0,yes,no,yes,Piano,15,Canto,15,,,nada,82.0,yes
126,2024-04-09_21h40.07.950,Experiment4_uns,s159,24.0,feminino,right,España,Español y catalán,Upper secondary,no,no,A,1,conjunction_un,L4,unsyncopated,s2,r1,126,Online_conjL4_un//a.zi.lo25.888.1776.wav,bu,ña,de,sil,zi,ci,pe,sil1,lo,po,sil2,['catch'],[2.3780000000001564],[2.3780000000001564],1.776,beat,0.6020000000001564,0.6020000000001564,"[""space""]",lo,2,,,,,,,,,,,,,,,3.0,2.0,Catalán,0.0,Castellano,0.0,Inglés,6.0,3.0,0.0,yes,no,yes,Piano,15,Canto,15,,,nada,82.0,yes
127,2024-04-09_21h40.07.950,Experiment4_uns,s159,24.0,feminino,right,España,Español y catalán,Upper secondary,no,no,A,1,conjunction_un,L4,unsyncopated,s1,r2,127,Online_conjL4_un//a.zi.lo27.none.none.wav,ja,ña,bu,sil,nu,ñi,re,sil1,pe,po,sil2,['-'],,,none,none,,,,lo,2,,,,,,,,,,,,,,,3.0,2.0,Catalán,0.0,Castellano,0.0,Inglés,6.0,3.0,0.0,yes,no,yes,Piano,15,Canto,15,,,nada,82.0,yes
128,2024-04-09_21h40.07.950,Experiment4_uns,s159,24.0,feminino,right,España,Español y catalán,Upper secondary,no,no,A,2,when,L2,unsyncopated,when,when,0,Online_whenL2//a.du1.none.wav,bi,si,fe,sil,mi,ra,ba,sil1,su,me,sil2,['-'],,,none,none,,,,du,2,,,,,,,,,,,,,,,3.0,2.0,Catalán,0.0,Castellano,0.0,Inglés,6.0,3.0,0.0,yes,no,yes,Piano,15,Canto,15,,,nada,82.0,yes
129,2024-04-09_21h40.07.950,Experiment4_uns,s159,24.0,feminino,right,España,Español y catalán,Upper secondary,no,no,A,2,when,L2,unsyncopated,when,when,1,Online_whenL2//a.du3.none.wav,me,mi,te,sil,cha,go,ñu,sil1,fe,si,sil2,['-'],,,none,none,,,,du,2,,,,,,,,,,,,,,,3.0,2.0,Catalán,0.0,Castellano,0.0,Inglés,6.0,3.0,0.0,yes,no,yes,Piano,15,Canto,15,,,nada,82.0,yes
130,2024-04-09_21h40.07.950,Experiment4_uns,s159,24.0,feminino,right,España,Español y catalán,Upper secondary,no,no,A,2,when,L2,unsyncopated,when,when,2,Online_whenL2//a.du2.0.wav,du,me,si,sil,mi,to,go,sil1,cha,bi,sil2,['catch'],[0.6672000000476146],[0.6672000000476146],0.0,beat,0.6672000000476146,0.6672000000476146,"[""space""]",du,2,,,,,,,,,,,,,,,3.0,2.0,Catalán,0.0,Castellano,0.0,Inglés,6.0,3.0,0.0,yes,no,yes,Piano,15,Canto,15,,,nada,82.0,yes
131,2024-04-09_21h40.07.950,Experiment4_uns,s159,24.0,feminino,right,España,Español y catalán,Upper secondary,no,no,A,2,when,L2,unsyncopated,when,when,3,Online_whenL2//a.du0.888.wav,ñu,ba,ra,sil,du,su,ño,sil1,cha,te,sil2,['catch'],[1.5066999999285144],[1.5066999999285144],0.888,beat,0.6186999999285144,0.6186999999285144,"[""space""]",du,2,,,,,,,,,,,,,,,3.0,2.0,Catalán,0.0,Castellano,0.0,Inglés,6.0,3.0,0.0,yes,no,yes,Piano,15,Canto,15,,,nada,82.0,yes
132,2024-04-09_21h40.07.950,Experiment4_uns,s159,24.0,feminino,right,España,Español y catalán,Upper secondary,no,no,A,2,when,L2,unsyncopated,when,when,4,Online_whenL2//d.si21.none.wav,te,me,bi,sil,go,ñu,to,sil1,ra,ño,sil2,['-'],,,none,none,,,,si,4,,,,,,,,,,,,,,,3.0,2.0,Catalán,0.0,Castellano,0.0,Inglés,6.0,3.0,0.0,yes,no,yes,Piano,15,Canto,15,,,nada,82.0,yes
133,2024-04-09_21h40.07.950,Experiment4_uns,s159,24.0,feminino,right,España,Español y catalán,Upper secondary,no,no,A,2,when,L2,unsyncopated,when,when,5,Online_whenL2//d.si22.none.wav,te,du,fe,sil,cha,su,ñu,sil1,me,ba,sil2,['false alarm'],[0.8192000000476582],[0.8192000000476582],none,none,,,"[""space""]",si,4,,,,,,,,,,,,,,,3.0,2.0,Catalán,0.0,Castellano,0.0,Inglés,6.0,3.0,0.0,yes,no,yes,Piano,15,Canto,15,,,nada,82.0,yes
134,2024-04-09_21h40.07.950,Experiment4_uns,s159,24.0,feminino,right,España,Español y catalán,Upper secondary,no,no,A,2,when,L2,unsyncopated,when,when,6,Online_whenL2//d.si20.1998.wav,ba,mi,ñu,sil,cha,to,go,sil1,ra,si,sil2,['miss'],,,1.998,no_beat,,,,si,4,,,,,,,,,,,,,,,3.0,2.0,Catalán,0.0,Castellano,0.0,Inglés,6.0,3.0,0.0,yes,no,yes,Piano,15,Canto,15,,,nada,82.0,yes
135,2024-04-09_21h40.07.950,Experiment4_uns,s159,24.0,feminino,right,España,Español y catalán,Upper secondary,no,no,A,2,when,L2,unsyncopated,when,when,7,Online_whenL2//d.si23.none.wav,to,mi,ba,sil,go,du,ñu,sil1,te,ño,sil2,['false alarm'],[1.3358000000714583],[1.3358000000714583],none,none,,,"[""space""]",si,4,,,,,,,,,,,,,,,3.0,2.0,Catalán,0.0,Castellano,0.0,Inglés,6.0,3.0,0.0,yes,no,yes,Piano,15,Canto,15,,,nada,82.0,yes
136,2024-04-09_21h40.07.950,Experiment4_uns,s159,24.0,feminino,right,España,Español y catalán,Upper secondary,no,no,A,2,when,L2,unsyncopated,when,when,8,Online_whenL2//d.si30.none.wav,me,ba,cha,sil,ño,te,bi,sil1,du,go,sil2,['-'],,,none,none,,,,si,4,,,,,,,,,,,,,,,3.0,2.0,Catalán,0.0,Castellano,0.0,Inglés,6.0,3.0,0.0,yes,no,yes,Piano,15,Canto,15,,,nada,82.0,yes
137,2024-04-09_21h40.07.950,Experiment4_uns,s159,24.0,feminino,right,España,Español y catalán,Upper secondary,no,no,A,2,when,L2,unsyncopated,when,when,9,Online_whenL2//d.si31.none.wav,su,ba,te,sil,ra,ño,to,sil1,mi,go,sil2,['-'],,,none,none,,,,si,4,,,,,,,,,,,,,,,3.0,2.0,Catalán,0.0,Castellano,0.0,Inglés,6.0,3.0,0.0,yes,no,yes,Piano,15,Canto,15,,,nada,82.0,yes
138,2024-04-09_21h40.07.950,Experiment4_uns,s159,24.0,feminino,right,España,Español y catalán,Upper secondary,no,no,A,2,when,L2,unsyncopated,when,when,10,Online_whenL2//d.si29.888.wav,cha,me,su,sil,si,mi,te,sil1,ra,go,sil2,['catch'],[1.4620999999046944],[1.4620999999046944],0.888,beat,0.5740999999046944,0.5740999999046944,"[""space""]",si,4,,,,,,,,,,,,,,,3.0,2.0,Catalán,0.0,Castellano,0.0,Inglés,6.0,3.0,0.0,yes,no,yes,Piano,15,Canto,15,,,nada,82.0,yes
139,2024-04-09_21h40.07.950,Experiment4_uns,s159,24.0,feminino,right,España,Español y catalán,Upper secondary,no,no,A,2,when,L2,unsyncopated,when,when,11,Online_whenL2//d.si28.888.wav,ñu,fe,bi,sil,si,cha,to,sil1,du,ba,sil2,['catch'],[1.4344999999998436],[1.4344999999998436],0.888,beat,0.5464999999998436,0.5464999999998436,"[""space""]",si,4,,,,,,,,,,,,,,,3.0,2.0,Catalán,0.0,Castellano,0.0,Inglés,6.0,3.0,0.0,yes,no,yes,Piano,15,Canto,15,,,nada,82.0,yes
140,2024-04-09_21h40.07.950,Experiment4_uns,s159,24.0,feminino,right,España,Español y catalán,Upper secondary,no,no,A,2,when,L2,unsyncopated,when,when,12,Online_whenL2//d.si5.1332.wav,to,fe,ra,sil,me,cha,si,sil1,su,te,sil2,['catch'],[1.7616999999286236],[1.7616999999286236],1.332,no_beat,0.4296999999286235,0.4296999999286235,"[""space""]",si,4,,,,,,,,,,,,,,,3.0,2.0,Catalán,0.0,Castellano,0.0,Inglés,6.0,3.0,0.0,yes,no,yes,Piano,15,Canto,15,,,nada,82.0,yes
141,2024-04-09_21h40.07.950,Experiment4_uns,s159,24.0,feminino,right,España,Español y catalán,Upper secondary,no,no,A,2,when,L2,unsyncopated,when,when,13,Online_whenL2//d.si6.1776.wav,te,cha,du,sil,fe,ño,me,sil1,si,bi,sil2,['catch'],[2.1936000000237073],[2.1936000000237073],1.776,beat,0.4176000000237072,0.4176000000237072,"[""space""]",si,4,,,,,,,,,,,,,,,3.0,2.0,Catalán,0.0,Castellano,0.0,Inglés,6.0,3.0,0.0,yes,no,yes,Piano,15,Canto,15,,,nada,82.0,yes
142,2024-04-09_21h40.07.950,Experiment4_uns,s159,24.0,feminino,right,España,Español y catalán,Upper secondary,no,no,A,2,when,L2,unsyncopated,when,when,14,Online_whenL2//d.si7.none.wav,go,cha,te,sil,fe,ñu,ba,sil1,mi,to,sil2,['-'],,,none,none,,,,si,4,,,,,,,,,,,,,,,3.0,2.0,Catalán,0.0,Castellano,0.0,Inglés,6.0,3.0,0.0,yes,no,yes,Piano,15,Canto,15,,,nada,82.0,yes
143,2024-04-09_21h40.07.950,Experiment4_uns,s159,24.0,feminino,right,España,Español y catalán,Upper secondary,no,no,A,2,when,L2,unsyncopated,when,when,15,Online_whenL2//d.si4.444.wav,to,ra,si,sil,me,ñu,go,sil1,ño,mi,sil2,['catch'],[1.0733999999763455],[1.0733999999763455],0.444,no_beat,0.6293999999763455,0.6293999999763455,"[""space""]",si,4,,,,,,,,,,,,,,,3.0,2.0,Catalán,0.0,Castellano,0.0,Inglés,6.0,3.0,0.0,yes,no,yes,Piano,15,Canto,15,,,nada,82.0,yes
144,2024-04-09_21h40.07.950,Experiment4_uns,s159,24.0,feminino,right,España,Español y catalán,Upper secondary,no,no,A,2,when,L2,unsyncopated,when,when,16,Online_whenL2//d.si14.1332.wav,ba,te,bi,sil,go,su,si,sil1,du,ñu,sil2,['catch'],[2.176600000023882],[2.176600000023882],1.332,no_beat,0.8446000000238818,0.8446000000238818,"[""space""]",si,4,,,,,,,,,,,,,,,3.0,2.0,Catalán,0.0,Castellano,0.0,Inglés,6.0,3.0,0.0,yes,no,yes,Piano,15,Canto,15,,,nada,82.0,yes
145,2024-04-09_21h40.07.950,Experiment4_uns,s159,24.0,feminino,right,España,Español y catalán,Upper secondary,no,no,A,2,when,L2,unsyncopated,when,when,17,Online_whenL2//d.si12.1776.wav,mi,du,to,sil,go,ño,bi,sil1,si,cha,sil2,['catch'],[2.035000000000082],[2.035000000000082],1.776,beat,0.2590000000000818,0.2590000000000818,"[""space""]",si,4,,,,,,,,,,,,,,,3.0,2.0,Catalán,0.0,Castellano,0.0,Inglés,6.0,3.0,0.0,yes,no,yes,Piano,15,Canto,15,,,nada,82.0,yes
146,2024-04-09_21h40.07.950,Experiment4_uns,s159,24.0,feminino,right,España,Español y catalán,Upper secondary,no,no,A,2,when,L2,unsyncopated,when,when,18,Online_whenL2//d.si15.1332.wav,mi,ño,ba,sil,ra,fe,si,sil1,ñu,me,sil2,['catch'],[1.938199999928429],[1.938199999928429],1.332,no_beat,0.6061999999284289,0.6061999999284289,"[""space""]",si,4,,,,,,,,,,,,,,,3.0,2.0,Catalán,0.0,Castellano,0.0,Inglés,6.0,3.0,0.0,yes,no,yes,Piano,15,Canto,15,,,nada,82.0,yes
147,2024-04-09_21h40.07.950,Experiment4_uns,s159,24.0,feminino,right,España,Español y catalán,Upper secondary,no,no,A,2,when,L2,unsyncopated,when,when,19,Online_whenL2//d.si13.444.wav,go,ñu,si,sil,bi,to,ño,sil1,fe,mi,sil2,['catch'],[1.2245000000000346],[1.2245000000000346],0.444,no_beat,0.7805000000000346,0.7805000000000346,"[""space""]",si,4,,,,,,,,,,,,,,,3.0,2.0,Catalán,0.0,Castellano,0.0,Inglés,6.0,3.0,0.0,yes,no,yes,Piano,15,Canto,15,,,nada,82.0,yes
148,2024-04-09_21h40.07.950,Experiment4_uns,s159,24.0,feminino,right,España,Español y catalán,Upper secondary,no,no,A,2,when,L2,unsyncopated,when,when,20,Online_whenL2//c.cha7.none.wav,ba,to,bi,sil,ño,du,si,sil1,mi,fe,sil2,['-'],,,none,none,,,,cha,3,,,,,,,,,,,,,,,3.0,2.0,Catalán,0.0,Castellano,0.0,Inglés,6.0,3.0,0.0,yes,no,yes,Piano,15,Canto,15,,,nada,82.0,yes
149,2024-04-09_21h40.07.950,Experiment4_uns,s159,24.0,feminino,right,España,Español y catalán,Upper secondary,no,no,A,2,when,L2,unsyncopated,when,when,21,Online_whenL2//c.cha5.none.wav,bi,mi,to,sil,su,fe,te,sil1,du,si,sil2,['-'],,,none,none,,,,cha,3,,,,,,,,,,,,,,,3.0,2.0,Catalán,0.0,Castellano,0.0,Inglés,6.0,3.0,0.0,yes,no,yes,Piano,15,Canto,15,,,nada,82.0,yes
150,2024-04-09_21h40.07.950,Experiment4_uns,s159,24.0,feminino,right,España,Español y catalán,Upper secondary,no,no,A,2,when,L2,unsyncopated,when,when,22,Online_whenL2//c.cha4.222.wav,bi,cha,ñu,sil,su,mi,du,sil1,si,fe,sil2,['catch'],[0.7014999999998963],[0.7014999999998963],0.222,no_beat,0.4794999999998963,0.4794999999998963,"[""space""]",cha,3,,,,,,,,,,,,,,,3.0,2.0,Catalán,0.0,Castellano,0.0,Inglés,6.0,3.0,0.0,yes,no,yes,Piano,15,Canto,15,,,nada,82.0,yes
151,2024-04-09_21h40.07.950,Experiment4_uns,s159,24.0,feminino,right,España,Español y catalán,Upper secondary,no,no,A,2,when,L2,unsyncopated,when,when,23,Online_whenL2//c.cha6.none.wav,ño,bi,su,sil,ñu,to,si,sil1,du,go,sil2,['-'],,,none,none,,,,cha,3,,,,,,,,,,,,,,,3.0,2.0,Catalán,0.0,Castellano,0.0,Inglés,6.0,3.0,0.0,yes,no,yes,Piano,15,Canto,15,,,nada,82.0,yes
152,2024-04-09_21h40.07.950,Experiment4_uns,s159,24.0,feminino,right,España,Español y catalán,Upper secondary,no,no,A,2,when,L2,unsyncopated,when,when,24,Online_whenL2//c.cha16.none.wav,te,su,to,sil,du,ra,me,sil1,si,mi,sil2,['-'],,,none,none,,,,cha,3,,,,,,,,,,,,,,,3.0,2.0,Catalán,0.0,Castellano,0.0,Inglés,6.0,3.0,0.0,yes,no,yes,Piano,15,Canto,15,,,nada,82.0,yes
153,2024-04-09_21h40.07.950,Experiment4_uns,s159,24.0,feminino,right,España,Español y catalán,Upper secondary,no,no,A,2,when,L2,unsyncopated,when,when,25,Online_whenL2//c.cha17.none.wav,te,ñu,su,sil,mi,go,me,sil1,ra,si,sil2,['-'],,,none,none,,,,cha,3,,,,,,,,,,,,,,,3.0,2.0,Catalán,0.0,Castellano,0.0,Inglés,6.0,3.0,0.0,yes,no,yes,Piano,15,Canto,15,,,nada,82.0,yes
154,2024-04-09_21h40.07.950,Experiment4_uns,s159,24.0,feminino,right,España,Español y catalán,Upper secondary,no,no,A,2,when,L2,unsyncopated,when,when,26,Online_whenL2//c.cha18.1776.wav,ra,ñu,ño,sil,si,to,te,sil1,cha,du,sil2,['catch'],[2.230599999904598],[2.230599999904598],1.776,beat,0.454599999904598,0.454599999904598,"[""space""]",cha,3,,,,,,,,,,,,,,,3.0,2.0,Catalán,0.0,Castellano,0.0,Inglés,6.0,3.0,0.0,yes,no,yes,Piano,15,Canto,15,,,nada,82.0,yes
155,2024-04-09_21h40.07.950,Experiment4_uns,s159,24.0,feminino,right,España,Español y catalán,Upper secondary,no,no,A,2,when,L2,unsyncopated,when,when,27,Online_whenL2//c.cha19.1998.wav,go,si,du,sil,ñu,to,ba,sil1,te,cha,sil2,['catch'],[2.582600000023831],[2.582600000023831],1.998,no_beat,0.584600000023831,0.584600000023831,"[""space""]",cha,3,,,,,,,,,,,,,,,3.0,2.0,Catalán,0.0,Castellano,0.0,Inglés,6.0,3.0,0.0,yes,no,yes,Piano,15,Canto,15,,,nada,82.0,yes
156,2024-04-09_21h40.07.950,Experiment4_uns,s159,24.0,feminino,right,España,Español y catalán,Upper secondary,no,no,A,2,when,L2,unsyncopated,when,when,28,Online_whenL2//d.si27.1110.wav,fe,te,ñu,sil,ño,si,mi,sil1,me,go,sil2,['catch'],[1.6921000000238564],[1.6921000000238564],1.11,no_beat,0.5821000000238563,0.5821000000238563,"[""space""]",si,4,,,,,,,,,,,,,,,3.0,2.0,Catalán,0.0,Castellano,0.0,Inglés,6.0,3.0,0.0,yes,no,yes,Piano,15,Canto,15,,,nada,82.0,yes
157,2024-04-09_21h40.07.950,Experiment4_uns,s159,24.0,feminino,right,España,Español y catalán,Upper secondary,no,no,A,2,when,L2,unsyncopated,when,when,29,Online_whenL2//d.si24.1332.wav,me,du,bi,sil,ñu,cha,si,sil1,ra,su,sil2,['catch'],[1.8306000000238782],[1.8306000000238782],1.332,no_beat,0.4986000000238781,0.4986000000238781,"[""space""]",si,4,,,,,,,,,,,,,,,3.0,2.0,Catalán,0.0,Castellano,0.0,Inglés,6.0,3.0,0.0,yes,no,yes,Piano,15,Canto,15,,,nada,82.0,yes
158,2024-04-09_21h40.07.950,Experiment4_uns,s159,24.0,feminino,right,España,Español y catalán,Upper secondary,no,no,A,2,when,L2,unsyncopated,when,when,30,Online_whenL2//d.si26.none.wav,ra,ño,cha,sil,to,su,bi,sil1,ñu,fe,sil2,['false alarm'],[1.9176000000238673],[1.9176000000238673],none,none,,,"[""space""]",si,4,,,,,,,,,,,,,,,3.0,2.0,Catalán,0.0,Castellano,0.0,Inglés,6.0,3.0,0.0,yes,no,yes,Piano,15,Canto,15,,,nada,82.0,yes
159,2024-04-09_21h40.07.950,Experiment4_uns,s159,24.0,feminino,right,España,Español y catalán,Upper secondary,no,no,A,2,when,L2,unsyncopated,when,when,31,Online_whenL2//d.si25.none.wav,ño,ra,me,sil,to,go,te,sil1,su,mi,sil2,['-'],,,none,none,,,,si,4,,,,,,,,,,,,,,,3.0,2.0,Catalán,0.0,Castellano,0.0,Inglés,6.0,3.0,0.0,yes,no,yes,Piano,15,Canto,15,,,nada,82.0,yes
160,2024-04-09_21h40.07.950,Experiment4_uns,s159,24.0,feminino,right,España,Español y catalán,Upper secondary,no,no,A,2,when,L2,unsyncopated,when,when,32,Online_whenL2//b.fe9.none.wav,du,ñu,su,sil,te,to,go,sil1,ño,me,sil2,['-'],,,none,none,,,,fe,1,,,,,,,,,,,,,,,3.0,2.0,Catalán,0.0,Castellano,0.0,Inglés,6.0,3.0,0.0,yes,no,yes,Piano,15,Canto,15,,,nada,82.0,yes
161,2024-04-09_21h40.07.950,Experiment4_uns,s159,24.0,feminino,right,España,Español y catalán,Upper secondary,no,no,A,2,when,L2,unsyncopated,when,when,33,Online_whenL2//b.fe10.none.wav,to,du,su,sil,mi,ño,ba,sil1,bi,ra,sil2,['-'],,,none,none,,,,fe,1,,,,,,,,,,,,,,,3.0,2.0,Catalán,0.0,Castellano,0.0,Inglés,6.0,3.0,0.0,yes,no,yes,Piano,15,Canto,15,,,nada,82.0,yes
162,2024-04-09_21h40.07.950,Experiment4_uns,s159,24.0,feminino,right,España,Español y catalán,Upper secondary,no,no,A,2,when,L2,unsyncopated,when,when,34,Online_whenL2//b.fe8.none.wav,su,to,go,sil,mi,ra,si,sil1,ba,ñu,sil2,['-'],,,none,none,,,,fe,1,,,,,,,,,,,,,,,3.0,2.0,Catalán,0.0,Castellano,0.0,Inglés,6.0,3.0,0.0,yes,no,yes,Piano,15,Canto,15,,,nada,82.0,yes
163,2024-04-09_21h40.07.950,Experiment4_uns,s159,24.0,feminino,right,España,Español y catalán,Upper secondary,no,no,A,2,when,L2,unsyncopated,when,when,35,Online_whenL2//b.fe11.1332.wav,ba,bi,go,sil,su,mi,fe,sil1,si,me,sil2,['catch'],[1.8736999999284762],[1.8736999999284762],1.332,no_beat,0.5416999999284762,0.5416999999284762,"[""space""]",fe,1,,,,,,,,,,,,,,,3.0,2.0,Catalán,0.0,Castellano,0.0,Inglés,6.0,3.0,0.0,yes,no,yes,Piano,15,Canto,15,,,nada,82.0,yes
164,2024-04-09_21h40.07.950,Experiment4_uns,s159,24.0,feminino,right,España,Español y catalán,Upper secondary,no,no,A,2,when,L2,unsyncopated,when,when,36,Online_whenL2//d.si9.none.wav,du,su,to,sil,ba,ra,mi,sil1,te,ño,sil2,['-'],,,none,none,,,,si,4,,,,,,,,,,,,,,,3.0,2.0,Catalán,0.0,Castellano,0.0,Inglés,6.0,3.0,0.0,yes,no,yes,Piano,15,Canto,15,,,nada,82.0,yes
165,2024-04-09_21h40.07.950,Experiment4_uns,s159,24.0,feminino,right,España,Español y catalán,Upper secondary,no,no,A,2,when,L2,unsyncopated,when,when,37,Online_whenL2//d.si8.none.wav,ñu,su,fe,sil,ra,ño,me,sil1,cha,mi,sil2,['-'],,,none,none,,,,si,4,,,,,,,,,,,,,,,3.0,2.0,Catalán,0.0,Castellano,0.0,Inglés,6.0,3.0,0.0,yes,no,yes,Piano,15,Canto,15,,,nada,82.0,yes
166,2024-04-09_21h40.07.950,Experiment4_uns,s159,24.0,feminino,right,España,Español y catalán,Upper secondary,no,no,A,2,when,L2,unsyncopated,when,when,38,Online_whenL2//d.si10.none.wav,to,bi,fe,sil,me,mi,ra,sil1,ba,cha,sil2,['-'],,,none,none,,,,si,4,,,,,,,,,,,,,,,3.0,2.0,Catalán,0.0,Castellano,0.0,Inglés,6.0,3.0,0.0,yes,no,yes,Piano,15,Canto,15,,,nada,82.0,yes
167,2024-04-09_21h40.07.950,Experiment4_uns,s159,24.0,feminino,right,España,Español y catalán,Upper secondary,no,no,A,2,when,L2,unsyncopated,when,when,39,Online_whenL2//d.si11.none.wav,to,mi,me,sil,ra,ñu,cha,sil1,su,du,sil2,['-'],,,none,none,,,,si,4,,,,,,,,,,,,,,,3.0,2.0,Catalán,0.0,Castellano,0.0,Inglés,6.0,3.0,0.0,yes,no,yes,Piano,15,Canto,15,,,nada,82.0,yes
168,2024-04-09_21h40.07.950,Experiment4_uns,s159,24.0,feminino,right,España,Español y catalán,Upper secondary,no,no,A,2,when,L2,unsyncopated,when,when,40,Online_whenL2//b.fe7.1998.wav,ba,si,du,sil,cha,ño,bi,sil1,mi,fe,sil2,['catch'],[2.579299999952127],[2.579299999952127],1.998,no_beat,0.5812999999521271,0.5812999999521271,"[""space""]",fe,1,,,,,,,,,,,,,,,3.0,2.0,Catalán,0.0,Castellano,0.0,Inglés,6.0,3.0,0.0,yes,no,yes,Piano,15,Canto,15,,,nada,82.0,yes
169,2024-04-09_21h40.07.950,Experiment4_uns,s159,24.0,feminino,right,España,Español y catalán,Upper secondary,no,no,A,2,when,L2,unsyncopated,when,when,41,Online_whenL2//b.fe4.0.wav,fe,ra,ño,sil,to,ba,cha,sil1,si,te,sil2,['catch'],[1.0516000000238819],[1.0516000000238819],0.0,beat,1.051600000023882,1.051600000023882,"[""space""]",fe,1,,,,,,,,,,,,,,,3.0,2.0,Catalán,0.0,Castellano,0.0,Inglés,6.0,3.0,0.0,yes,no,yes,Piano,15,Canto,15,,,nada,82.0,yes
170,2024-04-09_21h40.07.950,Experiment4_uns,s159,24.0,feminino,right,España,Español y catalán,Upper secondary,no,no,A,2,when,L2,unsyncopated,when,when,42,Online_whenL2//b.fe5.1332.wav,si,cha,bi,sil,ñu,su,fe,sil1,ra,te,sil2,['miss'],,,1.332,no_beat,,,,fe,1,,,,,,,,,,,,,,,3.0,2.0,Catalán,0.0,Castellano,0.0,Inglés,6.0,3.0,0.0,yes,no,yes,Piano,15,Canto,15,,,nada,82.0,yes
171,2024-04-09_21h40.07.950,Experiment4_uns,s159,24.0,feminino,right,España,Español y catalán,Upper secondary,no,no,A,2,when,L2,unsyncopated,when,when,43,Online_whenL2//b.fe6.1998.wav,du,su,ñu,sil,cha,ba,to,sil1,te,fe,sil2,['catch_delay'],[0.9528000000714802],[0.9528000000714802],1.998,no_beat,0.9528000000714802,0.9528000000714802,,fe,1,,,,,,,,,,,,,,,3.0,2.0,Catalán,0.0,Castellano,0.0,Inglés,6.0,3.0,0.0,yes,no,yes,Piano,15,Canto,15,,,nada,82.0,yes
172,2024-04-09_21h40.07.950,Experiment4_uns,s159,24.0,feminino,right,España,Español y catalán,Upper secondary,no,no,A,2,when,L2,unsyncopated,when,when,44,Online_whenL2//c.cha14.none.wav,go,te,ñu,sil,mi,bi,ba,sil1,ño,du,sil2,['-'],[0.2868000000714801],[0.2868000000714801],none,none,,,"[""space""]",cha,3,,,,,,,,,,,,,,,3.0,2.0,Catalán,0.0,Castellano,0.0,Inglés,6.0,3.0,0.0,yes,no,yes,Piano,15,Canto,15,,,nada,82.0,yes
173,2024-04-09_21h40.07.950,Experiment4_uns,s159,24.0,feminino,right,España,Español y catalán,Upper secondary,no,no,A,2,when,L2,unsyncopated,when,when,45,Online_whenL2//c.cha12.444.wav,du,ba,cha,sil,te,bi,ño,sil1,ñu,fe,sil2,['miss'],,,0.444,no_beat,,,,cha,3,,,,,,,,,,,,,,,3.0,2.0,Catalán,0.0,Castellano,0.0,Inglés,6.0,3.0,0.0,yes,no,yes,Piano,15,Canto,15,,,nada,82.0,yes
174,2024-04-09_21h40.07.950,Experiment4_uns,s159,24.0,feminino,right,España,Español y catalán,Upper secondary,no,no,A,2,when,L2,unsyncopated,when,when,46,Online_whenL2//c.cha15.none.wav,si,su,ñu,sil,mi,ba,ra,sil1,to,go,sil2,['-'],,,none,none,,,,cha,3,,,,,,,,,,,,,,,3.0,2.0,Catalán,0.0,Castellano,0.0,Inglés,6.0,3.0,0.0,yes,no,yes,Piano,15,Canto,15,,,nada,82.0,yes
175,2024-04-09_21h40.07.950,Experiment4_uns,s159,24.0,feminino,right,España,Español y catalán,Upper secondary,no,no,A,2,when,L2,unsyncopated,when,when,47,Online_whenL2//c.cha13.888.wav,te,me,ba,sil,cha,bi,si,sil1,fe,du,sil2,['catch'],[1.5655999999046344],[1.5655999999046344],0.888,beat,0.6775999999046344,0.6775999999046344,"[""space""]",cha,3,,,,,,,,,,,,,,,3.0,2.0,Catalán,0.0,Castellano,0.0,Inglés,6.0,3.0,0.0,yes,no,yes,Piano,15,Canto,15,,,nada,82.0,yes
176,2024-04-09_21h40.07.950,Experiment4_uns,s159,24.0,feminino,right,España,Español y catalán,Upper secondary,no,no,A,2,when,L2,unsyncopated,when,when,48,Online_whenL2//b.fe33.none.wav,to,du,mi,sil,go,te,ñu,sil1,bi,me,sil2,['-'],,,none,none,,,,fe,1,,,,,,,,,,,,,,,3.0,2.0,Catalán,0.0,Castellano,0.0,Inglés,6.0,3.0,0.0,yes,no,yes,Piano,15,Canto,15,,,nada,82.0,yes
177,2024-04-09_21h40.07.950,Experiment4_uns,s159,24.0,feminino,right,España,Español y catalán,Upper secondary,no,no,A,2,when,L2,unsyncopated,when,when,49,Online_whenL2//b.fe32.222.wav,ño,fe,te,sil,ñu,bi,su,sil1,mi,go,sil2,['false alarm'],[0.10460000002376546],[0.10460000002376546],0.222,no_beat,,,"[""space""]",fe,1,,,,,,,,,,,,,,,3.0,2.0,Catalán,0.0,Castellano,0.0,Inglés,6.0,3.0,0.0,yes,no,yes,Piano,15,Canto,15,,,nada,82.0,yes
178,2024-04-09_21h40.07.950,Experiment4_uns,s159,24.0,feminino,right,España,Español y catalán,Upper secondary,no,no,A,2,when,L2,unsyncopated,when,when,50,Online_whenL2//b.fe35.1998.wav,ra,su,si,sil,to,ba,bi,sil1,me,fe,sil2,['catch'],[2.51789999997618],[2.51789999997618],1.998,no_beat,0.51989999997618,0.51989999997618,"[""space""]",fe,1,,,,,,,,,,,,,,,3.0,2.0,Catalán,0.0,Castellano,0.0,Inglés,6.0,3.0,0.0,yes,no,yes,Piano,15,Canto,15,,,nada,82.0,yes
179,2024-04-09_21h40.07.950,Experiment4_uns,s159,24.0,feminino,right,España,Español y catalán,Upper secondary,no,no,A,2,when,L2,unsyncopated,when,when,51,Online_whenL2//b.fe34.1776.wav,si,go,mi,sil,ba,ñu,me,sil1,fe,ño,sil2,['miss'],,,1.776,beat,,,,fe,1,,,,,,,,,,,,,,,3.0,2.0,Catalán,0.0,Castellano,0.0,Inglés,6.0,3.0,0.0,yes,no,yes,Piano,15,Canto,15,,,nada,82.0,yes
180,2024-04-09_21h40.07.950,Experiment4_uns,s159,24.0,feminino,right,España,Español y catalán,Upper secondary,no,no,A,2,when,L2,unsyncopated,when,when,52,Online_whenL2//d.si2.0.wav,si,me,fe,sil,to,ba,ñu,sil1,su,ra,sil2,['catch'],[0.7062999999523072],[0.7062999999523072],0.0,beat,0.7062999999523072,0.7062999999523072,"[""space""]",si,4,,,,,,,,,,,,,,,3.0,2.0,Catalán,0.0,Castellano,0.0,Inglés,6.0,3.0,0.0,yes,no,yes,Piano,15,Canto,15,,,nada,82.0,yes
181,2024-04-09_21h40.07.950,Experiment4_uns,s159,24.0,feminino,right,España,Español y catalán,Upper secondary,no,no,A,2,when,L2,unsyncopated,when,when,53,Online_whenL2//d.si0.none.wav,ño,fe,go,sil,bi,te,cha,sil1,mi,to,sil2,['false alarm'],[0.8371000000238382],[0.8371000000238382],none,none,,,"[""space""]",si,4,,,,,,,,,,,,,,,3.0,2.0,Catalán,0.0,Castellano,0.0,Inglés,6.0,3.0,0.0,yes,no,yes,Piano,15,Canto,15,,,nada,82.0,yes
182,2024-04-09_21h40.07.950,Experiment4_uns,s159,24.0,feminino,right,España,Español y catalán,Upper secondary,no,no,A,2,when,L2,unsyncopated,when,when,54,Online_whenL2//d.si3.444.wav,bi,su,si,sil,go,mi,ba,sil1,ñu,du,sil2,['catch'],[1.0195000000001073],[1.0195000000001073],0.444,no_beat,0.5755000000001074,0.5755000000001074,"[""space""]",si,4,,,,,,,,,,,,,,,3.0,2.0,Catalán,0.0,Castellano,0.0,Inglés,6.0,3.0,0.0,yes,no,yes,Piano,15,Canto,15,,,nada,82.0,yes
183,2024-04-09_21h40.07.950,Experiment4_uns,s159,24.0,feminino,right,España,Español y catalán,Upper secondary,no,no,A,2,when,L2,unsyncopated,when,when,55,Online_whenL2//d.si1.444.wav,ra,cha,si,sil,te,du,mi,sil1,su,bi,sil2,['catch'],[1.1710000000000491],[1.1710000000000491],0.444,no_beat,0.7270000000000492,0.7270000000000492,"[""space""]",si,4,,,,,,,,,,,,,,,3.0,2.0,Catalán,0.0,Castellano,0.0,Inglés,6.0,3.0,0.0,yes,no,yes,Piano,15,Canto,15,,,nada,82.0,yes
184,2024-04-09_21h40.07.950,Experiment4_uns,s159,24.0,feminino,right,España,Español y catalán,Upper secondary,no,no,A,2,when,L2,unsyncopated,when,when,56,Online_whenL2//b.fe2.1332.wav,ñu,bi,mi,sil,ra,cha,fe,sil1,ba,si,sil2,['catch'],[1.9688999999762018],[1.9688999999762018],1.332,no_beat,0.6368999999762017,0.6368999999762017,"[""space""]",fe,1,,,,,,,,,,,,,,,3.0,2.0,Catalán,0.0,Castellano,0.0,Inglés,6.0,3.0,0.0,yes,no,yes,Piano,15,Canto,15,,,nada,82.0,yes
185,2024-04-09_21h40.07.950,Experiment4_uns,s159,24.0,feminino,right,España,Español y catalán,Upper secondary,no,no,A,2,when,L2,unsyncopated,when,when,57,Online_whenL2//b.fe1.none.wav,du,te,ba,sil,ra,mi,cha,sil1,ñu,to,sil2,['-'],,,none,none,,,,fe,1,,,,,,,,,,,,,,,3.0,2.0,Catalán,0.0,Castellano,0.0,Inglés,6.0,3.0,0.0,yes,no,yes,Piano,15,Canto,15,,,nada,82.0,yes
186,2024-04-09_21h40.07.950,Experiment4_uns,s159,24.0,feminino,right,España,Español y catalán,Upper secondary,no,no,A,2,when,L2,unsyncopated,when,when,58,Online_whenL2//b.fe3.1110.wav,me,mi,ñu,sil,bi,fe,si,sil1,to,go,sil2,['catch'],[1.9522000000476964],[1.9522000000476964],1.11,no_beat,0.8422000000476964,0.8422000000476964,"[""space""]",fe,1,,,,,,,,,,,,,,,3.0,2.0,Catalán,0.0,Castellano,0.0,Inglés,6.0,3.0,0.0,yes,no,yes,Piano,15,Canto,15,,,nada,82.0,yes
187,2024-04-09_21h40.07.950,Experiment4_uns,s159,24.0,feminino,right,España,Español y catalán,Upper secondary,no,no,A,2,when,L2,unsyncopated,when,when,59,Online_whenL2//b.fe0.none.wav,te,go,to,sil,si,ra,ño,sil1,cha,su,sil2,['-'],,,none,none,,,,fe,1,,,,,,,,,,,,,,,3.0,2.0,Catalán,0.0,Castellano,0.0,Inglés,6.0,3.0,0.0,yes,no,yes,Piano,15,Canto,15,,,nada,82.0,yes
188,2024-04-09_21h40.07.950,Experiment4_uns,s159,24.0,feminino,right,España,Español y catalán,Upper secondary,no,no,A,2,when,L2,unsyncopated,when,when,60,Online_whenL2//a.du18.none.wav,go,fe,te,sil,si,cha,ba,sil1,ño,to,sil2,['-'],,,none,none,,,,du,2,,,,,,,,,,,,,,,3.0,2.0,Catalán,0.0,Castellano,0.0,Inglés,6.0,3.0,0.0,yes,no,yes,Piano,15,Canto,15,,,nada,82.0,yes
189,2024-04-09_21h40.07.950,Experiment4_uns,s159,24.0,feminino,right,España,Español y catalán,Upper secondary,no,no,A,2,when,L2,unsyncopated,when,when,61,Online_whenL2//a.du16.none.wav,ñu,te,to,sil,su,me,si,sil1,ra,fe,sil2,['-'],,,none,none,,,,du,2,,,,,,,,,,,,,,,3.0,2.0,Catalán,0.0,Castellano,0.0,Inglés,6.0,3.0,0.0,yes,no,yes,Piano,15,Canto,15,,,nada,82.0,yes
190,2024-04-09_21h40.07.950,Experiment4_uns,s159,24.0,feminino,right,España,Español y catalán,Upper secondary,no,no,A,2,when,L2,unsyncopated,when,when,62,Online_whenL2//a.du19.none.wav,su,ñu,to,sil,bi,fe,me,sil1,ño,go,sil2,['-'],,,none,none,,,,du,2,,,,,,,,,,,,,,,3.0,2.0,Catalán,0.0,Castellano,0.0,Inglés,6.0,3.0,0.0,yes,no,yes,Piano,15,Canto,15,,,nada,82.0,yes
191,2024-04-09_21h40.07.950,Experiment4_uns,s159,24.0,feminino,right,España,Español y catalán,Upper secondary,no,no,A,2,when,L2,unsyncopated,when,when,63,Online_whenL2//a.du17.none.wav,ra,go,su,sil,me,si,cha,sil1,bi,te,sil2,['-'],,,none,none,,,,du,2,,,,,,,,,,,,,,,3.0,2.0,Catalán,0.0,Castellano,0.0,Inglés,6.0,3.0,0.0,yes,no,yes,Piano,15,Canto,15,,,nada,82.0,yes
192,2024-04-09_21h40.07.950,Experiment4_uns,s159,24.0,feminino,right,España,Español y catalán,Upper secondary,no,no,A,2,when,L2,unsyncopated,when,when,64,Online_whenL2//d.si16.none.wav,su,fe,mi,sil,ño,te,me,sil1,du,ba,sil2,['-'],,,none,none,,,,si,4,,,,,,,,,,,,,,,3.0,2.0,Catalán,0.0,Castellano,0.0,Inglés,6.0,3.0,0.0,yes,no,yes,Piano,15,Canto,15,,,nada,82.0,yes
193,2024-04-09_21h40.07.950,Experiment4_uns,s159,24.0,feminino,right,España,Español y catalán,Upper secondary,no,no,A,2,when,L2,unsyncopated,when,when,65,Online_whenL2//d.si18.222.wav,ñu,si,bi,sil,cha,du,me,sil1,fe,ño,sil2,['catch'],[0.8759999999999764],[0.8759999999999764],0.222,no_beat,0.6539999999999764,0.6539999999999764,"[""space""]",si,4,,,,,,,,,,,,,,,3.0,2.0,Catalán,0.0,Castellano,0.0,Inglés,6.0,3.0,0.0,yes,no,yes,Piano,15,Canto,15,,,nada,82.0,yes
194,2024-04-09_21h40.07.950,Experiment4_uns,s159,24.0,feminino,right,España,Español y catalán,Upper secondary,no,no,A,2,when,L2,unsyncopated,when,when,66,Online_whenL2//d.si17.none.wav,mi,su,to,sil,go,ño,du,sil1,cha,ñu,sil2,['-'],,,none,none,,,,si,4,,,,,,,,,,,,,,,3.0,2.0,Catalán,0.0,Castellano,0.0,Inglés,6.0,3.0,0.0,yes,no,yes,Piano,15,Canto,15,,,nada,82.0,yes
195,2024-04-09_21h40.07.950,Experiment4_uns,s159,24.0,feminino,right,España,Español y catalán,Upper secondary,no,no,A,2,when,L2,unsyncopated,when,when,67,Online_whenL2//d.si19.none.wav,bi,mi,su,sil,me,cha,du,sil1,fe,te,sil2,['-'],,,none,none,,,,si,4,,,,,,,,,,,,,,,3.0,2.0,Catalán,0.0,Castellano,0.0,Inglés,6.0,3.0,0.0,yes,no,yes,Piano,15,Canto,15,,,nada,82.0,yes
196,2024-04-09_21h40.07.950,Experiment4_uns,s159,24.0,feminino,right,España,Español y catalán,Upper secondary,no,no,A,2,when,L2,unsyncopated,when,when,68,Online_whenL2//a.du11.1998.wav,me,te,go,sil,mi,ñu,si,sil1,bi,du,sil2,['catch'],[2.5795000000000528],[2.5795000000000528],1.998,no_beat,0.5815000000000528,0.5815000000000528,"[""space""]",du,2,,,,,,,,,,,,,,,3.0,2.0,Catalán,0.0,Castellano,0.0,Inglés,6.0,3.0,0.0,yes,no,yes,Piano,15,Canto,15,,,nada,82.0,yes
197,2024-04-09_21h40.07.950,Experiment4_uns,s159,24.0,feminino,right,España,Español y catalán,Upper secondary,no,no,A,2,when,L2,unsyncopated,when,when,69,Online_whenL2//a.du9.1332.wav,bi,cha,su,sil,ñu,ba,du,sil1,ra,me,sil2,['miss'],,,1.332,no_beat,,,,du,2,,,,,,,,,,,,,,,3.0,2.0,Catalán,0.0,Castellano,0.0,Inglés,6.0,3.0,0.0,yes,no,yes,Piano,15,Canto,15,,,nada,82.0,yes
198,2024-04-09_21h40.07.950,Experiment4_uns,s159,24.0,feminino,right,España,Español y catalán,Upper secondary,no,no,A,2,when,L2,unsyncopated,when,when,70,Online_whenL2//a.du10.none.wav,cha,ño,to,sil,ra,bi,fe,sil1,ba,mi,sil2,['-'],,,none,none,,,,du,2,,,,,,,,,,,,,,,3.0,2.0,Catalán,0.0,Castellano,0.0,Inglés,6.0,3.0,0.0,yes,no,yes,Piano,15,Canto,15,,,nada,82.0,yes
199,2024-04-09_21h40.07.950,Experiment4_uns,s159,24.0,feminino,right,España,Español y catalán,Upper secondary,no,no,A,2,when,L2,unsyncopated,when,when,71,Online_whenL2//a.du8.none.wav,ño,su,to,sil,go,te,bi,sil1,ra,si,sil2,['-'],,,none,none,,,,du,2,,,,,,,,,,,,,,,3.0,2.0,Catalán,0.0,Castellano,0.0,Inglés,6.0,3.0,0.0,yes,no,yes,Piano,15,Canto,15,,,nada,82.0,yes
200,2024-04-09_21h40.07.950,Experiment4_uns,s159,24.0,feminino,right,España,Español y catalán,Upper secondary,no,no,A,2,when,L2,unsyncopated,when,when,72,Online_whenL2//a.du20.none.wav,su,go,te,sil,ra,si,bi,sil1,ñu,cha,sil2,['-'],,,none,none,,,,du,2,,,,,,,,,,,,,,,3.0,2.0,Catalán,0.0,Castellano,0.0,Inglés,6.0,3.0,0.0,yes,no,yes,Piano,15,Canto,15,,,nada,82.0,yes
201,2024-04-09_21h40.07.950,Experiment4_uns,s159,24.0,feminino,right,España,Español y catalán,Upper secondary,no,no,A,2,when,L2,unsyncopated,when,when,73,Online_whenL2//a.du21.none.wav,cha,si,bi,sil,ñu,ra,ño,sil1,ba,go,sil2,['-'],,,none,none,,,,du,2,,,,,,,,,,,,,,,3.0,2.0,Catalán,0.0,Castellano,0.0,Inglés,6.0,3.0,0.0,yes,no,yes,Piano,15,Canto,15,,,nada,82.0,yes
202,2024-04-09_21h40.07.950,Experiment4_uns,s159,24.0,feminino,right,España,Español y catalán,Upper secondary,no,no,A,2,when,L2,unsyncopated,when,when,74,Online_whenL2//a.du22.444.wav,me,fe,du,sil,to,ba,te,sil1,su,ñu,sil2,['catch'],[1.1196000000238655],[1.1196000000238655],0.444,no_beat,0.6756000000238656,0.6756000000238656,"[""space""]",du,2,,,,,,,,,,,,,,,3.0,2.0,Catalán,0.0,Castellano,0.0,Inglés,6.0,3.0,0.0,yes,no,yes,Piano,15,Canto,15,,,nada,82.0,yes
203,2024-04-09_21h40.07.950,Experiment4_uns,s159,24.0,feminino,right,España,Español y catalán,Upper secondary,no,no,A,2,when,L2,unsyncopated,when,when,75,Online_whenL2//a.du23.888.wav,si,fe,to,sil,du,su,ño,sil1,me,ba,sil2,['catch'],[1.572800000071311],[1.572800000071311],0.888,beat,0.6848000000713109,0.6848000000713109,"[""space""]",du,2,,,,,,,,,,,,,,,3.0,2.0,Catalán,0.0,Castellano,0.0,Inglés,6.0,3.0,0.0,yes,no,yes,Piano,15,Canto,15,,,nada,82.0,yes
204,2024-04-09_21h40.07.950,Experiment4_uns,s159,24.0,feminino,right,España,Español y catalán,Upper secondary,no,no,A,2,when,L2,unsyncopated,when,when,76,Online_whenL2//b.fe19.none.wav,ño,ra,su,sil,cha,du,to,sil1,si,me,sil2,['-'],,,none,none,,,,fe,1,,,,,,,,,,,,,,,3.0,2.0,Catalán,0.0,Castellano,0.0,Inglés,6.0,3.0,0.0,yes,no,yes,Piano,15,Canto,15,,,nada,82.0,yes
205,2024-04-09_21h40.07.950,Experiment4_uns,s159,24.0,feminino,right,España,Español y catalán,Upper secondary,no,no,A,2,when,L2,unsyncopated,when,when,77,Online_whenL2//b.fe16.1998.wav,cha,ba,te,sil,ra,ño,si,sil1,me,fe,sil2,['catch'],[2.4407999999523327],[2.4407999999523327],1.998,no_beat,0.4427999999523326,0.4427999999523326,"[""space""]",fe,1,,,,,,,,,,,,,,,3.0,2.0,Catalán,0.0,Castellano,0.0,Inglés,6.0,3.0,0.0,yes,no,yes,Piano,15,Canto,15,,,nada,82.0,yes
206,2024-04-09_21h40.07.950,Experiment4_uns,s159,24.0,feminino,right,España,Español y catalán,Upper secondary,no,no,A,2,when,L2,unsyncopated,when,when,78,Online_whenL2//b.fe17.222.wav,te,fe,ño,sil,su,mi,ra,sil1,si,ñu,sil2,['catch'],[1.03610000002368],[1.03610000002368],0.222,no_beat,0.81410000002368,0.81410000002368,"[""space""]",fe,1,,,,,,,,,,,,,,,3.0,2.0,Catalán,0.0,Castellano,0.0,Inglés,6.0,3.0,0.0,yes,no,yes,Piano,15,Canto,15,,,nada,82.0,yes
207,2024-04-09_21h40.07.950,Experiment4_uns,s159,24.0,feminino,right,España,Español y catalán,Upper secondary,no,no,A,2,when,L2,unsyncopated,when,when,79,Online_whenL2//b.fe18.none.wav,mi,go,su,sil,ba,ra,si,sil1,cha,bi,sil2,['-'],,,none,none,,,,fe,1,,,,,,,,,,,,,,,3.0,2.0,Catalán,0.0,Castellano,0.0,Inglés,6.0,3.0,0.0,yes,no,yes,Piano,15,Canto,15,,,nada,82.0,yes
208,2024-04-09_21h40.07.950,Experiment4_uns,s159,24.0,feminino,right,España,Español y catalán,Upper secondary,no,no,A,2,when,L2,unsyncopated,when,when,80,Online_whenL2//b.fe13.none.wav,te,su,ra,sil,si,go,ba,sil1,me,mi,sil2,['-'],,,none,none,,,,fe,1,,,,,,,,,,,,,,,3.0,2.0,Catalán,0.0,Castellano,0.0,Inglés,6.0,3.0,0.0,yes,no,yes,Piano,15,Canto,15,,,nada,82.0,yes
209,2024-04-09_21h40.07.950,Experiment4_uns,s159,24.0,feminino,right,España,Español y catalán,Upper secondary,no,no,A,2,when,L2,unsyncopated,when,when,81,Online_whenL2//b.fe14.none.wav,ra,du,ba,sil,to,bi,su,sil1,te,ñu,sil2,['false alarm'],[2.4860000000001037],[2.4860000000001037],none,none,,,"[""space""]",fe,1,,,,,,,,,,,,,,,3.0,2.0,Catalán,0.0,Castellano,0.0,Inglés,6.0,3.0,0.0,yes,no,yes,Piano,15,Canto,15,,,nada,82.0,yes
210,2024-04-09_21h40.07.950,Experiment4_uns,s159,24.0,feminino,right,España,Español y catalán,Upper secondary,no,no,A,2,when,L2,unsyncopated,when,when,82,Online_whenL2//b.fe12.none.wav,su,si,te,sil,cha,go,ñu,sil1,to,du,sil2,['-'],,,none,none,,,,fe,1,,,,,,,,,,,,,,,3.0,2.0,Catalán,0.0,Castellano,0.0,Inglés,6.0,3.0,0.0,yes,no,yes,Piano,15,Canto,15,,,nada,82.0,yes
211,2024-04-09_21h40.07.950,Experiment4_uns,s159,24.0,feminino,right,España,Español y catalán,Upper secondary,no,no,A,2,when,L2,unsyncopated,when,when,83,Online_whenL2//b.fe15.none.wav,ño,su,to,sil,du,me,go,sil1,cha,mi,sil2,['-'],,,none,none,,,,fe,1,,,,,,,,,,,,,,,3.0,2.0,Catalán,0.0,Castellano,0.0,Inglés,6.0,3.0,0.0,yes,no,yes,Piano,15,Canto,15,,,nada,82.0,yes
212,2024-04-09_21h40.07.950,Experiment4_uns,s159,24.0,feminino,right,España,Español y catalán,Upper secondary,no,no,A,2,when,L2,unsyncopated,when,when,84,Online_whenL2//c.cha22.none.wav,ra,to,mi,sil,bi,te,ba,sil1,fe,ñu,sil2,['-'],,,none,none,,,,cha,3,,,,,,,,,,,,,,,3.0,2.0,Catalán,0.0,Castellano,0.0,Inglés,6.0,3.0,0.0,yes,no,yes,Piano,15,Canto,15,,,nada,82.0,yes
213,2024-04-09_21h40.07.950,Experiment4_uns,s159,24.0,feminino,right,España,Español y catalán,Upper secondary,no,no,A,2,when,L2,unsyncopated,when,when,85,Online_whenL2//c.cha23.none.wav,me,ba,fe,sil,ño,ñu,mi,sil1,go,te,sil2,['-'],,,none,none,,,,cha,3,,,,,,,,,,,,,,,3.0,2.0,Catalán,0.0,Castellano,0.0,Inglés,6.0,3.0,0.0,yes,no,yes,Piano,15,Canto,15,,,nada,82.0,yes
214,2024-04-09_21h40.07.950,Experiment4_uns,s159,24.0,feminino,right,España,Español y catalán,Upper secondary,no,no,A,2,when,L2,unsyncopated,when,when,86,Online_whenL2//c.cha20.none.wav,fe,ño,mi,sil,ra,su,ba,sil1,ñu,to,sil2,['-'],,,none,none,,,,cha,3,,,,,,,,,,,,,,,3.0,2.0,Catalán,0.0,Castellano,0.0,Inglés,6.0,3.0,0.0,yes,no,yes,Piano,15,Canto,15,,,nada,82.0,yes
215,2024-04-09_21h40.07.950,Experiment4_uns,s159,24.0,feminino,right,España,Español y catalán,Upper secondary,no,no,A,2,when,L2,unsyncopated,when,when,87,Online_whenL2//c.cha21.1998.wav,si,du,ñu,sil,mi,go,to,sil1,ño,cha,sil2,['miss'],,,1.998,no_beat,,,,cha,3,,,,,,,,,,,,,,,3.0,2.0,Catalán,0.0,Castellano,0.0,Inglés,6.0,3.0,0.0,yes,no,yes,Piano,15,Canto,15,,,nada,82.0,yes
216,2024-04-09_21h40.07.950,Experiment4_uns,s159,24.0,feminino,right,España,Español y catalán,Upper secondary,no,no,A,2,when,L2,unsyncopated,when,when,88,Online_whenL2//c.cha24.444.wav,me,bi,cha,sil,su,ra,ño,sil1,to,fe,sil2,['catch'],[2.6215000000001965],[2.6215000000001965],0.444,no_beat,,2.1775000000001965,"[""space""]",cha,3,,,,,,,,,,,,,,,3.0,2.0,Catalán,0.0,Castellano,0.0,Inglés,6.0,3.0,0.0,yes,no,yes,Piano,15,Canto,15,,,nada,82.0,yes
