Unnamed: 0,date,expName,participant,age,sex,hand,residence,native_lang,education_level,lang_deficit,aud_deficit,group,block,condition,language,rhythm,rule structure online,rule type online,order_trial_on,trial_online,s1,s2,s3,s4,s5,s6,s7,s8,s9,s10,s11,catch_syll_resp,rts_syll_catch,clean_rts,time_syll,beat_no_beat,catch_rtsTR,catch_rts,syllable_catch.keys,cond_syll,syll_to_catch,test_offline,block_off,condition_off,rhythm_off,rule,rule_str_off,rule_norule,conds_offline,language_off,Partz_no_partm.keys,Partz_no_partm.rt,security_1_7.keys,accuracy,security_1_7.rt,n_lang,n_lang_used,lang_1,age_l1,lang_2,age_l2,lang_3,age_l3,ability_learn_l2,tendence_mix_lan,music_experience,muisc_use,partiture,instr_1,age_M1,instr_2,age_M2,preguntas_musica1,BMRQ_answer.response,final comment,BMRQ_Score,bilingual
0,2024-05-06_13h48.36.628,Experiment4_uns,s173,29.0,feminino,right,espanya,català,Bachelor degree,no,no,B,1,conjunction_syn,L3,syncopated,s1,r2,0,Online_conjL3_syn//d.ji.li15.1554.444.wav,ñe,je,li,sa,sil,ko,fu,ji,sil1,gu,sil2,['miss'],,,0.444,no_beat,,,,108:112,4,testConjL3Syn//dep_viol.r1.s1.0.wav,1.0,conjunction_syn,syncopated,a,s1,no_rule,dep,L3,z,1.6335,6.0,0.0,8.8265,3.0,2.0,català,0.0,castellà,3.0,anglès,3.0,4.0,4.0,yes,yes,yes,piano,8,bajo,8,1. Cuando comparto música con alguien siento una complicidad especial con aquella persona.,4.0,nada,68.0,yes
1,2024-05-06_13h48.36.628,Experiment4_uns,s173,29.0,feminino,right,espanya,català,Bachelor degree,no,no,B,1,conjunction_syn,L3,syncopated,s1,r1,1,Online_conjL3_syn//d.ji.li14.444.1332.wav,chu,gu,ji,mo,sil,do,li,fu,sil1,le,sil2,['miss'],,,1.332,no_beat,,,,108:112,4,testConjL3Syn//r1.s2.0.wav,1.0,conjunction_syn,syncopated,a,s2,rule,rule,L3,z,1.9834,6.0,1.0,6.2334,3.0,2.0,català,0.0,castellà,3.0,anglès,3.0,4.0,4.0,yes,yes,yes,piano,8,bajo,8,2. En mi tiempo libre apenas escucho música.,5.0,nada,68.0,yes
2,2024-05-06_13h48.36.628,Experiment4_uns,s173,29.0,feminino,right,espanya,català,Bachelor degree,no,no,B,1,conjunction_syn,L3,syncopated,s2,r1,2,Online_conjL3_syn//d.ji.li12.none.none.wav,gu,ko,le,chu,sil,do,ga,mo,sil1,fu,sil2,['-'],,,none,none,,,,108:112,4,testConjL3Syn//r2.s1.1.wav,1.0,conjunction_syn,syncopated,b,s1,rule,rule,L3,z,1.1277,6.0,1.0,2.9335,3.0,2.0,català,0.0,castellà,3.0,anglès,3.0,4.0,4.0,yes,yes,yes,piano,8,bajo,8,3. Algunas canciones me ponen los pelos de punta,3.0,nada,68.0,yes
3,2024-05-06_13h48.36.628,Experiment4_uns,s173,29.0,feminino,right,espanya,català,Bachelor degree,no,no,B,1,conjunction_syn,L3,syncopated,s1,r1,3,Online_conjL3_syn//d.ji.li13.none.none.wav,chu,je,ka,mo,sil,di,ko,fu,sil1,ga,sil2,['-'],,,none,none,,,,108:112,4,testConjL3Syn//r2.s1.0.wav,1.0,conjunction_syn,syncopated,b,s1,rule,rule,L3,z,0.567,6.0,1.0,0.5127,3.0,2.0,català,0.0,castellà,3.0,anglès,3.0,4.0,4.0,yes,yes,yes,piano,8,bajo,8,4. La música me hace compañía cuando estoy solo,3.0,nada,68.0,yes
4,2024-05-06_13h48.36.628,Experiment4_uns,s173,29.0,feminino,right,espanya,català,Bachelor degree,no,no,B,1,conjunction_syn,L3,syncopated,s1,r2,4,Online_conjL3_syn//b.ñe.sa0.0.666.wav,ñe,ji,fu,sa,sil,li,do,je,sil1,gu,sil2,['catch'],[1.1829999999999927],[1.1829999999999927],0.666,no_beat,0.5169999999999927,0.5169999999999927,"[""space""]",32:36,2,testConjL3Syn//cat_viol.r2.s1.0.wav,1.0,conjunction_syn,syncopated,b,s1,no_rule,cat,L3,z,0.7669,5.0,0.0,0.9668,3.0,2.0,català,0.0,castellà,3.0,anglès,3.0,4.0,4.0,yes,yes,yes,piano,8,bajo,8,5. No me apetece bailar ni con la música que más me gusta,5.0,nada,68.0,yes
5,2024-05-06_13h48.36.628,Experiment4_uns,s173,29.0,feminino,right,espanya,català,Bachelor degree,no,no,B,1,conjunction_syn,L3,syncopated,s1,r2,5,Online_conjL3_syn//b.ñe.sa3.0.666.wav,ñe,li,do,sa,sil,gu,ka,fu,sil1,ko,sil2,['catch'],[1.342900000000327],[1.342900000000327],0.666,no_beat,0.676900000000327,0.676900000000327,"[""space""]",32:36,2,testConjL3Syn//r2.s2.1.wav,1.0,conjunction_syn,syncopated,b,s2,rule,rule,L3,z,0.6502,6.0,1.0,1.0099,3.0,2.0,català,0.0,castellà,3.0,anglès,3.0,4.0,4.0,yes,yes,yes,piano,8,bajo,8,6. La música me hace conectar con la gente,3.0,nada,68.0,yes
6,2024-05-06_13h48.36.628,Experiment4_uns,s173,29.0,feminino,right,espanya,català,Bachelor degree,no,no,B,1,conjunction_syn,L3,syncopated,s1,r2,6,Online_conjL3_syn//b.ñe.sa1.0.666.wav,ñe,di,li,sa,sil,ga,ko,je,sil1,ji,sil2,['catch'],[1.1337000000000899],[1.1337000000000899],0.666,no_beat,0.4677000000000898,0.4677000000000898,"[""space""]",32:36,2,testConjL3Syn//r2.s2.2.wav,1.0,conjunction_syn,syncopated,b,s2,rule,rule,L3,z,0.5406,5.0,1.0,1.1497,3.0,2.0,català,0.0,castellà,3.0,anglès,3.0,4.0,4.0,yes,yes,yes,piano,8,bajo,8,7. Me informo sobre la música que me gusta.,2.0,nada,68.0,yes
7,2024-05-06_13h48.36.628,Experiment4_uns,s173,29.0,feminino,right,espanya,català,Bachelor degree,no,no,B,1,conjunction_syn,L3,syncopated,s1,r1,7,Online_conjL3_syn//b.ñe.sa2.none.none.wav,chu,fu,di,mo,sil,do,ga,li,sil1,ko,sil2,['-'],,,none,none,,,,32:36,2,testConjL3Syn//r1.s2.2.wav,1.0,conjunction_syn,syncopated,a,s2,rule,rule,L3,z,0.6001,6.0,1.0,1.3801,3.0,2.0,català,0.0,castellà,3.0,anglès,3.0,4.0,4.0,yes,yes,yes,piano,8,bajo,8,8.Me emociono escuchando ciertas canciones.,4.0,nada,68.0,yes
8,2024-05-06_13h48.36.628,Experiment4_uns,s173,29.0,feminino,right,espanya,català,Bachelor degree,no,no,B,1,conjunction_syn,L3,syncopated,s2,r2,8,Online_conjL3_syn//a.chu.mo30.none.none.wav,fu,gu,ji,ñe,sil,li,do,sa,sil1,je,sil2,['-'],,,none,none,,,,28:32,1,testConjL3Syn//cat_viol.r1.s2.0.wav,1.0,conjunction_syn,syncopated,a,s2,no_rule,cat,L3,z,0.6501,6.0,0.0,0.9499,3.0,2.0,català,0.0,castellà,3.0,anglès,3.0,4.0,4.0,yes,yes,yes,piano,8,bajo,8,9.La música me tranquiliza y me relaja.,3.0,nada,68.0,yes
9,2024-05-06_13h48.36.628,Experiment4_uns,s173,29.0,feminino,right,espanya,català,Bachelor degree,no,no,B,1,conjunction_syn,L3,syncopated,s1,r1,9,Online_conjL3_syn//a.chu.mo31.0.666.wav,chu,ka,je,mo,sil,ga,di,gu,sil1,ko,sil2,['catch'],[0.4495000000000573],[0.4495000000000573],0.0,beat,0.4495000000000573,0.4495000000000573,"[""space""]",28:32,1,testConjL3Syn//r1.s1.2.wav,1.0,conjunction_syn,syncopated,a,s1,rule,rule,L3,z,0.5779,6.0,1.0,1.8167,3.0,2.0,català,0.0,castellà,3.0,anglès,3.0,4.0,4.0,yes,yes,yes,piano,8,bajo,8,10.La música me hace bailar,3.0,nada,68.0,yes
10,2024-05-06_13h48.36.628,Experiment4_uns,s173,29.0,feminino,right,espanya,català,Bachelor degree,no,no,B,1,conjunction_syn,L3,syncopated,s1,r2,10,Online_conjL3_syn//a.chu.mo28.none.none.wav,ñe,ga,li,sa,sil,je,do,ko,sil1,ka,sil2,['-'],,,none,none,,,,28:32,1,testConjL3Syn//dep_viol.r2.s1.0.wav,1.0,conjunction_syn,syncopated,b,s1,no_rule,dep,L3,z,0.5333,5.0,0.0,1.3335,3.0,2.0,català,0.0,castellà,3.0,anglès,3.0,4.0,4.0,yes,yes,yes,piano,8,bajo,8,11.Busco novedades musicales continuamente,3.0,nada,68.0,yes
11,2024-05-06_13h48.36.628,Experiment4_uns,s173,29.0,feminino,right,espanya,català,Bachelor degree,no,no,B,1,conjunction_syn,L3,syncopated,s2,r2,11,Online_conjL3_syn//a.chu.mo29.none.none.wav,ji,ka,do,ñe,sil,gu,di,sa,sil1,ko,sil2,['-'],,,none,none,,,,28:32,1,testConjL3Syn//dep_viol.r1.s2.0.wav,1.0,conjunction_syn,syncopated,a,s2,no_rule,dep,L3,z,0.4994,5.0,0.0,2.3057,3.0,2.0,català,0.0,castellà,3.0,anglès,3.0,4.0,4.0,yes,yes,yes,piano,8,bajo,8,12. Puedo llorar cuando escucho algunas melodías que me gustan mucho.,1.0,nada,68.0,yes
12,2024-05-06_13h48.36.628,Experiment4_uns,s173,29.0,feminino,right,espanya,català,Bachelor degree,no,no,B,1,conjunction_syn,L3,syncopated,s1,r1,12,Online_conjL3_syn//b.ñe.sa22.none.none.wav,chu,di,li,mo,sil,le,fu,gu,sil1,je,sil2,['-'],,,none,none,,,,52:56,2,testConjL3Syn//r1.s2.1.wav,1.0,conjunction_syn,syncopated,a,s2,rule,rule,L3,z,0.5849,4.0,1.0,1.584,3.0,2.0,català,0.0,castellà,3.0,anglès,3.0,4.0,4.0,yes,yes,yes,piano,8,bajo,8,13. Me gusta cantar o tocar un instrumento con más gente,4.0,nada,68.0,yes
13,2024-05-06_13h48.36.628,Experiment4_uns,s173,29.0,feminino,right,espanya,català,Bachelor degree,no,no,B,1,conjunction_syn,L3,syncopated,s2,r1,13,Online_conjL3_syn//b.ñe.sa23.none.none.wav,ka,le,di,chu,sil,je,gu,mo,sil1,ji,sil2,['-'],,,none,none,,,,52:56,2,testConjL3Syn//dep_viol.r2.s2.0.wav,1.0,conjunction_syn,syncopated,b,s2,no_rule,dep,L3,z,0.4166,6.0,0.0,1.0002,3.0,2.0,català,0.0,castellà,3.0,anglès,3.0,4.0,4.0,yes,yes,yes,piano,8,bajo,8,14. La música me ayuda a desconectar.,4.0,nada,68.0,yes
14,2024-05-06_13h48.36.628,Experiment4_uns,s173,29.0,feminino,right,espanya,català,Bachelor degree,no,no,B,1,conjunction_syn,L3,syncopated,s2,r2,14,Online_conjL3_syn//b.ñe.sa20.666.1554.wav,le,di,ka,ñe,sil,li,je,sa,sil1,ko,sil2,['catch'],[2.03440000000046],[2.03440000000046],1.554,no_beat,0.4804000000004598,0.4804000000004598,"[""space""]",52:56,2,testConjL3Syn//time_viol.r2.s1.0.wav,1.0,conjunction_syn,syncopated,b,s1,no_rule,time,L3,m,8.2773,1.0,1.0,1.4502,3.0,2.0,català,0.0,castellà,3.0,anglès,3.0,4.0,4.0,yes,yes,yes,piano,8,bajo,8,15. No puedo evitar tararear las canciones que me gustan cuando las escucho.,4.0,nada,68.0,yes
15,2024-05-06_13h48.36.628,Experiment4_uns,s173,29.0,feminino,right,espanya,català,Bachelor degree,no,no,B,1,conjunction_syn,L3,syncopated,s2,r2,15,Online_conjL3_syn//b.ñe.sa21.666.1554.wav,le,di,gu,ñe,sil,ga,je,sa,sil1,li,sil2,['catch'],[1.9328999999994494],[1.9328999999994494],1.554,no_beat,0.3788999999994493,0.3788999999994493,"[""space""]",52:56,2,testConjL3Syn//cat_viol.r2.s2.0.wav,1.0,conjunction_syn,syncopated,b,s2,no_rule,cat,L3,z,2.9938,5.0,0.0,3.7335,3.0,2.0,català,0.0,castellà,3.0,anglès,3.0,4.0,4.0,yes,yes,yes,piano,8,bajo,8,16. En los conciertos me siento en sintonía con los artistas y el público.,4.0,nada,68.0,yes
16,2024-05-06_13h48.36.628,Experiment4_uns,s173,29.0,feminino,right,espanya,català,Bachelor degree,no,no,B,1,conjunction_syn,L3,syncopated,s2,r2,16,Online_conjL3_syn//d.ji.li2.1332.0.wav,li,fu,di,ñe,sil,gu,ji,sa,sil1,ko,sil2,['catch'],[0.6670999999995502],[0.6670999999995502],0.0,beat,0.6670999999995502,0.6670999999995502,"[""space""]",96:100,4,testConjL3Syn//r2.s2.0.wav,1.0,conjunction_syn,syncopated,b,s2,rule,rule,L3,z,0.6834,5.0,1.0,1.6197,3.0,2.0,català,0.0,castellà,3.0,anglès,3.0,4.0,4.0,yes,yes,yes,piano,8,bajo,8,17. Me gasto bastante dinero en música y cosas relacionadas con la música.,3.0,nada,68.0,yes
17,2024-05-06_13h48.36.628,Experiment4_uns,s173,29.0,feminino,right,espanya,català,Bachelor degree,no,no,B,1,conjunction_syn,L3,syncopated,s1,r1,17,Online_conjL3_syn//d.ji.li1.1554.444.wav,chu,gu,li,mo,sil,ga,je,ji,sil1,do,sil2,['miss'],,,0.444,no_beat,,,,96:100,4,testConjL3Syn//cat_viol.r1.s1.0.wav,1.0,conjunction_syn,syncopated,a,s1,no_rule,cat,L3,z,0.5833,5.0,0.0,3.1339,3.0,2.0,català,0.0,castellà,3.0,anglès,3.0,4.0,4.0,yes,yes,yes,piano,8,bajo,8,18. Siento escalofríos cuando escucho una melodía que me gusta.,2.0,nada,68.0,yes
18,2024-05-06_13h48.36.628,Experiment4_uns,s173,29.0,feminino,right,espanya,català,Bachelor degree,no,no,B,1,conjunction_syn,L3,syncopated,s1,r2,18,Online_conjL3_syn//d.ji.li3.none.none.wav,ñe,ka,gu,sa,sil,ga,do,di,sil1,ko,sil2,['-'],,,none,none,,,,96:100,4,testConjL3Syn//r1.s1.1.wav,1.0,conjunction_syn,syncopated,a,s1,rule,rule,L3,z,0.4169,7.0,1.0,1.0835,3.0,2.0,català,0.0,castellà,3.0,anglès,3.0,4.0,4.0,yes,yes,yes,piano,8,bajo,8,19. Con la música me puedo desahogar.,4.0,nada,68.0,yes
19,2024-05-06_13h48.36.628,Experiment4_uns,s173,29.0,feminino,right,espanya,català,Bachelor degree,no,no,B,1,conjunction_syn,L3,syncopated,s1,r1,19,Online_conjL3_syn//d.ji.li0.none.none.wav,chu,ga,ko,mo,sil,do,le,gu,sil1,di,sil2,['-'],,,none,none,,,,96:100,4,testConjL3Syn//time_viol.r2.s2.0.wav,1.0,conjunction_syn,syncopated,b,s2,no_rule,time,L3,z,0.4092,6.0,0.0,0.4963,3.0,2.0,català,0.0,castellà,3.0,anglès,3.0,4.0,4.0,yes,yes,yes,piano,8,bajo,8,20. Cuando escucho una melodía que me gusta mucho no puedo evitar mover el cuerpo.,4.0,nada,68.0,yes
20,2024-05-06_13h48.36.628,Experiment4_uns,s173,29.0,feminino,right,espanya,català,Bachelor degree,no,no,B,1,conjunction_syn,L3,syncopated,s2,r2,20,Online_conjL3_syn//d.ji.li29.none.none.wav,ka,gu,di,ñe,sil,ko,ga,sa,sil1,le,sil2,['-'],,,none,none,,,,124:128,4,testConjL3Syn//r2.s1.2.wav,1.0,conjunction_syn,syncopated,b,s1,rule,rule,L3,z,1.7034,4.0,1.0,2.3833,3.0,2.0,català,0.0,castellà,3.0,anglès,3.0,4.0,4.0,yes,yes,yes,piano,8,bajo,8,,,nada,68.0,yes
21,2024-05-06_13h48.36.628,Experiment4_uns,s173,29.0,feminino,right,espanya,català,Bachelor degree,no,no,B,1,conjunction_syn,L3,syncopated,s2,r2,21,Online_conjL3_syn//d.ji.li28.none.none.wav,fu,ka,ga,ñe,sil,di,gu,sa,sil1,je,sil2,['-'],,,none,none,,,,124:128,4,testConjL3Syn//time_viol.r1.s2.0.wav,1.0,conjunction_syn,syncopated,a,s2,no_rule,time,L3,m,1.9177,1.0,1.0,1.1052,3.0,2.0,català,0.0,castellà,3.0,anglès,3.0,4.0,4.0,yes,yes,yes,piano,8,bajo,8,,,nada,68.0,yes
22,2024-05-06_13h48.36.628,Experiment4_uns,s173,29.0,feminino,right,espanya,català,Bachelor degree,no,no,B,1,conjunction_syn,L3,syncopated,s2,r1,22,Online_conjL3_syn//d.ji.li31.0.222.wav,ji,li,ko,chu,sil,do,ga,mo,sil1,je,sil2,['catch'],[0.8920000000000528],[0.8920000000000528],0.222,no_beat,0.6700000000000528,0.6700000000000528,"[""space""]",124:128,4,testConjL3Syn//r1.s1.0.wav,1.0,conjunction_syn,syncopated,a,s1,rule,rule,L3,z,7.2668,5.0,1.0,0.8287,3.0,2.0,català,0.0,castellà,3.0,anglès,3.0,4.0,4.0,yes,yes,yes,piano,8,bajo,8,,,nada,68.0,yes
23,2024-05-06_13h48.36.628,Experiment4_uns,s173,29.0,feminino,right,espanya,català,Bachelor degree,no,no,B,1,conjunction_syn,L3,syncopated,s1,r2,23,Online_conjL3_syn//d.ji.li30.none.none.wav,ñe,je,fu,sa,sil,ga,do,le,sil1,di,sil2,['-'],,,none,none,,,,124:128,4,testConjL3Syn//time_viol.r1.s1.0.wav,1.0,conjunction_syn,syncopated,a,s1,no_rule,time,L3,z,1.9833,4.0,0.0,0.5281,3.0,2.0,català,0.0,castellà,3.0,anglès,3.0,4.0,4.0,yes,yes,yes,piano,8,bajo,8,,,nada,68.0,yes
24,2024-05-06_13h48.36.628,Experiment4_uns,s173,29.0,feminino,right,espanya,català,Bachelor degree,no,no,B,1,conjunction_syn,L3,syncopated,s1,r2,24,Online_conjL3_syn//b.ñe.sa25.0.666.wav,ñe,je,li,sa,sil,fu,le,ko,sil1,ji,sil2,['catch'],[1.0635999999996102],[1.0635999999996102],0.666,no_beat,0.3975999999996101,0.3975999999996101,"[""space""]",56:60,2,testWhenL2Uns//cat_viol.r1.s1.0.wav,2.0,when,unsyncopated,a,s1,no_rule,cat,L2,z,1.1667,7.0,1.0,1.0023,3.0,2.0,català,0.0,castellà,3.0,anglès,3.0,4.0,4.0,yes,yes,yes,piano,8,bajo,8,,,nada,68.0,yes
25,2024-05-06_13h48.36.628,Experiment4_uns,s173,29.0,feminino,right,espanya,català,Bachelor degree,no,no,B,1,conjunction_syn,L3,syncopated,s1,r1,25,Online_conjL3_syn//b.ñe.sa26.none.none.wav,chu,ko,ji,mo,sil,ka,li,do,sil1,gu,sil2,['-'],,,none,none,,,,56:60,2,testWhenL2Uns//dep_viol.r1.s2.0.wav,2.0,when,unsyncopated,a,s2,no_rule,dep,L2,z,0.5484,7.0,1.0,1.9997,3.0,2.0,català,0.0,castellà,3.0,anglès,3.0,4.0,4.0,yes,yes,yes,piano,8,bajo,8,,,nada,68.0,yes
26,2024-05-06_13h48.36.628,Experiment4_uns,s173,29.0,feminino,right,espanya,català,Bachelor degree,no,no,B,1,conjunction_syn,L3,syncopated,s2,r1,26,Online_conjL3_syn//b.ñe.sa24.none.none.wav,ga,di,le,chu,sil,li,ka,mo,sil1,do,sil2,['-'],,,none,none,,,,56:60,2,testWhenL2Uns//cat_viol.r2.s2.0.wav,2.0,when,unsyncopated,b,s2,no_rule,cat,L2,z,0.6185,7.0,1.0,1.2021,3.0,2.0,català,0.0,castellà,3.0,anglès,3.0,4.0,4.0,yes,yes,yes,piano,8,bajo,8,,,nada,68.0,yes
27,2024-05-06_13h48.36.628,Experiment4_uns,s173,29.0,feminino,right,espanya,català,Bachelor degree,no,no,B,1,conjunction_syn,L3,syncopated,s2,r1,27,Online_conjL3_syn//b.ñe.sa27.none.none.wav,ka,gu,je,chu,sil,ko,di,mo,sil1,li,sil2,['-'],,,none,none,,,,56:60,2,testWhenL2Uns//r2.s1.1.wav,2.0,when,unsyncopated,b,s1,rule,rule,L2,z,1.1991,6.0,1.0,1.1727,3.0,2.0,català,0.0,castellà,3.0,anglès,3.0,4.0,4.0,yes,yes,yes,piano,8,bajo,8,,,nada,68.0,yes
28,2024-05-06_13h48.36.628,Experiment4_uns,s173,29.0,feminino,right,espanya,català,Bachelor degree,no,no,B,1,conjunction_syn,L3,syncopated,s1,r1,28,Online_conjL3_syn//b.ñe.sa31.none.none.wav,chu,fu,gu,mo,sil,le,ji,di,sil1,ka,sil2,['-'],,,none,none,,,,60:64,2,testWhenL2Uns//time_viol.r2.s2.0.wav,2.0,when,unsyncopated,b,s2,no_rule,time,L2,z,0.5839,6.0,1.0,1.1693,3.0,2.0,català,0.0,castellà,3.0,anglès,3.0,4.0,4.0,yes,yes,yes,piano,8,bajo,8,,,nada,68.0,yes
29,2024-05-06_13h48.36.628,Experiment4_uns,s173,29.0,feminino,right,espanya,català,Bachelor degree,no,no,B,1,conjunction_syn,L3,syncopated,s2,r2,29,Online_conjL3_syn//b.ñe.sa29.666.1554.wav,je,do,ga,ñe,sil,li,ka,sa,sil1,gu,sil2,['catch'],[2.0356000000004997],[2.0356000000004997],1.554,no_beat,0.4816000000004996,0.4816000000004996,"[""space""]",60:64,2,testWhenL2Uns//cat_viol.r2.s1.0.wav,2.0,when,unsyncopated,b,s1,no_rule,cat,L2,z,0.7997,7.0,1.0,0.8135,3.0,2.0,català,0.0,castellà,3.0,anglès,3.0,4.0,4.0,yes,yes,yes,piano,8,bajo,8,,,nada,68.0,yes
30,2024-05-06_13h48.36.628,Experiment4_uns,s173,29.0,feminino,right,espanya,català,Bachelor degree,no,no,B,1,conjunction_syn,L3,syncopated,s1,r1,30,Online_conjL3_syn//b.ñe.sa30.none.none.wav,chu,ka,ji,mo,sil,je,gu,do,sil1,li,sil2,['-'],,,none,none,,,,60:64,2,testWhenL2Uns//r1.s2.0.wav,2.0,when,unsyncopated,a,s2,rule,rule,L2,z,0.9034,7.0,1.0,0.6333,3.0,2.0,català,0.0,castellà,3.0,anglès,3.0,4.0,4.0,yes,yes,yes,piano,8,bajo,8,,,nada,68.0,yes
31,2024-05-06_13h48.36.628,Experiment4_uns,s173,29.0,feminino,right,espanya,català,Bachelor degree,no,no,B,1,conjunction_syn,L3,syncopated,s1,r1,31,Online_conjL3_syn//b.ñe.sa28.none.none.wav,chu,ji,ga,mo,sil,fu,ka,di,sil1,gu,sil2,['-'],,,none,none,,,,60:64,2,testWhenL2Uns//cat_viol.r1.s2.0.wav,2.0,when,unsyncopated,a,s2,no_rule,cat,L2,z,1.636,5.0,1.0,2.5334,3.0,2.0,català,0.0,castellà,3.0,anglès,3.0,4.0,4.0,yes,yes,yes,piano,8,bajo,8,,,nada,68.0,yes
32,2024-05-06_13h48.36.628,Experiment4_uns,s173,29.0,feminino,right,espanya,català,Bachelor degree,no,no,B,1,conjunction_syn,L3,syncopated,s1,r1,32,Online_conjL3_syn//a.chu.mo0.0.666.wav,chu,do,ji,mo,sil,ka,ko,di,sil1,li,sil2,['catch'],[0.7140000000000555],[0.7140000000000555],0.0,beat,0.7140000000000555,0.7140000000000555,"[""space""]",0:4,1,testWhenL2Uns//r1.s1.0.wav,2.0,when,unsyncopated,a,s1,rule,rule,L2,z,1.3335,6.0,1.0,2.1335,3.0,2.0,català,0.0,castellà,3.0,anglès,3.0,4.0,4.0,yes,yes,yes,piano,8,bajo,8,,,nada,68.0,yes
33,2024-05-06_13h48.36.628,Experiment4_uns,s173,29.0,feminino,right,espanya,català,Bachelor degree,no,no,B,1,conjunction_syn,L3,syncopated,s1,r1,33,Online_conjL3_syn//a.chu.mo3.0.666.wav,chu,li,do,mo,sil,je,ji,fu,sil1,ga,sil2,['catch'],[0.513400000000388],[0.513400000000388],0.0,beat,0.513400000000388,0.513400000000388,"[""space""]",0:4,1,testWhenL2Uns//r1.s1.1.wav,2.0,when,unsyncopated,a,s1,rule,rule,L2,z,0.4662,7.0,1.0,1.3169,3.0,2.0,català,0.0,castellà,3.0,anglès,3.0,4.0,4.0,yes,yes,yes,piano,8,bajo,8,,,nada,68.0,yes
34,2024-05-06_13h48.36.628,Experiment4_uns,s173,29.0,feminino,right,espanya,català,Bachelor degree,no,no,B,1,conjunction_syn,L3,syncopated,s1,r2,34,Online_conjL3_syn//a.chu.mo1.none.none.wav,ñe,le,ko,sa,sil,gu,do,di,sil1,ka,sil2,['-'],,,none,none,,,,0:4,1,testWhenL2Uns//r1.s2.1.wav,2.0,when,unsyncopated,a,s2,rule,rule,L2,z,0.433,7.0,1.0,0.7048,3.0,2.0,català,0.0,castellà,3.0,anglès,3.0,4.0,4.0,yes,yes,yes,piano,8,bajo,8,,,nada,68.0,yes
35,2024-05-06_13h48.36.628,Experiment4_uns,s173,29.0,feminino,right,espanya,català,Bachelor degree,no,no,B,1,conjunction_syn,L3,syncopated,s2,r1,35,Online_conjL3_syn//a.chu.mo2.666.1554.wav,ka,ko,fu,chu,sil,le,je,mo,sil1,gu,sil2,['catch'],[1.853600000000597],[1.853600000000597],0.666,no_beat,1.187600000000597,1.187600000000597,"[""space""]",0:4,1,testWhenL2Uns//r2.s1.0.wav,2.0,when,unsyncopated,b,s1,rule,rule,L2,z,1.0667,4.0,1.0,2.5002,3.0,2.0,català,0.0,castellà,3.0,anglès,3.0,4.0,4.0,yes,yes,yes,piano,8,bajo,8,,,nada,68.0,yes
36,2024-05-06_13h48.36.628,Experiment4_uns,s173,29.0,feminino,right,espanya,català,Bachelor degree,no,no,B,1,conjunction_syn,L3,syncopated,s1,r1,36,Online_conjL3_syn//c.gu.je13.none.none.wav,chu,le,ka,mo,sil,fu,ko,do,sil1,ji,sil2,['-'],,,none,none,,,,76:80,3,testWhenL2Uns//r2.s2.1.wav,2.0,when,unsyncopated,b,s2,rule,rule,L2,z,0.5003,6.0,1.0,1.2168,3.0,2.0,català,0.0,castellà,3.0,anglès,3.0,4.0,4.0,yes,yes,yes,piano,8,bajo,8,,,nada,68.0,yes
37,2024-05-06_13h48.36.628,Experiment4_uns,s173,29.0,feminino,right,espanya,català,Bachelor degree,no,no,B,1,conjunction_syn,L3,syncopated,s2,r1,37,Online_conjL3_syn//c.gu.je14.none.none.wav,ka,ko,ga,chu,sil,fu,do,mo,sil1,ji,sil2,['-'],,,none,none,,,,76:80,3,testWhenL2Uns//r1.s1.2.wav,2.0,when,unsyncopated,a,s1,rule,rule,L2,z,1.7829,7.0,1.0,0.4754,3.0,2.0,català,0.0,castellà,3.0,anglès,3.0,4.0,4.0,yes,yes,yes,piano,8,bajo,8,,,nada,68.0,yes
38,2024-05-06_13h48.36.628,Experiment4_uns,s173,29.0,feminino,right,espanya,català,Bachelor degree,no,no,B,1,conjunction_syn,L3,syncopated,s1,r2,38,Online_conjL3_syn//c.gu.je15.1554.444.wav,ñe,le,je,sa,sil,fu,do,gu,sil1,ga,sil2,['catch'],[1.0360999999995784],[1.0360999999995784],0.444,no_beat,0.5920999999995784,0.5920999999995784,"[""space""]",76:80,3,testWhenL2Uns//dep_viol.r2.s2.0.wav,2.0,when,unsyncopated,b,s2,no_rule,dep,L2,z,0.4669,5.0,1.0,1.2333,3.0,2.0,català,0.0,castellà,3.0,anglès,3.0,4.0,4.0,yes,yes,yes,piano,8,bajo,8,,,nada,68.0,yes
39,2024-05-06_13h48.36.628,Experiment4_uns,s173,29.0,feminino,right,espanya,català,Bachelor degree,no,no,B,1,conjunction_syn,L3,syncopated,s2,r2,39,Online_conjL3_syn//c.gu.je12.none.none.wav,ka,ji,li,ñe,sil,do,ga,sa,sil1,fu,sil2,['-'],,,none,none,,,,76:80,3,testWhenL2Uns//dep_viol.r2.s1.0.wav,2.0,when,unsyncopated,b,s1,no_rule,dep,L2,z,0.4502,7.0,1.0,1.2335,3.0,2.0,català,0.0,castellà,3.0,anglès,3.0,4.0,4.0,yes,yes,yes,piano,8,bajo,8,,,nada,68.0,yes
40,2024-05-06_13h48.36.628,Experiment4_uns,s173,29.0,feminino,right,espanya,català,Bachelor degree,no,no,B,1,conjunction_syn,L3,syncopated,s1,r2,40,Online_conjL3_syn//a.chu.mo19.none.none.wav,ñe,di,je,sa,sil,ga,do,fu,sil1,ji,sil2,['-'],,,none,none,,,,16:20,1,testWhenL2Uns//time_viol.r2.s1.0.wav,2.0,when,unsyncopated,b,s1,no_rule,time,L2,z,0.3503,7.0,1.0,0.8169,3.0,2.0,català,0.0,castellà,3.0,anglès,3.0,4.0,4.0,yes,yes,yes,piano,8,bajo,8,,,nada,68.0,yes
41,2024-05-06_13h48.36.628,Experiment4_uns,s173,29.0,feminino,right,espanya,català,Bachelor degree,no,no,B,1,conjunction_syn,L3,syncopated,s1,r2,41,Online_conjL3_syn//a.chu.mo18.none.none.wav,ñe,ka,gu,sa,sil,ko,fu,je,sil1,ga,sil2,['-'],,,none,none,,,,16:20,1,testWhenL2Uns//r1.s2.2.wav,2.0,when,unsyncopated,a,s2,rule,rule,L2,z,0.3889,7.0,1.0,0.5497,3.0,2.0,català,0.0,castellà,3.0,anglès,3.0,4.0,4.0,yes,yes,yes,piano,8,bajo,8,,,nada,68.0,yes
42,2024-05-06_13h48.36.628,Experiment4_uns,s173,29.0,feminino,right,espanya,català,Bachelor degree,no,no,B,1,conjunction_syn,L3,syncopated,s1,r2,42,Online_conjL3_syn//a.chu.mo17.none.none.wav,ñe,do,ga,sa,sil,fu,je,ji,sil1,ko,sil2,['-'],,,none,none,,,,16:20,1,testWhenL2Uns//time_viol.r1.s1.0.wav,2.0,when,unsyncopated,a,s1,no_rule,time,L2,z,1.3,3.0,1.0,1.8501,3.0,2.0,català,0.0,castellà,3.0,anglès,3.0,4.0,4.0,yes,yes,yes,piano,8,bajo,8,,,nada,68.0,yes
43,2024-05-06_13h48.36.628,Experiment4_uns,s173,29.0,feminino,right,espanya,català,Bachelor degree,no,no,B,1,conjunction_syn,L3,syncopated,s2,r1,43,Online_conjL3_syn//a.chu.mo16.666.1554.wav,li,je,fu,chu,sil,do,le,mo,sil1,ka,sil2,['catch'],[1.2841000000005351],[1.2841000000005351],0.666,no_beat,0.6181000000005351,0.6181000000005351,"[""space""]",16:20,1,testWhenL2Uns//r2.s2.0.wav,2.0,when,unsyncopated,b,s2,rule,rule,L2,z,0.4621,6.0,1.0,1.6845,3.0,2.0,català,0.0,castellà,3.0,anglès,3.0,4.0,4.0,yes,yes,yes,piano,8,bajo,8,,,nada,68.0,yes
44,2024-05-06_13h48.36.628,Experiment4_uns,s173,29.0,feminino,right,espanya,català,Bachelor degree,no,no,B,1,conjunction_syn,L3,syncopated,s2,r2,44,Online_conjL3_syn//d.ji.li17.1332.222.wav,fu,li,do,ñe,sil,di,ji,sa,sil1,je,sil2,['catch'],[0.9167999999998528],[0.9167999999998528],0.222,no_beat,0.6947999999998529,0.6947999999998529,"[""space""]",112:116,4,testWhenL2Uns//r2.s2.2.wav,2.0,when,unsyncopated,b,s2,rule,rule,L2,z,0.3004,7.0,1.0,0.7669,3.0,2.0,català,0.0,castellà,3.0,anglès,3.0,4.0,4.0,yes,yes,yes,piano,8,bajo,8,,,nada,68.0,yes
45,2024-05-06_13h48.36.628,Experiment4_uns,s173,29.0,feminino,right,espanya,català,Bachelor degree,no,no,B,1,conjunction_syn,L3,syncopated,s1,r2,45,Online_conjL3_syn//d.ji.li16.none.none.wav,ñe,gu,le,sa,sil,do,ga,ko,sil1,fu,sil2,['-'],,,none,none,,,,112:116,4,testWhenL2Uns//dep_viol.r1.s1.0.wav,2.0,when,unsyncopated,a,s1,no_rule,dep,L2,z,0.3228,6.0,1.0,1.2491,3.0,2.0,català,0.0,castellà,3.0,anglès,3.0,4.0,4.0,yes,yes,yes,piano,8,bajo,8,,,nada,68.0,yes
46,2024-05-06_13h48.36.628,Experiment4_uns,s173,29.0,feminino,right,espanya,català,Bachelor degree,no,no,B,1,conjunction_syn,L3,syncopated,s1,r1,46,Online_conjL3_syn//d.ji.li18.1554.444.wav,chu,ga,li,mo,sil,je,do,ji,sil1,fu,sil2,['catch'],[1.2231000000004997],[1.2231000000004997],0.444,no_beat,0.7791000000004997,0.7791000000004997,"[""space""]",112:116,4,testWhenL2Uns//r2.s1.2.wav,2.0,when,unsyncopated,b,s1,rule,rule,L2,z,0.3581,7.0,1.0,0.8668,3.0,2.0,català,0.0,castellà,3.0,anglès,3.0,4.0,4.0,yes,yes,yes,piano,8,bajo,8,,,nada,68.0,yes
47,2024-05-06_13h48.36.628,Experiment4_uns,s173,29.0,feminino,right,espanya,català,Bachelor degree,no,no,B,1,conjunction_syn,L3,syncopated,s2,r2,47,Online_conjL3_syn//d.ji.li19.none.none.wav,je,le,ko,ñe,sil,ga,do,sa,sil1,gu,sil2,['-'],,,none,none,,,,112:116,4,testWhenL2Uns//time_viol.r1.s2.0.wav,2.0,when,unsyncopated,a,s2,no_rule,time,L2,z,0.6883,5.0,1.0,1.595,3.0,2.0,català,0.0,castellà,3.0,anglès,3.0,4.0,4.0,yes,yes,yes,piano,8,bajo,8,,,nada,68.0,yes
48,2024-05-06_13h48.36.628,Experiment4_uns,s173,29.0,feminino,right,espanya,català,Bachelor degree,no,no,B,1,conjunction_syn,L3,syncopated,s1,r2,48,Online_conjL3_syn//b.ñe.sa14.0.666.wav,ñe,ko,li,sa,sil,fu,je,gu,sil1,ga,sil2,['catch'],[1.1308999999994285],[1.1308999999994285],0.666,no_beat,0.4648999999994284,0.4648999999994284,"[""space""]",44:48,2,testWhatL1Uns//time_viol.r1.s1.0.wav,3.0,what,unsyncopated,a,s1,no_rule,time,L1,z,0.3962,7.0,0.0,1.4291,3.0,2.0,català,0.0,castellà,3.0,anglès,3.0,4.0,4.0,yes,yes,yes,piano,8,bajo,8,,,nada,68.0,yes
49,2024-05-06_13h48.36.628,Experiment4_uns,s173,29.0,feminino,right,espanya,català,Bachelor degree,no,no,B,1,conjunction_syn,L3,syncopated,s2,r1,49,Online_conjL3_syn//b.ñe.sa12.none.none.wav,ko,li,di,chu,sil,do,ga,mo,sil1,ka,sil2,['-'],,,none,none,,,,44:48,2,testWhatL1Uns//r2.s1.2.wav,3.0,what,unsyncopated,b,s1,rule,rule,L1,z,0.7991,7.0,1.0,0.6004,3.0,2.0,català,0.0,castellà,3.0,anglès,3.0,4.0,4.0,yes,yes,yes,piano,8,bajo,8,,,nada,68.0,yes
50,2024-05-06_13h48.36.628,Experiment4_uns,s173,29.0,feminino,right,espanya,català,Bachelor degree,no,no,B,1,conjunction_syn,L3,syncopated,s2,r2,50,Online_conjL3_syn//b.ñe.sa13.666.1554.wav,fu,li,ka,ñe,sil,ga,le,sa,sil1,je,sil2,['catch'],[2.2185000000000628],[2.2185000000000628],1.554,no_beat,0.6645000000000627,0.6645000000000627,"[""space""]",44:48,2,testWhatL1Uns//r2.s1.0.wav,3.0,what,unsyncopated,b,s1,rule,rule,L1,z,0.3296,6.0,1.0,1.3504,3.0,2.0,català,0.0,castellà,3.0,anglès,3.0,4.0,4.0,yes,yes,yes,piano,8,bajo,8,,,nada,68.0,yes
51,2024-05-06_13h48.36.628,Experiment4_uns,s173,29.0,feminino,right,espanya,català,Bachelor degree,no,no,B,1,conjunction_syn,L3,syncopated,s2,r1,51,Online_conjL3_syn//b.ñe.sa15.none.none.wav,di,gu,le,chu,sil,do,fu,mo,sil1,ji,sil2,['-'],,,none,none,,,,44:48,2,testWhatL1Uns//r1.s1.1.wav,3.0,what,unsyncopated,a,s1,rule,rule,L1,z,0.3502,5.0,1.0,1.9658,3.0,2.0,català,0.0,castellà,3.0,anglès,3.0,4.0,4.0,yes,yes,yes,piano,8,bajo,8,,,nada,68.0,yes
52,2024-05-06_13h48.36.628,Experiment4_uns,s173,29.0,feminino,right,espanya,català,Bachelor degree,no,no,B,1,conjunction_syn,L3,syncopated,s2,r2,52,Online_conjL3_syn//a.chu.mo26.none.none.wav,do,ga,fu,ñe,sil,ko,di,sa,sil1,le,sil2,['-'],,,none,none,,,,24:28,1,testWhatL1Uns//time_viol.r1.s2.0.wav,3.0,what,unsyncopated,a,s2,no_rule,time,L1,z,0.5334,6.0,0.0,1.0568,3.0,2.0,català,0.0,castellà,3.0,anglès,3.0,4.0,4.0,yes,yes,yes,piano,8,bajo,8,,,nada,68.0,yes
53,2024-05-06_13h48.36.628,Experiment4_uns,s173,29.0,feminino,right,espanya,català,Bachelor degree,no,no,B,1,conjunction_syn,L3,syncopated,s2,r1,53,Online_conjL3_syn//a.chu.mo24.666.1554.wav,fu,je,gu,chu,sil,ga,ka,mo,sil1,le,sil2,['catch'],[1.2342000000001008],[1.2342000000001008],0.666,no_beat,0.5682000000001007,0.5682000000001007,"[""space""]",24:28,1,testWhatL1Uns//r1.s1.0.wav,3.0,what,unsyncopated,a,s1,rule,rule,L1,z,0.4499,7.0,1.0,0.4004,3.0,2.0,català,0.0,castellà,3.0,anglès,3.0,4.0,4.0,yes,yes,yes,piano,8,bajo,8,,,nada,68.0,yes
54,2024-05-06_13h48.36.628,Experiment4_uns,s173,29.0,feminino,right,espanya,català,Bachelor degree,no,no,B,1,conjunction_syn,L3,syncopated,s1,r1,54,Online_conjL3_syn//a.chu.mo25.0.666.wav,chu,gu,ko,mo,sil,do,ga,fu,sil1,li,sil2,['catch'],[0.771099999999592],[0.771099999999592],0.0,beat,0.771099999999592,0.771099999999592,"[""space""]",24:28,1,testWhatL1Uns//r1.s2.1.wav,3.0,what,unsyncopated,a,s2,rule,rule,L1,m,3.4668,1.0,0.0,0.6547,3.0,2.0,català,0.0,castellà,3.0,anglès,3.0,4.0,4.0,yes,yes,yes,piano,8,bajo,8,,,nada,68.0,yes
55,2024-05-06_13h48.36.628,Experiment4_uns,s173,29.0,feminino,right,espanya,català,Bachelor degree,no,no,B,1,conjunction_syn,L3,syncopated,s2,r2,55,Online_conjL3_syn//a.chu.mo27.none.none.wav,ji,li,ko,ñe,sil,di,fu,sa,sil1,le,sil2,['-'],,,none,none,,,,24:28,1,testWhatL1Uns//r2.s2.2.wav,3.0,what,unsyncopated,b,s2,rule,rule,L1,z,0.553,6.0,1.0,1.7684,3.0,2.0,català,0.0,castellà,3.0,anglès,3.0,4.0,4.0,yes,yes,yes,piano,8,bajo,8,,,nada,68.0,yes
56,2024-05-06_13h48.36.628,Experiment4_uns,s173,29.0,feminino,right,espanya,català,Bachelor degree,no,no,B,1,conjunction_syn,L3,syncopated,s1,r2,56,Online_conjL3_syn//d.ji.li24.222.1110.wav,ñe,ji,ga,sa,sil,li,fu,ka,sil1,di,sil2,['catch'],[1.7486000000005788],[1.7486000000005788],1.11,no_beat,0.6386000000005787,0.6386000000005787,"[""space""]",120:124,4,testWhatL1Uns//r2.s1.1.wav,3.0,what,unsyncopated,b,s1,rule,rule,L1,z,0.3724,7.0,1.0,0.4502,3.0,2.0,català,0.0,castellà,3.0,anglès,3.0,4.0,4.0,yes,yes,yes,piano,8,bajo,8,,,nada,68.0,yes
57,2024-05-06_13h48.36.628,Experiment4_uns,s173,29.0,feminino,right,espanya,català,Bachelor degree,no,no,B,1,conjunction_syn,L3,syncopated,s2,r1,57,Online_conjL3_syn//d.ji.li25.none.none.wav,le,fu,ka,chu,sil,ga,je,mo,sil1,gu,sil2,['-'],,,none,none,,,,120:124,4,testWhatL1Uns//r1.s1.2.wav,3.0,what,unsyncopated,a,s1,rule,rule,L1,z,0.4862,6.0,1.0,0.5835,3.0,2.0,català,0.0,castellà,3.0,anglès,3.0,4.0,4.0,yes,yes,yes,piano,8,bajo,8,,,nada,68.0,yes
58,2024-05-06_13h48.36.628,Experiment4_uns,s173,29.0,feminino,right,espanya,català,Bachelor degree,no,no,B,1,conjunction_syn,L3,syncopated,s1,r1,58,Online_conjL3_syn//d.ji.li27.none.none.wav,chu,je,ga,mo,sil,gu,do,le,sil1,ka,sil2,['-'],,,none,none,,,,120:124,4,testWhatL1Uns//cat_viol.r2.s1.0.wav,3.0,what,unsyncopated,b,s1,no_rule,cat,L1,z,0.4056,6.0,0.0,0.773,3.0,2.0,català,0.0,castellà,3.0,anglès,3.0,4.0,4.0,yes,yes,yes,piano,8,bajo,8,,,nada,68.0,yes
59,2024-05-06_13h48.36.628,Experiment4_uns,s173,29.0,feminino,right,espanya,català,Bachelor degree,no,no,B,1,conjunction_syn,L3,syncopated,s1,r2,59,Online_conjL3_syn//d.ji.li26.1554.222.wav,ñe,li,je,sa,sil,fu,ga,ji,sil1,ka,sil2,['catch'],[0.8995999999996229],[0.8995999999996229],0.222,no_beat,0.677599999999623,0.677599999999623,"[""space""]",120:124,4,testWhatL1Uns//dep_viol.r2.s2.0.wav,3.0,what,unsyncopated,b,s2,no_rule,dep,L1,z,2.5335,5.0,0.0,0.5001,3.0,2.0,català,0.0,castellà,3.0,anglès,3.0,4.0,4.0,yes,yes,yes,piano,8,bajo,8,,,nada,68.0,yes
60,2024-05-06_13h48.36.628,Experiment4_uns,s173,29.0,feminino,right,espanya,català,Bachelor degree,no,no,B,1,conjunction_syn,L3,syncopated,s2,r2,60,Online_conjL3_syn//a.chu.mo7.none.none.wav,ko,le,fu,ñe,sil,ka,gu,sa,sil1,do,sil2,['-'],,,none,none,,,,4:8,1,testWhatL1Uns//r2.s2.0.wav,3.0,what,unsyncopated,b,s2,rule,rule,L1,z,2.2106,5.0,1.0,0.1851,3.0,2.0,català,0.0,castellà,3.0,anglès,3.0,4.0,4.0,yes,yes,yes,piano,8,bajo,8,,,nada,68.0,yes
61,2024-05-06_13h48.36.628,Experiment4_uns,s173,29.0,feminino,right,espanya,català,Bachelor degree,no,no,B,1,conjunction_syn,L3,syncopated,s2,r1,61,Online_conjL3_syn//a.chu.mo6.666.1554.wav,ko,di,ga,chu,sil,li,gu,mo,sil1,do,sil2,['catch'],[1.299399999999423],[1.299399999999423],0.666,no_beat,0.633399999999423,0.633399999999423,"[""space""]",4:8,1,testWhatL1Uns//dep_viol.r1.s2.0.wav,3.0,what,unsyncopated,a,s2,no_rule,dep,L1,z,0.0757,7.0,0.0,0.3169,3.0,2.0,català,0.0,castellà,3.0,anglès,3.0,4.0,4.0,yes,yes,yes,piano,8,bajo,8,,,nada,68.0,yes
62,2024-05-06_13h48.36.628,Experiment4_uns,s173,29.0,feminino,right,espanya,català,Bachelor degree,no,no,B,1,conjunction_syn,L3,syncopated,s2,r2,62,Online_conjL3_syn//a.chu.mo5.none.none.wav,fu,do,le,ñe,sil,di,ga,sa,sil1,ji,sil2,['-'],,,none,none,,,,4:8,1,testWhatL1Uns//cat_viol.r1.s1.0.wav,3.0,what,unsyncopated,a,s1,no_rule,cat,L1,z,1.4965,6.0,0.0,0.1378,3.0,2.0,català,0.0,castellà,3.0,anglès,3.0,4.0,4.0,yes,yes,yes,piano,8,bajo,8,,,nada,68.0,yes
63,2024-05-06_13h48.36.628,Experiment4_uns,s173,29.0,feminino,right,espanya,català,Bachelor degree,no,no,B,1,conjunction_syn,L3,syncopated,s2,r2,63,Online_conjL3_syn//a.chu.mo4.none.none.wav,le,ji,gu,ñe,sil,li,ga,sa,sil1,ka,sil2,['-'],,,none,none,,,,4:8,1,testWhatL1Uns//r1.s2.2.wav,3.0,what,unsyncopated,a,s2,rule,rule,L1,m,2.4165,1.0,0.0,0.2948,3.0,2.0,català,0.0,castellà,3.0,anglès,3.0,4.0,4.0,yes,yes,yes,piano,8,bajo,8,,,nada,68.0,yes
64,2024-05-06_13h48.36.628,Experiment4_uns,s173,29.0,feminino,right,espanya,català,Bachelor degree,no,no,B,1,conjunction_syn,L3,syncopated,s2,r1,64,Online_conjL3_syn//a.chu.mo9.666.1554.wav,ka,ko,di,chu,sil,li,ga,mo,sil1,gu,sil2,['catch'],[1.2492000000002008],[1.2492000000002008],0.666,no_beat,0.5832000000002008,0.5832000000002008,"[""space""]",8:12,1,testWhatL1Uns//dep_viol.r1.s1.0.wav,3.0,what,unsyncopated,a,s1,no_rule,dep,L1,m,1.8335,2.0,1.0,0.3002,3.0,2.0,català,0.0,castellà,3.0,anglès,3.0,4.0,4.0,yes,yes,yes,piano,8,bajo,8,,,nada,68.0,yes
65,2024-05-06_13h48.36.628,Experiment4_uns,s173,29.0,feminino,right,espanya,català,Bachelor degree,no,no,B,1,conjunction_syn,L3,syncopated,s2,r2,65,Online_conjL3_syn//a.chu.mo11.none.none.wav,ka,di,je,ñe,sil,ga,ko,sa,sil1,ji,sil2,['-'],,,none,none,,,,8:12,1,testWhatL1Uns//cat_viol.r1.s2.0.wav,3.0,what,unsyncopated,a,s2,no_rule,cat,L1,m,6.9166,1.0,1.0,0.7187,3.0,2.0,català,0.0,castellà,3.0,anglès,3.0,4.0,4.0,yes,yes,yes,piano,8,bajo,8,,,nada,68.0,yes
66,2024-05-06_13h48.36.628,Experiment4_uns,s173,29.0,feminino,right,espanya,català,Bachelor degree,no,no,B,1,conjunction_syn,L3,syncopated,s1,r2,66,Online_conjL3_syn//a.chu.mo10.none.none.wav,ñe,je,gu,sa,sil,ko,fu,ji,sil1,di,sil2,['-'],,,none,none,,,,8:12,1,testWhatL1Uns//dep_viol.r2.s1.0.wav,3.0,what,unsyncopated,b,s1,no_rule,dep,L1,m,6.8333,1.0,1.0,0.2503,3.0,2.0,català,0.0,castellà,3.0,anglès,3.0,4.0,4.0,yes,yes,yes,piano,8,bajo,8,,,nada,68.0,yes
67,2024-05-06_13h48.36.628,Experiment4_uns,s173,29.0,feminino,right,espanya,català,Bachelor degree,no,no,B,1,conjunction_syn,L3,syncopated,s1,r2,67,Online_conjL3_syn//a.chu.mo8.none.none.wav,ñe,ga,fu,sa,sil,ji,li,je,sil1,le,sil2,['-'],,,none,none,,,,8:12,1,testWhatL1Uns//time_viol.r2.s1.0.wav,3.0,what,unsyncopated,b,s1,no_rule,time,L1,z,1.5153,6.0,0.0,1.4236,3.0,2.0,català,0.0,castellà,3.0,anglès,3.0,4.0,4.0,yes,yes,yes,piano,8,bajo,8,,,nada,68.0,yes
68,2024-05-06_13h48.36.628,Experiment4_uns,s173,29.0,feminino,right,espanya,català,Bachelor degree,no,no,B,1,conjunction_syn,L3,syncopated,s2,r2,68,Online_conjL3_syn//c.gu.je7.222.444.wav,ko,gu,je,ñe,sil,ji,fu,sa,sil1,ka,sil2,['catch'],[1.065600000000586],[1.065600000000586],0.444,no_beat,0.6216000000005861,0.6216000000005861,"[""space""]",68:72,3,testWhatL1Uns//cat_viol.r2.s2.0.wav,3.0,what,unsyncopated,b,s2,no_rule,cat,L1,z,0.6997,5.0,0.0,0.1665,3.0,2.0,català,0.0,castellà,3.0,anglès,3.0,4.0,4.0,yes,yes,yes,piano,8,bajo,8,,,nada,68.0,yes
69,2024-05-06_13h48.36.628,Experiment4_uns,s173,29.0,feminino,right,espanya,català,Bachelor degree,no,no,B,1,conjunction_syn,L3,syncopated,s1,r2,69,Online_conjL3_syn//c.gu.je4.none.none.wav,ñe,ga,do,sa,sil,ji,ka,fu,sil1,li,sil2,['-'],,,none,none,,,,68:72,3,testWhatL1Uns//time_viol.r2.s2.0.wav,3.0,what,unsyncopated,b,s2,no_rule,time,L1,z,3.35,5.0,0.0,0.1501,3.0,2.0,català,0.0,castellà,3.0,anglès,3.0,4.0,4.0,yes,yes,yes,piano,8,bajo,8,,,nada,68.0,yes
70,2024-05-06_13h48.36.628,Experiment4_uns,s173,29.0,feminino,right,espanya,català,Bachelor degree,no,no,B,1,conjunction_syn,L3,syncopated,s1,r2,70,Online_conjL3_syn//c.gu.je6.none.none.wav,ñe,di,ka,sa,sil,le,ko,do,sil1,ji,sil2,['-'],,,none,none,,,,68:72,3,testWhatL1Uns//r2.s2.1.wav,3.0,what,unsyncopated,b,s2,rule,rule,L1,z,0.4332,7.0,1.0,0.2,3.0,2.0,català,0.0,castellà,3.0,anglès,3.0,4.0,4.0,yes,yes,yes,piano,8,bajo,8,,,nada,68.0,yes
71,2024-05-06_13h48.36.628,Experiment4_uns,s173,29.0,feminino,right,espanya,català,Bachelor degree,no,no,B,1,conjunction_syn,L3,syncopated,s2,r2,71,Online_conjL3_syn//c.gu.je5.1332.222.wav,li,je,ko,ñe,sil,di,gu,sa,sil1,do,sil2,['catch'],[1.3495000000000346],[1.3495000000000346],0.222,no_beat,1.1275000000000346,1.1275000000000346,"[""space""]",68:72,3,testWhatL1Uns//r1.s2.0.wav,3.0,what,unsyncopated,a,s2,rule,rule,L1,z,0.6671,6.0,1.0,0.4832,3.0,2.0,català,0.0,castellà,3.0,anglès,3.0,4.0,4.0,yes,yes,yes,piano,8,bajo,8,,,nada,68.0,yes
72,2024-05-06_13h48.36.628,Experiment4_uns,s173,29.0,feminino,right,espanya,català,Bachelor degree,no,no,B,1,conjunction_syn,L3,syncopated,s2,r1,72,Online_conjL3_syn//a.chu.mo22.666.1554.wav,ka,li,le,chu,sil,di,ko,mo,sil1,je,sil2,['catch'],[1.1402999999997974],[1.1402999999997974],0.666,no_beat,0.4742999999997973,0.4742999999997973,"[""space""]",20:24,1,testConjL4Uns//r1.s1.1.wav,4.0,conjunction_un,unsyncopated,a,s1,rule,rule,L4,z,0.5774,7.0,1.0,0.2996,3.0,2.0,català,0.0,castellà,3.0,anglès,3.0,4.0,4.0,yes,yes,yes,piano,8,bajo,8,,,nada,68.0,yes
73,2024-05-06_13h48.36.628,Experiment4_uns,s173,29.0,feminino,right,espanya,català,Bachelor degree,no,no,B,1,conjunction_syn,L3,syncopated,s2,r1,73,Online_conjL3_syn//a.chu.mo23.666.1554.wav,gu,ga,le,chu,sil,fu,je,mo,sil1,ka,sil2,['catch'],[1.6617999999998574],[1.6617999999998574],0.666,no_beat,0.9957999999998574,0.9957999999998574,"[""space""]",20:24,1,testConjL4Uns//dep_viol.r2.s1.0.wav,4.0,conjunction_un,unsyncopated,b,s1,no_rule,dep,L4,z,2.9947,5.0,0.0,0.2024,3.0,2.0,català,0.0,castellà,3.0,anglès,3.0,4.0,4.0,yes,yes,yes,piano,8,bajo,8,,,nada,68.0,yes
74,2024-05-06_13h48.36.628,Experiment4_uns,s173,29.0,feminino,right,espanya,català,Bachelor degree,no,no,B,1,conjunction_syn,L3,syncopated,s2,r1,74,Online_conjL3_syn//a.chu.mo21.666.1554.wav,gu,ka,je,chu,sil,do,ko,mo,sil1,li,sil2,['catch'],[1.8494999999999209],[1.8494999999999209],0.666,no_beat,1.183499999999921,1.183499999999921,"[""space""]",20:24,1,testConjL4Uns//r2.s2.1.wav,4.0,conjunction_un,unsyncopated,b,s2,rule,rule,L4,z,2.1342,5.0,1.0,0.1832,3.0,2.0,català,0.0,castellà,3.0,anglès,3.0,4.0,4.0,yes,yes,yes,piano,8,bajo,8,,,nada,68.0,yes
75,2024-05-06_13h48.36.628,Experiment4_uns,s173,29.0,feminino,right,espanya,català,Bachelor degree,no,no,B,1,conjunction_syn,L3,syncopated,s1,r1,75,Online_conjL3_syn//a.chu.mo20.0.666.wav,chu,do,li,mo,sil,je,ka,ga,sil1,gu,sil2,['catch'],[0.8722999999997683],[0.8722999999997683],0.0,beat,0.8722999999997683,0.8722999999997683,"[""space""]",20:24,1,testConjL4Uns//time_viol.r2.s1.0.wav,4.0,conjunction_un,unsyncopated,b,s1,no_rule,time,L4,z,0.5666,5.0,0.0,0.6502,3.0,2.0,català,0.0,castellà,3.0,anglès,3.0,4.0,4.0,yes,yes,yes,piano,8,bajo,8,,,nada,68.0,yes
76,2024-05-06_13h48.36.628,Experiment4_uns,s173,29.0,feminino,right,espanya,català,Bachelor degree,no,no,B,1,conjunction_syn,L3,syncopated,s2,r2,76,Online_conjL3_syn//d.ji.li9.none.none.wav,ka,le,do,ñe,sil,fu,ko,sa,sil1,je,sil2,['-'],,,none,none,,,,104:108,4,testConjL4Uns//r2.s1.2.wav,4.0,conjunction_un,unsyncopated,b,s1,rule,rule,L4,z,0.5836,7.0,1.0,0.2001,3.0,2.0,català,0.0,castellà,3.0,anglès,3.0,4.0,4.0,yes,yes,yes,piano,8,bajo,8,,,nada,68.0,yes
77,2024-05-06_13h48.36.628,Experiment4_uns,s173,29.0,feminino,right,espanya,català,Bachelor degree,no,no,B,1,conjunction_syn,L3,syncopated,s1,r1,77,Online_conjL3_syn//d.ji.li10.1554.444.wav,chu,je,li,mo,sil,do,fu,ji,sil1,ko,sil2,['catch'],[0.9963000000007014],[0.9963000000007014],0.444,no_beat,0.5523000000007015,0.5523000000007015,"[""space""]",104:108,4,testConjL4Uns//dep_viol.r1.s1.0.wav,4.0,conjunction_un,unsyncopated,a,s1,no_rule,dep,L4,z,2.1448,4.0,0.0,0.1537,3.0,2.0,català,0.0,castellà,3.0,anglès,3.0,4.0,4.0,yes,yes,yes,piano,8,bajo,8,,,nada,68.0,yes
78,2024-05-06_13h48.36.628,Experiment4_uns,s173,29.0,feminino,right,espanya,català,Bachelor degree,no,no,B,1,conjunction_syn,L3,syncopated,s2,r1,78,Online_conjL3_syn//d.ji.li11.1332.0.wav,li,gu,do,chu,sil,le,ji,mo,sil1,je,sil2,['catch'],[0.4817999999999074],[0.4817999999999074],0.0,beat,0.4817999999999074,0.4817999999999074,"[""space""]",104:108,4,testConjL4Uns//r2.s1.0.wav,4.0,conjunction_un,unsyncopated,b,s1,rule,rule,L4,z,2.3673,6.0,1.0,0.1502,3.0,2.0,català,0.0,castellà,3.0,anglès,3.0,4.0,4.0,yes,yes,yes,piano,8,bajo,8,,,nada,68.0,yes
79,2024-05-06_13h48.36.628,Experiment4_uns,s173,29.0,feminino,right,espanya,català,Bachelor degree,no,no,B,1,conjunction_syn,L3,syncopated,s2,r2,79,Online_conjL3_syn//d.ji.li8.444.0.wav,li,fu,ji,ñe,sil,ko,je,sa,sil1,gu,sil2,['catch'],[0.56899999999996],[0.56899999999996],0.0,beat,0.56899999999996,0.56899999999996,"[""space""]",104:108,4,testConjL4Uns//r1.s2.2.wav,4.0,conjunction_un,unsyncopated,a,s2,rule,rule,L4,z,0.4503,7.0,1.0,0.1836,3.0,2.0,català,0.0,castellà,3.0,anglès,3.0,4.0,4.0,yes,yes,yes,piano,8,bajo,8,,,nada,68.0,yes
80,2024-05-06_13h48.36.628,Experiment4_uns,s173,29.0,feminino,right,espanya,català,Bachelor degree,no,no,B,1,conjunction_syn,L3,syncopated,s1,r1,80,Online_conjL3_syn//c.gu.je24.1554.1110.wav,chu,ji,ko,mo,sil,je,li,gu,sil1,ka,sil2,['catch'],[2.1472000000002254],[2.1472000000002254],1.11,no_beat,1.0372000000002253,1.0372000000002253,"[""space""]",88:92,3,testConjL4Uns//cat_viol.r2.s1.0.wav,4.0,conjunction_un,unsyncopated,b,s1,no_rule,cat,L4,z,0.9255,3.0,0.0,0.0998,3.0,2.0,català,0.0,castellà,3.0,anglès,3.0,4.0,4.0,yes,yes,yes,piano,8,bajo,8,,,nada,68.0,yes
81,2024-05-06_13h48.36.628,Experiment4_uns,s173,29.0,feminino,right,espanya,català,Bachelor degree,no,no,B,1,conjunction_syn,L3,syncopated,s2,r2,81,Online_conjL3_syn//c.gu.je25.none.none.wav,fu,ka,di,ñe,sil,do,le,sa,sil1,ji,sil2,['-'],,,none,none,,,,88:92,3,testConjL4Uns//cat_viol.r2.s2.0.wav,4.0,conjunction_un,unsyncopated,b,s2,no_rule,cat,L4,z,2.791,7.0,0.0,0.4299,3.0,2.0,català,0.0,castellà,3.0,anglès,3.0,4.0,4.0,yes,yes,yes,piano,8,bajo,8,,,nada,68.0,yes
82,2024-05-06_13h48.36.628,Experiment4_uns,s173,29.0,feminino,right,espanya,català,Bachelor degree,no,no,B,1,conjunction_syn,L3,syncopated,s1,r1,82,Online_conjL3_syn//c.gu.je26.none.none.wav,chu,ji,do,mo,sil,ga,le,ko,sil1,ka,sil2,['-'],,,none,none,,,,88:92,3,testConjL4Uns//r1.s1.0.wav,4.0,conjunction_un,unsyncopated,a,s1,rule,rule,L4,z,1.4325,7.0,1.0,0.3506,3.0,2.0,català,0.0,castellà,3.0,anglès,3.0,4.0,4.0,yes,yes,yes,piano,8,bajo,8,,,nada,68.0,yes
83,2024-05-06_13h48.36.628,Experiment4_uns,s173,29.0,feminino,right,espanya,català,Bachelor degree,no,no,B,1,conjunction_syn,L3,syncopated,s1,r2,83,Online_conjL3_syn//c.gu.je27.none.none.wav,ñe,li,fu,sa,sil,di,le,ko,sil1,ji,sil2,['-'],,,none,none,,,,88:92,3,testConjL4Uns//r2.s2.2.wav,4.0,conjunction_un,unsyncopated,b,s2,rule,rule,L4,m,1.5833,1.0,0.0,0.2334,3.0,2.0,català,0.0,castellà,3.0,anglès,3.0,4.0,4.0,yes,yes,yes,piano,8,bajo,8,,,nada,68.0,yes
84,2024-05-06_13h48.36.628,Experiment4_uns,s173,29.0,feminino,right,espanya,català,Bachelor degree,no,no,B,1,conjunction_syn,L3,syncopated,s2,r2,84,Online_conjL3_syn//b.ñe.sa19.666.1554.wav,do,fu,le,ñe,sil,li,je,sa,sil1,ji,sil2,['catch'],[1.997200000000248],[1.997200000000248],1.554,no_beat,0.443200000000248,0.443200000000248,"[""space""]",48:52,2,testConjL4Uns//cat_viol.r1.s1.0.wav,4.0,conjunction_un,unsyncopated,a,s1,no_rule,cat,L4,z,0.2989,7.0,0.0,0.3936,3.0,2.0,català,0.0,castellà,3.0,anglès,3.0,4.0,4.0,yes,yes,yes,piano,8,bajo,8,,,nada,68.0,yes
85,2024-05-06_13h48.36.628,Experiment4_uns,s173,29.0,feminino,right,espanya,català,Bachelor degree,no,no,B,1,conjunction_syn,L3,syncopated,s1,r1,85,Online_conjL3_syn//b.ñe.sa18.none.none.wav,chu,li,ga,mo,sil,di,do,je,sil1,le,sil2,['-'],,,none,none,,,,48:52,2,testConjL4Uns//r1.s2.0.wav,4.0,conjunction_un,unsyncopated,a,s2,rule,rule,L4,z,0.3667,7.0,1.0,0.3411,3.0,2.0,català,0.0,castellà,3.0,anglès,3.0,4.0,4.0,yes,yes,yes,piano,8,bajo,8,,,nada,68.0,yes
86,2024-05-06_13h48.36.628,Experiment4_uns,s173,29.0,feminino,right,espanya,català,Bachelor degree,no,no,B,1,conjunction_syn,L3,syncopated,s1,r2,86,Online_conjL3_syn//b.ñe.sa16.0.666.wav,ñe,ka,le,sa,sil,do,ga,ji,sil1,fu,sil2,['catch'],[1.1356000000005224],[1.1356000000005224],0.666,no_beat,0.4696000000005224,0.4696000000005224,"[""space""]",48:52,2,testConjL4Uns//dep_viol.r1.s2.0.wav,4.0,conjunction_un,unsyncopated,a,s2,no_rule,dep,L4,m,1.5865,1.0,1.0,0.2504,3.0,2.0,català,0.0,castellà,3.0,anglès,3.0,4.0,4.0,yes,yes,yes,piano,8,bajo,8,,,nada,68.0,yes
87,2024-05-06_13h48.36.628,Experiment4_uns,s173,29.0,feminino,right,espanya,català,Bachelor degree,no,no,B,1,conjunction_syn,L3,syncopated,s2,r1,87,Online_conjL3_syn//b.ñe.sa17.none.none.wav,di,ka,le,chu,sil,ji,ga,mo,sil1,ko,sil2,['-'],,,none,none,,,,48:52,2,testConjL4Uns//dep_viol.r2.s2.0.wav,4.0,conjunction_un,unsyncopated,b,s2,no_rule,dep,L4,z,1.1667,7.0,0.0,0.25,3.0,2.0,català,0.0,castellà,3.0,anglès,3.0,4.0,4.0,yes,yes,yes,piano,8,bajo,8,,,nada,68.0,yes
88,2024-05-06_13h48.36.628,Experiment4_uns,s173,29.0,feminino,right,espanya,català,Bachelor degree,no,no,B,1,conjunction_syn,L3,syncopated,s1,r2,88,Online_conjL3_syn//b.ñe.sa9.0.666.wav,ñe,ko,je,sa,sil,fu,li,di,sil1,ji,sil2,['catch'],[1.1337000000000899],[1.1337000000000899],0.666,no_beat,0.4677000000000898,0.4677000000000898,"[""space""]",40:44,2,testConjL4Uns//time_viol.r1.s1.0.wav,4.0,conjunction_un,unsyncopated,a,s1,no_rule,time,L4,z,0.0777,7.0,0.0,0.3336,3.0,2.0,català,0.0,castellà,3.0,anglès,3.0,4.0,4.0,yes,yes,yes,piano,8,bajo,8,,,nada,68.0,yes
89,2024-05-06_13h48.36.628,Experiment4_uns,s173,29.0,feminino,right,espanya,català,Bachelor degree,no,no,B,1,conjunction_syn,L3,syncopated,s2,r2,89,Online_conjL3_syn//b.ñe.sa11.666.1554.wav,li,fu,ga,ñe,sil,do,ka,sa,sil1,ko,sil2,['catch'],[2.062799999999811],[2.062799999999811],1.554,no_beat,0.508799999999811,0.508799999999811,"[""space""]",40:44,2,testConjL4Uns//r2.s2.0.wav,4.0,conjunction_un,unsyncopated,b,s2,rule,rule,L4,z,1.6501,7.0,1.0,0.3103,3.0,2.0,català,0.0,castellà,3.0,anglès,3.0,4.0,4.0,yes,yes,yes,piano,8,bajo,8,,,nada,68.0,yes
90,2024-05-06_13h48.36.628,Experiment4_uns,s173,29.0,feminino,right,espanya,català,Bachelor degree,no,no,B,1,conjunction_syn,L3,syncopated,s1,r1,90,Online_conjL3_syn//b.ñe.sa10.none.none.wav,chu,ji,li,mo,sil,je,le,gu,sil1,do,sil2,['-'],,,none,none,,,,40:44,2,testConjL4Uns//cat_viol.r1.s2.0.wav,4.0,conjunction_un,unsyncopated,a,s2,no_rule,cat,L4,z,2.3163,5.0,0.0,0.2235,3.0,2.0,català,0.0,castellà,3.0,anglès,3.0,4.0,4.0,yes,yes,yes,piano,8,bajo,8,,,nada,68.0,yes
91,2024-05-06_13h48.36.628,Experiment4_uns,s173,29.0,feminino,right,espanya,català,Bachelor degree,no,no,B,1,conjunction_syn,L3,syncopated,s1,r2,91,Online_conjL3_syn//b.ñe.sa8.0.666.wav,ñe,do,di,sa,sil,je,ko,le,sil1,gu,sil2,['catch'],[1.3464999999999918],[1.3464999999999918],0.666,no_beat,0.6804999999999918,0.6804999999999918,"[""space""]",40:44,2,testConjL4Uns//r1.s1.2.wav,4.0,conjunction_un,unsyncopated,a,s1,rule,rule,L4,z,0.0087,7.0,1.0,1.2502,3.0,2.0,català,0.0,castellà,3.0,anglès,3.0,4.0,4.0,yes,yes,yes,piano,8,bajo,8,,,nada,68.0,yes
92,2024-05-06_13h48.36.628,Experiment4_uns,s173,29.0,feminino,right,espanya,català,Bachelor degree,no,no,B,1,conjunction_syn,L3,syncopated,s1,r2,92,Online_conjL3_syn//d.ji.li23.none.none.wav,ñe,ga,ko,sa,sil,fu,do,le,sil1,gu,sil2,['false alarm'],[2.1312999999998965],[2.1312999999998965],none,none,,,"[""space""]",116:120,4,testConjL4Uns//time_viol.r2.s2.0.wav,4.0,conjunction_un,unsyncopated,b,s2,no_rule,time,L4,z,2.0844,5.0,0.0,0.3839,3.0,2.0,català,0.0,castellà,3.0,anglès,3.0,4.0,4.0,yes,yes,yes,piano,8,bajo,8,,,nada,68.0,yes
93,2024-05-06_13h48.36.628,Experiment4_uns,s173,29.0,feminino,right,espanya,català,Bachelor degree,no,no,B,1,conjunction_syn,L3,syncopated,s2,r1,93,Online_conjL3_syn//d.ji.li20.none.none.wav,di,le,ko,chu,sil,ka,do,mo,sil1,gu,sil2,['-'],,,none,none,,,,116:120,4,testConjL4Uns//r1.s2.1.wav,4.0,conjunction_un,unsyncopated,a,s2,rule,rule,L4,z,0.4723,7.0,1.0,0.4833,3.0,2.0,català,0.0,castellà,3.0,anglès,3.0,4.0,4.0,yes,yes,yes,piano,8,bajo,8,,,nada,68.0,yes
94,2024-05-06_13h48.36.628,Experiment4_uns,s173,29.0,feminino,right,espanya,català,Bachelor degree,no,no,B,1,conjunction_syn,L3,syncopated,s2,r1,94,Online_conjL3_syn//d.ji.li21.none.none.wav,ko,gu,je,chu,sil,ka,ga,mo,sil1,di,sil2,['-'],,,none,none,,,,116:120,4,testConjL4Uns//r2.s1.1.wav,4.0,conjunction_un,unsyncopated,b,s1,rule,rule,L4,z,0.3402,7.0,1.0,0.6823,3.0,2.0,català,0.0,castellà,3.0,anglès,3.0,4.0,4.0,yes,yes,yes,piano,8,bajo,8,,,nada,68.0,yes
95,2024-05-06_13h48.36.628,Experiment4_uns,s173,29.0,feminino,right,espanya,català,Bachelor degree,no,no,B,1,conjunction_syn,L3,syncopated,s2,r2,95,Online_conjL3_syn//d.ji.li22.0.1110.wav,ji,do,le,ñe,sil,li,ga,sa,sil1,je,sil2,['catch'],[2.0996999999993022],[2.0996999999993022],1.11,no_beat,0.989699999999302,0.989699999999302,"[""space""]",116:120,4,testConjL4Uns//time_viol.r1.s2.0.wav,4.0,conjunction_un,unsyncopated,a,s2,no_rule,time,L4,z,2.0315,4.0,0.0,0.8608,3.0,2.0,català,0.0,castellà,3.0,anglès,3.0,4.0,4.0,yes,yes,yes,piano,8,bajo,8,,,nada,68.0,yes
96,2024-05-06_13h48.36.628,Experiment4_uns,s173,29.0,feminino,right,espanya,català,Bachelor degree,no,no,B,1,conjunction_syn,L3,syncopated,s2,r1,96,Online_conjL3_syn//c.gu.je30.none.none.wav,fu,di,ga,chu,sil,ko,li,mo,sil1,ka,sil2,['-'],,,none,none,,,,92:96,3,,,,,,,,,,,,,,,3.0,2.0,català,0.0,castellà,3.0,anglès,3.0,4.0,4.0,yes,yes,yes,piano,8,bajo,8,,,nada,68.0,yes
97,2024-05-06_13h48.36.628,Experiment4_uns,s173,29.0,feminino,right,espanya,català,Bachelor degree,no,no,B,1,conjunction_syn,L3,syncopated,s2,r1,97,Online_conjL3_syn//c.gu.je31.none.none.wav,do,li,ga,chu,sil,ka,ko,mo,sil1,fu,sil2,['-'],,,none,none,,,,92:96,3,,,,,,,,,,,,,,,3.0,2.0,català,0.0,castellà,3.0,anglès,3.0,4.0,4.0,yes,yes,yes,piano,8,bajo,8,,,nada,68.0,yes
98,2024-05-06_13h48.36.628,Experiment4_uns,s173,29.0,feminino,right,espanya,català,Bachelor degree,no,no,B,1,conjunction_syn,L3,syncopated,s2,r1,98,Online_conjL3_syn//c.gu.je29.444.1110.wav,ji,li,gu,chu,sil,je,ko,mo,sil1,do,sil2,['catch'],[1.6835000000000946],[1.6835000000000946],1.11,no_beat,0.5735000000000945,0.5735000000000945,"[""space""]",92:96,3,,,,,,,,,,,,,,,3.0,2.0,català,0.0,castellà,3.0,anglès,3.0,4.0,4.0,yes,yes,yes,piano,8,bajo,8,,,nada,68.0,yes
99,2024-05-06_13h48.36.628,Experiment4_uns,s173,29.0,feminino,right,espanya,català,Bachelor degree,no,no,B,1,conjunction_syn,L3,syncopated,s2,r1,99,Online_conjL3_syn//c.gu.je28.none.none.wav,ga,li,ka,chu,sil,di,ji,mo,sil1,do,sil2,['-'],,,none,none,,,,92:96,3,,,,,,,,,,,,,,,3.0,2.0,català,0.0,castellà,3.0,anglès,3.0,4.0,4.0,yes,yes,yes,piano,8,bajo,8,,,nada,68.0,yes
100,2024-05-06_13h48.36.628,Experiment4_uns,s173,29.0,feminino,right,espanya,català,Bachelor degree,no,no,B,1,conjunction_syn,L3,syncopated,s1,r1,100,Online_conjL3_syn//a.chu.mo14.0.666.wav,chu,ka,li,mo,sil,ga,je,ji,sil1,do,sil2,['catch'],[0.7114000000003671],[0.7114000000003671],0.0,beat,0.7114000000003671,0.7114000000003671,"[""space""]",12:16,1,,,,,,,,,,,,,,,3.0,2.0,català,0.0,castellà,3.0,anglès,3.0,4.0,4.0,yes,yes,yes,piano,8,bajo,8,,,nada,68.0,yes
101,2024-05-06_13h48.36.628,Experiment4_uns,s173,29.0,feminino,right,espanya,català,Bachelor degree,no,no,B,1,conjunction_syn,L3,syncopated,s1,r2,101,Online_conjL3_syn//a.chu.mo12.none.none.wav,ñe,je,do,sa,sil,ka,le,ji,sil1,ga,sil2,['-'],,,none,none,,,,12:16,1,,,,,,,,,,,,,,,3.0,2.0,català,0.0,castellà,3.0,anglès,3.0,4.0,4.0,yes,yes,yes,piano,8,bajo,8,,,nada,68.0,yes
102,2024-05-06_13h48.36.628,Experiment4_uns,s173,29.0,feminino,right,espanya,català,Bachelor degree,no,no,B,1,conjunction_syn,L3,syncopated,s1,r1,102,Online_conjL3_syn//a.chu.mo13.0.666.wav,chu,ji,fu,mo,sil,je,li,do,sil1,ka,sil2,['catch'],[0.5662999999997282],[0.5662999999997282],0.0,beat,0.5662999999997282,0.5662999999997282,"[""space""]",12:16,1,,,,,,,,,,,,,,,3.0,2.0,català,0.0,castellà,3.0,anglès,3.0,4.0,4.0,yes,yes,yes,piano,8,bajo,8,,,nada,68.0,yes
103,2024-05-06_13h48.36.628,Experiment4_uns,s173,29.0,feminino,right,espanya,català,Bachelor degree,no,no,B,1,conjunction_syn,L3,syncopated,s1,r1,103,Online_conjL3_syn//a.chu.mo15.0.666.wav,chu,le,gu,mo,sil,do,li,ka,sil1,ji,sil2,['catch'],[0.6749999999999545],[0.6749999999999545],0.0,beat,0.6749999999999545,0.6749999999999545,"[""space""]",12:16,1,,,,,,,,,,,,,,,3.0,2.0,català,0.0,castellà,3.0,anglès,3.0,4.0,4.0,yes,yes,yes,piano,8,bajo,8,,,nada,68.0,yes
104,2024-05-06_13h48.36.628,Experiment4_uns,s173,29.0,feminino,right,espanya,català,Bachelor degree,no,no,B,1,conjunction_syn,L3,syncopated,s1,r1,104,Online_conjL3_syn//c.gu.je8.222.1110.wav,chu,gu,do,mo,sil,je,ga,ko,sil1,ka,sil2,['catch'],[1.62949999999978],[1.62949999999978],1.11,no_beat,0.5194999999997798,0.5194999999997798,"[""space""]",72:76,3,,,,,,,,,,,,,,,3.0,2.0,català,0.0,castellà,3.0,anglès,3.0,4.0,4.0,yes,yes,yes,piano,8,bajo,8,,,nada,68.0,yes
105,2024-05-06_13h48.36.628,Experiment4_uns,s173,29.0,feminino,right,espanya,català,Bachelor degree,no,no,B,1,conjunction_syn,L3,syncopated,s2,r1,105,Online_conjL3_syn//c.gu.je9.1332.0.wav,je,le,ko,chu,sil,ka,gu,mo,sil1,ji,sil2,['catch'],[0.5857999999998356],[0.5857999999998356],0.0,beat,0.5857999999998356,0.5857999999998356,"[""space""]",72:76,3,,,,,,,,,,,,,,,3.0,2.0,català,0.0,castellà,3.0,anglès,3.0,4.0,4.0,yes,yes,yes,piano,8,bajo,8,,,nada,68.0,yes
106,2024-05-06_13h48.36.628,Experiment4_uns,s173,29.0,feminino,right,espanya,català,Bachelor degree,no,no,B,1,conjunction_syn,L3,syncopated,s1,r1,106,Online_conjL3_syn//c.gu.je10.none.none.wav,chu,di,do,mo,sil,ko,ga,ji,sil1,ka,sil2,['-'],,,none,none,,,,72:76,3,,,,,,,,,,,,,,,3.0,2.0,català,0.0,castellà,3.0,anglès,3.0,4.0,4.0,yes,yes,yes,piano,8,bajo,8,,,nada,68.0,yes
107,2024-05-06_13h48.36.628,Experiment4_uns,s173,29.0,feminino,right,espanya,català,Bachelor degree,no,no,B,1,conjunction_syn,L3,syncopated,s1,r2,107,Online_conjL3_syn//c.gu.je11.222.1110.wav,ñe,gu,ka,sa,sil,je,fu,ji,sil1,le,sil2,['catch'],[1.7662000000002536],[1.7662000000002536],1.11,no_beat,0.6562000000002535,0.6562000000002535,"[""space""]",72:76,3,,,,,,,,,,,,,,,3.0,2.0,català,0.0,castellà,3.0,anglès,3.0,4.0,4.0,yes,yes,yes,piano,8,bajo,8,,,nada,68.0,yes
108,2024-05-06_13h48.36.628,Experiment4_uns,s173,29.0,feminino,right,espanya,català,Bachelor degree,no,no,B,1,conjunction_syn,L3,syncopated,s1,r1,108,Online_conjL3_syn//c.gu.je0.1332.444.wav,chu,ga,je,mo,sil,ko,gu,ji,sil1,do,sil2,['miss'],,,0.444,no_beat,,,,64:68,3,,,,,,,,,,,,,,,3.0,2.0,català,0.0,castellà,3.0,anglès,3.0,4.0,4.0,yes,yes,yes,piano,8,bajo,8,,,nada,68.0,yes
109,2024-05-06_13h48.36.628,Experiment4_uns,s173,29.0,feminino,right,espanya,català,Bachelor degree,no,no,B,1,conjunction_syn,L3,syncopated,s1,r2,109,Online_conjL3_syn//c.gu.je2.none.none.wav,ñe,ka,ga,sa,sil,li,ji,do,sil1,le,sil2,['-'],,,none,none,,,,64:68,3,,,,,,,,,,,,,,,3.0,2.0,català,0.0,castellà,3.0,anglès,3.0,4.0,4.0,yes,yes,yes,piano,8,bajo,8,,,nada,68.0,yes
110,2024-05-06_13h48.36.628,Experiment4_uns,s173,29.0,feminino,right,espanya,català,Bachelor degree,no,no,B,1,conjunction_syn,L3,syncopated,s1,r1,110,Online_conjL3_syn//c.gu.je3.none.none.wav,chu,ka,li,mo,sil,ga,le,di,sil1,ji,sil2,['-'],,,none,none,,,,64:68,3,,,,,,,,,,,,,,,3.0,2.0,català,0.0,castellà,3.0,anglès,3.0,4.0,4.0,yes,yes,yes,piano,8,bajo,8,,,nada,68.0,yes
111,2024-05-06_13h48.36.628,Experiment4_uns,s173,29.0,feminino,right,espanya,català,Bachelor degree,no,no,B,1,conjunction_syn,L3,syncopated,s1,r1,111,Online_conjL3_syn//c.gu.je1.222.1332.wav,chu,gu,li,mo,sil,di,je,fu,sil1,ka,sil2,['miss'],,,1.332,no_beat,,,,64:68,3,,,,,,,,,,,,,,,3.0,2.0,català,0.0,castellà,3.0,anglès,3.0,4.0,4.0,yes,yes,yes,piano,8,bajo,8,,,nada,68.0,yes
112,2024-05-06_13h48.36.628,Experiment4_uns,s173,29.0,feminino,right,espanya,català,Bachelor degree,no,no,B,1,conjunction_syn,L3,syncopated,s2,r1,112,Online_conjL3_syn//b.ñe.sa6.none.none.wav,le,ka,ko,chu,sil,do,li,mo,sil1,gu,sil2,['-'],,,none,none,,,,36:40,2,,,,,,,,,,,,,,,3.0,2.0,català,0.0,castellà,3.0,anglès,3.0,4.0,4.0,yes,yes,yes,piano,8,bajo,8,,,nada,68.0,yes
113,2024-05-06_13h48.36.628,Experiment4_uns,s173,29.0,feminino,right,espanya,català,Bachelor degree,no,no,B,1,conjunction_syn,L3,syncopated,s2,r2,113,Online_conjL3_syn//b.ñe.sa7.666.1554.wav,ji,je,ko,ñe,sil,gu,ga,sa,sil1,do,sil2,['catch'],[2.0827999999999065],[2.0827999999999065],1.554,no_beat,0.5287999999999065,0.5287999999999065,"[""space""]",36:40,2,,,,,,,,,,,,,,,3.0,2.0,català,0.0,castellà,3.0,anglès,3.0,4.0,4.0,yes,yes,yes,piano,8,bajo,8,,,nada,68.0,yes
114,2024-05-06_13h48.36.628,Experiment4_uns,s173,29.0,feminino,right,espanya,català,Bachelor degree,no,no,B,1,conjunction_syn,L3,syncopated,s2,r1,114,Online_conjL3_syn//b.ñe.sa5.none.none.wav,le,fu,do,chu,sil,li,ga,mo,sil1,ka,sil2,['-'],,,none,none,,,,36:40,2,,,,,,,,,,,,,,,3.0,2.0,català,0.0,castellà,3.0,anglès,3.0,4.0,4.0,yes,yes,yes,piano,8,bajo,8,,,nada,68.0,yes
115,2024-05-06_13h48.36.628,Experiment4_uns,s173,29.0,feminino,right,espanya,català,Bachelor degree,no,no,B,1,conjunction_syn,L3,syncopated,s2,r2,115,Online_conjL3_syn//b.ñe.sa4.666.1554.wav,li,di,ka,ñe,sil,do,gu,sa,sil1,ji,sil2,['catch'],[2.333299999999781],[2.333299999999781],1.554,no_beat,0.779299999999781,0.779299999999781,"[""space""]",36:40,2,,,,,,,,,,,,,,,3.0,2.0,català,0.0,castellà,3.0,anglès,3.0,4.0,4.0,yes,yes,yes,piano,8,bajo,8,,,nada,68.0,yes
116,2024-05-06_13h48.36.628,Experiment4_uns,s173,29.0,feminino,right,espanya,català,Bachelor degree,no,no,B,1,conjunction_syn,L3,syncopated,s2,r1,116,Online_conjL3_syn//d.ji.li4.0.222.wav,ji,li,ka,chu,sil,le,di,mo,sil1,gu,sil2,['catch'],[1.1137999999998556],[1.1137999999998556],0.222,no_beat,0.8917999999998556,0.8917999999998556,"[""space""]",100:104,4,,,,,,,,,,,,,,,3.0,2.0,català,0.0,castellà,3.0,anglès,3.0,4.0,4.0,yes,yes,yes,piano,8,bajo,8,,,nada,68.0,yes
117,2024-05-06_13h48.36.628,Experiment4_uns,s173,29.0,feminino,right,espanya,català,Bachelor degree,no,no,B,1,conjunction_syn,L3,syncopated,s1,r1,117,Online_conjL3_syn//d.ji.li6.none.none.wav,chu,je,fu,mo,sil,ka,ga,le,sil1,do,sil2,['-'],,,none,none,,,,100:104,4,,,,,,,,,,,,,,,3.0,2.0,català,0.0,castellà,3.0,anglès,3.0,4.0,4.0,yes,yes,yes,piano,8,bajo,8,,,nada,68.0,yes
118,2024-05-06_13h48.36.628,Experiment4_uns,s173,29.0,feminino,right,espanya,català,Bachelor degree,no,no,B,1,conjunction_syn,L3,syncopated,s1,r2,118,Online_conjL3_syn//d.ji.li5.1332.222.wav,ñe,li,do,sa,sil,le,ji,di,sil1,ko,sil2,['catch'],[0.9359000000004016],[0.9359000000004016],0.222,no_beat,0.7139000000004017,0.7139000000004017,"[""space""]",100:104,4,,,,,,,,,,,,,,,3.0,2.0,català,0.0,castellà,3.0,anglès,3.0,4.0,4.0,yes,yes,yes,piano,8,bajo,8,,,nada,68.0,yes
119,2024-05-06_13h48.36.628,Experiment4_uns,s173,29.0,feminino,right,espanya,català,Bachelor degree,no,no,B,1,conjunction_syn,L3,syncopated,s2,r1,119,Online_conjL3_syn//d.ji.li7.1332.0.wav,li,ko,di,chu,sil,le,ji,mo,sil1,do,sil2,['catch'],[0.7662999999997737],[0.7662999999997737],0.0,beat,0.7662999999997737,0.7662999999997737,"[""space""]",100:104,4,,,,,,,,,,,,,,,3.0,2.0,català,0.0,castellà,3.0,anglès,3.0,4.0,4.0,yes,yes,yes,piano,8,bajo,8,,,nada,68.0,yes
120,2024-05-06_13h48.36.628,Experiment4_uns,s173,29.0,feminino,right,espanya,català,Bachelor degree,no,no,B,1,conjunction_syn,L3,syncopated,s2,r1,120,Online_conjL3_syn//c.gu.je18.1110.0.wav,je,di,ka,chu,sil,gu,ko,mo,sil1,li,sil2,['catch'],[0.7297000000003209],[0.7297000000003209],0.0,beat,0.7297000000003209,0.7297000000003209,"[""space""]",80:84,3,,,,,,,,,,,,,,,3.0,2.0,català,0.0,castellà,3.0,anglès,3.0,4.0,4.0,yes,yes,yes,piano,8,bajo,8,,,nada,68.0,yes
121,2024-05-06_13h48.36.628,Experiment4_uns,s173,29.0,feminino,right,espanya,català,Bachelor degree,no,no,B,1,conjunction_syn,L3,syncopated,s2,r2,121,Online_conjL3_syn//c.gu.je17.222.1110.wav,fu,gu,le,ñe,sil,je,ka,sa,sil1,ko,sil2,['catch'],[1.7404999999998836],[1.7404999999998836],1.11,no_beat,0.6304999999998835,0.6304999999998835,"[""space""]",80:84,3,,,,,,,,,,,,,,,3.0,2.0,català,0.0,castellà,3.0,anglès,3.0,4.0,4.0,yes,yes,yes,piano,8,bajo,8,,,nada,68.0,yes
122,2024-05-06_13h48.36.628,Experiment4_uns,s173,29.0,feminino,right,espanya,català,Bachelor degree,no,no,B,1,conjunction_syn,L3,syncopated,s2,r2,122,Online_conjL3_syn//c.gu.je19.none.none.wav,fu,le,li,ñe,sil,ji,ka,sa,sil1,di,sil2,['-'],,,none,none,,,,80:84,3,,,,,,,,,,,,,,,3.0,2.0,català,0.0,castellà,3.0,anglès,3.0,4.0,4.0,yes,yes,yes,piano,8,bajo,8,,,nada,68.0,yes
123,2024-05-06_13h48.36.628,Experiment4_uns,s173,29.0,feminino,right,espanya,català,Bachelor degree,no,no,B,1,conjunction_syn,L3,syncopated,s2,r1,123,Online_conjL3_syn//c.gu.je16.1332.444.wav,fu,ga,je,chu,sil,do,gu,mo,sil1,ji,sil2,['miss'],,,0.444,no_beat,,,,80:84,3,,,,,,,,,,,,,,,3.0,2.0,català,0.0,castellà,3.0,anglès,3.0,4.0,4.0,yes,yes,yes,piano,8,bajo,8,,,nada,68.0,yes
124,2024-05-06_13h48.36.628,Experiment4_uns,s173,29.0,feminino,right,espanya,català,Bachelor degree,no,no,B,1,conjunction_syn,L3,syncopated,s2,r2,124,Online_conjL3_syn//c.gu.je23.222.444.wav,li,gu,je,ñe,sil,ko,ga,sa,sil1,le,sil2,['catch'],[1.1477000000002135],[1.1477000000002135],0.444,no_beat,0.7037000000002136,0.7037000000002136,"[""space""]",84:88,3,,,,,,,,,,,,,,,3.0,2.0,català,0.0,castellà,3.0,anglès,3.0,4.0,4.0,yes,yes,yes,piano,8,bajo,8,,,nada,68.0,yes
125,2024-05-06_13h48.36.628,Experiment4_uns,s173,29.0,feminino,right,espanya,català,Bachelor degree,no,no,B,1,conjunction_syn,L3,syncopated,s1,r2,125,Online_conjL3_syn//c.gu.je20.1554.1110.wav,ñe,fu,di,sa,sil,je,ka,gu,sil1,le,sil2,['catch'],[1.701900000000478],[1.701900000000478],1.11,no_beat,0.5919000000004779,0.5919000000004779,"[""space""]",84:88,3,,,,,,,,,,,,,,,3.0,2.0,català,0.0,castellà,3.0,anglès,3.0,4.0,4.0,yes,yes,yes,piano,8,bajo,8,,,nada,68.0,yes
126,2024-05-06_13h48.36.628,Experiment4_uns,s173,29.0,feminino,right,espanya,català,Bachelor degree,no,no,B,1,conjunction_syn,L3,syncopated,s2,r2,126,Online_conjL3_syn//c.gu.je21.none.none.wav,fu,ko,le,ñe,sil,li,do,sa,sil1,ji,sil2,['-'],,,none,none,,,,84:88,3,,,,,,,,,,,,,,,3.0,2.0,català,0.0,castellà,3.0,anglès,3.0,4.0,4.0,yes,yes,yes,piano,8,bajo,8,,,nada,68.0,yes
127,2024-05-06_13h48.36.628,Experiment4_uns,s173,29.0,feminino,right,espanya,català,Bachelor degree,no,no,B,1,conjunction_syn,L3,syncopated,s1,r2,127,Online_conjL3_syn//c.gu.je22.1554.444.wav,ñe,li,je,sa,sil,ji,ka,gu,sil1,di,sil2,"['catch', 'false alarm']","[1.2940000000000964, 1.566200000000208]",[1.2940000000000964],0.444,no_beat,0.8500000000000965,0.8500000000000965,"[""space"",""space""]",84:88,3,,,,,,,,,,,,,,,3.0,2.0,català,0.0,castellà,3.0,anglès,3.0,4.0,4.0,yes,yes,yes,piano,8,bajo,8,,,nada,68.0,yes
128,2024-05-06_13h48.36.628,Experiment4_uns,s173,29.0,feminino,right,espanya,català,Bachelor degree,no,no,B,2,when,L2,unsyncopated,when,when,0,Online_whenL2//d.si29.888.wav,cha,me,su,sil,si,mi,te,sil1,ra,go,sil2,['catch'],[1.481999999999971],[1.481999999999971],0.888,beat,0.5939999999999709,0.5939999999999709,"[""space""]",132:136,4,,,,,,,,,,,,,,,3.0,2.0,català,0.0,castellà,3.0,anglès,3.0,4.0,4.0,yes,yes,yes,piano,8,bajo,8,,,nada,68.0,yes
129,2024-05-06_13h48.36.628,Experiment4_uns,s173,29.0,feminino,right,espanya,català,Bachelor degree,no,no,B,2,when,L2,unsyncopated,when,when,1,Online_whenL2//d.si31.none.wav,su,ba,te,sil,ra,ño,to,sil1,mi,go,sil2,['-'],,,none,none,,,,132:136,4,,,,,,,,,,,,,,,3.0,2.0,català,0.0,castellà,3.0,anglès,3.0,4.0,4.0,yes,yes,yes,piano,8,bajo,8,,,nada,68.0,yes
130,2024-05-06_13h48.36.628,Experiment4_uns,s173,29.0,feminino,right,espanya,català,Bachelor degree,no,no,B,2,when,L2,unsyncopated,when,when,2,Online_whenL2//d.si30.none.wav,me,ba,cha,sil,ño,te,bi,sil1,du,go,sil2,['-'],,,none,none,,,,132:136,4,,,,,,,,,,,,,,,3.0,2.0,català,0.0,castellà,3.0,anglès,3.0,4.0,4.0,yes,yes,yes,piano,8,bajo,8,,,nada,68.0,yes
131,2024-05-06_13h48.36.628,Experiment4_uns,s173,29.0,feminino,right,espanya,català,Bachelor degree,no,no,B,2,when,L2,unsyncopated,when,when,3,Online_whenL2//d.si28.888.wav,ñu,fe,bi,sil,si,cha,to,sil1,du,ba,sil2,['catch'],[1.6407999999996719],[1.6407999999996719],0.888,beat,0.7527999999996718,0.7527999999996718,"[""space""]",132:136,4,,,,,,,,,,,,,,,3.0,2.0,català,0.0,castellà,3.0,anglès,3.0,4.0,4.0,yes,yes,yes,piano,8,bajo,8,,,nada,68.0,yes
132,2024-05-06_13h48.36.628,Experiment4_uns,s173,29.0,feminino,right,espanya,català,Bachelor degree,no,no,B,2,when,L2,unsyncopated,when,when,4,Online_whenL2//a.du26.none.wav,bi,ra,te,sil,ba,si,ño,sil1,go,to,sil2,['false alarm'],[2.080799999999954],[2.080799999999954],none,none,,,"[""space""]",24:28,1,,,,,,,,,,,,,,,3.0,2.0,català,0.0,castellà,3.0,anglès,3.0,4.0,4.0,yes,yes,yes,piano,8,bajo,8,,,nada,68.0,yes
133,2024-05-06_13h48.36.628,Experiment4_uns,s173,29.0,feminino,right,espanya,català,Bachelor degree,no,no,B,2,when,L2,unsyncopated,when,when,5,Online_whenL2//a.du24.222.wav,me,du,to,sil,su,te,ra,sil1,bi,ñu,sil2,['catch'],[1.0449000000003252],[1.0449000000003252],0.222,no_beat,0.8229000000003253,0.8229000000003253,"[""space""]",24:28,1,,,,,,,,,,,,,,,3.0,2.0,català,0.0,castellà,3.0,anglès,3.0,4.0,4.0,yes,yes,yes,piano,8,bajo,8,,,nada,68.0,yes
134,2024-05-06_13h48.36.628,Experiment4_uns,s173,29.0,feminino,right,espanya,català,Bachelor degree,no,no,B,2,when,L2,unsyncopated,when,when,6,Online_whenL2//a.du27.none.wav,su,go,bi,sil,fe,to,ño,sil1,si,te,sil2,['-'],,,none,none,,,,24:28,1,,,,,,,,,,,,,,,3.0,2.0,català,0.0,castellà,3.0,anglès,3.0,4.0,4.0,yes,yes,yes,piano,8,bajo,8,,,nada,68.0,yes
135,2024-05-06_13h48.36.628,Experiment4_uns,s173,29.0,feminino,right,espanya,català,Bachelor degree,no,no,B,2,when,L2,unsyncopated,when,when,7,Online_whenL2//a.du25.444.wav,ñu,cha,du,sil,mi,su,si,sil1,go,me,sil2,['catch'],[1.5769999999999982],[1.5769999999999982],0.444,no_beat,1.1329999999999982,1.1329999999999982,"[""space""]",24:28,1,,,,,,,,,,,,,,,3.0,2.0,català,0.0,castellà,3.0,anglès,3.0,4.0,4.0,yes,yes,yes,piano,8,bajo,8,,,nada,68.0,yes
136,2024-05-06_13h48.36.628,Experiment4_uns,s173,29.0,feminino,right,espanya,català,Bachelor degree,no,no,B,2,when,L2,unsyncopated,when,when,8,Online_whenL2//d.si6.1776.wav,te,cha,du,sil,fe,ño,me,sil1,si,bi,sil2,['catch'],[2.213699999999335],[2.213699999999335],1.776,beat,0.4376999999993349,0.4376999999993349,"[""space""]",108:112,4,,,,,,,,,,,,,,,3.0,2.0,català,0.0,castellà,3.0,anglès,3.0,4.0,4.0,yes,yes,yes,piano,8,bajo,8,,,nada,68.0,yes
137,2024-05-06_13h48.36.628,Experiment4_uns,s173,29.0,feminino,right,espanya,català,Bachelor degree,no,no,B,2,when,L2,unsyncopated,when,when,9,Online_whenL2//d.si5.1332.wav,to,fe,ra,sil,me,cha,si,sil1,su,te,sil2,['catch'],[2.2020999999995183],[2.2020999999995183],1.332,no_beat,0.8700999999995183,0.8700999999995183,"[""space""]",108:112,4,,,,,,,,,,,,,,,3.0,2.0,català,0.0,castellà,3.0,anglès,3.0,4.0,4.0,yes,yes,yes,piano,8,bajo,8,,,nada,68.0,yes
138,2024-05-06_13h48.36.628,Experiment4_uns,s173,29.0,feminino,right,espanya,català,Bachelor degree,no,no,B,2,when,L2,unsyncopated,when,when,10,Online_whenL2//d.si4.444.wav,to,ra,si,sil,me,ñu,go,sil1,ño,mi,sil2,['catch'],[1.7495000000001255],[1.7495000000001255],0.444,no_beat,,1.3055000000001256,"[""space""]",108:112,4,,,,,,,,,,,,,,,3.0,2.0,català,0.0,castellà,3.0,anglès,3.0,4.0,4.0,yes,yes,yes,piano,8,bajo,8,,,nada,68.0,yes
139,2024-05-06_13h48.36.628,Experiment4_uns,s173,29.0,feminino,right,espanya,català,Bachelor degree,no,no,B,2,when,L2,unsyncopated,when,when,11,Online_whenL2//d.si7.none.wav,go,cha,te,sil,fe,ñu,ba,sil1,mi,to,sil2,['-'],,,none,none,,,,108:112,4,,,,,,,,,,,,,,,3.0,2.0,català,0.0,castellà,3.0,anglès,3.0,4.0,4.0,yes,yes,yes,piano,8,bajo,8,,,nada,68.0,yes
140,2024-05-06_13h48.36.628,Experiment4_uns,s173,29.0,feminino,right,espanya,català,Bachelor degree,no,no,B,2,when,L2,unsyncopated,when,when,12,Online_whenL2//b.fe8.none.wav,su,to,go,sil,mi,ra,si,sil1,ba,ñu,sil2,['-'],,,none,none,,,,44:48,2,,,,,,,,,,,,,,,3.0,2.0,català,0.0,castellà,3.0,anglès,3.0,4.0,4.0,yes,yes,yes,piano,8,bajo,8,,,nada,68.0,yes
141,2024-05-06_13h48.36.628,Experiment4_uns,s173,29.0,feminino,right,espanya,català,Bachelor degree,no,no,B,2,when,L2,unsyncopated,when,when,13,Online_whenL2//b.fe9.none.wav,du,ñu,su,sil,te,to,go,sil1,ño,me,sil2,['-'],,,none,none,,,,44:48,2,,,,,,,,,,,,,,,3.0,2.0,català,0.0,castellà,3.0,anglès,3.0,4.0,4.0,yes,yes,yes,piano,8,bajo,8,,,nada,68.0,yes
142,2024-05-06_13h48.36.628,Experiment4_uns,s173,29.0,feminino,right,espanya,català,Bachelor degree,no,no,B,2,when,L2,unsyncopated,when,when,14,Online_whenL2//b.fe11.1332.wav,ba,bi,go,sil,su,mi,fe,sil1,si,me,sil2,['miss'],,,1.332,no_beat,,,,44:48,2,,,,,,,,,,,,,,,3.0,2.0,català,0.0,castellà,3.0,anglès,3.0,4.0,4.0,yes,yes,yes,piano,8,bajo,8,,,nada,68.0,yes
143,2024-05-06_13h48.36.628,Experiment4_uns,s173,29.0,feminino,right,espanya,català,Bachelor degree,no,no,B,2,when,L2,unsyncopated,when,when,15,Online_whenL2//b.fe10.none.wav,to,du,su,sil,mi,ño,ba,sil1,bi,ra,sil2,['-'],,,none,none,,,,44:48,2,,,,,,,,,,,,,,,3.0,2.0,català,0.0,castellà,3.0,anglès,3.0,4.0,4.0,yes,yes,yes,piano,8,bajo,8,,,nada,68.0,yes
144,2024-05-06_13h48.36.628,Experiment4_uns,s173,29.0,feminino,right,espanya,català,Bachelor degree,no,no,B,2,when,L2,unsyncopated,when,when,16,Online_whenL2//b.fe33.none.wav,to,du,mi,sil,go,te,ñu,sil1,bi,me,sil2,['-'],,,none,none,,,,68:72,2,,,,,,,,,,,,,,,3.0,2.0,català,0.0,castellà,3.0,anglès,3.0,4.0,4.0,yes,yes,yes,piano,8,bajo,8,,,nada,68.0,yes
145,2024-05-06_13h48.36.628,Experiment4_uns,s173,29.0,feminino,right,espanya,català,Bachelor degree,no,no,B,2,when,L2,unsyncopated,when,when,17,Online_whenL2//b.fe32.222.wav,ño,fe,te,sil,ñu,bi,su,sil1,mi,go,sil2,['catch'],[1.049900000000207],[1.049900000000207],0.222,no_beat,0.827900000000207,0.827900000000207,"[""space""]",68:72,2,,,,,,,,,,,,,,,3.0,2.0,català,0.0,castellà,3.0,anglès,3.0,4.0,4.0,yes,yes,yes,piano,8,bajo,8,,,nada,68.0,yes
146,2024-05-06_13h48.36.628,Experiment4_uns,s173,29.0,feminino,right,espanya,català,Bachelor degree,no,no,B,2,when,L2,unsyncopated,when,when,18,Online_whenL2//b.fe34.1776.wav,si,go,mi,sil,ba,ñu,me,sil1,fe,ño,sil2,['catch_delay'],[1.0206000000005935],[1.0206000000005935],1.776,beat,1.0206000000005937,1.0206000000005937,,68:72,2,,,,,,,,,,,,,,,3.0,2.0,català,0.0,castellà,3.0,anglès,3.0,4.0,4.0,yes,yes,yes,piano,8,bajo,8,,,nada,68.0,yes
147,2024-05-06_13h48.36.628,Experiment4_uns,s173,29.0,feminino,right,espanya,català,Bachelor degree,no,no,B,2,when,L2,unsyncopated,when,when,19,Online_whenL2//b.fe35.1998.wav,ra,su,si,sil,to,ba,bi,sil1,me,fe,sil2,['catch_delay'],[0.682399999999294],[0.682399999999294],1.998,no_beat,0.682399999999294,0.682399999999294,"[""space""]",68:72,2,,,,,,,,,,,,,,,3.0,2.0,català,0.0,castellà,3.0,anglès,3.0,4.0,4.0,yes,yes,yes,piano,8,bajo,8,,,nada,68.0,yes
148,2024-05-06_13h48.36.628,Experiment4_uns,s173,29.0,feminino,right,espanya,català,Bachelor degree,no,no,B,2,when,L2,unsyncopated,when,when,20,Online_whenL2//c.cha13.888.wav,te,me,ba,sil,cha,bi,si,sil1,fe,du,sil2,['catch'],"[0.01639999999929387, 1.3323999999993248]",[1.3323999999993248],0.888,beat,0.4443999999993248,0.4443999999993248,"[""space"",""space""]",84:88,3,,,,,,,,,,,,,,,3.0,2.0,català,0.0,castellà,3.0,anglès,3.0,4.0,4.0,yes,yes,yes,piano,8,bajo,8,,,nada,68.0,yes
149,2024-05-06_13h48.36.628,Experiment4_uns,s173,29.0,feminino,right,espanya,català,Bachelor degree,no,no,B,2,when,L2,unsyncopated,when,when,21,Online_whenL2//c.cha14.none.wav,go,te,ñu,sil,mi,bi,ba,sil1,ño,du,sil2,['-'],,,none,none,,,,84:88,3,,,,,,,,,,,,,,,3.0,2.0,català,0.0,castellà,3.0,anglès,3.0,4.0,4.0,yes,yes,yes,piano,8,bajo,8,,,nada,68.0,yes
150,2024-05-06_13h48.36.628,Experiment4_uns,s173,29.0,feminino,right,espanya,català,Bachelor degree,no,no,B,2,when,L2,unsyncopated,when,when,22,Online_whenL2//c.cha12.444.wav,du,ba,cha,sil,te,bi,ño,sil1,ñu,fe,sil2,['catch'],[1.2608999999993102],[1.2608999999993102],0.444,no_beat,0.8168999999993103,0.8168999999993103,"[""space""]",84:88,3,,,,,,,,,,,,,,,3.0,2.0,català,0.0,castellà,3.0,anglès,3.0,4.0,4.0,yes,yes,yes,piano,8,bajo,8,,,nada,68.0,yes
151,2024-05-06_13h48.36.628,Experiment4_uns,s173,29.0,feminino,right,espanya,català,Bachelor degree,no,no,B,2,when,L2,unsyncopated,when,when,23,Online_whenL2//c.cha15.none.wav,si,su,ñu,sil,mi,ba,ra,sil1,to,go,sil2,['-'],,,none,none,,,,84:88,3,,,,,,,,,,,,,,,3.0,2.0,català,0.0,castellà,3.0,anglès,3.0,4.0,4.0,yes,yes,yes,piano,8,bajo,8,,,nada,68.0,yes
152,2024-05-06_13h48.36.628,Experiment4_uns,s173,29.0,feminino,right,espanya,català,Bachelor degree,no,no,B,2,when,L2,unsyncopated,when,when,24,Online_whenL2//c.cha19.1998.wav,go,si,du,sil,ñu,to,ba,sil1,te,cha,sil2,['catch'],[2.4477999999999156],[2.4477999999999156],1.998,no_beat,0.4497999999999156,0.4497999999999156,"[""space""]",88:92,3,,,,,,,,,,,,,,,3.0,2.0,català,0.0,castellà,3.0,anglès,3.0,4.0,4.0,yes,yes,yes,piano,8,bajo,8,,,nada,68.0,yes
153,2024-05-06_13h48.36.628,Experiment4_uns,s173,29.0,feminino,right,espanya,català,Bachelor degree,no,no,B,2,when,L2,unsyncopated,when,when,25,Online_whenL2//c.cha17.none.wav,te,ñu,su,sil,mi,go,me,sil1,ra,si,sil2,['-'],,,none,none,,,,88:92,3,,,,,,,,,,,,,,,3.0,2.0,català,0.0,castellà,3.0,anglès,3.0,4.0,4.0,yes,yes,yes,piano,8,bajo,8,,,nada,68.0,yes
154,2024-05-06_13h48.36.628,Experiment4_uns,s173,29.0,feminino,right,espanya,català,Bachelor degree,no,no,B,2,when,L2,unsyncopated,when,when,26,Online_whenL2//c.cha16.none.wav,te,su,to,sil,du,ra,me,sil1,si,mi,sil2,['-'],,,none,none,,,,88:92,3,,,,,,,,,,,,,,,3.0,2.0,català,0.0,castellà,3.0,anglès,3.0,4.0,4.0,yes,yes,yes,piano,8,bajo,8,,,nada,68.0,yes
155,2024-05-06_13h48.36.628,Experiment4_uns,s173,29.0,feminino,right,espanya,català,Bachelor degree,no,no,B,2,when,L2,unsyncopated,when,when,27,Online_whenL2//c.cha18.1776.wav,ra,ñu,ño,sil,si,to,te,sil1,cha,du,sil2,['catch'],[2.2995999999996],[2.2995999999996],1.776,beat,0.5235999999996002,0.5235999999996002,"[""space""]",88:92,3,,,,,,,,,,,,,,,3.0,2.0,català,0.0,castellà,3.0,anglès,3.0,4.0,4.0,yes,yes,yes,piano,8,bajo,8,,,nada,68.0,yes
156,2024-05-06_13h48.36.628,Experiment4_uns,s173,29.0,feminino,right,espanya,català,Bachelor degree,no,no,B,2,when,L2,unsyncopated,when,when,28,Online_whenL2//b.fe26.none.wav,ñu,te,ño,sil,go,mi,me,sil1,du,ba,sil2,['-'],,,none,none,,,,60:64,2,,,,,,,,,,,,,,,3.0,2.0,català,0.0,castellà,3.0,anglès,3.0,4.0,4.0,yes,yes,yes,piano,8,bajo,8,,,nada,68.0,yes
157,2024-05-06_13h48.36.628,Experiment4_uns,s173,29.0,feminino,right,espanya,català,Bachelor degree,no,no,B,2,when,L2,unsyncopated,when,when,29,Online_whenL2//b.fe25.888.wav,ba,me,mi,sil,fe,to,bi,sil1,ñu,du,sil2,['catch'],[1.5479000000002543],[1.5479000000002543],0.888,beat,0.6599000000002543,0.6599000000002543,"[""space""]",60:64,2,,,,,,,,,,,,,,,3.0,2.0,català,0.0,castellà,3.0,anglès,3.0,4.0,4.0,yes,yes,yes,piano,8,bajo,8,,,nada,68.0,yes
158,2024-05-06_13h48.36.628,Experiment4_uns,s173,29.0,feminino,right,espanya,català,Bachelor degree,no,no,B,2,when,L2,unsyncopated,when,when,30,Online_whenL2//b.fe24.888.wav,to,te,ñu,sil,fe,su,bi,sil1,du,mi,sil2,['catch'],[1.399399999999332],[1.399399999999332],0.888,beat,0.5113999999993321,0.5113999999993321,"[""space""]",60:64,2,,,,,,,,,,,,,,,3.0,2.0,català,0.0,castellà,3.0,anglès,3.0,4.0,4.0,yes,yes,yes,piano,8,bajo,8,,,nada,68.0,yes
159,2024-05-06_13h48.36.628,Experiment4_uns,s173,29.0,feminino,right,espanya,català,Bachelor degree,no,no,B,2,when,L2,unsyncopated,when,when,31,Online_whenL2//b.fe27.888.wav,to,cha,su,sil,fe,me,go,sil1,ñu,ño,sil2,['catch'],[1.4497000000001208],[1.4497000000001208],0.888,beat,0.5617000000001208,0.5617000000001208,"[""space""]",60:64,2,,,,,,,,,,,,,,,3.0,2.0,català,0.0,castellà,3.0,anglès,3.0,4.0,4.0,yes,yes,yes,piano,8,bajo,8,,,nada,68.0,yes
160,2024-05-06_13h48.36.628,Experiment4_uns,s173,29.0,feminino,right,espanya,català,Bachelor degree,no,no,B,2,when,L2,unsyncopated,when,when,32,Online_whenL2//c.cha7.none.wav,ba,to,bi,sil,ño,du,si,sil1,mi,fe,sil2,['-'],,,none,none,,,,76:80,3,,,,,,,,,,,,,,,3.0,2.0,català,0.0,castellà,3.0,anglès,3.0,4.0,4.0,yes,yes,yes,piano,8,bajo,8,,,nada,68.0,yes
161,2024-05-06_13h48.36.628,Experiment4_uns,s173,29.0,feminino,right,espanya,català,Bachelor degree,no,no,B,2,when,L2,unsyncopated,when,when,33,Online_whenL2//c.cha5.none.wav,bi,mi,to,sil,su,fe,te,sil1,du,si,sil2,['-'],,,none,none,,,,76:80,3,,,,,,,,,,,,,,,3.0,2.0,català,0.0,castellà,3.0,anglès,3.0,4.0,4.0,yes,yes,yes,piano,8,bajo,8,,,nada,68.0,yes
162,2024-05-06_13h48.36.628,Experiment4_uns,s173,29.0,feminino,right,espanya,català,Bachelor degree,no,no,B,2,when,L2,unsyncopated,when,when,34,Online_whenL2//c.cha4.222.wav,bi,cha,ñu,sil,su,mi,du,sil1,si,fe,sil2,['catch'],[0.7657999999996719],[0.7657999999996719],0.222,no_beat,0.5437999999996719,0.5437999999996719,"[""space""]",76:80,3,,,,,,,,,,,,,,,3.0,2.0,català,0.0,castellà,3.0,anglès,3.0,4.0,4.0,yes,yes,yes,piano,8,bajo,8,,,nada,68.0,yes
163,2024-05-06_13h48.36.628,Experiment4_uns,s173,29.0,feminino,right,espanya,català,Bachelor degree,no,no,B,2,when,L2,unsyncopated,when,when,35,Online_whenL2//c.cha6.none.wav,ño,bi,su,sil,ñu,to,si,sil1,du,go,sil2,['-'],,,none,none,,,,76:80,3,,,,,,,,,,,,,,,3.0,2.0,català,0.0,castellà,3.0,anglès,3.0,4.0,4.0,yes,yes,yes,piano,8,bajo,8,,,nada,68.0,yes
164,2024-05-06_13h48.36.628,Experiment4_uns,s173,29.0,feminino,right,espanya,català,Bachelor degree,no,no,B,2,when,L2,unsyncopated,when,when,36,Online_whenL2//a.du28.none.wav,ño,te,to,sil,go,ba,ra,sil1,su,bi,sil2,['-'],,,none,none,,,,28:32,1,,,,,,,,,,,,,,,3.0,2.0,català,0.0,castellà,3.0,anglès,3.0,4.0,4.0,yes,yes,yes,piano,8,bajo,8,,,nada,68.0,yes
165,2024-05-06_13h48.36.628,Experiment4_uns,s173,29.0,feminino,right,espanya,català,Bachelor degree,no,no,B,2,when,L2,unsyncopated,when,when,37,Online_whenL2//a.du30.none.wav,fe,bi,to,sil,cha,su,ra,sil1,ño,ba,sil2,['-'],,,none,none,,,,28:32,1,,,,,,,,,,,,,,,3.0,2.0,català,0.0,castellà,3.0,anglès,3.0,4.0,4.0,yes,yes,yes,piano,8,bajo,8,,,nada,68.0,yes
166,2024-05-06_13h48.36.628,Experiment4_uns,s173,29.0,feminino,right,espanya,català,Bachelor degree,no,no,B,2,when,L2,unsyncopated,when,when,38,Online_whenL2//a.du29.1998.wav,ra,ño,su,sil,bi,si,mi,sil1,me,du,sil2,['catch_delay'],[0.6989999999999019],[0.6989999999999019],1.998,no_beat,0.6989999999999019,0.6989999999999019,,28:32,1,,,,,,,,,,,,,,,3.0,2.0,català,0.0,castellà,3.0,anglès,3.0,4.0,4.0,yes,yes,yes,piano,8,bajo,8,,,nada,68.0,yes
167,2024-05-06_13h48.36.628,Experiment4_uns,s173,29.0,feminino,right,espanya,català,Bachelor degree,no,no,B,2,when,L2,unsyncopated,when,when,39,Online_whenL2//a.du31.222.wav,ba,du,go,sil,to,si,cha,sil1,mi,bi,sil2,['catch'],"[0.032999999999901775, 1.1452999999996791]",[1.1452999999996791],0.222,no_beat,0.9232999999996792,0.9232999999996792,"[""space"",""space""]",28:32,1,,,,,,,,,,,,,,,3.0,2.0,català,0.0,castellà,3.0,anglès,3.0,4.0,4.0,yes,yes,yes,piano,8,bajo,8,,,nada,68.0,yes
168,2024-05-06_13h48.36.628,Experiment4_uns,s173,29.0,feminino,right,espanya,català,Bachelor degree,no,no,B,2,when,L2,unsyncopated,when,when,40,Online_whenL2//b.fe23.none.wav,me,ba,du,sil,ra,to,bi,sil1,si,ñu,sil2,['-'],,,none,none,,,,56:60,2,,,,,,,,,,,,,,,3.0,2.0,català,0.0,castellà,3.0,anglès,3.0,4.0,4.0,yes,yes,yes,piano,8,bajo,8,,,nada,68.0,yes
169,2024-05-06_13h48.36.628,Experiment4_uns,s173,29.0,feminino,right,espanya,català,Bachelor degree,no,no,B,2,when,L2,unsyncopated,when,when,41,Online_whenL2//b.fe21.1332.wav,ñu,mi,go,sil,te,su,fe,sil1,me,cha,sil2,['miss'],,,1.332,no_beat,,,,56:60,2,,,,,,,,,,,,,,,3.0,2.0,català,0.0,castellà,3.0,anglès,3.0,4.0,4.0,yes,yes,yes,piano,8,bajo,8,,,nada,68.0,yes
170,2024-05-06_13h48.36.628,Experiment4_uns,s173,29.0,feminino,right,espanya,català,Bachelor degree,no,no,B,2,when,L2,unsyncopated,when,when,42,Online_whenL2//b.fe20.1332.wav,cha,ño,du,sil,si,me,fe,sil1,te,mi,sil2,['catch'],[2.1847999999997683],[2.1847999999997683],1.332,no_beat,0.8527999999997682,0.8527999999997682,"[""space""]",56:60,2,,,,,,,,,,,,,,,3.0,2.0,català,0.0,castellà,3.0,anglès,3.0,4.0,4.0,yes,yes,yes,piano,8,bajo,8,,,nada,68.0,yes
171,2024-05-06_13h48.36.628,Experiment4_uns,s173,29.0,feminino,right,espanya,català,Bachelor degree,no,no,B,2,when,L2,unsyncopated,when,when,43,Online_whenL2//b.fe22.none.wav,ño,ra,go,sil,ñu,bi,su,sil1,to,te,sil2,['-'],,,none,none,,,,56:60,2,,,,,,,,,,,,,,,3.0,2.0,català,0.0,castellà,3.0,anglès,3.0,4.0,4.0,yes,yes,yes,piano,8,bajo,8,,,nada,68.0,yes
172,2024-05-06_13h48.36.628,Experiment4_uns,s173,29.0,feminino,right,espanya,català,Bachelor degree,no,no,B,2,when,L2,unsyncopated,when,when,44,Online_whenL2//c.cha31.none.wav,to,te,ñu,sil,bi,du,su,sil1,fe,me,sil2,['-'],,,none,none,,,,100:104,3,,,,,,,,,,,,,,,3.0,2.0,català,0.0,castellà,3.0,anglès,3.0,4.0,4.0,yes,yes,yes,piano,8,bajo,8,,,nada,68.0,yes
173,2024-05-06_13h48.36.628,Experiment4_uns,s173,29.0,feminino,right,espanya,català,Bachelor degree,no,no,B,2,when,L2,unsyncopated,when,when,45,Online_whenL2//c.cha30.none.wav,te,mi,to,sil,me,go,si,sil1,ño,du,sil2,['-'],,,none,none,,,,100:104,3,,,,,,,,,,,,,,,3.0,2.0,català,0.0,castellà,3.0,anglès,3.0,4.0,4.0,yes,yes,yes,piano,8,bajo,8,,,nada,68.0,yes
174,2024-05-06_13h48.36.628,Experiment4_uns,s173,29.0,feminino,right,espanya,català,Bachelor degree,no,no,B,2,when,L2,unsyncopated,when,when,46,Online_whenL2//c.cha29.444.wav,go,du,cha,sil,me,ba,su,sil1,ñu,bi,sil2,['catch'],[0.9496000000006006],[0.9496000000006006],0.444,no_beat,0.5056000000006007,0.5056000000006007,"[""space""]",100:104,3,,,,,,,,,,,,,,,3.0,2.0,català,0.0,castellà,3.0,anglès,3.0,4.0,4.0,yes,yes,yes,piano,8,bajo,8,,,nada,68.0,yes
175,2024-05-06_13h48.36.628,Experiment4_uns,s173,29.0,feminino,right,espanya,català,Bachelor degree,no,no,B,2,when,L2,unsyncopated,when,when,47,Online_whenL2//c.cha28.0.wav,cha,fe,to,sil,ba,ñu,me,sil1,go,te,sil2,['catch'],[0.5022999999998774],[0.5022999999998774],0.0,beat,0.5022999999998774,0.5022999999998774,"[""space""]",100:104,3,,,,,,,,,,,,,,,3.0,2.0,català,0.0,castellà,3.0,anglès,3.0,4.0,4.0,yes,yes,yes,piano,8,bajo,8,,,nada,68.0,yes
176,2024-05-06_13h48.36.628,Experiment4_uns,s173,29.0,feminino,right,espanya,català,Bachelor degree,no,no,B,2,when,L2,unsyncopated,when,when,48,Online_whenL2//b.fe12.none.wav,su,si,te,sil,cha,go,ñu,sil1,to,du,sil2,['-'],,,none,none,,,,48:52,2,,,,,,,,,,,,,,,3.0,2.0,català,0.0,castellà,3.0,anglès,3.0,4.0,4.0,yes,yes,yes,piano,8,bajo,8,,,nada,68.0,yes
177,2024-05-06_13h48.36.628,Experiment4_uns,s173,29.0,feminino,right,espanya,català,Bachelor degree,no,no,B,2,when,L2,unsyncopated,when,when,49,Online_whenL2//b.fe15.none.wav,ño,su,to,sil,du,me,go,sil1,cha,mi,sil2,['-'],,,none,none,,,,48:52,2,,,,,,,,,,,,,,,3.0,2.0,català,0.0,castellà,3.0,anglès,3.0,4.0,4.0,yes,yes,yes,piano,8,bajo,8,,,nada,68.0,yes
178,2024-05-06_13h48.36.628,Experiment4_uns,s173,29.0,feminino,right,espanya,català,Bachelor degree,no,no,B,2,when,L2,unsyncopated,when,when,50,Online_whenL2//b.fe13.none.wav,te,su,ra,sil,si,go,ba,sil1,me,mi,sil2,['-'],,,none,none,,,,48:52,2,,,,,,,,,,,,,,,3.0,2.0,català,0.0,castellà,3.0,anglès,3.0,4.0,4.0,yes,yes,yes,piano,8,bajo,8,,,nada,68.0,yes
179,2024-05-06_13h48.36.628,Experiment4_uns,s173,29.0,feminino,right,espanya,català,Bachelor degree,no,no,B,2,when,L2,unsyncopated,when,when,51,Online_whenL2//b.fe14.none.wav,ra,du,ba,sil,to,bi,su,sil1,te,ñu,sil2,['-'],,,none,none,,,,48:52,2,,,,,,,,,,,,,,,3.0,2.0,català,0.0,castellà,3.0,anglès,3.0,4.0,4.0,yes,yes,yes,piano,8,bajo,8,,,nada,68.0,yes
180,2024-05-06_13h48.36.628,Experiment4_uns,s173,29.0,feminino,right,espanya,català,Bachelor degree,no,no,B,2,when,L2,unsyncopated,when,when,52,Online_whenL2//d.si12.1776.wav,mi,du,to,sil,go,ño,bi,sil1,si,cha,sil2,['catch'],[2.4158999999995103],[2.4158999999995103],1.776,beat,0.6398999999995103,0.6398999999995103,"[""space""]",116:120,4,,,,,,,,,,,,,,,3.0,2.0,català,0.0,castellà,3.0,anglès,3.0,4.0,4.0,yes,yes,yes,piano,8,bajo,8,,,nada,68.0,yes
181,2024-05-06_13h48.36.628,Experiment4_uns,s173,29.0,feminino,right,espanya,català,Bachelor degree,no,no,B,2,when,L2,unsyncopated,when,when,53,Online_whenL2//d.si14.1332.wav,ba,te,bi,sil,go,su,si,sil1,du,ñu,sil2,['miss'],,,1.332,no_beat,,,,116:120,4,,,,,,,,,,,,,,,3.0,2.0,català,0.0,castellà,3.0,anglès,3.0,4.0,4.0,yes,yes,yes,piano,8,bajo,8,,,nada,68.0,yes
182,2024-05-06_13h48.36.628,Experiment4_uns,s173,29.0,feminino,right,espanya,català,Bachelor degree,no,no,B,2,when,L2,unsyncopated,when,when,54,Online_whenL2//d.si15.1332.wav,mi,ño,ba,sil,ra,fe,si,sil1,ñu,me,sil2,['catch'],[2.209900000000289],[2.209900000000289],1.332,no_beat,0.8779000000002888,0.8779000000002888,"[""space""]",116:120,4,,,,,,,,,,,,,,,3.0,2.0,català,0.0,castellà,3.0,anglès,3.0,4.0,4.0,yes,yes,yes,piano,8,bajo,8,,,nada,68.0,yes
183,2024-05-06_13h48.36.628,Experiment4_uns,s173,29.0,feminino,right,espanya,català,Bachelor degree,no,no,B,2,when,L2,unsyncopated,when,when,55,Online_whenL2//d.si13.444.wav,go,ñu,si,sil,bi,to,ño,sil1,fe,mi,sil2,['miss'],,,0.444,no_beat,,,,116:120,4,,,,,,,,,,,,,,,3.0,2.0,català,0.0,castellà,3.0,anglès,3.0,4.0,4.0,yes,yes,yes,piano,8,bajo,8,,,nada,68.0,yes
184,2024-05-06_13h48.36.628,Experiment4_uns,s173,29.0,feminino,right,espanya,català,Bachelor degree,no,no,B,2,when,L2,unsyncopated,when,when,56,Online_whenL2//a.du1.none.wav,bi,si,fe,sil,mi,ra,ba,sil1,su,me,sil2,['-'],,,none,none,,,,0:4,1,,,,,,,,,,,,,,,3.0,2.0,català,0.0,castellà,3.0,anglès,3.0,4.0,4.0,yes,yes,yes,piano,8,bajo,8,,,nada,68.0,yes
185,2024-05-06_13h48.36.628,Experiment4_uns,s173,29.0,feminino,right,espanya,català,Bachelor degree,no,no,B,2,when,L2,unsyncopated,when,when,57,Online_whenL2//a.du0.888.wav,ñu,ba,ra,sil,du,su,ño,sil1,cha,te,sil2,['catch'],[1.5357000000001335],[1.5357000000001335],0.888,beat,0.6477000000001335,0.6477000000001335,"[""space""]",0:4,1,,,,,,,,,,,,,,,3.0,2.0,català,0.0,castellà,3.0,anglès,3.0,4.0,4.0,yes,yes,yes,piano,8,bajo,8,,,nada,68.0,yes
186,2024-05-06_13h48.36.628,Experiment4_uns,s173,29.0,feminino,right,espanya,català,Bachelor degree,no,no,B,2,when,L2,unsyncopated,when,when,58,Online_whenL2//a.du2.0.wav,du,me,si,sil,mi,to,go,sil1,cha,bi,sil2,['catch'],[0.6497000000001663],[0.6497000000001663],0.0,beat,0.6497000000001663,0.6497000000001663,"[""space""]",0:4,1,,,,,,,,,,,,,,,3.0,2.0,català,0.0,castellà,3.0,anglès,3.0,4.0,4.0,yes,yes,yes,piano,8,bajo,8,,,nada,68.0,yes
187,2024-05-06_13h48.36.628,Experiment4_uns,s173,29.0,feminino,right,espanya,català,Bachelor degree,no,no,B,2,when,L2,unsyncopated,when,when,59,Online_whenL2//a.du3.none.wav,me,mi,te,sil,cha,go,ñu,sil1,fe,si,sil2,['-'],,,none,none,,,,0:4,1,,,,,,,,,,,,,,,3.0,2.0,català,0.0,castellà,3.0,anglès,3.0,4.0,4.0,yes,yes,yes,piano,8,bajo,8,,,nada,68.0,yes
188,2024-05-06_13h48.36.628,Experiment4_uns,s173,29.0,feminino,right,espanya,català,Bachelor degree,no,no,B,2,when,L2,unsyncopated,when,when,60,Online_whenL2//a.du21.none.wav,cha,si,bi,sil,ñu,ra,ño,sil1,ba,go,sil2,['-'],,,none,none,,,,20:24,1,,,,,,,,,,,,,,,3.0,2.0,català,0.0,castellà,3.0,anglès,3.0,4.0,4.0,yes,yes,yes,piano,8,bajo,8,,,nada,68.0,yes
189,2024-05-06_13h48.36.628,Experiment4_uns,s173,29.0,feminino,right,espanya,català,Bachelor degree,no,no,B,2,when,L2,unsyncopated,when,when,61,Online_whenL2//a.du23.888.wav,si,fe,to,sil,du,su,ño,sil1,me,ba,sil2,['catch'],[1.6017000000003918],[1.6017000000003918],0.888,beat,0.7137000000003918,0.7137000000003918,"[""space""]",20:24,1,,,,,,,,,,,,,,,3.0,2.0,català,0.0,castellà,3.0,anglès,3.0,4.0,4.0,yes,yes,yes,piano,8,bajo,8,,,nada,68.0,yes
190,2024-05-06_13h48.36.628,Experiment4_uns,s173,29.0,feminino,right,espanya,català,Bachelor degree,no,no,B,2,when,L2,unsyncopated,when,when,62,Online_whenL2//a.du20.none.wav,su,go,te,sil,ra,si,bi,sil1,ñu,cha,sil2,['-'],,,none,none,,,,20:24,1,,,,,,,,,,,,,,,3.0,2.0,català,0.0,castellà,3.0,anglès,3.0,4.0,4.0,yes,yes,yes,piano,8,bajo,8,,,nada,68.0,yes
191,2024-05-06_13h48.36.628,Experiment4_uns,s173,29.0,feminino,right,espanya,català,Bachelor degree,no,no,B,2,when,L2,unsyncopated,when,when,63,Online_whenL2//a.du22.444.wav,me,fe,du,sil,to,ba,te,sil1,su,ñu,sil2,['catch'],[1.4425999999996293],[1.4425999999996293],0.444,no_beat,0.9985999999996292,0.9985999999996292,"[""space""]",20:24,1,,,,,,,,,,,,,,,3.0,2.0,català,0.0,castellà,3.0,anglès,3.0,4.0,4.0,yes,yes,yes,piano,8,bajo,8,,,nada,68.0,yes
192,2024-05-06_13h48.36.628,Experiment4_uns,s173,29.0,feminino,right,espanya,català,Bachelor degree,no,no,B,2,when,L2,unsyncopated,when,when,64,Online_whenL2//b.fe0.none.wav,te,go,to,sil,si,ra,ño,sil1,cha,su,sil2,['-'],,,none,none,,,,36:40,2,,,,,,,,,,,,,,,3.0,2.0,català,0.0,castellà,3.0,anglès,3.0,4.0,4.0,yes,yes,yes,piano,8,bajo,8,,,nada,68.0,yes
193,2024-05-06_13h48.36.628,Experiment4_uns,s173,29.0,feminino,right,espanya,català,Bachelor degree,no,no,B,2,when,L2,unsyncopated,when,when,65,Online_whenL2//b.fe2.1332.wav,ñu,bi,mi,sil,ra,cha,fe,sil1,ba,si,sil2,['miss'],,,1.332,no_beat,,,,36:40,2,,,,,,,,,,,,,,,3.0,2.0,català,0.0,castellà,3.0,anglès,3.0,4.0,4.0,yes,yes,yes,piano,8,bajo,8,,,nada,68.0,yes
194,2024-05-06_13h48.36.628,Experiment4_uns,s173,29.0,feminino,right,espanya,català,Bachelor degree,no,no,B,2,when,L2,unsyncopated,when,when,66,Online_whenL2//b.fe1.none.wav,du,te,ba,sil,ra,mi,cha,sil1,ñu,to,sil2,['-'],,,none,none,,,,36:40,2,,,,,,,,,,,,,,,3.0,2.0,català,0.0,castellà,3.0,anglès,3.0,4.0,4.0,yes,yes,yes,piano,8,bajo,8,,,nada,68.0,yes
195,2024-05-06_13h48.36.628,Experiment4_uns,s173,29.0,feminino,right,espanya,català,Bachelor degree,no,no,B,2,when,L2,unsyncopated,when,when,67,Online_whenL2//b.fe3.1110.wav,me,mi,ñu,sil,bi,fe,si,sil1,to,go,sil2,['catch'],[2.240500000000111],[2.240500000000111],1.11,no_beat,1.1305000000001109,1.1305000000001109,"[""space""]",36:40,2,,,,,,,,,,,,,,,3.0,2.0,català,0.0,castellà,3.0,anglès,3.0,4.0,4.0,yes,yes,yes,piano,8,bajo,8,,,nada,68.0,yes
196,2024-05-06_13h48.36.628,Experiment4_uns,s173,29.0,feminino,right,espanya,català,Bachelor degree,no,no,B,2,when,L2,unsyncopated,when,when,68,Online_whenL2//a.du11.1998.wav,me,te,go,sil,mi,ñu,si,sil1,bi,du,sil2,['miss'],,,1.998,no_beat,,,,8:12,1,,,,,,,,,,,,,,,3.0,2.0,català,0.0,castellà,3.0,anglès,3.0,4.0,4.0,yes,yes,yes,piano,8,bajo,8,,,nada,68.0,yes
197,2024-05-06_13h48.36.628,Experiment4_uns,s173,29.0,feminino,right,espanya,català,Bachelor degree,no,no,B,2,when,L2,unsyncopated,when,when,69,Online_whenL2//a.du8.none.wav,ño,su,to,sil,go,te,bi,sil1,ra,si,sil2,['-'],,,none,none,,,,8:12,1,,,,,,,,,,,,,,,3.0,2.0,català,0.0,castellà,3.0,anglès,3.0,4.0,4.0,yes,yes,yes,piano,8,bajo,8,,,nada,68.0,yes
198,2024-05-06_13h48.36.628,Experiment4_uns,s173,29.0,feminino,right,espanya,català,Bachelor degree,no,no,B,2,when,L2,unsyncopated,when,when,70,Online_whenL2//a.du9.1332.wav,bi,cha,su,sil,ñu,ba,du,sil1,ra,me,sil2,['miss'],,,1.332,no_beat,,,,8:12,1,,,,,,,,,,,,,,,3.0,2.0,català,0.0,castellà,3.0,anglès,3.0,4.0,4.0,yes,yes,yes,piano,8,bajo,8,,,nada,68.0,yes
199,2024-05-06_13h48.36.628,Experiment4_uns,s173,29.0,feminino,right,espanya,català,Bachelor degree,no,no,B,2,when,L2,unsyncopated,when,when,71,Online_whenL2//a.du10.none.wav,cha,ño,to,sil,ra,bi,fe,sil1,ba,mi,sil2,['-'],,,none,none,,,,8:12,1,,,,,,,,,,,,,,,3.0,2.0,català,0.0,castellà,3.0,anglès,3.0,4.0,4.0,yes,yes,yes,piano,8,bajo,8,,,nada,68.0,yes
200,2024-05-06_13h48.36.628,Experiment4_uns,s173,29.0,feminino,right,espanya,català,Bachelor degree,no,no,B,2,when,L2,unsyncopated,when,when,72,Online_whenL2//a.du18.none.wav,go,fe,te,sil,si,cha,ba,sil1,ño,to,sil2,['-'],,,none,none,,,,16:20,1,,,,,,,,,,,,,,,3.0,2.0,català,0.0,castellà,3.0,anglès,3.0,4.0,4.0,yes,yes,yes,piano,8,bajo,8,,,nada,68.0,yes
201,2024-05-06_13h48.36.628,Experiment4_uns,s173,29.0,feminino,right,espanya,català,Bachelor degree,no,no,B,2,when,L2,unsyncopated,when,when,73,Online_whenL2//a.du16.none.wav,ñu,te,to,sil,su,me,si,sil1,ra,fe,sil2,['-'],,,none,none,,,,16:20,1,,,,,,,,,,,,,,,3.0,2.0,català,0.0,castellà,3.0,anglès,3.0,4.0,4.0,yes,yes,yes,piano,8,bajo,8,,,nada,68.0,yes
202,2024-05-06_13h48.36.628,Experiment4_uns,s173,29.0,feminino,right,espanya,català,Bachelor degree,no,no,B,2,when,L2,unsyncopated,when,when,74,Online_whenL2//a.du17.none.wav,ra,go,su,sil,me,si,cha,sil1,bi,te,sil2,['-'],,,none,none,,,,16:20,1,,,,,,,,,,,,,,,3.0,2.0,català,0.0,castellà,3.0,anglès,3.0,4.0,4.0,yes,yes,yes,piano,8,bajo,8,,,nada,68.0,yes
203,2024-05-06_13h48.36.628,Experiment4_uns,s173,29.0,feminino,right,espanya,català,Bachelor degree,no,no,B,2,when,L2,unsyncopated,when,when,75,Online_whenL2//a.du19.none.wav,su,ñu,to,sil,bi,fe,me,sil1,ño,go,sil2,['-'],,,none,none,,,,16:20,1,,,,,,,,,,,,,,,3.0,2.0,català,0.0,castellà,3.0,anglès,3.0,4.0,4.0,yes,yes,yes,piano,8,bajo,8,,,nada,68.0,yes
204,2024-05-06_13h48.36.628,Experiment4_uns,s173,29.0,feminino,right,espanya,català,Bachelor degree,no,no,B,2,when,L2,unsyncopated,when,when,76,Online_whenL2//c.cha27.none.wav,bi,fe,mi,sil,te,ra,ño,sil1,to,ñu,sil2,['-'],,,none,none,,,,96:100,3,,,,,,,,,,,,,,,3.0,2.0,català,0.0,castellà,3.0,anglès,3.0,4.0,4.0,yes,yes,yes,piano,8,bajo,8,,,nada,68.0,yes
205,2024-05-06_13h48.36.628,Experiment4_uns,s173,29.0,feminino,right,espanya,català,Bachelor degree,no,no,B,2,when,L2,unsyncopated,when,when,77,Online_whenL2//c.cha25.888.wav,fe,ño,su,sil,cha,te,bi,sil1,me,ra,sil2,['catch'],[1.511399999999412],[1.511399999999412],0.888,beat,0.6233999999994121,0.6233999999994121,"[""space""]",96:100,3,,,,,,,,,,,,,,,3.0,2.0,català,0.0,castellà,3.0,anglès,3.0,4.0,4.0,yes,yes,yes,piano,8,bajo,8,,,nada,68.0,yes
206,2024-05-06_13h48.36.628,Experiment4_uns,s173,29.0,feminino,right,espanya,català,Bachelor degree,no,no,B,2,when,L2,unsyncopated,when,when,78,Online_whenL2//c.cha24.444.wav,me,bi,cha,sil,su,ra,ño,sil1,to,fe,sil2,['catch'],[1.2606000000005224],[1.2606000000005224],0.444,no_beat,0.8166000000005225,0.8166000000005225,"[""space""]",96:100,3,,,,,,,,,,,,,,,3.0,2.0,català,0.0,castellà,3.0,anglès,3.0,4.0,4.0,yes,yes,yes,piano,8,bajo,8,,,nada,68.0,yes
207,2024-05-06_13h48.36.628,Experiment4_uns,s173,29.0,feminino,right,espanya,català,Bachelor degree,no,no,B,2,when,L2,unsyncopated,when,when,79,Online_whenL2//c.cha26.0.wav,cha,to,ra,sil,go,ñu,ba,sil1,bi,te,sil2,['miss'],,,0.0,beat,,,,96:100,3,,,,,,,,,,,,,,,3.0,2.0,català,0.0,castellà,3.0,anglès,3.0,4.0,4.0,yes,yes,yes,piano,8,bajo,8,,,nada,68.0,yes
208,2024-05-06_13h48.36.628,Experiment4_uns,s173,29.0,feminino,right,espanya,català,Bachelor degree,no,no,B,2,when,L2,unsyncopated,when,when,80,Online_whenL2//d.si21.none.wav,te,me,bi,sil,go,ñu,to,sil1,ra,ño,sil2,['-'],,,none,none,,,,124:128,4,,,,,,,,,,,,,,,3.0,2.0,català,0.0,castellà,3.0,anglès,3.0,4.0,4.0,yes,yes,yes,piano,8,bajo,8,,,nada,68.0,yes
209,2024-05-06_13h48.36.628,Experiment4_uns,s173,29.0,feminino,right,espanya,català,Bachelor degree,no,no,B,2,when,L2,unsyncopated,when,when,81,Online_whenL2//d.si22.none.wav,te,du,fe,sil,cha,su,ñu,sil1,me,ba,sil2,['-'],,,none,none,,,,124:128,4,,,,,,,,,,,,,,,3.0,2.0,català,0.0,castellà,3.0,anglès,3.0,4.0,4.0,yes,yes,yes,piano,8,bajo,8,,,nada,68.0,yes
210,2024-05-06_13h48.36.628,Experiment4_uns,s173,29.0,feminino,right,espanya,català,Bachelor degree,no,no,B,2,when,L2,unsyncopated,when,when,82,Online_whenL2//d.si20.1998.wav,ba,mi,ñu,sil,cha,to,go,sil1,ra,si,sil2,['catch'],[2.6322999999999865],[2.6322999999999865],1.998,no_beat,0.6342999999999865,0.6342999999999865,"[""space""]",124:128,4,,,,,,,,,,,,,,,3.0,2.0,català,0.0,castellà,3.0,anglès,3.0,4.0,4.0,yes,yes,yes,piano,8,bajo,8,,,nada,68.0,yes
211,2024-05-06_13h48.36.628,Experiment4_uns,s173,29.0,feminino,right,espanya,català,Bachelor degree,no,no,B,2,when,L2,unsyncopated,when,when,83,Online_whenL2//d.si23.none.wav,to,mi,ba,sil,go,du,ñu,sil1,te,ño,sil2,['-'],,,none,none,,,,124:128,4,,,,,,,,,,,,,,,3.0,2.0,català,0.0,castellà,3.0,anglès,3.0,4.0,4.0,yes,yes,yes,piano,8,bajo,8,,,nada,68.0,yes
212,2024-05-06_13h48.36.628,Experiment4_uns,s173,29.0,feminino,right,espanya,català,Bachelor degree,no,no,B,2,when,L2,unsyncopated,when,when,84,Online_whenL2//a.du32.none.wav,to,fe,ñu,sil,cha,te,go,sil1,ño,si,sil2,['-'],,,none,none,,,,32:36,1,,,,,,,,,,,,,,,3.0,2.0,català,0.0,castellà,3.0,anglès,3.0,4.0,4.0,yes,yes,yes,piano,8,bajo,8,,,nada,68.0,yes
213,2024-05-06_13h48.36.628,Experiment4_uns,s173,29.0,feminino,right,espanya,català,Bachelor degree,no,no,B,2,when,L2,unsyncopated,when,when,85,Online_whenL2//a.du35.none.wav,to,ñu,su,sil,ba,cha,fe,sil1,ño,go,sil2,['-'],,,none,none,,,,32:36,1,,,,,,,,,,,,,,,3.0,2.0,català,0.0,castellà,3.0,anglès,3.0,4.0,4.0,yes,yes,yes,piano,8,bajo,8,,,nada,68.0,yes
214,2024-05-06_13h48.36.628,Experiment4_uns,s173,29.0,feminino,right,espanya,català,Bachelor degree,no,no,B,2,when,L2,unsyncopated,when,when,86,Online_whenL2//a.du33.1110.wav,te,su,si,sil,to,du,fe,sil1,mi,me,sil2,['false alarm'],[0.867799999999761],[0.867799999999761],1.11,no_beat,,,"[""space""]",32:36,1,,,,,,,,,,,,,,,3.0,2.0,català,0.0,castellà,3.0,anglès,3.0,4.0,4.0,yes,yes,yes,piano,8,bajo,8,,,nada,68.0,yes
215,2024-05-06_13h48.36.628,Experiment4_uns,s173,29.0,feminino,right,espanya,català,Bachelor degree,no,no,B,2,when,L2,unsyncopated,when,when,87,Online_whenL2//a.du34.1110.wav,ba,ñu,fe,sil,si,du,ño,sil1,te,su,sil2,['miss'],,,1.11,no_beat,,,,32:36,1,,,,,,,,,,,,,,,3.0,2.0,català,0.0,castellà,3.0,anglès,3.0,4.0,4.0,yes,yes,yes,piano,8,bajo,8,,,nada,68.0,yes
216,2024-05-06_13h48.36.628,Experiment4_uns,s173,29.0,feminino,right,espanya,català,Bachelor degree,no,no,B,2,when,L2,unsyncopated,when,when,88,Online_whenL2//d.si3.444.wav,bi,su,si,sil,go,mi,ba,sil1,ñu,du,sil2,['catch'],[1.0911999999991622],[1.0911999999991622],0.444,no_beat,0.6471999999991622,0.6471999999991622,"[""space""]",104:108,4,,,,,,,,,,,,,,,3.0,2.0,català,0.0,castellà,3.0,anglès,3.0,4.0,4.0,yes,yes,yes,piano,8,bajo,8,,,nada,68.0,yes
217,2024-05-06_13h48.36.628,Experiment4_uns,s173,29.0,feminino,right,espanya,català,Bachelor degree,no,no,B,2,when,L2,unsyncopated,when,when,89,Online_whenL2//d.si0.none.wav,ño,fe,go,sil,bi,te,cha,sil1,mi,to,sil2,['-'],,,none,none,,,,104:108,4,,,,,,,,,,,,,,,3.0,2.0,català,0.0,castellà,3.0,anglès,3.0,4.0,4.0,yes,yes,yes,piano,8,bajo,8,,,nada,68.0,yes
218,2024-05-06_13h48.36.628,Experiment4_uns,s173,29.0,feminino,right,espanya,català,Bachelor degree,no,no,B,2,when,L2,unsyncopated,when,when,90,Online_whenL2//d.si2.0.wav,si,me,fe,sil,to,ba,ñu,sil1,su,ra,sil2,['catch'],[0.5842000000000098],[0.5842000000000098],0.0,beat,0.5842000000000098,0.5842000000000098,"[""space""]",104:108,4,,,,,,,,,,,,,,,3.0,2.0,català,0.0,castellà,3.0,anglès,3.0,4.0,4.0,yes,yes,yes,piano,8,bajo,8,,,nada,68.0,yes
219,2024-05-06_13h48.36.628,Experiment4_uns,s173,29.0,feminino,right,espanya,català,Bachelor degree,no,no,B,2,when,L2,unsyncopated,when,when,91,Online_whenL2//d.si1.444.wav,ra,cha,si,sil,te,du,mi,sil1,su,bi,sil2,['catch'],[1.1650999999997111],[1.1650999999997111],0.444,no_beat,0.7210999999997112,0.7210999999997112,"[""space""]",104:108,4,,,,,,,,,,,,,,,3.0,2.0,català,0.0,castellà,3.0,anglès,3.0,4.0,4.0,yes,yes,yes,piano,8,bajo,8,,,nada,68.0,yes
220,2024-05-06_13h48.36.628,Experiment4_uns,s173,29.0,feminino,right,espanya,català,Bachelor degree,no,no,B,2,when,L2,unsyncopated,when,when,92,Online_whenL2//b.fe5.1332.wav,si,cha,bi,sil,ñu,su,fe,sil1,ra,te,sil2,['miss'],,,1.332,no_beat,,,,40:44,2,,,,,,,,,,,,,,,3.0,2.0,català,0.0,castellà,3.0,anglès,3.0,4.0,4.0,yes,yes,yes,piano,8,bajo,8,,,nada,68.0,yes
221,2024-05-06_13h48.36.628,Experiment4_uns,s173,29.0,feminino,right,espanya,català,Bachelor degree,no,no,B,2,when,L2,unsyncopated,when,when,93,Online_whenL2//b.fe7.1998.wav,ba,si,du,sil,cha,ño,bi,sil1,mi,fe,sil2,['catch_delay'],[0.6841000000004589],[0.6841000000004589],1.998,no_beat,0.6841000000004589,0.6841000000004589,,40:44,2,,,,,,,,,,,,,,,3.0,2.0,català,0.0,castellà,3.0,anglès,3.0,4.0,4.0,yes,yes,yes,piano,8,bajo,8,,,nada,68.0,yes
222,2024-05-06_13h48.36.628,Experiment4_uns,s173,29.0,feminino,right,espanya,català,Bachelor degree,no,no,B,2,when,L2,unsyncopated,when,when,94,Online_whenL2//b.fe6.1998.wav,du,su,ñu,sil,cha,ba,to,sil1,te,fe,sil2,['miss'],[0.01810000000045875],[0.01810000000045875],1.998,no_beat,,,"[""space""]",40:44,2,,,,,,,,,,,,,,,3.0,2.0,català,0.0,castellà,3.0,anglès,3.0,4.0,4.0,yes,yes,yes,piano,8,bajo,8,,,nada,68.0,yes
