Unnamed: 0,date,expName,participant,age,sex,hand,residence,native_lang,education_level,lang_deficit,aud_deficit,group,block,condition,language,rhythm,rule structure online,rule type online,order_trial_on,trial_online,s1,s2,s3,s4,s5,s6,s7,s8,s9,s10,s11,catch_syll_resp,rts_syll_catch,clean_rts,time_syll,beat_no_beat,catch_rtsTR,catch_rts,syllable_catch.keys,cond_syll,syll_to_catch,test_offline,block_off,condition_off,rhythm_off,rule,rule_str_off,rule_norule,conds_offline,language_off,Partz_no_partm.keys,Partz_no_partm.rt,security_1_7.keys,accuracy,security_1_7.rt,n_lang,n_lang_used,lang_1,age_l1,lang_2,age_l2,lang_3,age_l3,lang_4,age_l4,ability_learn_l2,tendence_mix_lan,music_experience,muisc_use,partiture,instr_1,age_M1,preguntas_musica1,BMRQ_answer.response,final comment,BMRQ_Score,bilingual
0,2024-04-15_14h32.20.450,Experiment4_uns,s152,22.0,feminino,right,España,CatalàEspanyol,Bachelor degree,no,no,A,1,conjunction_un,L4,unsyncopated,s2,r1,0,Online_conjL4_un//a.zi.lo26.888.1776.wav,pe,bu,de,sil,zi,da,ñi,sil1,lo,bo,sil2,['catch'],[2.265699999988101],[2.265699999988101],1.776,beat,0.4896999999881009,0.4896999999881009,"[""space""]",lo,2,testConjL4Uns//dep_viol.r2.s2.0.wav,1.0,conjunction_un,unsyncopated,b,s2,no_rule,dep,L4,z,1.1099,6.0,0.0,2.8593,4 ,1.0,Català,0.0,Español,0.0,Inglés,8.0,Italiano,20.0,3.0,3.0,yes,no,no,nada,,1. Cuando comparto música con alguien siento una complicidad especial con aquella persona.,3.0,distracción en la mitad de la tarea 2 del último lenguajepor el resto nada! ,56.0,yes
1,2024-04-15_14h32.20.450,Experiment4_uns,s152,22.0,feminino,right,España,CatalàEspanyol,Bachelor degree,no,no,A,1,conjunction_un,L4,unsyncopated,s2,r1,1,Online_conjL4_un//a.zi.lo25.888.1776.wav,bu,ña,de,sil,zi,ci,pe,sil1,lo,po,sil2,['catch'],[2.171599999964201],[2.171599999964201],1.776,beat,0.3955999999642008,0.3955999999642008,"[""space""]",lo,2,testConjL4Uns//time_viol.r2.s2.0.wav,1.0,conjunction_un,unsyncopated,b,s2,no_rule,time,L4,z,0.3639,5.0,0.0,0.3368,4 ,1.0,Català,0.0,Español,0.0,Inglés,8.0,Italiano,20.0,3.0,3.0,yes,no,no,nada,,2. En mi tiempo libre apenas escucho música.,5.0,distracción en la mitad de la tarea 2 del último lenguajepor el resto nada! ,56.0,yes
2,2024-04-15_14h32.20.450,Experiment4_uns,s152,22.0,feminino,right,España,CatalàEspanyol,Bachelor degree,no,no,A,1,conjunction_un,L4,unsyncopated,s2,r1,2,Online_conjL4_un//a.zi.lo24.888.1776.wav,re,bo,po,sil,zi,da,ñi,sil1,lo,pe,sil2,['catch'],[2.2083000000119455],[2.2083000000119455],1.776,beat,0.4323000000119454,0.4323000000119454,"[""space""]",lo,2,testConjL4Uns//dep_viol.r2.s1.0.wav,1.0,conjunction_un,unsyncopated,b,s1,no_rule,dep,L4,z,0.4911,6.0,0.0,0.2004,4 ,1.0,Català,0.0,Español,0.0,Inglés,8.0,Italiano,20.0,3.0,3.0,yes,no,no,nada,,3. Algunas canciones me ponen los pelos de punta,3.0,distracción en la mitad de la tarea 2 del último lenguajepor el resto nada! ,56.0,yes
3,2024-04-15_14h32.20.450,Experiment4_uns,s152,22.0,feminino,right,España,CatalàEspanyol,Bachelor degree,no,no,A,1,conjunction_un,L4,unsyncopated,s1,r2,3,Online_conjL4_un//a.zi.lo27.none.none.wav,ja,ña,bu,sil,nu,ñi,re,sil1,pe,po,sil2,['false alarm'],[2.5530999999642745],[2.5530999999642745],none,none,,,"[""space""]",lo,2,testConjL4Uns//time_viol.r1.s1.0.wav,1.0,conjunction_un,unsyncopated,a,s1,no_rule,time,L4,m,1.6942,3.0,1.0,0.9519,4 ,1.0,Català,0.0,Español,0.0,Inglés,8.0,Italiano,20.0,3.0,3.0,yes,no,no,nada,,4. La música me hace compañía cuando estoy solo,4.0,distracción en la mitad de la tarea 2 del último lenguajepor el resto nada! ,56.0,yes
4,2024-04-15_14h32.20.450,Experiment4_uns,s152,22.0,feminino,right,España,CatalàEspanyol,Bachelor degree,no,no,A,1,conjunction_un,L4,unsyncopated,s2,r1,4,Online_conjL4_un//d.pe.po22.none.none.wav,ñi,bu,de,sil,zi,bo,ña,sil1,lo,ci,sil2,['-'],,,none,none,,,,pe,4,testConjL4Uns//r2.s1.2.wav,1.0,conjunction_un,unsyncopated,b,s1,rule,rule,L4,z,0.5829,5.0,1.0,0.2167,4 ,1.0,Català,0.0,Español,0.0,Inglés,8.0,Italiano,20.0,3.0,3.0,yes,no,no,nada,,5. No me apetece bailar ni con la música que más me gusta,5.0,distracción en la mitad de la tarea 2 del último lenguajepor el resto nada! ,56.0,yes
5,2024-04-15_14h32.20.450,Experiment4_uns,s152,22.0,feminino,right,España,CatalàEspanyol,Bachelor degree,no,no,A,1,conjunction_un,L4,unsyncopated,s2,r2,5,Online_conjL4_un//d.pe.po23.none.none.wav,ru,ñi,re,sil,ja,de,bu,sil1,nu,ci,sil2,['-'],,,none,none,,,,pe,4,testConjL4Uns//r1.s1.1.wav,1.0,conjunction_un,unsyncopated,a,s1,rule,rule,L4,z,0.3002,5.0,1.0,0.1345,4 ,1.0,Català,0.0,Español,0.0,Inglés,8.0,Italiano,20.0,3.0,3.0,yes,no,no,nada,,6. La música me hace conectar con la gente,3.0,distracción en la mitad de la tarea 2 del último lenguajepor el resto nada! ,56.0,yes
6,2024-04-15_14h32.20.450,Experiment4_uns,s152,22.0,feminino,right,España,CatalàEspanyol,Bachelor degree,no,no,A,1,conjunction_un,L4,unsyncopated,s2,r1,6,Online_conjL4_un//d.pe.po21.1110.0.wav,po,da,ña,sil,zi,pe,ci,sil1,lo,bu,sil2,['miss'],,,1.11,no_beat,,,,pe,4,testConjL4Uns//r1.s2.2.wav,1.0,conjunction_un,unsyncopated,a,s2,rule,rule,L4,m,0.4741,3.0,0.0,1.0687,4 ,1.0,Català,0.0,Español,0.0,Inglés,8.0,Italiano,20.0,3.0,3.0,yes,no,no,nada,,7. Me informo sobre la música que me gusta.,2.0,distracción en la mitad de la tarea 2 del último lenguajepor el resto nada! ,56.0,yes
7,2024-04-15_14h32.20.450,Experiment4_uns,s152,22.0,feminino,right,España,CatalàEspanyol,Bachelor degree,no,no,A,1,conjunction_un,L4,unsyncopated,s2,r2,7,Online_conjL4_un//d.pe.po20.444.0.wav,po,bu,pe,sil,ja,ñi,ru,sil1,nu,bo,sil2,['miss'],,,0.444,no_beat,,,,pe,4,testConjL4Uns//r1.s1.0.wav,1.0,conjunction_un,unsyncopated,a,s1,rule,rule,L4,m,0.3334,4.0,0.0,0.4756,4 ,1.0,Català,0.0,Español,0.0,Inglés,8.0,Italiano,20.0,3.0,3.0,yes,no,no,nada,,8.Me emociono escuchando ciertas canciones.,3.0,distracción en la mitad de la tarea 2 del último lenguajepor el resto nada! ,56.0,yes
8,2024-04-15_14h32.20.450,Experiment4_uns,s152,22.0,feminino,right,España,CatalàEspanyol,Bachelor degree,no,no,A,1,conjunction_un,L4,unsyncopated,s2,r1,8,Online_conjL4_un//b.ja.nu18.none.none.wav,re,ci,bu,sil,zi,ñi,ña,sil1,lo,pe,sil2,['-'],,,none,none,,,,ja,1,testConjL4Uns//r1.s2.0.wav,1.0,conjunction_un,unsyncopated,a,s2,rule,rule,L4,m,0.3141,4.0,0.0,0.4017,4 ,1.0,Català,0.0,Español,0.0,Inglés,8.0,Italiano,20.0,3.0,3.0,yes,no,no,nada,,9.La música me tranquiliza y me relaja.,3.0,distracción en la mitad de la tarea 2 del último lenguajepor el resto nada! ,56.0,yes
9,2024-04-15_14h32.20.450,Experiment4_uns,s152,22.0,feminino,right,España,CatalàEspanyol,Bachelor degree,no,no,A,1,conjunction_un,L4,unsyncopated,s1,r2,9,Online_conjL4_un//b.ja.nu17.0.888.wav,ja,da,ru,sil,nu,ña,ci,sil1,po,re,sil2,['catch'],[0.5045000000000073],[0.5045000000000073],0.0,beat,0.5045000000000073,0.5045000000000073,"[""space""]",ja,1,testConjL4Uns//cat_viol.r1.s2.0.wav,1.0,conjunction_un,unsyncopated,a,s2,no_rule,cat,L4,m,0.5005,3.0,1.0,0.8907,4 ,1.0,Català,0.0,Español,0.0,Inglés,8.0,Italiano,20.0,3.0,3.0,yes,no,no,nada,,10.La música me hace bailar,3.0,distracción en la mitad de la tarea 2 del último lenguajepor el resto nada! ,56.0,yes
10,2024-04-15_14h32.20.450,Experiment4_uns,s152,22.0,feminino,right,España,CatalàEspanyol,Bachelor degree,no,no,A,1,conjunction_un,L4,unsyncopated,s1,r2,10,Online_conjL4_un//b.ja.nu16.0.888.wav,ja,da,po,sil,nu,ru,bu,sil1,ci,de,sil2,['catch'],[0.3735999999643127],[0.3735999999643127],0.0,beat,0.3735999999643127,0.3735999999643127,"[""space""]",ja,1,testConjL4Uns//r2.s2.0.wav,1.0,conjunction_un,unsyncopated,b,s2,rule,rule,L4,m,0.133,5.0,0.0,0.5441,4 ,1.0,Català,0.0,Español,0.0,Inglés,8.0,Italiano,20.0,3.0,3.0,yes,no,no,nada,,11.Busco novedades musicales continuamente,1.0,distracción en la mitad de la tarea 2 del último lenguajepor el resto nada! ,56.0,yes
11,2024-04-15_14h32.20.450,Experiment4_uns,s152,22.0,feminino,right,España,CatalàEspanyol,Bachelor degree,no,no,A,1,conjunction_un,L4,unsyncopated,s1,r1,11,Online_conjL4_un//b.ja.nu19.none.none.wav,zi,ña,pe,sil,lo,bu,ñi,sil1,da,ru,sil2,['-'],,,none,none,,,,ja,1,testConjL4Uns//time_viol.r2.s1.0.wav,1.0,conjunction_un,unsyncopated,b,s1,no_rule,time,L4,z,0.3171,5.0,0.0,0.1402,4 ,1.0,Català,0.0,Español,0.0,Inglés,8.0,Italiano,20.0,3.0,3.0,yes,no,no,nada,,12. Puedo llorar cuando escucho algunas melodías que me gustan mucho.,4.0,distracción en la mitad de la tarea 2 del último lenguajepor el resto nada! ,56.0,yes
12,2024-04-15_14h32.20.450,Experiment4_uns,s152,22.0,feminino,right,España,CatalàEspanyol,Bachelor degree,no,no,A,1,conjunction_un,L4,unsyncopated,s2,r1,12,Online_conjL4_un//d.pe.po4.0.1110.wav,pe,ru,da,sil,zi,po,ñi,sil1,lo,bu,sil2,['catch'],[0.8358000000118864],[0.8358000000118864],0.0,beat,0.8358000000118864,0.8358000000118864,"[""space""]",pe,4,testConjL4Uns//r1.s2.1.wav,1.0,conjunction_un,unsyncopated,a,s2,rule,rule,L4,m,0.8189,3.0,0.0,0.892,4 ,1.0,Català,0.0,Español,0.0,Inglés,8.0,Italiano,20.0,3.0,3.0,yes,no,no,nada,,13. Me gusta cantar o tocar un instrumento con más gente,2.0,distracción en la mitad de la tarea 2 del último lenguajepor el resto nada! ,56.0,yes
13,2024-04-15_14h32.20.450,Experiment4_uns,s152,22.0,feminino,right,España,CatalàEspanyol,Bachelor degree,no,no,A,1,conjunction_un,L4,unsyncopated,s1,r1,13,Online_conjL4_un//d.pe.po7.1110.222.wav,zi,po,ña,sil,lo,pe,ru,sil1,da,re,sil2,['catch'],[1.6700999999642363],[1.6700999999642363],1.11,no_beat,0.5600999999642362,0.5600999999642362,"[""space""]",pe,4,testConjL4Uns//cat_viol.r1.s1.0.wav,1.0,conjunction_un,unsyncopated,a,s1,no_rule,cat,L4,m,1.7572,4.0,1.0,0.3854,4 ,1.0,Català,0.0,Español,0.0,Inglés,8.0,Italiano,20.0,3.0,3.0,yes,no,no,nada,,14. La música me ayuda a desconectar.,3.0,distracción en la mitad de la tarea 2 del último lenguajepor el resto nada! ,56.0,yes
14,2024-04-15_14h32.20.450,Experiment4_uns,s152,22.0,feminino,right,España,CatalàEspanyol,Bachelor degree,no,no,A,1,conjunction_un,L4,unsyncopated,s1,r1,14,Online_conjL4_un//d.pe.po5.none.none.wav,zi,de,re,sil,lo,ru,ci,sil1,bo,bu,sil2,['-'],,,none,none,,,,pe,4,testConjL4Uns//dep_viol.r1.s2.0.wav,1.0,conjunction_un,unsyncopated,a,s2,no_rule,dep,L4,m,0.4853,2.0,1.0,1.0396,4 ,1.0,Català,0.0,Español,0.0,Inglés,8.0,Italiano,20.0,3.0,3.0,yes,no,no,nada,,15. No puedo evitar tararear las canciones que me gustan cuando las escucho.,3.0,distracción en la mitad de la tarea 2 del último lenguajepor el resto nada! ,56.0,yes
15,2024-04-15_14h32.20.450,Experiment4_uns,s152,22.0,feminino,right,España,CatalàEspanyol,Bachelor degree,no,no,A,1,conjunction_un,L4,unsyncopated,s1,r2,15,Online_conjL4_un//d.pe.po6.1110.222.wav,ja,po,de,sil,nu,pe,da,sil1,ru,bo,sil2,['miss'],,,1.11,no_beat,,,,pe,4,testConjL4Uns//r2.s2.2.wav,1.0,conjunction_un,unsyncopated,b,s2,rule,rule,L4,z,0.3923,5.0,1.0,0.3855,4 ,1.0,Català,0.0,Español,0.0,Inglés,8.0,Italiano,20.0,3.0,3.0,yes,no,no,nada,,16. En los conciertos me siento en sintonía con los artistas y el público.,3.0,distracción en la mitad de la tarea 2 del último lenguajepor el resto nada! ,56.0,yes
16,2024-04-15_14h32.20.450,Experiment4_uns,s152,22.0,feminino,right,España,CatalàEspanyol,Bachelor degree,no,no,A,1,conjunction_un,L4,unsyncopated,s1,r1,16,Online_conjL4_un//c.bu.da7.none.none.wav,zi,re,po,sil,lo,bo,ci,sil1,ña,de,sil2,['-'],,,none,none,,,,bu,3,testConjL4Uns//time_viol.r1.s2.0.wav,1.0,conjunction_un,unsyncopated,a,s2,no_rule,time,L4,m,0.1313,2.0,1.0,0.3006,4 ,1.0,Català,0.0,Español,0.0,Inglés,8.0,Italiano,20.0,3.0,3.0,yes,no,no,nada,,17. Me gasto bastante dinero en música y cosas relacionadas con la música.,3.0,distracción en la mitad de la tarea 2 del último lenguajepor el resto nada! ,56.0,yes
17,2024-04-15_14h32.20.450,Experiment4_uns,s152,22.0,feminino,right,España,CatalàEspanyol,Bachelor degree,no,no,A,1,conjunction_un,L4,unsyncopated,s1,r2,17,Online_conjL4_un//c.bu.da6.1776.444.wav,ja,ru,da,sil,nu,ñi,ña,sil1,bu,re,sil2,['catch'],[2.307300000011878],[2.307300000011878],1.776,beat,0.5313000000118782,0.5313000000118782,"[""space""]",bu,3,testConjL4Uns//cat_viol.r2.s2.0.wav,1.0,conjunction_un,unsyncopated,b,s2,no_rule,cat,L4,z,0.3331,6.0,0.0,0.1995,4 ,1.0,Català,0.0,Español,0.0,Inglés,8.0,Italiano,20.0,3.0,3.0,yes,no,no,nada,,18. Siento escalofríos cuando escucho una melodía que me gusta.,0.0,distracción en la mitad de la tarea 2 del último lenguajepor el resto nada! ,56.0,yes
18,2024-04-15_14h32.20.450,Experiment4_uns,s152,22.0,feminino,right,España,CatalàEspanyol,Bachelor degree,no,no,A,1,conjunction_un,L4,unsyncopated,s1,r1,18,Online_conjL4_un//c.bu.da4.1776.1110.wav,zi,re,bo,sil,lo,da,ru,sil1,bu,de,sil2,"['false alarm', 'catch']","[1.1888000000119519, 2.269300000011981]",[2.269300000011981],1.776,beat,0.4933000000119809,0.4933000000119809,"[""space"",""space""]",bu,3,testConjL4Uns//r1.s1.2.wav,1.0,conjunction_un,unsyncopated,a,s1,rule,rule,L4,m,0.343,4.0,0.0,0.2682,4 ,1.0,Català,0.0,Español,0.0,Inglés,8.0,Italiano,20.0,3.0,3.0,yes,no,no,nada,,19. Con la música me puedo desahogar.,2.0,distracción en la mitad de la tarea 2 del último lenguajepor el resto nada! ,56.0,yes
19,2024-04-15_14h32.20.450,Experiment4_uns,s152,22.0,feminino,right,España,CatalàEspanyol,Bachelor degree,no,no,A,1,conjunction_un,L4,unsyncopated,s2,r1,19,Online_conjL4_un//c.bu.da5.222.444.wav,po,bu,da,sil,zi,de,ci,sil1,lo,re,sil2,['miss'],,,0.222,no_beat,,,,bu,3,testConjL4Uns//r2.s1.0.wav,1.0,conjunction_un,unsyncopated,b,s1,rule,rule,L4,m,0.634,2.0,0.0,0.3538,4 ,1.0,Català,0.0,Español,0.0,Inglés,8.0,Italiano,20.0,3.0,3.0,yes,no,no,nada,,20. Cuando escucho una melodía que me gusta mucho no puedo evitar mover el cuerpo.,1.0,distracción en la mitad de la tarea 2 del último lenguajepor el resto nada! ,56.0,yes
20,2024-04-15_14h32.20.450,Experiment4_uns,s152,22.0,feminino,right,España,CatalàEspanyol,Bachelor degree,no,no,A,1,conjunction_un,L4,unsyncopated,s1,r2,20,Online_conjL4_un//c.bu.da9.none.none.wav,ja,re,ñi,sil,nu,ña,de,sil1,bo,po,sil2,['-'],,,none,none,,,,bu,3,testConjL4Uns//r2.s2.1.wav,1.0,conjunction_un,unsyncopated,b,s2,rule,rule,L4,m,0.0841,2.0,0.0,0.3147,4 ,1.0,Català,0.0,Español,0.0,Inglés,8.0,Italiano,20.0,3.0,3.0,yes,no,no,nada,,,,distracción en la mitad de la tarea 2 del último lenguajepor el resto nada! ,56.0,yes
21,2024-04-15_14h32.20.450,Experiment4_uns,s152,22.0,feminino,right,España,CatalàEspanyol,Bachelor degree,no,no,A,1,conjunction_un,L4,unsyncopated,s1,r2,21,Online_conjL4_un//c.bu.da11.none.none.wav,ja,bo,ñi,sil,nu,pe,re,sil1,ci,ña,sil2,['-'],,,none,none,,,,bu,3,testConjL4Uns//r2.s1.1.wav,1.0,conjunction_un,unsyncopated,b,s1,rule,rule,L4,m,0.1336,3.0,0.0,0.2883,4 ,1.0,Català,0.0,Español,0.0,Inglés,8.0,Italiano,20.0,3.0,3.0,yes,no,no,nada,,,,distracción en la mitad de la tarea 2 del último lenguajepor el resto nada! ,56.0,yes
22,2024-04-15_14h32.20.450,Experiment4_uns,s152,22.0,feminino,right,España,CatalàEspanyol,Bachelor degree,no,no,A,1,conjunction_un,L4,unsyncopated,s2,r2,22,Online_conjL4_un//c.bu.da8.1332.444.wav,ña,ñi,da,sil,ja,ru,bu,sil1,nu,ci,sil2,['catch'],[2.0421999999880427],[2.0421999999880427],1.332,no_beat,0.7101999999880426,0.7101999999880426,"[""space""]",bu,3,testConjL4Uns//dep_viol.r1.s1.0.wav,1.0,conjunction_un,unsyncopated,a,s1,no_rule,dep,L4,m,0.1975,4.0,1.0,0.3009,4 ,1.0,Català,0.0,Español,0.0,Inglés,8.0,Italiano,20.0,3.0,3.0,yes,no,no,nada,,,,distracción en la mitad de la tarea 2 del último lenguajepor el resto nada! ,56.0,yes
23,2024-04-15_14h32.20.450,Experiment4_uns,s152,22.0,feminino,right,España,CatalàEspanyol,Bachelor degree,no,no,A,1,conjunction_un,L4,unsyncopated,s2,r2,23,Online_conjL4_un//c.bu.da10.0.1110.wav,bu,po,ña,sil,ja,da,ru,sil1,nu,ñi,sil2,['catch'],[1.1766000000238819],[1.1766000000238819],0.0,beat,1.176600000023882,1.176600000023882,"[""space""]",bu,3,testConjL4Uns//cat_viol.r2.s1.0.wav,1.0,conjunction_un,unsyncopated,b,s1,no_rule,cat,L4,z,2.0206,3.0,0.0,0.5606,4 ,1.0,Català,0.0,Español,0.0,Inglés,8.0,Italiano,20.0,3.0,3.0,yes,no,no,nada,,,,distracción en la mitad de la tarea 2 del último lenguajepor el resto nada! ,56.0,yes
24,2024-04-15_14h32.20.450,Experiment4_uns,s152,22.0,feminino,right,España,CatalàEspanyol,Bachelor degree,no,no,A,1,conjunction_un,L4,unsyncopated,s2,r2,24,Online_conjL4_un//d.pe.po12.none.none.wav,da,ñi,bo,sil,ja,ña,ru,sil1,nu,bu,sil2,['-'],,,none,none,,,,pe,4,testConjL3Syn//r2.s2.2.wav,2.0,conjunction_syn,syncopated,b,s2,rule,rule,L3,z,1.6523,5.0,1.0,1.8715,4 ,1.0,Català,0.0,Español,0.0,Inglés,8.0,Italiano,20.0,3.0,3.0,yes,no,no,nada,,,,distracción en la mitad de la tarea 2 del último lenguajepor el resto nada! ,56.0,yes
25,2024-04-15_14h32.20.450,Experiment4_uns,s152,22.0,feminino,right,España,CatalàEspanyol,Bachelor degree,no,no,A,1,conjunction_un,L4,unsyncopated,s1,r2,25,Online_conjL4_un//d.pe.po15.444.1332.wav,ja,bu,pe,sil,nu,ru,po,sil1,de,da,sil2,['catch'],[1.0353000000119437],[1.0353000000119437],0.444,no_beat,0.5913000000119437,0.5913000000119437,"[""space""]",pe,4,testConjL3Syn//r2.s2.1.wav,2.0,conjunction_syn,syncopated,b,s2,rule,rule,L3,z,0.4686,4.0,1.0,0.3175,4 ,1.0,Català,0.0,Español,0.0,Inglés,8.0,Italiano,20.0,3.0,3.0,yes,no,no,nada,,,,distracción en la mitad de la tarea 2 del último lenguajepor el resto nada! ,56.0,yes
26,2024-04-15_14h32.20.450,Experiment4_uns,s152,22.0,feminino,right,España,CatalàEspanyol,Bachelor degree,no,no,A,1,conjunction_un,L4,unsyncopated,s1,r1,26,Online_conjL4_un//d.pe.po13.1776.1110.wav,zi,ña,ñi,sil,lo,po,bu,sil1,pe,de,sil2,['catch'],[2.2665000000000646],[2.2665000000000646],1.776,beat,0.4905000000000645,0.4905000000000645,"[""space""]",pe,4,testConjL3Syn//r1.s1.2.wav,2.0,conjunction_syn,syncopated,a,s1,rule,rule,L3,z,0.3601,4.0,1.0,0.2682,4 ,1.0,Català,0.0,Español,0.0,Inglés,8.0,Italiano,20.0,3.0,3.0,yes,no,no,nada,,,,distracción en la mitad de la tarea 2 del último lenguajepor el resto nada! ,56.0,yes
27,2024-04-15_14h32.20.450,Experiment4_uns,s152,22.0,feminino,right,España,CatalàEspanyol,Bachelor degree,no,no,A,1,conjunction_un,L4,unsyncopated,s1,r1,27,Online_conjL4_un//d.pe.po14.none.none.wav,zi,bo,da,sil,lo,ña,ci,sil1,de,re,sil2,['-'],,,none,none,,,,pe,4,testConjL3Syn//time_viol.r1.s2.0.wav,2.0,conjunction_syn,syncopated,a,s2,no_rule,time,L3,z,0.3664,3.0,0.0,0.1223,4 ,1.0,Català,0.0,Español,0.0,Inglés,8.0,Italiano,20.0,3.0,3.0,yes,no,no,nada,,,,distracción en la mitad de la tarea 2 del último lenguajepor el resto nada! ,56.0,yes
28,2024-04-15_14h32.20.450,Experiment4_uns,s152,22.0,feminino,right,España,CatalàEspanyol,Bachelor degree,no,no,A,1,conjunction_un,L4,unsyncopated,s2,r2,28,Online_conjL4_un//b.ja.nu23.888.1776.wav,ci,ña,po,sil,ja,bu,ñi,sil1,nu,pe,sil2,['catch'],[1.3271999999881245],[1.3271999999881245],0.888,beat,0.4391999999881245,0.4391999999881245,"[""space""]",ja,1,testConjL3Syn//cat_viol.r1.s1.0.wav,2.0,conjunction_syn,syncopated,a,s1,no_rule,cat,L3,z,0.3493,3.0,0.0,0.2005,4 ,1.0,Català,0.0,Español,0.0,Inglés,8.0,Italiano,20.0,3.0,3.0,yes,no,no,nada,,,,distracción en la mitad de la tarea 2 del último lenguajepor el resto nada! ,56.0,yes
29,2024-04-15_14h32.20.450,Experiment4_uns,s152,22.0,feminino,right,España,CatalàEspanyol,Bachelor degree,no,no,A,1,conjunction_un,L4,unsyncopated,s1,r2,29,Online_conjL4_un//b.ja.nu20.0.888.wav,ja,de,ñi,sil,nu,re,bo,sil1,da,po,sil2,['catch'],[0.45590000003574005],[0.45590000003574005],0.0,beat,0.45590000003574,0.45590000003574,"[""space""]",ja,1,testConjL3Syn//time_viol.r2.s2.0.wav,2.0,conjunction_syn,syncopated,b,s2,no_rule,time,L3,m,0.3273,2.0,1.0,0.7173,4 ,1.0,Català,0.0,Español,0.0,Inglés,8.0,Italiano,20.0,3.0,3.0,yes,no,no,nada,,,,distracción en la mitad de la tarea 2 del último lenguajepor el resto nada! ,56.0,yes
30,2024-04-15_14h32.20.450,Experiment4_uns,s152,22.0,feminino,right,España,CatalàEspanyol,Bachelor degree,no,no,A,1,conjunction_un,L4,unsyncopated,s1,r2,30,Online_conjL4_un//b.ja.nu21.0.888.wav,ja,re,ru,sil,nu,bo,pe,sil1,bu,ña,sil2,['catch'],[0.38630000001194276],[0.38630000001194276],0.0,beat,0.3863000000119427,0.3863000000119427,"[""space""]",ja,1,testConjL3Syn//r2.s1.1.wav,2.0,conjunction_syn,syncopated,b,s1,rule,rule,L3,m,0.0739,2.0,0.0,0.3575,4 ,1.0,Català,0.0,Español,0.0,Inglés,8.0,Italiano,20.0,3.0,3.0,yes,no,no,nada,,,,distracción en la mitad de la tarea 2 del último lenguajepor el resto nada! ,56.0,yes
31,2024-04-15_14h32.20.450,Experiment4_uns,s152,22.0,feminino,right,España,CatalàEspanyol,Bachelor degree,no,no,A,1,conjunction_un,L4,unsyncopated,s1,r1,31,Online_conjL4_un//b.ja.nu22.none.none.wav,zi,ña,ci,sil,lo,bu,da,sil1,de,po,sil2,['-'],,,none,none,,,,ja,1,testConjL3Syn//dep_viol.r1.s1.0.wav,2.0,conjunction_syn,syncopated,a,s1,no_rule,dep,L3,m,0.667,4.0,1.0,0.8716,4 ,1.0,Català,0.0,Español,0.0,Inglés,8.0,Italiano,20.0,3.0,3.0,yes,no,no,nada,,,,distracción en la mitad de la tarea 2 del último lenguajepor el resto nada! ,56.0,yes
32,2024-04-15_14h32.20.450,Experiment4_uns,s152,22.0,feminino,right,España,CatalàEspanyol,Bachelor degree,no,no,A,1,conjunction_un,L4,unsyncopated,s1,r1,32,Online_conjL4_un//b.ja.nu25.none.none.wav,zi,da,ru,sil,lo,de,ñi,sil1,re,ña,sil2,['-'],,,none,none,,,,ja,1,testConjL3Syn//cat_viol.r1.s2.0.wav,2.0,conjunction_syn,syncopated,a,s2,no_rule,cat,L3,z,0.4334,4.0,0.0,0.2596,4 ,1.0,Català,0.0,Español,0.0,Inglés,8.0,Italiano,20.0,3.0,3.0,yes,no,no,nada,,,,distracción en la mitad de la tarea 2 del último lenguajepor el resto nada! ,56.0,yes
33,2024-04-15_14h32.20.450,Experiment4_uns,s152,22.0,feminino,right,España,CatalàEspanyol,Bachelor degree,no,no,A,1,conjunction_un,L4,unsyncopated,s2,r2,33,Online_conjL4_un//b.ja.nu26.888.1776.wav,bo,bu,ru,sil,ja,de,ñi,sil1,nu,da,sil2,['catch'],[1.6466000000237955],[1.6466000000237955],0.888,beat,0.7586000000237955,0.7586000000237955,"[""space""]",ja,1,testConjL3Syn//r2.s1.2.wav,2.0,conjunction_syn,syncopated,b,s1,rule,rule,L3,m,0.1336,2.0,0.0,0.2834,4 ,1.0,Català,0.0,Español,0.0,Inglés,8.0,Italiano,20.0,3.0,3.0,yes,no,no,nada,,,,distracción en la mitad de la tarea 2 del último lenguajepor el resto nada! ,56.0,yes
34,2024-04-15_14h32.20.450,Experiment4_uns,s152,22.0,feminino,right,España,CatalàEspanyol,Bachelor degree,no,no,A,1,conjunction_un,L4,unsyncopated,s2,r2,34,Online_conjL4_un//b.ja.nu24.888.1776.wav,pe,re,po,sil,ja,ñi,de,sil1,nu,bo,sil2,['catch'],[1.4029999999999063],[1.4029999999999063],0.888,beat,0.5149999999999063,0.5149999999999063,"[""space""]",ja,1,testConjL3Syn//r1.s2.0.wav,2.0,conjunction_syn,syncopated,a,s2,rule,rule,L3,m,1.0071,5.0,0.0,1.282,4 ,1.0,Català,0.0,Español,0.0,Inglés,8.0,Italiano,20.0,3.0,3.0,yes,no,no,nada,,,,distracción en la mitad de la tarea 2 del último lenguajepor el resto nada! ,56.0,yes
35,2024-04-15_14h32.20.450,Experiment4_uns,s152,22.0,feminino,right,España,CatalàEspanyol,Bachelor degree,no,no,A,1,conjunction_un,L4,unsyncopated,s1,r2,35,Online_conjL4_un//b.ja.nu27.0.888.wav,ja,ñi,bu,sil,nu,ña,ci,sil1,da,po,sil2,['catch'],[0.5038000000120064],[0.5038000000120064],0.0,beat,0.5038000000120064,0.5038000000120064,"[""space""]",ja,1,testConjL3Syn//time_viol.r1.s1.0.wav,2.0,conjunction_syn,syncopated,a,s1,no_rule,time,L3,m,1.0477,2.0,1.0,0.2848,4 ,1.0,Català,0.0,Español,0.0,Inglés,8.0,Italiano,20.0,3.0,3.0,yes,no,no,nada,,,,distracción en la mitad de la tarea 2 del último lenguajepor el resto nada! ,56.0,yes
36,2024-04-15_14h32.20.450,Experiment4_uns,s152,22.0,feminino,right,España,CatalàEspanyol,Bachelor degree,no,no,A,1,conjunction_un,L4,unsyncopated,s2,r2,36,Online_conjL4_un//d.pe.po10.1332.444.wav,re,ñi,po,sil,ja,bu,pe,sil1,nu,ru,sil2,['catch'],[1.9010999999642308],[1.9010999999642308],1.332,no_beat,0.5690999999642308,0.5690999999642308,"[""space""]",pe,4,testConjL3Syn//dep_viol.r2.s1.0.wav,2.0,conjunction_syn,syncopated,b,s1,no_rule,dep,L3,m,0.5873,5.0,1.0,0.3845,4 ,1.0,Català,0.0,Español,0.0,Inglés,8.0,Italiano,20.0,3.0,3.0,yes,no,no,nada,,,,distracción en la mitad de la tarea 2 del último lenguajepor el resto nada! ,56.0,yes
37,2024-04-15_14h32.20.450,Experiment4_uns,s152,22.0,feminino,right,España,CatalàEspanyol,Bachelor degree,no,no,A,1,conjunction_un,L4,unsyncopated,s1,r1,37,Online_conjL4_un//d.pe.po9.222.1110.wav,zi,pe,bo,sil,lo,po,de,sil1,ru,re,sil2,['miss'],,,0.222,no_beat,,,,pe,4,testConjL3Syn//cat_viol.r2.s2.0.wav,2.0,conjunction_syn,syncopated,b,s2,no_rule,cat,L3,z,0.0589,4.0,0.0,0.849,4 ,1.0,Català,0.0,Español,0.0,Inglés,8.0,Italiano,20.0,3.0,3.0,yes,no,no,nada,,,,distracción en la mitad de la tarea 2 del último lenguajepor el resto nada! ,56.0,yes
38,2024-04-15_14h32.20.450,Experiment4_uns,s152,22.0,feminino,right,España,CatalàEspanyol,Bachelor degree,no,no,A,1,conjunction_un,L4,unsyncopated,s2,r1,38,Online_conjL4_un//d.pe.po8.none.none.wav,ña,re,ci,sil,zi,ru,ñi,sil1,lo,de,sil2,['-'],,,none,none,,,,pe,4,testConjL3Syn//r1.s1.1.wav,2.0,conjunction_syn,syncopated,a,s1,rule,rule,L3,z,0.4505,5.0,1.0,0.3677,4 ,1.0,Català,0.0,Español,0.0,Inglés,8.0,Italiano,20.0,3.0,3.0,yes,no,no,nada,,,,distracción en la mitad de la tarea 2 del último lenguajepor el resto nada! ,56.0,yes
39,2024-04-15_14h32.20.450,Experiment4_uns,s152,22.0,feminino,right,España,CatalàEspanyol,Bachelor degree,no,no,A,1,conjunction_un,L4,unsyncopated,s2,r1,39,Online_conjL4_un//d.pe.po11.1110.222.wav,bo,po,da,sil,zi,pe,de,sil1,lo,ñi,sil2,['miss'],,,1.11,no_beat,,,,pe,4,testConjL3Syn//r2.s1.0.wav,2.0,conjunction_syn,syncopated,b,s1,rule,rule,L3,z,0.0428,3.0,1.0,0.5741,4 ,1.0,Català,0.0,Español,0.0,Inglés,8.0,Italiano,20.0,3.0,3.0,yes,no,no,nada,,,,distracción en la mitad de la tarea 2 del último lenguajepor el resto nada! ,56.0,yes
40,2024-04-15_14h32.20.450,Experiment4_uns,s152,22.0,feminino,right,España,CatalàEspanyol,Bachelor degree,no,no,A,1,conjunction_un,L4,unsyncopated,s1,r1,40,Online_conjL4_un//b.ja.nu9.none.none.wav,zi,de,bu,sil,lo,bo,po,sil1,da,ñi,sil2,['-'],,,none,none,,,,ja,1,testConjL3Syn//r2.s2.0.wav,2.0,conjunction_syn,syncopated,b,s2,rule,rule,L3,m,0.3048,3.0,0.0,0.508,4 ,1.0,Català,0.0,Español,0.0,Inglés,8.0,Italiano,20.0,3.0,3.0,yes,no,no,nada,,,,distracción en la mitad de la tarea 2 del último lenguajepor el resto nada! ,56.0,yes
41,2024-04-15_14h32.20.450,Experiment4_uns,s152,22.0,feminino,right,España,CatalàEspanyol,Bachelor degree,no,no,A,1,conjunction_un,L4,unsyncopated,s2,r2,41,Online_conjL4_un//b.ja.nu8.888.1776.wav,po,ñi,re,sil,ja,de,da,sil1,nu,pe,sil2,['catch'],[1.5736999999880936],[1.5736999999880936],0.888,beat,0.6856999999880936,0.6856999999880936,"[""space""]",ja,1,testConjL3Syn//dep_viol.r1.s2.0.wav,2.0,conjunction_syn,syncopated,a,s2,no_rule,dep,L3,m,0.1844,3.0,1.0,0.3569,4 ,1.0,Català,0.0,Español,0.0,Inglés,8.0,Italiano,20.0,3.0,3.0,yes,no,no,nada,,,,distracción en la mitad de la tarea 2 del último lenguajepor el resto nada! ,56.0,yes
42,2024-04-15_14h32.20.450,Experiment4_uns,s152,22.0,feminino,right,España,CatalàEspanyol,Bachelor degree,no,no,A,1,conjunction_un,L4,unsyncopated,s2,r1,42,Online_conjL4_un//b.ja.nu11.none.none.wav,ci,re,bu,sil,zi,da,ña,sil1,lo,ru,sil2,['-'],,,none,none,,,,ja,1,testConjL3Syn//dep_viol.r2.s2.0.wav,2.0,conjunction_syn,syncopated,b,s2,no_rule,dep,L3,z,0.337,3.0,0.0,0.2688,4 ,1.0,Català,0.0,Español,0.0,Inglés,8.0,Italiano,20.0,3.0,3.0,yes,no,no,nada,,,,distracción en la mitad de la tarea 2 del último lenguajepor el resto nada! ,56.0,yes
43,2024-04-15_14h32.20.450,Experiment4_uns,s152,22.0,feminino,right,España,CatalàEspanyol,Bachelor degree,no,no,A,1,conjunction_un,L4,unsyncopated,s2,r1,43,Online_conjL4_un//b.ja.nu10.none.none.wav,bu,da,de,sil,zi,ña,ñi,sil1,lo,ci,sil2,['-'],,,none,none,,,,ja,1,testConjL3Syn//r1.s2.1.wav,2.0,conjunction_syn,syncopated,a,s2,rule,rule,L3,z,0.9025,4.0,1.0,0.2939,4 ,1.0,Català,0.0,Español,0.0,Inglés,8.0,Italiano,20.0,3.0,3.0,yes,no,no,nada,,,,distracción en la mitad de la tarea 2 del último lenguajepor el resto nada! ,56.0,yes
44,2024-04-15_14h32.20.450,Experiment4_uns,s152,22.0,feminino,right,España,CatalàEspanyol,Bachelor degree,no,no,A,1,conjunction_un,L4,unsyncopated,s2,r2,44,Online_conjL4_un//d.pe.po27.none.none.wav,ru,ci,bo,sil,ja,de,ñi,sil1,nu,ña,sil2,['-'],,,none,none,,,,pe,4,testConjL3Syn//cat_viol.r2.s1.0.wav,2.0,conjunction_syn,syncopated,b,s1,no_rule,cat,L3,m,0.9686,2.0,1.0,0.2836,4 ,1.0,Català,0.0,Español,0.0,Inglés,8.0,Italiano,20.0,3.0,3.0,yes,no,no,nada,,,,distracción en la mitad de la tarea 2 del último lenguajepor el resto nada! ,56.0,yes
45,2024-04-15_14h32.20.450,Experiment4_uns,s152,22.0,feminino,right,España,CatalàEspanyol,Bachelor degree,no,no,A,1,conjunction_un,L4,unsyncopated,s2,r2,45,Online_conjL4_un//d.pe.po25.none.none.wav,re,bu,ña,sil,ja,bo,de,sil1,nu,da,sil2,['-'],,,none,none,,,,pe,4,testConjL3Syn//time_viol.r2.s1.0.wav,2.0,conjunction_syn,syncopated,b,s1,no_rule,time,L3,m,0.1592,3.0,1.0,0.3006,4 ,1.0,Català,0.0,Español,0.0,Inglés,8.0,Italiano,20.0,3.0,3.0,yes,no,no,nada,,,,distracción en la mitad de la tarea 2 del último lenguajepor el resto nada! ,56.0,yes
46,2024-04-15_14h32.20.450,Experiment4_uns,s152,22.0,feminino,right,España,CatalàEspanyol,Bachelor degree,no,no,A,1,conjunction_un,L4,unsyncopated,s2,r1,46,Online_conjL4_un//d.pe.po26.none.none.wav,ci,bo,bu,sil,zi,re,ru,sil1,lo,ñi,sil2,['-'],,,none,none,,,,pe,4,testConjL3Syn//r1.s2.2.wav,2.0,conjunction_syn,syncopated,a,s2,rule,rule,L3,m,0.3001,4.0,0.0,1.0829,4 ,1.0,Català,0.0,Español,0.0,Inglés,8.0,Italiano,20.0,3.0,3.0,yes,no,no,nada,,,,distracción en la mitad de la tarea 2 del último lenguajepor el resto nada! ,56.0,yes
47,2024-04-15_14h32.20.450,Experiment4_uns,s152,22.0,feminino,right,España,CatalàEspanyol,Bachelor degree,no,no,A,1,conjunction_un,L4,unsyncopated,s2,r1,47,Online_conjL4_un//d.pe.po24.444.1110.wav,de,da,pe,sil,zi,po,re,sil1,lo,bu,sil2,['miss'],,,0.444,no_beat,,,,pe,4,testConjL3Syn//r1.s1.0.wav,2.0,conjunction_syn,syncopated,a,s1,rule,rule,L3,z,0.1067,5.0,1.0,0.4695,4 ,1.0,Català,0.0,Español,0.0,Inglés,8.0,Italiano,20.0,3.0,3.0,yes,no,no,nada,,,,distracción en la mitad de la tarea 2 del último lenguajepor el resto nada! ,56.0,yes
48,2024-04-15_14h32.20.450,Experiment4_uns,s152,22.0,feminino,right,España,CatalàEspanyol,Bachelor degree,no,no,A,1,conjunction_un,L4,unsyncopated,s1,r2,48,Online_conjL4_un//a.zi.lo29.none.none.wav,ja,ci,pe,sil,nu,ru,po,sil1,ñi,da,sil2,['-'],,,none,none,,,,lo,2,testWhenL2Uns//r1.s2.2.wav,3.0,when,unsyncopated,a,s2,rule,rule,L2,z,0.0255,5.0,1.0,2.2359,4 ,1.0,Català,0.0,Español,0.0,Inglés,8.0,Italiano,20.0,3.0,3.0,yes,no,no,nada,,,,distracción en la mitad de la tarea 2 del último lenguajepor el resto nada! ,56.0,yes
49,2024-04-15_14h32.20.450,Experiment4_uns,s152,22.0,feminino,right,España,CatalàEspanyol,Bachelor degree,no,no,A,1,conjunction_un,L4,unsyncopated,s1,r2,49,Online_conjL4_un//a.zi.lo31.none.none.wav,ja,ru,da,sil,nu,bu,ci,sil1,pe,re,sil2,['-'],,,none,none,,,,lo,2,testWhenL2Uns//r1.s1.2.wav,3.0,when,unsyncopated,a,s1,rule,rule,L2,z,0.3699,3.0,1.0,0.4176,4 ,1.0,Català,0.0,Español,0.0,Inglés,8.0,Italiano,20.0,3.0,3.0,yes,no,no,nada,,,,distracción en la mitad de la tarea 2 del último lenguajepor el resto nada! ,56.0,yes
50,2024-04-15_14h32.20.450,Experiment4_uns,s152,22.0,feminino,right,España,CatalàEspanyol,Bachelor degree,no,no,A,1,conjunction_un,L4,unsyncopated,s1,r1,50,Online_conjL4_un//a.zi.lo28.0.888.wav,zi,da,bo,sil,lo,ña,po,sil1,de,pe,sil2,['miss'],,,0.888,beat,,,,lo,2,testWhenL2Uns//r1.s1.1.wav,3.0,when,unsyncopated,a,s1,rule,rule,L2,m,1.0187,2.0,0.0,0.6898,4 ,1.0,Català,0.0,Español,0.0,Inglés,8.0,Italiano,20.0,3.0,3.0,yes,no,no,nada,,,,distracción en la mitad de la tarea 2 del último lenguajepor el resto nada! ,56.0,yes
51,2024-04-15_14h32.20.450,Experiment4_uns,s152,22.0,feminino,right,España,CatalàEspanyol,Bachelor degree,no,no,A,1,conjunction_un,L4,unsyncopated,s1,r1,51,Online_conjL4_un//a.zi.lo30.0.888.wav,zi,ci,bu,sil,lo,ru,da,sil1,ñi,de,sil2,['catch'],[1.5300000000000864],[1.5300000000000864],0.888,beat,0.6420000000000864,0.6420000000000864,"[""space""]",lo,2,testWhenL2Uns//cat_viol.r1.s1.0.wav,3.0,when,unsyncopated,a,s1,no_rule,cat,L2,m,1.1428,4.0,0.0,0.1391,4 ,1.0,Català,0.0,Español,0.0,Inglés,8.0,Italiano,20.0,3.0,3.0,yes,no,no,nada,,,,distracción en la mitad de la tarea 2 del último lenguajepor el resto nada! ,56.0,yes
52,2024-04-15_14h32.20.450,Experiment4_uns,s152,22.0,feminino,right,España,CatalàEspanyol,Bachelor degree,no,no,A,1,conjunction_un,L4,unsyncopated,s1,r2,52,Online_conjL4_un//c.bu.da24.none.none.wav,ja,po,ci,sil,nu,ña,ru,sil1,re,bo,sil2,['false alarm'],[0.9586000000238073],[0.9586000000238073],none,none,,,"[""space""]",bu,3,testWhenL2Uns//dep_viol.r1.s1.0.wav,3.0,when,unsyncopated,a,s1,no_rule,dep,L2,m,0.0588,3.0,0.0,1.0415,4 ,1.0,Català,0.0,Español,0.0,Inglés,8.0,Italiano,20.0,3.0,3.0,yes,no,no,nada,,,,distracción en la mitad de la tarea 2 del último lenguajepor el resto nada! ,56.0,yes
53,2024-04-15_14h32.20.450,Experiment4_uns,s152,22.0,feminino,right,España,CatalàEspanyol,Bachelor degree,no,no,A,1,conjunction_un,L4,unsyncopated,s2,r1,53,Online_conjL4_un//c.bu.da25.444.1110.wav,ru,de,bu,sil,zi,da,ñi,sil1,lo,ña,sil2,['catch'],[1.0241999999880136],[1.0241999999880136],0.444,no_beat,0.5801999999880136,0.5801999999880136,"[""space""]",bu,3,testWhenL2Uns//dep_viol.r2.s1.0.wav,3.0,when,unsyncopated,b,s1,no_rule,dep,L2,m,0.0655,3.0,0.0,1.2227,4 ,1.0,Català,0.0,Español,0.0,Inglés,8.0,Italiano,20.0,3.0,3.0,yes,no,no,nada,,,,distracción en la mitad de la tarea 2 del último lenguajepor el resto nada! ,56.0,yes
54,2024-04-15_14h32.20.450,Experiment4_uns,s152,22.0,feminino,right,España,CatalàEspanyol,Bachelor degree,no,no,A,1,conjunction_un,L4,unsyncopated,s1,r1,54,Online_conjL4_un//c.bu.da26.444.1110.wav,zi,po,bu,sil,lo,da,ci,sil1,de,ñi,sil2,['catch'],[1.099699999988161],[1.099699999988161],0.444,no_beat,0.655699999988161,0.655699999988161,"[""space""]",bu,3,testWhenL2Uns//cat_viol.r2.s1.0.wav,3.0,when,unsyncopated,b,s1,no_rule,cat,L2,z,0.2192,2.0,1.0,0.5688,4 ,1.0,Català,0.0,Español,0.0,Inglés,8.0,Italiano,20.0,3.0,3.0,yes,no,no,nada,,,,distracción en la mitad de la tarea 2 del último lenguajepor el resto nada! ,56.0,yes
55,2024-04-15_14h32.20.450,Experiment4_uns,s152,22.0,feminino,right,España,CatalàEspanyol,Bachelor degree,no,no,A,1,conjunction_un,L4,unsyncopated,s2,r1,55,Online_conjL4_un//c.bu.da27.0.444.wav,bu,po,da,sil,zi,re,pe,sil1,lo,bo,sil2,"['catch', 'false alarm']","[0.5455000000000609, 2.5798000000119146]",[0.5455000000000609],0.0,beat,0.5455000000000609,0.5455000000000609,"[""space"",""space""]",bu,3,testWhenL2Uns//r1.s2.1.wav,3.0,when,unsyncopated,a,s2,rule,rule,L2,z,0.1511,2.0,1.0,0.6502,4 ,1.0,Català,0.0,Español,0.0,Inglés,8.0,Italiano,20.0,3.0,3.0,yes,no,no,nada,,,,distracción en la mitad de la tarea 2 del último lenguajepor el resto nada! ,56.0,yes
56,2024-04-15_14h32.20.450,Experiment4_uns,s152,22.0,feminino,right,España,CatalàEspanyol,Bachelor degree,no,no,A,1,conjunction_un,L4,unsyncopated,s2,r2,56,Online_conjL4_un//a.zi.lo13.none.none.wav,re,ña,bo,sil,ja,bu,ñi,sil1,nu,da,sil2,['-'],,,none,none,,,,lo,2,testWhenL2Uns//r2.s2.2.wav,3.0,when,unsyncopated,b,s2,rule,rule,L2,m,0.4441,4.0,0.0,0.5388,4 ,1.0,Català,0.0,Español,0.0,Inglés,8.0,Italiano,20.0,3.0,3.0,yes,no,no,nada,,,,distracción en la mitad de la tarea 2 del último lenguajepor el resto nada! ,56.0,yes
57,2024-04-15_14h32.20.450,Experiment4_uns,s152,22.0,feminino,right,España,CatalàEspanyol,Bachelor degree,no,no,A,1,conjunction_un,L4,unsyncopated,s1,r1,57,Online_conjL4_un//a.zi.lo14.0.888.wav,zi,po,ñi,sil,lo,bo,da,sil1,pe,bu,sil2,['catch'],[1.3808000000118454],[1.3808000000118454],0.888,beat,0.4928000000118454,0.4928000000118454,"[""space""]",lo,2,testWhenL2Uns//dep_viol.r1.s2.0.wav,3.0,when,unsyncopated,a,s2,no_rule,dep,L2,m,2.9342,1.0,0.0,0.2348,4 ,1.0,Català,0.0,Español,0.0,Inglés,8.0,Italiano,20.0,3.0,3.0,yes,no,no,nada,,,,distracción en la mitad de la tarea 2 del último lenguajepor el resto nada! ,56.0,yes
58,2024-04-15_14h32.20.450,Experiment4_uns,s152,22.0,feminino,right,España,CatalàEspanyol,Bachelor degree,no,no,A,1,conjunction_un,L4,unsyncopated,s2,r2,58,Online_conjL4_un//a.zi.lo12.none.none.wav,re,bo,pe,sil,ja,bu,ru,sil1,nu,de,sil2,['-'],,,none,none,,,,lo,2,testWhenL2Uns//r2.s1.1.wav,3.0,when,unsyncopated,b,s1,rule,rule,L2,m,0.5727,5.0,0.0,0.4052,4 ,1.0,Català,0.0,Español,0.0,Inglés,8.0,Italiano,20.0,3.0,3.0,yes,no,no,nada,,,,distracción en la mitad de la tarea 2 del último lenguajepor el resto nada! ,56.0,yes
59,2024-04-15_14h32.20.450,Experiment4_uns,s152,22.0,feminino,right,España,CatalàEspanyol,Bachelor degree,no,no,A,1,conjunction_un,L4,unsyncopated,s2,r2,59,Online_conjL4_un//a.zi.lo15.none.none.wav,po,ñi,pe,sil,ja,da,bo,sil1,nu,de,sil2,['false alarm'],[0.6543000000118582],[0.6543000000118582],none,none,,,"[""space""]",lo,2,testWhenL2Uns//time_viol.r1.s1.0.wav,3.0,when,unsyncopated,a,s1,no_rule,time,L2,m,0.3204,7.0,0.0,1.0025,4 ,1.0,Català,0.0,Español,0.0,Inglés,8.0,Italiano,20.0,3.0,3.0,yes,no,no,nada,,,,distracción en la mitad de la tarea 2 del último lenguajepor el resto nada! ,56.0,yes
60,2024-04-15_14h32.20.450,Experiment4_uns,s152,22.0,feminino,right,España,CatalàEspanyol,Bachelor degree,no,no,A,1,conjunction_un,L4,unsyncopated,s2,r1,60,Online_conjL4_un//b.ja.nu29.none.none.wav,ci,da,po,sil,zi,bu,de,sil1,lo,ña,sil2,['false alarm'],[2.3451999999881536],[2.3451999999881536],none,none,,,"[""space""]",ja,1,testWhenL2Uns//time_viol.r2.s1.0.wav,3.0,when,unsyncopated,b,s1,no_rule,time,L2,m,0.1016,5.0,0.0,0.3601,4 ,1.0,Català,0.0,Español,0.0,Inglés,8.0,Italiano,20.0,3.0,3.0,yes,no,no,nada,,,,distracción en la mitad de la tarea 2 del último lenguajepor el resto nada! ,56.0,yes
61,2024-04-15_14h32.20.450,Experiment4_uns,s152,22.0,feminino,right,España,CatalàEspanyol,Bachelor degree,no,no,A,1,conjunction_un,L4,unsyncopated,s2,r1,61,Online_conjL4_un//b.ja.nu31.none.none.wav,ru,pe,ñi,sil,zi,ña,da,sil1,lo,ci,sil2,['-'],,,none,none,,,,ja,1,testWhenL2Uns//cat_viol.r1.s2.0.wav,3.0,when,unsyncopated,a,s2,no_rule,cat,L2,z,0.6269,6.0,1.0,0.2572,4 ,1.0,Català,0.0,Español,0.0,Inglés,8.0,Italiano,20.0,3.0,3.0,yes,no,no,nada,,,,distracción en la mitad de la tarea 2 del último lenguajepor el resto nada! ,56.0,yes
62,2024-04-15_14h32.20.450,Experiment4_uns,s152,22.0,feminino,right,España,CatalàEspanyol,Bachelor degree,no,no,A,1,conjunction_un,L4,unsyncopated,s1,r1,62,Online_conjL4_un//b.ja.nu28.none.none.wav,zi,po,pe,sil,lo,bo,ñi,sil1,re,ci,sil2,['-'],,,none,none,,,,ja,1,testWhenL2Uns//r2.s2.1.wav,3.0,when,unsyncopated,b,s2,rule,rule,L2,m,1.6579,2.0,0.0,0.4229,4 ,1.0,Català,0.0,Español,0.0,Inglés,8.0,Italiano,20.0,3.0,3.0,yes,no,no,nada,,,,distracción en la mitad de la tarea 2 del último lenguajepor el resto nada! ,56.0,yes
63,2024-04-15_14h32.20.450,Experiment4_uns,s152,22.0,feminino,right,España,CatalàEspanyol,Bachelor degree,no,no,A,1,conjunction_un,L4,unsyncopated,s2,r2,63,Online_conjL4_un//b.ja.nu30.888.1776.wav,pe,re,ña,sil,ja,po,de,sil1,nu,da,sil2,['catch'],[1.4191000000238319],[1.4191000000238319],0.888,beat,0.5311000000238318,0.5311000000238318,"[""space""]",ja,1,testWhenL2Uns//r1.s2.0.wav,3.0,when,unsyncopated,a,s2,rule,rule,L2,m,0.0554,3.0,0.0,0.7853,4 ,1.0,Català,0.0,Español,0.0,Inglés,8.0,Italiano,20.0,3.0,3.0,yes,no,no,nada,,,,distracción en la mitad de la tarea 2 del último lenguajepor el resto nada! ,56.0,yes
64,2024-04-15_14h32.20.450,Experiment4_uns,s152,22.0,feminino,right,España,CatalàEspanyol,Bachelor degree,no,no,A,1,conjunction_un,L4,unsyncopated,s2,r1,64,Online_conjL4_un//b.ja.nu0.none.none.wav,de,ru,da,sil,zi,re,pe,sil1,lo,bu,sil2,['-'],,,none,none,,,,ja,1,testWhenL2Uns//cat_viol.r2.s2.0.wav,3.0,when,unsyncopated,b,s2,no_rule,cat,L2,z,1.2934,4.0,1.0,0.2191,4 ,1.0,Català,0.0,Español,0.0,Inglés,8.0,Italiano,20.0,3.0,3.0,yes,no,no,nada,,,,distracción en la mitad de la tarea 2 del último lenguajepor el resto nada! ,56.0,yes
65,2024-04-15_14h32.20.450,Experiment4_uns,s152,22.0,feminino,right,España,CatalàEspanyol,Bachelor degree,no,no,A,1,conjunction_un,L4,unsyncopated,s1,r2,65,Online_conjL4_un//b.ja.nu3.0.888.wav,ja,ña,re,sil,nu,bo,po,sil1,ci,ñi,sil2,['catch'],[0.4576999999881082],[0.4576999999881082],0.0,beat,0.4576999999881082,0.4576999999881082,"[""space""]",ja,1,testWhenL2Uns//r2.s1.0.wav,3.0,when,unsyncopated,b,s1,rule,rule,L2,m,0.2111,4.0,0.0,0.3176,4 ,1.0,Català,0.0,Español,0.0,Inglés,8.0,Italiano,20.0,3.0,3.0,yes,no,no,nada,,,,distracción en la mitad de la tarea 2 del último lenguajepor el resto nada! ,56.0,yes
66,2024-04-15_14h32.20.450,Experiment4_uns,s152,22.0,feminino,right,España,CatalàEspanyol,Bachelor degree,no,no,A,1,conjunction_un,L4,unsyncopated,s2,r1,66,Online_conjL4_un//b.ja.nu1.none.none.wav,bo,ci,ru,sil,zi,re,da,sil1,lo,de,sil2,['-'],,,none,none,,,,ja,1,testWhenL2Uns//r1.s1.0.wav,3.0,when,unsyncopated,a,s1,rule,rule,L2,z,0.3386,6.0,1.0,0.1915,4 ,1.0,Català,0.0,Español,0.0,Inglés,8.0,Italiano,20.0,3.0,3.0,yes,no,no,nada,,,,distracción en la mitad de la tarea 2 del último lenguajepor el resto nada! ,56.0,yes
67,2024-04-15_14h32.20.450,Experiment4_uns,s152,22.0,feminino,right,España,CatalàEspanyol,Bachelor degree,no,no,A,1,conjunction_un,L4,unsyncopated,s2,r2,67,Online_conjL4_un//b.ja.nu2.888.1776.wav,po,ci,bu,sil,ja,pe,ru,sil1,nu,de,sil2,['catch'],[1.4069999999999254],[1.4069999999999254],0.888,beat,0.5189999999999254,0.5189999999999254,"[""space""]",ja,1,testWhenL2Uns//r2.s2.0.wav,3.0,when,unsyncopated,b,s2,rule,rule,L2,z,0.001,4.0,1.0,1.6693,4 ,1.0,Català,0.0,Español,0.0,Inglés,8.0,Italiano,20.0,3.0,3.0,yes,no,no,nada,,,,distracción en la mitad de la tarea 2 del último lenguajepor el resto nada! ,56.0,yes
68,2024-04-15_14h32.20.450,Experiment4_uns,s152,22.0,feminino,right,España,CatalàEspanyol,Bachelor degree,no,no,A,1,conjunction_un,L4,unsyncopated,s2,r2,68,Online_conjL4_un//a.zi.lo11.none.none.wav,po,re,ña,sil,ja,bo,ru,sil1,nu,pe,sil2,['false alarm'],[0.8354999999999109],[0.8354999999999109],none,none,,,"[""space""]",lo,2,testWhenL2Uns//r2.s1.2.wav,3.0,when,unsyncopated,b,s1,rule,rule,L2,z,0.0181,3.0,1.0,0.4342,4 ,1.0,Català,0.0,Español,0.0,Inglés,8.0,Italiano,20.0,3.0,3.0,yes,no,no,nada,,,,distracción en la mitad de la tarea 2 del último lenguajepor el resto nada! ,56.0,yes
69,2024-04-15_14h32.20.450,Experiment4_uns,s152,22.0,feminino,right,España,CatalàEspanyol,Bachelor degree,no,no,A,1,conjunction_un,L4,unsyncopated,s2,r2,69,Online_conjL4_un//a.zi.lo9.none.none.wav,de,po,ña,sil,ja,bu,da,sil1,nu,ñi,sil2,['-'],,,none,none,,,,lo,2,testWhenL2Uns//time_viol.r1.s2.0.wav,3.0,when,unsyncopated,a,s2,no_rule,time,L2,m,0.5682,2.0,0.0,0.7121,4 ,1.0,Català,0.0,Español,0.0,Inglés,8.0,Italiano,20.0,3.0,3.0,yes,no,no,nada,,,,distracción en la mitad de la tarea 2 del último lenguajepor el resto nada! ,56.0,yes
70,2024-04-15_14h32.20.450,Experiment4_uns,s152,22.0,feminino,right,España,CatalàEspanyol,Bachelor degree,no,no,A,1,conjunction_un,L4,unsyncopated,s2,r1,70,Online_conjL4_un//a.zi.lo8.888.1776.wav,re,pe,da,sil,zi,de,ña,sil1,lo,ru,sil2,['catch'],[2.2536000000237664],[2.2536000000237664],1.776,beat,0.4776000000237663,0.4776000000237663,"[""space""]",lo,2,testWhenL2Uns//dep_viol.r2.s2.0.wav,3.0,when,unsyncopated,b,s2,no_rule,dep,L2,m,0.3769,4.0,0.0,0.3677,4 ,1.0,Català,0.0,Español,0.0,Inglés,8.0,Italiano,20.0,3.0,3.0,yes,no,no,nada,,,,distracción en la mitad de la tarea 2 del último lenguajepor el resto nada! ,56.0,yes
71,2024-04-15_14h32.20.450,Experiment4_uns,s152,22.0,feminino,right,España,CatalàEspanyol,Bachelor degree,no,no,A,1,conjunction_un,L4,unsyncopated,s1,r2,71,Online_conjL4_un//a.zi.lo10.none.none.wav,ja,ña,da,sil,nu,re,de,sil1,bu,bo,sil2,['-'],,,none,none,,,,lo,2,testWhenL2Uns//time_viol.r2.s2.0.wav,3.0,when,unsyncopated,b,s2,no_rule,time,L2,z,0.5834,3.0,1.0,0.2336,4 ,1.0,Català,0.0,Español,0.0,Inglés,8.0,Italiano,20.0,3.0,3.0,yes,no,no,nada,,,,distracción en la mitad de la tarea 2 del último lenguajepor el resto nada! ,56.0,yes
72,2024-04-15_14h32.20.450,Experiment4_uns,s152,22.0,feminino,right,España,CatalàEspanyol,Bachelor degree,no,no,A,1,conjunction_un,L4,unsyncopated,s1,r2,72,Online_conjL4_un//c.bu.da12.1776.444.wav,ja,po,da,sil,nu,ñi,re,sil1,bu,de,sil2,['catch'],[2.1740999999642554],[2.1740999999642554],1.776,beat,0.3980999999642554,0.3980999999642554,"[""space""]",bu,3,testWhatL1Uns//dep_viol.r2.s1.0.wav,4.0,what,unsyncopated,b,s1,no_rule,dep,L1,z,0.3641,6.0,0.0,0.108,4 ,1.0,Català,0.0,Español,0.0,Inglés,8.0,Italiano,20.0,3.0,3.0,yes,no,no,nada,,,,distracción en la mitad de la tarea 2 del último lenguajepor el resto nada! ,56.0,yes
73,2024-04-15_14h32.20.450,Experiment4_uns,s152,22.0,feminino,right,España,CatalàEspanyol,Bachelor degree,no,no,A,1,conjunction_un,L4,unsyncopated,s2,r1,73,Online_conjL4_un//c.bu.da14.none.none.wav,po,ru,pe,sil,zi,ñi,de,sil1,lo,ña,sil2,['-'],,,none,none,,,,bu,3,testWhatL1Uns//time_viol.r2.s2.0.wav,4.0,what,unsyncopated,b,s2,no_rule,time,L1,m,0.4163,4.0,1.0,0.1495,4 ,1.0,Català,0.0,Español,0.0,Inglés,8.0,Italiano,20.0,3.0,3.0,yes,no,no,nada,,,,distracción en la mitad de la tarea 2 del último lenguajepor el resto nada! ,56.0,yes
74,2024-04-15_14h32.20.450,Experiment4_uns,s152,22.0,feminino,right,España,CatalàEspanyol,Bachelor degree,no,no,A,1,conjunction_un,L4,unsyncopated,s2,r2,74,Online_conjL4_un//c.bu.da13.none.none.wav,pe,ru,de,sil,ja,re,bo,sil1,nu,ña,sil2,['-'],,,none,none,,,,bu,3,testWhatL1Uns//cat_viol.r1.s2.0.wav,4.0,what,unsyncopated,a,s2,no_rule,cat,L1,m,0.0009,3.0,1.0,0.4246,4 ,1.0,Català,0.0,Español,0.0,Inglés,8.0,Italiano,20.0,3.0,3.0,yes,no,no,nada,,,,distracción en la mitad de la tarea 2 del último lenguajepor el resto nada! ,56.0,yes
75,2024-04-15_14h32.20.450,Experiment4_uns,s152,22.0,feminino,right,España,CatalàEspanyol,Bachelor degree,no,no,A,1,conjunction_un,L4,unsyncopated,s2,r2,75,Online_conjL4_un//c.bu.da15.222.1110.wav,ñi,bu,po,sil,ja,da,re,sil1,nu,pe,sil2,['catch'],[0.9698999999761782],[0.9698999999761782],0.222,no_beat,0.7478999999761782,0.7478999999761782,"[""space""]",bu,3,testWhatL1Uns//dep_viol.r2.s2.0.wav,4.0,what,unsyncopated,b,s2,no_rule,dep,L1,m,0.2728,4.0,1.0,0.1593,4 ,1.0,Català,0.0,Español,0.0,Inglés,8.0,Italiano,20.0,3.0,3.0,yes,no,no,nada,,,,distracción en la mitad de la tarea 2 del último lenguajepor el resto nada! ,56.0,yes
76,2024-04-15_14h32.20.450,Experiment4_uns,s152,22.0,feminino,right,España,CatalàEspanyol,Bachelor degree,no,no,A,1,conjunction_un,L4,unsyncopated,s2,r2,76,Online_conjL4_un//c.bu.da3.444.1110.wav,po,pe,bu,sil,ja,da,ci,sil1,nu,de,sil2,['catch'],[1.141199999988089],[1.141199999988089],0.444,no_beat,0.6971999999880891,0.6971999999880891,"[""space""]",bu,3,testWhatL1Uns//r2.s1.1.wav,4.0,what,unsyncopated,b,s1,rule,rule,L1,z,2.6518,2.0,1.0,0.2236,4 ,1.0,Català,0.0,Español,0.0,Inglés,8.0,Italiano,20.0,3.0,3.0,yes,no,no,nada,,,,distracción en la mitad de la tarea 2 del último lenguajepor el resto nada! ,56.0,yes
77,2024-04-15_14h32.20.450,Experiment4_uns,s152,22.0,feminino,right,España,CatalàEspanyol,Bachelor degree,no,no,A,1,conjunction_un,L4,unsyncopated,s1,r1,77,Online_conjL4_un//c.bu.da1.none.none.wav,zi,bo,po,sil,lo,re,ci,sil1,ñi,pe,sil2,['-'],,,none,none,,,,bu,3,testWhatL1Uns//time_viol.r2.s1.0.wav,4.0,what,unsyncopated,b,s1,no_rule,time,L1,m,0.1319,6.0,1.0,0.2578,4 ,1.0,Català,0.0,Español,0.0,Inglés,8.0,Italiano,20.0,3.0,3.0,yes,no,no,nada,,,,distracción en la mitad de la tarea 2 del último lenguajepor el resto nada! ,56.0,yes
78,2024-04-15_14h32.20.450,Experiment4_uns,s152,22.0,feminino,right,España,CatalàEspanyol,Bachelor degree,no,no,A,1,conjunction_un,L4,unsyncopated,s1,r1,78,Online_conjL4_un//c.bu.da0.none.none.wav,zi,ña,ru,sil,lo,re,ñi,sil1,bo,ci,sil2,['false alarm'],[2.538000000000011],[2.538000000000011],none,none,,,"[""space""]",bu,3,testWhatL1Uns//r1.s1.1.wav,4.0,what,unsyncopated,a,s1,rule,rule,L1,m,0.3267,1.0,0.0,1.225,4 ,1.0,Català,0.0,Español,0.0,Inglés,8.0,Italiano,20.0,3.0,3.0,yes,no,no,nada,,,,distracción en la mitad de la tarea 2 del último lenguajepor el resto nada! ,56.0,yes
79,2024-04-15_14h32.20.450,Experiment4_uns,s152,22.0,feminino,right,España,CatalàEspanyol,Bachelor degree,no,no,A,1,conjunction_un,L4,unsyncopated,s1,r1,79,Online_conjL4_un//c.bu.da2.none.none.wav,zi,pe,ci,sil,lo,de,ña,sil1,ñi,re,sil2,['-'],,,none,none,,,,bu,3,testWhatL1Uns//r1.s2.0.wav,4.0,what,unsyncopated,a,s2,rule,rule,L1,m,0.3187,2.0,0.0,0.2419,4 ,1.0,Català,0.0,Español,0.0,Inglés,8.0,Italiano,20.0,3.0,3.0,yes,no,no,nada,,,,distracción en la mitad de la tarea 2 del último lenguajepor el resto nada! ,56.0,yes
80,2024-04-15_14h32.20.450,Experiment4_uns,s152,22.0,feminino,right,España,CatalàEspanyol,Bachelor degree,no,no,A,1,conjunction_un,L4,unsyncopated,s1,r1,80,Online_conjL4_un//d.pe.po28.444.1332.wav,zi,ci,pe,sil,lo,ñi,po,sil1,ña,da,sil2,['catch'],[1.0500000000000682],[1.0500000000000682],0.444,no_beat,0.6060000000000683,0.6060000000000683,"[""space""]",pe,4,testWhatL1Uns//r2.s2.1.wav,4.0,what,unsyncopated,b,s2,rule,rule,L1,m,0.2222,5.0,0.0,0.5178,4 ,1.0,Català,0.0,Español,0.0,Inglés,8.0,Italiano,20.0,3.0,3.0,yes,no,no,nada,,,,distracción en la mitad de la tarea 2 del último lenguajepor el resto nada! ,56.0,yes
81,2024-04-15_14h32.20.450,Experiment4_uns,s152,22.0,feminino,right,España,CatalàEspanyol,Bachelor degree,no,no,A,1,conjunction_un,L4,unsyncopated,s1,r2,81,Online_conjL4_un//d.pe.po30.1776.1110.wav,ja,ñi,ru,sil,nu,po,ña,sil1,pe,da,sil2,['catch'],[2.4628000000119528],[2.4628000000119528],1.776,beat,0.6868000000119527,0.6868000000119527,"[""space""]",pe,4,testWhatL1Uns//r1.s2.1.wav,4.0,what,unsyncopated,a,s2,rule,rule,L1,z,0.0195,1.0,1.0,0.2735,4 ,1.0,Català,0.0,Español,0.0,Inglés,8.0,Italiano,20.0,3.0,3.0,yes,no,no,nada,,,,distracción en la mitad de la tarea 2 del último lenguajepor el resto nada! ,56.0,yes
82,2024-04-15_14h32.20.450,Experiment4_uns,s152,22.0,feminino,right,España,CatalàEspanyol,Bachelor degree,no,no,A,1,conjunction_un,L4,unsyncopated,s1,r2,82,Online_conjL4_un//d.pe.po31.none.none.wav,ja,re,ña,sil,nu,bo,ci,sil1,bu,de,sil2,['-'],,,none,none,,,,pe,4,testWhatL1Uns//dep_viol.r1.s1.0.wav,4.0,what,unsyncopated,a,s1,no_rule,dep,L1,m,0.0011,2.0,1.0,0.3712,4 ,1.0,Català,0.0,Español,0.0,Inglés,8.0,Italiano,20.0,3.0,3.0,yes,no,no,nada,,,,distracción en la mitad de la tarea 2 del último lenguajepor el resto nada! ,56.0,yes
83,2024-04-15_14h32.20.450,Experiment4_uns,s152,22.0,feminino,right,España,CatalàEspanyol,Bachelor degree,no,no,A,1,conjunction_un,L4,unsyncopated,s2,r1,83,Online_conjL4_un//d.pe.po29.none.none.wav,bo,ña,bu,sil,zi,ru,ci,sil1,lo,de,sil2,['false alarm'],[2.595099999964191],[2.595099999964191],none,none,,,"[""space""]",pe,4,testWhatL1Uns//r1.s1.2.wav,4.0,what,unsyncopated,a,s1,rule,rule,L1,m,0.001,3.0,0.0,0.3187,4 ,1.0,Català,0.0,Español,0.0,Inglés,8.0,Italiano,20.0,3.0,3.0,yes,no,no,nada,,,,distracción en la mitad de la tarea 2 del último lenguajepor el resto nada! ,56.0,yes
84,2024-04-15_14h32.20.450,Experiment4_uns,s152,22.0,feminino,right,España,CatalàEspanyol,Bachelor degree,no,no,A,1,conjunction_un,L4,unsyncopated,s1,r1,84,Online_conjL4_un//b.ja.nu6.none.none.wav,zi,de,bo,sil,lo,ñi,da,sil1,ña,bu,sil2,['-'],,,none,none,,,,ja,1,testWhatL1Uns//cat_viol.r2.s2.0.wav,4.0,what,unsyncopated,b,s2,no_rule,cat,L1,z,0.9514,7.0,0.0,0.1179,4 ,1.0,Català,0.0,Español,0.0,Inglés,8.0,Italiano,20.0,3.0,3.0,yes,no,no,nada,,,,distracción en la mitad de la tarea 2 del último lenguajepor el resto nada! ,56.0,yes
85,2024-04-15_14h32.20.450,Experiment4_uns,s152,22.0,feminino,right,España,CatalàEspanyol,Bachelor degree,no,no,A,1,conjunction_un,L4,unsyncopated,s2,r1,85,Online_conjL4_un//b.ja.nu4.none.none.wav,ru,pe,bo,sil,zi,ña,ci,sil1,lo,da,sil2,['-'],,,none,none,,,,ja,1,testWhatL1Uns//r1.s1.0.wav,4.0,what,unsyncopated,a,s1,rule,rule,L1,z,0.4533,5.0,1.0,0.2162,4 ,1.0,Català,0.0,Español,0.0,Inglés,8.0,Italiano,20.0,3.0,3.0,yes,no,no,nada,,,,distracción en la mitad de la tarea 2 del último lenguajepor el resto nada! ,56.0,yes
86,2024-04-15_14h32.20.450,Experiment4_uns,s152,22.0,feminino,right,España,CatalàEspanyol,Bachelor degree,no,no,A,1,conjunction_un,L4,unsyncopated,s2,r2,86,Online_conjL4_un//b.ja.nu7.888.1776.wav,pe,bu,bo,sil,ja,de,da,sil1,nu,ña,sil2,['catch'],[1.5591999999880954],[1.5591999999880954],0.888,beat,0.6711999999880954,0.6711999999880954,"[""space""]",ja,1,testWhatL1Uns//dep_viol.r1.s2.0.wav,4.0,what,unsyncopated,a,s2,no_rule,dep,L1,m,0.7862,3.0,1.0,0.1113,4 ,1.0,Català,0.0,Español,0.0,Inglés,8.0,Italiano,20.0,3.0,3.0,yes,no,no,nada,,,,distracción en la mitad de la tarea 2 del último lenguajepor el resto nada! ,56.0,yes
87,2024-04-15_14h32.20.450,Experiment4_uns,s152,22.0,feminino,right,España,CatalàEspanyol,Bachelor degree,no,no,A,1,conjunction_un,L4,unsyncopated,s1,r1,87,Online_conjL4_un//b.ja.nu5.none.none.wav,zi,ci,ñi,sil,lo,bo,da,sil1,po,ña,sil2,['-'],,,none,none,,,,ja,1,testWhatL1Uns//cat_viol.r1.s1.0.wav,4.0,what,unsyncopated,a,s1,no_rule,cat,L1,m,1.1849,2.0,1.0,0.1528,4 ,1.0,Català,0.0,Español,0.0,Inglés,8.0,Italiano,20.0,3.0,3.0,yes,no,no,nada,,,,distracción en la mitad de la tarea 2 del último lenguajepor el resto nada! ,56.0,yes
88,2024-04-15_14h32.20.450,Experiment4_uns,s152,22.0,feminino,right,España,CatalàEspanyol,Bachelor degree,no,no,A,1,conjunction_un,L4,unsyncopated,s1,r1,88,Online_conjL4_un//a.zi.lo6.0.888.wav,zi,da,po,sil,lo,de,ci,sil1,re,bo,sil2,['catch'],[1.3475000000000819],[1.3475000000000819],0.888,beat,0.4595000000000818,0.4595000000000818,"[""space""]",lo,2,testWhatL1Uns//r2.s1.0.wav,4.0,what,unsyncopated,b,s1,rule,rule,L1,z,0.3542,6.0,1.0,0.0692,4 ,1.0,Català,0.0,Español,0.0,Inglés,8.0,Italiano,20.0,3.0,3.0,yes,no,no,nada,,,,distracción en la mitad de la tarea 2 del último lenguajepor el resto nada! ,56.0,yes
89,2024-04-15_14h32.20.450,Experiment4_uns,s152,22.0,feminino,right,España,CatalàEspanyol,Bachelor degree,no,no,A,1,conjunction_un,L4,unsyncopated,s1,r1,89,Online_conjL4_un//a.zi.lo7.0.888.wav,zi,ci,da,sil,lo,ñi,de,sil1,ru,po,sil2,['catch'],[1.3373000000119646],[1.3373000000119646],0.888,beat,0.4493000000119646,0.4493000000119646,"[""space""]",lo,2,testWhatL1Uns//cat_viol.r2.s1.0.wav,4.0,what,unsyncopated,b,s1,no_rule,cat,L1,z,0.1564,6.0,0.0,0.2916,4 ,1.0,Català,0.0,Español,0.0,Inglés,8.0,Italiano,20.0,3.0,3.0,yes,no,no,nada,,,,distracción en la mitad de la tarea 2 del último lenguajepor el resto nada! ,56.0,yes
90,2024-04-15_14h32.20.450,Experiment4_uns,s152,22.0,feminino,right,España,CatalàEspanyol,Bachelor degree,no,no,A,1,conjunction_un,L4,unsyncopated,s2,r2,90,Online_conjL4_un//a.zi.lo5.none.none.wav,ñi,re,pe,sil,ja,da,ña,sil1,nu,bu,sil2,['-'],,,none,none,,,,lo,2,testWhatL1Uns//r2.s2.0.wav,4.0,what,unsyncopated,b,s2,rule,rule,L1,z,0.5743,4.0,1.0,0.2082,4 ,1.0,Català,0.0,Español,0.0,Inglés,8.0,Italiano,20.0,3.0,3.0,yes,no,no,nada,,,,distracción en la mitad de la tarea 2 del último lenguajepor el resto nada! ,56.0,yes
91,2024-04-15_14h32.20.450,Experiment4_uns,s152,22.0,feminino,right,España,CatalàEspanyol,Bachelor degree,no,no,A,1,conjunction_un,L4,unsyncopated,s1,r2,91,Online_conjL4_un//a.zi.lo4.none.none.wav,ja,da,ñi,sil,nu,pe,re,sil1,bu,bo,sil2,['-'],,,none,none,,,,lo,2,testWhatL1Uns//r2.s2.2.wav,4.0,what,unsyncopated,b,s2,rule,rule,L1,m,1.0178,4.0,0.0,0.8216,4 ,1.0,Català,0.0,Español,0.0,Inglés,8.0,Italiano,20.0,3.0,3.0,yes,no,no,nada,,,,distracción en la mitad de la tarea 2 del último lenguajepor el resto nada! ,56.0,yes
92,2024-04-15_14h32.20.450,Experiment4_uns,s152,22.0,feminino,right,España,CatalàEspanyol,Bachelor degree,no,no,A,1,conjunction_un,L4,unsyncopated,s1,r2,92,Online_conjL4_un//d.pe.po2.none.none.wav,ja,ña,ru,sil,nu,bu,de,sil1,ci,re,sil2,['false alarm'],[1.8101999999880718],[1.8101999999880718],none,none,,,"[""space""]",pe,4,testWhatL1Uns//r2.s1.2.wav,4.0,what,unsyncopated,b,s1,rule,rule,L1,m,0.1181,3.0,0.0,0.2884,4 ,1.0,Català,0.0,Español,0.0,Inglés,8.0,Italiano,20.0,3.0,3.0,yes,no,no,nada,,,,distracción en la mitad de la tarea 2 del último lenguajepor el resto nada! ,56.0,yes
93,2024-04-15_14h32.20.450,Experiment4_uns,s152,22.0,feminino,right,España,CatalàEspanyol,Bachelor degree,no,no,A,1,conjunction_un,L4,unsyncopated,s1,r1,93,Online_conjL4_un//d.pe.po3.none.none.wav,zi,ci,ñi,sil,lo,re,ru,sil1,bu,da,sil2,['-'],,,none,none,,,,pe,4,testWhatL1Uns//time_viol.r1.s2.0.wav,4.0,what,unsyncopated,a,s2,no_rule,time,L1,m,0.1684,2.0,1.0,0.2667,4 ,1.0,Català,0.0,Español,0.0,Inglés,8.0,Italiano,20.0,3.0,3.0,yes,no,no,nada,,,,distracción en la mitad de la tarea 2 del último lenguajepor el resto nada! ,56.0,yes
94,2024-04-15_14h32.20.450,Experiment4_uns,s152,22.0,feminino,right,España,CatalàEspanyol,Bachelor degree,no,no,A,1,conjunction_un,L4,unsyncopated,s2,r2,94,Online_conjL4_un//d.pe.po1.444.0.wav,po,bu,pe,sil,ja,ñi,ña,sil1,nu,ru,sil2,['miss'],,,0.444,no_beat,,,,pe,4,testWhatL1Uns//time_viol.r1.s1.0.wav,4.0,what,unsyncopated,a,s1,no_rule,time,L1,m,0.1087,5.0,1.0,0.5934,4 ,1.0,Català,0.0,Español,0.0,Inglés,8.0,Italiano,20.0,3.0,3.0,yes,no,no,nada,,,,distracción en la mitad de la tarea 2 del último lenguajepor el resto nada! ,56.0,yes
95,2024-04-15_14h32.20.450,Experiment4_uns,s152,22.0,feminino,right,España,CatalàEspanyol,Bachelor degree,no,no,A,1,conjunction_un,L4,unsyncopated,s1,r2,95,Online_conjL4_un//d.pe.po0.none.none.wav,ja,ci,ñi,sil,nu,ru,da,sil1,de,ña,sil2,['-'],,,none,none,,,,pe,4,testWhatL1Uns//r1.s2.2.wav,4.0,what,unsyncopated,a,s2,rule,rule,L1,m,0.0761,4.0,0.0,0.4515,4 ,1.0,Català,0.0,Español,0.0,Inglés,8.0,Italiano,20.0,3.0,3.0,yes,no,no,nada,,,,distracción en la mitad de la tarea 2 del último lenguajepor el resto nada! ,56.0,yes
96,2024-04-15_14h32.20.450,Experiment4_uns,s152,22.0,feminino,right,España,CatalàEspanyol,Bachelor degree,no,no,A,1,conjunction_un,L4,unsyncopated,s1,r2,96,Online_conjL4_un//a.zi.lo3.none.none.wav,ja,bu,re,sil,nu,pe,ñi,sil1,ru,ci,sil2,['-'],,,none,none,,,,lo,2,,,,,,,,,,,,,,,4 ,1.0,Català,0.0,Español,0.0,Inglés,8.0,Italiano,20.0,3.0,3.0,yes,no,no,nada,,,,distracción en la mitad de la tarea 2 del último lenguajepor el resto nada! ,56.0,yes
97,2024-04-15_14h32.20.450,Experiment4_uns,s152,22.0,feminino,right,España,CatalàEspanyol,Bachelor degree,no,no,A,1,conjunction_un,L4,unsyncopated,s1,r1,97,Online_conjL4_un//a.zi.lo2.0.888.wav,zi,ña,re,sil,lo,de,pe,sil1,bu,po,sil2,['catch'],[1.405199999988099],[1.405199999988099],0.888,beat,0.5171999999880991,0.5171999999880991,"[""space""]",lo,2,,,,,,,,,,,,,,,4 ,1.0,Català,0.0,Español,0.0,Inglés,8.0,Italiano,20.0,3.0,3.0,yes,no,no,nada,,,,distracción en la mitad de la tarea 2 del último lenguajepor el resto nada! ,56.0,yes
98,2024-04-15_14h32.20.450,Experiment4_uns,s152,22.0,feminino,right,España,CatalàEspanyol,Bachelor degree,no,no,A,1,conjunction_un,L4,unsyncopated,s1,r1,98,Online_conjL4_un//a.zi.lo1.0.888.wav,zi,ña,ci,sil,lo,po,pe,sil1,bo,da,sil2,['catch'],[1.4893000000117809],[1.4893000000117809],0.888,beat,0.6013000000117809,0.6013000000117809,"[""space""]",lo,2,,,,,,,,,,,,,,,4 ,1.0,Català,0.0,Español,0.0,Inglés,8.0,Italiano,20.0,3.0,3.0,yes,no,no,nada,,,,distracción en la mitad de la tarea 2 del último lenguajepor el resto nada! ,56.0,yes
99,2024-04-15_14h32.20.450,Experiment4_uns,s152,22.0,feminino,right,España,CatalàEspanyol,Bachelor degree,no,no,A,1,conjunction_un,L4,unsyncopated,s2,r1,99,Online_conjL4_un//a.zi.lo0.888.1776.wav,ñi,bu,ci,sil,zi,da,pe,sil1,lo,re,sil2,['catch'],[2.3703000000118664],[2.3703000000118664],1.776,beat,0.5943000000118663,0.5943000000118663,"[""space""]",lo,2,,,,,,,,,,,,,,,4 ,1.0,Català,0.0,Español,0.0,Inglés,8.0,Italiano,20.0,3.0,3.0,yes,no,no,nada,,,,distracción en la mitad de la tarea 2 del último lenguajepor el resto nada! ,56.0,yes
100,2024-04-15_14h32.20.450,Experiment4_uns,s152,22.0,feminino,right,España,CatalàEspanyol,Bachelor degree,no,no,A,1,conjunction_un,L4,unsyncopated,s2,r2,100,Online_conjL4_un//a.zi.lo17.none.none.wav,re,pe,ru,sil,ja,bu,ña,sil1,nu,po,sil2,['-'],,,none,none,,,,lo,2,,,,,,,,,,,,,,,4 ,1.0,Català,0.0,Español,0.0,Inglés,8.0,Italiano,20.0,3.0,3.0,yes,no,no,nada,,,,distracción en la mitad de la tarea 2 del último lenguajepor el resto nada! ,56.0,yes
101,2024-04-15_14h32.20.450,Experiment4_uns,s152,22.0,feminino,right,España,CatalàEspanyol,Bachelor degree,no,no,A,1,conjunction_un,L4,unsyncopated,s1,r1,101,Online_conjL4_un//a.zi.lo16.0.888.wav,zi,ci,ru,sil,lo,bu,de,sil1,da,po,sil2,['catch'],[1.4570999999643846],[1.4570999999643846],0.888,beat,0.5690999999643845,0.5690999999643845,"[""space""]",lo,2,,,,,,,,,,,,,,,4 ,1.0,Català,0.0,Español,0.0,Inglés,8.0,Italiano,20.0,3.0,3.0,yes,no,no,nada,,,,distracción en la mitad de la tarea 2 del último lenguajepor el resto nada! ,56.0,yes
102,2024-04-15_14h32.20.450,Experiment4_uns,s152,22.0,feminino,right,España,CatalàEspanyol,Bachelor degree,no,no,A,1,conjunction_un,L4,unsyncopated,s1,r2,102,Online_conjL4_un//a.zi.lo19.none.none.wav,ja,bo,po,sil,nu,pe,re,sil1,ci,ña,sil2,['-'],,,none,none,,,,lo,2,,,,,,,,,,,,,,,4 ,1.0,Català,0.0,Español,0.0,Inglés,8.0,Italiano,20.0,3.0,3.0,yes,no,no,nada,,,,distracción en la mitad de la tarea 2 del último lenguajepor el resto nada! ,56.0,yes
103,2024-04-15_14h32.20.450,Experiment4_uns,s152,22.0,feminino,right,España,CatalàEspanyol,Bachelor degree,no,no,A,1,conjunction_un,L4,unsyncopated,s2,r1,103,Online_conjL4_un//a.zi.lo18.888.1776.wav,po,da,ña,sil,zi,re,ci,sil1,lo,de,sil2,"['false alarm', 'catch']","[0.8530999999643427, 2.3730000000000473]",[2.3730000000000473],1.776,beat,0.5970000000000473,0.5970000000000473,"[""space"",""space""]",lo,2,,,,,,,,,,,,,,,4 ,1.0,Català,0.0,Español,0.0,Inglés,8.0,Italiano,20.0,3.0,3.0,yes,no,no,nada,,,,distracción en la mitad de la tarea 2 del último lenguajepor el resto nada! ,56.0,yes
104,2024-04-15_14h32.20.450,Experiment4_uns,s152,22.0,feminino,right,España,CatalàEspanyol,Bachelor degree,no,no,A,1,conjunction_un,L4,unsyncopated,s2,r1,104,Online_conjL4_un//c.bu.da17.none.none.wav,ru,de,re,sil,zi,ci,po,sil1,lo,pe,sil2,['-'],,,none,none,,,,bu,3,,,,,,,,,,,,,,,4 ,1.0,Català,0.0,Español,0.0,Inglés,8.0,Italiano,20.0,3.0,3.0,yes,no,no,nada,,,,distracción en la mitad de la tarea 2 del último lenguajepor el resto nada! ,56.0,yes
105,2024-04-15_14h32.20.450,Experiment4_uns,s152,22.0,feminino,right,España,CatalàEspanyol,Bachelor degree,no,no,A,1,conjunction_un,L4,unsyncopated,s1,r2,105,Online_conjL4_un//c.bu.da16.none.none.wav,ja,de,ñi,sil,nu,pe,ru,sil1,re,ci,sil2,['-'],,,none,none,,,,bu,3,,,,,,,,,,,,,,,4 ,1.0,Català,0.0,Español,0.0,Inglés,8.0,Italiano,20.0,3.0,3.0,yes,no,no,nada,,,,distracción en la mitad de la tarea 2 del último lenguajepor el resto nada! ,56.0,yes
106,2024-04-15_14h32.20.450,Experiment4_uns,s152,22.0,feminino,right,España,CatalàEspanyol,Bachelor degree,no,no,A,1,conjunction_un,L4,unsyncopated,s1,r2,106,Online_conjL4_un//c.bu.da18.1110.222.wav,ja,da,re,sil,nu,bu,ru,sil1,bo,pe,sil2,['catch'],[1.7858000000119318],[1.7858000000119318],1.11,no_beat,0.6758000000119317,0.6758000000119317,"[""space""]",bu,3,,,,,,,,,,,,,,,4 ,1.0,Català,0.0,Español,0.0,Inglés,8.0,Italiano,20.0,3.0,3.0,yes,no,no,nada,,,,distracción en la mitad de la tarea 2 del último lenguajepor el resto nada! ,56.0,yes
107,2024-04-15_14h32.20.450,Experiment4_uns,s152,22.0,feminino,right,España,CatalàEspanyol,Bachelor degree,no,no,A,1,conjunction_un,L4,unsyncopated,s2,r1,107,Online_conjL4_un//c.bu.da19.none.none.wav,ña,ru,pe,sil,zi,re,ñi,sil1,lo,de,sil2,['-'],,,none,none,,,,bu,3,,,,,,,,,,,,,,,4 ,1.0,Català,0.0,Español,0.0,Inglés,8.0,Italiano,20.0,3.0,3.0,yes,no,no,nada,,,,distracción en la mitad de la tarea 2 del último lenguajepor el resto nada! ,56.0,yes
108,2024-04-15_14h32.20.450,Experiment4_uns,s152,22.0,feminino,right,España,CatalàEspanyol,Bachelor degree,no,no,A,1,conjunction_un,L4,unsyncopated,s1,r1,108,Online_conjL4_un//c.bu.da20.1332.222.wav,zi,da,pe,sil,lo,ñi,bu,sil1,po,de,sil2,['catch'],[1.8966000000239092],[1.8966000000239092],1.332,no_beat,0.5646000000239091,0.5646000000239091,"[""space""]",bu,3,,,,,,,,,,,,,,,4 ,1.0,Català,0.0,Español,0.0,Inglés,8.0,Italiano,20.0,3.0,3.0,yes,no,no,nada,,,,distracción en la mitad de la tarea 2 del último lenguajepor el resto nada! ,56.0,yes
109,2024-04-15_14h32.20.450,Experiment4_uns,s152,22.0,feminino,right,España,CatalàEspanyol,Bachelor degree,no,no,A,1,conjunction_un,L4,unsyncopated,s2,r2,109,Online_conjL4_un//c.bu.da21.none.none.wav,de,bo,ñi,sil,ja,ci,po,sil1,nu,re,sil2,['-'],,,none,none,,,,bu,3,,,,,,,,,,,,,,,4 ,1.0,Català,0.0,Español,0.0,Inglés,8.0,Italiano,20.0,3.0,3.0,yes,no,no,nada,,,,distracción en la mitad de la tarea 2 del último lenguajepor el resto nada! ,56.0,yes
110,2024-04-15_14h32.20.450,Experiment4_uns,s152,22.0,feminino,right,España,CatalàEspanyol,Bachelor degree,no,no,A,1,conjunction_un,L4,unsyncopated,s2,r1,110,Online_conjL4_un//c.bu.da22.1110.0.wav,da,ci,bo,sil,zi,bu,ru,sil1,lo,pe,sil2,['catch'],[1.7546999999881336],[1.7546999999881336],1.11,no_beat,0.6446999999881335,0.6446999999881335,"[""space""]",bu,3,,,,,,,,,,,,,,,4 ,1.0,Català,0.0,Español,0.0,Inglés,8.0,Italiano,20.0,3.0,3.0,yes,no,no,nada,,,,distracción en la mitad de la tarea 2 del último lenguajepor el resto nada! ,56.0,yes
111,2024-04-15_14h32.20.450,Experiment4_uns,s152,22.0,feminino,right,España,CatalàEspanyol,Bachelor degree,no,no,A,1,conjunction_un,L4,unsyncopated,s2,r1,111,Online_conjL4_un//c.bu.da23.none.none.wav,po,ru,pe,sil,zi,re,ña,sil1,lo,ci,sil2,['false alarm'],[1.8930999999643063],[1.8930999999643063],none,none,,,"[""space""]",bu,3,,,,,,,,,,,,,,,4 ,1.0,Català,0.0,Español,0.0,Inglés,8.0,Italiano,20.0,3.0,3.0,yes,no,no,nada,,,,distracción en la mitad de la tarea 2 del último lenguajepor el resto nada! ,56.0,yes
112,2024-04-15_14h32.20.450,Experiment4_uns,s152,22.0,feminino,right,España,CatalàEspanyol,Bachelor degree,no,no,A,1,conjunction_un,L4,unsyncopated,s1,r2,112,Online_conjL4_un//a.zi.lo20.none.none.wav,ja,da,ñi,sil,nu,ña,ci,sil1,re,ru,sil2,['-'],,,none,none,,,,lo,2,,,,,,,,,,,,,,,4 ,1.0,Català,0.0,Español,0.0,Inglés,8.0,Italiano,20.0,3.0,3.0,yes,no,no,nada,,,,distracción en la mitad de la tarea 2 del último lenguajepor el resto nada! ,56.0,yes
113,2024-04-15_14h32.20.450,Experiment4_uns,s152,22.0,feminino,right,España,CatalàEspanyol,Bachelor degree,no,no,A,1,conjunction_un,L4,unsyncopated,s2,r1,113,Online_conjL4_un//a.zi.lo21.888.1776.wav,ci,da,de,sil,zi,bu,po,sil1,lo,re,sil2,['catch'],[2.2704999999998563],[2.2704999999998563],1.776,beat,0.4944999999998563,0.4944999999998563,"[""space""]",lo,2,,,,,,,,,,,,,,,4 ,1.0,Català,0.0,Español,0.0,Inglés,8.0,Italiano,20.0,3.0,3.0,yes,no,no,nada,,,,distracción en la mitad de la tarea 2 del último lenguajepor el resto nada! ,56.0,yes
114,2024-04-15_14h32.20.450,Experiment4_uns,s152,22.0,feminino,right,España,CatalàEspanyol,Bachelor degree,no,no,A,1,conjunction_un,L4,unsyncopated,s2,r2,114,Online_conjL4_un//a.zi.lo23.none.none.wav,ñi,bo,po,sil,ja,da,ña,sil1,nu,re,sil2,['-'],,,none,none,,,,lo,2,,,,,,,,,,,,,,,4 ,1.0,Català,0.0,Español,0.0,Inglés,8.0,Italiano,20.0,3.0,3.0,yes,no,no,nada,,,,distracción en la mitad de la tarea 2 del último lenguajepor el resto nada! ,56.0,yes
115,2024-04-15_14h32.20.450,Experiment4_uns,s152,22.0,feminino,right,España,CatalàEspanyol,Bachelor degree,no,no,A,1,conjunction_un,L4,unsyncopated,s2,r1,115,Online_conjL4_un//a.zi.lo22.888.1776.wav,bu,ñi,pe,sil,zi,bo,ci,sil1,lo,ru,sil2,['catch'],[2.461999999999989],[2.461999999999989],1.776,beat,0.6859999999999891,0.6859999999999891,"[""space""]",lo,2,,,,,,,,,,,,,,,4 ,1.0,Català,0.0,Español,0.0,Inglés,8.0,Italiano,20.0,3.0,3.0,yes,no,no,nada,,,,distracción en la mitad de la tarea 2 del último lenguajepor el resto nada! ,56.0,yes
116,2024-04-15_14h32.20.450,Experiment4_uns,s152,22.0,feminino,right,España,CatalàEspanyol,Bachelor degree,no,no,A,1,conjunction_un,L4,unsyncopated,s1,r1,116,Online_conjL4_un//b.ja.nu13.none.none.wav,zi,pe,de,sil,lo,bu,ru,sil1,ñi,ña,sil2,['-'],,,none,none,,,,ja,1,,,,,,,,,,,,,,,4 ,1.0,Català,0.0,Español,0.0,Inglés,8.0,Italiano,20.0,3.0,3.0,yes,no,no,nada,,,,distracción en la mitad de la tarea 2 del último lenguajepor el resto nada! ,56.0,yes
117,2024-04-15_14h32.20.450,Experiment4_uns,s152,22.0,feminino,right,España,CatalàEspanyol,Bachelor degree,no,no,A,1,conjunction_un,L4,unsyncopated,s1,r2,117,Online_conjL4_un//b.ja.nu12.0.888.wav,ja,ñi,ci,sil,nu,ña,pe,sil1,da,bu,sil2,['catch'],[0.48930000001200824],[0.48930000001200824],0.0,beat,0.4893000000120082,0.4893000000120082,"[""space""]",ja,1,,,,,,,,,,,,,,,4 ,1.0,Català,0.0,Español,0.0,Inglés,8.0,Italiano,20.0,3.0,3.0,yes,no,no,nada,,,,distracción en la mitad de la tarea 2 del último lenguajepor el resto nada! ,56.0,yes
118,2024-04-15_14h32.20.450,Experiment4_uns,s152,22.0,feminino,right,España,CatalàEspanyol,Bachelor degree,no,no,A,1,conjunction_un,L4,unsyncopated,s1,r2,118,Online_conjL4_un//b.ja.nu15.0.888.wav,ja,bu,re,sil,nu,pe,bo,sil1,ñi,ci,sil2,['catch'],[0.49050000000011096],[0.49050000000011096],0.0,beat,0.4905000000001109,0.4905000000001109,"[""space""]",ja,1,,,,,,,,,,,,,,,4 ,1.0,Català,0.0,Español,0.0,Inglés,8.0,Italiano,20.0,3.0,3.0,yes,no,no,nada,,,,distracción en la mitad de la tarea 2 del último lenguajepor el resto nada! ,56.0,yes
119,2024-04-15_14h32.20.450,Experiment4_uns,s152,22.0,feminino,right,España,CatalàEspanyol,Bachelor degree,no,no,A,1,conjunction_un,L4,unsyncopated,s2,r2,119,Online_conjL4_un//b.ja.nu14.888.1776.wav,ru,ñi,re,sil,ja,pe,po,sil1,nu,da,sil2,['catch'],[1.33969999998817],[1.33969999998817],0.888,beat,0.45169999998817,0.45169999998817,"[""space""]",ja,1,,,,,,,,,,,,,,,4 ,1.0,Català,0.0,Español,0.0,Inglés,8.0,Italiano,20.0,3.0,3.0,yes,no,no,nada,,,,distracción en la mitad de la tarea 2 del último lenguajepor el resto nada! ,56.0,yes
120,2024-04-15_14h32.20.450,Experiment4_uns,s152,22.0,feminino,right,España,CatalàEspanyol,Bachelor degree,no,no,A,1,conjunction_un,L4,unsyncopated,s1,r2,120,Online_conjL4_un//c.bu.da30.222.444.wav,ja,bu,da,sil,nu,pe,bo,sil1,ña,de,sil2,['catch'],[1.4316999999880409],[1.4316999999880409],0.222,no_beat,,1.209699999988041,"[""space""]",bu,3,,,,,,,,,,,,,,,4 ,1.0,Català,0.0,Español,0.0,Inglés,8.0,Italiano,20.0,3.0,3.0,yes,no,no,nada,,,,distracción en la mitad de la tarea 2 del último lenguajepor el resto nada! ,56.0,yes
121,2024-04-15_14h32.20.450,Experiment4_uns,s152,22.0,feminino,right,España,CatalàEspanyol,Bachelor degree,no,no,A,1,conjunction_un,L4,unsyncopated,s2,r2,121,Online_conjL4_un//c.bu.da31.none.none.wav,po,re,bo,sil,ja,ña,ñi,sil1,nu,pe,sil2,['-'],,,none,none,,,,bu,3,,,,,,,,,,,,,,,4 ,1.0,Català,0.0,Español,0.0,Inglés,8.0,Italiano,20.0,3.0,3.0,yes,no,no,nada,,,,distracción en la mitad de la tarea 2 del último lenguajepor el resto nada! ,56.0,yes
122,2024-04-15_14h32.20.450,Experiment4_uns,s152,22.0,feminino,right,España,CatalàEspanyol,Bachelor degree,no,no,A,1,conjunction_un,L4,unsyncopated,s1,r1,122,Online_conjL4_un//c.bu.da28.1776.1110.wav,zi,re,ru,sil,lo,da,pe,sil1,bu,ña,sil2,['catch'],[2.2888000000120883],[2.2888000000120883],1.776,beat,0.5128000000120883,0.5128000000120883,"[""space""]",bu,3,,,,,,,,,,,,,,,4 ,1.0,Català,0.0,Español,0.0,Inglés,8.0,Italiano,20.0,3.0,3.0,yes,no,no,nada,,,,distracción en la mitad de la tarea 2 del último lenguajepor el resto nada! ,56.0,yes
123,2024-04-15_14h32.20.450,Experiment4_uns,s152,22.0,feminino,right,España,CatalàEspanyol,Bachelor degree,no,no,A,1,conjunction_un,L4,unsyncopated,s2,r2,123,Online_conjL4_un//c.bu.da29.none.none.wav,bo,ña,re,sil,ja,ci,ru,sil1,nu,ñi,sil2,['false alarm'],[0.7953999999760981],[0.7953999999760981],none,none,,,"[""space""]",bu,3,,,,,,,,,,,,,,,4 ,1.0,Català,0.0,Español,0.0,Inglés,8.0,Italiano,20.0,3.0,3.0,yes,no,no,nada,,,,distracción en la mitad de la tarea 2 del último lenguajepor el resto nada! ,56.0,yes
124,2024-04-15_14h32.20.450,Experiment4_uns,s152,22.0,feminino,right,España,CatalàEspanyol,Bachelor degree,no,no,A,1,conjunction_un,L4,unsyncopated,s1,r1,124,Online_conjL4_un//d.pe.po19.none.none.wav,zi,da,ña,sil,lo,bo,bu,sil1,ñi,re,sil2,['false alarm'],[2.5791999999880773],[2.5791999999880773],none,none,,,"[""space""]",pe,4,,,,,,,,,,,,,,,4 ,1.0,Català,0.0,Español,0.0,Inglés,8.0,Italiano,20.0,3.0,3.0,yes,no,no,nada,,,,distracción en la mitad de la tarea 2 del último lenguajepor el resto nada! ,56.0,yes
125,2024-04-15_14h32.20.450,Experiment4_uns,s152,22.0,feminino,right,España,CatalàEspanyol,Bachelor degree,no,no,A,1,conjunction_un,L4,unsyncopated,s1,r2,125,Online_conjL4_un//d.pe.po16.1776.444.wav,ja,re,po,sil,nu,da,bu,sil1,pe,bo,sil2,['catch'],[2.2738999999762655],[2.2738999999762655],1.776,beat,0.4978999999762654,0.4978999999762654,"[""space""]",pe,4,,,,,,,,,,,,,,,4 ,1.0,Català,0.0,Español,0.0,Inglés,8.0,Italiano,20.0,3.0,3.0,yes,no,no,nada,,,,distracción en la mitad de la tarea 2 del último lenguajepor el resto nada! ,56.0,yes
126,2024-04-15_14h32.20.450,Experiment4_uns,s152,22.0,feminino,right,España,CatalàEspanyol,Bachelor degree,no,no,A,1,conjunction_un,L4,unsyncopated,s1,r2,126,Online_conjL4_un//d.pe.po18.none.none.wav,ja,ña,ñi,sil,nu,de,ru,sil1,da,bo,sil2,['-'],,,none,none,,,,pe,4,,,,,,,,,,,,,,,4 ,1.0,Català,0.0,Español,0.0,Inglés,8.0,Italiano,20.0,3.0,3.0,yes,no,no,nada,,,,distracción en la mitad de la tarea 2 del último lenguajepor el resto nada! ,56.0,yes
127,2024-04-15_14h32.20.450,Experiment4_uns,s152,22.0,feminino,right,España,CatalàEspanyol,Bachelor degree,no,no,A,1,conjunction_un,L4,unsyncopated,s2,r2,127,Online_conjL4_un//d.pe.po17.222.444.wav,re,pe,po,sil,ja,ci,ña,sil1,nu,bo,sil2,['catch'],[1.0928000000119482],[1.0928000000119482],0.222,no_beat,0.8708000000119482,0.8708000000119482,"[""space""]",pe,4,,,,,,,,,,,,,,,4 ,1.0,Català,0.0,Español,0.0,Inglés,8.0,Italiano,20.0,3.0,3.0,yes,no,no,nada,,,,distracción en la mitad de la tarea 2 del último lenguajepor el resto nada! ,56.0,yes
128,2024-04-15_14h32.20.450,Experiment4_uns,s152,22.0,feminino,right,España,CatalàEspanyol,Bachelor degree,no,no,A,2,conjunction_syn,L3,syncopated,s1,r1,0,Online_conjL3_syn//a.chu.mo31.0.666.wav,chu,ka,je,mo,sil,ga,di,gu,sil1,ko,sil2,['miss'],,,0.666,no_beat,,,,mo,2,,,,,,,,,,,,,,,4 ,1.0,Català,0.0,Español,0.0,Inglés,8.0,Italiano,20.0,3.0,3.0,yes,no,no,nada,,,,distracción en la mitad de la tarea 2 del último lenguajepor el resto nada! ,56.0,yes
129,2024-04-15_14h32.20.450,Experiment4_uns,s152,22.0,feminino,right,España,CatalàEspanyol,Bachelor degree,no,no,A,2,conjunction_syn,L3,syncopated,s2,r2,1,Online_conjL3_syn//a.chu.mo30.none.none.wav,fu,gu,ji,ñe,sil,li,do,sa,sil1,je,sil2,['-'],,,none,none,,,,mo,2,,,,,,,,,,,,,,,4 ,1.0,Català,0.0,Español,0.0,Inglés,8.0,Italiano,20.0,3.0,3.0,yes,no,no,nada,,,,distracción en la mitad de la tarea 2 del último lenguajepor el resto nada! ,56.0,yes
130,2024-04-15_14h32.20.450,Experiment4_uns,s152,22.0,feminino,right,España,CatalàEspanyol,Bachelor degree,no,no,A,2,conjunction_syn,L3,syncopated,s2,r2,2,Online_conjL3_syn//a.chu.mo29.none.none.wav,ji,ka,do,ñe,sil,gu,di,sa,sil1,ko,sil2,['-'],,,none,none,,,,mo,2,,,,,,,,,,,,,,,4 ,1.0,Català,0.0,Español,0.0,Inglés,8.0,Italiano,20.0,3.0,3.0,yes,no,no,nada,,,,distracción en la mitad de la tarea 2 del último lenguajepor el resto nada! ,56.0,yes
131,2024-04-15_14h32.20.450,Experiment4_uns,s152,22.0,feminino,right,España,CatalàEspanyol,Bachelor degree,no,no,A,2,conjunction_syn,L3,syncopated,s1,r2,3,Online_conjL3_syn//a.chu.mo28.none.none.wav,ñe,ga,li,sa,sil,je,do,ko,sil1,ka,sil2,['-'],,,none,none,,,,mo,2,,,,,,,,,,,,,,,4 ,1.0,Català,0.0,Español,0.0,Inglés,8.0,Italiano,20.0,3.0,3.0,yes,no,no,nada,,,,distracción en la mitad de la tarea 2 del último lenguajepor el resto nada! ,56.0,yes
132,2024-04-15_14h32.20.450,Experiment4_uns,s152,22.0,feminino,right,España,CatalàEspanyol,Bachelor degree,no,no,A,2,conjunction_syn,L3,syncopated,s1,r1,4,Online_conjL3_syn//c.gu.je1.222.1332.wav,chu,gu,li,mo,sil,di,je,fu,sil1,ka,sil2,"['catch', 'false alarm']","[0.94560000002366, 2.2413000000117336]",[0.94560000002366],0.222,no_beat,0.72360000002366,0.72360000002366,"[""space"",""space""]",gu,3,,,,,,,,,,,,,,,4 ,1.0,Català,0.0,Español,0.0,Inglés,8.0,Italiano,20.0,3.0,3.0,yes,no,no,nada,,,,distracción en la mitad de la tarea 2 del último lenguajepor el resto nada! ,56.0,yes
133,2024-04-15_14h32.20.450,Experiment4_uns,s152,22.0,feminino,right,España,CatalàEspanyol,Bachelor degree,no,no,A,2,conjunction_syn,L3,syncopated,s1,r2,5,Online_conjL3_syn//c.gu.je2.none.none.wav,ñe,ka,ga,sa,sil,li,ji,do,sil1,le,sil2,['-'],,,none,none,,,,gu,3,,,,,,,,,,,,,,,4 ,1.0,Català,0.0,Español,0.0,Inglés,8.0,Italiano,20.0,3.0,3.0,yes,no,no,nada,,,,distracción en la mitad de la tarea 2 del último lenguajepor el resto nada! ,56.0,yes
134,2024-04-15_14h32.20.450,Experiment4_uns,s152,22.0,feminino,right,España,CatalàEspanyol,Bachelor degree,no,no,A,2,conjunction_syn,L3,syncopated,s1,r1,6,Online_conjL3_syn//c.gu.je3.none.none.wav,chu,ka,li,mo,sil,ga,le,di,sil1,ji,sil2,['-'],,,none,none,,,,gu,3,,,,,,,,,,,,,,,4 ,1.0,Català,0.0,Español,0.0,Inglés,8.0,Italiano,20.0,3.0,3.0,yes,no,no,nada,,,,distracción en la mitad de la tarea 2 del último lenguajepor el resto nada! ,56.0,yes
135,2024-04-15_14h32.20.450,Experiment4_uns,s152,22.0,feminino,right,España,CatalàEspanyol,Bachelor degree,no,no,A,2,conjunction_syn,L3,syncopated,s1,r1,7,Online_conjL3_syn//c.gu.je0.1332.444.wav,chu,ga,je,mo,sil,ko,gu,ji,sil1,do,sil2,['false alarm'],[1.2029000000356973],[1.2029000000356973],1.332,no_beat,,,"[""space""]",gu,3,,,,,,,,,,,,,,,4 ,1.0,Català,0.0,Español,0.0,Inglés,8.0,Italiano,20.0,3.0,3.0,yes,no,no,nada,,,,distracción en la mitad de la tarea 2 del último lenguajepor el resto nada! ,56.0,yes
136,2024-04-15_14h32.20.450,Experiment4_uns,s152,22.0,feminino,right,España,CatalàEspanyol,Bachelor degree,no,no,A,2,conjunction_syn,L3,syncopated,s2,r2,8,Online_conjL3_syn//a.chu.mo11.none.none.wav,ka,di,je,ñe,sil,ga,ko,sa,sil1,ji,sil2,['-'],,,none,none,,,,mo,2,,,,,,,,,,,,,,,4 ,1.0,Català,0.0,Español,0.0,Inglés,8.0,Italiano,20.0,3.0,3.0,yes,no,no,nada,,,,distracción en la mitad de la tarea 2 del último lenguajepor el resto nada! ,56.0,yes
137,2024-04-15_14h32.20.450,Experiment4_uns,s152,22.0,feminino,right,España,CatalàEspanyol,Bachelor degree,no,no,A,2,conjunction_syn,L3,syncopated,s2,r1,9,Online_conjL3_syn//a.chu.mo9.666.1554.wav,ka,ko,di,chu,sil,li,ga,mo,sil1,gu,sil2,['catch'],[2.0901000000239947],[2.0901000000239947],1.554,no_beat,0.5361000000239946,0.5361000000239946,"[""space""]",mo,2,,,,,,,,,,,,,,,4 ,1.0,Català,0.0,Español,0.0,Inglés,8.0,Italiano,20.0,3.0,3.0,yes,no,no,nada,,,,distracción en la mitad de la tarea 2 del último lenguajepor el resto nada! ,56.0,yes
138,2024-04-15_14h32.20.450,Experiment4_uns,s152,22.0,feminino,right,España,CatalàEspanyol,Bachelor degree,no,no,A,2,conjunction_syn,L3,syncopated,s1,r2,10,Online_conjL3_syn//a.chu.mo10.none.none.wav,ñe,je,gu,sa,sil,ko,fu,ji,sil1,di,sil2,['-'],,,none,none,,,,mo,2,,,,,,,,,,,,,,,4 ,1.0,Català,0.0,Español,0.0,Inglés,8.0,Italiano,20.0,3.0,3.0,yes,no,no,nada,,,,distracción en la mitad de la tarea 2 del último lenguajepor el resto nada! ,56.0,yes
139,2024-04-15_14h32.20.450,Experiment4_uns,s152,22.0,feminino,right,España,CatalàEspanyol,Bachelor degree,no,no,A,2,conjunction_syn,L3,syncopated,s1,r2,11,Online_conjL3_syn//a.chu.mo8.none.none.wav,ñe,ga,fu,sa,sil,ji,li,je,sil1,le,sil2,['-'],,,none,none,,,,mo,2,,,,,,,,,,,,,,,4 ,1.0,Català,0.0,Español,0.0,Inglés,8.0,Italiano,20.0,3.0,3.0,yes,no,no,nada,,,,distracción en la mitad de la tarea 2 del último lenguajepor el resto nada! ,56.0,yes
140,2024-04-15_14h32.20.450,Experiment4_uns,s152,22.0,feminino,right,España,CatalàEspanyol,Bachelor degree,no,no,A,2,conjunction_syn,L3,syncopated,s1,r2,12,Online_conjL3_syn//a.chu.mo19.none.none.wav,ñe,di,je,sa,sil,ga,do,fu,sil1,ji,sil2,['-'],,,none,none,,,,mo,2,,,,,,,,,,,,,,,4 ,1.0,Català,0.0,Español,0.0,Inglés,8.0,Italiano,20.0,3.0,3.0,yes,no,no,nada,,,,distracción en la mitad de la tarea 2 del último lenguajepor el resto nada! ,56.0,yes
141,2024-04-15_14h32.20.450,Experiment4_uns,s152,22.0,feminino,right,España,CatalàEspanyol,Bachelor degree,no,no,A,2,conjunction_syn,L3,syncopated,s1,r2,13,Online_conjL3_syn//a.chu.mo18.none.none.wav,ñe,ka,gu,sa,sil,ko,fu,je,sil1,ga,sil2,['-'],,,none,none,,,,mo,2,,,,,,,,,,,,,,,4 ,1.0,Català,0.0,Español,0.0,Inglés,8.0,Italiano,20.0,3.0,3.0,yes,no,no,nada,,,,distracción en la mitad de la tarea 2 del último lenguajepor el resto nada! ,56.0,yes
142,2024-04-15_14h32.20.450,Experiment4_uns,s152,22.0,feminino,right,España,CatalàEspanyol,Bachelor degree,no,no,A,2,conjunction_syn,L3,syncopated,s2,r1,14,Online_conjL3_syn//a.chu.mo16.666.1554.wav,li,je,fu,chu,sil,do,le,mo,sil1,ka,sil2,['catch'],[2.2483999999760726],[2.2483999999760726],1.554,no_beat,0.6943999999760726,0.6943999999760726,"[""space""]",mo,2,,,,,,,,,,,,,,,4 ,1.0,Català,0.0,Español,0.0,Inglés,8.0,Italiano,20.0,3.0,3.0,yes,no,no,nada,,,,distracción en la mitad de la tarea 2 del último lenguajepor el resto nada! ,56.0,yes
143,2024-04-15_14h32.20.450,Experiment4_uns,s152,22.0,feminino,right,España,CatalàEspanyol,Bachelor degree,no,no,A,2,conjunction_syn,L3,syncopated,s1,r2,15,Online_conjL3_syn//a.chu.mo17.none.none.wav,ñe,do,ga,sa,sil,fu,je,ji,sil1,ko,sil2,['-'],,,none,none,,,,mo,2,,,,,,,,,,,,,,,4 ,1.0,Català,0.0,Español,0.0,Inglés,8.0,Italiano,20.0,3.0,3.0,yes,no,no,nada,,,,distracción en la mitad de la tarea 2 del último lenguajepor el resto nada! ,56.0,yes
144,2024-04-15_14h32.20.450,Experiment4_uns,s152,22.0,feminino,right,España,CatalàEspanyol,Bachelor degree,no,no,A,2,conjunction_syn,L3,syncopated,s2,r1,16,Online_conjL3_syn//a.chu.mo21.666.1554.wav,gu,ka,je,chu,sil,do,ko,mo,sil1,li,sil2,['miss'],,,1.554,no_beat,,,,mo,2,,,,,,,,,,,,,,,4 ,1.0,Català,0.0,Español,0.0,Inglés,8.0,Italiano,20.0,3.0,3.0,yes,no,no,nada,,,,distracción en la mitad de la tarea 2 del último lenguajepor el resto nada! ,56.0,yes
145,2024-04-15_14h32.20.450,Experiment4_uns,s152,22.0,feminino,right,España,CatalàEspanyol,Bachelor degree,no,no,A,2,conjunction_syn,L3,syncopated,s2,r1,17,Online_conjL3_syn//a.chu.mo23.666.1554.wav,gu,ga,le,chu,sil,fu,je,mo,sil1,ka,sil2,['catch'],[2.0685000000000855],[2.0685000000000855],1.554,no_beat,0.5145000000000854,0.5145000000000854,"[""space""]",mo,2,,,,,,,,,,,,,,,4 ,1.0,Català,0.0,Español,0.0,Inglés,8.0,Italiano,20.0,3.0,3.0,yes,no,no,nada,,,,distracción en la mitad de la tarea 2 del último lenguajepor el resto nada! ,56.0,yes
146,2024-04-15_14h32.20.450,Experiment4_uns,s152,22.0,feminino,right,España,CatalàEspanyol,Bachelor degree,no,no,A,2,conjunction_syn,L3,syncopated,s1,r1,18,Online_conjL3_syn//a.chu.mo20.0.666.wav,chu,do,li,mo,sil,je,ka,ga,sil1,gu,sil2,['miss'],,,0.666,no_beat,,,,mo,2,,,,,,,,,,,,,,,4 ,1.0,Català,0.0,Español,0.0,Inglés,8.0,Italiano,20.0,3.0,3.0,yes,no,no,nada,,,,distracción en la mitad de la tarea 2 del último lenguajepor el resto nada! ,56.0,yes
147,2024-04-15_14h32.20.450,Experiment4_uns,s152,22.0,feminino,right,España,CatalàEspanyol,Bachelor degree,no,no,A,2,conjunction_syn,L3,syncopated,s2,r1,19,Online_conjL3_syn//a.chu.mo22.666.1554.wav,ka,li,le,chu,sil,di,ko,mo,sil1,je,sil2,['catch'],[2.0851000000238855],[2.0851000000238855],1.554,no_beat,0.5311000000238855,0.5311000000238855,"[""space""]",mo,2,,,,,,,,,,,,,,,4 ,1.0,Català,0.0,Español,0.0,Inglés,8.0,Italiano,20.0,3.0,3.0,yes,no,no,nada,,,,distracción en la mitad de la tarea 2 del último lenguajepor el resto nada! ,56.0,yes
148,2024-04-15_14h32.20.450,Experiment4_uns,s152,22.0,feminino,right,España,CatalàEspanyol,Bachelor degree,no,no,A,2,conjunction_syn,L3,syncopated,s1,r1,20,Online_conjL3_syn//a.chu.mo13.0.666.wav,chu,ji,fu,mo,sil,je,li,do,sil1,ka,sil2,['catch'],[1.4771999999879881],[1.4771999999879881],0.666,no_beat,0.8111999999879881,0.8111999999879881,"[""space""]",mo,2,,,,,,,,,,,,,,,4 ,1.0,Català,0.0,Español,0.0,Inglés,8.0,Italiano,20.0,3.0,3.0,yes,no,no,nada,,,,distracción en la mitad de la tarea 2 del último lenguajepor el resto nada! ,56.0,yes
149,2024-04-15_14h32.20.450,Experiment4_uns,s152,22.0,feminino,right,España,CatalàEspanyol,Bachelor degree,no,no,A,2,conjunction_syn,L3,syncopated,s1,r1,21,Online_conjL3_syn//a.chu.mo15.0.666.wav,chu,le,gu,mo,sil,do,li,ka,sil1,ji,sil2,['catch'],[1.1035999999642172],[1.1035999999642172],0.666,no_beat,0.4375999999642171,0.4375999999642171,"[""space""]",mo,2,,,,,,,,,,,,,,,4 ,1.0,Català,0.0,Español,0.0,Inglés,8.0,Italiano,20.0,3.0,3.0,yes,no,no,nada,,,,distracción en la mitad de la tarea 2 del último lenguajepor el resto nada! ,56.0,yes
150,2024-04-15_14h32.20.450,Experiment4_uns,s152,22.0,feminino,right,España,CatalàEspanyol,Bachelor degree,no,no,A,2,conjunction_syn,L3,syncopated,s1,r2,22,Online_conjL3_syn//a.chu.mo12.none.none.wav,ñe,je,do,sa,sil,ka,le,ji,sil1,ga,sil2,['-'],,,none,none,,,,mo,2,,,,,,,,,,,,,,,4 ,1.0,Català,0.0,Español,0.0,Inglés,8.0,Italiano,20.0,3.0,3.0,yes,no,no,nada,,,,distracción en la mitad de la tarea 2 del último lenguajepor el resto nada! ,56.0,yes
151,2024-04-15_14h32.20.450,Experiment4_uns,s152,22.0,feminino,right,España,CatalàEspanyol,Bachelor degree,no,no,A,2,conjunction_syn,L3,syncopated,s1,r1,23,Online_conjL3_syn//a.chu.mo14.0.666.wav,chu,ka,li,mo,sil,ga,je,ji,sil1,do,sil2,['catch'],[1.1877000000476983],[1.1877000000476983],0.666,no_beat,0.5217000000476982,0.5217000000476982,"[""space""]",mo,2,,,,,,,,,,,,,,,4 ,1.0,Català,0.0,Español,0.0,Inglés,8.0,Italiano,20.0,3.0,3.0,yes,no,no,nada,,,,distracción en la mitad de la tarea 2 del último lenguajepor el resto nada! ,56.0,yes
152,2024-04-15_14h32.20.450,Experiment4_uns,s152,22.0,feminino,right,España,CatalàEspanyol,Bachelor degree,no,no,A,2,conjunction_syn,L3,syncopated,s2,r2,24,Online_conjL3_syn//d.ji.li17.1332.222.wav,fu,li,do,ñe,sil,di,ji,sa,sil1,je,sil2,['catch'],[1.9576999999881082],[1.9576999999881082],1.332,no_beat,0.6256999999881081,0.6256999999881081,"[""space""]",ji,4,,,,,,,,,,,,,,,4 ,1.0,Català,0.0,Español,0.0,Inglés,8.0,Italiano,20.0,3.0,3.0,yes,no,no,nada,,,,distracción en la mitad de la tarea 2 del último lenguajepor el resto nada! ,56.0,yes
153,2024-04-15_14h32.20.450,Experiment4_uns,s152,22.0,feminino,right,España,CatalàEspanyol,Bachelor degree,no,no,A,2,conjunction_syn,L3,syncopated,s1,r1,25,Online_conjL3_syn//d.ji.li18.1554.444.wav,chu,ga,li,mo,sil,je,do,ji,sil1,fu,sil2,['catch'],[1.961399999976038],[1.961399999976038],1.554,no_beat,0.407399999976038,0.407399999976038,"[""space""]",ji,4,,,,,,,,,,,,,,,4 ,1.0,Català,0.0,Español,0.0,Inglés,8.0,Italiano,20.0,3.0,3.0,yes,no,no,nada,,,,distracción en la mitad de la tarea 2 del último lenguajepor el resto nada! ,56.0,yes
154,2024-04-15_14h32.20.450,Experiment4_uns,s152,22.0,feminino,right,España,CatalàEspanyol,Bachelor degree,no,no,A,2,conjunction_syn,L3,syncopated,s1,r2,26,Online_conjL3_syn//d.ji.li16.none.none.wav,ñe,gu,le,sa,sil,do,ga,ko,sil1,fu,sil2,['-'],,,none,none,,,,ji,4,,,,,,,,,,,,,,,4 ,1.0,Català,0.0,Español,0.0,Inglés,8.0,Italiano,20.0,3.0,3.0,yes,no,no,nada,,,,distracción en la mitad de la tarea 2 del último lenguajepor el resto nada! ,56.0,yes
155,2024-04-15_14h32.20.450,Experiment4_uns,s152,22.0,feminino,right,España,CatalàEspanyol,Bachelor degree,no,no,A,2,conjunction_syn,L3,syncopated,s2,r2,27,Online_conjL3_syn//d.ji.li19.none.none.wav,je,le,ko,ñe,sil,ga,do,sa,sil1,gu,sil2,['-'],,,none,none,,,,ji,4,,,,,,,,,,,,,,,4 ,1.0,Català,0.0,Español,0.0,Inglés,8.0,Italiano,20.0,3.0,3.0,yes,no,no,nada,,,,distracción en la mitad de la tarea 2 del último lenguajepor el resto nada! ,56.0,yes
156,2024-04-15_14h32.20.450,Experiment4_uns,s152,22.0,feminino,right,España,CatalàEspanyol,Bachelor degree,no,no,A,2,conjunction_syn,L3,syncopated,s2,r2,28,Online_conjL3_syn//c.gu.je25.none.none.wav,fu,ka,di,ñe,sil,do,le,sa,sil1,ji,sil2,['-'],,,none,none,,,,gu,3,,,,,,,,,,,,,,,4 ,1.0,Català,0.0,Español,0.0,Inglés,8.0,Italiano,20.0,3.0,3.0,yes,no,no,nada,,,,distracción en la mitad de la tarea 2 del último lenguajepor el resto nada! ,56.0,yes
157,2024-04-15_14h32.20.450,Experiment4_uns,s152,22.0,feminino,right,España,CatalàEspanyol,Bachelor degree,no,no,A,2,conjunction_syn,L3,syncopated,s1,r1,29,Online_conjL3_syn//c.gu.je26.none.none.wav,chu,ji,do,mo,sil,ga,le,ko,sil1,ka,sil2,['-'],,,none,none,,,,gu,3,,,,,,,,,,,,,,,4 ,1.0,Català,0.0,Español,0.0,Inglés,8.0,Italiano,20.0,3.0,3.0,yes,no,no,nada,,,,distracción en la mitad de la tarea 2 del último lenguajepor el resto nada! ,56.0,yes
158,2024-04-15_14h32.20.450,Experiment4_uns,s152,22.0,feminino,right,España,CatalàEspanyol,Bachelor degree,no,no,A,2,conjunction_syn,L3,syncopated,s1,r2,30,Online_conjL3_syn//c.gu.je27.none.none.wav,ñe,li,fu,sa,sil,di,le,ko,sil1,ji,sil2,['-'],,,none,none,,,,gu,3,,,,,,,,,,,,,,,4 ,1.0,Català,0.0,Español,0.0,Inglés,8.0,Italiano,20.0,3.0,3.0,yes,no,no,nada,,,,distracción en la mitad de la tarea 2 del último lenguajepor el resto nada! ,56.0,yes
159,2024-04-15_14h32.20.450,Experiment4_uns,s152,22.0,feminino,right,España,CatalàEspanyol,Bachelor degree,no,no,A,2,conjunction_syn,L3,syncopated,s1,r1,31,Online_conjL3_syn//c.gu.je24.1554.1110.wav,chu,ji,ko,mo,sil,je,li,gu,sil1,ka,sil2,['catch'],[2.0377999999523126],[2.0377999999523126],1.554,no_beat,0.4837999999523126,0.4837999999523126,"[""space""]",gu,3,,,,,,,,,,,,,,,4 ,1.0,Català,0.0,Español,0.0,Inglés,8.0,Italiano,20.0,3.0,3.0,yes,no,no,nada,,,,distracción en la mitad de la tarea 2 del último lenguajepor el resto nada! ,56.0,yes
160,2024-04-15_14h32.20.450,Experiment4_uns,s152,22.0,feminino,right,España,CatalàEspanyol,Bachelor degree,no,no,A,2,conjunction_syn,L3,syncopated,s2,r1,32,Online_conjL3_syn//d.ji.li20.none.none.wav,di,le,ko,chu,sil,ka,do,mo,sil1,gu,sil2,['false alarm'],[2.483599999964099],[2.483599999964099],none,none,,,"[""space""]",ji,4,,,,,,,,,,,,,,,4 ,1.0,Català,0.0,Español,0.0,Inglés,8.0,Italiano,20.0,3.0,3.0,yes,no,no,nada,,,,distracción en la mitad de la tarea 2 del último lenguajepor el resto nada! ,56.0,yes
161,2024-04-15_14h32.20.450,Experiment4_uns,s152,22.0,feminino,right,España,CatalàEspanyol,Bachelor degree,no,no,A,2,conjunction_syn,L3,syncopated,s2,r1,33,Online_conjL3_syn//d.ji.li21.none.none.wav,ko,gu,je,chu,sil,ka,ga,mo,sil1,di,sil2,['-'],,,none,none,,,,ji,4,,,,,,,,,,,,,,,4 ,1.0,Català,0.0,Español,0.0,Inglés,8.0,Italiano,20.0,3.0,3.0,yes,no,no,nada,,,,distracción en la mitad de la tarea 2 del último lenguajepor el resto nada! ,56.0,yes
162,2024-04-15_14h32.20.450,Experiment4_uns,s152,22.0,feminino,right,España,CatalàEspanyol,Bachelor degree,no,no,A,2,conjunction_syn,L3,syncopated,s1,r2,34,Online_conjL3_syn//d.ji.li23.none.none.wav,ñe,ga,ko,sa,sil,fu,do,le,sil1,gu,sil2,['false alarm'],[1.6863999999761745],[1.6863999999761745],none,none,,,"[""space""]",ji,4,,,,,,,,,,,,,,,4 ,1.0,Català,0.0,Español,0.0,Inglés,8.0,Italiano,20.0,3.0,3.0,yes,no,no,nada,,,,distracción en la mitad de la tarea 2 del último lenguajepor el resto nada! ,56.0,yes
163,2024-04-15_14h32.20.450,Experiment4_uns,s152,22.0,feminino,right,España,CatalàEspanyol,Bachelor degree,no,no,A,2,conjunction_syn,L3,syncopated,s2,r2,35,Online_conjL3_syn//d.ji.li22.0.1110.wav,ji,do,le,ñe,sil,li,ga,sa,sil1,je,sil2,['catch'],[0.9726999999882082],[0.9726999999882082],0.0,beat,0.9726999999882082,0.9726999999882082,"[""space""]",ji,4,,,,,,,,,,,,,,,4 ,1.0,Català,0.0,Español,0.0,Inglés,8.0,Italiano,20.0,3.0,3.0,yes,no,no,nada,,,,distracción en la mitad de la tarea 2 del último lenguajepor el resto nada! ,56.0,yes
164,2024-04-15_14h32.20.450,Experiment4_uns,s152,22.0,feminino,right,España,CatalàEspanyol,Bachelor degree,no,no,A,2,conjunction_syn,L3,syncopated,s2,r1,36,Online_conjL3_syn//b.ñe.sa15.none.none.wav,di,gu,le,chu,sil,do,fu,mo,sil1,ji,sil2,['-'],,,none,none,,,,ñe,1,,,,,,,,,,,,,,,4 ,1.0,Català,0.0,Español,0.0,Inglés,8.0,Italiano,20.0,3.0,3.0,yes,no,no,nada,,,,distracción en la mitad de la tarea 2 del último lenguajepor el resto nada! ,56.0,yes
165,2024-04-15_14h32.20.450,Experiment4_uns,s152,22.0,feminino,right,España,CatalàEspanyol,Bachelor degree,no,no,A,2,conjunction_syn,L3,syncopated,s1,r2,37,Online_conjL3_syn//b.ñe.sa14.0.666.wav,ñe,ko,li,sa,sil,fu,je,gu,sil1,ga,sil2,['miss'],,,0.0,beat,,,,ñe,1,,,,,,,,,,,,,,,4 ,1.0,Català,0.0,Español,0.0,Inglés,8.0,Italiano,20.0,3.0,3.0,yes,no,no,nada,,,,distracción en la mitad de la tarea 2 del último lenguajepor el resto nada! ,56.0,yes
166,2024-04-15_14h32.20.450,Experiment4_uns,s152,22.0,feminino,right,España,CatalàEspanyol,Bachelor degree,no,no,A,2,conjunction_syn,L3,syncopated,s2,r2,38,Online_conjL3_syn//b.ñe.sa13.666.1554.wav,fu,li,ka,ñe,sil,ga,le,sa,sil1,je,sil2,"['catch', 'false alarm']","[1.2191999999881773, 2.1359000000359174]",[1.2191999999881773],0.666,no_beat,0.5531999999881773,0.5531999999881773,"[""space"",""space""]",ñe,1,,,,,,,,,,,,,,,4 ,1.0,Català,0.0,Español,0.0,Inglés,8.0,Italiano,20.0,3.0,3.0,yes,no,no,nada,,,,distracción en la mitad de la tarea 2 del último lenguajepor el resto nada! ,56.0,yes
167,2024-04-15_14h32.20.450,Experiment4_uns,s152,22.0,feminino,right,España,CatalàEspanyol,Bachelor degree,no,no,A,2,conjunction_syn,L3,syncopated,s2,r1,39,Online_conjL3_syn//b.ñe.sa12.none.none.wav,ko,li,di,chu,sil,do,ga,mo,sil1,ka,sil2,['-'],,,none,none,,,,ñe,1,,,,,,,,,,,,,,,4 ,1.0,Català,0.0,Español,0.0,Inglés,8.0,Italiano,20.0,3.0,3.0,yes,no,no,nada,,,,distracción en la mitad de la tarea 2 del último lenguajepor el resto nada! ,56.0,yes
168,2024-04-15_14h32.20.450,Experiment4_uns,s152,22.0,feminino,right,España,CatalàEspanyol,Bachelor degree,no,no,A,2,conjunction_syn,L3,syncopated,s2,r2,40,Online_conjL3_syn//a.chu.mo27.none.none.wav,ji,li,ko,ñe,sil,di,fu,sa,sil1,le,sil2,['-'],,,none,none,,,,mo,2,,,,,,,,,,,,,,,4 ,1.0,Català,0.0,Español,0.0,Inglés,8.0,Italiano,20.0,3.0,3.0,yes,no,no,nada,,,,distracción en la mitad de la tarea 2 del último lenguajepor el resto nada! ,56.0,yes
169,2024-04-15_14h32.20.450,Experiment4_uns,s152,22.0,feminino,right,España,CatalàEspanyol,Bachelor degree,no,no,A,2,conjunction_syn,L3,syncopated,s2,r2,41,Online_conjL3_syn//a.chu.mo26.none.none.wav,do,ga,fu,ñe,sil,ko,di,sa,sil1,le,sil2,['-'],,,none,none,,,,mo,2,,,,,,,,,,,,,,,4 ,1.0,Català,0.0,Español,0.0,Inglés,8.0,Italiano,20.0,3.0,3.0,yes,no,no,nada,,,,distracción en la mitad de la tarea 2 del último lenguajepor el resto nada! ,56.0,yes
170,2024-04-15_14h32.20.450,Experiment4_uns,s152,22.0,feminino,right,España,CatalàEspanyol,Bachelor degree,no,no,A,2,conjunction_syn,L3,syncopated,s2,r1,42,Online_conjL3_syn//a.chu.mo24.666.1554.wav,fu,je,gu,chu,sil,ga,ka,mo,sil1,le,sil2,['catch'],[2.188000000000102],[2.188000000000102],1.554,no_beat,0.6340000000001018,0.6340000000001018,"[""space""]",mo,2,,,,,,,,,,,,,,,4 ,1.0,Català,0.0,Español,0.0,Inglés,8.0,Italiano,20.0,3.0,3.0,yes,no,no,nada,,,,distracción en la mitad de la tarea 2 del último lenguajepor el resto nada! ,56.0,yes
171,2024-04-15_14h32.20.450,Experiment4_uns,s152,22.0,feminino,right,España,CatalàEspanyol,Bachelor degree,no,no,A,2,conjunction_syn,L3,syncopated,s1,r1,43,Online_conjL3_syn//a.chu.mo25.0.666.wav,chu,gu,ko,mo,sil,do,ga,fu,sil1,li,sil2,['catch'],[1.5111999999880936],[1.5111999999880936],0.666,no_beat,0.8451999999880936,0.8451999999880936,"[""space""]",mo,2,,,,,,,,,,,,,,,4 ,1.0,Català,0.0,Español,0.0,Inglés,8.0,Italiano,20.0,3.0,3.0,yes,no,no,nada,,,,distracción en la mitad de la tarea 2 del último lenguajepor el resto nada! ,56.0,yes
172,2024-04-15_14h32.20.450,Experiment4_uns,s152,22.0,feminino,right,España,CatalàEspanyol,Bachelor degree,no,no,A,2,conjunction_syn,L3,syncopated,s1,r2,44,Online_conjL3_syn//b.ñe.sa25.0.666.wav,ñe,je,li,sa,sil,fu,le,ko,sil1,ji,sil2,['miss'],,,0.0,beat,,,,ñe,1,,,,,,,,,,,,,,,4 ,1.0,Català,0.0,Español,0.0,Inglés,8.0,Italiano,20.0,3.0,3.0,yes,no,no,nada,,,,distracción en la mitad de la tarea 2 del último lenguajepor el resto nada! ,56.0,yes
173,2024-04-15_14h32.20.450,Experiment4_uns,s152,22.0,feminino,right,España,CatalàEspanyol,Bachelor degree,no,no,A,2,conjunction_syn,L3,syncopated,s1,r1,45,Online_conjL3_syn//b.ñe.sa26.none.none.wav,chu,ko,ji,mo,sil,ka,li,do,sil1,gu,sil2,['-'],,,none,none,,,,ñe,1,,,,,,,,,,,,,,,4 ,1.0,Català,0.0,Español,0.0,Inglés,8.0,Italiano,20.0,3.0,3.0,yes,no,no,nada,,,,distracción en la mitad de la tarea 2 del último lenguajepor el resto nada! ,56.0,yes
174,2024-04-15_14h32.20.450,Experiment4_uns,s152,22.0,feminino,right,España,CatalàEspanyol,Bachelor degree,no,no,A,2,conjunction_syn,L3,syncopated,s2,r1,46,Online_conjL3_syn//b.ñe.sa24.none.none.wav,ga,di,le,chu,sil,li,ka,mo,sil1,do,sil2,['-'],,,none,none,,,,ñe,1,,,,,,,,,,,,,,,4 ,1.0,Català,0.0,Español,0.0,Inglés,8.0,Italiano,20.0,3.0,3.0,yes,no,no,nada,,,,distracción en la mitad de la tarea 2 del último lenguajepor el resto nada! ,56.0,yes
175,2024-04-15_14h32.20.450,Experiment4_uns,s152,22.0,feminino,right,España,CatalàEspanyol,Bachelor degree,no,no,A,2,conjunction_syn,L3,syncopated,s2,r1,47,Online_conjL3_syn//b.ñe.sa27.none.none.wav,ka,gu,je,chu,sil,ko,di,mo,sil1,li,sil2,['-'],,,none,none,,,,ñe,1,,,,,,,,,,,,,,,4 ,1.0,Català,0.0,Español,0.0,Inglés,8.0,Italiano,20.0,3.0,3.0,yes,no,no,nada,,,,distracción en la mitad de la tarea 2 del último lenguajepor el resto nada! ,56.0,yes
176,2024-04-15_14h32.20.450,Experiment4_uns,s152,22.0,feminino,right,España,CatalàEspanyol,Bachelor degree,no,no,A,2,conjunction_syn,L3,syncopated,s2,r2,48,Online_conjL3_syn//b.ñe.sa21.666.1554.wav,le,di,gu,ñe,sil,ga,je,sa,sil1,li,sil2,['miss'],,,0.666,no_beat,,,,ñe,1,,,,,,,,,,,,,,,4 ,1.0,Català,0.0,Español,0.0,Inglés,8.0,Italiano,20.0,3.0,3.0,yes,no,no,nada,,,,distracción en la mitad de la tarea 2 del último lenguajepor el resto nada! ,56.0,yes
177,2024-04-15_14h32.20.450,Experiment4_uns,s152,22.0,feminino,right,España,CatalàEspanyol,Bachelor degree,no,no,A,2,conjunction_syn,L3,syncopated,s1,r1,49,Online_conjL3_syn//b.ñe.sa22.none.none.wav,chu,di,li,mo,sil,le,fu,gu,sil1,je,sil2,['-'],,,none,none,,,,ñe,1,,,,,,,,,,,,,,,4 ,1.0,Català,0.0,Español,0.0,Inglés,8.0,Italiano,20.0,3.0,3.0,yes,no,no,nada,,,,distracción en la mitad de la tarea 2 del último lenguajepor el resto nada! ,56.0,yes
178,2024-04-15_14h32.20.450,Experiment4_uns,s152,22.0,feminino,right,España,CatalàEspanyol,Bachelor degree,no,no,A,2,conjunction_syn,L3,syncopated,s2,r2,50,Online_conjL3_syn//b.ñe.sa20.666.1554.wav,le,di,ka,ñe,sil,li,je,sa,sil1,ko,sil2,['catch'],[1.3284000000357992],[1.3284000000357992],0.666,no_beat,0.6624000000357991,0.6624000000357991,"[""space""]",ñe,1,,,,,,,,,,,,,,,4 ,1.0,Català,0.0,Español,0.0,Inglés,8.0,Italiano,20.0,3.0,3.0,yes,no,no,nada,,,,distracción en la mitad de la tarea 2 del último lenguajepor el resto nada! ,56.0,yes
179,2024-04-15_14h32.20.450,Experiment4_uns,s152,22.0,feminino,right,España,CatalàEspanyol,Bachelor degree,no,no,A,2,conjunction_syn,L3,syncopated,s2,r1,51,Online_conjL3_syn//b.ñe.sa23.none.none.wav,ka,le,di,chu,sil,je,gu,mo,sil1,ji,sil2,['-'],,,none,none,,,,ñe,1,,,,,,,,,,,,,,,4 ,1.0,Català,0.0,Español,0.0,Inglés,8.0,Italiano,20.0,3.0,3.0,yes,no,no,nada,,,,distracción en la mitad de la tarea 2 del último lenguajepor el resto nada! ,56.0,yes
180,2024-04-15_14h32.20.450,Experiment4_uns,s152,22.0,feminino,right,España,CatalàEspanyol,Bachelor degree,no,no,A,2,conjunction_syn,L3,syncopated,s1,r2,52,Online_conjL3_syn//b.ñe.sa9.0.666.wav,ñe,ko,je,sa,sil,fu,li,di,sil1,ji,sil2,['miss'],,,0.0,beat,,,,ñe,1,,,,,,,,,,,,,,,4 ,1.0,Català,0.0,Español,0.0,Inglés,8.0,Italiano,20.0,3.0,3.0,yes,no,no,nada,,,,distracción en la mitad de la tarea 2 del último lenguajepor el resto nada! ,56.0,yes
181,2024-04-15_14h32.20.450,Experiment4_uns,s152,22.0,feminino,right,España,CatalàEspanyol,Bachelor degree,no,no,A,2,conjunction_syn,L3,syncopated,s2,r2,53,Online_conjL3_syn//b.ñe.sa11.666.1554.wav,li,fu,ga,ñe,sil,do,ka,sa,sil1,ko,sil2,['miss'],,,0.666,no_beat,,,,ñe,1,,,,,,,,,,,,,,,4 ,1.0,Català,0.0,Español,0.0,Inglés,8.0,Italiano,20.0,3.0,3.0,yes,no,no,nada,,,,distracción en la mitad de la tarea 2 del último lenguajepor el resto nada! ,56.0,yes
182,2024-04-15_14h32.20.450,Experiment4_uns,s152,22.0,feminino,right,España,CatalàEspanyol,Bachelor degree,no,no,A,2,conjunction_syn,L3,syncopated,s1,r1,54,Online_conjL3_syn//b.ñe.sa10.none.none.wav,chu,ji,li,mo,sil,je,le,gu,sil1,do,sil2,['-'],,,none,none,,,,ñe,1,,,,,,,,,,,,,,,4 ,1.0,Català,0.0,Español,0.0,Inglés,8.0,Italiano,20.0,3.0,3.0,yes,no,no,nada,,,,distracción en la mitad de la tarea 2 del último lenguajepor el resto nada! ,56.0,yes
183,2024-04-15_14h32.20.450,Experiment4_uns,s152,22.0,feminino,right,España,CatalàEspanyol,Bachelor degree,no,no,A,2,conjunction_syn,L3,syncopated,s1,r2,55,Online_conjL3_syn//b.ñe.sa8.0.666.wav,ñe,do,di,sa,sil,je,ko,le,sil1,gu,sil2,['miss'],,,0.0,beat,,,,ñe,1,,,,,,,,,,,,,,,4 ,1.0,Català,0.0,Español,0.0,Inglés,8.0,Italiano,20.0,3.0,3.0,yes,no,no,nada,,,,distracción en la mitad de la tarea 2 del último lenguajepor el resto nada! ,56.0,yes
