Unnamed: 0,date,expName,participant,age,sex,hand,residence,native_lang,education_level,lang_deficit,aud_deficit,group,block,condition,language,rhythm,rule structure online,rule type online,order_trial_on,trial_online,s1,s2,s3,s4,s5,s6,s7,s8,s9,s10,s11,catch_syll_resp,rts_syll_catch,clean_rts,time_syll,beat_no_beat,catch_rtsTR,catch_rts,syllable_catch.keys,cond_syll,syll_to_catch,test_offline,block_off,condition_off,rhythm_off,rule,rule_str_off,rule_norule,conds_offline,language_off,Partz_no_partm.keys,Partz_no_partm.rt,security_1_7.keys,accuracy,security_1_7.rt,n_lang,n_lang_used,lang_1,age_l1,lang_2,age_l2,lang_3,age_l3,ability_learn_l2,tendence_mix_lan,music_experience,muisc_use,partiture,instr_1,age_M1,preguntas_musica1,BMRQ_answer.response,final comment,BMRQ_Score,bilingual
0,2024-04-14_19h34.19.627,Experiment4_uns,s175,33.0,masculino,right,España,Catalán,Master degree,no,no,B,1,when,L2,unsyncopated,when,when,0,Online_whenL2//a.du25.444.wav,ñu,cha,du,sil,mi,su,si,sil1,go,me,sil2,['catch'],[1.3319999999999936],[1.3319999999999936],0.444,no_beat,0.8879999999999937,0.8879999999999937,"[""space""]",du,1,testWhenL2Uns//r2.s2.0.wav,1.0,when,unsyncopated,b,s2,rule,rule,L2,m,1.7516,2.0,0.0,6.1048,3.0,2.0,Catalán,0.0,Castellano,0.0,Inglés,7 ,3.0,2.0,no,no,no,Flauta,10,1. Cuando comparto música con alguien siento una complicidad especial con aquella persona.,3.0,Nada. Todo correcto.,67.0,yes
1,2024-04-14_19h34.19.627,Experiment4_uns,s175,33.0,masculino,right,España,Catalán,Master degree,no,no,B,1,when,L2,unsyncopated,when,when,1,Online_whenL2//a.du24.222.wav,me,du,to,sil,su,te,ra,sil1,bi,ñu,sil2,['catch'],[1.0392999999970698],[1.0392999999970698],0.222,no_beat,0.8172999999970698,0.8172999999970698,"[""space""]",du,1,testWhenL2Uns//cat_viol.r1.s1.0.wav,1.0,when,unsyncopated,a,s1,no_rule,cat,L2,z,1.8725,5.0,1.0,3.8859,3.0,2.0,Catalán,0.0,Castellano,0.0,Inglés,7 ,3.0,2.0,no,no,no,Flauta,10,2. En mi tiempo libre apenas escucho música.,4.0,Nada. Todo correcto.,67.0,yes
2,2024-04-14_19h34.19.627,Experiment4_uns,s175,33.0,masculino,right,España,Catalán,Master degree,no,no,B,1,when,L2,unsyncopated,when,when,2,Online_whenL2//a.du26.none.wav,bi,ra,te,sil,ba,si,ño,sil1,go,to,sil2,['-'],,,none,none,,,,du,1,testWhenL2Uns//r2.s2.2.wav,1.0,when,unsyncopated,b,s2,rule,rule,L2,z,4.4926,3.0,1.0,3.9311,3.0,2.0,Catalán,0.0,Castellano,0.0,Inglés,7 ,3.0,2.0,no,no,no,Flauta,10,3. Algunas canciones me ponen los pelos de punta,3.0,Nada. Todo correcto.,67.0,yes
3,2024-04-14_19h34.19.627,Experiment4_uns,s175,33.0,masculino,right,España,Catalán,Master degree,no,no,B,1,when,L2,unsyncopated,when,when,3,Online_whenL2//a.du27.none.wav,su,go,bi,sil,fe,to,ño,sil1,si,te,sil2,['-'],,,none,none,,,,du,1,testWhenL2Uns//cat_viol.r2.s1.0.wav,1.0,when,unsyncopated,b,s1,no_rule,cat,L2,z,4.0424,3.0,1.0,2.0147,3.0,2.0,Catalán,0.0,Castellano,0.0,Inglés,7 ,3.0,2.0,no,no,no,Flauta,10,4. La música me hace compañía cuando estoy solo,3.0,Nada. Todo correcto.,67.0,yes
4,2024-04-14_19h34.19.627,Experiment4_uns,s175,33.0,masculino,right,España,Catalán,Master degree,no,no,B,1,when,L2,unsyncopated,when,when,4,Online_whenL2//c.cha27.none.wav,bi,fe,mi,sil,te,ra,ño,sil1,to,ñu,sil2,['-'],,,none,none,,,,cha,3,testWhenL2Uns//time_viol.r1.s1.0.wav,1.0,when,unsyncopated,a,s1,no_rule,time,L2,m,4.4715,4.0,0.0,1.9319,3.0,2.0,Catalán,0.0,Castellano,0.0,Inglés,7 ,3.0,2.0,no,no,no,Flauta,10,5. No me apetece bailar ni con la música que más me gusta,5.0,Nada. Todo correcto.,67.0,yes
5,2024-04-14_19h34.19.627,Experiment4_uns,s175,33.0,masculino,right,España,Catalán,Master degree,no,no,B,1,when,L2,unsyncopated,when,when,5,Online_whenL2//c.cha24.444.wav,me,bi,cha,sil,su,ra,ño,sil1,to,fe,sil2,['catch'],[0.8739000000059605],[0.8739000000059605],0.444,no_beat,0.4299000000059604,0.4299000000059604,"[""space""]",cha,3,testWhenL2Uns//r1.s1.0.wav,1.0,when,unsyncopated,a,s1,rule,rule,L2,m,3.0685,4.0,0.0,1.5006,3.0,2.0,Catalán,0.0,Castellano,0.0,Inglés,7 ,3.0,2.0,no,no,no,Flauta,10,6. La música me hace conectar con la gente,3.0,Nada. Todo correcto.,67.0,yes
6,2024-04-14_19h34.19.627,Experiment4_uns,s175,33.0,masculino,right,España,Catalán,Master degree,no,no,B,1,when,L2,unsyncopated,when,when,6,Online_whenL2//c.cha26.0.wav,cha,to,ra,sil,go,ñu,ba,sil1,bi,te,sil2,['catch'],[0.4867000000029975],[0.4867000000029975],0.0,beat,0.4867000000029975,0.4867000000029975,"[""space""]",cha,3,testWhenL2Uns//dep_viol.r2.s2.0.wav,1.0,when,unsyncopated,b,s2,no_rule,dep,L2,m,1.8051,4.0,0.0,3.4833,3.0,2.0,Catalán,0.0,Castellano,0.0,Inglés,7 ,3.0,2.0,no,no,no,Flauta,10,7. Me informo sobre la música que me gusta.,4.0,Nada. Todo correcto.,67.0,yes
7,2024-04-14_19h34.19.627,Experiment4_uns,s175,33.0,masculino,right,España,Catalán,Master degree,no,no,B,1,when,L2,unsyncopated,when,when,7,Online_whenL2//c.cha25.888.wav,fe,ño,su,sil,cha,te,bi,sil1,me,ra,sil2,['catch'],[1.5059999999999718],[1.5059999999999718],0.888,beat,0.6179999999999718,0.6179999999999718,"[""space""]",cha,3,testWhenL2Uns//cat_viol.r1.s2.0.wav,1.0,when,unsyncopated,a,s2,no_rule,cat,L2,z,1.5501,2.0,1.0,1.5537,3.0,2.0,Catalán,0.0,Castellano,0.0,Inglés,7 ,3.0,2.0,no,no,no,Flauta,10,8.Me emociono escuchando ciertas canciones.,4.0,Nada. Todo correcto.,67.0,yes
8,2024-04-14_19h34.19.627,Experiment4_uns,s175,33.0,masculino,right,España,Catalán,Master degree,no,no,B,1,when,L2,unsyncopated,when,when,8,Online_whenL2//b.fe13.none.wav,te,su,ra,sil,si,go,ba,sil1,me,mi,sil2,['-'],,,none,none,,,,fe,2,testWhenL2Uns//r2.s1.1.wav,1.0,when,unsyncopated,b,s1,rule,rule,L2,z,1.5376,3.0,1.0,0.9328,3.0,2.0,Catalán,0.0,Castellano,0.0,Inglés,7 ,3.0,2.0,no,no,no,Flauta,10,9.La música me tranquiliza y me relaja.,3.0,Nada. Todo correcto.,67.0,yes
9,2024-04-14_19h34.19.627,Experiment4_uns,s175,33.0,masculino,right,España,Catalán,Master degree,no,no,B,1,when,L2,unsyncopated,when,when,9,Online_whenL2//b.fe12.none.wav,su,si,te,sil,cha,go,ñu,sil1,to,du,sil2,['-'],,,none,none,,,,fe,2,testWhenL2Uns//dep_viol.r1.s2.0.wav,1.0,when,unsyncopated,a,s2,no_rule,dep,L2,z,1.6002,5.0,1.0,1.1503,3.0,2.0,Catalán,0.0,Castellano,0.0,Inglés,7 ,3.0,2.0,no,no,no,Flauta,10,10.La música me hace bailar,4.0,Nada. Todo correcto.,67.0,yes
10,2024-04-14_19h34.19.627,Experiment4_uns,s175,33.0,masculino,right,España,Catalán,Master degree,no,no,B,1,when,L2,unsyncopated,when,when,10,Online_whenL2//b.fe15.none.wav,ño,su,to,sil,du,me,go,sil1,cha,mi,sil2,['-'],,,none,none,,,,fe,2,testWhenL2Uns//time_viol.r2.s1.0.wav,1.0,when,unsyncopated,b,s1,no_rule,time,L2,z,2.0807,6.0,1.0,1.6516,3.0,2.0,Catalán,0.0,Castellano,0.0,Inglés,7 ,3.0,2.0,no,no,no,Flauta,10,11.Busco novedades musicales continuamente,4.0,Nada. Todo correcto.,67.0,yes
11,2024-04-14_19h34.19.627,Experiment4_uns,s175,33.0,masculino,right,España,Catalán,Master degree,no,no,B,1,when,L2,unsyncopated,when,when,11,Online_whenL2//b.fe14.none.wav,ra,du,ba,sil,to,bi,su,sil1,te,ñu,sil2,['-'],,,none,none,,,,fe,2,testWhenL2Uns//r1.s1.2.wav,1.0,when,unsyncopated,a,s1,rule,rule,L2,z,2.3157,2.0,1.0,0.8559,3.0,2.0,Catalán,0.0,Castellano,0.0,Inglés,7 ,3.0,2.0,no,no,no,Flauta,10,12. Puedo llorar cuando escucho algunas melodías que me gustan mucho.,4.0,Nada. Todo correcto.,67.0,yes
12,2024-04-14_19h34.19.627,Experiment4_uns,s175,33.0,masculino,right,España,Catalán,Master degree,no,no,B,1,when,L2,unsyncopated,when,when,12,Online_whenL2//a.du15.1998.wav,su,si,me,sil,ño,te,mi,sil1,go,du,sil2,['catch_delay'],[0.8814999999999065],[0.8814999999999065],1.998,no_beat,0.8814999999999065,0.8814999999999065,"[""space""]",du,1,testWhenL2Uns//r1.s2.2.wav,1.0,when,unsyncopated,a,s2,rule,rule,L2,z,1.1698,3.0,1.0,1.7004,3.0,2.0,Catalán,0.0,Castellano,0.0,Inglés,7 ,3.0,2.0,no,no,no,Flauta,10,13. Me gusta cantar o tocar un instrumento con más gente,2.0,Nada. Todo correcto.,67.0,yes
13,2024-04-14_19h34.19.627,Experiment4_uns,s175,33.0,masculino,right,España,Catalán,Master degree,no,no,B,1,when,L2,unsyncopated,when,when,13,Online_whenL2//a.du14.none.wav,ño,to,bi,sil,ra,mi,me,sil1,ba,fe,sil2,['-'],[0.21549999999990632],[0.21549999999990632],none,none,,,"[""space""]",du,1,testWhenL2Uns//r2.s2.1.wav,1.0,when,unsyncopated,b,s2,rule,rule,L2,z,1.1515,2.0,1.0,1.5753,3.0,2.0,Catalán,0.0,Castellano,0.0,Inglés,7 ,3.0,2.0,no,no,no,Flauta,10,14. La música me ayuda a desconectar.,3.0,Nada. Todo correcto.,67.0,yes
14,2024-04-14_19h34.19.627,Experiment4_uns,s175,33.0,masculino,right,España,Catalán,Master degree,no,no,B,1,when,L2,unsyncopated,when,when,14,Online_whenL2//a.du13.0.wav,du,ño,to,sil,me,ra,mi,sil1,bi,ba,sil2,['catch'],[0.6597000000028856],[0.6597000000028856],0.0,beat,0.6597000000028856,0.6597000000028856,"[""space""]",du,1,testWhenL2Uns//r2.s1.0.wav,1.0,when,unsyncopated,b,s1,rule,rule,L2,m,1.399,2.0,0.0,1.3914,3.0,2.0,Catalán,0.0,Castellano,0.0,Inglés,7 ,3.0,2.0,no,no,no,Flauta,10,15. No puedo evitar tararear las canciones que me gustan cuando las escucho.,4.0,Nada. Todo correcto.,67.0,yes
15,2024-04-14_19h34.19.627,Experiment4_uns,s175,33.0,masculino,right,España,Catalán,Master degree,no,no,B,1,when,L2,unsyncopated,when,when,15,Online_whenL2//a.du12.none.wav,si,bi,fe,sil,ño,mi,su,sil1,ra,me,sil2,['-'],,,none,none,,,,du,1,testWhenL2Uns//r2.s1.2.wav,1.0,when,unsyncopated,b,s1,rule,rule,L2,z,1.6492,6.0,1.0,2.1669,3.0,2.0,Catalán,0.0,Castellano,0.0,Inglés,7 ,3.0,2.0,no,no,no,Flauta,10,16. En los conciertos me siento en sintonía con los artistas y el público.,3.0,Nada. Todo correcto.,67.0,yes
16,2024-04-14_19h34.19.627,Experiment4_uns,s175,33.0,masculino,right,España,Catalán,Master degree,no,no,B,1,when,L2,unsyncopated,when,when,16,Online_whenL2//c.cha14.none.wav,go,te,ñu,sil,mi,bi,ba,sil1,ño,du,sil2,['-'],,,none,none,,,,cha,3,testWhenL2Uns//r1.s2.0.wav,1.0,when,unsyncopated,a,s2,rule,rule,L2,m,3.0843,6.0,0.0,1.3322,3.0,2.0,Catalán,0.0,Castellano,0.0,Inglés,7 ,3.0,2.0,no,no,no,Flauta,10,17. Me gasto bastante dinero en música y cosas relacionadas con la música.,2.0,Nada. Todo correcto.,67.0,yes
17,2024-04-14_19h34.19.627,Experiment4_uns,s175,33.0,masculino,right,España,Catalán,Master degree,no,no,B,1,when,L2,unsyncopated,when,when,17,Online_whenL2//c.cha13.888.wav,te,me,ba,sil,cha,bi,si,sil1,fe,du,sil2,['catch'],[1.3577999999970416],[1.3577999999970416],0.888,beat,0.4697999999970416,0.4697999999970416,"[""space""]",cha,3,testWhenL2Uns//cat_viol.r2.s2.0.wav,1.0,when,unsyncopated,b,s2,no_rule,cat,L2,m,2.598,5.0,0.0,2.2182,3.0,2.0,Catalán,0.0,Castellano,0.0,Inglés,7 ,3.0,2.0,no,no,no,Flauta,10,18. Siento escalofríos cuando escucho una melodía que me gusta.,3.0,Nada. Todo correcto.,67.0,yes
18,2024-04-14_19h34.19.627,Experiment4_uns,s175,33.0,masculino,right,España,Catalán,Master degree,no,no,B,1,when,L2,unsyncopated,when,when,18,Online_whenL2//c.cha15.none.wav,si,su,ñu,sil,mi,ba,ra,sil1,to,go,sil2,['-'],,,none,none,,,,cha,3,testWhenL2Uns//r1.s2.1.wav,1.0,when,unsyncopated,a,s2,rule,rule,L2,m,2.197,3.0,0.0,0.9181,3.0,2.0,Catalán,0.0,Castellano,0.0,Inglés,7 ,3.0,2.0,no,no,no,Flauta,10,19. Con la música me puedo desahogar.,3.0,Nada. Todo correcto.,67.0,yes
19,2024-04-14_19h34.19.627,Experiment4_uns,s175,33.0,masculino,right,España,Catalán,Master degree,no,no,B,1,when,L2,unsyncopated,when,when,19,Online_whenL2//c.cha12.444.wav,du,ba,cha,sil,te,bi,ño,sil1,ñu,fe,sil2,['catch'],[0.924700000002872],[0.924700000002872],0.444,no_beat,0.480700000002872,0.480700000002872,"[""space""]",cha,3,testWhenL2Uns//time_viol.r1.s2.0.wav,1.0,when,unsyncopated,a,s2,no_rule,time,L2,z,1.0156,4.0,1.0,2.0673,3.0,2.0,Catalán,0.0,Castellano,0.0,Inglés,7 ,3.0,2.0,no,no,no,Flauta,10,20. Cuando escucho una melodía que me gusta mucho no puedo evitar mover el cuerpo.,3.0,Nada. Todo correcto.,67.0,yes
20,2024-04-14_19h34.19.627,Experiment4_uns,s175,33.0,masculino,right,España,Catalán,Master degree,no,no,B,1,when,L2,unsyncopated,when,when,20,Online_whenL2//b.fe0.none.wav,te,go,to,sil,si,ra,ño,sil1,cha,su,sil2,['-'],,,none,none,,,,fe,2,testWhenL2Uns//time_viol.r2.s2.0.wav,1.0,when,unsyncopated,b,s2,no_rule,time,L2,z,1.0376,3.0,1.0,1.5138,3.0,2.0,Catalán,0.0,Castellano,0.0,Inglés,7 ,3.0,2.0,no,no,no,Flauta,10,,,Nada. Todo correcto.,67.0,yes
21,2024-04-14_19h34.19.627,Experiment4_uns,s175,33.0,masculino,right,España,Catalán,Master degree,no,no,B,1,when,L2,unsyncopated,when,when,21,Online_whenL2//b.fe2.1332.wav,ñu,bi,mi,sil,ra,cha,fe,sil1,ba,si,sil2,['catch'],[1.8878999999910775],[1.8878999999910775],1.332,no_beat,0.5558999999910774,0.5558999999910774,"[""space""]",fe,2,testWhenL2Uns//dep_viol.r1.s1.0.wav,1.0,when,unsyncopated,a,s1,no_rule,dep,L2,m,2.1153,3.0,0.0,1.2418,3.0,2.0,Catalán,0.0,Castellano,0.0,Inglés,7 ,3.0,2.0,no,no,no,Flauta,10,,,Nada. Todo correcto.,67.0,yes
22,2024-04-14_19h34.19.627,Experiment4_uns,s175,33.0,masculino,right,España,Catalán,Master degree,no,no,B,1,when,L2,unsyncopated,when,when,22,Online_whenL2//b.fe1.none.wav,du,te,ba,sil,ra,mi,cha,sil1,ñu,to,sil2,['-'],,,none,none,,,,fe,2,testWhenL2Uns//dep_viol.r2.s1.0.wav,1.0,when,unsyncopated,b,s1,no_rule,dep,L2,m,1.3504,2.0,0.0,0.9814,3.0,2.0,Catalán,0.0,Castellano,0.0,Inglés,7 ,3.0,2.0,no,no,no,Flauta,10,,,Nada. Todo correcto.,67.0,yes
23,2024-04-14_19h34.19.627,Experiment4_uns,s175,33.0,masculino,right,España,Catalán,Master degree,no,no,B,1,when,L2,unsyncopated,when,when,23,Online_whenL2//b.fe3.1110.wav,me,mi,ñu,sil,bi,fe,si,sil1,to,go,sil2,['catch'],[2.1025000000000773],[2.1025000000000773],1.11,no_beat,0.9925000000000772,0.9925000000000772,"[""space""]",fe,2,testWhenL2Uns//r1.s1.1.wav,1.0,when,unsyncopated,a,s1,rule,rule,L2,z,2.5194,4.0,1.0,1.0172,3.0,2.0,Catalán,0.0,Castellano,0.0,Inglés,7 ,3.0,2.0,no,no,no,Flauta,10,,,Nada. Todo correcto.,67.0,yes
24,2024-04-14_19h34.19.627,Experiment4_uns,s175,33.0,masculino,right,España,Catalán,Master degree,no,no,B,1,when,L2,unsyncopated,when,when,24,Online_whenL2//d.si26.none.wav,ra,ño,cha,sil,to,su,bi,sil1,ñu,fe,sil2,['false alarm'],[0.7647000000030175],[0.7647000000030175],none,none,,,"[""space""]",si,4,testConjL3Syn//dep_viol.r1.s2.0.wav,2.0,conjunction_syn,syncopated,a,s2,no_rule,dep,L3,z,2.3067,5.0,0.0,4.2877,3.0,2.0,Catalán,0.0,Castellano,0.0,Inglés,7 ,3.0,2.0,no,no,no,Flauta,10,,,Nada. Todo correcto.,67.0,yes
25,2024-04-14_19h34.19.627,Experiment4_uns,s175,33.0,masculino,right,España,Catalán,Master degree,no,no,B,1,when,L2,unsyncopated,when,when,25,Online_whenL2//d.si27.1110.wav,fe,te,ñu,sil,ño,si,mi,sil1,me,go,sil2,['catch'],[1.6528999999910639],[1.6528999999910639],1.11,no_beat,0.5428999999910638,0.5428999999910638,"[""space""]",si,4,testConjL3Syn//r1.s1.0.wav,2.0,conjunction_syn,syncopated,a,s1,rule,rule,L3,m,4.1696,2.0,0.0,1.1657,3.0,2.0,Catalán,0.0,Castellano,0.0,Inglés,7 ,3.0,2.0,no,no,no,Flauta,10,,,Nada. Todo correcto.,67.0,yes
26,2024-04-14_19h34.19.627,Experiment4_uns,s175,33.0,masculino,right,España,Catalán,Master degree,no,no,B,1,when,L2,unsyncopated,when,when,26,Online_whenL2//d.si24.1332.wav,me,du,bi,sil,ñu,cha,si,sil1,ra,su,sil2,['catch'],[1.836999999999989],[1.836999999999989],1.332,no_beat,0.504999999999989,0.504999999999989,"[""space""]",si,4,testConjL3Syn//cat_viol.r1.s2.0.wav,2.0,conjunction_syn,syncopated,a,s2,no_rule,cat,L3,z,3.4553,5.0,0.0,2.2987,3.0,2.0,Catalán,0.0,Castellano,0.0,Inglés,7 ,3.0,2.0,no,no,no,Flauta,10,,,Nada. Todo correcto.,67.0,yes
27,2024-04-14_19h34.19.627,Experiment4_uns,s175,33.0,masculino,right,España,Catalán,Master degree,no,no,B,1,when,L2,unsyncopated,when,when,27,Online_whenL2//d.si25.none.wav,ño,ra,me,sil,to,go,te,sil1,su,mi,sil2,['-'],,,none,none,,,,si,4,testConjL3Syn//cat_viol.r2.s1.0.wav,2.0,conjunction_syn,syncopated,b,s1,no_rule,cat,L3,m,1.6881,2.0,1.0,0.95,3.0,2.0,Catalán,0.0,Castellano,0.0,Inglés,7 ,3.0,2.0,no,no,no,Flauta,10,,,Nada. Todo correcto.,67.0,yes
28,2024-04-14_19h34.19.627,Experiment4_uns,s175,33.0,masculino,right,España,Catalán,Master degree,no,no,B,1,when,L2,unsyncopated,when,when,28,Online_whenL2//d.si10.none.wav,to,bi,fe,sil,me,mi,ra,sil1,ba,cha,sil2,['-'],,,none,none,,,,si,4,testConjL3Syn//time_viol.r2.s2.0.wav,2.0,conjunction_syn,syncopated,b,s2,no_rule,time,L3,m,1.5074,3.0,1.0,2.4745,3.0,2.0,Catalán,0.0,Castellano,0.0,Inglés,7 ,3.0,2.0,no,no,no,Flauta,10,,,Nada. Todo correcto.,67.0,yes
29,2024-04-14_19h34.19.627,Experiment4_uns,s175,33.0,masculino,right,España,Catalán,Master degree,no,no,B,1,when,L2,unsyncopated,when,when,29,Online_whenL2//d.si9.none.wav,du,su,to,sil,ba,ra,mi,sil1,te,ño,sil2,['-'],,,none,none,,,,si,4,testConjL3Syn//r2.s2.1.wav,2.0,conjunction_syn,syncopated,b,s2,rule,rule,L3,z,2.6685,2.0,1.0,1.099,3.0,2.0,Catalán,0.0,Castellano,0.0,Inglés,7 ,3.0,2.0,no,no,no,Flauta,10,,,Nada. Todo correcto.,67.0,yes
30,2024-04-14_19h34.19.627,Experiment4_uns,s175,33.0,masculino,right,España,Catalán,Master degree,no,no,B,1,when,L2,unsyncopated,when,when,30,Online_whenL2//d.si11.none.wav,to,mi,me,sil,ra,ñu,cha,sil1,su,du,sil2,['-'],,,none,none,,,,si,4,testConjL3Syn//time_viol.r1.s2.0.wav,2.0,conjunction_syn,syncopated,a,s2,no_rule,time,L3,m,1.7484,2.0,1.0,0.5006,3.0,2.0,Catalán,0.0,Castellano,0.0,Inglés,7 ,3.0,2.0,no,no,no,Flauta,10,,,Nada. Todo correcto.,67.0,yes
31,2024-04-14_19h34.19.627,Experiment4_uns,s175,33.0,masculino,right,España,Catalán,Master degree,no,no,B,1,when,L2,unsyncopated,when,when,31,Online_whenL2//d.si8.none.wav,ñu,su,fe,sil,ra,ño,me,sil1,cha,mi,sil2,['-'],,,none,none,,,,si,4,testConjL3Syn//r1.s1.1.wav,2.0,conjunction_syn,syncopated,a,s1,rule,rule,L3,z,1.7213,3.0,1.0,1.316,3.0,2.0,Catalán,0.0,Castellano,0.0,Inglés,7 ,3.0,2.0,no,no,no,Flauta,10,,,Nada. Todo correcto.,67.0,yes
32,2024-04-14_19h34.19.627,Experiment4_uns,s175,33.0,masculino,right,España,Catalán,Master degree,no,no,B,1,when,L2,unsyncopated,when,when,32,Online_whenL2//b.fe8.none.wav,su,to,go,sil,mi,ra,si,sil1,ba,ñu,sil2,['-'],,,none,none,,,,fe,2,testConjL3Syn//r2.s1.0.wav,2.0,conjunction_syn,syncopated,b,s1,rule,rule,L3,m,1.3173,2.0,0.0,4.799,3.0,2.0,Catalán,0.0,Castellano,0.0,Inglés,7 ,3.0,2.0,no,no,no,Flauta,10,,,Nada. Todo correcto.,67.0,yes
33,2024-04-14_19h34.19.627,Experiment4_uns,s175,33.0,masculino,right,España,Catalán,Master degree,no,no,B,1,when,L2,unsyncopated,when,when,33,Online_whenL2//b.fe11.1332.wav,ba,bi,go,sil,su,mi,fe,sil1,si,me,sil2,['catch'],[1.9379999999999882],[1.9379999999999882],1.332,no_beat,0.6059999999999881,0.6059999999999881,"[""space""]",fe,2,testConjL3Syn//r2.s2.0.wav,2.0,conjunction_syn,syncopated,b,s2,rule,rule,L3,z,5.9505,6.0,1.0,1.75,3.0,2.0,Catalán,0.0,Castellano,0.0,Inglés,7 ,3.0,2.0,no,no,no,Flauta,10,,,Nada. Todo correcto.,67.0,yes
34,2024-04-14_19h34.19.627,Experiment4_uns,s175,33.0,masculino,right,España,Catalán,Master degree,no,no,B,1,when,L2,unsyncopated,when,when,34,Online_whenL2//b.fe9.none.wav,du,ñu,su,sil,te,to,go,sil1,ño,me,sil2,['-'],,,none,none,,,,fe,2,testConjL3Syn//r2.s1.2.wav,2.0,conjunction_syn,syncopated,b,s1,rule,rule,L3,m,1.6589,2.0,0.0,4.0173,3.0,2.0,Catalán,0.0,Castellano,0.0,Inglés,7 ,3.0,2.0,no,no,no,Flauta,10,,,Nada. Todo correcto.,67.0,yes
35,2024-04-14_19h34.19.627,Experiment4_uns,s175,33.0,masculino,right,España,Catalán,Master degree,no,no,B,1,when,L2,unsyncopated,when,when,35,Online_whenL2//b.fe10.none.wav,to,du,su,sil,mi,ño,ba,sil1,bi,ra,sil2,['-'],,,none,none,,,,fe,2,testConjL3Syn//dep_viol.r1.s1.0.wav,2.0,conjunction_syn,syncopated,a,s1,no_rule,dep,L3,m,1.4841,2.0,1.0,1.1321,3.0,2.0,Catalán,0.0,Castellano,0.0,Inglés,7 ,3.0,2.0,no,no,no,Flauta,10,,,Nada. Todo correcto.,67.0,yes
36,2024-04-14_19h34.19.627,Experiment4_uns,s175,33.0,masculino,right,España,Catalán,Master degree,no,no,B,1,when,L2,unsyncopated,when,when,36,Online_whenL2//c.cha10.444.wav,mi,su,cha,sil,si,me,go,sil1,ra,ñu,sil2,['catch'],[0.8983999999910566],[0.8983999999910566],0.444,no_beat,0.4543999999910565,0.4543999999910565,"[""space""]",cha,3,testConjL3Syn//r1.s2.1.wav,2.0,conjunction_syn,syncopated,a,s2,rule,rule,L3,z,3.6739,2.0,1.0,1.2005,3.0,2.0,Catalán,0.0,Castellano,0.0,Inglés,7 ,3.0,2.0,no,no,no,Flauta,10,,,Nada. Todo correcto.,67.0,yes
37,2024-04-14_19h34.19.627,Experiment4_uns,s175,33.0,masculino,right,España,Catalán,Master degree,no,no,B,1,when,L2,unsyncopated,when,when,37,Online_whenL2//c.cha9.none.wav,go,ba,ñu,sil,bi,fe,to,sil1,mi,ño,sil2,['-'],,,none,none,,,,cha,3,testConjL3Syn//cat_viol.r2.s2.0.wav,2.0,conjunction_syn,syncopated,b,s2,no_rule,cat,L3,z,3.482,3.0,0.0,2.2266,3.0,2.0,Catalán,0.0,Castellano,0.0,Inglés,7 ,3.0,2.0,no,no,no,Flauta,10,,,Nada. Todo correcto.,67.0,yes
38,2024-04-14_19h34.19.627,Experiment4_uns,s175,33.0,masculino,right,España,Catalán,Master degree,no,no,B,1,when,L2,unsyncopated,when,when,38,Online_whenL2//c.cha11.1998.wav,bi,te,ra,sil,si,su,ñu,sil1,go,cha,sil2,['catch'],[2.457600000008938],[2.457600000008938],1.998,no_beat,0.4596000000089379,0.4596000000089379,"[""space""]",cha,3,testConjL3Syn//dep_viol.r2.s2.0.wav,2.0,conjunction_syn,syncopated,b,s2,no_rule,dep,L3,m,1.1041,2.0,1.0,0.9881,3.0,2.0,Catalán,0.0,Castellano,0.0,Inglés,7 ,3.0,2.0,no,no,no,Flauta,10,,,Nada. Todo correcto.,67.0,yes
39,2024-04-14_19h34.19.627,Experiment4_uns,s175,33.0,masculino,right,España,Catalán,Master degree,no,no,B,1,when,L2,unsyncopated,when,when,39,Online_whenL2//c.cha8.none.wav,mi,si,to,sil,ra,ba,ño,sil1,du,su,sil2,['-'],,,none,none,,,,cha,3,testConjL3Syn//time_viol.r1.s1.0.wav,2.0,conjunction_syn,syncopated,a,s1,no_rule,time,L3,m,1.4318,2.0,1.0,1.1316,3.0,2.0,Catalán,0.0,Castellano,0.0,Inglés,7 ,3.0,2.0,no,no,no,Flauta,10,,,Nada. Todo correcto.,67.0,yes
40,2024-04-14_19h34.19.627,Experiment4_uns,s175,33.0,masculino,right,España,Catalán,Master degree,no,no,B,1,when,L2,unsyncopated,when,when,40,Online_whenL2//d.si6.1776.wav,te,cha,du,sil,fe,ño,me,sil1,si,bi,sil2,['catch'],[2.1982999999970616],[2.1982999999970616],1.776,beat,0.4222999999970616,0.4222999999970616,"[""space""]",si,4,testConjL3Syn//r2.s2.2.wav,2.0,conjunction_syn,syncopated,b,s2,rule,rule,L3,m,1.3668,2.0,0.0,0.6321,3.0,2.0,Catalán,0.0,Castellano,0.0,Inglés,7 ,3.0,2.0,no,no,no,Flauta,10,,,Nada. Todo correcto.,67.0,yes
41,2024-04-14_19h34.19.627,Experiment4_uns,s175,33.0,masculino,right,España,Catalán,Master degree,no,no,B,1,when,L2,unsyncopated,when,when,41,Online_whenL2//d.si5.1332.wav,to,fe,ra,sil,me,cha,si,sil1,su,te,sil2,['catch'],[1.9772000000029948],[1.9772000000029948],1.332,no_beat,0.6452000000029947,0.6452000000029947,"[""space""]",si,4,testConjL3Syn//r1.s2.0.wav,2.0,conjunction_syn,syncopated,a,s2,rule,rule,L3,z,1.599,2.0,1.0,1.2243,3.0,2.0,Catalán,0.0,Castellano,0.0,Inglés,7 ,3.0,2.0,no,no,no,Flauta,10,,,Nada. Todo correcto.,67.0,yes
42,2024-04-14_19h34.19.627,Experiment4_uns,s175,33.0,masculino,right,España,Catalán,Master degree,no,no,B,1,when,L2,unsyncopated,when,when,42,Online_whenL2//d.si4.444.wav,to,ra,si,sil,me,ñu,go,sil1,ño,mi,sil2,['miss'],,,0.444,no_beat,,,,si,4,testConjL3Syn//cat_viol.r1.s1.0.wav,2.0,conjunction_syn,syncopated,a,s1,no_rule,cat,L3,m,1.815,3.0,1.0,3.9671,3.0,2.0,Catalán,0.0,Castellano,0.0,Inglés,7 ,3.0,2.0,no,no,no,Flauta,10,,,Nada. Todo correcto.,67.0,yes
43,2024-04-14_19h34.19.627,Experiment4_uns,s175,33.0,masculino,right,España,Catalán,Master degree,no,no,B,1,when,L2,unsyncopated,when,when,43,Online_whenL2//d.si7.none.wav,go,cha,te,sil,fe,ñu,ba,sil1,mi,to,sil2,['-'],,,none,none,,,,si,4,testConjL3Syn//dep_viol.r2.s1.0.wav,2.0,conjunction_syn,syncopated,b,s1,no_rule,dep,L3,z,1.7418,2.0,0.0,0.5,3.0,2.0,Catalán,0.0,Castellano,0.0,Inglés,7 ,3.0,2.0,no,no,no,Flauta,10,,,Nada. Todo correcto.,67.0,yes
44,2024-04-14_19h34.19.627,Experiment4_uns,s175,33.0,masculino,right,España,Catalán,Master degree,no,no,B,1,when,L2,unsyncopated,when,when,44,Online_whenL2//c.cha23.none.wav,me,ba,fe,sil,ño,ñu,mi,sil1,go,te,sil2,['-'],,,none,none,,,,cha,3,testConjL3Syn//r2.s1.1.wav,2.0,conjunction_syn,syncopated,b,s1,rule,rule,L3,z,1.8172,3.0,1.0,1.0182,3.0,2.0,Catalán,0.0,Castellano,0.0,Inglés,7 ,3.0,2.0,no,no,no,Flauta,10,,,Nada. Todo correcto.,67.0,yes
45,2024-04-14_19h34.19.627,Experiment4_uns,s175,33.0,masculino,right,España,Catalán,Master degree,no,no,B,1,when,L2,unsyncopated,when,when,45,Online_whenL2//c.cha20.none.wav,fe,ño,mi,sil,ra,su,ba,sil1,ñu,to,sil2,['-'],,,none,none,,,,cha,3,testConjL3Syn//r1.s2.2.wav,2.0,conjunction_syn,syncopated,a,s2,rule,rule,L3,m,2.5698,2.0,0.0,1.0051,3.0,2.0,Catalán,0.0,Castellano,0.0,Inglés,7 ,3.0,2.0,no,no,no,Flauta,10,,,Nada. Todo correcto.,67.0,yes
46,2024-04-14_19h34.19.627,Experiment4_uns,s175,33.0,masculino,right,España,Catalán,Master degree,no,no,B,1,when,L2,unsyncopated,when,when,46,Online_whenL2//c.cha21.1998.wav,si,du,ñu,sil,mi,go,to,sil1,ño,cha,sil2,['catch'],[2.47300000000007],[2.47300000000007],1.998,no_beat,0.47500000000007,0.47500000000007,"[""space""]",cha,3,testConjL3Syn//r1.s1.2.wav,2.0,conjunction_syn,syncopated,a,s1,rule,rule,L3,z,4.6161,4.0,1.0,2.0501,3.0,2.0,Catalán,0.0,Castellano,0.0,Inglés,7 ,3.0,2.0,no,no,no,Flauta,10,,,Nada. Todo correcto.,67.0,yes
47,2024-04-14_19h34.19.627,Experiment4_uns,s175,33.0,masculino,right,España,Catalán,Master degree,no,no,B,1,when,L2,unsyncopated,when,when,47,Online_whenL2//c.cha22.none.wav,ra,to,mi,sil,bi,te,ba,sil1,fe,ñu,sil2,['-'],,,none,none,,,,cha,3,testConjL3Syn//time_viol.r2.s1.0.wav,2.0,conjunction_syn,syncopated,b,s1,no_rule,time,L3,m,1.1987,1.0,1.0,2.1409,3.0,2.0,Catalán,0.0,Castellano,0.0,Inglés,7 ,3.0,2.0,no,no,no,Flauta,10,,,Nada. Todo correcto.,67.0,yes
48,2024-04-14_19h34.19.627,Experiment4_uns,s175,33.0,masculino,right,España,Catalán,Master degree,no,no,B,1,when,L2,unsyncopated,when,when,48,Online_whenL2//c.cha0.1332.wav,mi,ñu,bi,sil,fe,to,cha,sil1,ra,su,sil2,['catch'],[1.983100000009017],[1.983100000009017],1.332,no_beat,0.651100000009017,0.651100000009017,"[""space""]",cha,3,testWhatL1Uns//r1.s2.1.wav,3.0,what,unsyncopated,a,s2,rule,rule,L1,m,1.4076,2.0,0.0,1.9034,3.0,2.0,Catalán,0.0,Castellano,0.0,Inglés,7 ,3.0,2.0,no,no,no,Flauta,10,,,Nada. Todo correcto.,67.0,yes
49,2024-04-14_19h34.19.627,Experiment4_uns,s175,33.0,masculino,right,España,Catalán,Master degree,no,no,B,1,when,L2,unsyncopated,when,when,49,Online_whenL2//c.cha3.1998.wav,te,to,bi,sil,du,ra,ño,sil1,su,cha,sil2,['catch'],[2.578999999999951],[2.578999999999951],1.998,no_beat,0.5809999999999509,0.5809999999999509,"[""space""]",cha,3,testWhatL1Uns//time_viol.r1.s2.0.wav,3.0,what,unsyncopated,a,s2,no_rule,time,L1,m,1.3016,6.0,1.0,0.8744,3.0,2.0,Catalán,0.0,Castellano,0.0,Inglés,7 ,3.0,2.0,no,no,no,Flauta,10,,,Nada. Todo correcto.,67.0,yes
50,2024-04-14_19h34.19.627,Experiment4_uns,s175,33.0,masculino,right,España,Catalán,Master degree,no,no,B,1,when,L2,unsyncopated,when,when,50,Online_whenL2//c.cha1.1332.wav,bi,ba,te,sil,me,ñu,cha,sil1,go,fe,sil2,['catch'],[2.045099999994136],[2.045099999994136],1.332,no_beat,0.7130999999941359,0.7130999999941359,"[""space""]",cha,3,testWhatL1Uns//r2.s1.1.wav,3.0,what,unsyncopated,b,s1,rule,rule,L1,z,2.7194,4.0,1.0,1.4839,3.0,2.0,Catalán,0.0,Castellano,0.0,Inglés,7 ,3.0,2.0,no,no,no,Flauta,10,,,Nada. Todo correcto.,67.0,yes
51,2024-04-14_19h34.19.627,Experiment4_uns,s175,33.0,masculino,right,España,Catalán,Master degree,no,no,B,1,when,L2,unsyncopated,when,when,51,Online_whenL2//c.cha2.none.wav,si,me,ra,sil,bi,te,ño,sil1,go,to,sil2,['-'],,,none,none,,,,cha,3,testWhatL1Uns//dep_viol.r1.s1.0.wav,3.0,what,unsyncopated,a,s1,no_rule,dep,L1,z,2.4216,2.0,0.0,0.7521,3.0,2.0,Catalán,0.0,Castellano,0.0,Inglés,7 ,3.0,2.0,no,no,no,Flauta,10,,,Nada. Todo correcto.,67.0,yes
52,2024-04-14_19h34.19.627,Experiment4_uns,s175,33.0,masculino,right,España,Catalán,Master degree,no,no,B,1,when,L2,unsyncopated,when,when,52,Online_whenL2//a.du0.888.wav,ñu,ba,ra,sil,du,su,ño,sil1,cha,te,sil2,['catch'],[1.3985999999939622],[1.3985999999939622],0.888,beat,0.5105999999939622,0.5105999999939622,"[""space""]",du,1,testWhatL1Uns//time_viol.r2.s2.0.wav,3.0,what,unsyncopated,b,s2,no_rule,time,L1,z,2.0002,4.0,0.0,1.2355,3.0,2.0,Catalán,0.0,Castellano,0.0,Inglés,7 ,3.0,2.0,no,no,no,Flauta,10,,,Nada. Todo correcto.,67.0,yes
53,2024-04-14_19h34.19.627,Experiment4_uns,s175,33.0,masculino,right,España,Catalán,Master degree,no,no,B,1,when,L2,unsyncopated,when,when,53,Online_whenL2//a.du1.none.wav,bi,si,fe,sil,mi,ra,ba,sil1,su,me,sil2,['-'],,,none,none,,,,du,1,testWhatL1Uns//time_viol.r1.s1.0.wav,3.0,what,unsyncopated,a,s1,no_rule,time,L1,z,1.4335,3.0,0.0,0.6889,3.0,2.0,Catalán,0.0,Castellano,0.0,Inglés,7 ,3.0,2.0,no,no,no,Flauta,10,,,Nada. Todo correcto.,67.0,yes
54,2024-04-14_19h34.19.627,Experiment4_uns,s175,33.0,masculino,right,España,Catalán,Master degree,no,no,B,1,when,L2,unsyncopated,when,when,54,Online_whenL2//a.du2.0.wav,du,me,si,sil,mi,to,go,sil1,cha,bi,sil2,['catch'],[0.4752999999969916],[0.4752999999969916],0.0,beat,0.4752999999969916,0.4752999999969916,"[""space""]",du,1,testWhatL1Uns//r1.s1.0.wav,3.0,what,unsyncopated,a,s1,rule,rule,L1,z,2.4157,6.0,1.0,1.1397,3.0,2.0,Catalán,0.0,Castellano,0.0,Inglés,7 ,3.0,2.0,no,no,no,Flauta,10,,,Nada. Todo correcto.,67.0,yes
55,2024-04-14_19h34.19.627,Experiment4_uns,s175,33.0,masculino,right,España,Catalán,Master degree,no,no,B,1,when,L2,unsyncopated,when,when,55,Online_whenL2//a.du3.none.wav,me,mi,te,sil,cha,go,ñu,sil1,fe,si,sil2,['-'],,,none,none,,,,du,1,testWhatL1Uns//r2.s2.2.wav,3.0,what,unsyncopated,b,s2,rule,rule,L1,z,1.3821,2.0,1.0,1.4333,3.0,2.0,Catalán,0.0,Castellano,0.0,Inglés,7 ,3.0,2.0,no,no,no,Flauta,10,,,Nada. Todo correcto.,67.0,yes
56,2024-04-14_19h34.19.627,Experiment4_uns,s175,33.0,masculino,right,España,Catalán,Master degree,no,no,B,1,when,L2,unsyncopated,when,when,56,Online_whenL2//a.du31.222.wav,ba,du,go,sil,to,si,cha,sil1,mi,bi,sil2,['catch'],[1.0420999999939795],[1.0420999999939795],0.222,no_beat,0.8200999999939795,0.8200999999939795,"[""space""]",du,1,testWhatL1Uns//cat_viol.r1.s1.0.wav,3.0,what,unsyncopated,a,s1,no_rule,cat,L1,m,1.8175,2.0,1.0,2.3341,3.0,2.0,Catalán,0.0,Castellano,0.0,Inglés,7 ,3.0,2.0,no,no,no,Flauta,10,,,Nada. Todo correcto.,67.0,yes
57,2024-04-14_19h34.19.627,Experiment4_uns,s175,33.0,masculino,right,España,Catalán,Master degree,no,no,B,1,when,L2,unsyncopated,when,when,57,Online_whenL2//a.du28.none.wav,ño,te,to,sil,go,ba,ra,sil1,su,bi,sil2,['-'],,,none,none,,,,du,1,testWhatL1Uns//r2.s1.0.wav,3.0,what,unsyncopated,b,s1,rule,rule,L1,z,1.1761,3.0,1.0,0.8158,3.0,2.0,Catalán,0.0,Castellano,0.0,Inglés,7 ,3.0,2.0,no,no,no,Flauta,10,,,Nada. Todo correcto.,67.0,yes
58,2024-04-14_19h34.19.627,Experiment4_uns,s175,33.0,masculino,right,España,Catalán,Master degree,no,no,B,1,when,L2,unsyncopated,when,when,58,Online_whenL2//a.du30.none.wav,fe,bi,to,sil,cha,su,ra,sil1,ño,ba,sil2,['-'],,,none,none,,,,du,1,testWhatL1Uns//r1.s2.0.wav,3.0,what,unsyncopated,a,s2,rule,rule,L1,m,1.592,2.0,0.0,1.6503,3.0,2.0,Catalán,0.0,Castellano,0.0,Inglés,7 ,3.0,2.0,no,no,no,Flauta,10,,,Nada. Todo correcto.,67.0,yes
59,2024-04-14_19h34.19.627,Experiment4_uns,s175,33.0,masculino,right,España,Catalán,Master degree,no,no,B,1,when,L2,unsyncopated,when,when,59,Online_whenL2//a.du29.1998.wav,ra,ño,su,sil,bi,si,mi,sil1,me,du,sil2,['miss'],,,1.998,no_beat,,,,du,1,testWhatL1Uns//r2.s1.2.wav,3.0,what,unsyncopated,b,s1,rule,rule,L1,z,3.1997,7.0,1.0,1.9503,3.0,2.0,Catalán,0.0,Castellano,0.0,Inglés,7 ,3.0,2.0,no,no,no,Flauta,10,,,Nada. Todo correcto.,67.0,yes
60,2024-04-14_19h34.19.627,Experiment4_uns,s175,33.0,masculino,right,España,Catalán,Master degree,no,no,B,1,when,L2,unsyncopated,when,when,60,Online_whenL2//b.fe35.1998.wav,ra,su,si,sil,to,ba,bi,sil1,me,fe,sil2,['catch'],[2.5174999999999272],[2.5174999999999272],1.998,no_beat,0.5194999999999272,0.5194999999999272,"[""space""]",fe,2,testWhatL1Uns//r1.s1.1.wav,3.0,what,unsyncopated,a,s1,rule,rule,L1,z,1.8824,2.0,1.0,1.3874,3.0,2.0,Catalán,0.0,Castellano,0.0,Inglés,7 ,3.0,2.0,no,no,no,Flauta,10,,,Nada. Todo correcto.,67.0,yes
61,2024-04-14_19h34.19.627,Experiment4_uns,s175,33.0,masculino,right,España,Catalán,Master degree,no,no,B,1,when,L2,unsyncopated,when,when,61,Online_whenL2//b.fe32.222.wav,ño,fe,te,sil,ñu,bi,su,sil1,mi,go,sil2,['catch'],[1.1539999999999964],[1.1539999999999964],0.222,no_beat,0.9319999999999964,0.9319999999999964,"[""space""]",fe,2,testWhatL1Uns//r1.s2.2.wav,3.0,what,unsyncopated,a,s2,rule,rule,L1,m,2.415,2.0,0.0,2.1181,3.0,2.0,Catalán,0.0,Castellano,0.0,Inglés,7 ,3.0,2.0,no,no,no,Flauta,10,,,Nada. Todo correcto.,67.0,yes
62,2024-04-14_19h34.19.627,Experiment4_uns,s175,33.0,masculino,right,España,Catalán,Master degree,no,no,B,1,when,L2,unsyncopated,when,when,62,Online_whenL2//b.fe33.none.wav,to,du,mi,sil,go,te,ñu,sil1,bi,me,sil2,['-'],,,none,none,,,,fe,2,testWhatL1Uns//dep_viol.r2.s2.0.wav,3.0,what,unsyncopated,b,s2,no_rule,dep,L1,z,1.5374,2.0,0.0,1.6694,3.0,2.0,Catalán,0.0,Castellano,0.0,Inglés,7 ,3.0,2.0,no,no,no,Flauta,10,,,Nada. Todo correcto.,67.0,yes
63,2024-04-14_19h34.19.627,Experiment4_uns,s175,33.0,masculino,right,España,Catalán,Master degree,no,no,B,1,when,L2,unsyncopated,when,when,63,Online_whenL2//b.fe34.1776.wav,si,go,mi,sil,ba,ñu,me,sil1,fe,ño,sil2,['catch_delay'],[0.9509999999999883],[0.9509999999999883],1.776,beat,0.9509999999999884,0.9509999999999884,,fe,2,testWhatL1Uns//cat_viol.r2.s1.0.wav,3.0,what,unsyncopated,b,s1,no_rule,cat,L1,m,2.5573,5.0,1.0,3.0714,3.0,2.0,Catalán,0.0,Castellano,0.0,Inglés,7 ,3.0,2.0,no,no,no,Flauta,10,,,Nada. Todo correcto.,67.0,yes
64,2024-04-14_19h34.19.627,Experiment4_uns,s175,33.0,masculino,right,España,Catalán,Master degree,no,no,B,1,when,L2,unsyncopated,when,when,64,Online_whenL2//d.si13.444.wav,go,ñu,si,sil,bi,to,ño,sil1,fe,mi,sil2,['catch'],"[0.06299999999998818, 1.1169000000058986]",[1.1169000000058986],0.444,no_beat,0.6729000000058987,0.6729000000058987,"[""space"",""space""]",si,4,testWhatL1Uns//r2.s2.1.wav,3.0,what,unsyncopated,b,s2,rule,rule,L1,z,1.8021,2.0,1.0,1.4321,3.0,2.0,Catalán,0.0,Castellano,0.0,Inglés,7 ,3.0,2.0,no,no,no,Flauta,10,,,Nada. Todo correcto.,67.0,yes
65,2024-04-14_19h34.19.627,Experiment4_uns,s175,33.0,masculino,right,España,Catalán,Master degree,no,no,B,1,when,L2,unsyncopated,when,when,65,Online_whenL2//d.si12.1776.wav,mi,du,to,sil,go,ño,bi,sil1,si,cha,sil2,['catch'],[2.6317999999970425],[2.6317999999970425],1.776,beat,0.8557999999970425,0.8557999999970425,"[""space""]",si,4,testWhatL1Uns//cat_viol.r1.s2.0.wav,3.0,what,unsyncopated,a,s2,no_rule,cat,L1,z,1.3864,5.0,0.0,0.9586,3.0,2.0,Catalán,0.0,Castellano,0.0,Inglés,7 ,3.0,2.0,no,no,no,Flauta,10,,,Nada. Todo correcto.,67.0,yes
66,2024-04-14_19h34.19.627,Experiment4_uns,s175,33.0,masculino,right,España,Catalán,Master degree,no,no,B,1,when,L2,unsyncopated,when,when,66,Online_whenL2//d.si14.1332.wav,ba,te,bi,sil,go,su,si,sil1,du,ñu,sil2,['catch'],[1.975099999994086],[1.975099999994086],1.332,no_beat,0.6430999999940858,0.6430999999940858,"[""space""]",si,4,testWhatL1Uns//cat_viol.r2.s2.0.wav,3.0,what,unsyncopated,b,s2,no_rule,cat,L1,m,2.0339,5.0,1.0,1.1838,3.0,2.0,Catalán,0.0,Castellano,0.0,Inglés,7 ,3.0,2.0,no,no,no,Flauta,10,,,Nada. Todo correcto.,67.0,yes
67,2024-04-14_19h34.19.627,Experiment4_uns,s175,33.0,masculino,right,España,Catalán,Master degree,no,no,B,1,when,L2,unsyncopated,when,when,67,Online_whenL2//d.si15.1332.wav,mi,ño,ba,sil,ra,fe,si,sil1,ñu,me,sil2,['catch'],[1.8869999999999436],[1.8869999999999436],1.332,no_beat,0.5549999999999435,0.5549999999999435,"[""space""]",si,4,testWhatL1Uns//r1.s1.2.wav,3.0,what,unsyncopated,a,s1,rule,rule,L1,z,0.931,3.0,1.0,0.9914,3.0,2.0,Catalán,0.0,Castellano,0.0,Inglés,7 ,3.0,2.0,no,no,no,Flauta,10,,,Nada. Todo correcto.,67.0,yes
68,2024-04-14_19h34.19.627,Experiment4_uns,s175,33.0,masculino,right,España,Catalán,Master degree,no,no,B,1,when,L2,unsyncopated,when,when,68,Online_whenL2//a.du23.888.wav,si,fe,to,sil,du,su,ño,sil1,me,ba,sil2,['catch'],[1.5025000000000546],[1.5025000000000546],0.888,beat,0.6145000000000546,0.6145000000000546,"[""space""]",du,1,testWhatL1Uns//dep_viol.r1.s2.0.wav,3.0,what,unsyncopated,a,s2,no_rule,dep,L1,z,1.4841,5.0,0.0,0.8678,3.0,2.0,Catalán,0.0,Castellano,0.0,Inglés,7 ,3.0,2.0,no,no,no,Flauta,10,,,Nada. Todo correcto.,67.0,yes
69,2024-04-14_19h34.19.627,Experiment4_uns,s175,33.0,masculino,right,España,Catalán,Master degree,no,no,B,1,when,L2,unsyncopated,when,when,69,Online_whenL2//a.du22.444.wav,me,fe,du,sil,to,ba,te,sil1,su,ñu,sil2,['catch'],[1.2413000000118473],[1.2413000000118473],0.444,no_beat,0.7973000000118473,0.7973000000118473,"[""space""]",du,1,testWhatL1Uns//time_viol.r2.s1.0.wav,3.0,what,unsyncopated,b,s1,no_rule,time,L1,z,1.5505,3.0,0.0,1.7169,3.0,2.0,Catalán,0.0,Castellano,0.0,Inglés,7 ,3.0,2.0,no,no,no,Flauta,10,,,Nada. Todo correcto.,67.0,yes
70,2024-04-14_19h34.19.627,Experiment4_uns,s175,33.0,masculino,right,España,Catalán,Master degree,no,no,B,1,when,L2,unsyncopated,when,when,70,Online_whenL2//a.du21.none.wav,cha,si,bi,sil,ñu,ra,ño,sil1,ba,go,sil2,['-'],,,none,none,,,,du,1,testWhatL1Uns//r2.s2.0.wav,3.0,what,unsyncopated,b,s2,rule,rule,L1,m,1.3324,2.0,0.0,0.9522,3.0,2.0,Catalán,0.0,Castellano,0.0,Inglés,7 ,3.0,2.0,no,no,no,Flauta,10,,,Nada. Todo correcto.,67.0,yes
71,2024-04-14_19h34.19.627,Experiment4_uns,s175,33.0,masculino,right,España,Catalán,Master degree,no,no,B,1,when,L2,unsyncopated,when,when,71,Online_whenL2//a.du20.none.wav,su,go,te,sil,ra,si,bi,sil1,ñu,cha,sil2,['-'],,,none,none,,,,du,1,testWhatL1Uns//dep_viol.r2.s1.0.wav,3.0,what,unsyncopated,b,s1,no_rule,dep,L1,m,1.1592,3.0,1.0,1.7154,3.0,2.0,Catalán,0.0,Castellano,0.0,Inglés,7 ,3.0,2.0,no,no,no,Flauta,10,,,Nada. Todo correcto.,67.0,yes
72,2024-04-14_19h34.19.627,Experiment4_uns,s175,33.0,masculino,right,España,Catalán,Master degree,no,no,B,1,when,L2,unsyncopated,when,when,72,Online_whenL2//a.du34.1110.wav,ba,ñu,fe,sil,si,du,ño,sil1,te,su,sil2,['catch'],[1.6632000000030303],[1.6632000000030303],1.11,no_beat,0.5532000000030302,0.5532000000030302,"[""space""]",du,1,testConjL4Uns//cat_viol.r2.s2.0.wav,4.0,conjunction_un,unsyncopated,b,s2,no_rule,cat,L4,m,1.181,3.0,1.0,1.0897,3.0,2.0,Catalán,0.0,Castellano,0.0,Inglés,7 ,3.0,2.0,no,no,no,Flauta,10,,,Nada. Todo correcto.,67.0,yes
73,2024-04-14_19h34.19.627,Experiment4_uns,s175,33.0,masculino,right,España,Catalán,Master degree,no,no,B,1,when,L2,unsyncopated,when,when,73,Online_whenL2//a.du33.1110.wav,te,su,si,sil,to,du,fe,sil1,mi,me,sil2,['catch'],[1.9713000000119791],[1.9713000000119791],1.11,no_beat,0.861300000011979,0.861300000011979,"[""space""]",du,1,testConjL4Uns//dep_viol.r2.s1.0.wav,4.0,conjunction_un,unsyncopated,b,s1,no_rule,dep,L4,z,2.0502,2.0,0.0,0.4543,3.0,2.0,Catalán,0.0,Castellano,0.0,Inglés,7 ,3.0,2.0,no,no,no,Flauta,10,,,Nada. Todo correcto.,67.0,yes
74,2024-04-14_19h34.19.627,Experiment4_uns,s175,33.0,masculino,right,España,Catalán,Master degree,no,no,B,1,when,L2,unsyncopated,when,when,74,Online_whenL2//a.du35.none.wav,to,ñu,su,sil,ba,cha,fe,sil1,ño,go,sil2,['-'],,,none,none,,,,du,1,testConjL4Uns//time_viol.r1.s2.0.wav,4.0,conjunction_un,unsyncopated,a,s2,no_rule,time,L4,m,1.058,3.0,1.0,1.8489,3.0,2.0,Catalán,0.0,Castellano,0.0,Inglés,7 ,3.0,2.0,no,no,no,Flauta,10,,,Nada. Todo correcto.,67.0,yes
75,2024-04-14_19h34.19.627,Experiment4_uns,s175,33.0,masculino,right,España,Catalán,Master degree,no,no,B,1,when,L2,unsyncopated,when,when,75,Online_whenL2//a.du32.none.wav,to,fe,ñu,sil,cha,te,go,sil1,ño,si,sil2,['-'],,,none,none,,,,du,1,testConjL4Uns//time_viol.r2.s2.0.wav,4.0,conjunction_un,unsyncopated,b,s2,no_rule,time,L4,m,2.6814,2.0,1.0,0.9371,3.0,2.0,Catalán,0.0,Castellano,0.0,Inglés,7 ,3.0,2.0,no,no,no,Flauta,10,,,Nada. Todo correcto.,67.0,yes
76,2024-04-14_19h34.19.627,Experiment4_uns,s175,33.0,masculino,right,España,Catalán,Master degree,no,no,B,1,when,L2,unsyncopated,when,when,76,Online_whenL2//c.cha7.none.wav,ba,to,bi,sil,ño,du,si,sil1,mi,fe,sil2,['-'],,,none,none,,,,cha,3,testConjL4Uns//r1.s1.0.wav,4.0,conjunction_un,unsyncopated,a,s1,rule,rule,L4,z,1.2993,2.0,1.0,0.7655,3.0,2.0,Catalán,0.0,Castellano,0.0,Inglés,7 ,3.0,2.0,no,no,no,Flauta,10,,,Nada. Todo correcto.,67.0,yes
77,2024-04-14_19h34.19.627,Experiment4_uns,s175,33.0,masculino,right,España,Catalán,Master degree,no,no,B,1,when,L2,unsyncopated,when,when,77,Online_whenL2//c.cha5.none.wav,bi,mi,to,sil,su,fe,te,sil1,du,si,sil2,['-'],,,none,none,,,,cha,3,testConjL4Uns//r1.s1.2.wav,4.0,conjunction_un,unsyncopated,a,s1,rule,rule,L4,z,2.0336,3.0,1.0,0.5428,3.0,2.0,Catalán,0.0,Castellano,0.0,Inglés,7 ,3.0,2.0,no,no,no,Flauta,10,,,Nada. Todo correcto.,67.0,yes
78,2024-04-14_19h34.19.627,Experiment4_uns,s175,33.0,masculino,right,España,Catalán,Master degree,no,no,B,1,when,L2,unsyncopated,when,when,78,Online_whenL2//c.cha4.222.wav,bi,cha,ñu,sil,su,mi,du,sil1,si,fe,sil2,['catch'],[0.7037999999970452],[0.7037999999970452],0.222,no_beat,0.4817999999970452,0.4817999999970452,"[""space""]",cha,3,testConjL4Uns//time_viol.r2.s1.0.wav,4.0,conjunction_un,unsyncopated,b,s1,no_rule,time,L4,z,2.8316,3.0,0.0,0.6568,3.0,2.0,Catalán,0.0,Castellano,0.0,Inglés,7 ,3.0,2.0,no,no,no,Flauta,10,,,Nada. Todo correcto.,67.0,yes
79,2024-04-14_19h34.19.627,Experiment4_uns,s175,33.0,masculino,right,España,Catalán,Master degree,no,no,B,1,when,L2,unsyncopated,when,when,79,Online_whenL2//c.cha6.none.wav,ño,bi,su,sil,ñu,to,si,sil1,du,go,sil2,['-'],,,none,none,,,,cha,3,testConjL4Uns//dep_viol.r1.s1.0.wav,4.0,conjunction_un,unsyncopated,a,s1,no_rule,dep,L4,m,1.238,2.0,1.0,1.1325,3.0,2.0,Catalán,0.0,Castellano,0.0,Inglés,7 ,3.0,2.0,no,no,no,Flauta,10,,,Nada. Todo correcto.,67.0,yes
80,2024-04-14_19h34.19.627,Experiment4_uns,s175,33.0,masculino,right,España,Catalán,Master degree,no,no,B,1,when,L2,unsyncopated,when,when,80,Online_whenL2//c.cha17.none.wav,te,ñu,su,sil,mi,go,me,sil1,ra,si,sil2,['-'],,,none,none,,,,cha,3,testConjL4Uns//cat_viol.r2.s1.0.wav,4.0,conjunction_un,unsyncopated,b,s1,no_rule,cat,L4,m,1.7498,2.0,1.0,0.6844,3.0,2.0,Catalán,0.0,Castellano,0.0,Inglés,7 ,3.0,2.0,no,no,no,Flauta,10,,,Nada. Todo correcto.,67.0,yes
81,2024-04-14_19h34.19.627,Experiment4_uns,s175,33.0,masculino,right,España,Catalán,Master degree,no,no,B,1,when,L2,unsyncopated,when,when,81,Online_whenL2//c.cha16.none.wav,te,su,to,sil,du,ra,me,sil1,si,mi,sil2,['-'],,,none,none,,,,cha,3,testConjL4Uns//cat_viol.r1.s1.0.wav,4.0,conjunction_un,unsyncopated,a,s1,no_rule,cat,L4,z,1.2035,2.0,0.0,0.5506,3.0,2.0,Catalán,0.0,Castellano,0.0,Inglés,7 ,3.0,2.0,no,no,no,Flauta,10,,,Nada. Todo correcto.,67.0,yes
82,2024-04-14_19h34.19.627,Experiment4_uns,s175,33.0,masculino,right,España,Catalán,Master degree,no,no,B,1,when,L2,unsyncopated,when,when,82,Online_whenL2//c.cha18.1776.wav,ra,ñu,ño,sil,si,to,te,sil1,cha,du,sil2,['catch'],[2.2262999999970816],[2.2262999999970816],1.776,beat,0.4502999999970816,0.4502999999970816,"[""space""]",cha,3,testConjL4Uns//dep_viol.r2.s2.0.wav,4.0,conjunction_un,unsyncopated,b,s2,no_rule,dep,L4,z,2.1689,3.0,0.0,0.5346,3.0,2.0,Catalán,0.0,Castellano,0.0,Inglés,7 ,3.0,2.0,no,no,no,Flauta,10,,,Nada. Todo correcto.,67.0,yes
83,2024-04-14_19h34.19.627,Experiment4_uns,s175,33.0,masculino,right,España,Catalán,Master degree,no,no,B,1,when,L2,unsyncopated,when,when,83,Online_whenL2//c.cha19.1998.wav,go,si,du,sil,ñu,to,ba,sil1,te,cha,sil2,['catch_delay'],[0.6862999999969508],[0.6862999999969508],1.998,no_beat,0.6862999999969508,0.6862999999969508,,cha,3,testConjL4Uns//r2.s1.2.wav,4.0,conjunction_un,unsyncopated,b,s1,rule,rule,L4,z,1.8734,5.0,1.0,1.4165,3.0,2.0,Catalán,0.0,Castellano,0.0,Inglés,7 ,3.0,2.0,no,no,no,Flauta,10,,,Nada. Todo correcto.,67.0,yes
84,2024-04-14_19h34.19.627,Experiment4_uns,s175,33.0,masculino,right,España,Catalán,Master degree,no,no,B,1,when,L2,unsyncopated,when,when,84,Online_whenL2//a.du9.1332.wav,bi,cha,su,sil,ñu,ba,du,sil1,ra,me,sil2,['catch'],"[0.020299999996950646, 1.8884999999999081]",[1.8884999999999081],1.332,no_beat,0.5564999999999081,0.5564999999999081,"[""space"",""space""]",du,1,testConjL4Uns//r2.s2.0.wav,4.0,conjunction_un,unsyncopated,b,s2,rule,rule,L4,z,2.1501,6.0,1.0,1.4516,3.0,2.0,Catalán,0.0,Castellano,0.0,Inglés,7 ,3.0,2.0,no,no,no,Flauta,10,,,Nada. Todo correcto.,67.0,yes
85,2024-04-14_19h34.19.627,Experiment4_uns,s175,33.0,masculino,right,España,Catalán,Master degree,no,no,B,1,when,L2,unsyncopated,when,when,85,Online_whenL2//a.du8.none.wav,ño,su,to,sil,go,te,bi,sil1,ra,si,sil2,['-'],,,none,none,,,,du,1,testConjL4Uns//r1.s2.0.wav,4.0,conjunction_un,unsyncopated,a,s2,rule,rule,L4,z,0.9927,4.0,1.0,1.0197,3.0,2.0,Catalán,0.0,Castellano,0.0,Inglés,7 ,3.0,2.0,no,no,no,Flauta,10,,,Nada. Todo correcto.,67.0,yes
86,2024-04-14_19h34.19.627,Experiment4_uns,s175,33.0,masculino,right,España,Catalán,Master degree,no,no,B,1,when,L2,unsyncopated,when,when,86,Online_whenL2//a.du11.1998.wav,me,te,go,sil,mi,ñu,si,sil1,bi,du,sil2,['catch'],[2.1142000000029384],[2.1142000000029384],1.998,no_beat,0.1162000000029384,0.1162000000029384,"[""space""]",du,1,testConjL4Uns//r2.s2.2.wav,4.0,conjunction_un,unsyncopated,b,s2,rule,rule,L4,m,1.2929,2.0,0.0,1.6888,3.0,2.0,Catalán,0.0,Castellano,0.0,Inglés,7 ,3.0,2.0,no,no,no,Flauta,10,,,Nada. Todo correcto.,67.0,yes
87,2024-04-14_19h34.19.627,Experiment4_uns,s175,33.0,masculino,right,España,Catalán,Master degree,no,no,B,1,when,L2,unsyncopated,when,when,87,Online_whenL2//a.du10.none.wav,cha,ño,to,sil,ra,bi,fe,sil1,ba,mi,sil2,['-'],,,none,none,,,,du,1,testConjL4Uns//r1.s2.1.wav,4.0,conjunction_un,unsyncopated,a,s2,rule,rule,L4,m,2.5017,2.0,0.0,0.7752,3.0,2.0,Catalán,0.0,Castellano,0.0,Inglés,7 ,3.0,2.0,no,no,no,Flauta,10,,,Nada. Todo correcto.,67.0,yes
88,2024-04-14_19h34.19.627,Experiment4_uns,s175,33.0,masculino,right,España,Catalán,Master degree,no,no,B,1,when,L2,unsyncopated,when,when,88,Online_whenL2//b.fe27.888.wav,to,cha,su,sil,fe,me,go,sil1,ñu,ño,sil2,['miss'],,,0.888,beat,,,,fe,2,testConjL4Uns//r2.s2.1.wav,4.0,conjunction_un,unsyncopated,b,s2,rule,rule,L4,m,3.0232,2.0,0.0,1.052,3.0,2.0,Catalán,0.0,Castellano,0.0,Inglés,7 ,3.0,2.0,no,no,no,Flauta,10,,,Nada. Todo correcto.,67.0,yes
89,2024-04-14_19h34.19.627,Experiment4_uns,s175,33.0,masculino,right,España,Catalán,Master degree,no,no,B,1,when,L2,unsyncopated,when,when,89,Online_whenL2//b.fe26.none.wav,ñu,te,ño,sil,go,mi,me,sil1,du,ba,sil2,['false alarm'],[1.007899999991082],[1.007899999991082],none,none,,,"[""space""]",fe,2,testConjL4Uns//r2.s1.0.wav,4.0,conjunction_un,unsyncopated,b,s1,rule,rule,L4,z,1.2857,3.0,1.0,1.0994,3.0,2.0,Catalán,0.0,Castellano,0.0,Inglés,7 ,3.0,2.0,no,no,no,Flauta,10,,,Nada. Todo correcto.,67.0,yes
90,2024-04-14_19h34.19.627,Experiment4_uns,s175,33.0,masculino,right,España,Catalán,Master degree,no,no,B,1,when,L2,unsyncopated,when,when,90,Online_whenL2//b.fe25.888.wav,ba,me,mi,sil,fe,to,bi,sil1,ñu,du,sil2,['catch'],[1.8087000000028866],[1.8087000000028866],0.888,beat,0.9207000000028864,0.9207000000028864,"[""space""]",fe,2,testConjL4Uns//r1.s1.1.wav,4.0,conjunction_un,unsyncopated,a,s1,rule,rule,L4,m,1.4675,3.0,0.0,3.8994,3.0,2.0,Catalán,0.0,Castellano,0.0,Inglés,7 ,3.0,2.0,no,no,no,Flauta,10,,,Nada. Todo correcto.,67.0,yes
91,2024-04-14_19h34.19.627,Experiment4_uns,s175,33.0,masculino,right,España,Catalán,Master degree,no,no,B,1,when,L2,unsyncopated,when,when,91,Online_whenL2//b.fe24.888.wav,to,te,ñu,sil,fe,su,bi,sil1,du,mi,sil2,['catch'],[1.6457999999968251],[1.6457999999968251],0.888,beat,0.7577999999968251,0.7577999999968251,"[""space""]",fe,2,testConjL4Uns//cat_viol.r1.s2.0.wav,4.0,conjunction_un,unsyncopated,a,s2,no_rule,cat,L4,z,1.1158,3.0,0.0,0.719,3.0,2.0,Catalán,0.0,Castellano,0.0,Inglés,7 ,3.0,2.0,no,no,no,Flauta,10,,,Nada. Todo correcto.,67.0,yes
92,2024-04-14_19h34.19.627,Experiment4_uns,s175,33.0,masculino,right,España,Catalán,Master degree,no,no,B,1,when,L2,unsyncopated,when,when,92,Online_whenL2//b.fe5.1332.wav,si,cha,bi,sil,ñu,su,fe,sil1,ra,te,sil2,['catch'],[2.0981999999880827],[2.0981999999880827],1.332,no_beat,0.7661999999880826,0.7661999999880826,"[""space""]",fe,2,testConjL4Uns//time_viol.r1.s1.0.wav,4.0,conjunction_un,unsyncopated,a,s1,no_rule,time,L4,m,1.3007,4.0,1.0,1.0319,3.0,2.0,Catalán,0.0,Castellano,0.0,Inglés,7 ,3.0,2.0,no,no,no,Flauta,10,,,Nada. Todo correcto.,67.0,yes
93,2024-04-14_19h34.19.627,Experiment4_uns,s175,33.0,masculino,right,España,Catalán,Master degree,no,no,B,1,when,L2,unsyncopated,when,when,93,Online_whenL2//b.fe4.0.wav,fe,ra,ño,sil,to,ba,cha,sil1,si,te,sil2,['miss'],,,0.0,beat,,,,fe,2,testConjL4Uns//r2.s1.1.wav,4.0,conjunction_un,unsyncopated,b,s1,rule,rule,L4,z,0.7817,3.0,1.0,0.7578,3.0,2.0,Catalán,0.0,Castellano,0.0,Inglés,7 ,3.0,2.0,no,no,no,Flauta,10,,,Nada. Todo correcto.,67.0,yes
94,2024-04-14_19h34.19.627,Experiment4_uns,s175,33.0,masculino,right,España,Catalán,Master degree,no,no,B,1,when,L2,unsyncopated,when,when,94,Online_whenL2//b.fe7.1998.wav,ba,si,du,sil,cha,ño,bi,sil1,mi,fe,sil2,['catch_delay'],[0.7707000000030495],[0.7707000000030495],1.998,no_beat,0.7707000000030495,0.7707000000030495,,fe,2,testConjL4Uns//r1.s2.2.wav,4.0,conjunction_un,unsyncopated,a,s2,rule,rule,L4,m,1.8422,2.0,0.0,0.3206,3.0,2.0,Catalán,0.0,Castellano,0.0,Inglés,7 ,3.0,2.0,no,no,no,Flauta,10,,,Nada. Todo correcto.,67.0,yes
95,2024-04-14_19h34.19.627,Experiment4_uns,s175,33.0,masculino,right,España,Catalán,Master degree,no,no,B,1,when,L2,unsyncopated,when,when,95,Online_whenL2//b.fe6.1998.wav,du,su,ñu,sil,cha,ba,to,sil1,te,fe,sil2,['miss'],[0.10470000000304935],[0.10470000000304935],1.998,no_beat,,,"[""space""]",fe,2,testConjL4Uns//dep_viol.r1.s2.0.wav,4.0,conjunction_un,unsyncopated,a,s2,no_rule,dep,L4,m,1.3656,4.0,1.0,1.5484,3.0,2.0,Catalán,0.0,Castellano,0.0,Inglés,7 ,3.0,2.0,no,no,no,Flauta,10,,,Nada. Todo correcto.,67.0,yes
96,2024-04-14_19h34.19.627,Experiment4_uns,s175,33.0,masculino,right,España,Catalán,Master degree,no,no,B,1,when,L2,unsyncopated,when,when,96,Online_whenL2//c.cha29.444.wav,go,du,cha,sil,me,ba,su,sil1,ñu,bi,sil2,"['catch', 'false alarm']","[0.4800000000000182, 1.297300000012001]",[0.4800000000000182],0.444,no_beat,0.0360000000000181,0.0360000000000181,"[""space"",""space""]",cha,3,,,,,,,,,,,,,,,3.0,2.0,Catalán,0.0,Castellano,0.0,Inglés,7 ,3.0,2.0,no,no,no,Flauta,10,,,Nada. Todo correcto.,67.0,yes
97,2024-04-14_19h34.19.627,Experiment4_uns,s175,33.0,masculino,right,España,Catalán,Master degree,no,no,B,1,when,L2,unsyncopated,when,when,97,Online_whenL2//c.cha28.0.wav,cha,fe,to,sil,ba,ñu,me,sil1,go,te,sil2,['catch'],[0.595400000006066],[0.595400000006066],0.0,beat,0.595400000006066,0.595400000006066,"[""space""]",cha,3,,,,,,,,,,,,,,,3.0,2.0,Catalán,0.0,Castellano,0.0,Inglés,7 ,3.0,2.0,no,no,no,Flauta,10,,,Nada. Todo correcto.,67.0,yes
98,2024-04-14_19h34.19.627,Experiment4_uns,s175,33.0,masculino,right,España,Catalán,Master degree,no,no,B,1,when,L2,unsyncopated,when,when,98,Online_whenL2//c.cha30.none.wav,te,mi,to,sil,me,go,si,sil1,ño,du,sil2,['-'],,,none,none,,,,cha,3,,,,,,,,,,,,,,,3.0,2.0,Catalán,0.0,Castellano,0.0,Inglés,7 ,3.0,2.0,no,no,no,Flauta,10,,,Nada. Todo correcto.,67.0,yes
99,2024-04-14_19h34.19.627,Experiment4_uns,s175,33.0,masculino,right,España,Catalán,Master degree,no,no,B,1,when,L2,unsyncopated,when,when,99,Online_whenL2//c.cha31.none.wav,to,te,ñu,sil,bi,du,su,sil1,fe,me,sil2,['-'],,,none,none,,,,cha,3,,,,,,,,,,,,,,,3.0,2.0,Catalán,0.0,Castellano,0.0,Inglés,7 ,3.0,2.0,no,no,no,Flauta,10,,,Nada. Todo correcto.,67.0,yes
100,2024-04-14_19h34.19.627,Experiment4_uns,s175,33.0,masculino,right,España,Catalán,Master degree,no,no,B,1,when,L2,unsyncopated,when,when,100,Online_whenL2//b.fe16.1998.wav,cha,ba,te,sil,ra,ño,si,sil1,me,fe,sil2,"['false alarm', 'false alarm']","[0.44850000000019463, 1.619399999991174]",,1.998,no_beat,,,"[""space"",""space""]",fe,2,,,,,,,,,,,,,,,3.0,2.0,Catalán,0.0,Castellano,0.0,Inglés,7 ,3.0,2.0,no,no,no,Flauta,10,,,Nada. Todo correcto.,67.0,yes
101,2024-04-14_19h34.19.627,Experiment4_uns,s175,33.0,masculino,right,España,Catalán,Master degree,no,no,B,1,when,L2,unsyncopated,when,when,101,Online_whenL2//b.fe19.none.wav,ño,ra,su,sil,cha,du,to,sil1,si,me,sil2,['false alarm'],[0.611400000005915],[0.611400000005915],none,none,,,"[""space""]",fe,2,,,,,,,,,,,,,,,3.0,2.0,Catalán,0.0,Castellano,0.0,Inglés,7 ,3.0,2.0,no,no,no,Flauta,10,,,Nada. Todo correcto.,67.0,yes
102,2024-04-14_19h34.19.627,Experiment4_uns,s175,33.0,masculino,right,España,Catalán,Master degree,no,no,B,1,when,L2,unsyncopated,when,when,102,Online_whenL2//b.fe17.222.wav,te,fe,ño,sil,su,mi,ra,sil1,si,ñu,sil2,['catch'],[1.0712999999968815],[1.0712999999968815],0.222,no_beat,0.8492999999968815,0.8492999999968815,"[""space""]",fe,2,,,,,,,,,,,,,,,3.0,2.0,Catalán,0.0,Castellano,0.0,Inglés,7 ,3.0,2.0,no,no,no,Flauta,10,,,Nada. Todo correcto.,67.0,yes
103,2024-04-14_19h34.19.627,Experiment4_uns,s175,33.0,masculino,right,España,Catalán,Master degree,no,no,B,1,when,L2,unsyncopated,when,when,103,Online_whenL2//b.fe18.none.wav,mi,go,su,sil,ba,ra,si,sil1,cha,bi,sil2,['-'],,,none,none,,,,fe,2,,,,,,,,,,,,,,,3.0,2.0,Catalán,0.0,Castellano,0.0,Inglés,7 ,3.0,2.0,no,no,no,Flauta,10,,,Nada. Todo correcto.,67.0,yes
104,2024-04-14_19h34.19.627,Experiment4_uns,s175,33.0,masculino,right,España,Catalán,Master degree,no,no,B,1,when,L2,unsyncopated,when,when,104,Online_whenL2//d.si18.222.wav,ñu,si,bi,sil,cha,du,me,sil1,fe,ño,sil2,['catch'],[0.9690000000000509],[0.9690000000000509],0.222,no_beat,0.747000000000051,0.747000000000051,"[""space""]",si,4,,,,,,,,,,,,,,,3.0,2.0,Catalán,0.0,Castellano,0.0,Inglés,7 ,3.0,2.0,no,no,no,Flauta,10,,,Nada. Todo correcto.,67.0,yes
105,2024-04-14_19h34.19.627,Experiment4_uns,s175,33.0,masculino,right,España,Catalán,Master degree,no,no,B,1,when,L2,unsyncopated,when,when,105,Online_whenL2//d.si17.none.wav,mi,su,to,sil,go,ño,du,sil1,cha,ñu,sil2,['-'],,,none,none,,,,si,4,,,,,,,,,,,,,,,3.0,2.0,Catalán,0.0,Castellano,0.0,Inglés,7 ,3.0,2.0,no,no,no,Flauta,10,,,Nada. Todo correcto.,67.0,yes
106,2024-04-14_19h34.19.627,Experiment4_uns,s175,33.0,masculino,right,España,Catalán,Master degree,no,no,B,1,when,L2,unsyncopated,when,when,106,Online_whenL2//d.si19.none.wav,bi,mi,su,sil,me,cha,du,sil1,fe,te,sil2,['-'],,,none,none,,,,si,4,,,,,,,,,,,,,,,3.0,2.0,Catalán,0.0,Castellano,0.0,Inglés,7 ,3.0,2.0,no,no,no,Flauta,10,,,Nada. Todo correcto.,67.0,yes
107,2024-04-14_19h34.19.627,Experiment4_uns,s175,33.0,masculino,right,España,Catalán,Master degree,no,no,B,1,when,L2,unsyncopated,when,when,107,Online_whenL2//d.si16.none.wav,su,fe,mi,sil,ño,te,me,sil1,du,ba,sil2,['-'],,,none,none,,,,si,4,,,,,,,,,,,,,,,3.0,2.0,Catalán,0.0,Castellano,0.0,Inglés,7 ,3.0,2.0,no,no,no,Flauta,10,,,Nada. Todo correcto.,67.0,yes
108,2024-04-14_19h34.19.627,Experiment4_uns,s175,33.0,masculino,right,España,Catalán,Master degree,no,no,B,1,when,L2,unsyncopated,when,when,108,Online_whenL2//d.si29.888.wav,cha,me,su,sil,si,mi,te,sil1,ra,go,sil2,['catch'],[1.3291000000090207],[1.3291000000090207],0.888,beat,0.4411000000090207,0.4411000000090207,"[""space""]",si,4,,,,,,,,,,,,,,,3.0,2.0,Catalán,0.0,Castellano,0.0,Inglés,7 ,3.0,2.0,no,no,no,Flauta,10,,,Nada. Todo correcto.,67.0,yes
109,2024-04-14_19h34.19.627,Experiment4_uns,s175,33.0,masculino,right,España,Catalán,Master degree,no,no,B,1,when,L2,unsyncopated,when,when,109,Online_whenL2//d.si30.none.wav,me,ba,cha,sil,ño,te,bi,sil1,du,go,sil2,['false alarm'],[1.098200000002862],[1.098200000002862],none,none,,,"[""space""]",si,4,,,,,,,,,,,,,,,3.0,2.0,Catalán,0.0,Castellano,0.0,Inglés,7 ,3.0,2.0,no,no,no,Flauta,10,,,Nada. Todo correcto.,67.0,yes
110,2024-04-14_19h34.19.627,Experiment4_uns,s175,33.0,masculino,right,España,Catalán,Master degree,no,no,B,1,when,L2,unsyncopated,when,when,110,Online_whenL2//d.si31.none.wav,su,ba,te,sil,ra,ño,to,sil1,mi,go,sil2,['-'],,,none,none,,,,si,4,,,,,,,,,,,,,,,3.0,2.0,Catalán,0.0,Castellano,0.0,Inglés,7 ,3.0,2.0,no,no,no,Flauta,10,,,Nada. Todo correcto.,67.0,yes
111,2024-04-14_19h34.19.627,Experiment4_uns,s175,33.0,masculino,right,España,Catalán,Master degree,no,no,B,1,when,L2,unsyncopated,when,when,111,Online_whenL2//d.si28.888.wav,ñu,fe,bi,sil,si,cha,to,sil1,du,ba,sil2,['catch'],[1.3796000000090771],[1.3796000000090771],0.888,beat,0.4916000000090771,0.4916000000090771,"[""space""]",si,4,,,,,,,,,,,,,,,3.0,2.0,Catalán,0.0,Castellano,0.0,Inglés,7 ,3.0,2.0,no,no,no,Flauta,10,,,Nada. Todo correcto.,67.0,yes
112,2024-04-14_19h34.19.627,Experiment4_uns,s175,33.0,masculino,right,España,Catalán,Master degree,no,no,B,1,when,L2,unsyncopated,when,when,112,Online_whenL2//a.du18.none.wav,go,fe,te,sil,si,cha,ba,sil1,ño,to,sil2,['-'],,,none,none,,,,du,1,,,,,,,,,,,,,,,3.0,2.0,Catalán,0.0,Castellano,0.0,Inglés,7 ,3.0,2.0,no,no,no,Flauta,10,,,Nada. Todo correcto.,67.0,yes
113,2024-04-14_19h34.19.627,Experiment4_uns,s175,33.0,masculino,right,España,Catalán,Master degree,no,no,B,1,when,L2,unsyncopated,when,when,113,Online_whenL2//a.du17.none.wav,ra,go,su,sil,me,si,cha,sil1,bi,te,sil2,['-'],,,none,none,,,,du,1,,,,,,,,,,,,,,,3.0,2.0,Catalán,0.0,Castellano,0.0,Inglés,7 ,3.0,2.0,no,no,no,Flauta,10,,,Nada. Todo correcto.,67.0,yes
114,2024-04-14_19h34.19.627,Experiment4_uns,s175,33.0,masculino,right,España,Catalán,Master degree,no,no,B,1,when,L2,unsyncopated,when,when,114,Online_whenL2//a.du16.none.wav,ñu,te,to,sil,su,me,si,sil1,ra,fe,sil2,['-'],,,none,none,,,,du,1,,,,,,,,,,,,,,,3.0,2.0,Catalán,0.0,Castellano,0.0,Inglés,7 ,3.0,2.0,no,no,no,Flauta,10,,,Nada. Todo correcto.,67.0,yes
115,2024-04-14_19h34.19.627,Experiment4_uns,s175,33.0,masculino,right,España,Catalán,Master degree,no,no,B,1,when,L2,unsyncopated,when,when,115,Online_whenL2//a.du19.none.wav,su,ñu,to,sil,bi,fe,me,sil1,ño,go,sil2,['false alarm'],[1.157200000002831],[1.157200000002831],none,none,,,"[""space""]",du,1,,,,,,,,,,,,,,,3.0,2.0,Catalán,0.0,Castellano,0.0,Inglés,7 ,3.0,2.0,no,no,no,Flauta,10,,,Nada. Todo correcto.,67.0,yes
116,2024-04-14_19h34.19.627,Experiment4_uns,s175,33.0,masculino,right,España,Catalán,Master degree,no,no,B,1,when,L2,unsyncopated,when,when,116,Online_whenL2//a.du6.888.wav,me,si,bi,sil,du,mi,cha,sil1,te,fe,sil2,['catch'],[1.5550999999941268],[1.5550999999941268],0.888,beat,0.6670999999941268,0.6670999999941268,"[""space""]",du,1,,,,,,,,,,,,,,,3.0,2.0,Catalán,0.0,Castellano,0.0,Inglés,7 ,3.0,2.0,no,no,no,Flauta,10,,,Nada. Todo correcto.,67.0,yes
117,2024-04-14_19h34.19.627,Experiment4_uns,s175,33.0,masculino,right,España,Catalán,Master degree,no,no,B,1,when,L2,unsyncopated,when,when,117,Online_whenL2//a.du4.1998.wav,cha,si,go,sil,mi,ñu,me,sil1,su,du,sil2,['miss'],,,1.998,no_beat,,,,du,1,,,,,,,,,,,,,,,3.0,2.0,Catalán,0.0,Castellano,0.0,Inglés,7 ,3.0,2.0,no,no,no,Flauta,10,,,Nada. Todo correcto.,67.0,yes
118,2024-04-14_19h34.19.627,Experiment4_uns,s175,33.0,masculino,right,España,Catalán,Master degree,no,no,B,1,when,L2,unsyncopated,when,when,118,Online_whenL2//a.du7.0.wav,du,ño,te,sil,ñu,to,mi,sil1,su,fe,sil2,"['catch', 'false alarm']","[0.3457000000030348, 0.8879000000060842]",[0.3457000000030348],0.0,beat,0.3457000000030348,0.3457000000030348,"[""space"",""space""]",du,1,,,,,,,,,,,,,,,3.0,2.0,Catalán,0.0,Castellano,0.0,Inglés,7 ,3.0,2.0,no,no,no,Flauta,10,,,Nada. Todo correcto.,67.0,yes
119,2024-04-14_19h34.19.627,Experiment4_uns,s175,33.0,masculino,right,España,Catalán,Master degree,no,no,B,1,when,L2,unsyncopated,when,when,119,Online_whenL2//a.du5.1110.wav,bi,ño,ra,sil,ba,du,mi,sil1,to,ñu,sil2,['catch'],[1.9617999999970834],[1.9617999999970834],1.11,no_beat,0.8517999999970833,0.8517999999970833,"[""space""]",du,1,,,,,,,,,,,,,,,3.0,2.0,Catalán,0.0,Castellano,0.0,Inglés,7 ,3.0,2.0,no,no,no,Flauta,10,,,Nada. Todo correcto.,67.0,yes
120,2024-04-14_19h34.19.627,Experiment4_uns,s175,33.0,masculino,right,España,Catalán,Master degree,no,no,B,1,when,L2,unsyncopated,when,when,120,Online_whenL2//d.si3.444.wav,bi,su,si,sil,go,mi,ba,sil1,ñu,du,sil2,['catch'],[1.048099999994065],[1.048099999994065],0.444,no_beat,0.604099999994065,0.604099999994065,"[""space""]",si,4,,,,,,,,,,,,,,,3.0,2.0,Catalán,0.0,Castellano,0.0,Inglés,7 ,3.0,2.0,no,no,no,Flauta,10,,,Nada. Todo correcto.,67.0,yes
121,2024-04-14_19h34.19.627,Experiment4_uns,s175,33.0,masculino,right,España,Catalán,Master degree,no,no,B,1,when,L2,unsyncopated,when,when,121,Online_whenL2//d.si0.none.wav,ño,fe,go,sil,bi,te,cha,sil1,mi,to,sil2,['-'],,,none,none,,,,si,4,,,,,,,,,,,,,,,3.0,2.0,Catalán,0.0,Castellano,0.0,Inglés,7 ,3.0,2.0,no,no,no,Flauta,10,,,Nada. Todo correcto.,67.0,yes
122,2024-04-14_19h34.19.627,Experiment4_uns,s175,33.0,masculino,right,España,Catalán,Master degree,no,no,B,1,when,L2,unsyncopated,when,when,122,Online_whenL2//d.si1.444.wav,ra,cha,si,sil,te,du,mi,sil1,su,bi,sil2,['catch'],[0.943600000008928],[0.943600000008928],0.444,no_beat,0.4996000000089279,0.4996000000089279,"[""space""]",si,4,,,,,,,,,,,,,,,3.0,2.0,Catalán,0.0,Castellano,0.0,Inglés,7 ,3.0,2.0,no,no,no,Flauta,10,,,Nada. Todo correcto.,67.0,yes
123,2024-04-14_19h34.19.627,Experiment4_uns,s175,33.0,masculino,right,España,Catalán,Master degree,no,no,B,1,when,L2,unsyncopated,when,when,123,Online_whenL2//d.si2.0.wav,si,me,fe,sil,to,ba,ñu,sil1,su,ra,sil2,['catch'],[0.5437999999971908],[0.5437999999971908],0.0,beat,0.5437999999971908,0.5437999999971908,"[""space""]",si,4,,,,,,,,,,,,,,,3.0,2.0,Catalán,0.0,Castellano,0.0,Inglés,7 ,3.0,2.0,no,no,no,Flauta,10,,,Nada. Todo correcto.,67.0,yes
124,2024-04-14_19h34.19.627,Experiment4_uns,s175,33.0,masculino,right,España,Catalán,Master degree,no,no,B,1,when,L2,unsyncopated,when,when,124,Online_whenL2//b.fe31.none.wav,me,si,ñu,sil,su,go,du,sil1,bi,ba,sil2,['-'],,,none,none,,,,fe,2,,,,,,,,,,,,,,,3.0,2.0,Catalán,0.0,Castellano,0.0,Inglés,7 ,3.0,2.0,no,no,no,Flauta,10,,,Nada. Todo correcto.,67.0,yes
125,2024-04-14_19h34.19.627,Experiment4_uns,s175,33.0,masculino,right,España,Catalán,Master degree,no,no,B,1,when,L2,unsyncopated,when,when,125,Online_whenL2//b.fe28.1776.wav,me,su,ba,sil,bi,ño,te,sil1,fe,du,sil2,['catch'],[2.2787000000028],[2.2787000000028],1.776,beat,0.5027000000028001,0.5027000000028001,"[""space""]",fe,2,,,,,,,,,,,,,,,3.0,2.0,Catalán,0.0,Castellano,0.0,Inglés,7 ,3.0,2.0,no,no,no,Flauta,10,,,Nada. Todo correcto.,67.0,yes
126,2024-04-14_19h34.19.627,Experiment4_uns,s175,33.0,masculino,right,España,Catalán,Master degree,no,no,B,1,when,L2,unsyncopated,when,when,126,Online_whenL2//b.fe29.none.wav,ra,ñu,du,sil,ño,bi,to,sil1,mi,su,sil2,['-'],,,none,none,,,,fe,2,,,,,,,,,,,,,,,3.0,2.0,Catalán,0.0,Castellano,0.0,Inglés,7 ,3.0,2.0,no,no,no,Flauta,10,,,Nada. Todo correcto.,67.0,yes
127,2024-04-14_19h34.19.627,Experiment4_uns,s175,33.0,masculino,right,España,Catalán,Master degree,no,no,B,1,when,L2,unsyncopated,when,when,127,Online_whenL2//b.fe30.none.wav,ra,si,su,sil,ñu,go,te,sil1,to,ño,sil2,['-'],,,none,none,,,,fe,2,,,,,,,,,,,,,,,3.0,2.0,Catalán,0.0,Castellano,0.0,Inglés,7 ,3.0,2.0,no,no,no,Flauta,10,,,Nada. Todo correcto.,67.0,yes
128,2024-04-14_19h34.19.627,Experiment4_uns,s175,33.0,masculino,right,España,Catalán,Master degree,no,no,B,1,when,L2,unsyncopated,when,when,128,Online_whenL2//d.si23.none.wav,to,mi,ba,sil,go,du,ñu,sil1,te,ño,sil2,['-'],,,none,none,,,,si,4,,,,,,,,,,,,,,,3.0,2.0,Catalán,0.0,Castellano,0.0,Inglés,7 ,3.0,2.0,no,no,no,Flauta,10,,,Nada. Todo correcto.,67.0,yes
129,2024-04-14_19h34.19.627,Experiment4_uns,s175,33.0,masculino,right,España,Catalán,Master degree,no,no,B,1,when,L2,unsyncopated,when,when,129,Online_whenL2//d.si22.none.wav,te,du,fe,sil,cha,su,ñu,sil1,me,ba,sil2,['-'],,,none,none,,,,si,4,,,,,,,,,,,,,,,3.0,2.0,Catalán,0.0,Castellano,0.0,Inglés,7 ,3.0,2.0,no,no,no,Flauta,10,,,Nada. Todo correcto.,67.0,yes
130,2024-04-14_19h34.19.627,Experiment4_uns,s175,33.0,masculino,right,España,Catalán,Master degree,no,no,B,1,when,L2,unsyncopated,when,when,130,Online_whenL2//d.si20.1998.wav,ba,mi,ñu,sil,cha,to,go,sil1,ra,si,sil2,['catch_delay'],[1.1158000000119193],[1.1158000000119193],1.998,no_beat,1.1158000000119193,1.1158000000119193,,si,4,,,,,,,,,,,,,,,3.0,2.0,Catalán,0.0,Castellano,0.0,Inglés,7 ,3.0,2.0,no,no,no,Flauta,10,,,Nada. Todo correcto.,67.0,yes
131,2024-04-14_19h34.19.627,Experiment4_uns,s175,33.0,masculino,right,España,Catalán,Master degree,no,no,B,1,when,L2,unsyncopated,when,when,131,Online_whenL2//d.si21.none.wav,te,me,bi,sil,go,ñu,to,sil1,ra,ño,sil2,['-'],[0.4498000000119191],[0.4498000000119191],none,none,,,"[""space""]",si,4,,,,,,,,,,,,,,,3.0,2.0,Catalán,0.0,Castellano,0.0,Inglés,7 ,3.0,2.0,no,no,no,Flauta,10,,,Nada. Todo correcto.,67.0,yes
132,2024-04-14_19h34.19.627,Experiment4_uns,s175,33.0,masculino,right,España,Catalán,Master degree,no,no,B,1,when,L2,unsyncopated,when,when,132,Online_whenL2//b.fe21.1332.wav,ñu,mi,go,sil,te,su,fe,sil1,me,cha,sil2,['catch'],[1.916399999990972],[1.916399999990972],1.332,no_beat,0.5843999999909719,0.5843999999909719,"[""space""]",fe,2,,,,,,,,,,,,,,,3.0,2.0,Catalán,0.0,Castellano,0.0,Inglés,7 ,3.0,2.0,no,no,no,Flauta,10,,,Nada. Todo correcto.,67.0,yes
133,2024-04-14_19h34.19.627,Experiment4_uns,s175,33.0,masculino,right,España,Catalán,Master degree,no,no,B,1,when,L2,unsyncopated,when,when,133,Online_whenL2//b.fe23.none.wav,me,ba,du,sil,ra,to,bi,sil1,si,ñu,sil2,['-'],,,none,none,,,,fe,2,,,,,,,,,,,,,,,3.0,2.0,Catalán,0.0,Castellano,0.0,Inglés,7 ,3.0,2.0,no,no,no,Flauta,10,,,Nada. Todo correcto.,67.0,yes
134,2024-04-14_19h34.19.627,Experiment4_uns,s175,33.0,masculino,right,España,Catalán,Master degree,no,no,B,1,when,L2,unsyncopated,when,when,134,Online_whenL2//b.fe20.1332.wav,cha,ño,du,sil,si,me,fe,sil1,te,mi,sil2,['catch'],[1.9770999999941523],[1.9770999999941523],1.332,no_beat,0.6450999999941522,0.6450999999941522,"[""space""]",fe,2,,,,,,,,,,,,,,,3.0,2.0,Catalán,0.0,Castellano,0.0,Inglés,7 ,3.0,2.0,no,no,no,Flauta,10,,,Nada. Todo correcto.,67.0,yes
135,2024-04-14_19h34.19.627,Experiment4_uns,s175,33.0,masculino,right,España,Catalán,Master degree,no,no,B,1,when,L2,unsyncopated,when,when,135,Online_whenL2//b.fe22.none.wav,ño,ra,go,sil,ñu,bi,su,sil1,to,te,sil2,['-'],,,none,none,,,,fe,2,,,,,,,,,,,,,,,3.0,2.0,Catalán,0.0,Castellano,0.0,Inglés,7 ,3.0,2.0,no,no,no,Flauta,10,,,Nada. Todo correcto.,67.0,yes
136,2024-04-14_19h34.19.627,Experiment4_uns,s175,33.0,masculino,right,España,Catalán,Master degree,no,no,B,2,conjunction_syn,L3,syncopated,s2,r2,0,Online_conjL3_syn//b.ñe.sa11.666.1554.wav,li,fu,ga,ñe,sil,do,ka,sa,sil1,ko,sil2,['miss'],,,1.554,no_beat,,,,sa,2,,,,,,,,,,,,,,,3.0,2.0,Catalán,0.0,Castellano,0.0,Inglés,7 ,3.0,2.0,no,no,no,Flauta,10,,,Nada. Todo correcto.,67.0,yes
137,2024-04-14_19h34.19.627,Experiment4_uns,s175,33.0,masculino,right,España,Catalán,Master degree,no,no,B,2,conjunction_syn,L3,syncopated,s1,r2,1,Online_conjL3_syn//b.ñe.sa9.0.666.wav,ñe,ko,je,sa,sil,fu,li,di,sil1,ji,sil2,['catch'],[1.762000000000171],[1.762000000000171],0.666,no_beat,1.096000000000171,1.096000000000171,"[""space""]",sa,2,,,,,,,,,,,,,,,3.0,2.0,Catalán,0.0,Castellano,0.0,Inglés,7 ,3.0,2.0,no,no,no,Flauta,10,,,Nada. Todo correcto.,67.0,yes
138,2024-04-14_19h34.19.627,Experiment4_uns,s175,33.0,masculino,right,España,Catalán,Master degree,no,no,B,2,conjunction_syn,L3,syncopated,s1,r1,2,Online_conjL3_syn//b.ñe.sa10.none.none.wav,chu,ji,li,mo,sil,je,le,gu,sil1,do,sil2,['-'],,,none,none,,,,sa,2,,,,,,,,,,,,,,,3.0,2.0,Catalán,0.0,Castellano,0.0,Inglés,7 ,3.0,2.0,no,no,no,Flauta,10,,,Nada. Todo correcto.,67.0,yes
139,2024-04-14_19h34.19.627,Experiment4_uns,s175,33.0,masculino,right,España,Catalán,Master degree,no,no,B,2,conjunction_syn,L3,syncopated,s1,r2,3,Online_conjL3_syn//b.ñe.sa8.0.666.wav,ñe,do,di,sa,sil,je,ko,le,sil1,gu,sil2,['catch'],[1.1970999999941796],[1.1970999999941796],0.666,no_beat,0.5310999999941796,0.5310999999941796,"[""space""]",sa,2,,,,,,,,,,,,,,,3.0,2.0,Catalán,0.0,Castellano,0.0,Inglés,7 ,3.0,2.0,no,no,no,Flauta,10,,,Nada. Todo correcto.,67.0,yes
140,2024-04-14_19h34.19.627,Experiment4_uns,s175,33.0,masculino,right,España,Catalán,Master degree,no,no,B,2,conjunction_syn,L3,syncopated,s2,r1,4,Online_conjL3_syn//c.gu.je31.none.none.wav,do,li,ga,chu,sil,ka,ko,mo,sil1,fu,sil2,['-'],,,none,none,,,,je,3,,,,,,,,,,,,,,,3.0,2.0,Catalán,0.0,Castellano,0.0,Inglés,7 ,3.0,2.0,no,no,no,Flauta,10,,,Nada. Todo correcto.,67.0,yes
141,2024-04-14_19h34.19.627,Experiment4_uns,s175,33.0,masculino,right,España,Catalán,Master degree,no,no,B,2,conjunction_syn,L3,syncopated,s2,r1,5,Online_conjL3_syn//c.gu.je29.444.1110.wav,ji,li,gu,chu,sil,je,ko,mo,sil1,do,sil2,['catch'],[1.6377000000029511],[1.6377000000029511],1.11,no_beat,0.527700000002951,0.527700000002951,"[""space""]",je,3,,,,,,,,,,,,,,,3.0,2.0,Catalán,0.0,Castellano,0.0,Inglés,7 ,3.0,2.0,no,no,no,Flauta,10,,,Nada. Todo correcto.,67.0,yes
142,2024-04-14_19h34.19.627,Experiment4_uns,s175,33.0,masculino,right,España,Catalán,Master degree,no,no,B,2,conjunction_syn,L3,syncopated,s2,r1,6,Online_conjL3_syn//c.gu.je30.none.none.wav,fu,di,ga,chu,sil,ko,li,mo,sil1,ka,sil2,['-'],,,none,none,,,,je,3,,,,,,,,,,,,,,,3.0,2.0,Catalán,0.0,Castellano,0.0,Inglés,7 ,3.0,2.0,no,no,no,Flauta,10,,,Nada. Todo correcto.,67.0,yes
143,2024-04-14_19h34.19.627,Experiment4_uns,s175,33.0,masculino,right,España,Catalán,Master degree,no,no,B,2,conjunction_syn,L3,syncopated,s2,r1,7,Online_conjL3_syn//c.gu.je28.none.none.wav,ga,li,ka,chu,sil,di,ji,mo,sil1,do,sil2,['-'],,,none,none,,,,je,3,,,,,,,,,,,,,,,3.0,2.0,Catalán,0.0,Castellano,0.0,Inglés,7 ,3.0,2.0,no,no,no,Flauta,10,,,Nada. Todo correcto.,67.0,yes
144,2024-04-14_19h34.19.627,Experiment4_uns,s175,33.0,masculino,right,España,Catalán,Master degree,no,no,B,2,conjunction_syn,L3,syncopated,s1,r1,8,Online_conjL3_syn//c.gu.je1.222.1332.wav,chu,gu,li,mo,sil,di,je,fu,sil1,ka,sil2,['catch'],[1.8432000000029802],[1.8432000000029802],1.332,no_beat,0.5112000000029802,0.5112000000029802,"[""space""]",je,3,,,,,,,,,,,,,,,3.0,2.0,Catalán,0.0,Castellano,0.0,Inglés,7 ,3.0,2.0,no,no,no,Flauta,10,,,Nada. Todo correcto.,67.0,yes
145,2024-04-14_19h34.19.627,Experiment4_uns,s175,33.0,masculino,right,España,Catalán,Master degree,no,no,B,2,conjunction_syn,L3,syncopated,s1,r1,9,Online_conjL3_syn//c.gu.je0.1332.444.wav,chu,ga,je,mo,sil,ko,gu,ji,sil1,do,sil2,['catch'],[1.0286999999880209],[1.0286999999880209],0.444,no_beat,0.5846999999880209,0.5846999999880209,"[""space""]",je,3,,,,,,,,,,,,,,,3.0,2.0,Catalán,0.0,Castellano,0.0,Inglés,7 ,3.0,2.0,no,no,no,Flauta,10,,,Nada. Todo correcto.,67.0,yes
146,2024-04-14_19h34.19.627,Experiment4_uns,s175,33.0,masculino,right,España,Catalán,Master degree,no,no,B,2,conjunction_syn,L3,syncopated,s1,r1,10,Online_conjL3_syn//c.gu.je3.none.none.wav,chu,ka,li,mo,sil,ga,le,di,sil1,ji,sil2,['-'],,,none,none,,,,je,3,,,,,,,,,,,,,,,3.0,2.0,Catalán,0.0,Castellano,0.0,Inglés,7 ,3.0,2.0,no,no,no,Flauta,10,,,Nada. Todo correcto.,67.0,yes
147,2024-04-14_19h34.19.627,Experiment4_uns,s175,33.0,masculino,right,España,Catalán,Master degree,no,no,B,2,conjunction_syn,L3,syncopated,s1,r2,11,Online_conjL3_syn//c.gu.je2.none.none.wav,ñe,ka,ga,sa,sil,li,ji,do,sil1,le,sil2,['-'],,,none,none,,,,je,3,,,,,,,,,,,,,,,3.0,2.0,Catalán,0.0,Castellano,0.0,Inglés,7 ,3.0,2.0,no,no,no,Flauta,10,,,Nada. Todo correcto.,67.0,yes
148,2024-04-14_19h34.19.627,Experiment4_uns,s175,33.0,masculino,right,España,Catalán,Master degree,no,no,B,2,conjunction_syn,L3,syncopated,s2,r1,12,Online_conjL3_syn//b.ñe.sa23.none.none.wav,ka,le,di,chu,sil,je,gu,mo,sil1,ji,sil2,['-'],,,none,none,,,,sa,2,,,,,,,,,,,,,,,3.0,2.0,Catalán,0.0,Castellano,0.0,Inglés,7 ,3.0,2.0,no,no,no,Flauta,10,,,Nada. Todo correcto.,67.0,yes
149,2024-04-14_19h34.19.627,Experiment4_uns,s175,33.0,masculino,right,España,Catalán,Master degree,no,no,B,2,conjunction_syn,L3,syncopated,s1,r1,13,Online_conjL3_syn//b.ñe.sa22.none.none.wav,chu,di,li,mo,sil,le,fu,gu,sil1,je,sil2,['-'],,,none,none,,,,sa,2,,,,,,,,,,,,,,,3.0,2.0,Catalán,0.0,Castellano,0.0,Inglés,7 ,3.0,2.0,no,no,no,Flauta,10,,,Nada. Todo correcto.,67.0,yes
150,2024-04-14_19h34.19.627,Experiment4_uns,s175,33.0,masculino,right,España,Catalán,Master degree,no,no,B,2,conjunction_syn,L3,syncopated,s2,r2,14,Online_conjL3_syn//b.ñe.sa20.666.1554.wav,le,di,ka,ñe,sil,li,je,sa,sil1,ko,sil2,['catch'],[1.9977999999969143],[1.9977999999969143],1.554,no_beat,0.4437999999969142,0.4437999999969142,"[""space""]",sa,2,,,,,,,,,,,,,,,3.0,2.0,Catalán,0.0,Castellano,0.0,Inglés,7 ,3.0,2.0,no,no,no,Flauta,10,,,Nada. Todo correcto.,67.0,yes
151,2024-04-14_19h34.19.627,Experiment4_uns,s175,33.0,masculino,right,España,Catalán,Master degree,no,no,B,2,conjunction_syn,L3,syncopated,s2,r2,15,Online_conjL3_syn//b.ñe.sa21.666.1554.wav,le,di,gu,ñe,sil,ga,je,sa,sil1,li,sil2,['catch'],[2.07469999998807],[2.07469999998807],1.554,no_beat,0.5206999999880699,0.5206999999880699,"[""space""]",sa,2,,,,,,,,,,,,,,,3.0,2.0,Catalán,0.0,Castellano,0.0,Inglés,7 ,3.0,2.0,no,no,no,Flauta,10,,,Nada. Todo correcto.,67.0,yes
152,2024-04-14_19h34.19.627,Experiment4_uns,s175,33.0,masculino,right,España,Catalán,Master degree,no,no,B,2,conjunction_syn,L3,syncopated,s2,r2,16,Online_conjL3_syn//d.ji.li29.none.none.wav,ka,gu,di,ñe,sil,ko,ga,sa,sil1,le,sil2,['false alarm'],[2.132799999996905],[2.132799999996905],none,none,,,"[""space""]",li,4,,,,,,,,,,,,,,,3.0,2.0,Catalán,0.0,Castellano,0.0,Inglés,7 ,3.0,2.0,no,no,no,Flauta,10,,,Nada. Todo correcto.,67.0,yes
153,2024-04-14_19h34.19.627,Experiment4_uns,s175,33.0,masculino,right,España,Catalán,Master degree,no,no,B,2,conjunction_syn,L3,syncopated,s1,r2,17,Online_conjL3_syn//d.ji.li30.none.none.wav,ñe,je,fu,sa,sil,ga,do,le,sil1,di,sil2,['-'],,,none,none,,,,li,4,,,,,,,,,,,,,,,3.0,2.0,Catalán,0.0,Castellano,0.0,Inglés,7 ,3.0,2.0,no,no,no,Flauta,10,,,Nada. Todo correcto.,67.0,yes
154,2024-04-14_19h34.19.627,Experiment4_uns,s175,33.0,masculino,right,España,Catalán,Master degree,no,no,B,2,conjunction_syn,L3,syncopated,s2,r2,18,Online_conjL3_syn//d.ji.li28.none.none.wav,fu,ka,ga,ñe,sil,di,gu,sa,sil1,je,sil2,['-'],,,none,none,,,,li,4,,,,,,,,,,,,,,,3.0,2.0,Catalán,0.0,Castellano,0.0,Inglés,7 ,3.0,2.0,no,no,no,Flauta,10,,,Nada. Todo correcto.,67.0,yes
155,2024-04-14_19h34.19.627,Experiment4_uns,s175,33.0,masculino,right,España,Catalán,Master degree,no,no,B,2,conjunction_syn,L3,syncopated,s2,r1,19,Online_conjL3_syn//d.ji.li31.0.222.wav,ji,li,ko,chu,sil,do,ga,mo,sil1,je,sil2,['catch'],[0.7225999999939177],[0.7225999999939177],0.222,no_beat,0.5005999999939177,0.5005999999939177,"[""space""]",li,4,,,,,,,,,,,,,,,3.0,2.0,Catalán,0.0,Castellano,0.0,Inglés,7 ,3.0,2.0,no,no,no,Flauta,10,,,Nada. Todo correcto.,67.0,yes
156,2024-04-14_19h34.19.627,Experiment4_uns,s175,33.0,masculino,right,España,Catalán,Master degree,no,no,B,2,conjunction_syn,L3,syncopated,s2,r2,20,Online_conjL3_syn//d.ji.li19.none.none.wav,je,le,ko,ñe,sil,ga,do,sa,sil1,gu,sil2,['-'],,,none,none,,,,li,4,,,,,,,,,,,,,,,3.0,2.0,Catalán,0.0,Castellano,0.0,Inglés,7 ,3.0,2.0,no,no,no,Flauta,10,,,Nada. Todo correcto.,67.0,yes
157,2024-04-14_19h34.19.627,Experiment4_uns,s175,33.0,masculino,right,España,Catalán,Master degree,no,no,B,2,conjunction_syn,L3,syncopated,s2,r2,21,Online_conjL3_syn//d.ji.li17.1332.222.wav,fu,li,do,ñe,sil,di,ji,sa,sil1,je,sil2,['catch'],[0.7732000000030439],[0.7732000000030439],0.222,no_beat,0.5512000000030439,0.5512000000030439,"[""space""]",li,4,,,,,,,,,,,,,,,3.0,2.0,Catalán,0.0,Castellano,0.0,Inglés,7 ,3.0,2.0,no,no,no,Flauta,10,,,Nada. Todo correcto.,67.0,yes
158,2024-04-14_19h34.19.627,Experiment4_uns,s175,33.0,masculino,right,España,Catalán,Master degree,no,no,B,2,conjunction_syn,L3,syncopated,s1,r1,22,Online_conjL3_syn//d.ji.li18.1554.444.wav,chu,ga,li,mo,sil,je,do,ji,sil1,fu,sil2,['catch'],[0.9428999999911412],[0.9428999999911412],0.444,no_beat,0.4988999999911411,0.4988999999911411,"[""space""]",li,4,,,,,,,,,,,,,,,3.0,2.0,Catalán,0.0,Castellano,0.0,Inglés,7 ,3.0,2.0,no,no,no,Flauta,10,,,Nada. Todo correcto.,67.0,yes
159,2024-04-14_19h34.19.627,Experiment4_uns,s175,33.0,masculino,right,España,Catalán,Master degree,no,no,B,2,conjunction_syn,L3,syncopated,s1,r2,23,Online_conjL3_syn//d.ji.li16.none.none.wav,ñe,gu,le,sa,sil,do,ga,ko,sil1,fu,sil2,['-'],,,none,none,,,,li,4,,,,,,,,,,,,,,,3.0,2.0,Catalán,0.0,Castellano,0.0,Inglés,7 ,3.0,2.0,no,no,no,Flauta,10,,,Nada. Todo correcto.,67.0,yes
160,2024-04-14_19h34.19.627,Experiment4_uns,s175,33.0,masculino,right,España,Catalán,Master degree,no,no,B,2,conjunction_syn,L3,syncopated,s2,r1,24,Online_conjL3_syn//c.gu.je16.1332.444.wav,fu,ga,je,chu,sil,do,gu,mo,sil1,ji,sil2,['miss'],,,0.444,no_beat,,,,je,3,,,,,,,,,,,,,,,3.0,2.0,Catalán,0.0,Castellano,0.0,Inglés,7 ,3.0,2.0,no,no,no,Flauta,10,,,Nada. Todo correcto.,67.0,yes
161,2024-04-14_19h34.19.627,Experiment4_uns,s175,33.0,masculino,right,España,Catalán,Master degree,no,no,B,2,conjunction_syn,L3,syncopated,s2,r1,25,Online_conjL3_syn//c.gu.je18.1110.0.wav,je,di,ka,chu,sil,gu,ko,mo,sil1,li,sil2,['catch'],[0.7428000000120392],[0.7428000000120392],0.0,beat,0.7428000000120392,0.7428000000120392,"[""space""]",je,3,,,,,,,,,,,,,,,3.0,2.0,Catalán,0.0,Castellano,0.0,Inglés,7 ,3.0,2.0,no,no,no,Flauta,10,,,Nada. Todo correcto.,67.0,yes
162,2024-04-14_19h34.19.627,Experiment4_uns,s175,33.0,masculino,right,España,Catalán,Master degree,no,no,B,2,conjunction_syn,L3,syncopated,s2,r2,26,Online_conjL3_syn//c.gu.je19.none.none.wav,fu,le,li,ñe,sil,ji,ka,sa,sil1,di,sil2,['-'],,,none,none,,,,je,3,,,,,,,,,,,,,,,3.0,2.0,Catalán,0.0,Castellano,0.0,Inglés,7 ,3.0,2.0,no,no,no,Flauta,10,,,Nada. Todo correcto.,67.0,yes
163,2024-04-14_19h34.19.627,Experiment4_uns,s175,33.0,masculino,right,España,Catalán,Master degree,no,no,B,2,conjunction_syn,L3,syncopated,s2,r2,27,Online_conjL3_syn//c.gu.je17.222.1110.wav,fu,gu,le,ñe,sil,je,ka,sa,sil1,ko,sil2,['catch'],[1.6920000000000073],[1.6920000000000073],1.11,no_beat,0.5820000000000072,0.5820000000000072,"[""space""]",je,3,,,,,,,,,,,,,,,3.0,2.0,Catalán,0.0,Castellano,0.0,Inglés,7 ,3.0,2.0,no,no,no,Flauta,10,,,Nada. Todo correcto.,67.0,yes
164,2024-04-14_19h34.19.627,Experiment4_uns,s175,33.0,masculino,right,España,Catalán,Master degree,no,no,B,2,conjunction_syn,L3,syncopated,s2,r2,28,Online_conjL3_syn//b.ñe.sa7.666.1554.wav,ji,je,ko,ñe,sil,gu,ga,sa,sil1,do,sil2,['catch'],[2.0522999999971034],[2.0522999999971034],1.554,no_beat,0.4982999999971034,0.4982999999971034,"[""space""]",sa,2,,,,,,,,,,,,,,,3.0,2.0,Catalán,0.0,Castellano,0.0,Inglés,7 ,3.0,2.0,no,no,no,Flauta,10,,,Nada. Todo correcto.,67.0,yes
165,2024-04-14_19h34.19.627,Experiment4_uns,s175,33.0,masculino,right,España,Catalán,Master degree,no,no,B,2,conjunction_syn,L3,syncopated,s2,r1,29,Online_conjL3_syn//b.ñe.sa6.none.none.wav,le,ka,ko,chu,sil,do,li,mo,sil1,gu,sil2,['-'],,,none,none,,,,sa,2,,,,,,,,,,,,,,,3.0,2.0,Catalán,0.0,Castellano,0.0,Inglés,7 ,3.0,2.0,no,no,no,Flauta,10,,,Nada. Todo correcto.,67.0,yes
166,2024-04-14_19h34.19.627,Experiment4_uns,s175,33.0,masculino,right,España,Catalán,Master degree,no,no,B,2,conjunction_syn,L3,syncopated,s2,r1,30,Online_conjL3_syn//b.ñe.sa5.none.none.wav,le,fu,do,chu,sil,li,ga,mo,sil1,ka,sil2,['-'],,,none,none,,,,sa,2,,,,,,,,,,,,,,,3.0,2.0,Catalán,0.0,Castellano,0.0,Inglés,7 ,3.0,2.0,no,no,no,Flauta,10,,,Nada. Todo correcto.,67.0,yes
167,2024-04-14_19h34.19.627,Experiment4_uns,s175,33.0,masculino,right,España,Catalán,Master degree,no,no,B,2,conjunction_syn,L3,syncopated,s2,r2,31,Online_conjL3_syn//b.ñe.sa4.666.1554.wav,li,di,ka,ñe,sil,do,gu,sa,sil1,ji,sil2,['catch'],[2.0953999999910593],[2.0953999999910593],1.554,no_beat,0.5413999999910593,0.5413999999910593,"[""space""]",sa,2,,,,,,,,,,,,,,,3.0,2.0,Catalán,0.0,Castellano,0.0,Inglés,7 ,3.0,2.0,no,no,no,Flauta,10,,,Nada. Todo correcto.,67.0,yes
168,2024-04-14_19h34.19.627,Experiment4_uns,s175,33.0,masculino,right,España,Catalán,Master degree,no,no,B,2,conjunction_syn,L3,syncopated,s1,r2,32,Online_conjL3_syn//b.ñe.sa1.0.666.wav,ñe,di,li,sa,sil,ga,ko,je,sil1,ji,sil2,['catch'],[1.3108999999910793],[1.3108999999910793],0.666,no_beat,0.6448999999910793,0.6448999999910793,"[""space""]",sa,2,,,,,,,,,,,,,,,3.0,2.0,Catalán,0.0,Castellano,0.0,Inglés,7 ,3.0,2.0,no,no,no,Flauta,10,,,Nada. Todo correcto.,67.0,yes
169,2024-04-14_19h34.19.627,Experiment4_uns,s175,33.0,masculino,right,España,Catalán,Master degree,no,no,B,2,conjunction_syn,L3,syncopated,s1,r2,33,Online_conjL3_syn//b.ñe.sa3.0.666.wav,ñe,li,do,sa,sil,gu,ka,fu,sil1,ko,sil2,['catch'],[1.1614000000058695],[1.1614000000058695],0.666,no_beat,0.4954000000058695,0.4954000000058695,"[""space""]",sa,2,,,,,,,,,,,,,,,3.0,2.0,Catalán,0.0,Castellano,0.0,Inglés,7 ,3.0,2.0,no,no,no,Flauta,10,,,Nada. Todo correcto.,67.0,yes
170,2024-04-14_19h34.19.627,Experiment4_uns,s175,33.0,masculino,right,España,Catalán,Master degree,no,no,B,2,conjunction_syn,L3,syncopated,s1,r1,34,Online_conjL3_syn//b.ñe.sa2.none.none.wav,chu,fu,di,mo,sil,do,ga,li,sil1,ko,sil2,['-'],,,none,none,,,,sa,2,,,,,,,,,,,,,,,3.0,2.0,Catalán,0.0,Castellano,0.0,Inglés,7 ,3.0,2.0,no,no,no,Flauta,10,,,Nada. Todo correcto.,67.0,yes
171,2024-04-14_19h34.19.627,Experiment4_uns,s175,33.0,masculino,right,España,Catalán,Master degree,no,no,B,2,conjunction_syn,L3,syncopated,s1,r2,35,Online_conjL3_syn//b.ñe.sa0.0.666.wav,ñe,ji,fu,sa,sil,li,do,je,sil1,gu,sil2,['catch'],[1.2057999999972253],[1.2057999999972253],0.666,no_beat,0.5397999999972253,0.5397999999972253,"[""space""]",sa,2,,,,,,,,,,,,,,,3.0,2.0,Catalán,0.0,Castellano,0.0,Inglés,7 ,3.0,2.0,no,no,no,Flauta,10,,,Nada. Todo correcto.,67.0,yes
172,2024-04-14_19h34.19.627,Experiment4_uns,s175,33.0,masculino,right,España,Catalán,Master degree,no,no,B,2,conjunction_syn,L3,syncopated,s2,r1,36,Online_conjL3_syn//d.ji.li21.none.none.wav,ko,gu,je,chu,sil,ka,ga,mo,sil1,di,sil2,['-'],,,none,none,,,,li,4,,,,,,,,,,,,,,,3.0,2.0,Catalán,0.0,Castellano,0.0,Inglés,7 ,3.0,2.0,no,no,no,Flauta,10,,,Nada. Todo correcto.,67.0,yes
173,2024-04-14_19h34.19.627,Experiment4_uns,s175,33.0,masculino,right,España,Catalán,Master degree,no,no,B,2,conjunction_syn,L3,syncopated,s2,r1,37,Online_conjL3_syn//d.ji.li20.none.none.wav,di,le,ko,chu,sil,ka,do,mo,sil1,gu,sil2,['-'],,,none,none,,,,li,4,,,,,,,,,,,,,,,3.0,2.0,Catalán,0.0,Castellano,0.0,Inglés,7 ,3.0,2.0,no,no,no,Flauta,10,,,Nada. Todo correcto.,67.0,yes
174,2024-04-14_19h34.19.627,Experiment4_uns,s175,33.0,masculino,right,España,Catalán,Master degree,no,no,B,2,conjunction_syn,L3,syncopated,s2,r2,38,Online_conjL3_syn//d.ji.li22.0.1110.wav,ji,do,le,ñe,sil,li,ga,sa,sil1,je,sil2,['catch'],[1.639400000005935],[1.639400000005935],1.11,no_beat,0.5294000000059349,0.5294000000059349,"[""space""]",li,4,,,,,,,,,,,,,,,3.0,2.0,Catalán,0.0,Castellano,0.0,Inglés,7 ,3.0,2.0,no,no,no,Flauta,10,,,Nada. Todo correcto.,67.0,yes
175,2024-04-14_19h34.19.627,Experiment4_uns,s175,33.0,masculino,right,España,Catalán,Master degree,no,no,B,2,conjunction_syn,L3,syncopated,s1,r2,39,Online_conjL3_syn//d.ji.li23.none.none.wav,ñe,ga,ko,sa,sil,fu,do,le,sil1,gu,sil2,['-'],,,none,none,,,,li,4,,,,,,,,,,,,,,,3.0,2.0,Catalán,0.0,Castellano,0.0,Inglés,7 ,3.0,2.0,no,no,no,Flauta,10,,,Nada. Todo correcto.,67.0,yes
176,2024-04-14_19h34.19.627,Experiment4_uns,s175,33.0,masculino,right,España,Catalán,Master degree,no,no,B,2,conjunction_syn,L3,syncopated,s1,r1,40,Online_conjL3_syn//a.chu.mo13.0.666.wav,chu,ji,fu,mo,sil,je,li,do,sil1,ka,sil2,['catch'],[0.9817000000030021],[0.9817000000030021],0.0,beat,0.981700000003002,0.981700000003002,"[""space""]",chu,1,,,,,,,,,,,,,,,3.0,2.0,Catalán,0.0,Castellano,0.0,Inglés,7 ,3.0,2.0,no,no,no,Flauta,10,,,Nada. Todo correcto.,67.0,yes
177,2024-04-14_19h34.19.627,Experiment4_uns,s175,33.0,masculino,right,España,Catalán,Master degree,no,no,B,2,conjunction_syn,L3,syncopated,s1,r1,41,Online_conjL3_syn//a.chu.mo15.0.666.wav,chu,le,gu,mo,sil,do,li,ka,sil1,ji,sil2,['catch'],[0.6213000000118427],[0.6213000000118427],0.0,beat,0.6213000000118427,0.6213000000118427,"[""space""]",chu,1,,,,,,,,,,,,,,,3.0,2.0,Catalán,0.0,Castellano,0.0,Inglés,7 ,3.0,2.0,no,no,no,Flauta,10,,,Nada. Todo correcto.,67.0,yes
178,2024-04-14_19h34.19.627,Experiment4_uns,s175,33.0,masculino,right,España,Catalán,Master degree,no,no,B,2,conjunction_syn,L3,syncopated,s1,r2,42,Online_conjL3_syn//a.chu.mo12.none.none.wav,ñe,je,do,sa,sil,ka,le,ji,sil1,ga,sil2,['-'],,,none,none,,,,chu,1,,,,,,,,,,,,,,,3.0,2.0,Catalán,0.0,Castellano,0.0,Inglés,7 ,3.0,2.0,no,no,no,Flauta,10,,,Nada. Todo correcto.,67.0,yes
179,2024-04-14_19h34.19.627,Experiment4_uns,s175,33.0,masculino,right,España,Catalán,Master degree,no,no,B,2,conjunction_syn,L3,syncopated,s1,r1,43,Online_conjL3_syn//a.chu.mo14.0.666.wav,chu,ka,li,mo,sil,ga,je,ji,sil1,do,sil2,['catch'],[0.48770000000308755],[0.48770000000308755],0.0,beat,0.4877000000030875,0.4877000000030875,"[""space""]",chu,1,,,,,,,,,,,,,,,3.0,2.0,Catalán,0.0,Castellano,0.0,Inglés,7 ,3.0,2.0,no,no,no,Flauta,10,,,Nada. Todo correcto.,67.0,yes
180,2024-04-14_19h34.19.627,Experiment4_uns,s175,33.0,masculino,right,España,Catalán,Master degree,no,no,B,2,conjunction_syn,L3,syncopated,s2,r1,44,Online_conjL3_syn//a.chu.mo9.666.1554.wav,ka,ko,di,chu,sil,li,ga,mo,sil1,gu,sil2,['catch'],[1.2834000000059405],[1.2834000000059405],0.666,no_beat,0.6174000000059404,0.6174000000059404,"[""space""]",chu,1,,,,,,,,,,,,,,,3.0,2.0,Catalán,0.0,Castellano,0.0,Inglés,7 ,3.0,2.0,no,no,no,Flauta,10,,,Nada. Todo correcto.,67.0,yes
181,2024-04-14_19h34.19.627,Experiment4_uns,s175,33.0,masculino,right,España,Catalán,Master degree,no,no,B,2,conjunction_syn,L3,syncopated,s1,r2,45,Online_conjL3_syn//a.chu.mo10.none.none.wav,ñe,je,gu,sa,sil,ko,fu,ji,sil1,di,sil2,['-'],,,none,none,,,,chu,1,,,,,,,,,,,,,,,3.0,2.0,Catalán,0.0,Castellano,0.0,Inglés,7 ,3.0,2.0,no,no,no,Flauta,10,,,Nada. Todo correcto.,67.0,yes
182,2024-04-14_19h34.19.627,Experiment4_uns,s175,33.0,masculino,right,España,Catalán,Master degree,no,no,B,2,conjunction_syn,L3,syncopated,s2,r2,46,Online_conjL3_syn//a.chu.mo11.none.none.wav,ka,di,je,ñe,sil,ga,ko,sa,sil1,ji,sil2,['-'],,,none,none,,,,chu,1,,,,,,,,,,,,,,,3.0,2.0,Catalán,0.0,Castellano,0.0,Inglés,7 ,3.0,2.0,no,no,no,Flauta,10,,,Nada. Todo correcto.,67.0,yes
183,2024-04-14_19h34.19.627,Experiment4_uns,s175,33.0,masculino,right,España,Catalán,Master degree,no,no,B,2,conjunction_syn,L3,syncopated,s1,r2,47,Online_conjL3_syn//a.chu.mo8.none.none.wav,ñe,ga,fu,sa,sil,ji,li,je,sil1,le,sil2,['-'],,,none,none,,,,chu,1,,,,,,,,,,,,,,,3.0,2.0,Catalán,0.0,Castellano,0.0,Inglés,7 ,3.0,2.0,no,no,no,Flauta,10,,,Nada. Todo correcto.,67.0,yes
184,2024-04-14_19h34.19.627,Experiment4_uns,s175,33.0,masculino,right,España,Catalán,Master degree,no,no,B,2,conjunction_syn,L3,syncopated,s1,r2,48,Online_conjL3_syn//a.chu.mo19.none.none.wav,ñe,di,je,sa,sil,ga,do,fu,sil1,ji,sil2,['-'],,,none,none,,,,chu,1,,,,,,,,,,,,,,,3.0,2.0,Catalán,0.0,Castellano,0.0,Inglés,7 ,3.0,2.0,no,no,no,Flauta,10,,,Nada. Todo correcto.,67.0,yes
185,2024-04-14_19h34.19.627,Experiment4_uns,s175,33.0,masculino,right,España,Catalán,Master degree,no,no,B,2,conjunction_syn,L3,syncopated,s1,r2,49,Online_conjL3_syn//a.chu.mo18.none.none.wav,ñe,ka,gu,sa,sil,ko,fu,je,sil1,ga,sil2,['-'],,,none,none,,,,chu,1,,,,,,,,,,,,,,,3.0,2.0,Catalán,0.0,Castellano,0.0,Inglés,7 ,3.0,2.0,no,no,no,Flauta,10,,,Nada. Todo correcto.,67.0,yes
186,2024-04-14_19h34.19.627,Experiment4_uns,s175,33.0,masculino,right,España,Catalán,Master degree,no,no,B,2,conjunction_syn,L3,syncopated,s2,r1,50,Online_conjL3_syn//a.chu.mo16.666.1554.wav,li,je,fu,chu,sil,do,le,mo,sil1,ka,sil2,['catch'],[1.163000000000011],[1.163000000000011],0.666,no_beat,0.4970000000000109,0.4970000000000109,"[""space""]",chu,1,,,,,,,,,,,,,,,3.0,2.0,Catalán,0.0,Castellano,0.0,Inglés,7 ,3.0,2.0,no,no,no,Flauta,10,,,Nada. Todo correcto.,67.0,yes
187,2024-04-14_19h34.19.627,Experiment4_uns,s175,33.0,masculino,right,España,Catalán,Master degree,no,no,B,2,conjunction_syn,L3,syncopated,s1,r2,51,Online_conjL3_syn//a.chu.mo17.none.none.wav,ñe,do,ga,sa,sil,fu,je,ji,sil1,ko,sil2,['-'],,,none,none,,,,chu,1,,,,,,,,,,,,,,,3.0,2.0,Catalán,0.0,Castellano,0.0,Inglés,7 ,3.0,2.0,no,no,no,Flauta,10,,,Nada. Todo correcto.,67.0,yes
188,2024-04-14_19h34.19.627,Experiment4_uns,s175,33.0,masculino,right,España,Catalán,Master degree,no,no,B,2,conjunction_syn,L3,syncopated,s2,r1,52,Online_conjL3_syn//c.gu.je9.1332.0.wav,je,le,ko,chu,sil,ka,gu,mo,sil1,ji,sil2,['catch'],[0.8309000000058404],[0.8309000000058404],0.0,beat,0.8309000000058404,0.8309000000058404,"[""space""]",je,3,,,,,,,,,,,,,,,3.0,2.0,Catalán,0.0,Castellano,0.0,Inglés,7 ,3.0,2.0,no,no,no,Flauta,10,,,Nada. Todo correcto.,67.0,yes
189,2024-04-14_19h34.19.627,Experiment4_uns,s175,33.0,masculino,right,España,Catalán,Master degree,no,no,B,2,conjunction_syn,L3,syncopated,s1,r1,53,Online_conjL3_syn//c.gu.je10.none.none.wav,chu,di,do,mo,sil,ko,ga,ji,sil1,ka,sil2,['-'],,,none,none,,,,je,3,,,,,,,,,,,,,,,3.0,2.0,Catalán,0.0,Castellano,0.0,Inglés,7 ,3.0,2.0,no,no,no,Flauta,10,,,Nada. Todo correcto.,67.0,yes
190,2024-04-14_19h34.19.627,Experiment4_uns,s175,33.0,masculino,right,España,Catalán,Master degree,no,no,B,2,conjunction_syn,L3,syncopated,s1,r2,54,Online_conjL3_syn//c.gu.je11.222.1110.wav,ñe,gu,ka,sa,sil,je,fu,ji,sil1,le,sil2,['catch'],[1.6877999999969688],[1.6877999999969688],1.11,no_beat,0.5777999999969687,0.5777999999969687,"[""space""]",je,3,,,,,,,,,,,,,,,3.0,2.0,Catalán,0.0,Castellano,0.0,Inglés,7 ,3.0,2.0,no,no,no,Flauta,10,,,Nada. Todo correcto.,67.0,yes
191,2024-04-14_19h34.19.627,Experiment4_uns,s175,33.0,masculino,right,España,Catalán,Master degree,no,no,B,2,conjunction_syn,L3,syncopated,s1,r1,55,Online_conjL3_syn//c.gu.je8.222.1110.wav,chu,gu,do,mo,sil,je,ga,ko,sil1,ka,sil2,['catch'],[1.6855999999941105],[1.6855999999941105],1.11,no_beat,0.5755999999941104,0.5755999999941104,"[""space""]",je,3,,,,,,,,,,,,,,,3.0,2.0,Catalán,0.0,Castellano,0.0,Inglés,7 ,3.0,2.0,no,no,no,Flauta,10,,,Nada. Todo correcto.,67.0,yes
192,2024-04-14_19h34.19.627,Experiment4_uns,s175,33.0,masculino,right,España,Catalán,Master degree,no,no,B,2,conjunction_syn,L3,syncopated,s1,r1,56,Online_conjL3_syn//d.ji.li14.444.1332.wav,chu,gu,ji,mo,sil,do,li,fu,sil1,le,sil2,['catch'],[1.8504999999997835],[1.8504999999997835],1.332,no_beat,0.5184999999997835,0.5184999999997835,"[""space""]",li,4,,,,,,,,,,,,,,,3.0,2.0,Catalán,0.0,Castellano,0.0,Inglés,7 ,3.0,2.0,no,no,no,Flauta,10,,,Nada. Todo correcto.,67.0,yes
193,2024-04-14_19h34.19.627,Experiment4_uns,s175,33.0,masculino,right,España,Catalán,Master degree,no,no,B,2,conjunction_syn,L3,syncopated,s1,r2,57,Online_conjL3_syn//d.ji.li15.1554.444.wav,ñe,je,li,sa,sil,ko,fu,ji,sil1,gu,sil2,['catch'],[0.9888999999911903],[0.9888999999911903],0.444,no_beat,0.5448999999911903,0.5448999999911903,"[""space""]",li,4,,,,,,,,,,,,,,,3.0,2.0,Catalán,0.0,Castellano,0.0,Inglés,7 ,3.0,2.0,no,no,no,Flauta,10,,,Nada. Todo correcto.,67.0,yes
194,2024-04-14_19h34.19.627,Experiment4_uns,s175,33.0,masculino,right,España,Catalán,Master degree,no,no,B,2,conjunction_syn,L3,syncopated,s2,r1,58,Online_conjL3_syn//d.ji.li12.none.none.wav,gu,ko,le,chu,sil,do,ga,mo,sil1,fu,sil2,['-'],,,none,none,,,,li,4,,,,,,,,,,,,,,,3.0,2.0,Catalán,0.0,Castellano,0.0,Inglés,7 ,3.0,2.0,no,no,no,Flauta,10,,,Nada. Todo correcto.,67.0,yes
195,2024-04-14_19h34.19.627,Experiment4_uns,s175,33.0,masculino,right,España,Catalán,Master degree,no,no,B,2,conjunction_syn,L3,syncopated,s1,r1,59,Online_conjL3_syn//d.ji.li13.none.none.wav,chu,je,ka,mo,sil,di,ko,fu,sil1,ga,sil2,['-'],,,none,none,,,,li,4,,,,,,,,,,,,,,,3.0,2.0,Catalán,0.0,Castellano,0.0,Inglés,7 ,3.0,2.0,no,no,no,Flauta,10,,,Nada. Todo correcto.,67.0,yes
196,2024-04-14_19h34.19.627,Experiment4_uns,s175,33.0,masculino,right,España,Catalán,Master degree,no,no,B,2,conjunction_syn,L3,syncopated,s1,r1,60,Online_conjL3_syn//b.ñe.sa26.none.none.wav,chu,ko,ji,mo,sil,ka,li,do,sil1,gu,sil2,['-'],,,none,none,,,,sa,2,,,,,,,,,,,,,,,3.0,2.0,Catalán,0.0,Castellano,0.0,Inglés,7 ,3.0,2.0,no,no,no,Flauta,10,,,Nada. Todo correcto.,67.0,yes
197,2024-04-14_19h34.19.627,Experiment4_uns,s175,33.0,masculino,right,España,Catalán,Master degree,no,no,B,2,conjunction_syn,L3,syncopated,s1,r2,61,Online_conjL3_syn//b.ñe.sa25.0.666.wav,ñe,je,li,sa,sil,fu,le,ko,sil1,ji,sil2,['catch'],[1.1280999999939922],[1.1280999999939922],0.666,no_beat,0.4620999999939922,0.4620999999939922,"[""space""]",sa,2,,,,,,,,,,,,,,,3.0,2.0,Catalán,0.0,Castellano,0.0,Inglés,7 ,3.0,2.0,no,no,no,Flauta,10,,,Nada. Todo correcto.,67.0,yes
198,2024-04-14_19h34.19.627,Experiment4_uns,s175,33.0,masculino,right,España,Catalán,Master degree,no,no,B,2,conjunction_syn,L3,syncopated,s2,r1,62,Online_conjL3_syn//b.ñe.sa24.none.none.wav,ga,di,le,chu,sil,li,ka,mo,sil1,do,sil2,['-'],,,none,none,,,,sa,2,,,,,,,,,,,,,,,3.0,2.0,Catalán,0.0,Castellano,0.0,Inglés,7 ,3.0,2.0,no,no,no,Flauta,10,,,Nada. Todo correcto.,67.0,yes
199,2024-04-14_19h34.19.627,Experiment4_uns,s175,33.0,masculino,right,España,Catalán,Master degree,no,no,B,2,conjunction_syn,L3,syncopated,s2,r1,63,Online_conjL3_syn//b.ñe.sa27.none.none.wav,ka,gu,je,chu,sil,ko,di,mo,sil1,li,sil2,['-'],,,none,none,,,,sa,2,,,,,,,,,,,,,,,3.0,2.0,Catalán,0.0,Castellano,0.0,Inglés,7 ,3.0,2.0,no,no,no,Flauta,10,,,Nada. Todo correcto.,67.0,yes
200,2024-04-14_19h34.19.627,Experiment4_uns,s175,33.0,masculino,right,España,Catalán,Master degree,no,no,B,2,conjunction_syn,L3,syncopated,s1,r1,64,Online_conjL3_syn//d.ji.li1.1554.444.wav,chu,gu,li,mo,sil,ga,je,ji,sil1,do,sil2,['catch'],[0.7120999999940523],[0.7120999999940523],0.444,no_beat,0.2680999999940522,0.2680999999940522,"[""space""]",li,4,,,,,,,,,,,,,,,3.0,2.0,Catalán,0.0,Castellano,0.0,Inglés,7 ,3.0,2.0,no,no,no,Flauta,10,,,Nada. Todo correcto.,67.0,yes
201,2024-04-14_19h34.19.627,Experiment4_uns,s175,33.0,masculino,right,España,Catalán,Master degree,no,no,B,2,conjunction_syn,L3,syncopated,s2,r2,65,Online_conjL3_syn//d.ji.li2.1332.0.wav,li,fu,di,ñe,sil,gu,ji,sa,sil1,ko,sil2,['catch'],[0.5397000000029948],[0.5397000000029948],0.0,beat,0.5397000000029948,0.5397000000029948,"[""space""]",li,4,,,,,,,,,,,,,,,3.0,2.0,Catalán,0.0,Castellano,0.0,Inglés,7 ,3.0,2.0,no,no,no,Flauta,10,,,Nada. Todo correcto.,67.0,yes
202,2024-04-14_19h34.19.627,Experiment4_uns,s175,33.0,masculino,right,España,Catalán,Master degree,no,no,B,2,conjunction_syn,L3,syncopated,s1,r1,66,Online_conjL3_syn//d.ji.li0.none.none.wav,chu,ga,ko,mo,sil,do,le,gu,sil1,di,sil2,['-'],,,none,none,,,,li,4,,,,,,,,,,,,,,,3.0,2.0,Catalán,0.0,Castellano,0.0,Inglés,7 ,3.0,2.0,no,no,no,Flauta,10,,,Nada. Todo correcto.,67.0,yes
203,2024-04-14_19h34.19.627,Experiment4_uns,s175,33.0,masculino,right,España,Catalán,Master degree,no,no,B,2,conjunction_syn,L3,syncopated,s1,r2,67,Online_conjL3_syn//d.ji.li3.none.none.wav,ñe,ka,gu,sa,sil,ga,do,di,sil1,ko,sil2,['-'],,,none,none,,,,li,4,,,,,,,,,,,,,,,3.0,2.0,Catalán,0.0,Castellano,0.0,Inglés,7 ,3.0,2.0,no,no,no,Flauta,10,,,Nada. Todo correcto.,67.0,yes
204,2024-04-14_19h34.19.627,Experiment4_uns,s175,33.0,masculino,right,España,Catalán,Master degree,no,no,B,2,conjunction_syn,L3,syncopated,s2,r1,68,Online_conjL3_syn//c.gu.je14.none.none.wav,ka,ko,ga,chu,sil,fu,do,mo,sil1,ji,sil2,['-'],,,none,none,,,,je,3,,,,,,,,,,,,,,,3.0,2.0,Catalán,0.0,Castellano,0.0,Inglés,7 ,3.0,2.0,no,no,no,Flauta,10,,,Nada. Todo correcto.,67.0,yes
205,2024-04-14_19h34.19.627,Experiment4_uns,s175,33.0,masculino,right,España,Catalán,Master degree,no,no,B,2,conjunction_syn,L3,syncopated,s1,r2,69,Online_conjL3_syn//c.gu.je15.1554.444.wav,ñe,le,je,sa,sil,fu,do,gu,sil1,ga,sil2,['catch'],[1.1065999999939322],[1.1065999999939322],0.444,no_beat,0.6625999999939323,0.6625999999939323,"[""space""]",je,3,,,,,,,,,,,,,,,3.0,2.0,Catalán,0.0,Castellano,0.0,Inglés,7 ,3.0,2.0,no,no,no,Flauta,10,,,Nada. Todo correcto.,67.0,yes
206,2024-04-14_19h34.19.627,Experiment4_uns,s175,33.0,masculino,right,España,Catalán,Master degree,no,no,B,2,conjunction_syn,L3,syncopated,s2,r2,70,Online_conjL3_syn//c.gu.je12.none.none.wav,ka,ji,li,ñe,sil,do,ga,sa,sil1,fu,sil2,['-'],,,none,none,,,,je,3,,,,,,,,,,,,,,,3.0,2.0,Catalán,0.0,Castellano,0.0,Inglés,7 ,3.0,2.0,no,no,no,Flauta,10,,,Nada. Todo correcto.,67.0,yes
207,2024-04-14_19h34.19.627,Experiment4_uns,s175,33.0,masculino,right,España,Catalán,Master degree,no,no,B,2,conjunction_syn,L3,syncopated,s1,r1,71,Online_conjL3_syn//c.gu.je13.none.none.wav,chu,le,ka,mo,sil,fu,ko,do,sil1,ji,sil2,['-'],,,none,none,,,,je,3,,,,,,,,,,,,,,,3.0,2.0,Catalán,0.0,Castellano,0.0,Inglés,7 ,3.0,2.0,no,no,no,Flauta,10,,,Nada. Todo correcto.,67.0,yes
208,2024-04-14_19h34.19.627,Experiment4_uns,s175,33.0,masculino,right,España,Catalán,Master degree,no,no,B,2,conjunction_syn,L3,syncopated,s2,r1,72,Online_conjL3_syn//a.chu.mo24.666.1554.wav,fu,je,gu,chu,sil,ga,ka,mo,sil1,le,sil2,['catch'],[1.2643999999911557],[1.2643999999911557],0.666,no_beat,0.5983999999911557,0.5983999999911557,"[""space""]",chu,1,,,,,,,,,,,,,,,3.0,2.0,Catalán,0.0,Castellano,0.0,Inglés,7 ,3.0,2.0,no,no,no,Flauta,10,,,Nada. Todo correcto.,67.0,yes
209,2024-04-14_19h34.19.627,Experiment4_uns,s175,33.0,masculino,right,España,Catalán,Master degree,no,no,B,2,conjunction_syn,L3,syncopated,s2,r2,73,Online_conjL3_syn//a.chu.mo26.none.none.wav,do,ga,fu,ñe,sil,ko,di,sa,sil1,le,sil2,['-'],,,none,none,,,,chu,1,,,,,,,,,,,,,,,3.0,2.0,Catalán,0.0,Castellano,0.0,Inglés,7 ,3.0,2.0,no,no,no,Flauta,10,,,Nada. Todo correcto.,67.0,yes
210,2024-04-14_19h34.19.627,Experiment4_uns,s175,33.0,masculino,right,España,Catalán,Master degree,no,no,B,2,conjunction_syn,L3,syncopated,s2,r2,74,Online_conjL3_syn//a.chu.mo27.none.none.wav,ji,li,ko,ñe,sil,di,fu,sa,sil1,le,sil2,['-'],,,none,none,,,,chu,1,,,,,,,,,,,,,,,3.0,2.0,Catalán,0.0,Castellano,0.0,Inglés,7 ,3.0,2.0,no,no,no,Flauta,10,,,Nada. Todo correcto.,67.0,yes
211,2024-04-14_19h34.19.627,Experiment4_uns,s175,33.0,masculino,right,España,Catalán,Master degree,no,no,B,2,conjunction_syn,L3,syncopated,s1,r1,75,Online_conjL3_syn//a.chu.mo25.0.666.wav,chu,gu,ko,mo,sil,do,ga,fu,sil1,li,sil2,['catch'],[0.5563000000120155],[0.5563000000120155],0.0,beat,0.5563000000120155,0.5563000000120155,"[""space""]",chu,1,,,,,,,,,,,,,,,3.0,2.0,Catalán,0.0,Castellano,0.0,Inglés,7 ,3.0,2.0,no,no,no,Flauta,10,,,Nada. Todo correcto.,67.0,yes
212,2024-04-14_19h34.19.627,Experiment4_uns,s175,33.0,masculino,right,España,Catalán,Master degree,no,no,B,2,conjunction_syn,L3,syncopated,s2,r1,76,Online_conjL3_syn//a.chu.mo23.666.1554.wav,gu,ga,le,chu,sil,fu,je,mo,sil1,ka,sil2,['catch'],[1.2628999999910775],[1.2628999999910775],0.666,no_beat,0.5968999999910775,0.5968999999910775,"[""space""]",chu,1,,,,,,,,,,,,,,,3.0,2.0,Catalán,0.0,Castellano,0.0,Inglés,7 ,3.0,2.0,no,no,no,Flauta,10,,,Nada. Todo correcto.,67.0,yes
213,2024-04-14_19h34.19.627,Experiment4_uns,s175,33.0,masculino,right,España,Catalán,Master degree,no,no,B,2,conjunction_syn,L3,syncopated,s2,r1,77,Online_conjL3_syn//a.chu.mo21.666.1554.wav,gu,ka,je,chu,sil,do,ko,mo,sil1,li,sil2,['catch'],[1.1894000000058895],[1.1894000000058895],0.666,no_beat,0.5234000000058895,0.5234000000058895,"[""space""]",chu,1,,,,,,,,,,,,,,,3.0,2.0,Catalán,0.0,Castellano,0.0,Inglés,7 ,3.0,2.0,no,no,no,Flauta,10,,,Nada. Todo correcto.,67.0,yes
214,2024-04-14_19h34.19.627,Experiment4_uns,s175,33.0,masculino,right,España,Catalán,Master degree,no,no,B,2,conjunction_syn,L3,syncopated,s1,r1,78,Online_conjL3_syn//a.chu.mo20.0.666.wav,chu,do,li,mo,sil,je,ka,ga,sil1,gu,sil2,['catch'],[0.6269000000058895],[0.6269000000058895],0.0,beat,0.6269000000058895,0.6269000000058895,"[""space""]",chu,1,,,,,,,,,,,,,,,3.0,2.0,Catalán,0.0,Castellano,0.0,Inglés,7 ,3.0,2.0,no,no,no,Flauta,10,,,Nada. Todo correcto.,67.0,yes
215,2024-04-14_19h34.19.627,Experiment4_uns,s175,33.0,masculino,right,España,Catalán,Master degree,no,no,B,2,conjunction_syn,L3,syncopated,s2,r1,79,Online_conjL3_syn//a.chu.mo22.666.1554.wav,ka,li,le,chu,sil,di,ko,mo,sil1,je,sil2,['catch'],[1.4300999999938995],[1.4300999999938995],0.666,no_beat,0.7640999999938994,0.7640999999938994,"[""space""]",chu,1,,,,,,,,,,,,,,,3.0,2.0,Catalán,0.0,Castellano,0.0,Inglés,7 ,3.0,2.0,no,no,no,Flauta,10,,,Nada. Todo correcto.,67.0,yes
216,2024-04-14_19h34.19.627,Experiment4_uns,s175,33.0,masculino,right,España,Catalán,Master degree,no,no,B,2,conjunction_syn,L3,syncopated,s2,r2,80,Online_conjL3_syn//a.chu.mo7.none.none.wav,ko,le,fu,ñe,sil,ka,gu,sa,sil1,do,sil2,['-'],,,none,none,,,,chu,1,,,,,,,,,,,,,,,3.0,2.0,Catalán,0.0,Castellano,0.0,Inglés,7 ,3.0,2.0,no,no,no,Flauta,10,,,Nada. Todo correcto.,67.0,yes
217,2024-04-14_19h34.19.627,Experiment4_uns,s175,33.0,masculino,right,España,Catalán,Master degree,no,no,B,2,conjunction_syn,L3,syncopated,s2,r2,81,Online_conjL3_syn//a.chu.mo4.none.none.wav,le,ji,gu,ñe,sil,li,ga,sa,sil1,ka,sil2,['-'],,,none,none,,,,chu,1,,,,,,,,,,,,,,,3.0,2.0,Catalán,0.0,Castellano,0.0,Inglés,7 ,3.0,2.0,no,no,no,Flauta,10,,,Nada. Todo correcto.,67.0,yes
218,2024-04-14_19h34.19.627,Experiment4_uns,s175,33.0,masculino,right,España,Catalán,Master degree,no,no,B,2,conjunction_syn,L3,syncopated,s2,r1,82,Online_conjL3_syn//a.chu.mo6.666.1554.wav,ko,di,ga,chu,sil,li,gu,mo,sil1,do,sil2,['catch'],[1.257700000002842],[1.257700000002842],0.666,no_beat,0.591700000002842,0.591700000002842,"[""space""]",chu,1,,,,,,,,,,,,,,,3.0,2.0,Catalán,0.0,Castellano,0.0,Inglés,7 ,3.0,2.0,no,no,no,Flauta,10,,,Nada. Todo correcto.,67.0,yes
