Unnamed: 0,date,expName,participant,age,sex,hand,residence,native_lang,education_level,lang_deficit,aud_deficit,group,block,condition,language,rhythm,rule structure online,rule type online,order_trial_on,trial_online,s1,s2,s3,s4,s5,s6,s7,s8,s9,s10,s11,catch_syll_resp,rts_syll_catch,clean_rts,time_syll,beat_no_beat,catch_rtsTR,catch_rts,syllable_catch.keys,cond_syll,syll_to_catch,test_offline,block_off,condition_off,rhythm_off,rule,rule_str_off,rule_norule,conds_offline,language_off,Partz_no_partm.keys,Partz_no_partm.rt,security_1_7.keys,accuracy,security_1_7.rt,n_lang,n_lang_used,lang_1,age_l1,lang_2,age_l2,lang_3,age_l3,ability_learn_l2,tendence_mix_lan,music_experience,muisc_use,partiture,instr_1,age_M1,preguntas_musica1,BMRQ_answer.response,final comment,BMRQ_Score,bilingual
0,2023-11-08_21h55.01.909,Unsyncopated1,s72,18.0,feminino,right,España,Castellano y catalán,Upper secondary,no,no,A,1,conjunction_syn,L4,syncopated,s2,r1,0,Online_conjL4_syn//a.zi.lo14.666.1554.wav,ci,bo,pe,zi,sil,re,bu,lo,sil1,da,sil2,['catch'],[2.186099999993985],[2.186099999993985],1.554,no_beat,0.6320999999939849,0.6320999999939849,"[""space""]",lo,2,testConjL4Syn//r1.s1.2.wav,1.0,conjunction_syn,syncopated,a,s1,rule,rule,L4,z,2.7998,4.0,1.0,9.3453,3 ,2.0,castellano,0.0,catalán,0.0,inglés,12.0,4.0,2.0,no,no,no,nada,,1. Cuando comparto música con alguien siento una complicidad especial con aquella persona.,4.0,"La silaba ""gu"" casi nunca la elegía porque me parecía que decía ""bu"" todo el rato y no ""gu""",68.0,yes
1,2023-11-08_21h55.01.909,Unsyncopated1,s72,18.0,feminino,right,España,Castellano y catalán,Upper secondary,no,no,A,1,conjunction_syn,L4,syncopated,s1,r2,1,Online_conjL4_syn//a.zi.lo12.none.none.wav,ja,ci,ña,nu,sil,bu,bo,de,sil1,re,sil2,['-'],,,none,none,,,,lo,2,testConjL4Syn//r2.s1.0.wav,1.0,conjunction_syn,syncopated,b,s1,rule,rule,L4,m,3.4053,5.0,0.0,2.638,3 ,2.0,castellano,0.0,catalán,0.0,inglés,12.0,4.0,2.0,no,no,no,nada,,2. En mi tiempo libre apenas escucho música.,5.0,"La silaba ""gu"" casi nunca la elegía porque me parecía que decía ""bu"" todo el rato y no ""gu""",68.0,yes
2,2023-11-08_21h55.01.909,Unsyncopated1,s72,18.0,feminino,right,España,Castellano y catalán,Upper secondary,no,no,A,1,conjunction_syn,L4,syncopated,s2,r2,2,Online_conjL4_syn//a.zi.lo13.none.none.wav,pe,de,ña,ja,sil,ci,ru,nu,sil1,po,sil2,['-'],,,none,none,,,,lo,2,testConjL4Syn//time_viol.r1.s1.0.wav,1.0,conjunction_syn,syncopated,a,s1,no_rule,time,L4,z,1.2885,4.0,0.0,2.2447,3 ,2.0,castellano,0.0,catalán,0.0,inglés,12.0,4.0,2.0,no,no,no,nada,,3. Algunas canciones me ponen los pelos de punta,3.0,"La silaba ""gu"" casi nunca la elegía porque me parecía que decía ""bu"" todo el rato y no ""gu""",68.0,yes
3,2023-11-08_21h55.01.909,Unsyncopated1,s72,18.0,feminino,right,España,Castellano y catalán,Upper secondary,no,no,A,1,conjunction_syn,L4,syncopated,s1,r1,3,Online_conjL4_syn//a.zi.lo15.0.666.wav,zi,pe,ci,lo,sil,bo,po,ña,sil1,da,sil2,['catch'],[1.2008000000118955],[1.2008000000118955],0.666,no_beat,0.5348000000118954,0.5348000000118954,"[""space""]",lo,2,testConjL4Syn//dep_viol.r2.s2.0.wav,1.0,conjunction_syn,syncopated,b,s2,no_rule,dep,L4,m,2.5716,3.0,1.0,2.4407,3 ,2.0,castellano,0.0,catalán,0.0,inglés,12.0,4.0,2.0,no,no,no,nada,,4. La música me hace compañía cuando estoy solo,4.0,"La silaba ""gu"" casi nunca la elegía porque me parecía que decía ""bu"" todo el rato y no ""gu""",68.0,yes
4,2023-11-08_21h55.01.909,Unsyncopated1,s72,18.0,feminino,right,España,Castellano y catalán,Upper secondary,no,no,A,1,conjunction_syn,L4,syncopated,s1,r2,4,Online_conjL4_syn//a.zi.lo1.none.none.wav,ja,re,ru,nu,sil,de,da,bu,sil1,ñi,sil2,['-'],,,none,none,,,,lo,2,testConjL4Syn//time_viol.r1.s2.0.wav,1.0,conjunction_syn,syncopated,a,s2,no_rule,time,L4,z,1.1156,6.0,0.0,2.2255,3 ,2.0,castellano,0.0,catalán,0.0,inglés,12.0,4.0,2.0,no,no,no,nada,,5. No me apetece bailar ni con la música que más me gusta,5.0,"La silaba ""gu"" casi nunca la elegía porque me parecía que decía ""bu"" todo el rato y no ""gu""",68.0,yes
5,2023-11-08_21h55.01.909,Unsyncopated1,s72,18.0,feminino,right,España,Castellano y catalán,Upper secondary,no,no,A,1,conjunction_syn,L4,syncopated,s2,r2,5,Online_conjL4_syn//a.zi.lo0.none.none.wav,bu,bo,po,ja,sil,de,ñi,nu,sil1,re,sil2,['-'],,,none,none,,,,lo,2,testConjL4Syn//r1.s2.0.wav,1.0,conjunction_syn,syncopated,a,s2,rule,rule,L4,z,0.7004,5.0,1.0,1.927,3 ,2.0,castellano,0.0,catalán,0.0,inglés,12.0,4.0,2.0,no,no,no,nada,,6. La música me hace conectar con la gente,4.0,"La silaba ""gu"" casi nunca la elegía porque me parecía que decía ""bu"" todo el rato y no ""gu""",68.0,yes
6,2023-11-08_21h55.01.909,Unsyncopated1,s72,18.0,feminino,right,España,Castellano y catalán,Upper secondary,no,no,A,1,conjunction_syn,L4,syncopated,s1,r1,6,Online_conjL4_syn//a.zi.lo2.0.666.wav,zi,ñi,re,lo,sil,bu,ci,bo,sil1,ña,sil2,['catch'],[1.155099999994036],[1.155099999994036],0.666,no_beat,0.4890999999940358,0.4890999999940358,"[""space""]",lo,2,testConjL4Syn//r1.s1.1.wav,1.0,conjunction_syn,syncopated,a,s1,rule,rule,L4,z,0.9757,4.0,1.0,1.2656,3 ,2.0,castellano,0.0,catalán,0.0,inglés,12.0,4.0,2.0,no,no,no,nada,,7. Me informo sobre la música que me gusta.,4.0,"La silaba ""gu"" casi nunca la elegía porque me parecía que decía ""bu"" todo el rato y no ""gu""",68.0,yes
7,2023-11-08_21h55.01.909,Unsyncopated1,s72,18.0,feminino,right,España,Castellano y catalán,Upper secondary,no,no,A,1,conjunction_syn,L4,syncopated,s2,r2,7,Online_conjL4_syn//a.zi.lo3.none.none.wav,po,ci,pe,ja,sil,re,bo,nu,sil1,ña,sil2,['-'],,,none,none,,,,lo,2,testConjL4Syn//time_viol.r2.s2.0.wav,1.0,conjunction_syn,syncopated,b,s2,no_rule,time,L4,m,2.5604,3.0,1.0,0.7374,3 ,2.0,castellano,0.0,catalán,0.0,inglés,12.0,4.0,2.0,no,no,no,nada,,8.Me emociono escuchando ciertas canciones.,4.0,"La silaba ""gu"" casi nunca la elegía porque me parecía que decía ""bu"" todo el rato y no ""gu""",68.0,yes
8,2023-11-08_21h55.01.909,Unsyncopated1,s72,18.0,feminino,right,España,Castellano y catalán,Upper secondary,no,no,A,1,conjunction_syn,L4,syncopated,s1,r1,8,Online_conjL4_syn//b.ja.nu1.none.none.wav,zi,de,ru,lo,sil,po,ña,bu,sil1,da,sil2,['-'],,,none,none,,,,ja,1,testConjL4Syn//dep_viol.r2.s1.0.wav,1.0,conjunction_syn,syncopated,b,s1,no_rule,dep,L4,z,0.637,3.0,0.0,1.6013,3 ,2.0,castellano,0.0,catalán,0.0,inglés,12.0,4.0,2.0,no,no,no,nada,,9.La música me tranquiliza y me relaja.,4.0,"La silaba ""gu"" casi nunca la elegía porque me parecía que decía ""bu"" todo el rato y no ""gu""",68.0,yes
9,2023-11-08_21h55.01.909,Unsyncopated1,s72,18.0,feminino,right,España,Castellano y catalán,Upper secondary,no,no,A,1,conjunction_syn,L4,syncopated,s1,r2,9,Online_conjL4_syn//b.ja.nu3.0.666.wav,ja,bu,bo,nu,sil,pe,ru,re,sil1,ñi,sil2,['catch'],[0.5214999999999463],[0.5214999999999463],0.0,beat,0.5214999999999463,0.5214999999999463,"[""space""]",ja,1,testConjL4Syn//r2.s1.1.wav,1.0,conjunction_syn,syncopated,b,s1,rule,rule,L4,z,0.3292,6.0,1.0,1.0677,3 ,2.0,castellano,0.0,catalán,0.0,inglés,12.0,4.0,2.0,no,no,no,nada,,10.La música me hace bailar,3.0,"La silaba ""gu"" casi nunca la elegía porque me parecía que decía ""bu"" todo el rato y no ""gu""",68.0,yes
10,2023-11-08_21h55.01.909,Unsyncopated1,s72,18.0,feminino,right,España,Castellano y catalán,Upper secondary,no,no,A,1,conjunction_syn,L4,syncopated,s1,r1,10,Online_conjL4_syn//b.ja.nu2.none.none.wav,zi,da,ru,lo,sil,bo,ci,ñi,sil1,de,sil2,['-'],,,none,none,,,,ja,1,testConjL4Syn//dep_viol.r1.s1.0.wav,1.0,conjunction_syn,syncopated,a,s1,no_rule,dep,L4,z,0.4308,5.0,0.0,0.5464,3 ,2.0,castellano,0.0,catalán,0.0,inglés,12.0,4.0,2.0,no,no,no,nada,,11.Busco novedades musicales continuamente,2.0,"La silaba ""gu"" casi nunca la elegía porque me parecía que decía ""bu"" todo el rato y no ""gu""",68.0,yes
11,2023-11-08_21h55.01.909,Unsyncopated1,s72,18.0,feminino,right,España,Castellano y catalán,Upper secondary,no,no,A,1,conjunction_syn,L4,syncopated,s2,r2,11,Online_conjL4_syn//b.ja.nu0.666.1554.wav,ña,bu,ci,ja,sil,ñi,re,nu,sil1,po,sil2,['catch'],[1.2464000000060196],[1.2464000000060196],0.666,no_beat,0.5804000000060195,0.5804000000060195,"[""space""]",ja,1,testConjL4Syn//r1.s2.1.wav,1.0,conjunction_syn,syncopated,a,s2,rule,rule,L4,m,0.5342,5.0,0.0,1.113,3 ,2.0,castellano,0.0,catalán,0.0,inglés,12.0,4.0,2.0,no,no,no,nada,,12. Puedo llorar cuando escucho algunas melodías que me gustan mucho.,2.0,"La silaba ""gu"" casi nunca la elegía porque me parecía que decía ""bu"" todo el rato y no ""gu""",68.0,yes
12,2023-11-08_21h55.01.909,Unsyncopated1,s72,18.0,feminino,right,España,Castellano y catalán,Upper secondary,no,no,A,1,conjunction_syn,L4,syncopated,s2,r1,12,Online_conjL4_syn//d.pe.po19.none.none.wav,da,de,ña,zi,sil,bo,ru,lo,sil1,ñi,sil2,['-'],,,none,none,,,,pe,4,testConjL4Syn//r2.s2.2.wav,1.0,conjunction_syn,syncopated,b,s2,rule,rule,L4,z,0.4759,5.0,1.0,0.6367,3 ,2.0,castellano,0.0,catalán,0.0,inglés,12.0,4.0,2.0,no,no,no,nada,,13. Me gusta cantar o tocar un instrumento con más gente,3.0,"La silaba ""gu"" casi nunca la elegía porque me parecía que decía ""bu"" todo el rato y no ""gu""",68.0,yes
13,2023-11-08_21h55.01.909,Unsyncopated1,s72,18.0,feminino,right,España,Castellano y catalán,Upper secondary,no,no,A,1,conjunction_syn,L4,syncopated,s1,r2,13,Online_conjL4_syn//d.pe.po16.none.none.wav,ja,bo,ci,nu,sil,da,ru,re,sil1,de,sil2,['-'],,,none,none,,,,pe,4,testConjL4Syn//r2.s1.2.wav,1.0,conjunction_syn,syncopated,b,s1,rule,rule,L4,m,1.3327,6.0,0.0,1.4807,3 ,2.0,castellano,0.0,catalán,0.0,inglés,12.0,4.0,2.0,no,no,no,nada,,14. La música me ayuda a desconectar.,4.0,"La silaba ""gu"" casi nunca la elegía porque me parecía que decía ""bu"" todo el rato y no ""gu""",68.0,yes
14,2023-11-08_21h55.01.909,Unsyncopated1,s72,18.0,feminino,right,España,Castellano y catalán,Upper secondary,no,no,A,1,conjunction_syn,L4,syncopated,s1,r1,14,Online_conjL4_syn//d.pe.po18.1554.1110.wav,zi,ña,da,lo,sil,po,bo,pe,sil1,ru,sil2,['miss'],,,1.554,no_beat,,,,pe,4,testConjL4Syn//cat_viol.r2.s1.0.wav,1.0,conjunction_syn,syncopated,b,s1,no_rule,cat,L4,z,0.4808,4.0,0.0,1.0916,3 ,2.0,castellano,0.0,catalán,0.0,inglés,12.0,4.0,2.0,no,no,no,nada,,15. No puedo evitar tararear las canciones que me gustan cuando las escucho.,4.0,"La silaba ""gu"" casi nunca la elegía porque me parecía que decía ""bu"" todo el rato y no ""gu""",68.0,yes
15,2023-11-08_21h55.01.909,Unsyncopated1,s72,18.0,feminino,right,España,Castellano y catalán,Upper secondary,no,no,A,1,conjunction_syn,L4,syncopated,s2,r2,15,Online_conjL4_syn//d.pe.po17.222.444.wav,bo,pe,po,ja,sil,re,ci,nu,sil1,ru,sil2,['miss'],,,0.222,no_beat,,,,pe,4,testConjL4Syn//dep_viol.r1.s2.0.wav,1.0,conjunction_syn,syncopated,a,s2,no_rule,dep,L4,m,1.0016,3.0,1.0,0.8837,3 ,2.0,castellano,0.0,catalán,0.0,inglés,12.0,4.0,2.0,no,no,no,nada,,16. En los conciertos me siento en sintonía con los artistas y el público.,4.0,"La silaba ""gu"" casi nunca la elegía porque me parecía que decía ""bu"" todo el rato y no ""gu""",68.0,yes
16,2023-11-08_21h55.01.909,Unsyncopated1,s72,18.0,feminino,right,España,Castellano y catalán,Upper secondary,no,no,A,1,conjunction_syn,L4,syncopated,s1,r1,16,Online_conjL4_syn//c.bu.da31.none.none.wav,zi,ñi,pe,lo,sil,de,ci,ña,sil1,bo,sil2,['-'],,,none,none,,,,bu,3,testConjL4Syn//time_viol.r2.s1.0.wav,1.0,conjunction_syn,syncopated,b,s1,no_rule,time,L4,z,0.3886,4.0,0.0,0.5016,3 ,2.0,castellano,0.0,catalán,0.0,inglés,12.0,4.0,2.0,no,no,no,nada,,17. Me gasto bastante dinero en música y cosas relacionadas con la música.,1.0,"La silaba ""gu"" casi nunca la elegía porque me parecía que decía ""bu"" todo el rato y no ""gu""",68.0,yes
17,2023-11-08_21h55.01.909,Unsyncopated1,s72,18.0,feminino,right,España,Castellano y catalán,Upper secondary,no,no,A,1,conjunction_syn,L4,syncopated,s1,r2,17,Online_conjL4_syn//c.bu.da28.none.none.wav,ja,ru,ñi,nu,sil,po,ci,de,sil1,bo,sil2,['-'],,,none,none,,,,bu,3,testConjL4Syn//r1.s1.0.wav,1.0,conjunction_syn,syncopated,a,s1,rule,rule,L4,z,0.541,4.0,1.0,0.4929,3 ,2.0,castellano,0.0,catalán,0.0,inglés,12.0,4.0,2.0,no,no,no,nada,,18. Siento escalofríos cuando escucho una melodía que me gusta.,1.0,"La silaba ""gu"" casi nunca la elegía porque me parecía que decía ""bu"" todo el rato y no ""gu""",68.0,yes
18,2023-11-08_21h55.01.909,Unsyncopated1,s72,18.0,feminino,right,España,Castellano y catalán,Upper secondary,no,no,A,1,conjunction_syn,L4,syncopated,s2,r2,18,Online_conjL4_syn//c.bu.da30.none.none.wav,po,ci,ña,ja,sil,ru,bo,nu,sil1,ñi,sil2,['false alarm'],[2.1937999999820477],[2.1937999999820477],none,none,,,"[""space""]",bu,3,testConjL4Syn//cat_viol.r1.s1.0.wav,1.0,conjunction_syn,syncopated,a,s1,no_rule,cat,L4,m,3.2505,5.0,1.0,0.6583,3 ,2.0,castellano,0.0,catalán,0.0,inglés,12.0,4.0,2.0,no,no,no,nada,,19. Con la música me puedo desahogar.,3.0,"La silaba ""gu"" casi nunca la elegía porque me parecía que decía ""bu"" todo el rato y no ""gu""",68.0,yes
19,2023-11-08_21h55.01.909,Unsyncopated1,s72,18.0,feminino,right,España,Castellano y catalán,Upper secondary,no,no,A,1,conjunction_syn,L4,syncopated,s1,r1,19,Online_conjL4_syn//c.bu.da29.none.none.wav,zi,ñi,pe,lo,sil,re,ci,ru,sil1,ña,sil2,['-'],,,none,none,,,,bu,3,testConjL4Syn//r2.s2.1.wav,1.0,conjunction_syn,syncopated,b,s2,rule,rule,L4,z,0.3913,4.0,1.0,0.6808,3 ,2.0,castellano,0.0,catalán,0.0,inglés,12.0,4.0,2.0,no,no,no,nada,,20. Cuando escucho una melodía que me gusta mucho no puedo evitar mover el cuerpo.,4.0,"La silaba ""gu"" casi nunca la elegía porque me parecía que decía ""bu"" todo el rato y no ""gu""",68.0,yes
20,2023-11-08_21h55.01.909,Unsyncopated1,s72,18.0,feminino,right,España,Castellano y catalán,Upper secondary,no,no,A,1,conjunction_syn,L4,syncopated,s1,r1,20,Online_conjL4_syn//b.ja.nu21.none.none.wav,zi,ñi,ru,lo,sil,da,ci,po,sil1,re,sil2,['-'],,,none,none,,,,ja,1,testConjL4Syn//r1.s2.2.wav,1.0,conjunction_syn,syncopated,a,s2,rule,rule,L4,z,0.3365,5.0,1.0,0.8569,3 ,2.0,castellano,0.0,catalán,0.0,inglés,12.0,4.0,2.0,no,no,no,nada,,,,"La silaba ""gu"" casi nunca la elegía porque me parecía que decía ""bu"" todo el rato y no ""gu""",68.0,yes
21,2023-11-08_21h55.01.909,Unsyncopated1,s72,18.0,feminino,right,España,Castellano y catalán,Upper secondary,no,no,A,1,conjunction_syn,L4,syncopated,s1,r1,21,Online_conjL4_syn//b.ja.nu22.none.none.wav,zi,ñi,re,lo,sil,bu,po,pe,sil1,ña,sil2,['-'],,,none,none,,,,ja,1,testConjL4Syn//r2.s2.0.wav,1.0,conjunction_syn,syncopated,b,s2,rule,rule,L4,m,0.3601,4.0,0.0,1.8607,3 ,2.0,castellano,0.0,catalán,0.0,inglés,12.0,4.0,2.0,no,no,no,nada,,,,"La silaba ""gu"" casi nunca la elegía porque me parecía que decía ""bu"" todo el rato y no ""gu""",68.0,yes
22,2023-11-08_21h55.01.909,Unsyncopated1,s72,18.0,feminino,right,España,Castellano y catalán,Upper secondary,no,no,A,1,conjunction_syn,L4,syncopated,s1,r2,22,Online_conjL4_syn//b.ja.nu20.0.666.wav,ja,bu,po,nu,sil,da,ña,ru,sil1,ci,sil2,['catch'],[0.5507999999821322],[0.5507999999821322],0.0,beat,0.5507999999821322,0.5507999999821322,"[""space""]",ja,1,testConjL4Syn//cat_viol.r2.s2.0.wav,1.0,conjunction_syn,syncopated,b,s2,no_rule,cat,L4,z,0.4787,5.0,0.0,0.8574,3 ,2.0,castellano,0.0,catalán,0.0,inglés,12.0,4.0,2.0,no,no,no,nada,,,,"La silaba ""gu"" casi nunca la elegía porque me parecía que decía ""bu"" todo el rato y no ""gu""",68.0,yes
23,2023-11-08_21h55.01.909,Unsyncopated1,s72,18.0,feminino,right,España,Castellano y catalán,Upper secondary,no,no,A,1,conjunction_syn,L4,syncopated,s1,r2,23,Online_conjL4_syn//b.ja.nu23.0.666.wav,ja,bu,da,nu,sil,po,ña,pe,sil1,ru,sil2,['catch'],[0.5285000000000082],[0.5285000000000082],0.0,beat,0.5285000000000082,0.5285000000000082,"[""space""]",ja,1,testConjL4Syn//cat_viol.r1.s2.0.wav,1.0,conjunction_syn,syncopated,a,s2,no_rule,cat,L4,z,1.4276,5.0,0.0,0.4274,3 ,2.0,castellano,0.0,catalán,0.0,inglés,12.0,4.0,2.0,no,no,no,nada,,,,"La silaba ""gu"" casi nunca la elegía porque me parecía que decía ""bu"" todo el rato y no ""gu""",68.0,yes
24,2023-11-08_21h55.01.909,Unsyncopated1,s72,18.0,feminino,right,España,Castellano y catalán,Upper secondary,no,no,A,1,conjunction_syn,L4,syncopated,s2,r2,24,Online_conjL4_syn//b.ja.nu9.666.1554.wav,bo,ñi,po,ja,sil,da,re,nu,sil1,ru,sil2,['catch'],[1.17269999998814],[1.17269999998814],0.666,no_beat,0.50669999998814,0.50669999998814,"[""space""]",ja,1,testConjL1Uns//r2.s2.1.wav,2.0,conjunction_un,unsyncopated,b,s2,rule,rule,L1,z,0.9696,3.0,1.0,1.3908,3 ,2.0,castellano,0.0,catalán,0.0,inglés,12.0,4.0,2.0,no,no,no,nada,,,,"La silaba ""gu"" casi nunca la elegía porque me parecía que decía ""bu"" todo el rato y no ""gu""",68.0,yes
25,2023-11-08_21h55.01.909,Unsyncopated1,s72,18.0,feminino,right,España,Castellano y catalán,Upper secondary,no,no,A,1,conjunction_syn,L4,syncopated,s2,r2,25,Online_conjL4_syn//b.ja.nu8.666.1554.wav,da,bu,de,ja,sil,ci,pe,nu,sil1,re,sil2,['catch'],[1.1779999999999973],[1.1779999999999973],0.666,no_beat,0.5119999999999972,0.5119999999999972,"[""space""]",ja,1,testConjL1Uns//dep_viol.r1.s2.0.wav,2.0,conjunction_un,unsyncopated,a,s2,no_rule,dep,L1,m,1.4612,4.0,1.0,0.5926,3 ,2.0,castellano,0.0,catalán,0.0,inglés,12.0,4.0,2.0,no,no,no,nada,,,,"La silaba ""gu"" casi nunca la elegía porque me parecía que decía ""bu"" todo el rato y no ""gu""",68.0,yes
26,2023-11-08_21h55.01.909,Unsyncopated1,s72,18.0,feminino,right,España,Castellano y catalán,Upper secondary,no,no,A,1,conjunction_syn,L4,syncopated,s1,r2,26,Online_conjL4_syn//b.ja.nu10.0.666.wav,ja,pe,ñi,nu,sil,bu,ci,de,sil1,ru,sil2,['catch'],[0.47659999999405045],[0.47659999999405045],0.0,beat,0.4765999999940504,0.4765999999940504,"[""space""]",ja,1,testConjL1Uns//time_viol.r1.s2.0.wav,2.0,conjunction_un,unsyncopated,a,s2,no_rule,time,L1,m,0.3005,6.0,1.0,0.7179,3 ,2.0,castellano,0.0,catalán,0.0,inglés,12.0,4.0,2.0,no,no,no,nada,,,,"La silaba ""gu"" casi nunca la elegía porque me parecía que decía ""bu"" todo el rato y no ""gu""",68.0,yes
27,2023-11-08_21h55.01.909,Unsyncopated1,s72,18.0,feminino,right,España,Castellano y catalán,Upper secondary,no,no,A,1,conjunction_syn,L4,syncopated,s2,r2,27,Online_conjL4_syn//b.ja.nu11.666.1554.wav,de,ru,po,ja,sil,ci,pe,nu,sil1,ña,sil2,['catch'],[1.07730000001186],[1.07730000001186],0.666,no_beat,0.4113000000118599,0.4113000000118599,"[""space""]",ja,1,testConjL1Uns//dep_viol.r1.s1.0.wav,2.0,conjunction_un,unsyncopated,a,s1,no_rule,dep,L1,z,0.243,5.0,0.0,0.5862,3 ,2.0,castellano,0.0,catalán,0.0,inglés,12.0,4.0,2.0,no,no,no,nada,,,,"La silaba ""gu"" casi nunca la elegía porque me parecía que decía ""bu"" todo el rato y no ""gu""",68.0,yes
28,2023-11-08_21h55.01.909,Unsyncopated1,s72,18.0,feminino,right,España,Castellano y catalán,Upper secondary,no,no,A,1,conjunction_syn,L4,syncopated,s1,r1,28,Online_conjL4_syn//c.bu.da17.none.none.wav,zi,bo,de,lo,sil,po,ña,re,sil1,ci,sil2,['-'],,,none,none,,,,bu,3,testConjL1Uns//r1.s2.0.wav,2.0,conjunction_un,unsyncopated,a,s2,rule,rule,L1,z,0.142,5.0,1.0,0.5336,3 ,2.0,castellano,0.0,catalán,0.0,inglés,12.0,4.0,2.0,no,no,no,nada,,,,"La silaba ""gu"" casi nunca la elegía porque me parecía que decía ""bu"" todo el rato y no ""gu""",68.0,yes
29,2023-11-08_21h55.01.909,Unsyncopated1,s72,18.0,feminino,right,España,Castellano y catalán,Upper secondary,no,no,A,1,conjunction_syn,L4,syncopated,s2,r2,29,Online_conjL4_syn//c.bu.da16.none.none.wav,po,ci,re,ja,sil,pe,de,nu,sil1,ru,sil2,['-'],,,none,none,,,,bu,3,testConjL1Uns//r2.s2.0.wav,2.0,conjunction_un,unsyncopated,b,s2,rule,rule,L1,m,0.3921,5.0,0.0,0.6929,3 ,2.0,castellano,0.0,catalán,0.0,inglés,12.0,4.0,2.0,no,no,no,nada,,,,"La silaba ""gu"" casi nunca la elegía porque me parecía que decía ""bu"" todo el rato y no ""gu""",68.0,yes
30,2023-11-08_21h55.01.909,Unsyncopated1,s72,18.0,feminino,right,España,Castellano y catalán,Upper secondary,no,no,A,1,conjunction_syn,L4,syncopated,s2,r1,30,Online_conjL4_syn//c.bu.da19.none.none.wav,po,ña,ru,zi,sil,de,pe,lo,sil1,ci,sil2,['-'],,,none,none,,,,bu,3,testConjL1Uns//dep_viol.r2.s2.0.wav,2.0,conjunction_un,unsyncopated,b,s2,no_rule,dep,L1,z,0.9643,4.0,0.0,0.4971,3 ,2.0,castellano,0.0,catalán,0.0,inglés,12.0,4.0,2.0,no,no,no,nada,,,,"La silaba ""gu"" casi nunca la elegía porque me parecía que decía ""bu"" todo el rato y no ""gu""",68.0,yes
31,2023-11-08_21h55.01.909,Unsyncopated1,s72,18.0,feminino,right,España,Castellano y catalán,Upper secondary,no,no,A,1,conjunction_syn,L4,syncopated,s1,r1,31,Online_conjL4_syn//c.bu.da18.1110.1332.wav,zi,bo,ñi,lo,sil,bu,da,de,sil1,po,sil2,['catch'],[1.5906999999881464],[1.5906999999881464],1.11,no_beat,0.4806999999881463,0.4806999999881463,"[""space""]",bu,3,testConjL1Uns//r1.s1.0.wav,2.0,conjunction_un,unsyncopated,a,s1,rule,rule,L1,m,0.5799,4.0,0.0,0.5909,3 ,2.0,castellano,0.0,catalán,0.0,inglés,12.0,4.0,2.0,no,no,no,nada,,,,"La silaba ""gu"" casi nunca la elegía porque me parecía que decía ""bu"" todo el rato y no ""gu""",68.0,yes
32,2023-11-08_21h55.01.909,Unsyncopated1,s72,18.0,feminino,right,España,Castellano y catalán,Upper secondary,no,no,A,1,conjunction_syn,L4,syncopated,s1,r2,32,Online_conjL4_syn//c.bu.da10.none.none.wav,ja,de,bo,nu,sil,ñi,ru,po,sil1,pe,sil2,['false alarm'],[1.9287000000178978],[1.9287000000178978],none,none,,,"[""space""]",bu,3,testConjL1Uns//r2.s1.1.wav,2.0,conjunction_un,unsyncopated,b,s1,rule,rule,L1,z,0.2194,6.0,1.0,0.7229,3 ,2.0,castellano,0.0,catalán,0.0,inglés,12.0,4.0,2.0,no,no,no,nada,,,,"La silaba ""gu"" casi nunca la elegía porque me parecía que decía ""bu"" todo el rato y no ""gu""",68.0,yes
33,2023-11-08_21h55.01.909,Unsyncopated1,s72,18.0,feminino,right,España,Castellano y catalán,Upper secondary,no,no,A,1,conjunction_syn,L4,syncopated,s2,r1,33,Online_conjL4_syn//c.bu.da9.444.1110.wav,pe,re,bu,zi,sil,da,po,lo,sil1,de,sil2,['catch'],[1.1255999999940514],[1.1255999999940514],0.444,no_beat,0.6815999999940514,0.6815999999940514,"[""space""]",bu,3,testConjL1Uns//r1.s1.1.wav,2.0,conjunction_un,unsyncopated,a,s1,rule,rule,L1,z,0.5623,4.0,1.0,0.6387,3 ,2.0,castellano,0.0,catalán,0.0,inglés,12.0,4.0,2.0,no,no,no,nada,,,,"La silaba ""gu"" casi nunca la elegía porque me parecía que decía ""bu"" todo el rato y no ""gu""",68.0,yes
34,2023-11-08_21h55.01.909,Unsyncopated1,s72,18.0,feminino,right,España,Castellano y catalán,Upper secondary,no,no,A,1,conjunction_syn,L4,syncopated,s1,r1,34,Online_conjL4_syn//c.bu.da11.1332.222.wav,zi,da,po,lo,sil,bo,bu,ci,sil1,pe,sil2,['catch'],[1.9677999999821623],[1.9677999999821623],1.332,no_beat,0.6357999999821622,0.6357999999821622,"[""space""]",bu,3,testConjL1Uns//cat_viol.r1.s2.0.wav,2.0,conjunction_un,unsyncopated,a,s2,no_rule,cat,L1,m,0.2673,3.0,1.0,0.2823,3 ,2.0,castellano,0.0,catalán,0.0,inglés,12.0,4.0,2.0,no,no,no,nada,,,,"La silaba ""gu"" casi nunca la elegía porque me parecía que decía ""bu"" todo el rato y no ""gu""",68.0,yes
35,2023-11-08_21h55.01.909,Unsyncopated1,s72,18.0,feminino,right,España,Castellano y catalán,Upper secondary,no,no,A,1,conjunction_syn,L4,syncopated,s1,r2,35,Online_conjL4_syn//c.bu.da8.222.444.wav,ja,bu,da,nu,sil,re,ru,ñi,sil1,de,sil2,['catch'],[0.8812999999820477],[0.8812999999820477],0.222,no_beat,0.6592999999820477,0.6592999999820477,"[""space""]",bu,3,testConjL1Uns//time_viol.r2.s1.0.wav,2.0,conjunction_un,unsyncopated,b,s1,no_rule,time,L1,z,0.1237,4.0,0.0,0.4306,3 ,2.0,castellano,0.0,catalán,0.0,inglés,12.0,4.0,2.0,no,no,no,nada,,,,"La silaba ""gu"" casi nunca la elegía porque me parecía que decía ""bu"" todo el rato y no ""gu""",68.0,yes
36,2023-11-08_21h55.01.909,Unsyncopated1,s72,18.0,feminino,right,España,Castellano y catalán,Upper secondary,no,no,A,1,conjunction_syn,L4,syncopated,s2,r2,36,Online_conjL4_syn//d.pe.po29.none.none.wav,da,ña,ru,ja,sil,ñi,de,nu,sil1,ci,sil2,['-'],,,none,none,,,,pe,4,testConjL1Uns//cat_viol.r1.s1.0.wav,2.0,conjunction_un,unsyncopated,a,s1,no_rule,cat,L1,z,0.2317,4.0,0.0,0.435,3 ,2.0,castellano,0.0,catalán,0.0,inglés,12.0,4.0,2.0,no,no,no,nada,,,,"La silaba ""gu"" casi nunca la elegía porque me parecía que decía ""bu"" todo el rato y no ""gu""",68.0,yes
37,2023-11-08_21h55.01.909,Unsyncopated1,s72,18.0,feminino,right,España,Castellano y catalán,Upper secondary,no,no,A,1,conjunction_syn,L4,syncopated,s2,r1,37,Online_conjL4_syn//d.pe.po30.444.0.wav,po,ru,pe,zi,sil,bu,ci,lo,sil1,re,sil2,['miss'],,,0.444,no_beat,,,,pe,4,testConjL1Uns//time_viol.r2.s2.0.wav,2.0,conjunction_un,unsyncopated,b,s2,no_rule,time,L1,m,0.4305,3.0,1.0,0.5689,3 ,2.0,castellano,0.0,catalán,0.0,inglés,12.0,4.0,2.0,no,no,no,nada,,,,"La silaba ""gu"" casi nunca la elegía porque me parecía que decía ""bu"" todo el rato y no ""gu""",68.0,yes
38,2023-11-08_21h55.01.909,Unsyncopated1,s72,18.0,feminino,right,España,Castellano y catalán,Upper secondary,no,no,A,1,conjunction_syn,L4,syncopated,s1,r2,38,Online_conjL4_syn//d.pe.po28.none.none.wav,ja,ru,ña,nu,sil,re,bu,da,sil1,ci,sil2,['-'],,,none,none,,,,pe,4,testConjL1Uns//dep_viol.r2.s1.0.wav,2.0,conjunction_un,unsyncopated,b,s1,no_rule,dep,L1,z,0.1185,4.0,0.0,0.613,3 ,2.0,castellano,0.0,catalán,0.0,inglés,12.0,4.0,2.0,no,no,no,nada,,,,"La silaba ""gu"" casi nunca la elegía porque me parecía que decía ""bu"" todo el rato y no ""gu""",68.0,yes
39,2023-11-08_21h55.01.909,Unsyncopated1,s72,18.0,feminino,right,España,Castellano y catalán,Upper secondary,no,no,A,1,conjunction_syn,L4,syncopated,s1,r2,39,Online_conjL4_syn//d.pe.po31.444.1332.wav,ja,re,pe,nu,sil,de,po,ci,sil1,bo,sil2,['catch'],[1.0267999999821313],[1.0267999999821313],0.444,no_beat,0.5827999999821314,0.5827999999821314,"[""space""]",pe,4,testConjL1Uns//time_viol.r1.s1.0.wav,2.0,conjunction_un,unsyncopated,a,s1,no_rule,time,L1,m,0.1841,6.0,1.0,0.9882,3 ,2.0,castellano,0.0,catalán,0.0,inglés,12.0,4.0,2.0,no,no,no,nada,,,,"La silaba ""gu"" casi nunca la elegía porque me parecía que decía ""bu"" todo el rato y no ""gu""",68.0,yes
40,2023-11-08_21h55.01.909,Unsyncopated1,s72,18.0,feminino,right,España,Castellano y catalán,Upper secondary,no,no,A,1,conjunction_syn,L4,syncopated,s2,r2,40,Online_conjL4_syn//d.pe.po13.none.none.wav,ci,ru,da,ja,sil,de,ñi,nu,sil1,bu,sil2,['-'],,,none,none,,,,pe,4,testConjL1Uns//r1.s1.2.wav,2.0,conjunction_un,unsyncopated,a,s1,rule,rule,L1,m,0.7168,3.0,0.0,0.676,3 ,2.0,castellano,0.0,catalán,0.0,inglés,12.0,4.0,2.0,no,no,no,nada,,,,"La silaba ""gu"" casi nunca la elegía porque me parecía que decía ""bu"" todo el rato y no ""gu""",68.0,yes
41,2023-11-08_21h55.01.909,Unsyncopated1,s72,18.0,feminino,right,España,Castellano y catalán,Upper secondary,no,no,A,1,conjunction_syn,L4,syncopated,s2,r2,41,Online_conjL4_syn//d.pe.po15.222.1110.wav,ci,pe,de,ja,sil,po,bo,nu,sil1,da,sil2,['miss'],,,0.222,no_beat,,,,pe,4,testConjL1Uns//r2.s1.2.wav,2.0,conjunction_un,unsyncopated,b,s1,rule,rule,L1,z,0.0347,4.0,1.0,0.518,3 ,2.0,castellano,0.0,catalán,0.0,inglés,12.0,4.0,2.0,no,no,no,nada,,,,"La silaba ""gu"" casi nunca la elegía porque me parecía que decía ""bu"" todo el rato y no ""gu""",68.0,yes
42,2023-11-08_21h55.01.909,Unsyncopated1,s72,18.0,feminino,right,España,Castellano y catalán,Upper secondary,no,no,A,1,conjunction_syn,L4,syncopated,s2,r1,42,Online_conjL4_syn//d.pe.po12.none.none.wav,bu,de,re,zi,sil,ña,ci,lo,sil1,ñi,sil2,['-'],,,none,none,,,,pe,4,testConjL1Uns//r1.s2.2.wav,2.0,conjunction_un,unsyncopated,a,s2,rule,rule,L1,z,0.0257,5.0,1.0,0.5882,3 ,2.0,castellano,0.0,catalán,0.0,inglés,12.0,4.0,2.0,no,no,no,nada,,,,"La silaba ""gu"" casi nunca la elegía porque me parecía que decía ""bu"" todo el rato y no ""gu""",68.0,yes
43,2023-11-08_21h55.01.909,Unsyncopated1,s72,18.0,feminino,right,España,Castellano y catalán,Upper secondary,no,no,A,1,conjunction_syn,L4,syncopated,s1,r2,43,Online_conjL4_syn//d.pe.po14.1110.1332.wav,ja,bo,bu,nu,sil,pe,po,de,sil1,da,sil2,['miss'],,,1.11,no_beat,,,,pe,4,testConjL1Uns//r1.s2.1.wav,2.0,conjunction_un,unsyncopated,a,s2,rule,rule,L1,m,0.194,3.0,0.0,0.4751,3 ,2.0,castellano,0.0,catalán,0.0,inglés,12.0,4.0,2.0,no,no,no,nada,,,,"La silaba ""gu"" casi nunca la elegía porque me parecía que decía ""bu"" todo el rato y no ""gu""",68.0,yes
44,2023-11-08_21h55.01.909,Unsyncopated1,s72,18.0,feminino,right,España,Castellano y catalán,Upper secondary,no,no,A,1,conjunction_syn,L4,syncopated,s2,r1,44,Online_conjL4_syn//a.zi.lo9.666.1554.wav,po,ci,bu,zi,sil,de,ña,lo,sil1,ñi,sil2,['catch'],[2.086500000000001],[2.086500000000001],1.554,no_beat,0.5325000000000009,0.5325000000000009,"[""space""]",lo,2,testConjL1Uns//cat_viol.r2.s1.0.wav,2.0,conjunction_un,unsyncopated,b,s1,no_rule,cat,L1,m,0.2697,4.0,1.0,0.2305,3 ,2.0,castellano,0.0,catalán,0.0,inglés,12.0,4.0,2.0,no,no,no,nada,,,,"La silaba ""gu"" casi nunca la elegía porque me parecía que decía ""bu"" todo el rato y no ""gu""",68.0,yes
45,2023-11-08_21h55.01.909,Unsyncopated1,s72,18.0,feminino,right,España,Castellano y catalán,Upper secondary,no,no,A,1,conjunction_syn,L4,syncopated,s1,r1,45,Online_conjL4_syn//a.zi.lo8.0.666.wav,zi,pe,re,lo,sil,ña,bo,bu,sil1,de,sil2,['catch'],[1.2069000000059305],[1.2069000000059305],0.666,no_beat,0.5409000000059304,0.5409000000059304,"[""space""]",lo,2,testConjL1Uns//cat_viol.r2.s2.0.wav,2.0,conjunction_un,unsyncopated,b,s2,no_rule,cat,L1,z,0.3521,5.0,0.0,0.4752,3 ,2.0,castellano,0.0,catalán,0.0,inglés,12.0,4.0,2.0,no,no,no,nada,,,,"La silaba ""gu"" casi nunca la elegía porque me parecía que decía ""bu"" todo el rato y no ""gu""",68.0,yes
46,2023-11-08_21h55.01.909,Unsyncopated1,s72,18.0,feminino,right,España,Castellano y catalán,Upper secondary,no,no,A,1,conjunction_syn,L4,syncopated,s2,r1,46,Online_conjL4_syn//a.zi.lo11.666.1554.wav,bu,ru,ci,zi,sil,po,de,lo,sil1,da,sil2,['catch'],[2.055400000005875],[2.055400000005875],1.554,no_beat,0.5014000000058749,0.5014000000058749,"[""space""]",lo,2,testConjL1Uns//r2.s2.2.wav,2.0,conjunction_un,unsyncopated,b,s2,rule,rule,L1,m,0.2332,4.0,0.0,0.1888,3 ,2.0,castellano,0.0,catalán,0.0,inglés,12.0,4.0,2.0,no,no,no,nada,,,,"La silaba ""gu"" casi nunca la elegía porque me parecía que decía ""bu"" todo el rato y no ""gu""",68.0,yes
47,2023-11-08_21h55.01.909,Unsyncopated1,s72,18.0,feminino,right,España,Castellano y catalán,Upper secondary,no,no,A,1,conjunction_syn,L4,syncopated,s1,r2,47,Online_conjL4_syn//a.zi.lo10.none.none.wav,ja,bu,de,nu,sil,re,ci,bo,sil1,ña,sil2,['-'],,,none,none,,,,lo,2,testConjL1Uns//r2.s1.0.wav,2.0,conjunction_un,unsyncopated,b,s1,rule,rule,L1,z,1.3653,6.0,1.0,0.5835,3 ,2.0,castellano,0.0,catalán,0.0,inglés,12.0,4.0,2.0,no,no,no,nada,,,,"La silaba ""gu"" casi nunca la elegía porque me parecía que decía ""bu"" todo el rato y no ""gu""",68.0,yes
48,2023-11-08_21h55.01.909,Unsyncopated1,s72,18.0,feminino,right,España,Castellano y catalán,Upper secondary,no,no,A,1,conjunction_syn,L4,syncopated,s2,r2,48,Online_conjL4_syn//c.bu.da2.0.222.wav,bu,da,ñi,ja,sil,pe,re,nu,sil1,bo,sil2,['catch'],[0.8294000000059896],[0.8294000000059896],0.0,beat,0.8294000000059896,0.8294000000059896,"[""space""]",bu,3,testWhatL2Uns//r2.s2.0.wav,3.0,what,unsyncopated,b,s2,rule,rule,L2,z,19.0256,3.0,1.0,0.7004,3 ,2.0,castellano,0.0,catalán,0.0,inglés,12.0,4.0,2.0,no,no,no,nada,,,,"La silaba ""gu"" casi nunca la elegía porque me parecía que decía ""bu"" todo el rato y no ""gu""",68.0,yes
49,2023-11-08_21h55.01.909,Unsyncopated1,s72,18.0,feminino,right,España,Castellano y catalán,Upper secondary,no,no,A,1,conjunction_syn,L4,syncopated,s1,r2,49,Online_conjL4_syn//c.bu.da1.none.none.wav,ja,po,pe,nu,sil,ñi,ru,bo,sil1,ci,sil2,['-'],,,none,none,,,,bu,3,testWhatL2Uns//cat_viol.r1.s2.0.wav,3.0,what,unsyncopated,a,s2,no_rule,cat,L2,m,1.8505,4.0,1.0,0.7651,3 ,2.0,castellano,0.0,catalán,0.0,inglés,12.0,4.0,2.0,no,no,no,nada,,,,"La silaba ""gu"" casi nunca la elegía porque me parecía que decía ""bu"" todo el rato y no ""gu""",68.0,yes
50,2023-11-08_21h55.01.909,Unsyncopated1,s72,18.0,feminino,right,España,Castellano y catalán,Upper secondary,no,no,A,1,conjunction_syn,L4,syncopated,s1,r2,50,Online_conjL4_syn//c.bu.da0.none.none.wav,ja,bo,re,nu,sil,ñi,ña,pe,sil1,ci,sil2,['-'],,,none,none,,,,bu,3,testWhatL2Uns//time_viol.r1.s1.0.wav,3.0,what,unsyncopated,a,s1,no_rule,time,L2,m,0.3792,5.0,1.0,0.9438,3 ,2.0,castellano,0.0,catalán,0.0,inglés,12.0,4.0,2.0,no,no,no,nada,,,,"La silaba ""gu"" casi nunca la elegía porque me parecía que decía ""bu"" todo el rato y no ""gu""",68.0,yes
51,2023-11-08_21h55.01.909,Unsyncopated1,s72,18.0,feminino,right,España,Castellano y catalán,Upper secondary,no,no,A,1,conjunction_syn,L4,syncopated,s2,r2,51,Online_conjL4_syn//c.bu.da3.0.444.wav,bu,ci,da,ja,sil,pe,po,nu,sil1,bo,sil2,['catch'],[0.49140000000591044],[0.49140000000591044],0.0,beat,0.4914000000059104,0.4914000000059104,"[""space""]",bu,3,testWhatL2Uns//time_viol.r2.s1.0.wav,3.0,what,unsyncopated,b,s1,no_rule,time,L2,z,0.3078,6.0,0.0,0.5503,3 ,2.0,castellano,0.0,catalán,0.0,inglés,12.0,4.0,2.0,no,no,no,nada,,,,"La silaba ""gu"" casi nunca la elegía porque me parecía que decía ""bu"" todo el rato y no ""gu""",68.0,yes
52,2023-11-08_21h55.01.909,Unsyncopated1,s72,18.0,feminino,right,España,Castellano y catalán,Upper secondary,no,no,A,1,conjunction_syn,L4,syncopated,s2,r2,52,Online_conjL4_syn//c.bu.da23.444.1110.wav,ña,re,bu,ja,sil,da,de,nu,sil1,ci,sil2,['catch'],[1.120599999994056],[1.120599999994056],0.444,no_beat,0.676599999994056,0.676599999994056,"[""space""]",bu,3,testWhatL2Uns//r1.s1.0.wav,3.0,what,unsyncopated,a,s1,rule,rule,L2,z,0.8779,4.0,1.0,0.4812,3 ,2.0,castellano,0.0,catalán,0.0,inglés,12.0,4.0,2.0,no,no,no,nada,,,,"La silaba ""gu"" casi nunca la elegía porque me parecía que decía ""bu"" todo el rato y no ""gu""",68.0,yes
53,2023-11-08_21h55.01.909,Unsyncopated1,s72,18.0,feminino,right,España,Castellano y catalán,Upper secondary,no,no,A,1,conjunction_syn,L4,syncopated,s1,r2,53,Online_conjL4_syn//c.bu.da20.444.1332.wav,ja,pe,bu,nu,sil,ci,da,re,sil1,ru,sil2,['catch'],[1.15300000000002],[1.15300000000002],0.444,no_beat,0.7090000000000201,0.7090000000000201,"[""space""]",bu,3,testWhatL2Uns//cat_viol.r2.s1.0.wav,3.0,what,unsyncopated,b,s1,no_rule,cat,L2,z,0.5812,3.0,0.0,0.578,3 ,2.0,castellano,0.0,catalán,0.0,inglés,12.0,4.0,2.0,no,no,no,nada,,,,"La silaba ""gu"" casi nunca la elegía porque me parecía que decía ""bu"" todo el rato y no ""gu""",68.0,yes
54,2023-11-08_21h55.01.909,Unsyncopated1,s72,18.0,feminino,right,España,Castellano y catalán,Upper secondary,no,no,A,1,conjunction_syn,L4,syncopated,s2,r2,54,Online_conjL4_syn//c.bu.da21.none.none.wav,ña,re,po,ja,sil,de,ñi,nu,sil1,ru,sil2,['-'],,,none,none,,,,bu,3,testWhatL2Uns//r1.s2.2.wav,3.0,what,unsyncopated,a,s2,rule,rule,L2,z,0.2412,5.0,1.0,0.359,3 ,2.0,castellano,0.0,catalán,0.0,inglés,12.0,4.0,2.0,no,no,no,nada,,,,"La silaba ""gu"" casi nunca la elegía porque me parecía que decía ""bu"" todo el rato y no ""gu""",68.0,yes
55,2023-11-08_21h55.01.909,Unsyncopated1,s72,18.0,feminino,right,España,Castellano y catalán,Upper secondary,no,no,A,1,conjunction_syn,L4,syncopated,s2,r1,55,Online_conjL4_syn//c.bu.da22.0.222.wav,bu,da,bo,zi,sil,re,ru,lo,sil1,ñi,sil2,['catch'],[0.6217000000178814],[0.6217000000178814],0.0,beat,0.6217000000178814,0.6217000000178814,"[""space""]",bu,3,testWhatL2Uns//r2.s2.1.wav,3.0,what,unsyncopated,b,s2,rule,rule,L2,z,0.2011,4.0,1.0,0.396,3 ,2.0,castellano,0.0,catalán,0.0,inglés,12.0,4.0,2.0,no,no,no,nada,,,,"La silaba ""gu"" casi nunca la elegía porque me parecía que decía ""bu"" todo el rato y no ""gu""",68.0,yes
56,2023-11-08_21h55.01.909,Unsyncopated1,s72,18.0,feminino,right,España,Castellano y catalán,Upper secondary,no,no,A,1,conjunction_syn,L4,syncopated,s2,r1,56,Online_conjL4_syn//b.ja.nu16.none.none.wav,da,ru,bo,zi,sil,re,pe,lo,sil1,bu,sil2,['-'],,,none,none,,,,ja,1,testWhatL2Uns//r1.s2.0.wav,3.0,what,unsyncopated,a,s2,rule,rule,L2,m,0.457,4.0,0.0,0.7077,3 ,2.0,castellano,0.0,catalán,0.0,inglés,12.0,4.0,2.0,no,no,no,nada,,,,"La silaba ""gu"" casi nunca la elegía porque me parecía que decía ""bu"" todo el rato y no ""gu""",68.0,yes
57,2023-11-08_21h55.01.909,Unsyncopated1,s72,18.0,feminino,right,España,Castellano y catalán,Upper secondary,no,no,A,1,conjunction_syn,L4,syncopated,s1,r2,57,Online_conjL4_syn//b.ja.nu19.0.666.wav,ja,ña,po,nu,sil,ñi,ru,re,sil1,da,sil2,['catch'],[0.5139000000059468],[0.5139000000059468],0.0,beat,0.5139000000059468,0.5139000000059468,"[""space""]",ja,1,testWhatL2Uns//dep_viol.r2.s1.0.wav,3.0,what,unsyncopated,b,s1,no_rule,dep,L2,z,1.6286,4.0,0.0,0.3341,3 ,2.0,castellano,0.0,catalán,0.0,inglés,12.0,4.0,2.0,no,no,no,nada,,,,"La silaba ""gu"" casi nunca la elegía porque me parecía que decía ""bu"" todo el rato y no ""gu""",68.0,yes
58,2023-11-08_21h55.01.909,Unsyncopated1,s72,18.0,feminino,right,España,Castellano y catalán,Upper secondary,no,no,A,1,conjunction_syn,L4,syncopated,s2,r2,58,Online_conjL4_syn//b.ja.nu18.666.1554.wav,ru,pe,po,ja,sil,bu,bo,nu,sil1,da,sil2,['catch'],[1.067799999982185],[1.067799999982185],0.666,no_beat,0.4017999999821849,0.4017999999821849,"[""space""]",ja,1,testWhatL2Uns//r2.s1.1.wav,3.0,what,unsyncopated,b,s1,rule,rule,L2,m,1.2336,4.0,0.0,1.4921,3 ,2.0,castellano,0.0,catalán,0.0,inglés,12.0,4.0,2.0,no,no,no,nada,,,,"La silaba ""gu"" casi nunca la elegía porque me parecía que decía ""bu"" todo el rato y no ""gu""",68.0,yes
59,2023-11-08_21h55.01.909,Unsyncopated1,s72,18.0,feminino,right,España,Castellano y catalán,Upper secondary,no,no,A,1,conjunction_syn,L4,syncopated,s2,r1,59,Online_conjL4_syn//b.ja.nu17.none.none.wav,ci,ru,de,zi,sil,bo,po,lo,sil1,bu,sil2,['-'],,,none,none,,,,ja,1,testWhatL2Uns//cat_viol.r1.s1.0.wav,3.0,what,unsyncopated,a,s1,no_rule,cat,L2,z,2.3134,2.0,0.0,0.5979,3 ,2.0,castellano,0.0,catalán,0.0,inglés,12.0,4.0,2.0,no,no,no,nada,,,,"La silaba ""gu"" casi nunca la elegía porque me parecía que decía ""bu"" todo el rato y no ""gu""",68.0,yes
60,2023-11-08_21h55.01.909,Unsyncopated1,s72,18.0,feminino,right,España,Castellano y catalán,Upper secondary,no,no,A,1,conjunction_syn,L4,syncopated,s2,r1,60,Online_conjL4_syn//d.pe.po1.1332.222.wav,ñi,po,da,zi,sil,bu,pe,lo,sil1,bo,sil2,['miss'],,,1.332,no_beat,,,,pe,4,testWhatL2Uns//r1.s1.2.wav,3.0,what,unsyncopated,a,s1,rule,rule,L2,z,0.2619,4.0,1.0,0.2339,3 ,2.0,castellano,0.0,catalán,0.0,inglés,12.0,4.0,2.0,no,no,no,nada,,,,"La silaba ""gu"" casi nunca la elegía porque me parecía que decía ""bu"" todo el rato y no ""gu""",68.0,yes
61,2023-11-08_21h55.01.909,Unsyncopated1,s72,18.0,feminino,right,España,Castellano y catalán,Upper secondary,no,no,A,1,conjunction_syn,L4,syncopated,s2,r2,61,Online_conjL4_syn//d.pe.po3.none.none.wav,re,ñi,ña,ja,sil,ci,da,nu,sil1,bo,sil2,['-'],,,none,none,,,,pe,4,testWhatL2Uns//r1.s2.1.wav,3.0,what,unsyncopated,a,s2,rule,rule,L2,m,0.0997,3.0,0.0,0.7889,3 ,2.0,castellano,0.0,catalán,0.0,inglés,12.0,4.0,2.0,no,no,no,nada,,,,"La silaba ""gu"" casi nunca la elegía porque me parecía que decía ""bu"" todo el rato y no ""gu""",68.0,yes
62,2023-11-08_21h55.01.909,Unsyncopated1,s72,18.0,feminino,right,España,Castellano y catalán,Upper secondary,no,no,A,1,conjunction_syn,L4,syncopated,s2,r1,62,Online_conjL4_syn//d.pe.po0.none.none.wav,ci,ru,ña,zi,sil,de,bu,lo,sil1,da,sil2,['-'],,,none,none,,,,pe,4,testWhatL2Uns//time_viol.r1.s2.0.wav,3.0,what,unsyncopated,a,s2,no_rule,time,L2,m,1.7712,4.0,1.0,0.6323,3 ,2.0,castellano,0.0,catalán,0.0,inglés,12.0,4.0,2.0,no,no,no,nada,,,,"La silaba ""gu"" casi nunca la elegía porque me parecía que decía ""bu"" todo el rato y no ""gu""",68.0,yes
63,2023-11-08_21h55.01.909,Unsyncopated1,s72,18.0,feminino,right,España,Castellano y catalán,Upper secondary,no,no,A,1,conjunction_syn,L4,syncopated,s2,r1,63,Online_conjL4_syn//d.pe.po2.none.none.wav,de,bo,da,zi,sil,ci,ñi,lo,sil1,ña,sil2,['-'],,,none,none,,,,pe,4,testWhatL2Uns//dep_viol.r1.s2.0.wav,3.0,what,unsyncopated,a,s2,no_rule,dep,L2,z,0.036,4.0,0.0,0.3047,3 ,2.0,castellano,0.0,catalán,0.0,inglés,12.0,4.0,2.0,no,no,no,nada,,,,"La silaba ""gu"" casi nunca la elegía porque me parecía que decía ""bu"" todo el rato y no ""gu""",68.0,yes
64,2023-11-08_21h55.01.909,Unsyncopated1,s72,18.0,feminino,right,España,Castellano y catalán,Upper secondary,no,no,A,1,conjunction_syn,L4,syncopated,s2,r1,64,Online_conjL4_syn//c.bu.da13.none.none.wav,ci,ñi,ña,zi,sil,ru,re,lo,sil1,po,sil2,['-'],,,none,none,,,,bu,3,testWhatL2Uns//r2.s2.2.wav,3.0,what,unsyncopated,b,s2,rule,rule,L2,z,0.2332,4.0,1.0,0.1883,3 ,2.0,castellano,0.0,catalán,0.0,inglés,12.0,4.0,2.0,no,no,no,nada,,,,"La silaba ""gu"" casi nunca la elegía porque me parecía que decía ""bu"" todo el rato y no ""gu""",68.0,yes
65,2023-11-08_21h55.01.909,Unsyncopated1,s72,18.0,feminino,right,España,Castellano y catalán,Upper secondary,no,no,A,1,conjunction_syn,L4,syncopated,s2,r2,65,Online_conjL4_syn//c.bu.da15.222.444.wav,de,bu,da,ja,sil,ci,bo,nu,sil1,re,sil2,['catch'],[0.839099999994005],[0.839099999994005],0.222,no_beat,0.617099999994005,0.617099999994005,"[""space""]",bu,3,testWhatL2Uns//dep_viol.r1.s1.0.wav,3.0,what,unsyncopated,a,s1,no_rule,dep,L2,z,0.914,5.0,0.0,0.4461,3 ,2.0,castellano,0.0,catalán,0.0,inglés,12.0,4.0,2.0,no,no,no,nada,,,,"La silaba ""gu"" casi nunca la elegía porque me parecía que decía ""bu"" todo el rato y no ""gu""",68.0,yes
66,2023-11-08_21h55.01.909,Unsyncopated1,s72,18.0,feminino,right,España,Castellano y catalán,Upper secondary,no,no,A,1,conjunction_syn,L4,syncopated,s2,r2,66,Online_conjL4_syn//c.bu.da14.none.none.wav,ci,ñi,pe,ja,sil,ru,re,nu,sil1,ña,sil2,['-'],,,none,none,,,,bu,3,testWhatL2Uns//cat_viol.r2.s2.0.wav,3.0,what,unsyncopated,b,s2,no_rule,cat,L2,m,0.0087,4.0,1.0,1.6775,3 ,2.0,castellano,0.0,catalán,0.0,inglés,12.0,4.0,2.0,no,no,no,nada,,,,"La silaba ""gu"" casi nunca la elegía porque me parecía que decía ""bu"" todo el rato y no ""gu""",68.0,yes
67,2023-11-08_21h55.01.909,Unsyncopated1,s72,18.0,feminino,right,España,Castellano y catalán,Upper secondary,no,no,A,1,conjunction_syn,L4,syncopated,s1,r1,67,Online_conjL4_syn//c.bu.da12.1110.1332.wav,zi,ci,ña,lo,sil,bu,da,pe,sil1,po,sil2,['catch'],[1.6180000000000518],[1.6180000000000518],1.11,no_beat,0.5080000000000517,0.5080000000000517,"[""space""]",bu,3,testWhatL2Uns//r2.s1.0.wav,3.0,what,unsyncopated,b,s1,rule,rule,L2,m,0.1521,4.0,0.0,1.0134,3 ,2.0,castellano,0.0,catalán,0.0,inglés,12.0,4.0,2.0,no,no,no,nada,,,,"La silaba ""gu"" casi nunca la elegía porque me parecía que decía ""bu"" todo el rato y no ""gu""",68.0,yes
68,2023-11-08_21h55.01.909,Unsyncopated1,s72,18.0,feminino,right,España,Castellano y catalán,Upper secondary,no,no,A,1,conjunction_syn,L4,syncopated,s1,r1,68,Online_conjL4_syn//d.pe.po25.none.none.wav,zi,ña,ru,lo,sil,da,re,bu,sil1,ci,sil2,['-'],,,none,none,,,,pe,4,testWhatL2Uns//time_viol.r2.s2.0.wav,3.0,what,unsyncopated,b,s2,no_rule,time,L2,z,0.0184,5.0,0.0,0.3622,3 ,2.0,castellano,0.0,catalán,0.0,inglés,12.0,4.0,2.0,no,no,no,nada,,,,"La silaba ""gu"" casi nunca la elegía porque me parecía que decía ""bu"" todo el rato y no ""gu""",68.0,yes
69,2023-11-08_21h55.01.909,Unsyncopated1,s72,18.0,feminino,right,España,Castellano y catalán,Upper secondary,no,no,A,1,conjunction_syn,L4,syncopated,s1,r1,69,Online_conjL4_syn//d.pe.po27.none.none.wav,zi,bo,ñi,lo,sil,ña,de,ci,sil1,ru,sil2,['-'],,,none,none,,,,pe,4,testWhatL2Uns//r1.s1.1.wav,3.0,what,unsyncopated,a,s1,rule,rule,L2,m,0.5159,3.0,0.0,0.6818,3 ,2.0,castellano,0.0,catalán,0.0,inglés,12.0,4.0,2.0,no,no,no,nada,,,,"La silaba ""gu"" casi nunca la elegía porque me parecía que decía ""bu"" todo el rato y no ""gu""",68.0,yes
70,2023-11-08_21h55.01.909,Unsyncopated1,s72,18.0,feminino,right,España,Castellano y catalán,Upper secondary,no,no,A,1,conjunction_syn,L4,syncopated,s1,r2,70,Online_conjL4_syn//d.pe.po24.1332.222.wav,ja,po,ña,nu,sil,re,pe,ñi,sil1,ci,sil2,['miss'],,,1.332,no_beat,,,,pe,4,testWhatL2Uns//r2.s1.2.wav,3.0,what,unsyncopated,b,s1,rule,rule,L2,m,1.5807,4.0,0.0,0.7008,3 ,2.0,castellano,0.0,catalán,0.0,inglés,12.0,4.0,2.0,no,no,no,nada,,,,"La silaba ""gu"" casi nunca la elegía porque me parecía que decía ""bu"" todo el rato y no ""gu""",68.0,yes
71,2023-11-08_21h55.01.909,Unsyncopated1,s72,18.0,feminino,right,España,Castellano y catalán,Upper secondary,no,no,A,1,conjunction_syn,L4,syncopated,s1,r1,71,Online_conjL4_syn//d.pe.po26.none.none.wav,zi,bo,ci,lo,sil,de,ña,da,sil1,ru,sil2,['-'],,,none,none,,,,pe,4,testWhatL2Uns//dep_viol.r2.s2.0.wav,3.0,what,unsyncopated,b,s2,no_rule,dep,L2,z,0.2368,6.0,0.0,0.2509,3 ,2.0,castellano,0.0,catalán,0.0,inglés,12.0,4.0,2.0,no,no,no,nada,,,,"La silaba ""gu"" casi nunca la elegía porque me parecía que decía ""bu"" todo el rato y no ""gu""",68.0,yes
72,2023-11-08_21h55.01.909,Unsyncopated1,s72,18.0,feminino,right,España,Castellano y catalán,Upper secondary,no,no,A,1,conjunction_syn,L4,syncopated,s2,r1,72,Online_conjL4_syn//a.zi.lo19.666.1554.wav,da,bo,po,zi,sil,ru,ci,lo,sil1,bu,sil2,['catch'],[2.1633000000119864],[2.1633000000119864],1.554,no_beat,0.6093000000119864,0.6093000000119864,"[""space""]",lo,2,testWhenL3Uns//dep_viol.r1.s2.0.wav,4.0,when,unsyncopated,a,s2,no_rule,dep,L3,z,1.2666,6.0,1.0,0.892,3 ,2.0,castellano,0.0,catalán,0.0,inglés,12.0,4.0,2.0,no,no,no,nada,,,,"La silaba ""gu"" casi nunca la elegía porque me parecía que decía ""bu"" todo el rato y no ""gu""",68.0,yes
73,2023-11-08_21h55.01.909,Unsyncopated1,s72,18.0,feminino,right,España,Castellano y catalán,Upper secondary,no,no,A,1,conjunction_syn,L4,syncopated,s1,r2,73,Online_conjL4_syn//a.zi.lo18.none.none.wav,ja,pe,ru,nu,sil,de,ñi,bu,sil1,re,sil2,['-'],,,none,none,,,,lo,2,testWhenL3Uns//dep_viol.r1.s1.0.wav,4.0,when,unsyncopated,a,s1,no_rule,dep,L3,z,0.4326,7.0,1.0,0.3159,3 ,2.0,castellano,0.0,catalán,0.0,inglés,12.0,4.0,2.0,no,no,no,nada,,,,"La silaba ""gu"" casi nunca la elegía porque me parecía que decía ""bu"" todo el rato y no ""gu""",68.0,yes
74,2023-11-08_21h55.01.909,Unsyncopated1,s72,18.0,feminino,right,España,Castellano y catalán,Upper secondary,no,no,A,1,conjunction_syn,L4,syncopated,s1,r2,74,Online_conjL4_syn//a.zi.lo17.none.none.wav,ja,po,bu,nu,sil,de,ru,ñi,sil1,ci,sil2,['-'],,,none,none,,,,lo,2,testWhenL3Uns//cat_viol.r2.s2.0.wav,4.0,when,unsyncopated,b,s2,no_rule,cat,L3,m,0.2334,5.0,0.0,0.7884,3 ,2.0,castellano,0.0,catalán,0.0,inglés,12.0,4.0,2.0,no,no,no,nada,,,,"La silaba ""gu"" casi nunca la elegía porque me parecía que decía ""bu"" todo el rato y no ""gu""",68.0,yes
75,2023-11-08_21h55.01.909,Unsyncopated1,s72,18.0,feminino,right,España,Castellano y catalán,Upper secondary,no,no,A,1,conjunction_syn,L4,syncopated,s2,r1,75,Online_conjL4_syn//a.zi.lo16.666.1554.wav,ña,po,ci,zi,sil,pe,de,lo,sil1,ru,sil2,['catch'],[2.0299999999999727],[2.0299999999999727],1.554,no_beat,0.4759999999999726,0.4759999999999726,"[""space""]",lo,2,testWhenL3Uns//cat_viol.r1.s2.0.wav,4.0,when,unsyncopated,a,s2,no_rule,cat,L3,z,0.9778,5.0,1.0,0.4366,3 ,2.0,castellano,0.0,catalán,0.0,inglés,12.0,4.0,2.0,no,no,no,nada,,,,"La silaba ""gu"" casi nunca la elegía porque me parecía que decía ""bu"" todo el rato y no ""gu""",68.0,yes
76,2023-11-08_21h55.01.909,Unsyncopated1,s72,18.0,feminino,right,España,Castellano y catalán,Upper secondary,no,no,A,1,conjunction_syn,L4,syncopated,s2,r2,76,Online_conjL4_syn//d.pe.po22.444.1110.wav,de,ru,pe,ja,sil,po,re,nu,sil1,bo,sil2,['miss'],,,0.444,no_beat,,,,pe,4,testWhenL3Uns//time_viol.r2.s2.0.wav,4.0,when,unsyncopated,b,s2,no_rule,time,L3,m,0.8975,5.0,0.0,0.7608,3 ,2.0,castellano,0.0,catalán,0.0,inglés,12.0,4.0,2.0,no,no,no,nada,,,,"La silaba ""gu"" casi nunca la elegía porque me parecía que decía ""bu"" todo el rato y no ""gu""",68.0,yes
77,2023-11-08_21h55.01.909,Unsyncopated1,s72,18.0,feminino,right,España,Castellano y catalán,Upper secondary,no,no,A,1,conjunction_syn,L4,syncopated,s1,r1,77,Online_conjL4_syn//d.pe.po23.none.none.wav,zi,bo,da,lo,sil,de,ña,ñi,sil1,ru,sil2,['-'],,,none,none,,,,pe,4,testWhenL3Uns//time_viol.r1.s2.0.wav,4.0,when,unsyncopated,a,s2,no_rule,time,L3,z,0.0604,7.0,1.0,0.6091,3 ,2.0,castellano,0.0,catalán,0.0,inglés,12.0,4.0,2.0,no,no,no,nada,,,,"La silaba ""gu"" casi nunca la elegía porque me parecía que decía ""bu"" todo el rato y no ""gu""",68.0,yes
78,2023-11-08_21h55.01.909,Unsyncopated1,s72,18.0,feminino,right,España,Castellano y catalán,Upper secondary,no,no,A,1,conjunction_syn,L4,syncopated,s1,r2,78,Online_conjL4_syn//d.pe.po21.none.none.wav,ja,bo,bu,nu,sil,ci,ña,de,sil1,ru,sil2,['-'],,,none,none,,,,pe,4,testWhenL3Uns//r2.s1.2.wav,4.0,when,unsyncopated,b,s1,rule,rule,L3,z,0.2997,6.0,1.0,0.372,3 ,2.0,castellano,0.0,catalán,0.0,inglés,12.0,4.0,2.0,no,no,no,nada,,,,"La silaba ""gu"" casi nunca la elegía porque me parecía que decía ""bu"" todo el rato y no ""gu""",68.0,yes
79,2023-11-08_21h55.01.909,Unsyncopated1,s72,18.0,feminino,right,España,Castellano y catalán,Upper secondary,no,no,A,1,conjunction_syn,L4,syncopated,s1,r1,79,Online_conjL4_syn//d.pe.po20.1332.444.wav,zi,ru,po,lo,sil,bo,pe,de,sil1,da,sil2,['miss'],,,1.332,no_beat,,,,pe,4,testWhenL3Uns//r1.s2.2.wav,4.0,when,unsyncopated,a,s2,rule,rule,L3,m,0.2852,5.0,0.0,0.2728,3 ,2.0,castellano,0.0,catalán,0.0,inglés,12.0,4.0,2.0,no,no,no,nada,,,,"La silaba ""gu"" casi nunca la elegía porque me parecía que decía ""bu"" todo el rato y no ""gu""",68.0,yes
80,2023-11-08_21h55.01.909,Unsyncopated1,s72,18.0,feminino,right,España,Castellano y catalán,Upper secondary,no,no,A,1,conjunction_syn,L4,syncopated,s2,r2,80,Online_conjL4_syn//d.pe.po4.none.none.wav,ña,bu,de,ja,sil,re,ci,nu,sil1,bo,sil2,['-'],,,none,none,,,,pe,4,testWhenL3Uns//r2.s2.2.wav,4.0,when,unsyncopated,b,s2,rule,rule,L3,m,0.2714,5.0,0.0,0.3174,3 ,2.0,castellano,0.0,catalán,0.0,inglés,12.0,4.0,2.0,no,no,no,nada,,,,"La silaba ""gu"" casi nunca la elegía porque me parecía que decía ""bu"" todo el rato y no ""gu""",68.0,yes
81,2023-11-08_21h55.01.909,Unsyncopated1,s72,18.0,feminino,right,España,Castellano y catalán,Upper secondary,no,no,A,1,conjunction_syn,L4,syncopated,s2,r1,81,Online_conjL4_syn//d.pe.po7.1110.0.wav,po,ñi,de,zi,sil,pe,bu,lo,sil1,ña,sil2,['miss'],,,1.11,no_beat,,,,pe,4,testWhenL3Uns//r1.s2.0.wav,4.0,when,unsyncopated,a,s2,rule,rule,L3,z,2.092,3.0,1.0,0.2913,3 ,2.0,castellano,0.0,catalán,0.0,inglés,12.0,4.0,2.0,no,no,no,nada,,,,"La silaba ""gu"" casi nunca la elegía porque me parecía que decía ""bu"" todo el rato y no ""gu""",68.0,yes
82,2023-11-08_21h55.01.909,Unsyncopated1,s72,18.0,feminino,right,España,Castellano y catalán,Upper secondary,no,no,A,1,conjunction_syn,L4,syncopated,s1,r1,82,Online_conjL4_syn//d.pe.po6.1110.222.wav,zi,po,de,lo,sil,pe,ñi,ru,sil1,ci,sil2,['miss'],,,1.11,no_beat,,,,pe,4,testWhenL3Uns//cat_viol.r2.s1.0.wav,4.0,when,unsyncopated,b,s1,no_rule,cat,L3,m,0.2558,6.0,0.0,0.6512,3 ,2.0,castellano,0.0,catalán,0.0,inglés,12.0,4.0,2.0,no,no,no,nada,,,,"La silaba ""gu"" casi nunca la elegía porque me parecía que decía ""bu"" todo el rato y no ""gu""",68.0,yes
83,2023-11-08_21h55.01.909,Unsyncopated1,s72,18.0,feminino,right,España,Castellano y catalán,Upper secondary,no,no,A,1,conjunction_syn,L4,syncopated,s2,r1,83,Online_conjL4_syn//d.pe.po5.222.1110.wav,ñi,pe,da,zi,sil,po,ru,lo,sil1,bo,sil2,['miss'],,,0.222,no_beat,,,,pe,4,testWhenL3Uns//r1.s2.1.wav,4.0,when,unsyncopated,a,s2,rule,rule,L3,m,0.2513,4.0,0.0,0.2607,3 ,2.0,castellano,0.0,catalán,0.0,inglés,12.0,4.0,2.0,no,no,no,nada,,,,"La silaba ""gu"" casi nunca la elegía porque me parecía que decía ""bu"" todo el rato y no ""gu""",68.0,yes
84,2023-11-08_21h55.01.909,Unsyncopated1,s72,18.0,feminino,right,España,Castellano y catalán,Upper secondary,no,no,A,1,conjunction_syn,L4,syncopated,s1,r2,84,Online_conjL4_syn//b.ja.nu4.0.666.wav,ja,re,ru,nu,sil,po,pe,da,sil1,ñi,sil2,['catch'],[0.7559000000057949],[0.7559000000057949],0.0,beat,0.7559000000057949,0.7559000000057949,"[""space""]",ja,1,testWhenL3Uns//cat_viol.r1.s1.0.wav,4.0,when,unsyncopated,a,s1,no_rule,cat,L3,z,0.1425,7.0,1.0,0.3974,3 ,2.0,castellano,0.0,catalán,0.0,inglés,12.0,4.0,2.0,no,no,no,nada,,,,"La silaba ""gu"" casi nunca la elegía porque me parecía que decía ""bu"" todo el rato y no ""gu""",68.0,yes
85,2023-11-08_21h55.01.909,Unsyncopated1,s72,18.0,feminino,right,España,Castellano y catalán,Upper secondary,no,no,A,1,conjunction_syn,L4,syncopated,s2,r1,85,Online_conjL4_syn//b.ja.nu6.none.none.wav,ña,po,ru,zi,sil,ñi,re,lo,sil1,bo,sil2,['-'],,,none,none,,,,ja,1,testWhenL3Uns//time_viol.r2.s1.0.wav,4.0,when,unsyncopated,b,s1,no_rule,time,L3,m,0.3803,3.0,0.0,1.0308,3 ,2.0,castellano,0.0,catalán,0.0,inglés,12.0,4.0,2.0,no,no,no,nada,,,,"La silaba ""gu"" casi nunca la elegía porque me parecía que decía ""bu"" todo el rato y no ""gu""",68.0,yes
86,2023-11-08_21h55.01.909,Unsyncopated1,s72,18.0,feminino,right,España,Castellano y catalán,Upper secondary,no,no,A,1,conjunction_syn,L4,syncopated,s1,r1,86,Online_conjL4_syn//b.ja.nu7.none.none.wav,zi,po,pe,lo,sil,ci,bu,ñi,sil1,ru,sil2,['-'],,,none,none,,,,ja,1,testWhenL3Uns//r1.s1.2.wav,4.0,when,unsyncopated,a,s1,rule,rule,L3,m,0.1923,4.0,0.0,0.382,3 ,2.0,castellano,0.0,catalán,0.0,inglés,12.0,4.0,2.0,no,no,no,nada,,,,"La silaba ""gu"" casi nunca la elegía porque me parecía que decía ""bu"" todo el rato y no ""gu""",68.0,yes
87,2023-11-08_21h55.01.909,Unsyncopated1,s72,18.0,feminino,right,España,Castellano y catalán,Upper secondary,no,no,A,1,conjunction_syn,L4,syncopated,s1,r1,87,Online_conjL4_syn//b.ja.nu5.none.none.wav,zi,bo,pe,lo,sil,po,re,da,sil1,ñi,sil2,['-'],,,none,none,,,,ja,1,testWhenL3Uns//r2.s1.1.wav,4.0,when,unsyncopated,b,s1,rule,rule,L3,z,0.0762,6.0,1.0,0.3609,3 ,2.0,castellano,0.0,catalán,0.0,inglés,12.0,4.0,2.0,no,no,no,nada,,,,"La silaba ""gu"" casi nunca la elegía porque me parecía que decía ""bu"" todo el rato y no ""gu""",68.0,yes
88,2023-11-08_21h55.01.909,Unsyncopated1,s72,18.0,feminino,right,España,Castellano y catalán,Upper secondary,no,no,A,1,conjunction_syn,L4,syncopated,s2,r2,88,Online_conjL4_syn//b.ja.nu27.666.1554.wav,ña,po,re,ja,sil,de,bo,nu,sil1,ci,sil2,['catch'],[1.2798000000120737],[1.2798000000120737],0.666,no_beat,0.6138000000120737,0.6138000000120737,"[""space""]",ja,1,testWhenL3Uns//r2.s2.1.wav,4.0,when,unsyncopated,b,s2,rule,rule,L3,z,0.704,4.0,1.0,0.5346,3 ,2.0,castellano,0.0,catalán,0.0,inglés,12.0,4.0,2.0,no,no,no,nada,,,,"La silaba ""gu"" casi nunca la elegía porque me parecía que decía ""bu"" todo el rato y no ""gu""",68.0,yes
89,2023-11-08_21h55.01.909,Unsyncopated1,s72,18.0,feminino,right,España,Castellano y catalán,Upper secondary,no,no,A,1,conjunction_syn,L4,syncopated,s2,r1,89,Online_conjL4_syn//b.ja.nu24.none.none.wav,bo,ñi,re,zi,sil,pe,ci,lo,sil1,de,sil2,['-'],,,none,none,,,,ja,1,testWhenL3Uns//dep_viol.r2.s1.0.wav,4.0,when,unsyncopated,b,s1,no_rule,dep,L3,m,0.4727,5.0,0.0,0.6806,3 ,2.0,castellano,0.0,catalán,0.0,inglés,12.0,4.0,2.0,no,no,no,nada,,,,"La silaba ""gu"" casi nunca la elegía porque me parecía que decía ""bu"" todo el rato y no ""gu""",68.0,yes
90,2023-11-08_21h55.01.909,Unsyncopated1,s72,18.0,feminino,right,España,Castellano y catalán,Upper secondary,no,no,A,1,conjunction_syn,L4,syncopated,s1,r1,90,Online_conjL4_syn//b.ja.nu25.none.none.wav,zi,pe,da,lo,sil,re,po,bo,sil1,ci,sil2,['-'],,,none,none,,,,ja,1,testWhenL3Uns//r2.s2.0.wav,4.0,when,unsyncopated,b,s2,rule,rule,L3,z,0.251,6.0,1.0,0.3961,3 ,2.0,castellano,0.0,catalán,0.0,inglés,12.0,4.0,2.0,no,no,no,nada,,,,"La silaba ""gu"" casi nunca la elegía porque me parecía que decía ""bu"" todo el rato y no ""gu""",68.0,yes
91,2023-11-08_21h55.01.909,Unsyncopated1,s72,18.0,feminino,right,España,Castellano y catalán,Upper secondary,no,no,A,1,conjunction_syn,L4,syncopated,s2,r2,91,Online_conjL4_syn//b.ja.nu26.666.1554.wav,pe,bu,ña,ja,sil,po,ru,nu,sil1,bo,sil2,['catch'],[1.2083000000120592],[1.2083000000120592],0.666,no_beat,0.5423000000120591,0.5423000000120591,"[""space""]",ja,1,testWhenL3Uns//time_viol.r1.s1.0.wav,4.0,when,unsyncopated,a,s1,no_rule,time,L3,m,0.0666,6.0,0.0,0.4747,3 ,2.0,castellano,0.0,catalán,0.0,inglés,12.0,4.0,2.0,no,no,no,nada,,,,"La silaba ""gu"" casi nunca la elegía porque me parecía que decía ""bu"" todo el rato y no ""gu""",68.0,yes
92,2023-11-08_21h55.01.909,Unsyncopated1,s72,18.0,feminino,right,España,Castellano y catalán,Upper secondary,no,no,A,1,conjunction_syn,L4,syncopated,s1,r2,92,Online_conjL4_syn//b.ja.nu12.0.666.wav,ja,ñi,de,nu,sil,pe,po,da,sil1,ru,sil2,['catch'],[0.5738000000119428],[0.5738000000119428],0.0,beat,0.5738000000119428,0.5738000000119428,"[""space""]",ja,1,testWhenL3Uns//r1.s1.1.wav,4.0,when,unsyncopated,a,s1,rule,rule,L3,z,0.3522,4.0,1.0,0.3163,3 ,2.0,castellano,0.0,catalán,0.0,inglés,12.0,4.0,2.0,no,no,no,nada,,,,"La silaba ""gu"" casi nunca la elegía porque me parecía que decía ""bu"" todo el rato y no ""gu""",68.0,yes
93,2023-11-08_21h55.01.909,Unsyncopated1,s72,18.0,feminino,right,España,Castellano y catalán,Upper secondary,no,no,A,1,conjunction_syn,L4,syncopated,s1,r2,93,Online_conjL4_syn//b.ja.nu15.0.666.wav,ja,ru,ci,nu,sil,de,da,po,sil1,bo,sil2,['catch'],[0.7089999999998327],[0.7089999999998327],0.0,beat,0.7089999999998327,0.7089999999998327,"[""space""]",ja,1,testWhenL3Uns//dep_viol.r2.s2.0.wav,4.0,when,unsyncopated,b,s2,no_rule,dep,L3,m,0.2127,5.0,0.0,0.6261,3 ,2.0,castellano,0.0,catalán,0.0,inglés,12.0,4.0,2.0,no,no,no,nada,,,,"La silaba ""gu"" casi nunca la elegía porque me parecía que decía ""bu"" todo el rato y no ""gu""",68.0,yes
94,2023-11-08_21h55.01.909,Unsyncopated1,s72,18.0,feminino,right,España,Castellano y catalán,Upper secondary,no,no,A,1,conjunction_syn,L4,syncopated,s2,r1,94,Online_conjL4_syn//b.ja.nu13.none.none.wav,re,ci,bu,zi,sil,po,bo,lo,sil1,pe,sil2,['-'],,,none,none,,,,ja,1,testWhenL3Uns//r2.s1.0.wav,4.0,when,unsyncopated,b,s1,rule,rule,L3,z,0.0331,6.0,1.0,0.6048,3 ,2.0,castellano,0.0,catalán,0.0,inglés,12.0,4.0,2.0,no,no,no,nada,,,,"La silaba ""gu"" casi nunca la elegía porque me parecía que decía ""bu"" todo el rato y no ""gu""",68.0,yes
95,2023-11-08_21h55.01.909,Unsyncopated1,s72,18.0,feminino,right,España,Castellano y catalán,Upper secondary,no,no,A,1,conjunction_syn,L4,syncopated,s2,r1,95,Online_conjL4_syn//b.ja.nu14.none.none.wav,pe,ci,da,zi,sil,po,bu,lo,sil1,ña,sil2,['-'],,,none,none,,,,ja,1,testWhenL3Uns//r1.s1.0.wav,4.0,when,unsyncopated,a,s1,rule,rule,L3,m,0.1819,3.0,0.0,0.3054,3 ,2.0,castellano,0.0,catalán,0.0,inglés,12.0,4.0,2.0,no,no,no,nada,,,,"La silaba ""gu"" casi nunca la elegía porque me parecía que decía ""bu"" todo el rato y no ""gu""",68.0,yes
96,2023-11-08_21h55.01.909,Unsyncopated1,s72,18.0,feminino,right,España,Castellano y catalán,Upper secondary,no,no,A,1,conjunction_syn,L4,syncopated,s2,r2,96,Online_conjL4_syn//a.zi.lo31.none.none.wav,bo,ru,ci,ja,sil,po,da,nu,sil1,bu,sil2,['-'],,,none,none,,,,lo,2,,,,,,,,,,,,,,,3 ,2.0,castellano,0.0,catalán,0.0,inglés,12.0,4.0,2.0,no,no,no,nada,,,,"La silaba ""gu"" casi nunca la elegía porque me parecía que decía ""bu"" todo el rato y no ""gu""",68.0,yes
97,2023-11-08_21h55.01.909,Unsyncopated1,s72,18.0,feminino,right,España,Castellano y catalán,Upper secondary,no,no,A,1,conjunction_syn,L4,syncopated,s2,r2,97,Online_conjL4_syn//a.zi.lo29.none.none.wav,ña,da,re,ja,sil,ci,po,nu,sil1,ru,sil2,['-'],,,none,none,,,,lo,2,,,,,,,,,,,,,,,3 ,2.0,castellano,0.0,catalán,0.0,inglés,12.0,4.0,2.0,no,no,no,nada,,,,"La silaba ""gu"" casi nunca la elegía porque me parecía que decía ""bu"" todo el rato y no ""gu""",68.0,yes
98,2023-11-08_21h55.01.909,Unsyncopated1,s72,18.0,feminino,right,España,Castellano y catalán,Upper secondary,no,no,A,1,conjunction_syn,L4,syncopated,s1,r2,98,Online_conjL4_syn//a.zi.lo28.none.none.wav,ja,pe,bu,nu,sil,ña,ñi,bo,sil1,ru,sil2,['-'],,,none,none,,,,lo,2,,,,,,,,,,,,,,,3 ,2.0,castellano,0.0,catalán,0.0,inglés,12.0,4.0,2.0,no,no,no,nada,,,,"La silaba ""gu"" casi nunca la elegía porque me parecía que decía ""bu"" todo el rato y no ""gu""",68.0,yes
99,2023-11-08_21h55.01.909,Unsyncopated1,s72,18.0,feminino,right,España,Castellano y catalán,Upper secondary,no,no,A,1,conjunction_syn,L4,syncopated,s1,r1,99,Online_conjL4_syn//a.zi.lo30.0.666.wav,zi,ñi,ru,lo,sil,bu,bo,ña,sil1,de,sil2,['catch'],[1.250599999994165],[1.250599999994165],0.666,no_beat,0.584599999994165,0.584599999994165,"[""space""]",lo,2,,,,,,,,,,,,,,,3 ,2.0,castellano,0.0,catalán,0.0,inglés,12.0,4.0,2.0,no,no,no,nada,,,,"La silaba ""gu"" casi nunca la elegía porque me parecía que decía ""bu"" todo el rato y no ""gu""",68.0,yes
100,2023-11-08_21h55.01.909,Unsyncopated1,s72,18.0,feminino,right,España,Castellano y catalán,Upper secondary,no,no,A,1,conjunction_syn,L4,syncopated,s1,r2,100,Online_conjL4_syn//d.pe.po11.1332.222.wav,ja,po,re,nu,sil,ñi,pe,ña,sil1,ci,sil2,['miss'],,,1.332,no_beat,,,,pe,4,,,,,,,,,,,,,,,3 ,2.0,castellano,0.0,catalán,0.0,inglés,12.0,4.0,2.0,no,no,no,nada,,,,"La silaba ""gu"" casi nunca la elegía porque me parecía que decía ""bu"" todo el rato y no ""gu""",68.0,yes
101,2023-11-08_21h55.01.909,Unsyncopated1,s72,18.0,feminino,right,España,Castellano y catalán,Upper secondary,no,no,A,1,conjunction_syn,L4,syncopated,s2,r2,101,Online_conjL4_syn//d.pe.po10.1332.444.wav,bu,ci,po,ja,sil,bo,pe,nu,sil1,de,sil2,['miss'],,,1.332,no_beat,,,,pe,4,,,,,,,,,,,,,,,3 ,2.0,castellano,0.0,catalán,0.0,inglés,12.0,4.0,2.0,no,no,no,nada,,,,"La silaba ""gu"" casi nunca la elegía porque me parecía que decía ""bu"" todo el rato y no ""gu""",68.0,yes
102,2023-11-08_21h55.01.909,Unsyncopated1,s72,18.0,feminino,right,España,Castellano y catalán,Upper secondary,no,no,A,1,conjunction_syn,L4,syncopated,s1,r1,102,Online_conjL4_syn//d.pe.po9.1554.1110.wav,zi,bo,ci,lo,sil,po,de,pe,sil1,ru,sil2,['miss'],,,1.554,no_beat,,,,pe,4,,,,,,,,,,,,,,,3 ,2.0,castellano,0.0,catalán,0.0,inglés,12.0,4.0,2.0,no,no,no,nada,,,,"La silaba ""gu"" casi nunca la elegía porque me parecía que decía ""bu"" todo el rato y no ""gu""",68.0,yes
103,2023-11-08_21h55.01.909,Unsyncopated1,s72,18.0,feminino,right,España,Castellano y catalán,Upper secondary,no,no,A,1,conjunction_syn,L4,syncopated,s1,r2,103,Online_conjL4_syn//d.pe.po8.none.none.wav,ja,re,de,nu,sil,ci,ru,ñi,sil1,bu,sil2,['-'],,,none,none,,,,pe,4,,,,,,,,,,,,,,,3 ,2.0,castellano,0.0,catalán,0.0,inglés,12.0,4.0,2.0,no,no,no,nada,,,,"La silaba ""gu"" casi nunca la elegía porque me parecía que decía ""bu"" todo el rato y no ""gu""",68.0,yes
104,2023-11-08_21h55.01.909,Unsyncopated1,s72,18.0,feminino,right,España,Castellano y catalán,Upper secondary,no,no,A,1,conjunction_syn,L4,syncopated,s1,r1,104,Online_conjL4_syn//a.zi.lo4.0.666.wav,zi,po,re,lo,sil,ñi,da,bo,sil1,bu,sil2,['catch'],[1.251400000006015],[1.251400000006015],0.666,no_beat,0.585400000006015,0.585400000006015,"[""space""]",lo,2,,,,,,,,,,,,,,,3 ,2.0,castellano,0.0,catalán,0.0,inglés,12.0,4.0,2.0,no,no,no,nada,,,,"La silaba ""gu"" casi nunca la elegía porque me parecía que decía ""bu"" todo el rato y no ""gu""",68.0,yes
105,2023-11-08_21h55.01.909,Unsyncopated1,s72,18.0,feminino,right,España,Castellano y catalán,Upper secondary,no,no,A,1,conjunction_syn,L4,syncopated,s2,r2,105,Online_conjL4_syn//a.zi.lo6.none.none.wav,ci,da,ru,ja,sil,bo,pe,nu,sil1,re,sil2,['-'],,,none,none,,,,lo,2,,,,,,,,,,,,,,,3 ,2.0,castellano,0.0,catalán,0.0,inglés,12.0,4.0,2.0,no,no,no,nada,,,,"La silaba ""gu"" casi nunca la elegía porque me parecía que decía ""bu"" todo el rato y no ""gu""",68.0,yes
106,2023-11-08_21h55.01.909,Unsyncopated1,s72,18.0,feminino,right,España,Castellano y catalán,Upper secondary,no,no,A,1,conjunction_syn,L4,syncopated,s2,r1,106,Online_conjL4_syn//a.zi.lo7.666.1554.wav,ru,de,po,zi,sil,ña,ñi,lo,sil1,da,sil2,['catch'],[2.235700000017914],[2.235700000017914],1.554,no_beat,0.6817000000179141,0.6817000000179141,"[""space""]",lo,2,,,,,,,,,,,,,,,3 ,2.0,castellano,0.0,catalán,0.0,inglés,12.0,4.0,2.0,no,no,no,nada,,,,"La silaba ""gu"" casi nunca la elegía porque me parecía que decía ""bu"" todo el rato y no ""gu""",68.0,yes
107,2023-11-08_21h55.01.909,Unsyncopated1,s72,18.0,feminino,right,España,Castellano y catalán,Upper secondary,no,no,A,1,conjunction_syn,L4,syncopated,s1,r1,107,Online_conjL4_syn//a.zi.lo5.0.666.wav,zi,bo,ña,lo,sil,pe,de,re,sil1,ñi,sil2,['miss'],,,0.666,no_beat,,,,lo,2,,,,,,,,,,,,,,,3 ,2.0,castellano,0.0,catalán,0.0,inglés,12.0,4.0,2.0,no,no,no,nada,,,,"La silaba ""gu"" casi nunca la elegía porque me parecía que decía ""bu"" todo el rato y no ""gu""",68.0,yes
108,2023-11-08_21h55.01.909,Unsyncopated1,s72,18.0,feminino,right,España,Castellano y catalán,Upper secondary,no,no,A,1,conjunction_syn,L4,syncopated,s1,r2,108,Online_conjL4_syn//c.bu.da27.222.1110.wav,ja,bu,re,nu,sil,da,bo,ru,sil1,ci,sil2,['catch'],[0.96060000002376],[0.96060000002376],0.222,no_beat,0.73860000002376,0.73860000002376,"[""space""]",bu,3,,,,,,,,,,,,,,,3 ,2.0,castellano,0.0,catalán,0.0,inglés,12.0,4.0,2.0,no,no,no,nada,,,,"La silaba ""gu"" casi nunca la elegía porque me parecía que decía ""bu"" todo el rato y no ""gu""",68.0,yes
109,2023-11-08_21h55.01.909,Unsyncopated1,s72,18.0,feminino,right,España,Castellano y catalán,Upper secondary,no,no,A,1,conjunction_syn,L4,syncopated,s1,r2,109,Online_conjL4_syn//c.bu.da25.1110.222.wav,ja,da,re,nu,sil,bu,ru,po,sil1,bo,sil2,['miss'],,,1.11,no_beat,,,,bu,3,,,,,,,,,,,,,,,3 ,2.0,castellano,0.0,catalán,0.0,inglés,12.0,4.0,2.0,no,no,no,nada,,,,"La silaba ""gu"" casi nunca la elegía porque me parecía que decía ""bu"" todo el rato y no ""gu""",68.0,yes
110,2023-11-08_21h55.01.909,Unsyncopated1,s72,18.0,feminino,right,España,Castellano y catalán,Upper secondary,no,no,A,1,conjunction_syn,L4,syncopated,s1,r1,110,Online_conjL4_syn//c.bu.da24.none.none.wav,zi,po,pe,lo,sil,ñi,ci,ru,sil1,re,sil2,['-'],,,none,none,,,,bu,3,,,,,,,,,,,,,,,3 ,2.0,castellano,0.0,catalán,0.0,inglés,12.0,4.0,2.0,no,no,no,nada,,,,"La silaba ""gu"" casi nunca la elegía porque me parecía que decía ""bu"" todo el rato y no ""gu""",68.0,yes
111,2023-11-08_21h55.01.909,Unsyncopated1,s72,18.0,feminino,right,España,Castellano y catalán,Upper secondary,no,no,A,1,conjunction_syn,L4,syncopated,s2,r1,111,Online_conjL4_syn//c.bu.da26.1110.222.wav,ñi,da,de,zi,sil,bu,pe,lo,sil1,bo,sil2,['catch'],[1.611200000018016],[1.611200000018016],1.11,no_beat,0.5012000000180159,0.5012000000180159,"[""space""]",bu,3,,,,,,,,,,,,,,,3 ,2.0,castellano,0.0,catalán,0.0,inglés,12.0,4.0,2.0,no,no,no,nada,,,,"La silaba ""gu"" casi nunca la elegía porque me parecía que decía ""bu"" todo el rato y no ""gu""",68.0,yes
112,2023-11-08_21h55.01.909,Unsyncopated1,s72,18.0,feminino,right,España,Castellano y catalán,Upper secondary,no,no,A,1,conjunction_syn,L4,syncopated,s1,r1,112,Online_conjL4_syn//c.bu.da5.222.1110.wav,zi,bu,ru,lo,sil,da,re,pe,sil1,ña,sil2,['catch'],[1.21469999998817],[1.21469999998817],0.222,no_beat,0.99269999998817,0.99269999998817,"[""space""]",bu,3,,,,,,,,,,,,,,,3 ,2.0,castellano,0.0,catalán,0.0,inglés,12.0,4.0,2.0,no,no,no,nada,,,,"La silaba ""gu"" casi nunca la elegía porque me parecía que decía ""bu"" todo el rato y no ""gu""",68.0,yes
113,2023-11-08_21h55.01.909,Unsyncopated1,s72,18.0,feminino,right,España,Castellano y catalán,Upper secondary,no,no,A,1,conjunction_syn,L4,syncopated,s2,r1,113,Online_conjL4_syn//c.bu.da4.none.none.wav,pe,re,ru,zi,sil,ci,bo,lo,sil1,po,sil2,['-'],,,none,none,,,,bu,3,,,,,,,,,,,,,,,3 ,2.0,castellano,0.0,catalán,0.0,inglés,12.0,4.0,2.0,no,no,no,nada,,,,"La silaba ""gu"" casi nunca la elegía porque me parecía que decía ""bu"" todo el rato y no ""gu""",68.0,yes
114,2023-11-08_21h55.01.909,Unsyncopated1,s72,18.0,feminino,right,España,Castellano y catalán,Upper secondary,no,no,A,1,conjunction_syn,L4,syncopated,s2,r1,114,Online_conjL4_syn//c.bu.da7.0.444.wav,bu,re,da,zi,sil,ña,po,lo,sil1,ñi,sil2,['catch'],[0.6866999999879226],[0.6866999999879226],0.0,beat,0.6866999999879226,0.6866999999879226,"[""space""]",bu,3,,,,,,,,,,,,,,,3 ,2.0,castellano,0.0,catalán,0.0,inglés,12.0,4.0,2.0,no,no,no,nada,,,,"La silaba ""gu"" casi nunca la elegía porque me parecía que decía ""bu"" todo el rato y no ""gu""",68.0,yes
115,2023-11-08_21h55.01.909,Unsyncopated1,s72,18.0,feminino,right,España,Castellano y catalán,Upper secondary,no,no,A,1,conjunction_syn,L4,syncopated,s2,r1,115,Online_conjL4_syn//c.bu.da6.none.none.wav,pe,ci,ru,zi,sil,bo,po,lo,sil1,de,sil2,['-'],,,none,none,,,,bu,3,,,,,,,,,,,,,,,3 ,2.0,castellano,0.0,catalán,0.0,inglés,12.0,4.0,2.0,no,no,no,nada,,,,"La silaba ""gu"" casi nunca la elegía porque me parecía que decía ""bu"" todo el rato y no ""gu""",68.0,yes
116,2023-11-08_21h55.01.909,Unsyncopated1,s72,18.0,feminino,right,España,Castellano y catalán,Upper secondary,no,no,A,1,conjunction_syn,L4,syncopated,s2,r1,116,Online_conjL4_syn//b.ja.nu30.none.none.wav,ci,ña,ru,zi,sil,bo,pe,lo,sil1,bu,sil2,['-'],,,none,none,,,,ja,1,,,,,,,,,,,,,,,3 ,2.0,castellano,0.0,catalán,0.0,inglés,12.0,4.0,2.0,no,no,no,nada,,,,"La silaba ""gu"" casi nunca la elegía porque me parecía que decía ""bu"" todo el rato y no ""gu""",68.0,yes
117,2023-11-08_21h55.01.909,Unsyncopated1,s72,18.0,feminino,right,España,Castellano y catalán,Upper secondary,no,no,A,1,conjunction_syn,L4,syncopated,s2,r1,117,Online_conjL4_syn//b.ja.nu29.none.none.wav,da,po,ña,zi,sil,pe,re,lo,sil1,bo,sil2,['-'],,,none,none,,,,ja,1,,,,,,,,,,,,,,,3 ,2.0,castellano,0.0,catalán,0.0,inglés,12.0,4.0,2.0,no,no,no,nada,,,,"La silaba ""gu"" casi nunca la elegía porque me parecía que decía ""bu"" todo el rato y no ""gu""",68.0,yes
118,2023-11-08_21h55.01.909,Unsyncopated1,s72,18.0,feminino,right,España,Castellano y catalán,Upper secondary,no,no,A,1,conjunction_syn,L4,syncopated,s1,r1,118,Online_conjL4_syn//b.ja.nu28.none.none.wav,zi,ña,bu,lo,sil,re,de,ci,sil1,pe,sil2,['-'],,,none,none,,,,ja,1,,,,,,,,,,,,,,,3 ,2.0,castellano,0.0,catalán,0.0,inglés,12.0,4.0,2.0,no,no,no,nada,,,,"La silaba ""gu"" casi nunca la elegía porque me parecía que decía ""bu"" todo el rato y no ""gu""",68.0,yes
119,2023-11-08_21h55.01.909,Unsyncopated1,s72,18.0,feminino,right,España,Castellano y catalán,Upper secondary,no,no,A,1,conjunction_syn,L4,syncopated,s2,r2,119,Online_conjL4_syn//b.ja.nu31.666.1554.wav,po,ru,ña,ja,sil,da,ci,nu,sil1,re,sil2,['catch'],[1.439699999988079],[1.439699999988079],0.666,no_beat,0.773699999988079,0.773699999988079,"[""space""]",ja,1,,,,,,,,,,,,,,,3 ,2.0,castellano,0.0,catalán,0.0,inglés,12.0,4.0,2.0,no,no,no,nada,,,,"La silaba ""gu"" casi nunca la elegía porque me parecía que decía ""bu"" todo el rato y no ""gu""",68.0,yes
120,2023-11-08_21h55.01.909,Unsyncopated1,s72,18.0,feminino,right,España,Castellano y catalán,Upper secondary,no,no,A,1,conjunction_syn,L4,syncopated,s1,r2,120,Online_conjL4_syn//a.zi.lo27.none.none.wav,ja,re,bo,nu,sil,bu,pe,ru,sil1,ñi,sil2,['-'],,,none,none,,,,lo,2,,,,,,,,,,,,,,,3 ,2.0,castellano,0.0,catalán,0.0,inglés,12.0,4.0,2.0,no,no,no,nada,,,,"La silaba ""gu"" casi nunca la elegía porque me parecía que decía ""bu"" todo el rato y no ""gu""",68.0,yes
121,2023-11-08_21h55.01.909,Unsyncopated1,s72,18.0,feminino,right,España,Castellano y catalán,Upper secondary,no,no,A,1,conjunction_syn,L4,syncopated,s1,r1,121,Online_conjL4_syn//a.zi.lo25.0.666.wav,zi,po,ci,lo,sil,re,da,ru,sil1,pe,sil2,['catch'],[1.2799999999999727],[1.2799999999999727],0.666,no_beat,0.6139999999999727,0.6139999999999727,"[""space""]",lo,2,,,,,,,,,,,,,,,3 ,2.0,castellano,0.0,catalán,0.0,inglés,12.0,4.0,2.0,no,no,no,nada,,,,"La silaba ""gu"" casi nunca la elegía porque me parecía que decía ""bu"" todo el rato y no ""gu""",68.0,yes
122,2023-11-08_21h55.01.909,Unsyncopated1,s72,18.0,feminino,right,España,Castellano y catalán,Upper secondary,no,no,A,1,conjunction_syn,L4,syncopated,s2,r2,122,Online_conjL4_syn//a.zi.lo24.none.none.wav,ñi,po,de,ja,sil,pe,ci,nu,sil1,bo,sil2,['-'],,,none,none,,,,lo,2,,,,,,,,,,,,,,,3 ,2.0,castellano,0.0,catalán,0.0,inglés,12.0,4.0,2.0,no,no,no,nada,,,,"La silaba ""gu"" casi nunca la elegía porque me parecía que decía ""bu"" todo el rato y no ""gu""",68.0,yes
123,2023-11-08_21h55.01.909,Unsyncopated1,s72,18.0,feminino,right,España,Castellano y catalán,Upper secondary,no,no,A,1,conjunction_syn,L4,syncopated,s1,r1,123,Online_conjL4_syn//a.zi.lo26.0.666.wav,zi,bu,po,lo,sil,bo,da,re,sil1,pe,sil2,['catch'],[1.386700000017754],[1.386700000017754],0.666,no_beat,0.720700000017754,0.720700000017754,"[""space""]",lo,2,,,,,,,,,,,,,,,3 ,2.0,castellano,0.0,catalán,0.0,inglés,12.0,4.0,2.0,no,no,no,nada,,,,"La silaba ""gu"" casi nunca la elegía porque me parecía que decía ""bu"" todo el rato y no ""gu""",68.0,yes
124,2023-11-08_21h55.01.909,Unsyncopated1,s72,18.0,feminino,right,España,Castellano y catalán,Upper secondary,no,no,A,1,conjunction_syn,L4,syncopated,s2,r1,124,Online_conjL4_syn//a.zi.lo22.666.1554.wav,po,bo,pe,zi,sil,re,bu,lo,sil1,da,sil2,['miss'],,,1.554,no_beat,,,,lo,2,,,,,,,,,,,,,,,3 ,2.0,castellano,0.0,catalán,0.0,inglés,12.0,4.0,2.0,no,no,no,nada,,,,"La silaba ""gu"" casi nunca la elegía porque me parecía que decía ""bu"" todo el rato y no ""gu""",68.0,yes
125,2023-11-08_21h55.01.909,Unsyncopated1,s72,18.0,feminino,right,España,Castellano y catalán,Upper secondary,no,no,A,1,conjunction_syn,L4,syncopated,s2,r1,125,Online_conjL4_syn//a.zi.lo21.666.1554.wav,ñi,bo,ru,zi,sil,pe,ña,lo,sil1,de,sil2,['catch'],[2.186099999993985],[2.186099999993985],1.554,no_beat,0.6320999999939849,0.6320999999939849,"[""space""]",lo,2,,,,,,,,,,,,,,,3 ,2.0,castellano,0.0,catalán,0.0,inglés,12.0,4.0,2.0,no,no,no,nada,,,,"La silaba ""gu"" casi nunca la elegía porque me parecía que decía ""bu"" todo el rato y no ""gu""",68.0,yes
126,2023-11-08_21h55.01.909,Unsyncopated1,s72,18.0,feminino,right,España,Castellano y catalán,Upper secondary,no,no,A,1,conjunction_syn,L4,syncopated,s2,r2,126,Online_conjL4_syn//a.zi.lo23.none.none.wav,da,ci,po,ja,sil,ñi,pe,nu,sil1,bo,sil2,['-'],,,none,none,,,,lo,2,,,,,,,,,,,,,,,3 ,2.0,castellano,0.0,catalán,0.0,inglés,12.0,4.0,2.0,no,no,no,nada,,,,"La silaba ""gu"" casi nunca la elegía porque me parecía que decía ""bu"" todo el rato y no ""gu""",68.0,yes
127,2023-11-08_21h55.01.909,Unsyncopated1,s72,18.0,feminino,right,España,Castellano y catalán,Upper secondary,no,no,A,1,conjunction_syn,L4,syncopated,s1,r2,127,Online_conjL4_syn//a.zi.lo20.none.none.wav,ja,ru,po,nu,sil,ña,re,da,sil1,de,sil2,['-'],,,none,none,,,,lo,2,,,,,,,,,,,,,,,3 ,2.0,castellano,0.0,catalán,0.0,inglés,12.0,4.0,2.0,no,no,no,nada,,,,"La silaba ""gu"" casi nunca la elegía porque me parecía que decía ""bu"" todo el rato y no ""gu""",68.0,yes
128,2023-11-08_21h55.01.909,Unsyncopated1,s72,18.0,feminino,right,España,Castellano y catalán,Upper secondary,no,no,A,2,conjunction_un,L1,unsyncopated,s2,r2,0,Online_conjL1_un//d.ne.ni27.1110.0.wav,ni,fa,ri,sil,ta,ne,zu,sil1,be,la,sil2,"['catch', 'false alarm']","[2.076199999988148, 2.537299999982224]",[2.076199999988148],1.11,no_beat,0.966199999988148,0.966199999988148,"[""space"",""space""]",ne,4,,,,,,,,,,,,,,,3 ,2.0,castellano,0.0,catalán,0.0,inglés,12.0,4.0,2.0,no,no,no,nada,,,,"La silaba ""gu"" casi nunca la elegía porque me parecía que decía ""bu"" todo el rato y no ""gu""",68.0,yes
129,2023-11-08_21h55.01.909,Unsyncopated1,s72,18.0,feminino,right,España,Castellano y catalán,Upper secondary,no,no,A,2,conjunction_un,L1,unsyncopated,s2,r1,1,Online_conjL1_un//d.ne.ni26.none.none.wav,lu,ri,ro,sil,pu,cho,fa,sil1,ki,ze,sil2,['-'],,,none,none,,,,ne,4,,,,,,,,,,,,,,,3 ,2.0,castellano,0.0,catalán,0.0,inglés,12.0,4.0,2.0,no,no,no,nada,,,,"La silaba ""gu"" casi nunca la elegía porque me parecía que decía ""bu"" todo el rato y no ""gu""",68.0,yes
130,2023-11-08_21h55.01.909,Unsyncopated1,s72,18.0,feminino,right,España,Castellano y catalán,Upper secondary,no,no,A,2,conjunction_un,L1,unsyncopated,s2,r1,2,Online_conjL1_un//d.ne.ni24.1110.222.wav,ri,ni,fa,sil,pu,ne,ro,sil1,ki,fo,sil2,['catch'],[1.775000000000091],[1.775000000000091],1.11,no_beat,0.6650000000000909,0.6650000000000909,"[""space""]",ne,4,,,,,,,,,,,,,,,3 ,2.0,castellano,0.0,catalán,0.0,inglés,12.0,4.0,2.0,no,no,no,nada,,,,"La silaba ""gu"" casi nunca la elegía porque me parecía que decía ""bu"" todo el rato y no ""gu""",68.0,yes
131,2023-11-08_21h55.01.909,Unsyncopated1,s72,18.0,feminino,right,España,Castellano y catalán,Upper secondary,no,no,A,2,conjunction_un,L1,unsyncopated,s1,r2,3,Online_conjL1_un//d.ne.ni25.none.none.wav,ta,fa,ze,sil,be,ro,lu,sil1,la,fo,sil2,['-'],,,none,none,,,,ne,4,,,,,,,,,,,,,,,3 ,2.0,castellano,0.0,catalán,0.0,inglés,12.0,4.0,2.0,no,no,no,nada,,,,"La silaba ""gu"" casi nunca la elegía porque me parecía que decía ""bu"" todo el rato y no ""gu""",68.0,yes
132,2023-11-08_21h55.01.909,Unsyncopated1,s72,18.0,feminino,right,España,Castellano y catalán,Upper secondary,no,no,A,2,conjunction_un,L1,unsyncopated,s2,r2,4,Online_conjL1_un//d.ne.ni18.none.none.wav,fa,ro,fo,sil,ta,ri,lu,sil1,be,la,sil2,['-'],,,none,none,,,,ne,4,,,,,,,,,,,,,,,3 ,2.0,castellano,0.0,catalán,0.0,inglés,12.0,4.0,2.0,no,no,no,nada,,,,"La silaba ""gu"" casi nunca la elegía porque me parecía que decía ""bu"" todo el rato y no ""gu""",68.0,yes
133,2023-11-08_21h55.01.909,Unsyncopated1,s72,18.0,feminino,right,España,Castellano y catalán,Upper secondary,no,no,A,2,conjunction_un,L1,unsyncopated,s2,r2,5,Online_conjL1_un//d.ne.ni16.444.1110.wav,ze,zu,ne,sil,ta,ni,fo,sil1,be,cho,sil2,['catch'],[1.1959000000060769],[1.1959000000060769],0.444,no_beat,0.7519000000060769,0.7519000000060769,"[""space""]",ne,4,,,,,,,,,,,,,,,3 ,2.0,castellano,0.0,catalán,0.0,inglés,12.0,4.0,2.0,no,no,no,nada,,,,"La silaba ""gu"" casi nunca la elegía porque me parecía que decía ""bu"" todo el rato y no ""gu""",68.0,yes
134,2023-11-08_21h55.01.909,Unsyncopated1,s72,18.0,feminino,right,España,Castellano y catalán,Upper secondary,no,no,A,2,conjunction_un,L1,unsyncopated,s2,r2,6,Online_conjL1_un//d.ne.ni17.0.1110.wav,ne,la,ro,sil,ta,ni,ri,sil1,be,cho,sil2,['catch'],[1.0219000000058713],[1.0219000000058713],0.0,beat,1.0219000000058711,1.0219000000058711,"[""space""]",ne,4,,,,,,,,,,,,,,,3 ,2.0,castellano,0.0,catalán,0.0,inglés,12.0,4.0,2.0,no,no,no,nada,,,,"La silaba ""gu"" casi nunca la elegía porque me parecía que decía ""bu"" todo el rato y no ""gu""",68.0,yes
135,2023-11-08_21h55.01.909,Unsyncopated1,s72,18.0,feminino,right,España,Castellano y catalán,Upper secondary,no,no,A,2,conjunction_un,L1,unsyncopated,s2,r1,7,Online_conjL1_un//d.ne.ni19.none.none.wav,zu,fa,ri,sil,pu,lu,la,sil1,ki,ze,sil2,['-'],,,none,none,,,,ne,4,,,,,,,,,,,,,,,3 ,2.0,castellano,0.0,catalán,0.0,inglés,12.0,4.0,2.0,no,no,no,nada,,,,"La silaba ""gu"" casi nunca la elegía porque me parecía que decía ""bu"" todo el rato y no ""gu""",68.0,yes
136,2023-11-08_21h55.01.909,Unsyncopated1,s72,18.0,feminino,right,España,Castellano y catalán,Upper secondary,no,no,A,2,conjunction_un,L1,unsyncopated,s1,r2,8,Online_conjL1_un//c.ro.fo16.none.none.wav,ta,lu,fa,sil,be,zu,ze,sil1,ne,cho,sil2,['-'],,,none,none,,,,ro,3,,,,,,,,,,,,,,,3 ,2.0,castellano,0.0,catalán,0.0,inglés,12.0,4.0,2.0,no,no,no,nada,,,,"La silaba ""gu"" casi nunca la elegía porque me parecía que decía ""bu"" todo el rato y no ""gu""",68.0,yes
137,2023-11-08_21h55.01.909,Unsyncopated1,s72,18.0,feminino,right,España,Castellano y catalán,Upper secondary,no,no,A,2,conjunction_un,L1,unsyncopated,s2,r1,9,Online_conjL1_un//c.ro.fo17.none.none.wav,cho,lu,zu,sil,pu,ze,ni,sil1,ki,la,sil2,['-'],,,none,none,,,,ro,3,,,,,,,,,,,,,,,3 ,2.0,castellano,0.0,catalán,0.0,inglés,12.0,4.0,2.0,no,no,no,nada,,,,"La silaba ""gu"" casi nunca la elegía porque me parecía que decía ""bu"" todo el rato y no ""gu""",68.0,yes
138,2023-11-08_21h55.01.909,Unsyncopated1,s72,18.0,feminino,right,España,Castellano y catalán,Upper secondary,no,no,A,2,conjunction_un,L1,unsyncopated,s1,r2,10,Online_conjL1_un//c.ro.fo18.1776.222.wav,ta,fo,ni,sil,be,cho,zu,sil1,ro,ne,sil2,['catch'],[2.262800000012021],[2.262800000012021],1.776,beat,0.4868000000120209,0.4868000000120209,"[""space""]",ro,3,,,,,,,,,,,,,,,3 ,2.0,castellano,0.0,catalán,0.0,inglés,12.0,4.0,2.0,no,no,no,nada,,,,"La silaba ""gu"" casi nunca la elegía porque me parecía que decía ""bu"" todo el rato y no ""gu""",68.0,yes
139,2023-11-08_21h55.01.909,Unsyncopated1,s72,18.0,feminino,right,España,Castellano y catalán,Upper secondary,no,no,A,2,conjunction_un,L1,unsyncopated,s2,r2,11,Online_conjL1_un//c.ro.fo19.none.none.wav,cho,ne,zu,sil,ta,fa,lu,sil1,be,ze,sil2,['-'],,,none,none,,,,ro,3,,,,,,,,,,,,,,,3 ,2.0,castellano,0.0,catalán,0.0,inglés,12.0,4.0,2.0,no,no,no,nada,,,,"La silaba ""gu"" casi nunca la elegía porque me parecía que decía ""bu"" todo el rato y no ""gu""",68.0,yes
140,2023-11-08_21h55.01.909,Unsyncopated1,s72,18.0,feminino,right,España,Castellano y catalán,Upper secondary,no,no,A,2,conjunction_un,L1,unsyncopated,s2,r2,12,Online_conjL1_un//a.pu.ki28.none.none.wav,ne,zu,ze,sil,ta,ni,fa,sil1,be,lu,sil2,['-'],,,none,none,,,,ki,2,,,,,,,,,,,,,,,3 ,2.0,castellano,0.0,catalán,0.0,inglés,12.0,4.0,2.0,no,no,no,nada,,,,"La silaba ""gu"" casi nunca la elegía porque me parecía que decía ""bu"" todo el rato y no ""gu""",68.0,yes
141,2023-11-08_21h55.01.909,Unsyncopated1,s72,18.0,feminino,right,España,Castellano y catalán,Upper secondary,no,no,A,2,conjunction_un,L1,unsyncopated,s2,r2,13,Online_conjL1_un//a.pu.ki31.none.none.wav,ze,la,ni,sil,ta,ne,lu,sil1,be,cho,sil2,['-'],,,none,none,,,,ki,2,,,,,,,,,,,,,,,3 ,2.0,castellano,0.0,catalán,0.0,inglés,12.0,4.0,2.0,no,no,no,nada,,,,"La silaba ""gu"" casi nunca la elegía porque me parecía que decía ""bu"" todo el rato y no ""gu""",68.0,yes
142,2023-11-08_21h55.01.909,Unsyncopated1,s72,18.0,feminino,right,España,Castellano y catalán,Upper secondary,no,no,A,2,conjunction_un,L1,unsyncopated,s2,r2,14,Online_conjL1_un//a.pu.ki30.none.none.wav,ri,lu,ze,sil,ta,zu,fa,sil1,be,ne,sil2,['-'],,,none,none,,,,ki,2,,,,,,,,,,,,,,,3 ,2.0,castellano,0.0,catalán,0.0,inglés,12.0,4.0,2.0,no,no,no,nada,,,,"La silaba ""gu"" casi nunca la elegía porque me parecía que decía ""bu"" todo el rato y no ""gu""",68.0,yes
143,2023-11-08_21h55.01.909,Unsyncopated1,s72,18.0,feminino,right,España,Castellano y catalán,Upper secondary,no,no,A,2,conjunction_un,L1,unsyncopated,s1,r1,15,Online_conjL1_un//a.pu.ki29.0.888.wav,pu,fa,ze,sil,ki,la,cho,sil1,ro,ni,sil2,['catch'],[1.3585999999941123],[1.3585999999941123],0.888,beat,0.4705999999941123,0.4705999999941123,"[""space""]",ki,2,,,,,,,,,,,,,,,3 ,2.0,castellano,0.0,catalán,0.0,inglés,12.0,4.0,2.0,no,no,no,nada,,,,"La silaba ""gu"" casi nunca la elegía porque me parecía que decía ""bu"" todo el rato y no ""gu""",68.0,yes
144,2023-11-08_21h55.01.909,Unsyncopated1,s72,18.0,feminino,right,España,Castellano y catalán,Upper secondary,no,no,A,2,conjunction_un,L1,unsyncopated,s2,r1,16,Online_conjL1_un//b.ta.be15.none.none.wav,fa,ri,cho,sil,pu,ne,la,sil1,ki,zu,sil2,['-'],,,none,none,,,,ta,1,,,,,,,,,,,,,,,3 ,2.0,castellano,0.0,catalán,0.0,inglés,12.0,4.0,2.0,no,no,no,nada,,,,"La silaba ""gu"" casi nunca la elegía porque me parecía que decía ""bu"" todo el rato y no ""gu""",68.0,yes
145,2023-11-08_21h55.01.909,Unsyncopated1,s72,18.0,feminino,right,España,Castellano y catalán,Upper secondary,no,no,A,2,conjunction_un,L1,unsyncopated,s1,r1,17,Online_conjL1_un//b.ta.be13.none.none.wav,pu,zu,fo,sil,ki,fa,ri,sil1,ro,ne,sil2,['-'],,,none,none,,,,ta,1,,,,,,,,,,,,,,,3 ,2.0,castellano,0.0,catalán,0.0,inglés,12.0,4.0,2.0,no,no,no,nada,,,,"La silaba ""gu"" casi nunca la elegía porque me parecía que decía ""bu"" todo el rato y no ""gu""",68.0,yes
146,2023-11-08_21h55.01.909,Unsyncopated1,s72,18.0,feminino,right,España,Castellano y catalán,Upper secondary,no,no,A,2,conjunction_un,L1,unsyncopated,s1,r1,18,Online_conjL1_un//b.ta.be14.none.none.wav,pu,ri,la,sil,ki,cho,fo,sil1,lu,ze,sil2,['-'],,,none,none,,,,ta,1,,,,,,,,,,,,,,,3 ,2.0,castellano,0.0,catalán,0.0,inglés,12.0,4.0,2.0,no,no,no,nada,,,,"La silaba ""gu"" casi nunca la elegía porque me parecía que decía ""bu"" todo el rato y no ""gu""",68.0,yes
147,2023-11-08_21h55.01.909,Unsyncopated1,s72,18.0,feminino,right,España,Castellano y catalán,Upper secondary,no,no,A,2,conjunction_un,L1,unsyncopated,s1,r2,19,Online_conjL1_un//b.ta.be12.0.888.wav,ta,lu,fa,sil,be,ri,la,sil1,fo,zu,sil2,['catch'],[0.49229999998215135],[0.49229999998215135],0.0,beat,0.4922999999821513,0.4922999999821513,"[""space""]",ta,1,,,,,,,,,,,,,,,3 ,2.0,castellano,0.0,catalán,0.0,inglés,12.0,4.0,2.0,no,no,no,nada,,,,"La silaba ""gu"" casi nunca la elegía porque me parecía que decía ""bu"" todo el rato y no ""gu""",68.0,yes
148,2023-11-08_21h55.01.909,Unsyncopated1,s72,18.0,feminino,right,España,Castellano y catalán,Upper secondary,no,no,A,2,conjunction_un,L1,unsyncopated,s1,r1,20,Online_conjL1_un//c.ro.fo6.none.none.wav,pu,ne,la,sil,ki,ze,ni,sil1,zu,ri,sil2,['-'],,,none,none,,,,ro,3,,,,,,,,,,,,,,,3 ,2.0,castellano,0.0,catalán,0.0,inglés,12.0,4.0,2.0,no,no,no,nada,,,,"La silaba ""gu"" casi nunca la elegía porque me parecía que decía ""bu"" todo el rato y no ""gu""",68.0,yes
149,2023-11-08_21h55.01.909,Unsyncopated1,s72,18.0,feminino,right,España,Castellano y catalán,Upper secondary,no,no,A,2,conjunction_un,L1,unsyncopated,s2,r1,21,Online_conjL1_un//c.ro.fo5.1110.222.wav,ze,fo,lu,sil,pu,ro,zu,sil1,ki,la,sil2,['catch'],[1.6697999999821604],[1.6697999999821604],1.11,no_beat,0.5597999999821603,0.5597999999821603,"[""space""]",ro,3,,,,,,,,,,,,,,,3 ,2.0,castellano,0.0,catalán,0.0,inglés,12.0,4.0,2.0,no,no,no,nada,,,,"La silaba ""gu"" casi nunca la elegía porque me parecía que decía ""bu"" todo el rato y no ""gu""",68.0,yes
150,2023-11-08_21h55.01.909,Unsyncopated1,s72,18.0,feminino,right,España,Castellano y catalán,Upper secondary,no,no,A,2,conjunction_un,L1,unsyncopated,s2,r2,22,Online_conjL1_un//c.ro.fo4.0.1110.wav,ro,lu,fa,sil,ta,fo,ne,sil1,be,ni,sil2,['catch'],[0.5767999999820859],[0.5767999999820859],0.0,beat,0.5767999999820859,0.5767999999820859,"[""space""]",ro,3,,,,,,,,,,,,,,,3 ,2.0,castellano,0.0,catalán,0.0,inglés,12.0,4.0,2.0,no,no,no,nada,,,,"La silaba ""gu"" casi nunca la elegía porque me parecía que decía ""bu"" todo el rato y no ""gu""",68.0,yes
151,2023-11-08_21h55.01.909,Unsyncopated1,s72,18.0,feminino,right,España,Castellano y catalán,Upper secondary,no,no,A,2,conjunction_un,L1,unsyncopated,s2,r2,23,Online_conjL1_un//c.ro.fo7.444.1110.wav,ni,lu,ro,sil,ta,fo,fa,sil1,be,la,sil2,['catch'],[0.9462999999821022],[0.9462999999821022],0.444,no_beat,0.5022999999821023,0.5022999999821023,"[""space""]",ro,3,,,,,,,,,,,,,,,3 ,2.0,castellano,0.0,catalán,0.0,inglés,12.0,4.0,2.0,no,no,no,nada,,,,"La silaba ""gu"" casi nunca la elegía porque me parecía que decía ""bu"" todo el rato y no ""gu""",68.0,yes
152,2023-11-08_21h55.01.909,Unsyncopated1,s72,18.0,feminino,right,España,Castellano y catalán,Upper secondary,no,no,A,2,conjunction_un,L1,unsyncopated,s2,r1,24,Online_conjL1_un//a.pu.ki15.888.1776.wav,cho,ri,ne,sil,pu,ze,ni,sil1,ki,zu,sil2,['catch'],[2.229999999999791],[2.229999999999791],1.776,beat,0.4539999999997908,0.4539999999997908,"[""space""]",ki,2,,,,,,,,,,,,,,,3 ,2.0,castellano,0.0,catalán,0.0,inglés,12.0,4.0,2.0,no,no,no,nada,,,,"La silaba ""gu"" casi nunca la elegía porque me parecía que decía ""bu"" todo el rato y no ""gu""",68.0,yes
153,2023-11-08_21h55.01.909,Unsyncopated1,s72,18.0,feminino,right,España,Castellano y catalán,Upper secondary,no,no,A,2,conjunction_un,L1,unsyncopated,s2,r2,25,Online_conjL1_un//a.pu.ki14.none.none.wav,ne,ze,ni,sil,ta,zu,fo,sil1,be,lu,sil2,['-'],,,none,none,,,,ki,2,,,,,,,,,,,,,,,3 ,2.0,castellano,0.0,catalán,0.0,inglés,12.0,4.0,2.0,no,no,no,nada,,,,"La silaba ""gu"" casi nunca la elegía porque me parecía que decía ""bu"" todo el rato y no ""gu""",68.0,yes
154,2023-11-08_21h55.01.909,Unsyncopated1,s72,18.0,feminino,right,España,Castellano y catalán,Upper secondary,no,no,A,2,conjunction_un,L1,unsyncopated,s1,r2,26,Online_conjL1_un//a.pu.ki13.none.none.wav,ta,ne,ro,sil,be,lu,fa,sil1,zu,la,sil2,['-'],,,none,none,,,,ki,2,,,,,,,,,,,,,,,3 ,2.0,castellano,0.0,catalán,0.0,inglés,12.0,4.0,2.0,no,no,no,nada,,,,"La silaba ""gu"" casi nunca la elegía porque me parecía que decía ""bu"" todo el rato y no ""gu""",68.0,yes
155,2023-11-08_21h55.01.909,Unsyncopated1,s72,18.0,feminino,right,España,Castellano y catalán,Upper secondary,no,no,A,2,conjunction_un,L1,unsyncopated,s2,r2,27,Online_conjL1_un//a.pu.ki12.none.none.wav,ri,ze,fo,sil,ta,lu,ro,sil1,be,ne,sil2,['-'],,,none,none,,,,ki,2,,,,,,,,,,,,,,,3 ,2.0,castellano,0.0,catalán,0.0,inglés,12.0,4.0,2.0,no,no,no,nada,,,,"La silaba ""gu"" casi nunca la elegía porque me parecía que decía ""bu"" todo el rato y no ""gu""",68.0,yes
156,2023-11-08_21h55.01.909,Unsyncopated1,s72,18.0,feminino,right,España,Castellano y catalán,Upper secondary,no,no,A,2,conjunction_un,L1,unsyncopated,s1,r2,28,Online_conjL1_un//d.ne.ni13.none.none.wav,ta,ri,fa,sil,be,fo,ze,sil1,ro,zu,sil2,['-'],,,none,none,,,,ne,4,,,,,,,,,,,,,,,3 ,2.0,castellano,0.0,catalán,0.0,inglés,12.0,4.0,2.0,no,no,no,nada,,,,"La silaba ""gu"" casi nunca la elegía porque me parecía que decía ""bu"" todo el rato y no ""gu""",68.0,yes
157,2023-11-08_21h55.01.909,Unsyncopated1,s72,18.0,feminino,right,España,Castellano y catalán,Upper secondary,no,no,A,2,conjunction_un,L1,unsyncopated,s1,r1,29,Online_conjL1_un//d.ne.ni12.1332.444.wav,pu,fo,ni,sil,ki,ri,ne,sil1,fa,zu,sil2,['miss'],,,1.332,no_beat,,,,ne,4,,,,,,,,,,,,,,,3 ,2.0,castellano,0.0,catalán,0.0,inglés,12.0,4.0,2.0,no,no,no,nada,,,,"La silaba ""gu"" casi nunca la elegía porque me parecía que decía ""bu"" todo el rato y no ""gu""",68.0,yes
158,2023-11-08_21h55.01.909,Unsyncopated1,s72,18.0,feminino,right,España,Castellano y catalán,Upper secondary,no,no,A,2,conjunction_un,L1,unsyncopated,s1,r1,30,Online_conjL1_un//d.ne.ni15.222.1110.wav,pu,ne,ze,sil,ki,ni,cho,sil1,lu,zu,sil2,['false alarm'],[0.15300000000002],[0.15300000000002],0.222,no_beat,,,"[""space""]",ne,4,,,,,,,,,,,,,,,3 ,2.0,castellano,0.0,catalán,0.0,inglés,12.0,4.0,2.0,no,no,no,nada,,,,"La silaba ""gu"" casi nunca la elegía porque me parecía que decía ""bu"" todo el rato y no ""gu""",68.0,yes
159,2023-11-08_21h55.01.909,Unsyncopated1,s72,18.0,feminino,right,España,Castellano y catalán,Upper secondary,no,no,A,2,conjunction_un,L1,unsyncopated,s1,r2,31,Online_conjL1_un//d.ne.ni14.222.1332.wav,ta,ne,ri,sil,be,fa,ni,sil1,cho,ro,sil2,['catch'],[0.9790000000000418],[0.9790000000000418],0.222,no_beat,0.7570000000000419,0.7570000000000419,"[""space""]",ne,4,,,,,,,,,,,,,,,3 ,2.0,castellano,0.0,catalán,0.0,inglés,12.0,4.0,2.0,no,no,no,nada,,,,"La silaba ""gu"" casi nunca la elegía porque me parecía que decía ""bu"" todo el rato y no ""gu""",68.0,yes
160,2023-11-08_21h55.01.909,Unsyncopated1,s72,18.0,feminino,right,España,Castellano y catalán,Upper secondary,no,no,A,2,conjunction_un,L1,unsyncopated,s1,r1,32,Online_conjL1_un//d.ne.ni20.1110.1332.wav,pu,ro,fa,sil,ki,ne,ni,sil1,cho,fo,sil2,['catch'],[1.6628000000118845],[1.6628000000118845],1.11,no_beat,0.5528000000118845,0.5528000000118845,"[""space""]",ne,4,,,,,,,,,,,,,,,3 ,2.0,castellano,0.0,catalán,0.0,inglés,12.0,4.0,2.0,no,no,no,nada,,,,"La silaba ""gu"" casi nunca la elegía porque me parecía que decía ""bu"" todo el rato y no ""gu""",68.0,yes
161,2023-11-08_21h55.01.909,Unsyncopated1,s72,18.0,feminino,right,España,Castellano y catalán,Upper secondary,no,no,A,2,conjunction_un,L1,unsyncopated,s1,r1,33,Online_conjL1_un//d.ne.ni22.none.none.wav,pu,cho,la,sil,ki,ro,ze,sil1,ri,lu,sil2,['-'],,,none,none,,,,ne,4,,,,,,,,,,,,,,,3 ,2.0,castellano,0.0,catalán,0.0,inglés,12.0,4.0,2.0,no,no,no,nada,,,,"La silaba ""gu"" casi nunca la elegía porque me parecía que decía ""bu"" todo el rato y no ""gu""",68.0,yes
162,2023-11-08_21h55.01.909,Unsyncopated1,s72,18.0,feminino,right,España,Castellano y catalán,Upper secondary,no,no,A,2,conjunction_un,L1,unsyncopated,s2,r2,34,Online_conjL1_un//d.ne.ni21.none.none.wav,lu,ro,ze,sil,ta,fo,cho,sil1,be,zu,sil2,['-'],,,none,none,,,,ne,4,,,,,,,,,,,,,,,3 ,2.0,castellano,0.0,catalán,0.0,inglés,12.0,4.0,2.0,no,no,no,nada,,,,"La silaba ""gu"" casi nunca la elegía porque me parecía que decía ""bu"" todo el rato y no ""gu""",68.0,yes
163,2023-11-08_21h55.01.909,Unsyncopated1,s72,18.0,feminino,right,España,Castellano y catalán,Upper secondary,no,no,A,2,conjunction_un,L1,unsyncopated,s1,r1,35,Online_conjL1_un//d.ne.ni23.1110.222.wav,pu,ni,ro,sil,ki,ne,lu,sil1,zu,fa,sil2,['miss'],,,1.11,no_beat,,,,ne,4,,,,,,,,,,,,,,,3 ,2.0,castellano,0.0,catalán,0.0,inglés,12.0,4.0,2.0,no,no,no,nada,,,,"La silaba ""gu"" casi nunca la elegía porque me parecía que decía ""bu"" todo el rato y no ""gu""",68.0,yes
164,2023-11-08_21h55.01.909,Unsyncopated1,s72,18.0,feminino,right,España,Castellano y catalán,Upper secondary,no,no,A,2,conjunction_un,L1,unsyncopated,s2,r1,36,Online_conjL1_un//d.ne.ni6.0.1110.wav,ne,ro,ze,sil,pu,ni,ri,sil1,ki,zu,sil2,['catch'],[0.694599999994125],[0.694599999994125],0.0,beat,0.694599999994125,0.694599999994125,"[""space""]",ne,4,,,,,,,,,,,,,,,3 ,2.0,castellano,0.0,catalán,0.0,inglés,12.0,4.0,2.0,no,no,no,nada,,,,"La silaba ""gu"" casi nunca la elegía porque me parecía que decía ""bu"" todo el rato y no ""gu""",68.0,yes
165,2023-11-08_21h55.01.909,Unsyncopated1,s72,18.0,feminino,right,España,Castellano y catalán,Upper secondary,no,no,A,2,conjunction_un,L1,unsyncopated,s1,r2,37,Online_conjL1_un//d.ne.ni5.1332.444.wav,ta,fa,ni,sil,be,cho,ne,sil1,ri,lu,sil2,['catch'],[2.109800000012001],[2.109800000012001],1.332,no_beat,0.7778000000120009,0.7778000000120009,"[""space""]",ne,4,,,,,,,,,,,,,,,3 ,2.0,castellano,0.0,catalán,0.0,inglés,12.0,4.0,2.0,no,no,no,nada,,,,"La silaba ""gu"" casi nunca la elegía porque me parecía que decía ""bu"" todo el rato y no ""gu""",68.0,yes
166,2023-11-08_21h55.01.909,Unsyncopated1,s72,18.0,feminino,right,España,Castellano y catalán,Upper secondary,no,no,A,2,conjunction_un,L1,unsyncopated,s2,r2,38,Online_conjL1_un//d.ne.ni7.none.none.wav,cho,ro,la,sil,ta,ze,fa,sil1,be,lu,sil2,['-'],,,none,none,,,,ne,4,,,,,,,,,,,,,,,3 ,2.0,castellano,0.0,catalán,0.0,inglés,12.0,4.0,2.0,no,no,no,nada,,,,"La silaba ""gu"" casi nunca la elegía porque me parecía que decía ""bu"" todo el rato y no ""gu""",68.0,yes
167,2023-11-08_21h55.01.909,Unsyncopated1,s72,18.0,feminino,right,España,Castellano y catalán,Upper secondary,no,no,A,2,conjunction_un,L1,unsyncopated,s1,r2,39,Online_conjL1_un//d.ne.ni4.1110.1332.wav,ta,lu,la,sil,be,ne,ni,sil1,fa,fo,sil2,['catch'],[1.7284000000058768],[1.7284000000058768],1.11,no_beat,0.6184000000058767,0.6184000000058767,"[""space""]",ne,4,,,,,,,,,,,,,,,3 ,2.0,castellano,0.0,catalán,0.0,inglés,12.0,4.0,2.0,no,no,no,nada,,,,"La silaba ""gu"" casi nunca la elegía porque me parecía que decía ""bu"" todo el rato y no ""gu""",68.0,yes
168,2023-11-08_21h55.01.909,Unsyncopated1,s72,18.0,feminino,right,España,Castellano y catalán,Upper secondary,no,no,A,2,conjunction_un,L1,unsyncopated,s2,r2,40,Online_conjL1_un//a.pu.ki19.none.none.wav,ze,fo,cho,sil,ta,fa,lu,sil1,be,ne,sil2,['-'],,,none,none,,,,ki,2,,,,,,,,,,,,,,,3 ,2.0,castellano,0.0,catalán,0.0,inglés,12.0,4.0,2.0,no,no,no,nada,,,,"La silaba ""gu"" casi nunca la elegía porque me parecía que decía ""bu"" todo el rato y no ""gu""",68.0,yes
169,2023-11-08_21h55.01.909,Unsyncopated1,s72,18.0,feminino,right,España,Castellano y catalán,Upper secondary,no,no,A,2,conjunction_un,L1,unsyncopated,s2,r1,41,Online_conjL1_un//a.pu.ki17.888.1776.wav,ne,ro,ze,sil,pu,fo,lu,sil1,ki,zu,sil2,['catch'],[2.3175999999941723],[2.3175999999941723],1.776,beat,0.5415999999941723,0.5415999999941723,"[""space""]",ki,2,,,,,,,,,,,,,,,3 ,2.0,castellano,0.0,catalán,0.0,inglés,12.0,4.0,2.0,no,no,no,nada,,,,"La silaba ""gu"" casi nunca la elegía porque me parecía que decía ""bu"" todo el rato y no ""gu""",68.0,yes
170,2023-11-08_21h55.01.909,Unsyncopated1,s72,18.0,feminino,right,España,Castellano y catalán,Upper secondary,no,no,A,2,conjunction_un,L1,unsyncopated,s2,r2,42,Online_conjL1_un//a.pu.ki18.none.none.wav,zu,ro,ze,sil,ta,fa,cho,sil1,be,ne,sil2,['-'],,,none,none,,,,ki,2,,,,,,,,,,,,,,,3 ,2.0,castellano,0.0,catalán,0.0,inglés,12.0,4.0,2.0,no,no,no,nada,,,,"La silaba ""gu"" casi nunca la elegía porque me parecía que decía ""bu"" todo el rato y no ""gu""",68.0,yes
171,2023-11-08_21h55.01.909,Unsyncopated1,s72,18.0,feminino,right,España,Castellano y catalán,Upper secondary,no,no,A,2,conjunction_un,L1,unsyncopated,s2,r2,43,Online_conjL1_un//a.pu.ki16.none.none.wav,ze,zu,ni,sil,ta,lu,ne,sil1,be,ri,sil2,['-'],,,none,none,,,,ki,2,,,,,,,,,,,,,,,3 ,2.0,castellano,0.0,catalán,0.0,inglés,12.0,4.0,2.0,no,no,no,nada,,,,"La silaba ""gu"" casi nunca la elegía porque me parecía que decía ""bu"" todo el rato y no ""gu""",68.0,yes
172,2023-11-08_21h55.01.909,Unsyncopated1,s72,18.0,feminino,right,España,Castellano y catalán,Upper secondary,no,no,A,2,conjunction_un,L1,unsyncopated,s1,r2,44,Online_conjL1_un//d.ne.ni8.1776.222.wav,ta,ni,ri,sil,be,zu,lu,sil1,ne,fa,sil2,['catch'],[2.3270999999940614],[2.3270999999940614],1.776,beat,0.5510999999940613,0.5510999999940613,"[""space""]",ne,4,,,,,,,,,,,,,,,3 ,2.0,castellano,0.0,catalán,0.0,inglés,12.0,4.0,2.0,no,no,no,nada,,,,"La silaba ""gu"" casi nunca la elegía porque me parecía que decía ""bu"" todo el rato y no ""gu""",68.0,yes
173,2023-11-08_21h55.01.909,Unsyncopated1,s72,18.0,feminino,right,España,Castellano y catalán,Upper secondary,no,no,A,2,conjunction_un,L1,unsyncopated,s2,r1,45,Online_conjL1_un//d.ne.ni10.1110.222.wav,la,ni,cho,sil,pu,ne,lu,sil1,ki,zu,sil2,['miss'],,,1.11,no_beat,,,,ne,4,,,,,,,,,,,,,,,3 ,2.0,castellano,0.0,catalán,0.0,inglés,12.0,4.0,2.0,no,no,no,nada,,,,"La silaba ""gu"" casi nunca la elegía porque me parecía que decía ""bu"" todo el rato y no ""gu""",68.0,yes
174,2023-11-08_21h55.01.909,Unsyncopated1,s72,18.0,feminino,right,España,Castellano y catalán,Upper secondary,no,no,A,2,conjunction_un,L1,unsyncopated,s1,r2,46,Online_conjL1_un//d.ne.ni9.none.none.wav,ta,ro,fo,sil,be,zu,cho,sil1,lu,ze,sil2,['-'],,,none,none,,,,ne,4,,,,,,,,,,,,,,,3 ,2.0,castellano,0.0,catalán,0.0,inglés,12.0,4.0,2.0,no,no,no,nada,,,,"La silaba ""gu"" casi nunca la elegía porque me parecía que decía ""bu"" todo el rato y no ""gu""",68.0,yes
175,2023-11-08_21h55.01.909,Unsyncopated1,s72,18.0,feminino,right,España,Castellano y catalán,Upper secondary,no,no,A,2,conjunction_un,L1,unsyncopated,s2,r2,47,Online_conjL1_un//d.ne.ni11.none.none.wav,ro,zu,la,sil,ta,ze,cho,sil1,be,fa,sil2,['-'],,,none,none,,,,ne,4,,,,,,,,,,,,,,,3 ,2.0,castellano,0.0,catalán,0.0,inglés,12.0,4.0,2.0,no,no,no,nada,,,,"La silaba ""gu"" casi nunca la elegía porque me parecía que decía ""bu"" todo el rato y no ""gu""",68.0,yes
176,2023-11-08_21h55.01.909,Unsyncopated1,s72,18.0,feminino,right,España,Castellano y catalán,Upper secondary,no,no,A,2,conjunction_un,L1,unsyncopated,s2,r1,48,Online_conjL1_un//d.ne.ni3.none.none.wav,cho,lu,zu,sil,pu,ro,la,sil1,ki,ri,sil2,['-'],,,none,none,,,,ne,4,,,,,,,,,,,,,,,3 ,2.0,castellano,0.0,catalán,0.0,inglés,12.0,4.0,2.0,no,no,no,nada,,,,"La silaba ""gu"" casi nunca la elegía porque me parecía que decía ""bu"" todo el rato y no ""gu""",68.0,yes
177,2023-11-08_21h55.01.909,Unsyncopated1,s72,18.0,feminino,right,España,Castellano y catalán,Upper secondary,no,no,A,2,conjunction_un,L1,unsyncopated,s2,r1,49,Online_conjL1_un//d.ne.ni0.none.none.wav,ro,lu,fa,sil,pu,fo,ri,sil1,ki,ze,sil2,['-'],,,none,none,,,,ne,4,,,,,,,,,,,,,,,3 ,2.0,castellano,0.0,catalán,0.0,inglés,12.0,4.0,2.0,no,no,no,nada,,,,"La silaba ""gu"" casi nunca la elegía porque me parecía que decía ""bu"" todo el rato y no ""gu""",68.0,yes
178,2023-11-08_21h55.01.909,Unsyncopated1,s72,18.0,feminino,right,España,Castellano y catalán,Upper secondary,no,no,A,2,conjunction_un,L1,unsyncopated,s1,r1,50,Online_conjL1_un//d.ne.ni2.none.none.wav,pu,ze,fa,sil,ki,ro,cho,sil1,lu,zu,sil2,['-'],,,none,none,,,,ne,4,,,,,,,,,,,,,,,3 ,2.0,castellano,0.0,catalán,0.0,inglés,12.0,4.0,2.0,no,no,no,nada,,,,"La silaba ""gu"" casi nunca la elegía porque me parecía que decía ""bu"" todo el rato y no ""gu""",68.0,yes
179,2023-11-08_21h55.01.909,Unsyncopated1,s72,18.0,feminino,right,España,Castellano y catalán,Upper secondary,no,no,A,2,conjunction_un,L1,unsyncopated,s2,r1,51,Online_conjL1_un//d.ne.ni1.222.444.wav,ro,ne,ni,sil,pu,ze,fo,sil1,ki,cho,sil2,['miss'],,,0.222,no_beat,,,,ne,4,,,,,,,,,,,,,,,3 ,2.0,castellano,0.0,catalán,0.0,inglés,12.0,4.0,2.0,no,no,no,nada,,,,"La silaba ""gu"" casi nunca la elegía porque me parecía que decía ""bu"" todo el rato y no ""gu""",68.0,yes
180,2023-11-08_21h55.01.909,Unsyncopated1,s72,18.0,feminino,right,España,Castellano y catalán,Upper secondary,no,no,A,2,conjunction_un,L1,unsyncopated,s1,r2,52,Online_conjL1_un//a.pu.ki24.none.none.wav,ta,lu,ri,sil,be,la,zu,sil1,fa,ze,sil2,['-'],,,none,none,,,,ki,2,,,,,,,,,,,,,,,3 ,2.0,castellano,0.0,catalán,0.0,inglés,12.0,4.0,2.0,no,no,no,nada,,,,"La silaba ""gu"" casi nunca la elegía porque me parecía que decía ""bu"" todo el rato y no ""gu""",68.0,yes
