Unnamed: 0,date,expName,participant,age,sex,hand,residence,native_lang,education_level,lang_deficit,aud_deficit,group,block,condition,language,rhythm,rule structure online,rule type online,order_trial_on,trial_online,s1,s2,s3,s4,s5,s6,s7,s8,s9,s10,s11,catch_syll_resp,rts_syll_catch,clean_rts,time_syll,beat_no_beat,catch_rtsTR,catch_rts,syllable_catch.keys,cond_syll,syll_to_catch,test_offline,block_off,condition_off,rhythm_off,rule,rule_str_off,rule_norule,conds_offline,language_off,Partz_no_partm.keys,Partz_no_partm.rt,security_1_7.keys,accuracy,security_1_7.rt,n_lang,n_lang_used,lang_1,age_l1,lang_2,age_l2,lang_3,age_l3,ability_learn_l2,tendence_mix_lan,music_experience,muisc_use,partiture,instr_1,age_M1,instr_2,age_M2,instr_3,age_M3,preguntas_musica1,BMRQ_answer.response,BMRQ_Score,bilingual
0,2024-02-10_09h59.33.855,Unsyncopated_study2,s108,26.0,masculino,right,España,"Català, Castellano",Master degree,no,no,B,1,conjunction_syn,L1,syncopated,s1,r1,0,Online_conjL1_syn//c.ro.fo13.1554.222.wav,pu,fo,fa,ki,sil,ni,cho,ro,sil1,ze,sil2,['catch'],[0.8814000000061242],[0.8814000000061242],0.222,no_beat,0.6594000000061242,0.6594000000061242,"[""space""]",fo,3,testConjL1Syn//cat_viol.r1.s2.0.wav,1.0,conjunction_syn,syncopated,a,s2,no_rule,cat,L1,z,1.2337,7.0,0.0,2.6269,3.0,3.0,Català,0.0,Castellano,6.0,English,6.0,5.0,4.0,yes,yes,no,Flauta,6,Guitarra,6,Batería,6,1. Cuando comparto música con alguien siento una complicidad especial con aquella persona.,3.0,58.0,yes
1,2024-02-10_09h59.33.855,Unsyncopated_study2,s108,26.0,masculino,right,España,"Català, Castellano",Master degree,no,no,B,1,conjunction_syn,L1,syncopated,s1,r1,1,Online_conjL1_syn//c.ro.fo15.none.none.wav,pu,ri,ze,ki,sil,lu,ne,la,sil1,cho,sil2,['-'],,,none,none,,,,fo,3,testConjL1Syn//r2.s2.0.wav,1.0,conjunction_syn,syncopated,b,s2,rule,rule,L1,z,0.8274,7.0,1.0,1.3688,3.0,3.0,Català,0.0,Castellano,6.0,English,6.0,5.0,4.0,yes,yes,no,Flauta,6,Guitarra,6,Batería,6,2. En mi tiempo libre apenas escucho música.,4.0,58.0,yes
2,2024-02-10_09h59.33.855,Unsyncopated_study2,s108,26.0,masculino,right,España,"Català, Castellano",Master degree,no,no,B,1,conjunction_syn,L1,syncopated,s2,r2,2,Online_conjL1_syn//c.ro.fo14.none.none.wav,fa,zu,ri,ta,sil,la,ni,be,sil1,ne,sil2,['-'],,,none,none,,,,fo,3,testConjL1Syn//time_viol.r2.s2.0.wav,1.0,conjunction_syn,syncopated,b,s2,no_rule,time,L1,m,4.2522,2.0,1.0,1.5581,3.0,3.0,Català,0.0,Castellano,6.0,English,6.0,5.0,4.0,yes,yes,no,Flauta,6,Guitarra,6,Batería,6,3. Algunas canciones me ponen los pelos de punta,4.0,58.0,yes
3,2024-02-10_09h59.33.855,Unsyncopated_study2,s108,26.0,masculino,right,España,"Català, Castellano",Master degree,no,no,B,1,conjunction_syn,L1,syncopated,s2,r2,3,Online_conjL1_syn//c.ro.fo12.1332.444.wav,fa,zu,fo,ta,sil,cho,ro,be,sil1,ne,sil2,['catch'],[1.006700000003093],[1.006700000003093],0.444,no_beat,0.5627000000030931,0.5627000000030931,"[""space""]",fo,3,testConjL1Syn//dep_viol.r1.s1.0.wav,1.0,conjunction_syn,syncopated,a,s1,no_rule,dep,L1,z,1.0531,6.0,0.0,1.4022,3.0,3.0,Català,0.0,Castellano,6.0,English,6.0,5.0,4.0,yes,yes,no,Flauta,6,Guitarra,6,Batería,6,4. La música me hace compañía cuando estoy solo,3.0,58.0,yes
4,2024-02-10_09h59.33.855,Unsyncopated_study2,s108,26.0,masculino,right,España,"Català, Castellano",Master degree,no,no,B,1,conjunction_syn,L1,syncopated,s1,r2,4,Online_conjL1_syn//b.ta.be11.0.666.wav,ta,zu,lu,be,sil,ni,ro,cho,sil1,fo,sil2,['miss'],,,0.666,no_beat,,,,be,2,testConjL1Syn//cat_viol.r1.s1.0.wav,1.0,conjunction_syn,syncopated,a,s1,no_rule,cat,L1,z,0.4899,6.0,0.0,1.1215,3.0,3.0,Català,0.0,Castellano,6.0,English,6.0,5.0,4.0,yes,yes,no,Flauta,6,Guitarra,6,Batería,6,5. No me apetece bailar ni con la música que más me gusta,1.0,58.0,yes
5,2024-02-10_09h59.33.855,Unsyncopated_study2,s108,26.0,masculino,right,España,"Català, Castellano",Master degree,no,no,B,1,conjunction_syn,L1,syncopated,s2,r2,5,Online_conjL1_syn//b.ta.be9.666.1554.wav,la,lu,ne,ta,sil,ze,fo,be,sil1,zu,sil2,"['false alarm', 'catch']","[0.005499999999983629, 2.393399999991061]",[2.393399999991061],1.554,no_beat,0.8393999999910611,0.8393999999910611,"[""space"",""space""]",be,2,testConjL1Syn//r2.s1.0.wav,1.0,conjunction_syn,syncopated,b,s1,rule,rule,L1,z,1.5847,6.0,1.0,0.8367,3.0,3.0,Català,0.0,Castellano,6.0,English,6.0,5.0,4.0,yes,yes,no,Flauta,6,Guitarra,6,Batería,6,6. La música me hace conectar con la gente,3.0,58.0,yes
6,2024-02-10_09h59.33.855,Unsyncopated_study2,s108,26.0,masculino,right,España,"Català, Castellano",Master degree,no,no,B,1,conjunction_syn,L1,syncopated,s1,r2,6,Online_conjL1_syn//b.ta.be8.0.666.wav,ta,la,zu,be,sil,ro,cho,ze,sil1,lu,sil2,['catch'],[1.352999999999838],[1.352999999999838],0.666,no_beat,0.6869999999998381,0.6869999999998381,"[""space""]",be,2,testConjL1Syn//dep_viol.r2.s1.0.wav,1.0,conjunction_syn,syncopated,b,s1,no_rule,dep,L1,m,1.0442,6.0,1.0,2.4053,3.0,3.0,Català,0.0,Castellano,6.0,English,6.0,5.0,4.0,yes,yes,no,Flauta,6,Guitarra,6,Batería,6,7. Me informo sobre la música que me gusta.,3.0,58.0,yes
7,2024-02-10_09h59.33.855,Unsyncopated_study2,s108,26.0,masculino,right,España,"Català, Castellano",Master degree,no,no,B,1,conjunction_syn,L1,syncopated,s1,r2,7,Online_conjL1_syn//b.ta.be10.0.666.wav,ta,cho,ri,be,sil,ni,zu,ze,sil1,ne,sil2,['catch'],[1.2793000000119719],[1.2793000000119719],0.666,no_beat,0.6133000000119718,0.6133000000119718,"[""space""]",be,2,testConjL1Syn//r1.s1.0.wav,1.0,conjunction_syn,syncopated,a,s1,rule,rule,L1,z,0.4923,6.0,1.0,0.7374,3.0,3.0,Català,0.0,Castellano,6.0,English,6.0,5.0,4.0,yes,yes,no,Flauta,6,Guitarra,6,Batería,6,8.Me emociono escuchando ciertas canciones.,4.0,58.0,yes
8,2024-02-10_09h59.33.855,Unsyncopated_study2,s108,26.0,masculino,right,España,"Català, Castellano",Master degree,no,no,B,1,conjunction_syn,L1,syncopated,s2,r1,8,Online_conjL1_syn//a.pu.ki25.666.1554.wav,cho,la,ro,pu,sil,ze,ne,ki,sil1,ri,sil2,['miss'],,,0.666,no_beat,,,,pu,1,testConjL1Syn//time_viol.r2.s1.0.wav,1.0,conjunction_syn,syncopated,b,s1,no_rule,time,L1,m,0.7571,6.0,1.0,0.738,3.0,3.0,Català,0.0,Castellano,6.0,English,6.0,5.0,4.0,yes,yes,no,Flauta,6,Guitarra,6,Batería,6,9.La música me tranquiliza y me relaja.,4.0,58.0,yes
9,2024-02-10_09h59.33.855,Unsyncopated_study2,s108,26.0,masculino,right,España,"Català, Castellano",Master degree,no,no,B,1,conjunction_syn,L1,syncopated,s1,r2,9,Online_conjL1_syn//a.pu.ki26.none.none.wav,ta,zu,lu,be,sil,ro,la,ri,sil1,fa,sil2,['false alarm'],[1.2707000000029893],[1.2707000000029893],none,none,,,"[""space""]",pu,1,testConjL1Syn//r2.s2.2.wav,1.0,conjunction_syn,syncopated,b,s2,rule,rule,L1,z,0.9438,6.0,1.0,1.4871,3.0,3.0,Català,0.0,Castellano,6.0,English,6.0,5.0,4.0,yes,yes,no,Flauta,6,Guitarra,6,Batería,6,10.La música me hace bailar,0.0,58.0,yes
10,2024-02-10_09h59.33.855,Unsyncopated_study2,s108,26.0,masculino,right,España,"Català, Castellano",Master degree,no,no,B,1,conjunction_syn,L1,syncopated,s1,r2,10,Online_conjL1_syn//a.pu.ki24.none.none.wav,ta,ne,la,be,sil,ri,fa,ze,sil1,zu,sil2,['-'],,,none,none,,,,pu,1,testConjL1Syn//r2.s1.2.wav,1.0,conjunction_syn,syncopated,b,s1,rule,rule,L1,m,1.4711,5.0,0.0,0.8201,3.0,3.0,Català,0.0,Castellano,6.0,English,6.0,5.0,4.0,yes,yes,no,Flauta,6,Guitarra,6,Batería,6,11.Busco novedades musicales continuamente,1.0,58.0,yes
11,2024-02-10_09h59.33.855,Unsyncopated_study2,s108,26.0,masculino,right,España,"Català, Castellano",Master degree,no,no,B,1,conjunction_syn,L1,syncopated,s1,r1,11,Online_conjL1_syn//a.pu.ki27.0.666.wav,pu,ze,lu,ki,sil,cho,fa,fo,sil1,ni,sil2,['catch'],[0.5088999999911721],[0.5088999999911721],0.0,beat,0.5088999999911721,0.5088999999911721,"[""space""]",pu,1,testConjL1Syn//dep_viol.r2.s2.0.wav,1.0,conjunction_syn,syncopated,b,s2,no_rule,dep,L1,m,1.7535,6.0,1.0,0.9022,3.0,3.0,Català,0.0,Castellano,6.0,English,6.0,5.0,4.0,yes,yes,no,Flauta,6,Guitarra,6,Batería,6,12. Puedo llorar cuando escucho algunas melodías que me gustan mucho.,4.0,58.0,yes
12,2024-02-10_09h59.33.855,Unsyncopated_study2,s108,26.0,masculino,right,España,"Català, Castellano",Master degree,no,no,B,1,conjunction_syn,L1,syncopated,s1,r1,12,Online_conjL1_syn//d.ne.ni15.none.none.wav,pu,lu,ze,ki,sil,cho,zu,ri,sil1,la,sil2,['false alarm'],[0.8675999999938995],[0.8675999999938995],none,none,,,"[""space""]",ni,4,testConjL1Syn//r2.s2.1.wav,1.0,conjunction_syn,syncopated,b,s2,rule,rule,L1,z,0.9119,7.0,1.0,1.2386,3.0,3.0,Català,0.0,Castellano,6.0,English,6.0,5.0,4.0,yes,yes,no,Flauta,6,Guitarra,6,Batería,6,13. Me gusta cantar o tocar un instrumento con más gente,4.0,58.0,yes
13,2024-02-10_09h59.33.855,Unsyncopated_study2,s108,26.0,masculino,right,España,"Català, Castellano",Master degree,no,no,B,1,conjunction_syn,L1,syncopated,s1,r2,13,Online_conjL1_syn//d.ne.ni14.none.none.wav,ta,ri,cho,be,sil,ze,lu,zu,sil1,la,sil2,['-'],,,none,none,,,,ni,4,testConjL1Syn//r1.s1.2.wav,1.0,conjunction_syn,syncopated,a,s1,rule,rule,L1,z,0.9676,7.0,1.0,1.2357,3.0,3.0,Català,0.0,Castellano,6.0,English,6.0,5.0,4.0,yes,yes,no,Flauta,6,Guitarra,6,Batería,6,14. La música me ayuda a desconectar.,4.0,58.0,yes
14,2024-02-10_09h59.33.855,Unsyncopated_study2,s108,26.0,masculino,right,España,"Català, Castellano",Master degree,no,no,B,1,conjunction_syn,L1,syncopated,s2,r1,14,Online_conjL1_syn//d.ne.ni13.1110.222.wav,ze,ni,lu,pu,sil,ne,ro,ki,sil1,zu,sil2,['catch'],[0.8070999999940796],[0.8070999999940796],0.222,no_beat,0.5850999999940796,0.5850999999940796,"[""space""]",ni,4,testConjL1Syn//r2.s1.1.wav,1.0,conjunction_syn,syncopated,b,s1,rule,rule,L1,z,4.2829,6.0,1.0,0.5186,3.0,3.0,Català,0.0,Castellano,6.0,English,6.0,5.0,4.0,yes,yes,no,Flauta,6,Guitarra,6,Batería,6,15. No puedo evitar tararear las canciones que me gustan cuando las escucho.,4.0,58.0,yes
15,2024-02-10_09h59.33.855,Unsyncopated_study2,s108,26.0,masculino,right,España,"Català, Castellano",Master degree,no,no,B,1,conjunction_syn,L1,syncopated,s1,r1,15,Online_conjL1_syn//d.ne.ni12.none.none.wav,pu,fo,ri,ki,sil,ze,zu,ro,sil1,la,sil2,['-'],,,none,none,,,,ni,4,testConjL1Syn//r1.s2.1.wav,1.0,conjunction_syn,syncopated,a,s2,rule,rule,L1,z,3.4999,7.0,1.0,0.44,3.0,3.0,Català,0.0,Castellano,6.0,English,6.0,5.0,4.0,yes,yes,no,Flauta,6,Guitarra,6,Batería,6,16. En los conciertos me siento en sintonía con los artistas y el público.,3.0,58.0,yes
16,2024-02-10_09h59.33.855,Unsyncopated_study2,s108,26.0,masculino,right,España,"Català, Castellano",Master degree,no,no,B,1,conjunction_syn,L1,syncopated,s1,r2,16,Online_conjL1_syn//b.ta.be31.0.666.wav,ta,fo,cho,be,sil,lu,ri,zu,sil1,la,sil2,['catch'],[1.280399999991232],[1.280399999991232],0.666,no_beat,0.6143999999912321,0.6143999999912321,"[""space""]",be,2,testConjL1Syn//cat_viol.r2.s1.0.wav,1.0,conjunction_syn,syncopated,b,s1,no_rule,cat,L1,m,2.0739,6.0,1.0,0.9238,3.0,3.0,Català,0.0,Castellano,6.0,English,6.0,5.0,4.0,yes,yes,no,Flauta,6,Guitarra,6,Batería,6,17. Me gasto bastante dinero en música y cosas relacionadas con la música.,0.0,58.0,yes
17,2024-02-10_09h59.33.855,Unsyncopated_study2,s108,26.0,masculino,right,España,"Català, Castellano",Master degree,no,no,B,1,conjunction_syn,L1,syncopated,s2,r1,17,Online_conjL1_syn//b.ta.be30.none.none.wav,la,fo,fa,pu,sil,ro,ri,ki,sil1,ze,sil2,['-'],,,none,none,,,,be,2,testConjL1Syn//r1.s1.1.wav,1.0,conjunction_syn,syncopated,a,s1,rule,rule,L1,m,0.9829,6.0,0.0,0.7551,3.0,3.0,Català,0.0,Castellano,6.0,English,6.0,5.0,4.0,yes,yes,no,Flauta,6,Guitarra,6,Batería,6,18. Siento escalofríos cuando escucho una melodía que me gusta.,4.0,58.0,yes
18,2024-02-10_09h59.33.855,Unsyncopated_study2,s108,26.0,masculino,right,España,"Català, Castellano",Master degree,no,no,B,1,conjunction_syn,L1,syncopated,s1,r1,18,Online_conjL1_syn//b.ta.be29.none.none.wav,pu,ro,fa,ki,sil,zu,ni,la,sil1,ze,sil2,['-'],,,none,none,,,,be,2,testConjL1Syn//r1.s2.2.wav,1.0,conjunction_syn,syncopated,a,s2,rule,rule,L1,m,0.8441,6.0,0.0,0.6757,3.0,3.0,Català,0.0,Castellano,6.0,English,6.0,5.0,4.0,yes,yes,no,Flauta,6,Guitarra,6,Batería,6,19. Con la música me puedo desahogar.,3.0,58.0,yes
19,2024-02-10_09h59.33.855,Unsyncopated_study2,s108,26.0,masculino,right,España,"Català, Castellano",Master degree,no,no,B,1,conjunction_syn,L1,syncopated,s1,r2,19,Online_conjL1_syn//b.ta.be28.0.666.wav,ta,fa,la,be,sil,zu,fo,ze,sil1,ro,sil2,['catch'],[1.2883999999912703],[1.2883999999912703],0.666,no_beat,0.6223999999912703,0.6223999999912703,"[""space""]",be,2,testConjL1Syn//r1.s2.0.wav,1.0,conjunction_syn,syncopated,a,s2,rule,rule,L1,z,0.3713,7.0,1.0,0.4855,3.0,3.0,Català,0.0,Castellano,6.0,English,6.0,5.0,4.0,yes,yes,no,Flauta,6,Guitarra,6,Batería,6,20. Cuando escucho una melodía que me gusta mucho no puedo evitar mover el cuerpo.,2.0,58.0,yes
20,2024-02-10_09h59.33.855,Unsyncopated_study2,s108,26.0,masculino,right,España,"Català, Castellano",Master degree,no,no,B,1,conjunction_syn,L1,syncopated,s1,r1,20,Online_conjL1_syn//c.ro.fo9.1554.1110.wav,pu,ni,lu,ki,sil,fo,fa,ro,sil1,ne,sil2,['catch'],[1.7185999999940123],[1.7185999999940123],1.11,no_beat,0.6085999999940122,0.6085999999940122,"[""space""]",fo,3,testConjL1Syn//dep_viol.r1.s2.0.wav,1.0,conjunction_syn,syncopated,a,s2,no_rule,dep,L1,m,0.7686,6.0,1.0,0.6738,3.0,3.0,Català,0.0,Castellano,6.0,English,6.0,5.0,4.0,yes,yes,no,Flauta,6,Guitarra,6,Batería,6,,,58.0,yes
21,2024-02-10_09h59.33.855,Unsyncopated_study2,s108,26.0,masculino,right,España,"Català, Castellano",Master degree,no,no,B,1,conjunction_syn,L1,syncopated,s2,r2,21,Online_conjL1_syn//c.ro.fo10.222.444.wav,zu,ro,fo,ta,sil,ni,cho,be,sil1,ze,sil2,['catch'],[1.1893000000118263],[1.1893000000118263],0.444,no_beat,0.7453000000118264,0.7453000000118264,"[""space""]",fo,3,testConjL1Syn//time_viol.r1.s1.0.wav,1.0,conjunction_syn,syncopated,a,s1,no_rule,time,L1,m,4.4709,6.0,1.0,0.7513,3.0,3.0,Català,0.0,Castellano,6.0,English,6.0,5.0,4.0,yes,yes,no,Flauta,6,Guitarra,6,Batería,6,,,58.0,yes
22,2024-02-10_09h59.33.855,Unsyncopated_study2,s108,26.0,masculino,right,España,"Català, Castellano",Master degree,no,no,B,1,conjunction_syn,L1,syncopated,s1,r2,22,Online_conjL1_syn//c.ro.fo8.444.1332.wav,ta,lu,ro,be,sil,ni,fo,zu,sil1,fa,sil2,['catch'],[1.9451000000090062],[1.9451000000090062],1.332,no_beat,0.6131000000090061,0.6131000000090061,"[""space""]",fo,3,testConjL1Syn//time_viol.r1.s2.0.wav,1.0,conjunction_syn,syncopated,a,s2,no_rule,time,L1,m,1.5688,7.0,1.0,0.4762,3.0,3.0,Català,0.0,Castellano,6.0,English,6.0,5.0,4.0,yes,yes,no,Flauta,6,Guitarra,6,Batería,6,,,58.0,yes
23,2024-02-10_09h59.33.855,Unsyncopated_study2,s108,26.0,masculino,right,España,"Català, Castellano",Master degree,no,no,B,1,conjunction_syn,L1,syncopated,s2,r1,23,Online_conjL1_syn//c.ro.fo11.none.none.wav,ze,zu,ni,pu,sil,la,cho,ki,sil1,ne,sil2,['-'],,,none,none,,,,fo,3,testConjL1Syn//cat_viol.r2.s2.0.wav,1.0,conjunction_syn,syncopated,b,s2,no_rule,cat,L1,m,0.9196,6.0,1.0,0.7845,3.0,3.0,Català,0.0,Castellano,6.0,English,6.0,5.0,4.0,yes,yes,no,Flauta,6,Guitarra,6,Batería,6,,,58.0,yes
24,2024-02-10_09h59.33.855,Unsyncopated_study2,s108,26.0,masculino,right,España,"Català, Castellano",Master degree,no,no,B,1,conjunction_syn,L1,syncopated,s2,r2,24,Online_conjL1_syn//c.ro.fo25.none.none.wav,lu,ri,fa,ta,sil,zu,cho,be,sil1,ze,sil2,['-'],,,none,none,,,,fo,3,testWhenL4Uns//dep_viol.r1.s1.0.wav,2.0,when,unsyncopated,a,s1,no_rule,dep,L4,z,1.5505,7.0,1.0,0.9946,3.0,3.0,Català,0.0,Castellano,6.0,English,6.0,5.0,4.0,yes,yes,no,Flauta,6,Guitarra,6,Batería,6,,,58.0,yes
25,2024-02-10_09h59.33.855,Unsyncopated_study2,s108,26.0,masculino,right,España,"Català, Castellano",Master degree,no,no,B,1,conjunction_syn,L1,syncopated,s1,r1,25,Online_conjL1_syn//c.ro.fo24.1332.222.wav,pu,fo,ni,ki,sil,la,ro,ze,sil1,zu,sil2,['catch'],[0.8554999999998927],[0.8554999999998927],0.222,no_beat,0.6334999999998927,0.6334999999998927,"[""space""]",fo,3,testWhenL4Uns//time_viol.r2.s1.0.wav,2.0,when,unsyncopated,b,s1,no_rule,time,L4,z,0.3899,7.0,1.0,0.5737,3.0,3.0,Català,0.0,Castellano,6.0,English,6.0,5.0,4.0,yes,yes,no,Flauta,6,Guitarra,6,Batería,6,,,58.0,yes
26,2024-02-10_09h59.33.855,Unsyncopated_study2,s108,26.0,masculino,right,España,"Català, Castellano",Master degree,no,no,B,1,conjunction_syn,L1,syncopated,s2,r1,26,Online_conjL1_syn//c.ro.fo26.444.0.wav,fo,ne,ro,pu,sil,ze,ni,ki,sil1,fa,sil2,['catch'],[0.6465999999941232],[0.6465999999941232],0.0,beat,0.6465999999941232,0.6465999999941232,"[""space""]",fo,3,testWhenL4Uns//dep_viol.r2.s2.0.wav,2.0,when,unsyncopated,b,s2,no_rule,dep,L4,m,0.7502,6.0,0.0,0.7018,3.0,3.0,Català,0.0,Castellano,6.0,English,6.0,5.0,4.0,yes,yes,no,Flauta,6,Guitarra,6,Batería,6,,,58.0,yes
27,2024-02-10_09h59.33.855,Unsyncopated_study2,s108,26.0,masculino,right,España,"Català, Castellano",Master degree,no,no,B,1,conjunction_syn,L1,syncopated,s2,r2,27,Online_conjL1_syn//c.ro.fo27.444.1110.wav,la,fa,ro,ta,sil,fo,lu,be,sil1,ze,sil2,['catch'],[1.8070999999940796],[1.8070999999940796],1.11,no_beat,0.6970999999940795,0.6970999999940795,"[""space""]",fo,3,testWhenL4Uns//r2.s1.0.wav,2.0,when,unsyncopated,b,s1,rule,rule,L4,z,0.5349,6.0,1.0,0.47,3.0,3.0,Català,0.0,Castellano,6.0,English,6.0,5.0,4.0,yes,yes,no,Flauta,6,Guitarra,6,Batería,6,,,58.0,yes
28,2024-02-10_09h59.33.855,Unsyncopated_study2,s108,26.0,masculino,right,España,"Català, Castellano",Master degree,no,no,B,1,conjunction_syn,L1,syncopated,s2,r1,28,Online_conjL1_syn//a.pu.ki29.666.1554.wav,ze,ne,ro,pu,sil,lu,la,ki,sil1,fo,sil2,['catch'],[1.2637000000029275],[1.2637000000029275],0.666,no_beat,0.5977000000029274,0.5977000000029274,"[""space""]",pu,1,testWhenL4Uns//time_viol.r1.s1.0.wav,2.0,when,unsyncopated,a,s1,no_rule,time,L4,m,0.5689,6.0,0.0,0.5508,3.0,3.0,Català,0.0,Castellano,6.0,English,6.0,5.0,4.0,yes,yes,no,Flauta,6,Guitarra,6,Batería,6,,,58.0,yes
29,2024-02-10_09h59.33.855,Unsyncopated_study2,s108,26.0,masculino,right,España,"Català, Castellano",Master degree,no,no,B,1,conjunction_syn,L1,syncopated,s1,r2,29,Online_conjL1_syn//a.pu.ki30.none.none.wav,ta,fa,ro,be,sil,ni,zu,la,sil1,ze,sil2,['-'],,,none,none,,,,pu,1,testWhenL4Uns//r2.s2.2.wav,2.0,when,unsyncopated,b,s2,rule,rule,L4,m,0.4237,7.0,0.0,0.4531,3.0,3.0,Català,0.0,Castellano,6.0,English,6.0,5.0,4.0,yes,yes,no,Flauta,6,Guitarra,6,Batería,6,,,58.0,yes
30,2024-02-10_09h59.33.855,Unsyncopated_study2,s108,26.0,masculino,right,España,"Català, Castellano",Master degree,no,no,B,1,conjunction_syn,L1,syncopated,s2,r2,30,Online_conjL1_syn//a.pu.ki31.none.none.wav,lu,fo,fa,ta,sil,ro,ni,be,sil1,la,sil2,['-'],,,none,none,,,,pu,1,testWhenL4Uns//r1.s2.0.wav,2.0,when,unsyncopated,a,s2,rule,rule,L4,z,0.3515,7.0,1.0,0.5023,3.0,3.0,Català,0.0,Castellano,6.0,English,6.0,5.0,4.0,yes,yes,no,Flauta,6,Guitarra,6,Batería,6,,,58.0,yes
31,2024-02-10_09h59.33.855,Unsyncopated_study2,s108,26.0,masculino,right,España,"Català, Castellano",Master degree,no,no,B,1,conjunction_syn,L1,syncopated,s2,r1,31,Online_conjL1_syn//a.pu.ki28.666.1554.wav,cho,ro,fo,pu,sil,ze,ni,ki,sil1,zu,sil2,['catch'],[1.2062000000030366],[1.2062000000030366],0.666,no_beat,0.5402000000030366,0.5402000000030366,"[""space""]",pu,1,testWhenL4Uns//r1.s1.0.wav,2.0,when,unsyncopated,a,s1,rule,rule,L4,m,0.4869,5.0,0.0,0.6756,3.0,3.0,Català,0.0,Castellano,6.0,English,6.0,5.0,4.0,yes,yes,no,Flauta,6,Guitarra,6,Batería,6,,,58.0,yes
32,2024-02-10_09h59.33.855,Unsyncopated_study2,s108,26.0,masculino,right,España,"Català, Castellano",Master degree,no,no,B,1,conjunction_syn,L1,syncopated,s1,r2,32,Online_conjL1_syn//d.ne.ni10.none.none.wav,ta,ze,fo,be,sil,ro,zu,ri,sil1,lu,sil2,['false alarm'],[2.4731999999880827],[2.4731999999880827],none,none,,,"[""space""]",ni,4,testWhenL4Uns//r2.s1.1.wav,2.0,when,unsyncopated,b,s1,rule,rule,L4,z,0.6421,7.0,1.0,1.0177,3.0,3.0,Català,0.0,Castellano,6.0,English,6.0,5.0,4.0,yes,yes,no,Flauta,6,Guitarra,6,Batería,6,,,58.0,yes
33,2024-02-10_09h59.33.855,Unsyncopated_study2,s108,26.0,masculino,right,España,"Català, Castellano",Master degree,no,no,B,1,conjunction_syn,L1,syncopated,s2,r1,33,Online_conjL1_syn//d.ne.ni8.222.444.wav,fo,ne,ni,pu,sil,ri,ze,ki,sil1,ro,sil2,['catch'],[1.2727999999970052],[1.2727999999970052],0.444,no_beat,0.8287999999970053,0.8287999999970053,"[""space""]",ni,4,testWhenL4Uns//cat_viol.r2.s2.0.wav,2.0,when,unsyncopated,b,s2,no_rule,cat,L4,m,0.9018,5.0,0.0,0.7885,3.0,3.0,Català,0.0,Castellano,6.0,English,6.0,5.0,4.0,yes,yes,no,Flauta,6,Guitarra,6,Batería,6,,,58.0,yes
34,2024-02-10_09h59.33.855,Unsyncopated_study2,s108,26.0,masculino,right,España,"Català, Castellano",Master degree,no,no,B,1,conjunction_syn,L1,syncopated,s1,r1,34,Online_conjL1_syn//d.ne.ni11.222.1332.wav,pu,ne,ri,ki,sil,la,ni,cho,sil1,ro,sil2,['catch'],[2.1219000000060078],[2.1219000000060078],1.332,no_beat,0.7899000000060077,0.7899000000060077,"[""space""]",ni,4,testWhenL4Uns//r1.s1.2.wav,2.0,when,unsyncopated,a,s1,rule,rule,L4,m,1.0846,7.0,0.0,0.5681,3.0,3.0,Català,0.0,Castellano,6.0,English,6.0,5.0,4.0,yes,yes,no,Flauta,6,Guitarra,6,Batería,6,,,58.0,yes
35,2024-02-10_09h59.33.855,Unsyncopated_study2,s108,26.0,masculino,right,España,"Català, Castellano",Master degree,no,no,B,1,conjunction_syn,L1,syncopated,s2,r2,35,Online_conjL1_syn//d.ne.ni9.0.444.wav,ne,fo,ni,ta,sil,lu,ri,be,sil1,cho,sil2,['catch'],[1.3397000000029493],[1.3397000000029493],0.444,no_beat,0.8957000000029494,0.8957000000029494,"[""space""]",ni,4,testWhenL4Uns//time_viol.r1.s2.0.wav,2.0,when,unsyncopated,a,s2,no_rule,time,L4,z,0.645,6.0,1.0,0.5487,3.0,3.0,Català,0.0,Castellano,6.0,English,6.0,5.0,4.0,yes,yes,no,Flauta,6,Guitarra,6,Batería,6,,,58.0,yes
36,2024-02-10_09h59.33.855,Unsyncopated_study2,s108,26.0,masculino,right,España,"Català, Castellano",Master degree,no,no,B,1,conjunction_syn,L1,syncopated,s1,r1,36,Online_conjL1_syn//c.ro.fo22.none.none.wav,pu,fa,cho,ki,sil,ne,la,ni,sil1,ze,sil2,['-'],,,none,none,,,,fo,3,testWhenL4Uns//r2.s2.1.wav,2.0,when,unsyncopated,b,s2,rule,rule,L4,m,0.3687,7.0,0.0,0.4691,3.0,3.0,Català,0.0,Castellano,6.0,English,6.0,5.0,4.0,yes,yes,no,Flauta,6,Guitarra,6,Batería,6,,,58.0,yes
37,2024-02-10_09h59.33.855,Unsyncopated_study2,s108,26.0,masculino,right,España,"Català, Castellano",Master degree,no,no,B,1,conjunction_syn,L1,syncopated,s2,r1,37,Online_conjL1_syn//c.ro.fo20.none.none.wav,lu,ne,la,pu,sil,zu,cho,ki,sil1,ni,sil2,['-'],,,none,none,,,,fo,3,testWhenL4Uns//r1.s1.1.wav,2.0,when,unsyncopated,a,s1,rule,rule,L4,m,0.4774,7.0,0.0,0.4374,3.0,3.0,Català,0.0,Castellano,6.0,English,6.0,5.0,4.0,yes,yes,no,Flauta,6,Guitarra,6,Batería,6,,,58.0,yes
38,2024-02-10_09h59.33.855,Unsyncopated_study2,s108,26.0,masculino,right,España,"Català, Castellano",Master degree,no,no,B,1,conjunction_syn,L1,syncopated,s1,r2,38,Online_conjL1_syn//c.ro.fo23.1110.1332.wav,ta,ne,cho,be,sil,ro,fo,zu,sil1,ni,sil2,['catch'],[1.9739999999999327],[1.9739999999999327],1.332,no_beat,0.6419999999999326,0.6419999999999326,"[""space""]",fo,3,testWhenL4Uns//cat_viol.r1.s1.0.wav,2.0,when,unsyncopated,a,s1,no_rule,cat,L4,z,0.5688,6.0,1.0,0.6188,3.0,3.0,Català,0.0,Castellano,6.0,English,6.0,5.0,4.0,yes,yes,no,Flauta,6,Guitarra,6,Batería,6,,,58.0,yes
39,2024-02-10_09h59.33.855,Unsyncopated_study2,s108,26.0,masculino,right,España,"Català, Castellano",Master degree,no,no,B,1,conjunction_syn,L1,syncopated,s2,r2,39,Online_conjL1_syn//c.ro.fo21.none.none.wav,ze,zu,la,ta,sil,ne,cho,be,sil1,ni,sil2,['-'],,,none,none,,,,fo,3,testWhenL4Uns//dep_viol.r2.s1.0.wav,2.0,when,unsyncopated,b,s1,no_rule,dep,L4,m,0.5198,6.0,0.0,0.6186,3.0,3.0,Català,0.0,Castellano,6.0,English,6.0,5.0,4.0,yes,yes,no,Flauta,6,Guitarra,6,Batería,6,,,58.0,yes
40,2024-02-10_09h59.33.855,Unsyncopated_study2,s108,26.0,masculino,right,España,"Català, Castellano",Master degree,no,no,B,1,conjunction_syn,L1,syncopated,s1,r1,40,Online_conjL1_syn//a.pu.ki12.0.666.wav,pu,zu,ni,ki,sil,ne,ro,fo,sil1,cho,sil2,['catch'],[0.7847999999969488],[0.7847999999969488],0.0,beat,0.7847999999969488,0.7847999999969488,"[""space""]",pu,1,testWhenL4Uns//cat_viol.r2.s1.0.wav,2.0,when,unsyncopated,b,s1,no_rule,cat,L4,z,0.2881,7.0,1.0,0.918,3.0,3.0,Català,0.0,Castellano,6.0,English,6.0,5.0,4.0,yes,yes,no,Flauta,6,Guitarra,6,Batería,6,,,58.0,yes
41,2024-02-10_09h59.33.855,Unsyncopated_study2,s108,26.0,masculino,right,España,"Català, Castellano",Master degree,no,no,B,1,conjunction_syn,L1,syncopated,s1,r2,41,Online_conjL1_syn//a.pu.ki15.none.none.wav,ta,fo,ne,be,sil,la,ze,fa,sil1,cho,sil2,['-'],,,none,none,,,,pu,1,testWhenL4Uns//r2.s1.2.wav,2.0,when,unsyncopated,b,s1,rule,rule,L4,z,0.3834,6.0,1.0,1.0238,3.0,3.0,Català,0.0,Castellano,6.0,English,6.0,5.0,4.0,yes,yes,no,Flauta,6,Guitarra,6,Batería,6,,,58.0,yes
42,2024-02-10_09h59.33.855,Unsyncopated_study2,s108,26.0,masculino,right,España,"Català, Castellano",Master degree,no,no,B,1,conjunction_syn,L1,syncopated,s2,r1,42,Online_conjL1_syn//a.pu.ki13.666.1554.wav,fa,ro,ne,pu,sil,fo,lu,ki,sil1,ni,sil2,['catch'],[1.2135000000000673],[1.2135000000000673],0.666,no_beat,0.5475000000000673,0.5475000000000673,"[""space""]",pu,1,testWhenL4Uns//r1.s2.2.wav,2.0,when,unsyncopated,a,s2,rule,rule,L4,m,0.7862,7.0,0.0,0.6345,3.0,3.0,Català,0.0,Castellano,6.0,English,6.0,5.0,4.0,yes,yes,no,Flauta,6,Guitarra,6,Batería,6,,,58.0,yes
43,2024-02-10_09h59.33.855,Unsyncopated_study2,s108,26.0,masculino,right,España,"Català, Castellano",Master degree,no,no,B,1,conjunction_syn,L1,syncopated,s1,r2,43,Online_conjL1_syn//a.pu.ki14.none.none.wav,ta,ri,ze,be,sil,lu,fa,cho,sil1,fo,sil2,['-'],,,none,none,,,,pu,1,testWhenL4Uns//dep_viol.r1.s2.0.wav,2.0,when,unsyncopated,a,s2,no_rule,dep,L4,z,1.0819,6.0,1.0,0.7419,3.0,3.0,Català,0.0,Castellano,6.0,English,6.0,5.0,4.0,yes,yes,no,Flauta,6,Guitarra,6,Batería,6,,,58.0,yes
44,2024-02-10_09h59.33.855,Unsyncopated_study2,s108,26.0,masculino,right,España,"Català, Castellano",Master degree,no,no,B,1,conjunction_syn,L1,syncopated,s1,r2,44,Online_conjL1_syn//d.ne.ni6.444.1110.wav,ta,zu,ne,be,sil,ni,ze,la,sil1,fa,sil2,['catch'],[1.7213000000119791],[1.7213000000119791],1.11,no_beat,0.611300000011979,0.611300000011979,"[""space""]",ni,4,testWhenL4Uns//r2.s2.0.wav,2.0,when,unsyncopated,b,s2,rule,rule,L4,m,0.8193,7.0,0.0,0.5011,3.0,3.0,Català,0.0,Castellano,6.0,English,6.0,5.0,4.0,yes,yes,no,Flauta,6,Guitarra,6,Batería,6,,,58.0,yes
45,2024-02-10_09h59.33.855,Unsyncopated_study2,s108,26.0,masculino,right,España,"Català, Castellano",Master degree,no,no,B,1,conjunction_syn,L1,syncopated,s2,r1,45,Online_conjL1_syn//d.ne.ni5.none.none.wav,zu,ri,ze,pu,sil,cho,fa,ki,sil1,la,sil2,['-'],,,none,none,,,,ni,4,testWhenL4Uns//time_viol.r2.s2.0.wav,2.0,when,unsyncopated,b,s2,no_rule,time,L4,m,0.5675,6.0,0.0,0.4465,3.0,3.0,Català,0.0,Castellano,6.0,English,6.0,5.0,4.0,yes,yes,no,Flauta,6,Guitarra,6,Batería,6,,,58.0,yes
46,2024-02-10_09h59.33.855,Unsyncopated_study2,s108,26.0,masculino,right,España,"Català, Castellano",Master degree,no,no,B,1,conjunction_syn,L1,syncopated,s1,r1,46,Online_conjL1_syn//d.ne.ni4.222.1332.wav,pu,ne,cho,ki,sil,ri,ni,ro,sil1,zu,sil2,['miss'],,,1.332,no_beat,,,,ni,4,testWhenL4Uns//r1.s2.1.wav,2.0,when,unsyncopated,a,s2,rule,rule,L4,m,0.7834,6.0,0.0,0.775,3.0,3.0,Català,0.0,Castellano,6.0,English,6.0,5.0,4.0,yes,yes,no,Flauta,6,Guitarra,6,Batería,6,,,58.0,yes
47,2024-02-10_09h59.33.855,Unsyncopated_study2,s108,26.0,masculino,right,España,"Català, Castellano",Master degree,no,no,B,1,conjunction_syn,L1,syncopated,s1,r1,47,Online_conjL1_syn//d.ne.ni7.444.1110.wav,pu,lu,ne,ki,sil,ni,ri,ze,sil1,zu,sil2,['catch'],[1.664400000006026],[1.664400000006026],1.11,no_beat,0.5544000000060259,0.5544000000060259,"[""space""]",ni,4,testWhenL4Uns//cat_viol.r1.s2.0.wav,2.0,when,unsyncopated,a,s2,no_rule,cat,L4,z,0.5199,7.0,1.0,0.7398,3.0,3.0,Català,0.0,Castellano,6.0,English,6.0,5.0,4.0,yes,yes,no,Flauta,6,Guitarra,6,Batería,6,,,58.0,yes
48,2024-02-10_09h59.33.855,Unsyncopated_study2,s108,26.0,masculino,right,España,"Català, Castellano",Master degree,no,no,B,1,conjunction_syn,L1,syncopated,s1,r2,48,Online_conjL1_syn//a.pu.ki19.none.none.wav,ta,fa,lu,be,sil,ne,fo,ri,sil1,ze,sil2,['-'],,,none,none,,,,pu,1,testConjL2Uns//time_viol.r2.s1.0.wav,3.0,conjunction_un,unsyncopated,b,s1,no_rule,time,L2,z,0.7872,7.0,0.0,0.8922,3.0,3.0,Català,0.0,Castellano,6.0,English,6.0,5.0,4.0,yes,yes,no,Flauta,6,Guitarra,6,Batería,6,,,58.0,yes
49,2024-02-10_09h59.33.855,Unsyncopated_study2,s108,26.0,masculino,right,España,"Català, Castellano",Master degree,no,no,B,1,conjunction_syn,L1,syncopated,s2,r1,49,Online_conjL1_syn//a.pu.ki18.666.1554.wav,lu,ni,ri,pu,sil,ro,fo,ki,sil1,cho,sil2,['catch'],[1.3140000000000782],[1.3140000000000782],0.666,no_beat,0.6480000000000782,0.6480000000000782,"[""space""]",pu,1,testConjL2Uns//dep_viol.r2.s2.0.wav,3.0,conjunction_un,unsyncopated,b,s2,no_rule,dep,L2,m,0.3347,6.0,1.0,0.7004,3.0,3.0,Català,0.0,Castellano,6.0,English,6.0,5.0,4.0,yes,yes,no,Flauta,6,Guitarra,6,Batería,6,,,58.0,yes
50,2024-02-10_09h59.33.855,Unsyncopated_study2,s108,26.0,masculino,right,España,"Català, Castellano",Master degree,no,no,B,1,conjunction_syn,L1,syncopated,s2,r2,50,Online_conjL1_syn//a.pu.ki17.none.none.wav,lu,fa,zu,ta,sil,la,ze,be,sil1,cho,sil2,['-'],,,none,none,,,,pu,1,testConjL2Uns//dep_viol.r1.s2.0.wav,3.0,conjunction_un,unsyncopated,a,s2,no_rule,dep,L2,m,1.0529,5.0,1.0,0.6057,3.0,3.0,Català,0.0,Castellano,6.0,English,6.0,5.0,4.0,yes,yes,no,Flauta,6,Guitarra,6,Batería,6,,,58.0,yes
51,2024-02-10_09h59.33.855,Unsyncopated_study2,s108,26.0,masculino,right,España,"Català, Castellano",Master degree,no,no,B,1,conjunction_syn,L1,syncopated,s2,r2,51,Online_conjL1_syn//a.pu.ki16.none.none.wav,la,ze,fo,ta,sil,zu,lu,be,sil1,ne,sil2,['-'],,,none,none,,,,pu,1,testConjL2Uns//r2.s1.0.wav,3.0,conjunction_un,unsyncopated,b,s1,rule,rule,L2,z,0.3093,7.0,1.0,0.454,3.0,3.0,Català,0.0,Castellano,6.0,English,6.0,5.0,4.0,yes,yes,no,Flauta,6,Guitarra,6,Batería,6,,,58.0,yes
52,2024-02-10_09h59.33.855,Unsyncopated_study2,s108,26.0,masculino,right,España,"Català, Castellano",Master degree,no,no,B,1,conjunction_syn,L1,syncopated,s2,r1,52,Online_conjL1_syn//b.ta.be15.none.none.wav,la,ni,lu,pu,sil,ri,cho,ki,sil1,fa,sil2,['-'],,,none,none,,,,be,2,testConjL2Uns//r1.s2.1.wav,3.0,conjunction_un,unsyncopated,a,s2,rule,rule,L2,z,0.3004,7.0,1.0,0.5186,3.0,3.0,Català,0.0,Castellano,6.0,English,6.0,5.0,4.0,yes,yes,no,Flauta,6,Guitarra,6,Batería,6,,,58.0,yes
53,2024-02-10_09h59.33.855,Unsyncopated_study2,s108,26.0,masculino,right,España,"Català, Castellano",Master degree,no,no,B,1,conjunction_syn,L1,syncopated,s1,r2,53,Online_conjL1_syn//b.ta.be13.0.666.wav,ta,ni,fo,be,sil,ze,ne,fa,sil1,ri,sil2,['catch'],[1.3213999999909447],[1.3213999999909447],0.666,no_beat,0.6553999999909447,0.6553999999909447,"[""space""]",be,2,testConjL2Uns//dep_viol.r2.s1.0.wav,3.0,conjunction_un,unsyncopated,b,s1,no_rule,dep,L2,z,0.5695,6.0,0.0,0.3346,3.0,3.0,Català,0.0,Castellano,6.0,English,6.0,5.0,4.0,yes,yes,no,Flauta,6,Guitarra,6,Batería,6,,,58.0,yes
54,2024-02-10_09h59.33.855,Unsyncopated_study2,s108,26.0,masculino,right,España,"Català, Castellano",Master degree,no,no,B,1,conjunction_syn,L1,syncopated,s1,r1,54,Online_conjL1_syn//b.ta.be12.none.none.wav,pu,ro,lu,ki,sil,ri,fa,ni,sil1,cho,sil2,['-'],,,none,none,,,,be,2,testConjL2Uns//r2.s2.2.wav,3.0,conjunction_un,unsyncopated,b,s2,rule,rule,L2,m,0.2563,6.0,0.0,0.8685,3.0,3.0,Català,0.0,Castellano,6.0,English,6.0,5.0,4.0,yes,yes,no,Flauta,6,Guitarra,6,Batería,6,,,58.0,yes
55,2024-02-10_09h59.33.855,Unsyncopated_study2,s108,26.0,masculino,right,España,"Català, Castellano",Master degree,no,no,B,1,conjunction_syn,L1,syncopated,s1,r2,55,Online_conjL1_syn//b.ta.be14.0.666.wav,ta,la,fa,be,sil,ni,fo,ro,sil1,lu,sil2,['catch'],[1.2542999999968742],[1.2542999999968742],0.666,no_beat,0.5882999999968742,0.5882999999968742,"[""space""]",be,2,testConjL2Uns//r1.s2.0.wav,3.0,conjunction_un,unsyncopated,a,s2,rule,rule,L2,m,1.4083,6.0,0.0,0.3544,3.0,3.0,Català,0.0,Castellano,6.0,English,6.0,5.0,4.0,yes,yes,no,Flauta,6,Guitarra,6,Batería,6,,,58.0,yes
56,2024-02-10_09h59.33.855,Unsyncopated_study2,s108,26.0,masculino,right,España,"Català, Castellano",Master degree,no,no,B,1,conjunction_syn,L1,syncopated,s2,r2,56,Online_conjL1_syn//d.ne.ni24.none.none.wav,lu,ro,la,ta,sil,fa,fo,be,sil1,zu,sil2,['-'],,,none,none,,,,ni,4,testConjL2Uns//r2.s2.0.wav,3.0,conjunction_un,unsyncopated,b,s2,rule,rule,L2,z,0.9746,7.0,1.0,0.5925,3.0,3.0,Català,0.0,Castellano,6.0,English,6.0,5.0,4.0,yes,yes,no,Flauta,6,Guitarra,6,Batería,6,,,58.0,yes
57,2024-02-10_09h59.33.855,Unsyncopated_study2,s108,26.0,masculino,right,España,"Català, Castellano",Master degree,no,no,B,1,conjunction_syn,L1,syncopated,s1,r2,57,Online_conjL1_syn//d.ne.ni27.none.none.wav,ta,la,fo,be,sil,zu,cho,ze,sil1,ri,sil2,['-'],,,none,none,,,,ni,4,testConjL2Uns//r2.s1.2.wav,3.0,conjunction_un,unsyncopated,b,s1,rule,rule,L2,z,0.301,7.0,1.0,0.4384,3.0,3.0,Català,0.0,Castellano,6.0,English,6.0,5.0,4.0,yes,yes,no,Flauta,6,Guitarra,6,Batería,6,,,58.0,yes
58,2024-02-10_09h59.33.855,Unsyncopated_study2,s108,26.0,masculino,right,España,"Català, Castellano",Master degree,no,no,B,1,conjunction_syn,L1,syncopated,s2,r1,58,Online_conjL1_syn//d.ne.ni26.none.none.wav,ze,zu,fa,pu,sil,cho,lu,ki,sil1,fo,sil2,['-'],,,none,none,,,,ni,4,testConjL2Uns//cat_viol.r2.s1.0.wav,3.0,conjunction_un,unsyncopated,b,s1,no_rule,cat,L2,z,0.2993,7.0,0.0,0.2357,3.0,3.0,Català,0.0,Castellano,6.0,English,6.0,5.0,4.0,yes,yes,no,Flauta,6,Guitarra,6,Batería,6,,,58.0,yes
59,2024-02-10_09h59.33.855,Unsyncopated_study2,s108,26.0,masculino,right,España,"Català, Castellano",Master degree,no,no,B,1,conjunction_syn,L1,syncopated,s1,r2,59,Online_conjL1_syn//d.ne.ni25.222.1110.wav,ta,ne,ze,be,sil,ni,cho,la,sil1,lu,sil2,['catch'],[1.721100000008846],[1.721100000008846],1.11,no_beat,0.611100000008846,0.611100000008846,"[""space""]",ni,4,testConjL2Uns//cat_viol.r1.s1.0.wav,3.0,conjunction_un,unsyncopated,a,s1,no_rule,cat,L2,z,0.6279,7.0,0.0,0.3336,3.0,3.0,Català,0.0,Castellano,6.0,English,6.0,5.0,4.0,yes,yes,no,Flauta,6,Guitarra,6,Batería,6,,,58.0,yes
60,2024-02-10_09h59.33.855,Unsyncopated_study2,s108,26.0,masculino,right,España,"Català, Castellano",Master degree,no,no,B,1,conjunction_syn,L1,syncopated,s2,r2,60,Online_conjL1_syn//d.ne.ni22.1110.0.wav,ni,ze,lu,ta,sil,ne,cho,be,sil1,zu,sil2,['miss'],,,0.0,beat,,,,ni,4,testConjL2Uns//time_viol.r1.s1.0.wav,3.0,conjunction_un,unsyncopated,a,s1,no_rule,time,L2,m,0.126,5.0,1.0,0.7786,3.0,3.0,Català,0.0,Castellano,6.0,English,6.0,5.0,4.0,yes,yes,no,Flauta,6,Guitarra,6,Batería,6,,,58.0,yes
61,2024-02-10_09h59.33.855,Unsyncopated_study2,s108,26.0,masculino,right,España,"Català, Castellano",Master degree,no,no,B,1,conjunction_syn,L1,syncopated,s2,r1,61,Online_conjL1_syn//d.ne.ni23.0.444.wav,ne,fo,ni,pu,sil,ri,fa,ki,sil1,lu,sil2,['miss'],,,0.444,no_beat,,,,ni,4,testConjL2Uns//r2.s2.1.wav,3.0,conjunction_un,unsyncopated,b,s2,rule,rule,L2,z,0.1015,7.0,1.0,0.3006,3.0,3.0,Català,0.0,Castellano,6.0,English,6.0,5.0,4.0,yes,yes,no,Flauta,6,Guitarra,6,Batería,6,,,58.0,yes
62,2024-02-10_09h59.33.855,Unsyncopated_study2,s108,26.0,masculino,right,España,"Català, Castellano",Master degree,no,no,B,1,conjunction_syn,L1,syncopated,s2,r2,62,Online_conjL1_syn//d.ne.ni20.none.none.wav,ze,lu,ro,ta,sil,fa,ri,be,sil1,cho,sil2,['-'],,,none,none,,,,ni,4,testConjL2Uns//cat_viol.r1.s2.0.wav,3.0,conjunction_un,unsyncopated,a,s2,no_rule,cat,L2,m,0.6846,5.0,1.0,0.3861,3.0,3.0,Català,0.0,Castellano,6.0,English,6.0,5.0,4.0,yes,yes,no,Flauta,6,Guitarra,6,Batería,6,,,58.0,yes
63,2024-02-10_09h59.33.855,Unsyncopated_study2,s108,26.0,masculino,right,España,"Català, Castellano",Master degree,no,no,B,1,conjunction_syn,L1,syncopated,s1,r1,63,Online_conjL1_syn//d.ne.ni21.none.none.wav,pu,lu,fo,ki,sil,ze,cho,ro,sil1,zu,sil2,['-'],,,none,none,,,,ni,4,testConjL2Uns//cat_viol.r2.s2.0.wav,3.0,conjunction_un,unsyncopated,b,s2,no_rule,cat,L2,z,0.9194,6.0,0.0,0.3189,3.0,3.0,Català,0.0,Castellano,6.0,English,6.0,5.0,4.0,yes,yes,no,Flauta,6,Guitarra,6,Batería,6,,,58.0,yes
64,2024-02-10_09h59.33.855,Unsyncopated_study2,s108,26.0,masculino,right,España,"Català, Castellano",Master degree,no,no,B,1,conjunction_syn,L1,syncopated,s2,r2,64,Online_conjL1_syn//d.ne.ni30.222.1110.wav,fa,ne,lu,ta,sil,ni,ri,be,sil1,ze,sil2,['catch'],[1.7483999999910793],[1.7483999999910793],1.11,no_beat,0.6383999999910792,0.6383999999910792,"[""space""]",ni,4,testConjL2Uns//r1.s1.2.wav,3.0,conjunction_un,unsyncopated,a,s1,rule,rule,L2,m,0.235,5.0,0.0,0.4125,3.0,3.0,Català,0.0,Castellano,6.0,English,6.0,5.0,4.0,yes,yes,no,Flauta,6,Guitarra,6,Batería,6,,,58.0,yes
65,2024-02-10_09h59.33.855,Unsyncopated_study2,s108,26.0,masculino,right,España,"Català, Castellano",Master degree,no,no,B,1,conjunction_syn,L1,syncopated,s1,r2,65,Online_conjL1_syn//d.ne.ni28.none.none.wav,ta,lu,zu,be,sil,fa,la,ro,sil1,ri,sil2,['-'],,,none,none,,,,ni,4,testConjL2Uns//r2.s1.1.wav,3.0,conjunction_un,unsyncopated,b,s1,rule,rule,L2,z,0.1322,7.0,1.0,0.351,3.0,3.0,Català,0.0,Castellano,6.0,English,6.0,5.0,4.0,yes,yes,no,Flauta,6,Guitarra,6,Batería,6,,,58.0,yes
66,2024-02-10_09h59.33.855,Unsyncopated_study2,s108,26.0,masculino,right,España,"Català, Castellano",Master degree,no,no,B,1,conjunction_syn,L1,syncopated,s2,r1,66,Online_conjL1_syn//d.ne.ni31.0.1110.wav,ne,zu,fa,pu,sil,ni,lu,ki,sil1,ro,sil2,['catch'],[1.8889000000058331],[1.8889000000058331],1.11,no_beat,0.778900000005833,0.778900000005833,"[""space""]",ni,4,testConjL2Uns//time_viol.r1.s2.0.wav,3.0,conjunction_un,unsyncopated,a,s2,no_rule,time,L2,m,0.7865,5.0,1.0,0.6691,3.0,3.0,Català,0.0,Castellano,6.0,English,6.0,5.0,4.0,yes,yes,no,Flauta,6,Guitarra,6,Batería,6,,,58.0,yes
67,2024-02-10_09h59.33.855,Unsyncopated_study2,s108,26.0,masculino,right,España,"Català, Castellano",Master degree,no,no,B,1,conjunction_syn,L1,syncopated,s2,r2,67,Online_conjL1_syn//d.ne.ni29.0.444.wav,ne,fa,ni,ta,sil,ri,zu,be,sil1,lu,sil2,['catch'],[1.1953000000119118],[1.1953000000119118],0.444,no_beat,0.7513000000119119,0.7513000000119119,"[""space""]",ni,4,testConjL2Uns//time_viol.r2.s2.0.wav,3.0,conjunction_un,unsyncopated,b,s2,no_rule,time,L2,m,1.8396,6.0,1.0,0.7534,3.0,3.0,Català,0.0,Castellano,6.0,English,6.0,5.0,4.0,yes,yes,no,Flauta,6,Guitarra,6,Batería,6,,,58.0,yes
68,2024-02-10_09h59.33.855,Unsyncopated_study2,s108,26.0,masculino,right,España,"Català, Castellano",Master degree,no,no,B,1,conjunction_syn,L1,syncopated,s1,r1,68,Online_conjL1_syn//c.ro.fo7.none.none.wav,pu,zu,la,ki,sil,ze,ne,lu,sil1,ri,sil2,['-'],,,none,none,,,,fo,3,testConjL2Uns//r1.s1.1.wav,3.0,conjunction_un,unsyncopated,a,s1,rule,rule,L2,m,0.5529,6.0,0.0,0.7622,3.0,3.0,Català,0.0,Castellano,6.0,English,6.0,5.0,4.0,yes,yes,no,Flauta,6,Guitarra,6,Batería,6,,,58.0,yes
69,2024-02-10_09h59.33.855,Unsyncopated_study2,s108,26.0,masculino,right,España,"Català, Castellano",Master degree,no,no,B,1,conjunction_syn,L1,syncopated,s2,r1,69,Online_conjL1_syn//c.ro.fo5.1332.0.wav,fo,zu,cho,pu,sil,ni,ro,ki,sil1,fa,sil2,['catch'],[0.831399999991163],[0.831399999991163],0.0,beat,0.831399999991163,0.831399999991163,"[""space""]",fo,3,testConjL2Uns//r1.s1.0.wav,3.0,conjunction_un,unsyncopated,a,s1,rule,rule,L2,m,2.1547,6.0,0.0,0.4689,3.0,3.0,Català,0.0,Castellano,6.0,English,6.0,5.0,4.0,yes,yes,no,Flauta,6,Guitarra,6,Batería,6,,,58.0,yes
70,2024-02-10_09h59.33.855,Unsyncopated_study2,s108,26.0,masculino,right,España,"Català, Castellano",Master degree,no,no,B,1,conjunction_syn,L1,syncopated,s1,r2,70,Online_conjL1_syn//c.ro.fo6.none.none.wav,ta,fa,ni,be,sil,la,ne,cho,sil1,ze,sil2,['-'],,,none,none,,,,fo,3,testConjL2Uns//r1.s2.2.wav,3.0,conjunction_un,unsyncopated,a,s2,rule,rule,L2,m,1.1695,6.0,0.0,0.7014,3.0,3.0,Català,0.0,Castellano,6.0,English,6.0,5.0,4.0,yes,yes,no,Flauta,6,Guitarra,6,Batería,6,,,58.0,yes
71,2024-02-10_09h59.33.855,Unsyncopated_study2,s108,26.0,masculino,right,España,"Català, Castellano",Master degree,no,no,B,1,conjunction_syn,L1,syncopated,s1,r2,71,Online_conjL1_syn//c.ro.fo4.444.1110.wav,ta,ze,ro,be,sil,fo,ni,cho,sil1,zu,sil2,['catch'],[1.871600000009039],[1.871600000009039],1.11,no_beat,0.7616000000090388,0.7616000000090388,"[""space""]",fo,3,testConjL2Uns//dep_viol.r1.s1.0.wav,3.0,conjunction_un,unsyncopated,a,s1,no_rule,dep,L2,z,2.9349,7.0,0.0,0.5728,3.0,3.0,Català,0.0,Castellano,6.0,English,6.0,5.0,4.0,yes,yes,no,Flauta,6,Guitarra,6,Batería,6,,,58.0,yes
72,2024-02-10_09h59.33.855,Unsyncopated_study2,s108,26.0,masculino,right,España,"Català, Castellano",Master degree,no,no,B,1,conjunction_syn,L1,syncopated,s2,r2,72,Online_conjL1_syn//b.ta.be19.666.1554.wav,fa,la,ni,ta,sil,cho,ne,be,sil1,ri,sil2,['catch'],[2.2333999999912066],[2.2333999999912066],1.554,no_beat,0.6793999999912066,0.6793999999912066,"[""space""]",be,2,testWhatL3Uns//r1.s2.2.wav,4.0,what,unsyncopated,a,s2,rule,rule,L3,z,0.2923,7.0,1.0,0.3717,3.0,3.0,Català,0.0,Castellano,6.0,English,6.0,5.0,4.0,yes,yes,no,Flauta,6,Guitarra,6,Batería,6,,,58.0,yes
73,2024-02-10_09h59.33.855,Unsyncopated_study2,s108,26.0,masculino,right,España,"Català, Castellano",Master degree,no,no,B,1,conjunction_syn,L1,syncopated,s1,r1,73,Online_conjL1_syn//b.ta.be18.none.none.wav,pu,ni,zu,ki,sil,ne,la,ze,sil1,cho,sil2,['-'],,,none,none,,,,be,2,testWhatL3Uns//dep_viol.r2.s1.0.wav,4.0,what,unsyncopated,b,s1,no_rule,dep,L3,m,0.1013,6.0,1.0,0.3006,3.0,3.0,Català,0.0,Castellano,6.0,English,6.0,5.0,4.0,yes,yes,no,Flauta,6,Guitarra,6,Batería,6,,,58.0,yes
74,2024-02-10_09h59.33.855,Unsyncopated_study2,s108,26.0,masculino,right,España,"Català, Castellano",Master degree,no,no,B,1,conjunction_syn,L1,syncopated,s2,r2,74,Online_conjL1_syn//b.ta.be16.666.1554.wav,ro,ne,lu,ta,sil,la,ri,be,sil1,fo,sil2,['catch'],[2.288400000005822],[2.288400000005822],1.554,no_beat,0.7344000000058222,0.7344000000058222,"[""space""]",be,2,testWhatL3Uns//r1.s2.0.wav,4.0,what,unsyncopated,a,s2,rule,rule,L3,z,0.2534,7.0,1.0,0.2372,3.0,3.0,Català,0.0,Castellano,6.0,English,6.0,5.0,4.0,yes,yes,no,Flauta,6,Guitarra,6,Batería,6,,,58.0,yes
75,2024-02-10_09h59.33.855,Unsyncopated_study2,s108,26.0,masculino,right,España,"Català, Castellano",Master degree,no,no,B,1,conjunction_syn,L1,syncopated,s2,r1,75,Online_conjL1_syn//b.ta.be17.none.none.wav,zu,lu,ze,pu,sil,la,cho,ki,sil1,fa,sil2,['-'],,,none,none,,,,be,2,testWhatL3Uns//dep_viol.r2.s2.0.wav,4.0,what,unsyncopated,b,s2,no_rule,dep,L3,z,0.3723,7.0,0.0,0.4752,3.0,3.0,Català,0.0,Castellano,6.0,English,6.0,5.0,4.0,yes,yes,no,Flauta,6,Guitarra,6,Batería,6,,,58.0,yes
76,2024-02-10_09h59.33.855,Unsyncopated_study2,s108,26.0,masculino,right,España,"Català, Castellano",Master degree,no,no,B,1,conjunction_syn,L1,syncopated,s1,r1,76,Online_conjL1_syn//b.ta.be23.none.none.wav,pu,cho,ze,ki,sil,ne,la,ri,sil1,fa,sil2,['-'],,,none,none,,,,be,2,testWhatL3Uns//time_viol.r2.s1.0.wav,4.0,what,unsyncopated,b,s1,no_rule,time,L3,m,0.3848,5.0,1.0,0.42,3.0,3.0,Català,0.0,Castellano,6.0,English,6.0,5.0,4.0,yes,yes,no,Flauta,6,Guitarra,6,Batería,6,,,58.0,yes
77,2024-02-10_09h59.33.855,Unsyncopated_study2,s108,26.0,masculino,right,España,"Català, Castellano",Master degree,no,no,B,1,conjunction_syn,L1,syncopated,s2,r1,77,Online_conjL1_syn//b.ta.be22.none.none.wav,zu,la,cho,pu,sil,ne,ri,ki,sil1,fa,sil2,['-'],,,none,none,,,,be,2,testWhatL3Uns//r1.s1.2.wav,4.0,what,unsyncopated,a,s1,rule,rule,L3,m,0.5035,6.0,0.0,0.29,3.0,3.0,Català,0.0,Castellano,6.0,English,6.0,5.0,4.0,yes,yes,no,Flauta,6,Guitarra,6,Batería,6,,,58.0,yes
78,2024-02-10_09h59.33.855,Unsyncopated_study2,s108,26.0,masculino,right,España,"Català, Castellano",Master degree,no,no,B,1,conjunction_syn,L1,syncopated,s2,r1,78,Online_conjL1_syn//b.ta.be21.none.none.wav,ri,ro,fa,pu,sil,ni,cho,ki,sil1,ze,sil2,['-'],,,none,none,,,,be,2,testWhatL3Uns//r1.s1.1.wav,4.0,what,unsyncopated,a,s1,rule,rule,L3,m,0.4023,6.0,0.0,0.3686,3.0,3.0,Català,0.0,Castellano,6.0,English,6.0,5.0,4.0,yes,yes,no,Flauta,6,Guitarra,6,Batería,6,,,58.0,yes
79,2024-02-10_09h59.33.855,Unsyncopated_study2,s108,26.0,masculino,right,España,"Català, Castellano",Master degree,no,no,B,1,conjunction_syn,L1,syncopated,s1,r1,79,Online_conjL1_syn//b.ta.be20.none.none.wav,pu,lu,ze,ki,sil,ro,la,zu,sil1,fo,sil2,['-'],,,none,none,,,,be,2,testWhatL3Uns//cat_viol.r2.s2.0.wav,4.0,what,unsyncopated,b,s2,no_rule,cat,L3,m,0.4368,6.0,1.0,0.3352,3.0,3.0,Català,0.0,Castellano,6.0,English,6.0,5.0,4.0,yes,yes,no,Flauta,6,Guitarra,6,Batería,6,,,58.0,yes
80,2024-02-10_09h59.33.855,Unsyncopated_study2,s108,26.0,masculino,right,España,"Català, Castellano",Master degree,no,no,B,1,conjunction_syn,L1,syncopated,s1,r1,80,Online_conjL1_syn//b.ta.be4.none.none.wav,pu,la,fo,ki,sil,cho,ze,lu,sil1,ri,sil2,['-'],,,none,none,,,,be,2,testWhatL3Uns//r2.s1.2.wav,4.0,what,unsyncopated,b,s1,rule,rule,L3,m,0.4548,6.0,0.0,0.3219,3.0,3.0,Català,0.0,Castellano,6.0,English,6.0,5.0,4.0,yes,yes,no,Flauta,6,Guitarra,6,Batería,6,,,58.0,yes
81,2024-02-10_09h59.33.855,Unsyncopated_study2,s108,26.0,masculino,right,España,"Català, Castellano",Master degree,no,no,B,1,conjunction_syn,L1,syncopated,s1,r1,81,Online_conjL1_syn//b.ta.be6.none.none.wav,pu,cho,fo,ki,sil,ni,ro,ri,sil1,lu,sil2,['-'],,,none,none,,,,be,2,testWhatL3Uns//cat_viol.r1.s2.0.wav,4.0,what,unsyncopated,a,s2,no_rule,cat,L3,z,0.1339,7.0,0.0,0.4365,3.0,3.0,Català,0.0,Castellano,6.0,English,6.0,5.0,4.0,yes,yes,no,Flauta,6,Guitarra,6,Batería,6,,,58.0,yes
82,2024-02-10_09h59.33.855,Unsyncopated_study2,s108,26.0,masculino,right,España,"Català, Castellano",Master degree,no,no,B,1,conjunction_syn,L1,syncopated,s2,r1,82,Online_conjL1_syn//b.ta.be5.none.none.wav,la,ro,cho,pu,sil,fa,ne,ki,sil1,ze,sil2,['-'],,,none,none,,,,be,2,testWhatL3Uns//r2.s2.1.wav,4.0,what,unsyncopated,b,s2,rule,rule,L3,z,0.3941,6.0,1.0,0.2206,3.0,3.0,Català,0.0,Castellano,6.0,English,6.0,5.0,4.0,yes,yes,no,Flauta,6,Guitarra,6,Batería,6,,,58.0,yes
83,2024-02-10_09h59.33.855,Unsyncopated_study2,s108,26.0,masculino,right,España,"Català, Castellano",Master degree,no,no,B,1,conjunction_syn,L1,syncopated,s2,r1,83,Online_conjL1_syn//b.ta.be7.none.none.wav,fa,ne,lu,pu,sil,zu,fo,ki,sil1,cho,sil2,['-'],,,none,none,,,,be,2,testWhatL3Uns//dep_viol.r1.s2.0.wav,4.0,what,unsyncopated,a,s2,no_rule,dep,L3,m,0.538,6.0,1.0,0.4182,3.0,3.0,Català,0.0,Castellano,6.0,English,6.0,5.0,4.0,yes,yes,no,Flauta,6,Guitarra,6,Batería,6,,,58.0,yes
84,2024-02-10_09h59.33.855,Unsyncopated_study2,s108,26.0,masculino,right,España,"Català, Castellano",Master degree,no,no,B,1,conjunction_syn,L1,syncopated,s1,r2,84,Online_conjL1_syn//a.pu.ki0.none.none.wav,ta,la,ni,be,sil,fa,lu,ro,sil1,fo,sil2,['false alarm'],[0.4911999999881118],[0.4911999999881118],none,none,,,"[""space""]",pu,1,testWhatL3Uns//r2.s1.0.wav,4.0,what,unsyncopated,b,s1,rule,rule,L3,z,0.3331,7.0,1.0,0.3879,3.0,3.0,Català,0.0,Castellano,6.0,English,6.0,5.0,4.0,yes,yes,no,Flauta,6,Guitarra,6,Batería,6,,,58.0,yes
85,2024-02-10_09h59.33.855,Unsyncopated_study2,s108,26.0,masculino,right,España,"Català, Castellano",Master degree,no,no,B,1,conjunction_syn,L1,syncopated,s2,r1,85,Online_conjL1_syn//a.pu.ki1.666.1554.wav,ni,fo,fa,pu,sil,zu,lu,ki,sil1,ne,sil2,['catch'],[1.3312000000030366],[1.3312000000030366],0.666,no_beat,0.6652000000030366,0.6652000000030366,"[""space""]",pu,1,testWhatL3Uns//cat_viol.r1.s1.0.wav,4.0,what,unsyncopated,a,s1,no_rule,cat,L3,z,0.3015,6.0,0.0,0.2845,3.0,3.0,Català,0.0,Castellano,6.0,English,6.0,5.0,4.0,yes,yes,no,Flauta,6,Guitarra,6,Batería,6,,,58.0,yes
86,2024-02-10_09h59.33.855,Unsyncopated_study2,s108,26.0,masculino,right,España,"Català, Castellano",Master degree,no,no,B,1,conjunction_syn,L1,syncopated,s1,r1,86,Online_conjL1_syn//a.pu.ki3.0.666.wav,pu,zu,la,ki,sil,fa,cho,ri,sil1,ro,sil2,['miss'],,,0.0,beat,,,,pu,1,testWhatL3Uns//cat_viol.r2.s1.0.wav,4.0,what,unsyncopated,b,s1,no_rule,cat,L3,z,0.2716,5.0,0.0,0.5326,3.0,3.0,Català,0.0,Castellano,6.0,English,6.0,5.0,4.0,yes,yes,no,Flauta,6,Guitarra,6,Batería,6,,,58.0,yes
87,2024-02-10_09h59.33.855,Unsyncopated_study2,s108,26.0,masculino,right,España,"Català, Castellano",Master degree,no,no,B,1,conjunction_syn,L1,syncopated,s2,r2,87,Online_conjL1_syn//a.pu.ki2.none.none.wav,ne,ro,ri,ta,sil,fa,ze,be,sil1,la,sil2,['-'],,,none,none,,,,pu,1,testWhatL3Uns//r2.s1.1.wav,4.0,what,unsyncopated,b,s1,rule,rule,L3,m,0.6838,6.0,0.0,0.3675,3.0,3.0,Català,0.0,Castellano,6.0,English,6.0,5.0,4.0,yes,yes,no,Flauta,6,Guitarra,6,Batería,6,,,58.0,yes
88,2024-02-10_09h59.33.855,Unsyncopated_study2,s108,26.0,masculino,right,España,"Català, Castellano",Master degree,no,no,B,1,conjunction_syn,L1,syncopated,s1,r1,88,Online_conjL1_syn//a.pu.ki10.0.666.wav,pu,ro,cho,ki,sil,zu,la,fa,sil1,ne,sil2,['catch'],[0.7243000000119082],[0.7243000000119082],0.0,beat,0.7243000000119082,0.7243000000119082,"[""space""]",pu,1,testWhatL3Uns//r1.s2.1.wav,4.0,what,unsyncopated,a,s2,rule,rule,L3,z,0.3166,5.0,1.0,0.4829,3.0,3.0,Català,0.0,Castellano,6.0,English,6.0,5.0,4.0,yes,yes,no,Flauta,6,Guitarra,6,Batería,6,,,58.0,yes
89,2024-02-10_09h59.33.855,Unsyncopated_study2,s108,26.0,masculino,right,España,"Català, Castellano",Master degree,no,no,B,1,conjunction_syn,L1,syncopated,s2,r2,89,Online_conjL1_syn//a.pu.ki9.none.none.wav,fa,ne,cho,ta,sil,ni,zu,be,sil1,lu,sil2,['-'],,,none,none,,,,pu,1,testWhatL3Uns//time_viol.r2.s2.0.wav,4.0,what,unsyncopated,b,s2,no_rule,time,L3,z,0.1678,6.0,0.0,0.6575,3.0,3.0,Català,0.0,Castellano,6.0,English,6.0,5.0,4.0,yes,yes,no,Flauta,6,Guitarra,6,Batería,6,,,58.0,yes
90,2024-02-10_09h59.33.855,Unsyncopated_study2,s108,26.0,masculino,right,España,"Català, Castellano",Master degree,no,no,B,1,conjunction_syn,L1,syncopated,s1,r1,90,Online_conjL1_syn//a.pu.ki8.0.666.wav,pu,ze,ni,ki,sil,ne,ro,ri,sil1,fa,sil2,['catch'],[0.8815999999940232],[0.8815999999940232],0.0,beat,0.8815999999940232,0.8815999999940232,"[""space""]",pu,1,testWhatL3Uns//r1.s1.0.wav,4.0,what,unsyncopated,a,s1,rule,rule,L3,z,0.3656,6.0,1.0,0.4888,3.0,3.0,Català,0.0,Castellano,6.0,English,6.0,5.0,4.0,yes,yes,no,Flauta,6,Guitarra,6,Batería,6,,,58.0,yes
91,2024-02-10_09h59.33.855,Unsyncopated_study2,s108,26.0,masculino,right,España,"Català, Castellano",Master degree,no,no,B,1,conjunction_syn,L1,syncopated,s1,r1,91,Online_conjL1_syn//a.pu.ki11.0.666.wav,pu,fa,ri,ki,sil,lu,cho,zu,sil1,ni,sil2,['catch'],[0.9649999999999181],[0.9649999999999181],0.0,beat,0.964999999999918,0.964999999999918,"[""space""]",pu,1,testWhatL3Uns//r2.s2.2.wav,4.0,what,unsyncopated,b,s2,rule,rule,L3,m,0.1695,5.0,0.0,0.7752,3.0,3.0,Català,0.0,Castellano,6.0,English,6.0,5.0,4.0,yes,yes,no,Flauta,6,Guitarra,6,Batería,6,,,58.0,yes
92,2024-02-10_09h59.33.855,Unsyncopated_study2,s108,26.0,masculino,right,España,"Català, Castellano",Master degree,no,no,B,1,conjunction_syn,L1,syncopated,s1,r2,92,Online_conjL1_syn//c.ro.fo1.none.none.wav,ta,ni,lu,be,sil,zu,ze,fa,sil1,la,sil2,['-'],,,none,none,,,,fo,3,testWhatL3Uns//r2.s2.0.wav,4.0,what,unsyncopated,b,s2,rule,rule,L3,z,0.0518,6.0,1.0,0.8045,3.0,3.0,Català,0.0,Castellano,6.0,English,6.0,5.0,4.0,yes,yes,no,Flauta,6,Guitarra,6,Batería,6,,,58.0,yes
93,2024-02-10_09h59.33.855,Unsyncopated_study2,s108,26.0,masculino,right,España,"Català, Castellano",Master degree,no,no,B,1,conjunction_syn,L1,syncopated,s2,r1,93,Online_conjL1_syn//c.ro.fo0.444.1110.wav,fa,la,ro,pu,sil,fo,lu,ki,sil1,ze,sil2,['catch'],[2.6489999999998872],[2.6489999999998872],1.11,no_beat,,1.5389999999998871,"[""space""]",fo,3,testWhatL3Uns//time_viol.r1.s2.0.wav,4.0,what,unsyncopated,a,s2,no_rule,time,L3,z,0.1514,6.0,0.0,0.5421,3.0,3.0,Català,0.0,Castellano,6.0,English,6.0,5.0,4.0,yes,yes,no,Flauta,6,Guitarra,6,Batería,6,,,58.0,yes
94,2024-02-10_09h59.33.855,Unsyncopated_study2,s108,26.0,masculino,right,España,"Català, Castellano",Master degree,no,no,B,1,conjunction_syn,L1,syncopated,s2,r1,94,Online_conjL1_syn//c.ro.fo3.none.none.wav,lu,ni,ze,pu,sil,ne,ri,ki,sil1,cho,sil2,['-'],,,none,none,,,,fo,3,testWhatL3Uns//time_viol.r1.s1.0.wav,4.0,what,unsyncopated,a,s1,no_rule,time,L3,z,0.5699,6.0,0.0,0.3721,3.0,3.0,Català,0.0,Castellano,6.0,English,6.0,5.0,4.0,yes,yes,no,Flauta,6,Guitarra,6,Batería,6,,,58.0,yes
95,2024-02-10_09h59.33.855,Unsyncopated_study2,s108,26.0,masculino,right,España,"Català, Castellano",Master degree,no,no,B,1,conjunction_syn,L1,syncopated,s1,r2,95,Online_conjL1_syn//c.ro.fo2.none.none.wav,ta,ze,ni,be,sil,zu,cho,lu,sil1,la,sil2,['-'],,,none,none,,,,fo,3,testWhatL3Uns//dep_viol.r1.s1.0.wav,4.0,what,unsyncopated,a,s1,no_rule,dep,L3,m,0.3123,7.0,1.0,0.3936,3.0,3.0,Català,0.0,Castellano,6.0,English,6.0,5.0,4.0,yes,yes,no,Flauta,6,Guitarra,6,Batería,6,,,58.0,yes
96,2024-02-10_09h59.33.855,Unsyncopated_study2,s108,26.0,masculino,right,España,"Català, Castellano",Master degree,no,no,B,1,conjunction_syn,L1,syncopated,s2,r2,96,Online_conjL1_syn//b.ta.be24.666.1554.wav,fo,ni,ro,ta,sil,ri,cho,be,sil1,ne,sil2,['miss'],,,1.554,no_beat,,,,be,2,,,,,,,,,,,,,,,3.0,3.0,Català,0.0,Castellano,6.0,English,6.0,5.0,4.0,yes,yes,no,Flauta,6,Guitarra,6,Batería,6,,,58.0,yes
97,2024-02-10_09h59.33.855,Unsyncopated_study2,s108,26.0,masculino,right,España,"Català, Castellano",Master degree,no,no,B,1,conjunction_syn,L1,syncopated,s1,r1,97,Online_conjL1_syn//b.ta.be27.none.none.wav,pu,ze,lu,ki,sil,ro,fo,ni,sil1,ri,sil2,['false alarm'],[0.16570000000297114],[0.16570000000297114],none,none,,,"[""space""]",be,2,,,,,,,,,,,,,,,3.0,3.0,Català,0.0,Castellano,6.0,English,6.0,5.0,4.0,yes,yes,no,Flauta,6,Guitarra,6,Batería,6,,,58.0,yes
98,2024-02-10_09h59.33.855,Unsyncopated_study2,s108,26.0,masculino,right,España,"Català, Castellano",Master degree,no,no,B,1,conjunction_syn,L1,syncopated,s1,r2,98,Online_conjL1_syn//b.ta.be25.0.666.wav,ta,ri,ze,be,sil,ni,cho,lu,sil1,ne,sil2,['catch'],[1.2829999999999018],[1.2829999999999018],0.666,no_beat,0.6169999999999017,0.6169999999999017,"[""space""]",be,2,,,,,,,,,,,,,,,3.0,3.0,Català,0.0,Castellano,6.0,English,6.0,5.0,4.0,yes,yes,no,Flauta,6,Guitarra,6,Batería,6,,,58.0,yes
99,2024-02-10_09h59.33.855,Unsyncopated_study2,s108,26.0,masculino,right,España,"Català, Castellano",Master degree,no,no,B,1,conjunction_syn,L1,syncopated,s2,r2,99,Online_conjL1_syn//b.ta.be26.666.1554.wav,cho,lu,la,ta,sil,fo,ro,be,sil1,zu,sil2,['catch'],[2.6157000000030166],[2.6157000000030166],1.554,no_beat,1.0617000000030166,1.0617000000030166,"[""space""]",be,2,,,,,,,,,,,,,,,3.0,3.0,Català,0.0,Castellano,6.0,English,6.0,5.0,4.0,yes,yes,no,Flauta,6,Guitarra,6,Batería,6,,,58.0,yes
100,2024-02-10_09h59.33.855,Unsyncopated_study2,s108,26.0,masculino,right,España,"Català, Castellano",Master degree,no,no,B,1,conjunction_syn,L1,syncopated,s1,r2,100,Online_conjL1_syn//d.ne.ni16.1332.222.wav,ta,ni,lu,be,sil,ri,ne,fo,sil1,ze,sil2,['catch'],[1.007099999994125],[1.007099999994125],0.222,no_beat,0.785099999994125,0.785099999994125,"[""space""]",ni,4,,,,,,,,,,,,,,,3.0,3.0,Català,0.0,Castellano,6.0,English,6.0,5.0,4.0,yes,yes,no,Flauta,6,Guitarra,6,Batería,6,,,58.0,yes
101,2024-02-10_09h59.33.855,Unsyncopated_study2,s108,26.0,masculino,right,España,"Català, Castellano",Master degree,no,no,B,1,conjunction_syn,L1,syncopated,s2,r2,101,Online_conjL1_syn//d.ne.ni17.none.none.wav,ze,lu,ri,ta,sil,fo,cho,be,sil1,fa,sil2,['-'],,,none,none,,,,ni,4,,,,,,,,,,,,,,,3.0,3.0,Català,0.0,Castellano,6.0,English,6.0,5.0,4.0,yes,yes,no,Flauta,6,Guitarra,6,Batería,6,,,58.0,yes
102,2024-02-10_09h59.33.855,Unsyncopated_study2,s108,26.0,masculino,right,España,"Català, Castellano",Master degree,no,no,B,1,conjunction_syn,L1,syncopated,s2,r2,102,Online_conjL1_syn//d.ne.ni18.none.none.wav,lu,ri,cho,ta,sil,ze,ro,be,sil1,fo,sil2,['-'],,,none,none,,,,ni,4,,,,,,,,,,,,,,,3.0,3.0,Català,0.0,Castellano,6.0,English,6.0,5.0,4.0,yes,yes,no,Flauta,6,Guitarra,6,Batería,6,,,58.0,yes
103,2024-02-10_09h59.33.855,Unsyncopated_study2,s108,26.0,masculino,right,España,"Català, Castellano",Master degree,no,no,B,1,conjunction_syn,L1,syncopated,s2,r1,103,Online_conjL1_syn//d.ne.ni19.none.none.wav,la,ro,cho,pu,sil,ri,zu,ki,sil1,fo,sil2,['-'],,,none,none,,,,ni,4,,,,,,,,,,,,,,,3.0,3.0,Català,0.0,Castellano,6.0,English,6.0,5.0,4.0,yes,yes,no,Flauta,6,Guitarra,6,Batería,6,,,58.0,yes
104,2024-02-10_09h59.33.855,Unsyncopated_study2,s108,26.0,masculino,right,España,"Català, Castellano",Master degree,no,no,B,1,conjunction_syn,L1,syncopated,s2,r1,104,Online_conjL1_syn//c.ro.fo17.444.0.wav,fo,fa,ro,pu,sil,lu,ze,ki,sil1,ni,sil2,['catch'],[1.2925999999940814],[1.2925999999940814],0.0,beat,,1.2925999999940814,"[""space""]",fo,3,,,,,,,,,,,,,,,3.0,3.0,Català,0.0,Castellano,6.0,English,6.0,5.0,4.0,yes,yes,no,Flauta,6,Guitarra,6,Batería,6,,,58.0,yes
105,2024-02-10_09h59.33.855,Unsyncopated_study2,s108,26.0,masculino,right,España,"Català, Castellano",Master degree,no,no,B,1,conjunction_syn,L1,syncopated,s1,r1,105,Online_conjL1_syn//c.ro.fo18.1110.222.wav,pu,fo,zu,ki,sil,ro,cho,ze,sil1,ne,sil2,['miss'],,,0.222,no_beat,,,,fo,3,,,,,,,,,,,,,,,3.0,3.0,Català,0.0,Castellano,6.0,English,6.0,5.0,4.0,yes,yes,no,Flauta,6,Guitarra,6,Batería,6,,,58.0,yes
106,2024-02-10_09h59.33.855,Unsyncopated_study2,s108,26.0,masculino,right,España,"Català, Castellano",Master degree,no,no,B,1,conjunction_syn,L1,syncopated,s1,r2,106,Online_conjL1_syn//c.ro.fo16.1332.222.wav,ta,fo,ni,be,sil,la,ro,lu,sil1,fa,sil2,['miss'],,,0.222,no_beat,,,,fo,3,,,,,,,,,,,,,,,3.0,3.0,Català,0.0,Castellano,6.0,English,6.0,5.0,4.0,yes,yes,no,Flauta,6,Guitarra,6,Batería,6,,,58.0,yes
107,2024-02-10_09h59.33.855,Unsyncopated_study2,s108,26.0,masculino,right,España,"Català, Castellano",Master degree,no,no,B,1,conjunction_syn,L1,syncopated,s2,r1,107,Online_conjL1_syn//c.ro.fo19.none.none.wav,la,ni,zu,pu,sil,ne,ri,ki,sil1,lu,sil2,['-'],,,none,none,,,,fo,3,,,,,,,,,,,,,,,3.0,3.0,Català,0.0,Castellano,6.0,English,6.0,5.0,4.0,yes,yes,no,Flauta,6,Guitarra,6,Batería,6,,,58.0,yes
108,2024-02-10_09h59.33.855,Unsyncopated_study2,s108,26.0,masculino,right,España,"Català, Castellano",Master degree,no,no,B,1,conjunction_syn,L1,syncopated,s2,r2,108,Online_conjL1_syn//b.ta.be1.666.1554.wav,ni,la,lu,ta,sil,cho,ro,be,sil1,ne,sil2,['catch'],[2.408099999993965],[2.408099999993965],1.554,no_beat,0.8540999999939649,0.8540999999939649,"[""space""]",be,2,,,,,,,,,,,,,,,3.0,3.0,Català,0.0,Castellano,6.0,English,6.0,5.0,4.0,yes,yes,no,Flauta,6,Guitarra,6,Batería,6,,,58.0,yes
109,2024-02-10_09h59.33.855,Unsyncopated_study2,s108,26.0,masculino,right,España,"Català, Castellano",Master degree,no,no,B,1,conjunction_syn,L1,syncopated,s2,r2,109,Online_conjL1_syn//b.ta.be3.666.1554.wav,lu,ro,zu,ta,sil,ne,fo,be,sil1,ni,sil2,['miss'],,,1.554,no_beat,,,,be,2,,,,,,,,,,,,,,,3.0,3.0,Català,0.0,Castellano,6.0,English,6.0,5.0,4.0,yes,yes,no,Flauta,6,Guitarra,6,Batería,6,,,58.0,yes
110,2024-02-10_09h59.33.855,Unsyncopated_study2,s108,26.0,masculino,right,España,"Català, Castellano",Master degree,no,no,B,1,conjunction_syn,L1,syncopated,s2,r2,110,Online_conjL1_syn//b.ta.be0.666.1554.wav,cho,fa,fo,ta,sil,zu,la,be,sil1,ne,sil2,['catch'],[2.2314000000060332],[2.2314000000060332],1.554,no_beat,0.6774000000060332,0.6774000000060332,"[""space""]",be,2,,,,,,,,,,,,,,,3.0,3.0,Català,0.0,Castellano,6.0,English,6.0,5.0,4.0,yes,yes,no,Flauta,6,Guitarra,6,Batería,6,,,58.0,yes
111,2024-02-10_09h59.33.855,Unsyncopated_study2,s108,26.0,masculino,right,España,"Català, Castellano",Master degree,no,no,B,1,conjunction_syn,L1,syncopated,s2,r1,111,Online_conjL1_syn//b.ta.be2.none.none.wav,ri,ne,fo,pu,sil,zu,la,ki,sil1,lu,sil2,['-'],,,none,none,,,,be,2,,,,,,,,,,,,,,,3.0,3.0,Català,0.0,Castellano,6.0,English,6.0,5.0,4.0,yes,yes,no,Flauta,6,Guitarra,6,Batería,6,,,58.0,yes
112,2024-02-10_09h59.33.855,Unsyncopated_study2,s108,26.0,masculino,right,España,"Català, Castellano",Master degree,no,no,B,1,conjunction_syn,L1,syncopated,s2,r2,112,Online_conjL1_syn//c.ro.fo31.none.none.wav,ri,fa,la,ta,sil,lu,ne,be,sil1,zu,sil2,['-'],,,none,none,,,,fo,3,,,,,,,,,,,,,,,3.0,3.0,Català,0.0,Castellano,6.0,English,6.0,5.0,4.0,yes,yes,no,Flauta,6,Guitarra,6,Batería,6,,,58.0,yes
113,2024-02-10_09h59.33.855,Unsyncopated_study2,s108,26.0,masculino,right,España,"Català, Castellano",Master degree,no,no,B,1,conjunction_syn,L1,syncopated,s1,r1,113,Online_conjL1_syn//c.ro.fo28.none.none.wav,pu,ni,lu,ki,sil,ne,la,ze,sil1,fa,sil2,['-'],,,none,none,,,,fo,3,,,,,,,,,,,,,,,3.0,3.0,Català,0.0,Castellano,6.0,English,6.0,5.0,4.0,yes,yes,no,Flauta,6,Guitarra,6,Batería,6,,,58.0,yes
114,2024-02-10_09h59.33.855,Unsyncopated_study2,s108,26.0,masculino,right,España,"Català, Castellano",Master degree,no,no,B,1,conjunction_syn,L1,syncopated,s1,r2,114,Online_conjL1_syn//c.ro.fo29.none.none.wav,ta,zu,ri,be,sil,la,ni,fa,sil1,lu,sil2,['-'],,,none,none,,,,fo,3,,,,,,,,,,,,,,,3.0,3.0,Català,0.0,Castellano,6.0,English,6.0,5.0,4.0,yes,yes,no,Flauta,6,Guitarra,6,Batería,6,,,58.0,yes
115,2024-02-10_09h59.33.855,Unsyncopated_study2,s108,26.0,masculino,right,España,"Català, Castellano",Master degree,no,no,B,1,conjunction_syn,L1,syncopated,s2,r2,115,Online_conjL1_syn//c.ro.fo30.1110.0.wav,fo,ze,fa,ta,sil,ro,ri,be,sil1,ni,sil2,['catch'],[0.7164999999999964],[0.7164999999999964],0.0,beat,0.7164999999999964,0.7164999999999964,"[""space""]",fo,3,,,,,,,,,,,,,,,3.0,3.0,Català,0.0,Castellano,6.0,English,6.0,5.0,4.0,yes,yes,no,Flauta,6,Guitarra,6,Batería,6,,,58.0,yes
116,2024-02-10_09h59.33.855,Unsyncopated_study2,s108,26.0,masculino,right,España,"Català, Castellano",Master degree,no,no,B,1,conjunction_syn,L1,syncopated,s1,r1,116,Online_conjL1_syn//a.pu.ki7.0.666.wav,pu,ri,zu,ki,sil,ne,ze,cho,sil1,la,sil2,['miss'],,,0.0,beat,,,,pu,1,,,,,,,,,,,,,,,3.0,3.0,Català,0.0,Castellano,6.0,English,6.0,5.0,4.0,yes,yes,no,Flauta,6,Guitarra,6,Batería,6,,,58.0,yes
117,2024-02-10_09h59.33.855,Unsyncopated_study2,s108,26.0,masculino,right,España,"Català, Castellano",Master degree,no,no,B,1,conjunction_syn,L1,syncopated,s1,r1,117,Online_conjL1_syn//a.pu.ki5.0.666.wav,pu,ne,ro,ki,sil,cho,ri,fa,sil1,lu,sil2,['catch'],[1.0097999999968579],[1.0097999999968579],0.0,beat,1.009799999996858,1.009799999996858,"[""space""]",pu,1,,,,,,,,,,,,,,,3.0,3.0,Català,0.0,Castellano,6.0,English,6.0,5.0,4.0,yes,yes,no,Flauta,6,Guitarra,6,Batería,6,,,58.0,yes
118,2024-02-10_09h59.33.855,Unsyncopated_study2,s108,26.0,masculino,right,España,"Català, Castellano",Master degree,no,no,B,1,conjunction_syn,L1,syncopated,s1,r2,118,Online_conjL1_syn//a.pu.ki4.none.none.wav,ta,ze,ri,be,sil,zu,fo,ne,sil1,lu,sil2,['-'],,,none,none,,,,pu,1,,,,,,,,,,,,,,,3.0,3.0,Català,0.0,Castellano,6.0,English,6.0,5.0,4.0,yes,yes,no,Flauta,6,Guitarra,6,Batería,6,,,58.0,yes
119,2024-02-10_09h59.33.855,Unsyncopated_study2,s108,26.0,masculino,right,España,"Català, Castellano",Master degree,no,no,B,1,conjunction_syn,L1,syncopated,s2,r2,119,Online_conjL1_syn//a.pu.ki6.none.none.wav,ne,ni,la,ta,sil,zu,cho,be,sil1,ze,sil2,['-'],,,none,none,,,,pu,1,,,,,,,,,,,,,,,3.0,3.0,Català,0.0,Castellano,6.0,English,6.0,5.0,4.0,yes,yes,no,Flauta,6,Guitarra,6,Batería,6,,,58.0,yes
120,2024-02-10_09h59.33.855,Unsyncopated_study2,s108,26.0,masculino,right,España,"Català, Castellano",Master degree,no,no,B,1,conjunction_syn,L1,syncopated,s1,r1,120,Online_conjL1_syn//d.ne.ni1.222.1110.wav,pu,ne,ri,ki,sil,ni,la,ze,sil1,lu,sil2,['false alarm'],[0.9785000000001673],[0.9785000000001673],1.11,no_beat,,,"[""space""]",ni,4,,,,,,,,,,,,,,,3.0,3.0,Català,0.0,Castellano,6.0,English,6.0,5.0,4.0,yes,yes,no,Flauta,6,Guitarra,6,Batería,6,,,58.0,yes
121,2024-02-10_09h59.33.855,Unsyncopated_study2,s108,26.0,masculino,right,España,"Català, Castellano",Master degree,no,no,B,1,conjunction_syn,L1,syncopated,s1,r1,121,Online_conjL1_syn//d.ne.ni3.none.none.wav,pu,fo,la,ki,sil,ro,lu,ri,sil1,cho,sil2,['-'],,,none,none,,,,ni,4,,,,,,,,,,,,,,,3.0,3.0,Català,0.0,Castellano,6.0,English,6.0,5.0,4.0,yes,yes,no,Flauta,6,Guitarra,6,Batería,6,,,58.0,yes
122,2024-02-10_09h59.33.855,Unsyncopated_study2,s108,26.0,masculino,right,España,"Català, Castellano",Master degree,no,no,B,1,conjunction_syn,L1,syncopated,s1,r2,122,Online_conjL1_syn//d.ne.ni2.222.1332.wav,ta,ne,lu,be,sil,ri,ni,cho,sil1,ze,sil2,['miss'],,,1.332,no_beat,,,,ni,4,,,,,,,,,,,,,,,3.0,3.0,Català,0.0,Castellano,6.0,English,6.0,5.0,4.0,yes,yes,no,Flauta,6,Guitarra,6,Batería,6,,,58.0,yes
123,2024-02-10_09h59.33.855,Unsyncopated_study2,s108,26.0,masculino,right,España,"Català, Castellano",Master degree,no,no,B,1,conjunction_syn,L1,syncopated,s2,r1,123,Online_conjL1_syn//d.ne.ni0.none.none.wav,lu,ze,zu,pu,sil,ro,ri,ki,sil1,la,sil2,['false alarm'],[1.9889000000059696],[1.9889000000059696],none,none,,,"[""space""]",ni,4,,,,,,,,,,,,,,,3.0,3.0,Català,0.0,Castellano,6.0,English,6.0,5.0,4.0,yes,yes,no,Flauta,6,Guitarra,6,Batería,6,,,58.0,yes
124,2024-02-10_09h59.33.855,Unsyncopated_study2,s108,26.0,masculino,right,España,"Català, Castellano",Master degree,no,no,B,1,conjunction_syn,L1,syncopated,s2,r2,124,Online_conjL1_syn//a.pu.ki21.none.none.wav,ro,fa,ni,ta,sil,ri,la,be,sil1,lu,sil2,['-'],,,none,none,,,,pu,1,,,,,,,,,,,,,,,3.0,3.0,Català,0.0,Castellano,6.0,English,6.0,5.0,4.0,yes,yes,no,Flauta,6,Guitarra,6,Batería,6,,,58.0,yes
125,2024-02-10_09h59.33.855,Unsyncopated_study2,s108,26.0,masculino,right,España,"Català, Castellano",Master degree,no,no,B,1,conjunction_syn,L1,syncopated,s2,r2,125,Online_conjL1_syn//a.pu.ki22.none.none.wav,fo,ri,ni,ta,sil,lu,la,be,sil1,cho,sil2,['-'],,,none,none,,,,pu,1,,,,,,,,,,,,,,,3.0,3.0,Català,0.0,Castellano,6.0,English,6.0,5.0,4.0,yes,yes,no,Flauta,6,Guitarra,6,Batería,6,,,58.0,yes
126,2024-02-10_09h59.33.855,Unsyncopated_study2,s108,26.0,masculino,right,España,"Català, Castellano",Master degree,no,no,B,1,conjunction_syn,L1,syncopated,s2,r1,126,Online_conjL1_syn//a.pu.ki20.666.1554.wav,ro,lu,ni,pu,sil,la,fo,ki,sil1,cho,sil2,['catch'],[1.393299999996998],[1.393299999996998],0.666,no_beat,0.7272999999969979,0.7272999999969979,"[""space""]",pu,1,,,,,,,,,,,,,,,3.0,3.0,Català,0.0,Castellano,6.0,English,6.0,5.0,4.0,yes,yes,no,Flauta,6,Guitarra,6,Batería,6,,,58.0,yes
127,2024-02-10_09h59.33.855,Unsyncopated_study2,s108,26.0,masculino,right,España,"Català, Castellano",Master degree,no,no,B,1,conjunction_syn,L1,syncopated,s2,r1,127,Online_conjL1_syn//a.pu.ki23.666.1554.wav,ni,la,ro,pu,sil,fo,zu,ki,sil1,ze,sil2,['catch'],[1.5777000000030057],[1.5777000000030057],0.666,no_beat,0.9117000000030056,0.9117000000030056,"[""space""]",pu,1,,,,,,,,,,,,,,,3.0,3.0,Català,0.0,Castellano,6.0,English,6.0,5.0,4.0,yes,yes,no,Flauta,6,Guitarra,6,Batería,6,,,58.0,yes
128,2024-02-10_09h59.33.855,Unsyncopated_study2,s108,26.0,masculino,right,España,"Català, Castellano",Master degree,no,no,B,2,when,L4,unsyncopated,when,when,0,Online_whenL4//b.ja4.none.wav,ñi,nu,ru,sil,po,de,da,sil1,re,lo,sil2,['-'],,,none,none,,,,ja,2,,,,,,,,,,,,,,,3.0,3.0,Català,0.0,Castellano,6.0,English,6.0,5.0,4.0,yes,yes,no,Flauta,6,Guitarra,6,Batería,6,,,58.0,yes
129,2024-02-10_09h59.33.855,Unsyncopated_study2,s108,26.0,masculino,right,España,"Català, Castellano",Master degree,no,no,B,2,when,L4,unsyncopated,when,when,1,Online_whenL4//b.ja7.none.wav,de,bo,zi,sil,ru,pe,da,sil1,po,nu,sil2,['-'],,,none,none,,,,ja,2,,,,,,,,,,,,,,,3.0,3.0,Català,0.0,Castellano,6.0,English,6.0,5.0,4.0,yes,yes,no,Flauta,6,Guitarra,6,Batería,6,,,58.0,yes
130,2024-02-10_09h59.33.855,Unsyncopated_study2,s108,26.0,masculino,right,España,"Català, Castellano",Master degree,no,no,B,2,when,L4,unsyncopated,when,when,2,Online_whenL4//b.ja5.none.wav,re,pe,ña,sil,bu,po,ci,sil1,lo,nu,sil2,['-'],,,none,none,,,,ja,2,,,,,,,,,,,,,,,3.0,3.0,Català,0.0,Castellano,6.0,English,6.0,5.0,4.0,yes,yes,no,Flauta,6,Guitarra,6,Batería,6,,,58.0,yes
131,2024-02-10_09h59.33.855,Unsyncopated_study2,s108,26.0,masculino,right,España,"Català, Castellano",Master degree,no,no,B,2,when,L4,unsyncopated,when,when,3,Online_whenL4//b.ja6.1332.wav,pe,ña,de,sil,bo,ci,ja,sil1,lo,po,sil2,['catch'],[2.025500000000193],[2.025500000000193],1.332,no_beat,0.6935000000001927,0.6935000000001927,"[""space""]",ja,2,,,,,,,,,,,,,,,3.0,3.0,Català,0.0,Castellano,6.0,English,6.0,5.0,4.0,yes,yes,no,Flauta,6,Guitarra,6,Batería,6,,,58.0,yes
132,2024-02-10_09h59.33.855,Unsyncopated_study2,s108,26.0,masculino,right,España,"Català, Castellano",Master degree,no,no,B,2,when,L4,unsyncopated,when,when,4,Online_whenL4//b.ja20.0.wav,ja,bu,ñi,sil,bo,de,lo,sil1,ru,da,sil2,['catch'],[0.6966000000090844],[0.6966000000090844],0.0,beat,0.6966000000090844,0.6966000000090844,"[""space""]",ja,2,,,,,,,,,,,,,,,3.0,3.0,Català,0.0,Castellano,6.0,English,6.0,5.0,4.0,yes,yes,no,Flauta,6,Guitarra,6,Batería,6,,,58.0,yes
133,2024-02-10_09h59.33.855,Unsyncopated_study2,s108,26.0,masculino,right,España,"Català, Castellano",Master degree,no,no,B,2,when,L4,unsyncopated,when,when,5,Online_whenL4//b.ja21.none.wav,bu,da,ci,sil,ru,nu,zi,sil1,de,po,sil2,['-'],,,none,none,,,,ja,2,,,,,,,,,,,,,,,3.0,3.0,Català,0.0,Castellano,6.0,English,6.0,5.0,4.0,yes,yes,no,Flauta,6,Guitarra,6,Batería,6,,,58.0,yes
134,2024-02-10_09h59.33.855,Unsyncopated_study2,s108,26.0,masculino,right,España,"Català, Castellano",Master degree,no,no,B,2,when,L4,unsyncopated,when,when,6,Online_whenL4//b.ja23.444.wav,bu,da,ja,sil,ña,de,nu,sil1,ñi,po,sil2,['catch'],[1.1782999999968524],[1.1782999999968524],0.444,no_beat,0.7342999999968525,0.7342999999968525,"[""space""]",ja,2,,,,,,,,,,,,,,,3.0,3.0,Català,0.0,Castellano,6.0,English,6.0,5.0,4.0,yes,yes,no,Flauta,6,Guitarra,6,Batería,6,,,58.0,yes
135,2024-02-10_09h59.33.855,Unsyncopated_study2,s108,26.0,masculino,right,España,"Català, Castellano",Master degree,no,no,B,2,when,L4,unsyncopated,when,when,7,Online_whenL4//b.ja22.1776.wav,da,ci,zi,sil,ña,ru,bo,sil1,ja,bu,sil2,['catch'],[2.492400000005773],[2.492400000005773],1.776,beat,0.7164000000057731,0.7164000000057731,"[""space""]",ja,2,,,,,,,,,,,,,,,3.0,3.0,Català,0.0,Castellano,6.0,English,6.0,5.0,4.0,yes,yes,no,Flauta,6,Guitarra,6,Batería,6,,,58.0,yes
136,2024-02-10_09h59.33.855,Unsyncopated_study2,s108,26.0,masculino,right,España,"Català, Castellano",Master degree,no,no,B,2,when,L4,unsyncopated,when,when,8,Online_whenL4//a.lo17.888.wav,ci,de,re,sil,lo,ru,da,sil1,ñi,zi,sil2,['catch'],[1.8107999999970161],[1.8107999999970161],0.888,beat,0.922799999997016,0.922799999997016,"[""space""]",lo,1,,,,,,,,,,,,,,,3.0,3.0,Català,0.0,Castellano,6.0,English,6.0,5.0,4.0,yes,yes,no,Flauta,6,Guitarra,6,Batería,6,,,58.0,yes
137,2024-02-10_09h59.33.855,Unsyncopated_study2,s108,26.0,masculino,right,España,"Català, Castellano",Master degree,no,no,B,2,when,L4,unsyncopated,when,when,9,Online_whenL4//a.lo16.none.wav,po,bu,re,sil,ja,pe,zi,sil1,da,ña,sil2,['-'],,,none,none,,,,lo,1,,,,,,,,,,,,,,,3.0,3.0,Català,0.0,Castellano,6.0,English,6.0,5.0,4.0,yes,yes,no,Flauta,6,Guitarra,6,Batería,6,,,58.0,yes
138,2024-02-10_09h59.33.855,Unsyncopated_study2,s108,26.0,masculino,right,España,"Català, Castellano",Master degree,no,no,B,2,when,L4,unsyncopated,when,when,10,Online_whenL4//a.lo18.none.wav,re,ñi,de,sil,nu,bo,ña,sil1,ru,zi,sil2,['-'],,,none,none,,,,lo,1,,,,,,,,,,,,,,,3.0,3.0,Català,0.0,Castellano,6.0,English,6.0,5.0,4.0,yes,yes,no,Flauta,6,Guitarra,6,Batería,6,,,58.0,yes
139,2024-02-10_09h59.33.855,Unsyncopated_study2,s108,26.0,masculino,right,España,"Català, Castellano",Master degree,no,no,B,2,when,L4,unsyncopated,when,when,11,Online_whenL4//a.lo19.0.wav,lo,ru,po,sil,pe,bu,re,sil1,nu,bo,sil2,['catch'],[0.8872000000030766],[0.8872000000030766],0.0,beat,0.8872000000030766,0.8872000000030766,"[""space""]",lo,1,,,,,,,,,,,,,,,3.0,3.0,Català,0.0,Castellano,6.0,English,6.0,5.0,4.0,yes,yes,no,Flauta,6,Guitarra,6,Batería,6,,,58.0,yes
140,2024-02-10_09h59.33.855,Unsyncopated_study2,s108,26.0,masculino,right,España,"Català, Castellano",Master degree,no,no,B,2,when,L4,unsyncopated,when,when,12,Online_whenL4//b.ja1.none.wav,lo,re,po,sil,bu,de,ña,sil1,da,nu,sil2,['-'],,,none,none,,,,ja,2,,,,,,,,,,,,,,,3.0,3.0,Català,0.0,Castellano,6.0,English,6.0,5.0,4.0,yes,yes,no,Flauta,6,Guitarra,6,Batería,6,,,58.0,yes
141,2024-02-10_09h59.33.855,Unsyncopated_study2,s108,26.0,masculino,right,España,"Català, Castellano",Master degree,no,no,B,2,when,L4,unsyncopated,when,when,13,Online_whenL4//b.ja3.none.wav,nu,da,po,sil,ru,zi,bu,sil1,re,ña,sil2,['-'],,,none,none,,,,ja,2,,,,,,,,,,,,,,,3.0,3.0,Català,0.0,Castellano,6.0,English,6.0,5.0,4.0,yes,yes,no,Flauta,6,Guitarra,6,Batería,6,,,58.0,yes
142,2024-02-10_09h59.33.855,Unsyncopated_study2,s108,26.0,masculino,right,España,"Català, Castellano",Master degree,no,no,B,2,when,L4,unsyncopated,when,when,14,Online_whenL4//b.ja2.none.wav,ci,ru,zi,sil,da,de,pe,sil1,re,lo,sil2,['-'],,,none,none,,,,ja,2,,,,,,,,,,,,,,,3.0,3.0,Català,0.0,Castellano,6.0,English,6.0,5.0,4.0,yes,yes,no,Flauta,6,Guitarra,6,Batería,6,,,58.0,yes
143,2024-02-10_09h59.33.855,Unsyncopated_study2,s108,26.0,masculino,right,España,"Català, Castellano",Master degree,no,no,B,2,when,L4,unsyncopated,when,when,15,Online_whenL4//b.ja0.222.wav,re,ja,da,sil,ci,ru,bo,sil1,bu,lo,sil2,['catch'],[0.8706000000090626],[0.8706000000090626],0.222,no_beat,0.6486000000090626,0.6486000000090626,"[""space""]",ja,2,,,,,,,,,,,,,,,3.0,3.0,Català,0.0,Castellano,6.0,English,6.0,5.0,4.0,yes,yes,no,Flauta,6,Guitarra,6,Batería,6,,,58.0,yes
144,2024-02-10_09h59.33.855,Unsyncopated_study2,s108,26.0,masculino,right,España,"Català, Castellano",Master degree,no,no,B,2,when,L4,unsyncopated,when,when,16,Online_whenL4//d.pe18.none.wav,zi,re,po,sil,bo,ja,ci,sil1,ru,da,sil2,['-'],,,none,none,,,,pe,4,,,,,,,,,,,,,,,3.0,3.0,Català,0.0,Castellano,6.0,English,6.0,5.0,4.0,yes,yes,no,Flauta,6,Guitarra,6,Batería,6,,,58.0,yes
145,2024-02-10_09h59.33.855,Unsyncopated_study2,s108,26.0,masculino,right,España,"Català, Castellano",Master degree,no,no,B,2,when,L4,unsyncopated,when,when,17,Online_whenL4//d.pe16.888.wav,lo,bu,zi,sil,pe,ñi,da,sil1,ci,ña,sil2,['catch'],[1.6447999999970762],[1.6447999999970762],0.888,beat,0.7567999999970761,0.7567999999970761,"[""space""]",pe,4,,,,,,,,,,,,,,,3.0,3.0,Català,0.0,Castellano,6.0,English,6.0,5.0,4.0,yes,yes,no,Flauta,6,Guitarra,6,Batería,6,,,58.0,yes
146,2024-02-10_09h59.33.855,Unsyncopated_study2,s108,26.0,masculino,right,España,"Català, Castellano",Master degree,no,no,B,2,when,L4,unsyncopated,when,when,18,Online_whenL4//d.pe17.444.wav,ci,ru,pe,sil,ña,bu,zi,sil1,ñi,nu,sil2,['catch'],[1.4112000000029639],[1.4112000000029639],0.444,no_beat,0.967200000002964,0.967200000002964,"[""space""]",pe,4,,,,,,,,,,,,,,,3.0,3.0,Català,0.0,Castellano,6.0,English,6.0,5.0,4.0,yes,yes,no,Flauta,6,Guitarra,6,Batería,6,,,58.0,yes
147,2024-02-10_09h59.33.855,Unsyncopated_study2,s108,26.0,masculino,right,España,"Català, Castellano",Master degree,no,no,B,2,when,L4,unsyncopated,when,when,19,Online_whenL4//d.pe19.none.wav,nu,ci,ñi,sil,de,po,ru,sil1,ña,zi,sil2,['-'],,,none,none,,,,pe,4,,,,,,,,,,,,,,,3.0,3.0,Català,0.0,Castellano,6.0,English,6.0,5.0,4.0,yes,yes,no,Flauta,6,Guitarra,6,Batería,6,,,58.0,yes
148,2024-02-10_09h59.33.855,Unsyncopated_study2,s108,26.0,masculino,right,España,"Català, Castellano",Master degree,no,no,B,2,when,L4,unsyncopated,when,when,20,Online_whenL4//b.ja12.444.wav,nu,ñi,ja,sil,pe,da,ña,sil1,re,ru,sil2,['catch'],[1.7307000000030257],[1.7307000000030257],0.444,no_beat,,1.2867000000030258,"[""space""]",ja,2,,,,,,,,,,,,,,,3.0,3.0,Català,0.0,Castellano,6.0,English,6.0,5.0,4.0,yes,yes,no,Flauta,6,Guitarra,6,Batería,6,,,58.0,yes
149,2024-02-10_09h59.33.855,Unsyncopated_study2,s108,26.0,masculino,right,España,"Català, Castellano",Master degree,no,no,B,2,when,L4,unsyncopated,when,when,21,Online_whenL4//b.ja14.888.wav,zi,ña,po,sil,ja,bu,de,sil1,bo,ru,sil2,['miss'],,,0.888,beat,,,,ja,2,,,,,,,,,,,,,,,3.0,3.0,Català,0.0,Castellano,6.0,English,6.0,5.0,4.0,yes,yes,no,Flauta,6,Guitarra,6,Batería,6,,,58.0,yes
150,2024-02-10_09h59.33.855,Unsyncopated_study2,s108,26.0,masculino,right,España,"Català, Castellano",Master degree,no,no,B,2,when,L4,unsyncopated,when,when,22,Online_whenL4//b.ja15.444.wav,da,ci,ja,sil,bo,ru,pe,sil1,zi,bu,sil2,['catch'],[2.0251000000089334],[2.0251000000089334],0.444,no_beat,,1.5811000000089337,"[""space""]",ja,2,,,,,,,,,,,,,,,3.0,3.0,Català,0.0,Castellano,6.0,English,6.0,5.0,4.0,yes,yes,no,Flauta,6,Guitarra,6,Batería,6,,,58.0,yes
151,2024-02-10_09h59.33.855,Unsyncopated_study2,s108,26.0,masculino,right,España,"Català, Castellano",Master degree,no,no,B,2,when,L4,unsyncopated,when,when,23,Online_whenL4//b.ja13.none.wav,bo,de,ña,sil,re,bu,lo,sil1,pe,zi,sil2,['-'],,,none,none,,,,ja,2,,,,,,,,,,,,,,,3.0,3.0,Català,0.0,Castellano,6.0,English,6.0,5.0,4.0,yes,yes,no,Flauta,6,Guitarra,6,Batería,6,,,58.0,yes
152,2024-02-10_09h59.33.855,Unsyncopated_study2,s108,26.0,masculino,right,España,"Català, Castellano",Master degree,no,no,B,2,when,L4,unsyncopated,when,when,24,Online_whenL4//a.lo1.none.wav,nu,ja,ci,sil,bo,ña,de,sil1,po,re,sil2,['-'],,,none,none,,,,lo,1,,,,,,,,,,,,,,,3.0,3.0,Català,0.0,Castellano,6.0,English,6.0,5.0,4.0,yes,yes,no,Flauta,6,Guitarra,6,Batería,6,,,58.0,yes
153,2024-02-10_09h59.33.855,Unsyncopated_study2,s108,26.0,masculino,right,España,"Català, Castellano",Master degree,no,no,B,2,when,L4,unsyncopated,when,when,25,Online_whenL4//a.lo0.none.wav,ru,pe,ci,sil,zi,ja,da,sil1,ñi,ña,sil2,['-'],,,none,none,,,,lo,1,,,,,,,,,,,,,,,3.0,3.0,Català,0.0,Castellano,6.0,English,6.0,5.0,4.0,yes,yes,no,Flauta,6,Guitarra,6,Batería,6,,,58.0,yes
154,2024-02-10_09h59.33.855,Unsyncopated_study2,s108,26.0,masculino,right,España,"Català, Castellano",Master degree,no,no,B,2,when,L4,unsyncopated,when,when,26,Online_whenL4//a.lo2.444.wav,ñi,bu,lo,sil,da,pe,ña,sil1,zi,bo,sil2,['catch'],[1.1555000000000746],[1.1555000000000746],0.444,no_beat,0.7115000000000746,0.7115000000000746,"[""space""]",lo,1,,,,,,,,,,,,,,,3.0,3.0,Català,0.0,Castellano,6.0,English,6.0,5.0,4.0,yes,yes,no,Flauta,6,Guitarra,6,Batería,6,,,58.0,yes
155,2024-02-10_09h59.33.855,Unsyncopated_study2,s108,26.0,masculino,right,España,"Català, Castellano",Master degree,no,no,B,2,when,L4,unsyncopated,when,when,27,Online_whenL4//a.lo3.none.wav,ci,nu,ja,sil,re,ña,ru,sil1,po,bo,sil2,['-'],,,none,none,,,,lo,1,,,,,,,,,,,,,,,3.0,3.0,Català,0.0,Castellano,6.0,English,6.0,5.0,4.0,yes,yes,no,Flauta,6,Guitarra,6,Batería,6,,,58.0,yes
156,2024-02-10_09h59.33.855,Unsyncopated_study2,s108,26.0,masculino,right,España,"Català, Castellano",Master degree,no,no,B,2,when,L4,unsyncopated,when,when,28,Online_whenL4//d.pe13.none.wav,da,ja,nu,sil,ru,ci,ñi,sil1,bu,po,sil2,['-'],,,none,none,,,,pe,4,,,,,,,,,,,,,,,3.0,3.0,Català,0.0,Castellano,6.0,English,6.0,5.0,4.0,yes,yes,no,Flauta,6,Guitarra,6,Batería,6,,,58.0,yes
157,2024-02-10_09h59.33.855,Unsyncopated_study2,s108,26.0,masculino,right,España,"Català, Castellano",Master degree,no,no,B,2,when,L4,unsyncopated,when,when,29,Online_whenL4//d.pe12.none.wav,ru,zi,ñi,sil,bu,de,ña,sil1,lo,re,sil2,['-'],,,none,none,,,,pe,4,,,,,,,,,,,,,,,3.0,3.0,Català,0.0,Castellano,6.0,English,6.0,5.0,4.0,yes,yes,no,Flauta,6,Guitarra,6,Batería,6,,,58.0,yes
158,2024-02-10_09h59.33.855,Unsyncopated_study2,s108,26.0,masculino,right,España,"Català, Castellano",Master degree,no,no,B,2,when,L4,unsyncopated,when,when,30,Online_whenL4//d.pe14.none.wav,po,ña,bu,sil,de,ru,nu,sil1,ci,zi,sil2,['false alarm'],[1.1487000000031458],[1.1487000000031458],none,none,,,"[""space""]",pe,4,,,,,,,,,,,,,,,3.0,3.0,Català,0.0,Castellano,6.0,English,6.0,5.0,4.0,yes,yes,no,Flauta,6,Guitarra,6,Batería,6,,,58.0,yes
159,2024-02-10_09h59.33.855,Unsyncopated_study2,s108,26.0,masculino,right,España,"Català, Castellano",Master degree,no,no,B,2,when,L4,unsyncopated,when,when,31,Online_whenL4//d.pe15.888.wav,po,lo,de,sil,pe,ja,bo,sil1,ña,bu,sil2,['catch'],[1.6021000000089316],[1.6021000000089316],0.888,beat,0.7141000000089316,0.7141000000089316,"[""space""]",pe,4,,,,,,,,,,,,,,,3.0,3.0,Català,0.0,Castellano,6.0,English,6.0,5.0,4.0,yes,yes,no,Flauta,6,Guitarra,6,Batería,6,,,58.0,yes
160,2024-02-10_09h59.33.855,Unsyncopated_study2,s108,26.0,masculino,right,España,"Català, Castellano",Master degree,no,no,B,2,when,L4,unsyncopated,when,when,32,Online_whenL4//c.bu31.none.wav,ru,bo,ci,sil,lo,po,pe,sil1,zi,ña,sil2,['-'],,,none,none,,,,bu,3,,,,,,,,,,,,,,,3.0,3.0,Català,0.0,Castellano,6.0,English,6.0,5.0,4.0,yes,yes,no,Flauta,6,Guitarra,6,Batería,6,,,58.0,yes
161,2024-02-10_09h59.33.855,Unsyncopated_study2,s108,26.0,masculino,right,España,"Català, Castellano",Master degree,no,no,B,2,when,L4,unsyncopated,when,when,33,Online_whenL4//c.bu30.none.wav,ña,ru,lo,sil,bo,ci,ñi,sil1,nu,po,sil2,['-'],,,none,none,,,,bu,3,,,,,,,,,,,,,,,3.0,3.0,Català,0.0,Castellano,6.0,English,6.0,5.0,4.0,yes,yes,no,Flauta,6,Guitarra,6,Batería,6,,,58.0,yes
162,2024-02-10_09h59.33.855,Unsyncopated_study2,s108,26.0,masculino,right,España,"Català, Castellano",Master degree,no,no,B,2,when,L4,unsyncopated,when,when,34,Online_whenL4//c.bu28.1998.wav,ñi,re,ru,sil,ja,zi,ña,sil1,pe,bu,sil2,['catch_delay'],[0.9214000000059206],[0.9214000000059206],1.998,no_beat,0.9214000000059206,0.9214000000059206,,bu,3,,,,,,,,,,,,,,,3.0,3.0,Català,0.0,Castellano,6.0,English,6.0,5.0,4.0,yes,yes,no,Flauta,6,Guitarra,6,Batería,6,,,58.0,yes
163,2024-02-10_09h59.33.855,Unsyncopated_study2,s108,26.0,masculino,right,España,"Català, Castellano",Master degree,no,no,B,2,when,L4,unsyncopated,when,when,35,Online_whenL4//c.bu29.none.wav,ja,nu,po,sil,da,re,de,sil1,ru,ci,sil2,['-'],[0.25540000000592045],[0.25540000000592045],none,none,,,"[""space""]",bu,3,,,,,,,,,,,,,,,3.0,3.0,Català,0.0,Castellano,6.0,English,6.0,5.0,4.0,yes,yes,no,Flauta,6,Guitarra,6,Batería,6,,,58.0,yes
164,2024-02-10_09h59.33.855,Unsyncopated_study2,s108,26.0,masculino,right,España,"Català, Castellano",Master degree,no,no,B,2,when,L4,unsyncopated,when,when,36,Online_whenL4//a.lo24.1776.wav,de,ja,ci,sil,re,ña,po,sil1,lo,bu,sil2,['catch'],[2.3827999999971325],[2.3827999999971325],1.776,beat,0.6067999999971325,0.6067999999971325,"[""space""]",lo,1,,,,,,,,,,,,,,,3.0,3.0,Català,0.0,Castellano,6.0,English,6.0,5.0,4.0,yes,yes,no,Flauta,6,Guitarra,6,Batería,6,,,58.0,yes
165,2024-02-10_09h59.33.855,Unsyncopated_study2,s108,26.0,masculino,right,España,"Català, Castellano",Master degree,no,no,B,2,when,L4,unsyncopated,when,when,37,Online_whenL4//a.lo27.none.wav,ci,nu,ñi,sil,da,ru,ja,sil1,po,bu,sil2,['-'],,,none,none,,,,lo,1,,,,,,,,,,,,,,,3.0,3.0,Català,0.0,Castellano,6.0,English,6.0,5.0,4.0,yes,yes,no,Flauta,6,Guitarra,6,Batería,6,,,58.0,yes
166,2024-02-10_09h59.33.855,Unsyncopated_study2,s108,26.0,masculino,right,España,"Català, Castellano",Master degree,no,no,B,2,when,L4,unsyncopated,when,when,38,Online_whenL4//a.lo25.none.wav,ñi,ja,ru,sil,bo,ci,ña,sil1,de,zi,sil2,['-'],,,none,none,,,,lo,1,,,,,,,,,,,,,,,3.0,3.0,Català,0.0,Castellano,6.0,English,6.0,5.0,4.0,yes,yes,no,Flauta,6,Guitarra,6,Batería,6,,,58.0,yes
167,2024-02-10_09h59.33.855,Unsyncopated_study2,s108,26.0,masculino,right,España,"Català, Castellano",Master degree,no,no,B,2,when,L4,unsyncopated,when,when,39,Online_whenL4//a.lo26.1998.wav,po,ja,bu,sil,ci,pe,ru,sil1,ñi,lo,sil2,['catch'],[2.633199999987937],[2.633199999987937],1.998,no_beat,0.6351999999879372,0.6351999999879372,"[""space""]",lo,1,,,,,,,,,,,,,,,3.0,3.0,Català,0.0,Castellano,6.0,English,6.0,5.0,4.0,yes,yes,no,Flauta,6,Guitarra,6,Batería,6,,,58.0,yes
168,2024-02-10_09h59.33.855,Unsyncopated_study2,s108,26.0,masculino,right,España,"Català, Castellano",Master degree,no,no,B,2,when,L4,unsyncopated,when,when,40,Online_whenL4//a.lo12.none.wav,nu,bu,zi,sil,ñi,bo,ci,sil1,ru,ña,sil2,['-'],,,none,none,,,,lo,1,,,,,,,,,,,,,,,3.0,3.0,Català,0.0,Castellano,6.0,English,6.0,5.0,4.0,yes,yes,no,Flauta,6,Guitarra,6,Batería,6,,,58.0,yes
169,2024-02-10_09h59.33.855,Unsyncopated_study2,s108,26.0,masculino,right,España,"Català, Castellano",Master degree,no,no,B,2,when,L4,unsyncopated,when,when,41,Online_whenL4//a.lo13.1776.wav,re,ña,ru,sil,ci,ja,ñi,sil1,lo,pe,sil2,['catch'],[2.388200000003053],[2.388200000003053],1.776,beat,0.612200000003053,0.612200000003053,"[""space""]",lo,1,,,,,,,,,,,,,,,3.0,3.0,Català,0.0,Castellano,6.0,English,6.0,5.0,4.0,yes,yes,no,Flauta,6,Guitarra,6,Batería,6,,,58.0,yes
170,2024-02-10_09h59.33.855,Unsyncopated_study2,s108,26.0,masculino,right,España,"Català, Castellano",Master degree,no,no,B,2,when,L4,unsyncopated,when,when,42,Online_whenL4//a.lo15.1776.wav,de,pe,da,sil,ñi,po,re,sil1,lo,ja,sil2,['catch_delay'],[0.9202999999971218],[0.9202999999971218],1.776,beat,0.9202999999971218,0.9202999999971218,,lo,1,,,,,,,,,,,,,,,3.0,3.0,Català,0.0,Castellano,6.0,English,6.0,5.0,4.0,yes,yes,no,Flauta,6,Guitarra,6,Batería,6,,,58.0,yes
171,2024-02-10_09h59.33.855,Unsyncopated_study2,s108,26.0,masculino,right,España,"Català, Castellano",Master degree,no,no,B,2,when,L4,unsyncopated,when,when,43,Online_whenL4//a.lo14.none.wav,bu,ru,nu,sil,zi,bo,pe,sil1,da,ñi,sil2,['-'],[0.03229999999712163],[0.03229999999712163],none,none,,,"[""space""]",lo,1,,,,,,,,,,,,,,,3.0,3.0,Català,0.0,Castellano,6.0,English,6.0,5.0,4.0,yes,yes,no,Flauta,6,Guitarra,6,Batería,6,,,58.0,yes
172,2024-02-10_09h59.33.855,Unsyncopated_study2,s108,26.0,masculino,right,España,"Català, Castellano",Master degree,no,no,B,2,when,L4,unsyncopated,when,when,44,Online_whenL4//c.bu8.444.wav,nu,bo,bu,sil,ñi,re,zi,sil1,pe,ci,sil2,['catch'],[1.206499999999778],[1.206499999999778],0.444,no_beat,0.7624999999997781,0.7624999999997781,"[""space""]",bu,3,,,,,,,,,,,,,,,3.0,3.0,Català,0.0,Castellano,6.0,English,6.0,5.0,4.0,yes,yes,no,Flauta,6,Guitarra,6,Batería,6,,,58.0,yes
173,2024-02-10_09h59.33.855,Unsyncopated_study2,s108,26.0,masculino,right,España,"Català, Castellano",Master degree,no,no,B,2,when,L4,unsyncopated,when,when,45,Online_whenL4//c.bu11.none.wav,ña,pe,re,sil,nu,bo,lo,sil1,ci,de,sil2,['-'],,,none,none,,,,bu,3,,,,,,,,,,,,,,,3.0,3.0,Català,0.0,Castellano,6.0,English,6.0,5.0,4.0,yes,yes,no,Flauta,6,Guitarra,6,Batería,6,,,58.0,yes
174,2024-02-10_09h59.33.855,Unsyncopated_study2,s108,26.0,masculino,right,España,"Català, Castellano",Master degree,no,no,B,2,when,L4,unsyncopated,when,when,46,Online_whenL4//c.bu9.444.wav,bo,ja,bu,sil,lo,re,pe,sil1,ci,po,sil2,['catch'],[1.2560000000003129],[1.2560000000003129],0.444,no_beat,0.8120000000003129,0.8120000000003129,"[""space""]",bu,3,,,,,,,,,,,,,,,3.0,3.0,Català,0.0,Castellano,6.0,English,6.0,5.0,4.0,yes,yes,no,Flauta,6,Guitarra,6,Batería,6,,,58.0,yes
175,2024-02-10_09h59.33.855,Unsyncopated_study2,s108,26.0,masculino,right,España,"Català, Castellano",Master degree,no,no,B,2,when,L4,unsyncopated,when,when,47,Online_whenL4//c.bu10.0.wav,bu,ñi,da,sil,ña,ja,re,sil1,nu,ci,sil2,['catch'],[0.7746999999881155],[0.7746999999881155],0.0,beat,0.7746999999881155,0.7746999999881155,"[""space""]",bu,3,,,,,,,,,,,,,,,3.0,3.0,Català,0.0,Castellano,6.0,English,6.0,5.0,4.0,yes,yes,no,Flauta,6,Guitarra,6,Batería,6,,,58.0,yes
176,2024-02-10_09h59.33.855,Unsyncopated_study2,s108,26.0,masculino,right,España,"Català, Castellano",Master degree,no,no,B,2,when,L4,unsyncopated,when,when,48,Online_whenL4//d.pe26.none.wav,lo,re,ña,sil,bo,po,ñi,sil1,zi,da,sil2,['-'],,,none,none,,,,pe,4,,,,,,,,,,,,,,,3.0,3.0,Català,0.0,Castellano,6.0,English,6.0,5.0,4.0,yes,yes,no,Flauta,6,Guitarra,6,Batería,6,,,58.0,yes
177,2024-02-10_09h59.33.855,Unsyncopated_study2,s108,26.0,masculino,right,España,"Català, Castellano",Master degree,no,no,B,2,when,L4,unsyncopated,when,when,49,Online_whenL4//d.pe24.0.wav,pe,de,re,sil,zi,ña,bo,sil1,ja,ñi,sil2,['catch'],[0.7557000000028893],[0.7557000000028893],0.0,beat,0.7557000000028893,0.7557000000028893,"[""space""]",pe,4,,,,,,,,,,,,,,,3.0,3.0,Català,0.0,Castellano,6.0,English,6.0,5.0,4.0,yes,yes,no,Flauta,6,Guitarra,6,Batería,6,,,58.0,yes
178,2024-02-10_09h59.33.855,Unsyncopated_study2,s108,26.0,masculino,right,España,"Català, Castellano",Master degree,no,no,B,2,when,L4,unsyncopated,when,when,50,Online_whenL4//d.pe27.222.wav,ru,pe,nu,sil,zi,ña,ci,sil1,ñi,bu,sil2,['catch'],[1.0667000000030384],[1.0667000000030384],0.222,no_beat,0.8447000000030385,0.8447000000030385,"[""space""]",pe,4,,,,,,,,,,,,,,,3.0,3.0,Català,0.0,Castellano,6.0,English,6.0,5.0,4.0,yes,yes,no,Flauta,6,Guitarra,6,Batería,6,,,58.0,yes
179,2024-02-10_09h59.33.855,Unsyncopated_study2,s108,26.0,masculino,right,España,"Català, Castellano",Master degree,no,no,B,2,when,L4,unsyncopated,when,when,51,Online_whenL4//d.pe25.none.wav,re,bu,ja,sil,da,bo,ci,sil1,nu,ru,sil2,['-'],,,none,none,,,,pe,4,,,,,,,,,,,,,,,3.0,3.0,Català,0.0,Castellano,6.0,English,6.0,5.0,4.0,yes,yes,no,Flauta,6,Guitarra,6,Batería,6,,,58.0,yes
180,2024-02-10_09h59.33.855,Unsyncopated_study2,s108,26.0,masculino,right,España,"Català, Castellano",Master degree,no,no,B,2,when,L4,unsyncopated,when,when,52,Online_whenL4//b.ja32.none.wav,ru,bu,de,sil,ña,lo,nu,sil1,re,ci,sil2,['-'],,,none,none,,,,ja,2,,,,,,,,,,,,,,,3.0,3.0,Català,0.0,Castellano,6.0,English,6.0,5.0,4.0,yes,yes,no,Flauta,6,Guitarra,6,Batería,6,,,58.0,yes
181,2024-02-10_09h59.33.855,Unsyncopated_study2,s108,26.0,masculino,right,España,"Català, Castellano",Master degree,no,no,B,2,when,L4,unsyncopated,when,when,53,Online_whenL4//b.ja33.none.wav,ci,po,nu,sil,ñi,zi,pe,sil1,re,bu,sil2,['-'],,,none,none,,,,ja,2,,,,,,,,,,,,,,,3.0,3.0,Català,0.0,Castellano,6.0,English,6.0,5.0,4.0,yes,yes,no,Flauta,6,Guitarra,6,Batería,6,,,58.0,yes
182,2024-02-10_09h59.33.855,Unsyncopated_study2,s108,26.0,masculino,right,España,"Català, Castellano",Master degree,no,no,B,2,when,L4,unsyncopated,when,when,54,Online_whenL4//b.ja35.1998.wav,ru,re,da,sil,lo,bo,ña,sil1,po,ja,sil2,['catch_delay'],[0.7927999999968198],[0.7927999999968198],1.998,no_beat,0.7927999999968198,0.7927999999968198,,ja,2,,,,,,,,,,,,,,,3.0,3.0,Català,0.0,Castellano,6.0,English,6.0,5.0,4.0,yes,yes,no,Flauta,6,Guitarra,6,Batería,6,,,58.0,yes
183,2024-02-10_09h59.33.855,Unsyncopated_study2,s108,26.0,masculino,right,España,"Català, Castellano",Master degree,no,no,B,2,when,L4,unsyncopated,when,when,55,Online_whenL4//b.ja34.1776.wav,re,bo,da,sil,zi,bu,ña,sil1,ja,ci,sil2,['catch'],"[0.12679999999681968, 2.442399999990812]",[2.442399999990812],1.776,beat,0.6663999999908119,0.6663999999908119,"[""space"",""space""]",ja,2,,,,,,,,,,,,,,,3.0,3.0,Català,0.0,Castellano,6.0,English,6.0,5.0,4.0,yes,yes,no,Flauta,6,Guitarra,6,Batería,6,,,58.0,yes
184,2024-02-10_09h59.33.855,Unsyncopated_study2,s108,26.0,masculino,right,España,"Català, Castellano",Master degree,no,no,B,2,when,L4,unsyncopated,when,when,56,Online_whenL4//d.pe5.444.wav,bu,nu,pe,sil,ci,da,re,sil1,de,lo,sil2,['catch'],[1.3307000000027074],[1.3307000000027074],0.444,no_beat,0.8867000000027074,0.8867000000027074,"[""space""]",pe,4,,,,,,,,,,,,,,,3.0,3.0,Català,0.0,Castellano,6.0,English,6.0,5.0,4.0,yes,yes,no,Flauta,6,Guitarra,6,Batería,6,,,58.0,yes
185,2024-02-10_09h59.33.855,Unsyncopated_study2,s108,26.0,masculino,right,España,"Català, Castellano",Master degree,no,no,B,2,when,L4,unsyncopated,when,when,57,Online_whenL4//d.pe6.1110.wav,da,lo,nu,sil,po,pe,ci,sil1,bo,ña,sil2,['catch'],[1.8865999999943597],[1.8865999999943597],1.11,no_beat,0.7765999999943596,0.7765999999943596,"[""space""]",pe,4,,,,,,,,,,,,,,,3.0,3.0,Català,0.0,Castellano,6.0,English,6.0,5.0,4.0,yes,yes,no,Flauta,6,Guitarra,6,Batería,6,,,58.0,yes
186,2024-02-10_09h59.33.855,Unsyncopated_study2,s108,26.0,masculino,right,España,"Català, Castellano",Master degree,no,no,B,2,when,L4,unsyncopated,when,when,58,Online_whenL4//d.pe7.1998.wav,da,lo,ña,sil,bu,ñi,ru,sil1,ja,pe,sil2,['catch_delay'],[0.8682999999967398],[0.8682999999967398],1.998,no_beat,0.8682999999967398,0.8682999999967398,,pe,4,,,,,,,,,,,,,,,3.0,3.0,Català,0.0,Castellano,6.0,English,6.0,5.0,4.0,yes,yes,no,Flauta,6,Guitarra,6,Batería,6,,,58.0,yes
187,2024-02-10_09h59.33.855,Unsyncopated_study2,s108,26.0,masculino,right,España,"Català, Castellano",Master degree,no,no,B,2,when,L4,unsyncopated,when,when,59,Online_whenL4//d.pe4.1110.wav,da,ru,ja,sil,nu,pe,ña,sil1,ñi,de,sil2,['catch'],"[0.20229999999673964, 2.204399999990983]",[2.204399999990983],1.11,no_beat,1.0943999999909828,1.0943999999909828,"[""space"",""space""]",pe,4,,,,,,,,,,,,,,,3.0,3.0,Català,0.0,Castellano,6.0,English,6.0,5.0,4.0,yes,yes,no,Flauta,6,Guitarra,6,Batería,6,,,58.0,yes
188,2024-02-10_09h59.33.855,Unsyncopated_study2,s108,26.0,masculino,right,España,"Català, Castellano",Master degree,no,no,B,2,when,L4,unsyncopated,when,when,60,Online_whenL4//b.ja11.444.wav,po,da,ja,sil,nu,ru,bo,sil1,pe,de,sil2,['catch'],[1.2767999999969106],[1.2767999999969106],0.444,no_beat,0.8327999999969107,0.8327999999969107,"[""space""]",ja,2,,,,,,,,,,,,,,,3.0,3.0,Català,0.0,Castellano,6.0,English,6.0,5.0,4.0,yes,yes,no,Flauta,6,Guitarra,6,Batería,6,,,58.0,yes
189,2024-02-10_09h59.33.855,Unsyncopated_study2,s108,26.0,masculino,right,España,"Català, Castellano",Master degree,no,no,B,2,when,L4,unsyncopated,when,when,61,Online_whenL4//b.ja10.none.wav,bu,lo,pe,sil,zi,po,ru,sil1,ci,de,sil2,['-'],,,none,none,,,,ja,2,,,,,,,,,,,,,,,3.0,3.0,Català,0.0,Castellano,6.0,English,6.0,5.0,4.0,yes,yes,no,Flauta,6,Guitarra,6,Batería,6,,,58.0,yes
190,2024-02-10_09h59.33.855,Unsyncopated_study2,s108,26.0,masculino,right,España,"Català, Castellano",Master degree,no,no,B,2,when,L4,unsyncopated,when,when,62,Online_whenL4//b.ja9.0.wav,ja,ci,re,sil,de,zi,pe,sil1,po,bu,sil2,['catch'],[0.6418999999909829],[0.6418999999909829],0.0,beat,0.6418999999909829,0.6418999999909829,"[""space""]",ja,2,,,,,,,,,,,,,,,3.0,3.0,Català,0.0,Castellano,6.0,English,6.0,5.0,4.0,yes,yes,no,Flauta,6,Guitarra,6,Batería,6,,,58.0,yes
191,2024-02-10_09h59.33.855,Unsyncopated_study2,s108,26.0,masculino,right,España,"Català, Castellano",Master degree,no,no,B,2,when,L4,unsyncopated,when,when,63,Online_whenL4//b.ja8.1998.wav,nu,de,da,sil,re,pe,ña,sil1,bu,ja,sil2,['catch'],[2.6202999999968597],[2.6202999999968597],1.998,no_beat,0.6222999999968597,0.6222999999968597,"[""space""]",ja,2,,,,,,,,,,,,,,,3.0,3.0,Català,0.0,Castellano,6.0,English,6.0,5.0,4.0,yes,yes,no,Flauta,6,Guitarra,6,Batería,6,,,58.0,yes
192,2024-02-10_09h59.33.855,Unsyncopated_study2,s108,26.0,masculino,right,España,"Català, Castellano",Master degree,no,no,B,2,when,L4,unsyncopated,when,when,64,Online_whenL4//c.bu26.none.wav,po,da,ña,sil,zi,ru,lo,sil1,ci,re,sil2,['-'],,,none,none,,,,bu,3,,,,,,,,,,,,,,,3.0,3.0,Català,0.0,Castellano,6.0,English,6.0,5.0,4.0,yes,yes,no,Flauta,6,Guitarra,6,Batería,6,,,58.0,yes
193,2024-02-10_09h59.33.855,Unsyncopated_study2,s108,26.0,masculino,right,España,"Català, Castellano",Master degree,no,no,B,2,when,L4,unsyncopated,when,when,65,Online_whenL4//c.bu27.0.wav,bu,de,zi,sil,ja,da,ru,sil1,bo,po,sil2,['catch'],[1.0443000000118445],[1.0443000000118445],0.0,beat,1.0443000000118443,1.0443000000118443,"[""space""]",bu,3,,,,,,,,,,,,,,,3.0,3.0,Català,0.0,Castellano,6.0,English,6.0,5.0,4.0,yes,yes,no,Flauta,6,Guitarra,6,Batería,6,,,58.0,yes
194,2024-02-10_09h59.33.855,Unsyncopated_study2,s108,26.0,masculino,right,España,"Català, Castellano",Master degree,no,no,B,2,when,L4,unsyncopated,when,when,66,Online_whenL4//c.bu24.1998.wav,lo,po,ci,sil,nu,re,ñi,sil1,pe,bu,sil2,['miss'],,,1.998,no_beat,,,,bu,3,,,,,,,,,,,,,,,3.0,3.0,Català,0.0,Castellano,6.0,English,6.0,5.0,4.0,yes,yes,no,Flauta,6,Guitarra,6,Batería,6,,,58.0,yes
195,2024-02-10_09h59.33.855,Unsyncopated_study2,s108,26.0,masculino,right,España,"Català, Castellano",Master degree,no,no,B,2,when,L4,unsyncopated,when,when,67,Online_whenL4//c.bu25.222.wav,ña,bu,de,sil,da,po,lo,sil1,ja,pe,sil2,['catch'],[1.2384999999999309],[1.2384999999999309],0.222,no_beat,1.016499999999931,1.016499999999931,"[""space""]",bu,3,,,,,,,,,,,,,,,3.0,3.0,Català,0.0,Castellano,6.0,English,6.0,5.0,4.0,yes,yes,no,Flauta,6,Guitarra,6,Batería,6,,,58.0,yes
196,2024-02-10_09h59.33.855,Unsyncopated_study2,s108,26.0,masculino,right,España,"Català, Castellano",Master degree,no,no,B,2,when,L4,unsyncopated,when,when,68,Online_whenL4//d.pe11.none.wav,re,da,zi,sil,bu,lo,ña,sil1,ci,po,sil2,['-'],,,none,none,,,,pe,4,,,,,,,,,,,,,,,3.0,3.0,Català,0.0,Castellano,6.0,English,6.0,5.0,4.0,yes,yes,no,Flauta,6,Guitarra,6,Batería,6,,,58.0,yes
197,2024-02-10_09h59.33.855,Unsyncopated_study2,s108,26.0,masculino,right,España,"Català, Castellano",Master degree,no,no,B,2,when,L4,unsyncopated,when,when,69,Online_whenL4//d.pe8.1998.wav,bo,ru,ña,sil,nu,ñi,ja,sil1,po,pe,sil2,['catch_delay'],[0.9651000000088208],[0.9651000000088208],1.998,no_beat,0.9651000000088208,0.9651000000088208,,pe,4,,,,,,,,,,,,,,,3.0,3.0,Català,0.0,Castellano,6.0,English,6.0,5.0,4.0,yes,yes,no,Flauta,6,Guitarra,6,Batería,6,,,58.0,yes
198,2024-02-10_09h59.33.855,Unsyncopated_study2,s108,26.0,masculino,right,España,"Català, Castellano",Master degree,no,no,B,2,when,L4,unsyncopated,when,when,70,Online_whenL4//d.pe9.none.wav,de,bu,da,sil,zi,ña,nu,sil1,ci,re,sil2,['-'],[0.29910000000882064],[0.29910000000882064],none,none,,,"[""space""]",pe,4,,,,,,,,,,,,,,,3.0,3.0,Català,0.0,Castellano,6.0,English,6.0,5.0,4.0,yes,yes,no,Flauta,6,Guitarra,6,Batería,6,,,58.0,yes
199,2024-02-10_09h59.33.855,Unsyncopated_study2,s108,26.0,masculino,right,España,"Català, Castellano",Master degree,no,no,B,2,when,L4,unsyncopated,when,when,71,Online_whenL4//d.pe10.888.wav,da,zi,po,sil,pe,lo,ru,sil1,ci,re,sil2,['catch'],[2.3463999999908083],[2.3463999999908083],0.888,beat,,1.4583999999908084,"[""space""]",pe,4,,,,,,,,,,,,,,,3.0,3.0,Català,0.0,Castellano,6.0,English,6.0,5.0,4.0,yes,yes,no,Flauta,6,Guitarra,6,Batería,6,,,58.0,yes
200,2024-02-10_09h59.33.855,Unsyncopated_study2,s108,26.0,masculino,right,España,"Català, Castellano",Master degree,no,no,B,2,when,L4,unsyncopated,when,when,72,Online_whenL4//d.pe2.none.wav,ñi,ña,ru,sil,nu,da,po,sil1,de,ja,sil2,['false alarm'],[0.2627999999972417],[0.2627999999972417],none,none,,,"[""space""]",pe,4,,,,,,,,,,,,,,,3.0,3.0,Català,0.0,Castellano,6.0,English,6.0,5.0,4.0,yes,yes,no,Flauta,6,Guitarra,6,Batería,6,,,58.0,yes
201,2024-02-10_09h59.33.855,Unsyncopated_study2,s108,26.0,masculino,right,España,"Català, Castellano",Master degree,no,no,B,2,when,L4,unsyncopated,when,when,73,Online_whenL4//d.pe1.222.wav,bo,pe,bu,sil,ja,ña,ru,sil1,ñi,nu,sil2,['catch'],[1.0002999999969688],[1.0002999999969688],0.222,no_beat,0.7782999999969689,0.7782999999969689,"[""space""]",pe,4,,,,,,,,,,,,,,,3.0,3.0,Català,0.0,Castellano,6.0,English,6.0,5.0,4.0,yes,yes,no,Flauta,6,Guitarra,6,Batería,6,,,58.0,yes
202,2024-02-10_09h59.33.855,Unsyncopated_study2,s108,26.0,masculino,right,España,"Català, Castellano",Master degree,no,no,B,2,when,L4,unsyncopated,when,when,74,Online_whenL4//d.pe0.none.wav,ja,zi,ñi,sil,ru,ci,ña,sil1,da,bu,sil2,['-'],,,none,none,,,,pe,4,,,,,,,,,,,,,,,3.0,3.0,Català,0.0,Castellano,6.0,English,6.0,5.0,4.0,yes,yes,no,Flauta,6,Guitarra,6,Batería,6,,,58.0,yes
203,2024-02-10_09h59.33.855,Unsyncopated_study2,s108,26.0,masculino,right,España,"Català, Castellano",Master degree,no,no,B,2,when,L4,unsyncopated,when,when,75,Online_whenL4//d.pe3.888.wav,nu,bo,de,sil,pe,bu,po,sil1,da,zi,sil2,['catch'],[1.5736000000092645],[1.5736000000092645],0.888,beat,0.6856000000092645,0.6856000000092645,"[""space""]",pe,4,,,,,,,,,,,,,,,3.0,3.0,Català,0.0,Castellano,6.0,English,6.0,5.0,4.0,yes,yes,no,Flauta,6,Guitarra,6,Batería,6,,,58.0,yes
204,2024-02-10_09h59.33.855,Unsyncopated_study2,s108,26.0,masculino,right,España,"Català, Castellano",Master degree,no,no,B,2,when,L4,unsyncopated,when,when,76,Online_whenL4//c.bu13.none.wav,bo,po,pe,sil,ja,ña,da,sil1,lo,de,sil2,['-'],,,none,none,,,,bu,3,,,,,,,,,,,,,,,3.0,3.0,Català,0.0,Castellano,6.0,English,6.0,5.0,4.0,yes,yes,no,Flauta,6,Guitarra,6,Batería,6,,,58.0,yes
205,2024-02-10_09h59.33.855,Unsyncopated_study2,s108,26.0,masculino,right,España,"Català, Castellano",Master degree,no,no,B,2,when,L4,unsyncopated,when,when,77,Online_whenL4//c.bu15.1776.wav,zi,re,po,sil,pe,ña,lo,sil1,bu,bo,sil2,['catch'],[2.5359000000057677],[2.5359000000057677],1.776,beat,0.7599000000057676,0.7599000000057676,"[""space""]",bu,3,,,,,,,,,,,,,,,3.0,3.0,Català,0.0,Castellano,6.0,English,6.0,5.0,4.0,yes,yes,no,Flauta,6,Guitarra,6,Batería,6,,,58.0,yes
206,2024-02-10_09h59.33.855,Unsyncopated_study2,s108,26.0,masculino,right,España,"Català, Castellano",Master degree,no,no,B,2,when,L4,unsyncopated,when,when,78,Online_whenL4//c.bu14.none.wav,zi,ñi,ja,sil,re,da,de,sil1,ru,bo,sil2,['-'],,,none,none,,,,bu,3,,,,,,,,,,,,,,,3.0,3.0,Català,0.0,Castellano,6.0,English,6.0,5.0,4.0,yes,yes,no,Flauta,6,Guitarra,6,Batería,6,,,58.0,yes
207,2024-02-10_09h59.33.855,Unsyncopated_study2,s108,26.0,masculino,right,España,"Català, Castellano",Master degree,no,no,B,2,when,L4,unsyncopated,when,when,79,Online_whenL4//c.bu12.444.wav,ña,nu,bu,sil,bo,ñi,da,sil1,ru,lo,sil2,['miss'],,,0.444,no_beat,,,,bu,3,,,,,,,,,,,,,,,3.0,3.0,Català,0.0,Castellano,6.0,English,6.0,5.0,4.0,yes,yes,no,Flauta,6,Guitarra,6,Batería,6,,,58.0,yes
