Unnamed: 0,date,expName,participant,age,sex,hand,residence,native_lang,education_level,lang_deficit,aud_deficit,group,block,condition,language,rhythm,rule structure online,rule type online,order_trial_on,trial_online,s1,s2,s3,s4,s5,s6,s7,s8,s9,s10,s11,catch_syll_resp,rts_syll_catch,clean_rts,time_syll,beat_no_beat,catch_rtsTR,catch_rts,syllable_catch.keys,cond_syll,syll_to_catch,test_offline,block_off,condition_off,rhythm_off,rule,rule_str_off,rule_norule,conds_offline,language_off,Partz_no_partm.keys,Partz_no_partm.rt,security_1_7.keys,accuracy,security_1_7.rt,n_lang,n_lang_used,lang_1,age_l1,lang_2,age_l2,lang_3,age_l3,lang_4,age_l4,lang_5,age_l5,lang_6,age_l6,ability_learn_l2,tendence_mix_lan,music_experience,muisc_use,partiture,instr_1,age_M1,preguntas_musica1,BMRQ_answer.response,final comment,BMRQ_Score,bilingual
0,2024-03-12_19h11.04.864,Unsyncopated_study3,s141,21.0,masculino,right,España,Catalán y castellano,Upper secondary,no,no,B,1,conjunction_syn,L2,syncopated,s2,r1,0,Online_conjL2_syn//b.fe.ra24.none.none.wav,ñu,me,cha,go,sil,ba,to,du,sil1,si,sil2,['-'],,,none,none,,,,ra,2,testConjL2Syn//r1.s1.0.wav,1.0,conjunction_syn,syncopated,a,s1,rule,rule,L2,z,2.5161,5.0,1.0,2.6369,6.0,2.0,Catalán,0.0,Castellano,0.0,Francés,4.0,Inglés,5.0,Chino,14.0,Italiano,21.0,5.0,1.0,yes,no,yes,Piano,5,1. Cuando comparto música con alguien siento una complicidad especial con aquella persona.,4.0,"No ha ocurrido nada, todo ha ido muy bien. Solamente querría comentar que me ha salido una ventana emergente de la actualización del sistema durante una fase 3 no recuerdo de qué lenguaje.",51.0,yes
1,2024-03-12_19h11.04.864,Unsyncopated_study3,s141,21.0,masculino,right,España,Catalán y castellano,Upper secondary,no,no,B,1,conjunction_syn,L2,syncopated,s1,r2,1,Online_conjL2_syn//b.fe.ra27.0.666.wav,fe,ñu,si,ra,sil,ño,to,te,sil1,su,sil2,['catch'],[1.0432999999969752],[1.0432999999969752],0.666,no_beat,0.3772999999969751,0.3772999999969751,"[""space""]",ra,2,testConjL2Syn//r2.s1.2.wav,1.0,conjunction_syn,syncopated,b,s1,rule,rule,L2,m,1.1868,5.0,0.0,3.918,6.0,2.0,Catalán,0.0,Castellano,0.0,Francés,4.0,Inglés,5.0,Chino,14.0,Italiano,21.0,5.0,1.0,yes,no,yes,Piano,5,2. En mi tiempo libre apenas escucho música.,4.0,"No ha ocurrido nada, todo ha ido muy bien. Solamente querría comentar que me ha salido una ventana emergente de la actualización del sistema durante una fase 3 no recuerdo de qué lenguaje.",51.0,yes
2,2024-03-12_19h11.04.864,Unsyncopated_study3,s141,21.0,masculino,right,España,Catalán y castellano,Upper secondary,no,no,B,1,conjunction_syn,L2,syncopated,s1,r1,2,Online_conjL2_syn//b.fe.ra26.none.none.wav,go,ño,mi,du,sil,me,si,bi,sil1,ba,sil2,['-'],,,none,none,,,,ra,2,testConjL2Syn//dep_viol.r2.s2.0.wav,1.0,conjunction_syn,syncopated,b,s2,no_rule,dep,L2,m,2.3022,3.0,1.0,1.9884,6.0,2.0,Catalán,0.0,Castellano,0.0,Francés,4.0,Inglés,5.0,Chino,14.0,Italiano,21.0,5.0,1.0,yes,no,yes,Piano,5,3. Algunas canciones me ponen los pelos de punta,3.0,"No ha ocurrido nada, todo ha ido muy bien. Solamente querría comentar que me ha salido una ventana emergente de la actualización del sistema durante una fase 3 no recuerdo de qué lenguaje.",51.0,yes
3,2024-03-12_19h11.04.864,Unsyncopated_study3,s141,21.0,masculino,right,España,Catalán y castellano,Upper secondary,no,no,B,1,conjunction_syn,L2,syncopated,s1,r1,3,Online_conjL2_syn//b.fe.ra25.none.none.wav,go,to,mi,du,sil,me,ba,si,sil1,su,sil2,['-'],,,none,none,,,,ra,2,testConjL2Syn//cat_viol.r1.s2.0.wav,1.0,conjunction_syn,syncopated,a,s2,no_rule,cat,L2,z,1.1595,6.0,0.0,1.4679,6.0,2.0,Catalán,0.0,Castellano,0.0,Francés,4.0,Inglés,5.0,Chino,14.0,Italiano,21.0,5.0,1.0,yes,no,yes,Piano,5,4. La música me hace compañía cuando estoy solo,0.0,"No ha ocurrido nada, todo ha ido muy bien. Solamente querría comentar que me ha salido una ventana emergente de la actualización del sistema durante una fase 3 no recuerdo de qué lenguaje.",51.0,yes
4,2024-03-12_19h11.04.864,Unsyncopated_study3,s141,21.0,masculino,right,España,Catalán y castellano,Upper secondary,no,no,B,1,conjunction_syn,L2,syncopated,s2,r2,4,Online_conjL2_syn//c.cha.me9.none.none.wav,ño,mi,to,fe,sil,si,te,ra,sil1,ñu,sil2,['false alarm'],[0.4089999999999918],[0.4089999999999918],none,none,,,"[""space""]",me,3,testConjL2Syn//dep_viol.r2.s1.0.wav,1.0,conjunction_syn,syncopated,b,s1,no_rule,dep,L2,m,4.9018,4.0,1.0,2.0854,6.0,2.0,Catalán,0.0,Castellano,0.0,Francés,4.0,Inglés,5.0,Chino,14.0,Italiano,21.0,5.0,1.0,yes,no,yes,Piano,5,5. No me apetece bailar ni con la música que más me gusta,5.0,"No ha ocurrido nada, todo ha ido muy bien. Solamente querría comentar que me ha salido una ventana emergente de la actualización del sistema durante una fase 3 no recuerdo de qué lenguaje.",51.0,yes
5,2024-03-12_19h11.04.864,Unsyncopated_study3,s141,21.0,masculino,right,España,Catalán y castellano,Upper secondary,no,no,B,1,conjunction_syn,L2,syncopated,s2,r2,5,Online_conjL2_syn//c.cha.me8.222.1110.wav,si,cha,to,fe,sil,me,ba,ra,sil1,ñu,sil2,['catch'],[1.5257000000029848],[1.5257000000029848],1.11,no_beat,0.4157000000029847,0.4157000000029847,"[""space""]",me,3,testConjL2Syn//r2.s2.1.wav,1.0,conjunction_syn,syncopated,b,s2,rule,rule,L2,m,1.0986,7.0,0.0,2.4697,6.0,2.0,Catalán,0.0,Castellano,0.0,Francés,4.0,Inglés,5.0,Chino,14.0,Italiano,21.0,5.0,1.0,yes,no,yes,Piano,5,6. La música me hace conectar con la gente,4.0,"No ha ocurrido nada, todo ha ido muy bien. Solamente querría comentar que me ha salido una ventana emergente de la actualización del sistema durante una fase 3 no recuerdo de qué lenguaje.",51.0,yes
6,2024-03-12_19h11.04.864,Unsyncopated_study3,s141,21.0,masculino,right,España,Catalán y castellano,Upper secondary,no,no,B,1,conjunction_syn,L2,syncopated,s1,r2,6,Online_conjL2_syn//c.cha.me11.1554.1110.wav,fe,mi,ñu,ra,sil,me,si,cha,sil1,ba,sil2,['catch'],[1.5225999999939859],[1.5225999999939859],1.11,no_beat,0.4125999999939858,0.4125999999939858,"[""space""]",me,3,testConjL2Syn//r1.s1.1.wav,1.0,conjunction_syn,syncopated,a,s1,rule,rule,L2,z,0.6852,6.0,1.0,1.3893,6.0,2.0,Catalán,0.0,Castellano,0.0,Francés,4.0,Inglés,5.0,Chino,14.0,Italiano,21.0,5.0,1.0,yes,no,yes,Piano,5,7. Me informo sobre la música que me gusta.,3.0,"No ha ocurrido nada, todo ha ido muy bien. Solamente querría comentar que me ha salido una ventana emergente de la actualización del sistema durante una fase 3 no recuerdo de qué lenguaje.",51.0,yes
7,2024-03-12_19h11.04.864,Unsyncopated_study3,s141,21.0,masculino,right,España,Catalán y castellano,Upper secondary,no,no,B,1,conjunction_syn,L2,syncopated,s1,r1,7,Online_conjL2_syn//c.cha.me10.none.none.wav,go,te,bi,du,sil,si,ño,ba,sil1,to,sil2,['-'],,,none,none,,,,me,3,testConjL2Syn//r1.s1.2.wav,1.0,conjunction_syn,syncopated,a,s1,rule,rule,L2,z,3.3039,3.0,1.0,1.0696,6.0,2.0,Catalán,0.0,Castellano,0.0,Francés,4.0,Inglés,5.0,Chino,14.0,Italiano,21.0,5.0,1.0,yes,no,yes,Piano,5,8.Me emociono escuchando ciertas canciones.,3.0,"No ha ocurrido nada, todo ha ido muy bien. Solamente querría comentar que me ha salido una ventana emergente de la actualización del sistema durante una fase 3 no recuerdo de qué lenguaje.",51.0,yes
8,2024-03-12_19h11.04.864,Unsyncopated_study3,s141,21.0,masculino,right,España,Catalán y castellano,Upper secondary,no,no,B,1,conjunction_syn,L2,syncopated,s2,r2,8,Online_conjL2_syn//b.fe.ra9.666.1554.wav,cha,to,bi,fe,sil,ñu,me,ra,sil1,ño,sil2,['catch'],[1.9842000000030566],[1.9842000000030566],1.554,no_beat,0.4302000000030566,0.4302000000030566,"[""space""]",ra,2,testConjL2Syn//cat_viol.r2.s1.0.wav,1.0,conjunction_syn,syncopated,b,s1,no_rule,cat,L2,z,5.1874,2.0,0.0,1.1509,6.0,2.0,Catalán,0.0,Castellano,0.0,Francés,4.0,Inglés,5.0,Chino,14.0,Italiano,21.0,5.0,1.0,yes,no,yes,Piano,5,9.La música me tranquiliza y me relaja.,3.0,"No ha ocurrido nada, todo ha ido muy bien. Solamente querría comentar que me ha salido una ventana emergente de la actualización del sistema durante una fase 3 no recuerdo de qué lenguaje.",51.0,yes
9,2024-03-12_19h11.04.864,Unsyncopated_study3,s141,21.0,masculino,right,España,Catalán y castellano,Upper secondary,no,no,B,1,conjunction_syn,L2,syncopated,s1,r2,9,Online_conjL2_syn//b.fe.ra10.0.666.wav,fe,bi,cha,ra,sil,si,te,su,sil1,ba,sil2,['catch'],[1.2055999999940923],[1.2055999999940923],0.666,no_beat,0.5395999999940922,0.5395999999940922,"[""space""]",ra,2,testConjL2Syn//time_viol.r2.s2.0.wav,1.0,conjunction_syn,syncopated,b,s2,no_rule,time,L2,z,0.8326,5.0,0.0,0.4896,6.0,2.0,Catalán,0.0,Castellano,0.0,Francés,4.0,Inglés,5.0,Chino,14.0,Italiano,21.0,5.0,1.0,yes,no,yes,Piano,5,10.La música me hace bailar,3.0,"No ha ocurrido nada, todo ha ido muy bien. Solamente querría comentar que me ha salido una ventana emergente de la actualización del sistema durante una fase 3 no recuerdo de qué lenguaje.",51.0,yes
10,2024-03-12_19h11.04.864,Unsyncopated_study3,s141,21.0,masculino,right,España,Catalán y castellano,Upper secondary,no,no,B,1,conjunction_syn,L2,syncopated,s2,r2,10,Online_conjL2_syn//b.fe.ra8.666.1554.wav,to,mi,ño,fe,sil,cha,te,ra,sil1,me,sil2,['catch'],[1.9925999999940132],[1.9925999999940132],1.554,no_beat,0.4385999999940131,0.4385999999940131,"[""space""]",ra,2,testConjL2Syn//r2.s1.0.wav,1.0,conjunction_syn,syncopated,b,s1,rule,rule,L2,m,0.6697,2.0,0.0,1.4876,6.0,2.0,Catalán,0.0,Castellano,0.0,Francés,4.0,Inglés,5.0,Chino,14.0,Italiano,21.0,5.0,1.0,yes,no,yes,Piano,5,11.Busco novedades musicales continuamente,1.0,"No ha ocurrido nada, todo ha ido muy bien. Solamente querría comentar que me ha salido una ventana emergente de la actualización del sistema durante una fase 3 no recuerdo de qué lenguaje.",51.0,yes
11,2024-03-12_19h11.04.864,Unsyncopated_study3,s141,21.0,masculino,right,España,Catalán y castellano,Upper secondary,no,no,B,1,conjunction_syn,L2,syncopated,s1,r2,11,Online_conjL2_syn//b.fe.ra11.0.666.wav,fe,to,bi,ra,sil,mi,me,ñu,sil1,ba,sil2,['catch'],[1.0410000000000537],[1.0410000000000537],0.666,no_beat,0.3750000000000536,0.3750000000000536,"[""space""]",ra,2,testConjL2Syn//time_viol.r1.s1.0.wav,1.0,conjunction_syn,syncopated,a,s1,no_rule,time,L2,m,2.5358,5.0,1.0,0.6033,6.0,2.0,Catalán,0.0,Castellano,0.0,Francés,4.0,Inglés,5.0,Chino,14.0,Italiano,21.0,5.0,1.0,yes,no,yes,Piano,5,12. Puedo llorar cuando escucho algunas melodías que me gustan mucho.,1.0,"No ha ocurrido nada, todo ha ido muy bien. Solamente querría comentar que me ha salido una ventana emergente de la actualización del sistema durante una fase 3 no recuerdo de qué lenguaje.",51.0,yes
12,2024-03-12_19h11.04.864,Unsyncopated_study3,s141,21.0,masculino,right,España,Catalán y castellano,Upper secondary,no,no,B,1,conjunction_syn,L2,syncopated,s1,r2,12,Online_conjL2_syn//c.cha.me27.none.none.wav,fe,si,su,ra,sil,ño,to,ñu,sil1,ba,sil2,['-'],,,none,none,,,,me,3,testConjL2Syn//r2.s2.0.wav,1.0,conjunction_syn,syncopated,b,s2,rule,rule,L2,z,1.5087,4.0,1.0,0.8525,6.0,2.0,Catalán,0.0,Castellano,0.0,Francés,4.0,Inglés,5.0,Chino,14.0,Italiano,21.0,5.0,1.0,yes,no,yes,Piano,5,13. Me gusta cantar o tocar un instrumento con más gente,3.0,"No ha ocurrido nada, todo ha ido muy bien. Solamente querría comentar que me ha salido una ventana emergente de la actualización del sistema durante una fase 3 no recuerdo de qué lenguaje.",51.0,yes
13,2024-03-12_19h11.04.864,Unsyncopated_study3,s141,21.0,masculino,right,España,Catalán y castellano,Upper secondary,no,no,B,1,conjunction_syn,L2,syncopated,s2,r1,13,Online_conjL2_syn//c.cha.me25.222.1110.wav,mi,cha,ñu,go,sil,me,ño,du,sil1,bi,sil2,['catch'],[1.8563000000118564],[1.8563000000118564],1.11,no_beat,0.7463000000118563,0.7463000000118563,"[""space""]",me,3,testConjL2Syn//r1.s2.0.wav,1.0,conjunction_syn,syncopated,a,s2,rule,rule,L2,m,0.355,6.0,0.0,4.6541,6.0,2.0,Catalán,0.0,Castellano,0.0,Francés,4.0,Inglés,5.0,Chino,14.0,Italiano,21.0,5.0,1.0,yes,no,yes,Piano,5,14. La música me ayuda a desconectar.,3.0,"No ha ocurrido nada, todo ha ido muy bien. Solamente querría comentar que me ha salido una ventana emergente de la actualización del sistema durante una fase 3 no recuerdo de qué lenguaje.",51.0,yes
14,2024-03-12_19h11.04.864,Unsyncopated_study3,s141,21.0,masculino,right,España,Catalán y castellano,Upper secondary,no,no,B,1,conjunction_syn,L2,syncopated,s1,r1,14,Online_conjL2_syn//c.cha.me26.1332.222.wav,go,me,si,du,sil,ño,cha,su,sil1,ba,sil2,['catch'],[0.7817000000029566],[0.7817000000029566],0.222,no_beat,0.5597000000029566,0.5597000000029566,"[""space""]",me,3,testConjL2Syn//dep_viol.r1.s1.0.wav,1.0,conjunction_syn,syncopated,a,s1,no_rule,dep,L2,z,1.0859,5.0,0.0,0.6988,6.0,2.0,Catalán,0.0,Castellano,0.0,Francés,4.0,Inglés,5.0,Chino,14.0,Italiano,21.0,5.0,1.0,yes,no,yes,Piano,5,15. No puedo evitar tararear las canciones que me gustan cuando las escucho.,3.0,"No ha ocurrido nada, todo ha ido muy bien. Solamente querría comentar que me ha salido una ventana emergente de la actualización del sistema durante una fase 3 no recuerdo de qué lenguaje.",51.0,yes
15,2024-03-12_19h11.04.864,Unsyncopated_study3,s141,21.0,masculino,right,España,Catalán y castellano,Upper secondary,no,no,B,1,conjunction_syn,L2,syncopated,s1,r2,15,Online_conjL2_syn//c.cha.me24.none.none.wav,fe,ba,su,ra,sil,ñu,to,ño,sil1,si,sil2,['-'],,,none,none,,,,me,3,testConjL2Syn//r1.s2.2.wav,1.0,conjunction_syn,syncopated,a,s2,rule,rule,L2,z,4.2541,3.0,1.0,2.2834,6.0,2.0,Catalán,0.0,Castellano,0.0,Francés,4.0,Inglés,5.0,Chino,14.0,Italiano,21.0,5.0,1.0,yes,no,yes,Piano,5,16. En los conciertos me siento en sintonía con los artistas y el público.,3.0,"No ha ocurrido nada, todo ha ido muy bien. Solamente querría comentar que me ha salido una ventana emergente de la actualización del sistema durante una fase 3 no recuerdo de qué lenguaje.",51.0,yes
16,2024-03-12_19h11.04.864,Unsyncopated_study3,s141,21.0,masculino,right,España,Catalán y castellano,Upper secondary,no,no,B,1,conjunction_syn,L2,syncopated,s2,r1,16,Online_conjL2_syn//d.si.ñu10.none.none.wav,ño,te,me,go,sil,su,to,du,sil1,ba,sil2,['false alarm'],[0.7827000000030466],[0.7827000000030466],none,none,,,"[""space""]",ñu,4,testConjL2Syn//r2.s1.1.wav,1.0,conjunction_syn,syncopated,b,s1,rule,rule,L2,z,0.8506,6.0,1.0,0.5844,6.0,2.0,Catalán,0.0,Castellano,0.0,Francés,4.0,Inglés,5.0,Chino,14.0,Italiano,21.0,5.0,1.0,yes,no,yes,Piano,5,17. Me gasto bastante dinero en música y cosas relacionadas con la música.,0.0,"No ha ocurrido nada, todo ha ido muy bien. Solamente querría comentar que me ha salido una ventana emergente de la actualización del sistema durante una fase 3 no recuerdo de qué lenguaje.",51.0,yes
17,2024-03-12_19h11.04.864,Unsyncopated_study3,s141,21.0,masculino,right,España,Catalán y castellano,Upper secondary,no,no,B,1,conjunction_syn,L2,syncopated,s1,r2,17,Online_conjL2_syn//d.si.ñu11.none.none.wav,fe,me,ño,ra,sil,su,to,cha,sil1,bi,sil2,['false alarm'],[0.965099999994095],[0.965099999994095],none,none,,,"[""space""]",ñu,4,testConjL2Syn//cat_viol.r2.s2.0.wav,1.0,conjunction_syn,syncopated,b,s2,no_rule,cat,L2,z,1.3064,6.0,0.0,0.7405,6.0,2.0,Catalán,0.0,Castellano,0.0,Francés,4.0,Inglés,5.0,Chino,14.0,Italiano,21.0,5.0,1.0,yes,no,yes,Piano,5,18. Siento escalofríos cuando escucho una melodía que me gusta.,1.0,"No ha ocurrido nada, todo ha ido muy bien. Solamente querría comentar que me ha salido una ventana emergente de la actualización del sistema durante una fase 3 no recuerdo de qué lenguaje.",51.0,yes
18,2024-03-12_19h11.04.864,Unsyncopated_study3,s141,21.0,masculino,right,España,Catalán y castellano,Upper secondary,no,no,B,1,conjunction_syn,L2,syncopated,s1,r2,18,Online_conjL2_syn//d.si.ñu8.none.none.wav,fe,ba,bi,ra,sil,cha,ño,te,sil1,mi,sil2,['false alarm'],[1.8867000000029748],[1.8867000000029748],none,none,,,"[""space""]",ñu,4,testConjL2Syn//r1.s2.1.wav,1.0,conjunction_syn,syncopated,a,s2,rule,rule,L2,m,1.5383,4.0,0.0,2.0537,6.0,2.0,Catalán,0.0,Castellano,0.0,Francés,4.0,Inglés,5.0,Chino,14.0,Italiano,21.0,5.0,1.0,yes,no,yes,Piano,5,19. Con la música me puedo desahogar.,1.0,"No ha ocurrido nada, todo ha ido muy bien. Solamente querría comentar que me ha salido una ventana emergente de la actualización del sistema durante una fase 3 no recuerdo de qué lenguaje.",51.0,yes
19,2024-03-12_19h11.04.864,Unsyncopated_study3,s141,21.0,masculino,right,España,Catalán y castellano,Upper secondary,no,no,B,1,conjunction_syn,L2,syncopated,s1,r2,19,Online_conjL2_syn//d.si.ñu9.1110.1332.wav,fe,te,ño,ra,sil,si,ñu,bi,sil1,cha,sil2,['false alarm'],[0.9070000000000391],[0.9070000000000391],1.332,no_beat,,,"[""space""]",ñu,4,testConjL2Syn//time_viol.r2.s1.0.wav,1.0,conjunction_syn,syncopated,b,s1,no_rule,time,L2,m,0.4529,5.0,1.0,0.4032,6.0,2.0,Catalán,0.0,Castellano,0.0,Francés,4.0,Inglés,5.0,Chino,14.0,Italiano,21.0,5.0,1.0,yes,no,yes,Piano,5,20. Cuando escucho una melodía que me gusta mucho no puedo evitar mover el cuerpo.,3.0,"No ha ocurrido nada, todo ha ido muy bien. Solamente querría comentar que me ha salido una ventana emergente de la actualización del sistema durante una fase 3 no recuerdo de qué lenguaje.",51.0,yes
20,2024-03-12_19h11.04.864,Unsyncopated_study3,s141,21.0,masculino,right,España,Catalán y castellano,Upper secondary,no,no,B,1,conjunction_syn,L2,syncopated,s1,r1,20,Online_conjL2_syn//c.cha.me18.1332.222.wav,go,me,to,du,sil,te,cha,mi,sil1,si,sil2,['catch'],[0.4329999999999927],[0.4329999999999927],0.222,no_beat,0.2109999999999927,0.2109999999999927,"[""space""]",me,3,testConjL2Syn//dep_viol.r1.s2.0.wav,1.0,conjunction_syn,syncopated,a,s2,no_rule,dep,L2,z,0.3552,7.0,0.0,0.6162,6.0,2.0,Catalán,0.0,Castellano,0.0,Francés,4.0,Inglés,5.0,Chino,14.0,Italiano,21.0,5.0,1.0,yes,no,yes,Piano,5,,,"No ha ocurrido nada, todo ha ido muy bien. Solamente querría comentar que me ha salido una ventana emergente de la actualización del sistema durante una fase 3 no recuerdo de qué lenguaje.",51.0,yes
21,2024-03-12_19h11.04.864,Unsyncopated_study3,s141,21.0,masculino,right,España,Catalán y castellano,Upper secondary,no,no,B,1,conjunction_syn,L2,syncopated,s2,r1,21,Online_conjL2_syn//c.cha.me16.none.none.wav,mi,ñu,ba,go,sil,to,ño,du,sil1,si,sil2,['-'],,,none,none,,,,me,3,testConjL2Syn//time_viol.r1.s2.0.wav,1.0,conjunction_syn,syncopated,a,s2,no_rule,time,L2,z,1.9993,3.0,0.0,0.3354,6.0,2.0,Catalán,0.0,Castellano,0.0,Francés,4.0,Inglés,5.0,Chino,14.0,Italiano,21.0,5.0,1.0,yes,no,yes,Piano,5,,,"No ha ocurrido nada, todo ha ido muy bien. Solamente querría comentar que me ha salido una ventana emergente de la actualización del sistema durante una fase 3 no recuerdo de qué lenguaje.",51.0,yes
22,2024-03-12_19h11.04.864,Unsyncopated_study3,s141,21.0,masculino,right,España,Catalán y castellano,Upper secondary,no,no,B,1,conjunction_syn,L2,syncopated,s1,r2,22,Online_conjL2_syn//c.cha.me17.1110.222.wav,fe,me,ñu,ra,sil,cha,ba,mi,sil1,te,sil2,['catch'],[0.7197999999971216],[0.7197999999971216],0.222,no_beat,0.4977999999971216,0.4977999999971216,"[""space""]",me,3,testConjL2Syn//cat_viol.r1.s1.0.wav,1.0,conjunction_syn,syncopated,a,s1,no_rule,cat,L2,z,1.7355,5.0,0.0,1.0345,6.0,2.0,Catalán,0.0,Castellano,0.0,Francés,4.0,Inglés,5.0,Chino,14.0,Italiano,21.0,5.0,1.0,yes,no,yes,Piano,5,,,"No ha ocurrido nada, todo ha ido muy bien. Solamente querría comentar que me ha salido una ventana emergente de la actualización del sistema durante una fase 3 no recuerdo de qué lenguaje.",51.0,yes
23,2024-03-12_19h11.04.864,Unsyncopated_study3,s141,21.0,masculino,right,España,Catalán y castellano,Upper secondary,no,no,B,1,conjunction_syn,L2,syncopated,s2,r1,23,Online_conjL2_syn//c.cha.me19.none.none.wav,te,ño,ba,go,sil,ñu,si,du,sil1,bi,sil2,['-'],,,none,none,,,,me,3,testConjL2Syn//r2.s2.2.wav,1.0,conjunction_syn,syncopated,b,s2,rule,rule,L2,m,0.5,4.0,0.0,1.5503,6.0,2.0,Catalán,0.0,Castellano,0.0,Francés,4.0,Inglés,5.0,Chino,14.0,Italiano,21.0,5.0,1.0,yes,no,yes,Piano,5,,,"No ha ocurrido nada, todo ha ido muy bien. Solamente querría comentar que me ha salido una ventana emergente de la actualización del sistema durante una fase 3 no recuerdo de qué lenguaje.",51.0,yes
24,2024-03-12_19h11.04.864,Unsyncopated_study3,s141,21.0,masculino,right,España,Catalán y castellano,Upper secondary,no,no,B,1,conjunction_syn,L2,syncopated,s2,r1,24,Online_conjL2_syn//d.si.ñu15.none.none.wav,su,ño,ba,go,sil,bi,mi,du,sil1,to,sil2,['false alarm'],[1.448600000009037],[1.448600000009037],none,none,,,"[""space""]",ñu,4,testWhatL4Uns//r2.s2.1.wav,2.0,what,unsyncopated,b,s2,rule,rule,L4,z,1.7837,4.0,1.0,0.7118,6.0,2.0,Catalán,0.0,Castellano,0.0,Francés,4.0,Inglés,5.0,Chino,14.0,Italiano,21.0,5.0,1.0,yes,no,yes,Piano,5,,,"No ha ocurrido nada, todo ha ido muy bien. Solamente querría comentar que me ha salido una ventana emergente de la actualización del sistema durante una fase 3 no recuerdo de qué lenguaje.",51.0,yes
25,2024-03-12_19h11.04.864,Unsyncopated_study3,s141,21.0,masculino,right,España,Catalán y castellano,Upper secondary,no,no,B,1,conjunction_syn,L2,syncopated,s2,r1,25,Online_conjL2_syn//d.si.ñu13.none.none.wav,bi,te,to,go,sil,ño,cha,du,sil1,me,sil2,['false alarm'],[1.6584000000059405],[1.6584000000059405],none,none,,,"[""space""]",ñu,4,testWhatL4Uns//dep_viol.r1.s1.0.wav,2.0,what,unsyncopated,a,s1,no_rule,dep,L4,z,1.7843,3.0,0.0,0.9352,6.0,2.0,Catalán,0.0,Castellano,0.0,Francés,4.0,Inglés,5.0,Chino,14.0,Italiano,21.0,5.0,1.0,yes,no,yes,Piano,5,,,"No ha ocurrido nada, todo ha ido muy bien. Solamente querría comentar que me ha salido una ventana emergente de la actualización del sistema durante una fase 3 no recuerdo de qué lenguaje.",51.0,yes
26,2024-03-12_19h11.04.864,Unsyncopated_study3,s141,21.0,masculino,right,España,Catalán y castellano,Upper secondary,no,no,B,1,conjunction_syn,L2,syncopated,s2,r2,26,Online_conjL2_syn//d.si.ñu12.0.222.wav,si,ñu,cha,fe,sil,te,me,ra,sil1,to,sil2,['catch'],[0.8087999999970634],[0.8087999999970634],0.222,no_beat,0.5867999999970634,0.5867999999970634,"[""space""]",ñu,4,testWhatL4Uns//time_viol.r2.s2.0.wav,2.0,what,unsyncopated,b,s2,no_rule,time,L4,m,0.3859,5.0,1.0,1.3994,6.0,2.0,Catalán,0.0,Castellano,0.0,Francés,4.0,Inglés,5.0,Chino,14.0,Italiano,21.0,5.0,1.0,yes,no,yes,Piano,5,,,"No ha ocurrido nada, todo ha ido muy bien. Solamente querría comentar que me ha salido una ventana emergente de la actualización del sistema durante una fase 3 no recuerdo de qué lenguaje.",51.0,yes
27,2024-03-12_19h11.04.864,Unsyncopated_study3,s141,21.0,masculino,right,España,Catalán y castellano,Upper secondary,no,no,B,1,conjunction_syn,L2,syncopated,s1,r2,27,Online_conjL2_syn//d.si.ñu14.none.none.wav,fe,cha,bi,ra,sil,to,mi,me,sil1,ba,sil2,['-'],,,none,none,,,,ñu,4,testWhatL4Uns//r1.s1.0.wav,2.0,what,unsyncopated,a,s1,rule,rule,L4,z,0.4826,6.0,1.0,0.0848,6.0,2.0,Catalán,0.0,Castellano,0.0,Francés,4.0,Inglés,5.0,Chino,14.0,Italiano,21.0,5.0,1.0,yes,no,yes,Piano,5,,,"No ha ocurrido nada, todo ha ido muy bien. Solamente querría comentar que me ha salido una ventana emergente de la actualización del sistema durante una fase 3 no recuerdo de qué lenguaje.",51.0,yes
28,2024-03-12_19h11.04.864,Unsyncopated_study3,s141,21.0,masculino,right,España,Catalán y castellano,Upper secondary,no,no,B,1,conjunction_syn,L2,syncopated,s1,r2,28,Online_conjL2_syn//d.si.ñu28.1554.1110.wav,fe,te,su,ra,sil,ñu,bi,si,sil1,mi,sil2,['catch'],[1.5819999999999936],[1.5819999999999936],1.11,no_beat,0.4719999999999935,0.4719999999999935,"[""space""]",ñu,4,testWhatL4Uns//r2.s1.0.wav,2.0,what,unsyncopated,b,s1,rule,rule,L4,m,0.8203,2.0,0.0,0.6686,6.0,2.0,Catalán,0.0,Castellano,0.0,Francés,4.0,Inglés,5.0,Chino,14.0,Italiano,21.0,5.0,1.0,yes,no,yes,Piano,5,,,"No ha ocurrido nada, todo ha ido muy bien. Solamente querría comentar que me ha salido una ventana emergente de la actualización del sistema durante una fase 3 no recuerdo de qué lenguaje.",51.0,yes
29,2024-03-12_19h11.04.864,Unsyncopated_study3,s141,21.0,masculino,right,España,Catalán y castellano,Upper secondary,no,no,B,1,conjunction_syn,L2,syncopated,s1,r1,29,Online_conjL2_syn//d.si.ñu30.222.1332.wav,go,si,te,du,sil,ño,ñu,mi,sil1,bi,sil2,['catch'],[1.3783000000119046],[1.3783000000119046],1.332,no_beat,0.0463000000119044,0.0463000000119044,"[""space""]",ñu,4,testWhatL4Uns//r2.s2.2.wav,2.0,what,unsyncopated,b,s2,rule,rule,L4,m,1.6712,5.0,0.0,1.4582,6.0,2.0,Catalán,0.0,Castellano,0.0,Francés,4.0,Inglés,5.0,Chino,14.0,Italiano,21.0,5.0,1.0,yes,no,yes,Piano,5,,,"No ha ocurrido nada, todo ha ido muy bien. Solamente querría comentar que me ha salido una ventana emergente de la actualización del sistema durante una fase 3 no recuerdo de qué lenguaje.",51.0,yes
30,2024-03-12_19h11.04.864,Unsyncopated_study3,s141,21.0,masculino,right,España,Catalán y castellano,Upper secondary,no,no,B,1,conjunction_syn,L2,syncopated,s1,r1,30,Online_conjL2_syn//d.si.ñu29.1554.222.wav,go,ñu,me,du,sil,ño,mi,si,sil1,to,sil2,"['catch', 'false alarm']","[1.3721000000089134, 1.8052000000029693]",[1.3721000000089134],0.222,no_beat,1.1501000000089134,1.1501000000089134,"[""space"",""space""]",ñu,4,testWhatL4Uns//time_viol.r1.s1.0.wav,2.0,what,unsyncopated,a,s1,no_rule,time,L4,z,0.3658,6.0,0.0,0.3496,6.0,2.0,Catalán,0.0,Castellano,0.0,Francés,4.0,Inglés,5.0,Chino,14.0,Italiano,21.0,5.0,1.0,yes,no,yes,Piano,5,,,"No ha ocurrido nada, todo ha ido muy bien. Solamente querría comentar que me ha salido una ventana emergente de la actualización del sistema durante una fase 3 no recuerdo de qué lenguaje.",51.0,yes
31,2024-03-12_19h11.04.864,Unsyncopated_study3,s141,21.0,masculino,right,España,Catalán y castellano,Upper secondary,no,no,B,1,conjunction_syn,L2,syncopated,s1,r1,31,Online_conjL2_syn//d.si.ñu31.none.none.wav,go,me,ño,du,sil,ba,te,mi,sil1,cha,sil2,['false alarm'],[0.8529999999999518],[0.8529999999999518],none,none,,,"[""space""]",ñu,4,testWhatL4Uns//cat_viol.r2.s2.0.wav,2.0,what,unsyncopated,b,s2,no_rule,cat,L4,z,0.6871,3.0,0.0,0.5847,6.0,2.0,Catalán,0.0,Castellano,0.0,Francés,4.0,Inglés,5.0,Chino,14.0,Italiano,21.0,5.0,1.0,yes,no,yes,Piano,5,,,"No ha ocurrido nada, todo ha ido muy bien. Solamente querría comentar que me ha salido una ventana emergente de la actualización del sistema durante una fase 3 no recuerdo de qué lenguaje.",51.0,yes
32,2024-03-12_19h11.04.864,Unsyncopated_study3,s141,21.0,masculino,right,España,Catalán y castellano,Upper secondary,no,no,B,1,conjunction_syn,L2,syncopated,s1,r1,32,Online_conjL2_syn//b.fe.ra15.none.none.wav,go,ñu,to,du,sil,bi,cha,ño,sil1,ba,sil2,['-'],,,none,none,,,,ra,2,testWhatL4Uns//cat_viol.r2.s1.0.wav,2.0,what,unsyncopated,b,s1,no_rule,cat,L4,z,0.6015,5.0,0.0,0.5666,6.0,2.0,Catalán,0.0,Castellano,0.0,Francés,4.0,Inglés,5.0,Chino,14.0,Italiano,21.0,5.0,1.0,yes,no,yes,Piano,5,,,"No ha ocurrido nada, todo ha ido muy bien. Solamente querría comentar que me ha salido una ventana emergente de la actualización del sistema durante una fase 3 no recuerdo de qué lenguaje.",51.0,yes
33,2024-03-12_19h11.04.864,Unsyncopated_study3,s141,21.0,masculino,right,España,Catalán y castellano,Upper secondary,no,no,B,1,conjunction_syn,L2,syncopated,s2,r1,33,Online_conjL2_syn//b.fe.ra12.none.none.wav,ba,to,mi,go,sil,bi,si,du,sil1,me,sil2,['-'],,,none,none,,,,ra,2,testWhatL4Uns//r1.s2.1.wav,2.0,what,unsyncopated,a,s2,rule,rule,L4,m,0.3331,2.0,0.0,0.6686,6.0,2.0,Catalán,0.0,Castellano,0.0,Francés,4.0,Inglés,5.0,Chino,14.0,Italiano,21.0,5.0,1.0,yes,no,yes,Piano,5,,,"No ha ocurrido nada, todo ha ido muy bien. Solamente querría comentar que me ha salido una ventana emergente de la actualización del sistema durante una fase 3 no recuerdo de qué lenguaje.",51.0,yes
34,2024-03-12_19h11.04.864,Unsyncopated_study3,s141,21.0,masculino,right,España,Catalán y castellano,Upper secondary,no,no,B,1,conjunction_syn,L2,syncopated,s1,r2,34,Online_conjL2_syn//b.fe.ra14.0.666.wav,fe,te,ño,ra,sil,su,cha,bi,sil1,to,sil2,['catch'],[1.087299999996958],[1.087299999996958],0.666,no_beat,0.4212999999969579,0.4212999999969579,"[""space""]",ra,2,testWhatL4Uns//r2.s2.0.wav,2.0,what,unsyncopated,b,s2,rule,rule,L4,m,0.7208,5.0,0.0,0.4392,6.0,2.0,Catalán,0.0,Castellano,0.0,Francés,4.0,Inglés,5.0,Chino,14.0,Italiano,21.0,5.0,1.0,yes,no,yes,Piano,5,,,"No ha ocurrido nada, todo ha ido muy bien. Solamente querría comentar que me ha salido una ventana emergente de la actualización del sistema durante una fase 3 no recuerdo de qué lenguaje.",51.0,yes
35,2024-03-12_19h11.04.864,Unsyncopated_study3,s141,21.0,masculino,right,España,Catalán y castellano,Upper secondary,no,no,B,1,conjunction_syn,L2,syncopated,s1,r2,35,Online_conjL2_syn//b.fe.ra13.0.666.wav,fe,si,ba,ra,sil,bi,su,ñu,sil1,ño,sil2,['catch'],[1.2615999999940186],[1.2615999999940186],0.666,no_beat,0.5955999999940186,0.5955999999940186,"[""space""]",ra,2,testWhatL4Uns//dep_viol.r2.s2.0.wav,2.0,what,unsyncopated,b,s2,no_rule,dep,L4,z,1.0655,4.0,0.0,0.2876,6.0,2.0,Catalán,0.0,Castellano,0.0,Francés,4.0,Inglés,5.0,Chino,14.0,Italiano,21.0,5.0,1.0,yes,no,yes,Piano,5,,,"No ha ocurrido nada, todo ha ido muy bien. Solamente querría comentar que me ha salido una ventana emergente de la actualización del sistema durante una fase 3 no recuerdo de qué lenguaje.",51.0,yes
36,2024-03-12_19h11.04.864,Unsyncopated_study3,s141,21.0,masculino,right,España,Catalán y castellano,Upper secondary,no,no,B,1,conjunction_syn,L2,syncopated,s2,r1,36,Online_conjL2_syn//d.si.ñu17.0.222.wav,si,ñu,te,go,sil,to,ba,du,sil1,bi,sil2,['miss'],,,0.222,no_beat,,,,ñu,4,testWhatL4Uns//cat_viol.r1.s1.0.wav,2.0,what,unsyncopated,a,s1,no_rule,cat,L4,z,0.4676,6.0,0.0,0.3832,6.0,2.0,Catalán,0.0,Castellano,0.0,Francés,4.0,Inglés,5.0,Chino,14.0,Italiano,21.0,5.0,1.0,yes,no,yes,Piano,5,,,"No ha ocurrido nada, todo ha ido muy bien. Solamente querría comentar que me ha salido una ventana emergente de la actualización del sistema durante una fase 3 no recuerdo de qué lenguaje.",51.0,yes
37,2024-03-12_19h11.04.864,Unsyncopated_study3,s141,21.0,masculino,right,España,Catalán y castellano,Upper secondary,no,no,B,1,conjunction_syn,L2,syncopated,s2,r2,37,Online_conjL2_syn//d.si.ñu18.none.none.wav,te,su,to,fe,sil,me,cha,ra,sil1,ba,sil2,['-'],,,none,none,,,,ñu,4,testWhatL4Uns//r2.s1.2.wav,2.0,what,unsyncopated,b,s1,rule,rule,L4,m,0.3508,3.0,0.0,0.3158,6.0,2.0,Catalán,0.0,Castellano,0.0,Francés,4.0,Inglés,5.0,Chino,14.0,Italiano,21.0,5.0,1.0,yes,no,yes,Piano,5,,,"No ha ocurrido nada, todo ha ido muy bien. Solamente querría comentar que me ha salido una ventana emergente de la actualización del sistema durante una fase 3 no recuerdo de qué lenguaje.",51.0,yes
38,2024-03-12_19h11.04.864,Unsyncopated_study3,s141,21.0,masculino,right,España,Catalán y castellano,Upper secondary,no,no,B,1,conjunction_syn,L2,syncopated,s2,r2,38,Online_conjL2_syn//d.si.ñu16.none.none.wav,te,to,bi,fe,sil,me,mi,ra,sil1,cha,sil2,['-'],,,none,none,,,,ñu,4,testWhatL4Uns//dep_viol.r2.s1.0.wav,2.0,what,unsyncopated,b,s1,no_rule,dep,L4,m,0.4882,2.0,1.0,0.2993,6.0,2.0,Catalán,0.0,Castellano,0.0,Francés,4.0,Inglés,5.0,Chino,14.0,Italiano,21.0,5.0,1.0,yes,no,yes,Piano,5,,,"No ha ocurrido nada, todo ha ido muy bien. Solamente querría comentar que me ha salido una ventana emergente de la actualización del sistema durante una fase 3 no recuerdo de qué lenguaje.",51.0,yes
39,2024-03-12_19h11.04.864,Unsyncopated_study3,s141,21.0,masculino,right,España,Catalán y castellano,Upper secondary,no,no,B,1,conjunction_syn,L2,syncopated,s1,r2,39,Online_conjL2_syn//d.si.ñu19.444.1110.wav,fe,bi,si,ra,sil,ñu,te,to,sil1,ño,sil2,['catch'],[1.678200000002903],[1.678200000002903],1.11,no_beat,0.5682000000029028,0.5682000000029028,"[""space""]",ñu,4,testWhatL4Uns//r1.s1.2.wav,2.0,what,unsyncopated,a,s1,rule,rule,L4,z,1.167,3.0,1.0,1.0841,6.0,2.0,Catalán,0.0,Castellano,0.0,Francés,4.0,Inglés,5.0,Chino,14.0,Italiano,21.0,5.0,1.0,yes,no,yes,Piano,5,,,"No ha ocurrido nada, todo ha ido muy bien. Solamente querría comentar que me ha salido una ventana emergente de la actualización del sistema durante una fase 3 no recuerdo de qué lenguaje.",51.0,yes
40,2024-03-12_19h11.04.864,Unsyncopated_study3,s141,21.0,masculino,right,España,Catalán y castellano,Upper secondary,no,no,B,1,conjunction_syn,L2,syncopated,s2,r2,40,Online_conjL2_syn//b.fe.ra16.666.1554.wav,to,ñu,mi,fe,sil,ño,cha,ra,sil1,me,sil2,['catch'],[2.1055000000000064],[2.1055000000000064],1.554,no_beat,0.5515000000000063,0.5515000000000063,"[""space""]",ra,2,testWhatL4Uns//r1.s1.1.wav,2.0,what,unsyncopated,a,s1,rule,rule,L4,z,4.119,5.0,1.0,0.8175,6.0,2.0,Catalán,0.0,Castellano,0.0,Francés,4.0,Inglés,5.0,Chino,14.0,Italiano,21.0,5.0,1.0,yes,no,yes,Piano,5,,,"No ha ocurrido nada, todo ha ido muy bien. Solamente querría comentar que me ha salido una ventana emergente de la actualización del sistema durante una fase 3 no recuerdo de qué lenguaje.",51.0,yes
41,2024-03-12_19h11.04.864,Unsyncopated_study3,s141,21.0,masculino,right,España,Catalán y castellano,Upper secondary,no,no,B,1,conjunction_syn,L2,syncopated,s1,r2,41,Online_conjL2_syn//b.fe.ra17.0.666.wav,fe,ño,ba,ra,sil,me,to,su,sil1,bi,sil2,['catch'],[1.0232999999969934],[1.0232999999969934],0.666,no_beat,0.3572999999969933,0.3572999999969933,"[""space""]",ra,2,testWhatL4Uns//cat_viol.r1.s2.0.wav,2.0,what,unsyncopated,a,s2,no_rule,cat,L4,z,0.3243,7.0,0.0,0.3365,6.0,2.0,Catalán,0.0,Castellano,0.0,Francés,4.0,Inglés,5.0,Chino,14.0,Italiano,21.0,5.0,1.0,yes,no,yes,Piano,5,,,"No ha ocurrido nada, todo ha ido muy bien. Solamente querría comentar que me ha salido una ventana emergente de la actualización del sistema durante una fase 3 no recuerdo de qué lenguaje.",51.0,yes
42,2024-03-12_19h11.04.864,Unsyncopated_study3,s141,21.0,masculino,right,España,Catalán y castellano,Upper secondary,no,no,B,1,conjunction_syn,L2,syncopated,s1,r1,42,Online_conjL2_syn//b.fe.ra19.none.none.wav,go,bi,ño,du,sil,si,mi,me,sil1,cha,sil2,['-'],,,none,none,,,,ra,2,testWhatL4Uns//time_viol.r1.s2.0.wav,2.0,what,unsyncopated,a,s2,no_rule,time,L4,m,0.8536,5.0,1.0,1.4037,6.0,2.0,Catalán,0.0,Castellano,0.0,Francés,4.0,Inglés,5.0,Chino,14.0,Italiano,21.0,5.0,1.0,yes,no,yes,Piano,5,,,"No ha ocurrido nada, todo ha ido muy bien. Solamente querría comentar que me ha salido una ventana emergente de la actualización del sistema durante una fase 3 no recuerdo de qué lenguaje.",51.0,yes
43,2024-03-12_19h11.04.864,Unsyncopated_study3,s141,21.0,masculino,right,España,Catalán y castellano,Upper secondary,no,no,B,1,conjunction_syn,L2,syncopated,s1,r1,43,Online_conjL2_syn//b.fe.ra18.none.none.wav,go,ba,mi,du,sil,su,ñu,me,sil1,ño,sil2,['-'],,,none,none,,,,ra,2,testWhatL4Uns//r1.s2.2.wav,2.0,what,unsyncopated,a,s2,rule,rule,L4,m,1.6392,1.0,0.0,0.8135,6.0,2.0,Catalán,0.0,Castellano,0.0,Francés,4.0,Inglés,5.0,Chino,14.0,Italiano,21.0,5.0,1.0,yes,no,yes,Piano,5,,,"No ha ocurrido nada, todo ha ido muy bien. Solamente querría comentar que me ha salido una ventana emergente de la actualización del sistema durante una fase 3 no recuerdo de qué lenguaje.",51.0,yes
44,2024-03-12_19h11.04.864,Unsyncopated_study3,s141,21.0,masculino,right,España,Catalán y castellano,Upper secondary,no,no,B,1,conjunction_syn,L2,syncopated,s1,r2,44,Online_conjL2_syn//d.si.ñu2.none.none.wav,fe,bi,me,ra,sil,te,mi,to,sil1,cha,sil2,['-'],,,none,none,,,,ñu,4,testWhatL4Uns//time_viol.r2.s1.0.wav,2.0,what,unsyncopated,b,s1,no_rule,time,L4,z,0.8317,3.0,0.0,0.822,6.0,2.0,Catalán,0.0,Castellano,0.0,Francés,4.0,Inglés,5.0,Chino,14.0,Italiano,21.0,5.0,1.0,yes,no,yes,Piano,5,,,"No ha ocurrido nada, todo ha ido muy bien. Solamente querría comentar que me ha salido una ventana emergente de la actualización del sistema durante una fase 3 no recuerdo de qué lenguaje.",51.0,yes
45,2024-03-12_19h11.04.864,Unsyncopated_study3,s141,21.0,masculino,right,España,Catalán y castellano,Upper secondary,no,no,B,1,conjunction_syn,L2,syncopated,s1,r1,45,Online_conjL2_syn//d.si.ñu0.1554.1110.wav,go,su,bi,du,sil,ñu,ba,si,sil1,ño,sil2,"['catch', 'false alarm']","[1.58869999998808, 2.493099999994115]",[1.58869999998808],1.11,no_beat,0.4786999999880799,0.4786999999880799,"[""space"",""space""]",ñu,4,testWhatL4Uns//r1.s2.0.wav,2.0,what,unsyncopated,a,s2,rule,rule,L4,m,0.7335,5.0,0.0,0.6645,6.0,2.0,Catalán,0.0,Castellano,0.0,Francés,4.0,Inglés,5.0,Chino,14.0,Italiano,21.0,5.0,1.0,yes,no,yes,Piano,5,,,"No ha ocurrido nada, todo ha ido muy bien. Solamente querría comentar que me ha salido una ventana emergente de la actualización del sistema durante una fase 3 no recuerdo de qué lenguaje.",51.0,yes
46,2024-03-12_19h11.04.864,Unsyncopated_study3,s141,21.0,masculino,right,España,Catalán y castellano,Upper secondary,no,no,B,1,conjunction_syn,L2,syncopated,s1,r1,46,Online_conjL2_syn//d.si.ñu1.none.none.wav,go,te,ba,du,sil,bi,mi,me,sil1,to,sil2,['-'],,,none,none,,,,ñu,4,testWhatL4Uns//r2.s1.1.wav,2.0,what,unsyncopated,b,s1,rule,rule,L4,z,0.3412,4.0,1.0,0.3517,6.0,2.0,Catalán,0.0,Castellano,0.0,Francés,4.0,Inglés,5.0,Chino,14.0,Italiano,21.0,5.0,1.0,yes,no,yes,Piano,5,,,"No ha ocurrido nada, todo ha ido muy bien. Solamente querría comentar que me ha salido una ventana emergente de la actualización del sistema durante una fase 3 no recuerdo de qué lenguaje.",51.0,yes
47,2024-03-12_19h11.04.864,Unsyncopated_study3,s141,21.0,masculino,right,España,Catalán y castellano,Upper secondary,no,no,B,1,conjunction_syn,L2,syncopated,s1,r1,47,Online_conjL2_syn//d.si.ñu3.none.none.wav,go,to,cha,du,sil,bi,te,mi,sil1,ño,sil2,['false alarm'],[2.4555999999939786],[2.4555999999939786],none,none,,,"[""space""]",ñu,4,testWhatL4Uns//dep_viol.r1.s2.0.wav,2.0,what,unsyncopated,a,s2,no_rule,dep,L4,z,0.7726,2.0,0.0,0.823,6.0,2.0,Catalán,0.0,Castellano,0.0,Francés,4.0,Inglés,5.0,Chino,14.0,Italiano,21.0,5.0,1.0,yes,no,yes,Piano,5,,,"No ha ocurrido nada, todo ha ido muy bien. Solamente querría comentar que me ha salido una ventana emergente de la actualización del sistema durante una fase 3 no recuerdo de qué lenguaje.",51.0,yes
48,2024-03-12_19h11.04.864,Unsyncopated_study3,s141,21.0,masculino,right,España,Catalán y castellano,Upper secondary,no,no,B,1,conjunction_syn,L2,syncopated,s1,r1,48,Online_conjL2_syn//a.go.du15.0.666.wav,go,bi,cha,du,sil,su,si,ño,sil1,me,sil2,['miss'],,,0.0,beat,,,,go,1,testWhenL1Uns//cat_viol.r2.s2.0.wav,3.0,when,unsyncopated,b,s2,no_rule,cat,L1,z,0.9259,5.0,1.0,0.8978,6.0,2.0,Catalán,0.0,Castellano,0.0,Francés,4.0,Inglés,5.0,Chino,14.0,Italiano,21.0,5.0,1.0,yes,no,yes,Piano,5,,,"No ha ocurrido nada, todo ha ido muy bien. Solamente querría comentar que me ha salido una ventana emergente de la actualización del sistema durante una fase 3 no recuerdo de qué lenguaje.",51.0,yes
49,2024-03-12_19h11.04.864,Unsyncopated_study3,s141,21.0,masculino,right,España,Catalán y castellano,Upper secondary,no,no,B,1,conjunction_syn,L2,syncopated,s2,r1,49,Online_conjL2_syn//a.go.du13.666.1554.wav,su,bi,ba,go,sil,ño,to,du,sil1,te,sil2,['catch'],[1.3948999999910257],[1.3948999999910257],0.666,no_beat,0.7288999999910256,0.7288999999910256,"[""space""]",go,1,testWhenL1Uns//r2.s2.0.wav,3.0,when,unsyncopated,b,s2,rule,rule,L1,m,0.5362,4.0,0.0,1.167,6.0,2.0,Catalán,0.0,Castellano,0.0,Francés,4.0,Inglés,5.0,Chino,14.0,Italiano,21.0,5.0,1.0,yes,no,yes,Piano,5,,,"No ha ocurrido nada, todo ha ido muy bien. Solamente querría comentar que me ha salido una ventana emergente de la actualización del sistema durante una fase 3 no recuerdo de qué lenguaje.",51.0,yes
50,2024-03-12_19h11.04.864,Unsyncopated_study3,s141,21.0,masculino,right,España,Catalán y castellano,Upper secondary,no,no,B,1,conjunction_syn,L2,syncopated,s2,r1,50,Online_conjL2_syn//a.go.du12.666.1554.wav,cha,bi,te,go,sil,ba,ñu,du,sil1,si,sil2,['catch'],[1.0987000000029639],[1.0987000000029639],0.666,no_beat,0.4327000000029638,0.4327000000029638,"[""space""]",go,1,testWhenL1Uns//cat_viol.r2.s1.0.wav,3.0,when,unsyncopated,b,s1,no_rule,cat,L1,m,0.3347,6.0,0.0,1.6572,6.0,2.0,Catalán,0.0,Castellano,0.0,Francés,4.0,Inglés,5.0,Chino,14.0,Italiano,21.0,5.0,1.0,yes,no,yes,Piano,5,,,"No ha ocurrido nada, todo ha ido muy bien. Solamente querría comentar que me ha salido una ventana emergente de la actualización del sistema durante una fase 3 no recuerdo de qué lenguaje.",51.0,yes
51,2024-03-12_19h11.04.864,Unsyncopated_study3,s141,21.0,masculino,right,España,Catalán y castellano,Upper secondary,no,no,B,1,conjunction_syn,L2,syncopated,s2,r1,51,Online_conjL2_syn//a.go.du14.666.1554.wav,si,ba,me,go,sil,ño,su,du,sil1,to,sil2,['catch'],[1.114600000008977],[1.114600000008977],0.666,no_beat,0.448600000008977,0.448600000008977,"[""space""]",go,1,testWhenL1Uns//time_viol.r2.s1.0.wav,3.0,when,unsyncopated,b,s1,no_rule,time,L1,z,1.2415,5.0,1.0,0.8339,6.0,2.0,Catalán,0.0,Castellano,0.0,Francés,4.0,Inglés,5.0,Chino,14.0,Italiano,21.0,5.0,1.0,yes,no,yes,Piano,5,,,"No ha ocurrido nada, todo ha ido muy bien. Solamente querría comentar que me ha salido una ventana emergente de la actualización del sistema durante una fase 3 no recuerdo de qué lenguaje.",51.0,yes
52,2024-03-12_19h11.04.864,Unsyncopated_study3,s141,21.0,masculino,right,España,Catalán y castellano,Upper secondary,no,no,B,1,conjunction_syn,L2,syncopated,s1,r1,52,Online_conjL2_syn//a.go.du29.0.666.wav,go,ñu,su,du,sil,si,me,to,sil1,bi,sil2,['catch'],[0.49970000000303116],[0.49970000000303116],0.0,beat,0.4997000000030311,0.4997000000030311,"[""space""]",go,1,testWhenL1Uns//dep_viol.r2.s1.0.wav,3.0,when,unsyncopated,b,s1,no_rule,dep,L1,m,0.3196,4.0,0.0,1.2346,6.0,2.0,Catalán,0.0,Castellano,0.0,Francés,4.0,Inglés,5.0,Chino,14.0,Italiano,21.0,5.0,1.0,yes,no,yes,Piano,5,,,"No ha ocurrido nada, todo ha ido muy bien. Solamente querría comentar que me ha salido una ventana emergente de la actualización del sistema durante una fase 3 no recuerdo de qué lenguaje.",51.0,yes
53,2024-03-12_19h11.04.864,Unsyncopated_study3,s141,21.0,masculino,right,España,Catalán y castellano,Upper secondary,no,no,B,1,conjunction_syn,L2,syncopated,s1,r1,53,Online_conjL2_syn//a.go.du31.0.666.wav,go,ba,su,du,sil,ñu,si,bi,sil1,me,sil2,['catch'],[0.4294999999999618],[0.4294999999999618],0.0,beat,0.4294999999999618,0.4294999999999618,"[""space""]",go,1,testWhenL1Uns//r2.s2.2.wav,3.0,when,unsyncopated,b,s2,rule,rule,L1,z,0.3034,7.0,1.0,0.2559,6.0,2.0,Catalán,0.0,Castellano,0.0,Francés,4.0,Inglés,5.0,Chino,14.0,Italiano,21.0,5.0,1.0,yes,no,yes,Piano,5,,,"No ha ocurrido nada, todo ha ido muy bien. Solamente querría comentar que me ha salido una ventana emergente de la actualización del sistema durante una fase 3 no recuerdo de qué lenguaje.",51.0,yes
54,2024-03-12_19h11.04.864,Unsyncopated_study3,s141,21.0,masculino,right,España,Catalán y castellano,Upper secondary,no,no,B,1,conjunction_syn,L2,syncopated,s2,r2,54,Online_conjL2_syn//a.go.du30.none.none.wav,to,ñu,me,fe,sil,bi,ño,ra,sil1,su,sil2,['false alarm'],[2.141999999999939],[2.141999999999939],none,none,,,"[""space""]",go,1,testWhenL1Uns//r1.s1.2.wav,3.0,when,unsyncopated,a,s1,rule,rule,L1,m,0.3001,4.0,0.0,1.6501,6.0,2.0,Catalán,0.0,Castellano,0.0,Francés,4.0,Inglés,5.0,Chino,14.0,Italiano,21.0,5.0,1.0,yes,no,yes,Piano,5,,,"No ha ocurrido nada, todo ha ido muy bien. Solamente querría comentar que me ha salido una ventana emergente de la actualización del sistema durante una fase 3 no recuerdo de qué lenguaje.",51.0,yes
55,2024-03-12_19h11.04.864,Unsyncopated_study3,s141,21.0,masculino,right,España,Catalán y castellano,Upper secondary,no,no,B,1,conjunction_syn,L2,syncopated,s2,r2,55,Online_conjL2_syn//a.go.du28.none.none.wav,me,su,ba,fe,sil,mi,to,ra,sil1,cha,sil2,['-'],,,none,none,,,,go,1,testWhenL1Uns//dep_viol.r1.s2.0.wav,3.0,when,unsyncopated,a,s2,no_rule,dep,L1,z,0.2543,5.0,1.0,0.7036,6.0,2.0,Catalán,0.0,Castellano,0.0,Francés,4.0,Inglés,5.0,Chino,14.0,Italiano,21.0,5.0,1.0,yes,no,yes,Piano,5,,,"No ha ocurrido nada, todo ha ido muy bien. Solamente querría comentar que me ha salido una ventana emergente de la actualización del sistema durante una fase 3 no recuerdo de qué lenguaje.",51.0,yes
56,2024-03-12_19h11.04.864,Unsyncopated_study3,s141,21.0,masculino,right,España,Catalán y castellano,Upper secondary,no,no,B,1,conjunction_syn,L2,syncopated,s2,r1,56,Online_conjL2_syn//d.si.ñu22.1332.222.wav,ba,ñu,me,go,sil,ño,si,du,sil1,te,sil2,"['catch', 'false alarm']","[0.8055999999940013, 1.8335999999940213]",[0.8055999999940013],0.222,no_beat,0.5835999999940014,0.5835999999940014,"[""space"",""space""]",ñu,4,testWhenL1Uns//r1.s1.1.wav,3.0,when,unsyncopated,a,s1,rule,rule,L1,z,0.2239,5.0,1.0,0.7437,6.0,2.0,Catalán,0.0,Castellano,0.0,Francés,4.0,Inglés,5.0,Chino,14.0,Italiano,21.0,5.0,1.0,yes,no,yes,Piano,5,,,"No ha ocurrido nada, todo ha ido muy bien. Solamente querría comentar que me ha salido una ventana emergente de la actualización del sistema durante una fase 3 no recuerdo de qué lenguaje.",51.0,yes
57,2024-03-12_19h11.04.864,Unsyncopated_study3,s141,21.0,masculino,right,España,Catalán y castellano,Upper secondary,no,no,B,1,conjunction_syn,L2,syncopated,s2,r1,57,Online_conjL2_syn//d.si.ñu20.1110.0.wav,ñu,ño,mi,go,sil,si,to,du,sil1,me,sil2,"['catch', 'false alarm']","[0.457599999994045, 0.6928999999911412]",[0.457599999994045],0.0,beat,0.457599999994045,0.457599999994045,"[""space"",""space""]",ñu,4,testWhenL1Uns//r1.s2.1.wav,3.0,when,unsyncopated,a,s2,rule,rule,L1,m,0.3876,3.0,0.0,1.9839,6.0,2.0,Catalán,0.0,Castellano,0.0,Francés,4.0,Inglés,5.0,Chino,14.0,Italiano,21.0,5.0,1.0,yes,no,yes,Piano,5,,,"No ha ocurrido nada, todo ha ido muy bien. Solamente querría comentar que me ha salido una ventana emergente de la actualización del sistema durante una fase 3 no recuerdo de qué lenguaje.",51.0,yes
58,2024-03-12_19h11.04.864,Unsyncopated_study3,s141,21.0,masculino,right,España,Catalán y castellano,Upper secondary,no,no,B,1,conjunction_syn,L2,syncopated,s2,r1,58,Online_conjL2_syn//d.si.ñu21.0.1110.wav,si,su,bi,go,sil,ñu,me,du,sil1,mi,sil2,['catch'],[1.5229000000059614],[1.5229000000059614],1.11,no_beat,0.4129000000059613,0.4129000000059613,"[""space""]",ñu,4,testWhenL1Uns//r1.s1.0.wav,3.0,when,unsyncopated,a,s1,rule,rule,L1,z,0.7415,3.0,1.0,1.0699,6.0,2.0,Catalán,0.0,Castellano,0.0,Francés,4.0,Inglés,5.0,Chino,14.0,Italiano,21.0,5.0,1.0,yes,no,yes,Piano,5,,,"No ha ocurrido nada, todo ha ido muy bien. Solamente querría comentar que me ha salido una ventana emergente de la actualización del sistema durante una fase 3 no recuerdo de qué lenguaje.",51.0,yes
59,2024-03-12_19h11.04.864,Unsyncopated_study3,s141,21.0,masculino,right,España,Catalán y castellano,Upper secondary,no,no,B,1,conjunction_syn,L2,syncopated,s2,r2,59,Online_conjL2_syn//d.si.ñu23.0.444.wav,si,su,ñu,fe,sil,mi,ño,ra,sil1,cha,sil2,"['catch', 'false alarm']","[1.0047000000030266, 1.9750000000000227]",[1.0047000000030266],0.444,no_beat,0.5607000000030267,0.5607000000030267,"[""space"",""space""]",ñu,4,testWhenL1Uns//dep_viol.r1.s1.0.wav,3.0,when,unsyncopated,a,s1,no_rule,dep,L1,z,0.1003,6.0,1.0,1.206,6.0,2.0,Catalán,0.0,Castellano,0.0,Francés,4.0,Inglés,5.0,Chino,14.0,Italiano,21.0,5.0,1.0,yes,no,yes,Piano,5,,,"No ha ocurrido nada, todo ha ido muy bien. Solamente querría comentar que me ha salido una ventana emergente de la actualización del sistema durante una fase 3 no recuerdo de qué lenguaje.",51.0,yes
60,2024-03-12_19h11.04.864,Unsyncopated_study3,s141,21.0,masculino,right,España,Catalán y castellano,Upper secondary,no,no,B,1,conjunction_syn,L2,syncopated,s1,r2,60,Online_conjL2_syn//a.go.du18.none.none.wav,fe,ba,su,ra,sil,cha,mi,to,sil1,ño,sil2,['-'],,,none,none,,,,go,1,testWhenL1Uns//cat_viol.r1.s1.0.wav,3.0,when,unsyncopated,a,s1,no_rule,cat,L1,m,0.3579,4.0,0.0,0.5503,6.0,2.0,Catalán,0.0,Castellano,0.0,Francés,4.0,Inglés,5.0,Chino,14.0,Italiano,21.0,5.0,1.0,yes,no,yes,Piano,5,,,"No ha ocurrido nada, todo ha ido muy bien. Solamente querría comentar que me ha salido una ventana emergente de la actualización del sistema durante una fase 3 no recuerdo de qué lenguaje.",51.0,yes
61,2024-03-12_19h11.04.864,Unsyncopated_study3,s141,21.0,masculino,right,España,Catalán y castellano,Upper secondary,no,no,B,1,conjunction_syn,L2,syncopated,s1,r1,61,Online_conjL2_syn//a.go.du17.0.666.wav,go,ba,ño,du,sil,to,si,te,sil1,cha,sil2,['catch'],[0.4907000000029029],[0.4907000000029029],0.0,beat,0.4907000000029029,0.4907000000029029,"[""space""]",go,1,testWhenL1Uns//time_viol.r1.s1.0.wav,3.0,when,unsyncopated,a,s1,no_rule,time,L1,z,0.5827,5.0,1.0,0.9197,6.0,2.0,Catalán,0.0,Castellano,0.0,Francés,4.0,Inglés,5.0,Chino,14.0,Italiano,21.0,5.0,1.0,yes,no,yes,Piano,5,,,"No ha ocurrido nada, todo ha ido muy bien. Solamente querría comentar que me ha salido una ventana emergente de la actualización del sistema durante una fase 3 no recuerdo de qué lenguaje.",51.0,yes
62,2024-03-12_19h11.04.864,Unsyncopated_study3,s141,21.0,masculino,right,España,Catalán y castellano,Upper secondary,no,no,B,1,conjunction_syn,L2,syncopated,s2,r1,62,Online_conjL2_syn//a.go.du19.666.1554.wav,ba,ño,mi,go,sil,me,te,du,sil1,to,sil2,['catch'],[1.1902000000029602],[1.1902000000029602],0.666,no_beat,0.5242000000029602,0.5242000000029602,"[""space""]",go,1,testWhenL1Uns//r2.s1.0.wav,3.0,when,unsyncopated,b,s1,rule,rule,L1,z,0.3832,4.0,1.0,0.5006,6.0,2.0,Catalán,0.0,Castellano,0.0,Francés,4.0,Inglés,5.0,Chino,14.0,Italiano,21.0,5.0,1.0,yes,no,yes,Piano,5,,,"No ha ocurrido nada, todo ha ido muy bien. Solamente querría comentar que me ha salido una ventana emergente de la actualización del sistema durante una fase 3 no recuerdo de qué lenguaje.",51.0,yes
63,2024-03-12_19h11.04.864,Unsyncopated_study3,s141,21.0,masculino,right,España,Catalán y castellano,Upper secondary,no,no,B,1,conjunction_syn,L2,syncopated,s2,r2,63,Online_conjL2_syn//a.go.du16.none.none.wav,ño,te,ñu,fe,sil,me,si,ra,sil1,cha,sil2,['-'],,,none,none,,,,go,1,testWhenL1Uns//time_viol.r1.s2.0.wav,3.0,when,unsyncopated,a,s2,no_rule,time,L1,m,0.3174,3.0,0.0,0.4375,6.0,2.0,Catalán,0.0,Castellano,0.0,Francés,4.0,Inglés,5.0,Chino,14.0,Italiano,21.0,5.0,1.0,yes,no,yes,Piano,5,,,"No ha ocurrido nada, todo ha ido muy bien. Solamente querría comentar que me ha salido una ventana emergente de la actualización del sistema durante una fase 3 no recuerdo de qué lenguaje.",51.0,yes
64,2024-03-12_19h11.04.864,Unsyncopated_study3,s141,21.0,masculino,right,España,Catalán y castellano,Upper secondary,no,no,B,1,conjunction_syn,L2,syncopated,s1,r2,64,Online_conjL2_syn//a.go.du25.none.none.wav,fe,ba,to,ra,sil,me,cha,si,sil1,ño,sil2,['-'],,,none,none,,,,go,1,testWhenL1Uns//r2.s1.2.wav,3.0,when,unsyncopated,b,s1,rule,rule,L1,m,0.6059,3.0,0.0,0.358,6.0,2.0,Catalán,0.0,Castellano,0.0,Francés,4.0,Inglés,5.0,Chino,14.0,Italiano,21.0,5.0,1.0,yes,no,yes,Piano,5,,,"No ha ocurrido nada, todo ha ido muy bien. Solamente querría comentar que me ha salido una ventana emergente de la actualización del sistema durante una fase 3 no recuerdo de qué lenguaje.",51.0,yes
65,2024-03-12_19h11.04.864,Unsyncopated_study3,s141,21.0,masculino,right,España,Catalán y castellano,Upper secondary,no,no,B,1,conjunction_syn,L2,syncopated,s1,r1,65,Online_conjL2_syn//a.go.du27.0.666.wav,go,te,ñu,du,sil,bi,ño,su,sil1,me,sil2,['catch'],[0.49140000000591044],[0.49140000000591044],0.0,beat,0.4914000000059104,0.4914000000059104,"[""space""]",go,1,testWhenL1Uns//time_viol.r2.s2.0.wav,3.0,when,unsyncopated,b,s2,no_rule,time,L1,z,0.14,6.0,1.0,1.1044,6.0,2.0,Catalán,0.0,Castellano,0.0,Francés,4.0,Inglés,5.0,Chino,14.0,Italiano,21.0,5.0,1.0,yes,no,yes,Piano,5,,,"No ha ocurrido nada, todo ha ido muy bien. Solamente querría comentar que me ha salido una ventana emergente de la actualización del sistema durante una fase 3 no recuerdo de qué lenguaje.",51.0,yes
66,2024-03-12_19h11.04.864,Unsyncopated_study3,s141,21.0,masculino,right,España,Catalán y castellano,Upper secondary,no,no,B,1,conjunction_syn,L2,syncopated,s1,r2,66,Online_conjL2_syn//a.go.du26.none.none.wav,fe,ba,su,ra,sil,bi,me,ñu,sil1,cha,sil2,['-'],,,none,none,,,,go,1,testWhenL1Uns//r2.s2.1.wav,3.0,when,unsyncopated,b,s2,rule,rule,L1,m,2.0194,2.0,0.0,1.5169,6.0,2.0,Catalán,0.0,Castellano,0.0,Francés,4.0,Inglés,5.0,Chino,14.0,Italiano,21.0,5.0,1.0,yes,no,yes,Piano,5,,,"No ha ocurrido nada, todo ha ido muy bien. Solamente querría comentar que me ha salido una ventana emergente de la actualización del sistema durante una fase 3 no recuerdo de qué lenguaje.",51.0,yes
67,2024-03-12_19h11.04.864,Unsyncopated_study3,s141,21.0,masculino,right,España,Catalán y castellano,Upper secondary,no,no,B,1,conjunction_syn,L2,syncopated,s2,r1,67,Online_conjL2_syn//a.go.du24.666.1554.wav,ño,ñu,si,go,sil,me,su,du,sil1,te,sil2,['catch'],[1.1235000000000355],[1.1235000000000355],0.666,no_beat,0.4575000000000354,0.4575000000000354,"[""space""]",go,1,testWhenL1Uns//dep_viol.r2.s2.0.wav,3.0,when,unsyncopated,b,s2,no_rule,dep,L1,z,0.351,5.0,1.0,0.9179,6.0,2.0,Catalán,0.0,Castellano,0.0,Francés,4.0,Inglés,5.0,Chino,14.0,Italiano,21.0,5.0,1.0,yes,no,yes,Piano,5,,,"No ha ocurrido nada, todo ha ido muy bien. Solamente querría comentar que me ha salido una ventana emergente de la actualización del sistema durante una fase 3 no recuerdo de qué lenguaje.",51.0,yes
68,2024-03-12_19h11.04.864,Unsyncopated_study3,s141,21.0,masculino,right,España,Catalán y castellano,Upper secondary,no,no,B,1,conjunction_syn,L2,syncopated,s2,r2,68,Online_conjL2_syn//a.go.du21.none.none.wav,cha,te,to,fe,sil,si,ba,ra,sil1,bi,sil2,['-'],,,none,none,,,,go,1,testWhenL1Uns//r1.s2.0.wav,3.0,when,unsyncopated,a,s2,rule,rule,L1,z,0.3734,6.0,1.0,0.5985,6.0,2.0,Catalán,0.0,Castellano,0.0,Francés,4.0,Inglés,5.0,Chino,14.0,Italiano,21.0,5.0,1.0,yes,no,yes,Piano,5,,,"No ha ocurrido nada, todo ha ido muy bien. Solamente querría comentar que me ha salido una ventana emergente de la actualización del sistema durante una fase 3 no recuerdo de qué lenguaje.",51.0,yes
69,2024-03-12_19h11.04.864,Unsyncopated_study3,s141,21.0,masculino,right,España,Catalán y castellano,Upper secondary,no,no,B,1,conjunction_syn,L2,syncopated,s2,r2,69,Online_conjL2_syn//a.go.du20.none.none.wav,to,ba,me,fe,sil,su,te,ra,sil1,ñu,sil2,['-'],,,none,none,,,,go,1,testWhenL1Uns//r2.s1.1.wav,3.0,when,unsyncopated,b,s1,rule,rule,L1,z,0.2724,6.0,1.0,0.3549,6.0,2.0,Catalán,0.0,Castellano,0.0,Francés,4.0,Inglés,5.0,Chino,14.0,Italiano,21.0,5.0,1.0,yes,no,yes,Piano,5,,,"No ha ocurrido nada, todo ha ido muy bien. Solamente querría comentar que me ha salido una ventana emergente de la actualización del sistema durante una fase 3 no recuerdo de qué lenguaje.",51.0,yes
70,2024-03-12_19h11.04.864,Unsyncopated_study3,s141,21.0,masculino,right,España,Catalán y castellano,Upper secondary,no,no,B,1,conjunction_syn,L2,syncopated,s1,r1,70,Online_conjL2_syn//a.go.du23.0.666.wav,go,te,ba,du,sil,bi,si,su,sil1,ñu,sil2,['catch'],[0.44370000000299115],[0.44370000000299115],0.0,beat,0.4437000000029911,0.4437000000029911,"[""space""]",go,1,testWhenL1Uns//cat_viol.r1.s2.0.wav,3.0,when,unsyncopated,a,s2,no_rule,cat,L1,m,0.1849,2.0,0.0,0.2167,6.0,2.0,Catalán,0.0,Castellano,0.0,Francés,4.0,Inglés,5.0,Chino,14.0,Italiano,21.0,5.0,1.0,yes,no,yes,Piano,5,,,"No ha ocurrido nada, todo ha ido muy bien. Solamente querría comentar que me ha salido una ventana emergente de la actualización del sistema durante una fase 3 no recuerdo de qué lenguaje.",51.0,yes
71,2024-03-12_19h11.04.864,Unsyncopated_study3,s141,21.0,masculino,right,España,Catalán y castellano,Upper secondary,no,no,B,1,conjunction_syn,L2,syncopated,s2,r2,71,Online_conjL2_syn//a.go.du22.none.none.wav,to,cha,mi,fe,sil,bi,ba,ra,sil1,si,sil2,['-'],,,none,none,,,,go,1,testWhenL1Uns//r1.s2.2.wav,3.0,when,unsyncopated,a,s2,rule,rule,L1,m,0.6338,1.0,0.0,0.1914,6.0,2.0,Catalán,0.0,Castellano,0.0,Francés,4.0,Inglés,5.0,Chino,14.0,Italiano,21.0,5.0,1.0,yes,no,yes,Piano,5,,,"No ha ocurrido nada, todo ha ido muy bien. Solamente querría comentar que me ha salido una ventana emergente de la actualización del sistema durante una fase 3 no recuerdo de qué lenguaje.",51.0,yes
72,2024-03-12_19h11.04.864,Unsyncopated_study3,s141,21.0,masculino,right,España,Catalán y castellano,Upper secondary,no,no,B,1,conjunction_syn,L2,syncopated,s1,r1,72,Online_conjL2_syn//a.go.du6.0.666.wav,go,bi,to,du,sil,me,su,ba,sil1,te,sil2,['catch'],[0.5067999999969288],[0.5067999999969288],0.0,beat,0.5067999999969288,0.5067999999969288,"[""space""]",go,1,testConjL3Uns//r2.s2.0.wav,4.0,conjunction_un,unsyncopated,b,s2,rule,rule,L3,z,0.5345,4.0,1.0,1.3654,6.0,2.0,Catalán,0.0,Castellano,0.0,Francés,4.0,Inglés,5.0,Chino,14.0,Italiano,21.0,5.0,1.0,yes,no,yes,Piano,5,,,"No ha ocurrido nada, todo ha ido muy bien. Solamente querría comentar que me ha salido una ventana emergente de la actualización del sistema durante una fase 3 no recuerdo de qué lenguaje.",51.0,yes
73,2024-03-12_19h11.04.864,Unsyncopated_study3,s141,21.0,masculino,right,España,Catalán y castellano,Upper secondary,no,no,B,1,conjunction_syn,L2,syncopated,s2,r1,73,Online_conjL2_syn//a.go.du4.666.1554.wav,mi,si,te,go,sil,ño,to,du,sil1,ñu,sil2,['catch'],[1.7568000000118218],[1.7568000000118218],0.666,no_beat,1.090800000011822,1.090800000011822,"[""space""]",go,1,testConjL3Uns//cat_viol.r1.s1.0.wav,4.0,conjunction_un,unsyncopated,a,s1,no_rule,cat,L3,z,0.5998,3.0,0.0,0.4159,6.0,2.0,Catalán,0.0,Castellano,0.0,Francés,4.0,Inglés,5.0,Chino,14.0,Italiano,21.0,5.0,1.0,yes,no,yes,Piano,5,,,"No ha ocurrido nada, todo ha ido muy bien. Solamente querría comentar que me ha salido una ventana emergente de la actualización del sistema durante una fase 3 no recuerdo de qué lenguaje.",51.0,yes
74,2024-03-12_19h11.04.864,Unsyncopated_study3,s141,21.0,masculino,right,España,Catalán y castellano,Upper secondary,no,no,B,1,conjunction_syn,L2,syncopated,s1,r2,74,Online_conjL2_syn//a.go.du7.none.none.wav,fe,mi,ñu,ra,sil,ño,ba,me,sil1,su,sil2,['-'],,,none,none,,,,go,1,testConjL3Uns//dep_viol.r1.s2.0.wav,4.0,conjunction_un,unsyncopated,a,s2,no_rule,dep,L3,m,0.3347,5.0,1.0,1.8176,6.0,2.0,Catalán,0.0,Castellano,0.0,Francés,4.0,Inglés,5.0,Chino,14.0,Italiano,21.0,5.0,1.0,yes,no,yes,Piano,5,,,"No ha ocurrido nada, todo ha ido muy bien. Solamente querría comentar que me ha salido una ventana emergente de la actualización del sistema durante una fase 3 no recuerdo de qué lenguaje.",51.0,yes
75,2024-03-12_19h11.04.864,Unsyncopated_study3,s141,21.0,masculino,right,España,Catalán y castellano,Upper secondary,no,no,B,1,conjunction_syn,L2,syncopated,s1,r2,75,Online_conjL2_syn//a.go.du5.none.none.wav,fe,ñu,cha,ra,sil,te,ño,ba,sil1,si,sil2,['-'],,,none,none,,,,go,1,testConjL3Uns//time_viol.r2.s2.0.wav,4.0,conjunction_un,unsyncopated,b,s2,no_rule,time,L3,m,0.3374,6.0,1.0,0.1363,6.0,2.0,Catalán,0.0,Castellano,0.0,Francés,4.0,Inglés,5.0,Chino,14.0,Italiano,21.0,5.0,1.0,yes,no,yes,Piano,5,,,"No ha ocurrido nada, todo ha ido muy bien. Solamente querría comentar que me ha salido una ventana emergente de la actualización del sistema durante una fase 3 no recuerdo de qué lenguaje.",51.0,yes
76,2024-03-12_19h11.04.864,Unsyncopated_study3,s141,21.0,masculino,right,España,Catalán y castellano,Upper secondary,no,no,B,1,conjunction_syn,L2,syncopated,s1,r1,76,Online_conjL2_syn//b.fe.ra21.none.none.wav,go,bi,cha,du,sil,te,me,mi,sil1,ba,sil2,['-'],,,none,none,,,,ra,2,testConjL3Uns//time_viol.r1.s1.0.wav,4.0,conjunction_un,unsyncopated,a,s1,no_rule,time,L3,z,0.2179,3.0,0.0,1.3245,6.0,2.0,Catalán,0.0,Castellano,0.0,Francés,4.0,Inglés,5.0,Chino,14.0,Italiano,21.0,5.0,1.0,yes,no,yes,Piano,5,,,"No ha ocurrido nada, todo ha ido muy bien. Solamente querría comentar que me ha salido una ventana emergente de la actualización del sistema durante una fase 3 no recuerdo de qué lenguaje.",51.0,yes
77,2024-03-12_19h11.04.864,Unsyncopated_study3,s141,21.0,masculino,right,España,Catalán y castellano,Upper secondary,no,no,B,1,conjunction_syn,L2,syncopated,s2,r2,77,Online_conjL2_syn//b.fe.ra20.666.1554.wav,si,ño,cha,fe,sil,to,me,ra,sil1,su,sil2,['catch'],[1.9705000000000155],[1.9705000000000155],1.554,no_beat,0.4165000000000154,0.4165000000000154,"[""space""]",ra,2,testConjL3Uns//time_viol.r1.s2.0.wav,4.0,conjunction_un,unsyncopated,a,s2,no_rule,time,L3,z,0.0164,5.0,0.0,0.5183,6.0,2.0,Catalán,0.0,Castellano,0.0,Francés,4.0,Inglés,5.0,Chino,14.0,Italiano,21.0,5.0,1.0,yes,no,yes,Piano,5,,,"No ha ocurrido nada, todo ha ido muy bien. Solamente querría comentar que me ha salido una ventana emergente de la actualización del sistema durante una fase 3 no recuerdo de qué lenguaje.",51.0,yes
78,2024-03-12_19h11.04.864,Unsyncopated_study3,s141,21.0,masculino,right,España,Catalán y castellano,Upper secondary,no,no,B,1,conjunction_syn,L2,syncopated,s2,r1,78,Online_conjL2_syn//b.fe.ra22.none.none.wav,cha,ño,me,go,sil,ñu,to,du,sil1,mi,sil2,['-'],,,none,none,,,,ra,2,testConjL3Uns//r1.s2.1.wav,4.0,conjunction_un,unsyncopated,a,s2,rule,rule,L3,z,0.0561,7.0,1.0,1.1272,6.0,2.0,Catalán,0.0,Castellano,0.0,Francés,4.0,Inglés,5.0,Chino,14.0,Italiano,21.0,5.0,1.0,yes,no,yes,Piano,5,,,"No ha ocurrido nada, todo ha ido muy bien. Solamente querría comentar que me ha salido una ventana emergente de la actualización del sistema durante una fase 3 no recuerdo de qué lenguaje.",51.0,yes
79,2024-03-12_19h11.04.864,Unsyncopated_study3,s141,21.0,masculino,right,España,Catalán y castellano,Upper secondary,no,no,B,1,conjunction_syn,L2,syncopated,s2,r1,79,Online_conjL2_syn//b.fe.ra23.none.none.wav,me,su,bi,go,sil,ñu,mi,du,sil1,si,sil2,['-'],,,none,none,,,,ra,2,testConjL3Uns//dep_viol.r2.s2.0.wav,4.0,conjunction_un,unsyncopated,b,s2,no_rule,dep,L3,z,0.2003,6.0,0.0,0.4409,6.0,2.0,Catalán,0.0,Castellano,0.0,Francés,4.0,Inglés,5.0,Chino,14.0,Italiano,21.0,5.0,1.0,yes,no,yes,Piano,5,,,"No ha ocurrido nada, todo ha ido muy bien. Solamente querría comentar que me ha salido una ventana emergente de la actualización del sistema durante una fase 3 no recuerdo de qué lenguaje.",51.0,yes
80,2024-03-12_19h11.04.864,Unsyncopated_study3,s141,21.0,masculino,right,España,Catalán y castellano,Upper secondary,no,no,B,1,conjunction_syn,L2,syncopated,s1,r1,80,Online_conjL2_syn//c.cha.me6.none.none.wav,go,to,si,du,sil,ñu,ño,mi,sil1,ba,sil2,['-'],,,none,none,,,,me,3,testConjL3Uns//cat_viol.r1.s2.0.wav,4.0,conjunction_un,unsyncopated,a,s2,no_rule,cat,L3,z,0.5158,6.0,0.0,0.42,6.0,2.0,Catalán,0.0,Castellano,0.0,Francés,4.0,Inglés,5.0,Chino,14.0,Italiano,21.0,5.0,1.0,yes,no,yes,Piano,5,,,"No ha ocurrido nada, todo ha ido muy bien. Solamente querría comentar que me ha salido una ventana emergente de la actualización del sistema durante una fase 3 no recuerdo de qué lenguaje.",51.0,yes
81,2024-03-12_19h11.04.864,Unsyncopated_study3,s141,21.0,masculino,right,España,Catalán y castellano,Upper secondary,no,no,B,1,conjunction_syn,L2,syncopated,s2,r2,81,Online_conjL2_syn//c.cha.me4.1110.0.wav,me,si,bi,fe,sil,cha,to,ra,sil1,su,sil2,['catch'],[0.526599999994005],[0.526599999994005],0.0,beat,0.526599999994005,0.526599999994005,"[""space""]",me,3,testConjL3Uns//r2.s2.1.wav,4.0,conjunction_un,unsyncopated,b,s2,rule,rule,L3,m,0.4015,4.0,0.0,1.0725,6.0,2.0,Catalán,0.0,Castellano,0.0,Francés,4.0,Inglés,5.0,Chino,14.0,Italiano,21.0,5.0,1.0,yes,no,yes,Piano,5,,,"No ha ocurrido nada, todo ha ido muy bien. Solamente querría comentar que me ha salido una ventana emergente de la actualización del sistema durante una fase 3 no recuerdo de qué lenguaje.",51.0,yes
82,2024-03-12_19h11.04.864,Unsyncopated_study3,s141,21.0,masculino,right,España,Catalán y castellano,Upper secondary,no,no,B,1,conjunction_syn,L2,syncopated,s2,r2,82,Online_conjL2_syn//c.cha.me7.none.none.wav,te,mi,ba,fe,sil,ñu,su,ra,sil1,to,sil2,['-'],,,none,none,,,,me,3,testConjL3Uns//r2.s1.1.wav,4.0,conjunction_un,unsyncopated,b,s1,rule,rule,L3,m,0.1386,2.0,0.0,0.3511,6.0,2.0,Catalán,0.0,Castellano,0.0,Francés,4.0,Inglés,5.0,Chino,14.0,Italiano,21.0,5.0,1.0,yes,no,yes,Piano,5,,,"No ha ocurrido nada, todo ha ido muy bien. Solamente querría comentar que me ha salido una ventana emergente de la actualización del sistema durante una fase 3 no recuerdo de qué lenguaje.",51.0,yes
83,2024-03-12_19h11.04.864,Unsyncopated_study3,s141,21.0,masculino,right,España,Catalán y castellano,Upper secondary,no,no,B,1,conjunction_syn,L2,syncopated,s2,r1,83,Online_conjL2_syn//c.cha.me5.none.none.wav,ño,mi,ñu,go,sil,ba,te,du,sil1,su,sil2,['-'],,,none,none,,,,me,3,testConjL3Uns//r1.s2.0.wav,4.0,conjunction_un,unsyncopated,a,s2,rule,rule,L3,z,0.4175,4.0,1.0,0.5006,6.0,2.0,Catalán,0.0,Castellano,0.0,Francés,4.0,Inglés,5.0,Chino,14.0,Italiano,21.0,5.0,1.0,yes,no,yes,Piano,5,,,"No ha ocurrido nada, todo ha ido muy bien. Solamente querría comentar que me ha salido una ventana emergente de la actualización del sistema durante una fase 3 no recuerdo de qué lenguaje.",51.0,yes
84,2024-03-12_19h11.04.864,Unsyncopated_study3,s141,21.0,masculino,right,España,Catalán y castellano,Upper secondary,no,no,B,1,conjunction_syn,L2,syncopated,s1,r2,84,Online_conjL2_syn//a.go.du9.none.none.wav,fe,ñu,bi,ra,sil,to,te,si,sil1,su,sil2,['-'],,,none,none,,,,go,1,testConjL3Uns//time_viol.r2.s1.0.wav,4.0,conjunction_un,unsyncopated,b,s1,no_rule,time,L3,m,1.1181,5.0,1.0,0.3742,6.0,2.0,Catalán,0.0,Castellano,0.0,Francés,4.0,Inglés,5.0,Chino,14.0,Italiano,21.0,5.0,1.0,yes,no,yes,Piano,5,,,"No ha ocurrido nada, todo ha ido muy bien. Solamente querría comentar que me ha salido una ventana emergente de la actualización del sistema durante una fase 3 no recuerdo de qué lenguaje.",51.0,yes
85,2024-03-12_19h11.04.864,Unsyncopated_study3,s141,21.0,masculino,right,España,Catalán y castellano,Upper secondary,no,no,B,1,conjunction_syn,L2,syncopated,s1,r2,85,Online_conjL2_syn//a.go.du10.none.none.wav,fe,cha,ba,ra,sil,ño,si,me,sil1,mi,sil2,['-'],,,none,none,,,,go,1,testConjL3Uns//r1.s1.0.wav,4.0,conjunction_un,unsyncopated,a,s1,rule,rule,L3,z,3.0257,6.0,1.0,1.9254,6.0,2.0,Catalán,0.0,Castellano,0.0,Francés,4.0,Inglés,5.0,Chino,14.0,Italiano,21.0,5.0,1.0,yes,no,yes,Piano,5,,,"No ha ocurrido nada, todo ha ido muy bien. Solamente querría comentar que me ha salido una ventana emergente de la actualización del sistema durante una fase 3 no recuerdo de qué lenguaje.",51.0,yes
86,2024-03-12_19h11.04.864,Unsyncopated_study3,s141,21.0,masculino,right,España,Catalán y castellano,Upper secondary,no,no,B,1,conjunction_syn,L2,syncopated,s2,r2,86,Online_conjL2_syn//a.go.du11.none.none.wav,to,te,ba,fe,sil,cha,me,ra,sil1,bi,sil2,['-'],,,none,none,,,,go,1,testConjL3Uns//cat_viol.r2.s1.0.wav,4.0,conjunction_un,unsyncopated,b,s1,no_rule,cat,L3,z,1.1679,4.0,0.0,0.6009,6.0,2.0,Catalán,0.0,Castellano,0.0,Francés,4.0,Inglés,5.0,Chino,14.0,Italiano,21.0,5.0,1.0,yes,no,yes,Piano,5,,,"No ha ocurrido nada, todo ha ido muy bien. Solamente querría comentar que me ha salido una ventana emergente de la actualización del sistema durante una fase 3 no recuerdo de qué lenguaje.",51.0,yes
87,2024-03-12_19h11.04.864,Unsyncopated_study3,s141,21.0,masculino,right,España,Catalán y castellano,Upper secondary,no,no,B,1,conjunction_syn,L2,syncopated,s2,r2,87,Online_conjL2_syn//a.go.du8.none.none.wav,to,bi,te,fe,sil,ñu,mi,ra,sil1,si,sil2,['-'],,,none,none,,,,go,1,testConjL3Uns//dep_viol.r2.s1.0.wav,4.0,conjunction_un,unsyncopated,b,s1,no_rule,dep,L3,m,0.4498,2.0,1.0,0.1192,6.0,2.0,Catalán,0.0,Castellano,0.0,Francés,4.0,Inglés,5.0,Chino,14.0,Italiano,21.0,5.0,1.0,yes,no,yes,Piano,5,,,"No ha ocurrido nada, todo ha ido muy bien. Solamente querría comentar que me ha salido una ventana emergente de la actualización del sistema durante una fase 3 no recuerdo de qué lenguaje.",51.0,yes
88,2024-03-12_19h11.04.864,Unsyncopated_study3,s141,21.0,masculino,right,España,Catalán y castellano,Upper secondary,no,no,B,1,conjunction_syn,L2,syncopated,s2,r1,88,Online_conjL2_syn//c.cha.me1.222.444.wav,bi,cha,me,go,sil,ño,ñu,du,sil1,su,sil2,['catch'],[1.2149999999999181],[1.2149999999999181],0.444,no_beat,0.7709999999999182,0.7709999999999182,"[""space""]",me,3,testConjL3Uns//r1.s1.2.wav,4.0,conjunction_un,unsyncopated,a,s1,rule,rule,L3,z,0.0163,5.0,1.0,0.4235,6.0,2.0,Catalán,0.0,Castellano,0.0,Francés,4.0,Inglés,5.0,Chino,14.0,Italiano,21.0,5.0,1.0,yes,no,yes,Piano,5,,,"No ha ocurrido nada, todo ha ido muy bien. Solamente querría comentar que me ha salido una ventana emergente de la actualización del sistema durante una fase 3 no recuerdo de qué lenguaje.",51.0,yes
89,2024-03-12_19h11.04.864,Unsyncopated_study3,s141,21.0,masculino,right,España,Catalán y castellano,Upper secondary,no,no,B,1,conjunction_syn,L2,syncopated,s2,r1,89,Online_conjL2_syn//c.cha.me2.444.0.wav,me,te,cha,go,sil,mi,su,du,sil1,ño,sil2,['catch'],[1.0897000000029493],[1.0897000000029493],0.0,beat,1.0897000000029493,1.0897000000029493,"[""space""]",me,3,testConjL3Uns//r1.s1.1.wav,4.0,conjunction_un,unsyncopated,a,s1,rule,rule,L3,m,0.3911,3.0,0.0,0.1339,6.0,2.0,Catalán,0.0,Castellano,0.0,Francés,4.0,Inglés,5.0,Chino,14.0,Italiano,21.0,5.0,1.0,yes,no,yes,Piano,5,,,"No ha ocurrido nada, todo ha ido muy bien. Solamente querría comentar que me ha salido una ventana emergente de la actualización del sistema durante una fase 3 no recuerdo de qué lenguaje.",51.0,yes
90,2024-03-12_19h11.04.864,Unsyncopated_study3,s141,21.0,masculino,right,España,Catalán y castellano,Upper secondary,no,no,B,1,conjunction_syn,L2,syncopated,s2,r1,90,Online_conjL2_syn//c.cha.me3.444.0.wav,me,ba,cha,go,sil,te,mi,du,sil1,ñu,sil2,['catch'],[0.6545999999940477],[0.6545999999940477],0.0,beat,0.6545999999940477,0.6545999999940477,"[""space""]",me,3,testConjL3Uns//r2.s2.2.wav,4.0,conjunction_un,unsyncopated,b,s2,rule,rule,L3,z,1.9751,2.0,1.0,1.0183,6.0,2.0,Catalán,0.0,Castellano,0.0,Francés,4.0,Inglés,5.0,Chino,14.0,Italiano,21.0,5.0,1.0,yes,no,yes,Piano,5,,,"No ha ocurrido nada, todo ha ido muy bien. Solamente querría comentar que me ha salido una ventana emergente de la actualización del sistema durante una fase 3 no recuerdo de qué lenguaje.",51.0,yes
91,2024-03-12_19h11.04.864,Unsyncopated_study3,s141,21.0,masculino,right,España,Catalán y castellano,Upper secondary,no,no,B,1,conjunction_syn,L2,syncopated,s2,r2,91,Online_conjL2_syn//c.cha.me0.444.1110.wav,te,su,cha,fe,sil,me,si,ra,sil1,ba,sil2,['catch'],[1.6897999999970352],[1.6897999999970352],1.11,no_beat,0.5797999999970351,0.5797999999970351,"[""space""]",me,3,testConjL3Uns//cat_viol.r2.s2.0.wav,4.0,conjunction_un,unsyncopated,b,s2,no_rule,cat,L3,m,0.1665,6.0,1.0,1.5863,6.0,2.0,Catalán,0.0,Castellano,0.0,Francés,4.0,Inglés,5.0,Chino,14.0,Italiano,21.0,5.0,1.0,yes,no,yes,Piano,5,,,"No ha ocurrido nada, todo ha ido muy bien. Solamente querría comentar que me ha salido una ventana emergente de la actualización del sistema durante una fase 3 no recuerdo de qué lenguaje.",51.0,yes
92,2024-03-12_19h11.04.864,Unsyncopated_study3,s141,21.0,masculino,right,España,Catalán y castellano,Upper secondary,no,no,B,1,conjunction_syn,L2,syncopated,s1,r2,92,Online_conjL2_syn//b.fe.ra1.0.666.wav,fe,to,bi,ra,sil,me,te,su,sil1,ño,sil2,['catch'],[1.0492000000029975],[1.0492000000029975],0.666,no_beat,0.3832000000029975,0.3832000000029975,"[""space""]",ra,2,testConjL3Uns//r2.s1.2.wav,4.0,conjunction_un,unsyncopated,b,s1,rule,rule,L3,m,0.2521,5.0,0.0,0.5713,6.0,2.0,Catalán,0.0,Castellano,0.0,Francés,4.0,Inglés,5.0,Chino,14.0,Italiano,21.0,5.0,1.0,yes,no,yes,Piano,5,,,"No ha ocurrido nada, todo ha ido muy bien. Solamente querría comentar que me ha salido una ventana emergente de la actualización del sistema durante una fase 3 no recuerdo de qué lenguaje.",51.0,yes
93,2024-03-12_19h11.04.864,Unsyncopated_study3,s141,21.0,masculino,right,España,Catalán y castellano,Upper secondary,no,no,B,1,conjunction_syn,L2,syncopated,s2,r2,93,Online_conjL2_syn//b.fe.ra0.666.1554.wav,te,si,ba,fe,sil,mi,ño,ra,sil1,cha,sil2,['catch'],[2.4407999999970116],[2.4407999999970116],1.554,no_beat,0.8867999999970115,0.8867999999970115,"[""space""]",ra,2,testConjL3Uns//r2.s1.0.wav,4.0,conjunction_un,unsyncopated,b,s1,rule,rule,L3,z,0.0677,6.0,1.0,0.591,6.0,2.0,Catalán,0.0,Castellano,0.0,Francés,4.0,Inglés,5.0,Chino,14.0,Italiano,21.0,5.0,1.0,yes,no,yes,Piano,5,,,"No ha ocurrido nada, todo ha ido muy bien. Solamente querría comentar que me ha salido una ventana emergente de la actualización del sistema durante una fase 3 no recuerdo de qué lenguaje.",51.0,yes
94,2024-03-12_19h11.04.864,Unsyncopated_study3,s141,21.0,masculino,right,España,Catalán y castellano,Upper secondary,no,no,B,1,conjunction_syn,L2,syncopated,s2,r2,94,Online_conjL2_syn//b.fe.ra3.666.1554.wav,cha,ba,ñu,fe,sil,me,ño,ra,sil1,bi,sil2,['catch'],[1.9375],[1.9375],1.554,no_beat,0.3834999999999999,0.3834999999999999,"[""space""]",ra,2,testConjL3Uns//dep_viol.r1.s1.0.wav,4.0,conjunction_un,unsyncopated,a,s1,no_rule,dep,L3,m,0.1197,4.0,1.0,0.4171,6.0,2.0,Catalán,0.0,Castellano,0.0,Francés,4.0,Inglés,5.0,Chino,14.0,Italiano,21.0,5.0,1.0,yes,no,yes,Piano,5,,,"No ha ocurrido nada, todo ha ido muy bien. Solamente querría comentar que me ha salido una ventana emergente de la actualización del sistema durante una fase 3 no recuerdo de qué lenguaje.",51.0,yes
95,2024-03-12_19h11.04.864,Unsyncopated_study3,s141,21.0,masculino,right,España,Catalán y castellano,Upper secondary,no,no,B,1,conjunction_syn,L2,syncopated,s2,r1,95,Online_conjL2_syn//b.fe.ra2.none.none.wav,te,to,bi,go,sil,cha,ñu,du,sil1,su,sil2,['-'],,,none,none,,,,ra,2,testConjL3Uns//r1.s2.2.wav,4.0,conjunction_un,unsyncopated,a,s2,rule,rule,L3,z,0.0691,7.0,1.0,0.5678,6.0,2.0,Catalán,0.0,Castellano,0.0,Francés,4.0,Inglés,5.0,Chino,14.0,Italiano,21.0,5.0,1.0,yes,no,yes,Piano,5,,,"No ha ocurrido nada, todo ha ido muy bien. Solamente querría comentar que me ha salido una ventana emergente de la actualización del sistema durante una fase 3 no recuerdo de qué lenguaje.",51.0,yes
96,2024-03-12_19h11.04.864,Unsyncopated_study3,s141,21.0,masculino,right,España,Catalán y castellano,Upper secondary,no,no,B,1,conjunction_syn,L2,syncopated,s1,r1,96,Online_conjL2_syn//d.si.ñu4.none.none.wav,go,su,to,du,sil,bi,me,cha,sil1,mi,sil2,['-'],,,none,none,,,,ñu,4,,,,,,,,,,,,,,,6.0,2.0,Catalán,0.0,Castellano,0.0,Francés,4.0,Inglés,5.0,Chino,14.0,Italiano,21.0,5.0,1.0,yes,no,yes,Piano,5,,,"No ha ocurrido nada, todo ha ido muy bien. Solamente querría comentar que me ha salido una ventana emergente de la actualización del sistema durante una fase 3 no recuerdo de qué lenguaje.",51.0,yes
97,2024-03-12_19h11.04.864,Unsyncopated_study3,s141,21.0,masculino,right,España,Catalán y castellano,Upper secondary,no,no,B,1,conjunction_syn,L2,syncopated,s1,r1,97,Online_conjL2_syn//d.si.ñu7.444.1110.wav,go,to,si,du,sil,ñu,te,mi,sil1,su,sil2,['catch'],[1.8749000000059368],[1.8749000000059368],1.11,no_beat,0.7649000000059367,0.7649000000059367,"[""space""]",ñu,4,,,,,,,,,,,,,,,6.0,2.0,Catalán,0.0,Castellano,0.0,Francés,4.0,Inglés,5.0,Chino,14.0,Italiano,21.0,5.0,1.0,yes,no,yes,Piano,5,,,"No ha ocurrido nada, todo ha ido muy bien. Solamente querría comentar que me ha salido una ventana emergente de la actualización del sistema durante una fase 3 no recuerdo de qué lenguaje.",51.0,yes
98,2024-03-12_19h11.04.864,Unsyncopated_study3,s141,21.0,masculino,right,España,Catalán y castellano,Upper secondary,no,no,B,1,conjunction_syn,L2,syncopated,s2,r2,98,Online_conjL2_syn//d.si.ñu5.1332.444.wav,cha,ño,ñu,fe,sil,bi,si,ra,sil1,to,sil2,"['catch', 'false alarm']","[1.1617000000030657, 1.7728000000118982]",[1.1617000000030657],0.444,no_beat,0.7177000000030658,0.7177000000030658,"[""space"",""space""]",ñu,4,,,,,,,,,,,,,,,6.0,2.0,Catalán,0.0,Castellano,0.0,Francés,4.0,Inglés,5.0,Chino,14.0,Italiano,21.0,5.0,1.0,yes,no,yes,Piano,5,,,"No ha ocurrido nada, todo ha ido muy bien. Solamente querría comentar que me ha salido una ventana emergente de la actualización del sistema durante una fase 3 no recuerdo de qué lenguaje.",51.0,yes
99,2024-03-12_19h11.04.864,Unsyncopated_study3,s141,21.0,masculino,right,España,Catalán y castellano,Upper secondary,no,no,B,1,conjunction_syn,L2,syncopated,s1,r2,99,Online_conjL2_syn//d.si.ñu6.1110.1332.wav,fe,ño,bi,ra,sil,si,ñu,te,sil1,me,sil2,['false alarm'],[0.9076000000089834],[0.9076000000089834],1.332,no_beat,,,"[""space""]",ñu,4,,,,,,,,,,,,,,,6.0,2.0,Catalán,0.0,Castellano,0.0,Francés,4.0,Inglés,5.0,Chino,14.0,Italiano,21.0,5.0,1.0,yes,no,yes,Piano,5,,,"No ha ocurrido nada, todo ha ido muy bien. Solamente querría comentar que me ha salido una ventana emergente de la actualización del sistema durante una fase 3 no recuerdo de qué lenguaje.",51.0,yes
100,2024-03-12_19h11.04.864,Unsyncopated_study3,s141,21.0,masculino,right,España,Catalán y castellano,Upper secondary,no,no,B,1,conjunction_syn,L2,syncopated,s2,r1,100,Online_conjL2_syn//b.fe.ra6.none.none.wav,te,ño,ba,go,sil,ñu,cha,du,sil1,su,sil2,['-'],,,none,none,,,,ra,2,,,,,,,,,,,,,,,6.0,2.0,Catalán,0.0,Castellano,0.0,Francés,4.0,Inglés,5.0,Chino,14.0,Italiano,21.0,5.0,1.0,yes,no,yes,Piano,5,,,"No ha ocurrido nada, todo ha ido muy bien. Solamente querría comentar que me ha salido una ventana emergente de la actualización del sistema durante una fase 3 no recuerdo de qué lenguaje.",51.0,yes
101,2024-03-12_19h11.04.864,Unsyncopated_study3,s141,21.0,masculino,right,España,Catalán y castellano,Upper secondary,no,no,B,1,conjunction_syn,L2,syncopated,s2,r2,101,Online_conjL2_syn//b.fe.ra5.666.1554.wav,ñu,te,to,fe,sil,ba,su,ra,sil1,mi,sil2,"['catch', 'false alarm']","[2.022400000005973, 2.274499999999989]",[2.022400000005973],1.554,no_beat,0.4684000000059731,0.4684000000059731,"[""space"",""space""]",ra,2,,,,,,,,,,,,,,,6.0,2.0,Catalán,0.0,Castellano,0.0,Francés,4.0,Inglés,5.0,Chino,14.0,Italiano,21.0,5.0,1.0,yes,no,yes,Piano,5,,,"No ha ocurrido nada, todo ha ido muy bien. Solamente querría comentar que me ha salido una ventana emergente de la actualización del sistema durante una fase 3 no recuerdo de qué lenguaje.",51.0,yes
102,2024-03-12_19h11.04.864,Unsyncopated_study3,s141,21.0,masculino,right,España,Catalán y castellano,Upper secondary,no,no,B,1,conjunction_syn,L2,syncopated,s2,r1,102,Online_conjL2_syn//b.fe.ra7.none.none.wav,ba,cha,me,go,sil,su,si,du,sil1,mi,sil2,['false alarm'],[0.6898000000119282],[0.6898000000119282],none,none,,,"[""space""]",ra,2,,,,,,,,,,,,,,,6.0,2.0,Catalán,0.0,Castellano,0.0,Francés,4.0,Inglés,5.0,Chino,14.0,Italiano,21.0,5.0,1.0,yes,no,yes,Piano,5,,,"No ha ocurrido nada, todo ha ido muy bien. Solamente querría comentar que me ha salido una ventana emergente de la actualización del sistema durante una fase 3 no recuerdo de qué lenguaje.",51.0,yes
103,2024-03-12_19h11.04.864,Unsyncopated_study3,s141,21.0,masculino,right,España,Catalán y castellano,Upper secondary,no,no,B,1,conjunction_syn,L2,syncopated,s2,r1,103,Online_conjL2_syn//b.fe.ra4.none.none.wav,me,bi,ño,go,sil,ñu,to,du,sil1,te,sil2,['-'],,,none,none,,,,ra,2,,,,,,,,,,,,,,,6.0,2.0,Catalán,0.0,Castellano,0.0,Francés,4.0,Inglés,5.0,Chino,14.0,Italiano,21.0,5.0,1.0,yes,no,yes,Piano,5,,,"No ha ocurrido nada, todo ha ido muy bien. Solamente querría comentar que me ha salido una ventana emergente de la actualización del sistema durante una fase 3 no recuerdo de qué lenguaje.",51.0,yes
104,2024-03-12_19h11.04.864,Unsyncopated_study3,s141,21.0,masculino,right,España,Catalán y castellano,Upper secondary,no,no,B,1,conjunction_syn,L2,syncopated,s1,r2,104,Online_conjL2_syn//a.go.du2.none.none.wav,fe,me,to,ra,sil,mi,te,ñu,sil1,ño,sil2,['-'],,,none,none,,,,go,1,,,,,,,,,,,,,,,6.0,2.0,Catalán,0.0,Castellano,0.0,Francés,4.0,Inglés,5.0,Chino,14.0,Italiano,21.0,5.0,1.0,yes,no,yes,Piano,5,,,"No ha ocurrido nada, todo ha ido muy bien. Solamente querría comentar que me ha salido una ventana emergente de la actualización del sistema durante una fase 3 no recuerdo de qué lenguaje.",51.0,yes
105,2024-03-12_19h11.04.864,Unsyncopated_study3,s141,21.0,masculino,right,España,Catalán y castellano,Upper secondary,no,no,B,1,conjunction_syn,L2,syncopated,s1,r1,105,Online_conjL2_syn//a.go.du0.0.666.wav,go,me,bi,du,sil,te,su,ba,sil1,cha,sil2,['catch'],[0.5705999999939877],[0.5705999999939877],0.0,beat,0.5705999999939877,0.5705999999939877,"[""space""]",go,1,,,,,,,,,,,,,,,6.0,2.0,Catalán,0.0,Castellano,0.0,Francés,4.0,Inglés,5.0,Chino,14.0,Italiano,21.0,5.0,1.0,yes,no,yes,Piano,5,,,"No ha ocurrido nada, todo ha ido muy bien. Solamente querría comentar que me ha salido una ventana emergente de la actualización del sistema durante una fase 3 no recuerdo de qué lenguaje.",51.0,yes
106,2024-03-12_19h11.04.864,Unsyncopated_study3,s141,21.0,masculino,right,España,Catalán y castellano,Upper secondary,no,no,B,1,conjunction_syn,L2,syncopated,s2,r1,106,Online_conjL2_syn//a.go.du1.666.1554.wav,su,me,mi,go,sil,ño,cha,du,sil1,te,sil2,['catch'],[1.5072000000029675],[1.5072000000029675],0.666,no_beat,0.8412000000029675,0.8412000000029675,"[""space""]",go,1,,,,,,,,,,,,,,,6.0,2.0,Catalán,0.0,Castellano,0.0,Francés,4.0,Inglés,5.0,Chino,14.0,Italiano,21.0,5.0,1.0,yes,no,yes,Piano,5,,,"No ha ocurrido nada, todo ha ido muy bien. Solamente querría comentar que me ha salido una ventana emergente de la actualización del sistema durante una fase 3 no recuerdo de qué lenguaje.",51.0,yes
107,2024-03-12_19h11.04.864,Unsyncopated_study3,s141,21.0,masculino,right,España,Catalán y castellano,Upper secondary,no,no,B,1,conjunction_syn,L2,syncopated,s2,r1,107,Online_conjL2_syn//a.go.du3.666.1554.wav,su,bi,te,go,sil,ñu,mi,du,sil1,si,sil2,['catch'],[1.128100000008999],[1.128100000008999],0.666,no_beat,0.4621000000089988,0.4621000000089988,"[""space""]",go,1,,,,,,,,,,,,,,,6.0,2.0,Catalán,0.0,Castellano,0.0,Francés,4.0,Inglés,5.0,Chino,14.0,Italiano,21.0,5.0,1.0,yes,no,yes,Piano,5,,,"No ha ocurrido nada, todo ha ido muy bien. Solamente querría comentar que me ha salido una ventana emergente de la actualización del sistema durante una fase 3 no recuerdo de qué lenguaje.",51.0,yes
108,2024-03-12_19h11.04.864,Unsyncopated_study3,s141,21.0,masculino,right,España,Catalán y castellano,Upper secondary,no,no,B,1,conjunction_syn,L2,syncopated,s2,r1,108,Online_conjL2_syn//c.cha.me28.none.none.wav,su,te,ba,go,sil,mi,to,du,sil1,ño,sil2,['-'],,,none,none,,,,me,3,,,,,,,,,,,,,,,6.0,2.0,Catalán,0.0,Castellano,0.0,Francés,4.0,Inglés,5.0,Chino,14.0,Italiano,21.0,5.0,1.0,yes,no,yes,Piano,5,,,"No ha ocurrido nada, todo ha ido muy bien. Solamente querría comentar que me ha salido una ventana emergente de la actualización del sistema durante una fase 3 no recuerdo de qué lenguaje.",51.0,yes
109,2024-03-12_19h11.04.864,Unsyncopated_study3,s141,21.0,masculino,right,España,Catalán y castellano,Upper secondary,no,no,B,1,conjunction_syn,L2,syncopated,s2,r2,109,Online_conjL2_syn//c.cha.me29.none.none.wav,te,bi,to,fe,sil,ño,si,ra,sil1,mi,sil2,['false alarm'],[0.9605999999940877],[0.9605999999940877],none,none,,,"[""space""]",me,3,,,,,,,,,,,,,,,6.0,2.0,Catalán,0.0,Castellano,0.0,Francés,4.0,Inglés,5.0,Chino,14.0,Italiano,21.0,5.0,1.0,yes,no,yes,Piano,5,,,"No ha ocurrido nada, todo ha ido muy bien. Solamente querría comentar que me ha salido una ventana emergente de la actualización del sistema durante una fase 3 no recuerdo de qué lenguaje.",51.0,yes
110,2024-03-12_19h11.04.864,Unsyncopated_study3,s141,21.0,masculino,right,España,Catalán y castellano,Upper secondary,no,no,B,1,conjunction_syn,L2,syncopated,s2,r2,110,Online_conjL2_syn//c.cha.me30.none.none.wav,to,ño,su,fe,sil,te,bi,ra,sil1,ñu,sil2,['false alarm'],[2.4210999999939986],[2.4210999999939986],none,none,,,"[""space""]",me,3,,,,,,,,,,,,,,,6.0,2.0,Catalán,0.0,Castellano,0.0,Francés,4.0,Inglés,5.0,Chino,14.0,Italiano,21.0,5.0,1.0,yes,no,yes,Piano,5,,,"No ha ocurrido nada, todo ha ido muy bien. Solamente querría comentar que me ha salido una ventana emergente de la actualización del sistema durante una fase 3 no recuerdo de qué lenguaje.",51.0,yes
111,2024-03-12_19h11.04.864,Unsyncopated_study3,s141,21.0,masculino,right,España,Catalán y castellano,Upper secondary,no,no,B,1,conjunction_syn,L2,syncopated,s2,r2,111,Online_conjL2_syn//c.cha.me31.0.1110.wav,cha,ño,si,fe,sil,me,ba,ra,sil1,su,sil2,['catch'],[1.6246000000088543],[1.6246000000088543],1.11,no_beat,0.5146000000088542,0.5146000000088542,"[""space""]",me,3,,,,,,,,,,,,,,,6.0,2.0,Catalán,0.0,Castellano,0.0,Francés,4.0,Inglés,5.0,Chino,14.0,Italiano,21.0,5.0,1.0,yes,no,yes,Piano,5,,,"No ha ocurrido nada, todo ha ido muy bien. Solamente querría comentar que me ha salido una ventana emergente de la actualización del sistema durante una fase 3 no recuerdo de qué lenguaje.",51.0,yes
112,2024-03-12_19h11.04.864,Unsyncopated_study3,s141,21.0,masculino,right,España,Catalán y castellano,Upper secondary,no,no,B,1,conjunction_syn,L2,syncopated,s2,r2,112,Online_conjL2_syn//b.fe.ra31.666.1554.wav,bi,cha,te,fe,sil,me,ñu,ra,sil1,si,sil2,['catch'],[2.146400000005997],[2.146400000005997],1.554,no_beat,0.5924000000059968,0.5924000000059968,"[""space""]",ra,2,,,,,,,,,,,,,,,6.0,2.0,Catalán,0.0,Castellano,0.0,Francés,4.0,Inglés,5.0,Chino,14.0,Italiano,21.0,5.0,1.0,yes,no,yes,Piano,5,,,"No ha ocurrido nada, todo ha ido muy bien. Solamente querría comentar que me ha salido una ventana emergente de la actualización del sistema durante una fase 3 no recuerdo de qué lenguaje.",51.0,yes
113,2024-03-12_19h11.04.864,Unsyncopated_study3,s141,21.0,masculino,right,España,Catalán y castellano,Upper secondary,no,no,B,1,conjunction_syn,L2,syncopated,s1,r1,113,Online_conjL2_syn//b.fe.ra28.none.none.wav,go,te,ñu,du,sil,ba,mi,me,sil1,ño,sil2,['-'],,,none,none,,,,ra,2,,,,,,,,,,,,,,,6.0,2.0,Catalán,0.0,Castellano,0.0,Francés,4.0,Inglés,5.0,Chino,14.0,Italiano,21.0,5.0,1.0,yes,no,yes,Piano,5,,,"No ha ocurrido nada, todo ha ido muy bien. Solamente querría comentar que me ha salido una ventana emergente de la actualización del sistema durante una fase 3 no recuerdo de qué lenguaje.",51.0,yes
114,2024-03-12_19h11.04.864,Unsyncopated_study3,s141,21.0,masculino,right,España,Catalán y castellano,Upper secondary,no,no,B,1,conjunction_syn,L2,syncopated,s1,r2,114,Online_conjL2_syn//b.fe.ra30.0.666.wav,fe,ba,ñu,ra,sil,su,ño,mi,sil1,cha,sil2,['catch'],[1.1105000000000018],[1.1105000000000018],0.666,no_beat,0.4445000000000018,0.4445000000000018,"[""space""]",ra,2,,,,,,,,,,,,,,,6.0,2.0,Catalán,0.0,Castellano,0.0,Francés,4.0,Inglés,5.0,Chino,14.0,Italiano,21.0,5.0,1.0,yes,no,yes,Piano,5,,,"No ha ocurrido nada, todo ha ido muy bien. Solamente querría comentar que me ha salido una ventana emergente de la actualización del sistema durante una fase 3 no recuerdo de qué lenguaje.",51.0,yes
115,2024-03-12_19h11.04.864,Unsyncopated_study3,s141,21.0,masculino,right,España,Catalán y castellano,Upper secondary,no,no,B,1,conjunction_syn,L2,syncopated,s1,r1,115,Online_conjL2_syn//b.fe.ra29.none.none.wav,go,cha,si,du,sil,bi,to,ñu,sil1,ba,sil2,['-'],,,none,none,,,,ra,2,,,,,,,,,,,,,,,6.0,2.0,Catalán,0.0,Castellano,0.0,Francés,4.0,Inglés,5.0,Chino,14.0,Italiano,21.0,5.0,1.0,yes,no,yes,Piano,5,,,"No ha ocurrido nada, todo ha ido muy bien. Solamente querría comentar que me ha salido una ventana emergente de la actualización del sistema durante una fase 3 no recuerdo de qué lenguaje.",51.0,yes
116,2024-03-12_19h11.04.864,Unsyncopated_study3,s141,21.0,masculino,right,España,Catalán y castellano,Upper secondary,no,no,B,1,conjunction_syn,L2,syncopated,s1,r1,116,Online_conjL2_syn//c.cha.me13.222.1110.wav,go,cha,su,du,sil,me,ño,ñu,sil1,mi,sil2,['catch'],[1.7340999999941005],[1.7340999999941005],1.11,no_beat,0.6240999999941004,0.6240999999941004,"[""space""]",me,3,,,,,,,,,,,,,,,6.0,2.0,Catalán,0.0,Castellano,0.0,Francés,4.0,Inglés,5.0,Chino,14.0,Italiano,21.0,5.0,1.0,yes,no,yes,Piano,5,,,"No ha ocurrido nada, todo ha ido muy bien. Solamente querría comentar que me ha salido una ventana emergente de la actualización del sistema durante una fase 3 no recuerdo de qué lenguaje.",51.0,yes
117,2024-03-12_19h11.04.864,Unsyncopated_study3,s141,21.0,masculino,right,España,Catalán y castellano,Upper secondary,no,no,B,1,conjunction_syn,L2,syncopated,s1,r1,117,Online_conjL2_syn//c.cha.me12.none.none.wav,go,te,ño,du,sil,bi,ñu,to,sil1,mi,sil2,['false alarm'],[1.2257999999969797],[1.2257999999969797],none,none,,,"[""space""]",me,3,,,,,,,,,,,,,,,6.0,2.0,Catalán,0.0,Castellano,0.0,Francés,4.0,Inglés,5.0,Chino,14.0,Italiano,21.0,5.0,1.0,yes,no,yes,Piano,5,,,"No ha ocurrido nada, todo ha ido muy bien. Solamente querría comentar que me ha salido una ventana emergente de la actualización del sistema durante una fase 3 no recuerdo de qué lenguaje.",51.0,yes
118,2024-03-12_19h11.04.864,Unsyncopated_study3,s141,21.0,masculino,right,España,Catalán y castellano,Upper secondary,no,no,B,1,conjunction_syn,L2,syncopated,s1,r2,118,Online_conjL2_syn//c.cha.me14.none.none.wav,fe,to,su,ra,sil,si,te,mi,sil1,bi,sil2,['-'],,,none,none,,,,me,3,,,,,,,,,,,,,,,6.0,2.0,Catalán,0.0,Castellano,0.0,Francés,4.0,Inglés,5.0,Chino,14.0,Italiano,21.0,5.0,1.0,yes,no,yes,Piano,5,,,"No ha ocurrido nada, todo ha ido muy bien. Solamente querría comentar que me ha salido una ventana emergente de la actualización del sistema durante una fase 3 no recuerdo de qué lenguaje.",51.0,yes
119,2024-03-12_19h11.04.864,Unsyncopated_study3,s141,21.0,masculino,right,España,Catalán y castellano,Upper secondary,no,no,B,1,conjunction_syn,L2,syncopated,s1,r2,119,Online_conjL2_syn//c.cha.me15.222.1110.wav,fe,cha,si,ra,sil,me,su,ba,sil1,ñu,sil2,['catch'],[1.8620999999940295],[1.8620999999940295],1.11,no_beat,0.7520999999940294,0.7520999999940294,"[""space""]",me,3,,,,,,,,,,,,,,,6.0,2.0,Catalán,0.0,Castellano,0.0,Francés,4.0,Inglés,5.0,Chino,14.0,Italiano,21.0,5.0,1.0,yes,no,yes,Piano,5,,,"No ha ocurrido nada, todo ha ido muy bien. Solamente querría comentar que me ha salido una ventana emergente de la actualización del sistema durante una fase 3 no recuerdo de qué lenguaje.",51.0,yes
120,2024-03-12_19h11.04.864,Unsyncopated_study3,s141,21.0,masculino,right,España,Catalán y castellano,Upper secondary,no,no,B,1,conjunction_syn,L2,syncopated,s2,r2,120,Online_conjL2_syn//d.si.ñu25.none.none.wav,mi,to,ño,fe,sil,bi,ba,ra,sil1,su,sil2,['false alarm'],[0.8998999999911348],[0.8998999999911348],none,none,,,"[""space""]",ñu,4,,,,,,,,,,,,,,,6.0,2.0,Catalán,0.0,Castellano,0.0,Francés,4.0,Inglés,5.0,Chino,14.0,Italiano,21.0,5.0,1.0,yes,no,yes,Piano,5,,,"No ha ocurrido nada, todo ha ido muy bien. Solamente querría comentar que me ha salido una ventana emergente de la actualización del sistema durante una fase 3 no recuerdo de qué lenguaje.",51.0,yes
121,2024-03-12_19h11.04.864,Unsyncopated_study3,s141,21.0,masculino,right,España,Catalán y castellano,Upper secondary,no,no,B,1,conjunction_syn,L2,syncopated,s2,r2,121,Online_conjL2_syn//d.si.ñu24.222.1110.wav,ba,si,cha,fe,sil,ñu,su,ra,sil1,ño,sil2,['catch'],[1.6539999999999964],[1.6539999999999964],1.11,no_beat,0.5439999999999963,0.5439999999999963,"[""space""]",ñu,4,,,,,,,,,,,,,,,6.0,2.0,Catalán,0.0,Castellano,0.0,Francés,4.0,Inglés,5.0,Chino,14.0,Italiano,21.0,5.0,1.0,yes,no,yes,Piano,5,,,"No ha ocurrido nada, todo ha ido muy bien. Solamente querría comentar que me ha salido una ventana emergente de la actualización del sistema durante una fase 3 no recuerdo de qué lenguaje.",51.0,yes
122,2024-03-12_19h11.04.864,Unsyncopated_study3,s141,21.0,masculino,right,España,Catalán y castellano,Upper secondary,no,no,B,1,conjunction_syn,L2,syncopated,s2,r1,122,Online_conjL2_syn//d.si.ñu27.none.none.wav,cha,ño,ba,go,sil,mi,to,du,sil1,bi,sil2,['false alarm'],[0.8550999999940814],[0.8550999999940814],none,none,,,"[""space""]",ñu,4,,,,,,,,,,,,,,,6.0,2.0,Catalán,0.0,Castellano,0.0,Francés,4.0,Inglés,5.0,Chino,14.0,Italiano,21.0,5.0,1.0,yes,no,yes,Piano,5,,,"No ha ocurrido nada, todo ha ido muy bien. Solamente querría comentar que me ha salido una ventana emergente de la actualización del sistema durante una fase 3 no recuerdo de qué lenguaje.",51.0,yes
123,2024-03-12_19h11.04.864,Unsyncopated_study3,s141,21.0,masculino,right,España,Catalán y castellano,Upper secondary,no,no,B,1,conjunction_syn,L2,syncopated,s2,r2,123,Online_conjL2_syn//d.si.ñu26.none.none.wav,ba,su,cha,fe,sil,mi,me,ra,sil1,to,sil2,['-'],,,none,none,,,,ñu,4,,,,,,,,,,,,,,,6.0,2.0,Catalán,0.0,Castellano,0.0,Francés,4.0,Inglés,5.0,Chino,14.0,Italiano,21.0,5.0,1.0,yes,no,yes,Piano,5,,,"No ha ocurrido nada, todo ha ido muy bien. Solamente querría comentar que me ha salido una ventana emergente de la actualización del sistema durante una fase 3 no recuerdo de qué lenguaje.",51.0,yes
124,2024-03-12_19h11.04.864,Unsyncopated_study3,s141,21.0,masculino,right,España,Catalán y castellano,Upper secondary,no,no,B,1,conjunction_syn,L2,syncopated,s1,r1,124,Online_conjL2_syn//c.cha.me22.1554.444.wav,go,bi,me,du,sil,to,ba,cha,sil1,ño,sil2,['catch'],[1.6725000000000136],[1.6725000000000136],0.444,no_beat,,1.2285000000000137,"[""space""]",me,3,,,,,,,,,,,,,,,6.0,2.0,Catalán,0.0,Castellano,0.0,Francés,4.0,Inglés,5.0,Chino,14.0,Italiano,21.0,5.0,1.0,yes,no,yes,Piano,5,,,"No ha ocurrido nada, todo ha ido muy bien. Solamente querría comentar que me ha salido una ventana emergente de la actualización del sistema durante una fase 3 no recuerdo de qué lenguaje.",51.0,yes
125,2024-03-12_19h11.04.864,Unsyncopated_study3,s141,21.0,masculino,right,España,Catalán y castellano,Upper secondary,no,no,B,1,conjunction_syn,L2,syncopated,s1,r2,125,Online_conjL2_syn//c.cha.me23.none.none.wav,fe,bi,ñu,ra,sil,ba,su,to,sil1,te,sil2,['-'],,,none,none,,,,me,3,,,,,,,,,,,,,,,6.0,2.0,Catalán,0.0,Castellano,0.0,Francés,4.0,Inglés,5.0,Chino,14.0,Italiano,21.0,5.0,1.0,yes,no,yes,Piano,5,,,"No ha ocurrido nada, todo ha ido muy bien. Solamente querría comentar que me ha salido una ventana emergente de la actualización del sistema durante una fase 3 no recuerdo de qué lenguaje.",51.0,yes
126,2024-03-12_19h11.04.864,Unsyncopated_study3,s141,21.0,masculino,right,España,Catalán y castellano,Upper secondary,no,no,B,1,conjunction_syn,L2,syncopated,s1,r2,126,Online_conjL2_syn//c.cha.me21.222.444.wav,fe,cha,me,ra,sil,su,ñu,to,sil1,mi,sil2,['catch'],[1.2212999999969725],[1.2212999999969725],0.444,no_beat,0.7772999999969725,0.7772999999969725,"[""space""]",me,3,,,,,,,,,,,,,,,6.0,2.0,Catalán,0.0,Castellano,0.0,Francés,4.0,Inglés,5.0,Chino,14.0,Italiano,21.0,5.0,1.0,yes,no,yes,Piano,5,,,"No ha ocurrido nada, todo ha ido muy bien. Solamente querría comentar que me ha salido una ventana emergente de la actualización del sistema durante una fase 3 no recuerdo de qué lenguaje.",51.0,yes
127,2024-03-12_19h11.04.864,Unsyncopated_study3,s141,21.0,masculino,right,España,Catalán y castellano,Upper secondary,no,no,B,1,conjunction_syn,L2,syncopated,s1,r1,127,Online_conjL2_syn//c.cha.me20.none.none.wav,go,mi,si,du,sil,bi,ba,ño,sil1,su,sil2,['-'],,,none,none,,,,me,3,,,,,,,,,,,,,,,6.0,2.0,Catalán,0.0,Castellano,0.0,Francés,4.0,Inglés,5.0,Chino,14.0,Italiano,21.0,5.0,1.0,yes,no,yes,Piano,5,,,"No ha ocurrido nada, todo ha ido muy bien. Solamente querría comentar que me ha salido una ventana emergente de la actualización del sistema durante una fase 3 no recuerdo de qué lenguaje.",51.0,yes
128,2024-03-12_19h11.04.864,Unsyncopated_study3,s141,21.0,masculino,right,España,Catalán y castellano,Upper secondary,no,no,B,2,what,L4,unsyncopated,s1,r1,0,Online_whatL4//b.ja.nu12.none.none.wav,zi,re,de,sil,lo,bu,pe,sil2,ru,ña,sil1,['-'],,,none,none,,,,nu,2,,,,,,,,,,,,,,,6.0,2.0,Catalán,0.0,Castellano,0.0,Francés,4.0,Inglés,5.0,Chino,14.0,Italiano,21.0,5.0,1.0,yes,no,yes,Piano,5,,,"No ha ocurrido nada, todo ha ido muy bien. Solamente querría comentar que me ha salido una ventana emergente de la actualización del sistema durante una fase 3 no recuerdo de qué lenguaje.",51.0,yes
129,2024-03-12_19h11.04.864,Unsyncopated_study3,s141,21.0,masculino,right,España,Catalán y castellano,Upper secondary,no,no,B,2,what,L4,unsyncopated,s2,r1,1,Online_whatL4//b.ja.nu13.none.none.wav,da,po,bu,sil,zi,ña,ru,sil2,lo,de,sil1,['false alarm'],[0.9122000000029402],[0.9122000000029402],none,none,,,"[""space""]",nu,2,,,,,,,,,,,,,,,6.0,2.0,Catalán,0.0,Castellano,0.0,Francés,4.0,Inglés,5.0,Chino,14.0,Italiano,21.0,5.0,1.0,yes,no,yes,Piano,5,,,"No ha ocurrido nada, todo ha ido muy bien. Solamente querría comentar que me ha salido una ventana emergente de la actualización del sistema durante una fase 3 no recuerdo de qué lenguaje.",51.0,yes
130,2024-03-12_19h11.04.864,Unsyncopated_study3,s141,21.0,masculino,right,España,Catalán y castellano,Upper secondary,no,no,B,2,what,L4,unsyncopated,s1,r1,2,Online_whatL4//b.ja.nu14.none.none.wav,zi,bo,re,sil2,lo,ña,po,sil,ru,ñi,sil1,['-'],,,none,none,,,,nu,2,,,,,,,,,,,,,,,6.0,2.0,Catalán,0.0,Castellano,0.0,Francés,4.0,Inglés,5.0,Chino,14.0,Italiano,21.0,5.0,1.0,yes,no,yes,Piano,5,,,"No ha ocurrido nada, todo ha ido muy bien. Solamente querría comentar que me ha salido una ventana emergente de la actualización del sistema durante una fase 3 no recuerdo de qué lenguaje.",51.0,yes
131,2024-03-12_19h11.04.864,Unsyncopated_study3,s141,21.0,masculino,right,España,Catalán y castellano,Upper secondary,no,no,B,2,what,L4,unsyncopated,s1,r2,3,Online_whatL4//b.ja.nu15.0.1110.wav,ja,bu,bo,sil2,nu,pe,re,sil,ci,po,sil1,"['false alarm', 'catch']","[0.2712999999971544, 1.8611000000089462]",[1.8611000000089462],1.11,no_beat,0.7511000000089461,0.7511000000089461,"[""space"",""space""]",nu,2,,,,,,,,,,,,,,,6.0,2.0,Catalán,0.0,Castellano,0.0,Francés,4.0,Inglés,5.0,Chino,14.0,Italiano,21.0,5.0,1.0,yes,no,yes,Piano,5,,,"No ha ocurrido nada, todo ha ido muy bien. Solamente querría comentar que me ha salido una ventana emergente de la actualización del sistema durante una fase 3 no recuerdo de qué lenguaje.",51.0,yes
132,2024-03-12_19h11.04.864,Unsyncopated_study3,s141,21.0,masculino,right,España,Catalán y castellano,Upper secondary,no,no,B,2,what,L4,unsyncopated,s2,r2,4,Online_whatL4//c.bu.da0.444.1332.wav,re,de,bu,sil2,ja,da,bo,sil,nu,pe,sil1,['catch'],[1.9199999999998454],[1.9199999999998454],1.332,no_beat,0.5879999999998453,0.5879999999998453,"[""space""]",da,3,,,,,,,,,,,,,,,6.0,2.0,Catalán,0.0,Castellano,0.0,Francés,4.0,Inglés,5.0,Chino,14.0,Italiano,21.0,5.0,1.0,yes,no,yes,Piano,5,,,"No ha ocurrido nada, todo ha ido muy bien. Solamente querría comentar que me ha salido una ventana emergente de la actualización del sistema durante una fase 3 no recuerdo de qué lenguaje.",51.0,yes
133,2024-03-12_19h11.04.864,Unsyncopated_study3,s141,21.0,masculino,right,España,Catalán y castellano,Upper secondary,no,no,B,2,what,L4,unsyncopated,s1,r2,5,Online_whatL4//c.bu.da1.none.none.wav,ja,ña,ñi,sil2,nu,re,de,sil,ru,pe,sil1,['-'],,,none,none,,,,da,3,,,,,,,,,,,,,,,6.0,2.0,Catalán,0.0,Castellano,0.0,Francés,4.0,Inglés,5.0,Chino,14.0,Italiano,21.0,5.0,1.0,yes,no,yes,Piano,5,,,"No ha ocurrido nada, todo ha ido muy bien. Solamente querría comentar que me ha salido una ventana emergente de la actualización del sistema durante una fase 3 no recuerdo de qué lenguaje.",51.0,yes
134,2024-03-12_19h11.04.864,Unsyncopated_study3,s141,21.0,masculino,right,España,Catalán y castellano,Upper secondary,no,no,B,2,what,L4,unsyncopated,s2,r1,6,Online_whatL4//c.bu.da3.none.none.wav,pe,po,bo,sil,zi,re,ña,sil1,lo,ru,sil2,['-'],,,none,none,,,,da,3,,,,,,,,,,,,,,,6.0,2.0,Catalán,0.0,Castellano,0.0,Francés,4.0,Inglés,5.0,Chino,14.0,Italiano,21.0,5.0,1.0,yes,no,yes,Piano,5,,,"No ha ocurrido nada, todo ha ido muy bien. Solamente querría comentar que me ha salido una ventana emergente de la actualización del sistema durante una fase 3 no recuerdo de qué lenguaje.",51.0,yes
135,2024-03-12_19h11.04.864,Unsyncopated_study3,s141,21.0,masculino,right,España,Catalán y castellano,Upper secondary,no,no,B,2,what,L4,unsyncopated,s2,r1,7,Online_whatL4//c.bu.da2.1332.222.wav,de,da,po,sil,zi,ru,bu,sil2,lo,ña,sil1,['catch'],[0.846600000008948],[0.846600000008948],0.222,no_beat,0.624600000008948,0.624600000008948,"[""space""]",da,3,,,,,,,,,,,,,,,6.0,2.0,Catalán,0.0,Castellano,0.0,Francés,4.0,Inglés,5.0,Chino,14.0,Italiano,21.0,5.0,1.0,yes,no,yes,Piano,5,,,"No ha ocurrido nada, todo ha ido muy bien. Solamente querría comentar que me ha salido una ventana emergente de la actualización del sistema durante una fase 3 no recuerdo de qué lenguaje.",51.0,yes
136,2024-03-12_19h11.04.864,Unsyncopated_study3,s141,21.0,masculino,right,España,Catalán y castellano,Upper secondary,no,no,B,2,what,L4,unsyncopated,s2,r2,8,Online_whatL4//d.pe.po18.0.444.wav,pe,de,po,sil,ja,ña,ñi,sil1,nu,re,sil2,['catch'],[0.8809999999998581],[0.8809999999998581],0.444,no_beat,0.4369999999998581,0.4369999999998581,"[""space""]",po,4,,,,,,,,,,,,,,,6.0,2.0,Catalán,0.0,Castellano,0.0,Francés,4.0,Inglés,5.0,Chino,14.0,Italiano,21.0,5.0,1.0,yes,no,yes,Piano,5,,,"No ha ocurrido nada, todo ha ido muy bien. Solamente querría comentar que me ha salido una ventana emergente de la actualización del sistema durante una fase 3 no recuerdo de qué lenguaje.",51.0,yes
