Unnamed: 0,date,expName,participant,age,sex,hand,residence,native_lang,education_level,lang_deficit,aud_deficit,group,block,condition,language,rhythm,rule structure online,rule type online,order_trial_on,trial_online,s1,s2,s3,s4,s5,s6,s7,s8,s9,s10,s11,catch_syll_resp,rts_syll_catch,clean_rts,time_syll,beat_no_beat,catch_rtsTR,catch_rts,syllable_catch.keys,cond_syll,syll_to_catch,test_offline,block_off,condition_off,rhythm_off,rule,rule_str_off,rule_norule,conds_offline,language_off,Partz_no_partm.keys,Partz_no_partm.rt,security_1_7.keys,accuracy,security_1_7.rt,n_lang,n_lang_used,lang_1,age_l1,lang_2,age_l2,lang_3,age_l3,lang_4,age_l4,ability_learn_l2,tendence_mix_lan,music_experience,muisc_use,partiture,instr_1,age_M1,preguntas_musica1,BMRQ_answer.response,final comment,BMRQ_Score,bilingual
0,2024-01-21_14h32.13.881,Unsyncopated_study2,s91,21.0,feminino,right,España,Español y catalán,Bachelor degree,no,no,A,1,what,L3,unsyncopated,s1,r1,0,Online_whatL3//b.ñe.sa16.none.none.wav,chu,fu,ko,sil,mo,li,je,sil1,ka,gu,sil2,['-'],,,none,none,,,,sa,1,testWhatL3Uns//cat_viol.r2.s2.0.wav,1.0,what,unsyncopated,b,s2,no_rule,cat,L3,z,4.3283,2.0,0.0,2.4174,4.0,2.0,Español,0 (Materna),Catalán,0 (L2 Materna),Inglés,Des de infantil/primaria,Alemán,11.0,4.0,3.0,yes,no,yes,Flauta,8,1. Cuando comparto música con alguien siento una complicidad especial con aquella persona.,2.0,Nada ,55.0,yes
1,2024-01-21_14h32.13.881,Unsyncopated_study2,s91,21.0,feminino,right,España,Español y catalán,Bachelor degree,no,no,A,1,what,L3,unsyncopated,s2,r1,1,Online_whatL3//b.ñe.sa19.none.none.wav,ji,fu,gu,sil2,chu,do,ka,sil,mo,ko,sil1,['-'],,,none,none,,,,sa,1,testWhatL3Uns//r2.s1.1.wav,1.0,what,unsyncopated,b,s1,rule,rule,L3,z,2.909,3.0,1.0,3.2124,4.0,2.0,Español,0 (Materna),Catalán,0 (L2 Materna),Inglés,Des de infantil/primaria,Alemán,11.0,4.0,3.0,yes,no,yes,Flauta,8,2. En mi tiempo libre apenas escucho música.,5.0,Nada ,55.0,yes
2,2024-01-21_14h32.13.881,Unsyncopated_study2,s91,21.0,feminino,right,España,Español y catalán,Bachelor degree,no,no,A,1,what,L3,unsyncopated,s2,r1,2,Online_whatL3//b.ñe.sa18.none.none.wav,ko,je,ga,sil2,chu,li,fu,sil,mo,gu,sil1,['-'],,,none,none,,,,sa,1,testWhatL3Uns//dep_viol.r1.s2.0.wav,1.0,what,unsyncopated,a,s2,no_rule,dep,L3,m,2.3781,4.0,1.0,2.0047,4.0,2.0,Español,0 (Materna),Catalán,0 (L2 Materna),Inglés,Des de infantil/primaria,Alemán,11.0,4.0,3.0,yes,no,yes,Flauta,8,3. Algunas canciones me ponen los pelos de punta,3.0,Nada ,55.0,yes
3,2024-01-21_14h32.13.881,Unsyncopated_study2,s91,21.0,feminino,right,España,Español y catalán,Bachelor degree,no,no,A,1,what,L3,unsyncopated,s2,r1,3,Online_whatL3//b.ñe.sa17.none.none.wav,di,gu,do,sil,chu,li,le,sil1,mo,ji,sil2,['-'],,,none,none,,,,sa,1,testWhatL3Uns//r1.s1.0.wav,1.0,what,unsyncopated,a,s1,rule,rule,L3,z,2.0426,6.0,1.0,1.6863,4.0,2.0,Español,0 (Materna),Catalán,0 (L2 Materna),Inglés,Des de infantil/primaria,Alemán,11.0,4.0,3.0,yes,no,yes,Flauta,8,4. La música me hace compañía cuando estoy solo,3.0,Nada ,55.0,yes
4,2024-01-21_14h32.13.881,Unsyncopated_study2,s91,21.0,feminino,right,España,Español y catalán,Bachelor degree,no,no,A,1,what,L3,unsyncopated,s1,r2,4,Online_whatL3//a.chu.mo15.none.none.wav,ñe,gu,li,sil,sa,ko,ji,sil2,je,ka,sil1,['false alarm'],[0.5097000000478147],[0.5097000000478147],none,none,,,"[""space""]",chu,2,testWhatL3Uns//r1.s1.1.wav,1.0,what,unsyncopated,a,s1,rule,rule,L3,m,1.7264,6.0,0.0,1.7229,4.0,2.0,Español,0 (Materna),Catalán,0 (L2 Materna),Inglés,Des de infantil/primaria,Alemán,11.0,4.0,3.0,yes,no,yes,Flauta,8,5. No me apetece bailar ni con la música que más me gusta,4.0,Nada ,55.0,yes
5,2024-01-21_14h32.13.881,Unsyncopated_study2,s91,21.0,feminino,right,España,Español y catalán,Bachelor degree,no,no,A,1,what,L3,unsyncopated,s2,r2,5,Online_whatL3//a.chu.mo13.none.none.wav,ko,ka,li,sil2,ñe,fu,gu,sil,sa,ji,sil1,['-'],,,none,none,,,,chu,2,testWhatL3Uns//r2.s2.0.wav,1.0,what,unsyncopated,b,s2,rule,rule,L3,m,2.4026,4.0,0.0,1.4524,4.0,2.0,Español,0 (Materna),Catalán,0 (L2 Materna),Inglés,Des de infantil/primaria,Alemán,11.0,4.0,3.0,yes,no,yes,Flauta,8,6. La música me hace conectar con la gente,2.0,Nada ,55.0,yes
6,2024-01-21_14h32.13.881,Unsyncopated_study2,s91,21.0,feminino,right,España,Español y catalán,Bachelor degree,no,no,A,1,what,L3,unsyncopated,s2,r1,6,Online_whatL3//a.chu.mo12.1110.1998.wav,gu,do,le,sil2,chu,ko,ji,sil,mo,li,sil1,['catch'],[2.4500999999045234],[2.4500999999045234],1.998,no_beat,0.4520999999045234,0.4520999999045234,"[""space""]",chu,2,testWhatL3Uns//r2.s1.0.wav,1.0,what,unsyncopated,b,s1,rule,rule,L3,m,0.8526,3.0,0.0,1.372,4.0,2.0,Español,0 (Materna),Catalán,0 (L2 Materna),Inglés,Des de infantil/primaria,Alemán,11.0,4.0,3.0,yes,no,yes,Flauta,8,7. Me informo sobre la música que me gusta.,3.0,Nada ,55.0,yes
7,2024-01-21_14h32.13.881,Unsyncopated_study2,s91,21.0,feminino,right,España,Español y catalán,Bachelor degree,no,no,A,1,what,L3,unsyncopated,s1,r1,7,Online_whatL3//a.chu.mo14.0.888.wav,chu,fu,do,sil,mo,ko,je,sil2,ga,ji,sil1,['catch'],[1.5335000000000036],[1.5335000000000036],0.888,beat,0.6455000000000036,0.6455000000000036,"[""space""]",chu,2,testWhatL3Uns//cat_viol.r1.s1.0.wav,1.0,what,unsyncopated,a,s1,no_rule,cat,L3,z,1.2956,5.0,0.0,1.7918,4.0,2.0,Español,0 (Materna),Catalán,0 (L2 Materna),Inglés,Des de infantil/primaria,Alemán,11.0,4.0,3.0,yes,no,yes,Flauta,8,8.Me emociono escuchando ciertas canciones.,3.0,Nada ,55.0,yes
8,2024-01-21_14h32.13.881,Unsyncopated_study2,s91,21.0,feminino,right,España,Español y catalán,Bachelor degree,no,no,A,1,what,L3,unsyncopated,s1,r1,8,Online_whatL3//b.ñe.sa31.none.none.wav,chu,ji,fu,sil,mo,li,le,sil1,ka,ko,sil2,['-'],,,none,none,,,,sa,1,testWhatL3Uns//r2.s2.2.wav,1.0,what,unsyncopated,b,s2,rule,rule,L3,m,1.0215,7.0,0.0,1.3444,4.0,2.0,Español,0 (Materna),Catalán,0 (L2 Materna),Inglés,Des de infantil/primaria,Alemán,11.0,4.0,3.0,yes,no,yes,Flauta,8,9.La música me tranquiliza y me relaja.,4.0,Nada ,55.0,yes
9,2024-01-21_14h32.13.881,Unsyncopated_study2,s91,21.0,feminino,right,España,Español y catalán,Bachelor degree,no,no,A,1,what,L3,unsyncopated,s1,r1,9,Online_whatL3//b.ñe.sa29.none.none.wav,chu,le,ga,sil,mo,fu,di,sil2,ji,ko,sil1,['-'],,,none,none,,,,sa,1,testWhatL3Uns//r2.s1.2.wav,1.0,what,unsyncopated,b,s1,rule,rule,L3,m,1.2332,5.0,0.0,1.4545,4.0,2.0,Español,0 (Materna),Catalán,0 (L2 Materna),Inglés,Des de infantil/primaria,Alemán,11.0,4.0,3.0,yes,no,yes,Flauta,8,10.La música me hace bailar,2.0,Nada ,55.0,yes
10,2024-01-21_14h32.13.881,Unsyncopated_study2,s91,21.0,feminino,right,España,Español y catalán,Bachelor degree,no,no,A,1,what,L3,unsyncopated,s2,r2,10,Online_whatL3//b.ñe.sa30.888.1998.wav,li,do,ko,sil,ñe,ka,ji,sil2,sa,fu,sil1,['miss'],,,0.888,beat,,,,sa,1,testWhatL3Uns//dep_viol.r2.s2.0.wav,1.0,what,unsyncopated,b,s2,no_rule,dep,L3,m,2.8406,3.0,1.0,1.3198,4.0,2.0,Español,0 (Materna),Catalán,0 (L2 Materna),Inglés,Des de infantil/primaria,Alemán,11.0,4.0,3.0,yes,no,yes,Flauta,8,11.Busco novedades musicales continuamente,3.0,Nada ,55.0,yes
11,2024-01-21_14h32.13.881,Unsyncopated_study2,s91,21.0,feminino,right,España,Español y catalán,Bachelor degree,no,no,A,1,what,L3,unsyncopated,s2,r1,11,Online_whatL3//b.ñe.sa28.none.none.wav,do,gu,le,sil2,chu,ka,ga,sil,mo,je,sil1,['-'],,,none,none,,,,sa,1,testWhatL3Uns//r1.s2.0.wav,1.0,what,unsyncopated,a,s2,rule,rule,L3,z,1.5614,4.0,1.0,1.884,4.0,2.0,Español,0 (Materna),Catalán,0 (L2 Materna),Inglés,Des de infantil/primaria,Alemán,11.0,4.0,3.0,yes,no,yes,Flauta,8,12. Puedo llorar cuando escucho algunas melodías que me gustan mucho.,3.0,Nada ,55.0,yes
12,2024-01-21_14h32.13.881,Unsyncopated_study2,s91,21.0,feminino,right,España,Español y catalán,Bachelor degree,no,no,A,1,what,L3,unsyncopated,s2,r1,12,Online_whatL3//d.ji.li13.none.none.wav,ga,do,le,sil,chu,ko,ka,sil1,mo,di,sil2,['-'],,,none,none,,,,li,4,testWhatL3Uns//time_viol.r1.s2.0.wav,1.0,what,unsyncopated,a,s2,no_rule,time,L3,m,0.8789,7.0,1.0,1.3976,4.0,2.0,Español,0 (Materna),Catalán,0 (L2 Materna),Inglés,Des de infantil/primaria,Alemán,11.0,4.0,3.0,yes,no,yes,Flauta,8,13. Me gusta cantar o tocar un instrumento con más gente,1.0,Nada ,55.0,yes
13,2024-01-21_14h32.13.881,Unsyncopated_study2,s91,21.0,feminino,right,España,Español y catalán,Bachelor degree,no,no,A,1,what,L3,unsyncopated,s2,r1,13,Online_whatL3//d.ji.li15.222.444.wav,fu,ji,li,sil2,chu,je,ga,sil,mo,di,sil1,['miss'],,,0.222,no_beat,,,,li,4,testWhatL3Uns//cat_viol.r1.s2.0.wav,1.0,what,unsyncopated,a,s2,no_rule,cat,L3,m,1.422,6.0,1.0,1.4938,4.0,2.0,Español,0 (Materna),Catalán,0 (L2 Materna),Inglés,Des de infantil/primaria,Alemán,11.0,4.0,3.0,yes,no,yes,Flauta,8,14. La música me ayuda a desconectar.,3.0,Nada ,55.0,yes
14,2024-01-21_14h32.13.881,Unsyncopated_study2,s91,21.0,feminino,right,España,Español y catalán,Bachelor degree,no,no,A,1,what,L3,unsyncopated,s1,r1,14,Online_whatL3//d.ji.li14.222.1110.wav,chu,ji,ko,sil,mo,li,ga,sil2,do,di,sil1,['catch'],[0.7153999999761709],[0.7153999999761709],0.222,no_beat,0.4933999999761709,0.4933999999761709,"[""space""]",li,4,testWhatL3Uns//time_viol.r2.s2.0.wav,1.0,what,unsyncopated,b,s2,no_rule,time,L3,m,4.3261,6.0,1.0,1.3732,4.0,2.0,Español,0 (Materna),Catalán,0 (L2 Materna),Inglés,Des de infantil/primaria,Alemán,11.0,4.0,3.0,yes,no,yes,Flauta,8,15. No puedo evitar tararear las canciones que me gustan cuando las escucho.,1.0,Nada ,55.0,yes
15,2024-01-21_14h32.13.881,Unsyncopated_study2,s91,21.0,feminino,right,España,Español y catalán,Bachelor degree,no,no,A,1,what,L3,unsyncopated,s1,r1,15,Online_whatL3//d.ji.li12.none.none.wav,chu,je,fu,sil,mo,ga,le,sil2,di,gu,sil1,['false alarm'],[0.7159999999998945],[0.7159999999998945],none,none,,,"[""space""]",li,4,testWhatL3Uns//r2.s2.1.wav,1.0,what,unsyncopated,b,s2,rule,rule,L3,m,9.5618,5.0,0.0,18.0637,4.0,2.0,Español,0 (Materna),Catalán,0 (L2 Materna),Inglés,Des de infantil/primaria,Alemán,11.0,4.0,3.0,yes,no,yes,Flauta,8,16. En los conciertos me siento en sintonía con los artistas y el público.,3.0,Nada ,55.0,yes
16,2024-01-21_14h32.13.881,Unsyncopated_study2,s91,21.0,feminino,right,España,Español y catalán,Bachelor degree,no,no,A,1,what,L3,unsyncopated,s2,r2,16,Online_whatL3//c.gu.je7.none.none.wav,ga,li,do,sil,ñe,ka,ko,sil1,sa,le,sil2,['-'],,,none,none,,,,je,3,testWhatL3Uns//r1.s2.1.wav,1.0,what,unsyncopated,a,s2,rule,rule,L3,z,5.0614,6.0,1.0,1.6272,4.0,2.0,Español,0 (Materna),Catalán,0 (L2 Materna),Inglés,Des de infantil/primaria,Alemán,11.0,4.0,3.0,yes,no,yes,Flauta,8,17. Me gasto bastante dinero en música y cosas relacionadas con la música.,3.0,Nada ,55.0,yes
17,2024-01-21_14h32.13.881,Unsyncopated_study2,s91,21.0,feminino,right,España,Español y catalán,Bachelor degree,no,no,A,1,what,L3,unsyncopated,s1,r1,17,Online_whatL3//c.gu.je6.222.444.wav,chu,gu,je,sil2,mo,fu,ko,sil,ji,ka,sil1,"['catch', 'false alarm']","[1.1264999999998508, 2.247099999904549]",[1.1264999999998508],0.222,no_beat,0.9044999999998508,0.9044999999998508,"[""space"",""space""]",je,3,testWhatL3Uns//dep_viol.r2.s1.0.wav,1.0,what,unsyncopated,b,s1,no_rule,dep,L3,m,1.1734,6.0,1.0,0.8875,4.0,2.0,Español,0 (Materna),Catalán,0 (L2 Materna),Inglés,Des de infantil/primaria,Alemán,11.0,4.0,3.0,yes,no,yes,Flauta,8,18. Siento escalofríos cuando escucho una melodía que me gusta.,3.0,Nada ,55.0,yes
18,2024-01-21_14h32.13.881,Unsyncopated_study2,s91,21.0,feminino,right,España,Español y catalán,Bachelor degree,no,no,A,1,what,L3,unsyncopated,s2,r1,18,Online_whatL3//c.gu.je5.none.none.wav,do,di,ji,sil,chu,li,ka,sil1,mo,le,sil2,['-'],,,none,none,,,,je,3,testWhatL3Uns//dep_viol.r1.s1.0.wav,1.0,what,unsyncopated,a,s1,no_rule,dep,L3,m,1.5769,5.0,1.0,0.6558,4.0,2.0,Español,0 (Materna),Catalán,0 (L2 Materna),Inglés,Des de infantil/primaria,Alemán,11.0,4.0,3.0,yes,no,yes,Flauta,8,19. Con la música me puedo desahogar.,3.0,Nada ,55.0,yes
19,2024-01-21_14h32.13.881,Unsyncopated_study2,s91,21.0,feminino,right,España,Español y catalán,Bachelor degree,no,no,A,1,what,L3,unsyncopated,s2,r2,19,Online_whatL3//c.gu.je4.1110.222.wav,do,je,di,sil,ñe,gu,ji,sil1,sa,le,sil2,['miss'],,,1.11,no_beat,,,,je,3,testWhatL3Uns//cat_viol.r2.s1.0.wav,1.0,what,unsyncopated,b,s1,no_rule,cat,L3,m,1.366,7.0,1.0,2.9308,4.0,2.0,Español,0 (Materna),Catalán,0 (L2 Materna),Inglés,Des de infantil/primaria,Alemán,11.0,4.0,3.0,yes,no,yes,Flauta,8,20. Cuando escucho una melodía que me gusta mucho no puedo evitar mover el cuerpo.,1.0,Nada ,55.0,yes
20,2024-01-21_14h32.13.881,Unsyncopated_study2,s91,21.0,feminino,right,España,Español y catalán,Bachelor degree,no,no,A,1,what,L3,unsyncopated,s1,r2,20,Online_whatL3//b.ñe.sa9.0.1110.wav,ñe,fu,di,sil2,sa,ka,le,sil,li,je,sil1,['catch'],[1.037499999999909],[1.037499999999909],0.0,beat,1.037499999999909,1.037499999999909,"[""space""]",sa,1,testWhatL3Uns//time_viol.r1.s1.0.wav,1.0,what,unsyncopated,a,s1,no_rule,time,L3,z,2.7545,2.0,0.0,1.1999,4.0,2.0,Español,0 (Materna),Catalán,0 (L2 Materna),Inglés,Des de infantil/primaria,Alemán,11.0,4.0,3.0,yes,no,yes,Flauta,8,,,Nada ,55.0,yes
21,2024-01-21_14h32.13.881,Unsyncopated_study2,s91,21.0,feminino,right,España,Español y catalán,Bachelor degree,no,no,A,1,what,L3,unsyncopated,s2,r2,21,Online_whatL3//b.ñe.sa8.1110.1998.wav,li,do,di,sil2,ñe,gu,ji,sil,sa,je,sil1,['catch'],[1.6611000000239073],[1.6611000000239073],1.11,no_beat,0.5511000000239072,0.5511000000239072,"[""space""]",sa,1,testWhatL3Uns//r1.s2.2.wav,1.0,what,unsyncopated,a,s2,rule,rule,L3,m,3.2047,4.0,0.0,1.7407,4.0,2.0,Español,0 (Materna),Catalán,0 (L2 Materna),Inglés,Des de infantil/primaria,Alemán,11.0,4.0,3.0,yes,no,yes,Flauta,8,,,Nada ,55.0,yes
22,2024-01-21_14h32.13.881,Unsyncopated_study2,s91,21.0,feminino,right,España,Español y catalán,Bachelor degree,no,no,A,1,what,L3,unsyncopated,s2,r2,22,Online_whatL3//b.ñe.sa10.1110.1998.wav,ga,le,gu,sil2,ñe,di,li,sil,sa,ji,sil1,['miss'],,,1.11,no_beat,,,,sa,1,testWhatL3Uns//time_viol.r2.s1.0.wav,1.0,what,unsyncopated,b,s1,no_rule,time,L3,m,0.7832,5.0,1.0,0.6775,4.0,2.0,Español,0 (Materna),Catalán,0 (L2 Materna),Inglés,Des de infantil/primaria,Alemán,11.0,4.0,3.0,yes,no,yes,Flauta,8,,,Nada ,55.0,yes
23,2024-01-21_14h32.13.881,Unsyncopated_study2,s91,21.0,feminino,right,España,Español y catalán,Bachelor degree,no,no,A,1,what,L3,unsyncopated,s2,r2,23,Online_whatL3//b.ñe.sa11.1110.1998.wav,li,ko,ka,sil2,ñe,je,ji,sil,sa,fu,sil1,"['false alarm', 'catch']","[0.9262999999523345, 1.8566999999284235]",[1.8566999999284235],1.11,no_beat,0.7466999999284234,0.7466999999284234,"[""space"",""space""]",sa,1,testWhatL3Uns//r1.s1.2.wav,1.0,what,unsyncopated,a,s1,rule,rule,L3,m,1.3653,5.0,0.0,0.8758,4.0,2.0,Español,0 (Materna),Catalán,0 (L2 Materna),Inglés,Des de infantil/primaria,Alemán,11.0,4.0,3.0,yes,no,yes,Flauta,8,,,Nada ,55.0,yes
24,2024-01-21_14h32.13.881,Unsyncopated_study2,s91,21.0,feminino,right,España,Español y catalán,Bachelor degree,no,no,A,1,what,L3,unsyncopated,s1,r2,24,Online_whatL3//b.ñe.sa24.0.888.wav,ñe,je,ga,sil,sa,di,ji,sil1,li,ka,sil2,['miss'],,,0.0,beat,,,,sa,1,testConjL2Uns//time_viol.r1.s2.0.wav,2.0,conjunction_un,unsyncopated,a,s2,no_rule,time,L2,z,1.5731,4.0,0.0,1.3119,4.0,2.0,Español,0 (Materna),Catalán,0 (L2 Materna),Inglés,Des de infantil/primaria,Alemán,11.0,4.0,3.0,yes,no,yes,Flauta,8,,,Nada ,55.0,yes
25,2024-01-21_14h32.13.881,Unsyncopated_study2,s91,21.0,feminino,right,España,Español y catalán,Bachelor degree,no,no,A,1,what,L3,unsyncopated,s1,r2,25,Online_whatL3//b.ñe.sa25.0.888.wav,ñe,di,do,sil,sa,ko,le,sil2,gu,ka,sil1,['catch'],[0.7311000000238437],[0.7311000000238437],0.0,beat,0.7311000000238437,0.7311000000238437,"[""space""]",sa,1,testConjL2Uns//r1.s1.0.wav,2.0,conjunction_un,unsyncopated,a,s1,rule,rule,L2,m,1.7856,4.0,0.0,1.3017,4.0,2.0,Español,0 (Materna),Catalán,0 (L2 Materna),Inglés,Des de infantil/primaria,Alemán,11.0,4.0,3.0,yes,no,yes,Flauta,8,,,Nada ,55.0,yes
26,2024-01-21_14h32.13.881,Unsyncopated_study2,s91,21.0,feminino,right,España,Español y catalán,Bachelor degree,no,no,A,1,what,L3,unsyncopated,s1,r1,26,Online_whatL3//b.ñe.sa26.none.none.wav,chu,di,ga,sil,mo,li,le,sil2,ka,ko,sil1,['-'],,,none,none,,,,sa,1,testConjL2Uns//dep_viol.r1.s2.0.wav,2.0,conjunction_un,unsyncopated,a,s2,no_rule,dep,L2,m,1.046,5.0,1.0,0.9681,4.0,2.0,Español,0 (Materna),Catalán,0 (L2 Materna),Inglés,Des de infantil/primaria,Alemán,11.0,4.0,3.0,yes,no,yes,Flauta,8,,,Nada ,55.0,yes
27,2024-01-21_14h32.13.881,Unsyncopated_study2,s91,21.0,feminino,right,España,Español y catalán,Bachelor degree,no,no,A,1,what,L3,unsyncopated,s2,r2,27,Online_whatL3//b.ñe.sa27.1110.1998.wav,ga,je,fu,sil2,ñe,li,gu,sil,sa,ka,sil1,['miss'],,,1.11,no_beat,,,,sa,1,testConjL2Uns//time_viol.r2.s1.0.wav,2.0,conjunction_un,unsyncopated,b,s1,no_rule,time,L2,m,0.9724,4.0,1.0,0.8649,4.0,2.0,Español,0 (Materna),Catalán,0 (L2 Materna),Inglés,Des de infantil/primaria,Alemán,11.0,4.0,3.0,yes,no,yes,Flauta,8,,,Nada ,55.0,yes
28,2024-01-21_14h32.13.881,Unsyncopated_study2,s91,21.0,feminino,right,España,Español y catalán,Bachelor degree,no,no,A,1,what,L3,unsyncopated,s1,r2,28,Online_whatL3//d.ji.li3.none.none.wav,ñe,di,le,sil,sa,je,gu,sil2,do,ga,sil1,['false alarm'],[0.7438999999760654],[0.7438999999760654],none,none,,,"[""space""]",li,4,testConjL2Uns//r2.s2.2.wav,2.0,conjunction_un,unsyncopated,b,s2,rule,rule,L2,z,1.462,3.0,1.0,0.5467,4.0,2.0,Español,0 (Materna),Catalán,0 (L2 Materna),Inglés,Des de infantil/primaria,Alemán,11.0,4.0,3.0,yes,no,yes,Flauta,8,,,Nada ,55.0,yes
29,2024-01-21_14h32.13.881,Unsyncopated_study2,s91,21.0,feminino,right,España,Español y catalán,Bachelor degree,no,no,A,1,what,L3,unsyncopated,s1,r2,29,Online_whatL3//d.ji.li0.1776.1110.wav,ñe,do,fu,sil,sa,li,gu,sil1,ji,ka,sil2,['catch'],[1.9212000000477474],[1.9212000000477474],1.776,beat,0.1452000000477473,0.1452000000477473,"[""space""]",li,4,testConjL2Uns//r2.s1.1.wav,2.0,conjunction_un,unsyncopated,b,s1,rule,rule,L2,m,1.4617,6.0,0.0,1.3044,4.0,2.0,Español,0 (Materna),Catalán,0 (L2 Materna),Inglés,Des de infantil/primaria,Alemán,11.0,4.0,3.0,yes,no,yes,Flauta,8,,,Nada ,55.0,yes
30,2024-01-21_14h32.13.881,Unsyncopated_study2,s91,21.0,feminino,right,España,Español y catalán,Bachelor degree,no,no,A,1,what,L3,unsyncopated,s2,r2,30,Online_whatL3//d.ji.li2.none.none.wav,ga,do,ka,sil2,ñe,fu,di,sil,sa,le,sil1,['false alarm'],[0.6596000000238291],[0.6596000000238291],none,none,,,"[""space""]",li,4,testConjL2Uns//r2.s1.0.wav,2.0,conjunction_un,unsyncopated,b,s1,rule,rule,L2,m,3.9426,2.0,0.0,1.3165,4.0,2.0,Español,0 (Materna),Catalán,0 (L2 Materna),Inglés,Des de infantil/primaria,Alemán,11.0,4.0,3.0,yes,no,yes,Flauta,8,,,Nada ,55.0,yes
31,2024-01-21_14h32.13.881,Unsyncopated_study2,s91,21.0,feminino,right,España,Español y catalán,Bachelor degree,no,no,A,1,what,L3,unsyncopated,s1,r1,31,Online_whatL3//d.ji.li1.444.1110.wav,chu,je,ji,sil,mo,li,ko,sil1,le,do,sil2,['miss'],,,0.444,no_beat,,,,li,4,testConjL2Uns//cat_viol.r2.s2.0.wav,2.0,conjunction_un,unsyncopated,b,s2,no_rule,cat,L2,m,1.0492,4.0,1.0,1.3124,4.0,2.0,Español,0 (Materna),Catalán,0 (L2 Materna),Inglés,Des de infantil/primaria,Alemán,11.0,4.0,3.0,yes,no,yes,Flauta,8,,,Nada ,55.0,yes
32,2024-01-21_14h32.13.881,Unsyncopated_study2,s91,21.0,feminino,right,España,Español y catalán,Bachelor degree,no,no,A,1,what,L3,unsyncopated,s2,r2,32,Online_whatL3//d.ji.li21.none.none.wav,di,le,ko,sil,ñe,ka,je,sil1,sa,gu,sil2,['-'],,,none,none,,,,li,4,testConjL2Uns//r1.s2.1.wav,2.0,conjunction_un,unsyncopated,a,s2,rule,rule,L2,z,1.355,5.0,1.0,1.0838,4.0,2.0,Español,0 (Materna),Catalán,0 (L2 Materna),Inglés,Des de infantil/primaria,Alemán,11.0,4.0,3.0,yes,no,yes,Flauta,8,,,Nada ,55.0,yes
33,2024-01-21_14h32.13.881,Unsyncopated_study2,s91,21.0,feminino,right,España,Español y catalán,Bachelor degree,no,no,A,1,what,L3,unsyncopated,s1,r1,33,Online_whatL3//d.ji.li20.none.none.wav,chu,gu,fu,sil2,mo,ga,do,sil,ka,di,sil1,['false alarm'],[1.8755000000001019],[1.8755000000001019],none,none,,,"[""space""]",li,4,testConjL2Uns//time_viol.r2.s2.0.wav,2.0,conjunction_un,unsyncopated,b,s2,no_rule,time,L2,m,0.9402,4.0,1.0,1.1008,4.0,2.0,Español,0 (Materna),Catalán,0 (L2 Materna),Inglés,Des de infantil/primaria,Alemán,11.0,4.0,3.0,yes,no,yes,Flauta,8,,,Nada ,55.0,yes
34,2024-01-21_14h32.13.881,Unsyncopated_study2,s91,21.0,feminino,right,España,Español y catalán,Bachelor degree,no,no,A,1,what,L3,unsyncopated,s2,r2,34,Online_whatL3//d.ji.li23.0.444.wav,ji,ko,li,sil,ñe,di,fu,sil2,sa,je,sil1,['miss'],,,0.0,beat,,,,li,4,testConjL2Uns//r2.s2.1.wav,2.0,conjunction_un,unsyncopated,b,s2,rule,rule,L2,m,2.0023,3.0,0.0,1.3023,4.0,2.0,Español,0 (Materna),Catalán,0 (L2 Materna),Inglés,Des de infantil/primaria,Alemán,11.0,4.0,3.0,yes,no,yes,Flauta,8,,,Nada ,55.0,yes
35,2024-01-21_14h32.13.881,Unsyncopated_study2,s91,21.0,feminino,right,España,Español y catalán,Bachelor degree,no,no,A,1,what,L3,unsyncopated,s2,r2,35,Online_whatL3//d.ji.li22.none.none.wav,gu,ka,di,sil,ñe,do,ga,sil2,sa,ko,sil1,['-'],,,none,none,,,,li,4,testConjL2Uns//r1.s1.1.wav,2.0,conjunction_un,unsyncopated,a,s1,rule,rule,L2,m,1.1507,5.0,0.0,0.5525,4.0,2.0,Español,0 (Materna),Catalán,0 (L2 Materna),Inglés,Des de infantil/primaria,Alemán,11.0,4.0,3.0,yes,no,yes,Flauta,8,,,Nada ,55.0,yes
36,2024-01-21_14h32.13.881,Unsyncopated_study2,s91,21.0,feminino,right,España,Español y catalán,Bachelor degree,no,no,A,1,what,L3,unsyncopated,s1,r2,36,Online_whatL3//b.ñe.sa21.0.1110.wav,ñe,do,li,sil2,sa,je,ko,sil,le,ga,sil1,['miss'],,,0.0,beat,,,,sa,1,testConjL2Uns//r1.s2.0.wav,2.0,conjunction_un,unsyncopated,a,s2,rule,rule,L2,z,0.9834,7.0,1.0,0.9907,4.0,2.0,Español,0 (Materna),Catalán,0 (L2 Materna),Inglés,Des de infantil/primaria,Alemán,11.0,4.0,3.0,yes,no,yes,Flauta,8,,,Nada ,55.0,yes
37,2024-01-21_14h32.13.881,Unsyncopated_study2,s91,21.0,feminino,right,España,Español y catalán,Bachelor degree,no,no,A,1,what,L3,unsyncopated,s1,r1,37,Online_whatL3//b.ñe.sa20.none.none.wav,chu,li,do,sil,mo,je,gu,sil1,ga,le,sil2,['-'],,,none,none,,,,sa,1,testConjL2Uns//dep_viol.r1.s1.0.wav,2.0,conjunction_un,unsyncopated,a,s1,no_rule,dep,L2,m,1.4636,3.0,1.0,0.6526,4.0,2.0,Español,0 (Materna),Catalán,0 (L2 Materna),Inglés,Des de infantil/primaria,Alemán,11.0,4.0,3.0,yes,no,yes,Flauta,8,,,Nada ,55.0,yes
38,2024-01-21_14h32.13.881,Unsyncopated_study2,s91,21.0,feminino,right,España,Español y catalán,Bachelor degree,no,no,A,1,what,L3,unsyncopated,s2,r1,38,Online_whatL3//b.ñe.sa23.none.none.wav,le,je,do,sil,chu,ji,ka,sil2,mo,ko,sil1,['false alarm'],[0.7393000000715801],[0.7393000000715801],none,none,,,"[""space""]",sa,1,testConjL2Uns//dep_viol.r2.s1.0.wav,2.0,conjunction_un,unsyncopated,b,s1,no_rule,dep,L2,m,1.5683,3.0,1.0,1.1162,4.0,2.0,Español,0 (Materna),Catalán,0 (L2 Materna),Inglés,Des de infantil/primaria,Alemán,11.0,4.0,3.0,yes,no,yes,Flauta,8,,,Nada ,55.0,yes
39,2024-01-21_14h32.13.881,Unsyncopated_study2,s91,21.0,feminino,right,España,Español y catalán,Bachelor degree,no,no,A,1,what,L3,unsyncopated,s1,r2,39,Online_whatL3//b.ñe.sa22.0.1110.wav,ñe,gu,fu,sil2,sa,je,ga,sil,do,ko,sil1,['miss'],,,0.0,beat,,,,sa,1,testConjL2Uns//r2.s2.0.wav,2.0,conjunction_un,unsyncopated,b,s2,rule,rule,L2,z,1.0,6.0,1.0,1.481,4.0,2.0,Español,0 (Materna),Catalán,0 (L2 Materna),Inglés,Des de infantil/primaria,Alemán,11.0,4.0,3.0,yes,no,yes,Flauta,8,,,Nada ,55.0,yes
40,2024-01-21_14h32.13.881,Unsyncopated_study2,s91,21.0,feminino,right,España,Español y catalán,Bachelor degree,no,no,A,1,what,L3,unsyncopated,s2,r1,40,Online_whatL3//d.ji.li19.1554.222.wav,le,li,do,sil2,chu,ka,ji,sil,mo,di,sil1,"['false alarm', 'catch']","[0.7176000000238218, 2.25520000004758]",[2.25520000004758],1.554,no_beat,0.70120000004758,0.70120000004758,"[""space"",""space""]",li,4,testConjL2Uns//cat_viol.r1.s2.0.wav,2.0,conjunction_un,unsyncopated,a,s2,no_rule,cat,L2,z,1.7787,3.0,0.0,0.8741,4.0,2.0,Español,0 (Materna),Catalán,0 (L2 Materna),Inglés,Des de infantil/primaria,Alemán,11.0,4.0,3.0,yes,no,yes,Flauta,8,,,Nada ,55.0,yes
41,2024-01-21_14h32.13.881,Unsyncopated_study2,s91,21.0,feminino,right,España,Español y catalán,Bachelor degree,no,no,A,1,what,L3,unsyncopated,s1,r2,41,Online_whatL3//d.ji.li16.1776.1110.wav,ñe,le,ko,sil,sa,li,je,sil1,ji,fu,sil2,['miss'],,,1.776,beat,,,,li,4,testConjL2Uns//dep_viol.r2.s2.0.wav,2.0,conjunction_un,unsyncopated,b,s2,no_rule,dep,L2,z,1.0499,4.0,0.0,1.0953,4.0,2.0,Español,0 (Materna),Catalán,0 (L2 Materna),Inglés,Des de infantil/primaria,Alemán,11.0,4.0,3.0,yes,no,yes,Flauta,8,,,Nada ,55.0,yes
42,2024-01-21_14h32.13.881,Unsyncopated_study2,s91,21.0,feminino,right,España,Español y catalán,Bachelor degree,no,no,A,1,what,L3,unsyncopated,s1,r2,42,Online_whatL3//d.ji.li17.none.none.wav,ñe,ko,gu,sil,sa,le,do,sil2,je,ga,sil1,['-'],,,none,none,,,,li,4,testConjL2Uns//cat_viol.r2.s1.0.wav,2.0,conjunction_un,unsyncopated,b,s1,no_rule,cat,L2,m,1.6681,6.0,1.0,0.9246,4.0,2.0,Español,0 (Materna),Catalán,0 (L2 Materna),Inglés,Des de infantil/primaria,Alemán,11.0,4.0,3.0,yes,no,yes,Flauta,8,,,Nada ,55.0,yes
43,2024-01-21_14h32.13.881,Unsyncopated_study2,s91,21.0,feminino,right,España,Español y catalán,Bachelor degree,no,no,A,1,what,L3,unsyncopated,s1,r2,43,Online_whatL3//d.ji.li18.222.1332.wav,ñe,ji,di,sil2,sa,li,gu,sil,ko,fu,sil1,['catch'],[1.5533999999761363],[1.5533999999761363],0.222,no_beat,,1.3313999999761363,"[""space""]",li,4,testConjL2Uns//cat_viol.r1.s1.0.wav,2.0,conjunction_un,unsyncopated,a,s1,no_rule,cat,L2,z,1.7057,3.0,0.0,1.9365,4.0,2.0,Español,0 (Materna),Catalán,0 (L2 Materna),Inglés,Des de infantil/primaria,Alemán,11.0,4.0,3.0,yes,no,yes,Flauta,8,,,Nada ,55.0,yes
44,2024-01-21_14h32.13.881,Unsyncopated_study2,s91,21.0,feminino,right,España,Español y catalán,Bachelor degree,no,no,A,1,what,L3,unsyncopated,s2,r1,44,Online_whatL3//a.chu.mo2.1110.1998.wav,fu,do,je,sil2,chu,gu,li,sil,mo,ka,sil1,['catch'],[2.4153999999762163],[2.4153999999762163],1.998,no_beat,0.4173999999762163,0.4173999999762163,"[""space""]",chu,2,testConjL2Uns//r1.s2.2.wav,2.0,conjunction_un,unsyncopated,a,s2,rule,rule,L2,m,1.0979,4.0,0.0,0.801,4.0,2.0,Español,0 (Materna),Catalán,0 (L2 Materna),Inglés,Des de infantil/primaria,Alemán,11.0,4.0,3.0,yes,no,yes,Flauta,8,,,Nada ,55.0,yes
45,2024-01-21_14h32.13.881,Unsyncopated_study2,s91,21.0,feminino,right,España,Español y catalán,Bachelor degree,no,no,A,1,what,L3,unsyncopated,s1,r2,45,Online_whatL3//a.chu.mo1.none.none.wav,ñe,gu,ji,sil,sa,di,ga,sil2,fu,ka,sil1,['-'],,,none,none,,,,chu,2,testConjL2Uns//r1.s1.2.wav,2.0,conjunction_un,unsyncopated,a,s1,rule,rule,L2,m,1.1073,5.0,0.0,1.0494,4.0,2.0,Español,0 (Materna),Catalán,0 (L2 Materna),Inglés,Des de infantil/primaria,Alemán,11.0,4.0,3.0,yes,no,yes,Flauta,8,,,Nada ,55.0,yes
46,2024-01-21_14h32.13.881,Unsyncopated_study2,s91,21.0,feminino,right,España,Español y catalán,Bachelor degree,no,no,A,1,what,L3,unsyncopated,s1,r2,46,Online_whatL3//a.chu.mo3.none.none.wav,ñe,gu,li,sil,sa,je,do,sil1,ji,ka,sil2,['-'],,,none,none,,,,chu,2,testConjL2Uns//r2.s1.2.wav,2.0,conjunction_un,unsyncopated,b,s1,rule,rule,L2,m,1.3488,4.0,0.0,0.9368,4.0,2.0,Español,0 (Materna),Catalán,0 (L2 Materna),Inglés,Des de infantil/primaria,Alemán,11.0,4.0,3.0,yes,no,yes,Flauta,8,,,Nada ,55.0,yes
47,2024-01-21_14h32.13.881,Unsyncopated_study2,s91,21.0,feminino,right,España,Español y catalán,Bachelor degree,no,no,A,1,what,L3,unsyncopated,s2,r1,47,Online_whatL3//a.chu.mo0.1110.1998.wav,fu,di,li,sil2,chu,ga,ko,sil,mo,le,sil1,['catch'],[2.527899999976171],[2.527899999976171],1.998,no_beat,0.5298999999761709,0.5298999999761709,"[""space""]",chu,2,testConjL2Uns//time_viol.r1.s1.0.wav,2.0,conjunction_un,unsyncopated,a,s1,no_rule,time,L2,z,1.1132,2.0,0.0,1.2652,4.0,2.0,Español,0 (Materna),Catalán,0 (L2 Materna),Inglés,Des de infantil/primaria,Alemán,11.0,4.0,3.0,yes,no,yes,Flauta,8,,,Nada ,55.0,yes
48,2024-01-21_14h32.13.881,Unsyncopated_study2,s91,21.0,feminino,right,España,Español y catalán,Bachelor degree,no,no,A,1,what,L3,unsyncopated,s2,r2,48,Online_whatL3//b.ñe.sa3.888.1776.wav,le,di,gu,sil,ñe,li,je,sil1,sa,ko,sil2,['miss'],,,0.888,beat,,,,sa,1,testConjL1Syn//r2.s1.1.wav,3.0,conjunction_syn,syncopated,b,s1,rule,rule,L1,z,1.3626,4.0,1.0,1.6223,4.0,2.0,Español,0 (Materna),Catalán,0 (L2 Materna),Inglés,Des de infantil/primaria,Alemán,11.0,4.0,3.0,yes,no,yes,Flauta,8,,,Nada ,55.0,yes
49,2024-01-21_14h32.13.881,Unsyncopated_study2,s91,21.0,feminino,right,España,Español y catalán,Bachelor degree,no,no,A,1,what,L3,unsyncopated,s1,r2,49,Online_whatL3//b.ñe.sa1.0.888.wav,ñe,le,je,sil,sa,ka,ko,sil2,do,gu,sil1,['catch'],[0.5177000000476255],[0.5177000000476255],0.0,beat,0.5177000000476255,0.5177000000476255,"[""space""]",sa,1,testConjL1Syn//r1.s2.1.wav,3.0,conjunction_syn,syncopated,a,s2,rule,rule,L1,z,1.6692,2.0,1.0,0.9757,4.0,2.0,Español,0 (Materna),Catalán,0 (L2 Materna),Inglés,Des de infantil/primaria,Alemán,11.0,4.0,3.0,yes,no,yes,Flauta,8,,,Nada ,55.0,yes
50,2024-01-21_14h32.13.881,Unsyncopated_study2,s91,21.0,feminino,right,España,Español y catalán,Bachelor degree,no,no,A,1,what,L3,unsyncopated,s2,r1,50,Online_whatL3//b.ñe.sa2.none.none.wav,fu,ko,di,sil,chu,le,gu,sil2,mo,je,sil1,['-'],,,none,none,,,,sa,1,testConjL1Syn//r1.s2.2.wav,3.0,conjunction_syn,syncopated,a,s2,rule,rule,L1,m,0.9329,3.0,0.0,1.1835,4.0,2.0,Español,0 (Materna),Catalán,0 (L2 Materna),Inglés,Des de infantil/primaria,Alemán,11.0,4.0,3.0,yes,no,yes,Flauta,8,,,Nada ,55.0,yes
51,2024-01-21_14h32.13.881,Unsyncopated_study2,s91,21.0,feminino,right,España,Español y catalán,Bachelor degree,no,no,A,1,what,L3,unsyncopated,s2,r1,51,Online_whatL3//b.ñe.sa0.none.none.wav,ko,le,ji,sil2,chu,do,gu,sil,mo,fu,sil1,['-'],,,none,none,,,,sa,1,testConjL1Syn//r1.s1.2.wav,3.0,conjunction_syn,syncopated,a,s1,rule,rule,L1,m,0.9392,4.0,0.0,1.183,4.0,2.0,Español,0 (Materna),Catalán,0 (L2 Materna),Inglés,Des de infantil/primaria,Alemán,11.0,4.0,3.0,yes,no,yes,Flauta,8,,,Nada ,55.0,yes
52,2024-01-21_14h32.13.881,Unsyncopated_study2,s91,21.0,feminino,right,España,Español y catalán,Bachelor degree,no,no,A,1,what,L3,unsyncopated,s2,r1,52,Online_whatL3//a.chu.mo6.888.1776.wav,do,ko,ka,sil,chu,fu,gu,sil1,mo,ga,sil2,['catch'],[2.2476000000237946],[2.2476000000237946],1.776,beat,0.4716000000237945,0.4716000000237945,"[""space""]",chu,2,testConjL1Syn//time_viol.r2.s1.0.wav,3.0,conjunction_syn,syncopated,b,s1,no_rule,time,L1,m,2.4996,1.0,1.0,1.1898,4.0,2.0,Español,0 (Materna),Catalán,0 (L2 Materna),Inglés,Des de infantil/primaria,Alemán,11.0,4.0,3.0,yes,no,yes,Flauta,8,,,Nada ,55.0,yes
53,2024-01-21_14h32.13.881,Unsyncopated_study2,s91,21.0,feminino,right,España,Español y catalán,Bachelor degree,no,no,A,1,what,L3,unsyncopated,s2,r2,53,Online_whatL3//a.chu.mo5.none.none.wav,ga,ka,li,sil2,ñe,gu,le,sil,sa,di,sil1,['-'],,,none,none,,,,chu,2,testConjL1Syn//time_viol.r1.s2.0.wav,3.0,conjunction_syn,syncopated,a,s2,no_rule,time,L1,m,1.1511,5.0,1.0,1.18,4.0,2.0,Español,0 (Materna),Catalán,0 (L2 Materna),Inglés,Des de infantil/primaria,Alemán,11.0,4.0,3.0,yes,no,yes,Flauta,8,,,Nada ,55.0,yes
54,2024-01-21_14h32.13.881,Unsyncopated_study2,s91,21.0,feminino,right,España,Español y catalán,Bachelor degree,no,no,A,1,what,L3,unsyncopated,s1,r2,54,Online_whatL3//a.chu.mo4.none.none.wav,ñe,le,gu,sil2,sa,ji,je,sil,ga,li,sil1,['-'],,,none,none,,,,chu,2,testConjL1Syn//cat_viol.r1.s1.0.wav,3.0,conjunction_syn,syncopated,a,s1,no_rule,cat,L1,z,1.3496,2.0,0.0,0.8716,4.0,2.0,Español,0 (Materna),Catalán,0 (L2 Materna),Inglés,Des de infantil/primaria,Alemán,11.0,4.0,3.0,yes,no,yes,Flauta,8,,,Nada ,55.0,yes
55,2024-01-21_14h32.13.881,Unsyncopated_study2,s91,21.0,feminino,right,España,Español y catalán,Bachelor degree,no,no,A,1,what,L3,unsyncopated,s1,r1,55,Online_whatL3//a.chu.mo7.0.888.wav,chu,ka,do,sil,mo,le,je,sil1,li,fu,sil2,['catch'],[1.5360999999045362],[1.5360999999045362],0.888,beat,0.6480999999045362,0.6480999999045362,"[""space""]",chu,2,testConjL1Syn//cat_viol.r2.s2.0.wav,3.0,conjunction_syn,syncopated,b,s2,no_rule,cat,L1,m,1.1902,5.0,1.0,2.0053,4.0,2.0,Español,0 (Materna),Catalán,0 (L2 Materna),Inglés,Des de infantil/primaria,Alemán,11.0,4.0,3.0,yes,no,yes,Flauta,8,,,Nada ,55.0,yes
56,2024-01-21_14h32.13.881,Unsyncopated_study2,s91,21.0,feminino,right,España,Español y catalán,Bachelor degree,no,no,A,1,what,L3,unsyncopated,s1,r1,56,Online_whatL3//a.chu.mo18.0.888.wav,chu,le,ko,sil,mo,ka,li,sil1,gu,je,sil2,['catch'],[1.5397999999522654],[1.5397999999522654],0.888,beat,0.6517999999522653,0.6517999999522653,"[""space""]",chu,2,testConjL1Syn//r1.s1.1.wav,3.0,conjunction_syn,syncopated,a,s1,rule,rule,L1,m,1.064,6.0,0.0,0.5426,4.0,2.0,Español,0 (Materna),Catalán,0 (L2 Materna),Inglés,Des de infantil/primaria,Alemán,11.0,4.0,3.0,yes,no,yes,Flauta,8,,,Nada ,55.0,yes
57,2024-01-21_14h32.13.881,Unsyncopated_study2,s91,21.0,feminino,right,España,Español y catalán,Bachelor degree,no,no,A,1,what,L3,unsyncopated,s1,r1,57,Online_whatL3//a.chu.mo16.0.1110.wav,chu,ga,gu,sil2,mo,li,fu,sil,do,ka,sil1,['catch'],[1.2247999999522108],[1.2247999999522108],1.11,no_beat,0.1147999999522106,0.1147999999522106,"[""space""]",chu,2,testConjL1Syn//r2.s2.2.wav,3.0,conjunction_syn,syncopated,b,s2,rule,rule,L1,z,1.1487,2.0,1.0,1.2914,4.0,2.0,Español,0 (Materna),Catalán,0 (L2 Materna),Inglés,Des de infantil/primaria,Alemán,11.0,4.0,3.0,yes,no,yes,Flauta,8,,,Nada ,55.0,yes
58,2024-01-21_14h32.13.881,Unsyncopated_study2,s91,21.0,feminino,right,España,Español y catalán,Bachelor degree,no,no,A,1,what,L3,unsyncopated,s2,r1,58,Online_whatL3//a.chu.mo17.888.1998.wav,je,le,ji,sil,chu,do,fu,sil2,mo,li,sil1,['catch'],[2.4617000000475855],[2.4617000000475855],1.998,no_beat,0.4637000000475855,0.4637000000475855,"[""space""]",chu,2,testConjL1Syn//cat_viol.r2.s1.0.wav,3.0,conjunction_syn,syncopated,b,s1,no_rule,cat,L1,m,1.0406,4.0,1.0,0.7519,4.0,2.0,Español,0 (Materna),Catalán,0 (L2 Materna),Inglés,Des de infantil/primaria,Alemán,11.0,4.0,3.0,yes,no,yes,Flauta,8,,,Nada ,55.0,yes
59,2024-01-21_14h32.13.881,Unsyncopated_study2,s91,21.0,feminino,right,España,Español y catalán,Bachelor degree,no,no,A,1,what,L3,unsyncopated,s2,r2,59,Online_whatL3//a.chu.mo19.none.none.wav,ga,gu,ji,sil,ñe,ko,je,sil2,sa,li,sil1,['-'],,,none,none,,,,chu,2,testConjL1Syn//r1.s1.0.wav,3.0,conjunction_syn,syncopated,a,s1,rule,rule,L1,z,1.0431,5.0,1.0,1.2929,4.0,2.0,Español,0 (Materna),Catalán,0 (L2 Materna),Inglés,Des de infantil/primaria,Alemán,11.0,4.0,3.0,yes,no,yes,Flauta,8,,,Nada ,55.0,yes
60,2024-01-21_14h32.13.881,Unsyncopated_study2,s91,21.0,feminino,right,España,Español y catalán,Bachelor degree,no,no,A,1,what,L3,unsyncopated,s2,r2,60,Online_whatL3//a.chu.mo31.none.none.wav,ka,di,ko,sil,ñe,ji,fu,sil1,sa,le,sil2,['-'],,,none,none,,,,chu,2,testConjL1Syn//time_viol.r2.s2.0.wav,3.0,conjunction_syn,syncopated,b,s2,no_rule,time,L1,m,0.9395,4.0,1.0,1.2989,4.0,2.0,Español,0 (Materna),Catalán,0 (L2 Materna),Inglés,Des de infantil/primaria,Alemán,11.0,4.0,3.0,yes,no,yes,Flauta,8,,,Nada ,55.0,yes
61,2024-01-21_14h32.13.881,Unsyncopated_study2,s91,21.0,feminino,right,España,Español y catalán,Bachelor degree,no,no,A,1,what,L3,unsyncopated,s1,r2,61,Online_whatL3//a.chu.mo29.none.none.wav,ñe,do,di,sil,sa,gu,ko,sil1,le,ka,sil2,['-'],,,none,none,,,,chu,2,testConjL1Syn//r2.s1.2.wav,3.0,conjunction_syn,syncopated,b,s1,rule,rule,L1,m,0.9734,3.0,0.0,0.7876,4.0,2.0,Español,0 (Materna),Catalán,0 (L2 Materna),Inglés,Des de infantil/primaria,Alemán,11.0,4.0,3.0,yes,no,yes,Flauta,8,,,Nada ,55.0,yes
62,2024-01-21_14h32.13.881,Unsyncopated_study2,s91,21.0,feminino,right,España,Español y catalán,Bachelor degree,no,no,A,1,what,L3,unsyncopated,s1,r1,62,Online_whatL3//a.chu.mo30.0.888.wav,chu,ko,li,sil,mo,gu,le,sil2,je,fu,sil1,['catch'],[2.2754999999999654],[2.2754999999999654],0.888,beat,,1.3874999999999655,"[""space""]",chu,2,testConjL1Syn//time_viol.r1.s1.0.wav,3.0,conjunction_syn,syncopated,a,s1,no_rule,time,L1,z,1.2483,2.0,0.0,1.0801,4.0,2.0,Español,0 (Materna),Catalán,0 (L2 Materna),Inglés,Des de infantil/primaria,Alemán,11.0,4.0,3.0,yes,no,yes,Flauta,8,,,Nada ,55.0,yes
63,2024-01-21_14h32.13.881,Unsyncopated_study2,s91,21.0,feminino,right,España,Español y catalán,Bachelor degree,no,no,A,1,what,L3,unsyncopated,s2,r2,63,Online_whatL3//a.chu.mo28.none.none.wav,di,do,ka,sil,ñe,ko,ji,sil1,sa,fu,sil2,['-'],,,none,none,,,,chu,2,testConjL1Syn//r2.s2.0.wav,3.0,conjunction_syn,syncopated,b,s2,rule,rule,L1,m,1.351,4.0,0.0,0.8645,4.0,2.0,Español,0 (Materna),Catalán,0 (L2 Materna),Inglés,Des de infantil/primaria,Alemán,11.0,4.0,3.0,yes,no,yes,Flauta,8,,,Nada ,55.0,yes
64,2024-01-21_14h32.13.881,Unsyncopated_study2,s91,21.0,feminino,right,España,Español y catalán,Bachelor degree,no,no,A,1,what,L3,unsyncopated,s1,r2,64,Online_whatL3//c.gu.je2.none.none.wav,ñe,di,fu,sil,sa,ji,ga,sil1,ko,do,sil2,['-'],,,none,none,,,,je,3,testConjL1Syn//r2.s2.1.wav,3.0,conjunction_syn,syncopated,b,s2,rule,rule,L1,m,1.0356,6.0,0.0,0.9704,4.0,2.0,Español,0 (Materna),Catalán,0 (L2 Materna),Inglés,Des de infantil/primaria,Alemán,11.0,4.0,3.0,yes,no,yes,Flauta,8,,,Nada ,55.0,yes
65,2024-01-21_14h32.13.881,Unsyncopated_study2,s91,21.0,feminino,right,España,Español y catalán,Bachelor degree,no,no,A,1,what,L3,unsyncopated,s1,r1,65,Online_whatL3//c.gu.je3.none.none.wav,chu,le,do,sil,mo,ji,ka,sil2,li,fu,sil1,['-'],,,none,none,,,,je,3,testConjL1Syn//dep_viol.r2.s2.0.wav,3.0,conjunction_syn,syncopated,b,s2,no_rule,dep,L1,m,1.8667,6.0,1.0,0.7585,4.0,2.0,Español,0 (Materna),Catalán,0 (L2 Materna),Inglés,Des de infantil/primaria,Alemán,11.0,4.0,3.0,yes,no,yes,Flauta,8,,,Nada ,55.0,yes
66,2024-01-21_14h32.13.881,Unsyncopated_study2,s91,21.0,feminino,right,España,Español y catalán,Bachelor degree,no,no,A,1,what,L3,unsyncopated,s2,r1,66,Online_whatL3//c.gu.je1.222.1332.wav,di,gu,le,sil2,chu,je,ga,sil,mo,ka,sil1,['miss'],,,0.222,no_beat,,,,je,3,testConjL1Syn//r1.s2.0.wav,3.0,conjunction_syn,syncopated,a,s2,rule,rule,L1,z,1.0446,5.0,1.0,1.0838,4.0,2.0,Español,0 (Materna),Catalán,0 (L2 Materna),Inglés,Des de infantil/primaria,Alemán,11.0,4.0,3.0,yes,no,yes,Flauta,8,,,Nada ,55.0,yes
67,2024-01-21_14h32.13.881,Unsyncopated_study2,s91,21.0,feminino,right,España,Español y catalán,Bachelor degree,no,no,A,1,what,L3,unsyncopated,s1,r1,67,Online_whatL3//c.gu.je0.none.none.wav,chu,ko,li,sil,mo,ji,le,sil2,ga,di,sil1,['-'],,,none,none,,,,je,3,testConjL1Syn//dep_viol.r1.s2.0.wav,3.0,conjunction_syn,syncopated,a,s2,no_rule,dep,L1,m,1.1465,4.0,1.0,0.9862,4.0,2.0,Español,0 (Materna),Catalán,0 (L2 Materna),Inglés,Des de infantil/primaria,Alemán,11.0,4.0,3.0,yes,no,yes,Flauta,8,,,Nada ,55.0,yes
68,2024-01-21_14h32.13.881,Unsyncopated_study2,s91,21.0,feminino,right,España,Español y catalán,Bachelor degree,no,no,A,1,what,L3,unsyncopated,s2,r2,68,Online_whatL3//c.gu.je24.222.1110.wav,fu,gu,do,sil,ñe,je,di,sil1,sa,ga,sil2,['miss'],,,0.222,no_beat,,,,je,3,testConjL1Syn//dep_viol.r2.s1.0.wav,3.0,conjunction_syn,syncopated,b,s1,no_rule,dep,L1,m,1.0449,4.0,1.0,1.0327,4.0,2.0,Español,0 (Materna),Catalán,0 (L2 Materna),Inglés,Des de infantil/primaria,Alemán,11.0,4.0,3.0,yes,no,yes,Flauta,8,,,Nada ,55.0,yes
69,2024-01-21_14h32.13.881,Unsyncopated_study2,s91,21.0,feminino,right,España,Español y catalán,Bachelor degree,no,no,A,1,what,L3,unsyncopated,s1,r2,69,Online_whatL3//c.gu.je27.1776.222.wav,ñe,je,li,sil,sa,ji,ga,sil1,gu,fu,sil2,['catch_delay'],[1.1993999999761746],[1.1993999999761746],1.776,beat,1.1993999999761746,1.1993999999761746,,je,3,testConjL1Syn//r2.s1.0.wav,3.0,conjunction_syn,syncopated,b,s1,rule,rule,L1,z,1.2485,5.0,1.0,0.7706,4.0,2.0,Español,0 (Materna),Catalán,0 (L2 Materna),Inglés,Des de infantil/primaria,Alemán,11.0,4.0,3.0,yes,no,yes,Flauta,8,,,Nada ,55.0,yes
70,2024-01-21_14h32.13.881,Unsyncopated_study2,s91,21.0,feminino,right,España,Español y catalán,Bachelor degree,no,no,A,1,what,L3,unsyncopated,s1,r1,70,Online_whatL3//c.gu.je26.none.none.wav,chu,di,le,sil,mo,li,ko,sil2,ka,fu,sil1,['-'],[0.3113999999761745],[0.3113999999761745],none,none,,,"[""space""]",je,3,testConjL1Syn//dep_viol.r1.s1.0.wav,3.0,conjunction_syn,syncopated,a,s1,no_rule,dep,L1,m,2.5978,4.0,1.0,1.0719,4.0,2.0,Español,0 (Materna),Catalán,0 (L2 Materna),Inglés,Des de infantil/primaria,Alemán,11.0,4.0,3.0,yes,no,yes,Flauta,8,,,Nada ,55.0,yes
71,2024-01-21_14h32.13.881,Unsyncopated_study2,s91,21.0,feminino,right,España,Español y catalán,Bachelor degree,no,no,A,1,what,L3,unsyncopated,s1,r2,71,Online_whatL3//c.gu.je25.none.none.wav,ñe,ko,ka,sil,sa,do,li,sil2,di,ji,sil1,['-'],,,none,none,,,,je,3,testConjL1Syn//cat_viol.r1.s2.0.wav,3.0,conjunction_syn,syncopated,a,s2,no_rule,cat,L1,z,2.2838,4.0,0.0,0.6545,4.0,2.0,Español,0 (Materna),Catalán,0 (L2 Materna),Inglés,Des de infantil/primaria,Alemán,11.0,4.0,3.0,yes,no,yes,Flauta,8,,,Nada ,55.0,yes
72,2024-01-21_14h32.13.881,Unsyncopated_study2,s91,21.0,feminino,right,España,Español y catalán,Bachelor degree,no,no,A,1,what,L3,unsyncopated,s2,r2,72,Online_whatL3//a.chu.mo11.none.none.wav,ka,gu,ko,sil,ñe,do,ga,sil1,sa,je,sil2,['-'],,,none,none,,,,chu,2,testWhenL4Uns//dep_viol.r1.s1.0.wav,4.0,when,unsyncopated,a,s1,no_rule,dep,L4,m,1.5611,5.0,0.0,1.1807,4.0,2.0,Español,0 (Materna),Catalán,0 (L2 Materna),Inglés,Des de infantil/primaria,Alemán,11.0,4.0,3.0,yes,no,yes,Flauta,8,,,Nada ,55.0,yes
73,2024-01-21_14h32.13.881,Unsyncopated_study2,s91,21.0,feminino,right,España,Español y catalán,Bachelor degree,no,no,A,1,what,L3,unsyncopated,s1,r1,73,Online_whatL3//a.chu.mo10.0.888.wav,chu,je,di,sil,mo,ka,ji,sil2,ko,le,sil1,['catch'],[1.530999999999949],[1.530999999999949],0.888,beat,0.6429999999999491,0.6429999999999491,"[""space""]",chu,2,testWhenL4Uns//cat_viol.r1.s1.0.wav,4.0,when,unsyncopated,a,s1,no_rule,cat,L4,z,1.0247,3.0,1.0,0.963,4.0,2.0,Español,0 (Materna),Catalán,0 (L2 Materna),Inglés,Des de infantil/primaria,Alemán,11.0,4.0,3.0,yes,no,yes,Flauta,8,,,Nada ,55.0,yes
74,2024-01-21_14h32.13.881,Unsyncopated_study2,s91,21.0,feminino,right,España,Español y catalán,Bachelor degree,no,no,A,1,what,L3,unsyncopated,s1,r2,74,Online_whatL3//a.chu.mo9.none.none.wav,ñe,ga,gu,sil2,sa,je,ko,sil,le,ka,sil1,['-'],,,none,none,,,,chu,2,testWhenL4Uns//dep_viol.r2.s2.0.wav,4.0,when,unsyncopated,b,s2,no_rule,dep,L4,m,0.8242,4.0,0.0,0.7458,4.0,2.0,Español,0 (Materna),Catalán,0 (L2 Materna),Inglés,Des de infantil/primaria,Alemán,11.0,4.0,3.0,yes,no,yes,Flauta,8,,,Nada ,55.0,yes
75,2024-01-21_14h32.13.881,Unsyncopated_study2,s91,21.0,feminino,right,España,Español y catalán,Bachelor degree,no,no,A,1,what,L3,unsyncopated,s2,r2,75,Online_whatL3//a.chu.mo8.none.none.wav,je,ji,li,sil2,ñe,ga,do,sil,sa,ko,sil1,['-'],,,none,none,,,,chu,2,testWhenL4Uns//time_viol.r1.s2.0.wav,4.0,when,unsyncopated,a,s2,no_rule,time,L4,z,1.5491,3.0,1.0,0.6454,4.0,2.0,Español,0 (Materna),Catalán,0 (L2 Materna),Inglés,Des de infantil/primaria,Alemán,11.0,4.0,3.0,yes,no,yes,Flauta,8,,,Nada ,55.0,yes
76,2024-01-21_14h32.13.881,Unsyncopated_study2,s91,21.0,feminino,right,España,Español y catalán,Bachelor degree,no,no,A,1,what,L3,unsyncopated,s2,r2,76,Online_whatL3//c.gu.je18.none.none.wav,ko,do,ji,sil,ñe,li,ga,sil2,sa,di,sil1,['false alarm'],[0.512300000071491],[0.512300000071491],none,none,,,"[""space""]",je,3,testWhenL4Uns//cat_viol.r1.s2.0.wav,4.0,when,unsyncopated,a,s2,no_rule,cat,L4,z,2.3715,2.0,1.0,1.0829,4.0,2.0,Español,0 (Materna),Catalán,0 (L2 Materna),Inglés,Des de infantil/primaria,Alemán,11.0,4.0,3.0,yes,no,yes,Flauta,8,,,Nada ,55.0,yes
77,2024-01-21_14h32.13.881,Unsyncopated_study2,s91,21.0,feminino,right,España,Español y catalán,Bachelor degree,no,no,A,1,what,L3,unsyncopated,s1,r1,77,Online_whatL3//c.gu.je16.1332.444.wav,chu,fu,je,sil,mo,di,gu,sil1,li,ko,sil2,['miss'],,,1.332,no_beat,,,,je,3,testWhenL4Uns//time_viol.r1.s1.0.wav,4.0,when,unsyncopated,a,s1,no_rule,time,L4,z,1.8557,4.0,1.0,0.5405,4.0,2.0,Español,0 (Materna),Catalán,0 (L2 Materna),Inglés,Des de infantil/primaria,Alemán,11.0,4.0,3.0,yes,no,yes,Flauta,8,,,Nada ,55.0,yes
78,2024-01-21_14h32.13.881,Unsyncopated_study2,s91,21.0,feminino,right,España,Español y catalán,Bachelor degree,no,no,A,1,what,L3,unsyncopated,s1,r2,78,Online_whatL3//c.gu.je17.none.none.wav,ñe,ga,li,sil2,sa,ko,ji,sil,do,ka,sil1,['-'],,,none,none,,,,je,3,testWhenL4Uns//r2.s1.2.wav,4.0,when,unsyncopated,b,s1,rule,rule,L4,m,0.9359,5.0,0.0,0.7443,4.0,2.0,Español,0 (Materna),Catalán,0 (L2 Materna),Inglés,Des de infantil/primaria,Alemán,11.0,4.0,3.0,yes,no,yes,Flauta,8,,,Nada ,55.0,yes
79,2024-01-21_14h32.13.881,Unsyncopated_study2,s91,21.0,feminino,right,España,Español y catalán,Bachelor degree,no,no,A,1,what,L3,unsyncopated,s2,r2,79,Online_whatL3//c.gu.je19.0.1110.wav,gu,do,li,sil,ñe,je,ji,sil2,sa,di,sil1,['catch'],[0.7134999999998399],[0.7134999999998399],0.0,beat,0.7134999999998399,0.7134999999998399,"[""space""]",je,3,testWhenL4Uns//r2.s1.1.wav,4.0,when,unsyncopated,b,s1,rule,rule,L4,m,35.3858,3.0,0.0,1.054,4.0,2.0,Español,0 (Materna),Catalán,0 (L2 Materna),Inglés,Des de infantil/primaria,Alemán,11.0,4.0,3.0,yes,no,yes,Flauta,8,,,Nada ,55.0,yes
80,2024-01-21_14h32.13.881,Unsyncopated_study2,s91,21.0,feminino,right,España,Español y catalán,Bachelor degree,no,no,A,1,what,L3,unsyncopated,s1,r2,80,Online_whatL3//d.ji.li7.1332.1554.wav,ñe,ga,ka,sil2,sa,ji,li,sil,gu,do,sil1,['miss'],,,1.332,no_beat,,,,li,4,testWhenL4Uns//r1.s1.2.wav,4.0,when,unsyncopated,a,s1,rule,rule,L4,z,1.9962,4.0,1.0,0.8676,4.0,2.0,Español,0 (Materna),Catalán,0 (L2 Materna),Inglés,Des de infantil/primaria,Alemán,11.0,4.0,3.0,yes,no,yes,Flauta,8,,,Nada ,55.0,yes
81,2024-01-21_14h32.13.881,Unsyncopated_study2,s91,21.0,feminino,right,España,Español y catalán,Bachelor degree,no,no,A,1,what,L3,unsyncopated,s1,r1,81,Online_whatL3//d.ji.li4.none.none.wav,chu,je,ko,sil,mo,ga,le,sil2,do,di,sil1,['-'],,,none,none,,,,li,4,testWhenL4Uns//r1.s2.1.wav,4.0,when,unsyncopated,a,s2,rule,rule,L4,m,0.8236,6.0,0.0,1.1764,4.0,2.0,Español,0 (Materna),Catalán,0 (L2 Materna),Inglés,Des de infantil/primaria,Alemán,11.0,4.0,3.0,yes,no,yes,Flauta,8,,,Nada ,55.0,yes
82,2024-01-21_14h32.13.881,Unsyncopated_study2,s91,21.0,feminino,right,España,Español y catalán,Bachelor degree,no,no,A,1,what,L3,unsyncopated,s2,r1,82,Online_whatL3//d.ji.li5.none.none.wav,le,ka,di,sil,chu,fu,ko,sil2,mo,gu,sil1,['-'],,,none,none,,,,li,4,testWhenL4Uns//cat_viol.r2.s2.0.wav,4.0,when,unsyncopated,b,s2,no_rule,cat,L4,m,0.7272,6.0,0.0,0.6393,4.0,2.0,Español,0 (Materna),Catalán,0 (L2 Materna),Inglés,Des de infantil/primaria,Alemán,11.0,4.0,3.0,yes,no,yes,Flauta,8,,,Nada ,55.0,yes
83,2024-01-21_14h32.13.881,Unsyncopated_study2,s91,21.0,feminino,right,España,Español y catalán,Bachelor degree,no,no,A,1,what,L3,unsyncopated,s2,r2,83,Online_whatL3//d.ji.li6.222.1110.wav,ko,ji,ka,sil,ñe,li,di,sil2,sa,ga,sil1,['miss'],,,0.222,no_beat,,,,li,4,testWhenL4Uns//r2.s2.1.wav,4.0,when,unsyncopated,b,s2,rule,rule,L4,m,1.5378,4.0,0.0,1.0743,4.0,2.0,Español,0 (Materna),Catalán,0 (L2 Materna),Inglés,Des de infantil/primaria,Alemán,11.0,4.0,3.0,yes,no,yes,Flauta,8,,,Nada ,55.0,yes
84,2024-01-21_14h32.13.881,Unsyncopated_study2,s91,21.0,feminino,right,España,Español y catalán,Bachelor degree,no,no,A,1,what,L3,unsyncopated,s2,r2,84,Online_whatL3//b.ñe.sa13.888.1776.wav,di,ga,ji,sil,ñe,li,ko,sil1,sa,le,sil2,['miss'],,,0.888,beat,,,,sa,1,testWhenL4Uns//time_viol.r2.s1.0.wav,4.0,when,unsyncopated,b,s1,no_rule,time,L4,z,1.7341,3.0,1.0,0.9824,4.0,2.0,Español,0 (Materna),Catalán,0 (L2 Materna),Inglés,Des de infantil/primaria,Alemán,11.0,4.0,3.0,yes,no,yes,Flauta,8,,,Nada ,55.0,yes
85,2024-01-21_14h32.13.881,Unsyncopated_study2,s91,21.0,feminino,right,España,Español y catalán,Bachelor degree,no,no,A,1,what,L3,unsyncopated,s1,r2,85,Online_whatL3//b.ñe.sa15.0.888.wav,ñe,li,ka,sil,sa,le,fu,sil2,je,do,sil1,['miss'],,,0.0,beat,,,,sa,1,testWhenL4Uns//r1.s1.0.wav,4.0,when,unsyncopated,a,s1,rule,rule,L4,m,1.042,4.0,0.0,0.9623,4.0,2.0,Español,0 (Materna),Catalán,0 (L2 Materna),Inglés,Des de infantil/primaria,Alemán,11.0,4.0,3.0,yes,no,yes,Flauta,8,,,Nada ,55.0,yes
86,2024-01-21_14h32.13.881,Unsyncopated_study2,s91,21.0,feminino,right,España,Español y catalán,Bachelor degree,no,no,A,1,what,L3,unsyncopated,s1,r1,86,Online_whatL3//b.ñe.sa12.none.none.wav,chu,ji,di,sil2,mo,ka,li,sil,do,ko,sil1,['-'],,,none,none,,,,sa,1,testWhenL4Uns//dep_viol.r1.s2.0.wav,4.0,when,unsyncopated,a,s2,no_rule,dep,L4,m,1.3922,4.0,0.0,1.1927,4.0,2.0,Español,0 (Materna),Catalán,0 (L2 Materna),Inglés,Des de infantil/primaria,Alemán,11.0,4.0,3.0,yes,no,yes,Flauta,8,,,Nada ,55.0,yes
87,2024-01-21_14h32.13.881,Unsyncopated_study2,s91,21.0,feminino,right,España,Español y catalán,Bachelor degree,no,no,A,1,what,L3,unsyncopated,s1,r2,87,Online_whatL3//b.ñe.sa14.0.888.wav,ñe,le,je,sil,sa,li,fu,sil2,ko,ji,sil1,['catch'],[1.3200000000001637],[1.3200000000001637],0.0,beat,,1.3200000000001637,"[""space""]",sa,1,testWhenL4Uns//r1.s2.0.wav,4.0,when,unsyncopated,a,s2,rule,rule,L4,m,1.3447,3.0,0.0,0.8704,4.0,2.0,Español,0 (Materna),Catalán,0 (L2 Materna),Inglés,Des de infantil/primaria,Alemán,11.0,4.0,3.0,yes,no,yes,Flauta,8,,,Nada ,55.0,yes
88,2024-01-21_14h32.13.881,Unsyncopated_study2,s91,21.0,feminino,right,España,Español y catalán,Bachelor degree,no,no,A,1,what,L3,unsyncopated,s1,r1,88,Online_whatL3//d.ji.li24.1332.1554.wav,chu,di,ko,sil2,mo,ji,li,sil,do,gu,sil1,['miss'],,,1.332,no_beat,,,,li,4,testWhenL4Uns//r1.s1.1.wav,4.0,when,unsyncopated,a,s1,rule,rule,L4,m,1.1428,3.0,0.0,1.1945,4.0,2.0,Español,0 (Materna),Catalán,0 (L2 Materna),Inglés,Des de infantil/primaria,Alemán,11.0,4.0,3.0,yes,no,yes,Flauta,8,,,Nada ,55.0,yes
89,2024-01-21_14h32.13.881,Unsyncopated_study2,s91,21.0,feminino,right,España,Español y catalán,Bachelor degree,no,no,A,1,what,L3,unsyncopated,s1,r2,89,Online_whatL3//d.ji.li25.none.none.wav,ñe,gu,ko,sil2,sa,ka,le,sil,do,ga,sil1,['false alarm'],[0.9237999999522799],[0.9237999999522799],none,none,,,"[""space""]",li,4,testWhenL4Uns//cat_viol.r2.s1.0.wav,4.0,when,unsyncopated,b,s1,no_rule,cat,L4,m,0.7253,6.0,0.0,1.0589,4.0,2.0,Español,0 (Materna),Catalán,0 (L2 Materna),Inglés,Des de infantil/primaria,Alemán,11.0,4.0,3.0,yes,no,yes,Flauta,8,,,Nada ,55.0,yes
90,2024-01-21_14h32.13.881,Unsyncopated_study2,s91,21.0,feminino,right,España,Español y catalán,Bachelor degree,no,no,A,1,what,L3,unsyncopated,s2,r1,90,Online_whatL3//d.ji.li27.222.1110.wav,gu,ji,do,sil,chu,li,ga,sil1,mo,fu,sil2,['miss'],,,0.222,no_beat,,,,li,4,testWhenL4Uns//dep_viol.r2.s1.0.wav,4.0,when,unsyncopated,b,s1,no_rule,dep,L4,m,0.93,5.0,0.0,0.64,4.0,2.0,Español,0 (Materna),Catalán,0 (L2 Materna),Inglés,Des de infantil/primaria,Alemán,11.0,4.0,3.0,yes,no,yes,Flauta,8,,,Nada ,55.0,yes
91,2024-01-21_14h32.13.881,Unsyncopated_study2,s91,21.0,feminino,right,España,Español y catalán,Bachelor degree,no,no,A,1,what,L3,unsyncopated,s1,r1,91,Online_whatL3//d.ji.li26.none.none.wav,chu,gu,je,sil,mo,di,do,sil1,ka,ga,sil2,['-'],,,none,none,,,,li,4,testWhenL4Uns//r2.s2.0.wav,4.0,when,unsyncopated,b,s2,rule,rule,L4,m,0.309,5.0,0.0,0.7425,4.0,2.0,Español,0 (Materna),Catalán,0 (L2 Materna),Inglés,Des de infantil/primaria,Alemán,11.0,4.0,3.0,yes,no,yes,Flauta,8,,,Nada ,55.0,yes
92,2024-01-21_14h32.13.881,Unsyncopated_study2,s91,21.0,feminino,right,España,Español y catalán,Bachelor degree,no,no,A,1,what,L3,unsyncopated,s2,r1,92,Online_whatL3//c.gu.je12.none.none.wav,ga,di,li,sil,chu,do,fu,sil2,mo,le,sil1,['-'],,,none,none,,,,je,3,testWhenL4Uns//time_viol.r2.s2.0.wav,4.0,when,unsyncopated,b,s2,no_rule,time,L4,m,0.9309,5.0,0.0,0.4265,4.0,2.0,Español,0 (Materna),Catalán,0 (L2 Materna),Inglés,Des de infantil/primaria,Alemán,11.0,4.0,3.0,yes,no,yes,Flauta,8,,,Nada ,55.0,yes
93,2024-01-21_14h32.13.881,Unsyncopated_study2,s91,21.0,feminino,right,España,Español y catalán,Bachelor degree,no,no,A,1,what,L3,unsyncopated,s2,r1,93,Online_whatL3//c.gu.je15.1332.0.wav,je,ji,ko,sil,chu,ka,gu,sil2,mo,ga,sil1,['miss'],,,1.332,no_beat,,,,je,3,testWhenL4Uns//r2.s2.2.wav,4.0,when,unsyncopated,b,s2,rule,rule,L4,m,0.7254,4.0,0.0,0.7488,4.0,2.0,Español,0 (Materna),Catalán,0 (L2 Materna),Inglés,Des de infantil/primaria,Alemán,11.0,4.0,3.0,yes,no,yes,Flauta,8,,,Nada ,55.0,yes
94,2024-01-21_14h32.13.881,Unsyncopated_study2,s91,21.0,feminino,right,España,Español y catalán,Bachelor degree,no,no,A,1,what,L3,unsyncopated,s2,r1,94,Online_whatL3//c.gu.je14.none.none.wav,do,ga,fu,sil2,chu,li,ji,sil,mo,ka,sil1,['false alarm'],[2.1481000000239874],[2.1481000000239874],none,none,,,"[""space""]",je,3,testWhenL4Uns//r2.s1.0.wav,4.0,when,unsyncopated,b,s1,rule,rule,L4,m,0.9305,6.0,0.0,0.9595,4.0,2.0,Español,0 (Materna),Catalán,0 (L2 Materna),Inglés,Des de infantil/primaria,Alemán,11.0,4.0,3.0,yes,no,yes,Flauta,8,,,Nada ,55.0,yes
95,2024-01-21_14h32.13.881,Unsyncopated_study2,s91,21.0,feminino,right,España,Español y catalán,Bachelor degree,no,no,A,1,what,L3,unsyncopated,s1,r2,95,Online_whatL3//c.gu.je13.1332.222.wav,ñe,je,fu,sil,sa,ko,gu,sil1,di,li,sil2,['miss'],,,1.332,no_beat,,,,je,3,testWhenL4Uns//r1.s2.2.wav,4.0,when,unsyncopated,a,s2,rule,rule,L4,m,7.2158,4.0,0.0,0.5396,4.0,2.0,Español,0 (Materna),Catalán,0 (L2 Materna),Inglés,Des de infantil/primaria,Alemán,11.0,4.0,3.0,yes,no,yes,Flauta,8,,,Nada ,55.0,yes
96,2024-01-21_14h32.13.881,Unsyncopated_study2,s91,21.0,feminino,right,España,Español y catalán,Bachelor degree,no,no,A,1,what,L3,unsyncopated,s2,r1,96,Online_whatL3//d.ji.li11.none.none.wav,fu,di,ka,sil2,chu,do,je,sil,mo,le,sil1,['-'],,,none,none,,,,li,4,,,,,,,,,,,,,,,4.0,2.0,Español,0 (Materna),Catalán,0 (L2 Materna),Inglés,Des de infantil/primaria,Alemán,11.0,4.0,3.0,yes,no,yes,Flauta,8,,,Nada ,55.0,yes
97,2024-01-21_14h32.13.881,Unsyncopated_study2,s91,21.0,feminino,right,España,Español y catalán,Bachelor degree,no,no,A,1,what,L3,unsyncopated,s2,r1,97,Online_whatL3//d.ji.li9.1554.444.wav,fu,ga,li,sil2,chu,gu,ji,sil,mo,do,sil1,['miss'],,,1.554,no_beat,,,,li,4,,,,,,,,,,,,,,,4.0,2.0,Español,0 (Materna),Catalán,0 (L2 Materna),Inglés,Des de infantil/primaria,Alemán,11.0,4.0,3.0,yes,no,yes,Flauta,8,,,Nada ,55.0,yes
98,2024-01-21_14h32.13.881,Unsyncopated_study2,s91,21.0,feminino,right,España,Español y catalán,Bachelor degree,no,no,A,1,what,L3,unsyncopated,s2,r2,98,Online_whatL3//d.ji.li10.444.0.wav,li,le,ji,sil,ñe,do,di,sil1,sa,ga,sil2,['catch'],[1.329700000047751],[1.329700000047751],0.444,no_beat,0.8857000000477511,0.8857000000477511,"[""space""]",li,4,,,,,,,,,,,,,,,4.0,2.0,Español,0 (Materna),Catalán,0 (L2 Materna),Inglés,Des de infantil/primaria,Alemán,11.0,4.0,3.0,yes,no,yes,Flauta,8,,,Nada ,55.0,yes
99,2024-01-21_14h32.13.881,Unsyncopated_study2,s91,21.0,feminino,right,España,Español y catalán,Bachelor degree,no,no,A,1,what,L3,unsyncopated,s2,r1,99,Online_whatL3//d.ji.li8.none.none.wav,di,ko,do,sil,chu,ga,le,sil2,mo,je,sil1,['-'],,,none,none,,,,li,4,,,,,,,,,,,,,,,4.0,2.0,Español,0 (Materna),Catalán,0 (L2 Materna),Inglés,Des de infantil/primaria,Alemán,11.0,4.0,3.0,yes,no,yes,Flauta,8,,,Nada ,55.0,yes
100,2024-01-21_14h32.13.881,Unsyncopated_study2,s91,21.0,feminino,right,España,Español y catalán,Bachelor degree,no,no,A,1,what,L3,unsyncopated,s2,r1,100,Online_whatL3//c.gu.je20.0.1110.wav,gu,li,ko,sil,chu,je,ga,sil2,mo,le,sil1,['catch'],[1.2402999999521853],[1.2402999999521853],0.0,beat,,1.240299999952185,"[""space""]",je,3,,,,,,,,,,,,,,,4.0,2.0,Español,0 (Materna),Catalán,0 (L2 Materna),Inglés,Des de infantil/primaria,Alemán,11.0,4.0,3.0,yes,no,yes,Flauta,8,,,Nada ,55.0,yes
101,2024-01-21_14h32.13.881,Unsyncopated_study2,s91,21.0,feminino,right,España,Español y catalán,Bachelor degree,no,no,A,1,what,L3,unsyncopated,s2,r2,101,Online_whatL3//c.gu.je22.0.444.wav,gu,li,je,sil2,ñe,ji,ko,sil,sa,ga,sil1,['miss'],,,0.0,beat,,,,je,3,,,,,,,,,,,,,,,4.0,2.0,Español,0 (Materna),Catalán,0 (L2 Materna),Inglés,Des de infantil/primaria,Alemán,11.0,4.0,3.0,yes,no,yes,Flauta,8,,,Nada ,55.0,yes
102,2024-01-21_14h32.13.881,Unsyncopated_study2,s91,21.0,feminino,right,España,Español y catalán,Bachelor degree,no,no,A,1,what,L3,unsyncopated,s1,r2,102,Online_whatL3//c.gu.je23.222.1110.wav,ñe,gu,li,sil,sa,je,do,sil2,ka,ko,sil1,['miss'],,,0.222,no_beat,,,,je,3,,,,,,,,,,,,,,,4.0,2.0,Español,0 (Materna),Catalán,0 (L2 Materna),Inglés,Des de infantil/primaria,Alemán,11.0,4.0,3.0,yes,no,yes,Flauta,8,,,Nada ,55.0,yes
103,2024-01-21_14h32.13.881,Unsyncopated_study2,s91,21.0,feminino,right,España,Español y catalán,Bachelor degree,no,no,A,1,what,L3,unsyncopated,s1,r1,103,Online_whatL3//c.gu.je21.1332.444.wav,chu,li,je,sil,mo,ka,gu,sil1,do,ga,sil2,['miss'],,,1.332,no_beat,,,,je,3,,,,,,,,,,,,,,,4.0,2.0,Español,0 (Materna),Catalán,0 (L2 Materna),Inglés,Des de infantil/primaria,Alemán,11.0,4.0,3.0,yes,no,yes,Flauta,8,,,Nada ,55.0,yes
104,2024-01-21_14h32.13.881,Unsyncopated_study2,s91,21.0,feminino,right,España,Español y catalán,Bachelor degree,no,no,A,1,what,L3,unsyncopated,s1,r2,104,Online_whatL3//c.gu.je28.1332.444.wav,ñe,ko,je,sil,sa,fu,gu,sil1,le,ji,sil2,['miss'],,,1.332,no_beat,,,,je,3,,,,,,,,,,,,,,,4.0,2.0,Español,0 (Materna),Catalán,0 (L2 Materna),Inglés,Des de infantil/primaria,Alemán,11.0,4.0,3.0,yes,no,yes,Flauta,8,,,Nada ,55.0,yes
105,2024-01-21_14h32.13.881,Unsyncopated_study2,s91,21.0,feminino,right,España,Español y catalán,Bachelor degree,no,no,A,1,what,L3,unsyncopated,s2,r2,105,Online_whatL3//c.gu.je30.none.none.wav,ka,li,do,sil2,ñe,fu,ga,sil,sa,di,sil1,['-'],,,none,none,,,,je,3,,,,,,,,,,,,,,,4.0,2.0,Español,0 (Materna),Catalán,0 (L2 Materna),Inglés,Des de infantil/primaria,Alemán,11.0,4.0,3.0,yes,no,yes,Flauta,8,,,Nada ,55.0,yes
106,2024-01-21_14h32.13.881,Unsyncopated_study2,s91,21.0,feminino,right,España,Español y catalán,Bachelor degree,no,no,A,1,what,L3,unsyncopated,s1,r1,106,Online_whatL3//c.gu.je31.none.none.wav,chu,fu,ko,sil,mo,li,di,sil2,ga,ka,sil1,['-'],,,none,none,,,,je,3,,,,,,,,,,,,,,,4.0,2.0,Español,0 (Materna),Catalán,0 (L2 Materna),Inglés,Des de infantil/primaria,Alemán,11.0,4.0,3.0,yes,no,yes,Flauta,8,,,Nada ,55.0,yes
107,2024-01-21_14h32.13.881,Unsyncopated_study2,s91,21.0,feminino,right,España,Español y catalán,Bachelor degree,no,no,A,1,what,L3,unsyncopated,s2,r1,107,Online_whatL3//c.gu.je29.1332.222.wav,ko,je,le,sil2,chu,gu,do,sil,mo,ji,sil1,['miss'],,,1.332,no_beat,,,,je,3,,,,,,,,,,,,,,,4.0,2.0,Español,0 (Materna),Catalán,0 (L2 Materna),Inglés,Des de infantil/primaria,Alemán,11.0,4.0,3.0,yes,no,yes,Flauta,8,,,Nada ,55.0,yes
108,2024-01-21_14h32.13.881,Unsyncopated_study2,s91,21.0,feminino,right,España,Español y catalán,Bachelor degree,no,no,A,1,what,L3,unsyncopated,s1,r2,108,Online_whatL3//a.chu.mo21.none.none.wav,ñe,ko,do,sil,sa,li,ji,sil1,gu,ka,sil2,['false alarm'],[1.115500000000111],[1.115500000000111],none,none,,,"[""space""]",chu,2,,,,,,,,,,,,,,,4.0,2.0,Español,0 (Materna),Catalán,0 (L2 Materna),Inglés,Des de infantil/primaria,Alemán,11.0,4.0,3.0,yes,no,yes,Flauta,8,,,Nada ,55.0,yes
109,2024-01-21_14h32.13.881,Unsyncopated_study2,s91,21.0,feminino,right,España,Español y catalán,Bachelor degree,no,no,A,1,what,L3,unsyncopated,s1,r2,109,Online_whatL3//a.chu.mo22.none.none.wav,ñe,gu,fu,sil,sa,di,li,sil1,do,ji,sil2,['-'],,,none,none,,,,chu,2,,,,,,,,,,,,,,,4.0,2.0,Español,0 (Materna),Catalán,0 (L2 Materna),Inglés,Des de infantil/primaria,Alemán,11.0,4.0,3.0,yes,no,yes,Flauta,8,,,Nada ,55.0,yes
110,2024-01-21_14h32.13.881,Unsyncopated_study2,s91,21.0,feminino,right,España,Español y catalán,Bachelor degree,no,no,A,1,what,L3,unsyncopated,s2,r1,110,Online_whatL3//a.chu.mo23.888.1998.wav,fu,ko,li,sil,chu,ga,je,sil2,mo,ji,sil1,['miss'],,,1.998,no_beat,,,,chu,2,,,,,,,,,,,,,,,4.0,2.0,Español,0 (Materna),Catalán,0 (L2 Materna),Inglés,Des de infantil/primaria,Alemán,11.0,4.0,3.0,yes,no,yes,Flauta,8,,,Nada ,55.0,yes
111,2024-01-21_14h32.13.881,Unsyncopated_study2,s91,21.0,feminino,right,España,Español y catalán,Bachelor degree,no,no,A,1,what,L3,unsyncopated,s2,r1,111,Online_whatL3//a.chu.mo20.888.1776.wav,ko,fu,ka,sil,chu,le,do,sil1,mo,je,sil2,['catch_delay'],[1.1985000000000474],[1.1985000000000474],1.776,beat,1.1985000000000474,1.1985000000000474,"[""space""]",chu,2,,,,,,,,,,,,,,,4.0,2.0,Español,0 (Materna),Catalán,0 (L2 Materna),Inglés,Des de infantil/primaria,Alemán,11.0,4.0,3.0,yes,no,yes,Flauta,8,,,Nada ,55.0,yes
112,2024-01-21_14h32.13.881,Unsyncopated_study2,s91,21.0,feminino,right,España,Español y catalán,Bachelor degree,no,no,A,1,what,L3,unsyncopated,s2,r2,112,Online_whatL3//a.chu.mo25.none.none.wav,le,di,do,sil2,ñe,ga,li,sil,sa,je,sil1,['-'],[0.3105000000000473],[0.3105000000000473],none,none,,,"[""space""]",chu,2,,,,,,,,,,,,,,,4.0,2.0,Español,0 (Materna),Catalán,0 (L2 Materna),Inglés,Des de infantil/primaria,Alemán,11.0,4.0,3.0,yes,no,yes,Flauta,8,,,Nada ,55.0,yes
113,2024-01-21_14h32.13.881,Unsyncopated_study2,s91,21.0,feminino,right,España,Español y catalán,Bachelor degree,no,no,A,1,what,L3,unsyncopated,s1,r1,113,Online_whatL3//a.chu.mo24.0.1110.wav,chu,gu,ka,sil2,mo,le,ji,sil,do,li,sil1,['catch'],[2.149200000047813],[2.149200000047813],1.11,no_beat,1.0392000000478128,1.0392000000478128,"[""space""]",chu,2,,,,,,,,,,,,,,,4.0,2.0,Español,0 (Materna),Catalán,0 (L2 Materna),Inglés,Des de infantil/primaria,Alemán,11.0,4.0,3.0,yes,no,yes,Flauta,8,,,Nada ,55.0,yes
114,2024-01-21_14h32.13.881,Unsyncopated_study2,s91,21.0,feminino,right,España,Español y catalán,Bachelor degree,no,no,A,1,what,L3,unsyncopated,s1,r1,114,Online_whatL3//a.chu.mo26.0.888.wav,chu,ji,li,sil,mo,ko,fu,sil2,di,gu,sil1,['catch'],[1.6282999999521053],[1.6282999999521053],0.888,beat,0.7402999999521053,0.7402999999521053,"[""space""]",chu,2,,,,,,,,,,,,,,,4.0,2.0,Español,0 (Materna),Catalán,0 (L2 Materna),Inglés,Des de infantil/primaria,Alemán,11.0,4.0,3.0,yes,no,yes,Flauta,8,,,Nada ,55.0,yes
115,2024-01-21_14h32.13.881,Unsyncopated_study2,s91,21.0,feminino,right,España,Español y catalán,Bachelor degree,no,no,A,1,what,L3,unsyncopated,s2,r1,115,Online_whatL3//a.chu.mo27.888.1776.wav,ka,ga,ji,sil,chu,je,di,sil1,mo,gu,sil2,['catch'],[2.35710000002382],[2.35710000002382],1.776,beat,0.58110000002382,0.58110000002382,"[""space""]",chu,2,,,,,,,,,,,,,,,4.0,2.0,Español,0 (Materna),Catalán,0 (L2 Materna),Inglés,Des de infantil/primaria,Alemán,11.0,4.0,3.0,yes,no,yes,Flauta,8,,,Nada ,55.0,yes
116,2024-01-21_14h32.13.881,Unsyncopated_study2,s91,21.0,feminino,right,España,Español y catalán,Bachelor degree,no,no,A,1,what,L3,unsyncopated,s1,r1,116,Online_whatL3//b.ñe.sa6.none.none.wav,chu,ji,gu,sil,mo,li,fu,sil2,ka,do,sil1,['-'],,,none,none,,,,sa,1,,,,,,,,,,,,,,,4.0,2.0,Español,0 (Materna),Catalán,0 (L2 Materna),Inglés,Des de infantil/primaria,Alemán,11.0,4.0,3.0,yes,no,yes,Flauta,8,,,Nada ,55.0,yes
117,2024-01-21_14h32.13.881,Unsyncopated_study2,s91,21.0,feminino,right,España,Español y catalán,Bachelor degree,no,no,A,1,what,L3,unsyncopated,s2,r2,117,Online_whatL3//b.ñe.sa5.888.1998.wav,di,je,do,sil,ñe,gu,li,sil2,sa,le,sil1,['miss'],,,0.888,beat,,,,sa,1,,,,,,,,,,,,,,,4.0,2.0,Español,0 (Materna),Catalán,0 (L2 Materna),Inglés,Des de infantil/primaria,Alemán,11.0,4.0,3.0,yes,no,yes,Flauta,8,,,Nada ,55.0,yes
118,2024-01-21_14h32.13.881,Unsyncopated_study2,s91,21.0,feminino,right,España,Español y catalán,Bachelor degree,no,no,A,1,what,L3,unsyncopated,s1,r1,118,Online_whatL3//b.ñe.sa4.none.none.wav,chu,ka,le,sil,mo,je,ga,sil1,do,ji,sil2,['-'],,,none,none,,,,sa,1,,,,,,,,,,,,,,,4.0,2.0,Español,0 (Materna),Catalán,0 (L2 Materna),Inglés,Des de infantil/primaria,Alemán,11.0,4.0,3.0,yes,no,yes,Flauta,8,,,Nada ,55.0,yes
119,2024-01-21_14h32.13.881,Unsyncopated_study2,s91,21.0,feminino,right,España,Español y catalán,Bachelor degree,no,no,A,1,what,L3,unsyncopated,s2,r1,119,Online_whatL3//b.ñe.sa7.none.none.wav,gu,di,le,sil,chu,ga,ka,sil1,mo,ko,sil2,['-'],,,none,none,,,,sa,1,,,,,,,,,,,,,,,4.0,2.0,Español,0 (Materna),Catalán,0 (L2 Materna),Inglés,Des de infantil/primaria,Alemán,11.0,4.0,3.0,yes,no,yes,Flauta,8,,,Nada ,55.0,yes
120,2024-01-21_14h32.13.881,Unsyncopated_study2,s91,21.0,feminino,right,España,Español y catalán,Bachelor degree,no,no,A,1,what,L3,unsyncopated,s1,r2,120,Online_whatL3//c.gu.je10.none.none.wav,ñe,li,le,sil,sa,ko,do,sil2,di,ji,sil1,['-'],,,none,none,,,,je,3,,,,,,,,,,,,,,,4.0,2.0,Español,0 (Materna),Catalán,0 (L2 Materna),Inglés,Des de infantil/primaria,Alemán,11.0,4.0,3.0,yes,no,yes,Flauta,8,,,Nada ,55.0,yes
121,2024-01-21_14h32.13.881,Unsyncopated_study2,s91,21.0,feminino,right,España,Español y catalán,Bachelor degree,no,no,A,1,what,L3,unsyncopated,s1,r1,121,Online_whatL3//c.gu.je11.444.1332.wav,chu,li,gu,sil2,mo,je,ka,sil,ko,do,sil1,['catch'],[1.4472000000475873],[1.4472000000475873],0.444,no_beat,1.0032000000475874,1.0032000000475874,"[""space""]",je,3,,,,,,,,,,,,,,,4.0,2.0,Español,0 (Materna),Catalán,0 (L2 Materna),Inglés,Des de infantil/primaria,Alemán,11.0,4.0,3.0,yes,no,yes,Flauta,8,,,Nada ,55.0,yes
122,2024-01-21_14h32.13.881,Unsyncopated_study2,s91,21.0,feminino,right,España,Español y catalán,Bachelor degree,no,no,A,1,what,L3,unsyncopated,s2,r1,122,Online_whatL3//c.gu.je9.none.none.wav,ga,fu,ko,sil,chu,ji,ka,sil1,mo,di,sil2,['-'],,,none,none,,,,je,3,,,,,,,,,,,,,,,4.0,2.0,Español,0 (Materna),Catalán,0 (L2 Materna),Inglés,Des de infantil/primaria,Alemán,11.0,4.0,3.0,yes,no,yes,Flauta,8,,,Nada ,55.0,yes
123,2024-01-21_14h32.13.881,Unsyncopated_study2,s91,21.0,feminino,right,España,Español y catalán,Bachelor degree,no,no,A,1,what,L3,unsyncopated,s2,r2,123,Online_whatL3//c.gu.je8.none.none.wav,ko,ka,di,sil2,ñe,ji,li,sil,sa,ga,sil1,['-'],,,none,none,,,,je,3,,,,,,,,,,,,,,,4.0,2.0,Español,0 (Materna),Catalán,0 (L2 Materna),Inglés,Des de infantil/primaria,Alemán,11.0,4.0,3.0,yes,no,yes,Flauta,8,,,Nada ,55.0,yes
124,2024-01-21_14h32.13.881,Unsyncopated_study2,s91,21.0,feminino,right,España,Español y catalán,Bachelor degree,no,no,A,1,what,L3,unsyncopated,s1,r1,124,Online_whatL3//d.ji.li31.1332.444.wav,chu,gu,li,sil,mo,ka,ji,sil2,ga,je,sil1,['catch'],[2.3385000000000673],[2.3385000000000673],1.332,no_beat,1.0065000000000672,1.0065000000000672,"[""space""]",li,4,,,,,,,,,,,,,,,4.0,2.0,Español,0 (Materna),Catalán,0 (L2 Materna),Inglés,Des de infantil/primaria,Alemán,11.0,4.0,3.0,yes,no,yes,Flauta,8,,,Nada ,55.0,yes
125,2024-01-21_14h32.13.881,Unsyncopated_study2,s91,21.0,feminino,right,España,Español y catalán,Bachelor degree,no,no,A,1,what,L3,unsyncopated,s2,r2,125,Online_whatL3//d.ji.li29.1554.222.wav,je,li,ga,sil2,ñe,do,ji,sil,sa,gu,sil1,['catch'],[2.3330000000000837],[2.3330000000000837],1.554,no_beat,0.7790000000000836,0.7790000000000836,"[""space""]",li,4,,,,,,,,,,,,,,,4.0,2.0,Español,0 (Materna),Catalán,0 (L2 Materna),Inglés,Des de infantil/primaria,Alemán,11.0,4.0,3.0,yes,no,yes,Flauta,8,,,Nada ,55.0,yes
126,2024-01-21_14h32.13.881,Unsyncopated_study2,s91,21.0,feminino,right,España,Español y catalán,Bachelor degree,no,no,A,1,what,L3,unsyncopated,s2,r2,126,Online_whatL3//d.ji.li30.none.none.wav,gu,di,fu,sil,ñe,je,le,sil1,sa,ko,sil2,['-'],,,none,none,,,,li,4,,,,,,,,,,,,,,,4.0,2.0,Español,0 (Materna),Catalán,0 (L2 Materna),Inglés,Des de infantil/primaria,Alemán,11.0,4.0,3.0,yes,no,yes,Flauta,8,,,Nada ,55.0,yes
127,2024-01-21_14h32.13.881,Unsyncopated_study2,s91,21.0,feminino,right,España,Español y catalán,Bachelor degree,no,no,A,1,what,L3,unsyncopated,s1,r2,127,Online_whatL3//d.ji.li28.none.none.wav,ñe,ka,di,sil2,sa,le,ko,sil,je,ga,sil1,['-'],,,none,none,,,,li,4,,,,,,,,,,,,,,,4.0,2.0,Español,0 (Materna),Catalán,0 (L2 Materna),Inglés,Des de infantil/primaria,Alemán,11.0,4.0,3.0,yes,no,yes,Flauta,8,,,Nada ,55.0,yes
128,2024-01-21_14h32.13.881,Unsyncopated_study2,s91,21.0,feminino,right,España,Español y catalán,Bachelor degree,no,no,A,2,conjunction_un,L2,unsyncopated,s1,r1,0,Online_conjL2_un//b.fe.ra12.none.none.wav,go,ñi,ba,sil,du,me,si,sil1,cha,to,sil2,['-'],,,none,none,,,,ra,1,,,,,,,,,,,,,,,4.0,2.0,Español,0 (Materna),Catalán,0 (L2 Materna),Inglés,Des de infantil/primaria,Alemán,11.0,4.0,3.0,yes,no,yes,Flauta,8,,,Nada ,55.0,yes
129,2024-01-21_14h32.13.881,Unsyncopated_study2,s91,21.0,feminino,right,España,Español y catalán,Bachelor degree,no,no,A,2,conjunction_un,L2,unsyncopated,s2,r1,1,Online_conjL2_un//b.fe.ra13.none.none.wav,ñu,bi,su,sil,go,mi,ba,sil1,du,cha,sil2,['-'],,,none,none,,,,ra,1,,,,,,,,,,,,,,,4.0,2.0,Español,0 (Materna),Catalán,0 (L2 Materna),Inglés,Des de infantil/primaria,Alemán,11.0,4.0,3.0,yes,no,yes,Flauta,8,,,Nada ,55.0,yes
130,2024-01-21_14h32.13.881,Unsyncopated_study2,s91,21.0,feminino,right,España,Español y catalán,Bachelor degree,no,no,A,2,conjunction_un,L2,unsyncopated,s2,r2,2,Online_conjL2_un//b.fe.ra15.888.1776.wav,si,me,to,sil,fe,su,ba,sil1,ra,bi,sil2,['catch'],[1.4283999999761363],[1.4283999999761363],0.888,beat,0.5403999999761363,0.5403999999761363,"[""space""]",ra,1,,,,,,,,,,,,,,,4.0,2.0,Español,0 (Materna),Catalán,0 (L2 Materna),Inglés,Des de infantil/primaria,Alemán,11.0,4.0,3.0,yes,no,yes,Flauta,8,,,Nada ,55.0,yes
131,2024-01-21_14h32.13.881,Unsyncopated_study2,s91,21.0,feminino,right,España,Español y catalán,Bachelor degree,no,no,A,2,conjunction_un,L2,unsyncopated,s1,r2,3,Online_conjL2_un//b.fe.ra14.0.888.wav,fe,si,ñu,sil,ra,mi,to,sil1,me,bi,sil2,['catch'],[0.41210000002411107],[0.41210000002411107],0.0,beat,0.412100000024111,0.412100000024111,"[""space""]",ra,1,,,,,,,,,,,,,,,4.0,2.0,Español,0 (Materna),Catalán,0 (L2 Materna),Inglés,Des de infantil/primaria,Alemán,11.0,4.0,3.0,yes,no,yes,Flauta,8,,,Nada ,55.0,yes
132,2024-01-21_14h32.13.881,Unsyncopated_study2,s91,21.0,feminino,right,España,Español y catalán,Bachelor degree,no,no,A,2,conjunction_un,L2,unsyncopated,s1,r1,4,Online_conjL2_un//c.cha.me13.none.none.wav,go,bi,su,sil,du,si,te,sil1,mi,ñu,sil2,['-'],,,none,none,,,,me,3,,,,,,,,,,,,,,,4.0,2.0,Español,0 (Materna),Catalán,0 (L2 Materna),Inglés,Des de infantil/primaria,Alemán,11.0,4.0,3.0,yes,no,yes,Flauta,8,,,Nada ,55.0,yes
133,2024-01-21_14h32.13.881,Unsyncopated_study2,s91,21.0,feminino,right,España,Español y catalán,Bachelor degree,no,no,A,2,conjunction_un,L2,unsyncopated,s1,r1,5,Online_conjL2_un//c.cha.me12.1332.222.wav,go,me,si,sil,du,ñu,cha,sil1,ñi,bi,sil2,['catch'],[1.8337999999521344],[1.8337999999521344],1.332,no_beat,0.5017999999521343,0.5017999999521343,"[""space""]",me,3,,,,,,,,,,,,,,,4.0,2.0,Español,0 (Materna),Catalán,0 (L2 Materna),Inglés,Des de infantil/primaria,Alemán,11.0,4.0,3.0,yes,no,yes,Flauta,8,,,Nada ,55.0,yes
134,2024-01-21_14h32.13.881,Unsyncopated_study2,s91,21.0,feminino,right,España,Español y catalán,Bachelor degree,no,no,A,2,conjunction_un,L2,unsyncopated,s1,r2,6,Online_conjL2_un//c.cha.me14.none.none.wav,fe,mi,su,sil,ra,si,ba,sil1,te,ñi,sil2,['-'],,,none,none,,,,me,3,,,,,,,,,,,,,,,4.0,2.0,Español,0 (Materna),Catalán,0 (L2 Materna),Inglés,Des de infantil/primaria,Alemán,11.0,4.0,3.0,yes,no,yes,Flauta,8,,,Nada ,55.0,yes
135,2024-01-21_14h32.13.881,Unsyncopated_study2,s91,21.0,feminino,right,España,Español y catalán,Bachelor degree,no,no,A,2,conjunction_un,L2,unsyncopated,s2,r1,7,Online_conjL2_un//c.cha.me15.444.1110.wav,mi,ba,cha,sil,go,me,si,sil1,du,te,sil2,['catch'],[0.9165000000002692],[0.9165000000002692],0.444,no_beat,0.4725000000002692,0.4725000000002692,"[""space""]",me,3,,,,,,,,,,,,,,,4.0,2.0,Español,0 (Materna),Catalán,0 (L2 Materna),Inglés,Des de infantil/primaria,Alemán,11.0,4.0,3.0,yes,no,yes,Flauta,8,,,Nada ,55.0,yes
136,2024-01-21_14h32.13.881,Unsyncopated_study2,s91,21.0,feminino,right,España,Español y catalán,Bachelor degree,no,no,A,2,conjunction_un,L2,unsyncopated,s2,r2,8,Online_conjL2_un//a.go.du25.none.none.wav,mi,ñu,ba,sil,fe,bi,to,sil1,ra,si,sil2,['-'],,,none,none,,,,go,2,,,,,,,,,,,,,,,4.0,2.0,Español,0 (Materna),Catalán,0 (L2 Materna),Inglés,Des de infantil/primaria,Alemán,11.0,4.0,3.0,yes,no,yes,Flauta,8,,,Nada ,55.0,yes
137,2024-01-21_14h32.13.881,Unsyncopated_study2,s91,21.0,feminino,right,España,Español y catalán,Bachelor degree,no,no,A,2,conjunction_un,L2,unsyncopated,s2,r2,9,Online_conjL2_un//a.go.du26.none.none.wav,mi,bi,ñi,sil,fe,cha,te,sil1,ra,su,sil2,['false alarm'],[1.1296000000238564],[1.1296000000238564],none,none,,,"[""space""]",go,2,,,,,,,,,,,,,,,4.0,2.0,Español,0 (Materna),Catalán,0 (L2 Materna),Inglés,Des de infantil/primaria,Alemán,11.0,4.0,3.0,yes,no,yes,Flauta,8,,,Nada ,55.0,yes
138,2024-01-21_14h32.13.881,Unsyncopated_study2,s91,21.0,feminino,right,España,Español y catalán,Bachelor degree,no,no,A,2,conjunction_un,L2,unsyncopated,s2,r1,10,Online_conjL2_un//a.go.du27.888.1776.wav,ñu,ba,bi,sil,go,si,mi,sil1,du,te,sil2,['catch'],[2.2366000000238273],[2.2366000000238273],1.776,beat,0.4606000000238273,0.4606000000238273,"[""space""]",go,2,,,,,,,,,,,,,,,4.0,2.0,Español,0 (Materna),Catalán,0 (L2 Materna),Inglés,Des de infantil/primaria,Alemán,11.0,4.0,3.0,yes,no,yes,Flauta,8,,,Nada ,55.0,yes
139,2024-01-21_14h32.13.881,Unsyncopated_study2,s91,21.0,feminino,right,España,Español y catalán,Bachelor degree,no,no,A,2,conjunction_un,L2,unsyncopated,s1,r1,11,Online_conjL2_un//a.go.du24.0.888.wav,go,si,bi,sil,du,to,me,sil1,ñi,ba,sil2,['catch'],[1.6646999999284162],[1.6646999999284162],0.888,beat,0.7766999999284162,0.7766999999284162,"[""space""]",go,2,,,,,,,,,,,,,,,4.0,2.0,Español,0 (Materna),Catalán,0 (L2 Materna),Inglés,Des de infantil/primaria,Alemán,11.0,4.0,3.0,yes,no,yes,Flauta,8,,,Nada ,55.0,yes
140,2024-01-21_14h32.13.881,Unsyncopated_study2,s91,21.0,feminino,right,España,Español y catalán,Bachelor degree,no,no,A,2,conjunction_un,L2,unsyncopated,s1,r2,12,Online_conjL2_un//a.go.du22.none.none.wav,fe,bi,ñi,sil,ra,mi,me,sil1,su,ñu,sil2,['-'],,,none,none,,,,go,2,,,,,,,,,,,,,,,4.0,2.0,Español,0 (Materna),Catalán,0 (L2 Materna),Inglés,Des de infantil/primaria,Alemán,11.0,4.0,3.0,yes,no,yes,Flauta,8,,,Nada ,55.0,yes
141,2024-01-21_14h32.13.881,Unsyncopated_study2,s91,21.0,feminino,right,España,Español y catalán,Bachelor degree,no,no,A,2,conjunction_un,L2,unsyncopated,s2,r1,13,Online_conjL2_un//a.go.du21.888.1776.wav,ba,cha,si,sil,go,to,ñi,sil1,du,te,sil2,['catch_delay'],[1.0914000000953712],[1.0914000000953712],1.776,beat,1.0914000000953712,1.0914000000953712,,go,2,,,,,,,,,,,,,,,4.0,2.0,Español,0 (Materna),Catalán,0 (L2 Materna),Inglés,Des de infantil/primaria,Alemán,11.0,4.0,3.0,yes,no,yes,Flauta,8,,,Nada ,55.0,yes
142,2024-01-21_14h32.13.881,Unsyncopated_study2,s91,21.0,feminino,right,España,Español y catalán,Bachelor degree,no,no,A,2,conjunction_un,L2,unsyncopated,s1,r1,14,Online_conjL2_un//a.go.du20.0.888.wav,go,ñi,si,sil,du,mi,me,sil1,bi,te,sil2,['catch'],"[0.20340000009537107, 1.9253000000712746]",[1.9253000000712746],0.888,beat,1.0373000000712749,1.0373000000712749,"[""space"",""space""]",go,2,,,,,,,,,,,,,,,4.0,2.0,Español,0 (Materna),Catalán,0 (L2 Materna),Inglés,Des de infantil/primaria,Alemán,11.0,4.0,3.0,yes,no,yes,Flauta,8,,,Nada ,55.0,yes
143,2024-01-21_14h32.13.881,Unsyncopated_study2,s91,21.0,feminino,right,España,Español y catalán,Bachelor degree,no,no,A,2,conjunction_un,L2,unsyncopated,s2,r1,15,Online_conjL2_un//a.go.du23.888.1776.wav,su,te,mi,sil,go,ñu,bi,sil1,du,me,sil2,['catch_delay'],[1.1891999999284855],[1.1891999999284855],1.776,beat,1.1891999999284857,1.1891999999284857,,go,2,,,,,,,,,,,,,,,4.0,2.0,Español,0 (Materna),Catalán,0 (L2 Materna),Inglés,Des de infantil/primaria,Alemán,11.0,4.0,3.0,yes,no,yes,Flauta,8,,,Nada ,55.0,yes
144,2024-01-21_14h32.13.881,Unsyncopated_study2,s91,21.0,feminino,right,España,Español y catalán,Bachelor degree,no,no,A,2,conjunction_un,L2,unsyncopated,s2,r1,16,Online_conjL2_un//b.fe.ra21.none.none.wav,bi,ba,to,sil,go,te,si,sil1,du,me,sil2,['-'],[0.30119999992848534],[0.30119999992848534],none,none,,,"[""space""]",ra,1,,,,,,,,,,,,,,,4.0,2.0,Español,0 (Materna),Catalán,0 (L2 Materna),Inglés,Des de infantil/primaria,Alemán,11.0,4.0,3.0,yes,no,yes,Flauta,8,,,Nada ,55.0,yes
145,2024-01-21_14h32.13.881,Unsyncopated_study2,s91,21.0,feminino,right,España,Español y catalán,Bachelor degree,no,no,A,2,conjunction_un,L2,unsyncopated,s2,r2,17,Online_conjL2_un//b.fe.ra20.888.1776.wav,bi,ñi,me,sil,fe,cha,si,sil1,ra,su,sil2,['catch'],[1.3588999999760745],[1.3588999999760745],0.888,beat,0.4708999999760744,0.4708999999760744,"[""space""]",ra,1,,,,,,,,,,,,,,,4.0,2.0,Español,0 (Materna),Catalán,0 (L2 Materna),Inglés,Des de infantil/primaria,Alemán,11.0,4.0,3.0,yes,no,yes,Flauta,8,,,Nada ,55.0,yes
146,2024-01-21_14h32.13.881,Unsyncopated_study2,s91,21.0,feminino,right,España,Español y catalán,Bachelor degree,no,no,A,2,conjunction_un,L2,unsyncopated,s2,r1,18,Online_conjL2_un//b.fe.ra23.none.none.wav,ñu,ba,mi,sil,go,to,ñi,sil1,du,bi,sil2,['-'],,,none,none,,,,ra,1,,,,,,,,,,,,,,,4.0,2.0,Español,0 (Materna),Catalán,0 (L2 Materna),Inglés,Des de infantil/primaria,Alemán,11.0,4.0,3.0,yes,no,yes,Flauta,8,,,Nada ,55.0,yes
147,2024-01-21_14h32.13.881,Unsyncopated_study2,s91,21.0,feminino,right,España,Español y catalán,Bachelor degree,no,no,A,2,conjunction_un,L2,unsyncopated,s1,r1,19,Online_conjL2_un//b.fe.ra22.none.none.wav,go,te,to,sil,du,me,ñu,sil1,ñi,si,sil2,['-'],,,none,none,,,,ra,1,,,,,,,,,,,,,,,4.0,2.0,Español,0 (Materna),Catalán,0 (L2 Materna),Inglés,Des de infantil/primaria,Alemán,11.0,4.0,3.0,yes,no,yes,Flauta,8,,,Nada ,55.0,yes
148,2024-01-21_14h32.13.881,Unsyncopated_study2,s91,21.0,feminino,right,España,Español y catalán,Bachelor degree,no,no,A,2,conjunction_un,L2,unsyncopated,s1,r1,20,Online_conjL2_un//d.si.ñu0.none.none.wav,go,cha,ba,sil,du,ñi,bi,sil1,su,to,sil2,['-'],,,none,none,,,,ñu,4,,,,,,,,,,,,,,,4.0,2.0,Español,0 (Materna),Catalán,0 (L2 Materna),Inglés,Des de infantil/primaria,Alemán,11.0,4.0,3.0,yes,no,yes,Flauta,8,,,Nada ,55.0,yes
149,2024-01-21_14h32.13.881,Unsyncopated_study2,s91,21.0,feminino,right,España,Español y catalán,Bachelor degree,no,no,A,2,conjunction_un,L2,unsyncopated,s2,r2,21,Online_conjL2_un//d.si.ñu3.none.none.wav,to,ba,te,sil,fe,cha,bi,sil1,ra,me,sil2,['false alarm'],[0.10120000004781105],[0.10120000004781105],none,none,,,"[""space""]",ñu,4,,,,,,,,,,,,,,,4.0,2.0,Español,0 (Materna),Catalán,0 (L2 Materna),Inglés,Des de infantil/primaria,Alemán,11.0,4.0,3.0,yes,no,yes,Flauta,8,,,Nada ,55.0,yes
150,2024-01-21_14h32.13.881,Unsyncopated_study2,s91,21.0,feminino,right,España,Español y catalán,Bachelor degree,no,no,A,2,conjunction_un,L2,unsyncopated,s1,r2,22,Online_conjL2_un//d.si.ñu1.222.1332.wav,fe,si,ba,sil,ra,su,ñu,sil1,ñi,me,sil2,['catch'],[0.9057999999522508],[0.9057999999522508],0.222,no_beat,0.6837999999522508,0.6837999999522508,"[""space""]",ñu,4,,,,,,,,,,,,,,,4.0,2.0,Español,0 (Materna),Catalán,0 (L2 Materna),Inglés,Des de infantil/primaria,Alemán,11.0,4.0,3.0,yes,no,yes,Flauta,8,,,Nada ,55.0,yes
151,2024-01-21_14h32.13.881,Unsyncopated_study2,s91,21.0,feminino,right,España,Español y catalán,Bachelor degree,no,no,A,2,conjunction_un,L2,unsyncopated,s1,r1,23,Online_conjL2_un//d.si.ñu2.1776.444.wav,go,ba,ñu,sil,du,to,su,sil1,si,ñi,sil2,['catch'],[2.438999999999851],[2.438999999999851],1.776,beat,0.6629999999998508,0.6629999999998508,"[""space""]",ñu,4,,,,,,,,,,,,,,,4.0,2.0,Español,0 (Materna),Catalán,0 (L2 Materna),Inglés,Des de infantil/primaria,Alemán,11.0,4.0,3.0,yes,no,yes,Flauta,8,,,Nada ,55.0,yes
152,2024-01-21_14h32.13.881,Unsyncopated_study2,s91,21.0,feminino,right,España,Español y catalán,Bachelor degree,no,no,A,2,conjunction_un,L2,unsyncopated,s2,r2,24,Online_conjL2_un//b.fe.ra0.888.1776.wav,ñi,mi,si,sil,fe,to,ñu,sil1,ra,ba,sil2,['catch'],[1.72880000007126],[1.72880000007126],0.888,beat,0.84080000007126,0.84080000007126,"[""space""]",ra,1,,,,,,,,,,,,,,,4.0,2.0,Español,0 (Materna),Catalán,0 (L2 Materna),Inglés,Des de infantil/primaria,Alemán,11.0,4.0,3.0,yes,no,yes,Flauta,8,,,Nada ,55.0,yes
153,2024-01-21_14h32.13.881,Unsyncopated_study2,s91,21.0,feminino,right,España,Español y catalán,Bachelor degree,no,no,A,2,conjunction_un,L2,unsyncopated,s1,r1,25,Online_conjL2_un//b.fe.ra1.none.none.wav,go,te,su,sil,du,mi,ba,sil1,si,me,sil2,['-'],,,none,none,,,,ra,1,,,,,,,,,,,,,,,4.0,2.0,Español,0 (Materna),Catalán,0 (L2 Materna),Inglés,Des de infantil/primaria,Alemán,11.0,4.0,3.0,yes,no,yes,Flauta,8,,,Nada ,55.0,yes
154,2024-01-21_14h32.13.881,Unsyncopated_study2,s91,21.0,feminino,right,España,Español y catalán,Bachelor degree,no,no,A,2,conjunction_un,L2,unsyncopated,s2,r2,26,Online_conjL2_un//b.fe.ra2.888.1776.wav,bi,te,mi,sil,fe,ñu,si,sil1,ra,ba,sil2,['catch'],[1.51370000004772],[1.51370000004772],0.888,beat,0.6257000000477201,0.6257000000477201,"[""space""]",ra,1,,,,,,,,,,,,,,,4.0,2.0,Español,0 (Materna),Catalán,0 (L2 Materna),Inglés,Des de infantil/primaria,Alemán,11.0,4.0,3.0,yes,no,yes,Flauta,8,,,Nada ,55.0,yes
155,2024-01-21_14h32.13.881,Unsyncopated_study2,s91,21.0,feminino,right,España,Español y catalán,Bachelor degree,no,no,A,2,conjunction_un,L2,unsyncopated,s1,r1,27,Online_conjL2_un//b.fe.ra3.none.none.wav,go,bi,to,sil,du,me,ba,sil1,su,ñi,sil2,['-'],,,none,none,,,,ra,1,,,,,,,,,,,,,,,4.0,2.0,Español,0 (Materna),Catalán,0 (L2 Materna),Inglés,Des de infantil/primaria,Alemán,11.0,4.0,3.0,yes,no,yes,Flauta,8,,,Nada ,55.0,yes
156,2024-01-21_14h32.13.881,Unsyncopated_study2,s91,21.0,feminino,right,España,Español y catalán,Bachelor degree,no,no,A,2,conjunction_un,L2,unsyncopated,s2,r2,28,Online_conjL2_un//d.si.ñu24.0.1110.wav,si,bi,to,sil,fe,ñu,te,sil1,ra,ñi,sil2,['catch'],[0.7126999999286454],[0.7126999999286454],0.0,beat,0.7126999999286454,0.7126999999286454,"[""space""]",ñu,4,,,,,,,,,,,,,,,4.0,2.0,Español,0 (Materna),Catalán,0 (L2 Materna),Inglés,Des de infantil/primaria,Alemán,11.0,4.0,3.0,yes,no,yes,Flauta,8,,,Nada ,55.0,yes
157,2024-01-21_14h32.13.881,Unsyncopated_study2,s91,21.0,feminino,right,España,Español y catalán,Bachelor degree,no,no,A,2,conjunction_un,L2,unsyncopated,s1,r2,29,Online_conjL2_un//d.si.ñu26.none.none.wav,fe,bi,to,sil,ra,mi,me,sil1,te,ba,sil2,['-'],,,none,none,,,,ñu,4,,,,,,,,,,,,,,,4.0,2.0,Español,0 (Materna),Catalán,0 (L2 Materna),Inglés,Des de infantil/primaria,Alemán,11.0,4.0,3.0,yes,no,yes,Flauta,8,,,Nada ,55.0,yes
158,2024-01-21_14h32.13.881,Unsyncopated_study2,s91,21.0,feminino,right,España,Español y catalán,Bachelor degree,no,no,A,2,conjunction_un,L2,unsyncopated,s1,r2,30,Online_conjL2_un//d.si.ñu25.none.none.wav,fe,me,ñi,sil,ra,to,mi,sil1,bi,cha,sil2,['-'],,,none,none,,,,ñu,4,,,,,,,,,,,,,,,4.0,2.0,Español,0 (Materna),Catalán,0 (L2 Materna),Inglés,Des de infantil/primaria,Alemán,11.0,4.0,3.0,yes,no,yes,Flauta,8,,,Nada ,55.0,yes
159,2024-01-21_14h32.13.881,Unsyncopated_study2,s91,21.0,feminino,right,España,Español y catalán,Bachelor degree,no,no,A,2,conjunction_un,L2,unsyncopated,s2,r2,31,Online_conjL2_un//d.si.ñu27.1332.0.wav,ñu,bi,to,sil,fe,ba,si,sil1,ra,te,sil2,['catch'],[2.2236000000239073],[2.2236000000239073],1.332,no_beat,0.8916000000239073,0.8916000000239073,"[""space""]",ñu,4,,,,,,,,,,,,,,,4.0,2.0,Español,0 (Materna),Catalán,0 (L2 Materna),Inglés,Des de infantil/primaria,Alemán,11.0,4.0,3.0,yes,no,yes,Flauta,8,,,Nada ,55.0,yes
160,2024-01-21_14h32.13.881,Unsyncopated_study2,s91,21.0,feminino,right,España,Español y catalán,Bachelor degree,no,no,A,2,conjunction_un,L2,unsyncopated,s1,r2,32,Online_conjL2_un//b.fe.ra10.0.888.wav,fe,ñu,cha,sil,ra,mi,bi,sil1,me,si,sil2,['catch'],[0.9161999999282671],[0.9161999999282671],0.0,beat,0.9161999999282672,0.9161999999282672,"[""space""]",ra,1,,,,,,,,,,,,,,,4.0,2.0,Español,0 (Materna),Catalán,0 (L2 Materna),Inglés,Des de infantil/primaria,Alemán,11.0,4.0,3.0,yes,no,yes,Flauta,8,,,Nada ,55.0,yes
161,2024-01-21_14h32.13.881,Unsyncopated_study2,s91,21.0,feminino,right,España,Español y catalán,Bachelor degree,no,no,A,2,conjunction_un,L2,unsyncopated,s1,r2,33,Online_conjL2_un//b.fe.ra9.0.888.wav,fe,ñu,cha,sil,ra,to,bi,sil1,te,ba,sil2,"['catch', 'false alarm']","[0.6083999999759726, 2.5411000000240165]",[0.6083999999759726],0.0,beat,0.6083999999759726,0.6083999999759726,"[""space"",""space""]",ra,1,,,,,,,,,,,,,,,4.0,2.0,Español,0 (Materna),Catalán,0 (L2 Materna),Inglés,Des de infantil/primaria,Alemán,11.0,4.0,3.0,yes,no,yes,Flauta,8,,,Nada ,55.0,yes
162,2024-01-21_14h32.13.881,Unsyncopated_study2,s91,21.0,feminino,right,España,Español y catalán,Bachelor degree,no,no,A,2,conjunction_un,L2,unsyncopated,s1,r2,34,Online_conjL2_un//b.fe.ra11.0.888.wav,fe,bi,mi,sil,ra,te,su,sil1,cha,ba,sil2,['catch'],[1.018500000000131],[1.018500000000131],0.0,beat,1.018500000000131,1.018500000000131,"[""space""]",ra,1,,,,,,,,,,,,,,,4.0,2.0,Español,0 (Materna),Catalán,0 (L2 Materna),Inglés,Des de infantil/primaria,Alemán,11.0,4.0,3.0,yes,no,yes,Flauta,8,,,Nada ,55.0,yes
163,2024-01-21_14h32.13.881,Unsyncopated_study2,s91,21.0,feminino,right,España,Español y catalán,Bachelor degree,no,no,A,2,conjunction_un,L2,unsyncopated,s2,r1,35,Online_conjL2_un//b.fe.ra8.none.none.wav,si,to,mi,sil,go,cha,me,sil1,du,bi,sil2,['-'],,,none,none,,,,ra,1,,,,,,,,,,,,,,,4.0,2.0,Español,0 (Materna),Catalán,0 (L2 Materna),Inglés,Des de infantil/primaria,Alemán,11.0,4.0,3.0,yes,no,yes,Flauta,8,,,Nada ,55.0,yes
164,2024-01-21_14h32.13.881,Unsyncopated_study2,s91,21.0,feminino,right,España,Español y catalán,Bachelor degree,no,no,A,2,conjunction_un,L2,unsyncopated,s2,r1,36,Online_conjL2_un//b.fe.ra28.none.none.wav,me,cha,mi,sil,go,si,ñi,sil1,du,to,sil2,['-'],,,none,none,,,,ra,1,,,,,,,,,,,,,,,4.0,2.0,Español,0 (Materna),Catalán,0 (L2 Materna),Inglés,Des de infantil/primaria,Alemán,11.0,4.0,3.0,yes,no,yes,Flauta,8,,,Nada ,55.0,yes
165,2024-01-21_14h32.13.881,Unsyncopated_study2,s91,21.0,feminino,right,España,Español y catalán,Bachelor degree,no,no,A,2,conjunction_un,L2,unsyncopated,s1,r1,37,Online_conjL2_un//b.fe.ra30.none.none.wav,go,si,cha,sil,du,ba,te,sil1,ñu,ñi,sil2,['-'],,,none,none,,,,ra,1,,,,,,,,,,,,,,,4.0,2.0,Español,0 (Materna),Catalán,0 (L2 Materna),Inglés,Des de infantil/primaria,Alemán,11.0,4.0,3.0,yes,no,yes,Flauta,8,,,Nada ,55.0,yes
166,2024-01-21_14h32.13.881,Unsyncopated_study2,s91,21.0,feminino,right,España,Español y catalán,Bachelor degree,no,no,A,2,conjunction_un,L2,unsyncopated,s2,r2,38,Online_conjL2_un//b.fe.ra31.888.1776.wav,ñu,to,me,sil,fe,cha,mi,sil1,ra,ba,sil2,['catch'],[1.3649999999997817],[1.3649999999997817],0.888,beat,0.4769999999997817,0.4769999999997817,"[""space""]",ra,1,,,,,,,,,,,,,,,4.0,2.0,Español,0 (Materna),Catalán,0 (L2 Materna),Inglés,Des de infantil/primaria,Alemán,11.0,4.0,3.0,yes,no,yes,Flauta,8,,,Nada ,55.0,yes
167,2024-01-21_14h32.13.881,Unsyncopated_study2,s91,21.0,feminino,right,España,Español y catalán,Bachelor degree,no,no,A,2,conjunction_un,L2,unsyncopated,s1,r2,39,Online_conjL2_un//b.fe.ra29.0.888.wav,fe,ba,si,sil,ra,bi,cha,sil1,mi,ñu,sil2,['catch'],[0.8600000000001273],[0.8600000000001273],0.0,beat,0.8600000000001273,0.8600000000001273,"[""space""]",ra,1,,,,,,,,,,,,,,,4.0,2.0,Español,0 (Materna),Catalán,0 (L2 Materna),Inglés,Des de infantil/primaria,Alemán,11.0,4.0,3.0,yes,no,yes,Flauta,8,,,Nada ,55.0,yes
168,2024-01-21_14h32.13.881,Unsyncopated_study2,s91,21.0,feminino,right,España,Español y catalán,Bachelor degree,no,no,A,2,conjunction_un,L2,unsyncopated,s2,r1,40,Online_conjL2_un//b.fe.ra19.none.none.wav,me,mi,to,sil,go,ñu,ñi,sil1,du,ba,sil2,['-'],,,none,none,,,,ra,1,,,,,,,,,,,,,,,4.0,2.0,Español,0 (Materna),Catalán,0 (L2 Materna),Inglés,Des de infantil/primaria,Alemán,11.0,4.0,3.0,yes,no,yes,Flauta,8,,,Nada ,55.0,yes
169,2024-01-21_14h32.13.881,Unsyncopated_study2,s91,21.0,feminino,right,España,Español y catalán,Bachelor degree,no,no,A,2,conjunction_un,L2,unsyncopated,s1,r2,41,Online_conjL2_un//b.fe.ra17.0.888.wav,fe,cha,mi,sil,ra,si,su,sil1,ba,ñi,sil2,['catch'],[0.7052999999523308],[0.7052999999523308],0.0,beat,0.7052999999523308,0.7052999999523308,"[""space""]",ra,1,,,,,,,,,,,,,,,4.0,2.0,Español,0 (Materna),Catalán,0 (L2 Materna),Inglés,Des de infantil/primaria,Alemán,11.0,4.0,3.0,yes,no,yes,Flauta,8,,,Nada ,55.0,yes
170,2024-01-21_14h32.13.881,Unsyncopated_study2,s91,21.0,feminino,right,España,Español y catalán,Bachelor degree,no,no,A,2,conjunction_un,L2,unsyncopated,s1,r1,42,Online_conjL2_un//b.fe.ra18.none.none.wav,go,su,bi,sil,du,te,si,sil1,ñu,to,sil2,['-'],,,none,none,,,,ra,1,,,,,,,,,,,,,,,4.0,2.0,Español,0 (Materna),Catalán,0 (L2 Materna),Inglés,Des de infantil/primaria,Alemán,11.0,4.0,3.0,yes,no,yes,Flauta,8,,,Nada ,55.0,yes
171,2024-01-21_14h32.13.881,Unsyncopated_study2,s91,21.0,feminino,right,España,Español y catalán,Bachelor degree,no,no,A,2,conjunction_un,L2,unsyncopated,s1,r2,43,Online_conjL2_un//b.fe.ra16.0.888.wav,fe,ñi,mi,sil,ra,bi,su,sil1,ñu,me,sil2,['catch'],[0.5106000000237145],[0.5106000000237145],0.0,beat,0.5106000000237145,0.5106000000237145,"[""space""]",ra,1,,,,,,,,,,,,,,,4.0,2.0,Español,0 (Materna),Catalán,0 (L2 Materna),Inglés,Des de infantil/primaria,Alemán,11.0,4.0,3.0,yes,no,yes,Flauta,8,,,Nada ,55.0,yes
172,2024-01-21_14h32.13.881,Unsyncopated_study2,s91,21.0,feminino,right,España,Español y catalán,Bachelor degree,no,no,A,2,conjunction_un,L2,unsyncopated,s1,r2,44,Online_conjL2_un//c.cha.me27.1776.444.wav,fe,bi,me,sil,ra,mi,ba,sil1,cha,ñu,sil2,"['false alarm', 'catch']","[0.7123999999762418, 2.228700000047411]",[2.228700000047411],1.776,beat,0.4527000000474108,0.4527000000474108,"[""space"",""space""]",me,3,,,,,,,,,,,,,,,4.0,2.0,Español,0 (Materna),Catalán,0 (L2 Materna),Inglés,Des de infantil/primaria,Alemán,11.0,4.0,3.0,yes,no,yes,Flauta,8,,,Nada ,55.0,yes
173,2024-01-21_14h32.13.881,Unsyncopated_study2,s91,21.0,feminino,right,España,Español y catalán,Bachelor degree,no,no,A,2,conjunction_un,L2,unsyncopated,s2,r1,45,Online_conjL2_un//c.cha.me24.444.0.wav,me,ba,cha,sil,go,su,bi,sil1,du,ñu,sil2,['catch'],[1.0163999999763291],[1.0163999999763291],0.444,no_beat,0.5723999999763292,0.5723999999763292,"[""space""]",me,3,,,,,,,,,,,,,,,4.0,2.0,Español,0 (Materna),Catalán,0 (L2 Materna),Inglés,Des de infantil/primaria,Alemán,11.0,4.0,3.0,yes,no,yes,Flauta,8,,,Nada ,55.0,yes
174,2024-01-21_14h32.13.881,Unsyncopated_study2,s91,21.0,feminino,right,España,Español y catalán,Bachelor degree,no,no,A,2,conjunction_un,L2,unsyncopated,s1,r2,46,Online_conjL2_un//c.cha.me25.none.none.wav,fe,ñu,ba,sil,ra,ñi,si,sil1,te,su,sil2,['-'],,,none,none,,,,me,3,,,,,,,,,,,,,,,4.0,2.0,Español,0 (Materna),Catalán,0 (L2 Materna),Inglés,Des de infantil/primaria,Alemán,11.0,4.0,3.0,yes,no,yes,Flauta,8,,,Nada ,55.0,yes
175,2024-01-21_14h32.13.881,Unsyncopated_study2,s91,21.0,feminino,right,España,Español y catalán,Bachelor degree,no,no,A,2,conjunction_un,L2,unsyncopated,s2,r1,47,Online_conjL2_un//c.cha.me26.none.none.wav,to,si,ba,sil,go,ñi,ñu,sil1,du,bi,sil2,['-'],,,none,none,,,,me,3,,,,,,,,,,,,,,,4.0,2.0,Español,0 (Materna),Catalán,0 (L2 Materna),Inglés,Des de infantil/primaria,Alemán,11.0,4.0,3.0,yes,no,yes,Flauta,8,,,Nada ,55.0,yes
176,2024-01-21_14h32.13.881,Unsyncopated_study2,s91,21.0,feminino,right,España,Español y catalán,Bachelor degree,no,no,A,2,conjunction_un,L2,unsyncopated,s1,r2,48,Online_conjL2_un//c.cha.me2.1776.444.wav,fe,su,me,sil,ra,mi,ba,sil1,cha,ñu,sil2,['catch'],[2.223199999928511],[2.223199999928511],1.776,beat,0.4471999999285108,0.4471999999285108,"[""space""]",me,3,,,,,,,,,,,,,,,4.0,2.0,Español,0 (Materna),Catalán,0 (L2 Materna),Inglés,Des de infantil/primaria,Alemán,11.0,4.0,3.0,yes,no,yes,Flauta,8,,,Nada ,55.0,yes
177,2024-01-21_14h32.13.881,Unsyncopated_study2,s91,21.0,feminino,right,España,Español y catalán,Bachelor degree,no,no,A,2,conjunction_un,L2,unsyncopated,s1,r1,49,Online_conjL2_un//c.cha.me3.1776.1110.wav,go,mi,te,sil,du,me,bi,sil1,cha,su,sil2,['catch'],[2.4316000000235363],[2.4316000000235363],1.776,beat,0.6556000000235362,0.6556000000235362,"[""space""]",me,3,,,,,,,,,,,,,,,4.0,2.0,Español,0 (Materna),Catalán,0 (L2 Materna),Inglés,Des de infantil/primaria,Alemán,11.0,4.0,3.0,yes,no,yes,Flauta,8,,,Nada ,55.0,yes
178,2024-01-21_14h32.13.881,Unsyncopated_study2,s91,21.0,feminino,right,España,Español y catalán,Bachelor degree,no,no,A,2,conjunction_un,L2,unsyncopated,s1,r1,50,Online_conjL2_un//c.cha.me1.none.none.wav,go,ba,mi,sil,du,ñi,ñu,sil1,bi,si,sil2,['-'],,,none,none,,,,me,3,,,,,,,,,,,,,,,4.0,2.0,Español,0 (Materna),Catalán,0 (L2 Materna),Inglés,Des de infantil/primaria,Alemán,11.0,4.0,3.0,yes,no,yes,Flauta,8,,,Nada ,55.0,yes
179,2024-01-21_14h32.13.881,Unsyncopated_study2,s91,21.0,feminino,right,España,Español y catalán,Bachelor degree,no,no,A,2,conjunction_un,L2,unsyncopated,s2,r2,51,Online_conjL2_un//c.cha.me0.none.none.wav,si,mi,ba,sil,fe,su,te,sil1,ra,ñi,sil2,['-'],,,none,none,,,,me,3,,,,,,,,,,,,,,,4.0,2.0,Español,0 (Materna),Catalán,0 (L2 Materna),Inglés,Des de infantil/primaria,Alemán,11.0,4.0,3.0,yes,no,yes,Flauta,8,,,Nada ,55.0,yes
180,2024-01-21_14h32.13.881,Unsyncopated_study2,s91,21.0,feminino,right,España,Español y catalán,Bachelor degree,no,no,A,2,conjunction_un,L2,unsyncopated,s1,r1,52,Online_conjL2_un//a.go.du18.0.888.wav,go,me,si,sil,du,ñi,ba,sil1,su,to,sil2,['catch'],[1.4274999999997817],[1.4274999999997817],0.888,beat,0.5394999999997817,0.5394999999997817,"[""space""]",go,2,,,,,,,,,,,,,,,4.0,2.0,Español,0 (Materna),Catalán,0 (L2 Materna),Inglés,Des de infantil/primaria,Alemán,11.0,4.0,3.0,yes,no,yes,Flauta,8,,,Nada ,55.0,yes
181,2024-01-21_14h32.13.881,Unsyncopated_study2,s91,21.0,feminino,right,España,Español y catalán,Bachelor degree,no,no,A,2,conjunction_un,L2,unsyncopated,s2,r1,53,Online_conjL2_un//a.go.du16.888.1776.wav,cha,me,ba,sil,go,to,si,sil1,du,ñi,sil2,['catch'],[2.4231000000236236],[2.4231000000236236],1.776,beat,0.6471000000236236,0.6471000000236236,"[""space""]",go,2,,,,,,,,,,,,,,,4.0,2.0,Español,0 (Materna),Catalán,0 (L2 Materna),Inglés,Des de infantil/primaria,Alemán,11.0,4.0,3.0,yes,no,yes,Flauta,8,,,Nada ,55.0,yes
182,2024-01-21_14h32.13.881,Unsyncopated_study2,s91,21.0,feminino,right,España,Español y catalán,Bachelor degree,no,no,A,2,conjunction_un,L2,unsyncopated,s1,r2,54,Online_conjL2_un//a.go.du17.none.none.wav,fe,mi,su,sil,ra,me,bi,sil1,te,si,sil2,['-'],,,none,none,,,,go,2,,,,,,,,,,,,,,,4.0,2.0,Español,0 (Materna),Catalán,0 (L2 Materna),Inglés,Des de infantil/primaria,Alemán,11.0,4.0,3.0,yes,no,yes,Flauta,8,,,Nada ,55.0,yes
183,2024-01-21_14h32.13.881,Unsyncopated_study2,s91,21.0,feminino,right,España,Español y catalán,Bachelor degree,no,no,A,2,conjunction_un,L2,unsyncopated,s1,r1,55,Online_conjL2_un//a.go.du19.0.888.wav,go,ba,si,sil,du,su,mi,sil1,ñi,cha,sil2,['catch'],[1.4239000000957276],[1.4239000000957276],0.888,beat,0.5359000000957276,0.5359000000957276,"[""space""]",go,2,,,,,,,,,,,,,,,4.0,2.0,Español,0 (Materna),Catalán,0 (L2 Materna),Inglés,Des de infantil/primaria,Alemán,11.0,4.0,3.0,yes,no,yes,Flauta,8,,,Nada ,55.0,yes
184,2024-01-21_14h32.13.881,Unsyncopated_study2,s91,21.0,feminino,right,España,Español y catalán,Bachelor degree,no,no,A,2,conjunction_un,L2,unsyncopated,s1,r2,56,Online_conjL2_un//a.go.du31.none.none.wav,fe,to,ñi,sil,ra,bi,ñu,sil1,su,si,sil2,['-'],,,none,none,,,,go,2,,,,,,,,,,,,,,,4.0,2.0,Español,0 (Materna),Catalán,0 (L2 Materna),Inglés,Des de infantil/primaria,Alemán,11.0,4.0,3.0,yes,no,yes,Flauta,8,,,Nada ,55.0,yes
185,2024-01-21_14h32.13.881,Unsyncopated_study2,s91,21.0,feminino,right,España,Español y catalán,Bachelor degree,no,no,A,2,conjunction_un,L2,unsyncopated,s1,r2,57,Online_conjL2_un//a.go.du28.none.none.wav,fe,cha,ba,sil,ra,mi,me,sil1,bi,te,sil2,['-'],,,none,none,,,,go,2,,,,,,,,,,,,,,,4.0,2.0,Español,0 (Materna),Catalán,0 (L2 Materna),Inglés,Des de infantil/primaria,Alemán,11.0,4.0,3.0,yes,no,yes,Flauta,8,,,Nada ,55.0,yes
186,2024-01-21_14h32.13.881,Unsyncopated_study2,s91,21.0,feminino,right,España,Español y catalán,Bachelor degree,no,no,A,2,conjunction_un,L2,unsyncopated,s1,r2,58,Online_conjL2_un//a.go.du30.none.none.wav,fe,cha,si,sil,ra,su,te,sil1,ba,bi,sil2,['-'],,,none,none,,,,go,2,,,,,,,,,,,,,,,4.0,2.0,Español,0 (Materna),Catalán,0 (L2 Materna),Inglés,Des de infantil/primaria,Alemán,11.0,4.0,3.0,yes,no,yes,Flauta,8,,,Nada ,55.0,yes
187,2024-01-21_14h32.13.881,Unsyncopated_study2,s91,21.0,feminino,right,España,Español y catalán,Bachelor degree,no,no,A,2,conjunction_un,L2,unsyncopated,s1,r1,59,Online_conjL2_un//a.go.du29.0.888.wav,go,mi,me,sil,du,to,bi,sil1,cha,ñu,sil2,['miss'],,,0.888,beat,,,,go,2,,,,,,,,,,,,,,,4.0,2.0,Español,0 (Materna),Catalán,0 (L2 Materna),Inglés,Des de infantil/primaria,Alemán,11.0,4.0,3.0,yes,no,yes,Flauta,8,,,Nada ,55.0,yes
188,2024-01-21_14h32.13.881,Unsyncopated_study2,s91,21.0,feminino,right,España,Español y catalán,Bachelor degree,no,no,A,2,conjunction_un,L2,unsyncopated,s2,r2,60,Online_conjL2_un//c.cha.me6.0.222.wav,cha,me,si,sil,fe,ba,te,sil1,ra,to,sil2,['catch'],[1.012000000000171],[1.012000000000171],0.0,beat,1.012000000000171,1.012000000000171,"[""space""]",me,3,,,,,,,,,,,,,,,4.0,2.0,Español,0 (Materna),Catalán,0 (L2 Materna),Inglés,Des de infantil/primaria,Alemán,11.0,4.0,3.0,yes,no,yes,Flauta,8,,,Nada ,55.0,yes
189,2024-01-21_14h32.13.881,Unsyncopated_study2,s91,21.0,feminino,right,España,Español y catalán,Bachelor degree,no,no,A,2,conjunction_un,L2,unsyncopated,s2,r1,61,Online_conjL2_un//c.cha.me5.1332.0.wav,me,ñi,mi,sil,go,to,cha,sil1,du,su,sil2,['miss'],,,1.332,no_beat,,,,me,3,,,,,,,,,,,,,,,4.0,2.0,Español,0 (Materna),Catalán,0 (L2 Materna),Inglés,Des de infantil/primaria,Alemán,11.0,4.0,3.0,yes,no,yes,Flauta,8,,,Nada ,55.0,yes
190,2024-01-21_14h32.13.881,Unsyncopated_study2,s91,21.0,feminino,right,España,Español y catalán,Bachelor degree,no,no,A,2,conjunction_un,L2,unsyncopated,s2,r2,62,Online_conjL2_un//c.cha.me4.none.none.wav,mi,ñu,su,sil,fe,bi,to,sil1,ra,ñi,sil2,['-'],,,none,none,,,,me,3,,,,,,,,,,,,,,,4.0,2.0,Español,0 (Materna),Catalán,0 (L2 Materna),Inglés,Des de infantil/primaria,Alemán,11.0,4.0,3.0,yes,no,yes,Flauta,8,,,Nada ,55.0,yes
191,2024-01-21_14h32.13.881,Unsyncopated_study2,s91,21.0,feminino,right,España,Español y catalán,Bachelor degree,no,no,A,2,conjunction_un,L2,unsyncopated,s1,r2,63,Online_conjL2_un//c.cha.me7.none.none.wav,fe,su,si,sil,ra,te,mi,sil1,ba,to,sil2,['-'],,,none,none,,,,me,3,,,,,,,,,,,,,,,4.0,2.0,Español,0 (Materna),Catalán,0 (L2 Materna),Inglés,Des de infantil/primaria,Alemán,11.0,4.0,3.0,yes,no,yes,Flauta,8,,,Nada ,55.0,yes
192,2024-01-21_14h32.13.881,Unsyncopated_study2,s91,21.0,feminino,right,España,Español y catalán,Bachelor degree,no,no,A,2,conjunction_un,L2,unsyncopated,s2,r1,64,Online_conjL2_un//a.go.du9.888.1776.wav,mi,bi,cha,sil,go,ñu,si,sil1,du,to,sil2,['catch'],[2.321700000047713],[2.321700000047713],1.776,beat,0.5457000000477128,0.5457000000477128,"[""space""]",go,2,,,,,,,,,,,,,,,4.0,2.0,Español,0 (Materna),Catalán,0 (L2 Materna),Inglés,Des de infantil/primaria,Alemán,11.0,4.0,3.0,yes,no,yes,Flauta,8,,,Nada ,55.0,yes
193,2024-01-21_14h32.13.881,Unsyncopated_study2,s91,21.0,feminino,right,España,Español y catalán,Bachelor degree,no,no,A,2,conjunction_un,L2,unsyncopated,s2,r1,65,Online_conjL2_un//a.go.du11.888.1776.wav,si,ba,ñu,sil,go,ñi,mi,sil1,du,te,sil2,['miss'],,,1.776,beat,,,,go,2,,,,,,,,,,,,,,,4.0,2.0,Español,0 (Materna),Catalán,0 (L2 Materna),Inglés,Des de infantil/primaria,Alemán,11.0,4.0,3.0,yes,no,yes,Flauta,8,,,Nada ,55.0,yes
194,2024-01-21_14h32.13.881,Unsyncopated_study2,s91,21.0,feminino,right,España,Español y catalán,Bachelor degree,no,no,A,2,conjunction_un,L2,unsyncopated,s1,r1,66,Online_conjL2_un//a.go.du10.0.888.wav,go,bi,ñi,sil,du,si,te,sil1,ñu,su,sil2,['miss'],,,0.888,beat,,,,go,2,,,,,,,,,,,,,,,4.0,2.0,Español,0 (Materna),Catalán,0 (L2 Materna),Inglés,Des de infantil/primaria,Alemán,11.0,4.0,3.0,yes,no,yes,Flauta,8,,,Nada ,55.0,yes
195,2024-01-21_14h32.13.881,Unsyncopated_study2,s91,21.0,feminino,right,España,Español y catalán,Bachelor degree,no,no,A,2,conjunction_un,L2,unsyncopated,s1,r2,67,Online_conjL2_un//a.go.du8.none.none.wav,fe,to,ñi,sil,ra,ba,cha,sil1,ñu,bi,sil2,['-'],,,none,none,,,,go,2,,,,,,,,,,,,,,,4.0,2.0,Español,0 (Materna),Catalán,0 (L2 Materna),Inglés,Des de infantil/primaria,Alemán,11.0,4.0,3.0,yes,no,yes,Flauta,8,,,Nada ,55.0,yes
196,2024-01-21_14h32.13.881,Unsyncopated_study2,s91,21.0,feminino,right,España,Español y catalán,Bachelor degree,no,no,A,2,conjunction_un,L2,unsyncopated,s2,r2,68,Online_conjL2_un//d.si.ñu13.0.1110.wav,si,su,ba,sil,fe,ñu,ñi,sil1,ra,mi,sil2,['catch'],[0.7066000000236272],[0.7066000000236272],0.0,beat,0.7066000000236272,0.7066000000236272,"[""space""]",ñu,4,,,,,,,,,,,,,,,4.0,2.0,Español,0 (Materna),Catalán,0 (L2 Materna),Inglés,Des de infantil/primaria,Alemán,11.0,4.0,3.0,yes,no,yes,Flauta,8,,,Nada ,55.0,yes
197,2024-01-21_14h32.13.881,Unsyncopated_study2,s91,21.0,feminino,right,España,Español y catalán,Bachelor degree,no,no,A,2,conjunction_un,L2,unsyncopated,s2,r1,69,Online_conjL2_un//d.si.ñu12.none.none.wav,ba,bi,mi,sil,go,to,cha,sil1,du,te,sil2,['-'],,,none,none,,,,ñu,4,,,,,,,,,,,,,,,4.0,2.0,Español,0 (Materna),Catalán,0 (L2 Materna),Inglés,Des de infantil/primaria,Alemán,11.0,4.0,3.0,yes,no,yes,Flauta,8,,,Nada ,55.0,yes
