Unnamed: 0,date,expName,participant,age,sex,hand,residence,native_lang,education_level,lang_deficit,aud_deficit,group,block,condition,language,rhythm,rule structure online,rule type online,order_trial_on,trial_online,s1,s2,s3,s4,s5,s6,s7,s8,s9,s10,s11,catch_syll_resp,rts_syll_catch,clean_rts,time_syll,beat_no_beat,catch_rtsTR,catch_rts,syllable_catch.keys,cond_syll,syll_to_catch,test_offline,block_off,condition_off,rhythm_off,rule,rule_str_off,rule_norule,conds_offline,language_off,Partz_no_partm.keys,Partz_no_partm.rt,security_1_7.keys,accuracy,security_1_7.rt,n_lang,n_lang_used,lang_1,age_l1,lang_2,age_l2,lang_3,age_l3,ability_learn_l2,tendence_mix_lan,music_experience,muisc_use,partiture,instr_1,age_M1,preguntas_musica1,BMRQ_answer.response,final comment,BMRQ_Score,bilingual
0,2023-08-07_10h42.03.739,Unsyncopated1,s17,27.0,masculino,right,españa,catalan y castellano,Master degree,no,no,B,1,what,L2,unsyncopated,s2,r2,0,Online_whatL2//a.go.du13.none.none.wav,te,si,ño,sil2,fe,su,ñu,sil,ra,mi,sil1,['-'],,,none,none,,,,go,1,testWhatL2Uns//r2.s1.2.wav,1.0,what,unsyncopated,b,s1,rule,rule,L2,z,4.2372,4.0,1.0,4.7067,3.0,2.0,català,0.0,castellano,0.0,ingles,6.0,5.0,4.0,yes,no,no,guitarra,20,1. Cuando comparto música con alguien siento una complicidad especial con aquella persona.,3.0,"nada, todo muy bien",66.0,yes
1,2023-08-07_10h42.03.739,Unsyncopated1,s17,27.0,masculino,right,españa,catalan y castellano,Master degree,no,no,B,1,what,L2,unsyncopated,s1,r1,1,Online_whatL2//a.go.du12.0.888.wav,go,su,cha,sil,du,to,te,sil2,me,mi,sil1,['catch'],[0.691799999952309],[0.691799999952309],0.0,beat,0.691799999952309,0.691799999952309,"[""space""]",go,1,testWhatL2Uns//r1.s2.1.wav,1.0,what,unsyncopated,a,s2,rule,rule,L2,m,1.584,5.0,0.0,3.1021,3.0,2.0,català,0.0,castellano,0.0,ingles,6.0,5.0,4.0,yes,no,no,guitarra,20,2. En mi tiempo libre apenas escucho música.,5.0,"nada, todo muy bien",66.0,yes
2,2023-08-07_10h42.03.739,Unsyncopated1,s17,27.0,masculino,right,españa,catalan y castellano,Master degree,no,no,B,1,what,L2,unsyncopated,s2,r2,2,Online_whatL2//a.go.du14.none.none.wav,bi,me,mi,sil2,fe,to,ñu,sil,ra,su,sil1,['-'],,,none,none,,,,go,1,testWhatL2Uns//dep_viol.r1.s2.0.wav,1.0,what,unsyncopated,a,s2,no_rule,dep,L2,z,1.0827,6.0,0.0,1.7008,3.0,2.0,català,0.0,castellano,0.0,ingles,6.0,5.0,4.0,yes,no,no,guitarra,20,3. Algunas canciones me ponen los pelos de punta,4.0,"nada, todo muy bien",66.0,yes
3,2023-08-07_10h42.03.739,Unsyncopated1,s17,27.0,masculino,right,españa,catalan y castellano,Master degree,no,no,B,1,what,L2,unsyncopated,s1,r1,3,Online_whatL2//a.go.du15.0.888.wav,go,cha,mi,sil,du,ñu,to,sil1,ba,ño,sil2,['catch'],[0.4971000001429502],[0.4971000001429502],0.0,beat,0.4971000001429502,0.4971000001429502,"[""space""]",go,1,testWhatL2Uns//r1.s1.0.wav,1.0,what,unsyncopated,a,s1,rule,rule,L2,m,0.8345,3.0,0.0,1.6333,3.0,2.0,català,0.0,castellano,0.0,ingles,6.0,5.0,4.0,yes,no,no,guitarra,20,4. La música me hace compañía cuando estoy solo,4.0,"nada, todo muy bien",66.0,yes
4,2023-08-07_10h42.03.739,Unsyncopated1,s17,27.0,masculino,right,españa,catalan y castellano,Master degree,no,no,B,1,what,L2,unsyncopated,s1,r2,4,Online_whatL2//b.fe.ra25.0.888.wav,fe,to,si,sil,ra,mi,su,sil2,cha,ño,sil1,['miss'],,,0.888,beat,,,,ra,2,testWhatL2Uns//time_viol.r2.s1.0.wav,1.0,what,unsyncopated,b,s1,no_rule,time,L2,m,1.635,5.0,1.0,1.2978,3.0,2.0,català,0.0,castellano,0.0,ingles,6.0,5.0,4.0,yes,no,no,guitarra,20,5. No me apetece bailar ni con la música que más me gusta,5.0,"nada, todo muy bien",66.0,yes
5,2023-08-07_10h42.03.739,Unsyncopated1,s17,27.0,masculino,right,españa,catalan y castellano,Master degree,no,no,B,1,what,L2,unsyncopated,s2,r1,5,Online_whatL2//b.fe.ra24.none.none.wav,si,cha,su,sil2,go,mi,me,sil,du,bi,sil1,['-'],,,none,none,,,,ra,2,testWhatL2Uns//r2.s2.0.wav,1.0,what,unsyncopated,b,s2,rule,rule,L2,m,1.0049,3.0,0.0,1.9352,3.0,2.0,català,0.0,castellano,0.0,ingles,6.0,5.0,4.0,yes,no,no,guitarra,20,6. La música me hace conectar con la gente,3.0,"nada, todo muy bien",66.0,yes
6,2023-08-07_10h42.03.739,Unsyncopated1,s17,27.0,masculino,right,españa,catalan y castellano,Master degree,no,no,B,1,what,L2,unsyncopated,s2,r1,6,Online_whatL2//b.fe.ra27.none.none.wav,mi,me,su,sil,go,cha,ño,sil2,du,te,sil1,['-'],,,none,none,,,,ra,2,testWhatL2Uns//r1.s2.0.wav,1.0,what,unsyncopated,a,s2,rule,rule,L2,m,1.1511,4.0,0.0,1.5508,3.0,2.0,català,0.0,castellano,0.0,ingles,6.0,5.0,4.0,yes,no,no,guitarra,20,7. Me informo sobre la música que me gusta.,3.0,"nada, todo muy bien",66.0,yes
7,2023-08-07_10h42.03.739,Unsyncopated1,s17,27.0,masculino,right,españa,catalan y castellano,Master degree,no,no,B,1,what,L2,unsyncopated,s2,r2,7,Online_whatL2//b.fe.ra26.1110.1998.wav,si,me,bi,sil2,fe,cha,te,sil,ra,to,sil1,['catch'],[2.507900000095333],[2.507900000095333],1.998,no_beat,0.5099000000953329,0.5099000000953329,"[""space""]",ra,2,testWhatL2Uns//r2.s1.0.wav,1.0,what,unsyncopated,b,s1,rule,rule,L2,z,1.0042,4.0,1.0,1.8157,3.0,2.0,català,0.0,castellano,0.0,ingles,6.0,5.0,4.0,yes,no,no,guitarra,20,8.Me emociono escuchando ciertas canciones.,4.0,"nada, todo muy bien",66.0,yes
8,2023-08-07_10h42.03.739,Unsyncopated1,s17,27.0,masculino,right,españa,catalan y castellano,Master degree,no,no,B,1,what,L2,unsyncopated,s2,r2,8,Online_whatL2//d.si.ñu1.none.none.wav,te,ño,bi,sil,fe,cha,to,sil1,ra,mi,sil2,['-'],,,none,none,,,,ñu,4,testWhatL2Uns//r2.s2.2.wav,1.0,what,unsyncopated,b,s2,rule,rule,L2,m,0.9676,3.0,0.0,1.2026,3.0,2.0,català,0.0,castellano,0.0,ingles,6.0,5.0,4.0,yes,no,no,guitarra,20,9.La música me tranquiliza y me relaja.,3.0,"nada, todo muy bien",66.0,yes
9,2023-08-07_10h42.03.739,Unsyncopated1,s17,27.0,masculino,right,españa,catalan y castellano,Master degree,no,no,B,1,what,L2,unsyncopated,s2,r2,9,Online_whatL2//d.si.ñu3.0.444.wav,si,ba,ñu,sil2,fe,te,cha,sil,ra,ño,sil1,['catch'],[0.8897999999522881],[0.8897999999522881],0.444,no_beat,0.4457999999522881,0.4457999999522881,"[""space""]",ñu,4,testWhatL2Uns//r1.s2.2.wav,1.0,what,unsyncopated,a,s2,rule,rule,L2,z,0.7248,5.0,1.0,1.6818,3.0,2.0,català,0.0,castellano,0.0,ingles,6.0,5.0,4.0,yes,no,no,guitarra,20,10.La música me hace bailar,3.0,"nada, todo muy bien",66.0,yes
10,2023-08-07_10h42.03.739,Unsyncopated1,s17,27.0,masculino,right,españa,catalan y castellano,Master degree,no,no,B,1,what,L2,unsyncopated,s2,r1,10,Online_whatL2//d.si.ñu2.none.none.wav,mi,ño,ba,sil,go,te,cha,sil1,du,su,sil2,['-'],,,none,none,,,,ñu,4,testWhatL2Uns//dep_viol.r1.s1.0.wav,1.0,what,unsyncopated,a,s1,no_rule,dep,L2,z,1.0004,5.0,0.0,1.7094,3.0,2.0,català,0.0,castellano,0.0,ingles,6.0,5.0,4.0,yes,no,no,guitarra,20,11.Busco novedades musicales continuamente,2.0,"nada, todo muy bien",66.0,yes
11,2023-08-07_10h42.03.739,Unsyncopated1,s17,27.0,masculino,right,españa,catalan y castellano,Master degree,no,no,B,1,what,L2,unsyncopated,s2,r1,11,Online_whatL2//d.si.ñu0.0.444.wav,si,mi,ñu,sil,go,ba,te,sil2,du,to,sil1,['catch'],[1.2580000000000382],[1.2580000000000382],0.444,no_beat,0.8140000000000382,0.8140000000000382,"[""space""]",ñu,4,testWhatL2Uns//cat_viol.r2.s1.0.wav,1.0,what,unsyncopated,b,s1,no_rule,cat,L2,m,2.0327,4.0,1.0,1.3326,3.0,2.0,català,0.0,castellano,0.0,ingles,6.0,5.0,4.0,yes,no,no,guitarra,20,12. Puedo llorar cuando escucho algunas melodías que me gustan mucho.,3.0,"nada, todo muy bien",66.0,yes
12,2023-08-07_10h42.03.739,Unsyncopated1,s17,27.0,masculino,right,españa,catalan y castellano,Master degree,no,no,B,1,what,L2,unsyncopated,s1,r2,12,Online_whatL2//c.cha.me0.1998.222.wav,fe,me,ño,sil,ra,su,si,sil2,cha,mi,sil1,['miss'],,,0.222,no_beat,,,,me,3,testWhatL2Uns//r1.s1.2.wav,1.0,what,unsyncopated,a,s1,rule,rule,L2,m,1.2581,6.0,0.0,1.2,3.0,2.0,català,0.0,castellano,0.0,ingles,6.0,5.0,4.0,yes,no,no,guitarra,20,13. Me gusta cantar o tocar un instrumento con más gente,2.0,"nada, todo muy bien",66.0,yes
13,2023-08-07_10h42.03.739,Unsyncopated1,s17,27.0,masculino,right,españa,catalan y castellano,Master degree,no,no,B,1,what,L2,unsyncopated,s1,r1,13,Online_whatL2//c.cha.me3.1332.444.wav,go,to,me,sil,du,si,cha,sil2,ño,te,sil1,['catch'],[0.9985999999046271],[0.9985999999046271],0.444,no_beat,0.5545999999046272,0.5545999999046272,"[""space""]",me,3,testWhatL2Uns//time_viol.r1.s1.0.wav,1.0,what,unsyncopated,a,s1,no_rule,time,L2,m,0.9011,5.0,1.0,0.7854,3.0,2.0,català,0.0,castellano,0.0,ingles,6.0,5.0,4.0,yes,no,no,guitarra,20,14. La música me ayuda a desconectar.,3.0,"nada, todo muy bien",66.0,yes
14,2023-08-07_10h42.03.739,Unsyncopated1,s17,27.0,masculino,right,españa,catalan y castellano,Master degree,no,no,B,1,what,L2,unsyncopated,s1,r1,14,Online_whatL2//c.cha.me2.none.none.wav,go,ba,si,sil2,du,mi,ñu,sil,bi,ño,sil1,['-'],,,none,none,,,,me,3,testWhatL2Uns//cat_viol.r1.s1.0.wav,1.0,what,unsyncopated,a,s1,no_rule,cat,L2,z,0.8008,3.0,0.0,0.6349,3.0,2.0,català,0.0,castellano,0.0,ingles,6.0,5.0,4.0,yes,no,no,guitarra,20,15. No puedo evitar tararear las canciones que me gustan cuando las escucho.,4.0,"nada, todo muy bien",66.0,yes
15,2023-08-07_10h42.03.739,Unsyncopated1,s17,27.0,masculino,right,españa,catalan y castellano,Master degree,no,no,B,1,what,L2,unsyncopated,s2,r2,15,Online_whatL2//c.cha.me1.1110.0.wav,me,mi,ba,sil,fe,cha,su,sil2,ra,ñu,sil1,['catch'],[0.43110000014303296],[0.43110000014303296],0.0,beat,0.4311000001430329,0.4311000001430329,"[""space""]",me,3,testWhatL2Uns//r1.s1.1.wav,1.0,what,unsyncopated,a,s1,rule,rule,L2,m,0.835,4.0,0.0,0.6358,3.0,2.0,català,0.0,castellano,0.0,ingles,6.0,5.0,4.0,yes,no,no,guitarra,20,16. En los conciertos me siento en sintonía con los artistas y el público.,3.0,"nada, todo muy bien",66.0,yes
16,2023-08-07_10h42.03.739,Unsyncopated1,s17,27.0,masculino,right,españa,catalan y castellano,Master degree,no,no,B,1,what,L2,unsyncopated,s1,r2,16,Online_whatL2//a.go.du23.none.none.wav,fe,si,me,sil2,ra,mi,ba,sil,ño,ñu,sil1,['-'],,,none,none,,,,go,1,testWhatL2Uns//cat_viol.r1.s2.0.wav,1.0,what,unsyncopated,a,s2,no_rule,cat,L2,m,0.8997,3.0,1.0,1.0429,3.0,2.0,català,0.0,castellano,0.0,ingles,6.0,5.0,4.0,yes,no,no,guitarra,20,17. Me gasto bastante dinero en música y cosas relacionadas con la música.,2.0,"nada, todo muy bien",66.0,yes
17,2023-08-07_10h42.03.739,Unsyncopated1,s17,27.0,masculino,right,españa,catalan y castellano,Master degree,no,no,B,1,what,L2,unsyncopated,s2,r2,17,Online_whatL2//a.go.du21.none.none.wav,ñu,ba,mi,sil,fe,cha,me,sil2,ra,bi,sil1,['-'],,,none,none,,,,go,1,testWhatL2Uns//r2.s1.1.wav,1.0,what,unsyncopated,b,s1,rule,rule,L2,z,0.5837,4.0,1.0,0.7675,3.0,2.0,català,0.0,castellano,0.0,ingles,6.0,5.0,4.0,yes,no,no,guitarra,20,18. Siento escalofríos cuando escucho una melodía que me gusta.,4.0,"nada, todo muy bien",66.0,yes
18,2023-08-07_10h42.03.739,Unsyncopated1,s17,27.0,masculino,right,españa,catalan y castellano,Master degree,no,no,B,1,what,L2,unsyncopated,s2,r2,18,Online_whatL2//a.go.du20.none.none.wav,mi,ba,cha,sil,fe,to,ñu,sil1,ra,bi,sil2,['-'],,,none,none,,,,go,1,testWhatL2Uns//r2.s2.1.wav,1.0,what,unsyncopated,b,s2,rule,rule,L2,m,0.9677,2.0,0.0,1.2518,3.0,2.0,català,0.0,castellano,0.0,ingles,6.0,5.0,4.0,yes,no,no,guitarra,20,19. Con la música me puedo desahogar.,3.0,"nada, todo muy bien",66.0,yes
19,2023-08-07_10h42.03.739,Unsyncopated1,s17,27.0,masculino,right,españa,catalan y castellano,Master degree,no,no,B,1,what,L2,unsyncopated,s2,r1,19,Online_whatL2//a.go.du22.888.1776.wav,me,ño,cha,sil,go,te,ñu,sil1,du,to,sil2,['catch'],[1.3639000000955548],[1.3639000000955548],0.888,beat,0.4759000000955548,0.4759000000955548,"[""space""]",go,1,testWhatL2Uns//dep_viol.r2.s2.0.wav,1.0,what,unsyncopated,b,s2,no_rule,dep,L2,z,1.1164,2.0,0.0,1.6631,3.0,2.0,català,0.0,castellano,0.0,ingles,6.0,5.0,4.0,yes,no,no,guitarra,20,20. Cuando escucho una melodía que me gusta mucho no puedo evitar mover el cuerpo.,3.0,"nada, todo muy bien",66.0,yes
20,2023-08-07_10h42.03.739,Unsyncopated1,s17,27.0,masculino,right,españa,catalan y castellano,Master degree,no,no,B,1,what,L2,unsyncopated,s2,r1,20,Online_whatL2//d.si.ñu19.1110.0.wav,ñu,mi,me,sil,go,si,su,sil2,du,cha,sil1,['catch'],[1.9284000000952801],[1.9284000000952801],0.0,beat,,1.92840000009528,"[""space""]",ñu,4,testWhatL2Uns//time_viol.r1.s2.0.wav,1.0,what,unsyncopated,a,s2,no_rule,time,L2,m,0.6178,5.0,1.0,0.9514,3.0,2.0,català,0.0,castellano,0.0,ingles,6.0,5.0,4.0,yes,no,no,guitarra,20,,,"nada, todo muy bien",66.0,yes
21,2023-08-07_10h42.03.739,Unsyncopated1,s17,27.0,masculino,right,españa,catalan y castellano,Master degree,no,no,B,1,what,L2,unsyncopated,s2,r1,21,Online_whatL2//d.si.ñu17.0.444.wav,si,me,ñu,sil,go,mi,cha,sil2,du,bi,sil1,['catch'],[1.1654000000953602],[1.1654000000953602],0.444,no_beat,0.7214000000953602,0.7214000000953602,"[""space""]",ñu,4,testWhatL2Uns//dep_viol.r2.s1.0.wav,1.0,what,unsyncopated,b,s1,no_rule,dep,L2,m,3.2672,6.0,1.0,0.8168,3.0,2.0,català,0.0,castellano,0.0,ingles,6.0,5.0,4.0,yes,no,no,guitarra,20,,,"nada, todo muy bien",66.0,yes
22,2023-08-07_10h42.03.739,Unsyncopated1,s17,27.0,masculino,right,españa,catalan y castellano,Master degree,no,no,B,1,what,L2,unsyncopated,s2,r1,22,Online_whatL2//d.si.ñu18.222.444.wav,su,si,ñu,sil,go,te,me,sil2,du,ba,sil1,['catch'],[1.0635999999046817],[1.0635999999046817],0.444,no_beat,0.6195999999046817,0.6195999999046817,"[""space""]",ñu,4,testWhatL2Uns//cat_viol.r2.s2.0.wav,1.0,what,unsyncopated,b,s2,no_rule,cat,L2,z,0.4846,6.0,0.0,0.8182,3.0,2.0,català,0.0,castellano,0.0,ingles,6.0,5.0,4.0,yes,no,no,guitarra,20,,,"nada, todo muy bien",66.0,yes
23,2023-08-07_10h42.03.739,Unsyncopated1,s17,27.0,masculino,right,españa,catalan y castellano,Master degree,no,no,B,1,what,L2,unsyncopated,s1,r1,23,Online_whatL2//d.si.ñu16.222.1332.wav,go,si,ba,sil2,du,ñu,te,sil,me,ño,sil1,['catch'],[2.005599999904689],[2.005599999904689],1.332,no_beat,0.6735999999046889,0.6735999999046889,"[""space""]",ñu,4,testWhatL2Uns//time_viol.r2.s2.0.wav,1.0,what,unsyncopated,b,s2,no_rule,time,L2,z,0.8172,4.0,0.0,0.7336,3.0,2.0,català,0.0,castellano,0.0,ingles,6.0,5.0,4.0,yes,no,no,guitarra,20,,,"nada, todo muy bien",66.0,yes
24,2023-08-07_10h42.03.739,Unsyncopated1,s17,27.0,masculino,right,españa,catalan y castellano,Master degree,no,no,B,1,what,L2,unsyncopated,s1,r2,24,Online_whatL2//a.go.du0.none.none.wav,fe,ñu,to,sil2,ra,ño,su,sil,ba,bi,sil1,['-'],,,none,none,,,,go,1,testWhenL3Uns//time_viol.r1.s1.0.wav,2.0,when,unsyncopated,a,s1,no_rule,time,L3,z,0.8662,4.0,1.0,0.9575,3.0,2.0,català,0.0,castellano,0.0,ingles,6.0,5.0,4.0,yes,no,no,guitarra,20,,,"nada, todo muy bien",66.0,yes
25,2023-08-07_10h42.03.739,Unsyncopated1,s17,27.0,masculino,right,españa,catalan y castellano,Master degree,no,no,B,1,what,L2,unsyncopated,s2,r1,25,Online_whatL2//a.go.du2.1110.1998.wav,te,bi,ñu,sil2,go,cha,mi,sil,du,to,sil1,['catch'],[1.63149999999996],[1.63149999999996],1.11,no_beat,0.5214999999999599,0.5214999999999599,"[""space""]",go,1,testWhenL3Uns//r2.s2.1.wav,2.0,when,unsyncopated,b,s2,rule,rule,L3,m,0.8183,3.0,0.0,0.6345,3.0,2.0,català,0.0,castellano,0.0,ingles,6.0,5.0,4.0,yes,no,no,guitarra,20,,,"nada, todo muy bien",66.0,yes
26,2023-08-07_10h42.03.739,Unsyncopated1,s17,27.0,masculino,right,españa,catalan y castellano,Master degree,no,no,B,1,what,L2,unsyncopated,s1,r2,26,Online_whatL2//a.go.du1.none.none.wav,fe,cha,me,sil2,ra,to,ñu,sil,ño,mi,sil1,['-'],,,none,none,,,,go,1,testWhenL3Uns//r1.s1.0.wav,2.0,when,unsyncopated,a,s1,rule,rule,L3,m,0.6028,5.0,0.0,0.9014,3.0,2.0,català,0.0,castellano,0.0,ingles,6.0,5.0,4.0,yes,no,no,guitarra,20,,,"nada, todo muy bien",66.0,yes
27,2023-08-07_10h42.03.739,Unsyncopated1,s17,27.0,masculino,right,españa,catalan y castellano,Master degree,no,no,B,1,what,L2,unsyncopated,s1,r1,27,Online_whatL2//a.go.du3.0.888.wav,go,te,me,sil,du,mi,cha,sil2,ba,ño,sil1,['catch'],[0.4637000000475382],[0.4637000000475382],0.0,beat,0.4637000000475382,0.4637000000475382,"[""space""]",go,1,testWhenL3Uns//time_viol.r1.s2.0.wav,2.0,when,unsyncopated,a,s2,no_rule,time,L3,m,1.4381,6.0,0.0,1.3379,3.0,2.0,català,0.0,castellano,0.0,ingles,6.0,5.0,4.0,yes,no,no,guitarra,20,,,"nada, todo muy bien",66.0,yes
28,2023-08-07_10h42.03.739,Unsyncopated1,s17,27.0,masculino,right,españa,catalan y castellano,Master degree,no,no,B,1,what,L2,unsyncopated,s1,r2,28,Online_whatL2//d.si.ñu30.1332.222.wav,fe,ñu,te,sil2,ra,si,to,sil,bi,ba,sil1,['miss'],,,0.222,no_beat,,,,ñu,4,testWhenL3Uns//time_viol.r2.s2.0.wav,2.0,when,unsyncopated,b,s2,no_rule,time,L3,z,0.5505,5.0,1.0,0.6074,3.0,2.0,català,0.0,castellano,0.0,ingles,6.0,5.0,4.0,yes,no,no,guitarra,20,,,"nada, todo muy bien",66.0,yes
29,2023-08-07_10h42.03.739,Unsyncopated1,s17,27.0,masculino,right,españa,catalan y castellano,Master degree,no,no,B,1,what,L2,unsyncopated,s1,r1,29,Online_whatL2//d.si.ñu28.444.1554.wav,go,me,si,sil2,du,to,ñu,sil,te,mi,sil1,['catch'],[1.5993999998568142],[1.5993999998568142],1.554,no_beat,0.0453999998568142,0.0453999998568142,"[""space""]",ñu,4,testWhenL3Uns//r2.s1.1.wav,2.0,when,unsyncopated,b,s1,rule,rule,L3,m,0.4425,4.0,0.0,0.5934,3.0,2.0,català,0.0,castellano,0.0,ingles,6.0,5.0,4.0,yes,no,no,guitarra,20,,,"nada, todo muy bien",66.0,yes
30,2023-08-07_10h42.03.739,Unsyncopated1,s17,27.0,masculino,right,españa,catalan y castellano,Master degree,no,no,B,1,what,L2,unsyncopated,s1,r2,30,Online_whatL2//d.si.ñu31.none.none.wav,fe,mi,ño,sil,ra,su,me,sil1,ba,te,sil2,['-'],,,none,none,,,,ñu,4,testWhenL3Uns//r2.s2.2.wav,2.0,when,unsyncopated,b,s2,rule,rule,L3,m,0.5163,7.0,0.0,0.5884,3.0,2.0,català,0.0,castellano,0.0,ingles,6.0,5.0,4.0,yes,no,no,guitarra,20,,,"nada, todo muy bien",66.0,yes
31,2023-08-07_10h42.03.739,Unsyncopated1,s17,27.0,masculino,right,españa,catalan y castellano,Master degree,no,no,B,1,what,L2,unsyncopated,s1,r2,31,Online_whatL2//d.si.ñu29.222.1110.wav,fe,si,me,sil,ra,ñu,ño,sil2,mi,te,sil1,"['catch', 'false alarm']","[1.6622000000477328, 2.329799999952229]",[1.6622000000477328],1.11,no_beat,0.5522000000477327,0.5522000000477327,"[""space"",""space""]",ñu,4,testWhenL3Uns//r1.s1.1.wav,2.0,when,unsyncopated,a,s1,rule,rule,L3,m,0.4341,5.0,0.0,0.6178,3.0,2.0,català,0.0,castellano,0.0,ingles,6.0,5.0,4.0,yes,no,no,guitarra,20,,,"nada, todo muy bien",66.0,yes
32,2023-08-07_10h42.03.739,Unsyncopated1,s17,27.0,masculino,right,españa,catalan y castellano,Master degree,no,no,B,1,what,L2,unsyncopated,s2,r2,32,Online_whatL2//b.fe.ra8.1110.1998.wav,si,me,bi,sil2,fe,te,ba,sil,ra,mi,sil1,['catch'],[2.4614000000954093],[2.4614000000954093],1.998,no_beat,0.4634000000954092,0.4634000000954092,"[""space""]",ra,2,testWhenL3Uns//cat_viol.r2.s2.0.wav,2.0,when,unsyncopated,b,s2,no_rule,cat,L3,z,0.7379,3.0,1.0,1.0342,3.0,2.0,català,0.0,castellano,0.0,ingles,6.0,5.0,4.0,yes,no,no,guitarra,20,,,"nada, todo muy bien",66.0,yes
33,2023-08-07_10h42.03.739,Unsyncopated1,s17,27.0,masculino,right,españa,catalan y castellano,Master degree,no,no,B,1,what,L2,unsyncopated,s1,r1,33,Online_whatL2//b.fe.ra10.none.none.wav,go,ñu,ño,sil,du,cha,mi,sil2,to,si,sil1,['-'],,,none,none,,,,ra,2,testWhenL3Uns//dep_viol.r1.s1.0.wav,2.0,when,unsyncopated,a,s1,no_rule,dep,L3,m,1.5332,5.0,0.0,0.7175,3.0,2.0,català,0.0,castellano,0.0,ingles,6.0,5.0,4.0,yes,no,no,guitarra,20,,,"nada, todo muy bien",66.0,yes
34,2023-08-07_10h42.03.739,Unsyncopated1,s17,27.0,masculino,right,españa,catalan y castellano,Master degree,no,no,B,1,what,L2,unsyncopated,s1,r1,34,Online_whatL2//b.fe.ra9.none.none.wav,go,mi,bi,sil,du,to,te,sil1,ño,si,sil2,['-'],,,none,none,,,,ra,2,testWhenL3Uns//r2.s1.0.wav,2.0,when,unsyncopated,b,s1,rule,rule,L3,z,0.3996,3.0,1.0,1.1344,3.0,2.0,català,0.0,castellano,0.0,ingles,6.0,5.0,4.0,yes,no,no,guitarra,20,,,"nada, todo muy bien",66.0,yes
35,2023-08-07_10h42.03.739,Unsyncopated1,s17,27.0,masculino,right,españa,catalan y castellano,Master degree,no,no,B,1,what,L2,unsyncopated,s2,r2,35,Online_whatL2//b.fe.ra11.888.1776.wav,ño,me,su,sil,fe,bi,ñu,sil1,ra,ba,sil2,['miss'],,,1.776,beat,,,,ra,2,testWhenL3Uns//dep_viol.r2.s1.0.wav,2.0,when,unsyncopated,b,s1,no_rule,dep,L3,m,1.4904,4.0,0.0,0.6173,3.0,2.0,català,0.0,castellano,0.0,ingles,6.0,5.0,4.0,yes,no,no,guitarra,20,,,"nada, todo muy bien",66.0,yes
36,2023-08-07_10h42.03.739,Unsyncopated1,s17,27.0,masculino,right,españa,catalan y castellano,Master degree,no,no,B,1,what,L2,unsyncopated,s2,r1,36,Online_whatL2//c.cha.me17.0.444.wav,cha,te,me,sil2,go,bi,ñu,sil,du,mi,sil1,['catch'],[0.9796000001429093],[0.9796000001429093],0.444,no_beat,0.5356000001429093,0.5356000001429093,"[""space""]",me,3,testWhenL3Uns//dep_viol.r1.s2.0.wav,2.0,when,unsyncopated,a,s2,no_rule,dep,L3,z,0.4713,6.0,1.0,0.7018,3.0,2.0,català,0.0,castellano,0.0,ingles,6.0,5.0,4.0,yes,no,no,guitarra,20,,,"nada, todo muy bien",66.0,yes
37,2023-08-07_10h42.03.739,Unsyncopated1,s17,27.0,masculino,right,españa,catalan y castellano,Master degree,no,no,B,1,what,L2,unsyncopated,s1,r1,37,Online_whatL2//c.cha.me19.none.none.wav,go,su,bi,sil,du,ño,to,sil2,ñu,ba,sil1,['-'],,,none,none,,,,me,3,testWhenL3Uns//time_viol.r2.s1.0.wav,2.0,when,unsyncopated,b,s1,no_rule,time,L3,m,1.8159,4.0,0.0,0.5414,3.0,2.0,català,0.0,castellano,0.0,ingles,6.0,5.0,4.0,yes,no,no,guitarra,20,,,"nada, todo muy bien",66.0,yes
38,2023-08-07_10h42.03.739,Unsyncopated1,s17,27.0,masculino,right,españa,catalan y castellano,Master degree,no,no,B,1,what,L2,unsyncopated,s1,r1,38,Online_whatL2//c.cha.me16.none.none.wav,go,ñu,bi,sil2,du,to,te,sil,ño,mi,sil1,['-'],,,none,none,,,,me,3,testWhenL3Uns//r1.s2.1.wav,2.0,when,unsyncopated,a,s2,rule,rule,L3,z,0.3517,5.0,1.0,0.5844,3.0,2.0,català,0.0,castellano,0.0,ingles,6.0,5.0,4.0,yes,no,no,guitarra,20,,,"nada, todo muy bien",66.0,yes
39,2023-08-07_10h42.03.739,Unsyncopated1,s17,27.0,masculino,right,españa,catalan y castellano,Master degree,no,no,B,1,what,L2,unsyncopated,s2,r2,39,Online_whatL2//c.cha.me18.none.none.wav,bi,to,ñu,sil,fe,ño,ba,sil1,ra,si,sil2,['-'],,,none,none,,,,me,3,testWhenL3Uns//cat_viol.r1.s2.0.wav,2.0,when,unsyncopated,a,s2,no_rule,cat,L3,m,0.4351,3.0,0.0,0.4354,3.0,2.0,català,0.0,castellano,0.0,ingles,6.0,5.0,4.0,yes,no,no,guitarra,20,,,"nada, todo muy bien",66.0,yes
40,2023-08-07_10h42.03.739,Unsyncopated1,s17,27.0,masculino,right,españa,catalan y castellano,Master degree,no,no,B,1,what,L2,unsyncopated,s1,r2,40,Online_whatL2//d.si.ñu4.1776.1110.wav,fe,su,to,sil,ra,ñu,cha,sil1,si,me,sil2,['catch'],[1.6498000001906803],[1.6498000001906803],1.11,no_beat,0.5398000001906802,0.5398000001906802,"[""space""]",ñu,4,testWhenL3Uns//cat_viol.r2.s1.0.wav,2.0,when,unsyncopated,b,s1,no_rule,cat,L3,m,0.4841,2.0,0.0,0.3686,3.0,2.0,català,0.0,castellano,0.0,ingles,6.0,5.0,4.0,yes,no,no,guitarra,20,,,"nada, todo muy bien",66.0,yes
41,2023-08-07_10h42.03.739,Unsyncopated1,s17,27.0,masculino,right,españa,catalan y castellano,Master degree,no,no,B,1,what,L2,unsyncopated,s2,r1,41,Online_whatL2//d.si.ñu6.none.none.wav,te,me,mi,sil2,go,su,to,sil,du,bi,sil1,['-'],,,none,none,,,,ñu,4,testWhenL3Uns//r2.s1.2.wav,2.0,when,unsyncopated,b,s1,rule,rule,L3,m,0.9181,4.0,0.0,0.8569,3.0,2.0,català,0.0,castellano,0.0,ingles,6.0,5.0,4.0,yes,no,no,guitarra,20,,,"nada, todo muy bien",66.0,yes
42,2023-08-07_10h42.03.739,Unsyncopated1,s17,27.0,masculino,right,españa,catalan y castellano,Master degree,no,no,B,1,what,L2,unsyncopated,s1,r1,42,Online_whatL2//d.si.ñu5.none.none.wav,go,to,me,sil2,du,mi,ño,sil,ba,su,sil1,['false alarm'],[2.0974000000953765],[2.0974000000953765],none,none,,,"[""space""]",ñu,4,testWhenL3Uns//cat_viol.r1.s1.0.wav,2.0,when,unsyncopated,a,s1,no_rule,cat,L3,z,0.3419,5.0,1.0,0.6911,3.0,2.0,català,0.0,castellano,0.0,ingles,6.0,5.0,4.0,yes,no,no,guitarra,20,,,"nada, todo muy bien",66.0,yes
43,2023-08-07_10h42.03.739,Unsyncopated1,s17,27.0,masculino,right,españa,catalan y castellano,Master degree,no,no,B,1,what,L2,unsyncopated,s2,r2,43,Online_whatL2//d.si.ñu7.1332.0.wav,ñu,to,me,sil,fe,su,si,sil1,ra,bi,sil2,['miss'],,,0.0,beat,,,,ñu,4,testWhenL3Uns//r2.s2.0.wav,2.0,when,unsyncopated,b,s2,rule,rule,L3,z,0.4038,5.0,1.0,0.7874,3.0,2.0,català,0.0,castellano,0.0,ingles,6.0,5.0,4.0,yes,no,no,guitarra,20,,,"nada, todo muy bien",66.0,yes
44,2023-08-07_10h42.03.739,Unsyncopated1,s17,27.0,masculino,right,españa,catalan y castellano,Master degree,no,no,B,1,what,L2,unsyncopated,s1,r1,44,Online_whatL2//a.go.du28.0.888.wav,go,ñu,mi,sil,du,ba,ño,sil1,me,su,sil2,['miss'],,,0.0,beat,,,,go,1,testWhenL3Uns//dep_viol.r2.s2.0.wav,2.0,when,unsyncopated,b,s2,no_rule,dep,L3,m,0.4684,4.0,0.0,0.4927,3.0,2.0,català,0.0,castellano,0.0,ingles,6.0,5.0,4.0,yes,no,no,guitarra,20,,,"nada, todo muy bien",66.0,yes
45,2023-08-07_10h42.03.739,Unsyncopated1,s17,27.0,masculino,right,españa,catalan y castellano,Master degree,no,no,B,1,what,L2,unsyncopated,s1,r2,45,Online_whatL2//a.go.du29.none.none.wav,fe,ñu,mi,sil,ra,cha,su,sil2,te,bi,sil1,['-'],,,none,none,,,,go,1,testWhenL3Uns//r1.s1.2.wav,2.0,when,unsyncopated,a,s1,rule,rule,L3,m,0.551,6.0,0.0,0.4042,3.0,2.0,català,0.0,castellano,0.0,ingles,6.0,5.0,4.0,yes,no,no,guitarra,20,,,"nada, todo muy bien",66.0,yes
46,2023-08-07_10h42.03.739,Unsyncopated1,s17,27.0,masculino,right,españa,catalan y castellano,Master degree,no,no,B,1,what,L2,unsyncopated,s2,r2,46,Online_whatL2//a.go.du31.none.none.wav,cha,su,mi,sil,fe,ño,si,sil2,ra,te,sil1,['-'],,,none,none,,,,go,1,testWhenL3Uns//r1.s2.0.wav,2.0,when,unsyncopated,a,s2,rule,rule,L3,z,0.4535,6.0,1.0,0.5345,3.0,2.0,català,0.0,castellano,0.0,ingles,6.0,5.0,4.0,yes,no,no,guitarra,20,,,"nada, todo muy bien",66.0,yes
47,2023-08-07_10h42.03.739,Unsyncopated1,s17,27.0,masculino,right,españa,catalan y castellano,Master degree,no,no,B,1,what,L2,unsyncopated,s2,r1,47,Online_whatL2//a.go.du30.888.1776.wav,cha,me,te,sil,go,ba,mi,sil1,du,bi,sil2,['catch'],[1.3646000001431275],[1.3646000001431275],0.888,beat,0.4766000001431275,0.4766000001431275,"[""space""]",go,1,testWhenL3Uns//r1.s2.2.wav,2.0,when,unsyncopated,a,s2,rule,rule,L3,z,0.6692,3.0,1.0,0.3849,3.0,2.0,català,0.0,castellano,0.0,ingles,6.0,5.0,4.0,yes,no,no,guitarra,20,,,"nada, todo muy bien",66.0,yes
48,2023-08-07_10h42.03.739,Unsyncopated1,s17,27.0,masculino,right,españa,catalan y castellano,Master degree,no,no,B,1,what,L2,unsyncopated,s2,r1,48,Online_whatL2//c.cha.me5.none.none.wav,ñu,mi,ño,sil2,go,te,ba,sil,du,su,sil1,['-'],,,none,none,,,,me,3,testConjL1Uns//dep_viol.r1.s1.0.wav,3.0,conjunction_un,unsyncopated,a,s1,no_rule,dep,L1,m,2.0349,5.0,1.0,0.829,3.0,2.0,català,0.0,castellano,0.0,ingles,6.0,5.0,4.0,yes,no,no,guitarra,20,,,"nada, todo muy bien",66.0,yes
49,2023-08-07_10h42.03.739,Unsyncopated1,s17,27.0,masculino,right,españa,catalan y castellano,Master degree,no,no,B,1,what,L2,unsyncopated,s1,r2,49,Online_whatL2//c.cha.me6.222.1110.wav,fe,cha,ba,sil,ra,me,te,sil2,si,mi,sil1,['catch'],[1.6549000000954948],[1.6549000000954948],1.11,no_beat,0.5449000000954947,0.5449000000954947,"[""space""]",me,3,testConjL1Uns//r1.s1.1.wav,3.0,conjunction_un,unsyncopated,a,s1,rule,rule,L1,m,0.5015,6.0,0.0,1.0998,3.0,2.0,català,0.0,castellano,0.0,ingles,6.0,5.0,4.0,yes,no,no,guitarra,20,,,"nada, todo muy bien",66.0,yes
50,2023-08-07_10h42.03.739,Unsyncopated1,s17,27.0,masculino,right,españa,catalan y castellano,Master degree,no,no,B,1,what,L2,unsyncopated,s1,r1,50,Online_whatL2//c.cha.me7.222.444.wav,go,cha,me,sil,du,bi,si,sil1,su,ba,sil2,"['catch', 'false alarm']","[1.365100000143002, 2.3242999999522453]",[1.365100000143002],0.444,no_beat,0.921100000143002,0.921100000143002,"[""space"",""space""]",me,3,testConjL1Uns//r2.s1.1.wav,3.0,conjunction_un,unsyncopated,b,s1,rule,rule,L1,z,0.3336,4.0,1.0,0.5671,3.0,2.0,català,0.0,castellano,0.0,ingles,6.0,5.0,4.0,yes,no,no,guitarra,20,,,"nada, todo muy bien",66.0,yes
51,2023-08-07_10h42.03.739,Unsyncopated1,s17,27.0,masculino,right,españa,catalan y castellano,Master degree,no,no,B,1,what,L2,unsyncopated,s2,r2,51,Online_whatL2//c.cha.me4.none.none.wav,ba,te,su,sil2,fe,ño,si,sil,ra,ñu,sil1,['-'],,,none,none,,,,me,3,testConjL1Uns//time_viol.r1.s1.0.wav,3.0,conjunction_un,unsyncopated,a,s1,no_rule,time,L1,m,0.401,7.0,1.0,0.5184,3.0,2.0,català,0.0,castellano,0.0,ingles,6.0,5.0,4.0,yes,no,no,guitarra,20,,,"nada, todo muy bien",66.0,yes
52,2023-08-07_10h42.03.739,Unsyncopated1,s17,27.0,masculino,right,españa,catalan y castellano,Master degree,no,no,B,1,what,L2,unsyncopated,s1,r2,52,Online_whatL2//d.si.ñu20.none.none.wav,fe,cha,me,sil2,ra,to,bi,sil,mi,ba,sil1,['-'],,,none,none,,,,ñu,4,testConjL1Uns//cat_viol.r1.s2.0.wav,3.0,conjunction_un,unsyncopated,a,s2,no_rule,cat,L1,m,0.3682,4.0,1.0,0.4172,3.0,2.0,català,0.0,castellano,0.0,ingles,6.0,5.0,4.0,yes,no,no,guitarra,20,,,"nada, todo muy bien",66.0,yes
53,2023-08-07_10h42.03.739,Unsyncopated1,s17,27.0,masculino,right,españa,catalan y castellano,Master degree,no,no,B,1,what,L2,unsyncopated,s1,r2,53,Online_whatL2//d.si.ñu22.444.1332.wav,fe,to,si,sil,ra,bi,ñu,sil2,ba,me,sil1,['catch'],[1.8151000001430475],[1.8151000001430475],1.332,no_beat,0.4831000001430474,0.4831000001430474,"[""space""]",ñu,4,testConjL1Uns//r1.s1.2.wav,3.0,conjunction_un,unsyncopated,a,s1,rule,rule,L1,m,0.8183,3.0,0.0,0.3853,3.0,2.0,català,0.0,castellano,0.0,ingles,6.0,5.0,4.0,yes,no,no,guitarra,20,,,"nada, todo muy bien",66.0,yes
54,2023-08-07_10h42.03.739,Unsyncopated1,s17,27.0,masculino,right,españa,catalan y castellano,Master degree,no,no,B,1,what,L2,unsyncopated,s1,r1,54,Online_whatL2//d.si.ñu21.none.none.wav,go,cha,ño,sil,du,su,bi,sil2,ba,te,sil1,['-'],,,none,none,,,,ñu,4,testConjL1Uns//r2.s2.1.wav,3.0,conjunction_un,unsyncopated,b,s2,rule,rule,L1,m,0.5011,4.0,0.0,0.3349,3.0,2.0,català,0.0,castellano,0.0,ingles,6.0,5.0,4.0,yes,no,no,guitarra,20,,,"nada, todo muy bien",66.0,yes
55,2023-08-07_10h42.03.739,Unsyncopated1,s17,27.0,masculino,right,españa,catalan y castellano,Master degree,no,no,B,1,what,L2,unsyncopated,s2,r2,55,Online_whatL2//d.si.ñu23.none.none.wav,me,to,ño,sil2,fe,cha,su,sil,ra,mi,sil1,['false alarm'],[1.1157999999522872],[1.1157999999522872],none,none,,,"[""space""]",ñu,4,testConjL1Uns//cat_viol.r2.s2.0.wav,3.0,conjunction_un,unsyncopated,b,s2,no_rule,cat,L1,z,0.3676,2.0,0.0,0.4185,3.0,2.0,català,0.0,castellano,0.0,ingles,6.0,5.0,4.0,yes,no,no,guitarra,20,,,"nada, todo muy bien",66.0,yes
56,2023-08-07_10h42.03.739,Unsyncopated1,s17,27.0,masculino,right,españa,catalan y castellano,Master degree,no,no,B,1,what,L2,unsyncopated,s2,r1,56,Online_whatL2//a.go.du6.888.1776.wav,bi,su,cha,sil,go,te,ñu,sil1,du,me,sil2,['catch'],[1.322400000095513],[1.322400000095513],0.888,beat,0.4344000000955129,0.4344000000955129,"[""space""]",go,1,testConjL1Uns//dep_viol.r1.s2.0.wav,3.0,conjunction_un,unsyncopated,a,s2,no_rule,dep,L1,z,0.335,7.0,0.0,0.2008,3.0,2.0,català,0.0,castellano,0.0,ingles,6.0,5.0,4.0,yes,no,no,guitarra,20,,,"nada, todo muy bien",66.0,yes
57,2023-08-07_10h42.03.739,Unsyncopated1,s17,27.0,masculino,right,españa,catalan y castellano,Master degree,no,no,B,1,what,L2,unsyncopated,s1,r2,57,Online_whatL2//a.go.du7.none.none.wav,fe,ñu,me,sil,ra,cha,to,sil1,si,su,sil2,['-'],,,none,none,,,,go,1,testConjL1Uns//dep_viol.r2.s2.0.wav,3.0,conjunction_un,unsyncopated,b,s2,no_rule,dep,L1,m,0.352,5.0,1.0,1.0184,3.0,2.0,català,0.0,castellano,0.0,ingles,6.0,5.0,4.0,yes,no,no,guitarra,20,,,"nada, todo muy bien",66.0,yes
58,2023-08-07_10h42.03.739,Unsyncopated1,s17,27.0,masculino,right,españa,catalan y castellano,Master degree,no,no,B,1,what,L2,unsyncopated,s2,r2,58,Online_whatL2//a.go.du4.none.none.wav,te,mi,cha,sil,fe,bi,ñu,sil1,ra,ba,sil2,['-'],,,none,none,,,,go,1,testConjL1Uns//r1.s1.0.wav,3.0,conjunction_un,unsyncopated,a,s1,rule,rule,L1,z,0.335,5.0,1.0,0.4014,3.0,2.0,català,0.0,castellano,0.0,ingles,6.0,5.0,4.0,yes,no,no,guitarra,20,,,"nada, todo muy bien",66.0,yes
59,2023-08-07_10h42.03.739,Unsyncopated1,s17,27.0,masculino,right,españa,catalan y castellano,Master degree,no,no,B,1,what,L2,unsyncopated,s1,r2,59,Online_whatL2//a.go.du5.none.none.wav,fe,su,bi,sil,ra,te,to,sil1,ño,ñu,sil2,['-'],,,none,none,,,,go,1,testConjL1Uns//r2.s2.2.wav,3.0,conjunction_un,unsyncopated,b,s2,rule,rule,L1,m,0.385,6.0,0.0,0.6684,3.0,2.0,català,0.0,castellano,0.0,ingles,6.0,5.0,4.0,yes,no,no,guitarra,20,,,"nada, todo muy bien",66.0,yes
60,2023-08-07_10h42.03.739,Unsyncopated1,s17,27.0,masculino,right,españa,catalan y castellano,Master degree,no,no,B,1,what,L2,unsyncopated,s2,r1,60,Online_whatL2//c.cha.me24.0.444.wav,cha,te,me,sil,go,ba,ño,sil2,du,si,sil1,['catch'],[0.9810999999046999],[0.9810999999046999],0.444,no_beat,0.5370999999046999,0.5370999999046999,"[""space""]",me,3,testConjL1Uns//r2.s1.0.wav,3.0,conjunction_un,unsyncopated,b,s1,rule,rule,L1,z,0.3686,6.0,1.0,0.1854,3.0,2.0,català,0.0,castellano,0.0,ingles,6.0,5.0,4.0,yes,no,no,guitarra,20,,,"nada, todo muy bien",66.0,yes
61,2023-08-07_10h42.03.739,Unsyncopated1,s17,27.0,masculino,right,españa,catalan y castellano,Master degree,no,no,B,1,what,L2,unsyncopated,s1,r2,61,Online_whatL2//c.cha.me27.none.none.wav,fe,si,ñu,sil2,ra,ño,ba,sil,te,bi,sil1,['-'],,,none,none,,,,me,3,testConjL1Uns//r2.s1.2.wav,3.0,conjunction_un,unsyncopated,b,s1,rule,rule,L1,m,2.2679,4.0,0.0,1.151,3.0,2.0,català,0.0,castellano,0.0,ingles,6.0,5.0,4.0,yes,no,no,guitarra,20,,,"nada, todo muy bien",66.0,yes
62,2023-08-07_10h42.03.739,Unsyncopated1,s17,27.0,masculino,right,españa,catalan y castellano,Master degree,no,no,B,1,what,L2,unsyncopated,s1,r2,62,Online_whatL2//c.cha.me25.none.none.wav,fe,te,mi,sil,ra,ñu,si,sil2,ba,bi,sil1,['-'],,,none,none,,,,me,3,testConjL1Uns//time_viol.r2.s1.0.wav,3.0,conjunction_un,unsyncopated,b,s1,no_rule,time,L1,z,0.367,5.0,0.0,0.2016,3.0,2.0,català,0.0,castellano,0.0,ingles,6.0,5.0,4.0,yes,no,no,guitarra,20,,,"nada, todo muy bien",66.0,yes
63,2023-08-07_10h42.03.739,Unsyncopated1,s17,27.0,masculino,right,españa,catalan y castellano,Master degree,no,no,B,1,what,L2,unsyncopated,s2,r1,63,Online_whatL2//c.cha.me26.444.1110.wav,mi,bi,cha,sil,go,me,ño,sil1,du,te,sil2,['miss'],,,1.11,no_beat,,,,me,3,testConjL1Uns//time_viol.r1.s2.0.wav,3.0,conjunction_un,unsyncopated,a,s2,no_rule,time,L1,m,0.5353,6.0,1.0,0.9682,3.0,2.0,català,0.0,castellano,0.0,ingles,6.0,5.0,4.0,yes,no,no,guitarra,20,,,"nada, todo muy bien",66.0,yes
64,2023-08-07_10h42.03.739,Unsyncopated1,s17,27.0,masculino,right,españa,catalan y castellano,Master degree,no,no,B,1,what,L2,unsyncopated,s1,r2,64,Online_whatL2//c.cha.me10.222.1110.wav,fe,cha,ño,sil,ra,me,su,sil1,si,to,sil2,['miss'],,,1.11,no_beat,,,,me,3,testConjL1Uns//time_viol.r2.s2.0.wav,3.0,conjunction_un,unsyncopated,b,s2,no_rule,time,L1,m,0.3516,4.0,1.0,0.2518,3.0,2.0,català,0.0,castellano,0.0,ingles,6.0,5.0,4.0,yes,no,no,guitarra,20,,,"nada, todo muy bien",66.0,yes
65,2023-08-07_10h42.03.739,Unsyncopated1,s17,27.0,masculino,right,españa,catalan y castellano,Master degree,no,no,B,1,what,L2,unsyncopated,s1,r1,65,Online_whatL2//c.cha.me8.1998.1332.wav,go,ñu,ño,sil2,du,me,mi,sil,cha,su,sil1,['catch'],[2.3242999999522453],[2.3242999999522453],1.332,no_beat,0.9922999999522452,0.9922999999522452,"[""space""]",me,3,testConjL1Uns//cat_viol.r1.s1.0.wav,3.0,conjunction_un,unsyncopated,a,s1,no_rule,cat,L1,z,0.285,6.0,0.0,0.317,3.0,2.0,català,0.0,castellano,0.0,ingles,6.0,5.0,4.0,yes,no,no,guitarra,20,,,"nada, todo muy bien",66.0,yes
66,2023-08-07_10h42.03.739,Unsyncopated1,s17,27.0,masculino,right,españa,catalan y castellano,Master degree,no,no,B,1,what,L2,unsyncopated,s2,r2,66,Online_whatL2//c.cha.me9.none.none.wav,te,to,si,sil2,fe,su,ñu,sil,ra,bi,sil1,['-'],,,none,none,,,,me,3,testConjL1Uns//r1.s2.2.wav,3.0,conjunction_un,unsyncopated,a,s2,rule,rule,L1,z,0.3682,7.0,1.0,0.4182,3.0,2.0,català,0.0,castellano,0.0,ingles,6.0,5.0,4.0,yes,no,no,guitarra,20,,,"nada, todo muy bien",66.0,yes
67,2023-08-07_10h42.03.739,Unsyncopated1,s17,27.0,masculino,right,españa,catalan y castellano,Master degree,no,no,B,1,what,L2,unsyncopated,s2,r2,67,Online_whatL2//c.cha.me11.1332.0.wav,me,ba,si,sil2,fe,cha,ñu,sil,ra,bi,sil1,['catch'],[0.5602000000478711],[0.5602000000478711],0.0,beat,0.5602000000478711,0.5602000000478711,"[""space""]",me,3,testConjL1Uns//r2.s2.0.wav,3.0,conjunction_un,unsyncopated,b,s2,rule,rule,L1,m,0.5004,3.0,0.0,0.9844,3.0,2.0,català,0.0,castellano,0.0,ingles,6.0,5.0,4.0,yes,no,no,guitarra,20,,,"nada, todo muy bien",66.0,yes
68,2023-08-07_10h42.03.739,Unsyncopated1,s17,27.0,masculino,right,españa,catalan y castellano,Master degree,no,no,B,1,what,L2,unsyncopated,s2,r1,68,Online_whatL2//c.cha.me22.0.1110.wav,cha,to,su,sil,go,me,ño,sil1,du,ba,sil2,['catch'],[1.7992999999523818],[1.7992999999523818],1.11,no_beat,0.6892999999523817,0.6892999999523817,"[""space""]",me,3,testConjL1Uns//r1.s2.1.wav,3.0,conjunction_un,unsyncopated,a,s2,rule,rule,L1,m,1.3344,1.0,0.0,1.4834,3.0,2.0,català,0.0,castellano,0.0,ingles,6.0,5.0,4.0,yes,no,no,guitarra,20,,,"nada, todo muy bien",66.0,yes
69,2023-08-07_10h42.03.739,Unsyncopated1,s17,27.0,masculino,right,españa,catalan y castellano,Master degree,no,no,B,1,what,L2,unsyncopated,s2,r2,69,Online_whatL2//c.cha.me23.none.none.wav,si,ñu,te,sil,fe,ba,su,sil2,ra,to,sil1,['-'],,,none,none,,,,me,3,testConjL1Uns//r1.s2.0.wav,3.0,conjunction_un,unsyncopated,a,s2,rule,rule,L1,m,0.5015,3.0,0.0,0.2509,3.0,2.0,català,0.0,castellano,0.0,ingles,6.0,5.0,4.0,yes,no,no,guitarra,20,,,"nada, todo muy bien",66.0,yes
70,2023-08-07_10h42.03.739,Unsyncopated1,s17,27.0,masculino,right,españa,catalan y castellano,Master degree,no,no,B,1,what,L2,unsyncopated,s1,r2,70,Online_whatL2//c.cha.me20.444.1332.wav,fe,si,cha,sil,ra,bi,me,sil2,ño,mi,sil1,['catch'],[1.9411000001430239],[1.9411000001430239],1.332,no_beat,0.6091000001430238,0.6091000001430238,"[""space""]",me,3,testConjL1Uns//cat_viol.r2.s1.0.wav,3.0,conjunction_un,unsyncopated,b,s1,no_rule,cat,L1,m,0.6011,3.0,1.0,1.1837,3.0,2.0,català,0.0,castellano,0.0,ingles,6.0,5.0,4.0,yes,no,no,guitarra,20,,,"nada, todo muy bien",66.0,yes
71,2023-08-07_10h42.03.739,Unsyncopated1,s17,27.0,masculino,right,españa,catalan y castellano,Master degree,no,no,B,1,what,L2,unsyncopated,s1,r1,71,Online_whatL2//c.cha.me21.none.none.wav,go,mi,bi,sil,du,si,su,sil2,te,ba,sil1,['-'],,,none,none,,,,me,3,testConjL1Uns//dep_viol.r2.s1.0.wav,3.0,conjunction_un,unsyncopated,b,s1,no_rule,dep,L1,z,0.3519,5.0,0.0,0.1679,3.0,2.0,català,0.0,castellano,0.0,ingles,6.0,5.0,4.0,yes,no,no,guitarra,20,,,"nada, todo muy bien",66.0,yes
72,2023-08-07_10h42.03.739,Unsyncopated1,s17,27.0,masculino,right,españa,catalan y castellano,Master degree,no,no,B,1,what,L2,unsyncopated,s1,r2,72,Online_whatL2//c.cha.me30.none.none.wav,fe,ba,su,sil,ra,mi,ño,sil1,ñu,to,sil2,['-'],,,none,none,,,,me,3,testConjL4Syn//r2.s1.1.wav,4.0,conjunction_syn,syncopated,b,s1,rule,rule,L4,z,0.5512,6.0,1.0,0.8012,3.0,2.0,català,0.0,castellano,0.0,ingles,6.0,5.0,4.0,yes,no,no,guitarra,20,,,"nada, todo muy bien",66.0,yes
73,2023-08-07_10h42.03.739,Unsyncopated1,s17,27.0,masculino,right,españa,catalan y castellano,Master degree,no,no,B,1,what,L2,unsyncopated,s2,r1,73,Online_whatL2//c.cha.me29.none.none.wav,ño,ba,mi,sil,go,ñu,bi,sil1,du,te,sil2,['-'],,,none,none,,,,me,3,testConjL4Syn//time_viol.r2.s2.0.wav,4.0,conjunction_syn,syncopated,b,s2,no_rule,time,L4,m,0.535,4.0,1.0,0.7516,3.0,2.0,català,0.0,castellano,0.0,ingles,6.0,5.0,4.0,yes,no,no,guitarra,20,,,"nada, todo muy bien",66.0,yes
74,2023-08-07_10h42.03.739,Unsyncopated1,s17,27.0,masculino,right,españa,catalan y castellano,Master degree,no,no,B,1,what,L2,unsyncopated,s2,r2,74,Online_whatL2//c.cha.me31.1110.222.wav,su,me,ño,sil,fe,cha,bi,sil1,ra,mi,sil2,['catch'],[0.7898999998569707],[0.7898999998569707],0.222,no_beat,0.5678999998569707,0.5678999998569707,"[""space""]",me,3,testConjL4Syn//time_viol.r1.s1.0.wav,4.0,conjunction_syn,syncopated,a,s1,no_rule,time,L4,m,0.2846,6.0,1.0,0.4682,3.0,2.0,català,0.0,castellano,0.0,ingles,6.0,5.0,4.0,yes,no,no,guitarra,20,,,"nada, todo muy bien",66.0,yes
75,2023-08-07_10h42.03.739,Unsyncopated1,s17,27.0,masculino,right,españa,catalan y castellano,Master degree,no,no,B,1,what,L2,unsyncopated,s2,r2,75,Online_whatL2//c.cha.me28.0.1110.wav,cha,to,su,sil,fe,me,te,sil1,ra,bi,sil2,['catch'],[1.757299999952238],[1.757299999952238],1.11,no_beat,0.647299999952238,0.647299999952238,"[""space""]",me,3,testConjL4Syn//r1.s2.1.wav,4.0,conjunction_syn,syncopated,a,s2,rule,rule,L4,m,1.0512,4.0,0.0,0.6184,3.0,2.0,català,0.0,castellano,0.0,ingles,6.0,5.0,4.0,yes,no,no,guitarra,20,,,"nada, todo muy bien",66.0,yes
76,2023-08-07_10h42.03.739,Unsyncopated1,s17,27.0,masculino,right,españa,catalan y castellano,Master degree,no,no,B,1,what,L2,unsyncopated,s1,r1,76,Online_whatL2//b.fe.ra18.none.none.wav,go,si,te,sil,du,to,ño,sil2,me,bi,sil1,['-'],,,none,none,,,,ra,2,testConjL4Syn//r1.s1.2.wav,4.0,conjunction_syn,syncopated,a,s1,rule,rule,L4,m,0.2521,6.0,0.0,0.4007,3.0,2.0,català,0.0,castellano,0.0,ingles,6.0,5.0,4.0,yes,no,no,guitarra,20,,,"nada, todo muy bien",66.0,yes
77,2023-08-07_10h42.03.739,Unsyncopated1,s17,27.0,masculino,right,españa,catalan y castellano,Master degree,no,no,B,1,what,L2,unsyncopated,s1,r2,77,Online_whatL2//b.fe.ra16.0.1110.wav,fe,te,su,sil2,ra,si,ñu,sil,cha,mi,sil1,['miss'],,,1.11,no_beat,,,,ra,2,testConjL4Syn//cat_viol.r2.s2.0.wav,4.0,conjunction_syn,syncopated,b,s2,no_rule,cat,L4,m,0.3181,2.0,1.0,0.535,3.0,2.0,català,0.0,castellano,0.0,ingles,6.0,5.0,4.0,yes,no,no,guitarra,20,,,"nada, todo muy bien",66.0,yes
78,2023-08-07_10h42.03.739,Unsyncopated1,s17,27.0,masculino,right,españa,catalan y castellano,Master degree,no,no,B,1,what,L2,unsyncopated,s2,r1,78,Online_whatL2//b.fe.ra17.none.none.wav,ñu,su,to,sil,go,te,bi,sil2,du,si,sil1,['-'],,,none,none,,,,ra,2,testConjL4Syn//r2.s2.0.wav,4.0,conjunction_syn,syncopated,b,s2,rule,rule,L4,z,0.3172,6.0,1.0,0.6346,3.0,2.0,català,0.0,castellano,0.0,ingles,6.0,5.0,4.0,yes,no,no,guitarra,20,,,"nada, todo muy bien",66.0,yes
79,2023-08-07_10h42.03.739,Unsyncopated1,s17,27.0,masculino,right,españa,catalan y castellano,Master degree,no,no,B,1,what,L2,unsyncopated,s1,r2,79,Online_whatL2//b.fe.ra19.0.888.wav,fe,si,ñu,sil,ra,me,su,sil2,cha,to,sil1,['miss'],,,0.888,beat,,,,ra,2,testConjL4Syn//time_viol.r1.s2.0.wav,4.0,conjunction_syn,syncopated,a,s2,no_rule,time,L4,m,0.4011,5.0,1.0,0.5184,3.0,2.0,català,0.0,castellano,0.0,ingles,6.0,5.0,4.0,yes,no,no,guitarra,20,,,"nada, todo muy bien",66.0,yes
80,2023-08-07_10h42.03.739,Unsyncopated1,s17,27.0,masculino,right,españa,catalan y castellano,Master degree,no,no,B,1,what,L2,unsyncopated,s1,r2,80,Online_whatL2//b.fe.ra31.0.888.wav,fe,bi,to,sil,ra,ño,me,sil1,su,te,sil2,['catch'],[1.5154000000954966],[1.5154000000954966],0.888,beat,0.6274000000954966,0.6274000000954966,"[""space""]",ra,2,testConjL4Syn//r1.s2.0.wav,4.0,conjunction_syn,syncopated,a,s2,rule,rule,L4,z,0.3687,5.0,1.0,0.6844,3.0,2.0,català,0.0,castellano,0.0,ingles,6.0,5.0,4.0,yes,no,no,guitarra,20,,,"nada, todo muy bien",66.0,yes
81,2023-08-07_10h42.03.739,Unsyncopated1,s17,27.0,masculino,right,españa,catalan y castellano,Master degree,no,no,B,1,what,L2,unsyncopated,s2,r1,81,Online_whatL2//b.fe.ra30.none.none.wav,si,cha,bi,sil,go,ba,to,sil1,du,me,sil2,['-'],,,none,none,,,,ra,2,testConjL4Syn//r1.s1.0.wav,4.0,conjunction_syn,syncopated,a,s1,rule,rule,L4,m,1.0343,4.0,0.0,0.835,3.0,2.0,català,0.0,castellano,0.0,ingles,6.0,5.0,4.0,yes,no,no,guitarra,20,,,"nada, todo muy bien",66.0,yes
82,2023-08-07_10h42.03.739,Unsyncopated1,s17,27.0,masculino,right,españa,catalan y castellano,Master degree,no,no,B,1,what,L2,unsyncopated,s2,r2,82,Online_whatL2//b.fe.ra29.1110.1998.wav,ñu,si,cha,sil2,fe,ba,ño,sil,ra,me,sil1,['miss'],,,1.998,no_beat,,,,ra,2,testConjL4Syn//dep_viol.r2.s2.0.wav,4.0,conjunction_syn,syncopated,b,s2,no_rule,dep,L4,m,0.4683,3.0,1.0,1.0506,3.0,2.0,català,0.0,castellano,0.0,ingles,6.0,5.0,4.0,yes,no,no,guitarra,20,,,"nada, todo muy bien",66.0,yes
83,2023-08-07_10h42.03.739,Unsyncopated1,s17,27.0,masculino,right,españa,catalan y castellano,Master degree,no,no,B,1,what,L2,unsyncopated,s1,r2,83,Online_whatL2//b.fe.ra28.0.888.wav,fe,me,mi,sil,ra,cha,bi,sil2,su,to,sil1,['miss'],,,0.888,beat,,,,ra,2,testConjL4Syn//cat_viol.r1.s2.0.wav,4.0,conjunction_syn,syncopated,a,s2,no_rule,cat,L4,m,0.2854,5.0,1.0,0.3184,3.0,2.0,català,0.0,castellano,0.0,ingles,6.0,5.0,4.0,yes,no,no,guitarra,20,,,"nada, todo muy bien",66.0,yes
84,2023-08-07_10h42.03.739,Unsyncopated1,s17,27.0,masculino,right,españa,catalan y castellano,Master degree,no,no,B,1,what,L2,unsyncopated,s2,r1,84,Online_whatL2//a.go.du11.1110.1998.wav,si,me,to,sil2,go,su,te,sil,du,mi,sil1,['catch'],[1.5522999999523108],[1.5522999999523108],1.11,no_beat,0.4422999999523107,0.4422999999523107,"[""space""]",go,1,testConjL4Syn//dep_viol.r1.s1.0.wav,4.0,conjunction_syn,syncopated,a,s1,no_rule,dep,L4,m,0.3171,6.0,1.0,1.0343,3.0,2.0,català,0.0,castellano,0.0,ingles,6.0,5.0,4.0,yes,no,no,guitarra,20,,,"nada, todo muy bien",66.0,yes
85,2023-08-07_10h42.03.739,Unsyncopated1,s17,27.0,masculino,right,españa,catalan y castellano,Master degree,no,no,B,1,what,L2,unsyncopated,s1,r1,85,Online_whatL2//a.go.du8.0.888.wav,go,su,mi,sil,du,ñu,ño,sil1,to,si,sil2,['catch'],[0.5765000000001237],[0.5765000000001237],0.0,beat,0.5765000000001237,0.5765000000001237,"[""space""]",go,1,testConjL4Syn//time_viol.r2.s1.0.wav,4.0,conjunction_syn,syncopated,b,s1,no_rule,time,L4,m,0.2684,5.0,1.0,0.3014,3.0,2.0,català,0.0,castellano,0.0,ingles,6.0,5.0,4.0,yes,no,no,guitarra,20,,,"nada, todo muy bien",66.0,yes
86,2023-08-07_10h42.03.739,Unsyncopated1,s17,27.0,masculino,right,españa,catalan y castellano,Master degree,no,no,B,1,what,L2,unsyncopated,s1,r2,86,Online_whatL2//a.go.du9.none.none.wav,fe,ba,to,sil2,ra,mi,ño,sil,si,ñu,sil1,['-'],,,none,none,,,,go,1,testConjL4Syn//r2.s1.0.wav,4.0,conjunction_syn,syncopated,b,s1,rule,rule,L4,z,0.2749,7.0,1.0,0.7176,3.0,2.0,català,0.0,castellano,0.0,ingles,6.0,5.0,4.0,yes,no,no,guitarra,20,,,"nada, todo muy bien",66.0,yes
87,2023-08-07_10h42.03.739,Unsyncopated1,s17,27.0,masculino,right,españa,catalan y castellano,Master degree,no,no,B,1,what,L2,unsyncopated,s1,r1,87,Online_whatL2//a.go.du10.0.888.wav,go,to,ño,sil,du,si,ba,sil2,ñu,me,sil1,['catch'],[0.5088999998567942],[0.5088999998567942],0.0,beat,0.5088999998567942,0.5088999998567942,"[""space""]",go,1,testConjL4Syn//dep_viol.r2.s1.0.wav,4.0,conjunction_syn,syncopated,b,s1,no_rule,dep,L4,m,0.2847,2.0,1.0,1.8021,3.0,2.0,català,0.0,castellano,0.0,ingles,6.0,5.0,4.0,yes,no,no,guitarra,20,,,"nada, todo muy bien",66.0,yes
88,2023-08-07_10h42.03.739,Unsyncopated1,s17,27.0,masculino,right,españa,catalan y castellano,Master degree,no,no,B,1,what,L2,unsyncopated,s2,r2,88,Online_whatL2//b.fe.ra3.1110.1998.wav,si,ño,me,sil2,fe,ñu,cha,sil,ra,bi,sil1,['miss'],,,1.998,no_beat,,,,ra,2,testConjL4Syn//r1.s1.1.wav,4.0,conjunction_syn,syncopated,a,s1,rule,rule,L4,z,0.2672,4.0,1.0,0.367,3.0,2.0,català,0.0,castellano,0.0,ingles,6.0,5.0,4.0,yes,no,no,guitarra,20,,,"nada, todo muy bien",66.0,yes
89,2023-08-07_10h42.03.739,Unsyncopated1,s17,27.0,masculino,right,españa,catalan y castellano,Master degree,no,no,B,1,what,L2,unsyncopated,s1,r2,89,Online_whatL2//b.fe.ra0.0.1110.wav,fe,cha,ño,sil2,ra,te,me,sil,to,ñu,sil1,['miss'],,,1.11,no_beat,,,,ra,2,testConjL4Syn//dep_viol.r1.s2.0.wav,4.0,conjunction_syn,syncopated,a,s2,no_rule,dep,L4,m,0.5179,4.0,1.0,0.7677,3.0,2.0,català,0.0,castellano,0.0,ingles,6.0,5.0,4.0,yes,no,no,guitarra,20,,,"nada, todo muy bien",66.0,yes
90,2023-08-07_10h42.03.739,Unsyncopated1,s17,27.0,masculino,right,españa,catalan y castellano,Master degree,no,no,B,1,what,L2,unsyncopated,s1,r1,90,Online_whatL2//b.fe.ra2.none.none.wav,go,cha,mi,sil2,du,to,bi,sil,ño,ba,sil1,['-'],,,none,none,,,,ra,2,testConjL4Syn//cat_viol.r1.s1.0.wav,4.0,conjunction_syn,syncopated,a,s1,no_rule,cat,L4,m,0.2333,6.0,1.0,0.1696,3.0,2.0,català,0.0,castellano,0.0,ingles,6.0,5.0,4.0,yes,no,no,guitarra,20,,,"nada, todo muy bien",66.0,yes
91,2023-08-07_10h42.03.739,Unsyncopated1,s17,27.0,masculino,right,españa,catalan y castellano,Master degree,no,no,B,1,what,L2,unsyncopated,s1,r2,91,Online_whatL2//b.fe.ra1.0.1110.wav,fe,bi,ño,sil2,ra,ba,cha,sil,ñu,to,sil1,['miss'],,,1.11,no_beat,,,,ra,2,testConjL4Syn//r2.s2.2.wav,4.0,conjunction_syn,syncopated,b,s2,rule,rule,L4,m,0.2343,5.0,0.0,0.1687,3.0,2.0,català,0.0,castellano,0.0,ingles,6.0,5.0,4.0,yes,no,no,guitarra,20,,,"nada, todo muy bien",66.0,yes
92,2023-08-07_10h42.03.739,Unsyncopated1,s17,27.0,masculino,right,españa,catalan y castellano,Master degree,no,no,B,1,what,L2,unsyncopated,s1,r1,92,Online_whatL2//b.fe.ra14.none.none.wav,go,bi,su,sil,du,me,te,sil2,to,cha,sil1,['-'],,,none,none,,,,ra,2,testConjL4Syn//r2.s1.2.wav,4.0,conjunction_syn,syncopated,b,s1,rule,rule,L4,z,0.3014,7.0,1.0,0.2681,3.0,2.0,català,0.0,castellano,0.0,ingles,6.0,5.0,4.0,yes,no,no,guitarra,20,,,"nada, todo muy bien",66.0,yes
93,2023-08-07_10h42.03.739,Unsyncopated1,s17,27.0,masculino,right,españa,catalan y castellano,Master degree,no,no,B,1,what,L2,unsyncopated,s1,r1,93,Online_whatL2//b.fe.ra13.none.none.wav,go,mi,te,sil2,du,to,si,sil,ñu,me,sil1,['-'],,,none,none,,,,ra,2,testConjL4Syn//r1.s2.2.wav,4.0,conjunction_syn,syncopated,a,s2,rule,rule,L4,m,0.7011,6.0,0.0,1.6016,3.0,2.0,català,0.0,castellano,0.0,ingles,6.0,5.0,4.0,yes,no,no,guitarra,20,,,"nada, todo muy bien",66.0,yes
94,2023-08-07_10h42.03.739,Unsyncopated1,s17,27.0,masculino,right,españa,catalan y castellano,Master degree,no,no,B,1,what,L2,unsyncopated,s2,r1,94,Online_whatL2//b.fe.ra12.none.none.wav,te,mi,ñu,sil,go,bi,to,sil2,du,cha,sil1,['-'],,,none,none,,,,ra,2,testConjL4Syn//cat_viol.r2.s1.0.wav,4.0,conjunction_syn,syncopated,b,s1,no_rule,cat,L4,z,0.2184,4.0,0.0,0.3501,3.0,2.0,català,0.0,castellano,0.0,ingles,6.0,5.0,4.0,yes,no,no,guitarra,20,,,"nada, todo muy bien",66.0,yes
95,2023-08-07_10h42.03.739,Unsyncopated1,s17,27.0,masculino,right,españa,catalan y castellano,Master degree,no,no,B,1,what,L2,unsyncopated,s2,r2,95,Online_whatL2//b.fe.ra15.888.1998.wav,to,ñu,cha,sil,fe,me,ba,sil2,ra,si,sil1,['catch'],[2.4809999999999945],[2.4809999999999945],1.998,no_beat,0.4829999999999945,0.4829999999999945,"[""space""]",ra,2,testConjL4Syn//r2.s2.1.wav,4.0,conjunction_syn,syncopated,b,s2,rule,rule,L4,m,0.314,4.0,0.0,0.3509,3.0,2.0,català,0.0,castellano,0.0,ingles,6.0,5.0,4.0,yes,no,no,guitarra,20,,,"nada, todo muy bien",66.0,yes
96,2023-08-07_10h42.03.739,Unsyncopated1,s17,27.0,masculino,right,españa,catalan y castellano,Master degree,no,no,B,1,what,L2,unsyncopated,s1,r2,96,Online_whatL2//c.cha.me13.none.none.wav,fe,su,te,sil,ra,ño,si,sil2,ba,bi,sil1,['-'],,,none,none,,,,me,3,,,,,,,,,,,,,,,3.0,2.0,català,0.0,castellano,0.0,ingles,6.0,5.0,4.0,yes,no,no,guitarra,20,,,"nada, todo muy bien",66.0,yes
97,2023-08-07_10h42.03.739,Unsyncopated1,s17,27.0,masculino,right,españa,catalan y castellano,Master degree,no,no,B,1,what,L2,unsyncopated,s2,r1,97,Online_whatL2//c.cha.me14.none.none.wav,ñu,to,ño,sil,go,ba,si,sil2,du,mi,sil1,['-'],,,none,none,,,,me,3,,,,,,,,,,,,,,,3.0,2.0,català,0.0,castellano,0.0,ingles,6.0,5.0,4.0,yes,no,no,guitarra,20,,,"nada, todo muy bien",66.0,yes
98,2023-08-07_10h42.03.739,Unsyncopated1,s17,27.0,masculino,right,españa,catalan y castellano,Master degree,no,no,B,1,what,L2,unsyncopated,s1,r1,98,Online_whatL2//c.cha.me12.1332.222.wav,go,me,si,sil,du,ñu,cha,sil1,mi,to,sil2,['catch'],[0.7582000000477365],[0.7582000000477365],0.222,no_beat,0.5362000000477365,0.5362000000477365,"[""space""]",me,3,,,,,,,,,,,,,,,3.0,2.0,català,0.0,castellano,0.0,ingles,6.0,5.0,4.0,yes,no,no,guitarra,20,,,"nada, todo muy bien",66.0,yes
99,2023-08-07_10h42.03.739,Unsyncopated1,s17,27.0,masculino,right,españa,catalan y castellano,Master degree,no,no,B,1,what,L2,unsyncopated,s2,r1,99,Online_whatL2//c.cha.me15.none.none.wav,su,ñu,mi,sil,go,ba,bi,sil1,du,to,sil2,['-'],,,none,none,,,,me,3,,,,,,,,,,,,,,,3.0,2.0,català,0.0,castellano,0.0,ingles,6.0,5.0,4.0,yes,no,no,guitarra,20,,,"nada, todo muy bien",66.0,yes
100,2023-08-07_10h42.03.739,Unsyncopated1,s17,27.0,masculino,right,españa,catalan y castellano,Master degree,no,no,B,1,what,L2,unsyncopated,s1,r2,100,Online_whatL2//d.si.ñu24.none.none.wav,fe,ba,cha,sil2,ra,to,mi,sil,te,bi,sil1,['-'],,,none,none,,,,ñu,4,,,,,,,,,,,,,,,3.0,2.0,català,0.0,castellano,0.0,ingles,6.0,5.0,4.0,yes,no,no,guitarra,20,,,"nada, todo muy bien",66.0,yes
101,2023-08-07_10h42.03.739,Unsyncopated1,s17,27.0,masculino,right,españa,catalan y castellano,Master degree,no,no,B,1,what,L2,unsyncopated,s1,r1,101,Online_whatL2//d.si.ñu25.none.none.wav,go,te,su,sil,du,to,ba,sil2,cha,mi,sil1,['-'],,,none,none,,,,ñu,4,,,,,,,,,,,,,,,3.0,2.0,català,0.0,castellano,0.0,ingles,6.0,5.0,4.0,yes,no,no,guitarra,20,,,"nada, todo muy bien",66.0,yes
102,2023-08-07_10h42.03.739,Unsyncopated1,s17,27.0,masculino,right,españa,catalan y castellano,Master degree,no,no,B,1,what,L2,unsyncopated,s2,r2,102,Online_whatL2//d.si.ñu27.none.none.wav,su,te,bi,sil,fe,cha,ño,sil2,ra,ba,sil1,['false alarm'],[1.8576000001430657],[1.8576000001430657],none,none,,,"[""space""]",ñu,4,,,,,,,,,,,,,,,3.0,2.0,català,0.0,castellano,0.0,ingles,6.0,5.0,4.0,yes,no,no,guitarra,20,,,"nada, todo muy bien",66.0,yes
103,2023-08-07_10h42.03.739,Unsyncopated1,s17,27.0,masculino,right,españa,catalan y castellano,Master degree,no,no,B,1,what,L2,unsyncopated,s2,r1,103,Online_whatL2//d.si.ñu26.none.none.wav,mi,cha,te,sil,go,ño,su,sil2,du,me,sil1,['-'],,,none,none,,,,ñu,4,,,,,,,,,,,,,,,3.0,2.0,català,0.0,castellano,0.0,ingles,6.0,5.0,4.0,yes,no,no,guitarra,20,,,"nada, todo muy bien",66.0,yes
104,2023-08-07_10h42.03.739,Unsyncopated1,s17,27.0,masculino,right,españa,catalan y castellano,Master degree,no,no,B,1,what,L2,unsyncopated,s1,r1,104,Online_whatL2//b.fe.ra4.none.none.wav,go,te,to,sil2,du,ño,me,sil,su,cha,sil1,['-'],,,none,none,,,,ra,2,,,,,,,,,,,,,,,3.0,2.0,català,0.0,castellano,0.0,ingles,6.0,5.0,4.0,yes,no,no,guitarra,20,,,"nada, todo muy bien",66.0,yes
105,2023-08-07_10h42.03.739,Unsyncopated1,s17,27.0,masculino,right,españa,catalan y castellano,Master degree,no,no,B,1,what,L2,unsyncopated,s2,r1,105,Online_whatL2//b.fe.ra6.none.none.wav,si,su,te,sil2,go,ba,mi,sil,du,ñu,sil1,['-'],,,none,none,,,,ra,2,,,,,,,,,,,,,,,3.0,2.0,català,0.0,castellano,0.0,ingles,6.0,5.0,4.0,yes,no,no,guitarra,20,,,"nada, todo muy bien",66.0,yes
106,2023-08-07_10h42.03.739,Unsyncopated1,s17,27.0,masculino,right,españa,catalan y castellano,Master degree,no,no,B,1,what,L2,unsyncopated,s1,r1,106,Online_whatL2//b.fe.ra7.none.none.wav,go,cha,me,sil,du,bi,te,sil1,ñu,su,sil2,['-'],,,none,none,,,,ra,2,,,,,,,,,,,,,,,3.0,2.0,català,0.0,castellano,0.0,ingles,6.0,5.0,4.0,yes,no,no,guitarra,20,,,"nada, todo muy bien",66.0,yes
107,2023-08-07_10h42.03.739,Unsyncopated1,s17,27.0,masculino,right,españa,catalan y castellano,Master degree,no,no,B,1,what,L2,unsyncopated,s2,r2,107,Online_whatL2//b.fe.ra5.888.1776.wav,ñu,ño,mi,sil,fe,me,ba,sil1,ra,te,sil2,['catch'],[2.306799999952318],[2.306799999952318],1.776,beat,0.5307999999523181,0.5307999999523181,"[""space""]",ra,2,,,,,,,,,,,,,,,3.0,2.0,català,0.0,castellano,0.0,ingles,6.0,5.0,4.0,yes,no,no,guitarra,20,,,"nada, todo muy bien",66.0,yes
108,2023-08-07_10h42.03.739,Unsyncopated1,s17,27.0,masculino,right,españa,catalan y castellano,Master degree,no,no,B,1,what,L2,unsyncopated,s1,r1,108,Online_whatL2//a.go.du18.0.1110.wav,go,cha,me,sil2,du,ño,ñu,sil,ba,mi,sil1,['miss'],,,0.0,beat,,,,go,1,,,,,,,,,,,,,,,3.0,2.0,català,0.0,castellano,0.0,ingles,6.0,5.0,4.0,yes,no,no,guitarra,20,,,"nada, todo muy bien",66.0,yes
109,2023-08-07_10h42.03.739,Unsyncopated1,s17,27.0,masculino,right,españa,catalan y castellano,Master degree,no,no,B,1,what,L2,unsyncopated,s2,r1,109,Online_whatL2//a.go.du19.1110.1998.wav,si,cha,ñu,sil2,go,mi,ño,sil,du,me,sil1,['catch'],[1.6074000000953674],[1.6074000000953674],1.11,no_beat,0.4974000000953673,0.4974000000953673,"[""space""]",go,1,,,,,,,,,,,,,,,3.0,2.0,català,0.0,castellano,0.0,ingles,6.0,5.0,4.0,yes,no,no,guitarra,20,,,"nada, todo muy bien",66.0,yes
110,2023-08-07_10h42.03.739,Unsyncopated1,s17,27.0,masculino,right,españa,catalan y castellano,Master degree,no,no,B,1,what,L2,unsyncopated,s2,r1,110,Online_whatL2//a.go.du16.888.1776.wav,cha,bi,mi,sil,go,me,to,sil1,du,ño,sil2,['catch'],[1.4244000000953747],[1.4244000000953747],0.888,beat,0.5364000000953747,0.5364000000953747,"[""space""]",go,1,,,,,,,,,,,,,,,3.0,2.0,català,0.0,castellano,0.0,ingles,6.0,5.0,4.0,yes,no,no,guitarra,20,,,"nada, todo muy bien",66.0,yes
111,2023-08-07_10h42.03.739,Unsyncopated1,s17,27.0,masculino,right,españa,catalan y castellano,Master degree,no,no,B,1,what,L2,unsyncopated,s2,r1,111,Online_whatL2//a.go.du17.888.1776.wav,si,ño,bi,sil,go,te,ñu,sil1,du,su,sil2,['catch'],[1.44009999990476],[1.44009999990476],0.888,beat,0.5520999999047599,0.5520999999047599,"[""space""]",go,1,,,,,,,,,,,,,,,3.0,2.0,català,0.0,castellano,0.0,ingles,6.0,5.0,4.0,yes,no,no,guitarra,20,,,"nada, todo muy bien",66.0,yes
112,2023-08-07_10h42.03.739,Unsyncopated1,s17,27.0,masculino,right,españa,catalan y castellano,Master degree,no,no,B,1,what,L2,unsyncopated,s1,r1,112,Online_whatL2//d.si.ñu12.222.444.wav,go,si,ñu,sil,du,ba,me,sil1,bi,to,sil2,['catch'],[0.5957999999523054],[0.5957999999523054],0.444,no_beat,0.1517999999523053,0.1517999999523053,"[""space""]",ñu,4,,,,,,,,,,,,,,,3.0,2.0,català,0.0,castellano,0.0,ingles,6.0,5.0,4.0,yes,no,no,guitarra,20,,,"nada, todo muy bien",66.0,yes
113,2023-08-07_10h42.03.739,Unsyncopated1,s17,27.0,masculino,right,españa,catalan y castellano,Master degree,no,no,B,1,what,L2,unsyncopated,s1,r2,113,Online_whatL2//d.si.ñu14.none.none.wav,fe,te,cha,sil,ra,mi,ba,sil1,bi,ño,sil2,['-'],,,none,none,,,,ñu,4,,,,,,,,,,,,,,,3.0,2.0,català,0.0,castellano,0.0,ingles,6.0,5.0,4.0,yes,no,no,guitarra,20,,,"nada, todo muy bien",66.0,yes
114,2023-08-07_10h42.03.739,Unsyncopated1,s17,27.0,masculino,right,españa,catalan y castellano,Master degree,no,no,B,1,what,L2,unsyncopated,s2,r2,114,Online_whatL2//d.si.ñu15.none.none.wav,su,te,mi,sil2,fe,ño,bi,sil,ra,cha,sil1,['false alarm'],[2.1948999998569434],[2.1948999998569434],none,none,,,"[""space""]",ñu,4,,,,,,,,,,,,,,,3.0,2.0,català,0.0,castellano,0.0,ingles,6.0,5.0,4.0,yes,no,no,guitarra,20,,,"nada, todo muy bien",66.0,yes
115,2023-08-07_10h42.03.739,Unsyncopated1,s17,27.0,masculino,right,españa,catalan y castellano,Master degree,no,no,B,1,what,L2,unsyncopated,s2,r2,115,Online_whatL2//d.si.ñu13.444.0.wav,ñu,te,si,sil,fe,bi,cha,sil1,ra,ba,sil2,['miss'],,,0.0,beat,,,,ñu,4,,,,,,,,,,,,,,,3.0,2.0,català,0.0,castellano,0.0,ingles,6.0,5.0,4.0,yes,no,no,guitarra,20,,,"nada, todo muy bien",66.0,yes
116,2023-08-07_10h42.03.739,Unsyncopated1,s17,27.0,masculino,right,españa,catalan y castellano,Master degree,no,no,B,1,what,L2,unsyncopated,s2,r2,116,Online_whatL2//a.go.du27.none.none.wav,mi,cha,ba,sil,fe,bi,su,sil2,ra,ño,sil1,['-'],,,none,none,,,,go,1,,,,,,,,,,,,,,,3.0,2.0,català,0.0,castellano,0.0,ingles,6.0,5.0,4.0,yes,no,no,guitarra,20,,,"nada, todo muy bien",66.0,yes
117,2023-08-07_10h42.03.739,Unsyncopated1,s17,27.0,masculino,right,españa,catalan y castellano,Master degree,no,no,B,1,what,L2,unsyncopated,s1,r2,117,Online_whatL2//a.go.du26.none.none.wav,fe,te,si,sil2,ra,ba,to,sil,su,bi,sil1,['false alarm'],[0.209999999999809],[0.209999999999809],none,none,,,"[""space""]",go,1,,,,,,,,,,,,,,,3.0,2.0,català,0.0,castellano,0.0,ingles,6.0,5.0,4.0,yes,no,no,guitarra,20,,,"nada, todo muy bien",66.0,yes
118,2023-08-07_10h42.03.739,Unsyncopated1,s17,27.0,masculino,right,españa,catalan y castellano,Master degree,no,no,B,1,what,L2,unsyncopated,s2,r2,118,Online_whatL2//a.go.du24.none.none.wav,me,cha,bi,sil,fe,ño,su,sil2,ra,to,sil1,['-'],,,none,none,,,,go,1,,,,,,,,,,,,,,,3.0,2.0,català,0.0,castellano,0.0,ingles,6.0,5.0,4.0,yes,no,no,guitarra,20,,,"nada, todo muy bien",66.0,yes
119,2023-08-07_10h42.03.739,Unsyncopated1,s17,27.0,masculino,right,españa,catalan y castellano,Master degree,no,no,B,1,what,L2,unsyncopated,s1,r1,119,Online_whatL2//a.go.du25.0.888.wav,go,bi,ñu,sil,du,mi,si,sil2,su,cha,sil1,['catch'],[0.4412000000477292],[0.4412000000477292],0.0,beat,0.4412000000477292,0.4412000000477292,"[""space""]",go,1,,,,,,,,,,,,,,,3.0,2.0,català,0.0,castellano,0.0,ingles,6.0,5.0,4.0,yes,no,no,guitarra,20,,,"nada, todo muy bien",66.0,yes
120,2023-08-07_10h42.03.739,Unsyncopated1,s17,27.0,masculino,right,españa,catalan y castellano,Master degree,no,no,B,1,what,L2,unsyncopated,s2,r1,120,Online_whatL2//b.fe.ra23.none.none.wav,te,ñu,me,sil,go,cha,ño,sil1,du,bi,sil2,['-'],,,none,none,,,,ra,2,,,,,,,,,,,,,,,3.0,2.0,català,0.0,castellano,0.0,ingles,6.0,5.0,4.0,yes,no,no,guitarra,20,,,"nada, todo muy bien",66.0,yes
121,2023-08-07_10h42.03.739,Unsyncopated1,s17,27.0,masculino,right,españa,catalan y castellano,Master degree,no,no,B,1,what,L2,unsyncopated,s2,r2,121,Online_whatL2//b.fe.ra22.888.1776.wav,ba,me,cha,sil,fe,su,ño,sil1,ra,to,sil2,['miss'],,,1.776,beat,,,,ra,2,,,,,,,,,,,,,,,3.0,2.0,català,0.0,castellano,0.0,ingles,6.0,5.0,4.0,yes,no,no,guitarra,20,,,"nada, todo muy bien",66.0,yes
122,2023-08-07_10h42.03.739,Unsyncopated1,s17,27.0,masculino,right,españa,catalan y castellano,Master degree,no,no,B,1,what,L2,unsyncopated,s1,r2,122,Online_whatL2//b.fe.ra21.0.888.wav,fe,bi,su,sil,ra,to,te,sil1,ba,ñu,sil2,['catch'],[1.3737999999523254],[1.3737999999523254],0.888,beat,0.4857999999523253,0.4857999999523253,"[""space""]",ra,2,,,,,,,,,,,,,,,3.0,2.0,català,0.0,castellano,0.0,ingles,6.0,5.0,4.0,yes,no,no,guitarra,20,,,"nada, todo muy bien",66.0,yes
123,2023-08-07_10h42.03.739,Unsyncopated1,s17,27.0,masculino,right,españa,catalan y castellano,Master degree,no,no,B,1,what,L2,unsyncopated,s2,r1,123,Online_whatL2//b.fe.ra20.none.none.wav,te,me,mi,sil,go,to,ñu,sil2,du,ba,sil1,['-'],,,none,none,,,,ra,2,,,,,,,,,,,,,,,3.0,2.0,català,0.0,castellano,0.0,ingles,6.0,5.0,4.0,yes,no,no,guitarra,20,,,"nada, todo muy bien",66.0,yes
124,2023-08-07_10h42.03.739,Unsyncopated1,s17,27.0,masculino,right,españa,catalan y castellano,Master degree,no,no,B,1,what,L2,unsyncopated,s1,r1,124,Online_whatL2//d.si.ñu9.444.1332.wav,go,mi,si,sil,du,me,ñu,sil2,to,su,sil1,['miss'],,,1.332,no_beat,,,,ñu,4,,,,,,,,,,,,,,,3.0,2.0,català,0.0,castellano,0.0,ingles,6.0,5.0,4.0,yes,no,no,guitarra,20,,,"nada, todo muy bien",66.0,yes
125,2023-08-07_10h42.03.739,Unsyncopated1,s17,27.0,masculino,right,españa,catalan y castellano,Master degree,no,no,B,1,what,L2,unsyncopated,s2,r1,125,Online_whatL2//d.si.ñu11.none.none.wav,su,bi,me,sil,go,te,mi,sil1,du,ño,sil2,['false alarm'],[2.6416999998093615],[2.6416999998093615],none,none,,,"[""space""]",ñu,4,,,,,,,,,,,,,,,3.0,2.0,català,0.0,castellano,0.0,ingles,6.0,5.0,4.0,yes,no,no,guitarra,20,,,"nada, todo muy bien",66.0,yes
126,2023-08-07_10h42.03.739,Unsyncopated1,s17,27.0,masculino,right,españa,catalan y castellano,Master degree,no,no,B,1,what,L2,unsyncopated,s2,r2,126,Online_whatL2//d.si.ñu10.1554.222.wav,to,ñu,cha,sil2,fe,me,si,sil,ra,te,sil1,['miss'],,,0.222,no_beat,,,,ñu,4,,,,,,,,,,,,,,,3.0,2.0,català,0.0,castellano,0.0,ingles,6.0,5.0,4.0,yes,no,no,guitarra,20,,,"nada, todo muy bien",66.0,yes
127,2023-08-07_10h42.03.739,Unsyncopated1,s17,27.0,masculino,right,españa,catalan y castellano,Master degree,no,no,B,1,what,L2,unsyncopated,s1,r1,127,Online_whatL2//d.si.ñu8.none.none.wav,go,ba,to,sil2,du,mi,su,sil,te,cha,sil1,['-'],,,none,none,,,,ñu,4,,,,,,,,,,,,,,,3.0,2.0,català,0.0,castellano,0.0,ingles,6.0,5.0,4.0,yes,no,no,guitarra,20,,,"nada, todo muy bien",66.0,yes
128,2023-08-07_10h42.03.739,Unsyncopated1,s17,27.0,masculino,right,españa,catalan y castellano,Master degree,no,no,B,2,when,L3,unsyncopated,when,when,0,Online_whenL3//c.gu5.0.wav,gu,ko,ji,sil,sa,ñe,le,sil1,fu,di,sil2,['catch'],[0.8717000000476673],[0.8717000000476673],0.0,beat,0.8717000000476673,0.8717000000476673,"[""space""]",gu,3,,,,,,,,,,,,,,,3.0,2.0,català,0.0,castellano,0.0,ingles,6.0,5.0,4.0,yes,no,no,guitarra,20,,,"nada, todo muy bien",66.0,yes
129,2023-08-07_10h42.03.739,Unsyncopated1,s17,27.0,masculino,right,españa,catalan y castellano,Master degree,no,no,B,2,when,L3,unsyncopated,when,when,1,Online_whenL3//c.gu6.none.wav,do,je,mo,sil,fu,ko,sa,sil1,ka,di,sil2,['-'],,,none,none,,,,gu,3,,,,,,,,,,,,,,,3.0,2.0,català,0.0,castellano,0.0,ingles,6.0,5.0,4.0,yes,no,no,guitarra,20,,,"nada, todo muy bien",66.0,yes
130,2023-08-07_10h42.03.739,Unsyncopated1,s17,27.0,masculino,right,españa,catalan y castellano,Master degree,no,no,B,2,when,L3,unsyncopated,when,when,2,Online_whenL3//c.gu4.none.wav,do,ka,ko,sil,fu,chu,mo,sil1,le,ji,sil2,['-'],,,none,none,,,,gu,3,,,,,,,,,,,,,,,3.0,2.0,català,0.0,castellano,0.0,ingles,6.0,5.0,4.0,yes,no,no,guitarra,20,,,"nada, todo muy bien",66.0,yes
131,2023-08-07_10h42.03.739,Unsyncopated1,s17,27.0,masculino,right,españa,catalan y castellano,Master degree,no,no,B,2,when,L3,unsyncopated,when,when,3,Online_whenL3//c.gu7.1776.wav,sa,ga,di,sil,mo,ka,ko,sil1,gu,le,sil2,['catch'],[2.3144999999999527],[2.3144999999999527],1.776,beat,0.5384999999999527,0.5384999999999527,"[""space""]",gu,3,,,,,,,,,,,,,,,3.0,2.0,català,0.0,castellano,0.0,ingles,6.0,5.0,4.0,yes,no,no,guitarra,20,,,"nada, todo muy bien",66.0,yes
132,2023-08-07_10h42.03.739,Unsyncopated1,s17,27.0,masculino,right,españa,catalan y castellano,Master degree,no,no,B,2,when,L3,unsyncopated,when,when,4,Online_whenL3//b.ñe11.none.wav,ka,ji,li,sil,ko,ga,sa,sil1,mo,di,sil2,['-'],,,none,none,,,,ñe,2,,,,,,,,,,,,,,,3.0,2.0,català,0.0,castellano,0.0,ingles,6.0,5.0,4.0,yes,no,no,guitarra,20,,,"nada, todo muy bien",66.0,yes
133,2023-08-07_10h42.03.739,Unsyncopated1,s17,27.0,masculino,right,españa,catalan y castellano,Master degree,no,no,B,2,when,L3,unsyncopated,when,when,5,Online_whenL3//b.ñe9.1110.wav,fu,do,ka,sil,li,ñe,chu,sil1,ko,ji,sil2,['catch'],[1.865500000000111],[1.865500000000111],1.11,no_beat,0.7555000000001109,0.7555000000001109,"[""space""]",ñe,2,,,,,,,,,,,,,,,3.0,2.0,català,0.0,castellano,0.0,ingles,6.0,5.0,4.0,yes,no,no,guitarra,20,,,"nada, todo muy bien",66.0,yes
134,2023-08-07_10h42.03.739,Unsyncopated1,s17,27.0,masculino,right,españa,catalan y castellano,Master degree,no,no,B,2,when,L3,unsyncopated,when,when,6,Online_whenL3//b.ñe10.none.wav,ga,fu,le,sil,chu,ko,ka,sil1,mo,je,sil2,['-'],,,none,none,,,,ñe,2,,,,,,,,,,,,,,,3.0,2.0,català,0.0,castellano,0.0,ingles,6.0,5.0,4.0,yes,no,no,guitarra,20,,,"nada, todo muy bien",66.0,yes
135,2023-08-07_10h42.03.739,Unsyncopated1,s17,27.0,masculino,right,españa,catalan y castellano,Master degree,no,no,B,2,when,L3,unsyncopated,when,when,7,Online_whenL3//b.ñe8.none.wav,le,do,ko,sil,gu,mo,fu,sil1,ji,sa,sil2,['-'],,,none,none,,,,ñe,2,,,,,,,,,,,,,,,3.0,2.0,català,0.0,castellano,0.0,ingles,6.0,5.0,4.0,yes,no,no,guitarra,20,,,"nada, todo muy bien",66.0,yes
136,2023-08-07_10h42.03.739,Unsyncopated1,s17,27.0,masculino,right,españa,catalan y castellano,Master degree,no,no,B,2,when,L3,unsyncopated,when,when,8,Online_whenL3//a.mo18.888.wav,je,do,fu,sil,mo,sa,ga,sil1,di,le,sil2,['catch'],[1.3560999999046999],[1.3560999999046999],0.888,beat,0.4680999999046998,0.4680999999046998,"[""space""]",mo,1,,,,,,,,,,,,,,,3.0,2.0,català,0.0,castellano,0.0,ingles,6.0,5.0,4.0,yes,no,no,guitarra,20,,,"nada, todo muy bien",66.0,yes
137,2023-08-07_10h42.03.739,Unsyncopated1,s17,27.0,masculino,right,españa,catalan y castellano,Master degree,no,no,B,2,when,L3,unsyncopated,when,when,9,Online_whenL3//a.mo16.1998.wav,li,je,gu,sil,ka,chu,le,sil1,ji,mo,sil2,['catch'],[2.4667000000476946],[2.4667000000476946],1.998,no_beat,0.4687000000476946,0.4687000000476946,"[""space""]",mo,1,,,,,,,,,,,,,,,3.0,2.0,català,0.0,castellano,0.0,ingles,6.0,5.0,4.0,yes,no,no,guitarra,20,,,"nada, todo muy bien",66.0,yes
138,2023-08-07_10h42.03.739,Unsyncopated1,s17,27.0,masculino,right,españa,catalan y castellano,Master degree,no,no,B,2,when,L3,unsyncopated,when,when,10,Online_whenL3//a.mo19.none.wav,fu,ka,ko,sil,chu,sa,do,sil1,li,le,sil2,['-'],,,none,none,,,,mo,1,,,,,,,,,,,,,,,3.0,2.0,català,0.0,castellano,0.0,ingles,6.0,5.0,4.0,yes,no,no,guitarra,20,,,"nada, todo muy bien",66.0,yes
139,2023-08-07_10h42.03.739,Unsyncopated1,s17,27.0,masculino,right,españa,catalan y castellano,Master degree,no,no,B,2,when,L3,unsyncopated,when,when,11,Online_whenL3//a.mo17.none.wav,ji,ko,sa,sil,di,ka,do,sil1,chu,ga,sil2,['-'],,,none,none,,,,mo,1,,,,,,,,,,,,,,,3.0,2.0,català,0.0,castellano,0.0,ingles,6.0,5.0,4.0,yes,no,no,guitarra,20,,,"nada, todo muy bien",66.0,yes
140,2023-08-07_10h42.03.739,Unsyncopated1,s17,27.0,masculino,right,españa,catalan y castellano,Master degree,no,no,B,2,when,L3,unsyncopated,when,when,12,Online_whenL3//d.ji9.1776.wav,chu,ñe,li,sil,ga,di,gu,sil1,ji,fu,sil2,['catch'],[2.392800000190846],[2.392800000190846],1.776,beat,0.6168000001908458,0.6168000001908458,"[""space""]",ji,4,,,,,,,,,,,,,,,3.0,2.0,català,0.0,castellano,0.0,ingles,6.0,5.0,4.0,yes,no,no,guitarra,20,,,"nada, todo muy bien",66.0,yes
141,2023-08-07_10h42.03.739,Unsyncopated1,s17,27.0,masculino,right,españa,catalan y castellano,Master degree,no,no,B,2,when,L3,unsyncopated,when,when,13,Online_whenL3//d.ji10.444.wav,do,ga,ji,sil,di,sa,chu,sil1,ka,ko,sil2,['catch'],[1.2799999999999727],[1.2799999999999727],0.444,no_beat,0.8359999999999728,0.8359999999999728,"[""space""]",ji,4,,,,,,,,,,,,,,,3.0,2.0,català,0.0,castellano,0.0,ingles,6.0,5.0,4.0,yes,no,no,guitarra,20,,,"nada, todo muy bien",66.0,yes
142,2023-08-07_10h42.03.739,Unsyncopated1,s17,27.0,masculino,right,españa,catalan y castellano,Master degree,no,no,B,2,when,L3,unsyncopated,when,when,14,Online_whenL3//d.ji11.none.wav,ñe,je,fu,sil,mo,ka,li,sil1,ko,gu,sil2,['-'],,,none,none,,,,ji,4,,,,,,,,,,,,,,,3.0,2.0,català,0.0,castellano,0.0,ingles,6.0,5.0,4.0,yes,no,no,guitarra,20,,,"nada, todo muy bien",66.0,yes
143,2023-08-07_10h42.03.739,Unsyncopated1,s17,27.0,masculino,right,españa,catalan y castellano,Master degree,no,no,B,2,when,L3,unsyncopated,when,when,15,Online_whenL3//d.ji8.none.wav,je,ko,ñe,sil,chu,ga,do,sil1,li,gu,sil2,['-'],,,none,none,,,,ji,4,,,,,,,,,,,,,,,3.0,2.0,català,0.0,castellano,0.0,ingles,6.0,5.0,4.0,yes,no,no,guitarra,20,,,"nada, todo muy bien",66.0,yes
144,2023-08-07_10h42.03.739,Unsyncopated1,s17,27.0,masculino,right,españa,catalan y castellano,Master degree,no,no,B,2,when,L3,unsyncopated,when,when,16,Online_whenL3//b.ñe18.none.wav,sa,di,chu,sil,do,fu,ko,sil1,gu,ji,sil2,['-'],,,none,none,,,,ñe,2,,,,,,,,,,,,,,,3.0,2.0,català,0.0,castellano,0.0,ingles,6.0,5.0,4.0,yes,no,no,guitarra,20,,,"nada, todo muy bien",66.0,yes
145,2023-08-07_10h42.03.739,Unsyncopated1,s17,27.0,masculino,right,españa,catalan y castellano,Master degree,no,no,B,2,when,L3,unsyncopated,when,when,17,Online_whenL3//b.ñe19.1776.wav,ji,mo,li,sil,le,ko,fu,sil1,ñe,do,sil2,['catch'],[2.297400000095422],[2.297400000095422],1.776,beat,0.521400000095422,0.521400000095422,"[""space""]",ñe,2,,,,,,,,,,,,,,,3.0,2.0,català,0.0,castellano,0.0,ingles,6.0,5.0,4.0,yes,no,no,guitarra,20,,,"nada, todo muy bien",66.0,yes
146,2023-08-07_10h42.03.739,Unsyncopated1,s17,27.0,masculino,right,españa,catalan y castellano,Master degree,no,no,B,2,when,L3,unsyncopated,when,when,18,Online_whenL3//b.ñe17.1998.wav,fu,ga,ka,sil,ji,chu,di,sil1,je,ñe,sil2,['catch'],[2.547400000095422],[2.547400000095422],1.998,no_beat,0.549400000095422,0.549400000095422,"[""space""]",ñe,2,,,,,,,,,,,,,,,3.0,2.0,català,0.0,castellano,0.0,ingles,6.0,5.0,4.0,yes,no,no,guitarra,20,,,"nada, todo muy bien",66.0,yes
147,2023-08-07_10h42.03.739,Unsyncopated1,s17,27.0,masculino,right,españa,catalan y castellano,Master degree,no,no,B,2,when,L3,unsyncopated,when,when,19,Online_whenL3//b.ñe16.1110.wav,do,je,li,sil,gu,ñe,sa,sil1,ji,ko,sil2,['miss'],,,1.11,no_beat,,,,ñe,2,,,,,,,,,,,,,,,3.0,2.0,català,0.0,castellano,0.0,ingles,6.0,5.0,4.0,yes,no,no,guitarra,20,,,"nada, todo muy bien",66.0,yes
148,2023-08-07_10h42.03.739,Unsyncopated1,s17,27.0,masculino,right,españa,catalan y castellano,Master degree,no,no,B,2,when,L3,unsyncopated,when,when,20,Online_whenL3//c.gu29.1110.wav,mo,je,ko,sil,ñe,gu,ka,sil1,li,ga,sil2,['catch'],[1.8429000000953693],[1.8429000000953693],1.11,no_beat,0.7329000000953692,0.7329000000953692,"[""space""]",gu,3,,,,,,,,,,,,,,,3.0,2.0,català,0.0,castellano,0.0,ingles,6.0,5.0,4.0,yes,no,no,guitarra,20,,,"nada, todo muy bien",66.0,yes
149,2023-08-07_10h42.03.739,Unsyncopated1,s17,27.0,masculino,right,españa,catalan y castellano,Master degree,no,no,B,2,when,L3,unsyncopated,when,when,21,Online_whenL3//c.gu31.none.wav,ka,ñe,sa,sil,li,do,le,sil1,ji,ko,sil2,['-'],,,none,none,,,,gu,3,,,,,,,,,,,,,,,3.0,2.0,català,0.0,castellano,0.0,ingles,6.0,5.0,4.0,yes,no,no,guitarra,20,,,"nada, todo muy bien",66.0,yes
150,2023-08-07_10h42.03.739,Unsyncopated1,s17,27.0,masculino,right,españa,catalan y castellano,Master degree,no,no,B,2,when,L3,unsyncopated,when,when,22,Online_whenL3//c.gu30.0.wav,gu,ka,ga,sil,mo,li,le,sil1,di,sa,sil2,['catch'],[0.6088999998569307],[0.6088999998569307],0.0,beat,0.6088999998569307,0.6088999998569307,"[""space""]",gu,3,,,,,,,,,,,,,,,3.0,2.0,català,0.0,castellano,0.0,ingles,6.0,5.0,4.0,yes,no,no,guitarra,20,,,"nada, todo muy bien",66.0,yes
151,2023-08-07_10h42.03.739,Unsyncopated1,s17,27.0,masculino,right,españa,catalan y castellano,Master degree,no,no,B,2,when,L3,unsyncopated,when,when,23,Online_whenL3//c.gu28.none.wav,chu,di,ko,sil,sa,le,ji,sil1,li,ka,sil2,['-'],,,none,none,,,,gu,3,,,,,,,,,,,,,,,3.0,2.0,català,0.0,castellano,0.0,ingles,6.0,5.0,4.0,yes,no,no,guitarra,20,,,"nada, todo muy bien",66.0,yes
152,2023-08-07_10h42.03.739,Unsyncopated1,s17,27.0,masculino,right,españa,catalan y castellano,Master degree,no,no,B,2,when,L3,unsyncopated,when,when,24,Online_whenL3//c.gu21.none.wav,je,ñe,do,sil,sa,ko,ji,sil1,di,li,sil2,['-'],,,none,none,,,,gu,3,,,,,,,,,,,,,,,3.0,2.0,català,0.0,castellano,0.0,ingles,6.0,5.0,4.0,yes,no,no,guitarra,20,,,"nada, todo muy bien",66.0,yes
153,2023-08-07_10h42.03.739,Unsyncopated1,s17,27.0,masculino,right,españa,catalan y castellano,Master degree,no,no,B,2,when,L3,unsyncopated,when,when,25,Online_whenL3//c.gu20.none.wav,fu,li,di,sil,ko,chu,ga,sil1,do,ñe,sil2,['-'],,,none,none,,,,gu,3,,,,,,,,,,,,,,,3.0,2.0,català,0.0,castellano,0.0,ingles,6.0,5.0,4.0,yes,no,no,guitarra,20,,,"nada, todo muy bien",66.0,yes
154,2023-08-07_10h42.03.739,Unsyncopated1,s17,27.0,masculino,right,españa,catalan y castellano,Master degree,no,no,B,2,when,L3,unsyncopated,when,when,26,Online_whenL3//c.gu23.none.wav,ji,fu,di,sil,ñe,je,li,sil1,do,mo,sil2,['-'],,,none,none,,,,gu,3,,,,,,,,,,,,,,,3.0,2.0,català,0.0,castellano,0.0,ingles,6.0,5.0,4.0,yes,no,no,guitarra,20,,,"nada, todo muy bien",66.0,yes
155,2023-08-07_10h42.03.739,Unsyncopated1,s17,27.0,masculino,right,españa,catalan y castellano,Master degree,no,no,B,2,when,L3,unsyncopated,when,when,27,Online_whenL3//c.gu22.1998.wav,do,chu,le,sil,ga,li,ji,sil1,mo,gu,sil2,['catch'],[2.6106999998094125],[2.6106999998094125],1.998,no_beat,0.6126999998094125,0.6126999998094125,"[""space""]",gu,3,,,,,,,,,,,,,,,3.0,2.0,català,0.0,castellano,0.0,ingles,6.0,5.0,4.0,yes,no,no,guitarra,20,,,"nada, todo muy bien",66.0,yes
156,2023-08-07_10h42.03.739,Unsyncopated1,s17,27.0,masculino,right,españa,catalan y castellano,Master degree,no,no,B,2,when,L3,unsyncopated,when,when,28,Online_whenL3//d.ji16.none.wav,ka,je,di,sil,sa,fu,chu,sil1,do,li,sil2,['-'],,,none,none,,,,ji,4,,,,,,,,,,,,,,,3.0,2.0,català,0.0,castellano,0.0,ingles,6.0,5.0,4.0,yes,no,no,guitarra,20,,,"nada, todo muy bien",66.0,yes
157,2023-08-07_10h42.03.739,Unsyncopated1,s17,27.0,masculino,right,españa,catalan y castellano,Master degree,no,no,B,2,when,L3,unsyncopated,when,when,29,Online_whenL3//d.ji19.1776.wav,gu,ñe,chu,sil,li,di,le,sil1,ji,fu,sil2,['catch'],[2.2590000000000146],[2.2590000000000146],1.776,beat,0.4830000000000145,0.4830000000000145,"[""space""]",ji,4,,,,,,,,,,,,,,,3.0,2.0,català,0.0,castellano,0.0,ingles,6.0,5.0,4.0,yes,no,no,guitarra,20,,,"nada, todo muy bien",66.0,yes
158,2023-08-07_10h42.03.739,Unsyncopated1,s17,27.0,masculino,right,españa,catalan y castellano,Master degree,no,no,B,2,when,L3,unsyncopated,when,when,30,Online_whenL3//d.ji18.none.wav,gu,do,ko,sil,di,chu,mo,sil1,ga,le,sil2,['-'],,,none,none,,,,ji,4,,,,,,,,,,,,,,,3.0,2.0,català,0.0,castellano,0.0,ingles,6.0,5.0,4.0,yes,no,no,guitarra,20,,,"nada, todo muy bien",66.0,yes
159,2023-08-07_10h42.03.739,Unsyncopated1,s17,27.0,masculino,right,españa,catalan y castellano,Master degree,no,no,B,2,when,L3,unsyncopated,when,when,31,Online_whenL3//d.ji17.none.wav,ñe,ga,di,sil,sa,ka,li,sil1,le,fu,sil2,['-'],,,none,none,,,,ji,4,,,,,,,,,,,,,,,3.0,2.0,català,0.0,castellano,0.0,ingles,6.0,5.0,4.0,yes,no,no,guitarra,20,,,"nada, todo muy bien",66.0,yes
160,2023-08-07_10h42.03.739,Unsyncopated1,s17,27.0,masculino,right,españa,catalan y castellano,Master degree,no,no,B,2,when,L3,unsyncopated,when,when,32,Online_whenL3//c.gu3.1110.wav,li,mo,ko,sil,je,gu,chu,sil1,fu,ka,sil2,['catch'],[1.9018000001908604],[1.9018000001908604],1.11,no_beat,0.7918000001908603,0.7918000001908603,"[""space""]",gu,3,,,,,,,,,,,,,,,3.0,2.0,català,0.0,castellano,0.0,ingles,6.0,5.0,4.0,yes,no,no,guitarra,20,,,"nada, todo muy bien",66.0,yes
161,2023-08-07_10h42.03.739,Unsyncopated1,s17,27.0,masculino,right,españa,catalan y castellano,Master degree,no,no,B,2,when,L3,unsyncopated,when,when,33,Online_whenL3//c.gu1.none.wav,sa,ka,ñe,sil,je,di,ji,sil1,ko,le,sil2,['-'],,,none,none,,,,gu,3,,,,,,,,,,,,,,,3.0,2.0,català,0.0,castellano,0.0,ingles,6.0,5.0,4.0,yes,no,no,guitarra,20,,,"nada, todo muy bien",66.0,yes
162,2023-08-07_10h42.03.739,Unsyncopated1,s17,27.0,masculino,right,españa,catalan y castellano,Master degree,no,no,B,2,when,L3,unsyncopated,when,when,34,Online_whenL3//c.gu0.none.wav,ko,le,ka,sil,mo,di,fu,sil1,ñe,ji,sil2,['-'],,,none,none,,,,gu,3,,,,,,,,,,,,,,,3.0,2.0,català,0.0,castellano,0.0,ingles,6.0,5.0,4.0,yes,no,no,guitarra,20,,,"nada, todo muy bien",66.0,yes
163,2023-08-07_10h42.03.739,Unsyncopated1,s17,27.0,masculino,right,españa,catalan y castellano,Master degree,no,no,B,2,when,L3,unsyncopated,when,when,35,Online_whenL3//c.gu2.1998.wav,ji,ga,je,sil,le,ñe,di,sil1,sa,gu,sil2,['catch'],[2.498600000143142],[2.498600000143142],1.998,no_beat,0.5006000001431421,0.5006000001431421,"[""space""]",gu,3,,,,,,,,,,,,,,,3.0,2.0,català,0.0,castellano,0.0,ingles,6.0,5.0,4.0,yes,no,no,guitarra,20,,,"nada, todo muy bien",66.0,yes
164,2023-08-07_10h42.03.739,Unsyncopated1,s17,27.0,masculino,right,españa,catalan y castellano,Master degree,no,no,B,2,when,L3,unsyncopated,when,when,36,Online_whenL3//a.mo8.1776.wav,je,ga,ka,sil,le,li,ñe,sil1,mo,gu,sil2,['catch'],[2.1930999999044616],[2.1930999999044616],1.776,beat,0.4170999999044615,0.4170999999044615,"[""space""]",mo,1,,,,,,,,,,,,,,,3.0,2.0,català,0.0,castellano,0.0,ingles,6.0,5.0,4.0,yes,no,no,guitarra,20,,,"nada, todo muy bien",66.0,yes
165,2023-08-07_10h42.03.739,Unsyncopated1,s17,27.0,masculino,right,españa,catalan y castellano,Master degree,no,no,B,2,when,L3,unsyncopated,when,when,37,Online_whenL3//a.mo11.none.wav,chu,li,ñe,sil,je,fu,le,sil1,ko,di,sil2,['-'],,,none,none,,,,mo,1,,,,,,,,,,,,,,,3.0,2.0,català,0.0,castellano,0.0,ingles,6.0,5.0,4.0,yes,no,no,guitarra,20,,,"nada, todo muy bien",66.0,yes
166,2023-08-07_10h42.03.739,Unsyncopated1,s17,27.0,masculino,right,españa,catalan y castellano,Master degree,no,no,B,2,when,L3,unsyncopated,when,when,38,Online_whenL3//a.mo10.none.wav,di,ko,le,sil,chu,fu,ka,sil1,sa,ji,sil2,['-'],,,none,none,,,,mo,1,,,,,,,,,,,,,,,3.0,2.0,català,0.0,castellano,0.0,ingles,6.0,5.0,4.0,yes,no,no,guitarra,20,,,"nada, todo muy bien",66.0,yes
167,2023-08-07_10h42.03.739,Unsyncopated1,s17,27.0,masculino,right,españa,catalan y castellano,Master degree,no,no,B,2,when,L3,unsyncopated,when,when,39,Online_whenL3//a.mo9.1332.wav,fu,sa,do,sil,ji,gu,mo,sil1,ka,je,sil2,['catch'],[1.815900000095553],[1.815900000095553],1.332,no_beat,0.4839000000955529,0.4839000000955529,"[""space""]",mo,1,,,,,,,,,,,,,,,3.0,2.0,català,0.0,castellano,0.0,ingles,6.0,5.0,4.0,yes,no,no,guitarra,20,,,"nada, todo muy bien",66.0,yes
168,2023-08-07_10h42.03.739,Unsyncopated1,s17,27.0,masculino,right,españa,catalan y castellano,Master degree,no,no,B,2,when,L3,unsyncopated,when,when,40,Online_whenL3//a.mo22.none.wav,je,ga,ka,sil,ñe,chu,fu,sil1,li,ji,sil2,['-'],,,none,none,,,,mo,1,,,,,,,,,,,,,,,3.0,2.0,català,0.0,castellano,0.0,ingles,6.0,5.0,4.0,yes,no,no,guitarra,20,,,"nada, todo muy bien",66.0,yes
169,2023-08-07_10h42.03.739,Unsyncopated1,s17,27.0,masculino,right,españa,catalan y castellano,Master degree,no,no,B,2,when,L3,unsyncopated,when,when,41,Online_whenL3//a.mo21.none.wav,ñe,gu,chu,sil,di,ko,le,sil1,fu,li,sil2,['-'],,,none,none,,,,mo,1,,,,,,,,,,,,,,,3.0,2.0,català,0.0,castellano,0.0,ingles,6.0,5.0,4.0,yes,no,no,guitarra,20,,,"nada, todo muy bien",66.0,yes
170,2023-08-07_10h42.03.739,Unsyncopated1,s17,27.0,masculino,right,españa,catalan y castellano,Master degree,no,no,B,2,when,L3,unsyncopated,when,when,42,Online_whenL3//a.mo20.1776.wav,ga,fu,ko,sil,li,sa,je,sil1,mo,ka,sil2,['catch'],[2.147999999999911],[2.147999999999911],1.776,beat,0.3719999999999108,0.3719999999999108,"[""space""]",mo,1,,,,,,,,,,,,,,,3.0,2.0,català,0.0,castellano,0.0,ingles,6.0,5.0,4.0,yes,no,no,guitarra,20,,,"nada, todo muy bien",66.0,yes
171,2023-08-07_10h42.03.739,Unsyncopated1,s17,27.0,masculino,right,españa,catalan y castellano,Master degree,no,no,B,2,when,L3,unsyncopated,when,when,43,Online_whenL3//a.mo23.none.wav,ga,sa,je,sil,ko,fu,li,sil1,di,chu,sil2,['-'],,,none,none,,,,mo,1,,,,,,,,,,,,,,,3.0,2.0,català,0.0,castellano,0.0,ingles,6.0,5.0,4.0,yes,no,no,guitarra,20,,,"nada, todo muy bien",66.0,yes
172,2023-08-07_10h42.03.739,Unsyncopated1,s17,27.0,masculino,right,españa,catalan y castellano,Master degree,no,no,B,2,when,L3,unsyncopated,when,when,44,Online_whenL3//b.ñe3.none.wav,chu,ko,mo,sil,li,je,ji,sil1,fu,do,sil2,['-'],,,none,none,,,,ñe,2,,,,,,,,,,,,,,,3.0,2.0,català,0.0,castellano,0.0,ingles,6.0,5.0,4.0,yes,no,no,guitarra,20,,,"nada, todo muy bien",66.0,yes
173,2023-08-07_10h42.03.739,Unsyncopated1,s17,27.0,masculino,right,españa,catalan y castellano,Master degree,no,no,B,2,when,L3,unsyncopated,when,when,45,Online_whenL3//b.ñe0.222.wav,ka,ñe,gu,sil,ga,le,chu,sil1,fu,do,sil2,['catch'],[0.7817999999522272],[0.7817999999522272],0.222,no_beat,0.5597999999522272,0.5597999999522272,"[""space""]",ñe,2,,,,,,,,,,,,,,,3.0,2.0,català,0.0,castellano,0.0,ingles,6.0,5.0,4.0,yes,no,no,guitarra,20,,,"nada, todo muy bien",66.0,yes
174,2023-08-07_10h42.03.739,Unsyncopated1,s17,27.0,masculino,right,españa,catalan y castellano,Master degree,no,no,B,2,when,L3,unsyncopated,when,when,46,Online_whenL3//b.ñe2.888.wav,ji,li,do,sil,ñe,mo,ga,sil1,le,fu,sil2,['catch'],[1.3982000000476091],[1.3982000000476091],0.888,beat,0.5102000000476091,0.5102000000476091,"[""space""]",ñe,2,,,,,,,,,,,,,,,3.0,2.0,català,0.0,castellano,0.0,ingles,6.0,5.0,4.0,yes,no,no,guitarra,20,,,"nada, todo muy bien",66.0,yes
175,2023-08-07_10h42.03.739,Unsyncopated1,s17,27.0,masculino,right,españa,catalan y castellano,Master degree,no,no,B,2,when,L3,unsyncopated,when,when,47,Online_whenL3//b.ñe1.1998.wav,ka,ko,je,sil,ga,gu,di,sil1,sa,ñe,sil2,['catch'],[2.5825999999044598],[2.5825999999044598],1.998,no_beat,0.5845999999044598,0.5845999999044598,"[""space""]",ñe,2,,,,,,,,,,,,,,,3.0,2.0,català,0.0,castellano,0.0,ingles,6.0,5.0,4.0,yes,no,no,guitarra,20,,,"nada, todo muy bien",66.0,yes
176,2023-08-07_10h42.03.739,Unsyncopated1,s17,27.0,masculino,right,españa,catalan y castellano,Master degree,no,no,B,2,when,L3,unsyncopated,when,when,48,Online_whenL3//d.ji22.1332.wav,gu,di,mo,sil,fu,ñe,ji,sil1,ko,le,sil2,['catch'],[1.790100000143184],[1.790100000143184],1.332,no_beat,0.4581000001431838,0.4581000001431838,"[""space""]",ji,4,,,,,,,,,,,,,,,3.0,2.0,català,0.0,castellano,0.0,ingles,6.0,5.0,4.0,yes,no,no,guitarra,20,,,"nada, todo muy bien",66.0,yes
177,2023-08-07_10h42.03.739,Unsyncopated1,s17,27.0,masculino,right,españa,catalan y castellano,Master degree,no,no,B,2,when,L3,unsyncopated,when,when,49,Online_whenL3//d.ji23.none.wav,mo,ñe,je,sil,fu,ko,le,sil1,li,ka,sil2,['-'],,,none,none,,,,ji,4,,,,,,,,,,,,,,,3.0,2.0,català,0.0,castellano,0.0,ingles,6.0,5.0,4.0,yes,no,no,guitarra,20,,,"nada, todo muy bien",66.0,yes
178,2023-08-07_10h42.03.739,Unsyncopated1,s17,27.0,masculino,right,españa,catalan y castellano,Master degree,no,no,B,2,when,L3,unsyncopated,when,when,50,Online_whenL3//d.ji20.none.wav,mo,gu,chu,sil,do,je,fu,sil1,di,le,sil2,['-'],,,none,none,,,,ji,4,,,,,,,,,,,,,,,3.0,2.0,català,0.0,castellano,0.0,ingles,6.0,5.0,4.0,yes,no,no,guitarra,20,,,"nada, todo muy bien",66.0,yes
179,2023-08-07_10h42.03.739,Unsyncopated1,s17,27.0,masculino,right,españa,catalan y castellano,Master degree,no,no,B,2,when,L3,unsyncopated,when,when,51,Online_whenL3//d.ji21.888.wav,ko,li,ñe,sil,ji,ka,fu,sil1,ga,sa,sil2,['catch'],[1.348700000047529],[1.348700000047529],0.888,beat,0.4607000000475291,0.4607000000475291,"[""space""]",ji,4,,,,,,,,,,,,,,,3.0,2.0,català,0.0,castellano,0.0,ingles,6.0,5.0,4.0,yes,no,no,guitarra,20,,,"nada, todo muy bien",66.0,yes
180,2023-08-07_10h42.03.739,Unsyncopated1,s17,27.0,masculino,right,españa,catalan y castellano,Master degree,no,no,B,2,when,L3,unsyncopated,when,when,52,Online_whenL3//b.ñe26.none.wav,ko,mo,ji,sil,di,le,sa,sil1,fu,ka,sil2,['-'],,,none,none,,,,ñe,2,,,,,,,,,,,,,,,3.0,2.0,català,0.0,castellano,0.0,ingles,6.0,5.0,4.0,yes,no,no,guitarra,20,,,"nada, todo muy bien",66.0,yes
181,2023-08-07_10h42.03.739,Unsyncopated1,s17,27.0,masculino,right,españa,catalan y castellano,Master degree,no,no,B,2,when,L3,unsyncopated,when,when,53,Online_whenL3//b.ñe25.222.wav,je,ñe,ji,sil,ko,gu,fu,sil1,li,mo,sil2,['catch'],[0.731499999999869],[0.731499999999869],0.222,no_beat,0.5094999999998691,0.5094999999998691,"[""space""]",ñe,2,,,,,,,,,,,,,,,3.0,2.0,català,0.0,castellano,0.0,ingles,6.0,5.0,4.0,yes,no,no,guitarra,20,,,"nada, todo muy bien",66.0,yes
182,2023-08-07_10h42.03.739,Unsyncopated1,s17,27.0,masculino,right,españa,catalan y castellano,Master degree,no,no,B,2,when,L3,unsyncopated,when,when,54,Online_whenL3//b.ñe24.none.wav,sa,je,ga,sil,mo,fu,ji,sil1,di,gu,sil2,['-'],,,none,none,,,,ñe,2,,,,,,,,,,,,,,,3.0,2.0,català,0.0,castellano,0.0,ingles,6.0,5.0,4.0,yes,no,no,guitarra,20,,,"nada, todo muy bien",66.0,yes
183,2023-08-07_10h42.03.739,Unsyncopated1,s17,27.0,masculino,right,españa,catalan y castellano,Master degree,no,no,B,2,when,L3,unsyncopated,when,when,55,Online_whenL3//b.ñe27.none.wav,di,ko,do,sil,fu,chu,ji,sil1,ka,sa,sil2,['-'],,,none,none,,,,ñe,2,,,,,,,,,,,,,,,3.0,2.0,català,0.0,castellano,0.0,ingles,6.0,5.0,4.0,yes,no,no,guitarra,20,,,"nada, todo muy bien",66.0,yes
184,2023-08-07_10h42.03.739,Unsyncopated1,s17,27.0,masculino,right,españa,catalan y castellano,Master degree,no,no,B,2,when,L3,unsyncopated,when,when,56,Online_whenL3//c.gu18.444.wav,di,ko,gu,sil,chu,sa,ka,sil1,li,do,sil2,['catch'],[1.0099000000952856],[1.0099000000952856],0.444,no_beat,0.5659000000952856,0.5659000000952856,"[""space""]",gu,3,,,,,,,,,,,,,,,3.0,2.0,català,0.0,castellano,0.0,ingles,6.0,5.0,4.0,yes,no,no,guitarra,20,,,"nada, todo muy bien",66.0,yes
185,2023-08-07_10h42.03.739,Unsyncopated1,s17,27.0,masculino,right,españa,catalan y castellano,Master degree,no,no,B,2,when,L3,unsyncopated,when,when,57,Online_whenL3//c.gu17.none.wav,ga,ji,le,sil,sa,ka,chu,sil1,do,je,sil2,['-'],,,none,none,,,,gu,3,,,,,,,,,,,,,,,3.0,2.0,català,0.0,castellano,0.0,ingles,6.0,5.0,4.0,yes,no,no,guitarra,20,,,"nada, todo muy bien",66.0,yes
186,2023-08-07_10h42.03.739,Unsyncopated1,s17,27.0,masculino,right,españa,catalan y castellano,Master degree,no,no,B,2,when,L3,unsyncopated,when,when,58,Online_whenL3//c.gu16.1332.wav,do,ji,ñe,sil,ka,ga,gu,sil1,mo,di,sil2,['catch'],[1.8147999999523563],[1.8147999999523563],1.332,no_beat,0.4827999999523562,0.4827999999523562,"[""space""]",gu,3,,,,,,,,,,,,,,,3.0,2.0,català,0.0,castellano,0.0,ingles,6.0,5.0,4.0,yes,no,no,guitarra,20,,,"nada, todo muy bien",66.0,yes
187,2023-08-07_10h42.03.739,Unsyncopated1,s17,27.0,masculino,right,españa,catalan y castellano,Master degree,no,no,B,2,when,L3,unsyncopated,when,when,59,Online_whenL3//c.gu19.1998.wav,ka,sa,je,sil,chu,do,ji,sil1,le,gu,sil2,['catch'],[2.615799999952287],[2.615799999952287],1.998,no_beat,0.6177999999522872,0.6177999999522872,"[""space""]",gu,3,,,,,,,,,,,,,,,3.0,2.0,català,0.0,castellano,0.0,ingles,6.0,5.0,4.0,yes,no,no,guitarra,20,,,"nada, todo muy bien",66.0,yes
188,2023-08-07_10h42.03.739,Unsyncopated1,s17,27.0,masculino,right,españa,catalan y castellano,Master degree,no,no,B,2,when,L3,unsyncopated,when,when,60,Online_whenL3//d.ji0.1332.wav,je,ko,gu,sil,do,ñe,ji,sil1,mo,le,sil2,['catch'],[1.9047000000477965],[1.9047000000477965],1.332,no_beat,0.5727000000477964,0.5727000000477964,"[""space""]",ji,4,,,,,,,,,,,,,,,3.0,2.0,català,0.0,castellano,0.0,ingles,6.0,5.0,4.0,yes,no,no,guitarra,20,,,"nada, todo muy bien",66.0,yes
189,2023-08-07_10h42.03.739,Unsyncopated1,s17,27.0,masculino,right,españa,catalan y castellano,Master degree,no,no,B,2,when,L3,unsyncopated,when,when,61,Online_whenL3//d.ji2.none.wav,je,ko,sa,sil,le,do,ga,sil1,ñe,di,sil2,['-'],,,none,none,,,,ji,4,,,,,,,,,,,,,,,3.0,2.0,català,0.0,castellano,0.0,ingles,6.0,5.0,4.0,yes,no,no,guitarra,20,,,"nada, todo muy bien",66.0,yes
190,2023-08-07_10h42.03.739,Unsyncopated1,s17,27.0,masculino,right,españa,catalan y castellano,Master degree,no,no,B,2,when,L3,unsyncopated,when,when,62,Online_whenL3//d.ji3.none.wav,je,le,do,sil,sa,ka,ga,sil1,gu,mo,sil2,['-'],,,none,none,,,,ji,4,,,,,,,,,,,,,,,3.0,2.0,català,0.0,castellano,0.0,ingles,6.0,5.0,4.0,yes,no,no,guitarra,20,,,"nada, todo muy bien",66.0,yes
191,2023-08-07_10h42.03.739,Unsyncopated1,s17,27.0,masculino,right,españa,catalan y castellano,Master degree,no,no,B,2,when,L3,unsyncopated,when,when,63,Online_whenL3//d.ji1.888.wav,sa,je,le,sil,ji,ko,ñe,sil1,di,gu,sil2,['catch'],[1.3479999999999563],[1.3479999999999563],0.888,beat,0.4599999999999563,0.4599999999999563,"[""space""]",ji,4,,,,,,,,,,,,,,,3.0,2.0,català,0.0,castellano,0.0,ingles,6.0,5.0,4.0,yes,no,no,guitarra,20,,,"nada, todo muy bien",66.0,yes
192,2023-08-07_10h42.03.739,Unsyncopated1,s17,27.0,masculino,right,españa,catalan y castellano,Master degree,no,no,B,2,when,L3,unsyncopated,when,when,64,Online_whenL3//a.mo34.222.wav,do,mo,ga,sil,chu,ka,ji,sil1,di,ko,sil2,['miss'],,,0.222,no_beat,,,,mo,1,,,,,,,,,,,,,,,3.0,2.0,català,0.0,castellano,0.0,ingles,6.0,5.0,4.0,yes,no,no,guitarra,20,,,"nada, todo muy bien",66.0,yes
193,2023-08-07_10h42.03.739,Unsyncopated1,s17,27.0,masculino,right,españa,catalan y castellano,Master degree,no,no,B,2,when,L3,unsyncopated,when,when,65,Online_whenL3//a.mo32.none.wav,ji,gu,je,sil,ga,do,ñe,sil1,chu,le,sil2,['-'],,,none,none,,,,mo,1,,,,,,,,,,,,,,,3.0,2.0,català,0.0,castellano,0.0,ingles,6.0,5.0,4.0,yes,no,no,guitarra,20,,,"nada, todo muy bien",66.0,yes
194,2023-08-07_10h42.03.739,Unsyncopated1,s17,27.0,masculino,right,españa,catalan y castellano,Master degree,no,no,B,2,when,L3,unsyncopated,when,when,66,Online_whenL3//a.mo35.none.wav,ji,je,ka,sil,ga,fu,ñe,sil1,sa,li,sil2,['-'],,,none,none,,,,mo,1,,,,,,,,,,,,,,,3.0,2.0,català,0.0,castellano,0.0,ingles,6.0,5.0,4.0,yes,no,no,guitarra,20,,,"nada, todo muy bien",66.0,yes
195,2023-08-07_10h42.03.739,Unsyncopated1,s17,27.0,masculino,right,españa,catalan y castellano,Master degree,no,no,B,2,when,L3,unsyncopated,when,when,67,Online_whenL3//a.mo33.0.wav,mo,fu,di,sil,ga,do,le,sil1,ñe,ka,sil2,['catch'],[0.44879999995237085],[0.44879999995237085],0.0,beat,0.4487999999523708,0.4487999999523708,"[""space""]",mo,1,,,,,,,,,,,,,,,3.0,2.0,català,0.0,castellano,0.0,ingles,6.0,5.0,4.0,yes,no,no,guitarra,20,,,"nada, todo muy bien",66.0,yes
196,2023-08-07_10h42.03.739,Unsyncopated1,s17,27.0,masculino,right,españa,catalan y castellano,Master degree,no,no,B,2,when,L3,unsyncopated,when,when,68,Online_whenL3//b.ñe4.1998.wav,ka,di,ga,sil,ko,gu,je,sil1,mo,ñe,sil2,['catch_delay'],[0.7641000001429494],[0.7641000001429494],1.998,no_beat,0.7641000001429494,0.7641000001429494,,ñe,2,,,,,,,,,,,,,,,3.0,2.0,català,0.0,castellano,0.0,ingles,6.0,5.0,4.0,yes,no,no,guitarra,20,,,"nada, todo muy bien",66.0,yes
197,2023-08-07_10h42.03.739,Unsyncopated1,s17,27.0,masculino,right,españa,catalan y castellano,Master degree,no,no,B,2,when,L3,unsyncopated,when,when,69,Online_whenL3//b.ñe6.444.wav,ga,ka,ñe,sil,mo,ji,li,sil1,do,fu,sil2,['catch'],"[0.09810000014294928, 1.213400000095362]",[1.213400000095362],0.444,no_beat,0.769400000095362,0.769400000095362,"[""space"",""space""]",ñe,2,,,,,,,,,,,,,,,3.0,2.0,català,0.0,castellano,0.0,ingles,6.0,5.0,4.0,yes,no,no,guitarra,20,,,"nada, todo muy bien",66.0,yes
198,2023-08-07_10h42.03.739,Unsyncopated1,s17,27.0,masculino,right,españa,catalan y castellano,Master degree,no,no,B,2,when,L3,unsyncopated,when,when,70,Online_whenL3//b.ñe5.1110.wav,li,ko,je,sil,fu,ñe,gu,sil1,ga,sa,sil2,['catch'],[1.6148000001908258],[1.6148000001908258],1.11,no_beat,0.5048000001908257,0.5048000001908257,"[""space""]",ñe,2,,,,,,,,,,,,,,,3.0,2.0,català,0.0,castellano,0.0,ingles,6.0,5.0,4.0,yes,no,no,guitarra,20,,,"nada, todo muy bien",66.0,yes
199,2023-08-07_10h42.03.739,Unsyncopated1,s17,27.0,masculino,right,españa,catalan y castellano,Master degree,no,no,B,2,when,L3,unsyncopated,when,when,71,Online_whenL3//b.ñe7.1998.wav,ji,je,sa,sil,ka,ga,di,sil1,gu,ñe,sil2,['catch_delay'],[0.7051000001429804],[0.7051000001429804],1.998,no_beat,0.7051000001429804,0.7051000001429804,,ñe,2,,,,,,,,,,,,,,,3.0,2.0,català,0.0,castellano,0.0,ingles,6.0,5.0,4.0,yes,no,no,guitarra,20,,,"nada, todo muy bien",66.0,yes
200,2023-08-07_10h42.03.739,Unsyncopated1,s17,27.0,masculino,right,españa,catalan y castellano,Master degree,no,no,B,2,when,L3,unsyncopated,when,when,72,Online_whenL3//b.ñe15.none.wav,je,di,li,sil,ji,ko,sa,sil1,mo,ga,sil2,['-'],[0.03910000014298021],[0.03910000014298021],none,none,,,"[""space""]",ñe,2,,,,,,,,,,,,,,,3.0,2.0,català,0.0,castellano,0.0,ingles,6.0,5.0,4.0,yes,no,no,guitarra,20,,,"nada, todo muy bien",66.0,yes
201,2023-08-07_10h42.03.739,Unsyncopated1,s17,27.0,masculino,right,españa,catalan y castellano,Master degree,no,no,B,2,when,L3,unsyncopated,when,when,73,Online_whenL3//b.ñe14.1776.wav,do,je,ko,sil,fu,gu,chu,sil1,ñe,ka,sil2,['catch'],[2.1825000000001182],[2.1825000000001182],1.776,beat,0.4065000000001182,0.4065000000001182,"[""space""]",ñe,2,,,,,,,,,,,,,,,3.0,2.0,català,0.0,castellano,0.0,ingles,6.0,5.0,4.0,yes,no,no,guitarra,20,,,"nada, todo muy bien",66.0,yes
202,2023-08-07_10h42.03.739,Unsyncopated1,s17,27.0,masculino,right,españa,catalan y castellano,Master degree,no,no,B,2,when,L3,unsyncopated,when,when,74,Online_whenL3//b.ñe13.none.wav,chu,ka,le,sil,ko,je,mo,sil1,fu,di,sil2,['-'],,,none,none,,,,ñe,2,,,,,,,,,,,,,,,3.0,2.0,català,0.0,castellano,0.0,ingles,6.0,5.0,4.0,yes,no,no,guitarra,20,,,"nada, todo muy bien",66.0,yes
203,2023-08-07_10h42.03.739,Unsyncopated1,s17,27.0,masculino,right,españa,catalan y castellano,Master degree,no,no,B,2,when,L3,unsyncopated,when,when,75,Online_whenL3//b.ñe12.none.wav,ji,li,je,sil,mo,ka,chu,sil1,fu,ko,sil2,['-'],,,none,none,,,,ñe,2,,,,,,,,,,,,,,,3.0,2.0,català,0.0,castellano,0.0,ingles,6.0,5.0,4.0,yes,no,no,guitarra,20,,,"nada, todo muy bien",66.0,yes
204,2023-08-07_10h42.03.739,Unsyncopated1,s17,27.0,masculino,right,españa,catalan y castellano,Master degree,no,no,B,2,when,L3,unsyncopated,when,when,76,Online_whenL3//c.gu13.none.wav,ñe,ko,chu,sil,di,je,fu,sil1,do,le,sil2,['-'],,,none,none,,,,gu,3,,,,,,,,,,,,,,,3.0,2.0,català,0.0,castellano,0.0,ingles,6.0,5.0,4.0,yes,no,no,guitarra,20,,,"nada, todo muy bien",66.0,yes
205,2023-08-07_10h42.03.739,Unsyncopated1,s17,27.0,masculino,right,españa,catalan y castellano,Master degree,no,no,B,2,when,L3,unsyncopated,when,when,77,Online_whenL3//c.gu14.444.wav,ka,le,gu,sil,chu,mo,do,sil1,fu,ji,sil2,['catch'],[0.9121999998092178],[0.9121999998092178],0.444,no_beat,0.4681999998092178,0.4681999998092178,"[""space""]",gu,3,,,,,,,,,,,,,,,3.0,2.0,català,0.0,castellano,0.0,ingles,6.0,5.0,4.0,yes,no,no,guitarra,20,,,"nada, todo muy bien",66.0,yes
206,2023-08-07_10h42.03.739,Unsyncopated1,s17,27.0,masculino,right,españa,catalan y castellano,Master degree,no,no,B,2,when,L3,unsyncopated,when,when,78,Online_whenL3//c.gu15.none.wav,je,chu,li,sil,mo,ko,di,sil1,ji,do,sil2,['-'],,,none,none,,,,gu,3,,,,,,,,,,,,,,,3.0,2.0,català,0.0,castellano,0.0,ingles,6.0,5.0,4.0,yes,no,no,guitarra,20,,,"nada, todo muy bien",66.0,yes
207,2023-08-07_10h42.03.739,Unsyncopated1,s17,27.0,masculino,right,españa,catalan y castellano,Master degree,no,no,B,2,when,L3,unsyncopated,when,when,79,Online_whenL3//c.gu12.0.wav,gu,sa,ji,sil,je,ko,do,sil1,le,chu,sil2,['catch'],[0.45900000000006],[0.45900000000006],0.0,beat,0.45900000000006,0.45900000000006,"[""space""]",gu,3,,,,,,,,,,,,,,,3.0,2.0,català,0.0,castellano,0.0,ingles,6.0,5.0,4.0,yes,no,no,guitarra,20,,,"nada, todo muy bien",66.0,yes
208,2023-08-07_10h42.03.739,Unsyncopated1,s17,27.0,masculino,right,españa,catalan y castellano,Master degree,no,no,B,2,when,L3,unsyncopated,when,when,80,Online_whenL3//c.gu27.none.wav,li,je,ko,sil,ji,fu,mo,sil1,ñe,di,sil2,['-'],,,none,none,,,,gu,3,,,,,,,,,,,,,,,3.0,2.0,català,0.0,castellano,0.0,ingles,6.0,5.0,4.0,yes,no,no,guitarra,20,,,"nada, todo muy bien",66.0,yes
209,2023-08-07_10h42.03.739,Unsyncopated1,s17,27.0,masculino,right,españa,catalan y castellano,Master degree,no,no,B,2,when,L3,unsyncopated,when,when,81,Online_whenL3//c.gu25.222.wav,chu,gu,ko,sil,fu,ga,li,sil1,di,ñe,sil2,['catch'],[0.7239000000954547],[0.7239000000954547],0.222,no_beat,0.5019000000954548,0.5019000000954548,"[""space""]",gu,3,,,,,,,,,,,,,,,3.0,2.0,català,0.0,castellano,0.0,ingles,6.0,5.0,4.0,yes,no,no,guitarra,20,,,"nada, todo muy bien",66.0,yes
210,2023-08-07_10h42.03.739,Unsyncopated1,s17,27.0,masculino,right,españa,catalan y castellano,Master degree,no,no,B,2,when,L3,unsyncopated,when,when,82,Online_whenL3//c.gu26.none.wav,sa,ji,li,sil,le,di,ga,sil1,chu,fu,sil2,['-'],,,none,none,,,,gu,3,,,,,,,,,,,,,,,3.0,2.0,català,0.0,castellano,0.0,ingles,6.0,5.0,4.0,yes,no,no,guitarra,20,,,"nada, todo muy bien",66.0,yes
211,2023-08-07_10h42.03.739,Unsyncopated1,s17,27.0,masculino,right,españa,catalan y castellano,Master degree,no,no,B,2,when,L3,unsyncopated,when,when,83,Online_whenL3//c.gu24.1110.wav,ñe,ko,ji,sil,li,gu,le,sil1,chu,ga,sil2,['miss'],,,1.11,no_beat,,,,gu,3,,,,,,,,,,,,,,,3.0,2.0,català,0.0,castellano,0.0,ingles,6.0,5.0,4.0,yes,no,no,guitarra,20,,,"nada, todo muy bien",66.0,yes
212,2023-08-07_10h42.03.739,Unsyncopated1,s17,27.0,masculino,right,españa,catalan y castellano,Master degree,no,no,B,2,when,L3,unsyncopated,when,when,84,Online_whenL3//a.mo0.222.wav,do,mo,fu,sil,le,ji,gu,sil1,ka,ñe,sil2,['miss'],,,0.222,no_beat,,,,mo,1,,,,,,,,,,,,,,,3.0,2.0,català,0.0,castellano,0.0,ingles,6.0,5.0,4.0,yes,no,no,guitarra,20,,,"nada, todo muy bien",66.0,yes
213,2023-08-07_10h42.03.739,Unsyncopated1,s17,27.0,masculino,right,españa,catalan y castellano,Master degree,no,no,B,2,when,L3,unsyncopated,when,when,85,Online_whenL3//a.mo1.888.wav,do,ka,fu,sil,mo,ñe,le,sil1,ko,ji,sil2,['catch'],[1.38279999995234],[1.38279999995234],0.888,beat,0.4947999999523399,0.4947999999523399,"[""space""]",mo,1,,,,,,,,,,,,,,,3.0,2.0,català,0.0,castellano,0.0,ingles,6.0,5.0,4.0,yes,no,no,guitarra,20,,,"nada, todo muy bien",66.0,yes
214,2023-08-07_10h42.03.739,Unsyncopated1,s17,27.0,masculino,right,españa,catalan y castellano,Master degree,no,no,B,2,when,L3,unsyncopated,when,when,86,Online_whenL3//a.mo3.none.wav,chu,sa,gu,sil,ka,le,je,sil1,ga,di,sil2,['-'],,,none,none,,,,mo,1,,,,,,,,,,,,,,,3.0,2.0,català,0.0,castellano,0.0,ingles,6.0,5.0,4.0,yes,no,no,guitarra,20,,,"nada, todo muy bien",66.0,yes
215,2023-08-07_10h42.03.739,Unsyncopated1,s17,27.0,masculino,right,españa,catalan y castellano,Master degree,no,no,B,2,when,L3,unsyncopated,when,when,87,Online_whenL3//a.mo2.none.wav,ko,li,ji,sil,je,sa,ñe,sil1,gu,ka,sil2,['-'],,,none,none,,,,mo,1,,,,,,,,,,,,,,,3.0,2.0,català,0.0,castellano,0.0,ingles,6.0,5.0,4.0,yes,no,no,guitarra,20,,,"nada, todo muy bien",66.0,yes
216,2023-08-07_10h42.03.739,Unsyncopated1,s17,27.0,masculino,right,españa,catalan y castellano,Master degree,no,no,B,2,when,L3,unsyncopated,when,when,88,Online_whenL3//a.mo5.222.wav,ko,mo,ji,sil,le,di,ga,sil1,li,sa,sil2,['catch'],[0.7434000000955621],[0.7434000000955621],0.222,no_beat,0.5214000000955621,0.5214000000955621,"[""space""]",mo,1,,,,,,,,,,,,,,,3.0,2.0,català,0.0,castellano,0.0,ingles,6.0,5.0,4.0,yes,no,no,guitarra,20,,,"nada, todo muy bien",66.0,yes
217,2023-08-07_10h42.03.739,Unsyncopated1,s17,27.0,masculino,right,españa,catalan y castellano,Master degree,no,no,B,2,when,L3,unsyncopated,when,when,89,Online_whenL3//a.mo7.none.wav,di,ko,ñe,sil,fu,je,gu,sil1,sa,ji,sil2,['-'],,,none,none,,,,mo,1,,,,,,,,,,,,,,,3.0,2.0,català,0.0,castellano,0.0,ingles,6.0,5.0,4.0,yes,no,no,guitarra,20,,,"nada, todo muy bien",66.0,yes
