Unnamed: 0,date,expName,participant,age,sex,hand,residence,native_lang,education_level,lang_deficit,aud_deficit,group,block,condition,language,rhythm,rule structure online,rule type online,order_trial_on,trial_online,s1,s2,s3,s4,s5,s6,s7,s8,s9,s10,s11,catch_syll_resp,rts_syll_catch,clean_rts,time_syll,beat_no_beat,catch_rtsTR,catch_rts,syllable_catch.keys,cond_syll,syll_to_catch,test_offline,block_off,condition_off,rhythm_off,rule,rule_str_off,rule_norule,conds_offline,language_off,Partz_no_partm.keys,Partz_no_partm.rt,security_1_7.keys,accuracy,security_1_7.rt,n_lang,n_lang_used,lang_1,age_l1,lang_2,age_l2,lang_3,age_l3,lang_4,age_l4,ability_learn_l2,tendence_mix_lan,music_experience,muisc_use,partiture,instr_1,age_M1,preguntas_musica1,BMRQ_answer.response,final comment,BMRQ_Score,bilingual
0,2024-05-07_19h03.32.013,Unsyncopated_study2,s194,30.0,feminino,right,España,catalancastellano,Doctorate,no,no,B,1,conjunction_syn,L1,syncopated,s2,r2,0,Online_conjL1_syn//d.ne.ni22.1110.0.wav,ni,ze,lu,ta,sil,ne,cho,be,sil1,zu,sil2,['miss'],,,0.0,beat,,,,116:120,4,testConjL1Syn//r1.s1.1.wav,1.0,conjunction_syn,syncopated,a,s1,rule,rule,L1,z,0.6561,6.0,1.0,3.3036,4.0,3.0,catalan,0.0,castellano,0.0,inglés,5.0,aleman,15.0,5.0,6.0,no,no,no,nada,,1. Cuando comparto música con alguien siento una complicidad especial con aquella persona.,4.0,nada,72.0,yes
1,2024-05-07_19h03.32.013,Unsyncopated_study2,s194,30.0,feminino,right,España,catalancastellano,Doctorate,no,no,B,1,conjunction_syn,L1,syncopated,s2,r1,1,Online_conjL1_syn//d.ne.ni23.0.444.wav,ne,fo,ni,pu,sil,ri,fa,ki,sil1,lu,sil2,['miss'],,,0.444,no_beat,,,,116:120,4,testConjL1Syn//r1.s2.0.wav,1.0,conjunction_syn,syncopated,a,s2,rule,rule,L1,z,1.2162,4.0,1.0,3.0712,4.0,3.0,catalan,0.0,castellano,0.0,inglés,5.0,aleman,15.0,5.0,6.0,no,no,no,nada,,2. En mi tiempo libre apenas escucho música.,5.0,nada,72.0,yes
2,2024-05-07_19h03.32.013,Unsyncopated_study2,s194,30.0,feminino,right,España,catalancastellano,Doctorate,no,no,B,1,conjunction_syn,L1,syncopated,s2,r2,2,Online_conjL1_syn//d.ne.ni20.none.none.wav,ze,lu,ro,ta,sil,fa,ri,be,sil1,cho,sil2,['-'],,,none,none,,,,116:120,4,testConjL1Syn//dep_viol.r2.s2.0.wav,1.0,conjunction_syn,syncopated,b,s2,no_rule,dep,L1,z,1.8041,5.0,0.0,2.9835,4.0,3.0,catalan,0.0,castellano,0.0,inglés,5.0,aleman,15.0,5.0,6.0,no,no,no,nada,,3. Algunas canciones me ponen los pelos de punta,4.0,nada,72.0,yes
3,2024-05-07_19h03.32.013,Unsyncopated_study2,s194,30.0,feminino,right,España,catalancastellano,Doctorate,no,no,B,1,conjunction_syn,L1,syncopated,s1,r1,3,Online_conjL1_syn//d.ne.ni21.none.none.wav,pu,lu,fo,ki,sil,ze,cho,ro,sil1,zu,sil2,['-'],,,none,none,,,,116:120,4,testConjL1Syn//r2.s1.2.wav,1.0,conjunction_syn,syncopated,b,s1,rule,rule,L1,z,0.9205,5.0,1.0,1.9667,4.0,3.0,catalan,0.0,castellano,0.0,inglés,5.0,aleman,15.0,5.0,6.0,no,no,no,nada,,4. La música me hace compañía cuando estoy solo,3.0,nada,72.0,yes
4,2024-05-07_19h03.32.013,Unsyncopated_study2,s194,30.0,feminino,right,España,catalancastellano,Doctorate,no,no,B,1,conjunction_syn,L1,syncopated,s1,r2,4,Online_conjL1_syn//c.ro.fo23.1110.1332.wav,ta,ne,cho,be,sil,ro,fo,zu,sil1,ni,sil2,['catch'],[2.1621999999993022],[2.1621999999993022],1.332,no_beat,0.8301999999993022,0.8301999999993022,"[""space""]",84:88,3,testConjL1Syn//cat_viol.r2.s2.0.wav,1.0,conjunction_syn,syncopated,b,s2,no_rule,cat,L1,z,6.6929,3.0,0.0,2.4502,4.0,3.0,catalan,0.0,castellano,0.0,inglés,5.0,aleman,15.0,5.0,6.0,no,no,no,nada,,5. No me apetece bailar ni con la música que más me gusta,5.0,nada,72.0,yes
5,2024-05-07_19h03.32.013,Unsyncopated_study2,s194,30.0,feminino,right,España,catalancastellano,Doctorate,no,no,B,1,conjunction_syn,L1,syncopated,s2,r1,5,Online_conjL1_syn//c.ro.fo20.none.none.wav,lu,ne,la,pu,sil,zu,cho,ki,sil1,ni,sil2,['-'],,,none,none,,,,84:88,3,testConjL1Syn//r2.s2.2.wav,1.0,conjunction_syn,syncopated,b,s2,rule,rule,L1,z,1.618,5.0,1.0,2.2781,4.0,3.0,catalan,0.0,castellano,0.0,inglés,5.0,aleman,15.0,5.0,6.0,no,no,no,nada,,6. La música me hace conectar con la gente,4.0,nada,72.0,yes
6,2024-05-07_19h03.32.013,Unsyncopated_study2,s194,30.0,feminino,right,España,catalancastellano,Doctorate,no,no,B,1,conjunction_syn,L1,syncopated,s2,r2,6,Online_conjL1_syn//c.ro.fo21.none.none.wav,ze,zu,la,ta,sil,ne,cho,be,sil1,ni,sil2,['-'],,,none,none,,,,84:88,3,testConjL1Syn//r2.s2.1.wav,1.0,conjunction_syn,syncopated,b,s2,rule,rule,L1,z,2.1863,5.0,1.0,1.3534,4.0,3.0,catalan,0.0,castellano,0.0,inglés,5.0,aleman,15.0,5.0,6.0,no,no,no,nada,,7. Me informo sobre la música que me gusta.,3.0,nada,72.0,yes
7,2024-05-07_19h03.32.013,Unsyncopated_study2,s194,30.0,feminino,right,España,catalancastellano,Doctorate,no,no,B,1,conjunction_syn,L1,syncopated,s1,r1,7,Online_conjL1_syn//c.ro.fo22.none.none.wav,pu,fa,cho,ki,sil,ne,la,ni,sil1,ze,sil2,['-'],,,none,none,,,,84:88,3,testConjL1Syn//cat_viol.r1.s2.0.wav,1.0,conjunction_syn,syncopated,a,s2,no_rule,cat,L1,m,1.6179,3.0,1.0,4.1113,4.0,3.0,catalan,0.0,castellano,0.0,inglés,5.0,aleman,15.0,5.0,6.0,no,no,no,nada,,8.Me emociono escuchando ciertas canciones.,4.0,nada,72.0,yes
8,2024-05-07_19h03.32.013,Unsyncopated_study2,s194,30.0,feminino,right,España,catalancastellano,Doctorate,no,no,B,1,conjunction_syn,L1,syncopated,s2,r2,8,Online_conjL1_syn//a.pu.ki22.none.none.wav,fo,ri,ni,ta,sil,lu,la,be,sil1,cho,sil2,['-'],,,none,none,,,,20:24,1,testConjL1Syn//time_viol.r2.s1.0.wav,1.0,conjunction_syn,syncopated,b,s1,no_rule,time,L1,m,3.5589,3.0,1.0,1.3684,4.0,3.0,catalan,0.0,castellano,0.0,inglés,5.0,aleman,15.0,5.0,6.0,no,no,no,nada,,9.La música me tranquiliza y me relaja.,4.0,nada,72.0,yes
9,2024-05-07_19h03.32.013,Unsyncopated_study2,s194,30.0,feminino,right,España,catalancastellano,Doctorate,no,no,B,1,conjunction_syn,L1,syncopated,s2,r1,9,Online_conjL1_syn//a.pu.ki20.666.1554.wav,ro,lu,ni,pu,sil,la,fo,ki,sil1,cho,sil2,['miss'],,,0.666,no_beat,,,,20:24,1,testConjL1Syn//r2.s2.0.wav,1.0,conjunction_syn,syncopated,b,s2,rule,rule,L1,z,1.2832,5.0,1.0,1.3001,4.0,3.0,catalan,0.0,castellano,0.0,inglés,5.0,aleman,15.0,5.0,6.0,no,no,no,nada,,10.La música me hace bailar,4.0,nada,72.0,yes
10,2024-05-07_19h03.32.013,Unsyncopated_study2,s194,30.0,feminino,right,España,catalancastellano,Doctorate,no,no,B,1,conjunction_syn,L1,syncopated,s2,r1,10,Online_conjL1_syn//a.pu.ki23.666.1554.wav,ni,la,ro,pu,sil,fo,zu,ki,sil1,ze,sil2,['miss'],,,0.666,no_beat,,,,20:24,1,testConjL1Syn//r1.s2.2.wav,1.0,conjunction_syn,syncopated,a,s2,rule,rule,L1,m,1.2943,4.0,0.0,1.8678,4.0,3.0,catalan,0.0,castellano,0.0,inglés,5.0,aleman,15.0,5.0,6.0,no,no,no,nada,,11.Busco novedades musicales continuamente,3.0,nada,72.0,yes
11,2024-05-07_19h03.32.013,Unsyncopated_study2,s194,30.0,feminino,right,España,catalancastellano,Doctorate,no,no,B,1,conjunction_syn,L1,syncopated,s2,r2,11,Online_conjL1_syn//a.pu.ki21.none.none.wav,ro,fa,ni,ta,sil,ri,la,be,sil1,lu,sil2,['-'],,,none,none,,,,20:24,1,testConjL1Syn//dep_viol.r1.s2.0.wav,1.0,conjunction_syn,syncopated,a,s2,no_rule,dep,L1,m,2.4942,4.0,1.0,2.1606,4.0,3.0,catalan,0.0,castellano,0.0,inglés,5.0,aleman,15.0,5.0,6.0,no,no,no,nada,,12. Puedo llorar cuando escucho algunas melodías que me gustan mucho.,2.0,nada,72.0,yes
12,2024-05-07_19h03.32.013,Unsyncopated_study2,s194,30.0,feminino,right,España,catalancastellano,Doctorate,no,no,B,1,conjunction_syn,L1,syncopated,s2,r1,12,Online_conjL1_syn//b.ta.be15.none.none.wav,la,ni,lu,pu,sil,ri,cho,ki,sil1,fa,sil2,['-'],,,none,none,,,,44:48,2,testConjL1Syn//cat_viol.r2.s1.0.wav,1.0,conjunction_syn,syncopated,b,s1,no_rule,cat,L1,z,1.4327,6.0,0.0,1.3768,4.0,3.0,catalan,0.0,castellano,0.0,inglés,5.0,aleman,15.0,5.0,6.0,no,no,no,nada,,13. Me gusta cantar o tocar un instrumento con más gente,3.0,nada,72.0,yes
13,2024-05-07_19h03.32.013,Unsyncopated_study2,s194,30.0,feminino,right,España,catalancastellano,Doctorate,no,no,B,1,conjunction_syn,L1,syncopated,s1,r1,13,Online_conjL1_syn//b.ta.be12.none.none.wav,pu,ro,lu,ki,sil,ri,fa,ni,sil1,cho,sil2,['-'],,,none,none,,,,44:48,2,testConjL1Syn//r1.s2.1.wav,1.0,conjunction_syn,syncopated,a,s2,rule,rule,L1,m,3.0516,3.0,0.0,1.1678,4.0,3.0,catalan,0.0,castellano,0.0,inglés,5.0,aleman,15.0,5.0,6.0,no,no,no,nada,,14. La música me ayuda a desconectar.,3.0,nada,72.0,yes
14,2024-05-07_19h03.32.013,Unsyncopated_study2,s194,30.0,feminino,right,España,catalancastellano,Doctorate,no,no,B,1,conjunction_syn,L1,syncopated,s1,r2,14,Online_conjL1_syn//b.ta.be13.0.666.wav,ta,ni,fo,be,sil,ze,ne,fa,sil1,ri,sil2,['catch'],[1.303800000000706],[1.303800000000706],0.666,no_beat,0.6378000000007059,0.6378000000007059,"[""space""]",44:48,2,testConjL1Syn//dep_viol.r2.s1.0.wav,1.0,conjunction_syn,syncopated,b,s1,no_rule,dep,L1,m,1.6708,3.0,1.0,0.7848,4.0,3.0,catalan,0.0,castellano,0.0,inglés,5.0,aleman,15.0,5.0,6.0,no,no,no,nada,,15. No puedo evitar tararear las canciones que me gustan cuando las escucho.,4.0,nada,72.0,yes
15,2024-05-07_19h03.32.013,Unsyncopated_study2,s194,30.0,feminino,right,España,catalancastellano,Doctorate,no,no,B,1,conjunction_syn,L1,syncopated,s1,r2,15,Online_conjL1_syn//b.ta.be14.0.666.wav,ta,la,fa,be,sil,ni,fo,ro,sil1,lu,sil2,['catch'],[1.3401999999991858],[1.3401999999991858],0.666,no_beat,0.6741999999991858,0.6741999999991858,"[""space""]",44:48,2,testConjL1Syn//cat_viol.r1.s1.0.wav,1.0,conjunction_syn,syncopated,a,s1,no_rule,cat,L1,m,2.1831,3.0,1.0,1.1173,4.0,3.0,catalan,0.0,castellano,0.0,inglés,5.0,aleman,15.0,5.0,6.0,no,no,no,nada,,16. En los conciertos me siento en sintonía con los artistas y el público.,4.0,nada,72.0,yes
16,2024-05-07_19h03.32.013,Unsyncopated_study2,s194,30.0,feminino,right,España,catalancastellano,Doctorate,no,no,B,1,conjunction_syn,L1,syncopated,s1,r1,16,Online_conjL1_syn//a.pu.ki5.0.666.wav,pu,ne,ro,ki,sil,cho,ri,fa,sil1,lu,sil2,['catch'],[0.6600000000000819],[0.6600000000000819],0.0,beat,0.6600000000000819,0.6600000000000819,"[""space""]",4:8,1,testConjL1Syn//r2.s1.0.wav,1.0,conjunction_syn,syncopated,b,s1,rule,rule,L1,m,1.6375,4.0,0.0,0.5704,4.0,3.0,catalan,0.0,castellano,0.0,inglés,5.0,aleman,15.0,5.0,6.0,no,no,no,nada,,17. Me gasto bastante dinero en música y cosas relacionadas con la música.,2.0,nada,72.0,yes
17,2024-05-07_19h03.32.013,Unsyncopated_study2,s194,30.0,feminino,right,España,catalancastellano,Doctorate,no,no,B,1,conjunction_syn,L1,syncopated,s1,r2,17,Online_conjL1_syn//a.pu.ki4.none.none.wav,ta,ze,ri,be,sil,zu,fo,ne,sil1,lu,sil2,['-'],,,none,none,,,,4:8,1,testConjL1Syn//r1.s1.0.wav,1.0,conjunction_syn,syncopated,a,s1,rule,rule,L1,m,3.4109,2.0,0.0,0.9674,4.0,3.0,catalan,0.0,castellano,0.0,inglés,5.0,aleman,15.0,5.0,6.0,no,no,no,nada,,18. Siento escalofríos cuando escucho una melodía que me gusta.,4.0,nada,72.0,yes
18,2024-05-07_19h03.32.013,Unsyncopated_study2,s194,30.0,feminino,right,España,catalancastellano,Doctorate,no,no,B,1,conjunction_syn,L1,syncopated,s1,r1,18,Online_conjL1_syn//a.pu.ki7.0.666.wav,pu,ri,zu,ki,sil,ne,ze,cho,sil1,la,sil2,['miss'],,,0.0,beat,,,,4:8,1,testConjL1Syn//time_viol.r1.s1.0.wav,1.0,conjunction_syn,syncopated,a,s1,no_rule,time,L1,m,2.5995,3.0,1.0,0.8766,4.0,3.0,catalan,0.0,castellano,0.0,inglés,5.0,aleman,15.0,5.0,6.0,no,no,no,nada,,19. Con la música me puedo desahogar.,3.0,nada,72.0,yes
19,2024-05-07_19h03.32.013,Unsyncopated_study2,s194,30.0,feminino,right,España,catalancastellano,Doctorate,no,no,B,1,conjunction_syn,L1,syncopated,s2,r2,19,Online_conjL1_syn//a.pu.ki6.none.none.wav,ne,ni,la,ta,sil,zu,cho,be,sil1,ze,sil2,['-'],,,none,none,,,,4:8,1,testConjL1Syn//dep_viol.r1.s1.0.wav,1.0,conjunction_syn,syncopated,a,s1,no_rule,dep,L1,z,3.5166,3.0,0.0,1.1176,4.0,3.0,catalan,0.0,castellano,0.0,inglés,5.0,aleman,15.0,5.0,6.0,no,no,no,nada,,20. Cuando escucho una melodía que me gusta mucho no puedo evitar mover el cuerpo.,4.0,nada,72.0,yes
20,2024-05-07_19h03.32.013,Unsyncopated_study2,s194,30.0,feminino,right,España,catalancastellano,Doctorate,no,no,B,1,conjunction_syn,L1,syncopated,s1,r2,20,Online_conjL1_syn//b.ta.be11.0.666.wav,ta,zu,lu,be,sil,ni,ro,cho,sil1,fo,sil2,['catch'],[1.447499999999991],[1.447499999999991],0.666,no_beat,0.7814999999999909,0.7814999999999909,"[""space""]",40:44,2,testConjL1Syn//r1.s1.2.wav,1.0,conjunction_syn,syncopated,a,s1,rule,rule,L1,m,1.4658,3.0,0.0,0.6182,4.0,3.0,catalan,0.0,castellano,0.0,inglés,5.0,aleman,15.0,5.0,6.0,no,no,no,nada,,,,nada,72.0,yes
21,2024-05-07_19h03.32.013,Unsyncopated_study2,s194,30.0,feminino,right,España,catalancastellano,Doctorate,no,no,B,1,conjunction_syn,L1,syncopated,s1,r2,21,Online_conjL1_syn//b.ta.be10.0.666.wav,ta,cho,ri,be,sil,ni,zu,ze,sil1,ne,sil2,['catch'],[1.6194000000022015],[1.6194000000022015],0.666,no_beat,0.9534000000022016,0.9534000000022016,"[""space""]",40:44,2,testConjL1Syn//r2.s1.1.wav,1.0,conjunction_syn,syncopated,b,s1,rule,rule,L1,z,1.3499,4.0,1.0,0.7506,4.0,3.0,catalan,0.0,castellano,0.0,inglés,5.0,aleman,15.0,5.0,6.0,no,no,no,nada,,,,nada,72.0,yes
22,2024-05-07_19h03.32.013,Unsyncopated_study2,s194,30.0,feminino,right,España,catalancastellano,Doctorate,no,no,B,1,conjunction_syn,L1,syncopated,s2,r2,22,Online_conjL1_syn//b.ta.be9.666.1554.wav,la,lu,ne,ta,sil,ze,fo,be,sil1,zu,sil2,['catch'],[2.3204999999999245],[2.3204999999999245],1.554,no_beat,0.7664999999999245,0.7664999999999245,"[""space""]",40:44,2,testConjL1Syn//time_viol.r1.s2.0.wav,1.0,conjunction_syn,syncopated,a,s2,no_rule,time,L1,m,5.16,2.0,1.0,0.8611,4.0,3.0,catalan,0.0,castellano,0.0,inglés,5.0,aleman,15.0,5.0,6.0,no,no,no,nada,,,,nada,72.0,yes
23,2024-05-07_19h03.32.013,Unsyncopated_study2,s194,30.0,feminino,right,España,catalancastellano,Doctorate,no,no,B,1,conjunction_syn,L1,syncopated,s1,r2,23,Online_conjL1_syn//b.ta.be8.0.666.wav,ta,la,zu,be,sil,ro,cho,ze,sil1,lu,sil2,['catch'],[1.3984000000021979],[1.3984000000021979],0.666,no_beat,0.7324000000021978,0.7324000000021978,"[""space""]",40:44,2,testConjL1Syn//time_viol.r2.s2.0.wav,1.0,conjunction_syn,syncopated,b,s2,no_rule,time,L1,z,1.684,3.0,0.0,1.2668,4.0,3.0,catalan,0.0,castellano,0.0,inglés,5.0,aleman,15.0,5.0,6.0,no,no,no,nada,,,,nada,72.0,yes
24,2024-05-07_19h03.32.013,Unsyncopated_study2,s194,30.0,feminino,right,España,catalancastellano,Doctorate,no,no,B,1,conjunction_syn,L1,syncopated,s2,r1,24,Online_conjL1_syn//c.ro.fo3.none.none.wav,lu,ni,ze,pu,sil,ne,ri,ki,sil1,cho,sil2,['-'],,,none,none,,,,64:68,3,testConjL2Uns//r2.s1.0.wav,2.0,conjunction_un,unsyncopated,b,s1,rule,rule,L2,z,0.6325,7.0,1.0,1.3341,4.0,3.0,catalan,0.0,castellano,0.0,inglés,5.0,aleman,15.0,5.0,6.0,no,no,no,nada,,,,nada,72.0,yes
25,2024-05-07_19h03.32.013,Unsyncopated_study2,s194,30.0,feminino,right,España,catalancastellano,Doctorate,no,no,B,1,conjunction_syn,L1,syncopated,s1,r2,25,Online_conjL1_syn//c.ro.fo1.none.none.wav,ta,ni,lu,be,sil,zu,ze,fa,sil1,la,sil2,['-'],,,none,none,,,,64:68,3,testConjL2Uns//dep_viol.r1.s1.0.wav,2.0,conjunction_un,unsyncopated,a,s1,no_rule,dep,L2,m,1.7161,3.0,1.0,1.6348,4.0,3.0,catalan,0.0,castellano,0.0,inglés,5.0,aleman,15.0,5.0,6.0,no,no,no,nada,,,,nada,72.0,yes
26,2024-05-07_19h03.32.013,Unsyncopated_study2,s194,30.0,feminino,right,España,catalancastellano,Doctorate,no,no,B,1,conjunction_syn,L1,syncopated,s1,r2,26,Online_conjL1_syn//c.ro.fo2.none.none.wav,ta,ze,ni,be,sil,zu,cho,lu,sil1,la,sil2,['false alarm'],[2.1367999999969243],[2.1367999999969243],none,none,,,"[""space""]",64:68,3,testConjL2Uns//r1.s1.0.wav,2.0,conjunction_un,unsyncopated,a,s1,rule,rule,L2,m,2.8678,3.0,0.0,1.5502,4.0,3.0,catalan,0.0,castellano,0.0,inglés,5.0,aleman,15.0,5.0,6.0,no,no,no,nada,,,,nada,72.0,yes
27,2024-05-07_19h03.32.013,Unsyncopated_study2,s194,30.0,feminino,right,España,catalancastellano,Doctorate,no,no,B,1,conjunction_syn,L1,syncopated,s2,r1,27,Online_conjL1_syn//c.ro.fo0.444.1110.wav,fa,la,ro,pu,sil,fo,lu,ki,sil1,ze,sil2,['catch'],[1.8985000000000127],[1.8985000000000127],1.11,no_beat,0.7885000000000126,0.7885000000000126,"[""space""]",64:68,3,testConjL2Uns//cat_viol.r2.s2.0.wav,2.0,conjunction_un,unsyncopated,b,s2,no_rule,cat,L2,m,2.184,2.0,1.0,2.4083,4.0,3.0,catalan,0.0,castellano,0.0,inglés,5.0,aleman,15.0,5.0,6.0,no,no,no,nada,,,,nada,72.0,yes
28,2024-05-07_19h03.32.013,Unsyncopated_study2,s194,30.0,feminino,right,España,catalancastellano,Doctorate,no,no,B,1,conjunction_syn,L1,syncopated,s2,r1,28,Online_conjL1_syn//d.ne.ni31.0.1110.wav,ne,zu,fa,pu,sil,ni,lu,ki,sil1,ro,sil2,"['false alarm', 'catch']","[1.0301000000015392, 1.8303000000007614]",[1.8303000000007614],1.11,no_beat,0.7203000000007613,0.7203000000007613,"[""space"",""space""]",124:128,4,testConjL2Uns//r2.s2.1.wav,2.0,conjunction_un,unsyncopated,b,s2,rule,rule,L2,m,2.7153,2.0,0.0,1.4835,4.0,3.0,catalan,0.0,castellano,0.0,inglés,5.0,aleman,15.0,5.0,6.0,no,no,no,nada,,,,nada,72.0,yes
29,2024-05-07_19h03.32.013,Unsyncopated_study2,s194,30.0,feminino,right,España,catalancastellano,Doctorate,no,no,B,1,conjunction_syn,L1,syncopated,s1,r2,29,Online_conjL1_syn//d.ne.ni28.none.none.wav,ta,lu,zu,be,sil,fa,la,ro,sil1,ri,sil2,['-'],,,none,none,,,,124:128,4,testConjL2Uns//r1.s2.2.wav,2.0,conjunction_un,unsyncopated,a,s2,rule,rule,L2,z,4.585,2.0,1.0,2.1508,4.0,3.0,catalan,0.0,castellano,0.0,inglés,5.0,aleman,15.0,5.0,6.0,no,no,no,nada,,,,nada,72.0,yes
30,2024-05-07_19h03.32.013,Unsyncopated_study2,s194,30.0,feminino,right,España,catalancastellano,Doctorate,no,no,B,1,conjunction_syn,L1,syncopated,s2,r2,30,Online_conjL1_syn//d.ne.ni30.222.1110.wav,fa,ne,lu,ta,sil,ni,ri,be,sil1,ze,sil2,['catch'],[1.7978000000007341],[1.7978000000007341],1.11,no_beat,0.687800000000734,0.687800000000734,"[""space""]",124:128,4,testConjL2Uns//time_viol.r1.s1.0.wav,2.0,conjunction_un,unsyncopated,a,s1,no_rule,time,L2,z,3.3658,2.0,0.0,1.0838,4.0,3.0,catalan,0.0,castellano,0.0,inglés,5.0,aleman,15.0,5.0,6.0,no,no,no,nada,,,,nada,72.0,yes
31,2024-05-07_19h03.32.013,Unsyncopated_study2,s194,30.0,feminino,right,España,catalancastellano,Doctorate,no,no,B,1,conjunction_syn,L1,syncopated,s2,r2,31,Online_conjL1_syn//d.ne.ni29.0.444.wav,ne,fa,ni,ta,sil,ri,zu,be,sil1,lu,sil2,['catch'],[1.236600000001431],[1.236600000001431],0.444,no_beat,0.792600000001431,0.792600000001431,"[""space""]",124:128,4,testConjL2Uns//cat_viol.r2.s1.0.wav,2.0,conjunction_un,unsyncopated,b,s1,no_rule,cat,L2,m,1.3331,2.0,1.0,0.7768,4.0,3.0,catalan,0.0,castellano,0.0,inglés,5.0,aleman,15.0,5.0,6.0,no,no,no,nada,,,,nada,72.0,yes
32,2024-05-07_19h03.32.013,Unsyncopated_study2,s194,30.0,feminino,right,España,catalancastellano,Doctorate,no,no,B,1,conjunction_syn,L1,syncopated,s1,r1,32,Online_conjL1_syn//a.pu.ki12.0.666.wav,pu,zu,ni,ki,sil,ne,ro,fo,sil1,cho,sil2,['catch'],[0.6481000000014774],[0.6481000000014774],0.0,beat,0.6481000000014774,0.6481000000014774,"[""space""]",12:16,1,testConjL2Uns//r2.s2.2.wav,2.0,conjunction_un,unsyncopated,b,s2,rule,rule,L2,m,1.6659,2.0,0.0,0.5004,4.0,3.0,catalan,0.0,castellano,0.0,inglés,5.0,aleman,15.0,5.0,6.0,no,no,no,nada,,,,nada,72.0,yes
33,2024-05-07_19h03.32.013,Unsyncopated_study2,s194,30.0,feminino,right,España,catalancastellano,Doctorate,no,no,B,1,conjunction_syn,L1,syncopated,s1,r2,33,Online_conjL1_syn//a.pu.ki15.none.none.wav,ta,fo,ne,be,sil,la,ze,fa,sil1,cho,sil2,['-'],,,none,none,,,,12:16,1,testConjL2Uns//r2.s1.1.wav,2.0,conjunction_un,unsyncopated,b,s1,rule,rule,L2,m,1.2059,4.0,0.0,0.5293,4.0,3.0,catalan,0.0,castellano,0.0,inglés,5.0,aleman,15.0,5.0,6.0,no,no,no,nada,,,,nada,72.0,yes
34,2024-05-07_19h03.32.013,Unsyncopated_study2,s194,30.0,feminino,right,España,catalancastellano,Doctorate,no,no,B,1,conjunction_syn,L1,syncopated,s2,r1,34,Online_conjL1_syn//a.pu.ki13.666.1554.wav,fa,ro,ne,pu,sil,fo,lu,ki,sil1,ni,sil2,['catch'],[1.1385999999978367],[1.1385999999978367],0.666,no_beat,0.4725999999978366,0.4725999999978366,"[""space""]",12:16,1,testConjL2Uns//dep_viol.r1.s2.0.wav,2.0,conjunction_un,unsyncopated,a,s2,no_rule,dep,L2,z,0.8002,4.0,0.0,0.7178,4.0,3.0,catalan,0.0,castellano,0.0,inglés,5.0,aleman,15.0,5.0,6.0,no,no,no,nada,,,,nada,72.0,yes
35,2024-05-07_19h03.32.013,Unsyncopated_study2,s194,30.0,feminino,right,España,catalancastellano,Doctorate,no,no,B,1,conjunction_syn,L1,syncopated,s1,r2,35,Online_conjL1_syn//a.pu.ki14.none.none.wav,ta,ri,ze,be,sil,lu,fa,cho,sil1,fo,sil2,['-'],,,none,none,,,,12:16,1,testConjL2Uns//r2.s1.2.wav,2.0,conjunction_un,unsyncopated,b,s1,rule,rule,L2,z,0.667,4.0,1.0,0.6617,4.0,3.0,catalan,0.0,castellano,0.0,inglés,5.0,aleman,15.0,5.0,6.0,no,no,no,nada,,,,nada,72.0,yes
36,2024-05-07_19h03.32.013,Unsyncopated_study2,s194,30.0,feminino,right,España,catalancastellano,Doctorate,no,no,B,1,conjunction_syn,L1,syncopated,s2,r1,36,Online_conjL1_syn//c.ro.fo11.none.none.wav,ze,zu,ni,pu,sil,la,cho,ki,sil1,ne,sil2,['-'],,,none,none,,,,72:76,3,testConjL2Uns//r1.s2.0.wav,2.0,conjunction_un,unsyncopated,a,s2,rule,rule,L2,m,1.0832,3.0,0.0,0.5283,4.0,3.0,catalan,0.0,castellano,0.0,inglés,5.0,aleman,15.0,5.0,6.0,no,no,no,nada,,,,nada,72.0,yes
37,2024-05-07_19h03.32.013,Unsyncopated_study2,s194,30.0,feminino,right,España,catalancastellano,Doctorate,no,no,B,1,conjunction_syn,L1,syncopated,s2,r2,37,Online_conjL1_syn//c.ro.fo10.222.444.wav,zu,ro,fo,ta,sil,ni,cho,be,sil1,ze,sil2,['miss'],,,0.444,no_beat,,,,72:76,3,testConjL2Uns//dep_viol.r2.s1.0.wav,2.0,conjunction_un,unsyncopated,b,s1,no_rule,dep,L2,m,0.7183,3.0,1.0,0.3995,4.0,3.0,catalan,0.0,castellano,0.0,inglés,5.0,aleman,15.0,5.0,6.0,no,no,no,nada,,,,nada,72.0,yes
38,2024-05-07_19h03.32.013,Unsyncopated_study2,s194,30.0,feminino,right,España,catalancastellano,Doctorate,no,no,B,1,conjunction_syn,L1,syncopated,s1,r1,38,Online_conjL1_syn//c.ro.fo9.1554.1110.wav,pu,ni,lu,ki,sil,fo,fa,ro,sil1,ne,sil2,"['false alarm', 'catch']","[0.6482000000030439, 2.0534999999999854]",[2.0534999999999854],1.11,no_beat,0.9434999999999854,0.9434999999999854,"[""space"",""space""]",72:76,3,testConjL2Uns//dep_viol.r2.s2.0.wav,2.0,conjunction_un,unsyncopated,b,s2,no_rule,dep,L2,m,0.3946,3.0,1.0,0.3346,4.0,3.0,catalan,0.0,castellano,0.0,inglés,5.0,aleman,15.0,5.0,6.0,no,no,no,nada,,,,nada,72.0,yes
39,2024-05-07_19h03.32.013,Unsyncopated_study2,s194,30.0,feminino,right,España,catalancastellano,Doctorate,no,no,B,1,conjunction_syn,L1,syncopated,s1,r2,39,Online_conjL1_syn//c.ro.fo8.444.1332.wav,ta,lu,ro,be,sil,ni,fo,zu,sil1,fa,sil2,['miss'],,,1.332,no_beat,,,,72:76,3,testConjL2Uns//time_viol.r1.s2.0.wav,2.0,conjunction_un,unsyncopated,a,s2,no_rule,time,L2,m,0.6679,3.0,1.0,0.5442,4.0,3.0,catalan,0.0,castellano,0.0,inglés,5.0,aleman,15.0,5.0,6.0,no,no,no,nada,,,,nada,72.0,yes
40,2024-05-07_19h03.32.013,Unsyncopated_study2,s194,30.0,feminino,right,España,catalancastellano,Doctorate,no,no,B,1,conjunction_syn,L1,syncopated,s2,r1,40,Online_conjL1_syn//d.ne.ni13.1110.222.wav,ze,ni,lu,pu,sil,ne,ro,ki,sil1,zu,sil2,['catch'],[0.7321000000014237],[0.7321000000014237],0.222,no_beat,0.5101000000014237,0.5101000000014237,"[""space""]",108:112,4,testConjL2Uns//r1.s1.1.wav,2.0,conjunction_un,unsyncopated,a,s1,rule,rule,L2,m,0.9419,3.0,0.0,0.7164,4.0,3.0,catalan,0.0,castellano,0.0,inglés,5.0,aleman,15.0,5.0,6.0,no,no,no,nada,,,,nada,72.0,yes
41,2024-05-07_19h03.32.013,Unsyncopated_study2,s194,30.0,feminino,right,España,catalancastellano,Doctorate,no,no,B,1,conjunction_syn,L1,syncopated,s1,r2,41,Online_conjL1_syn//d.ne.ni14.none.none.wav,ta,ri,cho,be,sil,ze,lu,zu,sil1,la,sil2,['-'],,,none,none,,,,108:112,4,testConjL2Uns//cat_viol.r1.s2.0.wav,2.0,conjunction_un,unsyncopated,a,s2,no_rule,cat,L2,z,1.8036,4.0,0.0,0.8,4.0,3.0,catalan,0.0,castellano,0.0,inglés,5.0,aleman,15.0,5.0,6.0,no,no,no,nada,,,,nada,72.0,yes
42,2024-05-07_19h03.32.013,Unsyncopated_study2,s194,30.0,feminino,right,España,catalancastellano,Doctorate,no,no,B,1,conjunction_syn,L1,syncopated,s1,r1,42,Online_conjL1_syn//d.ne.ni15.none.none.wav,pu,lu,ze,ki,sil,cho,zu,ri,sil1,la,sil2,['-'],,,none,none,,,,108:112,4,testConjL2Uns//time_viol.r2.s2.0.wav,2.0,conjunction_un,unsyncopated,b,s2,no_rule,time,L2,m,0.6773,3.0,1.0,0.4932,4.0,3.0,catalan,0.0,castellano,0.0,inglés,5.0,aleman,15.0,5.0,6.0,no,no,no,nada,,,,nada,72.0,yes
43,2024-05-07_19h03.32.013,Unsyncopated_study2,s194,30.0,feminino,right,España,catalancastellano,Doctorate,no,no,B,1,conjunction_syn,L1,syncopated,s1,r1,43,Online_conjL1_syn//d.ne.ni12.none.none.wav,pu,fo,ri,ki,sil,ze,zu,ro,sil1,la,sil2,['-'],,,none,none,,,,108:112,4,testConjL2Uns//cat_viol.r1.s1.0.wav,2.0,conjunction_un,unsyncopated,a,s1,no_rule,cat,L2,m,0.418,3.0,1.0,0.3835,4.0,3.0,catalan,0.0,castellano,0.0,inglés,5.0,aleman,15.0,5.0,6.0,no,no,no,nada,,,,nada,72.0,yes
44,2024-05-07_19h03.32.013,Unsyncopated_study2,s194,30.0,feminino,right,España,catalancastellano,Doctorate,no,no,B,1,conjunction_syn,L1,syncopated,s2,r1,44,Online_conjL1_syn//b.ta.be2.none.none.wav,ri,ne,fo,pu,sil,zu,la,ki,sil1,lu,sil2,['-'],,,none,none,,,,32:36,2,testConjL2Uns//time_viol.r2.s1.0.wav,2.0,conjunction_un,unsyncopated,b,s1,no_rule,time,L2,z,0.9689,3.0,0.0,0.6662,4.0,3.0,catalan,0.0,castellano,0.0,inglés,5.0,aleman,15.0,5.0,6.0,no,no,no,nada,,,,nada,72.0,yes
45,2024-05-07_19h03.32.013,Unsyncopated_study2,s194,30.0,feminino,right,España,catalancastellano,Doctorate,no,no,B,1,conjunction_syn,L1,syncopated,s2,r2,45,Online_conjL1_syn//b.ta.be0.666.1554.wav,cho,fa,fo,ta,sil,zu,la,be,sil1,ne,sil2,['catch'],[2.3864999999999554],[2.3864999999999554],1.554,no_beat,0.8324999999999554,0.8324999999999554,"[""space""]",32:36,2,testConjL2Uns//r1.s2.1.wav,2.0,conjunction_un,unsyncopated,a,s2,rule,rule,L2,z,1.0664,3.0,1.0,0.6506,4.0,3.0,catalan,0.0,castellano,0.0,inglés,5.0,aleman,15.0,5.0,6.0,no,no,no,nada,,,,nada,72.0,yes
46,2024-05-07_19h03.32.013,Unsyncopated_study2,s194,30.0,feminino,right,España,catalancastellano,Doctorate,no,no,B,1,conjunction_syn,L1,syncopated,s2,r2,46,Online_conjL1_syn//b.ta.be3.666.1554.wav,lu,ro,zu,ta,sil,ne,fo,be,sil1,ni,sil2,['catch'],[2.147899999998458],[2.147899999998458],1.554,no_beat,0.593899999998458,0.593899999998458,"[""space""]",32:36,2,testConjL2Uns//r2.s2.0.wav,2.0,conjunction_un,unsyncopated,b,s2,rule,rule,L2,z,0.9169,2.0,1.0,1.0944,4.0,3.0,catalan,0.0,castellano,0.0,inglés,5.0,aleman,15.0,5.0,6.0,no,no,no,nada,,,,nada,72.0,yes
47,2024-05-07_19h03.32.013,Unsyncopated_study2,s194,30.0,feminino,right,España,catalancastellano,Doctorate,no,no,B,1,conjunction_syn,L1,syncopated,s2,r2,47,Online_conjL1_syn//b.ta.be1.666.1554.wav,ni,la,lu,ta,sil,cho,ro,be,sil1,ne,sil2,['catch'],[2.1368000000007896],[2.1368000000007896],1.554,no_beat,0.5828000000007896,0.5828000000007896,"[""space""]",32:36,2,testConjL2Uns//r1.s1.2.wav,2.0,conjunction_un,unsyncopated,a,s1,rule,rule,L2,z,0.4861,2.0,1.0,0.1522,4.0,3.0,catalan,0.0,castellano,0.0,inglés,5.0,aleman,15.0,5.0,6.0,no,no,no,nada,,,,nada,72.0,yes
48,2024-05-07_19h03.32.013,Unsyncopated_study2,s194,30.0,feminino,right,España,catalancastellano,Doctorate,no,no,B,1,conjunction_syn,L1,syncopated,s1,r2,48,Online_conjL1_syn//d.ne.ni10.none.none.wav,ta,ze,fo,be,sil,ro,zu,ri,sil1,lu,sil2,['-'],,,none,none,,,,104:108,4,testWhatL3Uns//r2.s2.1.wav,3.0,what,unsyncopated,b,s2,rule,rule,L3,z,0.8759,6.0,1.0,1.8143,4.0,3.0,catalan,0.0,castellano,0.0,inglés,5.0,aleman,15.0,5.0,6.0,no,no,no,nada,,,,nada,72.0,yes
49,2024-05-07_19h03.32.013,Unsyncopated_study2,s194,30.0,feminino,right,España,catalancastellano,Doctorate,no,no,B,1,conjunction_syn,L1,syncopated,s2,r1,49,Online_conjL1_syn//d.ne.ni8.222.444.wav,fo,ne,ni,pu,sil,ri,ze,ki,sil1,ro,sil2,['miss'],,,0.444,no_beat,,,,104:108,4,testWhatL3Uns//time_viol.r2.s2.0.wav,3.0,what,unsyncopated,b,s2,no_rule,time,L3,z,1.051,6.0,0.0,0.8161,4.0,3.0,catalan,0.0,castellano,0.0,inglés,5.0,aleman,15.0,5.0,6.0,no,no,no,nada,,,,nada,72.0,yes
50,2024-05-07_19h03.32.013,Unsyncopated_study2,s194,30.0,feminino,right,España,catalancastellano,Doctorate,no,no,B,1,conjunction_syn,L1,syncopated,s2,r2,50,Online_conjL1_syn//d.ne.ni9.0.444.wav,ne,fo,ni,ta,sil,lu,ri,be,sil1,cho,sil2,['catch'],[1.3349000000022215],[1.3349000000022215],0.444,no_beat,0.8909000000022216,0.8909000000022216,"[""space""]",104:108,4,testWhatL3Uns//r1.s1.1.wav,3.0,what,unsyncopated,a,s1,rule,rule,L3,z,2.498,3.0,1.0,1.5194,4.0,3.0,catalan,0.0,castellano,0.0,inglés,5.0,aleman,15.0,5.0,6.0,no,no,no,nada,,,,nada,72.0,yes
51,2024-05-07_19h03.32.013,Unsyncopated_study2,s194,30.0,feminino,right,España,catalancastellano,Doctorate,no,no,B,1,conjunction_syn,L1,syncopated,s1,r1,51,Online_conjL1_syn//d.ne.ni11.222.1332.wav,pu,ne,ri,ki,sil,la,ni,cho,sil1,ro,sil2,['miss'],,,1.332,no_beat,,,,104:108,4,testWhatL3Uns//r2.s1.2.wav,3.0,what,unsyncopated,b,s1,rule,rule,L3,m,1.6518,6.0,0.0,1.2173,4.0,3.0,catalan,0.0,castellano,0.0,inglés,5.0,aleman,15.0,5.0,6.0,no,no,no,nada,,,,nada,72.0,yes
52,2024-05-07_19h03.32.013,Unsyncopated_study2,s194,30.0,feminino,right,España,catalancastellano,Doctorate,no,no,B,1,conjunction_syn,L1,syncopated,s1,r2,52,Online_conjL1_syn//b.ta.be31.0.666.wav,ta,fo,cho,be,sil,lu,ri,zu,sil1,la,sil2,['catch'],[1.114400000002206],[1.114400000002206],0.666,no_beat,0.448400000002206,0.448400000002206,"[""space""]",60:64,2,testWhatL3Uns//r2.s2.0.wav,3.0,what,unsyncopated,b,s2,rule,rule,L3,m,0.769,3.0,0.0,0.6039,4.0,3.0,catalan,0.0,castellano,0.0,inglés,5.0,aleman,15.0,5.0,6.0,no,no,no,nada,,,,nada,72.0,yes
53,2024-05-07_19h03.32.013,Unsyncopated_study2,s194,30.0,feminino,right,España,catalancastellano,Doctorate,no,no,B,1,conjunction_syn,L1,syncopated,s2,r1,53,Online_conjL1_syn//b.ta.be30.none.none.wav,la,fo,fa,pu,sil,ro,ri,ki,sil1,ze,sil2,['-'],,,none,none,,,,60:64,2,testWhatL3Uns//dep_viol.r2.s1.0.wav,3.0,what,unsyncopated,b,s1,no_rule,dep,L3,m,0.3995,3.0,1.0,0.5194,4.0,3.0,catalan,0.0,castellano,0.0,inglés,5.0,aleman,15.0,5.0,6.0,no,no,no,nada,,,,nada,72.0,yes
54,2024-05-07_19h03.32.013,Unsyncopated_study2,s194,30.0,feminino,right,España,catalancastellano,Doctorate,no,no,B,1,conjunction_syn,L1,syncopated,s1,r2,54,Online_conjL1_syn//b.ta.be28.0.666.wav,ta,fa,la,be,sil,zu,fo,ze,sil1,ro,sil2,['catch'],[1.3642999999970016],[1.3642999999970016],0.666,no_beat,0.6982999999970015,0.6982999999970015,"[""space""]",60:64,2,testWhatL3Uns//dep_viol.r1.s1.0.wav,3.0,what,unsyncopated,a,s1,no_rule,dep,L3,m,1.8164,3.0,1.0,0.8499,4.0,3.0,catalan,0.0,castellano,0.0,inglés,5.0,aleman,15.0,5.0,6.0,no,no,no,nada,,,,nada,72.0,yes
55,2024-05-07_19h03.32.013,Unsyncopated_study2,s194,30.0,feminino,right,España,catalancastellano,Doctorate,no,no,B,1,conjunction_syn,L1,syncopated,s1,r1,55,Online_conjL1_syn//b.ta.be29.none.none.wav,pu,ro,fa,ki,sil,zu,ni,la,sil1,ze,sil2,['-'],,,none,none,,,,60:64,2,testWhatL3Uns//cat_viol.r2.s2.0.wav,3.0,what,unsyncopated,b,s2,no_rule,cat,L3,m,0.3854,3.0,1.0,0.501,4.0,3.0,catalan,0.0,castellano,0.0,inglés,5.0,aleman,15.0,5.0,6.0,no,no,no,nada,,,,nada,72.0,yes
56,2024-05-07_19h03.32.013,Unsyncopated_study2,s194,30.0,feminino,right,España,catalancastellano,Doctorate,no,no,B,1,conjunction_syn,L1,syncopated,s2,r1,56,Online_conjL1_syn//c.ro.fo17.444.0.wav,fo,fa,ro,pu,sil,lu,ze,ki,sil1,ni,sil2,['catch'],[0.6978000000007114],[0.6978000000007114],0.0,beat,0.6978000000007114,0.6978000000007114,"[""space""]",80:84,3,testWhatL3Uns//cat_viol.r1.s2.0.wav,3.0,what,unsyncopated,a,s2,no_rule,cat,L3,z,0.5833,4.0,0.0,1.9379,4.0,3.0,catalan,0.0,castellano,0.0,inglés,5.0,aleman,15.0,5.0,6.0,no,no,no,nada,,,,nada,72.0,yes
57,2024-05-07_19h03.32.013,Unsyncopated_study2,s194,30.0,feminino,right,España,catalancastellano,Doctorate,no,no,B,1,conjunction_syn,L1,syncopated,s1,r1,57,Online_conjL1_syn//c.ro.fo18.1110.222.wav,pu,fo,zu,ki,sil,ro,cho,ze,sil1,ne,sil2,['catch'],[1.2366000000015447],[1.2366000000015447],0.222,no_beat,1.0146000000015447,1.0146000000015447,"[""space""]",80:84,3,testWhatL3Uns//r1.s1.2.wav,3.0,what,unsyncopated,a,s1,rule,rule,L3,m,0.735,3.0,0.0,0.4746,4.0,3.0,catalan,0.0,castellano,0.0,inglés,5.0,aleman,15.0,5.0,6.0,no,no,no,nada,,,,nada,72.0,yes
58,2024-05-07_19h03.32.013,Unsyncopated_study2,s194,30.0,feminino,right,España,catalancastellano,Doctorate,no,no,B,1,conjunction_syn,L1,syncopated,s2,r1,58,Online_conjL1_syn//c.ro.fo19.none.none.wav,la,ni,zu,pu,sil,ne,ri,ki,sil1,lu,sil2,['-'],,,none,none,,,,80:84,3,testWhatL3Uns//dep_viol.r2.s2.0.wav,3.0,what,unsyncopated,b,s2,no_rule,dep,L3,m,0.901,4.0,1.0,0.8553,4.0,3.0,catalan,0.0,castellano,0.0,inglés,5.0,aleman,15.0,5.0,6.0,no,no,no,nada,,,,nada,72.0,yes
59,2024-05-07_19h03.32.013,Unsyncopated_study2,s194,30.0,feminino,right,España,catalancastellano,Doctorate,no,no,B,1,conjunction_syn,L1,syncopated,s1,r2,59,Online_conjL1_syn//c.ro.fo16.1332.222.wav,ta,fo,ni,be,sil,la,ro,lu,sil1,fa,sil2,['catch'],[0.9696000000014919],[0.9696000000014919],0.222,no_beat,0.747600000001492,0.747600000001492,"[""space""]",80:84,3,testWhatL3Uns//r2.s1.0.wav,3.0,what,unsyncopated,b,s1,rule,rule,L3,m,1.0539,3.0,0.0,0.3834,4.0,3.0,catalan,0.0,castellano,0.0,inglés,5.0,aleman,15.0,5.0,6.0,no,no,no,nada,,,,nada,72.0,yes
60,2024-05-07_19h03.32.013,Unsyncopated_study2,s194,30.0,feminino,right,España,catalancastellano,Doctorate,no,no,B,1,conjunction_syn,L1,syncopated,s1,r2,60,Online_conjL1_syn//d.ne.ni2.222.1332.wav,ta,ne,lu,be,sil,ri,ni,cho,sil1,ze,sil2,['miss'],,,1.332,no_beat,,,,96:100,4,testWhatL3Uns//cat_viol.r2.s1.0.wav,3.0,what,unsyncopated,b,s1,no_rule,cat,L3,m,0.2613,3.0,1.0,0.4837,4.0,3.0,catalan,0.0,castellano,0.0,inglés,5.0,aleman,15.0,5.0,6.0,no,no,no,nada,,,,nada,72.0,yes
61,2024-05-07_19h03.32.013,Unsyncopated_study2,s194,30.0,feminino,right,España,catalancastellano,Doctorate,no,no,B,1,conjunction_syn,L1,syncopated,s1,r1,61,Online_conjL1_syn//d.ne.ni3.none.none.wav,pu,fo,la,ki,sil,ro,lu,ri,sil1,cho,sil2,['false alarm'],[0.25220000000297205],[0.25220000000297205],none,none,,,"[""space""]",96:100,4,testWhatL3Uns//r1.s2.1.wav,3.0,what,unsyncopated,a,s2,rule,rule,L3,z,0.617,4.0,1.0,0.9032,4.0,3.0,catalan,0.0,castellano,0.0,inglés,5.0,aleman,15.0,5.0,6.0,no,no,no,nada,,,,nada,72.0,yes
62,2024-05-07_19h03.32.013,Unsyncopated_study2,s194,30.0,feminino,right,España,catalancastellano,Doctorate,no,no,B,1,conjunction_syn,L1,syncopated,s2,r1,62,Online_conjL1_syn//d.ne.ni0.none.none.wav,lu,ze,zu,pu,sil,ro,ri,ki,sil1,la,sil2,['-'],,,none,none,,,,96:100,4,testWhatL3Uns//cat_viol.r1.s1.0.wav,3.0,what,unsyncopated,a,s1,no_rule,cat,L3,m,0.2788,3.0,1.0,0.5335,4.0,3.0,catalan,0.0,castellano,0.0,inglés,5.0,aleman,15.0,5.0,6.0,no,no,no,nada,,,,nada,72.0,yes
63,2024-05-07_19h03.32.013,Unsyncopated_study2,s194,30.0,feminino,right,España,catalancastellano,Doctorate,no,no,B,1,conjunction_syn,L1,syncopated,s1,r1,63,Online_conjL1_syn//d.ne.ni1.222.1110.wav,pu,ne,ri,ki,sil,ni,la,ze,sil1,lu,sil2,['catch'],[1.8701999999992722],[1.8701999999992722],1.11,no_beat,0.7601999999992721,0.7601999999992721,"[""space""]",96:100,4,testWhatL3Uns//time_viol.r2.s1.0.wav,3.0,what,unsyncopated,b,s1,no_rule,time,L3,m,1.4504,2.0,1.0,0.5429,4.0,3.0,catalan,0.0,castellano,0.0,inglés,5.0,aleman,15.0,5.0,6.0,no,no,no,nada,,,,nada,72.0,yes
64,2024-05-07_19h03.32.013,Unsyncopated_study2,s194,30.0,feminino,right,España,catalancastellano,Doctorate,no,no,B,1,conjunction_syn,L1,syncopated,s2,r1,64,Online_conjL1_syn//a.pu.ki1.666.1554.wav,ni,fo,fa,pu,sil,zu,lu,ki,sil1,ne,sil2,['miss'],,,0.666,no_beat,,,,0:4,1,testWhatL3Uns//r2.s1.1.wav,3.0,what,unsyncopated,b,s1,rule,rule,L3,m,0.1826,2.0,0.0,0.4499,4.0,3.0,catalan,0.0,castellano,0.0,inglés,5.0,aleman,15.0,5.0,6.0,no,no,no,nada,,,,nada,72.0,yes
65,2024-05-07_19h03.32.013,Unsyncopated_study2,s194,30.0,feminino,right,España,catalancastellano,Doctorate,no,no,B,1,conjunction_syn,L1,syncopated,s2,r2,65,Online_conjL1_syn//a.pu.ki2.none.none.wav,ne,ro,ri,ta,sil,fa,ze,be,sil1,la,sil2,['-'],,,none,none,,,,0:4,1,testWhatL3Uns//r2.s2.2.wav,3.0,what,unsyncopated,b,s2,rule,rule,L3,m,0.2485,2.0,0.0,0.4348,4.0,3.0,catalan,0.0,castellano,0.0,inglés,5.0,aleman,15.0,5.0,6.0,no,no,no,nada,,,,nada,72.0,yes
66,2024-05-07_19h03.32.013,Unsyncopated_study2,s194,30.0,feminino,right,España,catalancastellano,Doctorate,no,no,B,1,conjunction_syn,L1,syncopated,s1,r2,66,Online_conjL1_syn//a.pu.ki0.none.none.wav,ta,la,ni,be,sil,fa,lu,ro,sil1,fo,sil2,['-'],,,none,none,,,,0:4,1,testWhatL3Uns//r1.s1.0.wav,3.0,what,unsyncopated,a,s1,rule,rule,L3,m,0.5437,3.0,0.0,0.5442,4.0,3.0,catalan,0.0,castellano,0.0,inglés,5.0,aleman,15.0,5.0,6.0,no,no,no,nada,,,,nada,72.0,yes
67,2024-05-07_19h03.32.013,Unsyncopated_study2,s194,30.0,feminino,right,España,catalancastellano,Doctorate,no,no,B,1,conjunction_syn,L1,syncopated,s1,r1,67,Online_conjL1_syn//a.pu.ki3.0.666.wav,pu,zu,la,ki,sil,fa,cho,ri,sil1,ro,sil2,['miss'],,,0.0,beat,,,,0:4,1,testWhatL3Uns//dep_viol.r1.s2.0.wav,3.0,what,unsyncopated,a,s2,no_rule,dep,L3,m,0.2507,5.0,1.0,0.6322,4.0,3.0,catalan,0.0,castellano,0.0,inglés,5.0,aleman,15.0,5.0,6.0,no,no,no,nada,,,,nada,72.0,yes
68,2024-05-07_19h03.32.013,Unsyncopated_study2,s194,30.0,feminino,right,España,catalancastellano,Doctorate,no,no,B,1,conjunction_syn,L1,syncopated,s2,r2,68,Online_conjL1_syn//a.pu.ki31.none.none.wav,lu,fo,fa,ta,sil,ro,ni,be,sil1,la,sil2,['-'],,,none,none,,,,28:32,1,testWhatL3Uns//time_viol.r1.s2.0.wav,3.0,what,unsyncopated,a,s2,no_rule,time,L3,m,1.2332,4.0,1.0,0.3781,4.0,3.0,catalan,0.0,castellano,0.0,inglés,5.0,aleman,15.0,5.0,6.0,no,no,no,nada,,,,nada,72.0,yes
69,2024-05-07_19h03.32.013,Unsyncopated_study2,s194,30.0,feminino,right,España,catalancastellano,Doctorate,no,no,B,1,conjunction_syn,L1,syncopated,s2,r1,69,Online_conjL1_syn//a.pu.ki29.666.1554.wav,ze,ne,ro,pu,sil,lu,la,ki,sil1,fo,sil2,['catch'],[1.3716000000015356],[1.3716000000015356],0.666,no_beat,0.7056000000015356,0.7056000000015356,"[""space""]",28:32,1,testWhatL3Uns//r1.s2.2.wav,3.0,what,unsyncopated,a,s2,rule,rule,L3,m,0.6172,4.0,0.0,0.4418,4.0,3.0,catalan,0.0,castellano,0.0,inglés,5.0,aleman,15.0,5.0,6.0,no,no,no,nada,,,,nada,72.0,yes
70,2024-05-07_19h03.32.013,Unsyncopated_study2,s194,30.0,feminino,right,España,catalancastellano,Doctorate,no,no,B,1,conjunction_syn,L1,syncopated,s2,r1,70,Online_conjL1_syn//a.pu.ki28.666.1554.wav,cho,ro,fo,pu,sil,ze,ni,ki,sil1,zu,sil2,['catch'],[2.2863999999985936],[2.2863999999985936],0.666,no_beat,,1.6203999999985936,"[""space""]",28:32,1,testWhatL3Uns//time_viol.r1.s1.0.wav,3.0,what,unsyncopated,a,s1,no_rule,time,L3,m,0.3836,4.0,1.0,0.3768,4.0,3.0,catalan,0.0,castellano,0.0,inglés,5.0,aleman,15.0,5.0,6.0,no,no,no,nada,,,,nada,72.0,yes
71,2024-05-07_19h03.32.013,Unsyncopated_study2,s194,30.0,feminino,right,España,catalancastellano,Doctorate,no,no,B,1,conjunction_syn,L1,syncopated,s1,r2,71,Online_conjL1_syn//a.pu.ki30.none.none.wav,ta,fa,ro,be,sil,ni,zu,la,sil1,ze,sil2,['-'],,,none,none,,,,28:32,1,testWhatL3Uns//r1.s2.0.wav,3.0,what,unsyncopated,a,s2,rule,rule,L3,m,0.2106,3.0,0.0,0.3772,4.0,3.0,catalan,0.0,castellano,0.0,inglés,5.0,aleman,15.0,5.0,6.0,no,no,no,nada,,,,nada,72.0,yes
72,2024-05-07_19h03.32.013,Unsyncopated_study2,s194,30.0,feminino,right,España,catalancastellano,Doctorate,no,no,B,1,conjunction_syn,L1,syncopated,s2,r2,72,Online_conjL1_syn//b.ta.be24.666.1554.wav,fo,ni,ro,ta,sil,ri,cho,be,sil1,ne,sil2,['catch'],[2.241800000000808],[2.241800000000808],1.554,no_beat,0.6878000000008078,0.6878000000008078,"[""space""]",56:60,2,testWhenL4Uns//r1.s2.0.wav,4.0,when,unsyncopated,a,s2,rule,rule,L4,z,1.5355,5.0,1.0,1.6692,4.0,3.0,catalan,0.0,castellano,0.0,inglés,5.0,aleman,15.0,5.0,6.0,no,no,no,nada,,,,nada,72.0,yes
73,2024-05-07_19h03.32.013,Unsyncopated_study2,s194,30.0,feminino,right,España,catalancastellano,Doctorate,no,no,B,1,conjunction_syn,L1,syncopated,s1,r1,73,Online_conjL1_syn//b.ta.be27.none.none.wav,pu,ze,lu,ki,sil,ro,fo,ni,sil1,ri,sil2,['-'],,,none,none,,,,56:60,2,testWhenL4Uns//r2.s1.0.wav,4.0,when,unsyncopated,b,s1,rule,rule,L4,m,0.6825,3.0,0.0,1.4822,4.0,3.0,catalan,0.0,castellano,0.0,inglés,5.0,aleman,15.0,5.0,6.0,no,no,no,nada,,,,nada,72.0,yes
74,2024-05-07_19h03.32.013,Unsyncopated_study2,s194,30.0,feminino,right,España,catalancastellano,Doctorate,no,no,B,1,conjunction_syn,L1,syncopated,s2,r2,74,Online_conjL1_syn//b.ta.be26.666.1554.wav,cho,lu,la,ta,sil,fo,ro,be,sil1,zu,sil2,['catch'],[2.0732999999970616],[2.0732999999970616],1.554,no_beat,0.5192999999970616,0.5192999999970616,"[""space""]",56:60,2,testWhenL4Uns//cat_viol.r1.s1.0.wav,4.0,when,unsyncopated,a,s1,no_rule,cat,L4,m,0.566,3.0,0.0,0.6285,4.0,3.0,catalan,0.0,castellano,0.0,inglés,5.0,aleman,15.0,5.0,6.0,no,no,no,nada,,,,nada,72.0,yes
75,2024-05-07_19h03.32.013,Unsyncopated_study2,s194,30.0,feminino,right,España,catalancastellano,Doctorate,no,no,B,1,conjunction_syn,L1,syncopated,s1,r2,75,Online_conjL1_syn//b.ta.be25.0.666.wav,ta,ri,ze,be,sil,ni,cho,lu,sil1,ne,sil2,['catch'],[1.420500000000061],[1.420500000000061],0.666,no_beat,0.7545000000000609,0.7545000000000609,"[""space""]",56:60,2,testWhenL4Uns//r2.s1.1.wav,4.0,when,unsyncopated,b,s1,rule,rule,L4,m,1.5026,3.0,0.0,0.7332,4.0,3.0,catalan,0.0,castellano,0.0,inglés,5.0,aleman,15.0,5.0,6.0,no,no,no,nada,,,,nada,72.0,yes
76,2024-05-07_19h03.32.013,Unsyncopated_study2,s194,30.0,feminino,right,España,catalancastellano,Doctorate,no,no,B,1,conjunction_syn,L1,syncopated,s1,r2,76,Online_conjL1_syn//a.pu.ki26.none.none.wav,ta,zu,lu,be,sil,ro,la,ri,sil1,fa,sil2,['-'],,,none,none,,,,24:28,1,testWhenL4Uns//cat_viol.r2.s2.0.wav,4.0,when,unsyncopated,b,s2,no_rule,cat,L4,m,2.0175,3.0,0.0,0.5842,4.0,3.0,catalan,0.0,castellano,0.0,inglés,5.0,aleman,15.0,5.0,6.0,no,no,no,nada,,,,nada,72.0,yes
77,2024-05-07_19h03.32.013,Unsyncopated_study2,s194,30.0,feminino,right,España,catalancastellano,Doctorate,no,no,B,1,conjunction_syn,L1,syncopated,s1,r1,77,Online_conjL1_syn//a.pu.ki27.0.666.wav,pu,ze,lu,ki,sil,cho,fa,fo,sil1,ni,sil2,['catch'],[0.7876999999992904],[0.7876999999992904],0.0,beat,0.7876999999992904,0.7876999999992904,"[""space""]",24:28,1,testWhenL4Uns//time_viol.r2.s1.0.wav,4.0,when,unsyncopated,b,s1,no_rule,time,L4,m,1.7173,4.0,0.0,1.2269,4.0,3.0,catalan,0.0,castellano,0.0,inglés,5.0,aleman,15.0,5.0,6.0,no,no,no,nada,,,,nada,72.0,yes
78,2024-05-07_19h03.32.013,Unsyncopated_study2,s194,30.0,feminino,right,España,catalancastellano,Doctorate,no,no,B,1,conjunction_syn,L1,syncopated,s1,r2,78,Online_conjL1_syn//a.pu.ki24.none.none.wav,ta,ne,la,be,sil,ri,fa,ze,sil1,zu,sil2,['-'],,,none,none,,,,24:28,1,testWhenL4Uns//r1.s1.0.wav,4.0,when,unsyncopated,a,s1,rule,rule,L4,z,1.8702,3.0,1.0,0.8684,4.0,3.0,catalan,0.0,castellano,0.0,inglés,5.0,aleman,15.0,5.0,6.0,no,no,no,nada,,,,nada,72.0,yes
79,2024-05-07_19h03.32.013,Unsyncopated_study2,s194,30.0,feminino,right,España,catalancastellano,Doctorate,no,no,B,1,conjunction_syn,L1,syncopated,s2,r1,79,Online_conjL1_syn//a.pu.ki25.666.1554.wav,cho,la,ro,pu,sil,ze,ne,ki,sil1,ri,sil2,['miss'],,,0.666,no_beat,,,,24:28,1,testWhenL4Uns//dep_viol.r2.s1.0.wav,4.0,when,unsyncopated,b,s1,no_rule,dep,L4,m,0.2343,3.0,0.0,0.4342,4.0,3.0,catalan,0.0,castellano,0.0,inglés,5.0,aleman,15.0,5.0,6.0,no,no,no,nada,,,,nada,72.0,yes
80,2024-05-07_19h03.32.013,Unsyncopated_study2,s194,30.0,feminino,right,España,catalancastellano,Doctorate,no,no,B,1,conjunction_syn,L1,syncopated,s1,r1,80,Online_conjL1_syn//b.ta.be18.none.none.wav,pu,ni,zu,ki,sil,ne,la,ze,sil1,cho,sil2,['false alarm'],[0.680800000000545],[0.680800000000545],none,none,,,"[""space""]",48:52,2,testWhenL4Uns//r1.s1.2.wav,4.0,when,unsyncopated,a,s1,rule,rule,L4,m,2.5168,5.0,0.0,1.2502,4.0,3.0,catalan,0.0,castellano,0.0,inglés,5.0,aleman,15.0,5.0,6.0,no,no,no,nada,,,,nada,72.0,yes
81,2024-05-07_19h03.32.013,Unsyncopated_study2,s194,30.0,feminino,right,España,catalancastellano,Doctorate,no,no,B,1,conjunction_syn,L1,syncopated,s2,r1,81,Online_conjL1_syn//b.ta.be17.none.none.wav,zu,lu,ze,pu,sil,la,cho,ki,sil1,fa,sil2,['-'],,,none,none,,,,48:52,2,testWhenL4Uns//r2.s2.1.wav,4.0,when,unsyncopated,b,s2,rule,rule,L4,m,0.717,3.0,0.0,0.4659,4.0,3.0,catalan,0.0,castellano,0.0,inglés,5.0,aleman,15.0,5.0,6.0,no,no,no,nada,,,,nada,72.0,yes
82,2024-05-07_19h03.32.013,Unsyncopated_study2,s194,30.0,feminino,right,España,catalancastellano,Doctorate,no,no,B,1,conjunction_syn,L1,syncopated,s2,r2,82,Online_conjL1_syn//b.ta.be16.666.1554.wav,ro,ne,lu,ta,sil,la,ri,be,sil1,fo,sil2,['catch'],[2.2356999999992695],[2.2356999999992695],1.554,no_beat,0.6816999999992694,0.6816999999992694,"[""space""]",48:52,2,testWhenL4Uns//cat_viol.r2.s1.0.wav,4.0,when,unsyncopated,b,s1,no_rule,cat,L4,m,0.5661,3.0,0.0,0.3507,4.0,3.0,catalan,0.0,castellano,0.0,inglés,5.0,aleman,15.0,5.0,6.0,no,no,no,nada,,,,nada,72.0,yes
83,2024-05-07_19h03.32.013,Unsyncopated_study2,s194,30.0,feminino,right,España,catalancastellano,Doctorate,no,no,B,1,conjunction_syn,L1,syncopated,s2,r2,83,Online_conjL1_syn//b.ta.be19.666.1554.wav,fa,la,ni,ta,sil,cho,ne,be,sil1,ri,sil2,['catch'],[2.163600000001452],[2.163600000001452],1.554,no_beat,0.6096000000014519,0.6096000000014519,"[""space""]",48:52,2,testWhenL4Uns//cat_viol.r1.s2.0.wav,4.0,when,unsyncopated,a,s2,no_rule,cat,L4,m,1.8522,3.0,0.0,0.412,4.0,3.0,catalan,0.0,castellano,0.0,inglés,5.0,aleman,15.0,5.0,6.0,no,no,no,nada,,,,nada,72.0,yes
84,2024-05-07_19h03.32.013,Unsyncopated_study2,s194,30.0,feminino,right,España,catalancastellano,Doctorate,no,no,B,1,conjunction_syn,L1,syncopated,s2,r2,84,Online_conjL1_syn//d.ne.ni24.none.none.wav,lu,ro,la,ta,sil,fa,fo,be,sil1,zu,sil2,['-'],,,none,none,,,,120:124,4,testWhenL4Uns//time_viol.r2.s2.0.wav,4.0,when,unsyncopated,b,s2,no_rule,time,L4,m,1.7186,2.0,0.0,0.4327,4.0,3.0,catalan,0.0,castellano,0.0,inglés,5.0,aleman,15.0,5.0,6.0,no,no,no,nada,,,,nada,72.0,yes
85,2024-05-07_19h03.32.013,Unsyncopated_study2,s194,30.0,feminino,right,España,catalancastellano,Doctorate,no,no,B,1,conjunction_syn,L1,syncopated,s1,r2,85,Online_conjL1_syn//d.ne.ni25.222.1110.wav,ta,ne,ze,be,sil,ni,cho,la,sil1,lu,sil2,['catch'],[1.9483000000006996],[1.9483000000006996],1.11,no_beat,0.8383000000006995,0.8383000000006995,"[""space""]",120:124,4,testWhenL4Uns//r1.s1.1.wav,4.0,when,unsyncopated,a,s1,rule,rule,L4,m,1.0449,2.0,0.0,0.3937,4.0,3.0,catalan,0.0,castellano,0.0,inglés,5.0,aleman,15.0,5.0,6.0,no,no,no,nada,,,,nada,72.0,yes
86,2024-05-07_19h03.32.013,Unsyncopated_study2,s194,30.0,feminino,right,España,catalancastellano,Doctorate,no,no,B,1,conjunction_syn,L1,syncopated,s2,r1,86,Online_conjL1_syn//d.ne.ni26.none.none.wav,ze,zu,fa,pu,sil,cho,lu,ki,sil1,fo,sil2,['-'],,,none,none,,,,120:124,4,testWhenL4Uns//dep_viol.r1.s2.0.wav,4.0,when,unsyncopated,a,s2,no_rule,dep,L4,m,1.3171,2.0,0.0,0.3839,4.0,3.0,catalan,0.0,castellano,0.0,inglés,5.0,aleman,15.0,5.0,6.0,no,no,no,nada,,,,nada,72.0,yes
87,2024-05-07_19h03.32.013,Unsyncopated_study2,s194,30.0,feminino,right,España,catalancastellano,Doctorate,no,no,B,1,conjunction_syn,L1,syncopated,s1,r2,87,Online_conjL1_syn//d.ne.ni27.none.none.wav,ta,la,fo,be,sil,zu,cho,ze,sil1,ri,sil2,['-'],,,none,none,,,,120:124,4,testWhenL4Uns//r2.s1.2.wav,4.0,when,unsyncopated,b,s1,rule,rule,L4,z,0.2169,4.0,1.0,1.1262,4.0,3.0,catalan,0.0,castellano,0.0,inglés,5.0,aleman,15.0,5.0,6.0,no,no,no,nada,,,,nada,72.0,yes
88,2024-05-07_19h03.32.013,Unsyncopated_study2,s194,30.0,feminino,right,España,catalancastellano,Doctorate,no,no,B,1,conjunction_syn,L1,syncopated,s2,r2,88,Online_conjL1_syn//c.ro.fo14.none.none.wav,fa,zu,ri,ta,sil,la,ni,be,sil1,ne,sil2,['false alarm'],[2.463199999999233],[2.463199999999233],none,none,,,"[""space""]",76:80,3,testWhenL4Uns//dep_viol.r2.s2.0.wav,4.0,when,unsyncopated,b,s2,no_rule,dep,L4,z,0.1699,4.0,1.0,0.2585,4.0,3.0,catalan,0.0,castellano,0.0,inglés,5.0,aleman,15.0,5.0,6.0,no,no,no,nada,,,,nada,72.0,yes
89,2024-05-07_19h03.32.013,Unsyncopated_study2,s194,30.0,feminino,right,España,catalancastellano,Doctorate,no,no,B,1,conjunction_syn,L1,syncopated,s1,r1,89,Online_conjL1_syn//c.ro.fo13.1554.222.wav,pu,fo,fa,ki,sil,ni,cho,ro,sil1,ze,sil2,['miss'],,,0.222,no_beat,,,,76:80,3,testWhenL4Uns//dep_viol.r1.s1.0.wav,4.0,when,unsyncopated,a,s1,no_rule,dep,L4,m,0.2503,2.0,0.0,0.4004,4.0,3.0,catalan,0.0,castellano,0.0,inglés,5.0,aleman,15.0,5.0,6.0,no,no,no,nada,,,,nada,72.0,yes
90,2024-05-07_19h03.32.013,Unsyncopated_study2,s194,30.0,feminino,right,España,catalancastellano,Doctorate,no,no,B,1,conjunction_syn,L1,syncopated,s2,r2,90,Online_conjL1_syn//c.ro.fo12.1332.444.wav,fa,zu,fo,ta,sil,cho,ro,be,sil1,ne,sil2,['catch'],[1.555399999998599],[1.555399999998599],0.444,no_beat,1.111399999998599,1.111399999998599,"[""space""]",76:80,3,testWhenL4Uns//r2.s2.0.wav,4.0,when,unsyncopated,b,s2,rule,rule,L4,z,0.0351,4.0,1.0,0.2337,4.0,3.0,catalan,0.0,castellano,0.0,inglés,5.0,aleman,15.0,5.0,6.0,no,no,no,nada,,,,nada,72.0,yes
91,2024-05-07_19h03.32.013,Unsyncopated_study2,s194,30.0,feminino,right,España,catalancastellano,Doctorate,no,no,B,1,conjunction_syn,L1,syncopated,s1,r1,91,Online_conjL1_syn//c.ro.fo15.none.none.wav,pu,ri,ze,ki,sil,lu,ne,la,sil1,cho,sil2,['-'],,,none,none,,,,76:80,3,testWhenL4Uns//r2.s2.2.wav,4.0,when,unsyncopated,b,s2,rule,rule,L4,z,1.7831,4.0,1.0,0.226,4.0,3.0,catalan,0.0,castellano,0.0,inglés,5.0,aleman,15.0,5.0,6.0,no,no,no,nada,,,,nada,72.0,yes
92,2024-05-07_19h03.32.013,Unsyncopated_study2,s194,30.0,feminino,right,España,catalancastellano,Doctorate,no,no,B,1,conjunction_syn,L1,syncopated,s2,r2,92,Online_conjL1_syn//d.ne.ni18.none.none.wav,lu,ri,cho,ta,sil,ze,ro,be,sil1,fo,sil2,['-'],,,none,none,,,,112:116,4,testWhenL4Uns//r1.s2.1.wav,4.0,when,unsyncopated,a,s2,rule,rule,L4,z,0.6168,3.0,1.0,0.3845,4.0,3.0,catalan,0.0,castellano,0.0,inglés,5.0,aleman,15.0,5.0,6.0,no,no,no,nada,,,,nada,72.0,yes
93,2024-05-07_19h03.32.013,Unsyncopated_study2,s194,30.0,feminino,right,España,catalancastellano,Doctorate,no,no,B,1,conjunction_syn,L1,syncopated,s1,r2,93,Online_conjL1_syn//d.ne.ni16.1332.222.wav,ta,ni,lu,be,sil,ri,ne,fo,sil1,ze,sil2,['catch'],[1.13799999999992],[1.13799999999992],0.222,no_beat,0.91599999999992,0.91599999999992,"[""space""]",112:116,4,testWhenL4Uns//r1.s2.2.wav,4.0,when,unsyncopated,a,s2,rule,rule,L4,m,0.6031,2.0,0.0,1.0668,4.0,3.0,catalan,0.0,castellano,0.0,inglés,5.0,aleman,15.0,5.0,6.0,no,no,no,nada,,,,nada,72.0,yes
94,2024-05-07_19h03.32.013,Unsyncopated_study2,s194,30.0,feminino,right,España,catalancastellano,Doctorate,no,no,B,1,conjunction_syn,L1,syncopated,s2,r2,94,Online_conjL1_syn//d.ne.ni17.none.none.wav,ze,lu,ri,ta,sil,fo,cho,be,sil1,fa,sil2,['-'],,,none,none,,,,112:116,4,testWhenL4Uns//time_viol.r1.s2.0.wav,4.0,when,unsyncopated,a,s2,no_rule,time,L4,m,0.1684,5.0,0.0,0.6164,4.0,3.0,catalan,0.0,castellano,0.0,inglés,5.0,aleman,15.0,5.0,6.0,no,no,no,nada,,,,nada,72.0,yes
95,2024-05-07_19h03.32.013,Unsyncopated_study2,s194,30.0,feminino,right,España,catalancastellano,Doctorate,no,no,B,1,conjunction_syn,L1,syncopated,s2,r1,95,Online_conjL1_syn//d.ne.ni19.none.none.wav,la,ro,cho,pu,sil,ri,zu,ki,sil1,fo,sil2,['-'],,,none,none,,,,112:116,4,testWhenL4Uns//time_viol.r1.s1.0.wav,4.0,when,unsyncopated,a,s1,no_rule,time,L4,m,1.2522,5.0,0.0,0.7676,4.0,3.0,catalan,0.0,castellano,0.0,inglés,5.0,aleman,15.0,5.0,6.0,no,no,no,nada,,,,nada,72.0,yes
96,2024-05-07_19h03.32.013,Unsyncopated_study2,s194,30.0,feminino,right,España,catalancastellano,Doctorate,no,no,B,1,conjunction_syn,L1,syncopated,s2,r1,96,Online_conjL1_syn//b.ta.be7.none.none.wav,fa,ne,lu,pu,sil,zu,fo,ki,sil1,cho,sil2,['-'],,,none,none,,,,36:40,2,,,,,,,,,,,,,,,4.0,3.0,catalan,0.0,castellano,0.0,inglés,5.0,aleman,15.0,5.0,6.0,no,no,no,nada,,,,nada,72.0,yes
97,2024-05-07_19h03.32.013,Unsyncopated_study2,s194,30.0,feminino,right,España,catalancastellano,Doctorate,no,no,B,1,conjunction_syn,L1,syncopated,s1,r1,97,Online_conjL1_syn//b.ta.be6.none.none.wav,pu,cho,fo,ki,sil,ni,ro,ri,sil1,lu,sil2,['-'],,,none,none,,,,36:40,2,,,,,,,,,,,,,,,4.0,3.0,catalan,0.0,castellano,0.0,inglés,5.0,aleman,15.0,5.0,6.0,no,no,no,nada,,,,nada,72.0,yes
98,2024-05-07_19h03.32.013,Unsyncopated_study2,s194,30.0,feminino,right,España,catalancastellano,Doctorate,no,no,B,1,conjunction_syn,L1,syncopated,s1,r1,98,Online_conjL1_syn//b.ta.be4.none.none.wav,pu,la,fo,ki,sil,cho,ze,lu,sil1,ri,sil2,['-'],,,none,none,,,,36:40,2,,,,,,,,,,,,,,,4.0,3.0,catalan,0.0,castellano,0.0,inglés,5.0,aleman,15.0,5.0,6.0,no,no,no,nada,,,,nada,72.0,yes
99,2024-05-07_19h03.32.013,Unsyncopated_study2,s194,30.0,feminino,right,España,catalancastellano,Doctorate,no,no,B,1,conjunction_syn,L1,syncopated,s2,r1,99,Online_conjL1_syn//b.ta.be5.none.none.wav,la,ro,cho,pu,sil,fa,ne,ki,sil1,ze,sil2,['-'],,,none,none,,,,36:40,2,,,,,,,,,,,,,,,4.0,3.0,catalan,0.0,castellano,0.0,inglés,5.0,aleman,15.0,5.0,6.0,no,no,no,nada,,,,nada,72.0,yes
100,2024-05-07_19h03.32.013,Unsyncopated_study2,s194,30.0,feminino,right,España,catalancastellano,Doctorate,no,no,B,1,conjunction_syn,L1,syncopated,s2,r2,100,Online_conjL1_syn//a.pu.ki16.none.none.wav,la,ze,fo,ta,sil,zu,lu,be,sil1,ne,sil2,['-'],,,none,none,,,,16:20,1,,,,,,,,,,,,,,,4.0,3.0,catalan,0.0,castellano,0.0,inglés,5.0,aleman,15.0,5.0,6.0,no,no,no,nada,,,,nada,72.0,yes
101,2024-05-07_19h03.32.013,Unsyncopated_study2,s194,30.0,feminino,right,España,catalancastellano,Doctorate,no,no,B,1,conjunction_syn,L1,syncopated,s2,r1,101,Online_conjL1_syn//a.pu.ki18.666.1554.wav,lu,ni,ri,pu,sil,ro,fo,ki,sil1,cho,sil2,['miss'],,,0.666,no_beat,,,,16:20,1,,,,,,,,,,,,,,,4.0,3.0,catalan,0.0,castellano,0.0,inglés,5.0,aleman,15.0,5.0,6.0,no,no,no,nada,,,,nada,72.0,yes
102,2024-05-07_19h03.32.013,Unsyncopated_study2,s194,30.0,feminino,right,España,catalancastellano,Doctorate,no,no,B,1,conjunction_syn,L1,syncopated,s1,r2,102,Online_conjL1_syn//a.pu.ki19.none.none.wav,ta,fa,lu,be,sil,ne,fo,ri,sil1,ze,sil2,['-'],,,none,none,,,,16:20,1,,,,,,,,,,,,,,,4.0,3.0,catalan,0.0,castellano,0.0,inglés,5.0,aleman,15.0,5.0,6.0,no,no,no,nada,,,,nada,72.0,yes
103,2024-05-07_19h03.32.013,Unsyncopated_study2,s194,30.0,feminino,right,España,catalancastellano,Doctorate,no,no,B,1,conjunction_syn,L1,syncopated,s2,r2,103,Online_conjL1_syn//a.pu.ki17.none.none.wav,lu,fa,zu,ta,sil,la,ze,be,sil1,cho,sil2,['-'],,,none,none,,,,16:20,1,,,,,,,,,,,,,,,4.0,3.0,catalan,0.0,castellano,0.0,inglés,5.0,aleman,15.0,5.0,6.0,no,no,no,nada,,,,nada,72.0,yes
104,2024-05-07_19h03.32.013,Unsyncopated_study2,s194,30.0,feminino,right,España,catalancastellano,Doctorate,no,no,B,1,conjunction_syn,L1,syncopated,s1,r1,104,Online_conjL1_syn//b.ta.be20.none.none.wav,pu,lu,ze,ki,sil,ro,la,zu,sil1,fo,sil2,['-'],,,none,none,,,,52:56,2,,,,,,,,,,,,,,,4.0,3.0,catalan,0.0,castellano,0.0,inglés,5.0,aleman,15.0,5.0,6.0,no,no,no,nada,,,,nada,72.0,yes
105,2024-05-07_19h03.32.013,Unsyncopated_study2,s194,30.0,feminino,right,España,catalancastellano,Doctorate,no,no,B,1,conjunction_syn,L1,syncopated,s1,r1,105,Online_conjL1_syn//b.ta.be23.none.none.wav,pu,cho,ze,ki,sil,ne,la,ri,sil1,fa,sil2,['-'],,,none,none,,,,52:56,2,,,,,,,,,,,,,,,4.0,3.0,catalan,0.0,castellano,0.0,inglés,5.0,aleman,15.0,5.0,6.0,no,no,no,nada,,,,nada,72.0,yes
106,2024-05-07_19h03.32.013,Unsyncopated_study2,s194,30.0,feminino,right,España,catalancastellano,Doctorate,no,no,B,1,conjunction_syn,L1,syncopated,s2,r1,106,Online_conjL1_syn//b.ta.be22.none.none.wav,zu,la,cho,pu,sil,ne,ri,ki,sil1,fa,sil2,['-'],,,none,none,,,,52:56,2,,,,,,,,,,,,,,,4.0,3.0,catalan,0.0,castellano,0.0,inglés,5.0,aleman,15.0,5.0,6.0,no,no,no,nada,,,,nada,72.0,yes
107,2024-05-07_19h03.32.013,Unsyncopated_study2,s194,30.0,feminino,right,España,catalancastellano,Doctorate,no,no,B,1,conjunction_syn,L1,syncopated,s2,r1,107,Online_conjL1_syn//b.ta.be21.none.none.wav,ri,ro,fa,pu,sil,ni,cho,ki,sil1,ze,sil2,['-'],,,none,none,,,,52:56,2,,,,,,,,,,,,,,,4.0,3.0,catalan,0.0,castellano,0.0,inglés,5.0,aleman,15.0,5.0,6.0,no,no,no,nada,,,,nada,72.0,yes
108,2024-05-07_19h03.32.013,Unsyncopated_study2,s194,30.0,feminino,right,España,catalancastellano,Doctorate,no,no,B,1,conjunction_syn,L1,syncopated,s1,r2,108,Online_conjL1_syn//d.ne.ni6.444.1110.wav,ta,zu,ne,be,sil,ni,ze,la,sil1,fa,sil2,['catch'],[1.9571000000014465],[1.9571000000014465],1.11,no_beat,0.8471000000014464,0.8471000000014464,"[""space""]",100:104,4,,,,,,,,,,,,,,,4.0,3.0,catalan,0.0,castellano,0.0,inglés,5.0,aleman,15.0,5.0,6.0,no,no,no,nada,,,,nada,72.0,yes
109,2024-05-07_19h03.32.013,Unsyncopated_study2,s194,30.0,feminino,right,España,catalancastellano,Doctorate,no,no,B,1,conjunction_syn,L1,syncopated,s1,r1,109,Online_conjL1_syn//d.ne.ni4.222.1332.wav,pu,ne,cho,ki,sil,ri,ni,ro,sil1,zu,sil2,['miss'],,,1.332,no_beat,,,,100:104,4,,,,,,,,,,,,,,,4.0,3.0,catalan,0.0,castellano,0.0,inglés,5.0,aleman,15.0,5.0,6.0,no,no,no,nada,,,,nada,72.0,yes
110,2024-05-07_19h03.32.013,Unsyncopated_study2,s194,30.0,feminino,right,España,catalancastellano,Doctorate,no,no,B,1,conjunction_syn,L1,syncopated,s1,r1,110,Online_conjL1_syn//d.ne.ni7.444.1110.wav,pu,lu,ne,ki,sil,ni,ri,ze,sil1,zu,sil2,['miss'],,,1.11,no_beat,,,,100:104,4,,,,,,,,,,,,,,,4.0,3.0,catalan,0.0,castellano,0.0,inglés,5.0,aleman,15.0,5.0,6.0,no,no,no,nada,,,,nada,72.0,yes
111,2024-05-07_19h03.32.013,Unsyncopated_study2,s194,30.0,feminino,right,España,catalancastellano,Doctorate,no,no,B,1,conjunction_syn,L1,syncopated,s2,r1,111,Online_conjL1_syn//d.ne.ni5.none.none.wav,zu,ri,ze,pu,sil,cho,fa,ki,sil1,la,sil2,['-'],,,none,none,,,,100:104,4,,,,,,,,,,,,,,,4.0,3.0,catalan,0.0,castellano,0.0,inglés,5.0,aleman,15.0,5.0,6.0,no,no,no,nada,,,,nada,72.0,yes
112,2024-05-07_19h03.32.013,Unsyncopated_study2,s194,30.0,feminino,right,España,catalancastellano,Doctorate,no,no,B,1,conjunction_syn,L1,syncopated,s1,r1,112,Online_conjL1_syn//c.ro.fo24.1332.222.wav,pu,fo,ni,ki,sil,la,ro,ze,sil1,zu,sil2,['catch'],[0.8715999999976702],[0.8715999999976702],0.222,no_beat,0.6495999999976703,0.6495999999976703,"[""space""]",88:92,3,,,,,,,,,,,,,,,4.0,3.0,catalan,0.0,castellano,0.0,inglés,5.0,aleman,15.0,5.0,6.0,no,no,no,nada,,,,nada,72.0,yes
113,2024-05-07_19h03.32.013,Unsyncopated_study2,s194,30.0,feminino,right,España,catalancastellano,Doctorate,no,no,B,1,conjunction_syn,L1,syncopated,s2,r1,113,Online_conjL1_syn//c.ro.fo26.444.0.wav,fo,ne,ro,pu,sil,ze,ni,ki,sil1,fa,sil2,['catch'],[0.653600000001461],[0.653600000001461],0.0,beat,0.653600000001461,0.653600000001461,"[""space""]",88:92,3,,,,,,,,,,,,,,,4.0,3.0,catalan,0.0,castellano,0.0,inglés,5.0,aleman,15.0,5.0,6.0,no,no,no,nada,,,,nada,72.0,yes
114,2024-05-07_19h03.32.013,Unsyncopated_study2,s194,30.0,feminino,right,España,catalancastellano,Doctorate,no,no,B,1,conjunction_syn,L1,syncopated,s2,r2,114,Online_conjL1_syn//c.ro.fo25.none.none.wav,lu,ri,fa,ta,sil,zu,cho,be,sil1,ze,sil2,['-'],,,none,none,,,,88:92,3,,,,,,,,,,,,,,,4.0,3.0,catalan,0.0,castellano,0.0,inglés,5.0,aleman,15.0,5.0,6.0,no,no,no,nada,,,,nada,72.0,yes
115,2024-05-07_19h03.32.013,Unsyncopated_study2,s194,30.0,feminino,right,España,catalancastellano,Doctorate,no,no,B,1,conjunction_syn,L1,syncopated,s2,r2,115,Online_conjL1_syn//c.ro.fo27.444.1110.wav,la,fa,ro,ta,sil,fo,lu,be,sil1,ze,sil2,['catch'],[1.9899000000020806],[1.9899000000020806],1.11,no_beat,0.8799000000020805,0.8799000000020805,"[""space""]",88:92,3,,,,,,,,,,,,,,,4.0,3.0,catalan,0.0,castellano,0.0,inglés,5.0,aleman,15.0,5.0,6.0,no,no,no,nada,,,,nada,72.0,yes
116,2024-05-07_19h03.32.013,Unsyncopated_study2,s194,30.0,feminino,right,España,catalancastellano,Doctorate,no,no,B,1,conjunction_syn,L1,syncopated,s1,r2,116,Online_conjL1_syn//c.ro.fo29.none.none.wav,ta,zu,ri,be,sil,la,ni,fa,sil1,lu,sil2,['-'],,,none,none,,,,92:96,3,,,,,,,,,,,,,,,4.0,3.0,catalan,0.0,castellano,0.0,inglés,5.0,aleman,15.0,5.0,6.0,no,no,no,nada,,,,nada,72.0,yes
117,2024-05-07_19h03.32.013,Unsyncopated_study2,s194,30.0,feminino,right,España,catalancastellano,Doctorate,no,no,B,1,conjunction_syn,L1,syncopated,s2,r2,117,Online_conjL1_syn//c.ro.fo31.none.none.wav,ri,fa,la,ta,sil,lu,ne,be,sil1,zu,sil2,['-'],,,none,none,,,,92:96,3,,,,,,,,,,,,,,,4.0,3.0,catalan,0.0,castellano,0.0,inglés,5.0,aleman,15.0,5.0,6.0,no,no,no,nada,,,,nada,72.0,yes
118,2024-05-07_19h03.32.013,Unsyncopated_study2,s194,30.0,feminino,right,España,catalancastellano,Doctorate,no,no,B,1,conjunction_syn,L1,syncopated,s2,r2,118,Online_conjL1_syn//c.ro.fo30.1110.0.wav,fo,ze,fa,ta,sil,ro,ri,be,sil1,ni,sil2,['catch'],[1.037100000001601],[1.037100000001601],0.0,beat,1.037100000001601,1.037100000001601,"[""space""]",92:96,3,,,,,,,,,,,,,,,4.0,3.0,catalan,0.0,castellano,0.0,inglés,5.0,aleman,15.0,5.0,6.0,no,no,no,nada,,,,nada,72.0,yes
119,2024-05-07_19h03.32.013,Unsyncopated_study2,s194,30.0,feminino,right,España,catalancastellano,Doctorate,no,no,B,1,conjunction_syn,L1,syncopated,s1,r1,119,Online_conjL1_syn//c.ro.fo28.none.none.wav,pu,ni,lu,ki,sil,ne,la,ze,sil1,fa,sil2,['-'],,,none,none,,,,92:96,3,,,,,,,,,,,,,,,4.0,3.0,catalan,0.0,castellano,0.0,inglés,5.0,aleman,15.0,5.0,6.0,no,no,no,nada,,,,nada,72.0,yes
120,2024-05-07_19h03.32.013,Unsyncopated_study2,s194,30.0,feminino,right,España,catalancastellano,Doctorate,no,no,B,1,conjunction_syn,L1,syncopated,s1,r2,120,Online_conjL1_syn//c.ro.fo4.444.1110.wav,ta,ze,ro,be,sil,fo,ni,cho,sil1,zu,sil2,['catch'],[2.070400000002337],[2.070400000002337],1.11,no_beat,0.9604000000023368,0.9604000000023368,"[""space""]",68:72,3,,,,,,,,,,,,,,,4.0,3.0,catalan,0.0,castellano,0.0,inglés,5.0,aleman,15.0,5.0,6.0,no,no,no,nada,,,,nada,72.0,yes
121,2024-05-07_19h03.32.013,Unsyncopated_study2,s194,30.0,feminino,right,España,catalancastellano,Doctorate,no,no,B,1,conjunction_syn,L1,syncopated,s2,r1,121,Online_conjL1_syn//c.ro.fo5.1332.0.wav,fo,zu,cho,pu,sil,ni,ro,ki,sil1,fa,sil2,['catch'],[0.9482000000029984],[0.9482000000029984],0.0,beat,0.9482000000029984,0.9482000000029984,"[""space""]",68:72,3,,,,,,,,,,,,,,,4.0,3.0,catalan,0.0,castellano,0.0,inglés,5.0,aleman,15.0,5.0,6.0,no,no,no,nada,,,,nada,72.0,yes
122,2024-05-07_19h03.32.013,Unsyncopated_study2,s194,30.0,feminino,right,España,catalancastellano,Doctorate,no,no,B,1,conjunction_syn,L1,syncopated,s1,r2,122,Online_conjL1_syn//c.ro.fo6.none.none.wav,ta,fa,ni,be,sil,la,ne,cho,sil1,ze,sil2,['-'],,,none,none,,,,68:72,3,,,,,,,,,,,,,,,4.0,3.0,catalan,0.0,castellano,0.0,inglés,5.0,aleman,15.0,5.0,6.0,no,no,no,nada,,,,nada,72.0,yes
123,2024-05-07_19h03.32.013,Unsyncopated_study2,s194,30.0,feminino,right,España,catalancastellano,Doctorate,no,no,B,1,conjunction_syn,L1,syncopated,s1,r1,123,Online_conjL1_syn//c.ro.fo7.none.none.wav,pu,zu,la,ki,sil,ze,ne,lu,sil1,ri,sil2,['-'],,,none,none,,,,68:72,3,,,,,,,,,,,,,,,4.0,3.0,catalan,0.0,castellano,0.0,inglés,5.0,aleman,15.0,5.0,6.0,no,no,no,nada,,,,nada,72.0,yes
124,2024-05-07_19h03.32.013,Unsyncopated_study2,s194,30.0,feminino,right,España,catalancastellano,Doctorate,no,no,B,1,conjunction_syn,L1,syncopated,s1,r1,124,Online_conjL1_syn//a.pu.ki8.0.666.wav,pu,ze,ni,ki,sil,ne,ro,ri,sil1,fa,sil2,['catch'],[0.8003000000007887],[0.8003000000007887],0.0,beat,0.8003000000007887,0.8003000000007887,"[""space""]",8:12,1,,,,,,,,,,,,,,,4.0,3.0,catalan,0.0,castellano,0.0,inglés,5.0,aleman,15.0,5.0,6.0,no,no,no,nada,,,,nada,72.0,yes
125,2024-05-07_19h03.32.013,Unsyncopated_study2,s194,30.0,feminino,right,España,catalancastellano,Doctorate,no,no,B,1,conjunction_syn,L1,syncopated,s1,r1,125,Online_conjL1_syn//a.pu.ki11.0.666.wav,pu,fa,ri,ki,sil,lu,cho,zu,sil1,ni,sil2,['miss'],,,0.0,beat,,,,8:12,1,,,,,,,,,,,,,,,4.0,3.0,catalan,0.0,castellano,0.0,inglés,5.0,aleman,15.0,5.0,6.0,no,no,no,nada,,,,nada,72.0,yes
126,2024-05-07_19h03.32.013,Unsyncopated_study2,s194,30.0,feminino,right,España,catalancastellano,Doctorate,no,no,B,1,conjunction_syn,L1,syncopated,s2,r2,126,Online_conjL1_syn//a.pu.ki9.none.none.wav,fa,ne,cho,ta,sil,ni,zu,be,sil1,lu,sil2,['-'],,,none,none,,,,8:12,1,,,,,,,,,,,,,,,4.0,3.0,catalan,0.0,castellano,0.0,inglés,5.0,aleman,15.0,5.0,6.0,no,no,no,nada,,,,nada,72.0,yes
127,2024-05-07_19h03.32.013,Unsyncopated_study2,s194,30.0,feminino,right,España,catalancastellano,Doctorate,no,no,B,1,conjunction_syn,L1,syncopated,s1,r1,127,Online_conjL1_syn//a.pu.ki10.0.666.wav,pu,ro,cho,ki,sil,zu,la,fa,sil1,ne,sil2,['catch'],[0.6998000000007778],[0.6998000000007778],0.0,beat,0.6998000000007778,0.6998000000007778,"[""space""]",8:12,1,,,,,,,,,,,,,,,4.0,3.0,catalan,0.0,castellano,0.0,inglés,5.0,aleman,15.0,5.0,6.0,no,no,no,nada,,,,nada,72.0,yes
128,2024-05-07_19h03.32.013,Unsyncopated_study2,s194,30.0,feminino,right,España,catalancastellano,Doctorate,no,no,B,2,conjunction_un,L2,unsyncopated,s2,r1,0,Online_conjL2_un//d.si.ñu8.0.222.wav,si,ñu,bi,sil,go,me,to,sil1,du,ba,sil2,['catch'],[0.9790000000000418],[0.9790000000000418],0.222,no_beat,0.7570000000000419,0.7570000000000419,"[""space""]",104:108,4,,,,,,,,,,,,,,,4.0,3.0,catalan,0.0,castellano,0.0,inglés,5.0,aleman,15.0,5.0,6.0,no,no,no,nada,,,,nada,72.0,yes
129,2024-05-07_19h03.32.013,Unsyncopated_study2,s194,30.0,feminino,right,España,catalancastellano,Doctorate,no,no,B,2,conjunction_un,L2,unsyncopated,s1,r2,1,Online_conjL2_un//d.si.ñu10.none.none.wav,fe,ba,bi,sil,ra,te,mi,sil1,me,to,sil2,['-'],,,none,none,,,,104:108,4,,,,,,,,,,,,,,,4.0,3.0,catalan,0.0,castellano,0.0,inglés,5.0,aleman,15.0,5.0,6.0,no,no,no,nada,,,,nada,72.0,yes
130,2024-05-07_19h03.32.013,Unsyncopated_study2,s194,30.0,feminino,right,España,catalancastellano,Doctorate,no,no,B,2,conjunction_un,L2,unsyncopated,s2,r1,2,Online_conjL2_un//d.si.ñu11.none.none.wav,ba,to,bi,sil,go,mi,te,sil1,du,su,sil2,['-'],,,none,none,,,,104:108,4,,,,,,,,,,,,,,,4.0,3.0,catalan,0.0,castellano,0.0,inglés,5.0,aleman,15.0,5.0,6.0,no,no,no,nada,,,,nada,72.0,yes
131,2024-05-07_19h03.32.013,Unsyncopated_study2,s194,30.0,feminino,right,España,catalancastellano,Doctorate,no,no,B,2,conjunction_un,L2,unsyncopated,s2,r2,3,Online_conjL2_un//d.si.ñu9.none.none.wav,bi,cha,to,sil,fe,te,ba,sil1,ra,me,sil2,['-'],,,none,none,,,,104:108,4,,,,,,,,,,,,,,,4.0,3.0,catalan,0.0,castellano,0.0,inglés,5.0,aleman,15.0,5.0,6.0,no,no,no,nada,,,,nada,72.0,yes
132,2024-05-07_19h03.32.013,Unsyncopated_study2,s194,30.0,feminino,right,España,catalancastellano,Doctorate,no,no,B,2,conjunction_un,L2,unsyncopated,s1,r1,4,Online_conjL2_un//d.si.ñu28.none.none.wav,go,me,su,sil,du,te,to,sil1,bi,ba,sil2,['-'],,,none,none,,,,124:128,4,,,,,,,,,,,,,,,4.0,3.0,catalan,0.0,castellano,0.0,inglés,5.0,aleman,15.0,5.0,6.0,no,no,no,nada,,,,nada,72.0,yes
133,2024-05-07_19h03.32.013,Unsyncopated_study2,s194,30.0,feminino,right,España,catalancastellano,Doctorate,no,no,B,2,conjunction_un,L2,unsyncopated,s2,r2,5,Online_conjL2_un//d.si.ñu31.none.none.wav,su,ñi,to,sil,fe,me,ba,sil1,ra,te,sil2,['false alarm'],[1.0230999999978394],[1.0230999999978394],none,none,,,"[""space""]",124:128,4,,,,,,,,,,,,,,,4.0,3.0,catalan,0.0,castellano,0.0,inglés,5.0,aleman,15.0,5.0,6.0,no,no,no,nada,,,,nada,72.0,yes
134,2024-05-07_19h03.32.013,Unsyncopated_study2,s194,30.0,feminino,right,España,catalancastellano,Doctorate,no,no,B,2,conjunction_un,L2,unsyncopated,s2,r1,6,Online_conjL2_un//d.si.ñu30.1332.222.wav,ba,ñu,ñi,sil,go,mi,si,sil1,du,cha,sil2,"['catch', 'false alarm']","[1.2318999999986318, 1.556600000001481]",[1.2318999999986318],0.222,no_beat,1.0098999999986318,1.0098999999986318,"[""space"",""space""]",124:128,4,,,,,,,,,,,,,,,4.0,3.0,catalan,0.0,castellano,0.0,inglés,5.0,aleman,15.0,5.0,6.0,no,no,no,nada,,,,nada,72.0,yes
135,2024-05-07_19h03.32.013,Unsyncopated_study2,s194,30.0,feminino,right,España,catalancastellano,Doctorate,no,no,B,2,conjunction_un,L2,unsyncopated,s1,r2,7,Online_conjL2_un//d.si.ñu29.1332.444.wav,fe,mi,ñu,sil,ra,su,si,sil1,ñi,cha,sil2,"['catch', 'false alarm']","[1.0405000000000655, 2.5878000000006978]",[1.0405000000000655],0.444,no_beat,0.5965000000000655,0.5965000000000655,"[""space"",""space""]",124:128,4,,,,,,,,,,,,,,,4.0,3.0,catalan,0.0,castellano,0.0,inglés,5.0,aleman,15.0,5.0,6.0,no,no,no,nada,,,,nada,72.0,yes
136,2024-05-07_19h03.32.013,Unsyncopated_study2,s194,30.0,feminino,right,España,catalancastellano,Doctorate,no,no,B,2,conjunction_un,L2,unsyncopated,s1,r2,8,Online_conjL2_un//c.cha.me7.none.none.wav,fe,su,si,sil,ra,te,mi,sil1,ba,to,sil2,['-'],,,none,none,,,,68:72,3,,,,,,,,,,,,,,,4.0,3.0,catalan,0.0,castellano,0.0,inglés,5.0,aleman,15.0,5.0,6.0,no,no,no,nada,,,,nada,72.0,yes
137,2024-05-07_19h03.32.013,Unsyncopated_study2,s194,30.0,feminino,right,España,catalancastellano,Doctorate,no,no,B,2,conjunction_un,L2,unsyncopated,s2,r2,9,Online_conjL2_un//c.cha.me6.0.222.wav,cha,me,si,sil,fe,ba,te,sil1,ra,to,sil2,['catch'],[0.9688999999984844],[0.9688999999984844],0.222,no_beat,0.7468999999984844,0.7468999999984844,"[""space""]",68:72,3,,,,,,,,,,,,,,,4.0,3.0,catalan,0.0,castellano,0.0,inglés,5.0,aleman,15.0,5.0,6.0,no,no,no,nada,,,,nada,72.0,yes
138,2024-05-07_19h03.32.013,Unsyncopated_study2,s194,30.0,feminino,right,España,catalancastellano,Doctorate,no,no,B,2,conjunction_un,L2,unsyncopated,s2,r2,10,Online_conjL2_un//c.cha.me4.none.none.wav,mi,ñu,su,sil,fe,bi,to,sil1,ra,ñi,sil2,['-'],,,none,none,,,,68:72,3,,,,,,,,,,,,,,,4.0,3.0,catalan,0.0,castellano,0.0,inglés,5.0,aleman,15.0,5.0,6.0,no,no,no,nada,,,,nada,72.0,yes
139,2024-05-07_19h03.32.013,Unsyncopated_study2,s194,30.0,feminino,right,España,catalancastellano,Doctorate,no,no,B,2,conjunction_un,L2,unsyncopated,s2,r1,11,Online_conjL2_un//c.cha.me5.1332.0.wav,me,ñi,mi,sil,go,to,cha,sil1,du,su,sil2,['catch'],[0.7533000000007632],[0.7533000000007632],0.0,beat,0.7533000000007632,0.7533000000007632,"[""space""]",68:72,3,,,,,,,,,,,,,,,4.0,3.0,catalan,0.0,castellano,0.0,inglés,5.0,aleman,15.0,5.0,6.0,no,no,no,nada,,,,nada,72.0,yes
140,2024-05-07_19h03.32.013,Unsyncopated_study2,s194,30.0,feminino,right,España,catalancastellano,Doctorate,no,no,B,2,conjunction_un,L2,unsyncopated,s2,r2,12,Online_conjL2_un//a.go.du15.none.none.wav,me,mi,ñu,sil,fe,si,ñi,sil1,ra,su,sil2,['-'],,,none,none,,,,12:16,1,,,,,,,,,,,,,,,4.0,3.0,catalan,0.0,castellano,0.0,inglés,5.0,aleman,15.0,5.0,6.0,no,no,no,nada,,,,nada,72.0,yes
141,2024-05-07_19h03.32.013,Unsyncopated_study2,s194,30.0,feminino,right,España,catalancastellano,Doctorate,no,no,B,2,conjunction_un,L2,unsyncopated,s2,r1,13,Online_conjL2_un//a.go.du13.888.1776.wav,mi,bi,ba,sil,go,ñu,to,sil1,du,te,sil2,['catch'],[1.5715000000000146],[1.5715000000000146],0.888,beat,0.6835000000000145,0.6835000000000145,"[""space""]",12:16,1,,,,,,,,,,,,,,,4.0,3.0,catalan,0.0,castellano,0.0,inglés,5.0,aleman,15.0,5.0,6.0,no,no,no,nada,,,,nada,72.0,yes
142,2024-05-07_19h03.32.013,Unsyncopated_study2,s194,30.0,feminino,right,España,catalancastellano,Doctorate,no,no,B,2,conjunction_un,L2,unsyncopated,s2,r2,14,Online_conjL2_un//a.go.du12.none.none.wav,bi,su,mi,sil,fe,ñi,te,sil1,ra,si,sil2,['-'],,,none,none,,,,12:16,1,,,,,,,,,,,,,,,4.0,3.0,catalan,0.0,castellano,0.0,inglés,5.0,aleman,15.0,5.0,6.0,no,no,no,nada,,,,nada,72.0,yes
143,2024-05-07_19h03.32.013,Unsyncopated_study2,s194,30.0,feminino,right,España,catalancastellano,Doctorate,no,no,B,2,conjunction_un,L2,unsyncopated,s1,r1,15,Online_conjL2_un//a.go.du14.0.888.wav,go,su,to,sil,du,te,ba,sil1,ñi,me,sil2,['catch'],[0.6386999999992895],[0.6386999999992895],0.0,beat,0.6386999999992895,0.6386999999992895,"[""space""]",12:16,1,,,,,,,,,,,,,,,4.0,3.0,catalan,0.0,castellano,0.0,inglés,5.0,aleman,15.0,5.0,6.0,no,no,no,nada,,,,nada,72.0,yes
144,2024-05-07_19h03.32.013,Unsyncopated_study2,s194,30.0,feminino,right,España,catalancastellano,Doctorate,no,no,B,2,conjunction_un,L2,unsyncopated,s2,r2,16,Online_conjL2_un//b.fe.ra15.888.1776.wav,si,me,to,sil,fe,su,ba,sil1,ra,bi,sil2,['catch'],[2.3646000000014737],[2.3646000000014737],1.776,beat,0.5886000000014737,0.5886000000014737,"[""space""]",44:48,2,,,,,,,,,,,,,,,4.0,3.0,catalan,0.0,castellano,0.0,inglés,5.0,aleman,15.0,5.0,6.0,no,no,no,nada,,,,nada,72.0,yes
145,2024-05-07_19h03.32.013,Unsyncopated_study2,s194,30.0,feminino,right,España,catalancastellano,Doctorate,no,no,B,2,conjunction_un,L2,unsyncopated,s1,r2,17,Online_conjL2_un//b.fe.ra14.0.888.wav,fe,si,ñu,sil,ra,mi,to,sil1,me,bi,sil2,['catch'],[1.5022999999969215],[1.5022999999969215],0.888,beat,0.6142999999969215,0.6142999999969215,"[""space""]",44:48,2,,,,,,,,,,,,,,,4.0,3.0,catalan,0.0,castellano,0.0,inglés,5.0,aleman,15.0,5.0,6.0,no,no,no,nada,,,,nada,72.0,yes
146,2024-05-07_19h03.32.013,Unsyncopated_study2,s194,30.0,feminino,right,España,catalancastellano,Doctorate,no,no,B,2,conjunction_un,L2,unsyncopated,s2,r1,18,Online_conjL2_un//b.fe.ra13.none.none.wav,ñu,bi,su,sil,go,mi,ba,sil1,du,cha,sil2,['-'],,,none,none,,,,44:48,2,,,,,,,,,,,,,,,4.0,3.0,catalan,0.0,castellano,0.0,inglés,5.0,aleman,15.0,5.0,6.0,no,no,no,nada,,,,nada,72.0,yes
147,2024-05-07_19h03.32.013,Unsyncopated_study2,s194,30.0,feminino,right,España,catalancastellano,Doctorate,no,no,B,2,conjunction_un,L2,unsyncopated,s1,r1,19,Online_conjL2_un//b.fe.ra12.none.none.wav,go,ñi,ba,sil,du,me,si,sil1,cha,to,sil2,['-'],,,none,none,,,,44:48,2,,,,,,,,,,,,,,,4.0,3.0,catalan,0.0,castellano,0.0,inglés,5.0,aleman,15.0,5.0,6.0,no,no,no,nada,,,,nada,72.0,yes
148,2024-05-07_19h03.32.013,Unsyncopated_study2,s194,30.0,feminino,right,España,catalancastellano,Doctorate,no,no,B,2,conjunction_un,L2,unsyncopated,s1,r1,20,Online_conjL2_un//b.fe.ra24.none.none.wav,go,su,bi,sil,du,me,ñi,sil1,mi,cha,sil2,['-'],,,none,none,,,,56:60,2,,,,,,,,,,,,,,,4.0,3.0,catalan,0.0,castellano,0.0,inglés,5.0,aleman,15.0,5.0,6.0,no,no,no,nada,,,,nada,72.0,yes
149,2024-05-07_19h03.32.013,Unsyncopated_study2,s194,30.0,feminino,right,España,catalancastellano,Doctorate,no,no,B,2,conjunction_un,L2,unsyncopated,s2,r2,21,Online_conjL2_un//b.fe.ra26.888.1776.wav,ba,su,si,sil,fe,ñu,mi,sil1,ra,ñi,sil2,['catch'],[2.420399999998608],[2.420399999998608],1.776,beat,0.6443999999986081,0.6443999999986081,"[""space""]",56:60,2,,,,,,,,,,,,,,,4.0,3.0,catalan,0.0,castellano,0.0,inglés,5.0,aleman,15.0,5.0,6.0,no,no,no,nada,,,,nada,72.0,yes
150,2024-05-07_19h03.32.013,Unsyncopated_study2,s194,30.0,feminino,right,España,catalancastellano,Doctorate,no,no,B,2,conjunction_un,L2,unsyncopated,s2,r1,22,Online_conjL2_un//b.fe.ra27.none.none.wav,mi,si,me,sil,go,ñu,to,sil1,du,te,sil2,['-'],,,none,none,,,,56:60,2,,,,,,,,,,,,,,,4.0,3.0,catalan,0.0,castellano,0.0,inglés,5.0,aleman,15.0,5.0,6.0,no,no,no,nada,,,,nada,72.0,yes
151,2024-05-07_19h03.32.013,Unsyncopated_study2,s194,30.0,feminino,right,España,catalancastellano,Doctorate,no,no,B,2,conjunction_un,L2,unsyncopated,s2,r2,23,Online_conjL2_un//b.fe.ra25.888.1776.wav,me,bi,si,sil,fe,su,te,sil1,ra,cha,sil2,['miss'],,,1.776,beat,,,,56:60,2,,,,,,,,,,,,,,,4.0,3.0,catalan,0.0,castellano,0.0,inglés,5.0,aleman,15.0,5.0,6.0,no,no,no,nada,,,,nada,72.0,yes
152,2024-05-07_19h03.32.013,Unsyncopated_study2,s194,30.0,feminino,right,España,catalancastellano,Doctorate,no,no,B,2,conjunction_un,L2,unsyncopated,s1,r2,24,Online_conjL2_un//c.cha.me8.444.1332.wav,fe,bi,cha,sil,ra,ñi,me,sil1,te,si,sil2,['catch'],[2.0513999999984662],[2.0513999999984662],1.332,no_beat,0.7193999999984662,0.7193999999984662,"[""space""]",72:76,3,,,,,,,,,,,,,,,4.0,3.0,catalan,0.0,castellano,0.0,inglés,5.0,aleman,15.0,5.0,6.0,no,no,no,nada,,,,nada,72.0,yes
153,2024-05-07_19h03.32.013,Unsyncopated_study2,s194,30.0,feminino,right,España,catalancastellano,Doctorate,no,no,B,2,conjunction_un,L2,unsyncopated,s1,r1,25,Online_conjL2_un//c.cha.me11.none.none.wav,go,su,ñu,sil,du,ñi,mi,sil1,ba,to,sil2,['-'],,,none,none,,,,72:76,3,,,,,,,,,,,,,,,4.0,3.0,catalan,0.0,castellano,0.0,inglés,5.0,aleman,15.0,5.0,6.0,no,no,no,nada,,,,nada,72.0,yes
154,2024-05-07_19h03.32.013,Unsyncopated_study2,s194,30.0,feminino,right,España,catalancastellano,Doctorate,no,no,B,2,conjunction_un,L2,unsyncopated,s1,r1,26,Online_conjL2_un//c.cha.me9.none.none.wav,go,to,ñi,sil,du,mi,ñu,sil1,bi,su,sil2,['-'],,,none,none,,,,72:76,3,,,,,,,,,,,,,,,4.0,3.0,catalan,0.0,castellano,0.0,inglés,5.0,aleman,15.0,5.0,6.0,no,no,no,nada,,,,nada,72.0,yes
155,2024-05-07_19h03.32.013,Unsyncopated_study2,s194,30.0,feminino,right,España,catalancastellano,Doctorate,no,no,B,2,conjunction_un,L2,unsyncopated,s2,r2,27,Online_conjL2_un//c.cha.me10.0.222.wav,cha,me,mi,sil,fe,su,si,sil1,ra,ba,sil2,['catch'],[1.8901000000014392],[1.8901000000014392],0.222,no_beat,,1.6681000000014392,"[""space""]",72:76,3,,,,,,,,,,,,,,,4.0,3.0,catalan,0.0,castellano,0.0,inglés,5.0,aleman,15.0,5.0,6.0,no,no,no,nada,,,,nada,72.0,yes
156,2024-05-07_19h03.32.013,Unsyncopated_study2,s194,30.0,feminino,right,España,catalancastellano,Doctorate,no,no,B,2,conjunction_un,L2,unsyncopated,s2,r2,28,Online_conjL2_un//a.go.du4.none.none.wav,ñi,ba,cha,sil,fe,bi,ñu,sil1,ra,mi,sil2,['-'],,,none,none,,,,4:8,1,,,,,,,,,,,,,,,4.0,3.0,catalan,0.0,castellano,0.0,inglés,5.0,aleman,15.0,5.0,6.0,no,no,no,nada,,,,nada,72.0,yes
157,2024-05-07_19h03.32.013,Unsyncopated_study2,s194,30.0,feminino,right,España,catalancastellano,Doctorate,no,no,B,2,conjunction_un,L2,unsyncopated,s2,r2,29,Online_conjL2_un//a.go.du6.none.none.wav,ñu,ba,bi,sil,fe,me,su,sil1,ra,to,sil2,['-'],,,none,none,,,,4:8,1,,,,,,,,,,,,,,,4.0,3.0,catalan,0.0,castellano,0.0,inglés,5.0,aleman,15.0,5.0,6.0,no,no,no,nada,,,,nada,72.0,yes
158,2024-05-07_19h03.32.013,Unsyncopated_study2,s194,30.0,feminino,right,España,catalancastellano,Doctorate,no,no,B,2,conjunction_un,L2,unsyncopated,s1,r2,30,Online_conjL2_un//a.go.du5.none.none.wav,fe,bi,me,sil,ra,to,si,sil1,ñi,ñu,sil2,['-'],,,none,none,,,,4:8,1,,,,,,,,,,,,,,,4.0,3.0,catalan,0.0,castellano,0.0,inglés,5.0,aleman,15.0,5.0,6.0,no,no,no,nada,,,,nada,72.0,yes
159,2024-05-07_19h03.32.013,Unsyncopated_study2,s194,30.0,feminino,right,España,catalancastellano,Doctorate,no,no,B,2,conjunction_un,L2,unsyncopated,s2,r2,31,Online_conjL2_un//a.go.du7.none.none.wav,to,ñi,su,sil,fe,si,ñu,sil1,ra,cha,sil2,['-'],,,none,none,,,,4:8,1,,,,,,,,,,,,,,,4.0,3.0,catalan,0.0,castellano,0.0,inglés,5.0,aleman,15.0,5.0,6.0,no,no,no,nada,,,,nada,72.0,yes
160,2024-05-07_19h03.32.013,Unsyncopated_study2,s194,30.0,feminino,right,España,catalancastellano,Doctorate,no,no,B,2,conjunction_un,L2,unsyncopated,s1,r1,32,Online_conjL2_un//a.go.du29.0.888.wav,go,mi,me,sil,du,to,bi,sil1,cha,ñu,sil2,['catch'],[0.6503000000006978],[0.6503000000006978],0.0,beat,0.6503000000006978,0.6503000000006978,"[""space""]",28:32,1,,,,,,,,,,,,,,,4.0,3.0,catalan,0.0,castellano,0.0,inglés,5.0,aleman,15.0,5.0,6.0,no,no,no,nada,,,,nada,72.0,yes
161,2024-05-07_19h03.32.013,Unsyncopated_study2,s194,30.0,feminino,right,España,catalancastellano,Doctorate,no,no,B,2,conjunction_un,L2,unsyncopated,s1,r2,33,Online_conjL2_un//a.go.du28.none.none.wav,fe,cha,ba,sil,ra,mi,me,sil1,bi,te,sil2,['-'],,,none,none,,,,28:32,1,,,,,,,,,,,,,,,4.0,3.0,catalan,0.0,castellano,0.0,inglés,5.0,aleman,15.0,5.0,6.0,no,no,no,nada,,,,nada,72.0,yes
162,2024-05-07_19h03.32.013,Unsyncopated_study2,s194,30.0,feminino,right,España,catalancastellano,Doctorate,no,no,B,2,conjunction_un,L2,unsyncopated,s1,r2,34,Online_conjL2_un//a.go.du30.none.none.wav,fe,cha,si,sil,ra,su,te,sil1,ba,bi,sil2,['-'],,,none,none,,,,28:32,1,,,,,,,,,,,,,,,4.0,3.0,catalan,0.0,castellano,0.0,inglés,5.0,aleman,15.0,5.0,6.0,no,no,no,nada,,,,nada,72.0,yes
163,2024-05-07_19h03.32.013,Unsyncopated_study2,s194,30.0,feminino,right,España,catalancastellano,Doctorate,no,no,B,2,conjunction_un,L2,unsyncopated,s1,r2,35,Online_conjL2_un//a.go.du31.none.none.wav,fe,to,ñi,sil,ra,bi,ñu,sil1,su,si,sil2,['-'],,,none,none,,,,28:32,1,,,,,,,,,,,,,,,4.0,3.0,catalan,0.0,castellano,0.0,inglés,5.0,aleman,15.0,5.0,6.0,no,no,no,nada,,,,nada,72.0,yes
164,2024-05-07_19h03.32.013,Unsyncopated_study2,s194,30.0,feminino,right,España,catalancastellano,Doctorate,no,no,B,2,conjunction_un,L2,unsyncopated,s1,r2,36,Online_conjL2_un//b.fe.ra6.0.888.wav,fe,me,ñu,sil,ra,ñi,mi,sil1,to,bi,sil2,['catch'],[1.5503000000005613],[1.5503000000005613],0.888,beat,0.6623000000005613,0.6623000000005613,"[""space""]",36:40,2,,,,,,,,,,,,,,,4.0,3.0,catalan,0.0,castellano,0.0,inglés,5.0,aleman,15.0,5.0,6.0,no,no,no,nada,,,,nada,72.0,yes
165,2024-05-07_19h03.32.013,Unsyncopated_study2,s194,30.0,feminino,right,España,catalancastellano,Doctorate,no,no,B,2,conjunction_un,L2,unsyncopated,s2,r1,37,Online_conjL2_un//b.fe.ra5.none.none.wav,cha,si,su,sil,go,bi,mi,sil1,du,ñu,sil2,['-'],,,none,none,,,,36:40,2,,,,,,,,,,,,,,,4.0,3.0,catalan,0.0,castellano,0.0,inglés,5.0,aleman,15.0,5.0,6.0,no,no,no,nada,,,,nada,72.0,yes
166,2024-05-07_19h03.32.013,Unsyncopated_study2,s194,30.0,feminino,right,España,catalancastellano,Doctorate,no,no,B,2,conjunction_un,L2,unsyncopated,s2,r2,38,Online_conjL2_un//b.fe.ra4.888.1776.wav,bi,ñi,to,sil,fe,me,ba,sil1,ra,cha,sil2,['catch'],[2.4016999999992095],[2.4016999999992095],1.776,beat,0.6256999999992094,0.6256999999992094,"[""space""]",36:40,2,,,,,,,,,,,,,,,4.0,3.0,catalan,0.0,castellano,0.0,inglés,5.0,aleman,15.0,5.0,6.0,no,no,no,nada,,,,nada,72.0,yes
167,2024-05-07_19h03.32.013,Unsyncopated_study2,s194,30.0,feminino,right,España,catalancastellano,Doctorate,no,no,B,2,conjunction_un,L2,unsyncopated,s1,r1,39,Online_conjL2_un//b.fe.ra7.none.none.wav,go,ñu,si,sil,du,me,ñi,sil1,te,ba,sil2,['-'],,,none,none,,,,36:40,2,,,,,,,,,,,,,,,4.0,3.0,catalan,0.0,castellano,0.0,inglés,5.0,aleman,15.0,5.0,6.0,no,no,no,nada,,,,nada,72.0,yes
168,2024-05-07_19h03.32.013,Unsyncopated_study2,s194,30.0,feminino,right,España,catalancastellano,Doctorate,no,no,B,2,conjunction_un,L2,unsyncopated,s2,r1,40,Online_conjL2_un//d.si.ñu15.none.none.wav,su,mi,bi,sil,go,me,ba,sil1,du,te,sil2,['-'],,,none,none,,,,108:112,4,,,,,,,,,,,,,,,4.0,3.0,catalan,0.0,castellano,0.0,inglés,5.0,aleman,15.0,5.0,6.0,no,no,no,nada,,,,nada,72.0,yes
169,2024-05-07_19h03.32.013,Unsyncopated_study2,s194,30.0,feminino,right,España,catalancastellano,Doctorate,no,no,B,2,conjunction_un,L2,unsyncopated,s2,r1,41,Online_conjL2_un//d.si.ñu12.none.none.wav,ba,bi,mi,sil,go,to,cha,sil1,du,te,sil2,['-'],,,none,none,,,,108:112,4,,,,,,,,,,,,,,,4.0,3.0,catalan,0.0,castellano,0.0,inglés,5.0,aleman,15.0,5.0,6.0,no,no,no,nada,,,,nada,72.0,yes
170,2024-05-07_19h03.32.013,Unsyncopated_study2,s194,30.0,feminino,right,España,catalancastellano,Doctorate,no,no,B,2,conjunction_un,L2,unsyncopated,s2,r2,42,Online_conjL2_un//d.si.ñu13.0.1110.wav,si,su,ba,sil,fe,ñu,ñi,sil1,ra,mi,sil2,"['catch', 'false alarm']","[2.137899999998581, 2.355000000000018]",[2.137899999998581],1.11,no_beat,1.0278999999985807,1.0278999999985807,"[""space"",""space""]",108:112,4,,,,,,,,,,,,,,,4.0,3.0,catalan,0.0,castellano,0.0,inglés,5.0,aleman,15.0,5.0,6.0,no,no,no,nada,,,,nada,72.0,yes
171,2024-05-07_19h03.32.013,Unsyncopated_study2,s194,30.0,feminino,right,España,catalancastellano,Doctorate,no,no,B,2,conjunction_un,L2,unsyncopated,s1,r2,43,Online_conjL2_un//d.si.ñu14.1110.222.wav,fe,ñu,ñi,sil,ra,si,ba,sil1,te,su,sil2,"['catch', 'false alarm']","[1.0536999999992531, 1.2533999999984644]",[1.0536999999992531],0.222,no_beat,0.8316999999992531,0.8316999999992531,"[""space"",""space""]",108:112,4,,,,,,,,,,,,,,,4.0,3.0,catalan,0.0,castellano,0.0,inglés,5.0,aleman,15.0,5.0,6.0,no,no,no,nada,,,,nada,72.0,yes
172,2024-05-07_19h03.32.013,Unsyncopated_study2,s194,30.0,feminino,right,España,catalancastellano,Doctorate,no,no,B,2,conjunction_un,L2,unsyncopated,s1,r1,44,Online_conjL2_un//c.cha.me12.1332.222.wav,go,me,si,sil,du,ñu,cha,sil1,ñi,bi,sil2,['catch'],[0.894700000003013],[0.894700000003013],0.222,no_beat,0.672700000003013,0.672700000003013,"[""space""]",76:80,3,,,,,,,,,,,,,,,4.0,3.0,catalan,0.0,castellano,0.0,inglés,5.0,aleman,15.0,5.0,6.0,no,no,no,nada,,,,nada,72.0,yes
173,2024-05-07_19h03.32.013,Unsyncopated_study2,s194,30.0,feminino,right,España,catalancastellano,Doctorate,no,no,B,2,conjunction_un,L2,unsyncopated,s1,r2,45,Online_conjL2_un//c.cha.me14.none.none.wav,fe,mi,su,sil,ra,si,ba,sil1,te,ñi,sil2,['-'],,,none,none,,,,76:80,3,,,,,,,,,,,,,,,4.0,3.0,catalan,0.0,castellano,0.0,inglés,5.0,aleman,15.0,5.0,6.0,no,no,no,nada,,,,nada,72.0,yes
174,2024-05-07_19h03.32.013,Unsyncopated_study2,s194,30.0,feminino,right,España,catalancastellano,Doctorate,no,no,B,2,conjunction_un,L2,unsyncopated,s1,r1,46,Online_conjL2_un//c.cha.me13.none.none.wav,go,bi,su,sil,du,si,te,sil1,mi,ñu,sil2,['-'],,,none,none,,,,76:80,3,,,,,,,,,,,,,,,4.0,3.0,catalan,0.0,castellano,0.0,inglés,5.0,aleman,15.0,5.0,6.0,no,no,no,nada,,,,nada,72.0,yes
175,2024-05-07_19h03.32.013,Unsyncopated_study2,s194,30.0,feminino,right,España,catalancastellano,Doctorate,no,no,B,2,conjunction_un,L2,unsyncopated,s2,r1,47,Online_conjL2_un//c.cha.me15.444.1110.wav,mi,ba,cha,sil,go,me,si,sil1,du,te,sil2,['miss'],,,1.11,no_beat,,,,76:80,3,,,,,,,,,,,,,,,4.0,3.0,catalan,0.0,castellano,0.0,inglés,5.0,aleman,15.0,5.0,6.0,no,no,no,nada,,,,nada,72.0,yes
176,2024-05-07_19h03.32.013,Unsyncopated_study2,s194,30.0,feminino,right,España,catalancastellano,Doctorate,no,no,B,2,conjunction_un,L2,unsyncopated,s1,r2,48,Online_conjL2_un//a.go.du22.none.none.wav,fe,bi,ñi,sil,ra,mi,me,sil1,su,ñu,sil2,['false alarm'],[0.4651999999991858],[0.4651999999991858],none,none,,,"[""space""]",20:24,1,,,,,,,,,,,,,,,4.0,3.0,catalan,0.0,castellano,0.0,inglés,5.0,aleman,15.0,5.0,6.0,no,no,no,nada,,,,nada,72.0,yes
177,2024-05-07_19h03.32.013,Unsyncopated_study2,s194,30.0,feminino,right,España,catalancastellano,Doctorate,no,no,B,2,conjunction_un,L2,unsyncopated,s2,r1,49,Online_conjL2_un//a.go.du23.888.1776.wav,su,te,mi,sil,go,ñu,bi,sil1,du,me,sil2,['catch'],[1.6026999999992313],[1.6026999999992313],0.888,beat,0.7146999999992313,0.7146999999992313,"[""space""]",20:24,1,,,,,,,,,,,,,,,4.0,3.0,catalan,0.0,castellano,0.0,inglés,5.0,aleman,15.0,5.0,6.0,no,no,no,nada,,,,nada,72.0,yes
178,2024-05-07_19h03.32.013,Unsyncopated_study2,s194,30.0,feminino,right,España,catalancastellano,Doctorate,no,no,B,2,conjunction_un,L2,unsyncopated,s2,r1,50,Online_conjL2_un//a.go.du21.888.1776.wav,ba,cha,si,sil,go,to,ñi,sil1,du,te,sil2,['catch'],[1.655300000000807],[1.655300000000807],0.888,beat,0.7673000000008069,0.7673000000008069,"[""space""]",20:24,1,,,,,,,,,,,,,,,4.0,3.0,catalan,0.0,castellano,0.0,inglés,5.0,aleman,15.0,5.0,6.0,no,no,no,nada,,,,nada,72.0,yes
179,2024-05-07_19h03.32.013,Unsyncopated_study2,s194,30.0,feminino,right,España,catalancastellano,Doctorate,no,no,B,2,conjunction_un,L2,unsyncopated,s1,r1,51,Online_conjL2_un//a.go.du20.0.888.wav,go,ñi,si,sil,du,mi,me,sil1,bi,te,sil2,['catch'],[0.7548999999985426],[0.7548999999985426],0.0,beat,0.7548999999985426,0.7548999999985426,"[""space""]",20:24,1,,,,,,,,,,,,,,,4.0,3.0,catalan,0.0,castellano,0.0,inglés,5.0,aleman,15.0,5.0,6.0,no,no,no,nada,,,,nada,72.0,yes
180,2024-05-07_19h03.32.013,Unsyncopated_study2,s194,30.0,feminino,right,España,catalancastellano,Doctorate,no,no,B,2,conjunction_un,L2,unsyncopated,s1,r2,52,Online_conjL2_un//a.go.du8.none.none.wav,fe,to,ñi,sil,ra,ba,cha,sil1,ñu,bi,sil2,['-'],,,none,none,,,,8:12,1,,,,,,,,,,,,,,,4.0,3.0,catalan,0.0,castellano,0.0,inglés,5.0,aleman,15.0,5.0,6.0,no,no,no,nada,,,,nada,72.0,yes
181,2024-05-07_19h03.32.013,Unsyncopated_study2,s194,30.0,feminino,right,España,catalancastellano,Doctorate,no,no,B,2,conjunction_un,L2,unsyncopated,s1,r1,53,Online_conjL2_un//a.go.du10.0.888.wav,go,bi,ñi,sil,du,si,te,sil1,ñu,su,sil2,['catch'],[0.8363999999985481],[0.8363999999985481],0.0,beat,0.8363999999985481,0.8363999999985481,"[""space""]",8:12,1,,,,,,,,,,,,,,,4.0,3.0,catalan,0.0,castellano,0.0,inglés,5.0,aleman,15.0,5.0,6.0,no,no,no,nada,,,,nada,72.0,yes
182,2024-05-07_19h03.32.013,Unsyncopated_study2,s194,30.0,feminino,right,España,catalancastellano,Doctorate,no,no,B,2,conjunction_un,L2,unsyncopated,s2,r1,54,Online_conjL2_un//a.go.du9.888.1776.wav,mi,bi,cha,sil,go,ñu,si,sil1,du,to,sil2,['catch'],[1.907099999997854],[1.907099999997854],0.888,beat,1.019099999997854,1.019099999997854,"[""space""]",8:12,1,,,,,,,,,,,,,,,4.0,3.0,catalan,0.0,castellano,0.0,inglés,5.0,aleman,15.0,5.0,6.0,no,no,no,nada,,,,nada,72.0,yes
183,2024-05-07_19h03.32.013,Unsyncopated_study2,s194,30.0,feminino,right,España,catalancastellano,Doctorate,no,no,B,2,conjunction_un,L2,unsyncopated,s2,r1,55,Online_conjL2_un//a.go.du11.888.1776.wav,si,ba,ñu,sil,go,ñi,mi,sil1,du,te,sil2,['catch'],[1.6952999999969052],[1.6952999999969052],0.888,beat,0.8072999999969052,0.8072999999969052,"[""space""]",8:12,1,,,,,,,,,,,,,,,4.0,3.0,catalan,0.0,castellano,0.0,inglés,5.0,aleman,15.0,5.0,6.0,no,no,no,nada,,,,nada,72.0,yes
184,2024-05-07_19h03.32.013,Unsyncopated_study2,s194,30.0,feminino,right,España,catalancastellano,Doctorate,no,no,B,2,conjunction_un,L2,unsyncopated,s1,r2,56,Online_conjL2_un//d.si.ñu1.222.1332.wav,fe,si,ba,sil,ra,su,ñu,sil1,ñi,me,sil2,"['catch', 'false alarm']","[2.2129999999999654, 2.563099999997803]",[2.2129999999999654],1.332,no_beat,0.8809999999999654,0.8809999999999654,"[""space"",""space""]",96:100,4,,,,,,,,,,,,,,,4.0,3.0,catalan,0.0,castellano,0.0,inglés,5.0,aleman,15.0,5.0,6.0,no,no,no,nada,,,,nada,72.0,yes
185,2024-05-07_19h03.32.013,Unsyncopated_study2,s194,30.0,feminino,right,España,catalancastellano,Doctorate,no,no,B,2,conjunction_un,L2,unsyncopated,s1,r1,57,Online_conjL2_un//d.si.ñu2.1776.444.wav,go,ba,ñu,sil,du,to,su,sil1,si,ñi,sil2,['catch'],[1.2651999999993677],[1.2651999999993677],0.444,no_beat,0.8211999999993678,0.8211999999993678,"[""space""]",96:100,4,,,,,,,,,,,,,,,4.0,3.0,catalan,0.0,castellano,0.0,inglés,5.0,aleman,15.0,5.0,6.0,no,no,no,nada,,,,nada,72.0,yes
186,2024-05-07_19h03.32.013,Unsyncopated_study2,s194,30.0,feminino,right,España,catalancastellano,Doctorate,no,no,B,2,conjunction_un,L2,unsyncopated,s1,r1,58,Online_conjL2_un//d.si.ñu0.none.none.wav,go,cha,ba,sil,du,ñi,bi,sil1,su,to,sil2,"['false alarm', 'false alarm']","[0.13260000000150285, 1.9489000000021406]",1.9489000000021406,none,none,,,"[""space"",""space""]",96:100,4,,,,,,,,,,,,,,,4.0,3.0,catalan,0.0,castellano,0.0,inglés,5.0,aleman,15.0,5.0,6.0,no,no,no,nada,,,,nada,72.0,yes
187,2024-05-07_19h03.32.013,Unsyncopated_study2,s194,30.0,feminino,right,España,catalancastellano,Doctorate,no,no,B,2,conjunction_un,L2,unsyncopated,s2,r2,59,Online_conjL2_un//d.si.ñu3.none.none.wav,to,ba,te,sil,fe,cha,bi,sil1,ra,me,sil2,['-'],,,none,none,,,,96:100,4,,,,,,,,,,,,,,,4.0,3.0,catalan,0.0,castellano,0.0,inglés,5.0,aleman,15.0,5.0,6.0,no,no,no,nada,,,,nada,72.0,yes
188,2024-05-07_19h03.32.013,Unsyncopated_study2,s194,30.0,feminino,right,España,catalancastellano,Doctorate,no,no,B,2,conjunction_un,L2,unsyncopated,s1,r1,60,Online_conjL2_un//b.fe.ra3.none.none.wav,go,bi,to,sil,du,me,ba,sil1,su,ñi,sil2,['false alarm'],[1.0815999999977066],[1.0815999999977066],none,none,,,"[""space""]",32:36,2,,,,,,,,,,,,,,,4.0,3.0,catalan,0.0,castellano,0.0,inglés,5.0,aleman,15.0,5.0,6.0,no,no,no,nada,,,,nada,72.0,yes
189,2024-05-07_19h03.32.013,Unsyncopated_study2,s194,30.0,feminino,right,España,catalancastellano,Doctorate,no,no,B,2,conjunction_un,L2,unsyncopated,s2,r2,61,Online_conjL2_un//b.fe.ra2.888.1776.wav,bi,te,mi,sil,fe,ñu,si,sil1,ra,ba,sil2,['catch'],[2.386400000002368],[2.386400000002368],1.776,beat,0.6104000000023679,0.6104000000023679,"[""space""]",32:36,2,,,,,,,,,,,,,,,4.0,3.0,catalan,0.0,castellano,0.0,inglés,5.0,aleman,15.0,5.0,6.0,no,no,no,nada,,,,nada,72.0,yes
190,2024-05-07_19h03.32.013,Unsyncopated_study2,s194,30.0,feminino,right,España,catalancastellano,Doctorate,no,no,B,2,conjunction_un,L2,unsyncopated,s2,r2,62,Online_conjL2_un//b.fe.ra0.888.1776.wav,ñi,mi,si,sil,fe,to,ñu,sil1,ra,ba,sil2,['catch'],[2.370899999998528],[2.370899999998528],1.776,beat,0.594899999998528,0.594899999998528,"[""space""]",32:36,2,,,,,,,,,,,,,,,4.0,3.0,catalan,0.0,castellano,0.0,inglés,5.0,aleman,15.0,5.0,6.0,no,no,no,nada,,,,nada,72.0,yes
191,2024-05-07_19h03.32.013,Unsyncopated_study2,s194,30.0,feminino,right,España,catalancastellano,Doctorate,no,no,B,2,conjunction_un,L2,unsyncopated,s1,r1,63,Online_conjL2_un//b.fe.ra1.none.none.wav,go,te,su,sil,du,mi,ba,sil1,si,me,sil2,['-'],,,none,none,,,,32:36,2,,,,,,,,,,,,,,,4.0,3.0,catalan,0.0,castellano,0.0,inglés,5.0,aleman,15.0,5.0,6.0,no,no,no,nada,,,,nada,72.0,yes
192,2024-05-07_19h03.32.013,Unsyncopated_study2,s194,30.0,feminino,right,España,catalancastellano,Doctorate,no,no,B,2,conjunction_un,L2,unsyncopated,s1,r2,64,Online_conjL2_un//b.fe.ra29.0.888.wav,fe,ba,si,sil,ra,bi,cha,sil1,mi,ñu,sil2,['catch'],[1.656599999997752],[1.656599999997752],0.888,beat,0.7685999999977521,0.7685999999977521,"[""space""]",60:64,2,,,,,,,,,,,,,,,4.0,3.0,catalan,0.0,castellano,0.0,inglés,5.0,aleman,15.0,5.0,6.0,no,no,no,nada,,,,nada,72.0,yes
193,2024-05-07_19h03.32.013,Unsyncopated_study2,s194,30.0,feminino,right,España,catalancastellano,Doctorate,no,no,B,2,conjunction_un,L2,unsyncopated,s2,r1,65,Online_conjL2_un//b.fe.ra28.none.none.wav,me,cha,mi,sil,go,si,ñi,sil1,du,to,sil2,['-'],,,none,none,,,,60:64,2,,,,,,,,,,,,,,,4.0,3.0,catalan,0.0,castellano,0.0,inglés,5.0,aleman,15.0,5.0,6.0,no,no,no,nada,,,,nada,72.0,yes
194,2024-05-07_19h03.32.013,Unsyncopated_study2,s194,30.0,feminino,right,España,catalancastellano,Doctorate,no,no,B,2,conjunction_un,L2,unsyncopated,s2,r2,66,Online_conjL2_un//b.fe.ra31.888.1776.wav,ñu,to,me,sil,fe,cha,mi,sil1,ra,ba,sil2,['catch'],[2.5874999999998636],[2.5874999999998636],1.776,beat,0.8114999999998636,0.8114999999998636,"[""space""]",60:64,2,,,,,,,,,,,,,,,4.0,3.0,catalan,0.0,castellano,0.0,inglés,5.0,aleman,15.0,5.0,6.0,no,no,no,nada,,,,nada,72.0,yes
195,2024-05-07_19h03.32.013,Unsyncopated_study2,s194,30.0,feminino,right,España,catalancastellano,Doctorate,no,no,B,2,conjunction_un,L2,unsyncopated,s1,r1,67,Online_conjL2_un//b.fe.ra30.none.none.wav,go,si,cha,sil,du,ba,te,sil1,ñu,ñi,sil2,['-'],,,none,none,,,,60:64,2,,,,,,,,,,,,,,,4.0,3.0,catalan,0.0,castellano,0.0,inglés,5.0,aleman,15.0,5.0,6.0,no,no,no,nada,,,,nada,72.0,yes
196,2024-05-07_19h03.32.013,Unsyncopated_study2,s194,30.0,feminino,right,España,catalancastellano,Doctorate,no,no,B,2,conjunction_un,L2,unsyncopated,s1,r2,68,Online_conjL2_un//b.fe.ra10.0.888.wav,fe,ñu,cha,sil,ra,mi,bi,sil1,me,si,sil2,['catch'],[1.407199999999193],[1.407199999999193],0.888,beat,0.5191999999991931,0.5191999999991931,"[""space""]",40:44,2,,,,,,,,,,,,,,,4.0,3.0,catalan,0.0,castellano,0.0,inglés,5.0,aleman,15.0,5.0,6.0,no,no,no,nada,,,,nada,72.0,yes
197,2024-05-07_19h03.32.013,Unsyncopated_study2,s194,30.0,feminino,right,España,catalancastellano,Doctorate,no,no,B,2,conjunction_un,L2,unsyncopated,s1,r2,69,Online_conjL2_un//b.fe.ra9.0.888.wav,fe,ñu,cha,sil,ra,to,bi,sil1,te,ba,sil2,['catch'],[1.5568999999986772],[1.5568999999986772],0.888,beat,0.6688999999986772,0.6688999999986772,"[""space""]",40:44,2,,,,,,,,,,,,,,,4.0,3.0,catalan,0.0,castellano,0.0,inglés,5.0,aleman,15.0,5.0,6.0,no,no,no,nada,,,,nada,72.0,yes
198,2024-05-07_19h03.32.013,Unsyncopated_study2,s194,30.0,feminino,right,España,catalancastellano,Doctorate,no,no,B,2,conjunction_un,L2,unsyncopated,s2,r1,70,Online_conjL2_un//b.fe.ra8.none.none.wav,si,to,mi,sil,go,cha,me,sil1,du,bi,sil2,['-'],,,none,none,,,,40:44,2,,,,,,,,,,,,,,,4.0,3.0,catalan,0.0,castellano,0.0,inglés,5.0,aleman,15.0,5.0,6.0,no,no,no,nada,,,,nada,72.0,yes
199,2024-05-07_19h03.32.013,Unsyncopated_study2,s194,30.0,feminino,right,España,catalancastellano,Doctorate,no,no,B,2,conjunction_un,L2,unsyncopated,s1,r2,71,Online_conjL2_un//b.fe.ra11.0.888.wav,fe,bi,mi,sil,ra,te,su,sil1,cha,ba,sil2,['catch'],[1.5878000000006978],[1.5878000000006978],0.888,beat,0.6998000000006978,0.6998000000006978,"[""space""]",40:44,2,,,,,,,,,,,,,,,4.0,3.0,catalan,0.0,castellano,0.0,inglés,5.0,aleman,15.0,5.0,6.0,no,no,no,nada,,,,nada,72.0,yes
200,2024-05-07_19h03.32.013,Unsyncopated_study2,s194,30.0,feminino,right,España,catalancastellano,Doctorate,no,no,B,2,conjunction_un,L2,unsyncopated,s2,r1,72,Online_conjL2_un//c.cha.me19.none.none.wav,bi,mi,to,sil,go,ñu,si,sil1,du,ñi,sil2,['-'],,,none,none,,,,80:84,3,,,,,,,,,,,,,,,4.0,3.0,catalan,0.0,castellano,0.0,inglés,5.0,aleman,15.0,5.0,6.0,no,no,no,nada,,,,nada,72.0,yes
201,2024-05-07_19h03.32.013,Unsyncopated_study2,s194,30.0,feminino,right,España,catalancastellano,Doctorate,no,no,B,2,conjunction_un,L2,unsyncopated,s2,r1,73,Online_conjL2_un//c.cha.me17.1332.444.wav,bi,ba,me,sil,go,ñi,cha,sil1,du,si,sil2,['catch'],[0.5555000000001655],[0.5555000000001655],0.444,no_beat,0.1115000000001655,0.1115000000001655,"[""space""]",80:84,3,,,,,,,,,,,,,,,4.0,3.0,catalan,0.0,castellano,0.0,inglés,5.0,aleman,15.0,5.0,6.0,no,no,no,nada,,,,nada,72.0,yes
202,2024-05-07_19h03.32.013,Unsyncopated_study2,s194,30.0,feminino,right,España,catalancastellano,Doctorate,no,no,B,2,conjunction_un,L2,unsyncopated,s2,r1,74,Online_conjL2_un//c.cha.me18.none.none.wav,ba,su,mi,sil,go,ñu,te,sil1,du,ñi,sil2,['-'],,,none,none,,,,80:84,3,,,,,,,,,,,,,,,4.0,3.0,catalan,0.0,castellano,0.0,inglés,5.0,aleman,15.0,5.0,6.0,no,no,no,nada,,,,nada,72.0,yes
203,2024-05-07_19h03.32.013,Unsyncopated_study2,s194,30.0,feminino,right,España,catalancastellano,Doctorate,no,no,B,2,conjunction_un,L2,unsyncopated,s2,r2,75,Online_conjL2_un//c.cha.me16.none.none.wav,te,mi,si,sil,fe,ñi,bi,sil1,ra,ñu,sil2,['-'],,,none,none,,,,80:84,3,,,,,,,,,,,,,,,4.0,3.0,catalan,0.0,castellano,0.0,inglés,5.0,aleman,15.0,5.0,6.0,no,no,no,nada,,,,nada,72.0,yes
204,2024-05-07_19h03.32.013,Unsyncopated_study2,s194,30.0,feminino,right,España,catalancastellano,Doctorate,no,no,B,2,conjunction_un,L2,unsyncopated,s1,r2,76,Online_conjL2_un//c.cha.me31.none.none.wav,fe,ñi,ba,sil,ra,si,te,sil1,ñu,mi,sil2,['-'],,,none,none,,,,92:96,3,,,,,,,,,,,,,,,4.0,3.0,catalan,0.0,castellano,0.0,inglés,5.0,aleman,15.0,5.0,6.0,no,no,no,nada,,,,nada,72.0,yes
205,2024-05-07_19h03.32.013,Unsyncopated_study2,s194,30.0,feminino,right,España,catalancastellano,Doctorate,no,no,B,2,conjunction_un,L2,unsyncopated,s1,r1,77,Online_conjL2_un//c.cha.me28.222.444.wav,go,cha,me,sil,du,mi,ba,sil1,bi,to,sil2,['catch'],[1.4751000000014756],[1.4751000000014756],0.444,no_beat,1.0311000000014756,1.0311000000014756,"[""space""]",92:96,3,,,,,,,,,,,,,,,4.0,3.0,catalan,0.0,castellano,0.0,inglés,5.0,aleman,15.0,5.0,6.0,no,no,no,nada,,,,nada,72.0,yes
206,2024-05-07_19h03.32.013,Unsyncopated_study2,s194,30.0,feminino,right,España,catalancastellano,Doctorate,no,no,B,2,conjunction_un,L2,unsyncopated,s2,r2,78,Online_conjL2_un//c.cha.me30.0.1110.wav,cha,mi,ba,sil,fe,me,si,sil1,ra,ñi,sil2,['miss'],,,1.11,no_beat,,,,92:96,3,,,,,,,,,,,,,,,4.0,3.0,catalan,0.0,castellano,0.0,inglés,5.0,aleman,15.0,5.0,6.0,no,no,no,nada,,,,nada,72.0,yes
207,2024-05-07_19h03.32.013,Unsyncopated_study2,s194,30.0,feminino,right,España,catalancastellano,Doctorate,no,no,B,2,conjunction_un,L2,unsyncopated,s2,r2,79,Online_conjL2_un//c.cha.me29.none.none.wav,ba,ñu,mi,sil,fe,te,si,sil1,ra,ñi,sil2,['-'],,,none,none,,,,92:96,3,,,,,,,,,,,,,,,4.0,3.0,catalan,0.0,castellano,0.0,inglés,5.0,aleman,15.0,5.0,6.0,no,no,no,nada,,,,nada,72.0,yes
208,2024-05-07_19h03.32.013,Unsyncopated_study2,s194,30.0,feminino,right,España,catalancastellano,Doctorate,no,no,B,2,conjunction_un,L2,unsyncopated,s2,r1,80,Online_conjL2_un//a.go.du2.888.1776.wav,si,me,to,sil,go,bi,te,sil1,du,cha,sil2,['catch'],[1.5486000000014428],[1.5486000000014428],0.888,beat,0.6606000000014428,0.6606000000014428,"[""space""]",0:4,1,,,,,,,,,,,,,,,4.0,3.0,catalan,0.0,castellano,0.0,inglés,5.0,aleman,15.0,5.0,6.0,no,no,no,nada,,,,nada,72.0,yes
209,2024-05-07_19h03.32.013,Unsyncopated_study2,s194,30.0,feminino,right,España,catalancastellano,Doctorate,no,no,B,2,conjunction_un,L2,unsyncopated,s1,r2,81,Online_conjL2_un//a.go.du0.none.none.wav,fe,ñu,ba,sil,ra,mi,cha,sil1,bi,si,sil2,['-'],,,none,none,,,,0:4,1,,,,,,,,,,,,,,,4.0,3.0,catalan,0.0,castellano,0.0,inglés,5.0,aleman,15.0,5.0,6.0,no,no,no,nada,,,,nada,72.0,yes
210,2024-05-07_19h03.32.013,Unsyncopated_study2,s194,30.0,feminino,right,España,catalancastellano,Doctorate,no,no,B,2,conjunction_un,L2,unsyncopated,s2,r2,82,Online_conjL2_un//a.go.du3.none.none.wav,te,bi,su,sil,fe,me,ñi,sil1,ra,si,sil2,['-'],,,none,none,,,,0:4,1,,,,,,,,,,,,,,,4.0,3.0,catalan,0.0,castellano,0.0,inglés,5.0,aleman,15.0,5.0,6.0,no,no,no,nada,,,,nada,72.0,yes
211,2024-05-07_19h03.32.013,Unsyncopated_study2,s194,30.0,feminino,right,España,catalancastellano,Doctorate,no,no,B,2,conjunction_un,L2,unsyncopated,s1,r1,83,Online_conjL2_un//a.go.du1.0.888.wav,go,bi,si,sil,du,ñu,ba,sil1,mi,cha,sil2,['catch'],[0.6372999999969124],[0.6372999999969124],0.0,beat,0.6372999999969124,0.6372999999969124,"[""space""]",0:4,1,,,,,,,,,,,,,,,4.0,3.0,catalan,0.0,castellano,0.0,inglés,5.0,aleman,15.0,5.0,6.0,no,no,no,nada,,,,nada,72.0,yes
212,2024-05-07_19h03.32.013,Unsyncopated_study2,s194,30.0,feminino,right,España,catalancastellano,Doctorate,no,no,B,2,conjunction_un,L2,unsyncopated,s2,r1,84,Online_conjL2_un//d.si.ñu16.1110.222.wav,te,ñu,mi,sil,go,si,to,sil1,du,me,sil2,['catch'],[1.6419000000021242],[1.6419000000021242],0.222,no_beat,,1.4199000000021242,"[""space""]",112:116,4,,,,,,,,,,,,,,,4.0,3.0,catalan,0.0,castellano,0.0,inglés,5.0,aleman,15.0,5.0,6.0,no,no,no,nada,,,,nada,72.0,yes
