Unnamed: 0,date,expName,participant,age,sex,hand,residence,native_lang,education_level,lang_deficit,aud_deficit,group,block,condition,language,rhythm,rule structure online,rule type online,order_trial_on,trial_online,s1,s2,s3,s4,s5,s6,s7,s8,s9,s10,s11,catch_syll_resp,rts_syll_catch,clean_rts,time_syll,beat_no_beat,catch_rtsTR,catch_rts,syllable_catch.keys,cond_syll,syll_to_catch,test_offline,block_off,condition_off,rhythm_off,rule,rule_str_off,rule_norule,conds_offline,language_off,Partz_no_partm.keys,Partz_no_partm.rt,security_1_7.keys,accuracy,security_1_7.rt,n_lang,n_lang_used,lang_1,age_l1,lang_2,age_l2,lang_3,age_l3,ability_learn_l2,tendence_mix_lan,music_experience,muisc_use,partiture,instr_1,age_M1,instr_2,age_M2,instr_3,age_M3,preguntas_musica1,BMRQ_answer.response,final comment,BMRQ_Score,bilingual
0,2024-04-13_18h18.46.940,Experiment4_uns,s162,21.0,feminino,right,España,CatalánEspañol,Bachelor degree,no,no,A,1,conjunction_syn,L3,syncopated,s1,r2,0,Online_conjL3_syn//d.ji.li5.1332.222.wav,ñe,li,do,sa,sil,le,ji,di,sil1,ko,sil2,['catch'],[2.0215999999940095],[2.0215999999940095],1.332,no_beat,0.6895999999940094,0.6895999999940094,"[""space""]",ji,4,testConjL3Syn//r2.s2.2.wav,1.0,conjunction_syn,syncopated,b,s2,rule,rule,L3,z,3.6133,7.0,1.0,2.284,3.0,2.0,Catalán,0.0,Español,3.0,Inglés,6.0,4.0,3.0,yes,no,yes,Piano,5,Clarinete,5,Canto,5,1. Cuando comparto música con alguien siento una complicidad especial con aquella persona.,4.0,Durante el último lenguaje mi cabeza ya estaba muy cansada y he empezado a tener un dolor de cabeza muy leve. ,61.0,yes
1,2024-04-13_18h18.46.940,Experiment4_uns,s162,21.0,feminino,right,España,CatalánEspañol,Bachelor degree,no,no,A,1,conjunction_syn,L3,syncopated,s1,r1,1,Online_conjL3_syn//d.ji.li6.none.none.wav,chu,je,fu,mo,sil,ka,ga,le,sil1,do,sil2,['-'],,,none,none,,,,ji,4,testConjL3Syn//r1.s1.1.wav,1.0,conjunction_syn,syncopated,a,s1,rule,rule,L3,z,0.5342,7.0,1.0,1.3176,3.0,2.0,Catalán,0.0,Español,3.0,Inglés,6.0,4.0,3.0,yes,no,yes,Piano,5,Clarinete,5,Canto,5,2. En mi tiempo libre apenas escucho música.,3.0,Durante el último lenguaje mi cabeza ya estaba muy cansada y he empezado a tener un dolor de cabeza muy leve. ,61.0,yes
2,2024-04-13_18h18.46.940,Experiment4_uns,s162,21.0,feminino,right,España,CatalánEspañol,Bachelor degree,no,no,A,1,conjunction_syn,L3,syncopated,s2,r1,2,Online_conjL3_syn//d.ji.li4.0.222.wav,ji,li,ka,chu,sil,le,di,mo,sil1,gu,sil2,['catch'],[0.6222999999970398],[0.6222999999970398],0.0,beat,0.6222999999970398,0.6222999999970398,"[""space""]",ji,4,testConjL3Syn//r1.s2.2.wav,1.0,conjunction_syn,syncopated,a,s2,rule,rule,L3,z,0.9321,7.0,1.0,1.4,3.0,2.0,Catalán,0.0,Español,3.0,Inglés,6.0,4.0,3.0,yes,no,yes,Piano,5,Clarinete,5,Canto,5,3. Algunas canciones me ponen los pelos de punta,3.0,Durante el último lenguaje mi cabeza ya estaba muy cansada y he empezado a tener un dolor de cabeza muy leve. ,61.0,yes
3,2024-04-13_18h18.46.940,Experiment4_uns,s162,21.0,feminino,right,España,CatalánEspañol,Bachelor degree,no,no,A,1,conjunction_syn,L3,syncopated,s2,r1,3,Online_conjL3_syn//d.ji.li7.1332.0.wav,li,ko,di,chu,sil,le,ji,mo,sil1,do,sil2,['catch'],[1.8106000000090035],[1.8106000000090035],1.332,no_beat,0.4786000000090034,0.4786000000090034,"[""space""]",ji,4,testConjL3Syn//dep_viol.r1.s2.0.wav,1.0,conjunction_syn,syncopated,a,s2,no_rule,dep,L3,z,1.1415,7.0,0.0,1.3674,3.0,2.0,Catalán,0.0,Español,3.0,Inglés,6.0,4.0,3.0,yes,no,yes,Piano,5,Clarinete,5,Canto,5,4. La música me hace compañía cuando estoy solo,3.0,Durante el último lenguaje mi cabeza ya estaba muy cansada y he empezado a tener un dolor de cabeza muy leve. ,61.0,yes
4,2024-04-13_18h18.46.940,Experiment4_uns,s162,21.0,feminino,right,España,CatalánEspañol,Bachelor degree,no,no,A,1,conjunction_syn,L3,syncopated,s1,r1,4,Online_conjL3_syn//b.ñe.sa28.none.none.wav,chu,ji,ga,mo,sil,fu,ka,di,sil1,gu,sil2,['-'],,,none,none,,,,ñe,1,testConjL3Syn//cat_viol.r2.s1.0.wav,1.0,conjunction_syn,syncopated,b,s1,no_rule,cat,L3,z,1.4177,7.0,0.0,1.2233,3.0,2.0,Catalán,0.0,Español,3.0,Inglés,6.0,4.0,3.0,yes,no,yes,Piano,5,Clarinete,5,Canto,5,5. No me apetece bailar ni con la música que más me gusta,4.0,Durante el último lenguaje mi cabeza ya estaba muy cansada y he empezado a tener un dolor de cabeza muy leve. ,61.0,yes
5,2024-04-13_18h18.46.940,Experiment4_uns,s162,21.0,feminino,right,España,CatalánEspañol,Bachelor degree,no,no,A,1,conjunction_syn,L3,syncopated,s1,r1,5,Online_conjL3_syn//b.ñe.sa30.none.none.wav,chu,ka,ji,mo,sil,je,gu,do,sil1,li,sil2,['false alarm'],[1.831200000002923],[1.831200000002923],none,none,,,"[""space""]",ñe,1,testConjL3Syn//cat_viol.r2.s2.0.wav,1.0,conjunction_syn,syncopated,b,s2,no_rule,cat,L3,z,0.8065,6.0,0.0,1.6344,3.0,2.0,Catalán,0.0,Español,3.0,Inglés,6.0,4.0,3.0,yes,no,yes,Piano,5,Clarinete,5,Canto,5,6. La música me hace conectar con la gente,3.0,Durante el último lenguaje mi cabeza ya estaba muy cansada y he empezado a tener un dolor de cabeza muy leve. ,61.0,yes
6,2024-04-13_18h18.46.940,Experiment4_uns,s162,21.0,feminino,right,España,CatalánEspañol,Bachelor degree,no,no,A,1,conjunction_syn,L3,syncopated,s1,r1,6,Online_conjL3_syn//b.ñe.sa31.none.none.wav,chu,fu,gu,mo,sil,le,ji,di,sil1,ka,sil2,['-'],,,none,none,,,,ñe,1,testConjL3Syn//dep_viol.r2.s1.0.wav,1.0,conjunction_syn,syncopated,b,s1,no_rule,dep,L3,z,0.7221,6.0,0.0,1.3747,3.0,2.0,Catalán,0.0,Español,3.0,Inglés,6.0,4.0,3.0,yes,no,yes,Piano,5,Clarinete,5,Canto,5,7. Me informo sobre la música que me gusta.,2.0,Durante el último lenguaje mi cabeza ya estaba muy cansada y he empezado a tener un dolor de cabeza muy leve. ,61.0,yes
7,2024-04-13_18h18.46.940,Experiment4_uns,s162,21.0,feminino,right,España,CatalánEspañol,Bachelor degree,no,no,A,1,conjunction_syn,L3,syncopated,s2,r2,7,Online_conjL3_syn//b.ñe.sa29.666.1554.wav,je,do,ga,ñe,sil,li,ka,sa,sil1,gu,sil2,['miss'],,,0.666,no_beat,,,,ñe,1,testConjL3Syn//r2.s2.1.wav,1.0,conjunction_syn,syncopated,b,s2,rule,rule,L3,z,1.2497,6.0,1.0,1.9221,3.0,2.0,Catalán,0.0,Español,3.0,Inglés,6.0,4.0,3.0,yes,no,yes,Piano,5,Clarinete,5,Canto,5,8.Me emociono escuchando ciertas canciones.,4.0,Durante el último lenguaje mi cabeza ya estaba muy cansada y he empezado a tener un dolor de cabeza muy leve. ,61.0,yes
8,2024-04-13_18h18.46.940,Experiment4_uns,s162,21.0,feminino,right,España,CatalánEspañol,Bachelor degree,no,no,A,1,conjunction_syn,L3,syncopated,s2,r1,8,Online_conjL3_syn//b.ñe.sa5.none.none.wav,le,fu,do,chu,sil,li,ga,mo,sil1,ka,sil2,['-'],,,none,none,,,,ñe,1,testConjL3Syn//time_viol.r2.s1.0.wav,1.0,conjunction_syn,syncopated,b,s1,no_rule,time,L3,z,0.9891,7.0,0.0,0.9895,3.0,2.0,Catalán,0.0,Español,3.0,Inglés,6.0,4.0,3.0,yes,no,yes,Piano,5,Clarinete,5,Canto,5,9.La música me tranquiliza y me relaja.,4.0,Durante el último lenguaje mi cabeza ya estaba muy cansada y he empezado a tener un dolor de cabeza muy leve. ,61.0,yes
9,2024-04-13_18h18.46.940,Experiment4_uns,s162,21.0,feminino,right,España,CatalánEspañol,Bachelor degree,no,no,A,1,conjunction_syn,L3,syncopated,s2,r1,9,Online_conjL3_syn//b.ñe.sa6.none.none.wav,le,ka,ko,chu,sil,do,li,mo,sil1,gu,sil2,['-'],,,none,none,,,,ñe,1,testConjL3Syn//time_viol.r2.s2.0.wav,1.0,conjunction_syn,syncopated,b,s2,no_rule,time,L3,z,1.3502,6.0,0.0,1.9084,3.0,2.0,Catalán,0.0,Español,3.0,Inglés,6.0,4.0,3.0,yes,no,yes,Piano,5,Clarinete,5,Canto,5,10.La música me hace bailar,3.0,Durante el último lenguaje mi cabeza ya estaba muy cansada y he empezado a tener un dolor de cabeza muy leve. ,61.0,yes
10,2024-04-13_18h18.46.940,Experiment4_uns,s162,21.0,feminino,right,España,CatalánEspañol,Bachelor degree,no,no,A,1,conjunction_syn,L3,syncopated,s2,r2,10,Online_conjL3_syn//b.ñe.sa7.666.1554.wav,ji,je,ko,ñe,sil,gu,ga,sa,sil1,do,sil2,['miss'],,,0.666,no_beat,,,,ñe,1,testConjL3Syn//r1.s1.2.wav,1.0,conjunction_syn,syncopated,a,s1,rule,rule,L3,z,0.9178,4.0,1.0,1.8667,3.0,2.0,Catalán,0.0,Español,3.0,Inglés,6.0,4.0,3.0,yes,no,yes,Piano,5,Clarinete,5,Canto,5,11.Busco novedades musicales continuamente,1.0,Durante el último lenguaje mi cabeza ya estaba muy cansada y he empezado a tener un dolor de cabeza muy leve. ,61.0,yes
11,2024-04-13_18h18.46.940,Experiment4_uns,s162,21.0,feminino,right,España,CatalánEspañol,Bachelor degree,no,no,A,1,conjunction_syn,L3,syncopated,s2,r2,11,Online_conjL3_syn//b.ñe.sa4.666.1554.wav,li,di,ka,ñe,sil,do,gu,sa,sil1,ji,sil2,['miss'],,,0.666,no_beat,,,,ñe,1,testConjL3Syn//r1.s2.1.wav,1.0,conjunction_syn,syncopated,a,s2,rule,rule,L3,z,1.1012,4.0,1.0,0.8052,3.0,2.0,Catalán,0.0,Español,3.0,Inglés,6.0,4.0,3.0,yes,no,yes,Piano,5,Clarinete,5,Canto,5,12. Puedo llorar cuando escucho algunas melodías que me gustan mucho.,4.0,Durante el último lenguaje mi cabeza ya estaba muy cansada y he empezado a tener un dolor de cabeza muy leve. ,61.0,yes
12,2024-04-13_18h18.46.940,Experiment4_uns,s162,21.0,feminino,right,España,CatalánEspañol,Bachelor degree,no,no,A,1,conjunction_syn,L3,syncopated,s1,r2,12,Online_conjL3_syn//c.gu.je27.none.none.wav,ñe,li,fu,sa,sil,di,le,ko,sil1,ji,sil2,['false alarm'],[0.05259999999407228],[0.05259999999407228],none,none,,,"[""space""]",gu,3,testConjL3Syn//r1.s1.0.wav,1.0,conjunction_syn,syncopated,a,s1,rule,rule,L3,z,1.8507,4.0,1.0,0.8844,3.0,2.0,Catalán,0.0,Español,3.0,Inglés,6.0,4.0,3.0,yes,no,yes,Piano,5,Clarinete,5,Canto,5,13. Me gusta cantar o tocar un instrumento con más gente,4.0,Durante el último lenguaje mi cabeza ya estaba muy cansada y he empezado a tener un dolor de cabeza muy leve. ,61.0,yes
13,2024-04-13_18h18.46.940,Experiment4_uns,s162,21.0,feminino,right,España,CatalánEspañol,Bachelor degree,no,no,A,1,conjunction_syn,L3,syncopated,s1,r1,13,Online_conjL3_syn//c.gu.je24.1554.1110.wav,chu,ji,ko,mo,sil,je,li,gu,sil1,ka,sil2,['catch'],[2.407799999996996],[2.407799999996996],1.554,no_beat,0.8537999999969961,0.8537999999969961,"[""space""]",gu,3,testConjL3Syn//dep_viol.r2.s2.0.wav,1.0,conjunction_syn,syncopated,b,s2,no_rule,dep,L3,z,1.8175,4.0,0.0,1.0008,3.0,2.0,Catalán,0.0,Español,3.0,Inglés,6.0,4.0,3.0,yes,no,yes,Piano,5,Clarinete,5,Canto,5,14. La música me ayuda a desconectar.,4.0,Durante el último lenguaje mi cabeza ya estaba muy cansada y he empezado a tener un dolor de cabeza muy leve. ,61.0,yes
14,2024-04-13_18h18.46.940,Experiment4_uns,s162,21.0,feminino,right,España,CatalánEspañol,Bachelor degree,no,no,A,1,conjunction_syn,L3,syncopated,s1,r1,14,Online_conjL3_syn//c.gu.je26.none.none.wav,chu,ji,do,mo,sil,ga,le,ko,sil1,ka,sil2,['-'],,,none,none,,,,gu,3,testConjL3Syn//r2.s1.0.wav,1.0,conjunction_syn,syncopated,b,s1,rule,rule,L3,m,2.3685,2.0,0.0,2.1335,3.0,2.0,Catalán,0.0,Español,3.0,Inglés,6.0,4.0,3.0,yes,no,yes,Piano,5,Clarinete,5,Canto,5,15. No puedo evitar tararear las canciones que me gustan cuando las escucho.,4.0,Durante el último lenguaje mi cabeza ya estaba muy cansada y he empezado a tener un dolor de cabeza muy leve. ,61.0,yes
15,2024-04-13_18h18.46.940,Experiment4_uns,s162,21.0,feminino,right,España,CatalánEspañol,Bachelor degree,no,no,A,1,conjunction_syn,L3,syncopated,s2,r2,15,Online_conjL3_syn//c.gu.je25.none.none.wav,fu,ka,di,ñe,sil,do,le,sa,sil1,ji,sil2,['-'],,,none,none,,,,gu,3,testConjL3Syn//time_viol.r1.s2.0.wav,1.0,conjunction_syn,syncopated,a,s2,no_rule,time,L3,z,0.3531,6.0,0.0,0.486,3.0,2.0,Catalán,0.0,Español,3.0,Inglés,6.0,4.0,3.0,yes,no,yes,Piano,5,Clarinete,5,Canto,5,16. En los conciertos me siento en sintonía con los artistas y el público.,3.0,Durante el último lenguaje mi cabeza ya estaba muy cansada y he empezado a tener un dolor de cabeza muy leve. ,61.0,yes
16,2024-04-13_18h18.46.940,Experiment4_uns,s162,21.0,feminino,right,España,CatalánEspañol,Bachelor degree,no,no,A,1,conjunction_syn,L3,syncopated,s1,r2,16,Online_conjL3_syn//b.ñe.sa1.0.666.wav,ñe,di,li,sa,sil,ga,ko,je,sil1,ji,sil2,['miss'],,,0.0,beat,,,,ñe,1,testConjL3Syn//cat_viol.r1.s1.0.wav,1.0,conjunction_syn,syncopated,a,s1,no_rule,cat,L3,m,0.7054,3.0,1.0,1.2166,3.0,2.0,Catalán,0.0,Español,3.0,Inglés,6.0,4.0,3.0,yes,no,yes,Piano,5,Clarinete,5,Canto,5,17. Me gasto bastante dinero en música y cosas relacionadas con la música.,1.0,Durante el último lenguaje mi cabeza ya estaba muy cansada y he empezado a tener un dolor de cabeza muy leve. ,61.0,yes
17,2024-04-13_18h18.46.940,Experiment4_uns,s162,21.0,feminino,right,España,CatalánEspañol,Bachelor degree,no,no,A,1,conjunction_syn,L3,syncopated,s1,r2,17,Online_conjL3_syn//b.ñe.sa0.0.666.wav,ñe,ji,fu,sa,sil,li,do,je,sil1,gu,sil2,['catch'],[0.8389999999999418],[0.8389999999999418],0.0,beat,0.8389999999999418,0.8389999999999418,"[""space""]",ñe,1,testConjL3Syn//r2.s1.1.wav,1.0,conjunction_syn,syncopated,b,s1,rule,rule,L3,m,0.5244,5.0,0.0,0.8005,3.0,2.0,Catalán,0.0,Español,3.0,Inglés,6.0,4.0,3.0,yes,no,yes,Piano,5,Clarinete,5,Canto,5,18. Siento escalofríos cuando escucho una melodía que me gusta.,1.0,Durante el último lenguaje mi cabeza ya estaba muy cansada y he empezado a tener un dolor de cabeza muy leve. ,61.0,yes
18,2024-04-13_18h18.46.940,Experiment4_uns,s162,21.0,feminino,right,España,CatalánEspañol,Bachelor degree,no,no,A,1,conjunction_syn,L3,syncopated,s1,r1,18,Online_conjL3_syn//b.ñe.sa2.none.none.wav,chu,fu,di,mo,sil,do,ga,li,sil1,ko,sil2,['-'],,,none,none,,,,ñe,1,testConjL3Syn//dep_viol.r1.s1.0.wav,1.0,conjunction_syn,syncopated,a,s1,no_rule,dep,L3,z,0.3735,4.0,0.0,0.9383,3.0,2.0,Catalán,0.0,Español,3.0,Inglés,6.0,4.0,3.0,yes,no,yes,Piano,5,Clarinete,5,Canto,5,19. Con la música me puedo desahogar.,3.0,Durante el último lenguaje mi cabeza ya estaba muy cansada y he empezado a tener un dolor de cabeza muy leve. ,61.0,yes
19,2024-04-13_18h18.46.940,Experiment4_uns,s162,21.0,feminino,right,España,CatalánEspañol,Bachelor degree,no,no,A,1,conjunction_syn,L3,syncopated,s1,r2,19,Online_conjL3_syn//b.ñe.sa3.0.666.wav,ñe,li,do,sa,sil,gu,ka,fu,sil1,ko,sil2,['catch'],[0.8232000000029984],[0.8232000000029984],0.0,beat,0.8232000000029984,0.8232000000029984,"[""space""]",ñe,1,testConjL3Syn//time_viol.r1.s1.0.wav,1.0,conjunction_syn,syncopated,a,s1,no_rule,time,L3,z,1.0833,5.0,0.0,0.4339,3.0,2.0,Catalán,0.0,Español,3.0,Inglés,6.0,4.0,3.0,yes,no,yes,Piano,5,Clarinete,5,Canto,5,20. Cuando escucho una melodía que me gusta mucho no puedo evitar mover el cuerpo.,3.0,Durante el último lenguaje mi cabeza ya estaba muy cansada y he empezado a tener un dolor de cabeza muy leve. ,61.0,yes
20,2024-04-13_18h18.46.940,Experiment4_uns,s162,21.0,feminino,right,España,CatalánEspañol,Bachelor degree,no,no,A,1,conjunction_syn,L3,syncopated,s2,r2,20,Online_conjL3_syn//a.chu.mo5.none.none.wav,fu,do,le,ñe,sil,di,ga,sa,sil1,ji,sil2,['-'],,,none,none,,,,mo,2,testConjL3Syn//r1.s2.0.wav,1.0,conjunction_syn,syncopated,a,s2,rule,rule,L3,z,0.4323,5.0,1.0,0.7172,3.0,2.0,Catalán,0.0,Español,3.0,Inglés,6.0,4.0,3.0,yes,no,yes,Piano,5,Clarinete,5,Canto,5,,,Durante el último lenguaje mi cabeza ya estaba muy cansada y he empezado a tener un dolor de cabeza muy leve. ,61.0,yes
21,2024-04-13_18h18.46.940,Experiment4_uns,s162,21.0,feminino,right,España,CatalánEspañol,Bachelor degree,no,no,A,1,conjunction_syn,L3,syncopated,s2,r2,21,Online_conjL3_syn//a.chu.mo4.none.none.wav,le,ji,gu,ñe,sil,li,ga,sa,sil1,ka,sil2,['-'],,,none,none,,,,mo,2,testConjL3Syn//cat_viol.r1.s2.0.wav,1.0,conjunction_syn,syncopated,a,s2,no_rule,cat,L3,z,0.4491,4.0,0.0,0.6335,3.0,2.0,Catalán,0.0,Español,3.0,Inglés,6.0,4.0,3.0,yes,no,yes,Piano,5,Clarinete,5,Canto,5,,,Durante el último lenguaje mi cabeza ya estaba muy cansada y he empezado a tener un dolor de cabeza muy leve. ,61.0,yes
22,2024-04-13_18h18.46.940,Experiment4_uns,s162,21.0,feminino,right,España,CatalánEspañol,Bachelor degree,no,no,A,1,conjunction_syn,L3,syncopated,s2,r1,22,Online_conjL3_syn//a.chu.mo6.666.1554.wav,ko,di,ga,chu,sil,li,gu,mo,sil1,do,sil2,['catch'],[2.305900000005977],[2.305900000005977],1.554,no_beat,0.7519000000059768,0.7519000000059768,"[""space""]",mo,2,testConjL3Syn//r2.s1.2.wav,1.0,conjunction_syn,syncopated,b,s1,rule,rule,L3,m,1.3705,3.0,0.0,0.5166,3.0,2.0,Catalán,0.0,Español,3.0,Inglés,6.0,4.0,3.0,yes,no,yes,Piano,5,Clarinete,5,Canto,5,,,Durante el último lenguaje mi cabeza ya estaba muy cansada y he empezado a tener un dolor de cabeza muy leve. ,61.0,yes
23,2024-04-13_18h18.46.940,Experiment4_uns,s162,21.0,feminino,right,España,CatalánEspañol,Bachelor degree,no,no,A,1,conjunction_syn,L3,syncopated,s2,r2,23,Online_conjL3_syn//a.chu.mo7.none.none.wav,ko,le,fu,ñe,sil,ka,gu,sa,sil1,do,sil2,['-'],,,none,none,,,,mo,2,testConjL3Syn//r2.s2.0.wav,1.0,conjunction_syn,syncopated,b,s2,rule,rule,L3,m,0.3673,3.0,0.0,0.3887,3.0,2.0,Catalán,0.0,Español,3.0,Inglés,6.0,4.0,3.0,yes,no,yes,Piano,5,Clarinete,5,Canto,5,,,Durante el último lenguaje mi cabeza ya estaba muy cansada y he empezado a tener un dolor de cabeza muy leve. ,61.0,yes
24,2024-04-13_18h18.46.940,Experiment4_uns,s162,21.0,feminino,right,España,CatalánEspañol,Bachelor degree,no,no,A,1,conjunction_syn,L3,syncopated,s1,r2,24,Online_conjL3_syn//d.ji.li26.1554.222.wav,ñe,li,je,sa,sil,fu,ga,ji,sil1,ka,sil2,['catch'],[2.2685000000000173],[2.2685000000000173],1.554,no_beat,0.7145000000000172,0.7145000000000172,"[""space""]",ji,4,testConjL4Uns//r2.s1.0.wav,2.0,conjunction_un,unsyncopated,b,s1,rule,rule,L4,z,1.2229,7.0,1.0,0.5677,3.0,2.0,Catalán,0.0,Español,3.0,Inglés,6.0,4.0,3.0,yes,no,yes,Piano,5,Clarinete,5,Canto,5,,,Durante el último lenguaje mi cabeza ya estaba muy cansada y he empezado a tener un dolor de cabeza muy leve. ,61.0,yes
25,2024-04-13_18h18.46.940,Experiment4_uns,s162,21.0,feminino,right,España,CatalánEspañol,Bachelor degree,no,no,A,1,conjunction_syn,L3,syncopated,s2,r1,25,Online_conjL3_syn//d.ji.li25.none.none.wav,le,fu,ka,chu,sil,ga,je,mo,sil1,gu,sil2,['-'],,,none,none,,,,ji,4,testConjL4Uns//cat_viol.r2.s1.0.wav,2.0,conjunction_un,unsyncopated,b,s1,no_rule,cat,L4,z,0.6412,7.0,0.0,0.5042,3.0,2.0,Catalán,0.0,Español,3.0,Inglés,6.0,4.0,3.0,yes,no,yes,Piano,5,Clarinete,5,Canto,5,,,Durante el último lenguaje mi cabeza ya estaba muy cansada y he empezado a tener un dolor de cabeza muy leve. ,61.0,yes
26,2024-04-13_18h18.46.940,Experiment4_uns,s162,21.0,feminino,right,España,CatalánEspañol,Bachelor degree,no,no,A,1,conjunction_syn,L3,syncopated,s1,r2,26,Online_conjL3_syn//d.ji.li24.222.1110.wav,ñe,ji,ga,sa,sil,li,fu,ka,sil1,di,sil2,['catch'],[0.9560999999939668],[0.9560999999939668],0.222,no_beat,0.7340999999939668,0.7340999999939668,"[""space""]",ji,4,testConjL4Uns//r1.s1.0.wav,2.0,conjunction_un,unsyncopated,a,s1,rule,rule,L4,m,0.701,4.0,0.0,0.5503,3.0,2.0,Catalán,0.0,Español,3.0,Inglés,6.0,4.0,3.0,yes,no,yes,Piano,5,Clarinete,5,Canto,5,,,Durante el último lenguaje mi cabeza ya estaba muy cansada y he empezado a tener un dolor de cabeza muy leve. ,61.0,yes
27,2024-04-13_18h18.46.940,Experiment4_uns,s162,21.0,feminino,right,España,CatalánEspañol,Bachelor degree,no,no,A,1,conjunction_syn,L3,syncopated,s1,r1,27,Online_conjL3_syn//d.ji.li27.none.none.wav,chu,je,ga,mo,sil,gu,do,le,sil1,ka,sil2,['-'],,,none,none,,,,ji,4,testConjL4Uns//r2.s2.2.wav,2.0,conjunction_un,unsyncopated,b,s2,rule,rule,L4,z,0.639,7.0,1.0,0.4517,3.0,2.0,Catalán,0.0,Español,3.0,Inglés,6.0,4.0,3.0,yes,no,yes,Piano,5,Clarinete,5,Canto,5,,,Durante el último lenguaje mi cabeza ya estaba muy cansada y he empezado a tener un dolor de cabeza muy leve. ,61.0,yes
28,2024-04-13_18h18.46.940,Experiment4_uns,s162,21.0,feminino,right,España,CatalánEspañol,Bachelor degree,no,no,A,1,conjunction_syn,L3,syncopated,s1,r2,28,Online_conjL3_syn//c.gu.je4.none.none.wav,ñe,ga,do,sa,sil,ji,ka,fu,sil1,li,sil2,['-'],,,none,none,,,,gu,3,testConjL4Uns//cat_viol.r2.s2.0.wav,2.0,conjunction_un,unsyncopated,b,s2,no_rule,cat,L4,m,0.6684,4.0,1.0,0.6834,3.0,2.0,Catalán,0.0,Español,3.0,Inglés,6.0,4.0,3.0,yes,no,yes,Piano,5,Clarinete,5,Canto,5,,,Durante el último lenguaje mi cabeza ya estaba muy cansada y he empezado a tener un dolor de cabeza muy leve. ,61.0,yes
29,2024-04-13_18h18.46.940,Experiment4_uns,s162,21.0,feminino,right,España,CatalánEspañol,Bachelor degree,no,no,A,1,conjunction_syn,L3,syncopated,s1,r2,29,Online_conjL3_syn//c.gu.je6.none.none.wav,ñe,di,ka,sa,sil,le,ko,do,sil1,ji,sil2,['-'],,,none,none,,,,gu,3,testConjL4Uns//r2.s2.1.wav,2.0,conjunction_un,unsyncopated,b,s2,rule,rule,L4,m,0.7342,4.0,0.0,0.4515,3.0,2.0,Catalán,0.0,Español,3.0,Inglés,6.0,4.0,3.0,yes,no,yes,Piano,5,Clarinete,5,Canto,5,,,Durante el último lenguaje mi cabeza ya estaba muy cansada y he empezado a tener un dolor de cabeza muy leve. ,61.0,yes
30,2024-04-13_18h18.46.940,Experiment4_uns,s162,21.0,feminino,right,España,CatalánEspañol,Bachelor degree,no,no,A,1,conjunction_syn,L3,syncopated,s2,r2,30,Online_conjL3_syn//c.gu.je7.222.444.wav,ko,gu,je,ñe,sil,ji,fu,sa,sil1,ka,sil2,['catch'],[1.0914999999999964],[1.0914999999999964],0.222,no_beat,0.8694999999999964,0.8694999999999964,"[""space""]",gu,3,testConjL4Uns//time_viol.r2.s1.0.wav,2.0,conjunction_un,unsyncopated,b,s1,no_rule,time,L4,z,0.3161,7.0,0.0,0.517,3.0,2.0,Catalán,0.0,Español,3.0,Inglés,6.0,4.0,3.0,yes,no,yes,Piano,5,Clarinete,5,Canto,5,,,Durante el último lenguaje mi cabeza ya estaba muy cansada y he empezado a tener un dolor de cabeza muy leve. ,61.0,yes
31,2024-04-13_18h18.46.940,Experiment4_uns,s162,21.0,feminino,right,España,CatalánEspañol,Bachelor degree,no,no,A,1,conjunction_syn,L3,syncopated,s2,r2,31,Online_conjL3_syn//c.gu.je5.1332.222.wav,li,je,ko,ñe,sil,di,gu,sa,sil1,do,sil2,['catch'],[2.243900000005965],[2.243900000005965],1.332,no_beat,0.9119000000059648,0.9119000000059648,"[""space""]",gu,3,testConjL4Uns//time_viol.r1.s1.0.wav,2.0,conjunction_un,unsyncopated,a,s1,no_rule,time,L4,z,0.355,6.0,0.0,0.383,3.0,2.0,Catalán,0.0,Español,3.0,Inglés,6.0,4.0,3.0,yes,no,yes,Piano,5,Clarinete,5,Canto,5,,,Durante el último lenguaje mi cabeza ya estaba muy cansada y he empezado a tener un dolor de cabeza muy leve. ,61.0,yes
32,2024-04-13_18h18.46.940,Experiment4_uns,s162,21.0,feminino,right,España,CatalánEspañol,Bachelor degree,no,no,A,1,conjunction_syn,L3,syncopated,s2,r2,32,Online_conjL3_syn//d.ji.li29.none.none.wav,ka,gu,di,ñe,sil,ko,ga,sa,sil1,le,sil2,['-'],,,none,none,,,,ji,4,testConjL4Uns//r1.s2.1.wav,2.0,conjunction_un,unsyncopated,a,s2,rule,rule,L4,m,0.2756,3.0,0.0,0.523,3.0,2.0,Catalán,0.0,Español,3.0,Inglés,6.0,4.0,3.0,yes,no,yes,Piano,5,Clarinete,5,Canto,5,,,Durante el último lenguaje mi cabeza ya estaba muy cansada y he empezado a tener un dolor de cabeza muy leve. ,61.0,yes
33,2024-04-13_18h18.46.940,Experiment4_uns,s162,21.0,feminino,right,España,CatalánEspañol,Bachelor degree,no,no,A,1,conjunction_syn,L3,syncopated,s2,r1,33,Online_conjL3_syn//d.ji.li31.0.222.wav,ji,li,ko,chu,sil,do,ga,mo,sil1,je,sil2,['catch'],[0.6552999999970552],[0.6552999999970552],0.0,beat,0.6552999999970552,0.6552999999970552,"[""space""]",ji,4,testConjL4Uns//cat_viol.r1.s2.0.wav,2.0,conjunction_un,unsyncopated,a,s2,no_rule,cat,L4,z,0.2835,6.0,0.0,0.4712,3.0,2.0,Catalán,0.0,Español,3.0,Inglés,6.0,4.0,3.0,yes,no,yes,Piano,5,Clarinete,5,Canto,5,,,Durante el último lenguaje mi cabeza ya estaba muy cansada y he empezado a tener un dolor de cabeza muy leve. ,61.0,yes
34,2024-04-13_18h18.46.940,Experiment4_uns,s162,21.0,feminino,right,España,CatalánEspañol,Bachelor degree,no,no,A,1,conjunction_syn,L3,syncopated,s1,r2,34,Online_conjL3_syn//d.ji.li30.none.none.wav,ñe,je,fu,sa,sil,ga,do,le,sil1,di,sil2,['-'],,,none,none,,,,ji,4,testConjL4Uns//r2.s2.0.wav,2.0,conjunction_un,unsyncopated,b,s2,rule,rule,L4,z,0.2222,6.0,1.0,0.469,3.0,2.0,Catalán,0.0,Español,3.0,Inglés,6.0,4.0,3.0,yes,no,yes,Piano,5,Clarinete,5,Canto,5,,,Durante el último lenguaje mi cabeza ya estaba muy cansada y he empezado a tener un dolor de cabeza muy leve. ,61.0,yes
35,2024-04-13_18h18.46.940,Experiment4_uns,s162,21.0,feminino,right,España,CatalánEspañol,Bachelor degree,no,no,A,1,conjunction_syn,L3,syncopated,s2,r2,35,Online_conjL3_syn//d.ji.li28.none.none.wav,fu,ka,ga,ñe,sil,di,gu,sa,sil1,je,sil2,['-'],,,none,none,,,,ji,4,testConjL4Uns//dep_viol.r2.s1.0.wav,2.0,conjunction_un,unsyncopated,b,s1,no_rule,dep,L4,m,0.7565,3.0,1.0,0.4995,3.0,2.0,Catalán,0.0,Español,3.0,Inglés,6.0,4.0,3.0,yes,no,yes,Piano,5,Clarinete,5,Canto,5,,,Durante el último lenguaje mi cabeza ya estaba muy cansada y he empezado a tener un dolor de cabeza muy leve. ,61.0,yes
36,2024-04-13_18h18.46.940,Experiment4_uns,s162,21.0,feminino,right,España,CatalánEspañol,Bachelor degree,no,no,A,1,conjunction_syn,L3,syncopated,s2,r1,36,Online_conjL3_syn//b.ñe.sa23.none.none.wav,ka,le,di,chu,sil,je,gu,mo,sil1,ji,sil2,['-'],,,none,none,,,,ñe,1,testConjL4Uns//dep_viol.r2.s2.0.wav,2.0,conjunction_un,unsyncopated,b,s2,no_rule,dep,L4,m,0.3323,5.0,1.0,0.6232,3.0,2.0,Catalán,0.0,Español,3.0,Inglés,6.0,4.0,3.0,yes,no,yes,Piano,5,Clarinete,5,Canto,5,,,Durante el último lenguaje mi cabeza ya estaba muy cansada y he empezado a tener un dolor de cabeza muy leve. ,61.0,yes
37,2024-04-13_18h18.46.940,Experiment4_uns,s162,21.0,feminino,right,España,CatalánEspañol,Bachelor degree,no,no,A,1,conjunction_syn,L3,syncopated,s2,r2,37,Online_conjL3_syn//b.ñe.sa21.666.1554.wav,le,di,gu,ñe,sil,ga,je,sa,sil1,li,sil2,['miss'],,,0.666,no_beat,,,,ñe,1,testConjL4Uns//time_viol.r2.s2.0.wav,2.0,conjunction_un,unsyncopated,b,s2,no_rule,time,L4,m,3.0327,6.0,1.0,0.4098,3.0,2.0,Catalán,0.0,Español,3.0,Inglés,6.0,4.0,3.0,yes,no,yes,Piano,5,Clarinete,5,Canto,5,,,Durante el último lenguaje mi cabeza ya estaba muy cansada y he empezado a tener un dolor de cabeza muy leve. ,61.0,yes
38,2024-04-13_18h18.46.940,Experiment4_uns,s162,21.0,feminino,right,España,CatalánEspañol,Bachelor degree,no,no,A,1,conjunction_syn,L3,syncopated,s1,r1,38,Online_conjL3_syn//b.ñe.sa22.none.none.wav,chu,di,li,mo,sil,le,fu,gu,sil1,je,sil2,['-'],,,none,none,,,,ñe,1,testConjL4Uns//r1.s1.1.wav,2.0,conjunction_un,unsyncopated,a,s1,rule,rule,L4,m,0.0849,5.0,0.0,0.5512,3.0,2.0,Catalán,0.0,Español,3.0,Inglés,6.0,4.0,3.0,yes,no,yes,Piano,5,Clarinete,5,Canto,5,,,Durante el último lenguaje mi cabeza ya estaba muy cansada y he empezado a tener un dolor de cabeza muy leve. ,61.0,yes
39,2024-04-13_18h18.46.940,Experiment4_uns,s162,21.0,feminino,right,España,CatalánEspañol,Bachelor degree,no,no,A,1,conjunction_syn,L3,syncopated,s2,r2,39,Online_conjL3_syn//b.ñe.sa20.666.1554.wav,le,di,ka,ñe,sil,li,je,sa,sil1,ko,sil2,['miss'],,,0.666,no_beat,,,,ñe,1,testConjL4Uns//r1.s2.0.wav,2.0,conjunction_un,unsyncopated,a,s2,rule,rule,L4,m,0.3168,6.0,0.0,0.4665,3.0,2.0,Catalán,0.0,Español,3.0,Inglés,6.0,4.0,3.0,yes,no,yes,Piano,5,Clarinete,5,Canto,5,,,Durante el último lenguaje mi cabeza ya estaba muy cansada y he empezado a tener un dolor de cabeza muy leve. ,61.0,yes
40,2024-04-13_18h18.46.940,Experiment4_uns,s162,21.0,feminino,right,España,CatalánEspañol,Bachelor degree,no,no,A,1,conjunction_syn,L3,syncopated,s2,r2,40,Online_conjL3_syn//c.gu.je21.none.none.wav,fu,ko,le,ñe,sil,li,do,sa,sil1,ji,sil2,['-'],,,none,none,,,,gu,3,testConjL4Uns//cat_viol.r1.s1.0.wav,2.0,conjunction_un,unsyncopated,a,s1,no_rule,cat,L4,m,0.072,6.0,1.0,0.5664,3.0,2.0,Catalán,0.0,Español,3.0,Inglés,6.0,4.0,3.0,yes,no,yes,Piano,5,Clarinete,5,Canto,5,,,Durante el último lenguaje mi cabeza ya estaba muy cansada y he empezado a tener un dolor de cabeza muy leve. ,61.0,yes
41,2024-04-13_18h18.46.940,Experiment4_uns,s162,21.0,feminino,right,España,CatalánEspañol,Bachelor degree,no,no,A,1,conjunction_syn,L3,syncopated,s2,r2,41,Online_conjL3_syn//c.gu.je23.222.444.wav,li,gu,je,ñe,sil,ko,ga,sa,sil1,le,sil2,['catch'],[1.0789999999999509],[1.0789999999999509],0.222,no_beat,0.8569999999999509,0.8569999999999509,"[""space""]",gu,3,testConjL4Uns//r2.s1.2.wav,2.0,conjunction_un,unsyncopated,b,s1,rule,rule,L4,m,0.3331,6.0,0.0,0.6671,3.0,2.0,Catalán,0.0,Español,3.0,Inglés,6.0,4.0,3.0,yes,no,yes,Piano,5,Clarinete,5,Canto,5,,,Durante el último lenguaje mi cabeza ya estaba muy cansada y he empezado a tener un dolor de cabeza muy leve. ,61.0,yes
42,2024-04-13_18h18.46.940,Experiment4_uns,s162,21.0,feminino,right,España,CatalánEspañol,Bachelor degree,no,no,A,1,conjunction_syn,L3,syncopated,s1,r2,42,Online_conjL3_syn//c.gu.je22.1554.444.wav,ñe,li,je,sa,sil,ji,ka,gu,sil1,di,sil2,['catch'],[2.3722000000029766],[2.3722000000029766],1.554,no_beat,0.8182000000029765,0.8182000000029765,"[""space""]",gu,3,testConjL4Uns//dep_viol.r1.s2.0.wav,2.0,conjunction_un,unsyncopated,a,s2,no_rule,dep,L4,m,0.1332,5.0,1.0,0.4565,3.0,2.0,Catalán,0.0,Español,3.0,Inglés,6.0,4.0,3.0,yes,no,yes,Piano,5,Clarinete,5,Canto,5,,,Durante el último lenguaje mi cabeza ya estaba muy cansada y he empezado a tener un dolor de cabeza muy leve. ,61.0,yes
43,2024-04-13_18h18.46.940,Experiment4_uns,s162,21.0,feminino,right,España,CatalánEspañol,Bachelor degree,no,no,A,1,conjunction_syn,L3,syncopated,s1,r2,43,Online_conjL3_syn//c.gu.je20.1554.1110.wav,ñe,fu,di,sa,sil,je,ka,gu,sil1,le,sil2,['catch'],[2.1602999999970507],[2.1602999999970507],1.554,no_beat,0.6062999999970506,0.6062999999970506,"[""space""]",gu,3,testConjL4Uns//r1.s2.2.wav,2.0,conjunction_un,unsyncopated,a,s2,rule,rule,L4,m,0.2073,5.0,0.0,0.4749,3.0,2.0,Catalán,0.0,Español,3.0,Inglés,6.0,4.0,3.0,yes,no,yes,Piano,5,Clarinete,5,Canto,5,,,Durante el último lenguaje mi cabeza ya estaba muy cansada y he empezado a tener un dolor de cabeza muy leve. ,61.0,yes
44,2024-04-13_18h18.46.940,Experiment4_uns,s162,21.0,feminino,right,España,CatalánEspañol,Bachelor degree,no,no,A,1,conjunction_syn,L3,syncopated,s2,r1,44,Online_conjL3_syn//a.chu.mo23.666.1554.wav,gu,ga,le,chu,sil,fu,je,mo,sil1,ka,sil2,['catch'],[2.1527000000029375],[2.1527000000029375],1.554,no_beat,0.5987000000029374,0.5987000000029374,"[""space""]",mo,2,testConjL4Uns//r1.s1.2.wav,2.0,conjunction_un,unsyncopated,a,s1,rule,rule,L4,m,0.5161,5.0,0.0,0.4669,3.0,2.0,Catalán,0.0,Español,3.0,Inglés,6.0,4.0,3.0,yes,no,yes,Piano,5,Clarinete,5,Canto,5,,,Durante el último lenguaje mi cabeza ya estaba muy cansada y he empezado a tener un dolor de cabeza muy leve. ,61.0,yes
45,2024-04-13_18h18.46.940,Experiment4_uns,s162,21.0,feminino,right,España,CatalánEspañol,Bachelor degree,no,no,A,1,conjunction_syn,L3,syncopated,s1,r1,45,Online_conjL3_syn//a.chu.mo20.0.666.wav,chu,do,li,mo,sil,je,ka,ga,sil1,gu,sil2,['catch'],[1.4122999999970034],[1.4122999999970034],0.666,no_beat,0.7462999999970034,0.7462999999970034,"[""space""]",mo,2,testConjL4Uns//dep_viol.r1.s1.0.wav,2.0,conjunction_un,unsyncopated,a,s1,no_rule,dep,L4,m,0.3017,5.0,1.0,0.4727,3.0,2.0,Catalán,0.0,Español,3.0,Inglés,6.0,4.0,3.0,yes,no,yes,Piano,5,Clarinete,5,Canto,5,,,Durante el último lenguaje mi cabeza ya estaba muy cansada y he empezado a tener un dolor de cabeza muy leve. ,61.0,yes
46,2024-04-13_18h18.46.940,Experiment4_uns,s162,21.0,feminino,right,España,CatalánEspañol,Bachelor degree,no,no,A,1,conjunction_syn,L3,syncopated,s2,r1,46,Online_conjL3_syn//a.chu.mo22.666.1554.wav,ka,li,le,chu,sil,di,ko,mo,sil1,je,sil2,['catch'],[2.172299999997108],[2.172299999997108],1.554,no_beat,0.6182999999971079,0.6182999999971079,"[""space""]",mo,2,testConjL4Uns//time_viol.r1.s2.0.wav,2.0,conjunction_un,unsyncopated,a,s2,no_rule,time,L4,m,0.322,6.0,1.0,0.4432,3.0,2.0,Catalán,0.0,Español,3.0,Inglés,6.0,4.0,3.0,yes,no,yes,Piano,5,Clarinete,5,Canto,5,,,Durante el último lenguaje mi cabeza ya estaba muy cansada y he empezado a tener un dolor de cabeza muy leve. ,61.0,yes
47,2024-04-13_18h18.46.940,Experiment4_uns,s162,21.0,feminino,right,España,CatalánEspañol,Bachelor degree,no,no,A,1,conjunction_syn,L3,syncopated,s2,r1,47,Online_conjL3_syn//a.chu.mo21.666.1554.wav,gu,ka,je,chu,sil,do,ko,mo,sil1,li,sil2,['catch'],[2.3263000000118836],[2.3263000000118836],1.554,no_beat,0.7723000000118836,0.7723000000118836,"[""space""]",mo,2,testConjL4Uns//r2.s1.1.wav,2.0,conjunction_un,unsyncopated,b,s1,rule,rule,L4,m,0.7569,5.0,0.0,0.476,3.0,2.0,Catalán,0.0,Español,3.0,Inglés,6.0,4.0,3.0,yes,no,yes,Piano,5,Clarinete,5,Canto,5,,,Durante el último lenguaje mi cabeza ya estaba muy cansada y he empezado a tener un dolor de cabeza muy leve. ,61.0,yes
48,2024-04-13_18h18.46.940,Experiment4_uns,s162,21.0,feminino,right,España,CatalánEspañol,Bachelor degree,no,no,A,1,conjunction_syn,L3,syncopated,s1,r2,48,Online_conjL3_syn//a.chu.mo8.none.none.wav,ñe,ga,fu,sa,sil,ji,li,je,sil1,le,sil2,['-'],,,none,none,,,,mo,2,testWhenL2Uns//r1.s2.2.wav,3.0,when,unsyncopated,a,s2,rule,rule,L2,z,0.6835,5.0,1.0,0.2451,3.0,2.0,Catalán,0.0,Español,3.0,Inglés,6.0,4.0,3.0,yes,no,yes,Piano,5,Clarinete,5,Canto,5,,,Durante el último lenguaje mi cabeza ya estaba muy cansada y he empezado a tener un dolor de cabeza muy leve. ,61.0,yes
49,2024-04-13_18h18.46.940,Experiment4_uns,s162,21.0,feminino,right,España,CatalánEspañol,Bachelor degree,no,no,A,1,conjunction_syn,L3,syncopated,s2,r1,49,Online_conjL3_syn//a.chu.mo9.666.1554.wav,ka,ko,di,chu,sil,li,ga,mo,sil1,gu,sil2,['catch'],[2.1215999999940323],[2.1215999999940323],1.554,no_beat,0.5675999999940322,0.5675999999940322,"[""space""]",mo,2,testWhenL2Uns//r2.s1.1.wav,3.0,when,unsyncopated,b,s1,rule,rule,L2,m,0.1337,2.0,0.0,0.2888,3.0,2.0,Catalán,0.0,Español,3.0,Inglés,6.0,4.0,3.0,yes,no,yes,Piano,5,Clarinete,5,Canto,5,,,Durante el último lenguaje mi cabeza ya estaba muy cansada y he empezado a tener un dolor de cabeza muy leve. ,61.0,yes
50,2024-04-13_18h18.46.940,Experiment4_uns,s162,21.0,feminino,right,España,CatalánEspañol,Bachelor degree,no,no,A,1,conjunction_syn,L3,syncopated,s1,r2,50,Online_conjL3_syn//a.chu.mo10.none.none.wav,ñe,je,gu,sa,sil,ko,fu,ji,sil1,di,sil2,['-'],,,none,none,,,,mo,2,testWhenL2Uns//dep_viol.r2.s2.0.wav,3.0,when,unsyncopated,b,s2,no_rule,dep,L2,m,0.0672,2.0,0.0,0.2505,3.0,2.0,Catalán,0.0,Español,3.0,Inglés,6.0,4.0,3.0,yes,no,yes,Piano,5,Clarinete,5,Canto,5,,,Durante el último lenguaje mi cabeza ya estaba muy cansada y he empezado a tener un dolor de cabeza muy leve. ,61.0,yes
51,2024-04-13_18h18.46.940,Experiment4_uns,s162,21.0,feminino,right,España,CatalánEspañol,Bachelor degree,no,no,A,1,conjunction_syn,L3,syncopated,s2,r2,51,Online_conjL3_syn//a.chu.mo11.none.none.wav,ka,di,je,ñe,sil,ga,ko,sa,sil1,ji,sil2,['-'],,,none,none,,,,mo,2,testWhenL2Uns//cat_viol.r1.s2.0.wav,3.0,when,unsyncopated,a,s2,no_rule,cat,L2,z,2.9855,4.0,1.0,0.3382,3.0,2.0,Catalán,0.0,Español,3.0,Inglés,6.0,4.0,3.0,yes,no,yes,Piano,5,Clarinete,5,Canto,5,,,Durante el último lenguaje mi cabeza ya estaba muy cansada y he empezado a tener un dolor de cabeza muy leve. ,61.0,yes
52,2024-04-13_18h18.46.940,Experiment4_uns,s162,21.0,feminino,right,España,CatalánEspañol,Bachelor degree,no,no,A,1,conjunction_syn,L3,syncopated,s1,r1,52,Online_conjL3_syn//a.chu.mo3.0.666.wav,chu,li,do,mo,sil,je,ji,fu,sil1,ga,sil2,['catch'],[1.2764999999999418],[1.2764999999999418],0.666,no_beat,0.6104999999999418,0.6104999999999418,"[""space""]",mo,2,testWhenL2Uns//r1.s2.1.wav,3.0,when,unsyncopated,a,s2,rule,rule,L2,m,1.5098,2.0,0.0,0.2723,3.0,2.0,Catalán,0.0,Español,3.0,Inglés,6.0,4.0,3.0,yes,no,yes,Piano,5,Clarinete,5,Canto,5,,,Durante el último lenguaje mi cabeza ya estaba muy cansada y he empezado a tener un dolor de cabeza muy leve. ,61.0,yes
53,2024-04-13_18h18.46.940,Experiment4_uns,s162,21.0,feminino,right,España,CatalánEspañol,Bachelor degree,no,no,A,1,conjunction_syn,L3,syncopated,s2,r1,53,Online_conjL3_syn//a.chu.mo2.666.1554.wav,ka,ko,fu,chu,sil,le,je,mo,sil1,gu,sil2,['catch'],[2.1449000000059186],[2.1449000000059186],1.554,no_beat,0.5909000000059186,0.5909000000059186,"[""space""]",mo,2,testWhenL2Uns//time_viol.r2.s1.0.wav,3.0,when,unsyncopated,b,s1,no_rule,time,L2,z,0.2392,3.0,1.0,0.334,3.0,2.0,Catalán,0.0,Español,3.0,Inglés,6.0,4.0,3.0,yes,no,yes,Piano,5,Clarinete,5,Canto,5,,,Durante el último lenguaje mi cabeza ya estaba muy cansada y he empezado a tener un dolor de cabeza muy leve. ,61.0,yes
54,2024-04-13_18h18.46.940,Experiment4_uns,s162,21.0,feminino,right,España,CatalánEspañol,Bachelor degree,no,no,A,1,conjunction_syn,L3,syncopated,s1,r1,54,Online_conjL3_syn//a.chu.mo0.0.666.wav,chu,do,ji,mo,sil,ka,ko,di,sil1,li,sil2,['catch'],[1.3058999999910839],[1.3058999999910839],0.666,no_beat,0.6398999999910838,0.6398999999910838,"[""space""]",mo,2,testWhenL2Uns//cat_viol.r1.s1.0.wav,3.0,when,unsyncopated,a,s1,no_rule,cat,L2,z,0.0341,6.0,1.0,0.3393,3.0,2.0,Catalán,0.0,Español,3.0,Inglés,6.0,4.0,3.0,yes,no,yes,Piano,5,Clarinete,5,Canto,5,,,Durante el último lenguaje mi cabeza ya estaba muy cansada y he empezado a tener un dolor de cabeza muy leve. ,61.0,yes
55,2024-04-13_18h18.46.940,Experiment4_uns,s162,21.0,feminino,right,España,CatalánEspañol,Bachelor degree,no,no,A,1,conjunction_syn,L3,syncopated,s1,r2,55,Online_conjL3_syn//a.chu.mo1.none.none.wav,ñe,le,ko,sa,sil,gu,do,di,sil1,ka,sil2,['-'],,,none,none,,,,mo,2,testWhenL2Uns//r1.s1.2.wav,3.0,when,unsyncopated,a,s1,rule,rule,L2,z,1.4836,4.0,1.0,0.1913,3.0,2.0,Catalán,0.0,Español,3.0,Inglés,6.0,4.0,3.0,yes,no,yes,Piano,5,Clarinete,5,Canto,5,,,Durante el último lenguaje mi cabeza ya estaba muy cansada y he empezado a tener un dolor de cabeza muy leve. ,61.0,yes
56,2024-04-13_18h18.46.940,Experiment4_uns,s162,21.0,feminino,right,España,CatalánEspañol,Bachelor degree,no,no,A,1,conjunction_syn,L3,syncopated,s1,r2,56,Online_conjL3_syn//c.gu.je15.1554.444.wav,ñe,le,je,sa,sil,fu,do,gu,sil1,ga,sil2,['catch'],[2.1697999999970534],[2.1697999999970534],1.554,no_beat,0.6157999999970534,0.6157999999970534,"[""space""]",gu,3,testWhenL2Uns//dep_viol.r2.s1.0.wav,3.0,when,unsyncopated,b,s1,no_rule,dep,L2,m,0.15,3.0,0.0,0.7004,3.0,2.0,Catalán,0.0,Español,3.0,Inglés,6.0,4.0,3.0,yes,no,yes,Piano,5,Clarinete,5,Canto,5,,,Durante el último lenguaje mi cabeza ya estaba muy cansada y he empezado a tener un dolor de cabeza muy leve. ,61.0,yes
57,2024-04-13_18h18.46.940,Experiment4_uns,s162,21.0,feminino,right,España,CatalánEspañol,Bachelor degree,no,no,A,1,conjunction_syn,L3,syncopated,s1,r1,57,Online_conjL3_syn//c.gu.je13.none.none.wav,chu,le,ka,mo,sil,fu,ko,do,sil1,ji,sil2,['false alarm'],[2.388900000005947],[2.388900000005947],none,none,,,"[""space""]",gu,3,testWhenL2Uns//time_viol.r2.s2.0.wav,3.0,when,unsyncopated,b,s2,no_rule,time,L2,m,1.1249,3.0,0.0,0.2558,3.0,2.0,Catalán,0.0,Español,3.0,Inglés,6.0,4.0,3.0,yes,no,yes,Piano,5,Clarinete,5,Canto,5,,,Durante el último lenguaje mi cabeza ya estaba muy cansada y he empezado a tener un dolor de cabeza muy leve. ,61.0,yes
58,2024-04-13_18h18.46.940,Experiment4_uns,s162,21.0,feminino,right,España,CatalánEspañol,Bachelor degree,no,no,A,1,conjunction_syn,L3,syncopated,s2,r2,58,Online_conjL3_syn//c.gu.je12.none.none.wav,ka,ji,li,ñe,sil,do,ga,sa,sil1,fu,sil2,['-'],,,none,none,,,,gu,3,testWhenL2Uns//cat_viol.r2.s2.0.wav,3.0,when,unsyncopated,b,s2,no_rule,cat,L2,z,0.35,3.0,1.0,0.3671,3.0,2.0,Catalán,0.0,Español,3.0,Inglés,6.0,4.0,3.0,yes,no,yes,Piano,5,Clarinete,5,Canto,5,,,Durante el último lenguaje mi cabeza ya estaba muy cansada y he empezado a tener un dolor de cabeza muy leve. ,61.0,yes
59,2024-04-13_18h18.46.940,Experiment4_uns,s162,21.0,feminino,right,España,CatalánEspañol,Bachelor degree,no,no,A,1,conjunction_syn,L3,syncopated,s2,r1,59,Online_conjL3_syn//c.gu.je14.none.none.wav,ka,ko,ga,chu,sil,fu,do,mo,sil1,ji,sil2,['-'],,,none,none,,,,gu,3,testWhenL2Uns//r1.s1.1.wav,3.0,when,unsyncopated,a,s1,rule,rule,L2,z,0.2729,4.0,1.0,0.3872,3.0,2.0,Catalán,0.0,Español,3.0,Inglés,6.0,4.0,3.0,yes,no,yes,Piano,5,Clarinete,5,Canto,5,,,Durante el último lenguaje mi cabeza ya estaba muy cansada y he empezado a tener un dolor de cabeza muy leve. ,61.0,yes
60,2024-04-13_18h18.46.940,Experiment4_uns,s162,21.0,feminino,right,España,CatalánEspañol,Bachelor degree,no,no,A,1,conjunction_syn,L3,syncopated,s2,r1,60,Online_conjL3_syn//c.gu.je18.1110.0.wav,je,di,ka,chu,sil,gu,ko,mo,sil1,li,sil2,['catch'],[1.7239000000059832],[1.7239000000059832],1.11,no_beat,0.6139000000059831,0.6139000000059831,"[""space""]",gu,3,testWhenL2Uns//r2.s2.0.wav,3.0,when,unsyncopated,b,s2,rule,rule,L2,m,0.2758,3.0,0.0,0.4174,3.0,2.0,Catalán,0.0,Español,3.0,Inglés,6.0,4.0,3.0,yes,no,yes,Piano,5,Clarinete,5,Canto,5,,,Durante el último lenguaje mi cabeza ya estaba muy cansada y he empezado a tener un dolor de cabeza muy leve. ,61.0,yes
61,2024-04-13_18h18.46.940,Experiment4_uns,s162,21.0,feminino,right,España,CatalánEspañol,Bachelor degree,no,no,A,1,conjunction_syn,L3,syncopated,s2,r2,61,Online_conjL3_syn//c.gu.je17.222.1110.wav,fu,gu,le,ñe,sil,je,ka,sa,sil1,ko,sil2,['catch'],[0.8604000000060523],[0.8604000000060523],0.222,no_beat,0.6384000000060523,0.6384000000060523,"[""space""]",gu,3,testWhenL2Uns//r2.s2.2.wav,3.0,when,unsyncopated,b,s2,rule,rule,L2,m,0.1661,3.0,0.0,0.3839,3.0,2.0,Catalán,0.0,Español,3.0,Inglés,6.0,4.0,3.0,yes,no,yes,Piano,5,Clarinete,5,Canto,5,,,Durante el último lenguaje mi cabeza ya estaba muy cansada y he empezado a tener un dolor de cabeza muy leve. ,61.0,yes
62,2024-04-13_18h18.46.940,Experiment4_uns,s162,21.0,feminino,right,España,CatalánEspañol,Bachelor degree,no,no,A,1,conjunction_syn,L3,syncopated,s2,r2,62,Online_conjL3_syn//c.gu.je19.none.none.wav,fu,le,li,ñe,sil,ji,ka,sa,sil1,di,sil2,['-'],,,none,none,,,,gu,3,testWhenL2Uns//r2.s2.1.wav,3.0,when,unsyncopated,b,s2,rule,rule,L2,m,0.4671,3.0,0.0,0.4362,3.0,2.0,Catalán,0.0,Español,3.0,Inglés,6.0,4.0,3.0,yes,no,yes,Piano,5,Clarinete,5,Canto,5,,,Durante el último lenguaje mi cabeza ya estaba muy cansada y he empezado a tener un dolor de cabeza muy leve. ,61.0,yes
63,2024-04-13_18h18.46.940,Experiment4_uns,s162,21.0,feminino,right,España,CatalánEspañol,Bachelor degree,no,no,A,1,conjunction_syn,L3,syncopated,s2,r1,63,Online_conjL3_syn//c.gu.je16.1332.444.wav,fu,ga,je,chu,sil,do,gu,mo,sil1,ji,sil2,['catch'],[2.1892999999969334],[2.1892999999969334],1.332,no_beat,0.8572999999969333,0.8572999999969333,"[""space""]",gu,3,testWhenL2Uns//r1.s2.0.wav,3.0,when,unsyncopated,a,s2,rule,rule,L2,m,0.2603,4.0,0.0,0.4505,3.0,2.0,Catalán,0.0,Español,3.0,Inglés,6.0,4.0,3.0,yes,no,yes,Piano,5,Clarinete,5,Canto,5,,,Durante el último lenguaje mi cabeza ya estaba muy cansada y he empezado a tener un dolor de cabeza muy leve. ,61.0,yes
64,2024-04-13_18h18.46.940,Experiment4_uns,s162,21.0,feminino,right,España,CatalánEspañol,Bachelor degree,no,no,A,1,conjunction_syn,L3,syncopated,s2,r2,64,Online_conjL3_syn//d.ji.li9.none.none.wav,ka,le,do,ñe,sil,fu,ko,sa,sil1,je,sil2,['-'],,,none,none,,,,ji,4,testWhenL2Uns//time_viol.r1.s2.0.wav,3.0,when,unsyncopated,a,s2,no_rule,time,L2,z,1.6504,4.0,1.0,0.3005,3.0,2.0,Catalán,0.0,Español,3.0,Inglés,6.0,4.0,3.0,yes,no,yes,Piano,5,Clarinete,5,Canto,5,,,Durante el último lenguaje mi cabeza ya estaba muy cansada y he empezado a tener un dolor de cabeza muy leve. ,61.0,yes
65,2024-04-13_18h18.46.940,Experiment4_uns,s162,21.0,feminino,right,España,CatalánEspañol,Bachelor degree,no,no,A,1,conjunction_syn,L3,syncopated,s1,r1,65,Online_conjL3_syn//d.ji.li10.1554.444.wav,chu,je,li,mo,sil,do,fu,ji,sil1,ko,sil2,['catch'],[2.1885999999940395],[2.1885999999940395],1.554,no_beat,0.6345999999940395,0.6345999999940395,"[""space""]",ji,4,testWhenL2Uns//time_viol.r1.s1.0.wav,3.0,when,unsyncopated,a,s1,no_rule,time,L2,z,0.2682,4.0,1.0,0.3342,3.0,2.0,Catalán,0.0,Español,3.0,Inglés,6.0,4.0,3.0,yes,no,yes,Piano,5,Clarinete,5,Canto,5,,,Durante el último lenguaje mi cabeza ya estaba muy cansada y he empezado a tener un dolor de cabeza muy leve. ,61.0,yes
66,2024-04-13_18h18.46.940,Experiment4_uns,s162,21.0,feminino,right,España,CatalánEspañol,Bachelor degree,no,no,A,1,conjunction_syn,L3,syncopated,s2,r1,66,Online_conjL3_syn//d.ji.li11.1332.0.wav,li,gu,do,chu,sil,le,ji,mo,sil1,je,sil2,['catch'],[2.1223999999909893],[2.1223999999909893],1.332,no_beat,0.7903999999909892,0.7903999999909892,"[""space""]",ji,4,testWhenL2Uns//r2.s1.0.wav,3.0,when,unsyncopated,b,s1,rule,rule,L2,m,0.0055,6.0,0.0,0.4374,3.0,2.0,Catalán,0.0,Español,3.0,Inglés,6.0,4.0,3.0,yes,no,yes,Piano,5,Clarinete,5,Canto,5,,,Durante el último lenguaje mi cabeza ya estaba muy cansada y he empezado a tener un dolor de cabeza muy leve. ,61.0,yes
67,2024-04-13_18h18.46.940,Experiment4_uns,s162,21.0,feminino,right,España,CatalánEspañol,Bachelor degree,no,no,A,1,conjunction_syn,L3,syncopated,s2,r2,67,Online_conjL3_syn//d.ji.li8.444.0.wav,li,fu,ji,ñe,sil,ko,je,sa,sil1,gu,sil2,['miss'],,,0.444,no_beat,,,,ji,4,testWhenL2Uns//dep_viol.r1.s1.0.wav,3.0,when,unsyncopated,a,s1,no_rule,dep,L2,m,0.0356,5.0,0.0,0.5058,3.0,2.0,Catalán,0.0,Español,3.0,Inglés,6.0,4.0,3.0,yes,no,yes,Piano,5,Clarinete,5,Canto,5,,,Durante el último lenguaje mi cabeza ya estaba muy cansada y he empezado a tener un dolor de cabeza muy leve. ,61.0,yes
68,2024-04-13_18h18.46.940,Experiment4_uns,s162,21.0,feminino,right,España,CatalánEspañol,Bachelor degree,no,no,A,1,conjunction_syn,L3,syncopated,s2,r1,68,Online_conjL3_syn//a.chu.mo24.666.1554.wav,fu,je,gu,chu,sil,ga,ka,mo,sil1,le,sil2,['catch'],[2.3014000000059696],[2.3014000000059696],1.554,no_beat,0.7474000000059695,0.7474000000059695,"[""space""]",mo,2,testWhenL2Uns//r2.s1.2.wav,3.0,when,unsyncopated,b,s1,rule,rule,L2,z,0.2053,3.0,1.0,0.3834,3.0,2.0,Catalán,0.0,Español,3.0,Inglés,6.0,4.0,3.0,yes,no,yes,Piano,5,Clarinete,5,Canto,5,,,Durante el último lenguaje mi cabeza ya estaba muy cansada y he empezado a tener un dolor de cabeza muy leve. ,61.0,yes
69,2024-04-13_18h18.46.940,Experiment4_uns,s162,21.0,feminino,right,España,CatalánEspañol,Bachelor degree,no,no,A,1,conjunction_syn,L3,syncopated,s2,r2,69,Online_conjL3_syn//a.chu.mo27.none.none.wav,ji,li,ko,ñe,sil,di,fu,sa,sil1,le,sil2,['-'],,,none,none,,,,mo,2,testWhenL2Uns//cat_viol.r2.s1.0.wav,3.0,when,unsyncopated,b,s1,no_rule,cat,L2,z,0.2825,4.0,1.0,0.3888,3.0,2.0,Catalán,0.0,Español,3.0,Inglés,6.0,4.0,3.0,yes,no,yes,Piano,5,Clarinete,5,Canto,5,,,Durante el último lenguaje mi cabeza ya estaba muy cansada y he empezado a tener un dolor de cabeza muy leve. ,61.0,yes
70,2024-04-13_18h18.46.940,Experiment4_uns,s162,21.0,feminino,right,España,CatalánEspañol,Bachelor degree,no,no,A,1,conjunction_syn,L3,syncopated,s2,r2,70,Online_conjL3_syn//a.chu.mo26.none.none.wav,do,ga,fu,ñe,sil,ko,di,sa,sil1,le,sil2,['-'],,,none,none,,,,mo,2,testWhenL2Uns//r1.s1.0.wav,3.0,when,unsyncopated,a,s1,rule,rule,L2,m,0.2673,3.0,0.0,0.3744,3.0,2.0,Catalán,0.0,Español,3.0,Inglés,6.0,4.0,3.0,yes,no,yes,Piano,5,Clarinete,5,Canto,5,,,Durante el último lenguaje mi cabeza ya estaba muy cansada y he empezado a tener un dolor de cabeza muy leve. ,61.0,yes
71,2024-04-13_18h18.46.940,Experiment4_uns,s162,21.0,feminino,right,España,CatalánEspañol,Bachelor degree,no,no,A,1,conjunction_syn,L3,syncopated,s1,r1,71,Online_conjL3_syn//a.chu.mo25.0.666.wav,chu,gu,ko,mo,sil,do,ga,fu,sil1,li,sil2,['catch'],[1.2264999999999873],[1.2264999999999873],0.666,no_beat,0.5604999999999872,0.5604999999999872,"[""space""]",mo,2,testWhenL2Uns//dep_viol.r1.s2.0.wav,3.0,when,unsyncopated,a,s2,no_rule,dep,L2,m,0.2558,4.0,0.0,0.2838,3.0,2.0,Catalán,0.0,Español,3.0,Inglés,6.0,4.0,3.0,yes,no,yes,Piano,5,Clarinete,5,Canto,5,,,Durante el último lenguaje mi cabeza ya estaba muy cansada y he empezado a tener un dolor de cabeza muy leve. ,61.0,yes
72,2024-04-13_18h18.46.940,Experiment4_uns,s162,21.0,feminino,right,España,CatalánEspañol,Bachelor degree,no,no,A,1,conjunction_syn,L3,syncopated,s1,r2,72,Online_conjL3_syn//d.ji.li3.none.none.wav,ñe,ka,gu,sa,sil,ga,do,di,sil1,ko,sil2,['-'],,,none,none,,,,ji,4,testWhatL1Uns//cat_viol.r1.s2.0.wav,4.0,what,unsyncopated,a,s2,no_rule,cat,L1,z,0.4428,6.0,0.0,0.4012,3.0,2.0,Catalán,0.0,Español,3.0,Inglés,6.0,4.0,3.0,yes,no,yes,Piano,5,Clarinete,5,Canto,5,,,Durante el último lenguaje mi cabeza ya estaba muy cansada y he empezado a tener un dolor de cabeza muy leve. ,61.0,yes
73,2024-04-13_18h18.46.940,Experiment4_uns,s162,21.0,feminino,right,España,CatalánEspañol,Bachelor degree,no,no,A,1,conjunction_syn,L3,syncopated,s2,r2,73,Online_conjL3_syn//d.ji.li2.1332.0.wav,li,fu,di,ñe,sil,gu,ji,sa,sil1,ko,sil2,['catch'],[2.055900000005977],[2.055900000005977],1.332,no_beat,0.7239000000059768,0.7239000000059768,"[""space""]",ji,4,testWhatL1Uns//r1.s1.2.wav,4.0,what,unsyncopated,a,s1,rule,rule,L1,z,0.117,5.0,1.0,0.4165,3.0,2.0,Catalán,0.0,Español,3.0,Inglés,6.0,4.0,3.0,yes,no,yes,Piano,5,Clarinete,5,Canto,5,,,Durante el último lenguaje mi cabeza ya estaba muy cansada y he empezado a tener un dolor de cabeza muy leve. ,61.0,yes
74,2024-04-13_18h18.46.940,Experiment4_uns,s162,21.0,feminino,right,España,CatalánEspañol,Bachelor degree,no,no,A,1,conjunction_syn,L3,syncopated,s1,r1,74,Online_conjL3_syn//d.ji.li1.1554.444.wav,chu,gu,li,mo,sil,ga,je,ji,sil1,do,sil2,['catch'],[2.246499999999969],[2.246499999999969],1.554,no_beat,0.692499999999969,0.692499999999969,"[""space""]",ji,4,testWhatL1Uns//r2.s2.0.wav,4.0,what,unsyncopated,b,s2,rule,rule,L1,z,0.271,4.0,1.0,0.3335,3.0,2.0,Catalán,0.0,Español,3.0,Inglés,6.0,4.0,3.0,yes,no,yes,Piano,5,Clarinete,5,Canto,5,,,Durante el último lenguaje mi cabeza ya estaba muy cansada y he empezado a tener un dolor de cabeza muy leve. ,61.0,yes
75,2024-04-13_18h18.46.940,Experiment4_uns,s162,21.0,feminino,right,España,CatalánEspañol,Bachelor degree,no,no,A,1,conjunction_syn,L3,syncopated,s1,r1,75,Online_conjL3_syn//d.ji.li0.none.none.wav,chu,ga,ko,mo,sil,do,le,gu,sil1,di,sil2,['-'],,,none,none,,,,ji,4,testWhatL1Uns//cat_viol.r2.s1.0.wav,4.0,what,unsyncopated,b,s1,no_rule,cat,L1,z,0.2167,4.0,0.0,0.352,3.0,2.0,Catalán,0.0,Español,3.0,Inglés,6.0,4.0,3.0,yes,no,yes,Piano,5,Clarinete,5,Canto,5,,,Durante el último lenguaje mi cabeza ya estaba muy cansada y he empezado a tener un dolor de cabeza muy leve. ,61.0,yes
76,2024-04-13_18h18.46.940,Experiment4_uns,s162,21.0,feminino,right,España,CatalánEspañol,Bachelor degree,no,no,A,1,conjunction_syn,L3,syncopated,s2,r1,76,Online_conjL3_syn//c.gu.je30.none.none.wav,fu,di,ga,chu,sil,ko,li,mo,sil1,ka,sil2,['-'],,,none,none,,,,gu,3,testWhatL1Uns//r2.s1.2.wav,4.0,what,unsyncopated,b,s1,rule,rule,L1,m,0.1512,3.0,0.0,0.3168,3.0,2.0,Catalán,0.0,Español,3.0,Inglés,6.0,4.0,3.0,yes,no,yes,Piano,5,Clarinete,5,Canto,5,,,Durante el último lenguaje mi cabeza ya estaba muy cansada y he empezado a tener un dolor de cabeza muy leve. ,61.0,yes
77,2024-04-13_18h18.46.940,Experiment4_uns,s162,21.0,feminino,right,España,CatalánEspañol,Bachelor degree,no,no,A,1,conjunction_syn,L3,syncopated,s2,r1,77,Online_conjL3_syn//c.gu.je28.none.none.wav,ga,li,ka,chu,sil,di,ji,mo,sil1,do,sil2,['-'],,,none,none,,,,gu,3,testWhatL1Uns//dep_viol.r1.s1.0.wav,4.0,what,unsyncopated,a,s1,no_rule,dep,L1,m,0.2086,3.0,1.0,0.2496,3.0,2.0,Catalán,0.0,Español,3.0,Inglés,6.0,4.0,3.0,yes,no,yes,Piano,5,Clarinete,5,Canto,5,,,Durante el último lenguaje mi cabeza ya estaba muy cansada y he empezado a tener un dolor de cabeza muy leve. ,61.0,yes
78,2024-04-13_18h18.46.940,Experiment4_uns,s162,21.0,feminino,right,España,CatalánEspañol,Bachelor degree,no,no,A,1,conjunction_syn,L3,syncopated,s2,r1,78,Online_conjL3_syn//c.gu.je31.none.none.wav,do,li,ga,chu,sil,ka,ko,mo,sil1,fu,sil2,['-'],,,none,none,,,,gu,3,testWhatL1Uns//r1.s2.0.wav,4.0,what,unsyncopated,a,s2,rule,rule,L1,m,0.3261,3.0,0.0,0.3848,3.0,2.0,Catalán,0.0,Español,3.0,Inglés,6.0,4.0,3.0,yes,no,yes,Piano,5,Clarinete,5,Canto,5,,,Durante el último lenguaje mi cabeza ya estaba muy cansada y he empezado a tener un dolor de cabeza muy leve. ,61.0,yes
79,2024-04-13_18h18.46.940,Experiment4_uns,s162,21.0,feminino,right,España,CatalánEspañol,Bachelor degree,no,no,A,1,conjunction_syn,L3,syncopated,s2,r1,79,Online_conjL3_syn//c.gu.je29.444.1110.wav,ji,li,gu,chu,sil,je,ko,mo,sil1,do,sil2,['miss'],,,0.444,no_beat,,,,gu,3,testWhatL1Uns//r2.s1.1.wav,4.0,what,unsyncopated,b,s1,rule,rule,L1,m,0.2514,4.0,0.0,0.3693,3.0,2.0,Catalán,0.0,Español,3.0,Inglés,6.0,4.0,3.0,yes,no,yes,Piano,5,Clarinete,5,Canto,5,,,Durante el último lenguaje mi cabeza ya estaba muy cansada y he empezado a tener un dolor de cabeza muy leve. ,61.0,yes
80,2024-04-13_18h18.46.940,Experiment4_uns,s162,21.0,feminino,right,España,CatalánEspañol,Bachelor degree,no,no,A,1,conjunction_syn,L3,syncopated,s1,r2,80,Online_conjL3_syn//a.chu.mo18.none.none.wav,ñe,ka,gu,sa,sil,ko,fu,je,sil1,ga,sil2,['-'],,,none,none,,,,mo,2,testWhatL1Uns//dep_viol.r2.s1.0.wav,4.0,what,unsyncopated,b,s1,no_rule,dep,L1,m,0.8729,4.0,1.0,0.5164,3.0,2.0,Catalán,0.0,Español,3.0,Inglés,6.0,4.0,3.0,yes,no,yes,Piano,5,Clarinete,5,Canto,5,,,Durante el último lenguaje mi cabeza ya estaba muy cansada y he empezado a tener un dolor de cabeza muy leve. ,61.0,yes
81,2024-04-13_18h18.46.940,Experiment4_uns,s162,21.0,feminino,right,España,CatalánEspañol,Bachelor degree,no,no,A,1,conjunction_syn,L3,syncopated,s1,r2,81,Online_conjL3_syn//a.chu.mo17.none.none.wav,ñe,do,ga,sa,sil,fu,je,ji,sil1,ko,sil2,['-'],,,none,none,,,,mo,2,testWhatL1Uns//r1.s1.0.wav,4.0,what,unsyncopated,a,s1,rule,rule,L1,z,0.1223,7.0,1.0,0.3407,3.0,2.0,Catalán,0.0,Español,3.0,Inglés,6.0,4.0,3.0,yes,no,yes,Piano,5,Clarinete,5,Canto,5,,,Durante el último lenguaje mi cabeza ya estaba muy cansada y he empezado a tener un dolor de cabeza muy leve. ,61.0,yes
82,2024-04-13_18h18.46.940,Experiment4_uns,s162,21.0,feminino,right,España,CatalánEspañol,Bachelor degree,no,no,A,1,conjunction_syn,L3,syncopated,s1,r2,82,Online_conjL3_syn//a.chu.mo19.none.none.wav,ñe,di,je,sa,sil,ga,do,fu,sil1,ji,sil2,['-'],,,none,none,,,,mo,2,testWhatL1Uns//time_viol.r2.s1.0.wav,4.0,what,unsyncopated,b,s1,no_rule,time,L1,m,0.3056,4.0,1.0,0.3665,3.0,2.0,Catalán,0.0,Español,3.0,Inglés,6.0,4.0,3.0,yes,no,yes,Piano,5,Clarinete,5,Canto,5,,,Durante el último lenguaje mi cabeza ya estaba muy cansada y he empezado a tener un dolor de cabeza muy leve. ,61.0,yes
83,2024-04-13_18h18.46.940,Experiment4_uns,s162,21.0,feminino,right,España,CatalánEspañol,Bachelor degree,no,no,A,1,conjunction_syn,L3,syncopated,s2,r1,83,Online_conjL3_syn//a.chu.mo16.666.1554.wav,li,je,fu,chu,sil,do,le,mo,sil1,ka,sil2,['catch'],[2.194500000000062],[2.194500000000062],1.554,no_beat,0.6405000000000618,0.6405000000000618,"[""space""]",mo,2,testWhatL1Uns//r2.s2.1.wav,4.0,what,unsyncopated,b,s2,rule,rule,L1,z,0.1408,5.0,1.0,0.3903,3.0,2.0,Catalán,0.0,Español,3.0,Inglés,6.0,4.0,3.0,yes,no,yes,Piano,5,Clarinete,5,Canto,5,,,Durante el último lenguaje mi cabeza ya estaba muy cansada y he empezado a tener un dolor de cabeza muy leve. ,61.0,yes
84,2024-04-13_18h18.46.940,Experiment4_uns,s162,21.0,feminino,right,España,CatalánEspañol,Bachelor degree,no,no,A,1,conjunction_syn,L3,syncopated,s2,r2,84,Online_conjL3_syn//d.ji.li22.0.1110.wav,ji,do,le,ñe,sil,li,ga,sa,sil1,je,sil2,['catch'],[1.0013000000119519],[1.0013000000119519],0.0,beat,1.001300000011952,1.001300000011952,"[""space""]",ji,4,testWhatL1Uns//cat_viol.r2.s2.0.wav,4.0,what,unsyncopated,b,s2,no_rule,cat,L1,z,0.3687,5.0,0.0,0.4082,3.0,2.0,Catalán,0.0,Español,3.0,Inglés,6.0,4.0,3.0,yes,no,yes,Piano,5,Clarinete,5,Canto,5,,,Durante el último lenguaje mi cabeza ya estaba muy cansada y he empezado a tener un dolor de cabeza muy leve. ,61.0,yes
85,2024-04-13_18h18.46.940,Experiment4_uns,s162,21.0,feminino,right,España,CatalánEspañol,Bachelor degree,no,no,A,1,conjunction_syn,L3,syncopated,s1,r2,85,Online_conjL3_syn//d.ji.li23.none.none.wav,ñe,ga,ko,sa,sil,fu,do,le,sil1,gu,sil2,['-'],,,none,none,,,,ji,4,testWhatL1Uns//r1.s2.2.wav,4.0,what,unsyncopated,a,s2,rule,rule,L1,z,0.2162,5.0,1.0,0.3541,3.0,2.0,Catalán,0.0,Español,3.0,Inglés,6.0,4.0,3.0,yes,no,yes,Piano,5,Clarinete,5,Canto,5,,,Durante el último lenguaje mi cabeza ya estaba muy cansada y he empezado a tener un dolor de cabeza muy leve. ,61.0,yes
86,2024-04-13_18h18.46.940,Experiment4_uns,s162,21.0,feminino,right,España,CatalánEspañol,Bachelor degree,no,no,A,1,conjunction_syn,L3,syncopated,s2,r1,86,Online_conjL3_syn//d.ji.li21.none.none.wav,ko,gu,je,chu,sil,ka,ga,mo,sil1,di,sil2,['-'],,,none,none,,,,ji,4,testWhatL1Uns//time_viol.r2.s2.0.wav,4.0,what,unsyncopated,b,s2,no_rule,time,L1,z,0.3259,5.0,0.0,0.3501,3.0,2.0,Catalán,0.0,Español,3.0,Inglés,6.0,4.0,3.0,yes,no,yes,Piano,5,Clarinete,5,Canto,5,,,Durante el último lenguaje mi cabeza ya estaba muy cansada y he empezado a tener un dolor de cabeza muy leve. ,61.0,yes
87,2024-04-13_18h18.46.940,Experiment4_uns,s162,21.0,feminino,right,España,CatalánEspañol,Bachelor degree,no,no,A,1,conjunction_syn,L3,syncopated,s2,r1,87,Online_conjL3_syn//d.ji.li20.none.none.wav,di,le,ko,chu,sil,ka,do,mo,sil1,gu,sil2,['-'],,,none,none,,,,ji,4,testWhatL1Uns//r2.s1.0.wav,4.0,what,unsyncopated,b,s1,rule,rule,L1,m,0.1889,3.0,0.0,0.5741,3.0,2.0,Catalán,0.0,Español,3.0,Inglés,6.0,4.0,3.0,yes,no,yes,Piano,5,Clarinete,5,Canto,5,,,Durante el último lenguaje mi cabeza ya estaba muy cansada y he empezado a tener un dolor de cabeza muy leve. ,61.0,yes
88,2024-04-13_18h18.46.940,Experiment4_uns,s162,21.0,feminino,right,España,CatalánEspañol,Bachelor degree,no,no,A,1,conjunction_syn,L3,syncopated,s2,r2,88,Online_conjL3_syn//a.chu.mo29.none.none.wav,ji,ka,do,ñe,sil,gu,di,sa,sil1,ko,sil2,['false alarm'],[0.7681000000089853],[0.7681000000089853],none,none,,,"[""space""]",mo,2,testWhatL1Uns//r2.s2.2.wav,4.0,what,unsyncopated,b,s2,rule,rule,L1,m,0.0005,2.0,0.0,0.4397,3.0,2.0,Catalán,0.0,Español,3.0,Inglés,6.0,4.0,3.0,yes,no,yes,Piano,5,Clarinete,5,Canto,5,,,Durante el último lenguaje mi cabeza ya estaba muy cansada y he empezado a tener un dolor de cabeza muy leve. ,61.0,yes
89,2024-04-13_18h18.46.940,Experiment4_uns,s162,21.0,feminino,right,España,CatalánEspañol,Bachelor degree,no,no,A,1,conjunction_syn,L3,syncopated,s1,r1,89,Online_conjL3_syn//a.chu.mo31.0.666.wav,chu,ka,je,mo,sil,ga,di,gu,sil1,ko,sil2,['catch'],[1.5047000000030266],[1.5047000000030266],0.666,no_beat,0.8387000000030266,0.8387000000030266,"[""space""]",mo,2,testWhatL1Uns//r1.s1.1.wav,4.0,what,unsyncopated,a,s1,rule,rule,L1,z,0.1999,2.0,1.0,0.4156,3.0,2.0,Catalán,0.0,Español,3.0,Inglés,6.0,4.0,3.0,yes,no,yes,Piano,5,Clarinete,5,Canto,5,,,Durante el último lenguaje mi cabeza ya estaba muy cansada y he empezado a tener un dolor de cabeza muy leve. ,61.0,yes
90,2024-04-13_18h18.46.940,Experiment4_uns,s162,21.0,feminino,right,España,CatalánEspañol,Bachelor degree,no,no,A,1,conjunction_syn,L3,syncopated,s1,r2,90,Online_conjL3_syn//a.chu.mo28.none.none.wav,ñe,ga,li,sa,sil,je,do,ko,sil1,ka,sil2,['-'],,,none,none,,,,mo,2,testWhatL1Uns//time_viol.r1.s2.0.wav,4.0,what,unsyncopated,a,s2,no_rule,time,L1,m,0.5367,3.0,1.0,0.3426,3.0,2.0,Catalán,0.0,Español,3.0,Inglés,6.0,4.0,3.0,yes,no,yes,Piano,5,Clarinete,5,Canto,5,,,Durante el último lenguaje mi cabeza ya estaba muy cansada y he empezado a tener un dolor de cabeza muy leve. ,61.0,yes
91,2024-04-13_18h18.46.940,Experiment4_uns,s162,21.0,feminino,right,España,CatalánEspañol,Bachelor degree,no,no,A,1,conjunction_syn,L3,syncopated,s2,r2,91,Online_conjL3_syn//a.chu.mo30.none.none.wav,fu,gu,ji,ñe,sil,li,do,sa,sil1,je,sil2,['-'],,,none,none,,,,mo,2,testWhatL1Uns//cat_viol.r1.s1.0.wav,4.0,what,unsyncopated,a,s1,no_rule,cat,L1,z,1.4896,3.0,0.0,0.3091,3.0,2.0,Catalán,0.0,Español,3.0,Inglés,6.0,4.0,3.0,yes,no,yes,Piano,5,Clarinete,5,Canto,5,,,Durante el último lenguaje mi cabeza ya estaba muy cansada y he empezado a tener un dolor de cabeza muy leve. ,61.0,yes
92,2024-04-13_18h18.46.940,Experiment4_uns,s162,21.0,feminino,right,España,CatalánEspañol,Bachelor degree,no,no,A,1,conjunction_syn,L3,syncopated,s2,r1,92,Online_conjL3_syn//b.ñe.sa15.none.none.wav,di,gu,le,chu,sil,do,fu,mo,sil1,ji,sil2,['-'],,,none,none,,,,ñe,1,testWhatL1Uns//dep_viol.r2.s2.0.wav,4.0,what,unsyncopated,b,s2,no_rule,dep,L1,z,0.2179,3.0,0.0,0.3598,3.0,2.0,Catalán,0.0,Español,3.0,Inglés,6.0,4.0,3.0,yes,no,yes,Piano,5,Clarinete,5,Canto,5,,,Durante el último lenguaje mi cabeza ya estaba muy cansada y he empezado a tener un dolor de cabeza muy leve. ,61.0,yes
93,2024-04-13_18h18.46.940,Experiment4_uns,s162,21.0,feminino,right,España,CatalánEspañol,Bachelor degree,no,no,A,1,conjunction_syn,L3,syncopated,s2,r2,93,Online_conjL3_syn//b.ñe.sa13.666.1554.wav,fu,li,ka,ñe,sil,ga,le,sa,sil1,je,sil2,['catch'],[1.4566000000089616],[1.4566000000089616],0.666,no_beat,0.7906000000089616,0.7906000000089616,"[""space""]",ñe,1,testWhatL1Uns//dep_viol.r1.s2.0.wav,4.0,what,unsyncopated,a,s2,no_rule,dep,L1,m,0.0998,2.0,1.0,0.3601,3.0,2.0,Catalán,0.0,Español,3.0,Inglés,6.0,4.0,3.0,yes,no,yes,Piano,5,Clarinete,5,Canto,5,,,Durante el último lenguaje mi cabeza ya estaba muy cansada y he empezado a tener un dolor de cabeza muy leve. ,61.0,yes
94,2024-04-13_18h18.46.940,Experiment4_uns,s162,21.0,feminino,right,España,CatalánEspañol,Bachelor degree,no,no,A,1,conjunction_syn,L3,syncopated,s2,r1,94,Online_conjL3_syn//b.ñe.sa12.none.none.wav,ko,li,di,chu,sil,do,ga,mo,sil1,ka,sil2,['-'],,,none,none,,,,ñe,1,testWhatL1Uns//time_viol.r1.s1.0.wav,4.0,what,unsyncopated,a,s1,no_rule,time,L1,z,0.0999,4.0,0.0,0.4915,3.0,2.0,Catalán,0.0,Español,3.0,Inglés,6.0,4.0,3.0,yes,no,yes,Piano,5,Clarinete,5,Canto,5,,,Durante el último lenguaje mi cabeza ya estaba muy cansada y he empezado a tener un dolor de cabeza muy leve. ,61.0,yes
95,2024-04-13_18h18.46.940,Experiment4_uns,s162,21.0,feminino,right,España,CatalánEspañol,Bachelor degree,no,no,A,1,conjunction_syn,L3,syncopated,s1,r2,95,Online_conjL3_syn//b.ñe.sa14.0.666.wav,ñe,ko,li,sa,sil,fu,je,gu,sil1,ga,sil2,['catch'],[0.8144000000058895],[0.8144000000058895],0.0,beat,0.8144000000058895,0.8144000000058895,"[""space""]",ñe,1,testWhatL1Uns//r1.s2.1.wav,4.0,what,unsyncopated,a,s2,rule,rule,L1,z,0.0425,3.0,1.0,0.4384,3.0,2.0,Catalán,0.0,Español,3.0,Inglés,6.0,4.0,3.0,yes,no,yes,Piano,5,Clarinete,5,Canto,5,,,Durante el último lenguaje mi cabeza ya estaba muy cansada y he empezado a tener un dolor de cabeza muy leve. ,61.0,yes
96,2024-04-13_18h18.46.940,Experiment4_uns,s162,21.0,feminino,right,España,CatalánEspañol,Bachelor degree,no,no,A,1,conjunction_syn,L3,syncopated,s1,r1,96,Online_conjL3_syn//b.ñe.sa26.none.none.wav,chu,ko,ji,mo,sil,ka,li,do,sil1,gu,sil2,['-'],,,none,none,,,,ñe,1,,,,,,,,,,,,,,,3.0,2.0,Catalán,0.0,Español,3.0,Inglés,6.0,4.0,3.0,yes,no,yes,Piano,5,Clarinete,5,Canto,5,,,Durante el último lenguaje mi cabeza ya estaba muy cansada y he empezado a tener un dolor de cabeza muy leve. ,61.0,yes
97,2024-04-13_18h18.46.940,Experiment4_uns,s162,21.0,feminino,right,España,CatalánEspañol,Bachelor degree,no,no,A,1,conjunction_syn,L3,syncopated,s2,r1,97,Online_conjL3_syn//b.ñe.sa24.none.none.wav,ga,di,le,chu,sil,li,ka,mo,sil1,do,sil2,['-'],,,none,none,,,,ñe,1,,,,,,,,,,,,,,,3.0,2.0,Catalán,0.0,Español,3.0,Inglés,6.0,4.0,3.0,yes,no,yes,Piano,5,Clarinete,5,Canto,5,,,Durante el último lenguaje mi cabeza ya estaba muy cansada y he empezado a tener un dolor de cabeza muy leve. ,61.0,yes
98,2024-04-13_18h18.46.940,Experiment4_uns,s162,21.0,feminino,right,España,CatalánEspañol,Bachelor degree,no,no,A,1,conjunction_syn,L3,syncopated,s1,r2,98,Online_conjL3_syn//b.ñe.sa25.0.666.wav,ñe,je,li,sa,sil,fu,le,ko,sil1,ji,sil2,['miss'],,,0.0,beat,,,,ñe,1,,,,,,,,,,,,,,,3.0,2.0,Catalán,0.0,Español,3.0,Inglés,6.0,4.0,3.0,yes,no,yes,Piano,5,Clarinete,5,Canto,5,,,Durante el último lenguaje mi cabeza ya estaba muy cansada y he empezado a tener un dolor de cabeza muy leve. ,61.0,yes
99,2024-04-13_18h18.46.940,Experiment4_uns,s162,21.0,feminino,right,España,CatalánEspañol,Bachelor degree,no,no,A,1,conjunction_syn,L3,syncopated,s2,r1,99,Online_conjL3_syn//b.ñe.sa27.none.none.wav,ka,gu,je,chu,sil,ko,di,mo,sil1,li,sil2,['-'],,,none,none,,,,ñe,1,,,,,,,,,,,,,,,3.0,2.0,Catalán,0.0,Español,3.0,Inglés,6.0,4.0,3.0,yes,no,yes,Piano,5,Clarinete,5,Canto,5,,,Durante el último lenguaje mi cabeza ya estaba muy cansada y he empezado a tener un dolor de cabeza muy leve. ,61.0,yes
100,2024-04-13_18h18.46.940,Experiment4_uns,s162,21.0,feminino,right,España,CatalánEspañol,Bachelor degree,no,no,A,1,conjunction_syn,L3,syncopated,s2,r2,100,Online_conjL3_syn//d.ji.li17.1332.222.wav,fu,li,do,ñe,sil,di,ji,sa,sil1,je,sil2,['catch'],[2.4013999999910993],[2.4013999999910993],1.332,no_beat,1.0693999999910992,1.0693999999910992,"[""space""]",ji,4,,,,,,,,,,,,,,,3.0,2.0,Catalán,0.0,Español,3.0,Inglés,6.0,4.0,3.0,yes,no,yes,Piano,5,Clarinete,5,Canto,5,,,Durante el último lenguaje mi cabeza ya estaba muy cansada y he empezado a tener un dolor de cabeza muy leve. ,61.0,yes
101,2024-04-13_18h18.46.940,Experiment4_uns,s162,21.0,feminino,right,España,CatalánEspañol,Bachelor degree,no,no,A,1,conjunction_syn,L3,syncopated,s2,r2,101,Online_conjL3_syn//d.ji.li19.none.none.wav,je,le,ko,ñe,sil,ga,do,sa,sil1,gu,sil2,['-'],,,none,none,,,,ji,4,,,,,,,,,,,,,,,3.0,2.0,Catalán,0.0,Español,3.0,Inglés,6.0,4.0,3.0,yes,no,yes,Piano,5,Clarinete,5,Canto,5,,,Durante el último lenguaje mi cabeza ya estaba muy cansada y he empezado a tener un dolor de cabeza muy leve. ,61.0,yes
102,2024-04-13_18h18.46.940,Experiment4_uns,s162,21.0,feminino,right,España,CatalánEspañol,Bachelor degree,no,no,A,1,conjunction_syn,L3,syncopated,s1,r1,102,Online_conjL3_syn//d.ji.li18.1554.444.wav,chu,ga,li,mo,sil,je,do,ji,sil1,fu,sil2,['catch'],[2.221900000005917],[2.221900000005917],1.554,no_beat,0.6679000000059168,0.6679000000059168,"[""space""]",ji,4,,,,,,,,,,,,,,,3.0,2.0,Catalán,0.0,Español,3.0,Inglés,6.0,4.0,3.0,yes,no,yes,Piano,5,Clarinete,5,Canto,5,,,Durante el último lenguaje mi cabeza ya estaba muy cansada y he empezado a tener un dolor de cabeza muy leve. ,61.0,yes
103,2024-04-13_18h18.46.940,Experiment4_uns,s162,21.0,feminino,right,España,CatalánEspañol,Bachelor degree,no,no,A,1,conjunction_syn,L3,syncopated,s1,r2,103,Online_conjL3_syn//d.ji.li16.none.none.wav,ñe,gu,le,sa,sil,do,ga,ko,sil1,fu,sil2,['-'],,,none,none,,,,ji,4,,,,,,,,,,,,,,,3.0,2.0,Catalán,0.0,Español,3.0,Inglés,6.0,4.0,3.0,yes,no,yes,Piano,5,Clarinete,5,Canto,5,,,Durante el último lenguaje mi cabeza ya estaba muy cansada y he empezado a tener un dolor de cabeza muy leve. ,61.0,yes
104,2024-04-13_18h18.46.940,Experiment4_uns,s162,21.0,feminino,right,España,CatalánEspañol,Bachelor degree,no,no,A,1,conjunction_syn,L3,syncopated,s2,r1,104,Online_conjL3_syn//c.gu.je9.1332.0.wav,je,le,ko,chu,sil,ka,gu,mo,sil1,ji,sil2,['miss'],,,1.332,no_beat,,,,gu,3,,,,,,,,,,,,,,,3.0,2.0,Catalán,0.0,Español,3.0,Inglés,6.0,4.0,3.0,yes,no,yes,Piano,5,Clarinete,5,Canto,5,,,Durante el último lenguaje mi cabeza ya estaba muy cansada y he empezado a tener un dolor de cabeza muy leve. ,61.0,yes
105,2024-04-13_18h18.46.940,Experiment4_uns,s162,21.0,feminino,right,España,CatalánEspañol,Bachelor degree,no,no,A,1,conjunction_syn,L3,syncopated,s1,r1,105,Online_conjL3_syn//c.gu.je10.none.none.wav,chu,di,do,mo,sil,ko,ga,ji,sil1,ka,sil2,['false alarm'],[0.16290000000594773],[0.16290000000594773],none,none,,,"[""space""]",gu,3,,,,,,,,,,,,,,,3.0,2.0,Catalán,0.0,Español,3.0,Inglés,6.0,4.0,3.0,yes,no,yes,Piano,5,Clarinete,5,Canto,5,,,Durante el último lenguaje mi cabeza ya estaba muy cansada y he empezado a tener un dolor de cabeza muy leve. ,61.0,yes
106,2024-04-13_18h18.46.940,Experiment4_uns,s162,21.0,feminino,right,España,CatalánEspañol,Bachelor degree,no,no,A,1,conjunction_syn,L3,syncopated,s1,r2,106,Online_conjL3_syn//c.gu.je11.222.1110.wav,ñe,gu,ka,sa,sil,je,fu,ji,sil1,le,sil2,['catch'],[1.113199999988069],[1.113199999988069],0.222,no_beat,0.8911999999880691,0.8911999999880691,"[""space""]",gu,3,,,,,,,,,,,,,,,3.0,2.0,Catalán,0.0,Español,3.0,Inglés,6.0,4.0,3.0,yes,no,yes,Piano,5,Clarinete,5,Canto,5,,,Durante el último lenguaje mi cabeza ya estaba muy cansada y he empezado a tener un dolor de cabeza muy leve. ,61.0,yes
107,2024-04-13_18h18.46.940,Experiment4_uns,s162,21.0,feminino,right,España,CatalánEspañol,Bachelor degree,no,no,A,1,conjunction_syn,L3,syncopated,s1,r1,107,Online_conjL3_syn//c.gu.je8.222.1110.wav,chu,gu,do,mo,sil,je,ga,ko,sil1,ka,sil2,['miss'],,,0.222,no_beat,,,,gu,3,,,,,,,,,,,,,,,3.0,2.0,Catalán,0.0,Español,3.0,Inglés,6.0,4.0,3.0,yes,no,yes,Piano,5,Clarinete,5,Canto,5,,,Durante el último lenguaje mi cabeza ya estaba muy cansada y he empezado a tener un dolor de cabeza muy leve. ,61.0,yes
108,2024-04-13_18h18.46.940,Experiment4_uns,s162,21.0,feminino,right,España,CatalánEspañol,Bachelor degree,no,no,A,1,conjunction_syn,L3,syncopated,s1,r1,108,Online_conjL3_syn//b.ñe.sa10.none.none.wav,chu,ji,li,mo,sil,je,le,gu,sil1,do,sil2,['-'],,,none,none,,,,ñe,1,,,,,,,,,,,,,,,3.0,2.0,Catalán,0.0,Español,3.0,Inglés,6.0,4.0,3.0,yes,no,yes,Piano,5,Clarinete,5,Canto,5,,,Durante el último lenguaje mi cabeza ya estaba muy cansada y he empezado a tener un dolor de cabeza muy leve. ,61.0,yes
109,2024-04-13_18h18.46.940,Experiment4_uns,s162,21.0,feminino,right,España,CatalánEspañol,Bachelor degree,no,no,A,1,conjunction_syn,L3,syncopated,s2,r2,109,Online_conjL3_syn//b.ñe.sa11.666.1554.wav,li,fu,ga,ñe,sil,do,ka,sa,sil1,ko,sil2,['catch'],[1.290200000002983],[1.290200000002983],0.666,no_beat,0.6242000000029829,0.6242000000029829,"[""space""]",ñe,1,,,,,,,,,,,,,,,3.0,2.0,Catalán,0.0,Español,3.0,Inglés,6.0,4.0,3.0,yes,no,yes,Piano,5,Clarinete,5,Canto,5,,,Durante el último lenguaje mi cabeza ya estaba muy cansada y he empezado a tener un dolor de cabeza muy leve. ,61.0,yes
110,2024-04-13_18h18.46.940,Experiment4_uns,s162,21.0,feminino,right,España,CatalánEspañol,Bachelor degree,no,no,A,1,conjunction_syn,L3,syncopated,s1,r2,110,Online_conjL3_syn//b.ñe.sa8.0.666.wav,ñe,do,di,sa,sil,je,ko,le,sil1,gu,sil2,['catch'],[0.8722999999970398],[0.8722999999970398],0.0,beat,0.8722999999970398,0.8722999999970398,"[""space""]",ñe,1,,,,,,,,,,,,,,,3.0,2.0,Catalán,0.0,Español,3.0,Inglés,6.0,4.0,3.0,yes,no,yes,Piano,5,Clarinete,5,Canto,5,,,Durante el último lenguaje mi cabeza ya estaba muy cansada y he empezado a tener un dolor de cabeza muy leve. ,61.0,yes
111,2024-04-13_18h18.46.940,Experiment4_uns,s162,21.0,feminino,right,España,CatalánEspañol,Bachelor degree,no,no,A,1,conjunction_syn,L3,syncopated,s1,r2,111,Online_conjL3_syn//b.ñe.sa9.0.666.wav,ñe,ko,je,sa,sil,fu,li,di,sil1,ji,sil2,['catch'],[0.8564999999999827],[0.8564999999999827],0.0,beat,0.8564999999999827,0.8564999999999827,"[""space""]",ñe,1,,,,,,,,,,,,,,,3.0,2.0,Catalán,0.0,Español,3.0,Inglés,6.0,4.0,3.0,yes,no,yes,Piano,5,Clarinete,5,Canto,5,,,Durante el último lenguaje mi cabeza ya estaba muy cansada y he empezado a tener un dolor de cabeza muy leve. ,61.0,yes
112,2024-04-13_18h18.46.940,Experiment4_uns,s162,21.0,feminino,right,España,CatalánEspañol,Bachelor degree,no,no,A,1,conjunction_syn,L3,syncopated,s1,r1,112,Online_conjL3_syn//a.chu.mo13.0.666.wav,chu,ji,fu,mo,sil,je,li,do,sil1,ka,sil2,['catch'],[1.2112999999969816],[1.2112999999969816],0.666,no_beat,0.5452999999969815,0.5452999999969815,"[""space""]",mo,2,,,,,,,,,,,,,,,3.0,2.0,Catalán,0.0,Español,3.0,Inglés,6.0,4.0,3.0,yes,no,yes,Piano,5,Clarinete,5,Canto,5,,,Durante el último lenguaje mi cabeza ya estaba muy cansada y he empezado a tener un dolor de cabeza muy leve. ,61.0,yes
113,2024-04-13_18h18.46.940,Experiment4_uns,s162,21.0,feminino,right,España,CatalánEspañol,Bachelor degree,no,no,A,1,conjunction_syn,L3,syncopated,s1,r2,113,Online_conjL3_syn//a.chu.mo12.none.none.wav,ñe,je,do,sa,sil,ka,le,ji,sil1,ga,sil2,['-'],,,none,none,,,,mo,2,,,,,,,,,,,,,,,3.0,2.0,Catalán,0.0,Español,3.0,Inglés,6.0,4.0,3.0,yes,no,yes,Piano,5,Clarinete,5,Canto,5,,,Durante el último lenguaje mi cabeza ya estaba muy cansada y he empezado a tener un dolor de cabeza muy leve. ,61.0,yes
114,2024-04-13_18h18.46.940,Experiment4_uns,s162,21.0,feminino,right,España,CatalánEspañol,Bachelor degree,no,no,A,1,conjunction_syn,L3,syncopated,s1,r1,114,Online_conjL3_syn//a.chu.mo15.0.666.wav,chu,le,gu,mo,sil,do,li,ka,sil1,ji,sil2,['catch'],[1.3055999999940013],[1.3055999999940013],0.666,no_beat,0.6395999999940013,0.6395999999940013,"[""space""]",mo,2,,,,,,,,,,,,,,,3.0,2.0,Catalán,0.0,Español,3.0,Inglés,6.0,4.0,3.0,yes,no,yes,Piano,5,Clarinete,5,Canto,5,,,Durante el último lenguaje mi cabeza ya estaba muy cansada y he empezado a tener un dolor de cabeza muy leve. ,61.0,yes
115,2024-04-13_18h18.46.940,Experiment4_uns,s162,21.0,feminino,right,España,CatalánEspañol,Bachelor degree,no,no,A,1,conjunction_syn,L3,syncopated,s1,r1,115,Online_conjL3_syn//a.chu.mo14.0.666.wav,chu,ka,li,mo,sil,ga,je,ji,sil1,do,sil2,['catch'],[1.2387999999970134],[1.2387999999970134],0.666,no_beat,0.5727999999970134,0.5727999999970134,"[""space""]",mo,2,,,,,,,,,,,,,,,3.0,2.0,Catalán,0.0,Español,3.0,Inglés,6.0,4.0,3.0,yes,no,yes,Piano,5,Clarinete,5,Canto,5,,,Durante el último lenguaje mi cabeza ya estaba muy cansada y he empezado a tener un dolor de cabeza muy leve. ,61.0,yes
116,2024-04-13_18h18.46.940,Experiment4_uns,s162,21.0,feminino,right,España,CatalánEspañol,Bachelor degree,no,no,A,1,conjunction_syn,L3,syncopated,s1,r1,116,Online_conjL3_syn//d.ji.li14.444.1332.wav,chu,gu,ji,mo,sil,do,li,fu,sil1,le,sil2,['catch'],[1.089899999990962],[1.089899999990962],0.444,no_beat,0.645899999990962,0.645899999990962,"[""space""]",ji,4,,,,,,,,,,,,,,,3.0,2.0,Catalán,0.0,Español,3.0,Inglés,6.0,4.0,3.0,yes,no,yes,Piano,5,Clarinete,5,Canto,5,,,Durante el último lenguaje mi cabeza ya estaba muy cansada y he empezado a tener un dolor de cabeza muy leve. ,61.0,yes
117,2024-04-13_18h18.46.940,Experiment4_uns,s162,21.0,feminino,right,España,CatalánEspañol,Bachelor degree,no,no,A,1,conjunction_syn,L3,syncopated,s2,r1,117,Online_conjL3_syn//d.ji.li12.none.none.wav,gu,ko,le,chu,sil,do,ga,mo,sil1,fu,sil2,['-'],,,none,none,,,,ji,4,,,,,,,,,,,,,,,3.0,2.0,Catalán,0.0,Español,3.0,Inglés,6.0,4.0,3.0,yes,no,yes,Piano,5,Clarinete,5,Canto,5,,,Durante el último lenguaje mi cabeza ya estaba muy cansada y he empezado a tener un dolor de cabeza muy leve. ,61.0,yes
118,2024-04-13_18h18.46.940,Experiment4_uns,s162,21.0,feminino,right,España,CatalánEspañol,Bachelor degree,no,no,A,1,conjunction_syn,L3,syncopated,s1,r1,118,Online_conjL3_syn//d.ji.li13.none.none.wav,chu,je,ka,mo,sil,di,ko,fu,sil1,ga,sil2,['-'],,,none,none,,,,ji,4,,,,,,,,,,,,,,,3.0,2.0,Catalán,0.0,Español,3.0,Inglés,6.0,4.0,3.0,yes,no,yes,Piano,5,Clarinete,5,Canto,5,,,Durante el último lenguaje mi cabeza ya estaba muy cansada y he empezado a tener un dolor de cabeza muy leve. ,61.0,yes
119,2024-04-13_18h18.46.940,Experiment4_uns,s162,21.0,feminino,right,España,CatalánEspañol,Bachelor degree,no,no,A,1,conjunction_syn,L3,syncopated,s1,r2,119,Online_conjL3_syn//d.ji.li15.1554.444.wav,ñe,je,li,sa,sil,ko,fu,ji,sil1,gu,sil2,['false alarm'],[1.358100000009017],[1.358100000009017],1.554,no_beat,,,"[""space""]",ji,4,,,,,,,,,,,,,,,3.0,2.0,Catalán,0.0,Español,3.0,Inglés,6.0,4.0,3.0,yes,no,yes,Piano,5,Clarinete,5,Canto,5,,,Durante el último lenguaje mi cabeza ya estaba muy cansada y he empezado a tener un dolor de cabeza muy leve. ,61.0,yes
120,2024-04-13_18h18.46.940,Experiment4_uns,s162,21.0,feminino,right,España,CatalánEspañol,Bachelor degree,no,no,A,1,conjunction_syn,L3,syncopated,s1,r1,120,Online_conjL3_syn//c.gu.je0.1332.444.wav,chu,ga,je,mo,sil,ko,gu,ji,sil1,do,sil2,['catch'],[2.42620000000295],[2.42620000000295],1.332,no_beat,1.09420000000295,1.09420000000295,"[""space""]",gu,3,,,,,,,,,,,,,,,3.0,2.0,Catalán,0.0,Español,3.0,Inglés,6.0,4.0,3.0,yes,no,yes,Piano,5,Clarinete,5,Canto,5,,,Durante el último lenguaje mi cabeza ya estaba muy cansada y he empezado a tener un dolor de cabeza muy leve. ,61.0,yes
121,2024-04-13_18h18.46.940,Experiment4_uns,s162,21.0,feminino,right,España,CatalánEspañol,Bachelor degree,no,no,A,1,conjunction_syn,L3,syncopated,s1,r1,121,Online_conjL3_syn//c.gu.je1.222.1332.wav,chu,gu,li,mo,sil,di,je,fu,sil1,ka,sil2,['miss'],,,0.222,no_beat,,,,gu,3,,,,,,,,,,,,,,,3.0,2.0,Catalán,0.0,Español,3.0,Inglés,6.0,4.0,3.0,yes,no,yes,Piano,5,Clarinete,5,Canto,5,,,Durante el último lenguaje mi cabeza ya estaba muy cansada y he empezado a tener un dolor de cabeza muy leve. ,61.0,yes
122,2024-04-13_18h18.46.940,Experiment4_uns,s162,21.0,feminino,right,España,CatalánEspañol,Bachelor degree,no,no,A,1,conjunction_syn,L3,syncopated,s1,r2,122,Online_conjL3_syn//c.gu.je2.none.none.wav,ñe,ka,ga,sa,sil,li,ji,do,sil1,le,sil2,['-'],,,none,none,,,,gu,3,,,,,,,,,,,,,,,3.0,2.0,Catalán,0.0,Español,3.0,Inglés,6.0,4.0,3.0,yes,no,yes,Piano,5,Clarinete,5,Canto,5,,,Durante el último lenguaje mi cabeza ya estaba muy cansada y he empezado a tener un dolor de cabeza muy leve. ,61.0,yes
123,2024-04-13_18h18.46.940,Experiment4_uns,s162,21.0,feminino,right,España,CatalánEspañol,Bachelor degree,no,no,A,1,conjunction_syn,L3,syncopated,s1,r1,123,Online_conjL3_syn//c.gu.je3.none.none.wav,chu,ka,li,mo,sil,ga,le,di,sil1,ji,sil2,['-'],,,none,none,,,,gu,3,,,,,,,,,,,,,,,3.0,2.0,Catalán,0.0,Español,3.0,Inglés,6.0,4.0,3.0,yes,no,yes,Piano,5,Clarinete,5,Canto,5,,,Durante el último lenguaje mi cabeza ya estaba muy cansada y he empezado a tener un dolor de cabeza muy leve. ,61.0,yes
124,2024-04-13_18h18.46.940,Experiment4_uns,s162,21.0,feminino,right,España,CatalánEspañol,Bachelor degree,no,no,A,1,conjunction_syn,L3,syncopated,s2,r1,124,Online_conjL3_syn//b.ñe.sa17.none.none.wav,di,ka,le,chu,sil,ji,ga,mo,sil1,ko,sil2,['-'],,,none,none,,,,ñe,1,,,,,,,,,,,,,,,3.0,2.0,Catalán,0.0,Español,3.0,Inglés,6.0,4.0,3.0,yes,no,yes,Piano,5,Clarinete,5,Canto,5,,,Durante el último lenguaje mi cabeza ya estaba muy cansada y he empezado a tener un dolor de cabeza muy leve. ,61.0,yes
125,2024-04-13_18h18.46.940,Experiment4_uns,s162,21.0,feminino,right,España,CatalánEspañol,Bachelor degree,no,no,A,1,conjunction_syn,L3,syncopated,s1,r1,125,Online_conjL3_syn//b.ñe.sa18.none.none.wav,chu,li,ga,mo,sil,di,do,je,sil1,le,sil2,['-'],,,none,none,,,,ñe,1,,,,,,,,,,,,,,,3.0,2.0,Catalán,0.0,Español,3.0,Inglés,6.0,4.0,3.0,yes,no,yes,Piano,5,Clarinete,5,Canto,5,,,Durante el último lenguaje mi cabeza ya estaba muy cansada y he empezado a tener un dolor de cabeza muy leve. ,61.0,yes
126,2024-04-13_18h18.46.940,Experiment4_uns,s162,21.0,feminino,right,España,CatalánEspañol,Bachelor degree,no,no,A,1,conjunction_syn,L3,syncopated,s1,r2,126,Online_conjL3_syn//b.ñe.sa16.0.666.wav,ñe,ka,le,sa,sil,do,ga,ji,sil1,fu,sil2,['miss'],,,0.0,beat,,,,ñe,1,,,,,,,,,,,,,,,3.0,2.0,Catalán,0.0,Español,3.0,Inglés,6.0,4.0,3.0,yes,no,yes,Piano,5,Clarinete,5,Canto,5,,,Durante el último lenguaje mi cabeza ya estaba muy cansada y he empezado a tener un dolor de cabeza muy leve. ,61.0,yes
127,2024-04-13_18h18.46.940,Experiment4_uns,s162,21.0,feminino,right,España,CatalánEspañol,Bachelor degree,no,no,A,1,conjunction_syn,L3,syncopated,s2,r2,127,Online_conjL3_syn//b.ñe.sa19.666.1554.wav,do,fu,le,ñe,sil,li,je,sa,sil1,ji,sil2,['catch'],[1.322499999999991],[1.322499999999991],0.666,no_beat,0.6564999999999909,0.6564999999999909,"[""space""]",ñe,1,,,,,,,,,,,,,,,3.0,2.0,Catalán,0.0,Español,3.0,Inglés,6.0,4.0,3.0,yes,no,yes,Piano,5,Clarinete,5,Canto,5,,,Durante el último lenguaje mi cabeza ya estaba muy cansada y he empezado a tener un dolor de cabeza muy leve. ,61.0,yes
128,2024-04-13_18h18.46.940,Experiment4_uns,s162,21.0,feminino,right,España,CatalánEspañol,Bachelor degree,no,no,A,2,conjunction_un,L4,unsyncopated,s2,r2,0,Online_conjL4_un//a.zi.lo23.none.none.wav,ñi,bo,po,sil,ja,da,ña,sil1,nu,re,sil2,['-'],,,none,none,,,,lo,2,,,,,,,,,,,,,,,3.0,2.0,Catalán,0.0,Español,3.0,Inglés,6.0,4.0,3.0,yes,no,yes,Piano,5,Clarinete,5,Canto,5,,,Durante el último lenguaje mi cabeza ya estaba muy cansada y he empezado a tener un dolor de cabeza muy leve. ,61.0,yes
129,2024-04-13_18h18.46.940,Experiment4_uns,s162,21.0,feminino,right,España,CatalánEspañol,Bachelor degree,no,no,A,2,conjunction_un,L4,unsyncopated,s2,r1,1,Online_conjL4_un//a.zi.lo21.888.1776.wav,ci,da,de,sil,zi,bu,po,sil1,lo,re,sil2,['catch'],[2.52220000000284],[2.52220000000284],1.776,beat,0.7462000000028401,0.7462000000028401,"[""space""]",lo,2,,,,,,,,,,,,,,,3.0,2.0,Catalán,0.0,Español,3.0,Inglés,6.0,4.0,3.0,yes,no,yes,Piano,5,Clarinete,5,Canto,5,,,Durante el último lenguaje mi cabeza ya estaba muy cansada y he empezado a tener un dolor de cabeza muy leve. ,61.0,yes
130,2024-04-13_18h18.46.940,Experiment4_uns,s162,21.0,feminino,right,España,CatalánEspañol,Bachelor degree,no,no,A,2,conjunction_un,L4,unsyncopated,s1,r2,2,Online_conjL4_un//a.zi.lo20.none.none.wav,ja,da,ñi,sil,nu,ña,ci,sil1,re,ru,sil2,['-'],,,none,none,,,,lo,2,,,,,,,,,,,,,,,3.0,2.0,Catalán,0.0,Español,3.0,Inglés,6.0,4.0,3.0,yes,no,yes,Piano,5,Clarinete,5,Canto,5,,,Durante el último lenguaje mi cabeza ya estaba muy cansada y he empezado a tener un dolor de cabeza muy leve. ,61.0,yes
131,2024-04-13_18h18.46.940,Experiment4_uns,s162,21.0,feminino,right,España,CatalánEspañol,Bachelor degree,no,no,A,2,conjunction_un,L4,unsyncopated,s2,r1,3,Online_conjL4_un//a.zi.lo22.888.1776.wav,bu,ñi,pe,sil,zi,bo,ci,sil1,lo,ru,sil2,['catch'],[2.489799999996876],[2.489799999996876],1.776,beat,0.713799999996876,0.713799999996876,"[""space""]",lo,2,,,,,,,,,,,,,,,3.0,2.0,Catalán,0.0,Español,3.0,Inglés,6.0,4.0,3.0,yes,no,yes,Piano,5,Clarinete,5,Canto,5,,,Durante el último lenguaje mi cabeza ya estaba muy cansada y he empezado a tener un dolor de cabeza muy leve. ,61.0,yes
132,2024-04-13_18h18.46.940,Experiment4_uns,s162,21.0,feminino,right,España,CatalánEspañol,Bachelor degree,no,no,A,2,conjunction_un,L4,unsyncopated,s1,r2,4,Online_conjL4_un//a.zi.lo4.none.none.wav,ja,da,ñi,sil,nu,pe,re,sil1,bu,bo,sil2,['-'],,,none,none,,,,lo,2,,,,,,,,,,,,,,,3.0,2.0,Catalán,0.0,Español,3.0,Inglés,6.0,4.0,3.0,yes,no,yes,Piano,5,Clarinete,5,Canto,5,,,Durante el último lenguaje mi cabeza ya estaba muy cansada y he empezado a tener un dolor de cabeza muy leve. ,61.0,yes
133,2024-04-13_18h18.46.940,Experiment4_uns,s162,21.0,feminino,right,España,CatalánEspañol,Bachelor degree,no,no,A,2,conjunction_un,L4,unsyncopated,s2,r2,5,Online_conjL4_un//a.zi.lo5.none.none.wav,ñi,re,pe,sil,ja,da,ña,sil1,nu,bu,sil2,['false alarm'],[2.372399999991103],[2.372399999991103],none,none,,,"[""space""]",lo,2,,,,,,,,,,,,,,,3.0,2.0,Catalán,0.0,Español,3.0,Inglés,6.0,4.0,3.0,yes,no,yes,Piano,5,Clarinete,5,Canto,5,,,Durante el último lenguaje mi cabeza ya estaba muy cansada y he empezado a tener un dolor de cabeza muy leve. ,61.0,yes
134,2024-04-13_18h18.46.940,Experiment4_uns,s162,21.0,feminino,right,España,CatalánEspañol,Bachelor degree,no,no,A,2,conjunction_un,L4,unsyncopated,s1,r1,6,Online_conjL4_un//a.zi.lo6.0.888.wav,zi,da,po,sil,lo,de,ci,sil1,re,bo,sil2,['catch'],[1.8748999999909302],[1.8748999999909302],0.888,beat,0.98689999999093,0.98689999999093,"[""space""]",lo,2,,,,,,,,,,,,,,,3.0,2.0,Catalán,0.0,Español,3.0,Inglés,6.0,4.0,3.0,yes,no,yes,Piano,5,Clarinete,5,Canto,5,,,Durante el último lenguaje mi cabeza ya estaba muy cansada y he empezado a tener un dolor de cabeza muy leve. ,61.0,yes
135,2024-04-13_18h18.46.940,Experiment4_uns,s162,21.0,feminino,right,España,CatalánEspañol,Bachelor degree,no,no,A,2,conjunction_un,L4,unsyncopated,s1,r1,7,Online_conjL4_un//a.zi.lo7.0.888.wav,zi,ci,da,sil,lo,ñi,de,sil1,ru,po,sil2,['catch'],[1.5895000000000437],[1.5895000000000437],0.888,beat,0.7015000000000436,0.7015000000000436,"[""space""]",lo,2,,,,,,,,,,,,,,,3.0,2.0,Catalán,0.0,Español,3.0,Inglés,6.0,4.0,3.0,yes,no,yes,Piano,5,Clarinete,5,Canto,5,,,Durante el último lenguaje mi cabeza ya estaba muy cansada y he empezado a tener un dolor de cabeza muy leve. ,61.0,yes
136,2024-04-13_18h18.46.940,Experiment4_uns,s162,21.0,feminino,right,España,CatalánEspañol,Bachelor degree,no,no,A,2,conjunction_un,L4,unsyncopated,s1,r1,8,Online_conjL4_un//b.ja.nu5.none.none.wav,zi,ci,ñi,sil,lo,bo,da,sil1,po,ña,sil2,['-'],,,none,none,,,,ja,1,,,,,,,,,,,,,,,3.0,2.0,Catalán,0.0,Español,3.0,Inglés,6.0,4.0,3.0,yes,no,yes,Piano,5,Clarinete,5,Canto,5,,,Durante el último lenguaje mi cabeza ya estaba muy cansada y he empezado a tener un dolor de cabeza muy leve. ,61.0,yes
137,2024-04-13_18h18.46.940,Experiment4_uns,s162,21.0,feminino,right,España,CatalánEspañol,Bachelor degree,no,no,A,2,conjunction_un,L4,unsyncopated,s1,r1,9,Online_conjL4_un//b.ja.nu6.none.none.wav,zi,de,bo,sil,lo,ñi,da,sil1,ña,bu,sil2,['-'],,,none,none,,,,ja,1,,,,,,,,,,,,,,,3.0,2.0,Catalán,0.0,Español,3.0,Inglés,6.0,4.0,3.0,yes,no,yes,Piano,5,Clarinete,5,Canto,5,,,Durante el último lenguaje mi cabeza ya estaba muy cansada y he empezado a tener un dolor de cabeza muy leve. ,61.0,yes
138,2024-04-13_18h18.46.940,Experiment4_uns,s162,21.0,feminino,right,España,CatalánEspañol,Bachelor degree,no,no,A,2,conjunction_un,L4,unsyncopated,s2,r2,10,Online_conjL4_un//b.ja.nu7.888.1776.wav,pe,bu,bo,sil,ja,de,da,sil1,nu,ña,sil2,['catch'],[1.5054999999999836],[1.5054999999999836],0.888,beat,0.6174999999999836,0.6174999999999836,"[""space""]",ja,1,,,,,,,,,,,,,,,3.0,2.0,Catalán,0.0,Español,3.0,Inglés,6.0,4.0,3.0,yes,no,yes,Piano,5,Clarinete,5,Canto,5,,,Durante el último lenguaje mi cabeza ya estaba muy cansada y he empezado a tener un dolor de cabeza muy leve. ,61.0,yes
139,2024-04-13_18h18.46.940,Experiment4_uns,s162,21.0,feminino,right,España,CatalánEspañol,Bachelor degree,no,no,A,2,conjunction_un,L4,unsyncopated,s2,r1,11,Online_conjL4_un//b.ja.nu4.none.none.wav,ru,pe,bo,sil,zi,ña,ci,sil1,lo,da,sil2,['-'],,,none,none,,,,ja,1,,,,,,,,,,,,,,,3.0,2.0,Catalán,0.0,Español,3.0,Inglés,6.0,4.0,3.0,yes,no,yes,Piano,5,Clarinete,5,Canto,5,,,Durante el último lenguaje mi cabeza ya estaba muy cansada y he empezado a tener un dolor de cabeza muy leve. ,61.0,yes
140,2024-04-13_18h18.46.940,Experiment4_uns,s162,21.0,feminino,right,España,CatalánEspañol,Bachelor degree,no,no,A,2,conjunction_un,L4,unsyncopated,s1,r2,12,Online_conjL4_un//b.ja.nu3.0.888.wav,ja,ña,re,sil,nu,bo,po,sil1,ci,ñi,sil2,['catch'],[0.5858999999911703],[0.5858999999911703],0.0,beat,0.5858999999911703,0.5858999999911703,"[""space""]",ja,1,,,,,,,,,,,,,,,3.0,2.0,Catalán,0.0,Español,3.0,Inglés,6.0,4.0,3.0,yes,no,yes,Piano,5,Clarinete,5,Canto,5,,,Durante el último lenguaje mi cabeza ya estaba muy cansada y he empezado a tener un dolor de cabeza muy leve. ,61.0,yes
141,2024-04-13_18h18.46.940,Experiment4_uns,s162,21.0,feminino,right,España,CatalánEspañol,Bachelor degree,no,no,A,2,conjunction_un,L4,unsyncopated,s2,r1,13,Online_conjL4_un//b.ja.nu1.none.none.wav,bo,ci,ru,sil,zi,re,da,sil1,lo,de,sil2,['-'],,,none,none,,,,ja,1,,,,,,,,,,,,,,,3.0,2.0,Catalán,0.0,Español,3.0,Inglés,6.0,4.0,3.0,yes,no,yes,Piano,5,Clarinete,5,Canto,5,,,Durante el último lenguaje mi cabeza ya estaba muy cansada y he empezado a tener un dolor de cabeza muy leve. ,61.0,yes
142,2024-04-13_18h18.46.940,Experiment4_uns,s162,21.0,feminino,right,España,CatalánEspañol,Bachelor degree,no,no,A,2,conjunction_un,L4,unsyncopated,s2,r2,14,Online_conjL4_un//b.ja.nu2.888.1776.wav,po,ci,bu,sil,ja,pe,ru,sil1,nu,de,sil2,['catch'],[1.6077000000029784],[1.6077000000029784],0.888,beat,0.7197000000029784,0.7197000000029784,"[""space""]",ja,1,,,,,,,,,,,,,,,3.0,2.0,Catalán,0.0,Español,3.0,Inglés,6.0,4.0,3.0,yes,no,yes,Piano,5,Clarinete,5,Canto,5,,,Durante el último lenguaje mi cabeza ya estaba muy cansada y he empezado a tener un dolor de cabeza muy leve. ,61.0,yes
143,2024-04-13_18h18.46.940,Experiment4_uns,s162,21.0,feminino,right,España,CatalánEspañol,Bachelor degree,no,no,A,2,conjunction_un,L4,unsyncopated,s2,r1,15,Online_conjL4_un//b.ja.nu0.none.none.wav,de,ru,da,sil,zi,re,pe,sil1,lo,bu,sil2,['-'],,,none,none,,,,ja,1,,,,,,,,,,,,,,,3.0,2.0,Catalán,0.0,Español,3.0,Inglés,6.0,4.0,3.0,yes,no,yes,Piano,5,Clarinete,5,Canto,5,,,Durante el último lenguaje mi cabeza ya estaba muy cansada y he empezado a tener un dolor de cabeza muy leve. ,61.0,yes
144,2024-04-13_18h18.46.940,Experiment4_uns,s162,21.0,feminino,right,España,CatalánEspañol,Bachelor degree,no,no,A,2,conjunction_un,L4,unsyncopated,s2,r2,16,Online_conjL4_un//b.ja.nu30.888.1776.wav,pe,re,ña,sil,ja,po,de,sil1,nu,da,sil2,['catch'],[1.6592000000030112],[1.6592000000030112],0.888,beat,0.7712000000030111,0.7712000000030111,"[""space""]",ja,1,,,,,,,,,,,,,,,3.0,2.0,Catalán,0.0,Español,3.0,Inglés,6.0,4.0,3.0,yes,no,yes,Piano,5,Clarinete,5,Canto,5,,,Durante el último lenguaje mi cabeza ya estaba muy cansada y he empezado a tener un dolor de cabeza muy leve. ,61.0,yes
145,2024-04-13_18h18.46.940,Experiment4_uns,s162,21.0,feminino,right,España,CatalánEspañol,Bachelor degree,no,no,A,2,conjunction_un,L4,unsyncopated,s2,r1,17,Online_conjL4_un//b.ja.nu31.none.none.wav,ru,pe,ñi,sil,zi,ña,da,sil1,lo,ci,sil2,['-'],,,none,none,,,,ja,1,,,,,,,,,,,,,,,3.0,2.0,Catalán,0.0,Español,3.0,Inglés,6.0,4.0,3.0,yes,no,yes,Piano,5,Clarinete,5,Canto,5,,,Durante el último lenguaje mi cabeza ya estaba muy cansada y he empezado a tener un dolor de cabeza muy leve. ,61.0,yes
146,2024-04-13_18h18.46.940,Experiment4_uns,s162,21.0,feminino,right,España,CatalánEspañol,Bachelor degree,no,no,A,2,conjunction_un,L4,unsyncopated,s1,r1,18,Online_conjL4_un//b.ja.nu28.none.none.wav,zi,po,pe,sil,lo,bo,ñi,sil1,re,ci,sil2,['-'],,,none,none,,,,ja,1,,,,,,,,,,,,,,,3.0,2.0,Catalán,0.0,Español,3.0,Inglés,6.0,4.0,3.0,yes,no,yes,Piano,5,Clarinete,5,Canto,5,,,Durante el último lenguaje mi cabeza ya estaba muy cansada y he empezado a tener un dolor de cabeza muy leve. ,61.0,yes
147,2024-04-13_18h18.46.940,Experiment4_uns,s162,21.0,feminino,right,España,CatalánEspañol,Bachelor degree,no,no,A,2,conjunction_un,L4,unsyncopated,s2,r1,19,Online_conjL4_un//b.ja.nu29.none.none.wav,ci,da,po,sil,zi,bu,de,sil1,lo,ña,sil2,['-'],,,none,none,,,,ja,1,,,,,,,,,,,,,,,3.0,2.0,Catalán,0.0,Español,3.0,Inglés,6.0,4.0,3.0,yes,no,yes,Piano,5,Clarinete,5,Canto,5,,,Durante el último lenguaje mi cabeza ya estaba muy cansada y he empezado a tener un dolor de cabeza muy leve. ,61.0,yes
148,2024-04-13_18h18.46.940,Experiment4_uns,s162,21.0,feminino,right,España,CatalánEspañol,Bachelor degree,no,no,A,2,conjunction_un,L4,unsyncopated,s1,r1,20,Online_conjL4_un//d.pe.po28.444.1332.wav,zi,ci,pe,sil,lo,ñi,po,sil1,ña,da,sil2,['catch'],[1.2353999999911593],[1.2353999999911593],0.444,no_beat,0.7913999999911594,0.7913999999911594,"[""space""]",pe,4,,,,,,,,,,,,,,,3.0,2.0,Catalán,0.0,Español,3.0,Inglés,6.0,4.0,3.0,yes,no,yes,Piano,5,Clarinete,5,Canto,5,,,Durante el último lenguaje mi cabeza ya estaba muy cansada y he empezado a tener un dolor de cabeza muy leve. ,61.0,yes
149,2024-04-13_18h18.46.940,Experiment4_uns,s162,21.0,feminino,right,España,CatalánEspañol,Bachelor degree,no,no,A,2,conjunction_un,L4,unsyncopated,s1,r2,21,Online_conjL4_un//d.pe.po31.none.none.wav,ja,re,ña,sil,nu,bo,ci,sil1,bu,de,sil2,['-'],,,none,none,,,,pe,4,,,,,,,,,,,,,,,3.0,2.0,Catalán,0.0,Español,3.0,Inglés,6.0,4.0,3.0,yes,no,yes,Piano,5,Clarinete,5,Canto,5,,,Durante el último lenguaje mi cabeza ya estaba muy cansada y he empezado a tener un dolor de cabeza muy leve. ,61.0,yes
150,2024-04-13_18h18.46.940,Experiment4_uns,s162,21.0,feminino,right,España,CatalánEspañol,Bachelor degree,no,no,A,2,conjunction_un,L4,unsyncopated,s2,r1,22,Online_conjL4_un//d.pe.po29.none.none.wav,bo,ña,bu,sil,zi,ru,ci,sil1,lo,de,sil2,['-'],,,none,none,,,,pe,4,,,,,,,,,,,,,,,3.0,2.0,Catalán,0.0,Español,3.0,Inglés,6.0,4.0,3.0,yes,no,yes,Piano,5,Clarinete,5,Canto,5,,,Durante el último lenguaje mi cabeza ya estaba muy cansada y he empezado a tener un dolor de cabeza muy leve. ,61.0,yes
151,2024-04-13_18h18.46.940,Experiment4_uns,s162,21.0,feminino,right,España,CatalánEspañol,Bachelor degree,no,no,A,2,conjunction_un,L4,unsyncopated,s1,r2,23,Online_conjL4_un//d.pe.po30.1776.1110.wav,ja,ñi,ru,sil,nu,po,ña,sil1,pe,da,sil2,['miss'],,,1.776,beat,,,,pe,4,,,,,,,,,,,,,,,3.0,2.0,Catalán,0.0,Español,3.0,Inglés,6.0,4.0,3.0,yes,no,yes,Piano,5,Clarinete,5,Canto,5,,,Durante el último lenguaje mi cabeza ya estaba muy cansada y he empezado a tener un dolor de cabeza muy leve. ,61.0,yes
152,2024-04-13_18h18.46.940,Experiment4_uns,s162,21.0,feminino,right,España,CatalánEspañol,Bachelor degree,no,no,A,2,conjunction_un,L4,unsyncopated,s1,r2,24,Online_conjL4_un//b.ja.nu16.0.888.wav,ja,da,po,sil,nu,ru,bu,sil1,ci,de,sil2,['catch'],[0.7413999999910175],[0.7413999999910175],0.0,beat,0.7413999999910175,0.7413999999910175,"[""space""]",ja,1,,,,,,,,,,,,,,,3.0,2.0,Catalán,0.0,Español,3.0,Inglés,6.0,4.0,3.0,yes,no,yes,Piano,5,Clarinete,5,Canto,5,,,Durante el último lenguaje mi cabeza ya estaba muy cansada y he empezado a tener un dolor de cabeza muy leve. ,61.0,yes
153,2024-04-13_18h18.46.940,Experiment4_uns,s162,21.0,feminino,right,España,CatalánEspañol,Bachelor degree,no,no,A,2,conjunction_un,L4,unsyncopated,s1,r1,25,Online_conjL4_un//b.ja.nu19.none.none.wav,zi,ña,pe,sil,lo,bu,ñi,sil1,da,ru,sil2,['-'],,,none,none,,,,ja,1,,,,,,,,,,,,,,,3.0,2.0,Catalán,0.0,Español,3.0,Inglés,6.0,4.0,3.0,yes,no,yes,Piano,5,Clarinete,5,Canto,5,,,Durante el último lenguaje mi cabeza ya estaba muy cansada y he empezado a tener un dolor de cabeza muy leve. ,61.0,yes
154,2024-04-13_18h18.46.940,Experiment4_uns,s162,21.0,feminino,right,España,CatalánEspañol,Bachelor degree,no,no,A,2,conjunction_un,L4,unsyncopated,s2,r1,26,Online_conjL4_un//b.ja.nu18.none.none.wav,re,ci,bu,sil,zi,ñi,ña,sil1,lo,pe,sil2,['-'],,,none,none,,,,ja,1,,,,,,,,,,,,,,,3.0,2.0,Catalán,0.0,Español,3.0,Inglés,6.0,4.0,3.0,yes,no,yes,Piano,5,Clarinete,5,Canto,5,,,Durante el último lenguaje mi cabeza ya estaba muy cansada y he empezado a tener un dolor de cabeza muy leve. ,61.0,yes
155,2024-04-13_18h18.46.940,Experiment4_uns,s162,21.0,feminino,right,España,CatalánEspañol,Bachelor degree,no,no,A,2,conjunction_un,L4,unsyncopated,s1,r2,27,Online_conjL4_un//b.ja.nu17.0.888.wav,ja,da,ru,sil,nu,ña,ci,sil1,po,re,sil2,['catch'],[0.7081000000089261],[0.7081000000089261],0.0,beat,0.7081000000089261,0.7081000000089261,"[""space""]",ja,1,,,,,,,,,,,,,,,3.0,2.0,Catalán,0.0,Español,3.0,Inglés,6.0,4.0,3.0,yes,no,yes,Piano,5,Clarinete,5,Canto,5,,,Durante el último lenguaje mi cabeza ya estaba muy cansada y he empezado a tener un dolor de cabeza muy leve. ,61.0,yes
156,2024-04-13_18h18.46.940,Experiment4_uns,s162,21.0,feminino,right,España,CatalánEspañol,Bachelor degree,no,no,A,2,conjunction_un,L4,unsyncopated,s2,r2,28,Online_conjL4_un//c.bu.da31.none.none.wav,po,re,bo,sil,ja,ña,ñi,sil1,nu,pe,sil2,['-'],,,none,none,,,,bu,3,,,,,,,,,,,,,,,3.0,2.0,Catalán,0.0,Español,3.0,Inglés,6.0,4.0,3.0,yes,no,yes,Piano,5,Clarinete,5,Canto,5,,,Durante el último lenguaje mi cabeza ya estaba muy cansada y he empezado a tener un dolor de cabeza muy leve. ,61.0,yes
157,2024-04-13_18h18.46.940,Experiment4_uns,s162,21.0,feminino,right,España,CatalánEspañol,Bachelor degree,no,no,A,2,conjunction_un,L4,unsyncopated,s1,r2,29,Online_conjL4_un//c.bu.da30.222.444.wav,ja,bu,da,sil,nu,pe,bo,sil1,ña,de,sil2,['miss'],,,0.222,no_beat,,,,bu,3,,,,,,,,,,,,,,,3.0,2.0,Catalán,0.0,Español,3.0,Inglés,6.0,4.0,3.0,yes,no,yes,Piano,5,Clarinete,5,Canto,5,,,Durante el último lenguaje mi cabeza ya estaba muy cansada y he empezado a tener un dolor de cabeza muy leve. ,61.0,yes
158,2024-04-13_18h18.46.940,Experiment4_uns,s162,21.0,feminino,right,España,CatalánEspañol,Bachelor degree,no,no,A,2,conjunction_un,L4,unsyncopated,s2,r2,30,Online_conjL4_un//c.bu.da29.none.none.wav,bo,ña,re,sil,ja,ci,ru,sil1,nu,ñi,sil2,['-'],,,none,none,,,,bu,3,,,,,,,,,,,,,,,3.0,2.0,Catalán,0.0,Español,3.0,Inglés,6.0,4.0,3.0,yes,no,yes,Piano,5,Clarinete,5,Canto,5,,,Durante el último lenguaje mi cabeza ya estaba muy cansada y he empezado a tener un dolor de cabeza muy leve. ,61.0,yes
159,2024-04-13_18h18.46.940,Experiment4_uns,s162,21.0,feminino,right,España,CatalánEspañol,Bachelor degree,no,no,A,2,conjunction_un,L4,unsyncopated,s1,r1,31,Online_conjL4_un//c.bu.da28.1776.1110.wav,zi,re,ru,sil,lo,da,pe,sil1,bu,ña,sil2,['catch'],[2.5742000000029748],[2.5742000000029748],1.776,beat,0.7982000000029748,0.7982000000029748,"[""space""]",bu,3,,,,,,,,,,,,,,,3.0,2.0,Catalán,0.0,Español,3.0,Inglés,6.0,4.0,3.0,yes,no,yes,Piano,5,Clarinete,5,Canto,5,,,Durante el último lenguaje mi cabeza ya estaba muy cansada y he empezado a tener un dolor de cabeza muy leve. ,61.0,yes
160,2024-04-13_18h18.46.940,Experiment4_uns,s162,21.0,feminino,right,España,CatalánEspañol,Bachelor degree,no,no,A,2,conjunction_un,L4,unsyncopated,s1,r2,32,Online_conjL4_un//a.zi.lo19.none.none.wav,ja,bo,po,sil,nu,pe,re,sil1,ci,ña,sil2,['-'],,,none,none,,,,lo,2,,,,,,,,,,,,,,,3.0,2.0,Catalán,0.0,Español,3.0,Inglés,6.0,4.0,3.0,yes,no,yes,Piano,5,Clarinete,5,Canto,5,,,Durante el último lenguaje mi cabeza ya estaba muy cansada y he empezado a tener un dolor de cabeza muy leve. ,61.0,yes
161,2024-04-13_18h18.46.940,Experiment4_uns,s162,21.0,feminino,right,España,CatalánEspañol,Bachelor degree,no,no,A,2,conjunction_un,L4,unsyncopated,s2,r1,33,Online_conjL4_un//a.zi.lo18.888.1776.wav,po,da,ña,sil,zi,re,ci,sil1,lo,de,sil2,['catch'],[2.471699999988232],[2.471699999988232],1.776,beat,0.6956999999882318,0.6956999999882318,"[""space""]",lo,2,,,,,,,,,,,,,,,3.0,2.0,Catalán,0.0,Español,3.0,Inglés,6.0,4.0,3.0,yes,no,yes,Piano,5,Clarinete,5,Canto,5,,,Durante el último lenguaje mi cabeza ya estaba muy cansada y he empezado a tener un dolor de cabeza muy leve. ,61.0,yes
162,2024-04-13_18h18.46.940,Experiment4_uns,s162,21.0,feminino,right,España,CatalánEspañol,Bachelor degree,no,no,A,2,conjunction_un,L4,unsyncopated,s2,r2,34,Online_conjL4_un//a.zi.lo17.none.none.wav,re,pe,ru,sil,ja,bu,ña,sil1,nu,po,sil2,['-'],,,none,none,,,,lo,2,,,,,,,,,,,,,,,3.0,2.0,Catalán,0.0,Español,3.0,Inglés,6.0,4.0,3.0,yes,no,yes,Piano,5,Clarinete,5,Canto,5,,,Durante el último lenguaje mi cabeza ya estaba muy cansada y he empezado a tener un dolor de cabeza muy leve. ,61.0,yes
163,2024-04-13_18h18.46.940,Experiment4_uns,s162,21.0,feminino,right,España,CatalánEspañol,Bachelor degree,no,no,A,2,conjunction_un,L4,unsyncopated,s1,r1,35,Online_conjL4_un//a.zi.lo16.0.888.wav,zi,ci,ru,sil,lo,bu,de,sil1,da,po,sil2,['catch'],[1.8454000000058386],[1.8454000000058386],0.888,beat,0.9574000000058386,0.9574000000058386,"[""space""]",lo,2,,,,,,,,,,,,,,,3.0,2.0,Catalán,0.0,Español,3.0,Inglés,6.0,4.0,3.0,yes,no,yes,Piano,5,Clarinete,5,Canto,5,,,Durante el último lenguaje mi cabeza ya estaba muy cansada y he empezado a tener un dolor de cabeza muy leve. ,61.0,yes
164,2024-04-13_18h18.46.940,Experiment4_uns,s162,21.0,feminino,right,España,CatalánEspañol,Bachelor degree,no,no,A,2,conjunction_un,L4,unsyncopated,s1,r2,36,Online_conjL4_un//c.bu.da9.none.none.wav,ja,re,ñi,sil,nu,ña,de,sil1,bo,po,sil2,['-'],,,none,none,,,,bu,3,,,,,,,,,,,,,,,3.0,2.0,Catalán,0.0,Español,3.0,Inglés,6.0,4.0,3.0,yes,no,yes,Piano,5,Clarinete,5,Canto,5,,,Durante el último lenguaje mi cabeza ya estaba muy cansada y he empezado a tener un dolor de cabeza muy leve. ,61.0,yes
165,2024-04-13_18h18.46.940,Experiment4_uns,s162,21.0,feminino,right,España,CatalánEspañol,Bachelor degree,no,no,A,2,conjunction_un,L4,unsyncopated,s2,r2,37,Online_conjL4_un//c.bu.da10.0.1110.wav,bu,po,ña,sil,ja,da,ru,sil1,nu,ñi,sil2,['catch'],[0.775399999991123],[0.775399999991123],0.0,beat,0.775399999991123,0.775399999991123,"[""space""]",bu,3,,,,,,,,,,,,,,,3.0,2.0,Catalán,0.0,Español,3.0,Inglés,6.0,4.0,3.0,yes,no,yes,Piano,5,Clarinete,5,Canto,5,,,Durante el último lenguaje mi cabeza ya estaba muy cansada y he empezado a tener un dolor de cabeza muy leve. ,61.0,yes
166,2024-04-13_18h18.46.940,Experiment4_uns,s162,21.0,feminino,right,España,CatalánEspañol,Bachelor degree,no,no,A,2,conjunction_un,L4,unsyncopated,s1,r2,38,Online_conjL4_un//c.bu.da11.none.none.wav,ja,bo,ñi,sil,nu,pe,re,sil1,ci,ña,sil2,['-'],,,none,none,,,,bu,3,,,,,,,,,,,,,,,3.0,2.0,Catalán,0.0,Español,3.0,Inglés,6.0,4.0,3.0,yes,no,yes,Piano,5,Clarinete,5,Canto,5,,,Durante el último lenguaje mi cabeza ya estaba muy cansada y he empezado a tener un dolor de cabeza muy leve. ,61.0,yes
167,2024-04-13_18h18.46.940,Experiment4_uns,s162,21.0,feminino,right,España,CatalánEspañol,Bachelor degree,no,no,A,2,conjunction_un,L4,unsyncopated,s2,r2,39,Online_conjL4_un//c.bu.da8.1332.444.wav,ña,ñi,da,sil,ja,ru,bu,sil1,nu,ci,sil2,['catch'],[2.2654999999999745],[2.2654999999999745],1.332,no_beat,0.9334999999999744,0.9334999999999744,"[""space""]",bu,3,,,,,,,,,,,,,,,3.0,2.0,Catalán,0.0,Español,3.0,Inglés,6.0,4.0,3.0,yes,no,yes,Piano,5,Clarinete,5,Canto,5,,,Durante el último lenguaje mi cabeza ya estaba muy cansada y he empezado a tener un dolor de cabeza muy leve. ,61.0,yes
168,2024-04-13_18h18.46.940,Experiment4_uns,s162,21.0,feminino,right,España,CatalánEspañol,Bachelor degree,no,no,A,2,conjunction_un,L4,unsyncopated,s1,r2,40,Online_conjL4_un//d.pe.po15.444.1332.wav,ja,bu,pe,sil,nu,ru,po,sil1,de,da,sil2,['catch'],[1.1040000000000418],[1.1040000000000418],0.444,no_beat,0.6600000000000419,0.6600000000000419,"[""space""]",pe,4,,,,,,,,,,,,,,,3.0,2.0,Catalán,0.0,Español,3.0,Inglés,6.0,4.0,3.0,yes,no,yes,Piano,5,Clarinete,5,Canto,5,,,Durante el último lenguaje mi cabeza ya estaba muy cansada y he empezado a tener un dolor de cabeza muy leve. ,61.0,yes
