Unnamed: 0,date,expName,participant,age,sex,hand,residence,native_lang,education_level,lang_deficit,aud_deficit,group,block,condition,language,rhythm,rule structure online,rule type online,order_trial_on,trial_online,s1,s2,s3,s4,s5,s6,s7,s8,s9,s10,s11,catch_syll_resp,rts_syll_catch,clean_rts,time_syll,beat_no_beat,catch_rtsTR,catch_rts,syllable_catch.keys,cond_syll,syll_to_catch,test_offline,block_off,condition_off,rhythm_off,rule,rule_str_off,rule_norule,conds_offline,language_off,Partz_no_partm.keys,Partz_no_partm.rt,security_1_7.keys,accuracy,security_1_7.rt,n_lang,n_lang_used,lang_1,age_l1,lang_2,age_l2,lang_3,age_l3,ability_learn_l2,tendence_mix_lan,music_experience,muisc_use,partiture,instr_1,age_M1,preguntas_musica1,BMRQ_answer.response,final comment,BMRQ_Score,bilingual
0,2023-12-19_20h05.31.508,Unsyncopated_study2,s87,18.0,feminino,right,España,"Catalán, Castellano",Upper secondary,no,no,A,1,conjunction_un,L2,unsyncopated,s1,r2,0,Online_conjL2_un//b.fe.ra16.0.888.wav,fe,ñi,mi,sil,ra,bi,su,sil1,ñu,me,sil2,['miss'],,,0.0,beat,,,,fe,1,testConjL2Uns//r1.s2.1.wav,1.0,conjunction_un,unsyncopated,a,s2,rule,rule,L2,z,2.9461,6.0,1.0,2.4578,3.0,3.0,Catalán,0.0,Castellano,0.0,Inglés,6.0,4.0,3.0,no,no,no,nada,,1. Cuando comparto música con alguien siento una complicidad especial con aquella persona.,4.0,"En el tercer lenguaje he tenido una breve distracción, y en los dos últimos estaba notablemente más cansada que en los dos primeros.",55.0,yes
1,2023-12-19_20h05.31.508,Unsyncopated_study2,s87,18.0,feminino,right,España,"Catalán, Castellano",Upper secondary,no,no,A,1,conjunction_un,L2,unsyncopated,s2,r1,1,Online_conjL2_un//b.fe.ra19.none.none.wav,me,mi,to,sil,go,ñu,ñi,sil1,du,ba,sil2,['-'],,,none,none,,,,fe,1,testConjL2Uns//cat_viol.r2.s1.0.wav,1.0,conjunction_un,unsyncopated,b,s1,no_rule,cat,L2,m,3.0714,4.0,1.0,4.704,3.0,3.0,Catalán,0.0,Castellano,0.0,Inglés,6.0,4.0,3.0,no,no,no,nada,,2. En mi tiempo libre apenas escucho música.,5.0,"En el tercer lenguaje he tenido una breve distracción, y en los dos últimos estaba notablemente más cansada que en los dos primeros.",55.0,yes
2,2023-12-19_20h05.31.508,Unsyncopated_study2,s87,18.0,feminino,right,España,"Catalán, Castellano",Upper secondary,no,no,A,1,conjunction_un,L2,unsyncopated,s1,r2,2,Online_conjL2_un//b.fe.ra17.0.888.wav,fe,cha,mi,sil,ra,si,su,sil1,ba,ñi,sil2,['catch'],[0.34550000000001546],[0.34550000000001546],0.0,beat,0.3455000000000154,0.3455000000000154,"[""space""]",fe,1,testConjL2Uns//r2.s2.1.wav,1.0,conjunction_un,unsyncopated,b,s2,rule,rule,L2,m,1.8099,4.0,0.0,4.2302,3.0,3.0,Catalán,0.0,Castellano,0.0,Inglés,6.0,4.0,3.0,no,no,no,nada,,3. Algunas canciones me ponen los pelos de punta,3.0,"En el tercer lenguaje he tenido una breve distracción, y en los dos últimos estaba notablemente más cansada que en los dos primeros.",55.0,yes
3,2023-12-19_20h05.31.508,Unsyncopated_study2,s87,18.0,feminino,right,España,"Catalán, Castellano",Upper secondary,no,no,A,1,conjunction_un,L2,unsyncopated,s1,r1,3,Online_conjL2_un//b.fe.ra18.none.none.wav,go,su,bi,sil,du,te,si,sil1,ñu,to,sil2,['-'],,,none,none,,,,fe,1,testConjL2Uns//dep_viol.r1.s2.0.wav,1.0,conjunction_un,unsyncopated,a,s2,no_rule,dep,L2,m,2.2293,3.0,1.0,3.4093,3.0,3.0,Catalán,0.0,Castellano,0.0,Inglés,6.0,4.0,3.0,no,no,no,nada,,4. La música me hace compañía cuando estoy solo,2.0,"En el tercer lenguaje he tenido una breve distracción, y en los dos últimos estaba notablemente más cansada que en los dos primeros.",55.0,yes
4,2023-12-19_20h05.31.508,Unsyncopated_study2,s87,18.0,feminino,right,España,"Catalán, Castellano",Upper secondary,no,no,A,1,conjunction_un,L2,unsyncopated,s2,r1,4,Online_conjL2_un//b.fe.ra21.none.none.wav,bi,ba,to,sil,go,te,si,sil1,du,me,sil2,['-'],,,none,none,,,,fe,1,testConjL2Uns//r1.s2.2.wav,1.0,conjunction_un,unsyncopated,a,s2,rule,rule,L2,m,0.8726,3.0,0.0,4.8146,3.0,3.0,Catalán,0.0,Castellano,0.0,Inglés,6.0,4.0,3.0,no,no,no,nada,,5. No me apetece bailar ni con la música que más me gusta,4.0,"En el tercer lenguaje he tenido una breve distracción, y en los dos últimos estaba notablemente más cansada que en los dos primeros.",55.0,yes
5,2023-12-19_20h05.31.508,Unsyncopated_study2,s87,18.0,feminino,right,España,"Catalán, Castellano",Upper secondary,no,no,A,1,conjunction_un,L2,unsyncopated,s2,r1,5,Online_conjL2_un//b.fe.ra23.none.none.wav,ñu,ba,mi,sil,go,to,ñi,sil1,du,bi,sil2,['-'],,,none,none,,,,fe,1,testConjL2Uns//r1.s2.0.wav,1.0,conjunction_un,unsyncopated,a,s2,rule,rule,L2,z,3.0872,3.0,1.0,5.6301,3.0,3.0,Catalán,0.0,Castellano,0.0,Inglés,6.0,4.0,3.0,no,no,no,nada,,6. La música me hace conectar con la gente,4.0,"En el tercer lenguaje he tenido una breve distracción, y en los dos últimos estaba notablemente más cansada que en los dos primeros.",55.0,yes
6,2023-12-19_20h05.31.508,Unsyncopated_study2,s87,18.0,feminino,right,España,"Catalán, Castellano",Upper secondary,no,no,A,1,conjunction_un,L2,unsyncopated,s1,r1,6,Online_conjL2_un//b.fe.ra22.none.none.wav,go,te,to,sil,du,me,ñu,sil1,ñi,si,sil2,['-'],,,none,none,,,,fe,1,testConjL2Uns//cat_viol.r2.s2.0.wav,1.0,conjunction_un,unsyncopated,b,s2,no_rule,cat,L2,m,3.2633,3.0,1.0,1.4978,3.0,3.0,Catalán,0.0,Castellano,0.0,Inglés,6.0,4.0,3.0,no,no,no,nada,,7. Me informo sobre la música que me gusta.,2.0,"En el tercer lenguaje he tenido una breve distracción, y en los dos últimos estaba notablemente más cansada que en los dos primeros.",55.0,yes
7,2023-12-19_20h05.31.508,Unsyncopated_study2,s87,18.0,feminino,right,España,"Catalán, Castellano",Upper secondary,no,no,A,1,conjunction_un,L2,unsyncopated,s2,r2,7,Online_conjL2_un//b.fe.ra20.888.1776.wav,bi,ñi,me,sil,fe,cha,si,sil1,ra,su,sil2,['catch'],[2.4379000000060387],[2.4379000000060387],0.888,beat,,1.5499000000060388,"[""space""]",fe,1,testConjL2Uns//r2.s1.0.wav,1.0,conjunction_un,unsyncopated,b,s1,rule,rule,L2,z,1.1054,6.0,1.0,1.8003,3.0,3.0,Catalán,0.0,Castellano,0.0,Inglés,6.0,4.0,3.0,no,no,no,nada,,8.Me emociono escuchando ciertas canciones.,3.0,"En el tercer lenguaje he tenido una breve distracción, y en los dos últimos estaba notablemente más cansada que en los dos primeros.",55.0,yes
8,2023-12-19_20h05.31.508,Unsyncopated_study2,s87,18.0,feminino,right,España,"Catalán, Castellano",Upper secondary,no,no,A,1,conjunction_un,L2,unsyncopated,s1,r1,8,Online_conjL2_un//b.fe.ra24.none.none.wav,go,su,bi,sil,du,me,ñi,sil1,mi,cha,sil2,['-'],,,none,none,,,,fe,1,testConjL2Uns//r1.s1.1.wav,1.0,conjunction_un,unsyncopated,a,s1,rule,rule,L2,m,0.5897,4.0,0.0,3.2351,3.0,3.0,Catalán,0.0,Castellano,0.0,Inglés,6.0,4.0,3.0,no,no,no,nada,,9.La música me tranquiliza y me relaja.,2.0,"En el tercer lenguaje he tenido una breve distracción, y en los dos últimos estaba notablemente más cansada que en los dos primeros.",55.0,yes
9,2023-12-19_20h05.31.508,Unsyncopated_study2,s87,18.0,feminino,right,España,"Catalán, Castellano",Upper secondary,no,no,A,1,conjunction_un,L2,unsyncopated,s2,r2,9,Online_conjL2_un//b.fe.ra26.888.1776.wav,ba,su,si,sil,fe,ñu,mi,sil1,ra,ñi,sil2,['catch'],[1.5029000000059796],[1.5029000000059796],0.888,beat,0.6149000000059796,0.6149000000059796,"[""space""]",fe,1,testConjL2Uns//r2.s1.2.wav,1.0,conjunction_un,unsyncopated,b,s1,rule,rule,L2,z,2.3565,3.0,1.0,1.2637,3.0,3.0,Catalán,0.0,Castellano,0.0,Inglés,6.0,4.0,3.0,no,no,no,nada,,10.La música me hace bailar,2.0,"En el tercer lenguaje he tenido una breve distracción, y en los dos últimos estaba notablemente más cansada que en los dos primeros.",55.0,yes
10,2023-12-19_20h05.31.508,Unsyncopated_study2,s87,18.0,feminino,right,España,"Catalán, Castellano",Upper secondary,no,no,A,1,conjunction_un,L2,unsyncopated,s2,r2,10,Online_conjL2_un//b.fe.ra25.888.1776.wav,me,bi,si,sil,fe,su,te,sil1,ra,cha,sil2,['catch'],[1.5150999999940495],[1.5150999999940495],0.888,beat,0.6270999999940495,0.6270999999940495,"[""space""]",fe,1,testConjL2Uns//r2.s2.0.wav,1.0,conjunction_un,unsyncopated,b,s2,rule,rule,L2,m,2.056,4.0,0.0,2.8537,3.0,3.0,Catalán,0.0,Castellano,0.0,Inglés,6.0,4.0,3.0,no,no,no,nada,,11.Busco novedades musicales continuamente,3.0,"En el tercer lenguaje he tenido una breve distracción, y en los dos últimos estaba notablemente más cansada que en los dos primeros.",55.0,yes
11,2023-12-19_20h05.31.508,Unsyncopated_study2,s87,18.0,feminino,right,España,"Catalán, Castellano",Upper secondary,no,no,A,1,conjunction_un,L2,unsyncopated,s2,r1,11,Online_conjL2_un//b.fe.ra27.none.none.wav,mi,si,me,sil,go,ñu,to,sil1,du,te,sil2,['-'],,,none,none,,,,fe,1,testConjL2Uns//time_viol.r1.s2.0.wav,1.0,conjunction_un,unsyncopated,a,s2,no_rule,time,L2,m,2.2105,6.0,1.0,2.3467,3.0,3.0,Catalán,0.0,Castellano,0.0,Inglés,6.0,4.0,3.0,no,no,no,nada,,12. Puedo llorar cuando escucho algunas melodías que me gustan mucho.,3.0,"En el tercer lenguaje he tenido una breve distracción, y en los dos últimos estaba notablemente más cansada que en los dos primeros.",55.0,yes
12,2023-12-19_20h05.31.508,Unsyncopated_study2,s87,18.0,feminino,right,España,"Catalán, Castellano",Upper secondary,no,no,A,1,conjunction_un,L2,unsyncopated,s1,r1,12,Online_conjL2_un//c.cha.me11.none.none.wav,go,su,ñu,sil,du,ñi,mi,sil1,ba,to,sil2,['-'],,,none,none,,,,cha,3,testConjL2Uns//time_viol.r2.s2.0.wav,1.0,conjunction_un,unsyncopated,b,s2,no_rule,time,L2,z,7.5185,3.0,0.0,1.336,3.0,3.0,Catalán,0.0,Castellano,0.0,Inglés,6.0,4.0,3.0,no,no,no,nada,,13. Me gusta cantar o tocar un instrumento con más gente,3.0,"En el tercer lenguaje he tenido una breve distracción, y en los dos últimos estaba notablemente más cansada que en los dos primeros.",55.0,yes
13,2023-12-19_20h05.31.508,Unsyncopated_study2,s87,18.0,feminino,right,España,"Catalán, Castellano",Upper secondary,no,no,A,1,conjunction_un,L2,unsyncopated,s1,r2,13,Online_conjL2_un//c.cha.me8.444.1332.wav,fe,bi,cha,sil,ra,ñi,me,sil1,te,si,sil2,['catch'],[0.8649999999998954],[0.8649999999998954],0.444,no_beat,0.4209999999998954,0.4209999999998954,"[""space""]",cha,3,testConjL2Uns//cat_viol.r1.s1.0.wav,1.0,conjunction_un,unsyncopated,a,s1,no_rule,cat,L2,m,1.4329,2.0,1.0,3.4943,3.0,3.0,Catalán,0.0,Castellano,0.0,Inglés,6.0,4.0,3.0,no,no,no,nada,,14. La música me ayuda a desconectar.,4.0,"En el tercer lenguaje he tenido una breve distracción, y en los dos últimos estaba notablemente más cansada que en los dos primeros.",55.0,yes
14,2023-12-19_20h05.31.508,Unsyncopated_study2,s87,18.0,feminino,right,España,"Catalán, Castellano",Upper secondary,no,no,A,1,conjunction_un,L2,unsyncopated,s2,r2,14,Online_conjL2_un//c.cha.me10.0.222.wav,cha,me,mi,sil,fe,su,si,sil1,ra,ba,sil2,['catch'],[0.4680000000000746],[0.4680000000000746],0.0,beat,0.4680000000000746,0.4680000000000746,"[""space""]",cha,3,testConjL2Uns//dep_viol.r2.s1.0.wav,1.0,conjunction_un,unsyncopated,b,s1,no_rule,dep,L2,m,0.8202,2.0,1.0,0.7016,3.0,3.0,Catalán,0.0,Castellano,0.0,Inglés,6.0,4.0,3.0,no,no,no,nada,,15. No puedo evitar tararear las canciones que me gustan cuando las escucho.,1.0,"En el tercer lenguaje he tenido una breve distracción, y en los dos últimos estaba notablemente más cansada que en los dos primeros.",55.0,yes
15,2023-12-19_20h05.31.508,Unsyncopated_study2,s87,18.0,feminino,right,España,"Catalán, Castellano",Upper secondary,no,no,A,1,conjunction_un,L2,unsyncopated,s1,r1,15,Online_conjL2_un//c.cha.me9.none.none.wav,go,to,ñi,sil,du,mi,ñu,sil1,bi,su,sil2,['-'],,,none,none,,,,cha,3,testConjL2Uns//cat_viol.r1.s2.0.wav,1.0,conjunction_un,unsyncopated,a,s2,no_rule,cat,L2,z,1.8267,2.0,0.0,1.0341,3.0,3.0,Catalán,0.0,Castellano,0.0,Inglés,6.0,4.0,3.0,no,no,no,nada,,16. En los conciertos me siento en sintonía con los artistas y el público.,4.0,"En el tercer lenguaje he tenido una breve distracción, y en los dos últimos estaba notablemente más cansada que en los dos primeros.",55.0,yes
16,2023-12-19_20h05.31.508,Unsyncopated_study2,s87,18.0,feminino,right,España,"Catalán, Castellano",Upper secondary,no,no,A,1,conjunction_un,L2,unsyncopated,s1,r1,16,Online_conjL2_un//a.go.du20.0.888.wav,go,ñi,si,sil,du,mi,me,sil1,bi,te,sil2,['catch'],[1.4864999999999782],[1.4864999999999782],0.888,beat,0.5984999999999782,0.5984999999999782,"[""space""]",du,2,testConjL2Uns//r2.s1.1.wav,1.0,conjunction_un,unsyncopated,b,s1,rule,rule,L2,m,0.6084,4.0,0.0,2.1063,3.0,3.0,Catalán,0.0,Castellano,0.0,Inglés,6.0,4.0,3.0,no,no,no,nada,,17. Me gasto bastante dinero en música y cosas relacionadas con la música.,2.0,"En el tercer lenguaje he tenido una breve distracción, y en los dos últimos estaba notablemente más cansada que en los dos primeros.",55.0,yes
17,2023-12-19_20h05.31.508,Unsyncopated_study2,s87,18.0,feminino,right,España,"Catalán, Castellano",Upper secondary,no,no,A,1,conjunction_un,L2,unsyncopated,s2,r1,17,Online_conjL2_un//a.go.du23.888.1776.wav,su,te,mi,sil,go,ñu,bi,sil1,du,me,sil2,['catch'],[2.267500000000041],[2.267500000000041],1.776,beat,0.4915000000000409,0.4915000000000409,"[""space""]",du,2,testConjL2Uns//r2.s2.2.wav,1.0,conjunction_un,unsyncopated,b,s2,rule,rule,L2,z,2.8235,2.0,1.0,0.8528,3.0,3.0,Catalán,0.0,Castellano,0.0,Inglés,6.0,4.0,3.0,no,no,no,nada,,18. Siento escalofríos cuando escucho una melodía que me gusta.,1.0,"En el tercer lenguaje he tenido una breve distracción, y en los dos últimos estaba notablemente más cansada que en los dos primeros.",55.0,yes
18,2023-12-19_20h05.31.508,Unsyncopated_study2,s87,18.0,feminino,right,España,"Catalán, Castellano",Upper secondary,no,no,A,1,conjunction_un,L2,unsyncopated,s2,r1,18,Online_conjL2_un//a.go.du21.888.1776.wav,ba,cha,si,sil,go,to,ñi,sil1,du,te,sil2,['catch'],[2.1694000000060214],[2.1694000000060214],1.776,beat,0.3934000000060214,0.3934000000060214,"[""space""]",du,2,testConjL2Uns//time_viol.r1.s1.0.wav,1.0,conjunction_un,unsyncopated,a,s1,no_rule,time,L2,z,1.3528,5.0,0.0,1.2294,3.0,3.0,Catalán,0.0,Castellano,0.0,Inglés,6.0,4.0,3.0,no,no,no,nada,,19. Con la música me puedo desahogar.,1.0,"En el tercer lenguaje he tenido una breve distracción, y en los dos últimos estaba notablemente más cansada que en los dos primeros.",55.0,yes
19,2023-12-19_20h05.31.508,Unsyncopated_study2,s87,18.0,feminino,right,España,"Catalán, Castellano",Upper secondary,no,no,A,1,conjunction_un,L2,unsyncopated,s1,r2,19,Online_conjL2_un//a.go.du22.none.none.wav,fe,bi,ñi,sil,ra,mi,me,sil1,su,ñu,sil2,['-'],,,none,none,,,,du,2,testConjL2Uns//r1.s1.0.wav,1.0,conjunction_un,unsyncopated,a,s1,rule,rule,L2,m,0.9293,2.0,0.0,1.4246,3.0,3.0,Catalán,0.0,Castellano,0.0,Inglés,6.0,4.0,3.0,no,no,no,nada,,20. Cuando escucho una melodía que me gusta mucho no puedo evitar mover el cuerpo.,2.0,"En el tercer lenguaje he tenido una breve distracción, y en los dos últimos estaba notablemente más cansada que en los dos primeros.",55.0,yes
20,2023-12-19_20h05.31.508,Unsyncopated_study2,s87,18.0,feminino,right,España,"Catalán, Castellano",Upper secondary,no,no,A,1,conjunction_un,L2,unsyncopated,s1,r2,20,Online_conjL2_un//c.cha.me27.1776.444.wav,fe,bi,me,sil,ra,mi,ba,sil1,cha,ñu,sil2,['catch'],[2.0910999999939577],[2.0910999999939577],1.776,beat,0.3150999999939576,0.3150999999939576,"[""space""]",cha,3,testConjL2Uns//time_viol.r2.s1.0.wav,1.0,conjunction_un,unsyncopated,b,s1,no_rule,time,L2,z,3.8021,2.0,0.0,0.8193,3.0,3.0,Catalán,0.0,Castellano,0.0,Inglés,6.0,4.0,3.0,no,no,no,nada,,,,"En el tercer lenguaje he tenido una breve distracción, y en los dos últimos estaba notablemente más cansada que en los dos primeros.",55.0,yes
21,2023-12-19_20h05.31.508,Unsyncopated_study2,s87,18.0,feminino,right,España,"Catalán, Castellano",Upper secondary,no,no,A,1,conjunction_un,L2,unsyncopated,s2,r1,21,Online_conjL2_un//c.cha.me26.none.none.wav,to,si,ba,sil,go,ñi,ñu,sil1,du,bi,sil2,['-'],,,none,none,,,,cha,3,testConjL2Uns//r1.s1.2.wav,1.0,conjunction_un,unsyncopated,a,s1,rule,rule,L2,m,0.9083,4.0,0.0,1.2041,3.0,3.0,Catalán,0.0,Castellano,0.0,Inglés,6.0,4.0,3.0,no,no,no,nada,,,,"En el tercer lenguaje he tenido una breve distracción, y en los dos últimos estaba notablemente más cansada que en los dos primeros.",55.0,yes
22,2023-12-19_20h05.31.508,Unsyncopated_study2,s87,18.0,feminino,right,España,"Catalán, Castellano",Upper secondary,no,no,A,1,conjunction_un,L2,unsyncopated,s1,r2,22,Online_conjL2_un//c.cha.me25.none.none.wav,fe,ñu,ba,sil,ra,ñi,si,sil1,te,su,sil2,['-'],,,none,none,,,,cha,3,testConjL2Uns//dep_viol.r2.s2.0.wav,1.0,conjunction_un,unsyncopated,b,s2,no_rule,dep,L2,z,2.0557,4.0,0.0,1.5664,3.0,3.0,Catalán,0.0,Castellano,0.0,Inglés,6.0,4.0,3.0,no,no,no,nada,,,,"En el tercer lenguaje he tenido una breve distracción, y en los dos últimos estaba notablemente más cansada que en los dos primeros.",55.0,yes
23,2023-12-19_20h05.31.508,Unsyncopated_study2,s87,18.0,feminino,right,España,"Catalán, Castellano",Upper secondary,no,no,A,1,conjunction_un,L2,unsyncopated,s2,r1,23,Online_conjL2_un//c.cha.me24.444.0.wav,me,ba,cha,sil,go,su,bi,sil1,du,ñu,sil2,['catch'],[0.8974000000058595],[0.8974000000058595],0.444,no_beat,0.4534000000058595,0.4534000000058595,"[""space""]",cha,3,testConjL2Uns//dep_viol.r1.s1.0.wav,1.0,conjunction_un,unsyncopated,a,s1,no_rule,dep,L2,m,3.3471,1.0,1.0,0.9179,3.0,3.0,Catalán,0.0,Castellano,0.0,Inglés,6.0,4.0,3.0,no,no,no,nada,,,,"En el tercer lenguaje he tenido una breve distracción, y en los dos últimos estaba notablemente más cansada que en los dos primeros.",55.0,yes
24,2023-12-19_20h05.31.508,Unsyncopated_study2,s87,18.0,feminino,right,España,"Catalán, Castellano",Upper secondary,no,no,A,1,conjunction_un,L2,unsyncopated,s2,r2,24,Online_conjL2_un//d.si.ñu9.none.none.wav,bi,cha,to,sil,fe,te,ba,sil1,ra,me,sil2,['-'],,,none,none,,,,si,4,testConjL1Syn//r2.s2.1.wav,2.0,conjunction_syn,syncopated,b,s2,rule,rule,L1,z,1.175,7.0,1.0,1.8585,3.0,3.0,Catalán,0.0,Castellano,0.0,Inglés,6.0,4.0,3.0,no,no,no,nada,,,,"En el tercer lenguaje he tenido una breve distracción, y en los dos últimos estaba notablemente más cansada que en los dos primeros.",55.0,yes
25,2023-12-19_20h05.31.508,Unsyncopated_study2,s87,18.0,feminino,right,España,"Catalán, Castellano",Upper secondary,no,no,A,1,conjunction_un,L2,unsyncopated,s2,r1,25,Online_conjL2_un//d.si.ñu8.0.222.wav,si,ñu,bi,sil,go,me,to,sil1,du,ba,sil2,['catch'],[0.48599999999999],[0.48599999999999],0.0,beat,0.48599999999999,0.48599999999999,"[""space""]",si,4,testConjL1Syn//dep_viol.r2.s2.0.wav,2.0,conjunction_syn,syncopated,b,s2,no_rule,dep,L1,z,2.4833,4.0,0.0,1.5244,3.0,3.0,Catalán,0.0,Castellano,0.0,Inglés,6.0,4.0,3.0,no,no,no,nada,,,,"En el tercer lenguaje he tenido una breve distracción, y en los dos últimos estaba notablemente más cansada que en los dos primeros.",55.0,yes
26,2023-12-19_20h05.31.508,Unsyncopated_study2,s87,18.0,feminino,right,España,"Catalán, Castellano",Upper secondary,no,no,A,1,conjunction_un,L2,unsyncopated,s1,r2,26,Online_conjL2_un//d.si.ñu10.none.none.wav,fe,ba,bi,sil,ra,te,mi,sil1,me,to,sil2,['-'],,,none,none,,,,si,4,testConjL1Syn//r2.s2.2.wav,2.0,conjunction_syn,syncopated,b,s2,rule,rule,L1,z,2.3888,3.0,1.0,1.2721,3.0,3.0,Catalán,0.0,Castellano,0.0,Inglés,6.0,4.0,3.0,no,no,no,nada,,,,"En el tercer lenguaje he tenido una breve distracción, y en los dos últimos estaba notablemente más cansada que en los dos primeros.",55.0,yes
27,2023-12-19_20h05.31.508,Unsyncopated_study2,s87,18.0,feminino,right,España,"Catalán, Castellano",Upper secondary,no,no,A,1,conjunction_un,L2,unsyncopated,s2,r1,27,Online_conjL2_un//d.si.ñu11.none.none.wav,ba,to,bi,sil,go,mi,te,sil1,du,su,sil2,['-'],,,none,none,,,,si,4,testConjL1Syn//time_viol.r2.s2.0.wav,2.0,conjunction_syn,syncopated,b,s2,no_rule,time,L1,m,0.4341,6.0,1.0,1.5182,3.0,3.0,Catalán,0.0,Castellano,0.0,Inglés,6.0,4.0,3.0,no,no,no,nada,,,,"En el tercer lenguaje he tenido una breve distracción, y en los dos últimos estaba notablemente más cansada que en los dos primeros.",55.0,yes
28,2023-12-19_20h05.31.508,Unsyncopated_study2,s87,18.0,feminino,right,España,"Catalán, Castellano",Upper secondary,no,no,A,1,conjunction_un,L2,unsyncopated,s2,r2,28,Online_conjL2_un//a.go.du7.none.none.wav,to,ñi,su,sil,fe,si,ñu,sil1,ra,cha,sil2,['-'],,,none,none,,,,du,2,testConjL1Syn//r1.s1.0.wav,2.0,conjunction_syn,syncopated,a,s1,rule,rule,L1,m,0.3541,3.0,0.0,1.4077,3.0,3.0,Catalán,0.0,Castellano,0.0,Inglés,6.0,4.0,3.0,no,no,no,nada,,,,"En el tercer lenguaje he tenido una breve distracción, y en los dos últimos estaba notablemente más cansada que en los dos primeros.",55.0,yes
29,2023-12-19_20h05.31.508,Unsyncopated_study2,s87,18.0,feminino,right,España,"Catalán, Castellano",Upper secondary,no,no,A,1,conjunction_un,L2,unsyncopated,s2,r2,29,Online_conjL2_un//a.go.du6.none.none.wav,ñu,ba,bi,sil,fe,me,su,sil1,ra,to,sil2,['-'],,,none,none,,,,du,2,testConjL1Syn//cat_viol.r2.s2.0.wav,2.0,conjunction_syn,syncopated,b,s2,no_rule,cat,L1,z,0.9093,4.0,0.0,1.4754,3.0,3.0,Catalán,0.0,Castellano,0.0,Inglés,6.0,4.0,3.0,no,no,no,nada,,,,"En el tercer lenguaje he tenido una breve distracción, y en los dos últimos estaba notablemente más cansada que en los dos primeros.",55.0,yes
30,2023-12-19_20h05.31.508,Unsyncopated_study2,s87,18.0,feminino,right,España,"Catalán, Castellano",Upper secondary,no,no,A,1,conjunction_un,L2,unsyncopated,s2,r2,30,Online_conjL2_un//a.go.du4.none.none.wav,ñi,ba,cha,sil,fe,bi,ñu,sil1,ra,mi,sil2,['-'],,,none,none,,,,du,2,testConjL1Syn//dep_viol.r1.s1.0.wav,2.0,conjunction_syn,syncopated,a,s1,no_rule,dep,L1,m,2.7402,5.0,1.0,1.299,3.0,3.0,Catalán,0.0,Castellano,0.0,Inglés,6.0,4.0,3.0,no,no,no,nada,,,,"En el tercer lenguaje he tenido una breve distracción, y en los dos últimos estaba notablemente más cansada que en los dos primeros.",55.0,yes
31,2023-12-19_20h05.31.508,Unsyncopated_study2,s87,18.0,feminino,right,España,"Catalán, Castellano",Upper secondary,no,no,A,1,conjunction_un,L2,unsyncopated,s1,r2,31,Online_conjL2_un//a.go.du5.none.none.wav,fe,bi,me,sil,ra,to,si,sil1,ñi,ñu,sil2,['-'],,,none,none,,,,du,2,testConjL1Syn//time_viol.r1.s2.0.wav,2.0,conjunction_syn,syncopated,a,s2,no_rule,time,L1,z,1.1133,5.0,0.0,1.0665,3.0,3.0,Catalán,0.0,Castellano,0.0,Inglés,6.0,4.0,3.0,no,no,no,nada,,,,"En el tercer lenguaje he tenido una breve distracción, y en los dos últimos estaba notablemente más cansada que en los dos primeros.",55.0,yes
32,2023-12-19_20h05.31.508,Unsyncopated_study2,s87,18.0,feminino,right,España,"Catalán, Castellano",Upper secondary,no,no,A,1,conjunction_un,L2,unsyncopated,s1,r2,32,Online_conjL2_un//a.go.du28.none.none.wav,fe,cha,ba,sil,ra,mi,me,sil1,bi,te,sil2,['-'],,,none,none,,,,du,2,testConjL1Syn//dep_viol.r1.s2.0.wav,2.0,conjunction_syn,syncopated,a,s2,no_rule,dep,L1,m,0.3735,4.0,1.0,1.5798,3.0,3.0,Catalán,0.0,Castellano,0.0,Inglés,6.0,4.0,3.0,no,no,no,nada,,,,"En el tercer lenguaje he tenido una breve distracción, y en los dos últimos estaba notablemente más cansada que en los dos primeros.",55.0,yes
33,2023-12-19_20h05.31.508,Unsyncopated_study2,s87,18.0,feminino,right,España,"Catalán, Castellano",Upper secondary,no,no,A,1,conjunction_un,L2,unsyncopated,s1,r1,33,Online_conjL2_un//a.go.du29.0.888.wav,go,mi,me,sil,du,to,bi,sil1,cha,ñu,sil2,['catch'],[1.3550000000000182],[1.3550000000000182],0.888,beat,0.4670000000000182,0.4670000000000182,"[""space""]",du,2,testConjL1Syn//r1.s2.1.wav,2.0,conjunction_syn,syncopated,a,s2,rule,rule,L1,m,0.971,2.0,0.0,2.0152,3.0,3.0,Catalán,0.0,Castellano,0.0,Inglés,6.0,4.0,3.0,no,no,no,nada,,,,"En el tercer lenguaje he tenido una breve distracción, y en los dos últimos estaba notablemente más cansada que en los dos primeros.",55.0,yes
34,2023-12-19_20h05.31.508,Unsyncopated_study2,s87,18.0,feminino,right,España,"Catalán, Castellano",Upper secondary,no,no,A,1,conjunction_un,L2,unsyncopated,s1,r2,34,Online_conjL2_un//a.go.du31.none.none.wav,fe,to,ñi,sil,ra,bi,ñu,sil1,su,si,sil2,['-'],,,none,none,,,,du,2,testConjL1Syn//r2.s1.2.wav,2.0,conjunction_syn,syncopated,b,s1,rule,rule,L1,m,0.3996,2.0,0.0,1.458,3.0,3.0,Catalán,0.0,Castellano,0.0,Inglés,6.0,4.0,3.0,no,no,no,nada,,,,"En el tercer lenguaje he tenido una breve distracción, y en los dos últimos estaba notablemente más cansada que en los dos primeros.",55.0,yes
35,2023-12-19_20h05.31.508,Unsyncopated_study2,s87,18.0,feminino,right,España,"Catalán, Castellano",Upper secondary,no,no,A,1,conjunction_un,L2,unsyncopated,s1,r2,35,Online_conjL2_un//a.go.du30.none.none.wav,fe,cha,si,sil,ra,su,te,sil1,ba,bi,sil2,['-'],,,none,none,,,,du,2,testConjL1Syn//dep_viol.r2.s1.0.wav,2.0,conjunction_syn,syncopated,b,s1,no_rule,dep,L1,z,1.5349,5.0,0.0,1.7043,3.0,3.0,Catalán,0.0,Castellano,0.0,Inglés,6.0,4.0,3.0,no,no,no,nada,,,,"En el tercer lenguaje he tenido una breve distracción, y en los dos últimos estaba notablemente más cansada que en los dos primeros.",55.0,yes
36,2023-12-19_20h05.31.508,Unsyncopated_study2,s87,18.0,feminino,right,España,"Catalán, Castellano",Upper secondary,no,no,A,1,conjunction_un,L2,unsyncopated,s2,r1,36,Online_conjL2_un//a.go.du2.888.1776.wav,si,me,to,sil,go,bi,te,sil1,du,cha,sil2,['catch'],[2.5883000000118273],[2.5883000000118273],1.776,beat,0.8123000000118272,0.8123000000118272,"[""space""]",du,2,testConjL1Syn//time_viol.r2.s1.0.wav,2.0,conjunction_syn,syncopated,b,s1,no_rule,time,L1,m,4.7722,2.0,1.0,1.5683,3.0,3.0,Catalán,0.0,Castellano,0.0,Inglés,6.0,4.0,3.0,no,no,no,nada,,,,"En el tercer lenguaje he tenido una breve distracción, y en los dos últimos estaba notablemente más cansada que en los dos primeros.",55.0,yes
37,2023-12-19_20h05.31.508,Unsyncopated_study2,s87,18.0,feminino,right,España,"Catalán, Castellano",Upper secondary,no,no,A,1,conjunction_un,L2,unsyncopated,s2,r2,37,Online_conjL2_un//a.go.du3.none.none.wav,te,bi,su,sil,fe,me,ñi,sil1,ra,si,sil2,['false alarm'],[1.57569999998816],[1.57569999998816],none,none,,,"[""space""]",du,2,testConjL1Syn//cat_viol.r1.s1.0.wav,2.0,conjunction_syn,syncopated,a,s1,no_rule,cat,L1,m,2.3348,4.0,1.0,1.0078,3.0,3.0,Catalán,0.0,Castellano,0.0,Inglés,6.0,4.0,3.0,no,no,no,nada,,,,"En el tercer lenguaje he tenido una breve distracción, y en los dos últimos estaba notablemente más cansada que en los dos primeros.",55.0,yes
38,2023-12-19_20h05.31.508,Unsyncopated_study2,s87,18.0,feminino,right,España,"Catalán, Castellano",Upper secondary,no,no,A,1,conjunction_un,L2,unsyncopated,s1,r1,38,Online_conjL2_un//a.go.du1.0.888.wav,go,bi,si,sil,du,ñu,ba,sil1,mi,cha,sil2,['catch'],[1.685300000011921],[1.685300000011921],0.888,beat,0.7973000000119209,0.7973000000119209,"[""space""]",du,2,testConjL1Syn//time_viol.r1.s1.0.wav,2.0,conjunction_syn,syncopated,a,s1,no_rule,time,L1,z,0.6244,4.0,0.0,1.5717,3.0,3.0,Catalán,0.0,Castellano,0.0,Inglés,6.0,4.0,3.0,no,no,no,nada,,,,"En el tercer lenguaje he tenido una breve distracción, y en los dos últimos estaba notablemente más cansada que en los dos primeros.",55.0,yes
39,2023-12-19_20h05.31.508,Unsyncopated_study2,s87,18.0,feminino,right,España,"Catalán, Castellano",Upper secondary,no,no,A,1,conjunction_un,L2,unsyncopated,s1,r2,39,Online_conjL2_un//a.go.du0.none.none.wav,fe,ñu,ba,sil,ra,mi,cha,sil1,bi,si,sil2,['-'],,,none,none,,,,du,2,testConjL1Syn//r1.s1.2.wav,2.0,conjunction_syn,syncopated,a,s1,rule,rule,L1,m,1.742,5.0,0.0,1.3356,3.0,3.0,Catalán,0.0,Castellano,0.0,Inglés,6.0,4.0,3.0,no,no,no,nada,,,,"En el tercer lenguaje he tenido una breve distracción, y en los dos últimos estaba notablemente más cansada que en los dos primeros.",55.0,yes
40,2023-12-19_20h05.31.508,Unsyncopated_study2,s87,18.0,feminino,right,España,"Catalán, Castellano",Upper secondary,no,no,A,1,conjunction_un,L2,unsyncopated,s1,r2,40,Online_conjL2_un//c.cha.me7.none.none.wav,fe,su,si,sil,ra,te,mi,sil1,ba,to,sil2,['-'],,,none,none,,,,cha,3,testConjL1Syn//r1.s1.1.wav,2.0,conjunction_syn,syncopated,a,s1,rule,rule,L1,m,3.8067,3.0,0.0,3.0063,3.0,3.0,Catalán,0.0,Castellano,0.0,Inglés,6.0,4.0,3.0,no,no,no,nada,,,,"En el tercer lenguaje he tenido una breve distracción, y en los dos últimos estaba notablemente más cansada que en los dos primeros.",55.0,yes
41,2023-12-19_20h05.31.508,Unsyncopated_study2,s87,18.0,feminino,right,España,"Catalán, Castellano",Upper secondary,no,no,A,1,conjunction_un,L2,unsyncopated,s2,r1,41,Online_conjL2_un//c.cha.me5.1332.0.wav,me,ñi,mi,sil,go,to,cha,sil1,du,su,sil2,['catch'],[2.255599999994047],[2.255599999994047],1.332,no_beat,0.9235999999940468,0.9235999999940468,"[""space""]",cha,3,testConjL1Syn//r2.s1.0.wav,2.0,conjunction_syn,syncopated,b,s1,rule,rule,L1,z,0.6109,6.0,1.0,1.2696,3.0,3.0,Catalán,0.0,Castellano,0.0,Inglés,6.0,4.0,3.0,no,no,no,nada,,,,"En el tercer lenguaje he tenido una breve distracción, y en los dos últimos estaba notablemente más cansada que en los dos primeros.",55.0,yes
42,2023-12-19_20h05.31.508,Unsyncopated_study2,s87,18.0,feminino,right,España,"Catalán, Castellano",Upper secondary,no,no,A,1,conjunction_un,L2,unsyncopated,s2,r2,42,Online_conjL2_un//c.cha.me4.none.none.wav,mi,ñu,su,sil,fe,bi,to,sil1,ra,ñi,sil2,['-'],,,none,none,,,,cha,3,testConjL1Syn//r1.s2.2.wav,2.0,conjunction_syn,syncopated,a,s2,rule,rule,L1,m,0.5429,5.0,0.0,1.4102,3.0,3.0,Catalán,0.0,Castellano,0.0,Inglés,6.0,4.0,3.0,no,no,no,nada,,,,"En el tercer lenguaje he tenido una breve distracción, y en los dos últimos estaba notablemente más cansada que en los dos primeros.",55.0,yes
43,2023-12-19_20h05.31.508,Unsyncopated_study2,s87,18.0,feminino,right,España,"Catalán, Castellano",Upper secondary,no,no,A,1,conjunction_un,L2,unsyncopated,s2,r2,43,Online_conjL2_un//c.cha.me6.0.222.wav,cha,me,si,sil,fe,ba,te,sil1,ra,to,sil2,['catch'],[0.36150000000009186],[0.36150000000009186],0.0,beat,0.3615000000000918,0.3615000000000918,"[""space""]",cha,3,testConjL1Syn//r2.s1.1.wav,2.0,conjunction_syn,syncopated,b,s1,rule,rule,L1,m,0.7006,3.0,0.0,0.9729,3.0,3.0,Catalán,0.0,Castellano,0.0,Inglés,6.0,4.0,3.0,no,no,no,nada,,,,"En el tercer lenguaje he tenido una breve distracción, y en los dos últimos estaba notablemente más cansada que en los dos primeros.",55.0,yes
44,2023-12-19_20h05.31.508,Unsyncopated_study2,s87,18.0,feminino,right,España,"Catalán, Castellano",Upper secondary,no,no,A,1,conjunction_un,L2,unsyncopated,s2,r2,44,Online_conjL2_un//c.cha.me30.0.1110.wav,cha,mi,ba,sil,fe,me,si,sil1,ra,ñi,sil2,['catch'],[0.42690000000595774],[0.42690000000595774],0.0,beat,0.4269000000059577,0.4269000000059577,"[""space""]",cha,3,testConjL1Syn//cat_viol.r1.s2.0.wav,2.0,conjunction_syn,syncopated,a,s2,no_rule,cat,L1,m,1.6194,2.0,1.0,1.3898,3.0,3.0,Catalán,0.0,Castellano,0.0,Inglés,6.0,4.0,3.0,no,no,no,nada,,,,"En el tercer lenguaje he tenido una breve distracción, y en los dos últimos estaba notablemente más cansada que en los dos primeros.",55.0,yes
45,2023-12-19_20h05.31.508,Unsyncopated_study2,s87,18.0,feminino,right,España,"Catalán, Castellano",Upper secondary,no,no,A,1,conjunction_un,L2,unsyncopated,s1,r2,45,Online_conjL2_un//c.cha.me31.none.none.wav,fe,ñi,ba,sil,ra,si,te,sil1,ñu,mi,sil2,['-'],,,none,none,,,,cha,3,testConjL1Syn//r2.s2.0.wav,2.0,conjunction_syn,syncopated,b,s2,rule,rule,L1,m,2.1985,1.0,0.0,0.9116,3.0,3.0,Catalán,0.0,Castellano,0.0,Inglés,6.0,4.0,3.0,no,no,no,nada,,,,"En el tercer lenguaje he tenido una breve distracción, y en los dos últimos estaba notablemente más cansada que en los dos primeros.",55.0,yes
46,2023-12-19_20h05.31.508,Unsyncopated_study2,s87,18.0,feminino,right,España,"Catalán, Castellano",Upper secondary,no,no,A,1,conjunction_un,L2,unsyncopated,s2,r2,46,Online_conjL2_un//c.cha.me29.none.none.wav,ba,ñu,mi,sil,fe,te,si,sil1,ra,ñi,sil2,['-'],,,none,none,,,,cha,3,testConjL1Syn//r1.s2.0.wav,2.0,conjunction_syn,syncopated,a,s2,rule,rule,L1,z,0.905,4.0,1.0,1.2791,3.0,3.0,Catalán,0.0,Castellano,0.0,Inglés,6.0,4.0,3.0,no,no,no,nada,,,,"En el tercer lenguaje he tenido una breve distracción, y en los dos últimos estaba notablemente más cansada que en los dos primeros.",55.0,yes
47,2023-12-19_20h05.31.508,Unsyncopated_study2,s87,18.0,feminino,right,España,"Catalán, Castellano",Upper secondary,no,no,A,1,conjunction_un,L2,unsyncopated,s1,r1,47,Online_conjL2_un//c.cha.me28.222.444.wav,go,cha,me,sil,du,mi,ba,sil1,bi,to,sil2,['catch'],[0.9791999999880545],[0.9791999999880545],0.222,no_beat,0.7571999999880545,0.7571999999880545,"[""space""]",cha,3,testConjL1Syn//cat_viol.r2.s1.0.wav,2.0,conjunction_syn,syncopated,b,s1,no_rule,cat,L1,m,2.7339,3.0,1.0,0.9384,3.0,3.0,Catalán,0.0,Castellano,0.0,Inglés,6.0,4.0,3.0,no,no,no,nada,,,,"En el tercer lenguaje he tenido una breve distracción, y en los dos últimos estaba notablemente más cansada que en los dos primeros.",55.0,yes
48,2023-12-19_20h05.31.508,Unsyncopated_study2,s87,18.0,feminino,right,España,"Catalán, Castellano",Upper secondary,no,no,A,1,conjunction_un,L2,unsyncopated,s1,r1,48,Online_conjL2_un//d.si.ñu19.444.1332.wav,go,su,si,sil,du,to,ñu,sil1,te,me,sil2,['catch'],[0.8640000000000327],[0.8640000000000327],0.444,no_beat,0.4200000000000327,0.4200000000000327,"[""space""]",si,4,testWhenL4Uns//r1.s2.0.wav,3.0,when,unsyncopated,a,s2,rule,rule,L4,z,1.0537,5.0,1.0,1.1627,3.0,3.0,Catalán,0.0,Castellano,0.0,Inglés,6.0,4.0,3.0,no,no,no,nada,,,,"En el tercer lenguaje he tenido una breve distracción, y en los dos últimos estaba notablemente más cansada que en los dos primeros.",55.0,yes
49,2023-12-19_20h05.31.508,Unsyncopated_study2,s87,18.0,feminino,right,España,"Catalán, Castellano",Upper secondary,no,no,A,1,conjunction_un,L2,unsyncopated,s2,r2,49,Online_conjL2_un//d.si.ñu17.1110.0.wav,ñu,bi,te,sil,fe,si,me,sil1,ra,ba,sil2,['catch'],[1.5224000000059732],[1.5224000000059732],1.11,no_beat,0.4124000000059731,0.4124000000059731,"[""space""]",si,4,testWhenL4Uns//r2.s1.1.wav,3.0,when,unsyncopated,b,s1,rule,rule,L4,m,1.0328,6.0,0.0,4.087,3.0,3.0,Catalán,0.0,Castellano,0.0,Inglés,6.0,4.0,3.0,no,no,no,nada,,,,"En el tercer lenguaje he tenido una breve distracción, y en los dos últimos estaba notablemente más cansada que en los dos primeros.",55.0,yes
50,2023-12-19_20h05.31.508,Unsyncopated_study2,s87,18.0,feminino,right,España,"Catalán, Castellano",Upper secondary,no,no,A,1,conjunction_un,L2,unsyncopated,s2,r1,50,Online_conjL2_un//d.si.ñu18.1332.222.wav,bi,ñu,me,sil,go,cha,si,sil1,du,ba,sil2,['catch'],[1.7541999999881455],[1.7541999999881455],1.332,no_beat,0.4221999999881454,0.4221999999881454,"[""space""]",si,4,testWhenL4Uns//time_viol.r2.s2.0.wav,3.0,when,unsyncopated,b,s2,no_rule,time,L4,m,0.5003,5.0,0.0,1.2406,3.0,3.0,Catalán,0.0,Castellano,0.0,Inglés,6.0,4.0,3.0,no,no,no,nada,,,,"En el tercer lenguaje he tenido una breve distracción, y en los dos últimos estaba notablemente más cansada que en los dos primeros.",55.0,yes
51,2023-12-19_20h05.31.508,Unsyncopated_study2,s87,18.0,feminino,right,España,"Catalán, Castellano",Upper secondary,no,no,A,1,conjunction_un,L2,unsyncopated,s2,r1,51,Online_conjL2_un//d.si.ñu16.1110.222.wav,te,ñu,mi,sil,go,si,to,sil1,du,me,sil2,['catch'],[1.8163000000120064],[1.8163000000120064],1.11,no_beat,0.7063000000120063,0.7063000000120063,"[""space""]",si,4,testWhenL4Uns//r1.s1.2.wav,3.0,when,unsyncopated,a,s1,rule,rule,L4,m,1.0168,4.0,0.0,1.1442,3.0,3.0,Catalán,0.0,Castellano,0.0,Inglés,6.0,4.0,3.0,no,no,no,nada,,,,"En el tercer lenguaje he tenido una breve distracción, y en los dos últimos estaba notablemente más cansada que en los dos primeros.",55.0,yes
52,2023-12-19_20h05.31.508,Unsyncopated_study2,s87,18.0,feminino,right,España,"Catalán, Castellano",Upper secondary,no,no,A,1,conjunction_un,L2,unsyncopated,s1,r1,52,Online_conjL2_un//c.cha.me3.1776.1110.wav,go,mi,te,sil,du,me,bi,sil1,cha,su,sil2,['catch'],[2.1333999999761772],[2.1333999999761772],1.776,beat,0.3573999999761772,0.3573999999761772,"[""space""]",cha,3,testWhenL4Uns//time_viol.r1.s2.0.wav,3.0,when,unsyncopated,a,s2,no_rule,time,L4,m,0.6882,5.0,0.0,1.832,3.0,3.0,Catalán,0.0,Castellano,0.0,Inglés,6.0,4.0,3.0,no,no,no,nada,,,,"En el tercer lenguaje he tenido una breve distracción, y en los dos últimos estaba notablemente más cansada que en los dos primeros.",55.0,yes
53,2023-12-19_20h05.31.508,Unsyncopated_study2,s87,18.0,feminino,right,España,"Catalán, Castellano",Upper secondary,no,no,A,1,conjunction_un,L2,unsyncopated,s2,r2,53,Online_conjL2_un//c.cha.me0.none.none.wav,si,mi,ba,sil,fe,su,te,sil1,ra,ñi,sil2,['-'],,,none,none,,,,cha,3,testWhenL4Uns//r1.s1.0.wav,3.0,when,unsyncopated,a,s1,rule,rule,L4,z,0.6048,5.0,1.0,1.0447,3.0,3.0,Catalán,0.0,Castellano,0.0,Inglés,6.0,4.0,3.0,no,no,no,nada,,,,"En el tercer lenguaje he tenido una breve distracción, y en los dos últimos estaba notablemente más cansada que en los dos primeros.",55.0,yes
54,2023-12-19_20h05.31.508,Unsyncopated_study2,s87,18.0,feminino,right,España,"Catalán, Castellano",Upper secondary,no,no,A,1,conjunction_un,L2,unsyncopated,s1,r2,54,Online_conjL2_un//c.cha.me2.1776.444.wav,fe,su,me,sil,ra,mi,ba,sil1,cha,ñu,sil2,['catch'],[2.1064000000060332],[2.1064000000060332],1.776,beat,0.3304000000060332,0.3304000000060332,"[""space""]",cha,3,testWhenL4Uns//r1.s1.1.wav,3.0,when,unsyncopated,a,s1,rule,rule,L4,z,1.6541,3.0,1.0,0.9396,3.0,3.0,Catalán,0.0,Castellano,0.0,Inglés,6.0,4.0,3.0,no,no,no,nada,,,,"En el tercer lenguaje he tenido una breve distracción, y en los dos últimos estaba notablemente más cansada que en los dos primeros.",55.0,yes
55,2023-12-19_20h05.31.508,Unsyncopated_study2,s87,18.0,feminino,right,España,"Catalán, Castellano",Upper secondary,no,no,A,1,conjunction_un,L2,unsyncopated,s1,r1,55,Online_conjL2_un//c.cha.me1.none.none.wav,go,ba,mi,sil,du,ñi,ñu,sil1,bi,si,sil2,['-'],,,none,none,,,,cha,3,testWhenL4Uns//cat_viol.r1.s2.0.wav,3.0,when,unsyncopated,a,s2,no_rule,cat,L4,m,1.3568,3.0,0.0,1.1321,3.0,3.0,Catalán,0.0,Castellano,0.0,Inglés,6.0,4.0,3.0,no,no,no,nada,,,,"En el tercer lenguaje he tenido una breve distracción, y en los dos últimos estaba notablemente más cansada que en los dos primeros.",55.0,yes
56,2023-12-19_20h05.31.508,Unsyncopated_study2,s87,18.0,feminino,right,España,"Catalán, Castellano",Upper secondary,no,no,A,1,conjunction_un,L2,unsyncopated,s2,r1,56,Online_conjL2_un//a.go.du9.888.1776.wav,mi,bi,cha,sil,go,ñu,si,sil1,du,to,sil2,['catch'],[2.3119000000059486],[2.3119000000059486],1.776,beat,0.5359000000059486,0.5359000000059486,"[""space""]",du,2,testWhenL4Uns//r2.s2.1.wav,3.0,when,unsyncopated,b,s2,rule,rule,L4,z,0.7983,4.0,1.0,1.8952,3.0,3.0,Catalán,0.0,Castellano,0.0,Inglés,6.0,4.0,3.0,no,no,no,nada,,,,"En el tercer lenguaje he tenido una breve distracción, y en los dos últimos estaba notablemente más cansada que en los dos primeros.",55.0,yes
57,2023-12-19_20h05.31.508,Unsyncopated_study2,s87,18.0,feminino,right,España,"Catalán, Castellano",Upper secondary,no,no,A,1,conjunction_un,L2,unsyncopated,s1,r1,57,Online_conjL2_un//a.go.du10.0.888.wav,go,bi,ñi,sil,du,si,te,sil1,ñu,su,sil2,['catch'],[1.3957000000178823],[1.3957000000178823],0.888,beat,0.5077000000178823,0.5077000000178823,"[""space""]",du,2,testWhenL4Uns//cat_viol.r2.s1.0.wav,3.0,when,unsyncopated,b,s1,no_rule,cat,L4,m,0.43,4.0,0.0,0.8727,3.0,3.0,Catalán,0.0,Castellano,0.0,Inglés,6.0,4.0,3.0,no,no,no,nada,,,,"En el tercer lenguaje he tenido una breve distracción, y en los dos últimos estaba notablemente más cansada que en los dos primeros.",55.0,yes
58,2023-12-19_20h05.31.508,Unsyncopated_study2,s87,18.0,feminino,right,España,"Catalán, Castellano",Upper secondary,no,no,A,1,conjunction_un,L2,unsyncopated,s2,r1,58,Online_conjL2_un//a.go.du11.888.1776.wav,si,ba,ñu,sil,go,ñi,mi,sil1,du,te,sil2,['catch'],[2.1980999999940423],[2.1980999999940423],1.776,beat,0.4220999999940422,0.4220999999940422,"[""space""]",du,2,testWhenL4Uns//r2.s2.2.wav,3.0,when,unsyncopated,b,s2,rule,rule,L4,z,0.8432,3.0,1.0,1.1166,3.0,3.0,Catalán,0.0,Castellano,0.0,Inglés,6.0,4.0,3.0,no,no,no,nada,,,,"En el tercer lenguaje he tenido una breve distracción, y en los dos últimos estaba notablemente más cansada que en los dos primeros.",55.0,yes
59,2023-12-19_20h05.31.508,Unsyncopated_study2,s87,18.0,feminino,right,España,"Catalán, Castellano",Upper secondary,no,no,A,1,conjunction_un,L2,unsyncopated,s1,r2,59,Online_conjL2_un//a.go.du8.none.none.wav,fe,to,ñi,sil,ra,ba,cha,sil1,ñu,bi,sil2,['-'],,,none,none,,,,du,2,testWhenL4Uns//r1.s2.1.wav,3.0,when,unsyncopated,a,s2,rule,rule,L4,z,0.2308,5.0,1.0,1.7118,3.0,3.0,Catalán,0.0,Castellano,0.0,Inglés,6.0,4.0,3.0,no,no,no,nada,,,,"En el tercer lenguaje he tenido una breve distracción, y en los dos últimos estaba notablemente más cansada que en los dos primeros.",55.0,yes
60,2023-12-19_20h05.31.508,Unsyncopated_study2,s87,18.0,feminino,right,España,"Catalán, Castellano",Upper secondary,no,no,A,1,conjunction_un,L2,unsyncopated,s2,r1,60,Online_conjL2_un//c.cha.me20.none.none.wav,ñu,su,ñi,sil,go,to,si,sil1,du,ba,sil2,['-'],,,none,none,,,,cha,3,testWhenL4Uns//r2.s1.2.wav,3.0,when,unsyncopated,b,s1,rule,rule,L4,m,0.3763,5.0,0.0,1.0378,3.0,3.0,Catalán,0.0,Castellano,0.0,Inglés,6.0,4.0,3.0,no,no,no,nada,,,,"En el tercer lenguaje he tenido una breve distracción, y en los dos últimos estaba notablemente más cansada que en los dos primeros.",55.0,yes
61,2023-12-19_20h05.31.508,Unsyncopated_study2,s87,18.0,feminino,right,España,"Catalán, Castellano",Upper secondary,no,no,A,1,conjunction_un,L2,unsyncopated,s2,r2,61,Online_conjL2_un//c.cha.me23.222.444.wav,su,cha,me,sil,fe,mi,to,sil1,ra,ñu,sil2,['catch'],[1.634999999999991],[1.634999999999991],0.222,no_beat,,1.412999999999991,"[""space""]",cha,3,testWhenL4Uns//dep_viol.r1.s1.0.wav,3.0,when,unsyncopated,a,s1,no_rule,dep,L4,m,0.9295,3.0,0.0,1.4762,3.0,3.0,Catalán,0.0,Castellano,0.0,Inglés,6.0,4.0,3.0,no,no,no,nada,,,,"En el tercer lenguaje he tenido una breve distracción, y en los dos últimos estaba notablemente más cansada que en los dos primeros.",55.0,yes
62,2023-12-19_20h05.31.508,Unsyncopated_study2,s87,18.0,feminino,right,España,"Catalán, Castellano",Upper secondary,no,no,A,1,conjunction_un,L2,unsyncopated,s1,r2,62,Online_conjL2_un//c.cha.me21.1332.444.wav,fe,su,me,sil,ra,si,cha,sil1,ñi,ba,sil2,['false alarm'],[1.1376000000238946],[1.1376000000238946],1.332,no_beat,,,"[""space""]",cha,3,testWhenL4Uns//time_viol.r2.s1.0.wav,3.0,when,unsyncopated,b,s1,no_rule,time,L4,z,0.5901,4.0,1.0,1.5316,3.0,3.0,Catalán,0.0,Castellano,0.0,Inglés,6.0,4.0,3.0,no,no,no,nada,,,,"En el tercer lenguaje he tenido una breve distracción, y en los dos últimos estaba notablemente más cansada que en los dos primeros.",55.0,yes
63,2023-12-19_20h05.31.508,Unsyncopated_study2,s87,18.0,feminino,right,España,"Catalán, Castellano",Upper secondary,no,no,A,1,conjunction_un,L2,unsyncopated,s1,r1,63,Online_conjL2_un//c.cha.me22.222.444.wav,go,cha,me,sil,du,ñu,to,sil1,te,su,sil2,['catch'],[0.7429000000059887],[0.7429000000059887],0.222,no_beat,0.5209000000059887,0.5209000000059887,"[""space""]",cha,3,testWhenL4Uns//cat_viol.r1.s1.0.wav,3.0,when,unsyncopated,a,s1,no_rule,cat,L4,m,0.5899,4.0,0.0,1.2406,3.0,3.0,Catalán,0.0,Castellano,0.0,Inglés,6.0,4.0,3.0,no,no,no,nada,,,,"En el tercer lenguaje he tenido una breve distracción, y en los dos últimos estaba notablemente más cansada que en los dos primeros.",55.0,yes
64,2023-12-19_20h05.31.508,Unsyncopated_study2,s87,18.0,feminino,right,España,"Catalán, Castellano",Upper secondary,no,no,A,1,conjunction_un,L2,unsyncopated,s2,r2,64,Online_conjL2_un//a.go.du25.none.none.wav,mi,ñu,ba,sil,fe,bi,to,sil1,ra,si,sil2,['-'],,,none,none,,,,du,2,testWhenL4Uns//cat_viol.r2.s2.0.wav,3.0,when,unsyncopated,b,s2,no_rule,cat,L4,m,0.6933,5.0,0.0,2.0084,3.0,3.0,Catalán,0.0,Castellano,0.0,Inglés,6.0,4.0,3.0,no,no,no,nada,,,,"En el tercer lenguaje he tenido una breve distracción, y en los dos últimos estaba notablemente más cansada que en los dos primeros.",55.0,yes
65,2023-12-19_20h05.31.508,Unsyncopated_study2,s87,18.0,feminino,right,España,"Catalán, Castellano",Upper secondary,no,no,A,1,conjunction_un,L2,unsyncopated,s2,r1,65,Online_conjL2_un//a.go.du27.888.1776.wav,ñu,ba,bi,sil,go,si,mi,sil1,du,te,sil2,['catch'],[2.17999999999995],[2.17999999999995],1.776,beat,0.4039999999999499,0.4039999999999499,"[""space""]",du,2,testWhenL4Uns//time_viol.r1.s1.0.wav,3.0,when,unsyncopated,a,s1,no_rule,time,L4,z,1.7181,3.0,1.0,1.2322,3.0,3.0,Catalán,0.0,Castellano,0.0,Inglés,6.0,4.0,3.0,no,no,no,nada,,,,"En el tercer lenguaje he tenido una breve distracción, y en los dos últimos estaba notablemente más cansada que en los dos primeros.",55.0,yes
66,2023-12-19_20h05.31.508,Unsyncopated_study2,s87,18.0,feminino,right,España,"Catalán, Castellano",Upper secondary,no,no,A,1,conjunction_un,L2,unsyncopated,s2,r2,66,Online_conjL2_un//a.go.du26.none.none.wav,mi,bi,ñi,sil,fe,cha,te,sil1,ra,su,sil2,['-'],,,none,none,,,,du,2,testWhenL4Uns//dep_viol.r1.s2.0.wav,3.0,when,unsyncopated,a,s2,no_rule,dep,L4,m,1.02,3.0,0.0,1.2241,3.0,3.0,Catalán,0.0,Castellano,0.0,Inglés,6.0,4.0,3.0,no,no,no,nada,,,,"En el tercer lenguaje he tenido una breve distracción, y en los dos últimos estaba notablemente más cansada que en los dos primeros.",55.0,yes
67,2023-12-19_20h05.31.508,Unsyncopated_study2,s87,18.0,feminino,right,España,"Catalán, Castellano",Upper secondary,no,no,A,1,conjunction_un,L2,unsyncopated,s1,r1,67,Online_conjL2_un//a.go.du24.0.888.wav,go,si,bi,sil,du,to,me,sil1,ñi,ba,sil2,['catch'],[1.3455000000000155],[1.3455000000000155],0.888,beat,0.4575000000000154,0.4575000000000154,"[""space""]",du,2,testWhenL4Uns//r2.s2.0.wav,3.0,when,unsyncopated,b,s2,rule,rule,L4,m,0.958,3.0,0.0,1.0019,3.0,3.0,Catalán,0.0,Castellano,0.0,Inglés,6.0,4.0,3.0,no,no,no,nada,,,,"En el tercer lenguaje he tenido una breve distracción, y en los dos últimos estaba notablemente más cansada que en los dos primeros.",55.0,yes
68,2023-12-19_20h05.31.508,Unsyncopated_study2,s87,18.0,feminino,right,España,"Catalán, Castellano",Upper secondary,no,no,A,1,conjunction_un,L2,unsyncopated,s2,r1,68,Online_conjL2_un//a.go.du13.888.1776.wav,mi,bi,ba,sil,go,ñu,to,sil1,du,te,sil2,['catch'],[2.227300000011951],[2.227300000011951],1.776,beat,0.4513000000119509,0.4513000000119509,"[""space""]",du,2,testWhenL4Uns//r1.s2.2.wav,3.0,when,unsyncopated,a,s2,rule,rule,L4,m,0.9566,4.0,0.0,1.5413,3.0,3.0,Catalán,0.0,Castellano,0.0,Inglés,6.0,4.0,3.0,no,no,no,nada,,,,"En el tercer lenguaje he tenido una breve distracción, y en los dos últimos estaba notablemente más cansada que en los dos primeros.",55.0,yes
69,2023-12-19_20h05.31.508,Unsyncopated_study2,s87,18.0,feminino,right,España,"Catalán, Castellano",Upper secondary,no,no,A,1,conjunction_un,L2,unsyncopated,s2,r2,69,Online_conjL2_un//a.go.du15.none.none.wav,me,mi,ñu,sil,fe,si,ñi,sil1,ra,su,sil2,['-'],,,none,none,,,,du,2,testWhenL4Uns//dep_viol.r2.s2.0.wav,3.0,when,unsyncopated,b,s2,no_rule,dep,L4,z,0.6617,2.0,1.0,1.2366,3.0,3.0,Catalán,0.0,Castellano,0.0,Inglés,6.0,4.0,3.0,no,no,no,nada,,,,"En el tercer lenguaje he tenido una breve distracción, y en los dos últimos estaba notablemente más cansada que en los dos primeros.",55.0,yes
70,2023-12-19_20h05.31.508,Unsyncopated_study2,s87,18.0,feminino,right,España,"Catalán, Castellano",Upper secondary,no,no,A,1,conjunction_un,L2,unsyncopated,s1,r1,70,Online_conjL2_un//a.go.du14.0.888.wav,go,su,to,sil,du,te,ba,sil1,ñi,me,sil2,['catch'],[1.487699999988081],[1.487699999988081],0.888,beat,0.5996999999880809,0.5996999999880809,"[""space""]",du,2,testWhenL4Uns//r2.s1.0.wav,3.0,when,unsyncopated,b,s1,rule,rule,L4,m,2.5546,4.0,0.0,1.5612,3.0,3.0,Catalán,0.0,Castellano,0.0,Inglés,6.0,4.0,3.0,no,no,no,nada,,,,"En el tercer lenguaje he tenido una breve distracción, y en los dos últimos estaba notablemente más cansada que en los dos primeros.",55.0,yes
71,2023-12-19_20h05.31.508,Unsyncopated_study2,s87,18.0,feminino,right,España,"Catalán, Castellano",Upper secondary,no,no,A,1,conjunction_un,L2,unsyncopated,s2,r2,71,Online_conjL2_un//a.go.du12.none.none.wav,bi,su,mi,sil,fe,ñi,te,sil1,ra,si,sil2,['-'],,,none,none,,,,du,2,testWhenL4Uns//dep_viol.r2.s1.0.wav,3.0,when,unsyncopated,b,s1,no_rule,dep,L4,m,0.9481,4.0,0.0,1.5627,3.0,3.0,Catalán,0.0,Castellano,0.0,Inglés,6.0,4.0,3.0,no,no,no,nada,,,,"En el tercer lenguaje he tenido una breve distracción, y en los dos últimos estaba notablemente más cansada que en los dos primeros.",55.0,yes
72,2023-12-19_20h05.31.508,Unsyncopated_study2,s87,18.0,feminino,right,España,"Catalán, Castellano",Upper secondary,no,no,A,1,conjunction_un,L2,unsyncopated,s1,r2,72,Online_conjL2_un//d.si.ñu14.1110.222.wav,fe,ñu,ñi,sil,ra,si,ba,sil1,te,su,sil2,['catch'],[1.6367000000178678],[1.6367000000178678],1.11,no_beat,0.5267000000178677,0.5267000000178677,"[""space""]",si,4,testWhatL3Uns//dep_viol.r2.s2.0.wav,4.0,what,unsyncopated,b,s2,no_rule,dep,L3,z,3.5266,5.0,0.0,2.329,3.0,3.0,Catalán,0.0,Castellano,0.0,Inglés,6.0,4.0,3.0,no,no,no,nada,,,,"En el tercer lenguaje he tenido una breve distracción, y en los dos últimos estaba notablemente más cansada que en los dos primeros.",55.0,yes
73,2023-12-19_20h05.31.508,Unsyncopated_study2,s87,18.0,feminino,right,España,"Catalán, Castellano",Upper secondary,no,no,A,1,conjunction_un,L2,unsyncopated,s2,r1,73,Online_conjL2_un//d.si.ñu15.none.none.wav,su,mi,bi,sil,go,me,ba,sil1,du,te,sil2,['-'],,,none,none,,,,si,4,testWhatL3Uns//cat_viol.r2.s1.0.wav,4.0,what,unsyncopated,b,s1,no_rule,cat,L3,m,0.5048,5.0,1.0,1.3906,3.0,3.0,Catalán,0.0,Castellano,0.0,Inglés,6.0,4.0,3.0,no,no,no,nada,,,,"En el tercer lenguaje he tenido una breve distracción, y en los dos últimos estaba notablemente más cansada que en los dos primeros.",55.0,yes
74,2023-12-19_20h05.31.508,Unsyncopated_study2,s87,18.0,feminino,right,España,"Catalán, Castellano",Upper secondary,no,no,A,1,conjunction_un,L2,unsyncopated,s2,r1,74,Online_conjL2_un//d.si.ñu12.none.none.wav,ba,bi,mi,sil,go,to,cha,sil1,du,te,sil2,['-'],,,none,none,,,,si,4,testWhatL3Uns//time_viol.r2.s1.0.wav,4.0,what,unsyncopated,b,s1,no_rule,time,L3,m,0.6321,4.0,1.0,0.9642,3.0,3.0,Catalán,0.0,Castellano,0.0,Inglés,6.0,4.0,3.0,no,no,no,nada,,,,"En el tercer lenguaje he tenido una breve distracción, y en los dos últimos estaba notablemente más cansada que en los dos primeros.",55.0,yes
75,2023-12-19_20h05.31.508,Unsyncopated_study2,s87,18.0,feminino,right,España,"Catalán, Castellano",Upper secondary,no,no,A,1,conjunction_un,L2,unsyncopated,s2,r2,75,Online_conjL2_un//d.si.ñu13.0.1110.wav,si,su,ba,sil,fe,ñu,ñi,sil1,ra,mi,sil2,['catch'],[0.5210000000000719],[0.5210000000000719],0.0,beat,0.5210000000000719,0.5210000000000719,"[""space""]",si,4,testWhatL3Uns//cat_viol.r1.s1.0.wav,4.0,what,unsyncopated,a,s1,no_rule,cat,L3,z,0.4242,4.0,0.0,1.0925,3.0,3.0,Catalán,0.0,Castellano,0.0,Inglés,6.0,4.0,3.0,no,no,no,nada,,,,"En el tercer lenguaje he tenido una breve distracción, y en los dos últimos estaba notablemente más cansada que en los dos primeros.",55.0,yes
76,2023-12-19_20h05.31.508,Unsyncopated_study2,s87,18.0,feminino,right,España,"Catalán, Castellano",Upper secondary,no,no,A,1,conjunction_un,L2,unsyncopated,s1,r2,76,Online_conjL2_un//b.fe.ra29.0.888.wav,fe,ba,si,sil,ra,bi,cha,sil1,mi,ñu,sil2,['catch'],[0.9492000000179814],[0.9492000000179814],0.0,beat,0.9492000000179814,0.9492000000179814,"[""space""]",fe,1,testWhatL3Uns//r1.s2.2.wav,4.0,what,unsyncopated,a,s2,rule,rule,L3,z,0.4714,6.0,1.0,0.9665,3.0,3.0,Catalán,0.0,Castellano,0.0,Inglés,6.0,4.0,3.0,no,no,no,nada,,,,"En el tercer lenguaje he tenido una breve distracción, y en los dos últimos estaba notablemente más cansada que en los dos primeros.",55.0,yes
77,2023-12-19_20h05.31.508,Unsyncopated_study2,s87,18.0,feminino,right,España,"Catalán, Castellano",Upper secondary,no,no,A,1,conjunction_un,L2,unsyncopated,s2,r1,77,Online_conjL2_un//b.fe.ra28.none.none.wav,me,cha,mi,sil,go,si,ñi,sil1,du,to,sil2,['-'],,,none,none,,,,fe,1,testWhatL3Uns//r2.s1.1.wav,4.0,what,unsyncopated,b,s1,rule,rule,L3,z,1.1784,4.0,1.0,0.9696,3.0,3.0,Catalán,0.0,Castellano,0.0,Inglés,6.0,4.0,3.0,no,no,no,nada,,,,"En el tercer lenguaje he tenido una breve distracción, y en los dos últimos estaba notablemente más cansada que en los dos primeros.",55.0,yes
78,2023-12-19_20h05.31.508,Unsyncopated_study2,s87,18.0,feminino,right,España,"Catalán, Castellano",Upper secondary,no,no,A,1,conjunction_un,L2,unsyncopated,s2,r2,78,Online_conjL2_un//b.fe.ra31.888.1776.wav,ñu,to,me,sil,fe,cha,mi,sil1,ra,ba,sil2,['catch'],[1.4360000000000355],[1.4360000000000355],0.888,beat,0.5480000000000355,0.5480000000000355,"[""space""]",fe,1,testWhatL3Uns//dep_viol.r1.s1.0.wav,4.0,what,unsyncopated,a,s1,no_rule,dep,L3,m,0.338,5.0,1.0,1.1185,3.0,3.0,Catalán,0.0,Castellano,0.0,Inglés,6.0,4.0,3.0,no,no,no,nada,,,,"En el tercer lenguaje he tenido una breve distracción, y en los dos últimos estaba notablemente más cansada que en los dos primeros.",55.0,yes
79,2023-12-19_20h05.31.508,Unsyncopated_study2,s87,18.0,feminino,right,España,"Catalán, Castellano",Upper secondary,no,no,A,1,conjunction_un,L2,unsyncopated,s1,r1,79,Online_conjL2_un//b.fe.ra30.none.none.wav,go,si,cha,sil,du,ba,te,sil1,ñu,ñi,sil2,['-'],,,none,none,,,,fe,1,testWhatL3Uns//cat_viol.r2.s2.0.wav,4.0,what,unsyncopated,b,s2,no_rule,cat,L3,m,0.3265,6.0,1.0,1.0614,3.0,3.0,Catalán,0.0,Castellano,0.0,Inglés,6.0,4.0,3.0,no,no,no,nada,,,,"En el tercer lenguaje he tenido una breve distracción, y en los dos últimos estaba notablemente más cansada que en los dos primeros.",55.0,yes
80,2023-12-19_20h05.31.508,Unsyncopated_study2,s87,18.0,feminino,right,España,"Catalán, Castellano",Upper secondary,no,no,A,1,conjunction_un,L2,unsyncopated,s1,r2,80,Online_conjL2_un//b.fe.ra9.0.888.wav,fe,ñu,cha,sil,ra,to,bi,sil1,te,ba,sil2,['catch'],[0.5879999999999654],[0.5879999999999654],0.0,beat,0.5879999999999654,0.5879999999999654,"[""space""]",fe,1,testWhatL3Uns//time_viol.r1.s1.0.wav,4.0,what,unsyncopated,a,s1,no_rule,time,L3,m,1.4637,4.0,1.0,1.1413,3.0,3.0,Catalán,0.0,Castellano,0.0,Inglés,6.0,4.0,3.0,no,no,no,nada,,,,"En el tercer lenguaje he tenido una breve distracción, y en los dos últimos estaba notablemente más cansada que en los dos primeros.",55.0,yes
81,2023-12-19_20h05.31.508,Unsyncopated_study2,s87,18.0,feminino,right,España,"Catalán, Castellano",Upper secondary,no,no,A,1,conjunction_un,L2,unsyncopated,s2,r1,81,Online_conjL2_un//b.fe.ra8.none.none.wav,si,to,mi,sil,go,cha,me,sil1,du,bi,sil2,['-'],,,none,none,,,,fe,1,testWhatL3Uns//dep_viol.r2.s1.0.wav,4.0,what,unsyncopated,b,s1,no_rule,dep,L3,m,0.9503,4.0,1.0,1.0843,3.0,3.0,Catalán,0.0,Castellano,0.0,Inglés,6.0,4.0,3.0,no,no,no,nada,,,,"En el tercer lenguaje he tenido una breve distracción, y en los dos últimos estaba notablemente más cansada que en los dos primeros.",55.0,yes
82,2023-12-19_20h05.31.508,Unsyncopated_study2,s87,18.0,feminino,right,España,"Catalán, Castellano",Upper secondary,no,no,A,1,conjunction_un,L2,unsyncopated,s1,r2,82,Online_conjL2_un//b.fe.ra11.0.888.wav,fe,bi,mi,sil,ra,te,su,sil1,cha,ba,sil2,['catch'],[0.4070000000000391],[0.4070000000000391],0.0,beat,0.4070000000000391,0.4070000000000391,"[""space""]",fe,1,testWhatL3Uns//dep_viol.r1.s2.0.wav,4.0,what,unsyncopated,a,s2,no_rule,dep,L3,m,0.7484,3.0,1.0,1.027,3.0,3.0,Catalán,0.0,Castellano,0.0,Inglés,6.0,4.0,3.0,no,no,no,nada,,,,"En el tercer lenguaje he tenido una breve distracción, y en los dos últimos estaba notablemente más cansada que en los dos primeros.",55.0,yes
83,2023-12-19_20h05.31.508,Unsyncopated_study2,s87,18.0,feminino,right,España,"Catalán, Castellano",Upper secondary,no,no,A,1,conjunction_un,L2,unsyncopated,s1,r2,83,Online_conjL2_un//b.fe.ra10.0.888.wav,fe,ñu,cha,sil,ra,mi,bi,sil1,me,si,sil2,['catch'],[1.0422000000179423],[1.0422000000179423],0.0,beat,1.0422000000179423,1.0422000000179423,"[""space""]",fe,1,testWhatL3Uns//r1.s1.0.wav,4.0,what,unsyncopated,a,s1,rule,rule,L3,m,0.3336,2.0,0.0,0.7378,3.0,3.0,Catalán,0.0,Castellano,0.0,Inglés,6.0,4.0,3.0,no,no,no,nada,,,,"En el tercer lenguaje he tenido una breve distracción, y en los dos últimos estaba notablemente más cansada que en los dos primeros.",55.0,yes
84,2023-12-19_20h05.31.508,Unsyncopated_study2,s87,18.0,feminino,right,España,"Catalán, Castellano",Upper secondary,no,no,A,1,conjunction_un,L2,unsyncopated,s2,r1,84,Online_conjL2_un//a.go.du16.888.1776.wav,cha,me,ba,sil,go,to,si,sil1,du,ñi,sil2,['catch'],[2.208500000000072],[2.208500000000072],1.776,beat,0.4325000000000718,0.4325000000000718,"[""space""]",du,2,testWhatL3Uns//r1.s1.1.wav,4.0,what,unsyncopated,a,s1,rule,rule,L3,m,0.3637,2.0,0.0,0.7659,3.0,3.0,Catalán,0.0,Castellano,0.0,Inglés,6.0,4.0,3.0,no,no,no,nada,,,,"En el tercer lenguaje he tenido una breve distracción, y en los dos últimos estaba notablemente más cansada que en los dos primeros.",55.0,yes
85,2023-12-19_20h05.31.508,Unsyncopated_study2,s87,18.0,feminino,right,España,"Catalán, Castellano",Upper secondary,no,no,A,1,conjunction_un,L2,unsyncopated,s1,r1,85,Online_conjL2_un//a.go.du18.0.888.wav,go,me,si,sil,du,ñi,ba,sil1,su,to,sil2,['miss'],,,0.888,beat,,,,du,2,testWhatL3Uns//r2.s2.0.wav,4.0,what,unsyncopated,b,s2,rule,rule,L3,m,0.2785,2.0,0.0,0.6824,3.0,3.0,Catalán,0.0,Castellano,0.0,Inglés,6.0,4.0,3.0,no,no,no,nada,,,,"En el tercer lenguaje he tenido una breve distracción, y en los dos últimos estaba notablemente más cansada que en los dos primeros.",55.0,yes
86,2023-12-19_20h05.31.508,Unsyncopated_study2,s87,18.0,feminino,right,España,"Catalán, Castellano",Upper secondary,no,no,A,1,conjunction_un,L2,unsyncopated,s1,r2,86,Online_conjL2_un//a.go.du17.none.none.wav,fe,mi,su,sil,ra,me,bi,sil1,te,si,sil2,['-'],,,none,none,,,,du,2,testWhatL3Uns//r1.s2.1.wav,4.0,what,unsyncopated,a,s2,rule,rule,L3,z,0.5148,4.0,1.0,1.2291,3.0,3.0,Catalán,0.0,Castellano,0.0,Inglés,6.0,4.0,3.0,no,no,no,nada,,,,"En el tercer lenguaje he tenido una breve distracción, y en los dos últimos estaba notablemente más cansada que en los dos primeros.",55.0,yes
87,2023-12-19_20h05.31.508,Unsyncopated_study2,s87,18.0,feminino,right,España,"Catalán, Castellano",Upper secondary,no,no,A,1,conjunction_un,L2,unsyncopated,s1,r1,87,Online_conjL2_un//a.go.du19.0.888.wav,go,ba,si,sil,du,su,mi,sil1,ñi,cha,sil2,['catch'],[1.3058000000119137],[1.3058000000119137],0.888,beat,0.4178000000119136,0.4178000000119136,"[""space""]",du,2,testWhatL3Uns//r1.s2.0.wav,4.0,what,unsyncopated,a,s2,rule,rule,L3,z,0.2342,6.0,1.0,1.2056,3.0,3.0,Catalán,0.0,Castellano,0.0,Inglés,6.0,4.0,3.0,no,no,no,nada,,,,"En el tercer lenguaje he tenido una breve distracción, y en los dos últimos estaba notablemente más cansada que en los dos primeros.",55.0,yes
88,2023-12-19_20h05.31.508,Unsyncopated_study2,s87,18.0,feminino,right,España,"Catalán, Castellano",Upper secondary,no,no,A,1,conjunction_un,L2,unsyncopated,s1,r1,88,Online_conjL2_un//c.cha.me13.none.none.wav,go,bi,su,sil,du,si,te,sil1,mi,ñu,sil2,['-'],,,none,none,,,,cha,3,testWhatL3Uns//r2.s1.2.wav,4.0,what,unsyncopated,b,s1,rule,rule,L3,m,0.6052,4.0,0.0,1.6928,3.0,3.0,Catalán,0.0,Castellano,0.0,Inglés,6.0,4.0,3.0,no,no,no,nada,,,,"En el tercer lenguaje he tenido una breve distracción, y en los dos últimos estaba notablemente más cansada que en los dos primeros.",55.0,yes
89,2023-12-19_20h05.31.508,Unsyncopated_study2,s87,18.0,feminino,right,España,"Catalán, Castellano",Upper secondary,no,no,A,1,conjunction_un,L2,unsyncopated,s1,r2,89,Online_conjL2_un//c.cha.me14.none.none.wav,fe,mi,su,sil,ra,si,ba,sil1,te,ñi,sil2,['-'],,,none,none,,,,cha,3,testWhatL3Uns//r1.s1.2.wav,4.0,what,unsyncopated,a,s1,rule,rule,L3,m,1.8505,4.0,0.0,1.5643,3.0,3.0,Catalán,0.0,Castellano,0.0,Inglés,6.0,4.0,3.0,no,no,no,nada,,,,"En el tercer lenguaje he tenido una breve distracción, y en los dos últimos estaba notablemente más cansada que en los dos primeros.",55.0,yes
90,2023-12-19_20h05.31.508,Unsyncopated_study2,s87,18.0,feminino,right,España,"Catalán, Castellano",Upper secondary,no,no,A,1,conjunction_un,L2,unsyncopated,s1,r1,90,Online_conjL2_un//c.cha.me12.1332.222.wav,go,me,si,sil,du,ñu,cha,sil1,ñi,bi,sil2,['catch'],[1.7534000000059677],[1.7534000000059677],1.332,no_beat,0.4214000000059676,0.4214000000059676,"[""space""]",cha,3,testWhatL3Uns//time_viol.r1.s2.0.wav,4.0,what,unsyncopated,a,s2,no_rule,time,L3,z,1.3832,3.0,0.0,0.7499,3.0,3.0,Catalán,0.0,Castellano,0.0,Inglés,6.0,4.0,3.0,no,no,no,nada,,,,"En el tercer lenguaje he tenido una breve distracción, y en los dos últimos estaba notablemente más cansada que en los dos primeros.",55.0,yes
91,2023-12-19_20h05.31.508,Unsyncopated_study2,s87,18.0,feminino,right,España,"Catalán, Castellano",Upper secondary,no,no,A,1,conjunction_un,L2,unsyncopated,s2,r1,91,Online_conjL2_un//c.cha.me15.444.1110.wav,mi,ba,cha,sil,go,me,si,sil1,du,te,sil2,['catch'],[1.1725000000000136],[1.1725000000000136],0.444,no_beat,0.7285000000000137,0.7285000000000137,"[""space""]",cha,3,testWhatL3Uns//time_viol.r2.s2.0.wav,4.0,what,unsyncopated,b,s2,no_rule,time,L3,m,0.5196,4.0,1.0,1.9762,3.0,3.0,Catalán,0.0,Castellano,0.0,Inglés,6.0,4.0,3.0,no,no,no,nada,,,,"En el tercer lenguaje he tenido una breve distracción, y en los dos últimos estaba notablemente más cansada que en los dos primeros.",55.0,yes
92,2023-12-19_20h05.31.508,Unsyncopated_study2,s87,18.0,feminino,right,España,"Catalán, Castellano",Upper secondary,no,no,A,1,conjunction_un,L2,unsyncopated,s1,r1,92,Online_conjL2_un//d.si.ñu0.none.none.wav,go,cha,ba,sil,du,ñi,bi,sil1,su,to,sil2,['false alarm'],[1.4869999999999663],[1.4869999999999663],none,none,,,"[""space""]",si,4,testWhatL3Uns//r2.s2.2.wav,4.0,what,unsyncopated,b,s2,rule,rule,L3,z,0.3457,5.0,1.0,1.057,3.0,3.0,Catalán,0.0,Castellano,0.0,Inglés,6.0,4.0,3.0,no,no,no,nada,,,,"En el tercer lenguaje he tenido una breve distracción, y en los dos últimos estaba notablemente más cansada que en los dos primeros.",55.0,yes
93,2023-12-19_20h05.31.508,Unsyncopated_study2,s87,18.0,feminino,right,España,"Catalán, Castellano",Upper secondary,no,no,A,1,conjunction_un,L2,unsyncopated,s1,r1,93,Online_conjL2_un//d.si.ñu2.1776.444.wav,go,ba,ñu,sil,du,to,su,sil1,si,ñi,sil2,['catch'],[2.23599999999999],[2.23599999999999],1.776,beat,0.45999999999999,0.45999999999999,"[""space""]",si,4,testWhatL3Uns//cat_viol.r1.s2.0.wav,4.0,what,unsyncopated,a,s2,no_rule,cat,L3,m,0.2729,4.0,1.0,0.8245,3.0,3.0,Catalán,0.0,Castellano,0.0,Inglés,6.0,4.0,3.0,no,no,no,nada,,,,"En el tercer lenguaje he tenido una breve distracción, y en los dos últimos estaba notablemente más cansada que en los dos primeros.",55.0,yes
94,2023-12-19_20h05.31.508,Unsyncopated_study2,s87,18.0,feminino,right,España,"Catalán, Castellano",Upper secondary,no,no,A,1,conjunction_un,L2,unsyncopated,s1,r2,94,Online_conjL2_un//d.si.ñu1.222.1332.wav,fe,si,ba,sil,ra,su,ñu,sil1,ñi,me,sil2,['miss'],,,0.222,no_beat,,,,si,4,testWhatL3Uns//r2.s2.1.wav,4.0,what,unsyncopated,b,s2,rule,rule,L3,m,0.4514,4.0,0.0,1.0505,3.0,3.0,Catalán,0.0,Castellano,0.0,Inglés,6.0,4.0,3.0,no,no,no,nada,,,,"En el tercer lenguaje he tenido una breve distracción, y en los dos últimos estaba notablemente más cansada que en los dos primeros.",55.0,yes
95,2023-12-19_20h05.31.508,Unsyncopated_study2,s87,18.0,feminino,right,España,"Catalán, Castellano",Upper secondary,no,no,A,1,conjunction_un,L2,unsyncopated,s2,r2,95,Online_conjL2_un//d.si.ñu3.none.none.wav,to,ba,te,sil,fe,cha,bi,sil1,ra,me,sil2,['-'],,,none,none,,,,si,4,testWhatL3Uns//r2.s1.0.wav,4.0,what,unsyncopated,b,s1,rule,rule,L3,m,0.5558,5.0,0.0,1.2074,3.0,3.0,Catalán,0.0,Castellano,0.0,Inglés,6.0,4.0,3.0,no,no,no,nada,,,,"En el tercer lenguaje he tenido una breve distracción, y en los dos últimos estaba notablemente más cansada que en los dos primeros.",55.0,yes
96,2023-12-19_20h05.31.508,Unsyncopated_study2,s87,18.0,feminino,right,España,"Catalán, Castellano",Upper secondary,no,no,A,1,conjunction_un,L2,unsyncopated,s1,r2,96,Online_conjL2_un//b.fe.ra6.0.888.wav,fe,me,ñu,sil,ra,ñi,mi,sil1,to,bi,sil2,['catch'],[1.0840999999940095],[1.0840999999940095],0.0,beat,1.0840999999940095,1.0840999999940095,"[""space""]",fe,1,,,,,,,,,,,,,,,3.0,3.0,Catalán,0.0,Castellano,0.0,Inglés,6.0,4.0,3.0,no,no,no,nada,,,,"En el tercer lenguaje he tenido una breve distracción, y en los dos últimos estaba notablemente más cansada que en los dos primeros.",55.0,yes
97,2023-12-19_20h05.31.508,Unsyncopated_study2,s87,18.0,feminino,right,España,"Catalán, Castellano",Upper secondary,no,no,A,1,conjunction_un,L2,unsyncopated,s2,r2,97,Online_conjL2_un//b.fe.ra4.888.1776.wav,bi,ñi,to,sil,fe,me,ba,sil1,ra,cha,sil2,['catch'],[1.6444000000059305],[1.6444000000059305],0.888,beat,0.7564000000059304,0.7564000000059304,"[""space""]",fe,1,,,,,,,,,,,,,,,3.0,3.0,Catalán,0.0,Castellano,0.0,Inglés,6.0,4.0,3.0,no,no,no,nada,,,,"En el tercer lenguaje he tenido una breve distracción, y en los dos últimos estaba notablemente más cansada que en los dos primeros.",55.0,yes
98,2023-12-19_20h05.31.508,Unsyncopated_study2,s87,18.0,feminino,right,España,"Catalán, Castellano",Upper secondary,no,no,A,1,conjunction_un,L2,unsyncopated,s2,r1,98,Online_conjL2_un//b.fe.ra5.none.none.wav,cha,si,su,sil,go,bi,mi,sil1,du,ñu,sil2,['-'],,,none,none,,,,fe,1,,,,,,,,,,,,,,,3.0,3.0,Catalán,0.0,Castellano,0.0,Inglés,6.0,4.0,3.0,no,no,no,nada,,,,"En el tercer lenguaje he tenido una breve distracción, y en los dos últimos estaba notablemente más cansada que en los dos primeros.",55.0,yes
99,2023-12-19_20h05.31.508,Unsyncopated_study2,s87,18.0,feminino,right,España,"Catalán, Castellano",Upper secondary,no,no,A,1,conjunction_un,L2,unsyncopated,s1,r1,99,Online_conjL2_un//b.fe.ra7.none.none.wav,go,ñu,si,sil,du,me,ñi,sil1,te,ba,sil2,['-'],,,none,none,,,,fe,1,,,,,,,,,,,,,,,3.0,3.0,Catalán,0.0,Castellano,0.0,Inglés,6.0,4.0,3.0,no,no,no,nada,,,,"En el tercer lenguaje he tenido una breve distracción, y en los dos últimos estaba notablemente más cansada que en los dos primeros.",55.0,yes
100,2023-12-19_20h05.31.508,Unsyncopated_study2,s87,18.0,feminino,right,España,"Catalán, Castellano",Upper secondary,no,no,A,1,conjunction_un,L2,unsyncopated,s1,r1,100,Online_conjL2_un//b.fe.ra12.none.none.wav,go,ñi,ba,sil,du,me,si,sil1,cha,to,sil2,['-'],,,none,none,,,,fe,1,,,,,,,,,,,,,,,3.0,3.0,Catalán,0.0,Castellano,0.0,Inglés,6.0,4.0,3.0,no,no,no,nada,,,,"En el tercer lenguaje he tenido una breve distracción, y en los dos últimos estaba notablemente más cansada que en los dos primeros.",55.0,yes
101,2023-12-19_20h05.31.508,Unsyncopated_study2,s87,18.0,feminino,right,España,"Catalán, Castellano",Upper secondary,no,no,A,1,conjunction_un,L2,unsyncopated,s1,r2,101,Online_conjL2_un//b.fe.ra14.0.888.wav,fe,si,ñu,sil,ra,mi,to,sil1,me,bi,sil2,['catch'],[0.5352999999821577],[0.5352999999821577],0.0,beat,0.5352999999821577,0.5352999999821577,"[""space""]",fe,1,,,,,,,,,,,,,,,3.0,3.0,Catalán,0.0,Castellano,0.0,Inglés,6.0,4.0,3.0,no,no,no,nada,,,,"En el tercer lenguaje he tenido una breve distracción, y en los dos últimos estaba notablemente más cansada que en los dos primeros.",55.0,yes
102,2023-12-19_20h05.31.508,Unsyncopated_study2,s87,18.0,feminino,right,España,"Catalán, Castellano",Upper secondary,no,no,A,1,conjunction_un,L2,unsyncopated,s2,r2,102,Online_conjL2_un//b.fe.ra15.888.1776.wav,si,me,to,sil,fe,su,ba,sil1,ra,bi,sil2,['catch'],[1.9286999999881118],[1.9286999999881118],0.888,beat,1.040699999988112,1.040699999988112,"[""space""]",fe,1,,,,,,,,,,,,,,,3.0,3.0,Catalán,0.0,Castellano,0.0,Inglés,6.0,4.0,3.0,no,no,no,nada,,,,"En el tercer lenguaje he tenido una breve distracción, y en los dos últimos estaba notablemente más cansada que en los dos primeros.",55.0,yes
103,2023-12-19_20h05.31.508,Unsyncopated_study2,s87,18.0,feminino,right,España,"Catalán, Castellano",Upper secondary,no,no,A,1,conjunction_un,L2,unsyncopated,s2,r1,103,Online_conjL2_un//b.fe.ra13.none.none.wav,ñu,bi,su,sil,go,mi,ba,sil1,du,cha,sil2,['-'],,,none,none,,,,fe,1,,,,,,,,,,,,,,,3.0,3.0,Catalán,0.0,Castellano,0.0,Inglés,6.0,4.0,3.0,no,no,no,nada,,,,"En el tercer lenguaje he tenido una breve distracción, y en los dos últimos estaba notablemente más cansada que en los dos primeros.",55.0,yes
104,2023-12-19_20h05.31.508,Unsyncopated_study2,s87,18.0,feminino,right,España,"Catalán, Castellano",Upper secondary,no,no,A,1,conjunction_un,L2,unsyncopated,s2,r2,104,Online_conjL2_un//b.fe.ra0.888.1776.wav,ñi,mi,si,sil,fe,to,ñu,sil1,ra,ba,sil2,['catch'],[1.5130999999940968],[1.5130999999940968],0.888,beat,0.6250999999940968,0.6250999999940968,"[""space""]",fe,1,,,,,,,,,,,,,,,3.0,3.0,Catalán,0.0,Castellano,0.0,Inglés,6.0,4.0,3.0,no,no,no,nada,,,,"En el tercer lenguaje he tenido una breve distracción, y en los dos últimos estaba notablemente más cansada que en los dos primeros.",55.0,yes
105,2023-12-19_20h05.31.508,Unsyncopated_study2,s87,18.0,feminino,right,España,"Catalán, Castellano",Upper secondary,no,no,A,1,conjunction_un,L2,unsyncopated,s1,r1,105,Online_conjL2_un//b.fe.ra3.none.none.wav,go,bi,to,sil,du,me,ba,sil1,su,ñi,sil2,['-'],,,none,none,,,,fe,1,,,,,,,,,,,,,,,3.0,3.0,Catalán,0.0,Castellano,0.0,Inglés,6.0,4.0,3.0,no,no,no,nada,,,,"En el tercer lenguaje he tenido una breve distracción, y en los dos últimos estaba notablemente más cansada que en los dos primeros.",55.0,yes
106,2023-12-19_20h05.31.508,Unsyncopated_study2,s87,18.0,feminino,right,España,"Catalán, Castellano",Upper secondary,no,no,A,1,conjunction_un,L2,unsyncopated,s1,r1,106,Online_conjL2_un//b.fe.ra1.none.none.wav,go,te,su,sil,du,mi,ba,sil1,si,me,sil2,['-'],,,none,none,,,,fe,1,,,,,,,,,,,,,,,3.0,3.0,Catalán,0.0,Castellano,0.0,Inglés,6.0,4.0,3.0,no,no,no,nada,,,,"En el tercer lenguaje he tenido una breve distracción, y en los dos últimos estaba notablemente más cansada que en los dos primeros.",55.0,yes
107,2023-12-19_20h05.31.508,Unsyncopated_study2,s87,18.0,feminino,right,España,"Catalán, Castellano",Upper secondary,no,no,A,1,conjunction_un,L2,unsyncopated,s2,r2,107,Online_conjL2_un//b.fe.ra2.888.1776.wav,bi,te,mi,sil,fe,ñu,si,sil1,ra,ba,sil2,['catch'],[1.6627999999820986],[1.6627999999820986],0.888,beat,0.7747999999820986,0.7747999999820986,"[""space""]",fe,1,,,,,,,,,,,,,,,3.0,3.0,Catalán,0.0,Castellano,0.0,Inglés,6.0,4.0,3.0,no,no,no,nada,,,,"En el tercer lenguaje he tenido una breve distracción, y en los dos últimos estaba notablemente más cansada que en los dos primeros.",55.0,yes
108,2023-12-19_20h05.31.508,Unsyncopated_study2,s87,18.0,feminino,right,España,"Catalán, Castellano",Upper secondary,no,no,A,1,conjunction_un,L2,unsyncopated,s1,r1,108,Online_conjL2_un//d.si.ñu4.1332.444.wav,go,me,ñu,sil,du,cha,si,sil1,bi,to,sil2,['catch'],[1.8125],[1.8125],1.332,no_beat,0.4804999999999999,0.4804999999999999,"[""space""]",si,4,,,,,,,,,,,,,,,3.0,3.0,Catalán,0.0,Castellano,0.0,Inglés,6.0,4.0,3.0,no,no,no,nada,,,,"En el tercer lenguaje he tenido una breve distracción, y en los dos últimos estaba notablemente más cansada que en los dos primeros.",55.0,yes
109,2023-12-19_20h05.31.508,Unsyncopated_study2,s87,18.0,feminino,right,España,"Catalán, Castellano",Upper secondary,no,no,A,1,conjunction_un,L2,unsyncopated,s1,r1,109,Online_conjL2_un//d.si.ñu6.444.1110.wav,go,cha,si,sil,du,ñu,ba,sil1,me,to,sil2,['catch'],[1.0439000000059195],[1.0439000000059195],0.444,no_beat,0.5999000000059196,0.5999000000059196,"[""space""]",si,4,,,,,,,,,,,,,,,3.0,3.0,Catalán,0.0,Castellano,0.0,Inglés,6.0,4.0,3.0,no,no,no,nada,,,,"En el tercer lenguaje he tenido una breve distracción, y en los dos últimos estaba notablemente más cansada que en los dos primeros.",55.0,yes
110,2023-12-19_20h05.31.508,Unsyncopated_study2,s87,18.0,feminino,right,España,"Catalán, Castellano",Upper secondary,no,no,A,1,conjunction_un,L2,unsyncopated,s2,r2,110,Online_conjL2_un//d.si.ñu5.none.none.wav,bi,ñi,mi,sil,fe,te,ba,sil1,ra,to,sil2,['-'],,,none,none,,,,si,4,,,,,,,,,,,,,,,3.0,3.0,Catalán,0.0,Castellano,0.0,Inglés,6.0,4.0,3.0,no,no,no,nada,,,,"En el tercer lenguaje he tenido una breve distracción, y en los dos últimos estaba notablemente más cansada que en los dos primeros.",55.0,yes
111,2023-12-19_20h05.31.508,Unsyncopated_study2,s87,18.0,feminino,right,España,"Catalán, Castellano",Upper secondary,no,no,A,1,conjunction_un,L2,unsyncopated,s1,r1,111,Online_conjL2_un//d.si.ñu7.none.none.wav,go,ñi,mi,sil,du,te,ba,sil1,su,to,sil2,['-'],,,none,none,,,,si,4,,,,,,,,,,,,,,,3.0,3.0,Catalán,0.0,Castellano,0.0,Inglés,6.0,4.0,3.0,no,no,no,nada,,,,"En el tercer lenguaje he tenido una breve distracción, y en los dos últimos estaba notablemente más cansada que en los dos primeros.",55.0,yes
112,2023-12-19_20h05.31.508,Unsyncopated_study2,s87,18.0,feminino,right,España,"Catalán, Castellano",Upper secondary,no,no,A,1,conjunction_un,L2,unsyncopated,s2,r2,112,Online_conjL2_un//c.cha.me16.none.none.wav,te,mi,si,sil,fe,ñi,bi,sil1,ra,ñu,sil2,['-'],,,none,none,,,,cha,3,,,,,,,,,,,,,,,3.0,3.0,Catalán,0.0,Castellano,0.0,Inglés,6.0,4.0,3.0,no,no,no,nada,,,,"En el tercer lenguaje he tenido una breve distracción, y en los dos últimos estaba notablemente más cansada que en los dos primeros.",55.0,yes
113,2023-12-19_20h05.31.508,Unsyncopated_study2,s87,18.0,feminino,right,España,"Catalán, Castellano",Upper secondary,no,no,A,1,conjunction_un,L2,unsyncopated,s2,r1,113,Online_conjL2_un//c.cha.me18.none.none.wav,ba,su,mi,sil,go,ñu,te,sil1,du,ñi,sil2,['-'],,,none,none,,,,cha,3,,,,,,,,,,,,,,,3.0,3.0,Catalán,0.0,Castellano,0.0,Inglés,6.0,4.0,3.0,no,no,no,nada,,,,"En el tercer lenguaje he tenido una breve distracción, y en los dos últimos estaba notablemente más cansada que en los dos primeros.",55.0,yes
114,2023-12-19_20h05.31.508,Unsyncopated_study2,s87,18.0,feminino,right,España,"Catalán, Castellano",Upper secondary,no,no,A,1,conjunction_un,L2,unsyncopated,s2,r1,114,Online_conjL2_un//c.cha.me17.1332.444.wav,bi,ba,me,sil,go,ñi,cha,sil1,du,si,sil2,['catch'],[1.955000000000041],[1.955000000000041],1.332,no_beat,0.6230000000000409,0.6230000000000409,"[""space""]",cha,3,,,,,,,,,,,,,,,3.0,3.0,Catalán,0.0,Castellano,0.0,Inglés,6.0,4.0,3.0,no,no,no,nada,,,,"En el tercer lenguaje he tenido una breve distracción, y en los dos últimos estaba notablemente más cansada que en los dos primeros.",55.0,yes
115,2023-12-19_20h05.31.508,Unsyncopated_study2,s87,18.0,feminino,right,España,"Catalán, Castellano",Upper secondary,no,no,A,1,conjunction_un,L2,unsyncopated,s2,r1,115,Online_conjL2_un//c.cha.me19.none.none.wav,bi,mi,to,sil,go,ñu,si,sil1,du,ñi,sil2,['-'],,,none,none,,,,cha,3,,,,,,,,,,,,,,,3.0,3.0,Catalán,0.0,Castellano,0.0,Inglés,6.0,4.0,3.0,no,no,no,nada,,,,"En el tercer lenguaje he tenido una breve distracción, y en los dos últimos estaba notablemente más cansada que en los dos primeros.",55.0,yes
116,2023-12-19_20h05.31.508,Unsyncopated_study2,s87,18.0,feminino,right,España,"Catalán, Castellano",Upper secondary,no,no,A,1,conjunction_un,L2,unsyncopated,s1,r2,116,Online_conjL2_un//d.si.ñu25.none.none.wav,fe,me,ñi,sil,ra,to,mi,sil1,bi,cha,sil2,['-'],,,none,none,,,,si,4,,,,,,,,,,,,,,,3.0,3.0,Catalán,0.0,Castellano,0.0,Inglés,6.0,4.0,3.0,no,no,no,nada,,,,"En el tercer lenguaje he tenido una breve distracción, y en los dos últimos estaba notablemente más cansada que en los dos primeros.",55.0,yes
117,2023-12-19_20h05.31.508,Unsyncopated_study2,s87,18.0,feminino,right,España,"Catalán, Castellano",Upper secondary,no,no,A,1,conjunction_un,L2,unsyncopated,s2,r2,117,Online_conjL2_un//d.si.ñu27.1332.0.wav,ñu,bi,to,sil,fe,ba,si,sil1,ra,te,sil2,['catch'],[1.9005999999940286],[1.9005999999940286],1.332,no_beat,0.5685999999940285,0.5685999999940285,"[""space""]",si,4,,,,,,,,,,,,,,,3.0,3.0,Catalán,0.0,Castellano,0.0,Inglés,6.0,4.0,3.0,no,no,no,nada,,,,"En el tercer lenguaje he tenido una breve distracción, y en los dos últimos estaba notablemente más cansada que en los dos primeros.",55.0,yes
118,2023-12-19_20h05.31.508,Unsyncopated_study2,s87,18.0,feminino,right,España,"Catalán, Castellano",Upper secondary,no,no,A,1,conjunction_un,L2,unsyncopated,s2,r2,118,Online_conjL2_un//d.si.ñu24.0.1110.wav,si,bi,to,sil,fe,ñu,te,sil1,ra,ñi,sil2,['catch'],[0.9961999999881073],[0.9961999999881073],0.0,beat,0.9961999999881072,0.9961999999881072,"[""space""]",si,4,,,,,,,,,,,,,,,3.0,3.0,Catalán,0.0,Castellano,0.0,Inglés,6.0,4.0,3.0,no,no,no,nada,,,,"En el tercer lenguaje he tenido una breve distracción, y en los dos últimos estaba notablemente más cansada que en los dos primeros.",55.0,yes
119,2023-12-19_20h05.31.508,Unsyncopated_study2,s87,18.0,feminino,right,España,"Catalán, Castellano",Upper secondary,no,no,A,1,conjunction_un,L2,unsyncopated,s1,r2,119,Online_conjL2_un//d.si.ñu26.none.none.wav,fe,bi,to,sil,ra,mi,me,sil1,te,ba,sil2,['-'],,,none,none,,,,si,4,,,,,,,,,,,,,,,3.0,3.0,Catalán,0.0,Castellano,0.0,Inglés,6.0,4.0,3.0,no,no,no,nada,,,,"En el tercer lenguaje he tenido una breve distracción, y en los dos últimos estaba notablemente más cansada que en los dos primeros.",55.0,yes
120,2023-12-19_20h05.31.508,Unsyncopated_study2,s87,18.0,feminino,right,España,"Catalán, Castellano",Upper secondary,no,no,A,1,conjunction_un,L2,unsyncopated,s2,r2,120,Online_conjL2_un//d.si.ñu31.none.none.wav,su,ñi,to,sil,fe,me,ba,sil1,ra,te,sil2,['-'],,,none,none,,,,si,4,,,,,,,,,,,,,,,3.0,3.0,Catalán,0.0,Castellano,0.0,Inglés,6.0,4.0,3.0,no,no,no,nada,,,,"En el tercer lenguaje he tenido una breve distracción, y en los dos últimos estaba notablemente más cansada que en los dos primeros.",55.0,yes
121,2023-12-19_20h05.31.508,Unsyncopated_study2,s87,18.0,feminino,right,España,"Catalán, Castellano",Upper secondary,no,no,A,1,conjunction_un,L2,unsyncopated,s1,r1,121,Online_conjL2_un//d.si.ñu28.none.none.wav,go,me,su,sil,du,te,to,sil1,bi,ba,sil2,['-'],,,none,none,,,,si,4,,,,,,,,,,,,,,,3.0,3.0,Catalán,0.0,Castellano,0.0,Inglés,6.0,4.0,3.0,no,no,no,nada,,,,"En el tercer lenguaje he tenido una breve distracción, y en los dos últimos estaba notablemente más cansada que en los dos primeros.",55.0,yes
122,2023-12-19_20h05.31.508,Unsyncopated_study2,s87,18.0,feminino,right,España,"Catalán, Castellano",Upper secondary,no,no,A,1,conjunction_un,L2,unsyncopated,s1,r2,122,Online_conjL2_un//d.si.ñu29.1332.444.wav,fe,mi,ñu,sil,ra,su,si,sil1,ñi,cha,sil2,['catch'],[1.9289000000059104],[1.9289000000059104],1.332,no_beat,0.5969000000059104,0.5969000000059104,"[""space""]",si,4,,,,,,,,,,,,,,,3.0,3.0,Catalán,0.0,Castellano,0.0,Inglés,6.0,4.0,3.0,no,no,no,nada,,,,"En el tercer lenguaje he tenido una breve distracción, y en los dos últimos estaba notablemente más cansada que en los dos primeros.",55.0,yes
123,2023-12-19_20h05.31.508,Unsyncopated_study2,s87,18.0,feminino,right,España,"Catalán, Castellano",Upper secondary,no,no,A,1,conjunction_un,L2,unsyncopated,s2,r1,123,Online_conjL2_un//d.si.ñu30.1332.222.wav,ba,ñu,ñi,sil,go,mi,si,sil1,du,cha,sil2,['catch'],[1.9099000000060187],[1.9099000000060187],1.332,no_beat,0.5779000000060186,0.5779000000060186,"[""space""]",si,4,,,,,,,,,,,,,,,3.0,3.0,Catalán,0.0,Castellano,0.0,Inglés,6.0,4.0,3.0,no,no,no,nada,,,,"En el tercer lenguaje he tenido una breve distracción, y en los dos últimos estaba notablemente más cansada que en los dos primeros.",55.0,yes
124,2023-12-19_20h05.31.508,Unsyncopated_study2,s87,18.0,feminino,right,España,"Catalán, Castellano",Upper secondary,no,no,A,1,conjunction_un,L2,unsyncopated,s1,r2,124,Online_conjL2_un//d.si.ñu21.none.none.wav,fe,ba,mi,sil,ra,cha,su,sil1,to,me,sil2,['-'],,,none,none,,,,si,4,,,,,,,,,,,,,,,3.0,3.0,Catalán,0.0,Castellano,0.0,Inglés,6.0,4.0,3.0,no,no,no,nada,,,,"En el tercer lenguaje he tenido una breve distracción, y en los dos últimos estaba notablemente más cansada que en los dos primeros.",55.0,yes
125,2023-12-19_20h05.31.508,Unsyncopated_study2,s87,18.0,feminino,right,España,"Catalán, Castellano",Upper secondary,no,no,A,1,conjunction_un,L2,unsyncopated,s1,r1,125,Online_conjL2_un//d.si.ñu22.none.none.wav,go,su,to,sil,du,ñi,me,sil1,bi,mi,sil2,['-'],,,none,none,,,,si,4,,,,,,,,,,,,,,,3.0,3.0,Catalán,0.0,Castellano,0.0,Inglés,6.0,4.0,3.0,no,no,no,nada,,,,"En el tercer lenguaje he tenido una breve distracción, y en los dos últimos estaba notablemente más cansada que en los dos primeros.",55.0,yes
126,2023-12-19_20h05.31.508,Unsyncopated_study2,s87,18.0,feminino,right,España,"Catalán, Castellano",Upper secondary,no,no,A,1,conjunction_un,L2,unsyncopated,s1,r2,126,Online_conjL2_un//d.si.ñu20.1776.222.wav,fe,ñu,cha,sil,ra,bi,te,sil1,si,ñi,sil2,['catch'],[2.562400000005937],[2.562400000005937],1.776,beat,0.7864000000059368,0.7864000000059368,"[""space""]",si,4,,,,,,,,,,,,,,,3.0,3.0,Catalán,0.0,Castellano,0.0,Inglés,6.0,4.0,3.0,no,no,no,nada,,,,"En el tercer lenguaje he tenido una breve distracción, y en los dos últimos estaba notablemente más cansada que en los dos primeros.",55.0,yes
127,2023-12-19_20h05.31.508,Unsyncopated_study2,s87,18.0,feminino,right,España,"Catalán, Castellano",Upper secondary,no,no,A,1,conjunction_un,L2,unsyncopated,s2,r1,127,Online_conjL2_un//d.si.ñu23.none.none.wav,su,to,ñi,sil,go,mi,cha,sil1,du,ba,sil2,['-'],,,none,none,,,,si,4,,,,,,,,,,,,,,,3.0,3.0,Catalán,0.0,Castellano,0.0,Inglés,6.0,4.0,3.0,no,no,no,nada,,,,"En el tercer lenguaje he tenido una breve distracción, y en los dos últimos estaba notablemente más cansada que en los dos primeros.",55.0,yes
128,2023-12-19_20h05.31.508,Unsyncopated_study2,s87,18.0,feminino,right,España,"Catalán, Castellano",Upper secondary,no,no,A,2,conjunction_syn,L1,syncopated,s2,r2,0,Online_conjL1_syn//b.ta.be0.666.1554.wav,cho,fa,fo,ta,sil,zu,la,be,sil1,ne,sil2,['catch'],[1.2165999999940595],[1.2165999999940595],0.666,no_beat,0.5505999999940595,0.5505999999940595,"[""space""]",ta,1,,,,,,,,,,,,,,,3.0,3.0,Catalán,0.0,Castellano,0.0,Inglés,6.0,4.0,3.0,no,no,no,nada,,,,"En el tercer lenguaje he tenido una breve distracción, y en los dos últimos estaba notablemente más cansada que en los dos primeros.",55.0,yes
129,2023-12-19_20h05.31.508,Unsyncopated_study2,s87,18.0,feminino,right,España,"Catalán, Castellano",Upper secondary,no,no,A,2,conjunction_syn,L1,syncopated,s2,r2,1,Online_conjL1_syn//b.ta.be3.666.1554.wav,lu,ro,zu,ta,sil,ne,fo,be,sil1,ni,sil2,['catch'],[1.1307999999821732],[1.1307999999821732],0.666,no_beat,0.4647999999821731,0.4647999999821731,"[""space""]",ta,1,,,,,,,,,,,,,,,3.0,3.0,Catalán,0.0,Castellano,0.0,Inglés,6.0,4.0,3.0,no,no,no,nada,,,,"En el tercer lenguaje he tenido una breve distracción, y en los dos últimos estaba notablemente más cansada que en los dos primeros.",55.0,yes
130,2023-12-19_20h05.31.508,Unsyncopated_study2,s87,18.0,feminino,right,España,"Catalán, Castellano",Upper secondary,no,no,A,2,conjunction_syn,L1,syncopated,s2,r2,2,Online_conjL1_syn//b.ta.be1.666.1554.wav,ni,la,lu,ta,sil,cho,ro,be,sil1,ne,sil2,['catch'],[1.2198000000121283],[1.2198000000121283],0.666,no_beat,0.5538000000121283,0.5538000000121283,"[""space""]",ta,1,,,,,,,,,,,,,,,3.0,3.0,Catalán,0.0,Castellano,0.0,Inglés,6.0,4.0,3.0,no,no,no,nada,,,,"En el tercer lenguaje he tenido una breve distracción, y en los dos últimos estaba notablemente más cansada que en los dos primeros.",55.0,yes
131,2023-12-19_20h05.31.508,Unsyncopated_study2,s87,18.0,feminino,right,España,"Catalán, Castellano",Upper secondary,no,no,A,2,conjunction_syn,L1,syncopated,s2,r1,3,Online_conjL1_syn//b.ta.be2.none.none.wav,ri,ne,fo,pu,sil,zu,la,ki,sil1,lu,sil2,['-'],,,none,none,,,,ta,1,,,,,,,,,,,,,,,3.0,3.0,Catalán,0.0,Castellano,0.0,Inglés,6.0,4.0,3.0,no,no,no,nada,,,,"En el tercer lenguaje he tenido una breve distracción, y en los dos últimos estaba notablemente más cansada que en los dos primeros.",55.0,yes
132,2023-12-19_20h05.31.508,Unsyncopated_study2,s87,18.0,feminino,right,España,"Catalán, Castellano",Upper secondary,no,no,A,2,conjunction_syn,L1,syncopated,s1,r1,4,Online_conjL1_syn//c.ro.fo13.1554.222.wav,pu,fo,fa,ki,sil,ni,cho,ro,sil1,ze,sil2,['catch'],[1.9949000000058277],[1.9949000000058277],1.554,no_beat,0.4409000000058276,0.4409000000058276,"[""space""]",ro,3,,,,,,,,,,,,,,,3.0,3.0,Catalán,0.0,Castellano,0.0,Inglés,6.0,4.0,3.0,no,no,no,nada,,,,"En el tercer lenguaje he tenido una breve distracción, y en los dos últimos estaba notablemente más cansada que en los dos primeros.",55.0,yes
133,2023-12-19_20h05.31.508,Unsyncopated_study2,s87,18.0,feminino,right,España,"Catalán, Castellano",Upper secondary,no,no,A,2,conjunction_syn,L1,syncopated,s1,r1,5,Online_conjL1_syn//c.ro.fo15.none.none.wav,pu,ri,ze,ki,sil,lu,ne,la,sil1,cho,sil2,['-'],,,none,none,,,,ro,3,,,,,,,,,,,,,,,3.0,3.0,Catalán,0.0,Castellano,0.0,Inglés,6.0,4.0,3.0,no,no,no,nada,,,,"En el tercer lenguaje he tenido una breve distracción, y en los dos últimos estaba notablemente más cansada que en los dos primeros.",55.0,yes
134,2023-12-19_20h05.31.508,Unsyncopated_study2,s87,18.0,feminino,right,España,"Catalán, Castellano",Upper secondary,no,no,A,2,conjunction_syn,L1,syncopated,s2,r2,6,Online_conjL1_syn//c.ro.fo12.1332.444.wav,fa,zu,fo,ta,sil,cho,ro,be,sil1,ne,sil2,['catch'],[1.7760999999941305],[1.7760999999941305],1.332,no_beat,0.4440999999941304,0.4440999999941304,"[""space""]",ro,3,,,,,,,,,,,,,,,3.0,3.0,Catalán,0.0,Castellano,0.0,Inglés,6.0,4.0,3.0,no,no,no,nada,,,,"En el tercer lenguaje he tenido una breve distracción, y en los dos últimos estaba notablemente más cansada que en los dos primeros.",55.0,yes
135,2023-12-19_20h05.31.508,Unsyncopated_study2,s87,18.0,feminino,right,España,"Catalán, Castellano",Upper secondary,no,no,A,2,conjunction_syn,L1,syncopated,s2,r2,7,Online_conjL1_syn//c.ro.fo14.none.none.wav,fa,zu,ri,ta,sil,la,ni,be,sil1,ne,sil2,['-'],,,none,none,,,,ro,3,,,,,,,,,,,,,,,3.0,3.0,Catalán,0.0,Castellano,0.0,Inglés,6.0,4.0,3.0,no,no,no,nada,,,,"En el tercer lenguaje he tenido una breve distracción, y en los dos últimos estaba notablemente más cansada que en los dos primeros.",55.0,yes
136,2023-12-19_20h05.31.508,Unsyncopated_study2,s87,18.0,feminino,right,España,"Catalán, Castellano",Upper secondary,no,no,A,2,conjunction_syn,L1,syncopated,s2,r2,8,Online_conjL1_syn//c.ro.fo25.none.none.wav,lu,ri,fa,ta,sil,zu,cho,be,sil1,ze,sil2,['-'],,,none,none,,,,ro,3,,,,,,,,,,,,,,,3.0,3.0,Catalán,0.0,Castellano,0.0,Inglés,6.0,4.0,3.0,no,no,no,nada,,,,"En el tercer lenguaje he tenido una breve distracción, y en los dos últimos estaba notablemente más cansada que en los dos primeros.",55.0,yes
137,2023-12-19_20h05.31.508,Unsyncopated_study2,s87,18.0,feminino,right,España,"Catalán, Castellano",Upper secondary,no,no,A,2,conjunction_syn,L1,syncopated,s2,r2,9,Online_conjL1_syn//c.ro.fo27.444.1110.wav,la,fa,ro,ta,sil,fo,lu,be,sil1,ze,sil2,['catch'],[1.4648000000117918],[1.4648000000117918],0.444,no_beat,1.0208000000117918,1.0208000000117918,"[""space""]",ro,3,,,,,,,,,,,,,,,3.0,3.0,Catalán,0.0,Castellano,0.0,Inglés,6.0,4.0,3.0,no,no,no,nada,,,,"En el tercer lenguaje he tenido una breve distracción, y en los dos últimos estaba notablemente más cansada que en los dos primeros.",55.0,yes
138,2023-12-19_20h05.31.508,Unsyncopated_study2,s87,18.0,feminino,right,España,"Catalán, Castellano",Upper secondary,no,no,A,2,conjunction_syn,L1,syncopated,s1,r1,10,Online_conjL1_syn//c.ro.fo24.1332.222.wav,pu,fo,ni,ki,sil,la,ro,ze,sil1,zu,sil2,['catch'],[2.18669999998815],[2.18669999998815],1.332,no_beat,0.8546999999881499,0.8546999999881499,"[""space""]",ro,3,,,,,,,,,,,,,,,3.0,3.0,Catalán,0.0,Castellano,0.0,Inglés,6.0,4.0,3.0,no,no,no,nada,,,,"En el tercer lenguaje he tenido una breve distracción, y en los dos últimos estaba notablemente más cansada que en los dos primeros.",55.0,yes
139,2023-12-19_20h05.31.508,Unsyncopated_study2,s87,18.0,feminino,right,España,"Catalán, Castellano",Upper secondary,no,no,A,2,conjunction_syn,L1,syncopated,s2,r1,11,Online_conjL1_syn//c.ro.fo26.444.0.wav,fo,ne,ro,pu,sil,ze,ni,ki,sil1,fa,sil2,['catch'],[0.9860000000001037],[0.9860000000001037],0.444,no_beat,0.5420000000001037,0.5420000000001037,"[""space""]",ro,3,,,,,,,,,,,,,,,3.0,3.0,Catalán,0.0,Castellano,0.0,Inglés,6.0,4.0,3.0,no,no,no,nada,,,,"En el tercer lenguaje he tenido una breve distracción, y en los dos últimos estaba notablemente más cansada que en los dos primeros.",55.0,yes
140,2023-12-19_20h05.31.508,Unsyncopated_study2,s87,18.0,feminino,right,España,"Catalán, Castellano",Upper secondary,no,no,A,2,conjunction_syn,L1,syncopated,s1,r2,12,Online_conjL1_syn//d.ne.ni16.1332.222.wav,ta,ni,lu,be,sil,ri,ne,fo,sil1,ze,sil2,['miss'],,,1.332,no_beat,,,,ne,4,,,,,,,,,,,,,,,3.0,3.0,Catalán,0.0,Castellano,0.0,Inglés,6.0,4.0,3.0,no,no,no,nada,,,,"En el tercer lenguaje he tenido una breve distracción, y en los dos últimos estaba notablemente más cansada que en los dos primeros.",55.0,yes
141,2023-12-19_20h05.31.508,Unsyncopated_study2,s87,18.0,feminino,right,España,"Catalán, Castellano",Upper secondary,no,no,A,2,conjunction_syn,L1,syncopated,s2,r2,13,Online_conjL1_syn//d.ne.ni17.none.none.wav,ze,lu,ri,ta,sil,fo,cho,be,sil1,fa,sil2,['-'],,,none,none,,,,ne,4,,,,,,,,,,,,,,,3.0,3.0,Catalán,0.0,Castellano,0.0,Inglés,6.0,4.0,3.0,no,no,no,nada,,,,"En el tercer lenguaje he tenido una breve distracción, y en los dos últimos estaba notablemente más cansada que en los dos primeros.",55.0,yes
142,2023-12-19_20h05.31.508,Unsyncopated_study2,s87,18.0,feminino,right,España,"Catalán, Castellano",Upper secondary,no,no,A,2,conjunction_syn,L1,syncopated,s2,r2,14,Online_conjL1_syn//d.ne.ni18.none.none.wav,lu,ri,cho,ta,sil,ze,ro,be,sil1,fo,sil2,['-'],,,none,none,,,,ne,4,,,,,,,,,,,,,,,3.0,3.0,Catalán,0.0,Castellano,0.0,Inglés,6.0,4.0,3.0,no,no,no,nada,,,,"En el tercer lenguaje he tenido una breve distracción, y en los dos últimos estaba notablemente más cansada que en los dos primeros.",55.0,yes
143,2023-12-19_20h05.31.508,Unsyncopated_study2,s87,18.0,feminino,right,España,"Catalán, Castellano",Upper secondary,no,no,A,2,conjunction_syn,L1,syncopated,s2,r1,15,Online_conjL1_syn//d.ne.ni19.none.none.wav,la,ro,cho,pu,sil,ri,zu,ki,sil1,fo,sil2,['-'],,,none,none,,,,ne,4,,,,,,,,,,,,,,,3.0,3.0,Catalán,0.0,Castellano,0.0,Inglés,6.0,4.0,3.0,no,no,no,nada,,,,"En el tercer lenguaje he tenido una breve distracción, y en los dos últimos estaba notablemente más cansada que en los dos primeros.",55.0,yes
144,2023-12-19_20h05.31.508,Unsyncopated_study2,s87,18.0,feminino,right,España,"Catalán, Castellano",Upper secondary,no,no,A,2,conjunction_syn,L1,syncopated,s1,r1,16,Online_conjL1_syn//d.ne.ni12.none.none.wav,pu,fo,ri,ki,sil,ze,zu,ro,sil1,la,sil2,['-'],,,none,none,,,,ne,4,,,,,,,,,,,,,,,3.0,3.0,Catalán,0.0,Castellano,0.0,Inglés,6.0,4.0,3.0,no,no,no,nada,,,,"En el tercer lenguaje he tenido una breve distracción, y en los dos últimos estaba notablemente más cansada que en los dos primeros.",55.0,yes
145,2023-12-19_20h05.31.508,Unsyncopated_study2,s87,18.0,feminino,right,España,"Catalán, Castellano",Upper secondary,no,no,A,2,conjunction_syn,L1,syncopated,s1,r1,17,Online_conjL1_syn//d.ne.ni15.none.none.wav,pu,lu,ze,ki,sil,cho,zu,ri,sil1,la,sil2,['-'],,,none,none,,,,ne,4,,,,,,,,,,,,,,,3.0,3.0,Catalán,0.0,Castellano,0.0,Inglés,6.0,4.0,3.0,no,no,no,nada,,,,"En el tercer lenguaje he tenido una breve distracción, y en los dos últimos estaba notablemente más cansada que en los dos primeros.",55.0,yes
146,2023-12-19_20h05.31.508,Unsyncopated_study2,s87,18.0,feminino,right,España,"Catalán, Castellano",Upper secondary,no,no,A,2,conjunction_syn,L1,syncopated,s1,r2,18,Online_conjL1_syn//d.ne.ni14.none.none.wav,ta,ri,cho,be,sil,ze,lu,zu,sil1,la,sil2,['-'],,,none,none,,,,ne,4,,,,,,,,,,,,,,,3.0,3.0,Catalán,0.0,Castellano,0.0,Inglés,6.0,4.0,3.0,no,no,no,nada,,,,"En el tercer lenguaje he tenido una breve distracción, y en los dos últimos estaba notablemente más cansada que en los dos primeros.",55.0,yes
147,2023-12-19_20h05.31.508,Unsyncopated_study2,s87,18.0,feminino,right,España,"Catalán, Castellano",Upper secondary,no,no,A,2,conjunction_syn,L1,syncopated,s2,r1,19,Online_conjL1_syn//d.ne.ni13.1110.222.wav,ze,ni,lu,pu,sil,ne,ro,ki,sil1,zu,sil2,['catch'],[1.6972000000178014],[1.6972000000178014],1.11,no_beat,0.5872000000178013,0.5872000000178013,"[""space""]",ne,4,,,,,,,,,,,,,,,3.0,3.0,Catalán,0.0,Castellano,0.0,Inglés,6.0,4.0,3.0,no,no,no,nada,,,,"En el tercer lenguaje he tenido una breve distracción, y en los dos últimos estaba notablemente más cansada que en los dos primeros.",55.0,yes
148,2023-12-19_20h05.31.508,Unsyncopated_study2,s87,18.0,feminino,right,España,"Catalán, Castellano",Upper secondary,no,no,A,2,conjunction_syn,L1,syncopated,s1,r1,20,Online_conjL1_syn//c.ro.fo18.1110.222.wav,pu,fo,zu,ki,sil,ro,cho,ze,sil1,ne,sil2,['catch'],[1.6629999999997835],[1.6629999999997835],1.11,no_beat,0.5529999999997834,0.5529999999997834,"[""space""]",ro,3,,,,,,,,,,,,,,,3.0,3.0,Catalán,0.0,Castellano,0.0,Inglés,6.0,4.0,3.0,no,no,no,nada,,,,"En el tercer lenguaje he tenido una breve distracción, y en los dos últimos estaba notablemente más cansada que en los dos primeros.",55.0,yes
149,2023-12-19_20h05.31.508,Unsyncopated_study2,s87,18.0,feminino,right,España,"Catalán, Castellano",Upper secondary,no,no,A,2,conjunction_syn,L1,syncopated,s2,r1,21,Online_conjL1_syn//c.ro.fo17.444.0.wav,fo,fa,ro,pu,sil,lu,ze,ki,sil1,ni,sil2,['miss'],,,0.444,no_beat,,,,ro,3,,,,,,,,,,,,,,,3.0,3.0,Catalán,0.0,Castellano,0.0,Inglés,6.0,4.0,3.0,no,no,no,nada,,,,"En el tercer lenguaje he tenido una breve distracción, y en los dos últimos estaba notablemente más cansada que en los dos primeros.",55.0,yes
150,2023-12-19_20h05.31.508,Unsyncopated_study2,s87,18.0,feminino,right,España,"Catalán, Castellano",Upper secondary,no,no,A,2,conjunction_syn,L1,syncopated,s1,r2,22,Online_conjL1_syn//c.ro.fo16.1332.222.wav,ta,fo,ni,be,sil,la,ro,lu,sil1,fa,sil2,['catch'],[1.8551999999881446],[1.8551999999881446],1.332,no_beat,0.5231999999881445,0.5231999999881445,"[""space""]",ro,3,,,,,,,,,,,,,,,3.0,3.0,Catalán,0.0,Castellano,0.0,Inglés,6.0,4.0,3.0,no,no,no,nada,,,,"En el tercer lenguaje he tenido una breve distracción, y en los dos últimos estaba notablemente más cansada que en los dos primeros.",55.0,yes
151,2023-12-19_20h05.31.508,Unsyncopated_study2,s87,18.0,feminino,right,España,"Catalán, Castellano",Upper secondary,no,no,A,2,conjunction_syn,L1,syncopated,s2,r1,23,Online_conjL1_syn//c.ro.fo19.none.none.wav,la,ni,zu,pu,sil,ne,ri,ki,sil1,lu,sil2,['-'],,,none,none,,,,ro,3,,,,,,,,,,,,,,,3.0,3.0,Catalán,0.0,Castellano,0.0,Inglés,6.0,4.0,3.0,no,no,no,nada,,,,"En el tercer lenguaje he tenido una breve distracción, y en los dos últimos estaba notablemente más cansada que en los dos primeros.",55.0,yes
152,2023-12-19_20h05.31.508,Unsyncopated_study2,s87,18.0,feminino,right,España,"Catalán, Castellano",Upper secondary,no,no,A,2,conjunction_syn,L1,syncopated,s1,r2,24,Online_conjL1_syn//d.ne.ni27.none.none.wav,ta,la,fo,be,sil,zu,cho,ze,sil1,ri,sil2,['-'],,,none,none,,,,ne,4,,,,,,,,,,,,,,,3.0,3.0,Catalán,0.0,Castellano,0.0,Inglés,6.0,4.0,3.0,no,no,no,nada,,,,"En el tercer lenguaje he tenido una breve distracción, y en los dos últimos estaba notablemente más cansada que en los dos primeros.",55.0,yes
153,2023-12-19_20h05.31.508,Unsyncopated_study2,s87,18.0,feminino,right,España,"Catalán, Castellano",Upper secondary,no,no,A,2,conjunction_syn,L1,syncopated,s2,r1,25,Online_conjL1_syn//d.ne.ni26.none.none.wav,ze,zu,fa,pu,sil,cho,lu,ki,sil1,fo,sil2,['-'],,,none,none,,,,ne,4,,,,,,,,,,,,,,,3.0,3.0,Catalán,0.0,Castellano,0.0,Inglés,6.0,4.0,3.0,no,no,no,nada,,,,"En el tercer lenguaje he tenido una breve distracción, y en los dos últimos estaba notablemente más cansada que en los dos primeros.",55.0,yes
154,2023-12-19_20h05.31.508,Unsyncopated_study2,s87,18.0,feminino,right,España,"Catalán, Castellano",Upper secondary,no,no,A,2,conjunction_syn,L1,syncopated,s1,r2,26,Online_conjL1_syn//d.ne.ni25.222.1110.wav,ta,ne,ze,be,sil,ni,cho,la,sil1,lu,sil2,['catch'],[0.6509000000060041],[0.6509000000060041],0.222,no_beat,0.4289000000060041,0.4289000000060041,"[""space""]",ne,4,,,,,,,,,,,,,,,3.0,3.0,Catalán,0.0,Castellano,0.0,Inglés,6.0,4.0,3.0,no,no,no,nada,,,,"En el tercer lenguaje he tenido una breve distracción, y en los dos últimos estaba notablemente más cansada que en los dos primeros.",55.0,yes
155,2023-12-19_20h05.31.508,Unsyncopated_study2,s87,18.0,feminino,right,España,"Catalán, Castellano",Upper secondary,no,no,A,2,conjunction_syn,L1,syncopated,s2,r2,27,Online_conjL1_syn//d.ne.ni24.none.none.wav,lu,ro,la,ta,sil,fa,fo,be,sil1,zu,sil2,['-'],,,none,none,,,,ne,4,,,,,,,,,,,,,,,3.0,3.0,Catalán,0.0,Castellano,0.0,Inglés,6.0,4.0,3.0,no,no,no,nada,,,,"En el tercer lenguaje he tenido una breve distracción, y en los dos últimos estaba notablemente más cansada que en los dos primeros.",55.0,yes
156,2023-12-19_20h05.31.508,Unsyncopated_study2,s87,18.0,feminino,right,España,"Catalán, Castellano",Upper secondary,no,no,A,2,conjunction_syn,L1,syncopated,s1,r1,28,Online_conjL1_syn//a.pu.ki7.0.666.wav,pu,ri,zu,ki,sil,ne,ze,cho,sil1,la,sil2,['catch'],[1.1393000000120992],[1.1393000000120992],0.666,no_beat,0.4733000000120991,0.4733000000120991,"[""space""]",ki,2,,,,,,,,,,,,,,,3.0,3.0,Catalán,0.0,Castellano,0.0,Inglés,6.0,4.0,3.0,no,no,no,nada,,,,"En el tercer lenguaje he tenido una breve distracción, y en los dos últimos estaba notablemente más cansada que en los dos primeros.",55.0,yes
157,2023-12-19_20h05.31.508,Unsyncopated_study2,s87,18.0,feminino,right,España,"Catalán, Castellano",Upper secondary,no,no,A,2,conjunction_syn,L1,syncopated,s1,r1,29,Online_conjL1_syn//a.pu.ki5.0.666.wav,pu,ne,ro,ki,sil,cho,ri,fa,sil1,lu,sil2,['catch'],[1.0928999999762254],[1.0928999999762254],0.666,no_beat,0.4268999999762254,0.4268999999762254,"[""space""]",ki,2,,,,,,,,,,,,,,,3.0,3.0,Catalán,0.0,Castellano,0.0,Inglés,6.0,4.0,3.0,no,no,no,nada,,,,"En el tercer lenguaje he tenido una breve distracción, y en los dos últimos estaba notablemente más cansada que en los dos primeros.",55.0,yes
158,2023-12-19_20h05.31.508,Unsyncopated_study2,s87,18.0,feminino,right,España,"Catalán, Castellano",Upper secondary,no,no,A,2,conjunction_syn,L1,syncopated,s1,r2,30,Online_conjL1_syn//a.pu.ki4.none.none.wav,ta,ze,ri,be,sil,zu,fo,ne,sil1,lu,sil2,['-'],,,none,none,,,,ki,2,,,,,,,,,,,,,,,3.0,3.0,Catalán,0.0,Castellano,0.0,Inglés,6.0,4.0,3.0,no,no,no,nada,,,,"En el tercer lenguaje he tenido una breve distracción, y en los dos últimos estaba notablemente más cansada que en los dos primeros.",55.0,yes
159,2023-12-19_20h05.31.508,Unsyncopated_study2,s87,18.0,feminino,right,España,"Catalán, Castellano",Upper secondary,no,no,A,2,conjunction_syn,L1,syncopated,s2,r2,31,Online_conjL1_syn//a.pu.ki6.none.none.wav,ne,ni,la,ta,sil,zu,cho,be,sil1,ze,sil2,['-'],,,none,none,,,,ki,2,,,,,,,,,,,,,,,3.0,3.0,Catalán,0.0,Castellano,0.0,Inglés,6.0,4.0,3.0,no,no,no,nada,,,,"En el tercer lenguaje he tenido una breve distracción, y en los dos últimos estaba notablemente más cansada que en los dos primeros.",55.0,yes
160,2023-12-19_20h05.31.508,Unsyncopated_study2,s87,18.0,feminino,right,España,"Catalán, Castellano",Upper secondary,no,no,A,2,conjunction_syn,L1,syncopated,s1,r2,32,Online_conjL1_syn//a.pu.ki15.none.none.wav,ta,fo,ne,be,sil,la,ze,fa,sil1,cho,sil2,['-'],,,none,none,,,,ki,2,,,,,,,,,,,,,,,3.0,3.0,Catalán,0.0,Castellano,0.0,Inglés,6.0,4.0,3.0,no,no,no,nada,,,,"En el tercer lenguaje he tenido una breve distracción, y en los dos últimos estaba notablemente más cansada que en los dos primeros.",55.0,yes
161,2023-12-19_20h05.31.508,Unsyncopated_study2,s87,18.0,feminino,right,España,"Catalán, Castellano",Upper secondary,no,no,A,2,conjunction_syn,L1,syncopated,s2,r1,33,Online_conjL1_syn//a.pu.ki13.666.1554.wav,fa,ro,ne,pu,sil,fo,lu,ki,sil1,ni,sil2,['catch'],[2.1390000000001237],[2.1390000000001237],1.554,no_beat,0.5850000000001236,0.5850000000001236,"[""space""]",ki,2,,,,,,,,,,,,,,,3.0,3.0,Catalán,0.0,Castellano,0.0,Inglés,6.0,4.0,3.0,no,no,no,nada,,,,"En el tercer lenguaje he tenido una breve distracción, y en los dos últimos estaba notablemente más cansada que en los dos primeros.",55.0,yes
162,2023-12-19_20h05.31.508,Unsyncopated_study2,s87,18.0,feminino,right,España,"Catalán, Castellano",Upper secondary,no,no,A,2,conjunction_syn,L1,syncopated,s1,r2,34,Online_conjL1_syn//a.pu.ki14.none.none.wav,ta,ri,ze,be,sil,lu,fa,cho,sil1,fo,sil2,['-'],,,none,none,,,,ki,2,,,,,,,,,,,,,,,3.0,3.0,Catalán,0.0,Castellano,0.0,Inglés,6.0,4.0,3.0,no,no,no,nada,,,,"En el tercer lenguaje he tenido una breve distracción, y en los dos últimos estaba notablemente más cansada que en los dos primeros.",55.0,yes
163,2023-12-19_20h05.31.508,Unsyncopated_study2,s87,18.0,feminino,right,España,"Catalán, Castellano",Upper secondary,no,no,A,2,conjunction_syn,L1,syncopated,s1,r1,35,Online_conjL1_syn//a.pu.ki12.0.666.wav,pu,zu,ni,ki,sil,ne,ro,fo,sil1,cho,sil2,['catch'],[1.219599999994216],[1.219599999994216],0.666,no_beat,0.5535999999942159,0.5535999999942159,"[""space""]",ki,2,,,,,,,,,,,,,,,3.0,3.0,Catalán,0.0,Castellano,0.0,Inglés,6.0,4.0,3.0,no,no,no,nada,,,,"En el tercer lenguaje he tenido una breve distracción, y en los dos últimos estaba notablemente más cansada que en los dos primeros.",55.0,yes
