Unnamed: 0,date,expName,participant,age,sex,hand,residence,native_lang,education_level,lang_deficit,aud_deficit,group,block,condition,language,rhythm,rule structure online,rule type online,order_trial_on,trial_online,s1,s2,s3,s4,s5,s6,s7,s8,s9,s10,s11,catch_syll_resp,rts_syll_catch,clean_rts,time_syll,beat_no_beat,catch_rtsTR,catch_rts,syllable_catch.keys,cond_syll,syll_to_catch,test_offline,block_off,condition_off,rhythm_off,rule,rule_str_off,rule_norule,conds_offline,language_off,Partz_no_partm.keys,Partz_no_partm.rt,security_1_7.keys,accuracy,security_1_7.rt,n_lang,n_lang_used,lang_1,age_l1,lang_2,age_l2,ability_learn_l2,tendence_mix_lan,music_experience,muisc_use,partiture,instr_1,age_M1,instr_2,age_M2,instr_3,age_M3,preguntas_musica1,BMRQ_answer.response,final comment,BMRQ_Score,bilingual
0,2023-07-18_18h27.49.725,Unsyncopated1,s1,35 ,feminino,right,España,castellano,Doctorate,no,yes,A,1,what,L2,unsyncopated,s1,r1,0,Online_whatL2//a.go.du12.0.888.wav,go,su,cha,sil,du,to,te,sil2,me,mi,sil1,['miss'],,,0.888,beat,,,,du,2,testWhatL2Uns//cat_viol.r1.s2.0.wav,1.0,what,unsyncopated,a,s2,no_rule,cat,L2,z,3.2443,3.0,0.0,8.2575,2 ,2.0,español,2 años,inglés,10 años,3.0,2.0,yes,no,yes,guitarra,8,flauta,8,teclado,8,1. Cuando comparto música con alguien siento una complicidad especial con aquella persona.,3.0,Me pasó que mi atención fue oscilando entre baja y alta porque no conocía los idiomas,78.0,yes
1,2023-07-18_18h27.49.725,Unsyncopated1,s1,35 ,feminino,right,España,castellano,Doctorate,no,yes,A,1,what,L2,unsyncopated,s1,r1,1,Online_whatL2//a.go.du15.0.888.wav,go,cha,mi,sil,du,ñu,to,sil1,ba,ño,sil2,"['catch', 'false alarm']","[1.711999999999989, 2.478099999427741]",[1.711999999999989],0.888,beat,0.8239999999999891,0.8239999999999891,"[""space"",""space""]",du,2,testWhatL2Uns//r1.s2.1.wav,1.0,what,unsyncopated,a,s2,rule,rule,L2,z,2.119,4.0,1.0,6.518299999,2 ,2.0,español,2 años,inglés,10 años,3.0,2.0,yes,no,yes,guitarra,8,flauta,8,teclado,8,2. En mi tiempo libre apenas escucho música.,5.0,Me pasó que mi atención fue oscilando entre baja y alta porque no conocía los idiomas,78.0,yes
2,2023-07-18_18h27.49.725,Unsyncopated1,s1,35 ,feminino,right,España,castellano,Doctorate,no,yes,A,1,what,L2,unsyncopated,s2,r2,2,Online_whatL2//a.go.du13.none.none.wav,te,si,ño,sil2,fe,su,ñu,sil,ra,mi,sil1,['-'],,,none,none,,,,du,2,testWhatL2Uns//dep_viol.r2.s2.0.wav,1.0,what,unsyncopated,b,s2,no_rule,dep,L2,m,3.9228,2.0,1.0,3.265700001,2 ,2.0,español,2 años,inglés,10 años,3.0,2.0,yes,no,yes,guitarra,8,flauta,8,teclado,8,3. Algunas canciones me ponen los pelos de punta,3.0,Me pasó que mi atención fue oscilando entre baja y alta porque no conocía los idiomas,78.0,yes
3,2023-07-18_18h27.49.725,Unsyncopated1,s1,35 ,feminino,right,España,castellano,Doctorate,no,yes,A,1,what,L2,unsyncopated,s2,r2,3,Online_whatL2//a.go.du14.none.none.wav,bi,me,mi,sil2,fe,to,ñu,sil,ra,su,sil1,['false alarm'],[2.162800000190714],[2.162800000190714],none,none,,,"[""space""]",du,2,testWhatL2Uns//cat_viol.r1.s1.0.wav,1.0,what,unsyncopated,a,s1,no_rule,cat,L2,z,0.367900001,4.0,0.0,4.055,2 ,2.0,español,2 años,inglés,10 años,3.0,2.0,yes,no,yes,guitarra,8,flauta,8,teclado,8,4. La música me hace compañía cuando estoy solo,4.0,Me pasó que mi atención fue oscilando entre baja y alta porque no conocía los idiomas,78.0,yes
4,2023-07-18_18h27.49.725,Unsyncopated1,s1,35 ,feminino,right,España,castellano,Doctorate,no,yes,A,1,what,L2,unsyncopated,s2,r2,4,Online_whatL2//a.go.du24.none.none.wav,me,cha,bi,sil,fe,ño,su,sil2,ra,to,sil1,['-'],,,none,none,,,,du,2,testWhatL2Uns//dep_viol.r1.s2.0.wav,1.0,what,unsyncopated,a,s2,no_rule,dep,L2,m,3.4445,3.0,1.0,2.815799999,2 ,2.0,español,2 años,inglés,10 años,3.0,2.0,yes,no,yes,guitarra,8,flauta,8,teclado,8,5. No me apetece bailar ni con la música que más me gusta,5.0,Me pasó que mi atención fue oscilando entre baja y alta porque no conocía los idiomas,78.0,yes
5,2023-07-18_18h27.49.725,Unsyncopated1,s1,35 ,feminino,right,España,castellano,Doctorate,no,yes,A,1,what,L2,unsyncopated,s1,r1,5,Online_whatL2//a.go.du25.0.888.wav,go,bi,ñu,sil,du,mi,si,sil2,su,cha,sil1,['catch'],[1.680899999618532],[1.680899999618532],0.888,beat,0.7928999996185321,0.7928999996185321,"[""space""]",du,2,testWhatL2Uns//cat_viol.r2.s2.0.wav,1.0,what,unsyncopated,b,s2,no_rule,cat,L2,z,0.8848,4.0,0.0,3.0765,2 ,2.0,español,2 años,inglés,10 años,3.0,2.0,yes,no,yes,guitarra,8,flauta,8,teclado,8,6. La música me hace conectar con la gente,4.0,Me pasó que mi atención fue oscilando entre baja y alta porque no conocía los idiomas,78.0,yes
6,2023-07-18_18h27.49.725,Unsyncopated1,s1,35 ,feminino,right,España,castellano,Doctorate,no,yes,A,1,what,L2,unsyncopated,s1,r2,6,Online_whatL2//a.go.du26.none.none.wav,fe,te,si,sil2,ra,ba,to,sil,su,bi,sil1,['-'],,,none,none,,,,du,2,testWhatL2Uns//r1.s2.0.wav,1.0,what,unsyncopated,a,s2,rule,rule,L2,m,1.250299999,5.0,0.0,2.3338,2 ,2.0,español,2 años,inglés,10 años,3.0,2.0,yes,no,yes,guitarra,8,flauta,8,teclado,8,7. Me informo sobre la música que me gusta.,4.0,Me pasó que mi atención fue oscilando entre baja y alta porque no conocía los idiomas,78.0,yes
7,2023-07-18_18h27.49.725,Unsyncopated1,s1,35 ,feminino,right,España,castellano,Doctorate,no,yes,A,1,what,L2,unsyncopated,s2,r2,7,Online_whatL2//a.go.du27.none.none.wav,mi,cha,ba,sil,fe,bi,su,sil2,ra,ño,sil1,['-'],,,none,none,,,,du,2,testWhatL2Uns//r2.s2.0.wav,1.0,what,unsyncopated,b,s2,rule,rule,L2,z,0.1383,4.0,1.0,2.6829,2 ,2.0,español,2 años,inglés,10 años,3.0,2.0,yes,no,yes,guitarra,8,flauta,8,teclado,8,8.Me emociono escuchando ciertas canciones.,4.0,Me pasó que mi atención fue oscilando entre baja y alta porque no conocía los idiomas,78.0,yes
8,2023-07-18_18h27.49.725,Unsyncopated1,s1,35 ,feminino,right,España,castellano,Doctorate,no,yes,A,1,what,L2,unsyncopated,s1,r2,8,Online_whatL2//b.fe.ra19.0.888.wav,fe,si,ñu,sil,ra,me,su,sil2,cha,to,sil1,['catch'],[0.10459999942781906],[0.10459999942781906],0.0,beat,0.104599999427819,0.104599999427819,"[""space""]",fe,1,testWhatL2Uns//r2.s2.1.wav,1.0,what,unsyncopated,b,s2,rule,rule,L2,z,0.2391,4.0,1.0,1.917400001,2 ,2.0,español,2 años,inglés,10 años,3.0,2.0,yes,no,yes,guitarra,8,flauta,8,teclado,8,9.La música me tranquiliza y me relaja.,4.0,Me pasó que mi atención fue oscilando entre baja y alta porque no conocía los idiomas,78.0,yes
9,2023-07-18_18h27.49.725,Unsyncopated1,s1,35 ,feminino,right,España,castellano,Doctorate,no,yes,A,1,what,L2,unsyncopated,s2,r1,9,Online_whatL2//b.fe.ra17.none.none.wav,ñu,su,to,sil,go,te,bi,sil2,du,si,sil1,['-'],,,none,none,,,,fe,1,testWhatL2Uns//time_viol.r2.s2.0.wav,1.0,what,unsyncopated,b,s2,no_rule,time,L2,m,3.317,4.0,1.0,1.4783,2 ,2.0,español,2 años,inglés,10 años,3.0,2.0,yes,no,yes,guitarra,8,flauta,8,teclado,8,10.La música me hace bailar,4.0,Me pasó que mi atención fue oscilando entre baja y alta porque no conocía los idiomas,78.0,yes
10,2023-07-18_18h27.49.725,Unsyncopated1,s1,35 ,feminino,right,España,castellano,Doctorate,no,yes,A,1,what,L2,unsyncopated,s1,r2,10,Online_whatL2//b.fe.ra16.0.1110.wav,fe,te,su,sil2,ra,si,ñu,sil,cha,mi,sil1,['catch'],[0.8596999998093224],[0.8596999998093224],0.0,beat,0.8596999998093224,0.8596999998093224,"[""space""]",fe,1,testWhatL2Uns//time_viol.r1.s1.0.wav,1.0,what,unsyncopated,a,s1,no_rule,time,L2,m,1.600099999,4.0,1.0,1.1838,2 ,2.0,español,2 años,inglés,10 años,3.0,2.0,yes,no,yes,guitarra,8,flauta,8,teclado,8,11.Busco novedades musicales continuamente,4.0,Me pasó que mi atención fue oscilando entre baja y alta porque no conocía los idiomas,78.0,yes
11,2023-07-18_18h27.49.725,Unsyncopated1,s1,35 ,feminino,right,España,castellano,Doctorate,no,yes,A,1,what,L2,unsyncopated,s1,r1,11,Online_whatL2//b.fe.ra18.none.none.wav,go,si,te,sil,du,to,ño,sil2,me,bi,sil1,['-'],,,none,none,,,,fe,1,testWhatL2Uns//dep_viol.r1.s1.0.wav,1.0,what,unsyncopated,a,s1,no_rule,dep,L2,z,1.3747,4.0,0.0,1.6413,2 ,2.0,español,2 años,inglés,10 años,3.0,2.0,yes,no,yes,guitarra,8,flauta,8,teclado,8,12. Puedo llorar cuando escucho algunas melodías que me gustan mucho.,4.0,Me pasó que mi atención fue oscilando entre baja y alta porque no conocía los idiomas,78.0,yes
12,2023-07-18_18h27.49.725,Unsyncopated1,s1,35 ,feminino,right,España,castellano,Doctorate,no,yes,A,1,what,L2,unsyncopated,s2,r2,12,Online_whatL2//c.cha.me28.0.1110.wav,cha,to,su,sil,fe,me,te,sil1,ra,bi,sil2,['miss'],,,0.0,beat,,,,cha,3,testWhatL2Uns//r1.s1.0.wav,1.0,what,unsyncopated,a,s1,rule,rule,L2,z,1.9349,4.0,1.0,1.1682,2 ,2.0,español,2 años,inglés,10 años,3.0,2.0,yes,no,yes,guitarra,8,flauta,8,teclado,8,13. Me gusta cantar o tocar un instrumento con más gente,3.0,Me pasó que mi atención fue oscilando entre baja y alta porque no conocía los idiomas,78.0,yes
13,2023-07-18_18h27.49.725,Unsyncopated1,s1,35 ,feminino,right,España,castellano,Doctorate,no,yes,A,1,what,L2,unsyncopated,s2,r1,13,Online_whatL2//c.cha.me29.none.none.wav,ño,ba,mi,sil,go,ñu,bi,sil1,du,te,sil2,['-'],,,none,none,,,,cha,3,testWhatL2Uns//r1.s1.2.wav,1.0,what,unsyncopated,a,s1,rule,rule,L2,m,0.589799999,4.0,0.0,1.1772,2 ,2.0,español,2 años,inglés,10 años,3.0,2.0,yes,no,yes,guitarra,8,flauta,8,teclado,8,14. La música me ayuda a desconectar.,4.0,Me pasó que mi atención fue oscilando entre baja y alta porque no conocía los idiomas,78.0,yes
14,2023-07-18_18h27.49.725,Unsyncopated1,s1,35 ,feminino,right,España,castellano,Doctorate,no,yes,A,1,what,L2,unsyncopated,s1,r2,14,Online_whatL2//c.cha.me30.none.none.wav,fe,ba,su,sil,ra,mi,ño,sil1,ñu,to,sil2,['false alarm'],[0.5038000001907221],[0.5038000001907221],none,none,,,"[""space""]",cha,3,testWhatL2Uns//r2.s1.1.wav,1.0,what,unsyncopated,b,s1,rule,rule,L2,m,5.5659,4.0,0.0,3.1352,2 ,2.0,español,2 años,inglés,10 años,3.0,2.0,yes,no,yes,guitarra,8,flauta,8,teclado,8,15. No puedo evitar tararear las canciones que me gustan cuando las escucho.,4.0,Me pasó que mi atención fue oscilando entre baja y alta porque no conocía los idiomas,78.0,yes
15,2023-07-18_18h27.49.725,Unsyncopated1,s1,35 ,feminino,right,España,castellano,Doctorate,no,yes,A,1,what,L2,unsyncopated,s2,r2,15,Online_whatL2//c.cha.me31.1110.222.wav,su,me,ño,sil,fe,cha,bi,sil1,ra,mi,sil2,['miss'],,,1.11,no_beat,,,,cha,3,testWhatL2Uns//dep_viol.r2.s1.0.wav,1.0,what,unsyncopated,b,s1,no_rule,dep,L2,z,1.4996,5.0,0.0,1.3452,2 ,2.0,español,2 años,inglés,10 años,3.0,2.0,yes,no,yes,guitarra,8,flauta,8,teclado,8,16. En los conciertos me siento en sintonía con los artistas y el público.,4.0,Me pasó que mi atención fue oscilando entre baja y alta porque no conocía los idiomas,78.0,yes
16,2023-07-18_18h27.49.725,Unsyncopated1,s1,35 ,feminino,right,España,castellano,Doctorate,no,yes,A,1,what,L2,unsyncopated,s1,r1,16,Online_whatL2//d.si.ñu21.none.none.wav,go,cha,ño,sil,du,su,bi,sil2,ba,te,sil1,['false alarm'],[0.6309999999999718],[0.6309999999999718],none,none,,,"[""space""]",si,4,testWhatL2Uns//r2.s2.2.wav,1.0,what,unsyncopated,b,s2,rule,rule,L2,z,0.6097,5.0,1.0,1.000400001,2 ,2.0,español,2 años,inglés,10 años,3.0,2.0,yes,no,yes,guitarra,8,flauta,8,teclado,8,17. Me gasto bastante dinero en música y cosas relacionadas con la música.,3.0,Me pasó que mi atención fue oscilando entre baja y alta porque no conocía los idiomas,78.0,yes
17,2023-07-18_18h27.49.725,Unsyncopated1,s1,35 ,feminino,right,España,castellano,Doctorate,no,yes,A,1,what,L2,unsyncopated,s1,r2,17,Online_whatL2//d.si.ñu22.444.1332.wav,fe,to,si,sil,ra,bi,ñu,sil2,ba,me,sil1,['catch'],[1.475299999236995],[1.475299999236995],0.444,no_beat,1.0312999992369951,1.0312999992369951,"[""space""]",si,4,testWhatL2Uns//r2.s1.2.wav,1.0,what,unsyncopated,b,s1,rule,rule,L2,z,0.3245,5.0,1.0,0.587900001,2 ,2.0,español,2 años,inglés,10 años,3.0,2.0,yes,no,yes,guitarra,8,flauta,8,teclado,8,18. Siento escalofríos cuando escucho una melodía que me gusta.,4.0,Me pasó que mi atención fue oscilando entre baja y alta porque no conocía los idiomas,78.0,yes
18,2023-07-18_18h27.49.725,Unsyncopated1,s1,35 ,feminino,right,España,castellano,Doctorate,no,yes,A,1,what,L2,unsyncopated,s2,r2,18,Online_whatL2//d.si.ñu23.none.none.wav,me,to,ño,sil2,fe,cha,su,sil,ra,mi,sil1,['-'],,,none,none,,,,si,4,testWhatL2Uns//r1.s1.1.wav,1.0,what,unsyncopated,a,s1,rule,rule,L2,m,1.3672,5.0,0.0,0.7665,2 ,2.0,español,2 años,inglés,10 años,3.0,2.0,yes,no,yes,guitarra,8,flauta,8,teclado,8,19. Con la música me puedo desahogar.,4.0,Me pasó que mi atención fue oscilando entre baja y alta porque no conocía los idiomas,78.0,yes
19,2023-07-18_18h27.49.725,Unsyncopated1,s1,35 ,feminino,right,España,castellano,Doctorate,no,yes,A,1,what,L2,unsyncopated,s1,r2,19,Online_whatL2//d.si.ñu20.none.none.wav,fe,cha,me,sil2,ra,to,bi,sil,mi,ba,sil1,['-'],,,none,none,,,,si,4,testWhatL2Uns//cat_viol.r2.s1.0.wav,1.0,what,unsyncopated,b,s1,no_rule,cat,L2,z,0.2705,5.0,0.0,0.718599999,2 ,2.0,español,2 años,inglés,10 años,3.0,2.0,yes,no,yes,guitarra,8,flauta,8,teclado,8,20. Cuando escucho una melodía que me gusta mucho no puedo evitar mover el cuerpo.,4.0,Me pasó que mi atención fue oscilando entre baja y alta porque no conocía los idiomas,78.0,yes
20,2023-07-18_18h27.49.725,Unsyncopated1,s1,35 ,feminino,right,España,castellano,Doctorate,no,yes,A,1,what,L2,unsyncopated,s2,r2,20,Online_whatL2//c.cha.me9.none.none.wav,te,to,si,sil2,fe,su,ñu,sil,ra,bi,sil1,['false alarm'],[0.37400000000002365],[0.37400000000002365],none,none,,,"[""space""]",cha,3,testWhatL2Uns//time_viol.r2.s1.0.wav,1.0,what,unsyncopated,b,s1,no_rule,time,L2,z,0.4689,5.0,0.0,1.1022,2 ,2.0,español,2 años,inglés,10 años,3.0,2.0,yes,no,yes,guitarra,8,flauta,8,teclado,8,,,Me pasó que mi atención fue oscilando entre baja y alta porque no conocía los idiomas,78.0,yes
21,2023-07-18_18h27.49.725,Unsyncopated1,s1,35 ,feminino,right,España,castellano,Doctorate,no,yes,A,1,what,L2,unsyncopated,s2,r2,21,Online_whatL2//c.cha.me11.1332.0.wav,me,ba,si,sil2,fe,cha,ñu,sil,ra,bi,sil1,['miss'],,,1.332,no_beat,,,,cha,3,testWhatL2Uns//r2.s1.0.wav,1.0,what,unsyncopated,b,s1,rule,rule,L2,z,1.7223,4.0,1.0,0.8077,2 ,2.0,español,2 años,inglés,10 años,3.0,2.0,yes,no,yes,guitarra,8,flauta,8,teclado,8,,,Me pasó que mi atención fue oscilando entre baja y alta porque no conocía los idiomas,78.0,yes
22,2023-07-18_18h27.49.725,Unsyncopated1,s1,35 ,feminino,right,España,castellano,Doctorate,no,yes,A,1,what,L2,unsyncopated,s1,r1,22,Online_whatL2//c.cha.me8.1998.1332.wav,go,ñu,ño,sil2,du,me,mi,sil,cha,su,sil1,['catch'],[2.5441999998092797],[2.5441999998092797],1.998,no_beat,0.5461999998092797,0.5461999998092797,"[""space""]",cha,3,testWhatL2Uns//time_viol.r1.s2.0.wav,1.0,what,unsyncopated,a,s2,no_rule,time,L2,z,0.952900001,3.0,0.0,0.717099999,2 ,2.0,español,2 años,inglés,10 años,3.0,2.0,yes,no,yes,guitarra,8,flauta,8,teclado,8,,,Me pasó que mi atención fue oscilando entre baja y alta porque no conocía los idiomas,78.0,yes
23,2023-07-18_18h27.49.725,Unsyncopated1,s1,35 ,feminino,right,España,castellano,Doctorate,no,yes,A,1,what,L2,unsyncopated,s1,r2,23,Online_whatL2//c.cha.me10.222.1110.wav,fe,cha,ño,sil,ra,me,su,sil1,si,to,sil2,['miss'],,,0.222,no_beat,,,,cha,3,testWhatL2Uns//r1.s2.2.wav,1.0,what,unsyncopated,a,s2,rule,rule,L2,z,0.678,3.0,1.0,0.6769,2 ,2.0,español,2 años,inglés,10 años,3.0,2.0,yes,no,yes,guitarra,8,flauta,8,teclado,8,,,Me pasó que mi atención fue oscilando entre baja y alta porque no conocía los idiomas,78.0,yes
24,2023-07-18_18h27.49.725,Unsyncopated1,s1,35 ,feminino,right,España,castellano,Doctorate,no,yes,A,1,what,L2,unsyncopated,s1,r2,24,Online_whatL2//b.fe.ra31.0.888.wav,fe,bi,to,sil,ra,ño,me,sil1,su,te,sil2,['catch'],[0.6043999996185221],[0.6043999996185221],0.0,beat,0.6043999996185221,0.6043999996185221,"[""space""]",fe,1,testConjL1Uns//r2.s2.1.wav,2.0,conjunction_un,unsyncopated,b,s2,rule,rule,L1,z,1.968200001,7.0,1.0,3.2148,2 ,2.0,español,2 años,inglés,10 años,3.0,2.0,yes,no,yes,guitarra,8,flauta,8,teclado,8,,,Me pasó que mi atención fue oscilando entre baja y alta porque no conocía los idiomas,78.0,yes
25,2023-07-18_18h27.49.725,Unsyncopated1,s1,35 ,feminino,right,España,castellano,Doctorate,no,yes,A,1,what,L2,unsyncopated,s2,r2,25,Online_whatL2//b.fe.ra29.1110.1998.wav,ñu,si,cha,sil2,fe,ba,ño,sil,ra,me,sil1,['catch'],[2.202400000572311],[2.202400000572311],1.11,no_beat,1.092400000572311,1.092400000572311,"[""space""]",fe,1,testConjL1Uns//cat_viol.r2.s1.0.wav,2.0,conjunction_un,unsyncopated,b,s1,no_rule,cat,L1,z,0.6188,5.0,0.0,1.4926,2 ,2.0,español,2 años,inglés,10 años,3.0,2.0,yes,no,yes,guitarra,8,flauta,8,teclado,8,,,Me pasó que mi atención fue oscilando entre baja y alta porque no conocía los idiomas,78.0,yes
26,2023-07-18_18h27.49.725,Unsyncopated1,s1,35 ,feminino,right,España,castellano,Doctorate,no,yes,A,1,what,L2,unsyncopated,s1,r2,26,Online_whatL2//b.fe.ra28.0.888.wav,fe,me,mi,sil,ra,cha,bi,sil2,su,to,sil1,['miss'],,,0.0,beat,,,,fe,1,testConjL1Uns//r2.s2.2.wav,2.0,conjunction_un,unsyncopated,b,s2,rule,rule,L1,z,0.4676,4.0,1.0,1.6732,2 ,2.0,español,2 años,inglés,10 años,3.0,2.0,yes,no,yes,guitarra,8,flauta,8,teclado,8,,,Me pasó que mi atención fue oscilando entre baja y alta porque no conocía los idiomas,78.0,yes
27,2023-07-18_18h27.49.725,Unsyncopated1,s1,35 ,feminino,right,España,castellano,Doctorate,no,yes,A,1,what,L2,unsyncopated,s2,r1,27,Online_whatL2//b.fe.ra30.none.none.wav,si,cha,bi,sil,go,ba,to,sil1,du,me,sil2,['-'],,,none,none,,,,fe,1,testConjL1Uns//r2.s1.0.wav,2.0,conjunction_un,unsyncopated,b,s1,rule,rule,L1,z,0.891599999,6.0,1.0,1.6009,2 ,2.0,español,2 años,inglés,10 años,3.0,2.0,yes,no,yes,guitarra,8,flauta,8,teclado,8,,,Me pasó que mi atención fue oscilando entre baja y alta porque no conocía los idiomas,78.0,yes
28,2023-07-18_18h27.49.725,Unsyncopated1,s1,35 ,feminino,right,España,castellano,Doctorate,no,yes,A,1,what,L2,unsyncopated,s2,r1,28,Online_whatL2//c.cha.me17.0.444.wav,cha,te,me,sil2,go,bi,ñu,sil,du,mi,sil1,['catch'],[0.39279999923701325],[0.39279999923701325],0.0,beat,0.3927999992370132,0.3927999992370132,"[""space""]",cha,3,testConjL1Uns//r1.s1.0.wav,2.0,conjunction_un,unsyncopated,a,s1,rule,rule,L1,z,0.611,6.0,1.0,0.8771,2 ,2.0,español,2 años,inglés,10 años,3.0,2.0,yes,no,yes,guitarra,8,flauta,8,teclado,8,,,Me pasó que mi atención fue oscilando entre baja y alta porque no conocía los idiomas,78.0,yes
29,2023-07-18_18h27.49.725,Unsyncopated1,s1,35 ,feminino,right,España,castellano,Doctorate,no,yes,A,1,what,L2,unsyncopated,s2,r2,29,Online_whatL2//c.cha.me18.none.none.wav,bi,to,ñu,sil,fe,ño,ba,sil1,ra,si,sil2,['-'],,,none,none,,,,cha,3,testConjL1Uns//time_viol.r2.s2.0.wav,2.0,conjunction_un,unsyncopated,b,s2,no_rule,time,L1,m,2.470200001,4.0,1.0,1.9193,2 ,2.0,español,2 años,inglés,10 años,3.0,2.0,yes,no,yes,guitarra,8,flauta,8,teclado,8,,,Me pasó que mi atención fue oscilando entre baja y alta porque no conocía los idiomas,78.0,yes
30,2023-07-18_18h27.49.725,Unsyncopated1,s1,35 ,feminino,right,España,castellano,Doctorate,no,yes,A,1,what,L2,unsyncopated,s1,r1,30,Online_whatL2//c.cha.me19.none.none.wav,go,su,bi,sil,du,ño,to,sil2,ñu,ba,sil1,['-'],,,none,none,,,,cha,3,testConjL1Uns//r1.s2.2.wav,2.0,conjunction_un,unsyncopated,a,s2,rule,rule,L1,z,2.884,5.0,1.0,2.3184,2 ,2.0,español,2 años,inglés,10 años,3.0,2.0,yes,no,yes,guitarra,8,flauta,8,teclado,8,,,Me pasó que mi atención fue oscilando entre baja y alta porque no conocía los idiomas,78.0,yes
31,2023-07-18_18h27.49.725,Unsyncopated1,s1,35 ,feminino,right,España,castellano,Doctorate,no,yes,A,1,what,L2,unsyncopated,s1,r1,31,Online_whatL2//c.cha.me16.none.none.wav,go,ñu,bi,sil2,du,to,te,sil,ño,mi,sil1,['false alarm'],[1.6613999996185385],[1.6613999996185385],none,none,,,"[""space""]",cha,3,testConjL1Uns//time_viol.r2.s1.0.wav,2.0,conjunction_un,unsyncopated,b,s1,no_rule,time,L1,m,1.507900001,6.0,1.0,1.4448,2 ,2.0,español,2 años,inglés,10 años,3.0,2.0,yes,no,yes,guitarra,8,flauta,8,teclado,8,,,Me pasó que mi atención fue oscilando entre baja y alta porque no conocía los idiomas,78.0,yes
32,2023-07-18_18h27.49.725,Unsyncopated1,s1,35 ,feminino,right,España,castellano,Doctorate,no,yes,A,1,what,L2,unsyncopated,s2,r1,32,Online_whatL2//c.cha.me5.none.none.wav,ñu,mi,ño,sil2,go,te,ba,sil,du,su,sil1,['-'],,,none,none,,,,cha,3,testConjL1Uns//dep_viol.r2.s2.0.wav,2.0,conjunction_un,unsyncopated,b,s2,no_rule,dep,L1,z,0.9721,4.0,0.0,1.9683,2 ,2.0,español,2 años,inglés,10 años,3.0,2.0,yes,no,yes,guitarra,8,flauta,8,teclado,8,,,Me pasó que mi atención fue oscilando entre baja y alta porque no conocía los idiomas,78.0,yes
33,2023-07-18_18h27.49.725,Unsyncopated1,s1,35 ,feminino,right,España,castellano,Doctorate,no,yes,A,1,what,L2,unsyncopated,s2,r2,33,Online_whatL2//c.cha.me4.none.none.wav,ba,te,su,sil2,fe,ño,si,sil,ra,ñu,sil1,['-'],,,none,none,,,,cha,3,testConjL1Uns//cat_viol.r1.s2.0.wav,2.0,conjunction_un,unsyncopated,a,s2,no_rule,cat,L1,z,0.9503,5.0,0.0,0.8844,2 ,2.0,español,2 años,inglés,10 años,3.0,2.0,yes,no,yes,guitarra,8,flauta,8,teclado,8,,,Me pasó que mi atención fue oscilando entre baja y alta porque no conocía los idiomas,78.0,yes
34,2023-07-18_18h27.49.725,Unsyncopated1,s1,35 ,feminino,right,España,castellano,Doctorate,no,yes,A,1,what,L2,unsyncopated,s1,r2,34,Online_whatL2//c.cha.me6.222.1110.wav,fe,cha,ba,sil,ra,me,te,sil2,si,mi,sil1,['catch'],[1.3867999992370414],[1.3867999992370414],0.222,no_beat,1.1647999992370417,1.1647999992370417,"[""space""]",cha,3,testConjL1Uns//time_viol.r1.s2.0.wav,2.0,conjunction_un,unsyncopated,a,s2,no_rule,time,L1,m,1.4918,6.0,1.0,0.824299999,2 ,2.0,español,2 años,inglés,10 años,3.0,2.0,yes,no,yes,guitarra,8,flauta,8,teclado,8,,,Me pasó que mi atención fue oscilando entre baja y alta porque no conocía los idiomas,78.0,yes
35,2023-07-18_18h27.49.725,Unsyncopated1,s1,35 ,feminino,right,España,castellano,Doctorate,no,yes,A,1,what,L2,unsyncopated,s1,r1,35,Online_whatL2//c.cha.me7.222.444.wav,go,cha,me,sil,du,bi,si,sil1,su,ba,sil2,['catch'],[0.9073000001907303],[0.9073000001907303],0.222,no_beat,0.6853000001907303,0.6853000001907303,"[""space""]",cha,3,testConjL1Uns//r2.s1.2.wav,2.0,conjunction_un,unsyncopated,b,s1,rule,rule,L1,z,2.5087,6.0,1.0,1.040099999,2 ,2.0,español,2 años,inglés,10 años,3.0,2.0,yes,no,yes,guitarra,8,flauta,8,teclado,8,,,Me pasó que mi atención fue oscilando entre baja y alta porque no conocía los idiomas,78.0,yes
36,2023-07-18_18h27.49.725,Unsyncopated1,s1,35 ,feminino,right,España,castellano,Doctorate,no,yes,A,1,what,L2,unsyncopated,s2,r1,36,Online_whatL2//d.si.ñu18.222.444.wav,su,si,ñu,sil,go,te,me,sil2,du,ba,sil1,['catch'],[0.9333999996185867],[0.9333999996185867],0.222,no_beat,0.7113999996185867,0.7113999996185867,"[""space""]",si,4,testConjL1Uns//dep_viol.r1.s2.0.wav,2.0,conjunction_un,unsyncopated,a,s2,no_rule,dep,L1,z,1.190099999,7.0,0.0,0.8688,2 ,2.0,español,2 años,inglés,10 años,3.0,2.0,yes,no,yes,guitarra,8,flauta,8,teclado,8,,,Me pasó que mi atención fue oscilando entre baja y alta porque no conocía los idiomas,78.0,yes
37,2023-07-18_18h27.49.725,Unsyncopated1,s1,35 ,feminino,right,España,castellano,Doctorate,no,yes,A,1,what,L2,unsyncopated,s1,r1,37,Online_whatL2//d.si.ñu16.222.1332.wav,go,si,ba,sil2,du,ñu,te,sil,me,ño,sil1,['catch'],[1.0028999996185348],[1.0028999996185348],0.222,no_beat,0.7808999996185348,0.7808999996185348,"[""space""]",si,4,testConjL1Uns//r1.s2.0.wav,2.0,conjunction_un,unsyncopated,a,s2,rule,rule,L1,z,0.0417,6.0,1.0,0.4705,2 ,2.0,español,2 años,inglés,10 años,3.0,2.0,yes,no,yes,guitarra,8,flauta,8,teclado,8,,,Me pasó que mi atención fue oscilando entre baja y alta porque no conocía los idiomas,78.0,yes
38,2023-07-18_18h27.49.725,Unsyncopated1,s1,35 ,feminino,right,España,castellano,Doctorate,no,yes,A,1,what,L2,unsyncopated,s2,r1,38,Online_whatL2//d.si.ñu17.0.444.wav,si,me,ñu,sil,go,mi,cha,sil2,du,bi,sil1,['catch'],[0.9289000005721846],[0.9289000005721846],0.0,beat,0.9289000005721846,0.9289000005721846,"[""space""]",si,4,testConjL1Uns//r1.s1.1.wav,2.0,conjunction_un,unsyncopated,a,s1,rule,rule,L1,m,0.2714,7.0,0.0,0.5008,2 ,2.0,español,2 años,inglés,10 años,3.0,2.0,yes,no,yes,guitarra,8,flauta,8,teclado,8,,,Me pasó que mi atención fue oscilando entre baja y alta porque no conocía los idiomas,78.0,yes
39,2023-07-18_18h27.49.725,Unsyncopated1,s1,35 ,feminino,right,España,castellano,Doctorate,no,yes,A,1,what,L2,unsyncopated,s2,r1,39,Online_whatL2//d.si.ñu19.1110.0.wav,ñu,mi,me,sil,go,si,su,sil2,du,cha,sil1,['catch'],[1.836500000000001],[1.836500000000001],1.11,no_beat,0.7265000000000008,0.7265000000000008,"[""space""]",si,4,testConjL1Uns//r2.s2.0.wav,2.0,conjunction_un,unsyncopated,b,s2,rule,rule,L1,m,0.0875,7.0,0.0,0.7696,2 ,2.0,español,2 años,inglés,10 años,3.0,2.0,yes,no,yes,guitarra,8,flauta,8,teclado,8,,,Me pasó que mi atención fue oscilando entre baja y alta porque no conocía los idiomas,78.0,yes
40,2023-07-18_18h27.49.725,Unsyncopated1,s1,35 ,feminino,right,España,castellano,Doctorate,no,yes,A,1,what,L2,unsyncopated,s2,r2,40,Online_whatL2//a.go.du4.none.none.wav,te,mi,cha,sil,fe,bi,ñu,sil1,ra,ba,sil2,['false alarm'],[1.1746999998092633],[1.1746999998092633],none,none,,,"[""space""]",du,2,testConjL1Uns//r1.s1.2.wav,2.0,conjunction_un,unsyncopated,a,s1,rule,rule,L1,z,2.1838,7.0,1.0,0.3706,2 ,2.0,español,2 años,inglés,10 años,3.0,2.0,yes,no,yes,guitarra,8,flauta,8,teclado,8,,,Me pasó que mi atención fue oscilando entre baja y alta porque no conocía los idiomas,78.0,yes
41,2023-07-18_18h27.49.725,Unsyncopated1,s1,35 ,feminino,right,España,castellano,Doctorate,no,yes,A,1,what,L2,unsyncopated,s2,r1,41,Online_whatL2//a.go.du6.888.1776.wav,bi,su,cha,sil,go,te,ñu,sil1,du,me,sil2,['miss'],,,1.776,beat,,,,du,2,testConjL1Uns//cat_viol.r1.s1.0.wav,2.0,conjunction_un,unsyncopated,a,s1,no_rule,cat,L1,z,1.8018,3.0,0.0,1.4078,2 ,2.0,español,2 años,inglés,10 años,3.0,2.0,yes,no,yes,guitarra,8,flauta,8,teclado,8,,,Me pasó que mi atención fue oscilando entre baja y alta porque no conocía los idiomas,78.0,yes
42,2023-07-18_18h27.49.725,Unsyncopated1,s1,35 ,feminino,right,España,castellano,Doctorate,no,yes,A,1,what,L2,unsyncopated,s1,r2,42,Online_whatL2//a.go.du7.none.none.wav,fe,ñu,me,sil,ra,cha,to,sil1,si,su,sil2,['-'],,,none,none,,,,du,2,testConjL1Uns//dep_viol.r1.s1.0.wav,2.0,conjunction_un,unsyncopated,a,s1,no_rule,dep,L1,z,0.2285,3.0,0.0,1.0741,2 ,2.0,español,2 años,inglés,10 años,3.0,2.0,yes,no,yes,guitarra,8,flauta,8,teclado,8,,,Me pasó que mi atención fue oscilando entre baja y alta porque no conocía los idiomas,78.0,yes
43,2023-07-18_18h27.49.725,Unsyncopated1,s1,35 ,feminino,right,España,castellano,Doctorate,no,yes,A,1,what,L2,unsyncopated,s1,r2,43,Online_whatL2//a.go.du5.none.none.wav,fe,su,bi,sil,ra,te,to,sil1,ño,ñu,sil2,['-'],,,none,none,,,,du,2,testConjL1Uns//cat_viol.r2.s2.0.wav,2.0,conjunction_un,unsyncopated,b,s2,no_rule,cat,L1,m,1.5613,6.0,1.0,0.522900001,2 ,2.0,español,2 años,inglés,10 años,3.0,2.0,yes,no,yes,guitarra,8,flauta,8,teclado,8,,,Me pasó que mi atención fue oscilando entre baja y alta porque no conocía los idiomas,78.0,yes
44,2023-07-18_18h27.49.725,Unsyncopated1,s1,35 ,feminino,right,España,castellano,Doctorate,no,yes,A,1,what,L2,unsyncopated,s2,r1,44,Online_whatL2//a.go.du30.888.1776.wav,cha,me,te,sil,go,ba,mi,sil1,du,bi,sil2,['false alarm'],[1.6192000007629304],[1.6192000007629304],1.776,beat,,,"[""space""]",du,2,testConjL1Uns//r2.s1.1.wav,2.0,conjunction_un,unsyncopated,b,s1,rule,rule,L1,z,0.45,3.0,1.0,1.151700001,2 ,2.0,español,2 años,inglés,10 años,3.0,2.0,yes,no,yes,guitarra,8,flauta,8,teclado,8,,,Me pasó que mi atención fue oscilando entre baja y alta porque no conocía los idiomas,78.0,yes
45,2023-07-18_18h27.49.725,Unsyncopated1,s1,35 ,feminino,right,España,castellano,Doctorate,no,yes,A,1,what,L2,unsyncopated,s1,r2,45,Online_whatL2//a.go.du29.none.none.wav,fe,ñu,mi,sil,ra,cha,su,sil2,te,bi,sil1,['false alarm'],[0.3286999998092597],[0.3286999998092597],none,none,,,"[""space""]",du,2,testConjL1Uns//r1.s2.1.wav,2.0,conjunction_un,unsyncopated,a,s2,rule,rule,L1,m,0.6007,6.0,0.0,1.8219,2 ,2.0,español,2 años,inglés,10 años,3.0,2.0,yes,no,yes,guitarra,8,flauta,8,teclado,8,,,Me pasó que mi atención fue oscilando entre baja y alta porque no conocía los idiomas,78.0,yes
46,2023-07-18_18h27.49.725,Unsyncopated1,s1,35 ,feminino,right,España,castellano,Doctorate,no,yes,A,1,what,L2,unsyncopated,s1,r1,46,Online_whatL2//a.go.du28.0.888.wav,go,ñu,mi,sil,du,ba,ño,sil1,me,su,sil2,['catch'],[1.3284000005722874],[1.3284000005722874],0.888,beat,0.4404000005722873,0.4404000005722873,"[""space""]",du,2,testConjL1Uns//time_viol.r1.s1.0.wav,2.0,conjunction_un,unsyncopated,a,s1,no_rule,time,L1,m,0.1192,7.0,1.0,0.5906,2 ,2.0,español,2 años,inglés,10 años,3.0,2.0,yes,no,yes,guitarra,8,flauta,8,teclado,8,,,Me pasó que mi atención fue oscilando entre baja y alta porque no conocía los idiomas,78.0,yes
47,2023-07-18_18h27.49.725,Unsyncopated1,s1,35 ,feminino,right,España,castellano,Doctorate,no,yes,A,1,what,L2,unsyncopated,s2,r2,47,Online_whatL2//a.go.du31.none.none.wav,cha,su,mi,sil,fe,ño,si,sil2,ra,te,sil1,['false alarm'],[0.7948000001906621],[0.7948000001906621],none,none,,,"[""space""]",du,2,testConjL1Uns//dep_viol.r2.s1.0.wav,2.0,conjunction_un,unsyncopated,b,s1,no_rule,dep,L1,m,0.8711,7.0,1.0,0.485400001,2 ,2.0,español,2 años,inglés,10 años,3.0,2.0,yes,no,yes,guitarra,8,flauta,8,teclado,8,,,Me pasó que mi atención fue oscilando entre baja y alta porque no conocía los idiomas,78.0,yes
48,2023-07-18_18h27.49.725,Unsyncopated1,s1,35 ,feminino,right,España,castellano,Doctorate,no,yes,A,1,what,L2,unsyncopated,s2,r1,48,Online_whatL2//b.fe.ra23.none.none.wav,te,ñu,me,sil,go,cha,ño,sil1,du,bi,sil2,['-'],,,none,none,,,,fe,1,testWhenL3Uns//cat_viol.r2.s1.0.wav,3.0,when,unsyncopated,b,s1,no_rule,cat,L3,z,0.4096,6.0,1.0,1.9695,2 ,2.0,español,2 años,inglés,10 años,3.0,2.0,yes,no,yes,guitarra,8,flauta,8,teclado,8,,,Me pasó que mi atención fue oscilando entre baja y alta porque no conocía los idiomas,78.0,yes
49,2023-07-18_18h27.49.725,Unsyncopated1,s1,35 ,feminino,right,España,castellano,Doctorate,no,yes,A,1,what,L2,unsyncopated,s1,r2,49,Online_whatL2//b.fe.ra21.0.888.wav,fe,bi,su,sil,ra,to,te,sil1,ba,ñu,sil2,['catch'],[0.6748999996185603],[0.6748999996185603],0.0,beat,0.6748999996185603,0.6748999996185603,"[""space""]",fe,1,testWhenL3Uns//dep_viol.r2.s2.0.wav,3.0,when,unsyncopated,b,s2,no_rule,dep,L3,m,1.7907,6.0,0.0,1.625599999,2 ,2.0,español,2 años,inglés,10 años,3.0,2.0,yes,no,yes,guitarra,8,flauta,8,teclado,8,,,Me pasó que mi atención fue oscilando entre baja y alta porque no conocía los idiomas,78.0,yes
50,2023-07-18_18h27.49.725,Unsyncopated1,s1,35 ,feminino,right,España,castellano,Doctorate,no,yes,A,1,what,L2,unsyncopated,s2,r1,50,Online_whatL2//b.fe.ra20.none.none.wav,te,me,mi,sil,go,to,ñu,sil2,du,ba,sil1,['-'],,,none,none,,,,fe,1,testWhenL3Uns//r2.s2.1.wav,3.0,when,unsyncopated,b,s2,rule,rule,L3,m,1.0182,6.0,0.0,1.0703,2 ,2.0,español,2 años,inglés,10 años,3.0,2.0,yes,no,yes,guitarra,8,flauta,8,teclado,8,,,Me pasó que mi atención fue oscilando entre baja y alta porque no conocía los idiomas,78.0,yes
51,2023-07-18_18h27.49.725,Unsyncopated1,s1,35 ,feminino,right,España,castellano,Doctorate,no,yes,A,1,what,L2,unsyncopated,s2,r2,51,Online_whatL2//b.fe.ra22.888.1776.wav,ba,me,cha,sil,fe,su,ño,sil1,ra,to,sil2,['miss'],,,0.888,beat,,,,fe,1,testWhenL3Uns//r1.s2.1.wav,3.0,when,unsyncopated,a,s2,rule,rule,L3,z,0.4505,6.0,1.0,0.6351,2 ,2.0,español,2 años,inglés,10 años,3.0,2.0,yes,no,yes,guitarra,8,flauta,8,teclado,8,,,Me pasó que mi atención fue oscilando entre baja y alta porque no conocía los idiomas,78.0,yes
52,2023-07-18_18h27.49.725,Unsyncopated1,s1,35 ,feminino,right,España,castellano,Doctorate,no,yes,A,1,what,L2,unsyncopated,s2,r2,52,Online_whatL2//b.fe.ra15.888.1998.wav,to,ñu,cha,sil,fe,me,ba,sil2,ra,si,sil1,['catch'],[1.479200000762944],[1.479200000762944],0.888,beat,0.591200000762944,0.591200000762944,"[""space""]",fe,1,testWhenL3Uns//r2.s2.2.wav,3.0,when,unsyncopated,b,s2,rule,rule,L3,m,0.8517,7.0,0.0,0.5663,2 ,2.0,español,2 años,inglés,10 años,3.0,2.0,yes,no,yes,guitarra,8,flauta,8,teclado,8,,,Me pasó que mi atención fue oscilando entre baja y alta porque no conocía los idiomas,78.0,yes
53,2023-07-18_18h27.49.725,Unsyncopated1,s1,35 ,feminino,right,España,castellano,Doctorate,no,yes,A,1,what,L2,unsyncopated,s1,r1,53,Online_whatL2//b.fe.ra14.none.none.wav,go,bi,su,sil,du,me,te,sil2,to,cha,sil1,['-'],,,none,none,,,,fe,1,testWhenL3Uns//cat_viol.r2.s2.0.wav,3.0,when,unsyncopated,b,s2,no_rule,cat,L3,z,2.251599999,5.0,1.0,0.4069,2 ,2.0,español,2 años,inglés,10 años,3.0,2.0,yes,no,yes,guitarra,8,flauta,8,teclado,8,,,Me pasó que mi atención fue oscilando entre baja y alta porque no conocía los idiomas,78.0,yes
54,2023-07-18_18h27.49.725,Unsyncopated1,s1,35 ,feminino,right,España,castellano,Doctorate,no,yes,A,1,what,L2,unsyncopated,s2,r1,54,Online_whatL2//b.fe.ra12.none.none.wav,te,mi,ñu,sil,go,bi,to,sil2,du,cha,sil1,['-'],,,none,none,,,,fe,1,testWhenL3Uns//r2.s1.0.wav,3.0,when,unsyncopated,b,s1,rule,rule,L3,z,0.6117,6.0,1.0,0.4849,2 ,2.0,español,2 años,inglés,10 años,3.0,2.0,yes,no,yes,guitarra,8,flauta,8,teclado,8,,,Me pasó que mi atención fue oscilando entre baja y alta porque no conocía los idiomas,78.0,yes
55,2023-07-18_18h27.49.725,Unsyncopated1,s1,35 ,feminino,right,España,castellano,Doctorate,no,yes,A,1,what,L2,unsyncopated,s1,r1,55,Online_whatL2//b.fe.ra13.none.none.wav,go,mi,te,sil2,du,to,si,sil,ñu,me,sil1,['-'],,,none,none,,,,fe,1,testWhenL3Uns//r2.s2.0.wav,3.0,when,unsyncopated,b,s2,rule,rule,L3,z,0.4901,6.0,1.0,0.441799999,2 ,2.0,español,2 años,inglés,10 años,3.0,2.0,yes,no,yes,guitarra,8,flauta,8,teclado,8,,,Me pasó que mi atención fue oscilando entre baja y alta porque no conocía los idiomas,78.0,yes
56,2023-07-18_18h27.49.725,Unsyncopated1,s1,35 ,feminino,right,España,castellano,Doctorate,no,yes,A,1,what,L2,unsyncopated,s1,r1,56,Online_whatL2//d.si.ñu25.none.none.wav,go,te,su,sil,du,to,ba,sil2,cha,mi,sil1,['false alarm'],[0.3790000000000191],[0.3790000000000191],none,none,,,"[""space""]",si,4,testWhenL3Uns//r1.s1.1.wav,3.0,when,unsyncopated,a,s1,rule,rule,L3,z,0.3285,6.0,1.0,0.4523,2 ,2.0,español,2 años,inglés,10 años,3.0,2.0,yes,no,yes,guitarra,8,flauta,8,teclado,8,,,Me pasó que mi atención fue oscilando entre baja y alta porque no conocía los idiomas,78.0,yes
57,2023-07-18_18h27.49.725,Unsyncopated1,s1,35 ,feminino,right,España,castellano,Doctorate,no,yes,A,1,what,L2,unsyncopated,s1,r2,57,Online_whatL2//d.si.ñu24.none.none.wav,fe,ba,cha,sil2,ra,to,mi,sil,te,bi,sil1,['-'],,,none,none,,,,si,4,testWhenL3Uns//time_viol.r2.s2.0.wav,3.0,when,unsyncopated,b,s2,no_rule,time,L3,z,0.510599999,6.0,1.0,0.4589,2 ,2.0,español,2 años,inglés,10 años,3.0,2.0,yes,no,yes,guitarra,8,flauta,8,teclado,8,,,Me pasó que mi atención fue oscilando entre baja y alta porque no conocía los idiomas,78.0,yes
58,2023-07-18_18h27.49.725,Unsyncopated1,s1,35 ,feminino,right,España,castellano,Doctorate,no,yes,A,1,what,L2,unsyncopated,s2,r2,58,Online_whatL2//d.si.ñu27.none.none.wav,su,te,bi,sil,fe,cha,ño,sil2,ra,ba,sil1,['-'],,,none,none,,,,si,4,testWhenL3Uns//cat_viol.r1.s2.0.wav,3.0,when,unsyncopated,a,s2,no_rule,cat,L3,z,0.836299999,6.0,1.0,0.541799999,2 ,2.0,español,2 años,inglés,10 años,3.0,2.0,yes,no,yes,guitarra,8,flauta,8,teclado,8,,,Me pasó que mi atención fue oscilando entre baja y alta porque no conocía los idiomas,78.0,yes
59,2023-07-18_18h27.49.725,Unsyncopated1,s1,35 ,feminino,right,España,castellano,Doctorate,no,yes,A,1,what,L2,unsyncopated,s2,r1,59,Online_whatL2//d.si.ñu26.none.none.wav,mi,cha,te,sil,go,ño,su,sil2,du,me,sil1,['-'],,,none,none,,,,si,4,testWhenL3Uns//dep_viol.r1.s2.0.wav,3.0,when,unsyncopated,a,s2,no_rule,dep,L3,z,0.1683,6.0,1.0,0.584599999,2 ,2.0,español,2 años,inglés,10 años,3.0,2.0,yes,no,yes,guitarra,8,flauta,8,teclado,8,,,Me pasó que mi atención fue oscilando entre baja y alta porque no conocía los idiomas,78.0,yes
60,2023-07-18_18h27.49.725,Unsyncopated1,s1,35 ,feminino,right,España,castellano,Doctorate,no,yes,A,1,what,L2,unsyncopated,s2,r2,60,Online_whatL2//d.si.ñu13.444.0.wav,ñu,te,si,sil,fe,bi,cha,sil1,ra,ba,sil2,['catch'],[2.3150000000000546],[2.3150000000000546],0.444,no_beat,,1.8710000000000544,"[""space""]",si,4,testWhenL3Uns//r2.s1.2.wav,3.0,when,unsyncopated,b,s1,rule,rule,L3,z,0.4856,5.0,1.0,0.555599999,2 ,2.0,español,2 años,inglés,10 años,3.0,2.0,yes,no,yes,guitarra,8,flauta,8,teclado,8,,,Me pasó que mi atención fue oscilando entre baja y alta porque no conocía los idiomas,78.0,yes
61,2023-07-18_18h27.49.725,Unsyncopated1,s1,35 ,feminino,right,España,castellano,Doctorate,no,yes,A,1,what,L2,unsyncopated,s1,r1,61,Online_whatL2//d.si.ñu12.222.444.wav,go,si,ñu,sil,du,ba,me,sil1,bi,to,sil2,['miss'],,,0.222,no_beat,,,,si,4,testWhenL3Uns//r1.s1.2.wav,3.0,when,unsyncopated,a,s1,rule,rule,L3,z,0.4779,5.0,1.0,0.5007,2 ,2.0,español,2 años,inglés,10 años,3.0,2.0,yes,no,yes,guitarra,8,flauta,8,teclado,8,,,Me pasó que mi atención fue oscilando entre baja y alta porque no conocía los idiomas,78.0,yes
62,2023-07-18_18h27.49.725,Unsyncopated1,s1,35 ,feminino,right,España,castellano,Doctorate,no,yes,A,1,what,L2,unsyncopated,s2,r2,62,Online_whatL2//d.si.ñu15.none.none.wav,su,te,mi,sil2,fe,ño,bi,sil,ra,cha,sil1,['-'],,,none,none,,,,si,4,testWhenL3Uns//cat_viol.r1.s1.0.wav,3.0,when,unsyncopated,a,s1,no_rule,cat,L3,z,0.6743,7.0,1.0,0.5229,2 ,2.0,español,2 años,inglés,10 años,3.0,2.0,yes,no,yes,guitarra,8,flauta,8,teclado,8,,,Me pasó que mi atención fue oscilando entre baja y alta porque no conocía los idiomas,78.0,yes
63,2023-07-18_18h27.49.725,Unsyncopated1,s1,35 ,feminino,right,España,castellano,Doctorate,no,yes,A,1,what,L2,unsyncopated,s1,r2,63,Online_whatL2//d.si.ñu14.none.none.wav,fe,te,cha,sil,ra,mi,ba,sil1,bi,ño,sil2,['-'],,,none,none,,,,si,4,testWhenL3Uns//dep_viol.r2.s1.0.wav,3.0,when,unsyncopated,b,s1,no_rule,dep,L3,m,0.8022,2.0,0.0,0.7914,2 ,2.0,español,2 años,inglés,10 años,3.0,2.0,yes,no,yes,guitarra,8,flauta,8,teclado,8,,,Me pasó que mi atención fue oscilando entre baja y alta porque no conocía los idiomas,78.0,yes
64,2023-07-18_18h27.49.725,Unsyncopated1,s1,35 ,feminino,right,España,castellano,Doctorate,no,yes,A,1,what,L2,unsyncopated,s1,r2,64,Online_whatL2//c.cha.me20.444.1332.wav,fe,si,cha,sil,ra,bi,me,sil2,ño,mi,sil1,['catch'],[1.0803000001907321],[1.0803000001907321],0.444,no_beat,0.6363000001907322,0.6363000001907322,"[""space""]",cha,3,testWhenL3Uns//r1.s2.0.wav,3.0,when,unsyncopated,a,s2,rule,rule,L3,z,0.519,4.0,1.0,1.002700001,2 ,2.0,español,2 años,inglés,10 años,3.0,2.0,yes,no,yes,guitarra,8,flauta,8,teclado,8,,,Me pasó que mi atención fue oscilando entre baja y alta porque no conocía los idiomas,78.0,yes
65,2023-07-18_18h27.49.725,Unsyncopated1,s1,35 ,feminino,right,España,castellano,Doctorate,no,yes,A,1,what,L2,unsyncopated,s2,r2,65,Online_whatL2//c.cha.me23.none.none.wav,si,ñu,te,sil,fe,ba,su,sil2,ra,to,sil1,['-'],,,none,none,,,,cha,3,testWhenL3Uns//r1.s1.0.wav,3.0,when,unsyncopated,a,s1,rule,rule,L3,z,2.0932,3.0,1.0,0.5942,2 ,2.0,español,2 años,inglés,10 años,3.0,2.0,yes,no,yes,guitarra,8,flauta,8,teclado,8,,,Me pasó que mi atención fue oscilando entre baja y alta porque no conocía los idiomas,78.0,yes
66,2023-07-18_18h27.49.725,Unsyncopated1,s1,35 ,feminino,right,España,castellano,Doctorate,no,yes,A,1,what,L2,unsyncopated,s2,r1,66,Online_whatL2//c.cha.me22.0.1110.wav,cha,to,su,sil,go,me,ño,sil1,du,ba,sil2,['miss'],,,0.0,beat,,,,cha,3,testWhenL3Uns//time_viol.r2.s1.0.wav,3.0,when,unsyncopated,b,s1,no_rule,time,L3,z,0.2562,5.0,1.0,0.5898,2 ,2.0,español,2 años,inglés,10 años,3.0,2.0,yes,no,yes,guitarra,8,flauta,8,teclado,8,,,Me pasó que mi atención fue oscilando entre baja y alta porque no conocía los idiomas,78.0,yes
67,2023-07-18_18h27.49.725,Unsyncopated1,s1,35 ,feminino,right,España,castellano,Doctorate,no,yes,A,1,what,L2,unsyncopated,s1,r1,67,Online_whatL2//c.cha.me21.none.none.wav,go,mi,bi,sil,du,si,su,sil2,te,ba,sil1,['-'],,,none,none,,,,cha,3,testWhenL3Uns//r2.s1.1.wav,3.0,when,unsyncopated,b,s1,rule,rule,L3,z,0.208,4.0,1.0,0.4857,2 ,2.0,español,2 años,inglés,10 años,3.0,2.0,yes,no,yes,guitarra,8,flauta,8,teclado,8,,,Me pasó que mi atención fue oscilando entre baja y alta porque no conocía los idiomas,78.0,yes
68,2023-07-18_18h27.49.725,Unsyncopated1,s1,35 ,feminino,right,España,castellano,Doctorate,no,yes,A,1,what,L2,unsyncopated,s1,r1,68,Online_whatL2//d.si.ñu9.444.1332.wav,go,mi,si,sil,du,me,ñu,sil2,to,su,sil1,['catch'],[0.5803999996185212],[0.5803999996185212],0.444,no_beat,0.1363999996185211,0.1363999996185211,"[""space""]",si,4,testWhenL3Uns//time_viol.r1.s2.0.wav,3.0,when,unsyncopated,a,s2,no_rule,time,L3,z,1.7689,5.0,1.0,0.5695,2 ,2.0,español,2 años,inglés,10 años,3.0,2.0,yes,no,yes,guitarra,8,flauta,8,teclado,8,,,Me pasó que mi atención fue oscilando entre baja y alta porque no conocía los idiomas,78.0,yes
69,2023-07-18_18h27.49.725,Unsyncopated1,s1,35 ,feminino,right,España,castellano,Doctorate,no,yes,A,1,what,L2,unsyncopated,s2,r1,69,Online_whatL2//d.si.ñu11.none.none.wav,su,bi,me,sil,go,te,mi,sil1,du,ño,sil2,['-'],,,none,none,,,,si,4,testWhenL3Uns//dep_viol.r1.s1.0.wav,3.0,when,unsyncopated,a,s1,no_rule,dep,L3,z,1.661900001,3.0,1.0,0.5078,2 ,2.0,español,2 años,inglés,10 años,3.0,2.0,yes,no,yes,guitarra,8,flauta,8,teclado,8,,,Me pasó que mi atención fue oscilando entre baja y alta porque no conocía los idiomas,78.0,yes
70,2023-07-18_18h27.49.725,Unsyncopated1,s1,35 ,feminino,right,España,castellano,Doctorate,no,yes,A,1,what,L2,unsyncopated,s2,r2,70,Online_whatL2//d.si.ñu10.1554.222.wav,to,ñu,cha,sil2,fe,me,si,sil,ra,te,sil1,['miss'],,,1.554,no_beat,,,,si,4,testWhenL3Uns//r1.s2.2.wav,3.0,when,unsyncopated,a,s2,rule,rule,L3,z,0.941900001,5.0,1.0,0.5685,2 ,2.0,español,2 años,inglés,10 años,3.0,2.0,yes,no,yes,guitarra,8,flauta,8,teclado,8,,,Me pasó que mi atención fue oscilando entre baja y alta porque no conocía los idiomas,78.0,yes
71,2023-07-18_18h27.49.725,Unsyncopated1,s1,35 ,feminino,right,España,castellano,Doctorate,no,yes,A,1,what,L2,unsyncopated,s1,r1,71,Online_whatL2//d.si.ñu8.none.none.wav,go,ba,to,sil2,du,mi,su,sil,te,cha,sil1,['-'],,,none,none,,,,si,4,testWhenL3Uns//time_viol.r1.s1.0.wav,3.0,when,unsyncopated,a,s1,no_rule,time,L3,z,0.769700001,4.0,1.0,0.435099999,2 ,2.0,español,2 años,inglés,10 años,3.0,2.0,yes,no,yes,guitarra,8,flauta,8,teclado,8,,,Me pasó que mi atención fue oscilando entre baja y alta porque no conocía los idiomas,78.0,yes
72,2023-07-18_18h27.49.725,Unsyncopated1,s1,35 ,feminino,right,España,castellano,Doctorate,no,yes,A,1,what,L2,unsyncopated,s2,r1,72,Online_whatL2//b.fe.ra24.none.none.wav,si,cha,su,sil2,go,mi,me,sil,du,bi,sil1,['false alarm'],[0.5136999998093188],[0.5136999998093188],none,none,,,"[""space""]",fe,1,testConjL4Syn//time_viol.r1.s1.0.wav,4.0,conjunction_syn,syncopated,a,s1,no_rule,time,L4,z,1.8016,3.0,0.0,1.9016,2 ,2.0,español,2 años,inglés,10 años,3.0,2.0,yes,no,yes,guitarra,8,flauta,8,teclado,8,,,Me pasó que mi atención fue oscilando entre baja y alta porque no conocía los idiomas,78.0,yes
73,2023-07-18_18h27.49.725,Unsyncopated1,s1,35 ,feminino,right,España,castellano,Doctorate,no,yes,A,1,what,L2,unsyncopated,s2,r1,73,Online_whatL2//b.fe.ra27.none.none.wav,mi,me,su,sil,go,cha,ño,sil2,du,te,sil1,['-'],,,none,none,,,,fe,1,testConjL4Syn//r2.s1.2.wav,4.0,conjunction_syn,syncopated,b,s1,rule,rule,L4,z,1.9188,4.0,1.0,1.325599999,2 ,2.0,español,2 años,inglés,10 años,3.0,2.0,yes,no,yes,guitarra,8,flauta,8,teclado,8,,,Me pasó que mi atención fue oscilando entre baja y alta porque no conocía los idiomas,78.0,yes
74,2023-07-18_18h27.49.725,Unsyncopated1,s1,35 ,feminino,right,España,castellano,Doctorate,no,yes,A,1,what,L2,unsyncopated,s2,r2,74,Online_whatL2//b.fe.ra26.1110.1998.wav,si,me,bi,sil2,fe,cha,te,sil,ra,to,sil1,['miss'],,,1.11,no_beat,,,,fe,1,testConjL4Syn//r1.s1.0.wav,4.0,conjunction_syn,syncopated,a,s1,rule,rule,L4,m,2.1159,5.0,0.0,1.3847,2 ,2.0,español,2 años,inglés,10 años,3.0,2.0,yes,no,yes,guitarra,8,flauta,8,teclado,8,,,Me pasó que mi atención fue oscilando entre baja y alta porque no conocía los idiomas,78.0,yes
75,2023-07-18_18h27.49.725,Unsyncopated1,s1,35 ,feminino,right,España,castellano,Doctorate,no,yes,A,1,what,L2,unsyncopated,s1,r2,75,Online_whatL2//b.fe.ra25.0.888.wav,fe,to,si,sil,ra,mi,su,sil2,cha,ño,sil1,['catch'],[1.6370000000000573],[1.6370000000000573],0.0,beat,,1.6370000000000573,"[""space""]",fe,1,testConjL4Syn//r2.s1.1.wav,4.0,conjunction_syn,syncopated,b,s1,rule,rule,L4,z,0.0348,6.0,1.0,1.7042,2 ,2.0,español,2 años,inglés,10 años,3.0,2.0,yes,no,yes,guitarra,8,flauta,8,teclado,8,,,Me pasó que mi atención fue oscilando entre baja y alta porque no conocía los idiomas,78.0,yes
76,2023-07-18_18h27.49.725,Unsyncopated1,s1,35 ,feminino,right,España,castellano,Doctorate,no,yes,A,1,what,L2,unsyncopated,s2,r1,76,Online_whatL2//d.si.ñu6.none.none.wav,te,me,mi,sil2,go,su,to,sil,du,bi,sil1,['-'],,,none,none,,,,si,4,testConjL4Syn//r1.s2.0.wav,4.0,conjunction_syn,syncopated,a,s2,rule,rule,L4,m,1.106299999,6.0,0.0,0.510099999,2 ,2.0,español,2 años,inglés,10 años,3.0,2.0,yes,no,yes,guitarra,8,flauta,8,teclado,8,,,Me pasó que mi atención fue oscilando entre baja y alta porque no conocía los idiomas,78.0,yes
77,2023-07-18_18h27.49.725,Unsyncopated1,s1,35 ,feminino,right,España,castellano,Doctorate,no,yes,A,1,what,L2,unsyncopated,s2,r2,77,Online_whatL2//d.si.ñu7.1332.0.wav,ñu,to,me,sil,fe,su,si,sil1,ra,bi,sil2,['miss'],,,1.332,no_beat,,,,si,4,testConjL4Syn//r1.s1.1.wav,4.0,conjunction_syn,syncopated,a,s1,rule,rule,L4,z,1.1063,5.0,1.0,0.4513,2 ,2.0,español,2 años,inglés,10 años,3.0,2.0,yes,no,yes,guitarra,8,flauta,8,teclado,8,,,Me pasó que mi atención fue oscilando entre baja y alta porque no conocía los idiomas,78.0,yes
78,2023-07-18_18h27.49.725,Unsyncopated1,s1,35 ,feminino,right,España,castellano,Doctorate,no,yes,A,1,what,L2,unsyncopated,s1,r2,78,Online_whatL2//d.si.ñu4.1776.1110.wav,fe,su,to,sil,ra,ñu,cha,sil1,si,me,sil2,['false alarm'],[0.37350000000003547],[0.37350000000003547],1.776,beat,,,"[""space""]",si,4,testConjL4Syn//time_viol.r2.s2.0.wav,4.0,conjunction_syn,syncopated,b,s2,no_rule,time,L4,m,1.2358,6.0,1.0,0.441900001,2 ,2.0,español,2 años,inglés,10 años,3.0,2.0,yes,no,yes,guitarra,8,flauta,8,teclado,8,,,Me pasó que mi atención fue oscilando entre baja y alta porque no conocía los idiomas,78.0,yes
79,2023-07-18_18h27.49.725,Unsyncopated1,s1,35 ,feminino,right,España,castellano,Doctorate,no,yes,A,1,what,L2,unsyncopated,s1,r1,79,Online_whatL2//d.si.ñu5.none.none.wav,go,to,me,sil2,du,mi,ño,sil,ba,su,sil1,['-'],,,none,none,,,,si,4,testConjL4Syn//r2.s2.1.wav,4.0,conjunction_syn,syncopated,b,s2,rule,rule,L4,z,0.576,5.0,1.0,0.4402,2 ,2.0,español,2 años,inglés,10 años,3.0,2.0,yes,no,yes,guitarra,8,flauta,8,teclado,8,,,Me pasó que mi atención fue oscilando entre baja y alta porque no conocía los idiomas,78.0,yes
80,2023-07-18_18h27.49.725,Unsyncopated1,s1,35 ,feminino,right,España,castellano,Doctorate,no,yes,A,1,what,L2,unsyncopated,s2,r1,80,Online_whatL2//d.si.ñu2.none.none.wav,mi,ño,ba,sil,go,te,cha,sil1,du,su,sil2,['-'],,,none,none,,,,si,4,testConjL4Syn//cat_viol.r2.s2.0.wav,4.0,conjunction_syn,syncopated,b,s2,no_rule,cat,L4,z,2.0437,3.0,0.0,1.0671,2 ,2.0,español,2 años,inglés,10 años,3.0,2.0,yes,no,yes,guitarra,8,flauta,8,teclado,8,,,Me pasó que mi atención fue oscilando entre baja y alta porque no conocía los idiomas,78.0,yes
81,2023-07-18_18h27.49.725,Unsyncopated1,s1,35 ,feminino,right,España,castellano,Doctorate,no,yes,A,1,what,L2,unsyncopated,s2,r2,81,Online_whatL2//d.si.ñu3.0.444.wav,si,ba,ñu,sil2,fe,te,cha,sil,ra,ño,sil1,['catch'],[0.7698999996184739],[0.7698999996184739],0.0,beat,0.7698999996184739,0.7698999996184739,"[""space""]",si,4,testConjL4Syn//time_viol.r1.s2.0.wav,4.0,conjunction_syn,syncopated,a,s2,no_rule,time,L4,z,0.535099999,6.0,0.0,0.6035,2 ,2.0,español,2 años,inglés,10 años,3.0,2.0,yes,no,yes,guitarra,8,flauta,8,teclado,8,,,Me pasó que mi atención fue oscilando entre baja y alta porque no conocía los idiomas,78.0,yes
82,2023-07-18_18h27.49.725,Unsyncopated1,s1,35 ,feminino,right,España,castellano,Doctorate,no,yes,A,1,what,L2,unsyncopated,s2,r1,82,Online_whatL2//d.si.ñu0.0.444.wav,si,mi,ñu,sil,go,ba,te,sil2,du,to,sil1,['catch'],[1.0536999998092824],[1.0536999998092824],0.0,beat,1.0536999998092824,1.0536999998092824,"[""space""]",si,4,testConjL4Syn//r2.s2.0.wav,4.0,conjunction_syn,syncopated,b,s2,rule,rule,L4,z,0.083400001,5.0,1.0,0.435,2 ,2.0,español,2 años,inglés,10 años,3.0,2.0,yes,no,yes,guitarra,8,flauta,8,teclado,8,,,Me pasó que mi atención fue oscilando entre baja y alta porque no conocía los idiomas,78.0,yes
83,2023-07-18_18h27.49.725,Unsyncopated1,s1,35 ,feminino,right,España,castellano,Doctorate,no,yes,A,1,what,L2,unsyncopated,s2,r2,83,Online_whatL2//d.si.ñu1.none.none.wav,te,ño,bi,sil,fe,cha,to,sil1,ra,mi,sil2,['-'],,,none,none,,,,si,4,testConjL4Syn//cat_viol.r2.s1.0.wav,4.0,conjunction_syn,syncopated,b,s1,no_rule,cat,L4,z,1.234099999,7.0,0.0,0.4743,2 ,2.0,español,2 años,inglés,10 años,3.0,2.0,yes,no,yes,guitarra,8,flauta,8,teclado,8,,,Me pasó que mi atención fue oscilando entre baja y alta porque no conocía los idiomas,78.0,yes
84,2023-07-18_18h27.49.725,Unsyncopated1,s1,35 ,feminino,right,España,castellano,Doctorate,no,yes,A,1,what,L2,unsyncopated,s2,r2,84,Online_whatL2//b.fe.ra11.888.1776.wav,ño,me,su,sil,fe,bi,ñu,sil1,ra,ba,sil2,['catch'],[1.254199999809316],[1.254199999809316],0.888,beat,0.366199999809316,0.366199999809316,"[""space""]",fe,1,testConjL4Syn//dep_viol.r2.s2.0.wav,4.0,conjunction_syn,syncopated,b,s2,no_rule,dep,L4,z,1.1011,7.0,0.0,0.2852,2 ,2.0,español,2 años,inglés,10 años,3.0,2.0,yes,no,yes,guitarra,8,flauta,8,teclado,8,,,Me pasó que mi atención fue oscilando entre baja y alta porque no conocía los idiomas,78.0,yes
85,2023-07-18_18h27.49.725,Unsyncopated1,s1,35 ,feminino,right,España,castellano,Doctorate,no,yes,A,1,what,L2,unsyncopated,s2,r2,85,Online_whatL2//b.fe.ra8.1110.1998.wav,si,me,bi,sil2,fe,te,ba,sil,ra,mi,sil1,['catch'],[1.8704000005722037],[1.8704000005722037],1.11,no_beat,0.7604000005722036,0.7604000005722036,"[""space""]",fe,1,testConjL4Syn//r2.s2.2.wav,4.0,conjunction_syn,syncopated,b,s2,rule,rule,L4,z,0.2195,7.0,1.0,0.273400001,2 ,2.0,español,2 años,inglés,10 años,3.0,2.0,yes,no,yes,guitarra,8,flauta,8,teclado,8,,,Me pasó que mi atención fue oscilando entre baja y alta porque no conocía los idiomas,78.0,yes
86,2023-07-18_18h27.49.725,Unsyncopated1,s1,35 ,feminino,right,España,castellano,Doctorate,no,yes,A,1,what,L2,unsyncopated,s1,r1,86,Online_whatL2//b.fe.ra10.none.none.wav,go,ñu,ño,sil,du,cha,mi,sil2,to,si,sil1,['-'],,,none,none,,,,fe,1,testConjL4Syn//cat_viol.r1.s1.0.wav,4.0,conjunction_syn,syncopated,a,s1,no_rule,cat,L4,m,1.3493,3.0,1.0,0.8938,2 ,2.0,español,2 años,inglés,10 años,3.0,2.0,yes,no,yes,guitarra,8,flauta,8,teclado,8,,,Me pasó que mi atención fue oscilando entre baja y alta porque no conocía los idiomas,78.0,yes
87,2023-07-18_18h27.49.725,Unsyncopated1,s1,35 ,feminino,right,España,castellano,Doctorate,no,yes,A,1,what,L2,unsyncopated,s1,r1,87,Online_whatL2//b.fe.ra9.none.none.wav,go,mi,bi,sil,du,to,te,sil1,ño,si,sil2,['-'],,,none,none,,,,fe,1,testConjL4Syn//dep_viol.r1.s1.0.wav,4.0,conjunction_syn,syncopated,a,s1,no_rule,dep,L4,z,1.7529,3.0,0.0,0.7171,2 ,2.0,español,2 años,inglés,10 años,3.0,2.0,yes,no,yes,guitarra,8,flauta,8,teclado,8,,,Me pasó que mi atención fue oscilando entre baja y alta porque no conocía los idiomas,78.0,yes
88,2023-07-18_18h27.49.725,Unsyncopated1,s1,35 ,feminino,right,España,castellano,Doctorate,no,yes,A,1,what,L2,unsyncopated,s1,r1,88,Online_whatL2//a.go.du8.0.888.wav,go,su,mi,sil,du,ñu,ño,sil1,to,si,sil2,['catch'],[0.9368000001907149],[0.9368000001907149],0.888,beat,0.0488000001907148,0.0488000001907148,"[""space""]",du,2,testConjL4Syn//time_viol.r2.s1.0.wav,4.0,conjunction_syn,syncopated,b,s1,no_rule,time,L4,z,0.185,6.0,0.0,0.601900001,2 ,2.0,español,2 años,inglés,10 años,3.0,2.0,yes,no,yes,guitarra,8,flauta,8,teclado,8,,,Me pasó que mi atención fue oscilando entre baja y alta porque no conocía los idiomas,78.0,yes
89,2023-07-18_18h27.49.725,Unsyncopated1,s1,35 ,feminino,right,España,castellano,Doctorate,no,yes,A,1,what,L2,unsyncopated,s2,r1,89,Online_whatL2//a.go.du11.1110.1998.wav,si,me,to,sil2,go,su,te,sil,du,mi,sil1,['miss'],,,1.998,no_beat,,,,du,2,testConjL4Syn//cat_viol.r1.s2.0.wav,4.0,conjunction_syn,syncopated,a,s2,no_rule,cat,L4,z,0.5352,6.0,0.0,0.3053,2 ,2.0,español,2 años,inglés,10 años,3.0,2.0,yes,no,yes,guitarra,8,flauta,8,teclado,8,,,Me pasó que mi atención fue oscilando entre baja y alta porque no conocía los idiomas,78.0,yes
90,2023-07-18_18h27.49.725,Unsyncopated1,s1,35 ,feminino,right,España,castellano,Doctorate,no,yes,A,1,what,L2,unsyncopated,s1,r1,90,Online_whatL2//a.go.du10.0.888.wav,go,to,ño,sil,du,si,ba,sil2,ñu,me,sil1,['catch'],[1.072499999999991],[1.072499999999991],0.888,beat,0.1844999999999909,0.1844999999999909,"[""space""]",du,2,testConjL4Syn//r1.s2.2.wav,4.0,conjunction_syn,syncopated,a,s2,rule,rule,L4,z,0.7683,5.0,1.0,0.49,2 ,2.0,español,2 años,inglés,10 años,3.0,2.0,yes,no,yes,guitarra,8,flauta,8,teclado,8,,,Me pasó que mi atención fue oscilando entre baja y alta porque no conocía los idiomas,78.0,yes
91,2023-07-18_18h27.49.725,Unsyncopated1,s1,35 ,feminino,right,España,castellano,Doctorate,no,yes,A,1,what,L2,unsyncopated,s1,r2,91,Online_whatL2//a.go.du9.none.none.wav,fe,ba,to,sil2,ra,mi,ño,sil,si,ñu,sil1,['-'],,,none,none,,,,du,2,testConjL4Syn//r1.s2.1.wav,4.0,conjunction_syn,syncopated,a,s2,rule,rule,L4,z,1.1856,5.0,1.0,0.3392,2 ,2.0,español,2 años,inglés,10 años,3.0,2.0,yes,no,yes,guitarra,8,flauta,8,teclado,8,,,Me pasó que mi atención fue oscilando entre baja y alta porque no conocía los idiomas,78.0,yes
92,2023-07-18_18h27.49.725,Unsyncopated1,s1,35 ,feminino,right,España,castellano,Doctorate,no,yes,A,1,what,L2,unsyncopated,s2,r1,92,Online_whatL2//b.fe.ra6.none.none.wav,si,su,te,sil2,go,ba,mi,sil,du,ñu,sil1,['false alarm'],[0.7116999998092979],[0.7116999998092979],none,none,,,"[""space""]",fe,1,testConjL4Syn//r2.s1.0.wav,4.0,conjunction_syn,syncopated,b,s1,rule,rule,L4,z,0.7854,7.0,1.0,0.3045,2 ,2.0,español,2 años,inglés,10 años,3.0,2.0,yes,no,yes,guitarra,8,flauta,8,teclado,8,,,Me pasó que mi atención fue oscilando entre baja y alta porque no conocía los idiomas,78.0,yes
93,2023-07-18_18h27.49.725,Unsyncopated1,s1,35 ,feminino,right,España,castellano,Doctorate,no,yes,A,1,what,L2,unsyncopated,s1,r1,93,Online_whatL2//b.fe.ra4.none.none.wav,go,te,to,sil2,du,ño,me,sil,su,cha,sil1,['-'],,,none,none,,,,fe,1,testConjL4Syn//dep_viol.r1.s2.0.wav,4.0,conjunction_syn,syncopated,a,s2,no_rule,dep,L4,z,1.0344,4.0,0.0,0.4109,2 ,2.0,español,2 años,inglés,10 años,3.0,2.0,yes,no,yes,guitarra,8,flauta,8,teclado,8,,,Me pasó que mi atención fue oscilando entre baja y alta porque no conocía los idiomas,78.0,yes
94,2023-07-18_18h27.49.725,Unsyncopated1,s1,35 ,feminino,right,España,castellano,Doctorate,no,yes,A,1,what,L2,unsyncopated,s2,r2,94,Online_whatL2//b.fe.ra5.888.1776.wav,ñu,ño,mi,sil,fe,me,ba,sil1,ra,te,sil2,['miss'],,,0.888,beat,,,,fe,1,testConjL4Syn//r1.s1.2.wav,4.0,conjunction_syn,syncopated,a,s1,rule,rule,L4,z,0.8569,4.0,1.0,0.5346,2 ,2.0,español,2 años,inglés,10 años,3.0,2.0,yes,no,yes,guitarra,8,flauta,8,teclado,8,,,Me pasó que mi atención fue oscilando entre baja y alta porque no conocía los idiomas,78.0,yes
95,2023-07-18_18h27.49.725,Unsyncopated1,s1,35 ,feminino,right,España,castellano,Doctorate,no,yes,A,1,what,L2,unsyncopated,s1,r1,95,Online_whatL2//b.fe.ra7.none.none.wav,go,cha,me,sil,du,bi,te,sil1,ñu,su,sil2,['-'],,,none,none,,,,fe,1,testConjL4Syn//dep_viol.r2.s1.0.wav,4.0,conjunction_syn,syncopated,b,s1,no_rule,dep,L4,z,0.808400001,4.0,0.0,0.4832,2 ,2.0,español,2 años,inglés,10 años,3.0,2.0,yes,no,yes,guitarra,8,flauta,8,teclado,8,,,Me pasó que mi atención fue oscilando entre baja y alta porque no conocía los idiomas,78.0,yes
96,2023-07-18_18h27.49.725,Unsyncopated1,s1,35 ,feminino,right,España,castellano,Doctorate,no,yes,A,1,what,L2,unsyncopated,s1,r2,96,Online_whatL2//d.si.ñu31.none.none.wav,fe,mi,ño,sil,ra,su,me,sil1,ba,te,sil2,['false alarm'],[0.4950999994277936],[0.4950999994277936],none,none,,,"[""space""]",si,4,,,,,,,,,,,,,,,2 ,2.0,español,2 años,inglés,10 años,3.0,2.0,yes,no,yes,guitarra,8,flauta,8,teclado,8,,,Me pasó que mi atención fue oscilando entre baja y alta porque no conocía los idiomas,78.0,yes
97,2023-07-18_18h27.49.725,Unsyncopated1,s1,35 ,feminino,right,España,castellano,Doctorate,no,yes,A,1,what,L2,unsyncopated,s1,r1,97,Online_whatL2//d.si.ñu28.444.1554.wav,go,me,si,sil2,du,to,ñu,sil,te,mi,sil1,['miss'],,,0.444,no_beat,,,,si,4,,,,,,,,,,,,,,,2 ,2.0,español,2 años,inglés,10 años,3.0,2.0,yes,no,yes,guitarra,8,flauta,8,teclado,8,,,Me pasó que mi atención fue oscilando entre baja y alta porque no conocía los idiomas,78.0,yes
98,2023-07-18_18h27.49.725,Unsyncopated1,s1,35 ,feminino,right,España,castellano,Doctorate,no,yes,A,1,what,L2,unsyncopated,s1,r2,98,Online_whatL2//d.si.ñu30.1332.222.wav,fe,ñu,te,sil2,ra,si,to,sil,bi,ba,sil1,['catch'],[2.3530000000000655],[2.3530000000000655],1.332,no_beat,1.0210000000000654,1.0210000000000654,"[""space""]",si,4,,,,,,,,,,,,,,,2 ,2.0,español,2 años,inglés,10 años,3.0,2.0,yes,no,yes,guitarra,8,flauta,8,teclado,8,,,Me pasó que mi atención fue oscilando entre baja y alta porque no conocía los idiomas,78.0,yes
99,2023-07-18_18h27.49.725,Unsyncopated1,s1,35 ,feminino,right,España,castellano,Doctorate,no,yes,A,1,what,L2,unsyncopated,s1,r2,99,Online_whatL2//d.si.ñu29.222.1110.wav,fe,si,me,sil,ra,ñu,ño,sil2,mi,te,sil1,['miss'],,,0.222,no_beat,,,,si,4,,,,,,,,,,,,,,,2 ,2.0,español,2 años,inglés,10 años,3.0,2.0,yes,no,yes,guitarra,8,flauta,8,teclado,8,,,Me pasó que mi atención fue oscilando entre baja y alta porque no conocía los idiomas,78.0,yes
100,2023-07-18_18h27.49.725,Unsyncopated1,s1,35 ,feminino,right,España,castellano,Doctorate,no,yes,A,1,what,L2,unsyncopated,s2,r2,100,Online_whatL2//c.cha.me1.1110.0.wav,me,mi,ba,sil,fe,cha,su,sil2,ra,ñu,sil1,['catch'],[1.6961000003814206],[1.6961000003814206],1.11,no_beat,0.5861000003814205,0.5861000003814205,"[""space""]",cha,3,,,,,,,,,,,,,,,2 ,2.0,español,2 años,inglés,10 años,3.0,2.0,yes,no,yes,guitarra,8,flauta,8,teclado,8,,,Me pasó que mi atención fue oscilando entre baja y alta porque no conocía los idiomas,78.0,yes
101,2023-07-18_18h27.49.725,Unsyncopated1,s1,35 ,feminino,right,España,castellano,Doctorate,no,yes,A,1,what,L2,unsyncopated,s1,r1,101,Online_whatL2//c.cha.me3.1332.444.wav,go,to,me,sil,du,si,cha,sil2,ño,te,sil1,['miss'],,,1.332,no_beat,,,,cha,3,,,,,,,,,,,,,,,2 ,2.0,español,2 años,inglés,10 años,3.0,2.0,yes,no,yes,guitarra,8,flauta,8,teclado,8,,,Me pasó que mi atención fue oscilando entre baja y alta porque no conocía los idiomas,78.0,yes
102,2023-07-18_18h27.49.725,Unsyncopated1,s1,35 ,feminino,right,España,castellano,Doctorate,no,yes,A,1,what,L2,unsyncopated,s1,r2,102,Online_whatL2//c.cha.me0.1998.222.wav,fe,me,ño,sil,ra,su,si,sil2,cha,mi,sil1,['catch'],[2.4368000001908285],[2.4368000001908285],1.998,no_beat,0.4388000001908285,0.4388000001908285,"[""space""]",cha,3,,,,,,,,,,,,,,,2 ,2.0,español,2 años,inglés,10 años,3.0,2.0,yes,no,yes,guitarra,8,flauta,8,teclado,8,,,Me pasó que mi atención fue oscilando entre baja y alta porque no conocía los idiomas,78.0,yes
103,2023-07-18_18h27.49.725,Unsyncopated1,s1,35 ,feminino,right,España,castellano,Doctorate,no,yes,A,1,what,L2,unsyncopated,s1,r1,103,Online_whatL2//c.cha.me2.none.none.wav,go,ba,si,sil2,du,mi,ñu,sil,bi,ño,sil1,['-'],,,none,none,,,,cha,3,,,,,,,,,,,,,,,2 ,2.0,español,2 años,inglés,10 años,3.0,2.0,yes,no,yes,guitarra,8,flauta,8,teclado,8,,,Me pasó que mi atención fue oscilando entre baja y alta porque no conocía los idiomas,78.0,yes
104,2023-07-18_18h27.49.725,Unsyncopated1,s1,35 ,feminino,right,España,castellano,Doctorate,no,yes,A,1,what,L2,unsyncopated,s2,r2,104,Online_whatL2//b.fe.ra3.1110.1998.wav,si,ño,me,sil2,fe,ñu,cha,sil,ra,bi,sil1,['miss'],,,1.11,no_beat,,,,fe,1,,,,,,,,,,,,,,,2 ,2.0,español,2 años,inglés,10 años,3.0,2.0,yes,no,yes,guitarra,8,flauta,8,teclado,8,,,Me pasó que mi atención fue oscilando entre baja y alta porque no conocía los idiomas,78.0,yes
105,2023-07-18_18h27.49.725,Unsyncopated1,s1,35 ,feminino,right,España,castellano,Doctorate,no,yes,A,1,what,L2,unsyncopated,s1,r1,105,Online_whatL2//b.fe.ra2.none.none.wav,go,cha,mi,sil2,du,to,bi,sil,ño,ba,sil1,['-'],,,none,none,,,,fe,1,,,,,,,,,,,,,,,2 ,2.0,español,2 años,inglés,10 años,3.0,2.0,yes,no,yes,guitarra,8,flauta,8,teclado,8,,,Me pasó que mi atención fue oscilando entre baja y alta porque no conocía los idiomas,78.0,yes
106,2023-07-18_18h27.49.725,Unsyncopated1,s1,35 ,feminino,right,España,castellano,Doctorate,no,yes,A,1,what,L2,unsyncopated,s1,r2,106,Online_whatL2//b.fe.ra0.0.1110.wav,fe,cha,ño,sil2,ra,te,me,sil,to,ñu,sil1,['catch'],[0.6704999999999472],[0.6704999999999472],0.0,beat,0.6704999999999472,0.6704999999999472,"[""space""]",fe,1,,,,,,,,,,,,,,,2 ,2.0,español,2 años,inglés,10 años,3.0,2.0,yes,no,yes,guitarra,8,flauta,8,teclado,8,,,Me pasó que mi atención fue oscilando entre baja y alta porque no conocía los idiomas,78.0,yes
107,2023-07-18_18h27.49.725,Unsyncopated1,s1,35 ,feminino,right,España,castellano,Doctorate,no,yes,A,1,what,L2,unsyncopated,s1,r2,107,Online_whatL2//b.fe.ra1.0.1110.wav,fe,bi,ño,sil2,ra,ba,cha,sil,ñu,to,sil1,['catch'],[0.7395000000000209],[0.7395000000000209],0.0,beat,0.7395000000000209,0.7395000000000209,"[""space""]",fe,1,,,,,,,,,,,,,,,2 ,2.0,español,2 años,inglés,10 años,3.0,2.0,yes,no,yes,guitarra,8,flauta,8,teclado,8,,,Me pasó que mi atención fue oscilando entre baja y alta porque no conocía los idiomas,78.0,yes
108,2023-07-18_18h27.49.725,Unsyncopated1,s1,35 ,feminino,right,España,castellano,Doctorate,no,yes,A,1,what,L2,unsyncopated,s1,r1,108,Online_whatL2//a.go.du18.0.1110.wav,go,cha,me,sil2,du,ño,ñu,sil,ba,mi,sil1,['miss'],,,1.11,no_beat,,,,du,2,,,,,,,,,,,,,,,2 ,2.0,español,2 años,inglés,10 años,3.0,2.0,yes,no,yes,guitarra,8,flauta,8,teclado,8,,,Me pasó que mi atención fue oscilando entre baja y alta porque no conocía los idiomas,78.0,yes
109,2023-07-18_18h27.49.725,Unsyncopated1,s1,35 ,feminino,right,España,castellano,Doctorate,no,yes,A,1,what,L2,unsyncopated,s2,r1,109,Online_whatL2//a.go.du17.888.1776.wav,si,ño,bi,sil,go,te,ñu,sil1,du,su,sil2,['miss'],,,1.776,beat,,,,du,2,,,,,,,,,,,,,,,2 ,2.0,español,2 años,inglés,10 años,3.0,2.0,yes,no,yes,guitarra,8,flauta,8,teclado,8,,,Me pasó que mi atención fue oscilando entre baja y alta porque no conocía los idiomas,78.0,yes
110,2023-07-18_18h27.49.725,Unsyncopated1,s1,35 ,feminino,right,España,castellano,Doctorate,no,yes,A,1,what,L2,unsyncopated,s2,r1,110,Online_whatL2//a.go.du19.1110.1998.wav,si,cha,ñu,sil2,go,mi,ño,sil,du,me,sil1,['false alarm'],[0.3368000001906921],[0.3368000001906921],1.998,no_beat,,,"[""space""]",du,2,,,,,,,,,,,,,,,2 ,2.0,español,2 años,inglés,10 años,3.0,2.0,yes,no,yes,guitarra,8,flauta,8,teclado,8,,,Me pasó que mi atención fue oscilando entre baja y alta porque no conocía los idiomas,78.0,yes
111,2023-07-18_18h27.49.725,Unsyncopated1,s1,35 ,feminino,right,España,castellano,Doctorate,no,yes,A,1,what,L2,unsyncopated,s2,r1,111,Online_whatL2//a.go.du16.888.1776.wav,cha,bi,mi,sil,go,me,to,sil1,du,ño,sil2,['miss'],,,1.776,beat,,,,du,2,,,,,,,,,,,,,,,2 ,2.0,español,2 años,inglés,10 años,3.0,2.0,yes,no,yes,guitarra,8,flauta,8,teclado,8,,,Me pasó que mi atención fue oscilando entre baja y alta porque no conocía los idiomas,78.0,yes
112,2023-07-18_18h27.49.725,Unsyncopated1,s1,35 ,feminino,right,España,castellano,Doctorate,no,yes,A,1,what,L2,unsyncopated,s2,r1,112,Online_whatL2//c.cha.me15.none.none.wav,su,ñu,mi,sil,go,ba,bi,sil1,du,to,sil2,['false alarm'],[0.7103000001907276],[0.7103000001907276],none,none,,,"[""space""]",cha,3,,,,,,,,,,,,,,,2 ,2.0,español,2 años,inglés,10 años,3.0,2.0,yes,no,yes,guitarra,8,flauta,8,teclado,8,,,Me pasó que mi atención fue oscilando entre baja y alta porque no conocía los idiomas,78.0,yes
113,2023-07-18_18h27.49.725,Unsyncopated1,s1,35 ,feminino,right,España,castellano,Doctorate,no,yes,A,1,what,L2,unsyncopated,s2,r1,113,Online_whatL2//c.cha.me14.none.none.wav,ñu,to,ño,sil,go,ba,si,sil2,du,mi,sil1,['-'],,,none,none,,,,cha,3,,,,,,,,,,,,,,,2 ,2.0,español,2 años,inglés,10 años,3.0,2.0,yes,no,yes,guitarra,8,flauta,8,teclado,8,,,Me pasó que mi atención fue oscilando entre baja y alta porque no conocía los idiomas,78.0,yes
114,2023-07-18_18h27.49.725,Unsyncopated1,s1,35 ,feminino,right,España,castellano,Doctorate,no,yes,A,1,what,L2,unsyncopated,s1,r2,114,Online_whatL2//c.cha.me13.none.none.wav,fe,su,te,sil,ra,ño,si,sil2,ba,bi,sil1,['false alarm'],[0.6577999992371133],[0.6577999992371133],none,none,,,"[""space""]",cha,3,,,,,,,,,,,,,,,2 ,2.0,español,2 años,inglés,10 años,3.0,2.0,yes,no,yes,guitarra,8,flauta,8,teclado,8,,,Me pasó que mi atención fue oscilando entre baja y alta porque no conocía los idiomas,78.0,yes
115,2023-07-18_18h27.49.725,Unsyncopated1,s1,35 ,feminino,right,España,castellano,Doctorate,no,yes,A,1,what,L2,unsyncopated,s1,r1,115,Online_whatL2//c.cha.me12.1332.222.wav,go,me,si,sil,du,ñu,cha,sil1,mi,to,sil2,['miss'],,,1.332,no_beat,,,,cha,3,,,,,,,,,,,,,,,2 ,2.0,español,2 años,inglés,10 años,3.0,2.0,yes,no,yes,guitarra,8,flauta,8,teclado,8,,,Me pasó que mi atención fue oscilando entre baja y alta porque no conocía los idiomas,78.0,yes
116,2023-07-18_18h27.49.725,Unsyncopated1,s1,35 ,feminino,right,España,castellano,Doctorate,no,yes,A,1,what,L2,unsyncopated,s2,r2,116,Online_whatL2//a.go.du20.none.none.wav,mi,ba,cha,sil,fe,to,ñu,sil1,ra,bi,sil2,['-'],,,none,none,,,,du,2,,,,,,,,,,,,,,,2 ,2.0,español,2 años,inglés,10 años,3.0,2.0,yes,no,yes,guitarra,8,flauta,8,teclado,8,,,Me pasó que mi atención fue oscilando entre baja y alta porque no conocía los idiomas,78.0,yes
117,2023-07-18_18h27.49.725,Unsyncopated1,s1,35 ,feminino,right,España,castellano,Doctorate,no,yes,A,1,what,L2,unsyncopated,s2,r1,117,Online_whatL2//a.go.du22.888.1776.wav,me,ño,cha,sil,go,te,ñu,sil1,du,to,sil2,['miss'],,,1.776,beat,,,,du,2,,,,,,,,,,,,,,,2 ,2.0,español,2 años,inglés,10 años,3.0,2.0,yes,no,yes,guitarra,8,flauta,8,teclado,8,,,Me pasó que mi atención fue oscilando entre baja y alta porque no conocía los idiomas,78.0,yes
118,2023-07-18_18h27.49.725,Unsyncopated1,s1,35 ,feminino,right,España,castellano,Doctorate,no,yes,A,1,what,L2,unsyncopated,s2,r2,118,Online_whatL2//a.go.du21.none.none.wav,ñu,ba,mi,sil,fe,cha,me,sil2,ra,bi,sil1,['-'],,,none,none,,,,du,2,,,,,,,,,,,,,,,2 ,2.0,español,2 años,inglés,10 años,3.0,2.0,yes,no,yes,guitarra,8,flauta,8,teclado,8,,,Me pasó que mi atención fue oscilando entre baja y alta porque no conocía los idiomas,78.0,yes
119,2023-07-18_18h27.49.725,Unsyncopated1,s1,35 ,feminino,right,España,castellano,Doctorate,no,yes,A,1,what,L2,unsyncopated,s1,r2,119,Online_whatL2//a.go.du23.none.none.wav,fe,si,me,sil2,ra,mi,ba,sil,ño,ñu,sil1,['-'],,,none,none,,,,du,2,,,,,,,,,,,,,,,2 ,2.0,español,2 años,inglés,10 años,3.0,2.0,yes,no,yes,guitarra,8,flauta,8,teclado,8,,,Me pasó que mi atención fue oscilando entre baja y alta porque no conocía los idiomas,78.0,yes
120,2023-07-18_18h27.49.725,Unsyncopated1,s1,35 ,feminino,right,España,castellano,Doctorate,no,yes,A,1,what,L2,unsyncopated,s2,r1,120,Online_whatL2//c.cha.me26.444.1110.wav,mi,bi,cha,sil,go,me,ño,sil1,du,te,sil2,['miss'],,,0.444,no_beat,,,,cha,3,,,,,,,,,,,,,,,2 ,2.0,español,2 años,inglés,10 años,3.0,2.0,yes,no,yes,guitarra,8,flauta,8,teclado,8,,,Me pasó que mi atención fue oscilando entre baja y alta porque no conocía los idiomas,78.0,yes
121,2023-07-18_18h27.49.725,Unsyncopated1,s1,35 ,feminino,right,España,castellano,Doctorate,no,yes,A,1,what,L2,unsyncopated,s2,r1,121,Online_whatL2//c.cha.me24.0.444.wav,cha,te,me,sil,go,ba,ño,sil2,du,si,sil1,['miss'],,,0.0,beat,,,,cha,3,,,,,,,,,,,,,,,2 ,2.0,español,2 años,inglés,10 años,3.0,2.0,yes,no,yes,guitarra,8,flauta,8,teclado,8,,,Me pasó que mi atención fue oscilando entre baja y alta porque no conocía los idiomas,78.0,yes
122,2023-07-18_18h27.49.725,Unsyncopated1,s1,35 ,feminino,right,España,castellano,Doctorate,no,yes,A,1,what,L2,unsyncopated,s1,r2,122,Online_whatL2//c.cha.me25.none.none.wav,fe,te,mi,sil,ra,ñu,si,sil2,ba,bi,sil1,['false alarm'],[0.5130000000000337],[0.5130000000000337],none,none,,,"[""space""]",cha,3,,,,,,,,,,,,,,,2 ,2.0,español,2 años,inglés,10 años,3.0,2.0,yes,no,yes,guitarra,8,flauta,8,teclado,8,,,Me pasó que mi atención fue oscilando entre baja y alta porque no conocía los idiomas,78.0,yes
123,2023-07-18_18h27.49.725,Unsyncopated1,s1,35 ,feminino,right,España,castellano,Doctorate,no,yes,A,1,what,L2,unsyncopated,s1,r2,123,Online_whatL2//c.cha.me27.none.none.wav,fe,si,ñu,sil2,ra,ño,ba,sil,te,bi,sil1,['-'],,,none,none,,,,cha,3,,,,,,,,,,,,,,,2 ,2.0,español,2 años,inglés,10 años,3.0,2.0,yes,no,yes,guitarra,8,flauta,8,teclado,8,,,Me pasó que mi atención fue oscilando entre baja y alta porque no conocía los idiomas,78.0,yes
124,2023-07-18_18h27.49.725,Unsyncopated1,s1,35 ,feminino,right,España,castellano,Doctorate,no,yes,A,1,what,L2,unsyncopated,s1,r2,124,Online_whatL2//a.go.du0.none.none.wav,fe,ñu,to,sil2,ra,ño,su,sil,ba,bi,sil1,['-'],,,none,none,,,,du,2,,,,,,,,,,,,,,,2 ,2.0,español,2 años,inglés,10 años,3.0,2.0,yes,no,yes,guitarra,8,flauta,8,teclado,8,,,Me pasó que mi atención fue oscilando entre baja y alta porque no conocía los idiomas,78.0,yes
125,2023-07-18_18h27.49.725,Unsyncopated1,s1,35 ,feminino,right,España,castellano,Doctorate,no,yes,A,1,what,L2,unsyncopated,s1,r2,125,Online_whatL2//a.go.du1.none.none.wav,fe,cha,me,sil2,ra,to,ñu,sil,ño,mi,sil1,['-'],,,none,none,,,,du,2,,,,,,,,,,,,,,,2 ,2.0,español,2 años,inglés,10 años,3.0,2.0,yes,no,yes,guitarra,8,flauta,8,teclado,8,,,Me pasó que mi atención fue oscilando entre baja y alta porque no conocía los idiomas,78.0,yes
126,2023-07-18_18h27.49.725,Unsyncopated1,s1,35 ,feminino,right,España,castellano,Doctorate,no,yes,A,1,what,L2,unsyncopated,s1,r1,126,Online_whatL2//a.go.du3.0.888.wav,go,te,me,sil,du,mi,cha,sil2,ba,ño,sil1,['catch'],[1.6540999994277854],[1.6540999994277854],0.888,beat,0.7660999994277854,0.7660999994277854,"[""space""]",du,2,,,,,,,,,,,,,,,2 ,2.0,español,2 años,inglés,10 años,3.0,2.0,yes,no,yes,guitarra,8,flauta,8,teclado,8,,,Me pasó que mi atención fue oscilando entre baja y alta porque no conocía los idiomas,78.0,yes
127,2023-07-18_18h27.49.725,Unsyncopated1,s1,35 ,feminino,right,España,castellano,Doctorate,no,yes,A,1,what,L2,unsyncopated,s2,r1,127,Online_whatL2//a.go.du2.1110.1998.wav,te,bi,ñu,sil2,go,cha,mi,sil,du,to,sil1,['miss'],,,1.998,no_beat,,,,du,2,,,,,,,,,,,,,,,2 ,2.0,español,2 años,inglés,10 años,3.0,2.0,yes,no,yes,guitarra,8,flauta,8,teclado,8,,,Me pasó que mi atención fue oscilando entre baja y alta porque no conocía los idiomas,78.0,yes
128,2023-07-18_18h27.49.725,Unsyncopated1,s1,35 ,feminino,right,España,castellano,Doctorate,no,yes,A,2,conjunction_un,L1,unsyncopated,s1,r2,0,Online_conjL1_un//a.pu.ki13.none.none.wav,ta,ne,ro,sil,be,lu,fa,sil1,zu,la,sil2,['-'],,,none,none,,,,ki,2,,,,,,,,,,,,,,,2 ,2.0,español,2 años,inglés,10 años,3.0,2.0,yes,no,yes,guitarra,8,flauta,8,teclado,8,,,Me pasó que mi atención fue oscilando entre baja y alta porque no conocía los idiomas,78.0,yes
129,2023-07-18_18h27.49.725,Unsyncopated1,s1,35 ,feminino,right,España,castellano,Doctorate,no,yes,A,2,conjunction_un,L1,unsyncopated,s2,r1,1,Online_conjL1_un//a.pu.ki15.888.1776.wav,cho,ri,ne,sil,pu,ze,ni,sil1,ki,zu,sil2,['catch'],[2.3356999998093215],[2.3356999998093215],1.776,beat,0.5596999998093215,0.5596999998093215,"[""space""]",ki,2,,,,,,,,,,,,,,,2 ,2.0,español,2 años,inglés,10 años,3.0,2.0,yes,no,yes,guitarra,8,flauta,8,teclado,8,,,Me pasó que mi atención fue oscilando entre baja y alta porque no conocía los idiomas,78.0,yes
130,2023-07-18_18h27.49.725,Unsyncopated1,s1,35 ,feminino,right,España,castellano,Doctorate,no,yes,A,2,conjunction_un,L1,unsyncopated,s2,r2,2,Online_conjL1_un//a.pu.ki14.none.none.wav,ne,ze,ni,sil,ta,zu,fo,sil1,be,lu,sil2,['-'],,,none,none,,,,ki,2,,,,,,,,,,,,,,,2 ,2.0,español,2 años,inglés,10 años,3.0,2.0,yes,no,yes,guitarra,8,flauta,8,teclado,8,,,Me pasó que mi atención fue oscilando entre baja y alta porque no conocía los idiomas,78.0,yes
131,2023-07-18_18h27.49.725,Unsyncopated1,s1,35 ,feminino,right,España,castellano,Doctorate,no,yes,A,2,conjunction_un,L1,unsyncopated,s2,r2,3,Online_conjL1_un//a.pu.ki12.none.none.wav,ri,ze,fo,sil,ta,lu,ro,sil1,be,ne,sil2,['-'],,,none,none,,,,ki,2,,,,,,,,,,,,,,,2 ,2.0,español,2 años,inglés,10 años,3.0,2.0,yes,no,yes,guitarra,8,flauta,8,teclado,8,,,Me pasó que mi atención fue oscilando entre baja y alta porque no conocía los idiomas,78.0,yes
132,2023-07-18_18h27.49.725,Unsyncopated1,s1,35 ,feminino,right,España,castellano,Doctorate,no,yes,A,2,conjunction_un,L1,unsyncopated,s1,r2,4,Online_conjL1_un//a.pu.ki2.none.none.wav,ta,ro,ne,sil,be,lu,fo,sil1,la,ri,sil2,['-'],,,none,none,,,,ki,2,,,,,,,,,,,,,,,2 ,2.0,español,2 años,inglés,10 años,3.0,2.0,yes,no,yes,guitarra,8,flauta,8,teclado,8,,,Me pasó que mi atención fue oscilando entre baja y alta porque no conocía los idiomas,78.0,yes
133,2023-07-18_18h27.49.725,Unsyncopated1,s1,35 ,feminino,right,España,castellano,Doctorate,no,yes,A,2,conjunction_un,L1,unsyncopated,s1,r2,5,Online_conjL1_un//a.pu.ki3.none.none.wav,ta,fo,lu,sil,be,ze,cho,sil1,ri,la,sil2,['-'],,,none,none,,,,ki,2,,,,,,,,,,,,,,,2 ,2.0,español,2 años,inglés,10 años,3.0,2.0,yes,no,yes,guitarra,8,flauta,8,teclado,8,,,Me pasó que mi atención fue oscilando entre baja y alta porque no conocía los idiomas,78.0,yes
134,2023-07-18_18h27.49.725,Unsyncopated1,s1,35 ,feminino,right,España,castellano,Doctorate,no,yes,A,2,conjunction_un,L1,unsyncopated,s2,r1,6,Online_conjL1_un//a.pu.ki0.888.1776.wav,ni,zu,ne,sil,pu,fa,ze,sil1,ki,ri,sil2,['catch'],[2.64259999942783],[2.64259999942783],1.776,beat,0.86659999942783,0.86659999942783,"[""space""]",ki,2,,,,,,,,,,,,,,,2 ,2.0,español,2 años,inglés,10 años,3.0,2.0,yes,no,yes,guitarra,8,flauta,8,teclado,8,,,Me pasó que mi atención fue oscilando entre baja y alta porque no conocía los idiomas,78.0,yes
135,2023-07-18_18h27.49.725,Unsyncopated1,s1,35 ,feminino,right,España,castellano,Doctorate,no,yes,A,2,conjunction_un,L1,unsyncopated,s2,r1,7,Online_conjL1_un//a.pu.ki1.888.1776.wav,ro,fa,ne,sil,pu,lu,cho,sil1,ki,ri,sil2,['catch'],[2.403200000763036],[2.403200000763036],1.776,beat,0.6272000007630358,0.6272000007630358,"[""space""]",ki,2,,,,,,,,,,,,,,,2 ,2.0,español,2 años,inglés,10 años,3.0,2.0,yes,no,yes,guitarra,8,flauta,8,teclado,8,,,Me pasó que mi atención fue oscilando entre baja y alta porque no conocía los idiomas,78.0,yes
136,2023-07-18_18h27.49.725,Unsyncopated1,s1,35 ,feminino,right,España,castellano,Doctorate,no,yes,A,2,conjunction_un,L1,unsyncopated,s2,r1,8,Online_conjL1_un//b.ta.be10.none.none.wav,ni,lu,cho,sil,pu,fa,zu,sil1,ki,fo,sil2,['-'],,,none,none,,,,ta,1,,,,,,,,,,,,,,,2 ,2.0,español,2 años,inglés,10 años,3.0,2.0,yes,no,yes,guitarra,8,flauta,8,teclado,8,,,Me pasó que mi atención fue oscilando entre baja y alta porque no conocía los idiomas,78.0,yes
137,2023-07-18_18h27.49.725,Unsyncopated1,s1,35 ,feminino,right,España,castellano,Doctorate,no,yes,A,2,conjunction_un,L1,unsyncopated,s1,r2,9,Online_conjL1_un//b.ta.be11.0.888.wav,ta,fa,lu,sil,be,ni,ze,sil1,ri,ro,sil2,['catch'],[0.5608000001907385],[0.5608000001907385],0.0,beat,0.5608000001907385,0.5608000001907385,"[""space""]",ta,1,,,,,,,,,,,,,,,2 ,2.0,español,2 años,inglés,10 años,3.0,2.0,yes,no,yes,guitarra,8,flauta,8,teclado,8,,,Me pasó que mi atención fue oscilando entre baja y alta porque no conocía los idiomas,78.0,yes
138,2023-07-18_18h27.49.725,Unsyncopated1,s1,35 ,feminino,right,España,castellano,Doctorate,no,yes,A,2,conjunction_un,L1,unsyncopated,s1,r2,10,Online_conjL1_un//b.ta.be8.0.888.wav,ta,la,ne,sil,be,lu,ni,sil1,ro,fa,sil2,['catch'],[0.97199999999998],[0.97199999999998],0.0,beat,0.97199999999998,0.97199999999998,"[""space""]",ta,1,,,,,,,,,,,,,,,2 ,2.0,español,2 años,inglés,10 años,3.0,2.0,yes,no,yes,guitarra,8,flauta,8,teclado,8,,,Me pasó que mi atención fue oscilando entre baja y alta porque no conocía los idiomas,78.0,yes
139,2023-07-18_18h27.49.725,Unsyncopated1,s1,35 ,feminino,right,España,castellano,Doctorate,no,yes,A,2,conjunction_un,L1,unsyncopated,s2,r1,11,Online_conjL1_un//b.ta.be9.none.none.wav,fa,ne,lu,sil,pu,ri,la,sil1,ki,ni,sil2,['-'],,,none,none,,,,ta,1,,,,,,,,,,,,,,,2 ,2.0,español,2 años,inglés,10 años,3.0,2.0,yes,no,yes,guitarra,8,flauta,8,teclado,8,,,Me pasó que mi atención fue oscilando entre baja y alta porque no conocía los idiomas,78.0,yes
140,2023-07-18_18h27.49.725,Unsyncopated1,s1,35 ,feminino,right,España,castellano,Doctorate,no,yes,A,2,conjunction_un,L1,unsyncopated,s2,r2,12,Online_conjL1_un//b.ta.be31.888.1776.wav,la,cho,zu,sil,ta,ne,ri,sil1,be,ze,sil2,['catch'],[1.765999999999849],[1.765999999999849],0.888,beat,0.877999999999849,0.877999999999849,"[""space""]",ta,1,,,,,,,,,,,,,,,2 ,2.0,español,2 años,inglés,10 años,3.0,2.0,yes,no,yes,guitarra,8,flauta,8,teclado,8,,,Me pasó que mi atención fue oscilando entre baja y alta porque no conocía los idiomas,78.0,yes
141,2023-07-18_18h27.49.725,Unsyncopated1,s1,35 ,feminino,right,España,castellano,Doctorate,no,yes,A,2,conjunction_un,L1,unsyncopated,s1,r1,13,Online_conjL1_un//b.ta.be30.none.none.wav,pu,fa,lu,sil,ki,ni,ne,sil1,ri,ro,sil2,['-'],,,none,none,,,,ta,1,,,,,,,,,,,,,,,2 ,2.0,español,2 años,inglés,10 años,3.0,2.0,yes,no,yes,guitarra,8,flauta,8,teclado,8,,,Me pasó que mi atención fue oscilando entre baja y alta porque no conocía los idiomas,78.0,yes
142,2023-07-18_18h27.49.725,Unsyncopated1,s1,35 ,feminino,right,España,castellano,Doctorate,no,yes,A,2,conjunction_un,L1,unsyncopated,s1,r2,14,Online_conjL1_un//b.ta.be29.0.888.wav,ta,ze,lu,sil,be,la,zu,sil1,fo,fa,sil2,['catch'],[0.186599999427699],[0.186599999427699],0.0,beat,0.186599999427699,0.186599999427699,"[""space""]",ta,1,,,,,,,,,,,,,,,2 ,2.0,español,2 años,inglés,10 años,3.0,2.0,yes,no,yes,guitarra,8,flauta,8,teclado,8,,,Me pasó que mi atención fue oscilando entre baja y alta porque no conocía los idiomas,78.0,yes
143,2023-07-18_18h27.49.725,Unsyncopated1,s1,35 ,feminino,right,España,castellano,Doctorate,no,yes,A,2,conjunction_un,L1,unsyncopated,s1,r2,15,Online_conjL1_un//b.ta.be28.0.888.wav,ta,fo,ni,sil,be,ze,ne,sil1,fa,ri,sil2,['catch'],[0.6426999998091105],[0.6426999998091105],0.0,beat,0.6426999998091105,0.6426999998091105,"[""space""]",ta,1,,,,,,,,,,,,,,,2 ,2.0,español,2 años,inglés,10 años,3.0,2.0,yes,no,yes,guitarra,8,flauta,8,teclado,8,,,Me pasó que mi atención fue oscilando entre baja y alta porque no conocía los idiomas,78.0,yes
144,2023-07-18_18h27.49.725,Unsyncopated1,s1,35 ,feminino,right,España,castellano,Doctorate,no,yes,A,2,conjunction_un,L1,unsyncopated,s1,r2,16,Online_conjL1_un//c.ro.fo3.222.1110.wav,ta,ro,ne,sil,be,fo,fa,sil1,cho,ze,sil2,"['catch', 'false alarm']","[0.6859999999999218, 1.8588999996184157]",[0.6859999999999218],0.222,no_beat,0.4639999999999218,0.4639999999999218,"[""space"",""space""]",ro,3,,,,,,,,,,,,,,,2 ,2.0,español,2 años,inglés,10 años,3.0,2.0,yes,no,yes,guitarra,8,flauta,8,teclado,8,,,Me pasó que mi atención fue oscilando entre baja y alta porque no conocía los idiomas,78.0,yes
145,2023-07-18_18h27.49.725,Unsyncopated1,s1,35 ,feminino,right,España,castellano,Doctorate,no,yes,A,2,conjunction_un,L1,unsyncopated,s2,r2,17,Online_conjL1_un//c.ro.fo0.0.222.wav,ro,fo,ri,sil,ta,fa,zu,sil1,be,ze,sil2,['catch'],[0.6543000001909149],[0.6543000001909149],0.0,beat,0.6543000001909149,0.6543000001909149,"[""space""]",ro,3,,,,,,,,,,,,,,,2 ,2.0,español,2 años,inglés,10 años,3.0,2.0,yes,no,yes,guitarra,8,flauta,8,teclado,8,,,Me pasó que mi atención fue oscilando entre baja y alta porque no conocía los idiomas,78.0,yes
146,2023-07-18_18h27.49.725,Unsyncopated1,s1,35 ,feminino,right,España,castellano,Doctorate,no,yes,A,2,conjunction_un,L1,unsyncopated,s2,r1,18,Online_conjL1_un//c.ro.fo1.none.none.wav,cho,zu,fa,sil,pu,lu,ni,sil1,ki,ze,sil2,['-'],,,none,none,,,,ro,3,,,,,,,,,,,,,,,2 ,2.0,español,2 años,inglés,10 años,3.0,2.0,yes,no,yes,guitarra,8,flauta,8,teclado,8,,,Me pasó que mi atención fue oscilando entre baja y alta porque no conocía los idiomas,78.0,yes
147,2023-07-18_18h27.49.725,Unsyncopated1,s1,35 ,feminino,right,España,castellano,Doctorate,no,yes,A,2,conjunction_un,L1,unsyncopated,s1,r1,19,Online_conjL1_un//c.ro.fo2.none.none.wav,pu,ni,ne,sil,ki,la,ri,sil1,cho,zu,sil2,['false alarm'],[1.791800000190733],[1.791800000190733],none,none,,,"[""space""]",ro,3,,,,,,,,,,,,,,,2 ,2.0,español,2 años,inglés,10 años,3.0,2.0,yes,no,yes,guitarra,8,flauta,8,teclado,8,,,Me pasó que mi atención fue oscilando entre baja y alta porque no conocía los idiomas,78.0,yes
148,2023-07-18_18h27.49.725,Unsyncopated1,s1,35 ,feminino,right,España,castellano,Doctorate,no,yes,A,2,conjunction_un,L1,unsyncopated,s2,r1,20,Online_conjL1_un//d.ne.ni19.none.none.wav,zu,fa,ri,sil,pu,lu,la,sil1,ki,ze,sil2,['-'],,,none,none,,,,ne,4,,,,,,,,,,,,,,,2 ,2.0,español,2 años,inglés,10 años,3.0,2.0,yes,no,yes,guitarra,8,flauta,8,teclado,8,,,Me pasó que mi atención fue oscilando entre baja y alta porque no conocía los idiomas,78.0,yes
149,2023-07-18_18h27.49.725,Unsyncopated1,s1,35 ,feminino,right,España,castellano,Doctorate,no,yes,A,2,conjunction_un,L1,unsyncopated,s2,r2,21,Online_conjL1_un//d.ne.ni16.444.1110.wav,ze,zu,ne,sil,ta,ni,fo,sil1,be,cho,sil2,['catch'],[1.524200000762903],[1.524200000762903],0.444,no_beat,1.0802000007629031,1.0802000007629031,"[""space""]",ne,4,,,,,,,,,,,,,,,2 ,2.0,español,2 años,inglés,10 años,3.0,2.0,yes,no,yes,guitarra,8,flauta,8,teclado,8,,,Me pasó que mi atención fue oscilando entre baja y alta porque no conocía los idiomas,78.0,yes
150,2023-07-18_18h27.49.725,Unsyncopated1,s1,35 ,feminino,right,España,castellano,Doctorate,no,yes,A,2,conjunction_un,L1,unsyncopated,s2,r2,22,Online_conjL1_un//d.ne.ni18.none.none.wav,fa,ro,fo,sil,ta,ri,lu,sil1,be,la,sil2,['-'],,,none,none,,,,ne,4,,,,,,,,,,,,,,,2 ,2.0,español,2 años,inglés,10 años,3.0,2.0,yes,no,yes,guitarra,8,flauta,8,teclado,8,,,Me pasó que mi atención fue oscilando entre baja y alta porque no conocía los idiomas,78.0,yes
151,2023-07-18_18h27.49.725,Unsyncopated1,s1,35 ,feminino,right,España,castellano,Doctorate,no,yes,A,2,conjunction_un,L1,unsyncopated,s2,r2,23,Online_conjL1_un//d.ne.ni17.0.1110.wav,ne,la,ro,sil,ta,ni,ri,sil1,be,cho,sil2,['catch'],[0.6353999996183575],[0.6353999996183575],0.0,beat,0.6353999996183575,0.6353999996183575,"[""space""]",ne,4,,,,,,,,,,,,,,,2 ,2.0,español,2 años,inglés,10 años,3.0,2.0,yes,no,yes,guitarra,8,flauta,8,teclado,8,,,Me pasó que mi atención fue oscilando entre baja y alta porque no conocía los idiomas,78.0,yes
152,2023-07-18_18h27.49.725,Unsyncopated1,s1,35 ,feminino,right,España,castellano,Doctorate,no,yes,A,2,conjunction_un,L1,unsyncopated,s2,r1,24,Online_conjL1_un//b.ta.be15.none.none.wav,fa,ri,cho,sil,pu,ne,la,sil1,ki,zu,sil2,['false alarm'],[1.0594999999998436],[1.0594999999998436],none,none,,,"[""space""]",ta,1,,,,,,,,,,,,,,,2 ,2.0,español,2 años,inglés,10 años,3.0,2.0,yes,no,yes,guitarra,8,flauta,8,teclado,8,,,Me pasó que mi atención fue oscilando entre baja y alta porque no conocía los idiomas,78.0,yes
153,2023-07-18_18h27.49.725,Unsyncopated1,s1,35 ,feminino,right,España,castellano,Doctorate,no,yes,A,2,conjunction_un,L1,unsyncopated,s1,r2,25,Online_conjL1_un//b.ta.be12.0.888.wav,ta,lu,fa,sil,be,ri,la,sil1,fo,zu,sil2,"['catch', 'false alarm']","[0.780199999809156, 2.34050000000002]",[0.780199999809156],0.0,beat,0.780199999809156,0.780199999809156,"[""space"",""space""]",ta,1,,,,,,,,,,,,,,,2 ,2.0,español,2 años,inglés,10 años,3.0,2.0,yes,no,yes,guitarra,8,flauta,8,teclado,8,,,Me pasó que mi atención fue oscilando entre baja y alta porque no conocía los idiomas,78.0,yes
154,2023-07-18_18h27.49.725,Unsyncopated1,s1,35 ,feminino,right,España,castellano,Doctorate,no,yes,A,2,conjunction_un,L1,unsyncopated,s1,r1,26,Online_conjL1_un//b.ta.be13.none.none.wav,pu,zu,fo,sil,ki,fa,ri,sil1,ro,ne,sil2,['-'],,,none,none,,,,ta,1,,,,,,,,,,,,,,,2 ,2.0,español,2 años,inglés,10 años,3.0,2.0,yes,no,yes,guitarra,8,flauta,8,teclado,8,,,Me pasó que mi atención fue oscilando entre baja y alta porque no conocía los idiomas,78.0,yes
155,2023-07-18_18h27.49.725,Unsyncopated1,s1,35 ,feminino,right,España,castellano,Doctorate,no,yes,A,2,conjunction_un,L1,unsyncopated,s1,r1,27,Online_conjL1_un//b.ta.be14.none.none.wav,pu,ri,la,sil,ki,cho,fo,sil1,lu,ze,sil2,['false alarm'],[2.2701999998093925],[2.2701999998093925],none,none,,,"[""space""]",ta,1,,,,,,,,,,,,,,,2 ,2.0,español,2 años,inglés,10 años,3.0,2.0,yes,no,yes,guitarra,8,flauta,8,teclado,8,,,Me pasó que mi atención fue oscilando entre baja y alta porque no conocía los idiomas,78.0,yes
156,2023-07-18_18h27.49.725,Unsyncopated1,s1,35 ,feminino,right,España,castellano,Doctorate,no,yes,A,2,conjunction_un,L1,unsyncopated,s2,r1,28,Online_conjL1_un//d.ne.ni26.none.none.wav,lu,ri,ro,sil,pu,cho,fa,sil1,ki,ze,sil2,['-'],,,none,none,,,,ne,4,,,,,,,,,,,,,,,2 ,2.0,español,2 años,inglés,10 años,3.0,2.0,yes,no,yes,guitarra,8,flauta,8,teclado,8,,,Me pasó que mi atención fue oscilando entre baja y alta porque no conocía los idiomas,78.0,yes
157,2023-07-18_18h27.49.725,Unsyncopated1,s1,35 ,feminino,right,España,castellano,Doctorate,no,yes,A,2,conjunction_un,L1,unsyncopated,s2,r2,29,Online_conjL1_un//d.ne.ni27.1110.0.wav,ni,fa,ri,sil,ta,ne,zu,sil1,be,la,sil2,['catch'],[1.8192000007629758],[1.8192000007629758],1.11,no_beat,0.7092000007629757,0.7092000007629757,"[""space""]",ne,4,,,,,,,,,,,,,,,2 ,2.0,español,2 años,inglés,10 años,3.0,2.0,yes,no,yes,guitarra,8,flauta,8,teclado,8,,,Me pasó que mi atención fue oscilando entre baja y alta porque no conocía los idiomas,78.0,yes
158,2023-07-18_18h27.49.725,Unsyncopated1,s1,35 ,feminino,right,España,castellano,Doctorate,no,yes,A,2,conjunction_un,L1,unsyncopated,s2,r1,30,Online_conjL1_un//d.ne.ni24.1110.222.wav,ri,ni,fa,sil,pu,ne,ro,sil1,ki,fo,sil2,['miss'],,,1.11,no_beat,,,,ne,4,,,,,,,,,,,,,,,2 ,2.0,español,2 años,inglés,10 años,3.0,2.0,yes,no,yes,guitarra,8,flauta,8,teclado,8,,,Me pasó que mi atención fue oscilando entre baja y alta porque no conocía los idiomas,78.0,yes
159,2023-07-18_18h27.49.725,Unsyncopated1,s1,35 ,feminino,right,España,castellano,Doctorate,no,yes,A,2,conjunction_un,L1,unsyncopated,s1,r2,31,Online_conjL1_un//d.ne.ni25.none.none.wav,ta,fa,ze,sil,be,ro,lu,sil1,la,fo,sil2,['-'],,,none,none,,,,ne,4,,,,,,,,,,,,,,,2 ,2.0,español,2 años,inglés,10 años,3.0,2.0,yes,no,yes,guitarra,8,flauta,8,teclado,8,,,Me pasó que mi atención fue oscilando entre baja y alta porque no conocía los idiomas,78.0,yes
160,2023-07-18_18h27.49.725,Unsyncopated1,s1,35 ,feminino,right,España,castellano,Doctorate,no,yes,A,2,conjunction_un,L1,unsyncopated,s1,r1,32,Online_conjL1_un//a.pu.ki5.0.888.wav,pu,lu,zu,sil,ki,fo,la,sil1,cho,ze,sil2,['catch'],[1.5515000000000327],[1.5515000000000327],0.888,beat,0.6635000000000327,0.6635000000000327,"[""space""]",ki,2,,,,,,,,,,,,,,,2 ,2.0,español,2 años,inglés,10 años,3.0,2.0,yes,no,yes,guitarra,8,flauta,8,teclado,8,,,Me pasó que mi atención fue oscilando entre baja y alta porque no conocía los idiomas,78.0,yes
161,2023-07-18_18h27.49.725,Unsyncopated1,s1,35 ,feminino,right,España,castellano,Doctorate,no,yes,A,2,conjunction_un,L1,unsyncopated,s1,r1,33,Online_conjL1_un//a.pu.ki7.0.888.wav,pu,la,fa,sil,ki,ri,ze,sil1,lu,ro,sil2,['miss'],,,0.888,beat,,,,ki,2,,,,,,,,,,,,,,,2 ,2.0,español,2 años,inglés,10 años,3.0,2.0,yes,no,yes,guitarra,8,flauta,8,teclado,8,,,Me pasó que mi atención fue oscilando entre baja y alta porque no conocía los idiomas,78.0,yes
162,2023-07-18_18h27.49.725,Unsyncopated1,s1,35 ,feminino,right,España,castellano,Doctorate,no,yes,A,2,conjunction_un,L1,unsyncopated,s2,r1,34,Online_conjL1_un//a.pu.ki4.888.1776.wav,ni,cho,fa,sil,pu,fo,ne,sil1,ki,la,sil2,['miss'],,,1.776,beat,,,,ki,2,,,,,,,,,,,,,,,2 ,2.0,español,2 años,inglés,10 años,3.0,2.0,yes,no,yes,guitarra,8,flauta,8,teclado,8,,,Me pasó que mi atención fue oscilando entre baja y alta porque no conocía los idiomas,78.0,yes
163,2023-07-18_18h27.49.725,Unsyncopated1,s1,35 ,feminino,right,España,castellano,Doctorate,no,yes,A,2,conjunction_un,L1,unsyncopated,s1,r1,35,Online_conjL1_un//a.pu.ki6.0.888.wav,pu,cho,fa,sil,ki,zu,ni,sil1,ne,ro,sil2,['miss'],,,0.888,beat,,,,ki,2,,,,,,,,,,,,,,,2 ,2.0,español,2 años,inglés,10 años,3.0,2.0,yes,no,yes,guitarra,8,flauta,8,teclado,8,,,Me pasó que mi atención fue oscilando entre baja y alta porque no conocía los idiomas,78.0,yes
164,2023-07-18_18h27.49.725,Unsyncopated1,s1,35 ,feminino,right,España,castellano,Doctorate,no,yes,A,2,conjunction_un,L1,unsyncopated,s1,r1,36,Online_conjL1_un//d.ne.ni15.222.1110.wav,pu,ne,ze,sil,ki,ni,cho,sil1,lu,zu,sil2,['catch'],[1.012899999618412],[1.012899999618412],0.222,no_beat,0.7908999996184121,0.7908999996184121,"[""space""]",ne,4,,,,,,,,,,,,,,,2 ,2.0,español,2 años,inglés,10 años,3.0,2.0,yes,no,yes,guitarra,8,flauta,8,teclado,8,,,Me pasó que mi atención fue oscilando entre baja y alta porque no conocía los idiomas,78.0,yes
165,2023-07-18_18h27.49.725,Unsyncopated1,s1,35 ,feminino,right,España,castellano,Doctorate,no,yes,A,2,conjunction_un,L1,unsyncopated,s1,r2,37,Online_conjL1_un//d.ne.ni14.222.1332.wav,ta,ne,ri,sil,be,fa,ni,sil1,cho,ro,sil2,['miss'],,,0.222,no_beat,,,,ne,4,,,,,,,,,,,,,,,2 ,2.0,español,2 años,inglés,10 años,3.0,2.0,yes,no,yes,guitarra,8,flauta,8,teclado,8,,,Me pasó que mi atención fue oscilando entre baja y alta porque no conocía los idiomas,78.0,yes
166,2023-07-18_18h27.49.725,Unsyncopated1,s1,35 ,feminino,right,España,castellano,Doctorate,no,yes,A,2,conjunction_un,L1,unsyncopated,s1,r2,38,Online_conjL1_un//d.ne.ni13.none.none.wav,ta,ri,fa,sil,be,fo,ze,sil1,ro,zu,sil2,['-'],,,none,none,,,,ne,4,,,,,,,,,,,,,,,2 ,2.0,español,2 años,inglés,10 años,3.0,2.0,yes,no,yes,guitarra,8,flauta,8,teclado,8,,,Me pasó que mi atención fue oscilando entre baja y alta porque no conocía los idiomas,78.0,yes
167,2023-07-18_18h27.49.725,Unsyncopated1,s1,35 ,feminino,right,España,castellano,Doctorate,no,yes,A,2,conjunction_un,L1,unsyncopated,s1,r1,39,Online_conjL1_un//d.ne.ni12.1332.444.wav,pu,fo,ni,sil,ki,ri,ne,sil1,fa,zu,sil2,['miss'],,,1.332,no_beat,,,,ne,4,,,,,,,,,,,,,,,2 ,2.0,español,2 años,inglés,10 años,3.0,2.0,yes,no,yes,guitarra,8,flauta,8,teclado,8,,,Me pasó que mi atención fue oscilando entre baja y alta porque no conocía los idiomas,78.0,yes
168,2023-07-18_18h27.49.725,Unsyncopated1,s1,35 ,feminino,right,España,castellano,Doctorate,no,yes,A,2,conjunction_un,L1,unsyncopated,s1,r1,40,Online_conjL1_un//c.ro.fo22.444.1332.wav,pu,la,ro,sil,ki,ri,fo,sil1,cho,ni,sil2,"['false alarm', 'catch']","[0.027000000000043656, 1.1293000001905966]",[1.1293000001905966],0.444,no_beat,0.6853000001905967,0.6853000001905967,"[""space"",""space""]",ro,3,,,,,,,,,,,,,,,2 ,2.0,español,2 años,inglés,10 años,3.0,2.0,yes,no,yes,guitarra,8,flauta,8,teclado,8,,,Me pasó que mi atención fue oscilando entre baja y alta porque no conocía los idiomas,78.0,yes
169,2023-07-18_18h27.49.725,Unsyncopated1,s1,35 ,feminino,right,España,castellano,Doctorate,no,yes,A,2,conjunction_un,L1,unsyncopated,s2,r1,41,Online_conjL1_un//c.ro.fo21.none.none.wav,zu,lu,cho,sil,pu,la,ne,sil1,ki,fa,sil2,['-'],,,none,none,,,,ro,3,,,,,,,,,,,,,,,2 ,2.0,español,2 años,inglés,10 años,3.0,2.0,yes,no,yes,guitarra,8,flauta,8,teclado,8,,,Me pasó que mi atención fue oscilando entre baja y alta porque no conocía los idiomas,78.0,yes
170,2023-07-18_18h27.49.725,Unsyncopated1,s1,35 ,feminino,right,España,castellano,Doctorate,no,yes,A,2,conjunction_un,L1,unsyncopated,s1,r1,42,Online_conjL1_un//c.ro.fo23.444.1332.wav,pu,ri,ro,sil,ki,ne,fo,sil1,cho,ze,sil2,['miss'],,,0.444,no_beat,,,,ro,3,,,,,,,,,,,,,,,2 ,2.0,español,2 años,inglés,10 años,3.0,2.0,yes,no,yes,guitarra,8,flauta,8,teclado,8,,,Me pasó que mi atención fue oscilando entre baja y alta porque no conocía los idiomas,78.0,yes
171,2023-07-18_18h27.49.725,Unsyncopated1,s1,35 ,feminino,right,España,castellano,Doctorate,no,yes,A,2,conjunction_un,L1,unsyncopated,s1,r2,43,Online_conjL1_un//c.ro.fo20.none.none.wav,ta,ri,ni,sil,be,ze,cho,sil1,la,fa,sil2,['-'],,,none,none,,,,ro,3,,,,,,,,,,,,,,,2 ,2.0,español,2 años,inglés,10 años,3.0,2.0,yes,no,yes,guitarra,8,flauta,8,teclado,8,,,Me pasó que mi atención fue oscilando entre baja y alta porque no conocía los idiomas,78.0,yes
172,2023-07-18_18h27.49.725,Unsyncopated1,s1,35 ,feminino,right,España,castellano,Doctorate,no,yes,A,2,conjunction_un,L1,unsyncopated,s2,r1,44,Online_conjL1_un//b.ta.be5.none.none.wav,ri,ni,fo,sil,pu,la,ze,sil1,ki,zu,sil2,['false alarm'],[1.1987999992370533],[1.1987999992370533],none,none,,,"[""space""]",ta,1,,,,,,,,,,,,,,,2 ,2.0,español,2 años,inglés,10 años,3.0,2.0,yes,no,yes,guitarra,8,flauta,8,teclado,8,,,Me pasó que mi atención fue oscilando entre baja y alta porque no conocía los idiomas,78.0,yes
173,2023-07-18_18h27.49.725,Unsyncopated1,s1,35 ,feminino,right,España,castellano,Doctorate,no,yes,A,2,conjunction_un,L1,unsyncopated,s2,r1,45,Online_conjL1_un//b.ta.be6.none.none.wav,la,fo,cho,sil,pu,fa,ro,sil1,ki,ze,sil2,['-'],,,none,none,,,,ta,1,,,,,,,,,,,,,,,2 ,2.0,español,2 años,inglés,10 años,3.0,2.0,yes,no,yes,guitarra,8,flauta,8,teclado,8,,,Me pasó que mi atención fue oscilando entre baja y alta porque no conocía los idiomas,78.0,yes
174,2023-07-18_18h27.49.725,Unsyncopated1,s1,35 ,feminino,right,España,castellano,Doctorate,no,yes,A,2,conjunction_un,L1,unsyncopated,s2,r1,46,Online_conjL1_un//b.ta.be7.none.none.wav,zu,fa,lu,sil,pu,fo,ri,sil1,ki,ne,sil2,['-'],,,none,none,,,,ta,1,,,,,,,,,,,,,,,2 ,2.0,español,2 años,inglés,10 años,3.0,2.0,yes,no,yes,guitarra,8,flauta,8,teclado,8,,,Me pasó que mi atención fue oscilando entre baja y alta porque no conocía los idiomas,78.0,yes
175,2023-07-18_18h27.49.725,Unsyncopated1,s1,35 ,feminino,right,España,castellano,Doctorate,no,yes,A,2,conjunction_un,L1,unsyncopated,s2,r2,47,Online_conjL1_un//b.ta.be4.888.1776.wav,fa,ri,cho,sil,ta,ni,ze,sil1,be,ro,sil2,['miss'],,,0.888,beat,,,,ta,1,,,,,,,,,,,,,,,2 ,2.0,español,2 años,inglés,10 años,3.0,2.0,yes,no,yes,guitarra,8,flauta,8,teclado,8,,,Me pasó que mi atención fue oscilando entre baja y alta porque no conocía los idiomas,78.0,yes
176,2023-07-18_18h27.49.725,Unsyncopated1,s1,35 ,feminino,right,España,castellano,Doctorate,no,yes,A,2,conjunction_un,L1,unsyncopated,s1,r2,48,Online_conjL1_un//b.ta.be3.0.888.wav,ta,fa,ri,sil,be,lu,ro,sil1,zu,la,sil2,['catch'],[1.4793999996186358],[1.4793999996186358],0.0,beat,,1.4793999996186358,"[""space""]",ta,1,,,,,,,,,,,,,,,2 ,2.0,español,2 años,inglés,10 años,3.0,2.0,yes,no,yes,guitarra,8,flauta,8,teclado,8,,,Me pasó que mi atención fue oscilando entre baja y alta porque no conocía los idiomas,78.0,yes
177,2023-07-18_18h27.49.725,Unsyncopated1,s1,35 ,feminino,right,España,castellano,Doctorate,no,yes,A,2,conjunction_un,L1,unsyncopated,s2,r1,49,Online_conjL1_un//b.ta.be0.none.none.wav,fa,fo,ze,sil,pu,ri,zu,sil1,ki,ne,sil2,['-'],,,none,none,,,,ta,1,,,,,,,,,,,,,,,2 ,2.0,español,2 años,inglés,10 años,3.0,2.0,yes,no,yes,guitarra,8,flauta,8,teclado,8,,,Me pasó que mi atención fue oscilando entre baja y alta porque no conocía los idiomas,78.0,yes
178,2023-07-18_18h27.49.725,Unsyncopated1,s1,35 ,feminino,right,España,castellano,Doctorate,no,yes,A,2,conjunction_un,L1,unsyncopated,s1,r1,50,Online_conjL1_un//b.ta.be2.none.none.wav,pu,ro,ri,sil,ki,fa,la,sil1,ze,zu,sil2,['-'],,,none,none,,,,ta,1,,,,,,,,,,,,,,,2 ,2.0,español,2 años,inglés,10 años,3.0,2.0,yes,no,yes,guitarra,8,flauta,8,teclado,8,,,Me pasó que mi atención fue oscilando entre baja y alta porque no conocía los idiomas,78.0,yes
179,2023-07-18_18h27.49.725,Unsyncopated1,s1,35 ,feminino,right,España,castellano,Doctorate,no,yes,A,2,conjunction_un,L1,unsyncopated,s1,r1,51,Online_conjL1_un//b.ta.be1.none.none.wav,pu,fa,ne,sil,ki,fo,lu,sil1,cho,la,sil2,['-'],,,none,none,,,,ta,1,,,,,,,,,,,,,,,2 ,2.0,español,2 años,inglés,10 años,3.0,2.0,yes,no,yes,guitarra,8,flauta,8,teclado,8,,,Me pasó que mi atención fue oscilando entre baja y alta porque no conocía los idiomas,78.0,yes
180,2023-07-18_18h27.49.725,Unsyncopated1,s1,35 ,feminino,right,España,castellano,Doctorate,no,yes,A,2,conjunction_un,L1,unsyncopated,s2,r2,52,Online_conjL1_un//c.ro.fo31.0.1110.wav,ro,ne,zu,sil,ta,fo,cho,sil1,be,ri,sil2,['catch'],[0.8618000001906694],[0.8618000001906694],0.0,beat,0.8618000001906694,0.8618000001906694,"[""space""]",ro,3,,,,,,,,,,,,,,,2 ,2.0,español,2 años,inglés,10 años,3.0,2.0,yes,no,yes,guitarra,8,flauta,8,teclado,8,,,Me pasó que mi atención fue oscilando entre baja y alta porque no conocía los idiomas,78.0,yes
181,2023-07-18_18h27.49.725,Unsyncopated1,s1,35 ,feminino,right,España,castellano,Doctorate,no,yes,A,2,conjunction_un,L1,unsyncopated,s1,r1,53,Online_conjL1_un//c.ro.fo30.none.none.wav,pu,ni,cho,sil,ki,la,lu,sil1,ne,fa,sil2,['-'],,,none,none,,,,ro,3,,,,,,,,,,,,,,,2 ,2.0,español,2 años,inglés,10 años,3.0,2.0,yes,no,yes,guitarra,8,flauta,8,teclado,8,,,Me pasó que mi atención fue oscilando entre baja y alta porque no conocía los idiomas,78.0,yes
182,2023-07-18_18h27.49.725,Unsyncopated1,s1,35 ,feminino,right,España,castellano,Doctorate,no,yes,A,2,conjunction_un,L1,unsyncopated,s1,r2,54,Online_conjL1_un//c.ro.fo28.444.1110.wav,ta,lu,ro,sil,be,fo,ri,sil1,cho,fa,sil2,['miss'],,,0.444,no_beat,,,,ro,3,,,,,,,,,,,,,,,2 ,2.0,español,2 años,inglés,10 años,3.0,2.0,yes,no,yes,guitarra,8,flauta,8,teclado,8,,,Me pasó que mi atención fue oscilando entre baja y alta porque no conocía los idiomas,78.0,yes
183,2023-07-18_18h27.49.725,Unsyncopated1,s1,35 ,feminino,right,España,castellano,Doctorate,no,yes,A,2,conjunction_un,L1,unsyncopated,s1,r1,55,Online_conjL1_un//c.ro.fo29.1110.1332.wav,pu,fa,ni,sil,ki,ro,fo,sil1,zu,cho,sil2,['miss'],,,1.11,no_beat,,,,ro,3,,,,,,,,,,,,,,,2 ,2.0,español,2 años,inglés,10 años,3.0,2.0,yes,no,yes,guitarra,8,flauta,8,teclado,8,,,Me pasó que mi atención fue oscilando entre baja y alta porque no conocía los idiomas,78.0,yes
184,2023-07-18_18h27.49.725,Unsyncopated1,s1,35 ,feminino,right,España,castellano,Doctorate,no,yes,A,2,conjunction_un,L1,unsyncopated,s2,r2,56,Online_conjL1_un//d.ne.ni11.none.none.wav,ro,zu,la,sil,ta,ze,cho,sil1,be,fa,sil2,['-'],,,none,none,,,,ne,4,,,,,,,,,,,,,,,2 ,2.0,español,2 años,inglés,10 años,3.0,2.0,yes,no,yes,guitarra,8,flauta,8,teclado,8,,,Me pasó que mi atención fue oscilando entre baja y alta porque no conocía los idiomas,78.0,yes
185,2023-07-18_18h27.49.725,Unsyncopated1,s1,35 ,feminino,right,España,castellano,Doctorate,no,yes,A,2,conjunction_un,L1,unsyncopated,s2,r1,57,Online_conjL1_un//d.ne.ni10.1110.222.wav,la,ni,cho,sil,pu,ne,lu,sil1,ki,zu,sil2,['miss'],,,1.11,no_beat,,,,ne,4,,,,,,,,,,,,,,,2 ,2.0,español,2 años,inglés,10 años,3.0,2.0,yes,no,yes,guitarra,8,flauta,8,teclado,8,,,Me pasó que mi atención fue oscilando entre baja y alta porque no conocía los idiomas,78.0,yes
186,2023-07-18_18h27.49.725,Unsyncopated1,s1,35 ,feminino,right,España,castellano,Doctorate,no,yes,A,2,conjunction_un,L1,unsyncopated,s1,r2,58,Online_conjL1_un//d.ne.ni9.none.none.wav,ta,ro,fo,sil,be,zu,cho,sil1,lu,ze,sil2,['-'],,,none,none,,,,ne,4,,,,,,,,,,,,,,,2 ,2.0,español,2 años,inglés,10 años,3.0,2.0,yes,no,yes,guitarra,8,flauta,8,teclado,8,,,Me pasó que mi atención fue oscilando entre baja y alta porque no conocía los idiomas,78.0,yes
187,2023-07-18_18h27.49.725,Unsyncopated1,s1,35 ,feminino,right,España,castellano,Doctorate,no,yes,A,2,conjunction_un,L1,unsyncopated,s1,r2,59,Online_conjL1_un//d.ne.ni8.1776.222.wav,ta,ni,ri,sil,be,zu,lu,sil1,ne,fa,sil2,['catch_delay'],[0.946699999809278],[0.946699999809278],1.776,beat,0.946699999809278,0.946699999809278,,ne,4,,,,,,,,,,,,,,,2 ,2.0,español,2 años,inglés,10 años,3.0,2.0,yes,no,yes,guitarra,8,flauta,8,teclado,8,,,Me pasó que mi atención fue oscilando entre baja y alta porque no conocía los idiomas,78.0,yes
188,2023-07-18_18h27.49.725,Unsyncopated1,s1,35 ,feminino,right,España,castellano,Doctorate,no,yes,A,2,conjunction_un,L1,unsyncopated,s2,r2,60,Online_conjL1_un//b.ta.be27.888.1776.wav,fo,ni,lu,sil,ta,ne,ro,sil1,be,fa,sil2,['catch'],"[0.05869999980927787, 1.8426999998093834]",[1.8426999998093834],0.888,beat,0.9546999998093834,0.9546999998093834,"[""space"",""space""]",ta,1,,,,,,,,,,,,,,,2 ,2.0,español,2 años,inglés,10 años,3.0,2.0,yes,no,yes,guitarra,8,flauta,8,teclado,8,,,Me pasó que mi atención fue oscilando entre baja y alta porque no conocía los idiomas,78.0,yes
