Unnamed: 0,date,expName,participant,age,sex,hand,residence,native_lang,education_level,lang_deficit,aud_deficit,group,block,condition,language,rhythm,rule structure online,rule type online,order_trial_on,trial_online,s1,s2,s3,s4,s5,s6,s7,s8,s9,s10,s11,catch_syll_resp,rts_syll_catch,clean_rts,time_syll,beat_no_beat,catch_rtsTR,catch_rts,syllable_catch.keys,cond_syll,syll_to_catch,test_offline,block_off,condition_off,rhythm_off,rule,rule_str_off,rule_norule,conds_offline,language_off,Partz_no_partm.keys,Partz_no_partm.rt,security_1_7.keys,accuracy,security_1_7.rt,n_lang,n_lang_used,lang_1,age_l1,lang_2,age_l2,lang_3,age_l3,ability_learn_l2,tendence_mix_lan,music_experience,muisc_use,partiture,instr_1,age_M1,preguntas_musica1,BMRQ_answer.response,final comment,BMRQ_Score,bilingual
0,2023-07-30_15h18.46.235,Unsyncopated1,s6,26.0,feminino,right,Espanya,CatalàCastellà,Master degree,no,no,A,1,conjunction_un,L1,unsyncopated,s1,r1,0,Online_conjL1_un//b.ta.be23.none.none.wav,pu,ro,zu,sil,ki,ze,ni,sil1,fo,ri,sil2,['-'],,,none,none,,,,ta,1,testConjL1Uns//r2.s1.1.wav,1.0,conjunction_un,unsyncopated,b,s1,rule,rule,L1,z,0.8317,6.0,1.0,5.7731,3.0,3.0,Català,Nativo,Castellano,Nativo,English,Preescolar (3-5a.),3.0,4.0,yes,no,yes,Flauta,12,1. Cuando comparto música con alguien siento una complicidad especial con aquella persona.,3.0,"En la tarea dos, la de reconocer sílabas, me he encontrado con varios aspectos que puede que sean los esperados pero los escribo aquí para si pueden resultar útiles:- Me hubiera gustado tener unos instantes de prueba antes de empezar, pues sobre todo en el primer lenguaje, y aun que este explicado al inicio, he tardado un tiempo después de ya haber empezado el ejercicio para acabar de entender bien lo que me pedían.- También he tenido confusión con algunas sílabas que me pedían que reconociera Por ejemplo, en el lenguaje 4 había la sílaba ""ji"" pero no creo haberla escuchado en ningún momento lo que me lleva a pensar que me hubiera gustado, antes de empezar, que me dijeran como exactamente debían de pronunciarse o sonar dichas sílabas, pues algunas, como ""ja"" pueden ser pronunciadas de formas distintas en función de la lengua y contexto.- También me he encontrado que durante el test al ir cambiando la sílaba a detectar de manera aleatoria en medio del ejercicio a veces me he encontrado que al realizar el cambio justo después de que apareciera la sílaba que debía detectar al clicar el espacio no sabia si era correcto o que estaba contando la fase anterior o se consideraba incorrecto pues ya consideraba que estaba en una nueva fase con una nueva sílaba. Personalmente me hubiera gustado unos instantes de pausa al cambiar de silaba o que esta cambiara cuando no se estaba pronunciando nada.Esto es todo, solo destacar de nuevo que estos han sido mis pensamientos hablado des de la ignorancia al realizar dicha tarea, y puede que ya hayan sido tomados en consideración y tenidos en cuenta en el experimento.Muchas gracias!",56.0,yes
1,2023-07-30_15h18.46.235,Unsyncopated1,s6,26.0,feminino,right,Espanya,CatalàCastellà,Master degree,no,no,A,1,conjunction_un,L1,unsyncopated,s1,r1,1,Online_conjL1_un//b.ta.be22.none.none.wav,pu,ze,fa,sil,ki,zu,cho,sil1,ro,la,sil2,['-'],,,none,none,,,,ta,1,testConjL1Uns//time_viol.r2.s1.0.wav,1.0,conjunction_un,unsyncopated,b,s1,no_rule,time,L1,z,4.4104,4.0,0.0,4.7523,3.0,3.0,Català,Nativo,Castellano,Nativo,English,Preescolar (3-5a.),3.0,4.0,yes,no,yes,Flauta,12,2. En mi tiempo libre apenas escucho música.,4.0,"En la tarea dos, la de reconocer sílabas, me he encontrado con varios aspectos que puede que sean los esperados pero los escribo aquí para si pueden resultar útiles:- Me hubiera gustado tener unos instantes de prueba antes de empezar, pues sobre todo en el primer lenguaje, y aun que este explicado al inicio, he tardado un tiempo después de ya haber empezado el ejercicio para acabar de entender bien lo que me pedían.- También he tenido confusión con algunas sílabas que me pedían que reconociera Por ejemplo, en el lenguaje 4 había la sílaba ""ji"" pero no creo haberla escuchado en ningún momento lo que me lleva a pensar que me hubiera gustado, antes de empezar, que me dijeran como exactamente debían de pronunciarse o sonar dichas sílabas, pues algunas, como ""ja"" pueden ser pronunciadas de formas distintas en función de la lengua y contexto.- También me he encontrado que durante el test al ir cambiando la sílaba a detectar de manera aleatoria en medio del ejercicio a veces me he encontrado que al realizar el cambio justo después de que apareciera la sílaba que debía detectar al clicar el espacio no sabia si era correcto o que estaba contando la fase anterior o se consideraba incorrecto pues ya consideraba que estaba en una nueva fase con una nueva sílaba. Personalmente me hubiera gustado unos instantes de pausa al cambiar de silaba o que esta cambiara cuando no se estaba pronunciando nada.Esto es todo, solo destacar de nuevo que estos han sido mis pensamientos hablado des de la ignorancia al realizar dicha tarea, y puede que ya hayan sido tomados en consideración y tenidos en cuenta en el experimento.Muchas gracias!",56.0,yes
2,2023-07-30_15h18.46.235,Unsyncopated1,s6,26.0,feminino,right,Espanya,CatalàCastellà,Master degree,no,no,A,1,conjunction_un,L1,unsyncopated,s1,r1,2,Online_conjL1_un//b.ta.be20.none.none.wav,pu,ri,ro,sil,ki,ze,ne,sil1,zu,fa,sil2,"['false alarm', 'false alarm']","[0.7084999999988213, 2.448599999963335]",2.448599999963335,none,none,,,"[""space"",""space""]",ta,1,testConjL1Uns//r1.s2.0.wav,1.0,conjunction_un,unsyncopated,a,s2,rule,rule,L1,m,1.7961,3.0,0.0,3.3659,3.0,3.0,Català,Nativo,Castellano,Nativo,English,Preescolar (3-5a.),3.0,4.0,yes,no,yes,Flauta,12,3. Algunas canciones me ponen los pelos de punta,2.0,"En la tarea dos, la de reconocer sílabas, me he encontrado con varios aspectos que puede que sean los esperados pero los escribo aquí para si pueden resultar útiles:- Me hubiera gustado tener unos instantes de prueba antes de empezar, pues sobre todo en el primer lenguaje, y aun que este explicado al inicio, he tardado un tiempo después de ya haber empezado el ejercicio para acabar de entender bien lo que me pedían.- También he tenido confusión con algunas sílabas que me pedían que reconociera Por ejemplo, en el lenguaje 4 había la sílaba ""ji"" pero no creo haberla escuchado en ningún momento lo que me lleva a pensar que me hubiera gustado, antes de empezar, que me dijeran como exactamente debían de pronunciarse o sonar dichas sílabas, pues algunas, como ""ja"" pueden ser pronunciadas de formas distintas en función de la lengua y contexto.- También me he encontrado que durante el test al ir cambiando la sílaba a detectar de manera aleatoria en medio del ejercicio a veces me he encontrado que al realizar el cambio justo después de que apareciera la sílaba que debía detectar al clicar el espacio no sabia si era correcto o que estaba contando la fase anterior o se consideraba incorrecto pues ya consideraba que estaba en una nueva fase con una nueva sílaba. Personalmente me hubiera gustado unos instantes de pausa al cambiar de silaba o que esta cambiara cuando no se estaba pronunciando nada.Esto es todo, solo destacar de nuevo que estos han sido mis pensamientos hablado des de la ignorancia al realizar dicha tarea, y puede que ya hayan sido tomados en consideración y tenidos en cuenta en el experimento.Muchas gracias!",56.0,yes
3,2023-07-30_15h18.46.235,Unsyncopated1,s6,26.0,feminino,right,Espanya,CatalàCastellà,Master degree,no,no,A,1,conjunction_un,L1,unsyncopated,s1,r2,3,Online_conjL1_un//b.ta.be21.0.888.wav,ta,fo,ri,sil,be,lu,ni,sil1,zu,la,sil2,['catch'],[0.5930999999654887],[0.5930999999654887],0.0,beat,0.5930999999654887,0.5930999999654887,"[""space""]",ta,1,testConjL1Uns//dep_viol.r2.s2.0.wav,1.0,conjunction_un,unsyncopated,b,s2,no_rule,dep,L1,z,0.8377,7.0,0.0,1.557,3.0,3.0,Català,Nativo,Castellano,Nativo,English,Preescolar (3-5a.),3.0,4.0,yes,no,yes,Flauta,12,4. La música me hace compañía cuando estoy solo,4.0,"En la tarea dos, la de reconocer sílabas, me he encontrado con varios aspectos que puede que sean los esperados pero los escribo aquí para si pueden resultar útiles:- Me hubiera gustado tener unos instantes de prueba antes de empezar, pues sobre todo en el primer lenguaje, y aun que este explicado al inicio, he tardado un tiempo después de ya haber empezado el ejercicio para acabar de entender bien lo que me pedían.- También he tenido confusión con algunas sílabas que me pedían que reconociera Por ejemplo, en el lenguaje 4 había la sílaba ""ji"" pero no creo haberla escuchado en ningún momento lo que me lleva a pensar que me hubiera gustado, antes de empezar, que me dijeran como exactamente debían de pronunciarse o sonar dichas sílabas, pues algunas, como ""ja"" pueden ser pronunciadas de formas distintas en función de la lengua y contexto.- También me he encontrado que durante el test al ir cambiando la sílaba a detectar de manera aleatoria en medio del ejercicio a veces me he encontrado que al realizar el cambio justo después de que apareciera la sílaba que debía detectar al clicar el espacio no sabia si era correcto o que estaba contando la fase anterior o se consideraba incorrecto pues ya consideraba que estaba en una nueva fase con una nueva sílaba. Personalmente me hubiera gustado unos instantes de pausa al cambiar de silaba o que esta cambiara cuando no se estaba pronunciando nada.Esto es todo, solo destacar de nuevo que estos han sido mis pensamientos hablado des de la ignorancia al realizar dicha tarea, y puede que ya hayan sido tomados en consideración y tenidos en cuenta en el experimento.Muchas gracias!",56.0,yes
4,2023-07-30_15h18.46.235,Unsyncopated1,s6,26.0,feminino,right,Espanya,CatalàCastellà,Master degree,no,no,A,1,conjunction_un,L1,unsyncopated,s2,r2,4,Online_conjL1_un//d.ne.ni16.444.1110.wav,ze,zu,ne,sil,ta,ni,fo,sil1,be,cho,sil2,['catch'],[1.302899999976944],[1.302899999976944],0.444,no_beat,0.858899999976944,0.858899999976944,"[""space""]",ne,4,testConjL1Uns//r1.s2.1.wav,1.0,conjunction_un,unsyncopated,a,s2,rule,rule,L1,z,4.243,5.0,1.0,1.0809,3.0,3.0,Català,Nativo,Castellano,Nativo,English,Preescolar (3-5a.),3.0,4.0,yes,no,yes,Flauta,12,5. No me apetece bailar ni con la música que más me gusta,4.0,"En la tarea dos, la de reconocer sílabas, me he encontrado con varios aspectos que puede que sean los esperados pero los escribo aquí para si pueden resultar útiles:- Me hubiera gustado tener unos instantes de prueba antes de empezar, pues sobre todo en el primer lenguaje, y aun que este explicado al inicio, he tardado un tiempo después de ya haber empezado el ejercicio para acabar de entender bien lo que me pedían.- También he tenido confusión con algunas sílabas que me pedían que reconociera Por ejemplo, en el lenguaje 4 había la sílaba ""ji"" pero no creo haberla escuchado en ningún momento lo que me lleva a pensar que me hubiera gustado, antes de empezar, que me dijeran como exactamente debían de pronunciarse o sonar dichas sílabas, pues algunas, como ""ja"" pueden ser pronunciadas de formas distintas en función de la lengua y contexto.- También me he encontrado que durante el test al ir cambiando la sílaba a detectar de manera aleatoria en medio del ejercicio a veces me he encontrado que al realizar el cambio justo después de que apareciera la sílaba que debía detectar al clicar el espacio no sabia si era correcto o que estaba contando la fase anterior o se consideraba incorrecto pues ya consideraba que estaba en una nueva fase con una nueva sílaba. Personalmente me hubiera gustado unos instantes de pausa al cambiar de silaba o que esta cambiara cuando no se estaba pronunciando nada.Esto es todo, solo destacar de nuevo que estos han sido mis pensamientos hablado des de la ignorancia al realizar dicha tarea, y puede que ya hayan sido tomados en consideración y tenidos en cuenta en el experimento.Muchas gracias!",56.0,yes
5,2023-07-30_15h18.46.235,Unsyncopated1,s6,26.0,feminino,right,Espanya,CatalàCastellà,Master degree,no,no,A,1,conjunction_un,L1,unsyncopated,s2,r2,5,Online_conjL1_un//d.ne.ni18.none.none.wav,fa,ro,fo,sil,ta,ri,lu,sil1,be,la,sil2,"['false alarm', 'false alarm']","[0.34719999998742423, 1.2987999999513704]",1.2987999999513704,none,none,,,"[""space"",""space""]",ne,4,testConjL1Uns//r2.s2.2.wav,1.0,conjunction_un,unsyncopated,b,s2,rule,rule,L1,m,5.5616,2.0,0.0,1.0813,3.0,3.0,Català,Nativo,Castellano,Nativo,English,Preescolar (3-5a.),3.0,4.0,yes,no,yes,Flauta,12,6. La música me hace conectar con la gente,3.0,"En la tarea dos, la de reconocer sílabas, me he encontrado con varios aspectos que puede que sean los esperados pero los escribo aquí para si pueden resultar útiles:- Me hubiera gustado tener unos instantes de prueba antes de empezar, pues sobre todo en el primer lenguaje, y aun que este explicado al inicio, he tardado un tiempo después de ya haber empezado el ejercicio para acabar de entender bien lo que me pedían.- También he tenido confusión con algunas sílabas que me pedían que reconociera Por ejemplo, en el lenguaje 4 había la sílaba ""ji"" pero no creo haberla escuchado en ningún momento lo que me lleva a pensar que me hubiera gustado, antes de empezar, que me dijeran como exactamente debían de pronunciarse o sonar dichas sílabas, pues algunas, como ""ja"" pueden ser pronunciadas de formas distintas en función de la lengua y contexto.- También me he encontrado que durante el test al ir cambiando la sílaba a detectar de manera aleatoria en medio del ejercicio a veces me he encontrado que al realizar el cambio justo después de que apareciera la sílaba que debía detectar al clicar el espacio no sabia si era correcto o que estaba contando la fase anterior o se consideraba incorrecto pues ya consideraba que estaba en una nueva fase con una nueva sílaba. Personalmente me hubiera gustado unos instantes de pausa al cambiar de silaba o que esta cambiara cuando no se estaba pronunciando nada.Esto es todo, solo destacar de nuevo que estos han sido mis pensamientos hablado des de la ignorancia al realizar dicha tarea, y puede que ya hayan sido tomados en consideración y tenidos en cuenta en el experimento.Muchas gracias!",56.0,yes
6,2023-07-30_15h18.46.235,Unsyncopated1,s6,26.0,feminino,right,Espanya,CatalàCastellà,Master degree,no,no,A,1,conjunction_un,L1,unsyncopated,s2,r2,6,Online_conjL1_un//d.ne.ni17.0.1110.wav,ne,la,ro,sil,ta,ni,ri,sil1,be,cho,sil2,['catch'],[1.231900000035239],[1.231900000035239],0.0,beat,,1.231900000035239,"[""space""]",ne,4,testConjL1Uns//cat_viol.r2.s2.0.wav,1.0,conjunction_un,unsyncopated,b,s2,no_rule,cat,L1,z,0.5249,6.0,0.0,1.2213,3.0,3.0,Català,Nativo,Castellano,Nativo,English,Preescolar (3-5a.),3.0,4.0,yes,no,yes,Flauta,12,7. Me informo sobre la música que me gusta.,2.0,"En la tarea dos, la de reconocer sílabas, me he encontrado con varios aspectos que puede que sean los esperados pero los escribo aquí para si pueden resultar útiles:- Me hubiera gustado tener unos instantes de prueba antes de empezar, pues sobre todo en el primer lenguaje, y aun que este explicado al inicio, he tardado un tiempo después de ya haber empezado el ejercicio para acabar de entender bien lo que me pedían.- También he tenido confusión con algunas sílabas que me pedían que reconociera Por ejemplo, en el lenguaje 4 había la sílaba ""ji"" pero no creo haberla escuchado en ningún momento lo que me lleva a pensar que me hubiera gustado, antes de empezar, que me dijeran como exactamente debían de pronunciarse o sonar dichas sílabas, pues algunas, como ""ja"" pueden ser pronunciadas de formas distintas en función de la lengua y contexto.- También me he encontrado que durante el test al ir cambiando la sílaba a detectar de manera aleatoria en medio del ejercicio a veces me he encontrado que al realizar el cambio justo después de que apareciera la sílaba que debía detectar al clicar el espacio no sabia si era correcto o que estaba contando la fase anterior o se consideraba incorrecto pues ya consideraba que estaba en una nueva fase con una nueva sílaba. Personalmente me hubiera gustado unos instantes de pausa al cambiar de silaba o que esta cambiara cuando no se estaba pronunciando nada.Esto es todo, solo destacar de nuevo que estos han sido mis pensamientos hablado des de la ignorancia al realizar dicha tarea, y puede que ya hayan sido tomados en consideración y tenidos en cuenta en el experimento.Muchas gracias!",56.0,yes
7,2023-07-30_15h18.46.235,Unsyncopated1,s6,26.0,feminino,right,Espanya,CatalàCastellà,Master degree,no,no,A,1,conjunction_un,L1,unsyncopated,s2,r1,7,Online_conjL1_un//d.ne.ni19.none.none.wav,zu,fa,ri,sil,pu,lu,la,sil1,ki,ze,sil2,['false alarm'],[0.3995999999642663],[0.3995999999642663],none,none,,,"[""space""]",ne,4,testConjL1Uns//r2.s1.2.wav,1.0,conjunction_un,unsyncopated,b,s1,rule,rule,L1,m,2.7174,3.0,0.0,0.6899,3.0,3.0,Català,Nativo,Castellano,Nativo,English,Preescolar (3-5a.),3.0,4.0,yes,no,yes,Flauta,12,8.Me emociono escuchando ciertas canciones.,3.0,"En la tarea dos, la de reconocer sílabas, me he encontrado con varios aspectos que puede que sean los esperados pero los escribo aquí para si pueden resultar útiles:- Me hubiera gustado tener unos instantes de prueba antes de empezar, pues sobre todo en el primer lenguaje, y aun que este explicado al inicio, he tardado un tiempo después de ya haber empezado el ejercicio para acabar de entender bien lo que me pedían.- También he tenido confusión con algunas sílabas que me pedían que reconociera Por ejemplo, en el lenguaje 4 había la sílaba ""ji"" pero no creo haberla escuchado en ningún momento lo que me lleva a pensar que me hubiera gustado, antes de empezar, que me dijeran como exactamente debían de pronunciarse o sonar dichas sílabas, pues algunas, como ""ja"" pueden ser pronunciadas de formas distintas en función de la lengua y contexto.- También me he encontrado que durante el test al ir cambiando la sílaba a detectar de manera aleatoria en medio del ejercicio a veces me he encontrado que al realizar el cambio justo después de que apareciera la sílaba que debía detectar al clicar el espacio no sabia si era correcto o que estaba contando la fase anterior o se consideraba incorrecto pues ya consideraba que estaba en una nueva fase con una nueva sílaba. Personalmente me hubiera gustado unos instantes de pausa al cambiar de silaba o que esta cambiara cuando no se estaba pronunciando nada.Esto es todo, solo destacar de nuevo que estos han sido mis pensamientos hablado des de la ignorancia al realizar dicha tarea, y puede que ya hayan sido tomados en consideración y tenidos en cuenta en el experimento.Muchas gracias!",56.0,yes
8,2023-07-30_15h18.46.235,Unsyncopated1,s6,26.0,feminino,right,Espanya,CatalàCastellà,Master degree,no,no,A,1,conjunction_un,L1,unsyncopated,s1,r1,8,Online_conjL1_un//a.pu.ki7.0.888.wav,pu,la,fa,sil,ki,ri,ze,sil1,lu,ro,sil2,['catch'],[1.282999999999447],[1.282999999999447],0.888,beat,0.394999999999447,0.394999999999447,"[""space""]",ki,2,testConjL1Uns//cat_viol.r1.s2.0.wav,1.0,conjunction_un,unsyncopated,a,s2,no_rule,cat,L1,m,1.0113,3.0,1.0,0.7583,3.0,3.0,Català,Nativo,Castellano,Nativo,English,Preescolar (3-5a.),3.0,4.0,yes,no,yes,Flauta,12,9.La música me tranquiliza y me relaja.,3.0,"En la tarea dos, la de reconocer sílabas, me he encontrado con varios aspectos que puede que sean los esperados pero los escribo aquí para si pueden resultar útiles:- Me hubiera gustado tener unos instantes de prueba antes de empezar, pues sobre todo en el primer lenguaje, y aun que este explicado al inicio, he tardado un tiempo después de ya haber empezado el ejercicio para acabar de entender bien lo que me pedían.- También he tenido confusión con algunas sílabas que me pedían que reconociera Por ejemplo, en el lenguaje 4 había la sílaba ""ji"" pero no creo haberla escuchado en ningún momento lo que me lleva a pensar que me hubiera gustado, antes de empezar, que me dijeran como exactamente debían de pronunciarse o sonar dichas sílabas, pues algunas, como ""ja"" pueden ser pronunciadas de formas distintas en función de la lengua y contexto.- También me he encontrado que durante el test al ir cambiando la sílaba a detectar de manera aleatoria en medio del ejercicio a veces me he encontrado que al realizar el cambio justo después de que apareciera la sílaba que debía detectar al clicar el espacio no sabia si era correcto o que estaba contando la fase anterior o se consideraba incorrecto pues ya consideraba que estaba en una nueva fase con una nueva sílaba. Personalmente me hubiera gustado unos instantes de pausa al cambiar de silaba o que esta cambiara cuando no se estaba pronunciando nada.Esto es todo, solo destacar de nuevo que estos han sido mis pensamientos hablado des de la ignorancia al realizar dicha tarea, y puede que ya hayan sido tomados en consideración y tenidos en cuenta en el experimento.Muchas gracias!",56.0,yes
9,2023-07-30_15h18.46.235,Unsyncopated1,s6,26.0,feminino,right,Espanya,CatalàCastellà,Master degree,no,no,A,1,conjunction_un,L1,unsyncopated,s1,r1,9,Online_conjL1_un//a.pu.ki5.0.888.wav,pu,lu,zu,sil,ki,fo,la,sil1,cho,ze,sil2,['catch'],[1.1568000000133907],[1.1568000000133907],0.888,beat,0.2688000000133906,0.2688000000133906,"[""space""]",ki,2,testConjL1Uns//dep_viol.r1.s1.0.wav,1.0,conjunction_un,unsyncopated,a,s1,no_rule,dep,L1,z,1.2547,6.0,0.0,0.5883,3.0,3.0,Català,Nativo,Castellano,Nativo,English,Preescolar (3-5a.),3.0,4.0,yes,no,yes,Flauta,12,10.La música me hace bailar,3.0,"En la tarea dos, la de reconocer sílabas, me he encontrado con varios aspectos que puede que sean los esperados pero los escribo aquí para si pueden resultar útiles:- Me hubiera gustado tener unos instantes de prueba antes de empezar, pues sobre todo en el primer lenguaje, y aun que este explicado al inicio, he tardado un tiempo después de ya haber empezado el ejercicio para acabar de entender bien lo que me pedían.- También he tenido confusión con algunas sílabas que me pedían que reconociera Por ejemplo, en el lenguaje 4 había la sílaba ""ji"" pero no creo haberla escuchado en ningún momento lo que me lleva a pensar que me hubiera gustado, antes de empezar, que me dijeran como exactamente debían de pronunciarse o sonar dichas sílabas, pues algunas, como ""ja"" pueden ser pronunciadas de formas distintas en función de la lengua y contexto.- También me he encontrado que durante el test al ir cambiando la sílaba a detectar de manera aleatoria en medio del ejercicio a veces me he encontrado que al realizar el cambio justo después de que apareciera la sílaba que debía detectar al clicar el espacio no sabia si era correcto o que estaba contando la fase anterior o se consideraba incorrecto pues ya consideraba que estaba en una nueva fase con una nueva sílaba. Personalmente me hubiera gustado unos instantes de pausa al cambiar de silaba o que esta cambiara cuando no se estaba pronunciando nada.Esto es todo, solo destacar de nuevo que estos han sido mis pensamientos hablado des de la ignorancia al realizar dicha tarea, y puede que ya hayan sido tomados en consideración y tenidos en cuenta en el experimento.Muchas gracias!",56.0,yes
10,2023-07-30_15h18.46.235,Unsyncopated1,s6,26.0,feminino,right,Espanya,CatalàCastellà,Master degree,no,no,A,1,conjunction_un,L1,unsyncopated,s1,r1,10,Online_conjL1_un//a.pu.ki6.0.888.wav,pu,cho,fa,sil,ki,zu,ni,sil1,ne,ro,sil2,['catch'],[1.1671000000242202],[1.1671000000242202],0.888,beat,0.2791000000242202,0.2791000000242202,"[""space""]",ki,2,testConjL1Uns//r2.s2.0.wav,1.0,conjunction_un,unsyncopated,b,s2,rule,rule,L1,m,5.6243,2.0,0.0,0.7491,3.0,3.0,Català,Nativo,Castellano,Nativo,English,Preescolar (3-5a.),3.0,4.0,yes,no,yes,Flauta,12,11.Busco novedades musicales continuamente,2.0,"En la tarea dos, la de reconocer sílabas, me he encontrado con varios aspectos que puede que sean los esperados pero los escribo aquí para si pueden resultar útiles:- Me hubiera gustado tener unos instantes de prueba antes de empezar, pues sobre todo en el primer lenguaje, y aun que este explicado al inicio, he tardado un tiempo después de ya haber empezado el ejercicio para acabar de entender bien lo que me pedían.- También he tenido confusión con algunas sílabas que me pedían que reconociera Por ejemplo, en el lenguaje 4 había la sílaba ""ji"" pero no creo haberla escuchado en ningún momento lo que me lleva a pensar que me hubiera gustado, antes de empezar, que me dijeran como exactamente debían de pronunciarse o sonar dichas sílabas, pues algunas, como ""ja"" pueden ser pronunciadas de formas distintas en función de la lengua y contexto.- También me he encontrado que durante el test al ir cambiando la sílaba a detectar de manera aleatoria en medio del ejercicio a veces me he encontrado que al realizar el cambio justo después de que apareciera la sílaba que debía detectar al clicar el espacio no sabia si era correcto o que estaba contando la fase anterior o se consideraba incorrecto pues ya consideraba que estaba en una nueva fase con una nueva sílaba. Personalmente me hubiera gustado unos instantes de pausa al cambiar de silaba o que esta cambiara cuando no se estaba pronunciando nada.Esto es todo, solo destacar de nuevo que estos han sido mis pensamientos hablado des de la ignorancia al realizar dicha tarea, y puede que ya hayan sido tomados en consideración y tenidos en cuenta en el experimento.Muchas gracias!",56.0,yes
11,2023-07-30_15h18.46.235,Unsyncopated1,s6,26.0,feminino,right,Espanya,CatalàCastellà,Master degree,no,no,A,1,conjunction_un,L1,unsyncopated,s2,r1,11,Online_conjL1_un//a.pu.ki4.888.1776.wav,ni,cho,fa,sil,pu,fo,ne,sil1,ki,la,sil2,"['false alarm', 'catch']","[0.42579999995177786, 2.130699999988792]",[2.130699999988792],1.776,beat,0.3546999999887921,0.3546999999887921,"[""space"",""space""]",ki,2,testConjL1Uns//cat_viol.r1.s1.0.wav,1.0,conjunction_un,unsyncopated,a,s1,no_rule,cat,L1,z,2.5973,5.0,0.0,1.7075,3.0,3.0,Català,Nativo,Castellano,Nativo,English,Preescolar (3-5a.),3.0,4.0,yes,no,yes,Flauta,12,12. Puedo llorar cuando escucho algunas melodías que me gustan mucho.,2.0,"En la tarea dos, la de reconocer sílabas, me he encontrado con varios aspectos que puede que sean los esperados pero los escribo aquí para si pueden resultar útiles:- Me hubiera gustado tener unos instantes de prueba antes de empezar, pues sobre todo en el primer lenguaje, y aun que este explicado al inicio, he tardado un tiempo después de ya haber empezado el ejercicio para acabar de entender bien lo que me pedían.- También he tenido confusión con algunas sílabas que me pedían que reconociera Por ejemplo, en el lenguaje 4 había la sílaba ""ji"" pero no creo haberla escuchado en ningún momento lo que me lleva a pensar que me hubiera gustado, antes de empezar, que me dijeran como exactamente debían de pronunciarse o sonar dichas sílabas, pues algunas, como ""ja"" pueden ser pronunciadas de formas distintas en función de la lengua y contexto.- También me he encontrado que durante el test al ir cambiando la sílaba a detectar de manera aleatoria en medio del ejercicio a veces me he encontrado que al realizar el cambio justo después de que apareciera la sílaba que debía detectar al clicar el espacio no sabia si era correcto o que estaba contando la fase anterior o se consideraba incorrecto pues ya consideraba que estaba en una nueva fase con una nueva sílaba. Personalmente me hubiera gustado unos instantes de pausa al cambiar de silaba o que esta cambiara cuando no se estaba pronunciando nada.Esto es todo, solo destacar de nuevo que estos han sido mis pensamientos hablado des de la ignorancia al realizar dicha tarea, y puede que ya hayan sido tomados en consideración y tenidos en cuenta en el experimento.Muchas gracias!",56.0,yes
12,2023-07-30_15h18.46.235,Unsyncopated1,s6,26.0,feminino,right,Espanya,CatalàCastellà,Master degree,no,no,A,1,conjunction_un,L1,unsyncopated,s1,r2,12,Online_conjL1_un//a.pu.ki2.none.none.wav,ta,ro,ne,sil,be,lu,fo,sil1,la,ri,sil2,['-'],,,none,none,,,,ki,2,testConjL1Uns//r2.s2.1.wav,1.0,conjunction_un,unsyncopated,b,s2,rule,rule,L1,m,1.1018,3.0,0.0,0.7614,3.0,3.0,Català,Nativo,Castellano,Nativo,English,Preescolar (3-5a.),3.0,4.0,yes,no,yes,Flauta,12,13. Me gusta cantar o tocar un instrumento con más gente,2.0,"En la tarea dos, la de reconocer sílabas, me he encontrado con varios aspectos que puede que sean los esperados pero los escribo aquí para si pueden resultar útiles:- Me hubiera gustado tener unos instantes de prueba antes de empezar, pues sobre todo en el primer lenguaje, y aun que este explicado al inicio, he tardado un tiempo después de ya haber empezado el ejercicio para acabar de entender bien lo que me pedían.- También he tenido confusión con algunas sílabas que me pedían que reconociera Por ejemplo, en el lenguaje 4 había la sílaba ""ji"" pero no creo haberla escuchado en ningún momento lo que me lleva a pensar que me hubiera gustado, antes de empezar, que me dijeran como exactamente debían de pronunciarse o sonar dichas sílabas, pues algunas, como ""ja"" pueden ser pronunciadas de formas distintas en función de la lengua y contexto.- También me he encontrado que durante el test al ir cambiando la sílaba a detectar de manera aleatoria en medio del ejercicio a veces me he encontrado que al realizar el cambio justo después de que apareciera la sílaba que debía detectar al clicar el espacio no sabia si era correcto o que estaba contando la fase anterior o se consideraba incorrecto pues ya consideraba que estaba en una nueva fase con una nueva sílaba. Personalmente me hubiera gustado unos instantes de pausa al cambiar de silaba o que esta cambiara cuando no se estaba pronunciando nada.Esto es todo, solo destacar de nuevo que estos han sido mis pensamientos hablado des de la ignorancia al realizar dicha tarea, y puede que ya hayan sido tomados en consideración y tenidos en cuenta en el experimento.Muchas gracias!",56.0,yes
13,2023-07-30_15h18.46.235,Unsyncopated1,s6,26.0,feminino,right,Espanya,CatalàCastellà,Master degree,no,no,A,1,conjunction_un,L1,unsyncopated,s2,r1,13,Online_conjL1_un//a.pu.ki0.888.1776.wav,ni,zu,ne,sil,pu,fa,ze,sil1,ki,ri,sil2,['false alarm'],[0.39569999998821004],[0.39569999998821004],1.776,beat,,,"[""space""]",ki,2,testConjL1Uns//time_viol.r2.s2.0.wav,1.0,conjunction_un,unsyncopated,b,s2,no_rule,time,L1,m,1.4857,2.0,1.0,0.6591,3.0,3.0,Català,Nativo,Castellano,Nativo,English,Preescolar (3-5a.),3.0,4.0,yes,no,yes,Flauta,12,14. La música me ayuda a desconectar.,3.0,"En la tarea dos, la de reconocer sílabas, me he encontrado con varios aspectos que puede que sean los esperados pero los escribo aquí para si pueden resultar útiles:- Me hubiera gustado tener unos instantes de prueba antes de empezar, pues sobre todo en el primer lenguaje, y aun que este explicado al inicio, he tardado un tiempo después de ya haber empezado el ejercicio para acabar de entender bien lo que me pedían.- También he tenido confusión con algunas sílabas que me pedían que reconociera Por ejemplo, en el lenguaje 4 había la sílaba ""ji"" pero no creo haberla escuchado en ningún momento lo que me lleva a pensar que me hubiera gustado, antes de empezar, que me dijeran como exactamente debían de pronunciarse o sonar dichas sílabas, pues algunas, como ""ja"" pueden ser pronunciadas de formas distintas en función de la lengua y contexto.- También me he encontrado que durante el test al ir cambiando la sílaba a detectar de manera aleatoria en medio del ejercicio a veces me he encontrado que al realizar el cambio justo después de que apareciera la sílaba que debía detectar al clicar el espacio no sabia si era correcto o que estaba contando la fase anterior o se consideraba incorrecto pues ya consideraba que estaba en una nueva fase con una nueva sílaba. Personalmente me hubiera gustado unos instantes de pausa al cambiar de silaba o que esta cambiara cuando no se estaba pronunciando nada.Esto es todo, solo destacar de nuevo que estos han sido mis pensamientos hablado des de la ignorancia al realizar dicha tarea, y puede que ya hayan sido tomados en consideración y tenidos en cuenta en el experimento.Muchas gracias!",56.0,yes
14,2023-07-30_15h18.46.235,Unsyncopated1,s6,26.0,feminino,right,Espanya,CatalàCastellà,Master degree,no,no,A,1,conjunction_un,L1,unsyncopated,s2,r1,14,Online_conjL1_un//a.pu.ki1.888.1776.wav,ro,fa,ne,sil,pu,lu,cho,sil1,ki,ri,sil2,['catch'],[2.1028000000114844],[2.1028000000114844],1.776,beat,0.3268000000114843,0.3268000000114843,"[""space""]",ki,2,testConjL1Uns//r1.s1.1.wav,1.0,conjunction_un,unsyncopated,a,s1,rule,rule,L1,m,0.5115,5.0,0.0,1.2491,3.0,3.0,Català,Nativo,Castellano,Nativo,English,Preescolar (3-5a.),3.0,4.0,yes,no,yes,Flauta,12,15. No puedo evitar tararear las canciones que me gustan cuando las escucho.,4.0,"En la tarea dos, la de reconocer sílabas, me he encontrado con varios aspectos que puede que sean los esperados pero los escribo aquí para si pueden resultar útiles:- Me hubiera gustado tener unos instantes de prueba antes de empezar, pues sobre todo en el primer lenguaje, y aun que este explicado al inicio, he tardado un tiempo después de ya haber empezado el ejercicio para acabar de entender bien lo que me pedían.- También he tenido confusión con algunas sílabas que me pedían que reconociera Por ejemplo, en el lenguaje 4 había la sílaba ""ji"" pero no creo haberla escuchado en ningún momento lo que me lleva a pensar que me hubiera gustado, antes de empezar, que me dijeran como exactamente debían de pronunciarse o sonar dichas sílabas, pues algunas, como ""ja"" pueden ser pronunciadas de formas distintas en función de la lengua y contexto.- También me he encontrado que durante el test al ir cambiando la sílaba a detectar de manera aleatoria en medio del ejercicio a veces me he encontrado que al realizar el cambio justo después de que apareciera la sílaba que debía detectar al clicar el espacio no sabia si era correcto o que estaba contando la fase anterior o se consideraba incorrecto pues ya consideraba que estaba en una nueva fase con una nueva sílaba. Personalmente me hubiera gustado unos instantes de pausa al cambiar de silaba o que esta cambiara cuando no se estaba pronunciando nada.Esto es todo, solo destacar de nuevo que estos han sido mis pensamientos hablado des de la ignorancia al realizar dicha tarea, y puede que ya hayan sido tomados en consideración y tenidos en cuenta en el experimento.Muchas gracias!",56.0,yes
15,2023-07-30_15h18.46.235,Unsyncopated1,s6,26.0,feminino,right,Espanya,CatalàCastellà,Master degree,no,no,A,1,conjunction_un,L1,unsyncopated,s1,r2,15,Online_conjL1_un//a.pu.ki3.none.none.wav,ta,fo,lu,sil,be,ze,cho,sil1,ri,la,sil2,['-'],,,none,none,,,,ki,2,testConjL1Uns//dep_viol.r2.s1.0.wav,1.0,conjunction_un,unsyncopated,b,s1,no_rule,dep,L1,m,4.3328,4.0,1.0,0.5772,3.0,3.0,Català,Nativo,Castellano,Nativo,English,Preescolar (3-5a.),3.0,4.0,yes,no,yes,Flauta,12,16. En los conciertos me siento en sintonía con los artistas y el público.,3.0,"En la tarea dos, la de reconocer sílabas, me he encontrado con varios aspectos que puede que sean los esperados pero los escribo aquí para si pueden resultar útiles:- Me hubiera gustado tener unos instantes de prueba antes de empezar, pues sobre todo en el primer lenguaje, y aun que este explicado al inicio, he tardado un tiempo después de ya haber empezado el ejercicio para acabar de entender bien lo que me pedían.- También he tenido confusión con algunas sílabas que me pedían que reconociera Por ejemplo, en el lenguaje 4 había la sílaba ""ji"" pero no creo haberla escuchado en ningún momento lo que me lleva a pensar que me hubiera gustado, antes de empezar, que me dijeran como exactamente debían de pronunciarse o sonar dichas sílabas, pues algunas, como ""ja"" pueden ser pronunciadas de formas distintas en función de la lengua y contexto.- También me he encontrado que durante el test al ir cambiando la sílaba a detectar de manera aleatoria en medio del ejercicio a veces me he encontrado que al realizar el cambio justo después de que apareciera la sílaba que debía detectar al clicar el espacio no sabia si era correcto o que estaba contando la fase anterior o se consideraba incorrecto pues ya consideraba que estaba en una nueva fase con una nueva sílaba. Personalmente me hubiera gustado unos instantes de pausa al cambiar de silaba o que esta cambiara cuando no se estaba pronunciando nada.Esto es todo, solo destacar de nuevo que estos han sido mis pensamientos hablado des de la ignorancia al realizar dicha tarea, y puede que ya hayan sido tomados en consideración y tenidos en cuenta en el experimento.Muchas gracias!",56.0,yes
16,2023-07-30_15h18.46.235,Unsyncopated1,s6,26.0,feminino,right,Espanya,CatalàCastellà,Master degree,no,no,A,1,conjunction_un,L1,unsyncopated,s1,r2,16,Online_conjL1_un//a.pu.ki25.none.none.wav,ta,lu,la,sil,be,cho,ro,sil1,ni,zu,sil2,['-'],,,none,none,,,,ki,2,testConjL1Uns//time_viol.r1.s1.0.wav,1.0,conjunction_un,unsyncopated,a,s1,no_rule,time,L1,m,1.4003,3.0,1.0,0.6908,3.0,3.0,Català,Nativo,Castellano,Nativo,English,Preescolar (3-5a.),3.0,4.0,yes,no,yes,Flauta,12,17. Me gasto bastante dinero en música y cosas relacionadas con la música.,0.0,"En la tarea dos, la de reconocer sílabas, me he encontrado con varios aspectos que puede que sean los esperados pero los escribo aquí para si pueden resultar útiles:- Me hubiera gustado tener unos instantes de prueba antes de empezar, pues sobre todo en el primer lenguaje, y aun que este explicado al inicio, he tardado un tiempo después de ya haber empezado el ejercicio para acabar de entender bien lo que me pedían.- También he tenido confusión con algunas sílabas que me pedían que reconociera Por ejemplo, en el lenguaje 4 había la sílaba ""ji"" pero no creo haberla escuchado en ningún momento lo que me lleva a pensar que me hubiera gustado, antes de empezar, que me dijeran como exactamente debían de pronunciarse o sonar dichas sílabas, pues algunas, como ""ja"" pueden ser pronunciadas de formas distintas en función de la lengua y contexto.- También me he encontrado que durante el test al ir cambiando la sílaba a detectar de manera aleatoria en medio del ejercicio a veces me he encontrado que al realizar el cambio justo después de que apareciera la sílaba que debía detectar al clicar el espacio no sabia si era correcto o que estaba contando la fase anterior o se consideraba incorrecto pues ya consideraba que estaba en una nueva fase con una nueva sílaba. Personalmente me hubiera gustado unos instantes de pausa al cambiar de silaba o que esta cambiara cuando no se estaba pronunciando nada.Esto es todo, solo destacar de nuevo que estos han sido mis pensamientos hablado des de la ignorancia al realizar dicha tarea, y puede que ya hayan sido tomados en consideración y tenidos en cuenta en el experimento.Muchas gracias!",56.0,yes
17,2023-07-30_15h18.46.235,Unsyncopated1,s6,26.0,feminino,right,Espanya,CatalàCastellà,Master degree,no,no,A,1,conjunction_un,L1,unsyncopated,s2,r1,17,Online_conjL1_un//a.pu.ki26.888.1776.wav,zu,ze,cho,sil,pu,ni,ne,sil1,ki,fo,sil2,['false alarm'],[1.6283999999759544],[1.6283999999759544],1.776,beat,,,"[""space""]",ki,2,testConjL1Uns//r2.s1.0.wav,1.0,conjunction_un,unsyncopated,b,s1,rule,rule,L1,z,6.3021,5.0,1.0,1.5622,3.0,3.0,Català,Nativo,Castellano,Nativo,English,Preescolar (3-5a.),3.0,4.0,yes,no,yes,Flauta,12,18. Siento escalofríos cuando escucho una melodía que me gusta.,3.0,"En la tarea dos, la de reconocer sílabas, me he encontrado con varios aspectos que puede que sean los esperados pero los escribo aquí para si pueden resultar útiles:- Me hubiera gustado tener unos instantes de prueba antes de empezar, pues sobre todo en el primer lenguaje, y aun que este explicado al inicio, he tardado un tiempo después de ya haber empezado el ejercicio para acabar de entender bien lo que me pedían.- También he tenido confusión con algunas sílabas que me pedían que reconociera Por ejemplo, en el lenguaje 4 había la sílaba ""ji"" pero no creo haberla escuchado en ningún momento lo que me lleva a pensar que me hubiera gustado, antes de empezar, que me dijeran como exactamente debían de pronunciarse o sonar dichas sílabas, pues algunas, como ""ja"" pueden ser pronunciadas de formas distintas en función de la lengua y contexto.- También me he encontrado que durante el test al ir cambiando la sílaba a detectar de manera aleatoria en medio del ejercicio a veces me he encontrado que al realizar el cambio justo después de que apareciera la sílaba que debía detectar al clicar el espacio no sabia si era correcto o que estaba contando la fase anterior o se consideraba incorrecto pues ya consideraba que estaba en una nueva fase con una nueva sílaba. Personalmente me hubiera gustado unos instantes de pausa al cambiar de silaba o que esta cambiara cuando no se estaba pronunciando nada.Esto es todo, solo destacar de nuevo que estos han sido mis pensamientos hablado des de la ignorancia al realizar dicha tarea, y puede que ya hayan sido tomados en consideración y tenidos en cuenta en el experimento.Muchas gracias!",56.0,yes
18,2023-07-30_15h18.46.235,Unsyncopated1,s6,26.0,feminino,right,Espanya,CatalàCastellà,Master degree,no,no,A,1,conjunction_un,L1,unsyncopated,s1,r2,18,Online_conjL1_un//a.pu.ki27.none.none.wav,ta,fa,ro,sil,be,ze,ni,sil1,lu,fo,sil2,['-'],,,none,none,,,,ki,2,testConjL1Uns//dep_viol.r1.s2.0.wav,1.0,conjunction_un,unsyncopated,a,s2,no_rule,dep,L1,m,2.1314,2.0,1.0,0.9161,3.0,3.0,Català,Nativo,Castellano,Nativo,English,Preescolar (3-5a.),3.0,4.0,yes,no,yes,Flauta,12,19. Con la música me puedo desahogar.,3.0,"En la tarea dos, la de reconocer sílabas, me he encontrado con varios aspectos que puede que sean los esperados pero los escribo aquí para si pueden resultar útiles:- Me hubiera gustado tener unos instantes de prueba antes de empezar, pues sobre todo en el primer lenguaje, y aun que este explicado al inicio, he tardado un tiempo después de ya haber empezado el ejercicio para acabar de entender bien lo que me pedían.- También he tenido confusión con algunas sílabas que me pedían que reconociera Por ejemplo, en el lenguaje 4 había la sílaba ""ji"" pero no creo haberla escuchado en ningún momento lo que me lleva a pensar que me hubiera gustado, antes de empezar, que me dijeran como exactamente debían de pronunciarse o sonar dichas sílabas, pues algunas, como ""ja"" pueden ser pronunciadas de formas distintas en función de la lengua y contexto.- También me he encontrado que durante el test al ir cambiando la sílaba a detectar de manera aleatoria en medio del ejercicio a veces me he encontrado que al realizar el cambio justo después de que apareciera la sílaba que debía detectar al clicar el espacio no sabia si era correcto o que estaba contando la fase anterior o se consideraba incorrecto pues ya consideraba que estaba en una nueva fase con una nueva sílaba. Personalmente me hubiera gustado unos instantes de pausa al cambiar de silaba o que esta cambiara cuando no se estaba pronunciando nada.Esto es todo, solo destacar de nuevo que estos han sido mis pensamientos hablado des de la ignorancia al realizar dicha tarea, y puede que ya hayan sido tomados en consideración y tenidos en cuenta en el experimento.Muchas gracias!",56.0,yes
19,2023-07-30_15h18.46.235,Unsyncopated1,s6,26.0,feminino,right,Espanya,CatalàCastellà,Master degree,no,no,A,1,conjunction_un,L1,unsyncopated,s1,r2,19,Online_conjL1_un//a.pu.ki24.none.none.wav,ta,lu,ri,sil,be,la,zu,sil1,fa,ze,sil2,['-'],,,none,none,,,,ki,2,testConjL1Uns//cat_viol.r2.s1.0.wav,1.0,conjunction_un,unsyncopated,b,s1,no_rule,cat,L1,m,2.1664,1.0,1.0,0.632,3.0,3.0,Català,Nativo,Castellano,Nativo,English,Preescolar (3-5a.),3.0,4.0,yes,no,yes,Flauta,12,20. Cuando escucho una melodía que me gusta mucho no puedo evitar mover el cuerpo.,3.0,"En la tarea dos, la de reconocer sílabas, me he encontrado con varios aspectos que puede que sean los esperados pero los escribo aquí para si pueden resultar útiles:- Me hubiera gustado tener unos instantes de prueba antes de empezar, pues sobre todo en el primer lenguaje, y aun que este explicado al inicio, he tardado un tiempo después de ya haber empezado el ejercicio para acabar de entender bien lo que me pedían.- También he tenido confusión con algunas sílabas que me pedían que reconociera Por ejemplo, en el lenguaje 4 había la sílaba ""ji"" pero no creo haberla escuchado en ningún momento lo que me lleva a pensar que me hubiera gustado, antes de empezar, que me dijeran como exactamente debían de pronunciarse o sonar dichas sílabas, pues algunas, como ""ja"" pueden ser pronunciadas de formas distintas en función de la lengua y contexto.- También me he encontrado que durante el test al ir cambiando la sílaba a detectar de manera aleatoria en medio del ejercicio a veces me he encontrado que al realizar el cambio justo después de que apareciera la sílaba que debía detectar al clicar el espacio no sabia si era correcto o que estaba contando la fase anterior o se consideraba incorrecto pues ya consideraba que estaba en una nueva fase con una nueva sílaba. Personalmente me hubiera gustado unos instantes de pausa al cambiar de silaba o que esta cambiara cuando no se estaba pronunciando nada.Esto es todo, solo destacar de nuevo que estos han sido mis pensamientos hablado des de la ignorancia al realizar dicha tarea, y puede que ya hayan sido tomados en consideración y tenidos en cuenta en el experimento.Muchas gracias!",56.0,yes
20,2023-07-30_15h18.46.235,Unsyncopated1,s6,26.0,feminino,right,Espanya,CatalàCastellà,Master degree,no,no,A,1,conjunction_un,L1,unsyncopated,s1,r2,20,Online_conjL1_un//d.ne.ni9.none.none.wav,ta,ro,fo,sil,be,zu,cho,sil1,lu,ze,sil2,['-'],,,none,none,,,,ne,4,testConjL1Uns//time_viol.r1.s2.0.wav,1.0,conjunction_un,unsyncopated,a,s2,no_rule,time,L1,m,1.1397,2.0,1.0,1.0405,3.0,3.0,Català,Nativo,Castellano,Nativo,English,Preescolar (3-5a.),3.0,4.0,yes,no,yes,Flauta,12,,,"En la tarea dos, la de reconocer sílabas, me he encontrado con varios aspectos que puede que sean los esperados pero los escribo aquí para si pueden resultar útiles:- Me hubiera gustado tener unos instantes de prueba antes de empezar, pues sobre todo en el primer lenguaje, y aun que este explicado al inicio, he tardado un tiempo después de ya haber empezado el ejercicio para acabar de entender bien lo que me pedían.- También he tenido confusión con algunas sílabas que me pedían que reconociera Por ejemplo, en el lenguaje 4 había la sílaba ""ji"" pero no creo haberla escuchado en ningún momento lo que me lleva a pensar que me hubiera gustado, antes de empezar, que me dijeran como exactamente debían de pronunciarse o sonar dichas sílabas, pues algunas, como ""ja"" pueden ser pronunciadas de formas distintas en función de la lengua y contexto.- También me he encontrado que durante el test al ir cambiando la sílaba a detectar de manera aleatoria en medio del ejercicio a veces me he encontrado que al realizar el cambio justo después de que apareciera la sílaba que debía detectar al clicar el espacio no sabia si era correcto o que estaba contando la fase anterior o se consideraba incorrecto pues ya consideraba que estaba en una nueva fase con una nueva sílaba. Personalmente me hubiera gustado unos instantes de pausa al cambiar de silaba o que esta cambiara cuando no se estaba pronunciando nada.Esto es todo, solo destacar de nuevo que estos han sido mis pensamientos hablado des de la ignorancia al realizar dicha tarea, y puede que ya hayan sido tomados en consideración y tenidos en cuenta en el experimento.Muchas gracias!",56.0,yes
21,2023-07-30_15h18.46.235,Unsyncopated1,s6,26.0,feminino,right,Espanya,CatalàCastellà,Master degree,no,no,A,1,conjunction_un,L1,unsyncopated,s2,r1,21,Online_conjL1_un//d.ne.ni10.1110.222.wav,la,ni,cho,sil,pu,ne,lu,sil1,ki,zu,sil2,['false alarm'],[1.070800000010422],[1.070800000010422],1.11,no_beat,,,"[""space""]",ne,4,testConjL1Uns//r1.s1.2.wav,1.0,conjunction_un,unsyncopated,a,s1,rule,rule,L1,z,4.9751,4.0,1.0,1.3461,3.0,3.0,Català,Nativo,Castellano,Nativo,English,Preescolar (3-5a.),3.0,4.0,yes,no,yes,Flauta,12,,,"En la tarea dos, la de reconocer sílabas, me he encontrado con varios aspectos que puede que sean los esperados pero los escribo aquí para si pueden resultar útiles:- Me hubiera gustado tener unos instantes de prueba antes de empezar, pues sobre todo en el primer lenguaje, y aun que este explicado al inicio, he tardado un tiempo después de ya haber empezado el ejercicio para acabar de entender bien lo que me pedían.- También he tenido confusión con algunas sílabas que me pedían que reconociera Por ejemplo, en el lenguaje 4 había la sílaba ""ji"" pero no creo haberla escuchado en ningún momento lo que me lleva a pensar que me hubiera gustado, antes de empezar, que me dijeran como exactamente debían de pronunciarse o sonar dichas sílabas, pues algunas, como ""ja"" pueden ser pronunciadas de formas distintas en función de la lengua y contexto.- También me he encontrado que durante el test al ir cambiando la sílaba a detectar de manera aleatoria en medio del ejercicio a veces me he encontrado que al realizar el cambio justo después de que apareciera la sílaba que debía detectar al clicar el espacio no sabia si era correcto o que estaba contando la fase anterior o se consideraba incorrecto pues ya consideraba que estaba en una nueva fase con una nueva sílaba. Personalmente me hubiera gustado unos instantes de pausa al cambiar de silaba o que esta cambiara cuando no se estaba pronunciando nada.Esto es todo, solo destacar de nuevo que estos han sido mis pensamientos hablado des de la ignorancia al realizar dicha tarea, y puede que ya hayan sido tomados en consideración y tenidos en cuenta en el experimento.Muchas gracias!",56.0,yes
22,2023-07-30_15h18.46.235,Unsyncopated1,s6,26.0,feminino,right,Espanya,CatalàCastellà,Master degree,no,no,A,1,conjunction_un,L1,unsyncopated,s2,r2,22,Online_conjL1_un//d.ne.ni11.none.none.wav,ro,zu,la,sil,ta,ze,cho,sil1,be,fa,sil2,['-'],,,none,none,,,,ne,4,testConjL1Uns//r1.s1.0.wav,1.0,conjunction_un,unsyncopated,a,s1,rule,rule,L1,z,0.8611,5.0,1.0,1.0785,3.0,3.0,Català,Nativo,Castellano,Nativo,English,Preescolar (3-5a.),3.0,4.0,yes,no,yes,Flauta,12,,,"En la tarea dos, la de reconocer sílabas, me he encontrado con varios aspectos que puede que sean los esperados pero los escribo aquí para si pueden resultar útiles:- Me hubiera gustado tener unos instantes de prueba antes de empezar, pues sobre todo en el primer lenguaje, y aun que este explicado al inicio, he tardado un tiempo después de ya haber empezado el ejercicio para acabar de entender bien lo que me pedían.- También he tenido confusión con algunas sílabas que me pedían que reconociera Por ejemplo, en el lenguaje 4 había la sílaba ""ji"" pero no creo haberla escuchado en ningún momento lo que me lleva a pensar que me hubiera gustado, antes de empezar, que me dijeran como exactamente debían de pronunciarse o sonar dichas sílabas, pues algunas, como ""ja"" pueden ser pronunciadas de formas distintas en función de la lengua y contexto.- También me he encontrado que durante el test al ir cambiando la sílaba a detectar de manera aleatoria en medio del ejercicio a veces me he encontrado que al realizar el cambio justo después de que apareciera la sílaba que debía detectar al clicar el espacio no sabia si era correcto o que estaba contando la fase anterior o se consideraba incorrecto pues ya consideraba que estaba en una nueva fase con una nueva sílaba. Personalmente me hubiera gustado unos instantes de pausa al cambiar de silaba o que esta cambiara cuando no se estaba pronunciando nada.Esto es todo, solo destacar de nuevo que estos han sido mis pensamientos hablado des de la ignorancia al realizar dicha tarea, y puede que ya hayan sido tomados en consideración y tenidos en cuenta en el experimento.Muchas gracias!",56.0,yes
23,2023-07-30_15h18.46.235,Unsyncopated1,s6,26.0,feminino,right,Espanya,CatalàCastellà,Master degree,no,no,A,1,conjunction_un,L1,unsyncopated,s1,r2,23,Online_conjL1_un//d.ne.ni8.1776.222.wav,ta,ni,ri,sil,be,zu,lu,sil1,ne,fa,sil2,['catch'],[2.183900000036374],[2.183900000036374],1.776,beat,0.4079000000363739,0.4079000000363739,"[""space""]",ne,4,testConjL1Uns//r1.s2.2.wav,1.0,conjunction_un,unsyncopated,a,s2,rule,rule,L1,z,5.617,5.0,1.0,0.2706,3.0,3.0,Català,Nativo,Castellano,Nativo,English,Preescolar (3-5a.),3.0,4.0,yes,no,yes,Flauta,12,,,"En la tarea dos, la de reconocer sílabas, me he encontrado con varios aspectos que puede que sean los esperados pero los escribo aquí para si pueden resultar útiles:- Me hubiera gustado tener unos instantes de prueba antes de empezar, pues sobre todo en el primer lenguaje, y aun que este explicado al inicio, he tardado un tiempo después de ya haber empezado el ejercicio para acabar de entender bien lo que me pedían.- También he tenido confusión con algunas sílabas que me pedían que reconociera Por ejemplo, en el lenguaje 4 había la sílaba ""ji"" pero no creo haberla escuchado en ningún momento lo que me lleva a pensar que me hubiera gustado, antes de empezar, que me dijeran como exactamente debían de pronunciarse o sonar dichas sílabas, pues algunas, como ""ja"" pueden ser pronunciadas de formas distintas en función de la lengua y contexto.- También me he encontrado que durante el test al ir cambiando la sílaba a detectar de manera aleatoria en medio del ejercicio a veces me he encontrado que al realizar el cambio justo después de que apareciera la sílaba que debía detectar al clicar el espacio no sabia si era correcto o que estaba contando la fase anterior o se consideraba incorrecto pues ya consideraba que estaba en una nueva fase con una nueva sílaba. Personalmente me hubiera gustado unos instantes de pausa al cambiar de silaba o que esta cambiara cuando no se estaba pronunciando nada.Esto es todo, solo destacar de nuevo que estos han sido mis pensamientos hablado des de la ignorancia al realizar dicha tarea, y puede que ya hayan sido tomados en consideración y tenidos en cuenta en el experimento.Muchas gracias!",56.0,yes
24,2023-07-30_15h18.46.235,Unsyncopated1,s6,26.0,feminino,right,Espanya,CatalàCastellà,Master degree,no,no,A,1,conjunction_un,L1,unsyncopated,s1,r1,24,Online_conjL1_un//d.ne.ni22.none.none.wav,pu,cho,la,sil,ki,ro,ze,sil1,ri,lu,sil2,['-'],,,none,none,,,,ne,4,testConjL4Syn//dep_viol.r2.s1.0.wav,2.0,conjunction_syn,syncopated,b,s1,no_rule,dep,L4,z,1.3528,6.0,0.0,1.3996,3.0,3.0,Català,Nativo,Castellano,Nativo,English,Preescolar (3-5a.),3.0,4.0,yes,no,yes,Flauta,12,,,"En la tarea dos, la de reconocer sílabas, me he encontrado con varios aspectos que puede que sean los esperados pero los escribo aquí para si pueden resultar útiles:- Me hubiera gustado tener unos instantes de prueba antes de empezar, pues sobre todo en el primer lenguaje, y aun que este explicado al inicio, he tardado un tiempo después de ya haber empezado el ejercicio para acabar de entender bien lo que me pedían.- También he tenido confusión con algunas sílabas que me pedían que reconociera Por ejemplo, en el lenguaje 4 había la sílaba ""ji"" pero no creo haberla escuchado en ningún momento lo que me lleva a pensar que me hubiera gustado, antes de empezar, que me dijeran como exactamente debían de pronunciarse o sonar dichas sílabas, pues algunas, como ""ja"" pueden ser pronunciadas de formas distintas en función de la lengua y contexto.- También me he encontrado que durante el test al ir cambiando la sílaba a detectar de manera aleatoria en medio del ejercicio a veces me he encontrado que al realizar el cambio justo después de que apareciera la sílaba que debía detectar al clicar el espacio no sabia si era correcto o que estaba contando la fase anterior o se consideraba incorrecto pues ya consideraba que estaba en una nueva fase con una nueva sílaba. Personalmente me hubiera gustado unos instantes de pausa al cambiar de silaba o que esta cambiara cuando no se estaba pronunciando nada.Esto es todo, solo destacar de nuevo que estos han sido mis pensamientos hablado des de la ignorancia al realizar dicha tarea, y puede que ya hayan sido tomados en consideración y tenidos en cuenta en el experimento.Muchas gracias!",56.0,yes
25,2023-07-30_15h18.46.235,Unsyncopated1,s6,26.0,feminino,right,Espanya,CatalàCastellà,Master degree,no,no,A,1,conjunction_un,L1,unsyncopated,s2,r2,25,Online_conjL1_un//d.ne.ni21.none.none.wav,lu,ro,ze,sil,ta,fo,cho,sil1,be,zu,sil2,['-'],,,none,none,,,,ne,4,testConjL4Syn//cat_viol.r1.s1.0.wav,2.0,conjunction_syn,syncopated,a,s1,no_rule,cat,L4,z,1.4491,5.0,0.0,0.7108,3.0,3.0,Català,Nativo,Castellano,Nativo,English,Preescolar (3-5a.),3.0,4.0,yes,no,yes,Flauta,12,,,"En la tarea dos, la de reconocer sílabas, me he encontrado con varios aspectos que puede que sean los esperados pero los escribo aquí para si pueden resultar útiles:- Me hubiera gustado tener unos instantes de prueba antes de empezar, pues sobre todo en el primer lenguaje, y aun que este explicado al inicio, he tardado un tiempo después de ya haber empezado el ejercicio para acabar de entender bien lo que me pedían.- También he tenido confusión con algunas sílabas que me pedían que reconociera Por ejemplo, en el lenguaje 4 había la sílaba ""ji"" pero no creo haberla escuchado en ningún momento lo que me lleva a pensar que me hubiera gustado, antes de empezar, que me dijeran como exactamente debían de pronunciarse o sonar dichas sílabas, pues algunas, como ""ja"" pueden ser pronunciadas de formas distintas en función de la lengua y contexto.- También me he encontrado que durante el test al ir cambiando la sílaba a detectar de manera aleatoria en medio del ejercicio a veces me he encontrado que al realizar el cambio justo después de que apareciera la sílaba que debía detectar al clicar el espacio no sabia si era correcto o que estaba contando la fase anterior o se consideraba incorrecto pues ya consideraba que estaba en una nueva fase con una nueva sílaba. Personalmente me hubiera gustado unos instantes de pausa al cambiar de silaba o que esta cambiara cuando no se estaba pronunciando nada.Esto es todo, solo destacar de nuevo que estos han sido mis pensamientos hablado des de la ignorancia al realizar dicha tarea, y puede que ya hayan sido tomados en consideración y tenidos en cuenta en el experimento.Muchas gracias!",56.0,yes
26,2023-07-30_15h18.46.235,Unsyncopated1,s6,26.0,feminino,right,Espanya,CatalàCastellà,Master degree,no,no,A,1,conjunction_un,L1,unsyncopated,s1,r1,26,Online_conjL1_un//d.ne.ni23.1110.222.wav,pu,ni,ro,sil,ki,ne,lu,sil1,zu,fa,sil2,"['false alarm', 'catch']","[1.0872000000472326, 1.6334000000351807]",[1.6334000000351807],1.11,no_beat,0.5234000000351806,0.5234000000351806,"[""space"",""space""]",ne,4,testConjL4Syn//cat_viol.r2.s2.0.wav,2.0,conjunction_syn,syncopated,b,s2,no_rule,cat,L4,m,1.7421,5.0,1.0,0.6039,3.0,3.0,Català,Nativo,Castellano,Nativo,English,Preescolar (3-5a.),3.0,4.0,yes,no,yes,Flauta,12,,,"En la tarea dos, la de reconocer sílabas, me he encontrado con varios aspectos que puede que sean los esperados pero los escribo aquí para si pueden resultar útiles:- Me hubiera gustado tener unos instantes de prueba antes de empezar, pues sobre todo en el primer lenguaje, y aun que este explicado al inicio, he tardado un tiempo después de ya haber empezado el ejercicio para acabar de entender bien lo que me pedían.- También he tenido confusión con algunas sílabas que me pedían que reconociera Por ejemplo, en el lenguaje 4 había la sílaba ""ji"" pero no creo haberla escuchado en ningún momento lo que me lleva a pensar que me hubiera gustado, antes de empezar, que me dijeran como exactamente debían de pronunciarse o sonar dichas sílabas, pues algunas, como ""ja"" pueden ser pronunciadas de formas distintas en función de la lengua y contexto.- También me he encontrado que durante el test al ir cambiando la sílaba a detectar de manera aleatoria en medio del ejercicio a veces me he encontrado que al realizar el cambio justo después de que apareciera la sílaba que debía detectar al clicar el espacio no sabia si era correcto o que estaba contando la fase anterior o se consideraba incorrecto pues ya consideraba que estaba en una nueva fase con una nueva sílaba. Personalmente me hubiera gustado unos instantes de pausa al cambiar de silaba o que esta cambiara cuando no se estaba pronunciando nada.Esto es todo, solo destacar de nuevo que estos han sido mis pensamientos hablado des de la ignorancia al realizar dicha tarea, y puede que ya hayan sido tomados en consideración y tenidos en cuenta en el experimento.Muchas gracias!",56.0,yes
27,2023-07-30_15h18.46.235,Unsyncopated1,s6,26.0,feminino,right,Espanya,CatalàCastellà,Master degree,no,no,A,1,conjunction_un,L1,unsyncopated,s1,r1,27,Online_conjL1_un//d.ne.ni20.1110.1332.wav,pu,ro,fa,sil,ki,ne,ni,sil1,cho,fo,sil2,['miss'],,,1.11,no_beat,,,,ne,4,testConjL4Syn//time_viol.r2.s2.0.wav,2.0,conjunction_syn,syncopated,b,s2,no_rule,time,L4,z,0.9793,5.0,0.0,1.5952,3.0,3.0,Català,Nativo,Castellano,Nativo,English,Preescolar (3-5a.),3.0,4.0,yes,no,yes,Flauta,12,,,"En la tarea dos, la de reconocer sílabas, me he encontrado con varios aspectos que puede que sean los esperados pero los escribo aquí para si pueden resultar útiles:- Me hubiera gustado tener unos instantes de prueba antes de empezar, pues sobre todo en el primer lenguaje, y aun que este explicado al inicio, he tardado un tiempo después de ya haber empezado el ejercicio para acabar de entender bien lo que me pedían.- También he tenido confusión con algunas sílabas que me pedían que reconociera Por ejemplo, en el lenguaje 4 había la sílaba ""ji"" pero no creo haberla escuchado en ningún momento lo que me lleva a pensar que me hubiera gustado, antes de empezar, que me dijeran como exactamente debían de pronunciarse o sonar dichas sílabas, pues algunas, como ""ja"" pueden ser pronunciadas de formas distintas en función de la lengua y contexto.- También me he encontrado que durante el test al ir cambiando la sílaba a detectar de manera aleatoria en medio del ejercicio a veces me he encontrado que al realizar el cambio justo después de que apareciera la sílaba que debía detectar al clicar el espacio no sabia si era correcto o que estaba contando la fase anterior o se consideraba incorrecto pues ya consideraba que estaba en una nueva fase con una nueva sílaba. Personalmente me hubiera gustado unos instantes de pausa al cambiar de silaba o que esta cambiara cuando no se estaba pronunciando nada.Esto es todo, solo destacar de nuevo que estos han sido mis pensamientos hablado des de la ignorancia al realizar dicha tarea, y puede que ya hayan sido tomados en consideración y tenidos en cuenta en el experimento.Muchas gracias!",56.0,yes
28,2023-07-30_15h18.46.235,Unsyncopated1,s6,26.0,feminino,right,Espanya,CatalàCastellà,Master degree,no,no,A,1,conjunction_un,L1,unsyncopated,s1,r1,28,Online_conjL1_un//a.pu.ki8.0.888.wav,pu,ne,ro,sil,ki,ze,zu,sil1,la,ni,sil2,['catch'],[1.2201000000241038],[1.2201000000241038],0.888,beat,0.3321000000241038,0.3321000000241038,"[""space""]",ki,2,testConjL4Syn//r2.s2.1.wav,2.0,conjunction_syn,syncopated,b,s2,rule,rule,L4,m,1.375,3.0,0.0,0.6038,3.0,3.0,Català,Nativo,Castellano,Nativo,English,Preescolar (3-5a.),3.0,4.0,yes,no,yes,Flauta,12,,,"En la tarea dos, la de reconocer sílabas, me he encontrado con varios aspectos que puede que sean los esperados pero los escribo aquí para si pueden resultar útiles:- Me hubiera gustado tener unos instantes de prueba antes de empezar, pues sobre todo en el primer lenguaje, y aun que este explicado al inicio, he tardado un tiempo después de ya haber empezado el ejercicio para acabar de entender bien lo que me pedían.- También he tenido confusión con algunas sílabas que me pedían que reconociera Por ejemplo, en el lenguaje 4 había la sílaba ""ji"" pero no creo haberla escuchado en ningún momento lo que me lleva a pensar que me hubiera gustado, antes de empezar, que me dijeran como exactamente debían de pronunciarse o sonar dichas sílabas, pues algunas, como ""ja"" pueden ser pronunciadas de formas distintas en función de la lengua y contexto.- También me he encontrado que durante el test al ir cambiando la sílaba a detectar de manera aleatoria en medio del ejercicio a veces me he encontrado que al realizar el cambio justo después de que apareciera la sílaba que debía detectar al clicar el espacio no sabia si era correcto o que estaba contando la fase anterior o se consideraba incorrecto pues ya consideraba que estaba en una nueva fase con una nueva sílaba. Personalmente me hubiera gustado unos instantes de pausa al cambiar de silaba o que esta cambiara cuando no se estaba pronunciando nada.Esto es todo, solo destacar de nuevo que estos han sido mis pensamientos hablado des de la ignorancia al realizar dicha tarea, y puede que ya hayan sido tomados en consideración y tenidos en cuenta en el experimento.Muchas gracias!",56.0,yes
29,2023-07-30_15h18.46.235,Unsyncopated1,s6,26.0,feminino,right,Espanya,CatalàCastellà,Master degree,no,no,A,1,conjunction_un,L1,unsyncopated,s1,r1,29,Online_conjL1_un//a.pu.ki11.0.888.wav,pu,fa,fo,sil,ki,ze,lu,sil1,ri,ni,sil2,['catch'],[1.5195000000003347],[1.5195000000003347],0.888,beat,0.6315000000003347,0.6315000000003347,"[""space""]",ki,2,testConjL4Syn//cat_viol.r1.s2.0.wav,2.0,conjunction_syn,syncopated,a,s2,no_rule,cat,L4,m,3.4168,1.0,1.0,0.3485,3.0,3.0,Català,Nativo,Castellano,Nativo,English,Preescolar (3-5a.),3.0,4.0,yes,no,yes,Flauta,12,,,"En la tarea dos, la de reconocer sílabas, me he encontrado con varios aspectos que puede que sean los esperados pero los escribo aquí para si pueden resultar útiles:- Me hubiera gustado tener unos instantes de prueba antes de empezar, pues sobre todo en el primer lenguaje, y aun que este explicado al inicio, he tardado un tiempo después de ya haber empezado el ejercicio para acabar de entender bien lo que me pedían.- También he tenido confusión con algunas sílabas que me pedían que reconociera Por ejemplo, en el lenguaje 4 había la sílaba ""ji"" pero no creo haberla escuchado en ningún momento lo que me lleva a pensar que me hubiera gustado, antes de empezar, que me dijeran como exactamente debían de pronunciarse o sonar dichas sílabas, pues algunas, como ""ja"" pueden ser pronunciadas de formas distintas en función de la lengua y contexto.- También me he encontrado que durante el test al ir cambiando la sílaba a detectar de manera aleatoria en medio del ejercicio a veces me he encontrado que al realizar el cambio justo después de que apareciera la sílaba que debía detectar al clicar el espacio no sabia si era correcto o que estaba contando la fase anterior o se consideraba incorrecto pues ya consideraba que estaba en una nueva fase con una nueva sílaba. Personalmente me hubiera gustado unos instantes de pausa al cambiar de silaba o que esta cambiara cuando no se estaba pronunciando nada.Esto es todo, solo destacar de nuevo que estos han sido mis pensamientos hablado des de la ignorancia al realizar dicha tarea, y puede que ya hayan sido tomados en consideración y tenidos en cuenta en el experimento.Muchas gracias!",56.0,yes
30,2023-07-30_15h18.46.235,Unsyncopated1,s6,26.0,feminino,right,Espanya,CatalàCastellà,Master degree,no,no,A,1,conjunction_un,L1,unsyncopated,s1,r1,30,Online_conjL1_un//a.pu.ki9.0.888.wav,pu,ne,fo,sil,ki,fa,ni,sil1,ze,ri,sil2,['catch'],[1.3058000000128231],[1.3058000000128231],0.888,beat,0.4178000000128231,0.4178000000128231,"[""space""]",ki,2,testConjL4Syn//time_viol.r1.s2.0.wav,2.0,conjunction_syn,syncopated,a,s2,no_rule,time,L4,m,2.1039,2.0,1.0,0.3621,3.0,3.0,Català,Nativo,Castellano,Nativo,English,Preescolar (3-5a.),3.0,4.0,yes,no,yes,Flauta,12,,,"En la tarea dos, la de reconocer sílabas, me he encontrado con varios aspectos que puede que sean los esperados pero los escribo aquí para si pueden resultar útiles:- Me hubiera gustado tener unos instantes de prueba antes de empezar, pues sobre todo en el primer lenguaje, y aun que este explicado al inicio, he tardado un tiempo después de ya haber empezado el ejercicio para acabar de entender bien lo que me pedían.- También he tenido confusión con algunas sílabas que me pedían que reconociera Por ejemplo, en el lenguaje 4 había la sílaba ""ji"" pero no creo haberla escuchado en ningún momento lo que me lleva a pensar que me hubiera gustado, antes de empezar, que me dijeran como exactamente debían de pronunciarse o sonar dichas sílabas, pues algunas, como ""ja"" pueden ser pronunciadas de formas distintas en función de la lengua y contexto.- También me he encontrado que durante el test al ir cambiando la sílaba a detectar de manera aleatoria en medio del ejercicio a veces me he encontrado que al realizar el cambio justo después de que apareciera la sílaba que debía detectar al clicar el espacio no sabia si era correcto o que estaba contando la fase anterior o se consideraba incorrecto pues ya consideraba que estaba en una nueva fase con una nueva sílaba. Personalmente me hubiera gustado unos instantes de pausa al cambiar de silaba o que esta cambiara cuando no se estaba pronunciando nada.Esto es todo, solo destacar de nuevo que estos han sido mis pensamientos hablado des de la ignorancia al realizar dicha tarea, y puede que ya hayan sido tomados en consideración y tenidos en cuenta en el experimento.Muchas gracias!",56.0,yes
31,2023-07-30_15h18.46.235,Unsyncopated1,s6,26.0,feminino,right,Espanya,CatalàCastellà,Master degree,no,no,A,1,conjunction_un,L1,unsyncopated,s1,r2,31,Online_conjL1_un//a.pu.ki10.none.none.wav,ta,ze,ni,sil,be,zu,fa,sil1,ro,fo,sil2,['false alarm'],[0.7841000000244094],[0.7841000000244094],none,none,,,"[""space""]",ki,2,testConjL4Syn//cat_viol.r2.s1.0.wav,2.0,conjunction_syn,syncopated,b,s1,no_rule,cat,L4,z,2.6665,4.0,0.0,1.0187,3.0,3.0,Català,Nativo,Castellano,Nativo,English,Preescolar (3-5a.),3.0,4.0,yes,no,yes,Flauta,12,,,"En la tarea dos, la de reconocer sílabas, me he encontrado con varios aspectos que puede que sean los esperados pero los escribo aquí para si pueden resultar útiles:- Me hubiera gustado tener unos instantes de prueba antes de empezar, pues sobre todo en el primer lenguaje, y aun que este explicado al inicio, he tardado un tiempo después de ya haber empezado el ejercicio para acabar de entender bien lo que me pedían.- También he tenido confusión con algunas sílabas que me pedían que reconociera Por ejemplo, en el lenguaje 4 había la sílaba ""ji"" pero no creo haberla escuchado en ningún momento lo que me lleva a pensar que me hubiera gustado, antes de empezar, que me dijeran como exactamente debían de pronunciarse o sonar dichas sílabas, pues algunas, como ""ja"" pueden ser pronunciadas de formas distintas en función de la lengua y contexto.- También me he encontrado que durante el test al ir cambiando la sílaba a detectar de manera aleatoria en medio del ejercicio a veces me he encontrado que al realizar el cambio justo después de que apareciera la sílaba que debía detectar al clicar el espacio no sabia si era correcto o que estaba contando la fase anterior o se consideraba incorrecto pues ya consideraba que estaba en una nueva fase con una nueva sílaba. Personalmente me hubiera gustado unos instantes de pausa al cambiar de silaba o que esta cambiara cuando no se estaba pronunciando nada.Esto es todo, solo destacar de nuevo que estos han sido mis pensamientos hablado des de la ignorancia al realizar dicha tarea, y puede que ya hayan sido tomados en consideración y tenidos en cuenta en el experimento.Muchas gracias!",56.0,yes
32,2023-07-30_15h18.46.235,Unsyncopated1,s6,26.0,feminino,right,Espanya,CatalàCastellà,Master degree,no,no,A,1,conjunction_un,L1,unsyncopated,s2,r2,32,Online_conjL1_un//c.ro.fo7.444.1110.wav,ni,lu,ro,sil,ta,fo,fa,sil1,be,la,sil2,['catch'],[1.0839999999989232],[1.0839999999989232],0.444,no_beat,0.6399999999989232,0.6399999999989232,"[""space""]",ro,3,testConjL4Syn//r1.s1.2.wav,2.0,conjunction_syn,syncopated,a,s1,rule,rule,L4,z,1.434,6.0,1.0,0.2491,3.0,3.0,Català,Nativo,Castellano,Nativo,English,Preescolar (3-5a.),3.0,4.0,yes,no,yes,Flauta,12,,,"En la tarea dos, la de reconocer sílabas, me he encontrado con varios aspectos que puede que sean los esperados pero los escribo aquí para si pueden resultar útiles:- Me hubiera gustado tener unos instantes de prueba antes de empezar, pues sobre todo en el primer lenguaje, y aun que este explicado al inicio, he tardado un tiempo después de ya haber empezado el ejercicio para acabar de entender bien lo que me pedían.- También he tenido confusión con algunas sílabas que me pedían que reconociera Por ejemplo, en el lenguaje 4 había la sílaba ""ji"" pero no creo haberla escuchado en ningún momento lo que me lleva a pensar que me hubiera gustado, antes de empezar, que me dijeran como exactamente debían de pronunciarse o sonar dichas sílabas, pues algunas, como ""ja"" pueden ser pronunciadas de formas distintas en función de la lengua y contexto.- También me he encontrado que durante el test al ir cambiando la sílaba a detectar de manera aleatoria en medio del ejercicio a veces me he encontrado que al realizar el cambio justo después de que apareciera la sílaba que debía detectar al clicar el espacio no sabia si era correcto o que estaba contando la fase anterior o se consideraba incorrecto pues ya consideraba que estaba en una nueva fase con una nueva sílaba. Personalmente me hubiera gustado unos instantes de pausa al cambiar de silaba o que esta cambiara cuando no se estaba pronunciando nada.Esto es todo, solo destacar de nuevo que estos han sido mis pensamientos hablado des de la ignorancia al realizar dicha tarea, y puede que ya hayan sido tomados en consideración y tenidos en cuenta en el experimento.Muchas gracias!",56.0,yes
33,2023-07-30_15h18.46.235,Unsyncopated1,s6,26.0,feminino,right,Espanya,CatalàCastellà,Master degree,no,no,A,1,conjunction_un,L1,unsyncopated,s1,r1,33,Online_conjL1_un//c.ro.fo6.none.none.wav,pu,ne,la,sil,ki,ze,ni,sil1,zu,ri,sil2,['-'],,,none,none,,,,ro,3,testConjL4Syn//r2.s1.0.wav,2.0,conjunction_syn,syncopated,b,s1,rule,rule,L4,m,0.4432,1.0,0.0,1.0859,3.0,3.0,Català,Nativo,Castellano,Nativo,English,Preescolar (3-5a.),3.0,4.0,yes,no,yes,Flauta,12,,,"En la tarea dos, la de reconocer sílabas, me he encontrado con varios aspectos que puede que sean los esperados pero los escribo aquí para si pueden resultar útiles:- Me hubiera gustado tener unos instantes de prueba antes de empezar, pues sobre todo en el primer lenguaje, y aun que este explicado al inicio, he tardado un tiempo después de ya haber empezado el ejercicio para acabar de entender bien lo que me pedían.- También he tenido confusión con algunas sílabas que me pedían que reconociera Por ejemplo, en el lenguaje 4 había la sílaba ""ji"" pero no creo haberla escuchado en ningún momento lo que me lleva a pensar que me hubiera gustado, antes de empezar, que me dijeran como exactamente debían de pronunciarse o sonar dichas sílabas, pues algunas, como ""ja"" pueden ser pronunciadas de formas distintas en función de la lengua y contexto.- También me he encontrado que durante el test al ir cambiando la sílaba a detectar de manera aleatoria en medio del ejercicio a veces me he encontrado que al realizar el cambio justo después de que apareciera la sílaba que debía detectar al clicar el espacio no sabia si era correcto o que estaba contando la fase anterior o se consideraba incorrecto pues ya consideraba que estaba en una nueva fase con una nueva sílaba. Personalmente me hubiera gustado unos instantes de pausa al cambiar de silaba o que esta cambiara cuando no se estaba pronunciando nada.Esto es todo, solo destacar de nuevo que estos han sido mis pensamientos hablado des de la ignorancia al realizar dicha tarea, y puede que ya hayan sido tomados en consideración y tenidos en cuenta en el experimento.Muchas gracias!",56.0,yes
34,2023-07-30_15h18.46.235,Unsyncopated1,s6,26.0,feminino,right,Espanya,CatalàCastellà,Master degree,no,no,A,1,conjunction_un,L1,unsyncopated,s2,r1,34,Online_conjL1_un//c.ro.fo5.1110.222.wav,ze,fo,lu,sil,pu,ro,zu,sil1,ki,la,sil2,['catch'],[1.4825000000000728],[1.4825000000000728],1.11,no_beat,0.3725000000000726,0.3725000000000726,"[""space""]",ro,3,testConjL4Syn//r2.s1.1.wav,2.0,conjunction_syn,syncopated,b,s1,rule,rule,L4,m,1.9168,2.0,0.0,0.3764,3.0,3.0,Català,Nativo,Castellano,Nativo,English,Preescolar (3-5a.),3.0,4.0,yes,no,yes,Flauta,12,,,"En la tarea dos, la de reconocer sílabas, me he encontrado con varios aspectos que puede que sean los esperados pero los escribo aquí para si pueden resultar útiles:- Me hubiera gustado tener unos instantes de prueba antes de empezar, pues sobre todo en el primer lenguaje, y aun que este explicado al inicio, he tardado un tiempo después de ya haber empezado el ejercicio para acabar de entender bien lo que me pedían.- También he tenido confusión con algunas sílabas que me pedían que reconociera Por ejemplo, en el lenguaje 4 había la sílaba ""ji"" pero no creo haberla escuchado en ningún momento lo que me lleva a pensar que me hubiera gustado, antes de empezar, que me dijeran como exactamente debían de pronunciarse o sonar dichas sílabas, pues algunas, como ""ja"" pueden ser pronunciadas de formas distintas en función de la lengua y contexto.- También me he encontrado que durante el test al ir cambiando la sílaba a detectar de manera aleatoria en medio del ejercicio a veces me he encontrado que al realizar el cambio justo después de que apareciera la sílaba que debía detectar al clicar el espacio no sabia si era correcto o que estaba contando la fase anterior o se consideraba incorrecto pues ya consideraba que estaba en una nueva fase con una nueva sílaba. Personalmente me hubiera gustado unos instantes de pausa al cambiar de silaba o que esta cambiara cuando no se estaba pronunciando nada.Esto es todo, solo destacar de nuevo que estos han sido mis pensamientos hablado des de la ignorancia al realizar dicha tarea, y puede que ya hayan sido tomados en consideración y tenidos en cuenta en el experimento.Muchas gracias!",56.0,yes
35,2023-07-30_15h18.46.235,Unsyncopated1,s6,26.0,feminino,right,Espanya,CatalàCastellà,Master degree,no,no,A,1,conjunction_un,L1,unsyncopated,s2,r2,35,Online_conjL1_un//c.ro.fo4.0.1110.wav,ro,lu,fa,sil,ta,fo,ne,sil1,be,ni,sil2,['catch'],[0.47089999997660925],[0.47089999997660925],0.0,beat,0.4708999999766092,0.4708999999766092,"[""space""]",ro,3,testConjL4Syn//r1.s2.0.wav,2.0,conjunction_syn,syncopated,a,s2,rule,rule,L4,z,1.3849,6.0,1.0,0.2531,3.0,3.0,Català,Nativo,Castellano,Nativo,English,Preescolar (3-5a.),3.0,4.0,yes,no,yes,Flauta,12,,,"En la tarea dos, la de reconocer sílabas, me he encontrado con varios aspectos que puede que sean los esperados pero los escribo aquí para si pueden resultar útiles:- Me hubiera gustado tener unos instantes de prueba antes de empezar, pues sobre todo en el primer lenguaje, y aun que este explicado al inicio, he tardado un tiempo después de ya haber empezado el ejercicio para acabar de entender bien lo que me pedían.- También he tenido confusión con algunas sílabas que me pedían que reconociera Por ejemplo, en el lenguaje 4 había la sílaba ""ji"" pero no creo haberla escuchado en ningún momento lo que me lleva a pensar que me hubiera gustado, antes de empezar, que me dijeran como exactamente debían de pronunciarse o sonar dichas sílabas, pues algunas, como ""ja"" pueden ser pronunciadas de formas distintas en función de la lengua y contexto.- También me he encontrado que durante el test al ir cambiando la sílaba a detectar de manera aleatoria en medio del ejercicio a veces me he encontrado que al realizar el cambio justo después de que apareciera la sílaba que debía detectar al clicar el espacio no sabia si era correcto o que estaba contando la fase anterior o se consideraba incorrecto pues ya consideraba que estaba en una nueva fase con una nueva sílaba. Personalmente me hubiera gustado unos instantes de pausa al cambiar de silaba o que esta cambiara cuando no se estaba pronunciando nada.Esto es todo, solo destacar de nuevo que estos han sido mis pensamientos hablado des de la ignorancia al realizar dicha tarea, y puede que ya hayan sido tomados en consideración y tenidos en cuenta en el experimento.Muchas gracias!",56.0,yes
36,2023-07-30_15h18.46.235,Unsyncopated1,s6,26.0,feminino,right,Espanya,CatalàCastellà,Master degree,no,no,A,1,conjunction_un,L1,unsyncopated,s2,r2,36,Online_conjL1_un//a.pu.ki28.none.none.wav,ne,zu,ze,sil,ta,ni,fa,sil1,be,lu,sil2,['false alarm'],[0.4036000000232889],[0.4036000000232889],none,none,,,"[""space""]",ki,2,testConjL4Syn//r1.s1.1.wav,2.0,conjunction_syn,syncopated,a,s1,rule,rule,L4,z,0.7569,4.0,1.0,0.4968,3.0,3.0,Català,Nativo,Castellano,Nativo,English,Preescolar (3-5a.),3.0,4.0,yes,no,yes,Flauta,12,,,"En la tarea dos, la de reconocer sílabas, me he encontrado con varios aspectos que puede que sean los esperados pero los escribo aquí para si pueden resultar útiles:- Me hubiera gustado tener unos instantes de prueba antes de empezar, pues sobre todo en el primer lenguaje, y aun que este explicado al inicio, he tardado un tiempo después de ya haber empezado el ejercicio para acabar de entender bien lo que me pedían.- También he tenido confusión con algunas sílabas que me pedían que reconociera Por ejemplo, en el lenguaje 4 había la sílaba ""ji"" pero no creo haberla escuchado en ningún momento lo que me lleva a pensar que me hubiera gustado, antes de empezar, que me dijeran como exactamente debían de pronunciarse o sonar dichas sílabas, pues algunas, como ""ja"" pueden ser pronunciadas de formas distintas en función de la lengua y contexto.- También me he encontrado que durante el test al ir cambiando la sílaba a detectar de manera aleatoria en medio del ejercicio a veces me he encontrado que al realizar el cambio justo después de que apareciera la sílaba que debía detectar al clicar el espacio no sabia si era correcto o que estaba contando la fase anterior o se consideraba incorrecto pues ya consideraba que estaba en una nueva fase con una nueva sílaba. Personalmente me hubiera gustado unos instantes de pausa al cambiar de silaba o que esta cambiara cuando no se estaba pronunciando nada.Esto es todo, solo destacar de nuevo que estos han sido mis pensamientos hablado des de la ignorancia al realizar dicha tarea, y puede que ya hayan sido tomados en consideración y tenidos en cuenta en el experimento.Muchas gracias!",56.0,yes
37,2023-07-30_15h18.46.235,Unsyncopated1,s6,26.0,feminino,right,Espanya,CatalàCastellà,Master degree,no,no,A,1,conjunction_un,L1,unsyncopated,s2,r2,37,Online_conjL1_un//a.pu.ki31.none.none.wav,ze,la,ni,sil,ta,ne,lu,sil1,be,cho,sil2,['-'],,,none,none,,,,ki,2,testConjL4Syn//dep_viol.r1.s2.0.wav,2.0,conjunction_syn,syncopated,a,s2,no_rule,dep,L4,m,0.6758,2.0,1.0,0.2686,3.0,3.0,Català,Nativo,Castellano,Nativo,English,Preescolar (3-5a.),3.0,4.0,yes,no,yes,Flauta,12,,,"En la tarea dos, la de reconocer sílabas, me he encontrado con varios aspectos que puede que sean los esperados pero los escribo aquí para si pueden resultar útiles:- Me hubiera gustado tener unos instantes de prueba antes de empezar, pues sobre todo en el primer lenguaje, y aun que este explicado al inicio, he tardado un tiempo después de ya haber empezado el ejercicio para acabar de entender bien lo que me pedían.- También he tenido confusión con algunas sílabas que me pedían que reconociera Por ejemplo, en el lenguaje 4 había la sílaba ""ji"" pero no creo haberla escuchado en ningún momento lo que me lleva a pensar que me hubiera gustado, antes de empezar, que me dijeran como exactamente debían de pronunciarse o sonar dichas sílabas, pues algunas, como ""ja"" pueden ser pronunciadas de formas distintas en función de la lengua y contexto.- También me he encontrado que durante el test al ir cambiando la sílaba a detectar de manera aleatoria en medio del ejercicio a veces me he encontrado que al realizar el cambio justo después de que apareciera la sílaba que debía detectar al clicar el espacio no sabia si era correcto o que estaba contando la fase anterior o se consideraba incorrecto pues ya consideraba que estaba en una nueva fase con una nueva sílaba. Personalmente me hubiera gustado unos instantes de pausa al cambiar de silaba o que esta cambiara cuando no se estaba pronunciando nada.Esto es todo, solo destacar de nuevo que estos han sido mis pensamientos hablado des de la ignorancia al realizar dicha tarea, y puede que ya hayan sido tomados en consideración y tenidos en cuenta en el experimento.Muchas gracias!",56.0,yes
38,2023-07-30_15h18.46.235,Unsyncopated1,s6,26.0,feminino,right,Espanya,CatalàCastellà,Master degree,no,no,A,1,conjunction_un,L1,unsyncopated,s2,r2,38,Online_conjL1_un//a.pu.ki30.none.none.wav,ri,lu,ze,sil,ta,zu,fa,sil1,be,ne,sil2,['-'],,,none,none,,,,ki,2,testConjL4Syn//dep_viol.r1.s1.0.wav,2.0,conjunction_syn,syncopated,a,s1,no_rule,dep,L4,m,0.898,1.0,1.0,0.7505,3.0,3.0,Català,Nativo,Castellano,Nativo,English,Preescolar (3-5a.),3.0,4.0,yes,no,yes,Flauta,12,,,"En la tarea dos, la de reconocer sílabas, me he encontrado con varios aspectos que puede que sean los esperados pero los escribo aquí para si pueden resultar útiles:- Me hubiera gustado tener unos instantes de prueba antes de empezar, pues sobre todo en el primer lenguaje, y aun que este explicado al inicio, he tardado un tiempo después de ya haber empezado el ejercicio para acabar de entender bien lo que me pedían.- También he tenido confusión con algunas sílabas que me pedían que reconociera Por ejemplo, en el lenguaje 4 había la sílaba ""ji"" pero no creo haberla escuchado en ningún momento lo que me lleva a pensar que me hubiera gustado, antes de empezar, que me dijeran como exactamente debían de pronunciarse o sonar dichas sílabas, pues algunas, como ""ja"" pueden ser pronunciadas de formas distintas en función de la lengua y contexto.- También me he encontrado que durante el test al ir cambiando la sílaba a detectar de manera aleatoria en medio del ejercicio a veces me he encontrado que al realizar el cambio justo después de que apareciera la sílaba que debía detectar al clicar el espacio no sabia si era correcto o que estaba contando la fase anterior o se consideraba incorrecto pues ya consideraba que estaba en una nueva fase con una nueva sílaba. Personalmente me hubiera gustado unos instantes de pausa al cambiar de silaba o que esta cambiara cuando no se estaba pronunciando nada.Esto es todo, solo destacar de nuevo que estos han sido mis pensamientos hablado des de la ignorancia al realizar dicha tarea, y puede que ya hayan sido tomados en consideración y tenidos en cuenta en el experimento.Muchas gracias!",56.0,yes
39,2023-07-30_15h18.46.235,Unsyncopated1,s6,26.0,feminino,right,Espanya,CatalàCastellà,Master degree,no,no,A,1,conjunction_un,L1,unsyncopated,s1,r1,39,Online_conjL1_un//a.pu.ki29.0.888.wav,pu,fa,ze,sil,ki,la,cho,sil1,ro,ni,sil2,['catch'],[1.184000000001106],[1.184000000001106],0.888,beat,0.2960000000011059,0.2960000000011059,"[""space""]",ki,2,testConjL4Syn//r2.s2.0.wav,2.0,conjunction_syn,syncopated,b,s2,rule,rule,L4,z,3.688,3.0,1.0,0.7514,3.0,3.0,Català,Nativo,Castellano,Nativo,English,Preescolar (3-5a.),3.0,4.0,yes,no,yes,Flauta,12,,,"En la tarea dos, la de reconocer sílabas, me he encontrado con varios aspectos que puede que sean los esperados pero los escribo aquí para si pueden resultar útiles:- Me hubiera gustado tener unos instantes de prueba antes de empezar, pues sobre todo en el primer lenguaje, y aun que este explicado al inicio, he tardado un tiempo después de ya haber empezado el ejercicio para acabar de entender bien lo que me pedían.- También he tenido confusión con algunas sílabas que me pedían que reconociera Por ejemplo, en el lenguaje 4 había la sílaba ""ji"" pero no creo haberla escuchado en ningún momento lo que me lleva a pensar que me hubiera gustado, antes de empezar, que me dijeran como exactamente debían de pronunciarse o sonar dichas sílabas, pues algunas, como ""ja"" pueden ser pronunciadas de formas distintas en función de la lengua y contexto.- También me he encontrado que durante el test al ir cambiando la sílaba a detectar de manera aleatoria en medio del ejercicio a veces me he encontrado que al realizar el cambio justo después de que apareciera la sílaba que debía detectar al clicar el espacio no sabia si era correcto o que estaba contando la fase anterior o se consideraba incorrecto pues ya consideraba que estaba en una nueva fase con una nueva sílaba. Personalmente me hubiera gustado unos instantes de pausa al cambiar de silaba o que esta cambiara cuando no se estaba pronunciando nada.Esto es todo, solo destacar de nuevo que estos han sido mis pensamientos hablado des de la ignorancia al realizar dicha tarea, y puede que ya hayan sido tomados en consideración y tenidos en cuenta en el experimento.Muchas gracias!",56.0,yes
40,2023-07-30_15h18.46.235,Unsyncopated1,s6,26.0,feminino,right,Espanya,CatalàCastellà,Master degree,no,no,A,1,conjunction_un,L1,unsyncopated,s1,r2,40,Online_conjL1_un//c.ro.fo11.none.none.wav,ta,lu,la,sil,be,fa,ne,sil1,ze,ni,sil2,['-'],,,none,none,,,,ro,3,testConjL4Syn//r2.s1.2.wav,2.0,conjunction_syn,syncopated,b,s1,rule,rule,L4,m,4.2362,1.0,0.0,0.2416,3.0,3.0,Català,Nativo,Castellano,Nativo,English,Preescolar (3-5a.),3.0,4.0,yes,no,yes,Flauta,12,,,"En la tarea dos, la de reconocer sílabas, me he encontrado con varios aspectos que puede que sean los esperados pero los escribo aquí para si pueden resultar útiles:- Me hubiera gustado tener unos instantes de prueba antes de empezar, pues sobre todo en el primer lenguaje, y aun que este explicado al inicio, he tardado un tiempo después de ya haber empezado el ejercicio para acabar de entender bien lo que me pedían.- También he tenido confusión con algunas sílabas que me pedían que reconociera Por ejemplo, en el lenguaje 4 había la sílaba ""ji"" pero no creo haberla escuchado en ningún momento lo que me lleva a pensar que me hubiera gustado, antes de empezar, que me dijeran como exactamente debían de pronunciarse o sonar dichas sílabas, pues algunas, como ""ja"" pueden ser pronunciadas de formas distintas en función de la lengua y contexto.- También me he encontrado que durante el test al ir cambiando la sílaba a detectar de manera aleatoria en medio del ejercicio a veces me he encontrado que al realizar el cambio justo después de que apareciera la sílaba que debía detectar al clicar el espacio no sabia si era correcto o que estaba contando la fase anterior o se consideraba incorrecto pues ya consideraba que estaba en una nueva fase con una nueva sílaba. Personalmente me hubiera gustado unos instantes de pausa al cambiar de silaba o que esta cambiara cuando no se estaba pronunciando nada.Esto es todo, solo destacar de nuevo que estos han sido mis pensamientos hablado des de la ignorancia al realizar dicha tarea, y puede que ya hayan sido tomados en consideración y tenidos en cuenta en el experimento.Muchas gracias!",56.0,yes
41,2023-07-30_15h18.46.235,Unsyncopated1,s6,26.0,feminino,right,Espanya,CatalàCastellà,Master degree,no,no,A,1,conjunction_un,L1,unsyncopated,s2,r2,41,Online_conjL1_un//c.ro.fo8.none.none.wav,ni,cho,ri,sil,ta,la,ze,sil1,be,zu,sil2,['-'],,,none,none,,,,ro,3,testConjL4Syn//r1.s1.0.wav,2.0,conjunction_syn,syncopated,a,s1,rule,rule,L4,z,0.6298,4.0,1.0,1.5561,3.0,3.0,Català,Nativo,Castellano,Nativo,English,Preescolar (3-5a.),3.0,4.0,yes,no,yes,Flauta,12,,,"En la tarea dos, la de reconocer sílabas, me he encontrado con varios aspectos que puede que sean los esperados pero los escribo aquí para si pueden resultar útiles:- Me hubiera gustado tener unos instantes de prueba antes de empezar, pues sobre todo en el primer lenguaje, y aun que este explicado al inicio, he tardado un tiempo después de ya haber empezado el ejercicio para acabar de entender bien lo que me pedían.- También he tenido confusión con algunas sílabas que me pedían que reconociera Por ejemplo, en el lenguaje 4 había la sílaba ""ji"" pero no creo haberla escuchado en ningún momento lo que me lleva a pensar que me hubiera gustado, antes de empezar, que me dijeran como exactamente debían de pronunciarse o sonar dichas sílabas, pues algunas, como ""ja"" pueden ser pronunciadas de formas distintas en función de la lengua y contexto.- También me he encontrado que durante el test al ir cambiando la sílaba a detectar de manera aleatoria en medio del ejercicio a veces me he encontrado que al realizar el cambio justo después de que apareciera la sílaba que debía detectar al clicar el espacio no sabia si era correcto o que estaba contando la fase anterior o se consideraba incorrecto pues ya consideraba que estaba en una nueva fase con una nueva sílaba. Personalmente me hubiera gustado unos instantes de pausa al cambiar de silaba o que esta cambiara cuando no se estaba pronunciando nada.Esto es todo, solo destacar de nuevo que estos han sido mis pensamientos hablado des de la ignorancia al realizar dicha tarea, y puede que ya hayan sido tomados en consideración y tenidos en cuenta en el experimento.Muchas gracias!",56.0,yes
42,2023-07-30_15h18.46.235,Unsyncopated1,s6,26.0,feminino,right,Espanya,CatalàCastellà,Master degree,no,no,A,1,conjunction_un,L1,unsyncopated,s2,r1,42,Online_conjL1_un//c.ro.fo9.1332.444.wav,ri,ze,fo,sil,pu,fa,ro,sil1,ki,ne,sil2,"['catch', 'false alarm']","[2.0908000000126776, 2.570400000036898]",[2.0908000000126776],1.332,no_beat,0.7588000000126776,0.7588000000126776,"[""space"",""space""]",ro,3,testConjL4Syn//dep_viol.r2.s2.0.wav,2.0,conjunction_syn,syncopated,b,s2,no_rule,dep,L4,m,0.2952,3.0,1.0,0.2556,3.0,3.0,Català,Nativo,Castellano,Nativo,English,Preescolar (3-5a.),3.0,4.0,yes,no,yes,Flauta,12,,,"En la tarea dos, la de reconocer sílabas, me he encontrado con varios aspectos que puede que sean los esperados pero los escribo aquí para si pueden resultar útiles:- Me hubiera gustado tener unos instantes de prueba antes de empezar, pues sobre todo en el primer lenguaje, y aun que este explicado al inicio, he tardado un tiempo después de ya haber empezado el ejercicio para acabar de entender bien lo que me pedían.- También he tenido confusión con algunas sílabas que me pedían que reconociera Por ejemplo, en el lenguaje 4 había la sílaba ""ji"" pero no creo haberla escuchado en ningún momento lo que me lleva a pensar que me hubiera gustado, antes de empezar, que me dijeran como exactamente debían de pronunciarse o sonar dichas sílabas, pues algunas, como ""ja"" pueden ser pronunciadas de formas distintas en función de la lengua y contexto.- También me he encontrado que durante el test al ir cambiando la sílaba a detectar de manera aleatoria en medio del ejercicio a veces me he encontrado que al realizar el cambio justo después de que apareciera la sílaba que debía detectar al clicar el espacio no sabia si era correcto o que estaba contando la fase anterior o se consideraba incorrecto pues ya consideraba que estaba en una nueva fase con una nueva sílaba. Personalmente me hubiera gustado unos instantes de pausa al cambiar de silaba o que esta cambiara cuando no se estaba pronunciando nada.Esto es todo, solo destacar de nuevo que estos han sido mis pensamientos hablado des de la ignorancia al realizar dicha tarea, y puede que ya hayan sido tomados en consideración y tenidos en cuenta en el experimento.Muchas gracias!",56.0,yes
43,2023-07-30_15h18.46.235,Unsyncopated1,s6,26.0,feminino,right,Espanya,CatalàCastellà,Master degree,no,no,A,1,conjunction_un,L1,unsyncopated,s1,r2,43,Online_conjL1_un//c.ro.fo10.none.none.wav,ta,zu,cho,sil,be,ze,la,sil1,ne,lu,sil2,['-'],,,none,none,,,,ro,3,testConjL4Syn//r1.s2.1.wav,2.0,conjunction_syn,syncopated,a,s2,rule,rule,L4,z,1.2868,5.0,1.0,0.4828,3.0,3.0,Català,Nativo,Castellano,Nativo,English,Preescolar (3-5a.),3.0,4.0,yes,no,yes,Flauta,12,,,"En la tarea dos, la de reconocer sílabas, me he encontrado con varios aspectos que puede que sean los esperados pero los escribo aquí para si pueden resultar útiles:- Me hubiera gustado tener unos instantes de prueba antes de empezar, pues sobre todo en el primer lenguaje, y aun que este explicado al inicio, he tardado un tiempo después de ya haber empezado el ejercicio para acabar de entender bien lo que me pedían.- También he tenido confusión con algunas sílabas que me pedían que reconociera Por ejemplo, en el lenguaje 4 había la sílaba ""ji"" pero no creo haberla escuchado en ningún momento lo que me lleva a pensar que me hubiera gustado, antes de empezar, que me dijeran como exactamente debían de pronunciarse o sonar dichas sílabas, pues algunas, como ""ja"" pueden ser pronunciadas de formas distintas en función de la lengua y contexto.- También me he encontrado que durante el test al ir cambiando la sílaba a detectar de manera aleatoria en medio del ejercicio a veces me he encontrado que al realizar el cambio justo después de que apareciera la sílaba que debía detectar al clicar el espacio no sabia si era correcto o que estaba contando la fase anterior o se consideraba incorrecto pues ya consideraba que estaba en una nueva fase con una nueva sílaba. Personalmente me hubiera gustado unos instantes de pausa al cambiar de silaba o que esta cambiara cuando no se estaba pronunciando nada.Esto es todo, solo destacar de nuevo que estos han sido mis pensamientos hablado des de la ignorancia al realizar dicha tarea, y puede que ya hayan sido tomados en consideración y tenidos en cuenta en el experimento.Muchas gracias!",56.0,yes
44,2023-07-30_15h18.46.235,Unsyncopated1,s6,26.0,feminino,right,Espanya,CatalàCastellà,Master degree,no,no,A,1,conjunction_un,L1,unsyncopated,s1,r2,44,Online_conjL1_un//c.ro.fo20.none.none.wav,ta,ri,ni,sil,be,ze,cho,sil1,la,fa,sil2,['false alarm'],[2.4434999999994034],[2.4434999999994034],none,none,,,"[""space""]",ro,3,testConjL4Syn//time_viol.r2.s1.0.wav,2.0,conjunction_syn,syncopated,b,s1,no_rule,time,L4,m,1.5362,2.0,1.0,0.3086,3.0,3.0,Català,Nativo,Castellano,Nativo,English,Preescolar (3-5a.),3.0,4.0,yes,no,yes,Flauta,12,,,"En la tarea dos, la de reconocer sílabas, me he encontrado con varios aspectos que puede que sean los esperados pero los escribo aquí para si pueden resultar útiles:- Me hubiera gustado tener unos instantes de prueba antes de empezar, pues sobre todo en el primer lenguaje, y aun que este explicado al inicio, he tardado un tiempo después de ya haber empezado el ejercicio para acabar de entender bien lo que me pedían.- También he tenido confusión con algunas sílabas que me pedían que reconociera Por ejemplo, en el lenguaje 4 había la sílaba ""ji"" pero no creo haberla escuchado en ningún momento lo que me lleva a pensar que me hubiera gustado, antes de empezar, que me dijeran como exactamente debían de pronunciarse o sonar dichas sílabas, pues algunas, como ""ja"" pueden ser pronunciadas de formas distintas en función de la lengua y contexto.- También me he encontrado que durante el test al ir cambiando la sílaba a detectar de manera aleatoria en medio del ejercicio a veces me he encontrado que al realizar el cambio justo después de que apareciera la sílaba que debía detectar al clicar el espacio no sabia si era correcto o que estaba contando la fase anterior o se consideraba incorrecto pues ya consideraba que estaba en una nueva fase con una nueva sílaba. Personalmente me hubiera gustado unos instantes de pausa al cambiar de silaba o que esta cambiara cuando no se estaba pronunciando nada.Esto es todo, solo destacar de nuevo que estos han sido mis pensamientos hablado des de la ignorancia al realizar dicha tarea, y puede que ya hayan sido tomados en consideración y tenidos en cuenta en el experimento.Muchas gracias!",56.0,yes
