Unnamed: 0,date,expName,participant,age,sex,hand,residence,native_lang,education_level,lang_deficit,aud_deficit,group,block,condition,language,rhythm,rule structure online,rule type online,order_trial_on,trial_online,s1,s2,s3,s4,s5,s6,s7,s8,s9,s10,s11,catch_syll_resp,rts_syll_catch,clean_rts,time_syll,beat_no_beat,catch_rtsTR,catch_rts,syllable_catch.keys,cond_syll,syll_to_catch,test_offline,block_off,condition_off,rhythm_off,rule,rule_str_off,rule_norule,conds_offline,language_off,Partz_no_partm.keys,Partz_no_partm.rt,security_1_7.keys,accuracy,security_1_7.rt,n_lang,n_lang_used,lang_1,age_l1,lang_2,age_l2,lang_3,age_l3,ability_learn_l2,tendence_mix_lan,music_experience,muisc_use,partiture,instr_1,age_M1,instr_2,age_M2,preguntas_musica1,BMRQ_answer.response,final comment,BMRQ_Score,bilingual
0,2023-07-24_13h09.44.769,Unsyncopated1,s9,31.0,feminino,right,españa,español,Bachelor degree,no,no,A,1,what,L2,unsyncopated,s1,r2,0,Online_whatL2//d.si.ñu14.none.none.wav,fe,te,cha,sil,ra,mi,ba,sil1,bi,ño,sil2,['-'],,,none,none,,,,si,4,testWhatL2Uns//r2.s2.0.wav,1.0,what,unsyncopated,b,s2,rule,rule,L2,z,5.0121,6.0,1.0,4.055,3.0,2.0,Español,0.0,Ingles,8.0,Catalan,22.0,5.0,4.0,yes,no,yes,Flauta,6,Piano,6,1. Cuando comparto música con alguien siento una complicidad especial con aquella persona.,3.0,"Me ha gustado mucho, aunque he tenido diferentes aproximaciones a cada uno de los lenguajes, por ejemplo, el primero lo sobreanalicé y el último lo hice por intuición. También creo que se pierde un poco el spam de atención al final de cada ejercicio y sobretodo en el Lenguaje 4. Desde mi experiencia, sentía que había establecido un ritmo y unas reglas y en las preguntas no escuchaba muchas cosas similares, así que la mayoría de respuestas fueron hechas con incertidumbre.",65.0,yes
1,2023-07-24_13h09.44.769,Unsyncopated1,s9,31.0,feminino,right,españa,español,Bachelor degree,no,no,A,1,what,L2,unsyncopated,s2,r2,1,Online_whatL2//d.si.ñu15.none.none.wav,su,te,mi,sil2,fe,ño,bi,sil,ra,cha,sil1,['-'],,,none,none,,,,si,4,testWhatL2Uns//dep_viol.r1.s2.0.wav,1.0,what,unsyncopated,a,s2,no_rule,dep,L2,m,6.2213,4.0,1.0,1.2883,3.0,2.0,Español,0.0,Ingles,8.0,Catalan,22.0,5.0,4.0,yes,no,yes,Flauta,6,Piano,6,2. En mi tiempo libre apenas escucho música.,4.0,"Me ha gustado mucho, aunque he tenido diferentes aproximaciones a cada uno de los lenguajes, por ejemplo, el primero lo sobreanalicé y el último lo hice por intuición. También creo que se pierde un poco el spam de atención al final de cada ejercicio y sobretodo en el Lenguaje 4. Desde mi experiencia, sentía que había establecido un ritmo y unas reglas y en las preguntas no escuchaba muchas cosas similares, así que la mayoría de respuestas fueron hechas con incertidumbre.",65.0,yes
2,2023-07-24_13h09.44.769,Unsyncopated1,s9,31.0,feminino,right,españa,español,Bachelor degree,no,no,A,1,what,L2,unsyncopated,s1,r1,2,Online_whatL2//d.si.ñu12.222.444.wav,go,si,ñu,sil,du,ba,me,sil1,bi,to,sil2,['catch'],[0.7445000000000164],[0.7445000000000164],0.222,no_beat,0.5225000000000164,0.5225000000000164,"[""space""]",si,4,testWhatL2Uns//cat_viol.r1.s2.0.wav,1.0,what,unsyncopated,a,s2,no_rule,cat,L2,m,4.9189,6.0,1.0,1.3217,3.0,2.0,Español,0.0,Ingles,8.0,Catalan,22.0,5.0,4.0,yes,no,yes,Flauta,6,Piano,6,3. Algunas canciones me ponen los pelos de punta,4.0,"Me ha gustado mucho, aunque he tenido diferentes aproximaciones a cada uno de los lenguajes, por ejemplo, el primero lo sobreanalicé y el último lo hice por intuición. También creo que se pierde un poco el spam de atención al final de cada ejercicio y sobretodo en el Lenguaje 4. Desde mi experiencia, sentía que había establecido un ritmo y unas reglas y en las preguntas no escuchaba muchas cosas similares, así que la mayoría de respuestas fueron hechas con incertidumbre.",65.0,yes
3,2023-07-24_13h09.44.769,Unsyncopated1,s9,31.0,feminino,right,españa,español,Bachelor degree,no,no,A,1,what,L2,unsyncopated,s2,r2,3,Online_whatL2//d.si.ñu13.444.0.wav,ñu,te,si,sil,fe,bi,cha,sil1,ra,ba,sil2,['miss'],,,0.444,no_beat,,,,si,4,testWhatL2Uns//r2.s1.1.wav,1.0,what,unsyncopated,b,s1,rule,rule,L2,z,10.425,2.0,1.0,3.9194,3.0,2.0,Español,0.0,Ingles,8.0,Catalan,22.0,5.0,4.0,yes,no,yes,Flauta,6,Piano,6,4. La música me hace compañía cuando estoy solo,3.0,"Me ha gustado mucho, aunque he tenido diferentes aproximaciones a cada uno de los lenguajes, por ejemplo, el primero lo sobreanalicé y el último lo hice por intuición. También creo que se pierde un poco el spam de atención al final de cada ejercicio y sobretodo en el Lenguaje 4. Desde mi experiencia, sentía que había establecido un ritmo y unas reglas y en las preguntas no escuchaba muchas cosas similares, así que la mayoría de respuestas fueron hechas con incertidumbre.",65.0,yes
4,2023-07-24_13h09.44.769,Unsyncopated1,s9,31.0,feminino,right,españa,español,Bachelor degree,no,no,A,1,what,L2,unsyncopated,s2,r2,4,Online_whatL2//a.go.du27.none.none.wav,mi,cha,ba,sil,fe,bi,su,sil2,ra,ño,sil1,['-'],,,none,none,,,,du,2,testWhatL2Uns//r2.s2.2.wav,1.0,what,unsyncopated,b,s2,rule,rule,L2,z,1.6864,7.0,1.0,1.9236,3.0,2.0,Español,0.0,Ingles,8.0,Catalan,22.0,5.0,4.0,yes,no,yes,Flauta,6,Piano,6,5. No me apetece bailar ni con la música que más me gusta,5.0,"Me ha gustado mucho, aunque he tenido diferentes aproximaciones a cada uno de los lenguajes, por ejemplo, el primero lo sobreanalicé y el último lo hice por intuición. También creo que se pierde un poco el spam de atención al final de cada ejercicio y sobretodo en el Lenguaje 4. Desde mi experiencia, sentía que había establecido un ritmo y unas reglas y en las preguntas no escuchaba muchas cosas similares, así que la mayoría de respuestas fueron hechas con incertidumbre.",65.0,yes
5,2023-07-24_13h09.44.769,Unsyncopated1,s9,31.0,feminino,right,españa,español,Bachelor degree,no,no,A,1,what,L2,unsyncopated,s2,r2,5,Online_whatL2//a.go.du24.none.none.wav,me,cha,bi,sil,fe,ño,su,sil2,ra,to,sil1,['-'],,,none,none,,,,du,2,testWhatL2Uns//time_viol.r1.s2.0.wav,1.0,what,unsyncopated,a,s2,no_rule,time,L2,z,2.057,6.0,0.0,2.4231,3.0,2.0,Español,0.0,Ingles,8.0,Catalan,22.0,5.0,4.0,yes,no,yes,Flauta,6,Piano,6,6. La música me hace conectar con la gente,3.0,"Me ha gustado mucho, aunque he tenido diferentes aproximaciones a cada uno de los lenguajes, por ejemplo, el primero lo sobreanalicé y el último lo hice por intuición. También creo que se pierde un poco el spam de atención al final de cada ejercicio y sobretodo en el Lenguaje 4. Desde mi experiencia, sentía que había establecido un ritmo y unas reglas y en las preguntas no escuchaba muchas cosas similares, así que la mayoría de respuestas fueron hechas con incertidumbre.",65.0,yes
6,2023-07-24_13h09.44.769,Unsyncopated1,s9,31.0,feminino,right,españa,español,Bachelor degree,no,no,A,1,what,L2,unsyncopated,s1,r2,6,Online_whatL2//a.go.du26.none.none.wav,fe,te,si,sil2,ra,ba,to,sil,su,bi,sil1,['false alarm'],[0.5458000000006678],[0.5458000000006678],none,none,,,"[""space""]",du,2,testWhatL2Uns//cat_viol.r2.s2.0.wav,1.0,what,unsyncopated,b,s2,no_rule,cat,L2,z,1.4877,6.0,0.0,2.4378,3.0,2.0,Español,0.0,Ingles,8.0,Catalan,22.0,5.0,4.0,yes,no,yes,Flauta,6,Piano,6,7. Me informo sobre la música que me gusta.,4.0,"Me ha gustado mucho, aunque he tenido diferentes aproximaciones a cada uno de los lenguajes, por ejemplo, el primero lo sobreanalicé y el último lo hice por intuición. También creo que se pierde un poco el spam de atención al final de cada ejercicio y sobretodo en el Lenguaje 4. Desde mi experiencia, sentía que había establecido un ritmo y unas reglas y en las preguntas no escuchaba muchas cosas similares, así que la mayoría de respuestas fueron hechas con incertidumbre.",65.0,yes
7,2023-07-24_13h09.44.769,Unsyncopated1,s9,31.0,feminino,right,españa,español,Bachelor degree,no,no,A,1,what,L2,unsyncopated,s1,r1,7,Online_whatL2//a.go.du25.0.888.wav,go,bi,ñu,sil,du,mi,si,sil2,su,cha,sil1,['catch'],[1.6785000000000991],[1.6785000000000991],0.888,beat,0.7905000000000991,0.7905000000000991,"[""space""]",du,2,testWhatL2Uns//dep_viol.r1.s1.0.wav,1.0,what,unsyncopated,a,s1,no_rule,dep,L2,m,1.3292,6.0,1.0,1.487,3.0,2.0,Español,0.0,Ingles,8.0,Catalan,22.0,5.0,4.0,yes,no,yes,Flauta,6,Piano,6,8.Me emociono escuchando ciertas canciones.,4.0,"Me ha gustado mucho, aunque he tenido diferentes aproximaciones a cada uno de los lenguajes, por ejemplo, el primero lo sobreanalicé y el último lo hice por intuición. También creo que se pierde un poco el spam de atención al final de cada ejercicio y sobretodo en el Lenguaje 4. Desde mi experiencia, sentía que había establecido un ritmo y unas reglas y en las preguntas no escuchaba muchas cosas similares, así que la mayoría de respuestas fueron hechas con incertidumbre.",65.0,yes
8,2023-07-24_13h09.44.769,Unsyncopated1,s9,31.0,feminino,right,españa,español,Bachelor degree,no,no,A,1,what,L2,unsyncopated,s1,r2,8,Online_whatL2//b.fe.ra0.0.1110.wav,fe,cha,ño,sil2,ra,te,me,sil,to,ñu,sil1,['catch'],[0.8208999999985735],[0.8208999999985735],0.0,beat,0.8208999999985735,0.8208999999985735,"[""space""]",fe,1,testWhatL2Uns//r1.s1.2.wav,1.0,what,unsyncopated,a,s1,rule,rule,L2,m,2.4527,3.0,0.0,2.0896,3.0,2.0,Español,0.0,Ingles,8.0,Catalan,22.0,5.0,4.0,yes,no,yes,Flauta,6,Piano,6,9.La música me tranquiliza y me relaja.,3.0,"Me ha gustado mucho, aunque he tenido diferentes aproximaciones a cada uno de los lenguajes, por ejemplo, el primero lo sobreanalicé y el último lo hice por intuición. También creo que se pierde un poco el spam de atención al final de cada ejercicio y sobretodo en el Lenguaje 4. Desde mi experiencia, sentía que había establecido un ritmo y unas reglas y en las preguntas no escuchaba muchas cosas similares, así que la mayoría de respuestas fueron hechas con incertidumbre.",65.0,yes
9,2023-07-24_13h09.44.769,Unsyncopated1,s9,31.0,feminino,right,españa,español,Bachelor degree,no,no,A,1,what,L2,unsyncopated,s2,r2,9,Online_whatL2//b.fe.ra3.1110.1998.wav,si,ño,me,sil2,fe,ñu,cha,sil,ra,bi,sil1,['catch'],[1.5773000000007187],[1.5773000000007187],1.11,no_beat,0.4673000000007186,0.4673000000007186,"[""space""]",fe,1,testWhatL2Uns//time_viol.r2.s2.0.wav,1.0,what,unsyncopated,b,s2,no_rule,time,L2,m,2.9967,6.0,1.0,3.3233,3.0,2.0,Español,0.0,Ingles,8.0,Catalan,22.0,5.0,4.0,yes,no,yes,Flauta,6,Piano,6,10.La música me hace bailar,3.0,"Me ha gustado mucho, aunque he tenido diferentes aproximaciones a cada uno de los lenguajes, por ejemplo, el primero lo sobreanalicé y el último lo hice por intuición. También creo que se pierde un poco el spam de atención al final de cada ejercicio y sobretodo en el Lenguaje 4. Desde mi experiencia, sentía que había establecido un ritmo y unas reglas y en las preguntas no escuchaba muchas cosas similares, así que la mayoría de respuestas fueron hechas con incertidumbre.",65.0,yes
10,2023-07-24_13h09.44.769,Unsyncopated1,s9,31.0,feminino,right,españa,español,Bachelor degree,no,no,A,1,what,L2,unsyncopated,s1,r2,10,Online_whatL2//b.fe.ra1.0.1110.wav,fe,bi,ño,sil2,ra,ba,cha,sil,ñu,to,sil1,['catch'],[0.9266999999993004],[0.9266999999993004],0.0,beat,0.9266999999993004,0.9266999999993004,"[""space""]",fe,1,testWhatL2Uns//cat_viol.r2.s1.0.wav,1.0,what,unsyncopated,b,s1,no_rule,cat,L2,z,5.3414,6.0,0.0,1.6717,3.0,2.0,Español,0.0,Ingles,8.0,Catalan,22.0,5.0,4.0,yes,no,yes,Flauta,6,Piano,6,11.Busco novedades musicales continuamente,3.0,"Me ha gustado mucho, aunque he tenido diferentes aproximaciones a cada uno de los lenguajes, por ejemplo, el primero lo sobreanalicé y el último lo hice por intuición. También creo que se pierde un poco el spam de atención al final de cada ejercicio y sobretodo en el Lenguaje 4. Desde mi experiencia, sentía que había establecido un ritmo y unas reglas y en las preguntas no escuchaba muchas cosas similares, así que la mayoría de respuestas fueron hechas con incertidumbre.",65.0,yes
11,2023-07-24_13h09.44.769,Unsyncopated1,s9,31.0,feminino,right,españa,español,Bachelor degree,no,no,A,1,what,L2,unsyncopated,s1,r1,11,Online_whatL2//b.fe.ra2.none.none.wav,go,cha,mi,sil2,du,to,bi,sil,ño,ba,sil1,['-'],,,none,none,,,,fe,1,testWhatL2Uns//r1.s2.1.wav,1.0,what,unsyncopated,a,s2,rule,rule,L2,m,3.033,4.0,0.0,1.1384,3.0,2.0,Español,0.0,Ingles,8.0,Catalan,22.0,5.0,4.0,yes,no,yes,Flauta,6,Piano,6,12. Puedo llorar cuando escucho algunas melodías que me gustan mucho.,3.0,"Me ha gustado mucho, aunque he tenido diferentes aproximaciones a cada uno de los lenguajes, por ejemplo, el primero lo sobreanalicé y el último lo hice por intuición. También creo que se pierde un poco el spam de atención al final de cada ejercicio y sobretodo en el Lenguaje 4. Desde mi experiencia, sentía que había establecido un ritmo y unas reglas y en las preguntas no escuchaba muchas cosas similares, así que la mayoría de respuestas fueron hechas con incertidumbre.",65.0,yes
12,2023-07-24_13h09.44.769,Unsyncopated1,s9,31.0,feminino,right,españa,español,Bachelor degree,no,no,A,1,what,L2,unsyncopated,s2,r1,12,Online_whatL2//b.fe.ra23.none.none.wav,te,ñu,me,sil,go,cha,ño,sil1,du,bi,sil2,['-'],,,none,none,,,,fe,1,testWhatL2Uns//cat_viol.r1.s1.0.wav,1.0,what,unsyncopated,a,s1,no_rule,cat,L2,m,1.1648,4.0,1.0,6.708,3.0,2.0,Español,0.0,Ingles,8.0,Catalan,22.0,5.0,4.0,yes,no,yes,Flauta,6,Piano,6,13. Me gusta cantar o tocar un instrumento con más gente,3.0,"Me ha gustado mucho, aunque he tenido diferentes aproximaciones a cada uno de los lenguajes, por ejemplo, el primero lo sobreanalicé y el último lo hice por intuición. También creo que se pierde un poco el spam de atención al final de cada ejercicio y sobretodo en el Lenguaje 4. Desde mi experiencia, sentía que había establecido un ritmo y unas reglas y en las preguntas no escuchaba muchas cosas similares, así que la mayoría de respuestas fueron hechas con incertidumbre.",65.0,yes
13,2023-07-24_13h09.44.769,Unsyncopated1,s9,31.0,feminino,right,españa,español,Bachelor degree,no,no,A,1,what,L2,unsyncopated,s2,r1,13,Online_whatL2//b.fe.ra20.none.none.wav,te,me,mi,sil,go,to,ñu,sil2,du,ba,sil1,['-'],,,none,none,,,,fe,1,testWhatL2Uns//r1.s2.0.wav,1.0,what,unsyncopated,a,s2,rule,rule,L2,m,13.3768,2.0,0.0,1.1375,3.0,2.0,Español,0.0,Ingles,8.0,Catalan,22.0,5.0,4.0,yes,no,yes,Flauta,6,Piano,6,14. La música me ayuda a desconectar.,3.0,"Me ha gustado mucho, aunque he tenido diferentes aproximaciones a cada uno de los lenguajes, por ejemplo, el primero lo sobreanalicé y el último lo hice por intuición. También creo que se pierde un poco el spam de atención al final de cada ejercicio y sobretodo en el Lenguaje 4. Desde mi experiencia, sentía que había establecido un ritmo y unas reglas y en las preguntas no escuchaba muchas cosas similares, así que la mayoría de respuestas fueron hechas con incertidumbre.",65.0,yes
14,2023-07-24_13h09.44.769,Unsyncopated1,s9,31.0,feminino,right,españa,español,Bachelor degree,no,no,A,1,what,L2,unsyncopated,s2,r2,14,Online_whatL2//b.fe.ra22.888.1776.wav,ba,me,cha,sil,fe,su,ño,sil1,ra,to,sil2,['catch'],[1.3943999999985408],[1.3943999999985408],0.888,beat,0.5063999999985408,0.5063999999985408,"[""space""]",fe,1,testWhatL2Uns//r1.s1.1.wav,1.0,what,unsyncopated,a,s1,rule,rule,L2,m,1.4533,6.0,0.0,2.1016,3.0,2.0,Español,0.0,Ingles,8.0,Catalan,22.0,5.0,4.0,yes,no,yes,Flauta,6,Piano,6,15. No puedo evitar tararear las canciones que me gustan cuando las escucho.,4.0,"Me ha gustado mucho, aunque he tenido diferentes aproximaciones a cada uno de los lenguajes, por ejemplo, el primero lo sobreanalicé y el último lo hice por intuición. También creo que se pierde un poco el spam de atención al final de cada ejercicio y sobretodo en el Lenguaje 4. Desde mi experiencia, sentía que había establecido un ritmo y unas reglas y en las preguntas no escuchaba muchas cosas similares, así que la mayoría de respuestas fueron hechas con incertidumbre.",65.0,yes
15,2023-07-24_13h09.44.769,Unsyncopated1,s9,31.0,feminino,right,españa,español,Bachelor degree,no,no,A,1,what,L2,unsyncopated,s1,r2,15,Online_whatL2//b.fe.ra21.0.888.wav,fe,bi,su,sil,ra,to,te,sil1,ba,ñu,sil2,['catch'],[0.762199999999325],[0.762199999999325],0.0,beat,0.762199999999325,0.762199999999325,"[""space""]",fe,1,testWhatL2Uns//dep_viol.r2.s1.0.wav,1.0,what,unsyncopated,b,s1,no_rule,dep,L2,z,2.0349,4.0,0.0,2.4703,3.0,2.0,Español,0.0,Ingles,8.0,Catalan,22.0,5.0,4.0,yes,no,yes,Flauta,6,Piano,6,16. En los conciertos me siento en sintonía con los artistas y el público.,3.0,"Me ha gustado mucho, aunque he tenido diferentes aproximaciones a cada uno de los lenguajes, por ejemplo, el primero lo sobreanalicé y el último lo hice por intuición. También creo que se pierde un poco el spam de atención al final de cada ejercicio y sobretodo en el Lenguaje 4. Desde mi experiencia, sentía que había establecido un ritmo y unas reglas y en las preguntas no escuchaba muchas cosas similares, así que la mayoría de respuestas fueron hechas con incertidumbre.",65.0,yes
16,2023-07-24_13h09.44.769,Unsyncopated1,s9,31.0,feminino,right,españa,español,Bachelor degree,no,no,A,1,what,L2,unsyncopated,s1,r2,16,Online_whatL2//a.go.du1.none.none.wav,fe,cha,me,sil2,ra,to,ñu,sil,ño,mi,sil1,['-'],,,none,none,,,,du,2,testWhatL2Uns//r1.s2.2.wav,1.0,what,unsyncopated,a,s2,rule,rule,L2,z,4.8676,7.0,1.0,1.2714,3.0,2.0,Español,0.0,Ingles,8.0,Catalan,22.0,5.0,4.0,yes,no,yes,Flauta,6,Piano,6,17. Me gasto bastante dinero en música y cosas relacionadas con la música.,1.0,"Me ha gustado mucho, aunque he tenido diferentes aproximaciones a cada uno de los lenguajes, por ejemplo, el primero lo sobreanalicé y el último lo hice por intuición. También creo que se pierde un poco el spam de atención al final de cada ejercicio y sobretodo en el Lenguaje 4. Desde mi experiencia, sentía que había establecido un ritmo y unas reglas y en las preguntas no escuchaba muchas cosas similares, así que la mayoría de respuestas fueron hechas con incertidumbre.",65.0,yes
17,2023-07-24_13h09.44.769,Unsyncopated1,s9,31.0,feminino,right,españa,español,Bachelor degree,no,no,A,1,what,L2,unsyncopated,s1,r2,17,Online_whatL2//a.go.du0.none.none.wav,fe,ñu,to,sil2,ra,ño,su,sil,ba,bi,sil1,['-'],,,none,none,,,,du,2,testWhatL2Uns//r1.s1.0.wav,1.0,what,unsyncopated,a,s1,rule,rule,L2,m,2.1907,3.0,0.0,0.9686,3.0,2.0,Español,0.0,Ingles,8.0,Catalan,22.0,5.0,4.0,yes,no,yes,Flauta,6,Piano,6,18. Siento escalofríos cuando escucho una melodía que me gusta.,3.0,"Me ha gustado mucho, aunque he tenido diferentes aproximaciones a cada uno de los lenguajes, por ejemplo, el primero lo sobreanalicé y el último lo hice por intuición. También creo que se pierde un poco el spam de atención al final de cada ejercicio y sobretodo en el Lenguaje 4. Desde mi experiencia, sentía que había establecido un ritmo y unas reglas y en las preguntas no escuchaba muchas cosas similares, así que la mayoría de respuestas fueron hechas con incertidumbre.",65.0,yes
18,2023-07-24_13h09.44.769,Unsyncopated1,s9,31.0,feminino,right,españa,español,Bachelor degree,no,no,A,1,what,L2,unsyncopated,s2,r1,18,Online_whatL2//a.go.du2.1110.1998.wav,te,bi,ñu,sil2,go,cha,mi,sil,du,to,sil1,['catch'],[2.5766000000015765],[2.5766000000015765],1.998,no_beat,0.5786000000015765,0.5786000000015765,"[""space""]",du,2,testWhatL2Uns//r2.s1.2.wav,1.0,what,unsyncopated,b,s1,rule,rule,L2,z,4.6371,5.0,1.0,2.8404,3.0,2.0,Español,0.0,Ingles,8.0,Catalan,22.0,5.0,4.0,yes,no,yes,Flauta,6,Piano,6,19. Con la música me puedo desahogar.,3.0,"Me ha gustado mucho, aunque he tenido diferentes aproximaciones a cada uno de los lenguajes, por ejemplo, el primero lo sobreanalicé y el último lo hice por intuición. También creo que se pierde un poco el spam de atención al final de cada ejercicio y sobretodo en el Lenguaje 4. Desde mi experiencia, sentía que había establecido un ritmo y unas reglas y en las preguntas no escuchaba muchas cosas similares, así que la mayoría de respuestas fueron hechas con incertidumbre.",65.0,yes
19,2023-07-24_13h09.44.769,Unsyncopated1,s9,31.0,feminino,right,españa,español,Bachelor degree,no,no,A,1,what,L2,unsyncopated,s1,r1,19,Online_whatL2//a.go.du3.0.888.wav,go,te,me,sil,du,mi,cha,sil2,ba,ño,sil1,['catch'],[1.3766999999992322],[1.3766999999992322],0.888,beat,0.4886999999992322,0.4886999999992322,"[""space""]",du,2,testWhatL2Uns//time_viol.r1.s1.0.wav,1.0,what,unsyncopated,a,s1,no_rule,time,L2,m,3.0083,5.0,1.0,3.1727,3.0,2.0,Español,0.0,Ingles,8.0,Catalan,22.0,5.0,4.0,yes,no,yes,Flauta,6,Piano,6,20. Cuando escucho una melodía que me gusta mucho no puedo evitar mover el cuerpo.,3.0,"Me ha gustado mucho, aunque he tenido diferentes aproximaciones a cada uno de los lenguajes, por ejemplo, el primero lo sobreanalicé y el último lo hice por intuición. También creo que se pierde un poco el spam de atención al final de cada ejercicio y sobretodo en el Lenguaje 4. Desde mi experiencia, sentía que había establecido un ritmo y unas reglas y en las preguntas no escuchaba muchas cosas similares, así que la mayoría de respuestas fueron hechas con incertidumbre.",65.0,yes
20,2023-07-24_13h09.44.769,Unsyncopated1,s9,31.0,feminino,right,españa,español,Bachelor degree,no,no,A,1,what,L2,unsyncopated,s1,r1,20,Online_whatL2//b.fe.ra13.none.none.wav,go,mi,te,sil2,du,to,si,sil,ñu,me,sil1,['-'],,,none,none,,,,fe,1,testWhatL2Uns//r2.s1.0.wav,1.0,what,unsyncopated,b,s1,rule,rule,L2,m,5.9041,4.0,0.0,1.4914,3.0,2.0,Español,0.0,Ingles,8.0,Catalan,22.0,5.0,4.0,yes,no,yes,Flauta,6,Piano,6,,,"Me ha gustado mucho, aunque he tenido diferentes aproximaciones a cada uno de los lenguajes, por ejemplo, el primero lo sobreanalicé y el último lo hice por intuición. También creo que se pierde un poco el spam de atención al final de cada ejercicio y sobretodo en el Lenguaje 4. Desde mi experiencia, sentía que había establecido un ritmo y unas reglas y en las preguntas no escuchaba muchas cosas similares, así que la mayoría de respuestas fueron hechas con incertidumbre.",65.0,yes
21,2023-07-24_13h09.44.769,Unsyncopated1,s9,31.0,feminino,right,españa,español,Bachelor degree,no,no,A,1,what,L2,unsyncopated,s2,r1,21,Online_whatL2//b.fe.ra12.none.none.wav,te,mi,ñu,sil,go,bi,to,sil2,du,cha,sil1,['-'],,,none,none,,,,fe,1,testWhatL2Uns//time_viol.r2.s1.0.wav,1.0,what,unsyncopated,b,s1,no_rule,time,L2,m,1.3701,2.0,1.0,1.7719,3.0,2.0,Español,0.0,Ingles,8.0,Catalan,22.0,5.0,4.0,yes,no,yes,Flauta,6,Piano,6,,,"Me ha gustado mucho, aunque he tenido diferentes aproximaciones a cada uno de los lenguajes, por ejemplo, el primero lo sobreanalicé y el último lo hice por intuición. También creo que se pierde un poco el spam de atención al final de cada ejercicio y sobretodo en el Lenguaje 4. Desde mi experiencia, sentía que había establecido un ritmo y unas reglas y en las preguntas no escuchaba muchas cosas similares, así que la mayoría de respuestas fueron hechas con incertidumbre.",65.0,yes
22,2023-07-24_13h09.44.769,Unsyncopated1,s9,31.0,feminino,right,españa,español,Bachelor degree,no,no,A,1,what,L2,unsyncopated,s2,r2,22,Online_whatL2//b.fe.ra15.888.1998.wav,to,ñu,cha,sil,fe,me,ba,sil2,ra,si,sil1,['catch'],[1.3741000000014765],[1.3741000000014765],0.888,beat,0.4861000000014764,0.4861000000014764,"[""space""]",fe,1,testWhatL2Uns//dep_viol.r2.s2.0.wav,1.0,what,unsyncopated,b,s2,no_rule,dep,L2,z,9.2031,6.0,0.0,1.488,3.0,2.0,Español,0.0,Ingles,8.0,Catalan,22.0,5.0,4.0,yes,no,yes,Flauta,6,Piano,6,,,"Me ha gustado mucho, aunque he tenido diferentes aproximaciones a cada uno de los lenguajes, por ejemplo, el primero lo sobreanalicé y el último lo hice por intuición. También creo que se pierde un poco el spam de atención al final de cada ejercicio y sobretodo en el Lenguaje 4. Desde mi experiencia, sentía que había establecido un ritmo y unas reglas y en las preguntas no escuchaba muchas cosas similares, así que la mayoría de respuestas fueron hechas con incertidumbre.",65.0,yes
23,2023-07-24_13h09.44.769,Unsyncopated1,s9,31.0,feminino,right,españa,español,Bachelor degree,no,no,A,1,what,L2,unsyncopated,s1,r1,23,Online_whatL2//b.fe.ra14.none.none.wav,go,bi,su,sil,du,me,te,sil2,to,cha,sil1,['-'],,,none,none,,,,fe,1,testWhatL2Uns//r2.s2.1.wav,1.0,what,unsyncopated,b,s2,rule,rule,L2,z,0.8549,6.0,1.0,1.0514,3.0,2.0,Español,0.0,Ingles,8.0,Catalan,22.0,5.0,4.0,yes,no,yes,Flauta,6,Piano,6,,,"Me ha gustado mucho, aunque he tenido diferentes aproximaciones a cada uno de los lenguajes, por ejemplo, el primero lo sobreanalicé y el último lo hice por intuición. También creo que se pierde un poco el spam de atención al final de cada ejercicio y sobretodo en el Lenguaje 4. Desde mi experiencia, sentía que había establecido un ritmo y unas reglas y en las preguntas no escuchaba muchas cosas similares, así que la mayoría de respuestas fueron hechas con incertidumbre.",65.0,yes
24,2023-07-24_13h09.44.769,Unsyncopated1,s9,31.0,feminino,right,españa,español,Bachelor degree,no,no,A,1,what,L2,unsyncopated,s1,r1,24,Online_whatL2//a.go.du12.0.888.wav,go,su,cha,sil,du,to,te,sil2,me,mi,sil1,['false alarm'],[0.5516999999991867],[0.5516999999991867],0.888,beat,,,"[""space""]",du,2,testWhenL3Uns//r2.s1.1.wav,2.0,when,unsyncopated,b,s1,rule,rule,L3,z,2.9569,6.0,1.0,1.939,3.0,2.0,Español,0.0,Ingles,8.0,Catalan,22.0,5.0,4.0,yes,no,yes,Flauta,6,Piano,6,,,"Me ha gustado mucho, aunque he tenido diferentes aproximaciones a cada uno de los lenguajes, por ejemplo, el primero lo sobreanalicé y el último lo hice por intuición. También creo que se pierde un poco el spam de atención al final de cada ejercicio y sobretodo en el Lenguaje 4. Desde mi experiencia, sentía que había establecido un ritmo y unas reglas y en las preguntas no escuchaba muchas cosas similares, así que la mayoría de respuestas fueron hechas con incertidumbre.",65.0,yes
25,2023-07-24_13h09.44.769,Unsyncopated1,s9,31.0,feminino,right,españa,español,Bachelor degree,no,no,A,1,what,L2,unsyncopated,s2,r2,25,Online_whatL2//a.go.du14.none.none.wav,bi,me,mi,sil2,fe,to,ñu,sil,ra,su,sil1,['false alarm'],[1.9006999999992331],[1.9006999999992331],none,none,,,"[""space""]",du,2,testWhenL3Uns//r2.s2.1.wav,2.0,when,unsyncopated,b,s2,rule,rule,L3,z,4.5184,6.0,1.0,1.119,3.0,2.0,Español,0.0,Ingles,8.0,Catalan,22.0,5.0,4.0,yes,no,yes,Flauta,6,Piano,6,,,"Me ha gustado mucho, aunque he tenido diferentes aproximaciones a cada uno de los lenguajes, por ejemplo, el primero lo sobreanalicé y el último lo hice por intuición. También creo que se pierde un poco el spam de atención al final de cada ejercicio y sobretodo en el Lenguaje 4. Desde mi experiencia, sentía que había establecido un ritmo y unas reglas y en las preguntas no escuchaba muchas cosas similares, así que la mayoría de respuestas fueron hechas con incertidumbre.",65.0,yes
26,2023-07-24_13h09.44.769,Unsyncopated1,s9,31.0,feminino,right,españa,español,Bachelor degree,no,no,A,1,what,L2,unsyncopated,s1,r1,26,Online_whatL2//a.go.du15.0.888.wav,go,cha,mi,sil,du,ñu,to,sil1,ba,ño,sil2,['catch'],[1.5416000000014947],[1.5416000000014947],0.888,beat,0.6536000000014947,0.6536000000014947,"[""space""]",du,2,testWhenL3Uns//cat_viol.r2.s2.0.wav,2.0,when,unsyncopated,b,s2,no_rule,cat,L3,z,2.2088,6.0,1.0,1.1518,3.0,2.0,Español,0.0,Ingles,8.0,Catalan,22.0,5.0,4.0,yes,no,yes,Flauta,6,Piano,6,,,"Me ha gustado mucho, aunque he tenido diferentes aproximaciones a cada uno de los lenguajes, por ejemplo, el primero lo sobreanalicé y el último lo hice por intuición. También creo que se pierde un poco el spam de atención al final de cada ejercicio y sobretodo en el Lenguaje 4. Desde mi experiencia, sentía que había establecido un ritmo y unas reglas y en las preguntas no escuchaba muchas cosas similares, así que la mayoría de respuestas fueron hechas con incertidumbre.",65.0,yes
27,2023-07-24_13h09.44.769,Unsyncopated1,s9,31.0,feminino,right,españa,español,Bachelor degree,no,no,A,1,what,L2,unsyncopated,s2,r2,27,Online_whatL2//a.go.du13.none.none.wav,te,si,ño,sil2,fe,su,ñu,sil,ra,mi,sil1,['-'],,,none,none,,,,du,2,testWhenL3Uns//cat_viol.r1.s2.0.wav,2.0,when,unsyncopated,a,s2,no_rule,cat,L3,z,2.6787,7.0,1.0,4.7352,3.0,2.0,Español,0.0,Ingles,8.0,Catalan,22.0,5.0,4.0,yes,no,yes,Flauta,6,Piano,6,,,"Me ha gustado mucho, aunque he tenido diferentes aproximaciones a cada uno de los lenguajes, por ejemplo, el primero lo sobreanalicé y el último lo hice por intuición. También creo que se pierde un poco el spam de atención al final de cada ejercicio y sobretodo en el Lenguaje 4. Desde mi experiencia, sentía que había establecido un ritmo y unas reglas y en las preguntas no escuchaba muchas cosas similares, así que la mayoría de respuestas fueron hechas con incertidumbre.",65.0,yes
28,2023-07-24_13h09.44.769,Unsyncopated1,s9,31.0,feminino,right,españa,español,Bachelor degree,no,no,A,1,what,L2,unsyncopated,s2,r2,28,Online_whatL2//c.cha.me18.none.none.wav,bi,to,ñu,sil,fe,ño,ba,sil1,ra,si,sil2,['-'],,,none,none,,,,cha,3,testWhenL3Uns//r2.s1.2.wav,2.0,when,unsyncopated,b,s1,rule,rule,L3,z,5.9077,5.0,1.0,1.2914,3.0,2.0,Español,0.0,Ingles,8.0,Catalan,22.0,5.0,4.0,yes,no,yes,Flauta,6,Piano,6,,,"Me ha gustado mucho, aunque he tenido diferentes aproximaciones a cada uno de los lenguajes, por ejemplo, el primero lo sobreanalicé y el último lo hice por intuición. También creo que se pierde un poco el spam de atención al final de cada ejercicio y sobretodo en el Lenguaje 4. Desde mi experiencia, sentía que había establecido un ritmo y unas reglas y en las preguntas no escuchaba muchas cosas similares, así que la mayoría de respuestas fueron hechas con incertidumbre.",65.0,yes
29,2023-07-24_13h09.44.769,Unsyncopated1,s9,31.0,feminino,right,españa,español,Bachelor degree,no,no,A,1,what,L2,unsyncopated,s1,r1,29,Online_whatL2//c.cha.me16.none.none.wav,go,ñu,bi,sil2,du,to,te,sil,ño,mi,sil1,['-'],,,none,none,,,,cha,3,testWhenL3Uns//dep_viol.r1.s2.0.wav,2.0,when,unsyncopated,a,s2,no_rule,dep,L3,m,12.2592,3.0,0.0,1.7364,3.0,2.0,Español,0.0,Ingles,8.0,Catalan,22.0,5.0,4.0,yes,no,yes,Flauta,6,Piano,6,,,"Me ha gustado mucho, aunque he tenido diferentes aproximaciones a cada uno de los lenguajes, por ejemplo, el primero lo sobreanalicé y el último lo hice por intuición. También creo que se pierde un poco el spam de atención al final de cada ejercicio y sobretodo en el Lenguaje 4. Desde mi experiencia, sentía que había establecido un ritmo y unas reglas y en las preguntas no escuchaba muchas cosas similares, así que la mayoría de respuestas fueron hechas con incertidumbre.",65.0,yes
30,2023-07-24_13h09.44.769,Unsyncopated1,s9,31.0,feminino,right,españa,español,Bachelor degree,no,no,A,1,what,L2,unsyncopated,s1,r1,30,Online_whatL2//c.cha.me19.none.none.wav,go,su,bi,sil,du,ño,to,sil2,ñu,ba,sil1,['-'],,,none,none,,,,cha,3,testWhenL3Uns//r1.s1.2.wav,2.0,when,unsyncopated,a,s1,rule,rule,L3,m,7.5905,4.0,0.0,2.291,3.0,2.0,Español,0.0,Ingles,8.0,Catalan,22.0,5.0,4.0,yes,no,yes,Flauta,6,Piano,6,,,"Me ha gustado mucho, aunque he tenido diferentes aproximaciones a cada uno de los lenguajes, por ejemplo, el primero lo sobreanalicé y el último lo hice por intuición. También creo que se pierde un poco el spam de atención al final de cada ejercicio y sobretodo en el Lenguaje 4. Desde mi experiencia, sentía que había establecido un ritmo y unas reglas y en las preguntas no escuchaba muchas cosas similares, así que la mayoría de respuestas fueron hechas con incertidumbre.",65.0,yes
31,2023-07-24_13h09.44.769,Unsyncopated1,s9,31.0,feminino,right,españa,español,Bachelor degree,no,no,A,1,what,L2,unsyncopated,s2,r1,31,Online_whatL2//c.cha.me17.0.444.wav,cha,te,me,sil2,go,bi,ñu,sil,du,mi,sil1,['catch'],[0.5125000000000455],[0.5125000000000455],0.0,beat,0.5125000000000455,0.5125000000000455,"[""space""]",cha,3,testWhenL3Uns//time_viol.r2.s1.0.wav,2.0,when,unsyncopated,b,s1,no_rule,time,L3,m,4.823,4.0,0.0,2.5434,3.0,2.0,Español,0.0,Ingles,8.0,Catalan,22.0,5.0,4.0,yes,no,yes,Flauta,6,Piano,6,,,"Me ha gustado mucho, aunque he tenido diferentes aproximaciones a cada uno de los lenguajes, por ejemplo, el primero lo sobreanalicé y el último lo hice por intuición. También creo que se pierde un poco el spam de atención al final de cada ejercicio y sobretodo en el Lenguaje 4. Desde mi experiencia, sentía que había establecido un ritmo y unas reglas y en las preguntas no escuchaba muchas cosas similares, así que la mayoría de respuestas fueron hechas con incertidumbre.",65.0,yes
32,2023-07-24_13h09.44.769,Unsyncopated1,s9,31.0,feminino,right,españa,español,Bachelor degree,no,no,A,1,what,L2,unsyncopated,s2,r2,32,Online_whatL2//c.cha.me11.1332.0.wav,me,ba,si,sil2,fe,cha,ñu,sil,ra,bi,sil1,['miss'],,,1.332,no_beat,,,,cha,3,testWhenL3Uns//dep_viol.r2.s2.0.wav,2.0,when,unsyncopated,b,s2,no_rule,dep,L3,z,1.7677,5.0,1.0,1.7376,3.0,2.0,Español,0.0,Ingles,8.0,Catalan,22.0,5.0,4.0,yes,no,yes,Flauta,6,Piano,6,,,"Me ha gustado mucho, aunque he tenido diferentes aproximaciones a cada uno de los lenguajes, por ejemplo, el primero lo sobreanalicé y el último lo hice por intuición. También creo que se pierde un poco el spam de atención al final de cada ejercicio y sobretodo en el Lenguaje 4. Desde mi experiencia, sentía que había establecido un ritmo y unas reglas y en las preguntas no escuchaba muchas cosas similares, así que la mayoría de respuestas fueron hechas con incertidumbre.",65.0,yes
33,2023-07-24_13h09.44.769,Unsyncopated1,s9,31.0,feminino,right,españa,español,Bachelor degree,no,no,A,1,what,L2,unsyncopated,s1,r2,33,Online_whatL2//c.cha.me10.222.1110.wav,fe,cha,ño,sil,ra,me,su,sil1,si,to,sil2,['catch'],[0.9110999999977594],[0.9110999999977594],0.222,no_beat,0.6890999999977594,0.6890999999977594,"[""space""]",cha,3,testWhenL3Uns//r2.s2.0.wav,2.0,when,unsyncopated,b,s2,rule,rule,L3,z,10.96,4.0,1.0,1.0734,3.0,2.0,Español,0.0,Ingles,8.0,Catalan,22.0,5.0,4.0,yes,no,yes,Flauta,6,Piano,6,,,"Me ha gustado mucho, aunque he tenido diferentes aproximaciones a cada uno de los lenguajes, por ejemplo, el primero lo sobreanalicé y el último lo hice por intuición. También creo que se pierde un poco el spam de atención al final de cada ejercicio y sobretodo en el Lenguaje 4. Desde mi experiencia, sentía que había establecido un ritmo y unas reglas y en las preguntas no escuchaba muchas cosas similares, así que la mayoría de respuestas fueron hechas con incertidumbre.",65.0,yes
34,2023-07-24_13h09.44.769,Unsyncopated1,s9,31.0,feminino,right,españa,español,Bachelor degree,no,no,A,1,what,L2,unsyncopated,s2,r2,34,Online_whatL2//c.cha.me9.none.none.wav,te,to,si,sil2,fe,su,ñu,sil,ra,bi,sil1,['-'],,,none,none,,,,cha,3,testWhenL3Uns//dep_viol.r2.s1.0.wav,2.0,when,unsyncopated,b,s1,no_rule,dep,L3,m,9.7269,4.0,0.0,1.3386,3.0,2.0,Español,0.0,Ingles,8.0,Catalan,22.0,5.0,4.0,yes,no,yes,Flauta,6,Piano,6,,,"Me ha gustado mucho, aunque he tenido diferentes aproximaciones a cada uno de los lenguajes, por ejemplo, el primero lo sobreanalicé y el último lo hice por intuición. También creo que se pierde un poco el spam de atención al final de cada ejercicio y sobretodo en el Lenguaje 4. Desde mi experiencia, sentía que había establecido un ritmo y unas reglas y en las preguntas no escuchaba muchas cosas similares, así que la mayoría de respuestas fueron hechas con incertidumbre.",65.0,yes
35,2023-07-24_13h09.44.769,Unsyncopated1,s9,31.0,feminino,right,españa,español,Bachelor degree,no,no,A,1,what,L2,unsyncopated,s1,r1,35,Online_whatL2//c.cha.me8.1998.1332.wav,go,ñu,ño,sil2,du,me,mi,sil,cha,su,sil1,['catch_delay'],[0.875100000001513],[0.875100000001513],1.998,no_beat,0.875100000001513,0.875100000001513,,cha,3,testWhenL3Uns//cat_viol.r1.s1.0.wav,2.0,when,unsyncopated,a,s1,no_rule,cat,L3,m,3.7614,4.0,0.0,1.2833,3.0,2.0,Español,0.0,Ingles,8.0,Catalan,22.0,5.0,4.0,yes,no,yes,Flauta,6,Piano,6,,,"Me ha gustado mucho, aunque he tenido diferentes aproximaciones a cada uno de los lenguajes, por ejemplo, el primero lo sobreanalicé y el último lo hice por intuición. También creo que se pierde un poco el spam de atención al final de cada ejercicio y sobretodo en el Lenguaje 4. Desde mi experiencia, sentía que había establecido un ritmo y unas reglas y en las preguntas no escuchaba muchas cosas similares, así que la mayoría de respuestas fueron hechas con incertidumbre.",65.0,yes
36,2023-07-24_13h09.44.769,Unsyncopated1,s9,31.0,feminino,right,españa,español,Bachelor degree,no,no,A,1,what,L2,unsyncopated,s2,r1,36,Online_whatL2//b.fe.ra6.none.none.wav,si,su,te,sil2,go,ba,mi,sil,du,ñu,sil1,['-'],[0.20910000000151285],[0.20910000000151285],none,none,,,"[""space""]",fe,1,testWhenL3Uns//time_viol.r1.s2.0.wav,2.0,when,unsyncopated,a,s2,no_rule,time,L3,m,12.2228,4.0,0.0,1.2053,3.0,2.0,Español,0.0,Ingles,8.0,Catalan,22.0,5.0,4.0,yes,no,yes,Flauta,6,Piano,6,,,"Me ha gustado mucho, aunque he tenido diferentes aproximaciones a cada uno de los lenguajes, por ejemplo, el primero lo sobreanalicé y el último lo hice por intuición. También creo que se pierde un poco el spam de atención al final de cada ejercicio y sobretodo en el Lenguaje 4. Desde mi experiencia, sentía que había establecido un ritmo y unas reglas y en las preguntas no escuchaba muchas cosas similares, así que la mayoría de respuestas fueron hechas con incertidumbre.",65.0,yes
37,2023-07-24_13h09.44.769,Unsyncopated1,s9,31.0,feminino,right,españa,español,Bachelor degree,no,no,A,1,what,L2,unsyncopated,s2,r2,37,Online_whatL2//b.fe.ra5.888.1776.wav,ñu,ño,mi,sil,fe,me,ba,sil1,ra,te,sil2,['catch'],[1.2975000000000136],[1.2975000000000136],0.888,beat,0.4095000000000136,0.4095000000000136,"[""space""]",fe,1,testWhenL3Uns//r1.s1.1.wav,2.0,when,unsyncopated,a,s1,rule,rule,L3,m,7.611,4.0,0.0,1.2644,3.0,2.0,Español,0.0,Ingles,8.0,Catalan,22.0,5.0,4.0,yes,no,yes,Flauta,6,Piano,6,,,"Me ha gustado mucho, aunque he tenido diferentes aproximaciones a cada uno de los lenguajes, por ejemplo, el primero lo sobreanalicé y el último lo hice por intuición. También creo que se pierde un poco el spam de atención al final de cada ejercicio y sobretodo en el Lenguaje 4. Desde mi experiencia, sentía que había establecido un ritmo y unas reglas y en las preguntas no escuchaba muchas cosas similares, así que la mayoría de respuestas fueron hechas con incertidumbre.",65.0,yes
38,2023-07-24_13h09.44.769,Unsyncopated1,s9,31.0,feminino,right,españa,español,Bachelor degree,no,no,A,1,what,L2,unsyncopated,s1,r1,38,Online_whatL2//b.fe.ra4.none.none.wav,go,te,to,sil2,du,ño,me,sil,su,cha,sil1,['-'],,,none,none,,,,fe,1,testWhenL3Uns//time_viol.r1.s1.0.wav,2.0,when,unsyncopated,a,s1,no_rule,time,L3,m,7.7772,4.0,0.0,1.174,3.0,2.0,Español,0.0,Ingles,8.0,Catalan,22.0,5.0,4.0,yes,no,yes,Flauta,6,Piano,6,,,"Me ha gustado mucho, aunque he tenido diferentes aproximaciones a cada uno de los lenguajes, por ejemplo, el primero lo sobreanalicé y el último lo hice por intuición. También creo que se pierde un poco el spam de atención al final de cada ejercicio y sobretodo en el Lenguaje 4. Desde mi experiencia, sentía que había establecido un ritmo y unas reglas y en las preguntas no escuchaba muchas cosas similares, así que la mayoría de respuestas fueron hechas con incertidumbre.",65.0,yes
39,2023-07-24_13h09.44.769,Unsyncopated1,s9,31.0,feminino,right,españa,español,Bachelor degree,no,no,A,1,what,L2,unsyncopated,s1,r1,39,Online_whatL2//b.fe.ra7.none.none.wav,go,cha,me,sil,du,bi,te,sil1,ñu,su,sil2,['-'],,,none,none,,,,fe,1,testWhenL3Uns//r1.s2.1.wav,2.0,when,unsyncopated,a,s2,rule,rule,L3,m,8.2728,6.0,0.0,2.3551,3.0,2.0,Español,0.0,Ingles,8.0,Catalan,22.0,5.0,4.0,yes,no,yes,Flauta,6,Piano,6,,,"Me ha gustado mucho, aunque he tenido diferentes aproximaciones a cada uno de los lenguajes, por ejemplo, el primero lo sobreanalicé y el último lo hice por intuición. También creo que se pierde un poco el spam de atención al final de cada ejercicio y sobretodo en el Lenguaje 4. Desde mi experiencia, sentía que había establecido un ritmo y unas reglas y en las preguntas no escuchaba muchas cosas similares, así que la mayoría de respuestas fueron hechas con incertidumbre.",65.0,yes
40,2023-07-24_13h09.44.769,Unsyncopated1,s9,31.0,feminino,right,españa,español,Bachelor degree,no,no,A,1,what,L2,unsyncopated,s2,r2,40,Online_whatL2//d.si.ñu23.none.none.wav,me,to,ño,sil2,fe,cha,su,sil,ra,mi,sil1,['-'],,,none,none,,,,si,4,testWhenL3Uns//cat_viol.r2.s1.0.wav,2.0,when,unsyncopated,b,s1,no_rule,cat,L3,z,1.0417,4.0,1.0,2.3903,3.0,2.0,Español,0.0,Ingles,8.0,Catalan,22.0,5.0,4.0,yes,no,yes,Flauta,6,Piano,6,,,"Me ha gustado mucho, aunque he tenido diferentes aproximaciones a cada uno de los lenguajes, por ejemplo, el primero lo sobreanalicé y el último lo hice por intuición. También creo que se pierde un poco el spam de atención al final de cada ejercicio y sobretodo en el Lenguaje 4. Desde mi experiencia, sentía que había establecido un ritmo y unas reglas y en las preguntas no escuchaba muchas cosas similares, así que la mayoría de respuestas fueron hechas con incertidumbre.",65.0,yes
41,2023-07-24_13h09.44.769,Unsyncopated1,s9,31.0,feminino,right,españa,español,Bachelor degree,no,no,A,1,what,L2,unsyncopated,s1,r2,41,Online_whatL2//d.si.ñu22.444.1332.wav,fe,to,si,sil,ra,bi,ñu,sil2,ba,me,sil1,['catch'],[0.9766999999992549],[0.9766999999992549],0.444,no_beat,0.532699999999255,0.532699999999255,"[""space""]",si,4,testWhenL3Uns//r2.s1.0.wav,2.0,when,unsyncopated,b,s1,rule,rule,L3,z,53.5459,3.0,1.0,1.7033,3.0,2.0,Español,0.0,Ingles,8.0,Catalan,22.0,5.0,4.0,yes,no,yes,Flauta,6,Piano,6,,,"Me ha gustado mucho, aunque he tenido diferentes aproximaciones a cada uno de los lenguajes, por ejemplo, el primero lo sobreanalicé y el último lo hice por intuición. También creo que se pierde un poco el spam de atención al final de cada ejercicio y sobretodo en el Lenguaje 4. Desde mi experiencia, sentía que había establecido un ritmo y unas reglas y en las preguntas no escuchaba muchas cosas similares, así que la mayoría de respuestas fueron hechas con incertidumbre.",65.0,yes
42,2023-07-24_13h09.44.769,Unsyncopated1,s9,31.0,feminino,right,españa,español,Bachelor degree,no,no,A,1,what,L2,unsyncopated,s1,r1,42,Online_whatL2//d.si.ñu21.none.none.wav,go,cha,ño,sil,du,su,bi,sil2,ba,te,sil1,['-'],,,none,none,,,,si,4,testWhenL3Uns//r2.s2.2.wav,2.0,when,unsyncopated,b,s2,rule,rule,L3,m,1.8278,6.0,0.0,1.3852,3.0,2.0,Español,0.0,Ingles,8.0,Catalan,22.0,5.0,4.0,yes,no,yes,Flauta,6,Piano,6,,,"Me ha gustado mucho, aunque he tenido diferentes aproximaciones a cada uno de los lenguajes, por ejemplo, el primero lo sobreanalicé y el último lo hice por intuición. También creo que se pierde un poco el spam de atención al final de cada ejercicio y sobretodo en el Lenguaje 4. Desde mi experiencia, sentía que había establecido un ritmo y unas reglas y en las preguntas no escuchaba muchas cosas similares, así que la mayoría de respuestas fueron hechas con incertidumbre.",65.0,yes
43,2023-07-24_13h09.44.769,Unsyncopated1,s9,31.0,feminino,right,españa,español,Bachelor degree,no,no,A,1,what,L2,unsyncopated,s1,r2,43,Online_whatL2//d.si.ñu20.none.none.wav,fe,cha,me,sil2,ra,to,bi,sil,mi,ba,sil1,['-'],,,none,none,,,,si,4,testWhenL3Uns//dep_viol.r1.s1.0.wav,2.0,when,unsyncopated,a,s1,no_rule,dep,L3,m,3.9192,4.0,0.0,2.5408,3.0,2.0,Español,0.0,Ingles,8.0,Catalan,22.0,5.0,4.0,yes,no,yes,Flauta,6,Piano,6,,,"Me ha gustado mucho, aunque he tenido diferentes aproximaciones a cada uno de los lenguajes, por ejemplo, el primero lo sobreanalicé y el último lo hice por intuición. También creo que se pierde un poco el spam de atención al final de cada ejercicio y sobretodo en el Lenguaje 4. Desde mi experiencia, sentía que había establecido un ritmo y unas reglas y en las preguntas no escuchaba muchas cosas similares, así que la mayoría de respuestas fueron hechas con incertidumbre.",65.0,yes
44,2023-07-24_13h09.44.769,Unsyncopated1,s9,31.0,feminino,right,españa,español,Bachelor degree,no,no,A,1,what,L2,unsyncopated,s1,r1,44,Online_whatL2//a.go.du28.0.888.wav,go,ñu,mi,sil,du,ba,ño,sil1,me,su,sil2,['catch'],[1.3391999999992095],[1.3391999999992095],0.888,beat,0.4511999999992094,0.4511999999992094,"[""space""]",du,2,testWhenL3Uns//r1.s2.2.wav,2.0,when,unsyncopated,a,s2,rule,rule,L3,z,1.2668,5.0,1.0,1.4719,3.0,2.0,Español,0.0,Ingles,8.0,Catalan,22.0,5.0,4.0,yes,no,yes,Flauta,6,Piano,6,,,"Me ha gustado mucho, aunque he tenido diferentes aproximaciones a cada uno de los lenguajes, por ejemplo, el primero lo sobreanalicé y el último lo hice por intuición. También creo que se pierde un poco el spam de atención al final de cada ejercicio y sobretodo en el Lenguaje 4. Desde mi experiencia, sentía que había establecido un ritmo y unas reglas y en las preguntas no escuchaba muchas cosas similares, así que la mayoría de respuestas fueron hechas con incertidumbre.",65.0,yes
45,2023-07-24_13h09.44.769,Unsyncopated1,s9,31.0,feminino,right,españa,español,Bachelor degree,no,no,A,1,what,L2,unsyncopated,s1,r2,45,Online_whatL2//a.go.du29.none.none.wav,fe,ñu,mi,sil,ra,cha,su,sil2,te,bi,sil1,['-'],,,none,none,,,,du,2,testWhenL3Uns//time_viol.r2.s2.0.wav,2.0,when,unsyncopated,b,s2,no_rule,time,L3,m,4.9426,4.0,0.0,3.136,3.0,2.0,Español,0.0,Ingles,8.0,Catalan,22.0,5.0,4.0,yes,no,yes,Flauta,6,Piano,6,,,"Me ha gustado mucho, aunque he tenido diferentes aproximaciones a cada uno de los lenguajes, por ejemplo, el primero lo sobreanalicé y el último lo hice por intuición. También creo que se pierde un poco el spam de atención al final de cada ejercicio y sobretodo en el Lenguaje 4. Desde mi experiencia, sentía que había establecido un ritmo y unas reglas y en las preguntas no escuchaba muchas cosas similares, así que la mayoría de respuestas fueron hechas con incertidumbre.",65.0,yes
46,2023-07-24_13h09.44.769,Unsyncopated1,s9,31.0,feminino,right,españa,español,Bachelor degree,no,no,A,1,what,L2,unsyncopated,s2,r2,46,Online_whatL2//a.go.du31.none.none.wav,cha,su,mi,sil,fe,ño,si,sil2,ra,te,sil1,['-'],,,none,none,,,,du,2,testWhenL3Uns//r1.s1.0.wav,2.0,when,unsyncopated,a,s1,rule,rule,L3,m,3.3888,4.0,0.0,1.1423,3.0,2.0,Español,0.0,Ingles,8.0,Catalan,22.0,5.0,4.0,yes,no,yes,Flauta,6,Piano,6,,,"Me ha gustado mucho, aunque he tenido diferentes aproximaciones a cada uno de los lenguajes, por ejemplo, el primero lo sobreanalicé y el último lo hice por intuición. También creo que se pierde un poco el spam de atención al final de cada ejercicio y sobretodo en el Lenguaje 4. Desde mi experiencia, sentía que había establecido un ritmo y unas reglas y en las preguntas no escuchaba muchas cosas similares, así que la mayoría de respuestas fueron hechas con incertidumbre.",65.0,yes
47,2023-07-24_13h09.44.769,Unsyncopated1,s9,31.0,feminino,right,españa,español,Bachelor degree,no,no,A,1,what,L2,unsyncopated,s2,r1,47,Online_whatL2//a.go.du30.888.1776.wav,cha,me,te,sil,go,ba,mi,sil1,du,bi,sil2,['catch'],[2.226199999999153],[2.226199999999153],1.776,beat,0.450199999999153,0.450199999999153,"[""space""]",du,2,testWhenL3Uns//r1.s2.0.wav,2.0,when,unsyncopated,a,s2,rule,rule,L3,m,4.619,4.0,0.0,1.6923,3.0,2.0,Español,0.0,Ingles,8.0,Catalan,22.0,5.0,4.0,yes,no,yes,Flauta,6,Piano,6,,,"Me ha gustado mucho, aunque he tenido diferentes aproximaciones a cada uno de los lenguajes, por ejemplo, el primero lo sobreanalicé y el último lo hice por intuición. También creo que se pierde un poco el spam de atención al final de cada ejercicio y sobretodo en el Lenguaje 4. Desde mi experiencia, sentía que había establecido un ritmo y unas reglas y en las preguntas no escuchaba muchas cosas similares, así que la mayoría de respuestas fueron hechas con incertidumbre.",65.0,yes
48,2023-07-24_13h09.44.769,Unsyncopated1,s9,31.0,feminino,right,españa,español,Bachelor degree,no,no,A,1,what,L2,unsyncopated,s1,r1,48,Online_whatL2//c.cha.me7.222.444.wav,go,cha,me,sil,du,bi,si,sil1,su,ba,sil2,['miss'],,,0.222,no_beat,,,,cha,3,testConjL1Uns//r1.s2.1.wav,3.0,conjunction_un,unsyncopated,a,s2,rule,rule,L1,z,0.8565,6.0,1.0,1.2894,3.0,2.0,Español,0.0,Ingles,8.0,Catalan,22.0,5.0,4.0,yes,no,yes,Flauta,6,Piano,6,,,"Me ha gustado mucho, aunque he tenido diferentes aproximaciones a cada uno de los lenguajes, por ejemplo, el primero lo sobreanalicé y el último lo hice por intuición. También creo que se pierde un poco el spam de atención al final de cada ejercicio y sobretodo en el Lenguaje 4. Desde mi experiencia, sentía que había establecido un ritmo y unas reglas y en las preguntas no escuchaba muchas cosas similares, así que la mayoría de respuestas fueron hechas con incertidumbre.",65.0,yes
49,2023-07-24_13h09.44.769,Unsyncopated1,s9,31.0,feminino,right,españa,español,Bachelor degree,no,no,A,1,what,L2,unsyncopated,s2,r2,49,Online_whatL2//c.cha.me4.none.none.wav,ba,te,su,sil2,fe,ño,si,sil,ra,ñu,sil1,['-'],,,none,none,,,,cha,3,testConjL1Uns//dep_viol.r1.s1.0.wav,3.0,conjunction_un,unsyncopated,a,s1,no_rule,dep,L1,z,1.6594,5.0,0.0,2.9187,3.0,2.0,Español,0.0,Ingles,8.0,Catalan,22.0,5.0,4.0,yes,no,yes,Flauta,6,Piano,6,,,"Me ha gustado mucho, aunque he tenido diferentes aproximaciones a cada uno de los lenguajes, por ejemplo, el primero lo sobreanalicé y el último lo hice por intuición. También creo que se pierde un poco el spam de atención al final de cada ejercicio y sobretodo en el Lenguaje 4. Desde mi experiencia, sentía que había establecido un ritmo y unas reglas y en las preguntas no escuchaba muchas cosas similares, así que la mayoría de respuestas fueron hechas con incertidumbre.",65.0,yes
50,2023-07-24_13h09.44.769,Unsyncopated1,s9,31.0,feminino,right,españa,español,Bachelor degree,no,no,A,1,what,L2,unsyncopated,s1,r2,50,Online_whatL2//c.cha.me6.222.1110.wav,fe,cha,ba,sil,ra,me,te,sil2,si,mi,sil1,"['catch', 'false alarm']","[0.9461999999991804, 1.4466999999992822]",[0.9461999999991804],0.222,no_beat,0.7241999999991804,0.7241999999991804,"[""space"",""space""]",cha,3,testConjL1Uns//dep_viol.r2.s2.0.wav,3.0,conjunction_un,unsyncopated,b,s2,no_rule,dep,L1,z,0.8879,6.0,0.0,1.4556,3.0,2.0,Español,0.0,Ingles,8.0,Catalan,22.0,5.0,4.0,yes,no,yes,Flauta,6,Piano,6,,,"Me ha gustado mucho, aunque he tenido diferentes aproximaciones a cada uno de los lenguajes, por ejemplo, el primero lo sobreanalicé y el último lo hice por intuición. También creo que se pierde un poco el spam de atención al final de cada ejercicio y sobretodo en el Lenguaje 4. Desde mi experiencia, sentía que había establecido un ritmo y unas reglas y en las preguntas no escuchaba muchas cosas similares, así que la mayoría de respuestas fueron hechas con incertidumbre.",65.0,yes
51,2023-07-24_13h09.44.769,Unsyncopated1,s9,31.0,feminino,right,españa,español,Bachelor degree,no,no,A,1,what,L2,unsyncopated,s2,r1,51,Online_whatL2//c.cha.me5.none.none.wav,ñu,mi,ño,sil2,go,te,ba,sil,du,su,sil1,['-'],,,none,none,,,,cha,3,testConjL1Uns//r2.s1.2.wav,3.0,conjunction_un,unsyncopated,b,s1,rule,rule,L1,z,1.9535,7.0,1.0,1.4046,3.0,2.0,Español,0.0,Ingles,8.0,Catalan,22.0,5.0,4.0,yes,no,yes,Flauta,6,Piano,6,,,"Me ha gustado mucho, aunque he tenido diferentes aproximaciones a cada uno de los lenguajes, por ejemplo, el primero lo sobreanalicé y el último lo hice por intuición. También creo que se pierde un poco el spam de atención al final de cada ejercicio y sobretodo en el Lenguaje 4. Desde mi experiencia, sentía que había establecido un ritmo y unas reglas y en las preguntas no escuchaba muchas cosas similares, así que la mayoría de respuestas fueron hechas con incertidumbre.",65.0,yes
52,2023-07-24_13h09.44.769,Unsyncopated1,s9,31.0,feminino,right,españa,español,Bachelor degree,no,no,A,1,what,L2,unsyncopated,s2,r1,52,Online_whatL2//c.cha.me14.none.none.wav,ñu,to,ño,sil,go,ba,si,sil2,du,mi,sil1,['-'],,,none,none,,,,cha,3,testConjL1Uns//dep_viol.r2.s1.0.wav,3.0,conjunction_un,unsyncopated,b,s1,no_rule,dep,L1,m,7.6572,5.0,1.0,1.6876,3.0,2.0,Español,0.0,Ingles,8.0,Catalan,22.0,5.0,4.0,yes,no,yes,Flauta,6,Piano,6,,,"Me ha gustado mucho, aunque he tenido diferentes aproximaciones a cada uno de los lenguajes, por ejemplo, el primero lo sobreanalicé y el último lo hice por intuición. También creo que se pierde un poco el spam de atención al final de cada ejercicio y sobretodo en el Lenguaje 4. Desde mi experiencia, sentía que había establecido un ritmo y unas reglas y en las preguntas no escuchaba muchas cosas similares, así que la mayoría de respuestas fueron hechas con incertidumbre.",65.0,yes
53,2023-07-24_13h09.44.769,Unsyncopated1,s9,31.0,feminino,right,españa,español,Bachelor degree,no,no,A,1,what,L2,unsyncopated,s1,r2,53,Online_whatL2//c.cha.me13.none.none.wav,fe,su,te,sil,ra,ño,si,sil2,ba,bi,sil1,['-'],,,none,none,,,,cha,3,testConjL1Uns//r2.s2.1.wav,3.0,conjunction_un,unsyncopated,b,s2,rule,rule,L1,z,6.0441,5.0,1.0,1.2436,3.0,2.0,Español,0.0,Ingles,8.0,Catalan,22.0,5.0,4.0,yes,no,yes,Flauta,6,Piano,6,,,"Me ha gustado mucho, aunque he tenido diferentes aproximaciones a cada uno de los lenguajes, por ejemplo, el primero lo sobreanalicé y el último lo hice por intuición. También creo que se pierde un poco el spam de atención al final de cada ejercicio y sobretodo en el Lenguaje 4. Desde mi experiencia, sentía que había establecido un ritmo y unas reglas y en las preguntas no escuchaba muchas cosas similares, así que la mayoría de respuestas fueron hechas con incertidumbre.",65.0,yes
54,2023-07-24_13h09.44.769,Unsyncopated1,s9,31.0,feminino,right,españa,español,Bachelor degree,no,no,A,1,what,L2,unsyncopated,s1,r1,54,Online_whatL2//c.cha.me12.1332.222.wav,go,me,si,sil,du,ñu,cha,sil1,mi,to,sil2,['catch'],[1.8478999999985035],[1.8478999999985035],1.332,no_beat,0.5158999999985034,0.5158999999985034,"[""space""]",cha,3,testConjL1Uns//dep_viol.r1.s2.0.wav,3.0,conjunction_un,unsyncopated,a,s2,no_rule,dep,L1,m,0.4197,7.0,1.0,1.3025,3.0,2.0,Español,0.0,Ingles,8.0,Catalan,22.0,5.0,4.0,yes,no,yes,Flauta,6,Piano,6,,,"Me ha gustado mucho, aunque he tenido diferentes aproximaciones a cada uno de los lenguajes, por ejemplo, el primero lo sobreanalicé y el último lo hice por intuición. También creo que se pierde un poco el spam de atención al final de cada ejercicio y sobretodo en el Lenguaje 4. Desde mi experiencia, sentía que había establecido un ritmo y unas reglas y en las preguntas no escuchaba muchas cosas similares, así que la mayoría de respuestas fueron hechas con incertidumbre.",65.0,yes
55,2023-07-24_13h09.44.769,Unsyncopated1,s9,31.0,feminino,right,españa,español,Bachelor degree,no,no,A,1,what,L2,unsyncopated,s2,r1,55,Online_whatL2//c.cha.me15.none.none.wav,su,ñu,mi,sil,go,ba,bi,sil1,du,to,sil2,['-'],,,none,none,,,,cha,3,testConjL1Uns//cat_viol.r1.s1.0.wav,3.0,conjunction_un,unsyncopated,a,s1,no_rule,cat,L1,m,2.5525,6.0,1.0,1.921,3.0,2.0,Español,0.0,Ingles,8.0,Catalan,22.0,5.0,4.0,yes,no,yes,Flauta,6,Piano,6,,,"Me ha gustado mucho, aunque he tenido diferentes aproximaciones a cada uno de los lenguajes, por ejemplo, el primero lo sobreanalicé y el último lo hice por intuición. También creo que se pierde un poco el spam de atención al final de cada ejercicio y sobretodo en el Lenguaje 4. Desde mi experiencia, sentía que había establecido un ritmo y unas reglas y en las preguntas no escuchaba muchas cosas similares, así que la mayoría de respuestas fueron hechas con incertidumbre.",65.0,yes
56,2023-07-24_13h09.44.769,Unsyncopated1,s9,31.0,feminino,right,españa,español,Bachelor degree,no,no,A,1,what,L2,unsyncopated,s1,r1,56,Online_whatL2//d.si.ñu28.444.1554.wav,go,me,si,sil2,du,to,ñu,sil,te,mi,sil1,['catch'],[0.9919000000022606],[0.9919000000022606],0.444,no_beat,0.5479000000022607,0.5479000000022607,"[""space""]",si,4,testConjL1Uns//r1.s1.0.wav,3.0,conjunction_un,unsyncopated,a,s1,rule,rule,L1,m,9.1056,3.0,0.0,1.1657,3.0,2.0,Español,0.0,Ingles,8.0,Catalan,22.0,5.0,4.0,yes,no,yes,Flauta,6,Piano,6,,,"Me ha gustado mucho, aunque he tenido diferentes aproximaciones a cada uno de los lenguajes, por ejemplo, el primero lo sobreanalicé y el último lo hice por intuición. También creo que se pierde un poco el spam de atención al final de cada ejercicio y sobretodo en el Lenguaje 4. Desde mi experiencia, sentía que había establecido un ritmo y unas reglas y en las preguntas no escuchaba muchas cosas similares, así que la mayoría de respuestas fueron hechas con incertidumbre.",65.0,yes
57,2023-07-24_13h09.44.769,Unsyncopated1,s9,31.0,feminino,right,españa,español,Bachelor degree,no,no,A,1,what,L2,unsyncopated,s1,r2,57,Online_whatL2//d.si.ñu29.222.1110.wav,fe,si,me,sil,ra,ñu,ño,sil2,mi,te,sil1,['catch'],[0.6604999999999563],[0.6604999999999563],0.222,no_beat,0.4384999999999563,0.4384999999999563,"[""space""]",si,4,testConjL1Uns//r2.s2.2.wav,3.0,conjunction_un,unsyncopated,b,s2,rule,rule,L1,m,4.3541,4.0,0.0,1.6205,3.0,2.0,Español,0.0,Ingles,8.0,Catalan,22.0,5.0,4.0,yes,no,yes,Flauta,6,Piano,6,,,"Me ha gustado mucho, aunque he tenido diferentes aproximaciones a cada uno de los lenguajes, por ejemplo, el primero lo sobreanalicé y el último lo hice por intuición. También creo que se pierde un poco el spam de atención al final de cada ejercicio y sobretodo en el Lenguaje 4. Desde mi experiencia, sentía que había establecido un ritmo y unas reglas y en las preguntas no escuchaba muchas cosas similares, así que la mayoría de respuestas fueron hechas con incertidumbre.",65.0,yes
58,2023-07-24_13h09.44.769,Unsyncopated1,s9,31.0,feminino,right,españa,español,Bachelor degree,no,no,A,1,what,L2,unsyncopated,s1,r2,58,Online_whatL2//d.si.ñu31.none.none.wav,fe,mi,ño,sil,ra,su,me,sil1,ba,te,sil2,['-'],,,none,none,,,,si,4,testConjL1Uns//cat_viol.r2.s1.0.wav,3.0,conjunction_un,unsyncopated,b,s1,no_rule,cat,L1,m,6.0352,4.0,1.0,0.9984,3.0,2.0,Español,0.0,Ingles,8.0,Catalan,22.0,5.0,4.0,yes,no,yes,Flauta,6,Piano,6,,,"Me ha gustado mucho, aunque he tenido diferentes aproximaciones a cada uno de los lenguajes, por ejemplo, el primero lo sobreanalicé y el último lo hice por intuición. También creo que se pierde un poco el spam de atención al final de cada ejercicio y sobretodo en el Lenguaje 4. Desde mi experiencia, sentía que había establecido un ritmo y unas reglas y en las preguntas no escuchaba muchas cosas similares, así que la mayoría de respuestas fueron hechas con incertidumbre.",65.0,yes
59,2023-07-24_13h09.44.769,Unsyncopated1,s9,31.0,feminino,right,españa,español,Bachelor degree,no,no,A,1,what,L2,unsyncopated,s1,r2,59,Online_whatL2//d.si.ñu30.1332.222.wav,fe,ñu,te,sil2,ra,si,to,sil,bi,ba,sil1,['catch'],[1.7454999999999927],[1.7454999999999927],1.332,no_beat,0.4134999999999926,0.4134999999999926,"[""space""]",si,4,testConjL1Uns//r1.s2.2.wav,3.0,conjunction_un,unsyncopated,a,s2,rule,rule,L1,m,1.3216,4.0,0.0,0.9379,3.0,2.0,Español,0.0,Ingles,8.0,Catalan,22.0,5.0,4.0,yes,no,yes,Flauta,6,Piano,6,,,"Me ha gustado mucho, aunque he tenido diferentes aproximaciones a cada uno de los lenguajes, por ejemplo, el primero lo sobreanalicé y el último lo hice por intuición. También creo que se pierde un poco el spam de atención al final de cada ejercicio y sobretodo en el Lenguaje 4. Desde mi experiencia, sentía que había establecido un ritmo y unas reglas y en las preguntas no escuchaba muchas cosas similares, así que la mayoría de respuestas fueron hechas con incertidumbre.",65.0,yes
60,2023-07-24_13h09.44.769,Unsyncopated1,s9,31.0,feminino,right,españa,español,Bachelor degree,no,no,A,1,what,L2,unsyncopated,s2,r2,60,Online_whatL2//c.cha.me31.1110.222.wav,su,me,ño,sil,fe,cha,bi,sil1,ra,mi,sil2,['catch'],[1.5190000000000055],[1.5190000000000055],1.11,no_beat,0.4090000000000053,0.4090000000000053,"[""space""]",cha,3,testConjL1Uns//r1.s2.0.wav,3.0,conjunction_un,unsyncopated,a,s2,rule,rule,L1,m,0.922,4.0,0.0,0.9196,3.0,2.0,Español,0.0,Ingles,8.0,Catalan,22.0,5.0,4.0,yes,no,yes,Flauta,6,Piano,6,,,"Me ha gustado mucho, aunque he tenido diferentes aproximaciones a cada uno de los lenguajes, por ejemplo, el primero lo sobreanalicé y el último lo hice por intuición. También creo que se pierde un poco el spam de atención al final de cada ejercicio y sobretodo en el Lenguaje 4. Desde mi experiencia, sentía que había establecido un ritmo y unas reglas y en las preguntas no escuchaba muchas cosas similares, así que la mayoría de respuestas fueron hechas con incertidumbre.",65.0,yes
61,2023-07-24_13h09.44.769,Unsyncopated1,s9,31.0,feminino,right,españa,español,Bachelor degree,no,no,A,1,what,L2,unsyncopated,s2,r1,61,Online_whatL2//c.cha.me29.none.none.wav,ño,ba,mi,sil,go,ñu,bi,sil1,du,te,sil2,['-'],,,none,none,,,,cha,3,testConjL1Uns//r2.s2.0.wav,3.0,conjunction_un,unsyncopated,b,s2,rule,rule,L1,m,0.832,4.0,0.0,1.1559,3.0,2.0,Español,0.0,Ingles,8.0,Catalan,22.0,5.0,4.0,yes,no,yes,Flauta,6,Piano,6,,,"Me ha gustado mucho, aunque he tenido diferentes aproximaciones a cada uno de los lenguajes, por ejemplo, el primero lo sobreanalicé y el último lo hice por intuición. También creo que se pierde un poco el spam de atención al final de cada ejercicio y sobretodo en el Lenguaje 4. Desde mi experiencia, sentía que había establecido un ritmo y unas reglas y en las preguntas no escuchaba muchas cosas similares, así que la mayoría de respuestas fueron hechas con incertidumbre.",65.0,yes
62,2023-07-24_13h09.44.769,Unsyncopated1,s9,31.0,feminino,right,españa,español,Bachelor degree,no,no,A,1,what,L2,unsyncopated,s1,r2,62,Online_whatL2//c.cha.me30.none.none.wav,fe,ba,su,sil,ra,mi,ño,sil1,ñu,to,sil2,['-'],,,none,none,,,,cha,3,testConjL1Uns//time_viol.r1.s1.0.wav,3.0,conjunction_un,unsyncopated,a,s1,no_rule,time,L1,m,2.7218,4.0,1.0,0.9393,3.0,2.0,Español,0.0,Ingles,8.0,Catalan,22.0,5.0,4.0,yes,no,yes,Flauta,6,Piano,6,,,"Me ha gustado mucho, aunque he tenido diferentes aproximaciones a cada uno de los lenguajes, por ejemplo, el primero lo sobreanalicé y el último lo hice por intuición. También creo que se pierde un poco el spam de atención al final de cada ejercicio y sobretodo en el Lenguaje 4. Desde mi experiencia, sentía que había establecido un ritmo y unas reglas y en las preguntas no escuchaba muchas cosas similares, así que la mayoría de respuestas fueron hechas con incertidumbre.",65.0,yes
63,2023-07-24_13h09.44.769,Unsyncopated1,s9,31.0,feminino,right,españa,español,Bachelor degree,no,no,A,1,what,L2,unsyncopated,s2,r2,63,Online_whatL2//c.cha.me28.0.1110.wav,cha,to,su,sil,fe,me,te,sil1,ra,bi,sil2,['catch'],[1.5930999999977757],[1.5930999999977757],0.0,beat,,1.5930999999977755,"[""space""]",cha,3,testConjL1Uns//r2.s1.0.wav,3.0,conjunction_un,unsyncopated,b,s1,rule,rule,L1,m,0.6377,4.0,0.0,0.5024,3.0,2.0,Español,0.0,Ingles,8.0,Catalan,22.0,5.0,4.0,yes,no,yes,Flauta,6,Piano,6,,,"Me ha gustado mucho, aunque he tenido diferentes aproximaciones a cada uno de los lenguajes, por ejemplo, el primero lo sobreanalicé y el último lo hice por intuición. También creo que se pierde un poco el spam de atención al final de cada ejercicio y sobretodo en el Lenguaje 4. Desde mi experiencia, sentía que había establecido un ritmo y unas reglas y en las preguntas no escuchaba muchas cosas similares, así que la mayoría de respuestas fueron hechas con incertidumbre.",65.0,yes
64,2023-07-24_13h09.44.769,Unsyncopated1,s9,31.0,feminino,right,españa,español,Bachelor degree,no,no,A,1,what,L2,unsyncopated,s1,r1,64,Online_whatL2//b.fe.ra18.none.none.wav,go,si,te,sil,du,to,ño,sil2,me,bi,sil1,['-'],,,none,none,,,,fe,1,testConjL1Uns//time_viol.r2.s2.0.wav,3.0,conjunction_un,unsyncopated,b,s2,no_rule,time,L1,m,5.7214,4.0,1.0,0.6855,3.0,2.0,Español,0.0,Ingles,8.0,Catalan,22.0,5.0,4.0,yes,no,yes,Flauta,6,Piano,6,,,"Me ha gustado mucho, aunque he tenido diferentes aproximaciones a cada uno de los lenguajes, por ejemplo, el primero lo sobreanalicé y el último lo hice por intuición. También creo que se pierde un poco el spam de atención al final de cada ejercicio y sobretodo en el Lenguaje 4. Desde mi experiencia, sentía que había establecido un ritmo y unas reglas y en las preguntas no escuchaba muchas cosas similares, así que la mayoría de respuestas fueron hechas con incertidumbre.",65.0,yes
65,2023-07-24_13h09.44.769,Unsyncopated1,s9,31.0,feminino,right,españa,español,Bachelor degree,no,no,A,1,what,L2,unsyncopated,s1,r2,65,Online_whatL2//b.fe.ra16.0.1110.wav,fe,te,su,sil2,ra,si,ñu,sil,cha,mi,sil1,['catch'],[0.42650000000003274],[0.42650000000003274],0.0,beat,0.4265000000000327,0.4265000000000327,"[""space""]",fe,1,testConjL1Uns//cat_viol.r2.s2.0.wav,3.0,conjunction_un,unsyncopated,b,s2,no_rule,cat,L1,z,9.8421,4.0,0.0,0.5511,3.0,2.0,Español,0.0,Ingles,8.0,Catalan,22.0,5.0,4.0,yes,no,yes,Flauta,6,Piano,6,,,"Me ha gustado mucho, aunque he tenido diferentes aproximaciones a cada uno de los lenguajes, por ejemplo, el primero lo sobreanalicé y el último lo hice por intuición. También creo que se pierde un poco el spam de atención al final de cada ejercicio y sobretodo en el Lenguaje 4. Desde mi experiencia, sentía que había establecido un ritmo y unas reglas y en las preguntas no escuchaba muchas cosas similares, así que la mayoría de respuestas fueron hechas con incertidumbre.",65.0,yes
66,2023-07-24_13h09.44.769,Unsyncopated1,s9,31.0,feminino,right,españa,español,Bachelor degree,no,no,A,1,what,L2,unsyncopated,s1,r2,66,Online_whatL2//b.fe.ra19.0.888.wav,fe,si,ñu,sil,ra,me,su,sil2,cha,to,sil1,['catch'],[0.5843999999984817],[0.5843999999984817],0.0,beat,0.5843999999984817,0.5843999999984817,"[""space""]",fe,1,testConjL1Uns//time_viol.r2.s1.0.wav,3.0,conjunction_un,unsyncopated,b,s1,no_rule,time,L1,m,1.2051,6.0,1.0,0.8907,3.0,2.0,Español,0.0,Ingles,8.0,Catalan,22.0,5.0,4.0,yes,no,yes,Flauta,6,Piano,6,,,"Me ha gustado mucho, aunque he tenido diferentes aproximaciones a cada uno de los lenguajes, por ejemplo, el primero lo sobreanalicé y el último lo hice por intuición. También creo que se pierde un poco el spam de atención al final de cada ejercicio y sobretodo en el Lenguaje 4. Desde mi experiencia, sentía que había establecido un ritmo y unas reglas y en las preguntas no escuchaba muchas cosas similares, así que la mayoría de respuestas fueron hechas con incertidumbre.",65.0,yes
67,2023-07-24_13h09.44.769,Unsyncopated1,s9,31.0,feminino,right,españa,español,Bachelor degree,no,no,A,1,what,L2,unsyncopated,s2,r1,67,Online_whatL2//b.fe.ra17.none.none.wav,ñu,su,to,sil,go,te,bi,sil2,du,si,sil1,['-'],,,none,none,,,,fe,1,testConjL1Uns//time_viol.r1.s2.0.wav,3.0,conjunction_un,unsyncopated,a,s2,no_rule,time,L1,m,0.6023,5.0,1.0,0.6877,3.0,2.0,Español,0.0,Ingles,8.0,Catalan,22.0,5.0,4.0,yes,no,yes,Flauta,6,Piano,6,,,"Me ha gustado mucho, aunque he tenido diferentes aproximaciones a cada uno de los lenguajes, por ejemplo, el primero lo sobreanalicé y el último lo hice por intuición. También creo que se pierde un poco el spam de atención al final de cada ejercicio y sobretodo en el Lenguaje 4. Desde mi experiencia, sentía que había establecido un ritmo y unas reglas y en las preguntas no escuchaba muchas cosas similares, así que la mayoría de respuestas fueron hechas con incertidumbre.",65.0,yes
68,2023-07-24_13h09.44.769,Unsyncopated1,s9,31.0,feminino,right,españa,español,Bachelor degree,no,no,A,1,what,L2,unsyncopated,s2,r1,68,Online_whatL2//a.go.du22.888.1776.wav,me,ño,cha,sil,go,te,ñu,sil1,du,to,sil2,['catch'],[2.556699999999182],[2.556699999999182],1.776,beat,0.7806999999991822,0.7806999999991822,"[""space""]",du,2,testConjL1Uns//r1.s1.1.wav,3.0,conjunction_un,unsyncopated,a,s1,rule,rule,L1,z,7.8555,4.0,1.0,0.5527,3.0,2.0,Español,0.0,Ingles,8.0,Catalan,22.0,5.0,4.0,yes,no,yes,Flauta,6,Piano,6,,,"Me ha gustado mucho, aunque he tenido diferentes aproximaciones a cada uno de los lenguajes, por ejemplo, el primero lo sobreanalicé y el último lo hice por intuición. También creo que se pierde un poco el spam de atención al final de cada ejercicio y sobretodo en el Lenguaje 4. Desde mi experiencia, sentía que había establecido un ritmo y unas reglas y en las preguntas no escuchaba muchas cosas similares, así que la mayoría de respuestas fueron hechas con incertidumbre.",65.0,yes
69,2023-07-24_13h09.44.769,Unsyncopated1,s9,31.0,feminino,right,españa,español,Bachelor degree,no,no,A,1,what,L2,unsyncopated,s1,r2,69,Online_whatL2//a.go.du23.none.none.wav,fe,si,me,sil2,ra,mi,ba,sil,ño,ñu,sil1,['-'],,,none,none,,,,du,2,testConjL1Uns//r2.s1.1.wav,3.0,conjunction_un,unsyncopated,b,s1,rule,rule,L1,z,0.4801,6.0,1.0,2.0574,3.0,2.0,Español,0.0,Ingles,8.0,Catalan,22.0,5.0,4.0,yes,no,yes,Flauta,6,Piano,6,,,"Me ha gustado mucho, aunque he tenido diferentes aproximaciones a cada uno de los lenguajes, por ejemplo, el primero lo sobreanalicé y el último lo hice por intuición. También creo que se pierde un poco el spam de atención al final de cada ejercicio y sobretodo en el Lenguaje 4. Desde mi experiencia, sentía que había establecido un ritmo y unas reglas y en las preguntas no escuchaba muchas cosas similares, así que la mayoría de respuestas fueron hechas con incertidumbre.",65.0,yes
70,2023-07-24_13h09.44.769,Unsyncopated1,s9,31.0,feminino,right,españa,español,Bachelor degree,no,no,A,1,what,L2,unsyncopated,s2,r2,70,Online_whatL2//a.go.du20.none.none.wav,mi,ba,cha,sil,fe,to,ñu,sil1,ra,bi,sil2,['-'],,,none,none,,,,du,2,testConjL1Uns//r1.s1.2.wav,3.0,conjunction_un,unsyncopated,a,s1,rule,rule,L1,z,0.9016,5.0,1.0,1.5209,3.0,2.0,Español,0.0,Ingles,8.0,Catalan,22.0,5.0,4.0,yes,no,yes,Flauta,6,Piano,6,,,"Me ha gustado mucho, aunque he tenido diferentes aproximaciones a cada uno de los lenguajes, por ejemplo, el primero lo sobreanalicé y el último lo hice por intuición. También creo que se pierde un poco el spam de atención al final de cada ejercicio y sobretodo en el Lenguaje 4. Desde mi experiencia, sentía que había establecido un ritmo y unas reglas y en las preguntas no escuchaba muchas cosas similares, así que la mayoría de respuestas fueron hechas con incertidumbre.",65.0,yes
71,2023-07-24_13h09.44.769,Unsyncopated1,s9,31.0,feminino,right,españa,español,Bachelor degree,no,no,A,1,what,L2,unsyncopated,s2,r2,71,Online_whatL2//a.go.du21.none.none.wav,ñu,ba,mi,sil,fe,cha,me,sil2,ra,bi,sil1,['-'],,,none,none,,,,du,2,testConjL1Uns//cat_viol.r1.s2.0.wav,3.0,conjunction_un,unsyncopated,a,s2,no_rule,cat,L1,m,1.0036,5.0,1.0,1.3727,3.0,2.0,Español,0.0,Ingles,8.0,Catalan,22.0,5.0,4.0,yes,no,yes,Flauta,6,Piano,6,,,"Me ha gustado mucho, aunque he tenido diferentes aproximaciones a cada uno de los lenguajes, por ejemplo, el primero lo sobreanalicé y el último lo hice por intuición. También creo que se pierde un poco el spam de atención al final de cada ejercicio y sobretodo en el Lenguaje 4. Desde mi experiencia, sentía que había establecido un ritmo y unas reglas y en las preguntas no escuchaba muchas cosas similares, así que la mayoría de respuestas fueron hechas con incertidumbre.",65.0,yes
72,2023-07-24_13h09.44.769,Unsyncopated1,s9,31.0,feminino,right,españa,español,Bachelor degree,no,no,A,1,what,L2,unsyncopated,s1,r2,72,Online_whatL2//c.cha.me20.444.1332.wav,fe,si,cha,sil,ra,bi,me,sil2,ño,mi,sil1,['catch'],[1.1036999999992076],[1.1036999999992076],0.444,no_beat,0.6596999999992077,0.6596999999992077,"[""space""]",cha,3,testConjL4Syn//r2.s2.2.wav,4.0,conjunction_syn,syncopated,b,s2,rule,rule,L4,z,2.2161,5.0,1.0,2.4059,3.0,2.0,Español,0.0,Ingles,8.0,Catalan,22.0,5.0,4.0,yes,no,yes,Flauta,6,Piano,6,,,"Me ha gustado mucho, aunque he tenido diferentes aproximaciones a cada uno de los lenguajes, por ejemplo, el primero lo sobreanalicé y el último lo hice por intuición. También creo que se pierde un poco el spam de atención al final de cada ejercicio y sobretodo en el Lenguaje 4. Desde mi experiencia, sentía que había establecido un ritmo y unas reglas y en las preguntas no escuchaba muchas cosas similares, así que la mayoría de respuestas fueron hechas con incertidumbre.",65.0,yes
73,2023-07-24_13h09.44.769,Unsyncopated1,s9,31.0,feminino,right,españa,español,Bachelor degree,no,no,A,1,what,L2,unsyncopated,s1,r1,73,Online_whatL2//c.cha.me21.none.none.wav,go,mi,bi,sil,du,si,su,sil2,te,ba,sil1,['-'],,,none,none,,,,cha,3,testConjL4Syn//r2.s1.1.wav,4.0,conjunction_syn,syncopated,b,s1,rule,rule,L4,z,0.8535,5.0,1.0,1.0521,3.0,2.0,Español,0.0,Ingles,8.0,Catalan,22.0,5.0,4.0,yes,no,yes,Flauta,6,Piano,6,,,"Me ha gustado mucho, aunque he tenido diferentes aproximaciones a cada uno de los lenguajes, por ejemplo, el primero lo sobreanalicé y el último lo hice por intuición. También creo que se pierde un poco el spam de atención al final de cada ejercicio y sobretodo en el Lenguaje 4. Desde mi experiencia, sentía que había establecido un ritmo y unas reglas y en las preguntas no escuchaba muchas cosas similares, así que la mayoría de respuestas fueron hechas con incertidumbre.",65.0,yes
74,2023-07-24_13h09.44.769,Unsyncopated1,s9,31.0,feminino,right,españa,español,Bachelor degree,no,no,A,1,what,L2,unsyncopated,s2,r1,74,Online_whatL2//c.cha.me22.0.1110.wav,cha,to,su,sil,go,me,ño,sil1,du,ba,sil2,['catch'],[0.7987000000030093],[0.7987000000030093],0.0,beat,0.7987000000030093,0.7987000000030093,"[""space""]",cha,3,testConjL4Syn//cat_viol.r1.s1.0.wav,4.0,conjunction_syn,syncopated,a,s1,no_rule,cat,L4,m,2.0831,4.0,1.0,1.4498,3.0,2.0,Español,0.0,Ingles,8.0,Catalan,22.0,5.0,4.0,yes,no,yes,Flauta,6,Piano,6,,,"Me ha gustado mucho, aunque he tenido diferentes aproximaciones a cada uno de los lenguajes, por ejemplo, el primero lo sobreanalicé y el último lo hice por intuición. También creo que se pierde un poco el spam de atención al final de cada ejercicio y sobretodo en el Lenguaje 4. Desde mi experiencia, sentía que había establecido un ritmo y unas reglas y en las preguntas no escuchaba muchas cosas similares, así que la mayoría de respuestas fueron hechas con incertidumbre.",65.0,yes
75,2023-07-24_13h09.44.769,Unsyncopated1,s9,31.0,feminino,right,españa,español,Bachelor degree,no,no,A,1,what,L2,unsyncopated,s2,r2,75,Online_whatL2//c.cha.me23.none.none.wav,si,ñu,te,sil,fe,ba,su,sil2,ra,to,sil1,['-'],,,none,none,,,,cha,3,testConjL4Syn//r2.s2.1.wav,4.0,conjunction_syn,syncopated,b,s2,rule,rule,L4,z,2.1743,5.0,1.0,1.0023,3.0,2.0,Español,0.0,Ingles,8.0,Catalan,22.0,5.0,4.0,yes,no,yes,Flauta,6,Piano,6,,,"Me ha gustado mucho, aunque he tenido diferentes aproximaciones a cada uno de los lenguajes, por ejemplo, el primero lo sobreanalicé y el último lo hice por intuición. También creo que se pierde un poco el spam de atención al final de cada ejercicio y sobretodo en el Lenguaje 4. Desde mi experiencia, sentía que había establecido un ritmo y unas reglas y en las preguntas no escuchaba muchas cosas similares, así que la mayoría de respuestas fueron hechas con incertidumbre.",65.0,yes
76,2023-07-24_13h09.44.769,Unsyncopated1,s9,31.0,feminino,right,españa,español,Bachelor degree,no,no,A,1,what,L2,unsyncopated,s1,r1,76,Online_whatL2//d.si.ñu9.444.1332.wav,go,mi,si,sil,du,me,ñu,sil2,to,su,sil1,['catch'],[0.9412999999969998],[0.9412999999969998],0.444,no_beat,0.4972999999969997,0.4972999999969997,"[""space""]",si,4,testConjL4Syn//dep_viol.r1.s2.0.wav,4.0,conjunction_syn,syncopated,a,s2,no_rule,dep,L4,z,1.4005,5.0,0.0,0.9141,3.0,2.0,Español,0.0,Ingles,8.0,Catalan,22.0,5.0,4.0,yes,no,yes,Flauta,6,Piano,6,,,"Me ha gustado mucho, aunque he tenido diferentes aproximaciones a cada uno de los lenguajes, por ejemplo, el primero lo sobreanalicé y el último lo hice por intuición. También creo que se pierde un poco el spam de atención al final de cada ejercicio y sobretodo en el Lenguaje 4. Desde mi experiencia, sentía que había establecido un ritmo y unas reglas y en las preguntas no escuchaba muchas cosas similares, así que la mayoría de respuestas fueron hechas con incertidumbre.",65.0,yes
77,2023-07-24_13h09.44.769,Unsyncopated1,s9,31.0,feminino,right,españa,español,Bachelor degree,no,no,A,1,what,L2,unsyncopated,s2,r2,77,Online_whatL2//d.si.ñu10.1554.222.wav,to,ñu,cha,sil2,fe,me,si,sil,ra,te,sil1,['miss'],,,1.554,no_beat,,,,si,4,testConjL4Syn//r1.s1.2.wav,4.0,conjunction_syn,syncopated,a,s1,rule,rule,L4,m,0.3184,4.0,0.0,1.0873,3.0,2.0,Español,0.0,Ingles,8.0,Catalan,22.0,5.0,4.0,yes,no,yes,Flauta,6,Piano,6,,,"Me ha gustado mucho, aunque he tenido diferentes aproximaciones a cada uno de los lenguajes, por ejemplo, el primero lo sobreanalicé y el último lo hice por intuición. También creo que se pierde un poco el spam de atención al final de cada ejercicio y sobretodo en el Lenguaje 4. Desde mi experiencia, sentía que había establecido un ritmo y unas reglas y en las preguntas no escuchaba muchas cosas similares, así que la mayoría de respuestas fueron hechas con incertidumbre.",65.0,yes
78,2023-07-24_13h09.44.769,Unsyncopated1,s9,31.0,feminino,right,españa,español,Bachelor degree,no,no,A,1,what,L2,unsyncopated,s2,r1,78,Online_whatL2//d.si.ñu11.none.none.wav,su,bi,me,sil,go,te,mi,sil1,du,ño,sil2,['-'],,,none,none,,,,si,4,testConjL4Syn//cat_viol.r2.s2.0.wav,4.0,conjunction_syn,syncopated,b,s2,no_rule,cat,L4,m,0.3074,6.0,1.0,2.4238,3.0,2.0,Español,0.0,Ingles,8.0,Catalan,22.0,5.0,4.0,yes,no,yes,Flauta,6,Piano,6,,,"Me ha gustado mucho, aunque he tenido diferentes aproximaciones a cada uno de los lenguajes, por ejemplo, el primero lo sobreanalicé y el último lo hice por intuición. También creo que se pierde un poco el spam de atención al final de cada ejercicio y sobretodo en el Lenguaje 4. Desde mi experiencia, sentía que había establecido un ritmo y unas reglas y en las preguntas no escuchaba muchas cosas similares, así que la mayoría de respuestas fueron hechas con incertidumbre.",65.0,yes
79,2023-07-24_13h09.44.769,Unsyncopated1,s9,31.0,feminino,right,españa,español,Bachelor degree,no,no,A,1,what,L2,unsyncopated,s1,r1,79,Online_whatL2//d.si.ñu8.none.none.wav,go,ba,to,sil2,du,mi,su,sil,te,cha,sil1,['-'],,,none,none,,,,si,4,testConjL4Syn//r2.s1.2.wav,4.0,conjunction_syn,syncopated,b,s1,rule,rule,L4,m,2.1694,6.0,0.0,1.7213,3.0,2.0,Español,0.0,Ingles,8.0,Catalan,22.0,5.0,4.0,yes,no,yes,Flauta,6,Piano,6,,,"Me ha gustado mucho, aunque he tenido diferentes aproximaciones a cada uno de los lenguajes, por ejemplo, el primero lo sobreanalicé y el último lo hice por intuición. También creo que se pierde un poco el spam de atención al final de cada ejercicio y sobretodo en el Lenguaje 4. Desde mi experiencia, sentía que había establecido un ritmo y unas reglas y en las preguntas no escuchaba muchas cosas similares, así que la mayoría de respuestas fueron hechas con incertidumbre.",65.0,yes
80,2023-07-24_13h09.44.769,Unsyncopated1,s9,31.0,feminino,right,españa,español,Bachelor degree,no,no,A,1,what,L2,unsyncopated,s1,r2,80,Online_whatL2//b.fe.ra25.0.888.wav,fe,to,si,sil,ra,mi,su,sil2,cha,ño,sil1,['catch'],[0.7595000000000027],[0.7595000000000027],0.0,beat,0.7595000000000027,0.7595000000000027,"[""space""]",fe,1,testConjL4Syn//r1.s1.0.wav,4.0,conjunction_syn,syncopated,a,s1,rule,rule,L4,m,1.8405,5.0,0.0,1.5364,3.0,2.0,Español,0.0,Ingles,8.0,Catalan,22.0,5.0,4.0,yes,no,yes,Flauta,6,Piano,6,,,"Me ha gustado mucho, aunque he tenido diferentes aproximaciones a cada uno de los lenguajes, por ejemplo, el primero lo sobreanalicé y el último lo hice por intuición. También creo que se pierde un poco el spam de atención al final de cada ejercicio y sobretodo en el Lenguaje 4. Desde mi experiencia, sentía que había establecido un ritmo y unas reglas y en las preguntas no escuchaba muchas cosas similares, así que la mayoría de respuestas fueron hechas con incertidumbre.",65.0,yes
81,2023-07-24_13h09.44.769,Unsyncopated1,s9,31.0,feminino,right,españa,español,Bachelor degree,no,no,A,1,what,L2,unsyncopated,s2,r1,81,Online_whatL2//b.fe.ra24.none.none.wav,si,cha,su,sil2,go,mi,me,sil,du,bi,sil1,['-'],,,none,none,,,,fe,1,testConjL4Syn//cat_viol.r1.s2.0.wav,4.0,conjunction_syn,syncopated,a,s2,no_rule,cat,L4,m,1.1745,5.0,1.0,1.1392,3.0,2.0,Español,0.0,Ingles,8.0,Catalan,22.0,5.0,4.0,yes,no,yes,Flauta,6,Piano,6,,,"Me ha gustado mucho, aunque he tenido diferentes aproximaciones a cada uno de los lenguajes, por ejemplo, el primero lo sobreanalicé y el último lo hice por intuición. También creo que se pierde un poco el spam de atención al final de cada ejercicio y sobretodo en el Lenguaje 4. Desde mi experiencia, sentía que había establecido un ritmo y unas reglas y en las preguntas no escuchaba muchas cosas similares, así que la mayoría de respuestas fueron hechas con incertidumbre.",65.0,yes
82,2023-07-24_13h09.44.769,Unsyncopated1,s9,31.0,feminino,right,españa,español,Bachelor degree,no,no,A,1,what,L2,unsyncopated,s2,r2,82,Online_whatL2//b.fe.ra26.1110.1998.wav,si,me,bi,sil2,fe,cha,te,sil,ra,to,sil1,['catch'],[1.7801999999992404],[1.7801999999992404],1.11,no_beat,0.6701999999992403,0.6701999999992403,"[""space""]",fe,1,testConjL4Syn//cat_viol.r2.s1.0.wav,4.0,conjunction_syn,syncopated,b,s1,no_rule,cat,L4,z,0.3372,5.0,0.0,1.1033,3.0,2.0,Español,0.0,Ingles,8.0,Catalan,22.0,5.0,4.0,yes,no,yes,Flauta,6,Piano,6,,,"Me ha gustado mucho, aunque he tenido diferentes aproximaciones a cada uno de los lenguajes, por ejemplo, el primero lo sobreanalicé y el último lo hice por intuición. También creo que se pierde un poco el spam de atención al final de cada ejercicio y sobretodo en el Lenguaje 4. Desde mi experiencia, sentía que había establecido un ritmo y unas reglas y en las preguntas no escuchaba muchas cosas similares, así que la mayoría de respuestas fueron hechas con incertidumbre.",65.0,yes
83,2023-07-24_13h09.44.769,Unsyncopated1,s9,31.0,feminino,right,españa,español,Bachelor degree,no,no,A,1,what,L2,unsyncopated,s2,r1,83,Online_whatL2//b.fe.ra27.none.none.wav,mi,me,su,sil,go,cha,ño,sil2,du,te,sil1,['-'],,,none,none,,,,fe,1,testConjL4Syn//r1.s2.2.wav,4.0,conjunction_syn,syncopated,a,s2,rule,rule,L4,m,1.402,4.0,0.0,0.4026,3.0,2.0,Español,0.0,Ingles,8.0,Catalan,22.0,5.0,4.0,yes,no,yes,Flauta,6,Piano,6,,,"Me ha gustado mucho, aunque he tenido diferentes aproximaciones a cada uno de los lenguajes, por ejemplo, el primero lo sobreanalicé y el último lo hice por intuición. También creo que se pierde un poco el spam de atención al final de cada ejercicio y sobretodo en el Lenguaje 4. Desde mi experiencia, sentía que había establecido un ritmo y unas reglas y en las preguntas no escuchaba muchas cosas similares, así que la mayoría de respuestas fueron hechas con incertidumbre.",65.0,yes
84,2023-07-24_13h09.44.769,Unsyncopated1,s9,31.0,feminino,right,españa,español,Bachelor degree,no,no,A,1,what,L2,unsyncopated,s1,r1,84,Online_whatL2//c.cha.me3.1332.444.wav,go,to,me,sil,du,si,cha,sil2,ño,te,sil1,['catch'],[1.7493000000007441],[1.7493000000007441],1.332,no_beat,0.4173000000007441,0.4173000000007441,"[""space""]",cha,3,testConjL4Syn//time_viol.r2.s2.0.wav,4.0,conjunction_syn,syncopated,b,s2,no_rule,time,L4,m,0.2519,4.0,1.0,0.3865,3.0,2.0,Español,0.0,Ingles,8.0,Catalan,22.0,5.0,4.0,yes,no,yes,Flauta,6,Piano,6,,,"Me ha gustado mucho, aunque he tenido diferentes aproximaciones a cada uno de los lenguajes, por ejemplo, el primero lo sobreanalicé y el último lo hice por intuición. También creo que se pierde un poco el spam de atención al final de cada ejercicio y sobretodo en el Lenguaje 4. Desde mi experiencia, sentía que había establecido un ritmo y unas reglas y en las preguntas no escuchaba muchas cosas similares, así que la mayoría de respuestas fueron hechas con incertidumbre.",65.0,yes
85,2023-07-24_13h09.44.769,Unsyncopated1,s9,31.0,feminino,right,españa,español,Bachelor degree,no,no,A,1,what,L2,unsyncopated,s1,r2,85,Online_whatL2//c.cha.me0.1998.222.wav,fe,me,ño,sil,ra,su,si,sil2,cha,mi,sil1,['catch_delay'],[0.845499999999962],[0.845499999999962],1.998,no_beat,0.845499999999962,0.845499999999962,,cha,3,testConjL4Syn//time_viol.r1.s2.0.wav,4.0,conjunction_syn,syncopated,a,s2,no_rule,time,L4,m,3.3249,4.0,1.0,0.3039,3.0,2.0,Español,0.0,Ingles,8.0,Catalan,22.0,5.0,4.0,yes,no,yes,Flauta,6,Piano,6,,,"Me ha gustado mucho, aunque he tenido diferentes aproximaciones a cada uno de los lenguajes, por ejemplo, el primero lo sobreanalicé y el último lo hice por intuición. También creo que se pierde un poco el spam de atención al final de cada ejercicio y sobretodo en el Lenguaje 4. Desde mi experiencia, sentía que había establecido un ritmo y unas reglas y en las preguntas no escuchaba muchas cosas similares, así que la mayoría de respuestas fueron hechas con incertidumbre.",65.0,yes
86,2023-07-24_13h09.44.769,Unsyncopated1,s9,31.0,feminino,right,españa,español,Bachelor degree,no,no,A,1,what,L2,unsyncopated,s2,r2,86,Online_whatL2//c.cha.me1.1110.0.wav,me,mi,ba,sil,fe,cha,su,sil2,ra,ñu,sil1,['miss'],[0.1794999999999618],[0.1794999999999618],1.11,no_beat,,,"[""space""]",cha,3,testConjL4Syn//dep_viol.r2.s1.0.wav,4.0,conjunction_syn,syncopated,b,s1,no_rule,dep,L4,z,3.9883,4.0,0.0,1.282,3.0,2.0,Español,0.0,Ingles,8.0,Catalan,22.0,5.0,4.0,yes,no,yes,Flauta,6,Piano,6,,,"Me ha gustado mucho, aunque he tenido diferentes aproximaciones a cada uno de los lenguajes, por ejemplo, el primero lo sobreanalicé y el último lo hice por intuición. También creo que se pierde un poco el spam de atención al final de cada ejercicio y sobretodo en el Lenguaje 4. Desde mi experiencia, sentía que había establecido un ritmo y unas reglas y en las preguntas no escuchaba muchas cosas similares, así que la mayoría de respuestas fueron hechas con incertidumbre.",65.0,yes
87,2023-07-24_13h09.44.769,Unsyncopated1,s9,31.0,feminino,right,españa,español,Bachelor degree,no,no,A,1,what,L2,unsyncopated,s1,r1,87,Online_whatL2//c.cha.me2.none.none.wav,go,ba,si,sil2,du,mi,ñu,sil,bi,ño,sil1,['-'],,,none,none,,,,cha,3,testConjL4Syn//time_viol.r2.s1.0.wav,4.0,conjunction_syn,syncopated,b,s1,no_rule,time,L4,m,0.2952,4.0,1.0,0.4542,3.0,2.0,Español,0.0,Ingles,8.0,Catalan,22.0,5.0,4.0,yes,no,yes,Flauta,6,Piano,6,,,"Me ha gustado mucho, aunque he tenido diferentes aproximaciones a cada uno de los lenguajes, por ejemplo, el primero lo sobreanalicé y el último lo hice por intuición. También creo que se pierde un poco el spam de atención al final de cada ejercicio y sobretodo en el Lenguaje 4. Desde mi experiencia, sentía que había establecido un ritmo y unas reglas y en las preguntas no escuchaba muchas cosas similares, así que la mayoría de respuestas fueron hechas con incertidumbre.",65.0,yes
88,2023-07-24_13h09.44.769,Unsyncopated1,s9,31.0,feminino,right,españa,español,Bachelor degree,no,no,A,1,what,L2,unsyncopated,s2,r1,88,Online_whatL2//d.si.ñu6.none.none.wav,te,me,mi,sil2,go,su,to,sil,du,bi,sil1,['-'],,,none,none,,,,si,4,testConjL4Syn//r2.s2.0.wav,4.0,conjunction_syn,syncopated,b,s2,rule,rule,L4,z,0.2862,4.0,1.0,0.5746,3.0,2.0,Español,0.0,Ingles,8.0,Catalan,22.0,5.0,4.0,yes,no,yes,Flauta,6,Piano,6,,,"Me ha gustado mucho, aunque he tenido diferentes aproximaciones a cada uno de los lenguajes, por ejemplo, el primero lo sobreanalicé y el último lo hice por intuición. También creo que se pierde un poco el spam de atención al final de cada ejercicio y sobretodo en el Lenguaje 4. Desde mi experiencia, sentía que había establecido un ritmo y unas reglas y en las preguntas no escuchaba muchas cosas similares, así que la mayoría de respuestas fueron hechas con incertidumbre.",65.0,yes
89,2023-07-24_13h09.44.769,Unsyncopated1,s9,31.0,feminino,right,españa,español,Bachelor degree,no,no,A,1,what,L2,unsyncopated,s1,r1,89,Online_whatL2//d.si.ñu5.none.none.wav,go,to,me,sil2,du,mi,ño,sil,ba,su,sil1,['-'],,,none,none,,,,si,4,testConjL4Syn//r1.s2.1.wav,4.0,conjunction_syn,syncopated,a,s2,rule,rule,L4,z,0.652,4.0,1.0,0.3831,3.0,2.0,Español,0.0,Ingles,8.0,Catalan,22.0,5.0,4.0,yes,no,yes,Flauta,6,Piano,6,,,"Me ha gustado mucho, aunque he tenido diferentes aproximaciones a cada uno de los lenguajes, por ejemplo, el primero lo sobreanalicé y el último lo hice por intuición. También creo que se pierde un poco el spam de atención al final de cada ejercicio y sobretodo en el Lenguaje 4. Desde mi experiencia, sentía que había establecido un ritmo y unas reglas y en las preguntas no escuchaba muchas cosas similares, así que la mayoría de respuestas fueron hechas con incertidumbre.",65.0,yes
90,2023-07-24_13h09.44.769,Unsyncopated1,s9,31.0,feminino,right,españa,español,Bachelor degree,no,no,A,1,what,L2,unsyncopated,s1,r2,90,Online_whatL2//d.si.ñu4.1776.1110.wav,fe,su,to,sil,ra,ñu,cha,sil1,si,me,sil2,['catch'],[2.396699999999214],[2.396699999999214],1.776,beat,0.620699999999214,0.620699999999214,"[""space""]",si,4,testConjL4Syn//r1.s1.1.wav,4.0,conjunction_syn,syncopated,a,s1,rule,rule,L4,m,0.1737,5.0,0.0,1.5101,3.0,2.0,Español,0.0,Ingles,8.0,Catalan,22.0,5.0,4.0,yes,no,yes,Flauta,6,Piano,6,,,"Me ha gustado mucho, aunque he tenido diferentes aproximaciones a cada uno de los lenguajes, por ejemplo, el primero lo sobreanalicé y el último lo hice por intuición. También creo que se pierde un poco el spam de atención al final de cada ejercicio y sobretodo en el Lenguaje 4. Desde mi experiencia, sentía que había establecido un ritmo y unas reglas y en las preguntas no escuchaba muchas cosas similares, así que la mayoría de respuestas fueron hechas con incertidumbre.",65.0,yes
91,2023-07-24_13h09.44.769,Unsyncopated1,s9,31.0,feminino,right,españa,español,Bachelor degree,no,no,A,1,what,L2,unsyncopated,s2,r2,91,Online_whatL2//d.si.ñu7.1332.0.wav,ñu,to,me,sil,fe,su,si,sil1,ra,bi,sil2,['miss'],,,1.332,no_beat,,,,si,4,testConjL4Syn//time_viol.r1.s1.0.wav,4.0,conjunction_syn,syncopated,a,s1,no_rule,time,L4,z,2.6372,5.0,0.0,0.6019,3.0,2.0,Español,0.0,Ingles,8.0,Catalan,22.0,5.0,4.0,yes,no,yes,Flauta,6,Piano,6,,,"Me ha gustado mucho, aunque he tenido diferentes aproximaciones a cada uno de los lenguajes, por ejemplo, el primero lo sobreanalicé y el último lo hice por intuición. También creo que se pierde un poco el spam de atención al final de cada ejercicio y sobretodo en el Lenguaje 4. Desde mi experiencia, sentía que había establecido un ritmo y unas reglas y en las preguntas no escuchaba muchas cosas similares, así que la mayoría de respuestas fueron hechas con incertidumbre.",65.0,yes
92,2023-07-24_13h09.44.769,Unsyncopated1,s9,31.0,feminino,right,españa,español,Bachelor degree,no,no,A,1,what,L2,unsyncopated,s2,r1,92,Online_whatL2//a.go.du11.1110.1998.wav,si,me,to,sil2,go,su,te,sil,du,mi,sil1,['catch'],[2.4886000000014974],[2.4886000000014974],1.998,no_beat,0.4906000000014974,0.4906000000014974,"[""space""]",du,2,testConjL4Syn//r1.s2.0.wav,4.0,conjunction_syn,syncopated,a,s2,rule,rule,L4,m,1.3673,4.0,0.0,0.6392,3.0,2.0,Español,0.0,Ingles,8.0,Catalan,22.0,5.0,4.0,yes,no,yes,Flauta,6,Piano,6,,,"Me ha gustado mucho, aunque he tenido diferentes aproximaciones a cada uno de los lenguajes, por ejemplo, el primero lo sobreanalicé y el último lo hice por intuición. También creo que se pierde un poco el spam de atención al final de cada ejercicio y sobretodo en el Lenguaje 4. Desde mi experiencia, sentía que había establecido un ritmo y unas reglas y en las preguntas no escuchaba muchas cosas similares, así que la mayoría de respuestas fueron hechas con incertidumbre.",65.0,yes
93,2023-07-24_13h09.44.769,Unsyncopated1,s9,31.0,feminino,right,españa,español,Bachelor degree,no,no,A,1,what,L2,unsyncopated,s1,r1,93,Online_whatL2//a.go.du10.0.888.wav,go,to,ño,sil,du,si,ba,sil2,ñu,me,sil1,['miss'],,,0.888,beat,,,,du,2,testConjL4Syn//dep_viol.r1.s1.0.wav,4.0,conjunction_syn,syncopated,a,s1,no_rule,dep,L4,z,1.537,5.0,0.0,0.5532,3.0,2.0,Español,0.0,Ingles,8.0,Catalan,22.0,5.0,4.0,yes,no,yes,Flauta,6,Piano,6,,,"Me ha gustado mucho, aunque he tenido diferentes aproximaciones a cada uno de los lenguajes, por ejemplo, el primero lo sobreanalicé y el último lo hice por intuición. También creo que se pierde un poco el spam de atención al final de cada ejercicio y sobretodo en el Lenguaje 4. Desde mi experiencia, sentía que había establecido un ritmo y unas reglas y en las preguntas no escuchaba muchas cosas similares, así que la mayoría de respuestas fueron hechas con incertidumbre.",65.0,yes
94,2023-07-24_13h09.44.769,Unsyncopated1,s9,31.0,feminino,right,españa,español,Bachelor degree,no,no,A,1,what,L2,unsyncopated,s1,r1,94,Online_whatL2//a.go.du8.0.888.wav,go,su,mi,sil,du,ñu,ño,sil1,to,si,sil2,"['catch', 'false alarm']","[1.51400000000001, 1.9681000000014137]",[1.51400000000001],0.888,beat,0.62600000000001,0.62600000000001,"[""space"",""space""]",du,2,testConjL4Syn//r2.s1.0.wav,4.0,conjunction_syn,syncopated,b,s1,rule,rule,L4,m,0.7194,5.0,0.0,0.7818,3.0,2.0,Español,0.0,Ingles,8.0,Catalan,22.0,5.0,4.0,yes,no,yes,Flauta,6,Piano,6,,,"Me ha gustado mucho, aunque he tenido diferentes aproximaciones a cada uno de los lenguajes, por ejemplo, el primero lo sobreanalicé y el último lo hice por intuición. También creo que se pierde un poco el spam de atención al final de cada ejercicio y sobretodo en el Lenguaje 4. Desde mi experiencia, sentía que había establecido un ritmo y unas reglas y en las preguntas no escuchaba muchas cosas similares, así que la mayoría de respuestas fueron hechas con incertidumbre.",65.0,yes
95,2023-07-24_13h09.44.769,Unsyncopated1,s9,31.0,feminino,right,españa,español,Bachelor degree,no,no,A,1,what,L2,unsyncopated,s1,r2,95,Online_whatL2//a.go.du9.none.none.wav,fe,ba,to,sil2,ra,mi,ño,sil,si,ñu,sil1,['-'],,,none,none,,,,du,2,testConjL4Syn//dep_viol.r2.s2.0.wav,4.0,conjunction_syn,syncopated,b,s2,no_rule,dep,L4,z,0.9858,4.0,0.0,0.7701,3.0,2.0,Español,0.0,Ingles,8.0,Catalan,22.0,5.0,4.0,yes,no,yes,Flauta,6,Piano,6,,,"Me ha gustado mucho, aunque he tenido diferentes aproximaciones a cada uno de los lenguajes, por ejemplo, el primero lo sobreanalicé y el último lo hice por intuición. También creo que se pierde un poco el spam de atención al final de cada ejercicio y sobretodo en el Lenguaje 4. Desde mi experiencia, sentía que había establecido un ritmo y unas reglas y en las preguntas no escuchaba muchas cosas similares, así que la mayoría de respuestas fueron hechas con incertidumbre.",65.0,yes
96,2023-07-24_13h09.44.769,Unsyncopated1,s9,31.0,feminino,right,españa,español,Bachelor degree,no,no,A,1,what,L2,unsyncopated,s1,r1,96,Online_whatL2//d.si.ñu25.none.none.wav,go,te,su,sil,du,to,ba,sil2,cha,mi,sil1,['false alarm'],[0.971399999998539],[0.971399999998539],none,none,,,"[""space""]",si,4,,,,,,,,,,,,,,,3.0,2.0,Español,0.0,Ingles,8.0,Catalan,22.0,5.0,4.0,yes,no,yes,Flauta,6,Piano,6,,,"Me ha gustado mucho, aunque he tenido diferentes aproximaciones a cada uno de los lenguajes, por ejemplo, el primero lo sobreanalicé y el último lo hice por intuición. También creo que se pierde un poco el spam de atención al final de cada ejercicio y sobretodo en el Lenguaje 4. Desde mi experiencia, sentía que había establecido un ritmo y unas reglas y en las preguntas no escuchaba muchas cosas similares, así que la mayoría de respuestas fueron hechas con incertidumbre.",65.0,yes
97,2023-07-24_13h09.44.769,Unsyncopated1,s9,31.0,feminino,right,españa,español,Bachelor degree,no,no,A,1,what,L2,unsyncopated,s1,r2,97,Online_whatL2//d.si.ñu24.none.none.wav,fe,ba,cha,sil2,ra,to,mi,sil,te,bi,sil1,['-'],,,none,none,,,,si,4,,,,,,,,,,,,,,,3.0,2.0,Español,0.0,Ingles,8.0,Catalan,22.0,5.0,4.0,yes,no,yes,Flauta,6,Piano,6,,,"Me ha gustado mucho, aunque he tenido diferentes aproximaciones a cada uno de los lenguajes, por ejemplo, el primero lo sobreanalicé y el último lo hice por intuición. También creo que se pierde un poco el spam de atención al final de cada ejercicio y sobretodo en el Lenguaje 4. Desde mi experiencia, sentía que había establecido un ritmo y unas reglas y en las preguntas no escuchaba muchas cosas similares, así que la mayoría de respuestas fueron hechas con incertidumbre.",65.0,yes
98,2023-07-24_13h09.44.769,Unsyncopated1,s9,31.0,feminino,right,españa,español,Bachelor degree,no,no,A,1,what,L2,unsyncopated,s2,r2,98,Online_whatL2//d.si.ñu27.none.none.wav,su,te,bi,sil,fe,cha,ño,sil2,ra,ba,sil1,['-'],,,none,none,,,,si,4,,,,,,,,,,,,,,,3.0,2.0,Español,0.0,Ingles,8.0,Catalan,22.0,5.0,4.0,yes,no,yes,Flauta,6,Piano,6,,,"Me ha gustado mucho, aunque he tenido diferentes aproximaciones a cada uno de los lenguajes, por ejemplo, el primero lo sobreanalicé y el último lo hice por intuición. También creo que se pierde un poco el spam de atención al final de cada ejercicio y sobretodo en el Lenguaje 4. Desde mi experiencia, sentía que había establecido un ritmo y unas reglas y en las preguntas no escuchaba muchas cosas similares, así que la mayoría de respuestas fueron hechas con incertidumbre.",65.0,yes
99,2023-07-24_13h09.44.769,Unsyncopated1,s9,31.0,feminino,right,españa,español,Bachelor degree,no,no,A,1,what,L2,unsyncopated,s2,r1,99,Online_whatL2//d.si.ñu26.none.none.wav,mi,cha,te,sil,go,ño,su,sil2,du,me,sil1,['-'],,,none,none,,,,si,4,,,,,,,,,,,,,,,3.0,2.0,Español,0.0,Ingles,8.0,Catalan,22.0,5.0,4.0,yes,no,yes,Flauta,6,Piano,6,,,"Me ha gustado mucho, aunque he tenido diferentes aproximaciones a cada uno de los lenguajes, por ejemplo, el primero lo sobreanalicé y el último lo hice por intuición. También creo que se pierde un poco el spam de atención al final de cada ejercicio y sobretodo en el Lenguaje 4. Desde mi experiencia, sentía que había establecido un ritmo y unas reglas y en las preguntas no escuchaba muchas cosas similares, así que la mayoría de respuestas fueron hechas con incertidumbre.",65.0,yes
100,2023-07-24_13h09.44.769,Unsyncopated1,s9,31.0,feminino,right,españa,español,Bachelor degree,no,no,A,1,what,L2,unsyncopated,s2,r1,100,Online_whatL2//d.si.ñu17.0.444.wav,si,me,ñu,sil,go,mi,cha,sil2,du,bi,sil1,['catch'],[0.45699999999999363],[0.45699999999999363],0.0,beat,0.4569999999999936,0.4569999999999936,"[""space""]",si,4,,,,,,,,,,,,,,,3.0,2.0,Español,0.0,Ingles,8.0,Catalan,22.0,5.0,4.0,yes,no,yes,Flauta,6,Piano,6,,,"Me ha gustado mucho, aunque he tenido diferentes aproximaciones a cada uno de los lenguajes, por ejemplo, el primero lo sobreanalicé y el último lo hice por intuición. También creo que se pierde un poco el spam de atención al final de cada ejercicio y sobretodo en el Lenguaje 4. Desde mi experiencia, sentía que había establecido un ritmo y unas reglas y en las preguntas no escuchaba muchas cosas similares, así que la mayoría de respuestas fueron hechas con incertidumbre.",65.0,yes
101,2023-07-24_13h09.44.769,Unsyncopated1,s9,31.0,feminino,right,españa,español,Bachelor degree,no,no,A,1,what,L2,unsyncopated,s2,r1,101,Online_whatL2//d.si.ñu19.1110.0.wav,ñu,mi,me,sil,go,si,su,sil2,du,cha,sil1,['catch'],[1.9935999999978549],[1.9935999999978549],1.11,no_beat,0.8835999999978548,0.8835999999978548,"[""space""]",si,4,,,,,,,,,,,,,,,3.0,2.0,Español,0.0,Ingles,8.0,Catalan,22.0,5.0,4.0,yes,no,yes,Flauta,6,Piano,6,,,"Me ha gustado mucho, aunque he tenido diferentes aproximaciones a cada uno de los lenguajes, por ejemplo, el primero lo sobreanalicé y el último lo hice por intuición. También creo que se pierde un poco el spam de atención al final de cada ejercicio y sobretodo en el Lenguaje 4. Desde mi experiencia, sentía que había establecido un ritmo y unas reglas y en las preguntas no escuchaba muchas cosas similares, así que la mayoría de respuestas fueron hechas con incertidumbre.",65.0,yes
102,2023-07-24_13h09.44.769,Unsyncopated1,s9,31.0,feminino,right,españa,español,Bachelor degree,no,no,A,1,what,L2,unsyncopated,s2,r1,102,Online_whatL2//d.si.ñu18.222.444.wav,su,si,ñu,sil,go,te,me,sil2,du,ba,sil1,['catch'],[1.2100000000000364],[1.2100000000000364],0.222,no_beat,0.9880000000000364,0.9880000000000364,"[""space""]",si,4,,,,,,,,,,,,,,,3.0,2.0,Español,0.0,Ingles,8.0,Catalan,22.0,5.0,4.0,yes,no,yes,Flauta,6,Piano,6,,,"Me ha gustado mucho, aunque he tenido diferentes aproximaciones a cada uno de los lenguajes, por ejemplo, el primero lo sobreanalicé y el último lo hice por intuición. También creo que se pierde un poco el spam de atención al final de cada ejercicio y sobretodo en el Lenguaje 4. Desde mi experiencia, sentía que había establecido un ritmo y unas reglas y en las preguntas no escuchaba muchas cosas similares, así que la mayoría de respuestas fueron hechas con incertidumbre.",65.0,yes
