Unnamed: 0,date,expName,participant,age,sex,hand,residence,native_lang,education_level,lang_deficit,aud_deficit,group,block,condition,language,rhythm,rule structure online,rule type online,order_trial_on,trial_online,s1,s2,s3,s4,s5,s6,s7,s8,s9,s10,s11,catch_syll_resp,rts_syll_catch,clean_rts,time_syll,beat_no_beat,catch_rtsTR,catch_rts,syllable_catch.keys,cond_syll,syll_to_catch,test_offline,block_off,condition_off,rhythm_off,rule,rule_str_off,rule_norule,conds_offline,language_off,Partz_no_partm.keys,Partz_no_partm.rt,security_1_7.keys,accuracy,security_1_7.rt,n_lang,n_lang_used,lang_1,age_l1,lang_2,age_l2,ability_learn_l2,tendence_mix_lan,music_experience,muisc_use,partiture,instr_1,age_M1,instr_2,age_M2,instr_3,age_M3,instr_4,age_M4,preguntas_musica1,BMRQ_answer.response,final comment,BMRQ_Score,bilingual
0,2023-10-01_18h53.04.363,Unsyncopated1,s26,27.0,feminino,right,ESPAÑA,CASTELLANO Y CATALÁN,Bachelor degree,no,no,B,1,what,L2,unsyncopated,s1,r1,0,Online_whatL2//d.si.ñu16.222.1332.wav,go,si,ba,sil2,du,ñu,te,sil,me,ño,sil1,['miss'],,,1.332,no_beat,,,,ñu,4,testWhatL2Uns//time_viol.r1.s2.0.wav,1.0,what,unsyncopated,a,s2,no_rule,time,L2,z,2.0436,6.0,0.0,18.2555,2.0,3.0,CASTELLANO,0.0,CATALÁN,0.0,3.0,4.0,yes,no,no,PIANO,6,GUITARRA,6,CANTO,6,FLAUTA,6.0,1. Cuando comparto música con alguien siento una complicidad especial con aquella persona.,3.0,Ya lo hiceeee wii,67.0,yes
1,2023-10-01_18h53.04.363,Unsyncopated1,s26,27.0,feminino,right,ESPAÑA,CASTELLANO Y CATALÁN,Bachelor degree,no,no,B,1,what,L2,unsyncopated,s2,r1,1,Online_whatL2//d.si.ñu17.0.444.wav,si,me,ñu,sil,go,mi,cha,sil2,du,bi,sil1,['miss'],,,0.444,no_beat,,,,ñu,4,testWhatL2Uns//r2.s1.0.wav,1.0,what,unsyncopated,b,s1,rule,rule,L2,z,0.9155,6.0,1.0,1.8651,2.0,3.0,CASTELLANO,0.0,CATALÁN,0.0,3.0,4.0,yes,no,no,PIANO,6,GUITARRA,6,CANTO,6,FLAUTA,6.0,2. En mi tiempo libre apenas escucho música.,4.0,Ya lo hiceeee wii,67.0,yes
2,2023-10-01_18h53.04.363,Unsyncopated1,s26,27.0,feminino,right,ESPAÑA,CASTELLANO Y CATALÁN,Bachelor degree,no,no,B,1,what,L2,unsyncopated,s2,r1,2,Online_whatL2//d.si.ñu19.1110.0.wav,ñu,mi,me,sil,go,si,su,sil2,du,cha,sil1,['miss'],,,0.0,beat,,,,ñu,4,testWhatL2Uns//dep_viol.r1.s1.0.wav,1.0,what,unsyncopated,a,s1,no_rule,dep,L2,z,0.6493,6.0,0.0,2.9593,2.0,3.0,CASTELLANO,0.0,CATALÁN,0.0,3.0,4.0,yes,no,no,PIANO,6,GUITARRA,6,CANTO,6,FLAUTA,6.0,3. Algunas canciones me ponen los pelos de punta,4.0,Ya lo hiceeee wii,67.0,yes
3,2023-10-01_18h53.04.363,Unsyncopated1,s26,27.0,feminino,right,ESPAÑA,CASTELLANO Y CATALÁN,Bachelor degree,no,no,B,1,what,L2,unsyncopated,s2,r1,3,Online_whatL2//d.si.ñu18.222.444.wav,su,si,ñu,sil,go,te,me,sil2,du,ba,sil1,['catch'],[1.490800000011859],[1.490800000011859],0.444,no_beat,1.0468000000118591,1.0468000000118591,"[""space""]",ñu,4,testWhatL2Uns//r1.s1.0.wav,1.0,what,unsyncopated,a,s1,rule,rule,L2,z,0.9342,6.0,1.0,2.2951,2.0,3.0,CASTELLANO,0.0,CATALÁN,0.0,3.0,4.0,yes,no,no,PIANO,6,GUITARRA,6,CANTO,6,FLAUTA,6.0,4. La música me hace compañía cuando estoy solo,2.0,Ya lo hiceeee wii,67.0,yes
4,2023-10-01_18h53.04.363,Unsyncopated1,s26,27.0,feminino,right,ESPAÑA,CASTELLANO Y CATALÁN,Bachelor degree,no,no,B,1,what,L2,unsyncopated,s1,r2,4,Online_whatL2//c.cha.me0.1998.222.wav,fe,me,ño,sil,ra,su,si,sil2,cha,mi,sil1,['miss'],,,0.222,no_beat,,,,me,3,testWhatL2Uns//r1.s2.0.wav,1.0,what,unsyncopated,a,s2,rule,rule,L2,z,2.2613,6.0,1.0,1.0967,2.0,3.0,CASTELLANO,0.0,CATALÁN,0.0,3.0,4.0,yes,no,no,PIANO,6,GUITARRA,6,CANTO,6,FLAUTA,6.0,5. No me apetece bailar ni con la música que más me gusta,5.0,Ya lo hiceeee wii,67.0,yes
5,2023-10-01_18h53.04.363,Unsyncopated1,s26,27.0,feminino,right,ESPAÑA,CASTELLANO Y CATALÁN,Bachelor degree,no,no,B,1,what,L2,unsyncopated,s1,r1,5,Online_whatL2//c.cha.me3.1332.444.wav,go,to,me,sil,du,si,cha,sil2,ño,te,sil1,['false alarm'],[0.1434999999999036],[0.1434999999999036],0.444,no_beat,,,"[""space""]",me,3,testWhatL2Uns//r2.s2.1.wav,1.0,what,unsyncopated,b,s2,rule,rule,L2,z,1.9143,6.0,1.0,0.4829,2.0,3.0,CASTELLANO,0.0,CATALÁN,0.0,3.0,4.0,yes,no,no,PIANO,6,GUITARRA,6,CANTO,6,FLAUTA,6.0,6. La música me hace conectar con la gente,3.0,Ya lo hiceeee wii,67.0,yes
6,2023-10-01_18h53.04.363,Unsyncopated1,s26,27.0,feminino,right,ESPAÑA,CASTELLANO Y CATALÁN,Bachelor degree,no,no,B,1,what,L2,unsyncopated,s2,r2,6,Online_whatL2//c.cha.me1.1110.0.wav,me,mi,ba,sil,fe,cha,su,sil2,ra,ñu,sil1,['miss'],,,0.0,beat,,,,me,3,testWhatL2Uns//r1.s1.1.wav,1.0,what,unsyncopated,a,s1,rule,rule,L2,m,2.196,4.0,0.0,2.312,2.0,3.0,CASTELLANO,0.0,CATALÁN,0.0,3.0,4.0,yes,no,no,PIANO,6,GUITARRA,6,CANTO,6,FLAUTA,6.0,7. Me informo sobre la música que me gusta.,3.0,Ya lo hiceeee wii,67.0,yes
7,2023-10-01_18h53.04.363,Unsyncopated1,s26,27.0,feminino,right,ESPAÑA,CASTELLANO Y CATALÁN,Bachelor degree,no,no,B,1,what,L2,unsyncopated,s1,r1,7,Online_whatL2//c.cha.me2.none.none.wav,go,ba,si,sil2,du,mi,ñu,sil,bi,ño,sil1,['-'],,,none,none,,,,me,3,testWhatL2Uns//time_viol.r2.s1.0.wav,1.0,what,unsyncopated,b,s1,no_rule,time,L2,z,1.5477,6.0,0.0,1.9964,2.0,3.0,CASTELLANO,0.0,CATALÁN,0.0,3.0,4.0,yes,no,no,PIANO,6,GUITARRA,6,CANTO,6,FLAUTA,6.0,8.Me emociono escuchando ciertas canciones.,4.0,Ya lo hiceeee wii,67.0,yes
8,2023-10-01_18h53.04.363,Unsyncopated1,s26,27.0,feminino,right,ESPAÑA,CASTELLANO Y CATALÁN,Bachelor degree,no,no,B,1,what,L2,unsyncopated,s2,r2,8,Online_whatL2//d.si.ñu3.0.444.wav,si,ba,ñu,sil2,fe,te,cha,sil,ra,ño,sil1,['false alarm'],[0.09100000000000819],[0.09100000000000819],0.444,no_beat,,,"[""space""]",ñu,4,testWhatL2Uns//dep_viol.r2.s2.0.wav,1.0,what,unsyncopated,b,s2,no_rule,dep,L2,z,3.2088,6.0,0.0,1.7127,2.0,3.0,CASTELLANO,0.0,CATALÁN,0.0,3.0,4.0,yes,no,no,PIANO,6,GUITARRA,6,CANTO,6,FLAUTA,6.0,9.La música me tranquiliza y me relaja.,4.0,Ya lo hiceeee wii,67.0,yes
9,2023-10-01_18h53.04.363,Unsyncopated1,s26,27.0,feminino,right,ESPAÑA,CASTELLANO Y CATALÁN,Bachelor degree,no,no,B,1,what,L2,unsyncopated,s2,r1,9,Online_whatL2//d.si.ñu0.0.444.wav,si,mi,ñu,sil,go,ba,te,sil2,du,to,sil1,['catch'],[0.9585999999642354],[0.9585999999642354],0.444,no_beat,0.5145999999642354,0.5145999999642354,"[""space""]",ñu,4,testWhatL2Uns//r2.s2.2.wav,1.0,what,unsyncopated,b,s2,rule,rule,L2,m,0.6164,4.0,0.0,0.982,2.0,3.0,CASTELLANO,0.0,CATALÁN,0.0,3.0,4.0,yes,no,no,PIANO,6,GUITARRA,6,CANTO,6,FLAUTA,6.0,10.La música me hace bailar,4.0,Ya lo hiceeee wii,67.0,yes
10,2023-10-01_18h53.04.363,Unsyncopated1,s26,27.0,feminino,right,ESPAÑA,CASTELLANO Y CATALÁN,Bachelor degree,no,no,B,1,what,L2,unsyncopated,s2,r1,10,Online_whatL2//d.si.ñu2.none.none.wav,mi,ño,ba,sil,go,te,cha,sil1,du,su,sil2,['false alarm'],[1.0623000000119873],[1.0623000000119873],none,none,,,"[""space""]",ñu,4,testWhatL2Uns//dep_viol.r2.s1.0.wav,1.0,what,unsyncopated,b,s1,no_rule,dep,L2,m,0.9327,4.0,1.0,1.5475,2.0,3.0,CASTELLANO,0.0,CATALÁN,0.0,3.0,4.0,yes,no,no,PIANO,6,GUITARRA,6,CANTO,6,FLAUTA,6.0,11.Busco novedades musicales continuamente,3.0,Ya lo hiceeee wii,67.0,yes
11,2023-10-01_18h53.04.363,Unsyncopated1,s26,27.0,feminino,right,ESPAÑA,CASTELLANO Y CATALÁN,Bachelor degree,no,no,B,1,what,L2,unsyncopated,s2,r2,11,Online_whatL2//d.si.ñu1.none.none.wav,te,ño,bi,sil,fe,cha,to,sil1,ra,mi,sil2,['-'],,,none,none,,,,ñu,4,testWhatL2Uns//time_viol.r1.s1.0.wav,1.0,what,unsyncopated,a,s1,no_rule,time,L2,m,0.4491,4.0,1.0,1.5146,2.0,3.0,CASTELLANO,0.0,CATALÁN,0.0,3.0,4.0,yes,no,no,PIANO,6,GUITARRA,6,CANTO,6,FLAUTA,6.0,12. Puedo llorar cuando escucho algunas melodías que me gustan mucho.,3.0,Ya lo hiceeee wii,67.0,yes
12,2023-10-01_18h53.04.363,Unsyncopated1,s26,27.0,feminino,right,ESPAÑA,CASTELLANO Y CATALÁN,Bachelor degree,no,no,B,1,what,L2,unsyncopated,s1,r1,12,Online_whatL2//b.fe.ra13.none.none.wav,go,mi,te,sil2,du,to,si,sil,ñu,me,sil1,['-'],,,none,none,,,,ra,2,testWhatL2Uns//r1.s2.2.wav,1.0,what,unsyncopated,a,s2,rule,rule,L2,m,1.4648,5.0,0.0,1.4653,2.0,3.0,CASTELLANO,0.0,CATALÁN,0.0,3.0,4.0,yes,no,no,PIANO,6,GUITARRA,6,CANTO,6,FLAUTA,6.0,13. Me gusta cantar o tocar un instrumento con más gente,2.0,Ya lo hiceeee wii,67.0,yes
13,2023-10-01_18h53.04.363,Unsyncopated1,s26,27.0,feminino,right,ESPAÑA,CASTELLANO Y CATALÁN,Bachelor degree,no,no,B,1,what,L2,unsyncopated,s1,r1,13,Online_whatL2//b.fe.ra14.none.none.wav,go,bi,su,sil,du,me,te,sil2,to,cha,sil1,['-'],,,none,none,,,,ra,2,testWhatL2Uns//cat_viol.r1.s2.0.wav,1.0,what,unsyncopated,a,s2,no_rule,cat,L2,m,0.732,5.0,1.0,4.5045,2.0,3.0,CASTELLANO,0.0,CATALÁN,0.0,3.0,4.0,yes,no,no,PIANO,6,GUITARRA,6,CANTO,6,FLAUTA,6.0,14. La música me ayuda a desconectar.,3.0,Ya lo hiceeee wii,67.0,yes
14,2023-10-01_18h53.04.363,Unsyncopated1,s26,27.0,feminino,right,ESPAÑA,CASTELLANO Y CATALÁN,Bachelor degree,no,no,B,1,what,L2,unsyncopated,s2,r1,14,Online_whatL2//b.fe.ra12.none.none.wav,te,mi,ñu,sil,go,bi,to,sil2,du,cha,sil1,['-'],,,none,none,,,,ra,2,testWhatL2Uns//r2.s1.1.wav,1.0,what,unsyncopated,b,s1,rule,rule,L2,m,0.9134,4.0,0.0,1.0989,2.0,3.0,CASTELLANO,0.0,CATALÁN,0.0,3.0,4.0,yes,no,no,PIANO,6,GUITARRA,6,CANTO,6,FLAUTA,6.0,15. No puedo evitar tararear las canciones que me gustan cuando las escucho.,4.0,Ya lo hiceeee wii,67.0,yes
15,2023-10-01_18h53.04.363,Unsyncopated1,s26,27.0,feminino,right,ESPAÑA,CASTELLANO Y CATALÁN,Bachelor degree,no,no,B,1,what,L2,unsyncopated,s2,r2,15,Online_whatL2//b.fe.ra15.888.1998.wav,to,ñu,cha,sil,fe,me,ba,sil2,ra,si,sil1,['catch_delay'],[0.6886999999880492],[0.6886999999880492],1.998,no_beat,0.6886999999880492,0.6886999999880492,,ra,2,testWhatL2Uns//cat_viol.r1.s1.0.wav,1.0,what,unsyncopated,a,s1,no_rule,cat,L2,z,0.749,5.0,0.0,1.2496,2.0,3.0,CASTELLANO,0.0,CATALÁN,0.0,3.0,4.0,yes,no,no,PIANO,6,GUITARRA,6,CANTO,6,FLAUTA,6.0,16. En los conciertos me siento en sintonía con los artistas y el público.,4.0,Ya lo hiceeee wii,67.0,yes
16,2023-10-01_18h53.04.363,Unsyncopated1,s26,27.0,feminino,right,ESPAÑA,CASTELLANO Y CATALÁN,Bachelor degree,no,no,B,1,what,L2,unsyncopated,s1,r2,16,Online_whatL2//c.cha.me20.444.1332.wav,fe,si,cha,sil,ra,bi,me,sil2,ño,mi,sil1,['catch'],"[0.022699999988049058, 2.1654000000357883]",[2.1654000000357883],1.332,no_beat,0.8334000000357882,0.8334000000357882,"[""space"",""space""]",me,3,testWhatL2Uns//r1.s1.2.wav,1.0,what,unsyncopated,a,s1,rule,rule,L2,m,0.5991,5.0,0.0,2.1123,2.0,3.0,CASTELLANO,0.0,CATALÁN,0.0,3.0,4.0,yes,no,no,PIANO,6,GUITARRA,6,CANTO,6,FLAUTA,6.0,17. Me gasto bastante dinero en música y cosas relacionadas con la música.,2.0,Ya lo hiceeee wii,67.0,yes
17,2023-10-01_18h53.04.363,Unsyncopated1,s26,27.0,feminino,right,ESPAÑA,CASTELLANO Y CATALÁN,Bachelor degree,no,no,B,1,what,L2,unsyncopated,s2,r1,17,Online_whatL2//c.cha.me22.0.1110.wav,cha,to,su,sil,go,me,ño,sil1,du,ba,sil2,['miss'],,,1.11,no_beat,,,,me,3,testWhatL2Uns//cat_viol.r2.s1.0.wav,1.0,what,unsyncopated,b,s1,no_rule,cat,L2,z,0.7657,6.0,0.0,0.7804,2.0,3.0,CASTELLANO,0.0,CATALÁN,0.0,3.0,4.0,yes,no,no,PIANO,6,GUITARRA,6,CANTO,6,FLAUTA,6.0,18. Siento escalofríos cuando escucho una melodía que me gusta.,3.0,Ya lo hiceeee wii,67.0,yes
18,2023-10-01_18h53.04.363,Unsyncopated1,s26,27.0,feminino,right,ESPAÑA,CASTELLANO Y CATALÁN,Bachelor degree,no,no,B,1,what,L2,unsyncopated,s2,r2,18,Online_whatL2//c.cha.me23.none.none.wav,si,ñu,te,sil,fe,ba,su,sil2,ra,to,sil1,['-'],,,none,none,,,,me,3,testWhatL2Uns//cat_viol.r2.s2.0.wav,1.0,what,unsyncopated,b,s2,no_rule,cat,L2,m,0.749,6.0,1.0,0.6495,2.0,3.0,CASTELLANO,0.0,CATALÁN,0.0,3.0,4.0,yes,no,no,PIANO,6,GUITARRA,6,CANTO,6,FLAUTA,6.0,19. Con la música me puedo desahogar.,3.0,Ya lo hiceeee wii,67.0,yes
19,2023-10-01_18h53.04.363,Unsyncopated1,s26,27.0,feminino,right,ESPAÑA,CASTELLANO Y CATALÁN,Bachelor degree,no,no,B,1,what,L2,unsyncopated,s1,r1,19,Online_whatL2//c.cha.me21.none.none.wav,go,mi,bi,sil,du,si,su,sil2,te,ba,sil1,['-'],,,none,none,,,,me,3,testWhatL2Uns//time_viol.r2.s2.0.wav,1.0,what,unsyncopated,b,s2,no_rule,time,L2,z,0.6985,6.0,0.0,0.6829,2.0,3.0,CASTELLANO,0.0,CATALÁN,0.0,3.0,4.0,yes,no,no,PIANO,6,GUITARRA,6,CANTO,6,FLAUTA,6.0,20. Cuando escucho una melodía que me gusta mucho no puedo evitar mover el cuerpo.,4.0,Ya lo hiceeee wii,67.0,yes
20,2023-10-01_18h53.04.363,Unsyncopated1,s26,27.0,feminino,right,ESPAÑA,CASTELLANO Y CATALÁN,Bachelor degree,no,no,B,1,what,L2,unsyncopated,s1,r2,20,Online_whatL2//a.go.du1.none.none.wav,fe,cha,me,sil2,ra,to,ñu,sil,ño,mi,sil1,['-'],,,none,none,,,,go,1,testWhatL2Uns//r2.s1.2.wav,1.0,what,unsyncopated,b,s1,rule,rule,L2,m,0.3329,5.0,0.0,1.2805,2.0,3.0,CASTELLANO,0.0,CATALÁN,0.0,3.0,4.0,yes,no,no,PIANO,6,GUITARRA,6,CANTO,6,FLAUTA,6.0,,,Ya lo hiceeee wii,67.0,yes
21,2023-10-01_18h53.04.363,Unsyncopated1,s26,27.0,feminino,right,ESPAÑA,CASTELLANO Y CATALÁN,Bachelor degree,no,no,B,1,what,L2,unsyncopated,s1,r2,21,Online_whatL2//a.go.du0.none.none.wav,fe,ñu,to,sil2,ra,ño,su,sil,ba,bi,sil1,['-'],,,none,none,,,,go,1,testWhatL2Uns//r2.s2.0.wav,1.0,what,unsyncopated,b,s2,rule,rule,L2,z,1.3985,6.0,1.0,1.0655,2.0,3.0,CASTELLANO,0.0,CATALÁN,0.0,3.0,4.0,yes,no,no,PIANO,6,GUITARRA,6,CANTO,6,FLAUTA,6.0,,,Ya lo hiceeee wii,67.0,yes
22,2023-10-01_18h53.04.363,Unsyncopated1,s26,27.0,feminino,right,ESPAÑA,CASTELLANO Y CATALÁN,Bachelor degree,no,no,B,1,what,L2,unsyncopated,s1,r1,22,Online_whatL2//a.go.du3.0.888.wav,go,te,me,sil,du,mi,cha,sil2,ba,ño,sil1,['miss'],,,0.0,beat,,,,go,1,testWhatL2Uns//r1.s2.1.wav,1.0,what,unsyncopated,a,s2,rule,rule,L2,z,2.5951,4.0,1.0,0.8992,2.0,3.0,CASTELLANO,0.0,CATALÁN,0.0,3.0,4.0,yes,no,no,PIANO,6,GUITARRA,6,CANTO,6,FLAUTA,6.0,,,Ya lo hiceeee wii,67.0,yes
23,2023-10-01_18h53.04.363,Unsyncopated1,s26,27.0,feminino,right,ESPAÑA,CASTELLANO Y CATALÁN,Bachelor degree,no,no,B,1,what,L2,unsyncopated,s2,r1,23,Online_whatL2//a.go.du2.1110.1998.wav,te,bi,ñu,sil2,go,cha,mi,sil,du,to,sil1,['miss'],,,1.11,no_beat,,,,go,1,testWhatL2Uns//dep_viol.r1.s2.0.wav,1.0,what,unsyncopated,a,s2,no_rule,dep,L2,m,0.8164,4.0,1.0,0.9002,2.0,3.0,CASTELLANO,0.0,CATALÁN,0.0,3.0,4.0,yes,no,no,PIANO,6,GUITARRA,6,CANTO,6,FLAUTA,6.0,,,Ya lo hiceeee wii,67.0,yes
24,2023-10-01_18h53.04.363,Unsyncopated1,s26,27.0,feminino,right,ESPAÑA,CASTELLANO Y CATALÁN,Bachelor degree,no,no,B,1,what,L2,unsyncopated,s2,r1,24,Online_whatL2//a.go.du6.888.1776.wav,bi,su,cha,sil,go,te,ñu,sil1,du,me,sil2,['miss'],,,0.888,beat,,,,go,1,testConjL1Uns//cat_viol.r2.s1.0.wav,2.0,conjunction_un,unsyncopated,b,s1,no_rule,cat,L1,z,3.5286,5.0,0.0,1.1237,2.0,3.0,CASTELLANO,0.0,CATALÁN,0.0,3.0,4.0,yes,no,no,PIANO,6,GUITARRA,6,CANTO,6,FLAUTA,6.0,,,Ya lo hiceeee wii,67.0,yes
25,2023-10-01_18h53.04.363,Unsyncopated1,s26,27.0,feminino,right,ESPAÑA,CASTELLANO Y CATALÁN,Bachelor degree,no,no,B,1,what,L2,unsyncopated,s1,r2,25,Online_whatL2//a.go.du5.none.none.wav,fe,su,bi,sil,ra,te,to,sil1,ño,ñu,sil2,['-'],,,none,none,,,,go,1,testConjL1Uns//r1.s1.0.wav,2.0,conjunction_un,unsyncopated,a,s1,rule,rule,L1,m,1.2318,6.0,0.0,0.6998,2.0,3.0,CASTELLANO,0.0,CATALÁN,0.0,3.0,4.0,yes,no,no,PIANO,6,GUITARRA,6,CANTO,6,FLAUTA,6.0,,,Ya lo hiceeee wii,67.0,yes
26,2023-10-01_18h53.04.363,Unsyncopated1,s26,27.0,feminino,right,ESPAÑA,CASTELLANO Y CATALÁN,Bachelor degree,no,no,B,1,what,L2,unsyncopated,s2,r2,26,Online_whatL2//a.go.du4.none.none.wav,te,mi,cha,sil,fe,bi,ñu,sil1,ra,ba,sil2,['-'],,,none,none,,,,go,1,testConjL1Uns//r1.s2.1.wav,2.0,conjunction_un,unsyncopated,a,s2,rule,rule,L1,z,1.0796,6.0,1.0,0.1352,2.0,3.0,CASTELLANO,0.0,CATALÁN,0.0,3.0,4.0,yes,no,no,PIANO,6,GUITARRA,6,CANTO,6,FLAUTA,6.0,,,Ya lo hiceeee wii,67.0,yes
27,2023-10-01_18h53.04.363,Unsyncopated1,s26,27.0,feminino,right,ESPAÑA,CASTELLANO Y CATALÁN,Bachelor degree,no,no,B,1,what,L2,unsyncopated,s1,r2,27,Online_whatL2//a.go.du7.none.none.wav,fe,ñu,me,sil,ra,cha,to,sil1,si,su,sil2,['-'],,,none,none,,,,go,1,testConjL1Uns//time_viol.r1.s2.0.wav,2.0,conjunction_un,unsyncopated,a,s2,no_rule,time,L1,m,2.1341,4.0,1.0,2.6748,2.0,3.0,CASTELLANO,0.0,CATALÁN,0.0,3.0,4.0,yes,no,no,PIANO,6,GUITARRA,6,CANTO,6,FLAUTA,6.0,,,Ya lo hiceeee wii,67.0,yes
28,2023-10-01_18h53.04.363,Unsyncopated1,s26,27.0,feminino,right,ESPAÑA,CASTELLANO Y CATALÁN,Bachelor degree,no,no,B,1,what,L2,unsyncopated,s2,r2,28,Online_whatL2//d.si.ñu13.444.0.wav,ñu,te,si,sil,fe,bi,cha,sil1,ra,ba,sil2,['catch'],[0.7035999999642399],[0.7035999999642399],0.0,beat,0.7035999999642399,0.7035999999642399,"[""space""]",ñu,4,testConjL1Uns//dep_viol.r1.s1.0.wav,2.0,conjunction_un,unsyncopated,a,s1,no_rule,dep,L1,m,1.8144,4.0,1.0,0.9837,2.0,3.0,CASTELLANO,0.0,CATALÁN,0.0,3.0,4.0,yes,no,no,PIANO,6,GUITARRA,6,CANTO,6,FLAUTA,6.0,,,Ya lo hiceeee wii,67.0,yes
29,2023-10-01_18h53.04.363,Unsyncopated1,s26,27.0,feminino,right,ESPAÑA,CASTELLANO Y CATALÁN,Bachelor degree,no,no,B,1,what,L2,unsyncopated,s1,r2,29,Online_whatL2//d.si.ñu14.none.none.wav,fe,te,cha,sil,ra,mi,ba,sil1,bi,ño,sil2,['-'],,,none,none,,,,ñu,4,testConjL1Uns//time_viol.r1.s1.0.wav,2.0,conjunction_un,unsyncopated,a,s1,no_rule,time,L1,m,2.4493,4.0,1.0,1.1622,2.0,3.0,CASTELLANO,0.0,CATALÁN,0.0,3.0,4.0,yes,no,no,PIANO,6,GUITARRA,6,CANTO,6,FLAUTA,6.0,,,Ya lo hiceeee wii,67.0,yes
30,2023-10-01_18h53.04.363,Unsyncopated1,s26,27.0,feminino,right,ESPAÑA,CASTELLANO Y CATALÁN,Bachelor degree,no,no,B,1,what,L2,unsyncopated,s1,r1,30,Online_whatL2//d.si.ñu12.222.444.wav,go,si,ñu,sil,du,ba,me,sil1,bi,to,sil2,['miss'],,,0.444,no_beat,,,,ñu,4,testConjL1Uns//r2.s2.0.wav,2.0,conjunction_un,unsyncopated,b,s2,rule,rule,L1,z,0.5653,5.0,1.0,2.6783,2.0,3.0,CASTELLANO,0.0,CATALÁN,0.0,3.0,4.0,yes,no,no,PIANO,6,GUITARRA,6,CANTO,6,FLAUTA,6.0,,,Ya lo hiceeee wii,67.0,yes
31,2023-10-01_18h53.04.363,Unsyncopated1,s26,27.0,feminino,right,ESPAÑA,CASTELLANO Y CATALÁN,Bachelor degree,no,no,B,1,what,L2,unsyncopated,s2,r2,31,Online_whatL2//d.si.ñu15.none.none.wav,su,te,mi,sil2,fe,ño,bi,sil,ra,cha,sil1,['-'],,,none,none,,,,ñu,4,testConjL1Uns//r2.s2.1.wav,2.0,conjunction_un,unsyncopated,b,s2,rule,rule,L1,m,0.5328,5.0,0.0,1.0334,2.0,3.0,CASTELLANO,0.0,CATALÁN,0.0,3.0,4.0,yes,no,no,PIANO,6,GUITARRA,6,CANTO,6,FLAUTA,6.0,,,Ya lo hiceeee wii,67.0,yes
32,2023-10-01_18h53.04.363,Unsyncopated1,s26,27.0,feminino,right,ESPAÑA,CASTELLANO Y CATALÁN,Bachelor degree,no,no,B,1,what,L2,unsyncopated,s2,r2,32,Online_whatL2//b.fe.ra29.1110.1998.wav,ñu,si,cha,sil2,fe,ba,ño,sil,ra,me,sil1,['miss'],,,1.998,no_beat,,,,ra,2,testConjL1Uns//cat_viol.r1.s2.0.wav,2.0,conjunction_un,unsyncopated,a,s2,no_rule,cat,L1,z,1.4805,5.0,0.0,1.0369,2.0,3.0,CASTELLANO,0.0,CATALÁN,0.0,3.0,4.0,yes,no,no,PIANO,6,GUITARRA,6,CANTO,6,FLAUTA,6.0,,,Ya lo hiceeee wii,67.0,yes
33,2023-10-01_18h53.04.363,Unsyncopated1,s26,27.0,feminino,right,ESPAÑA,CASTELLANO Y CATALÁN,Bachelor degree,no,no,B,1,what,L2,unsyncopated,s2,r1,33,Online_whatL2//b.fe.ra30.none.none.wav,si,cha,bi,sil,go,ba,to,sil1,du,me,sil2,['-'],,,none,none,,,,ra,2,testConjL1Uns//dep_viol.r2.s2.0.wav,2.0,conjunction_un,unsyncopated,b,s2,no_rule,dep,L1,m,2.9778,5.0,1.0,1.8323,2.0,3.0,CASTELLANO,0.0,CATALÁN,0.0,3.0,4.0,yes,no,no,PIANO,6,GUITARRA,6,CANTO,6,FLAUTA,6.0,,,Ya lo hiceeee wii,67.0,yes
34,2023-10-01_18h53.04.363,Unsyncopated1,s26,27.0,feminino,right,ESPAÑA,CASTELLANO Y CATALÁN,Bachelor degree,no,no,B,1,what,L2,unsyncopated,s1,r2,34,Online_whatL2//b.fe.ra31.0.888.wav,fe,bi,to,sil,ra,ño,me,sil1,su,te,sil2,['miss'],,,0.888,beat,,,,ra,2,testConjL1Uns//r2.s1.1.wav,2.0,conjunction_un,unsyncopated,b,s1,rule,rule,L1,m,0.7689,5.0,0.0,0.9998,2.0,3.0,CASTELLANO,0.0,CATALÁN,0.0,3.0,4.0,yes,no,no,PIANO,6,GUITARRA,6,CANTO,6,FLAUTA,6.0,,,Ya lo hiceeee wii,67.0,yes
35,2023-10-01_18h53.04.363,Unsyncopated1,s26,27.0,feminino,right,ESPAÑA,CASTELLANO Y CATALÁN,Bachelor degree,no,no,B,1,what,L2,unsyncopated,s1,r2,35,Online_whatL2//b.fe.ra28.0.888.wav,fe,me,mi,sil,ra,cha,bi,sil2,su,to,sil1,['miss'],,,0.888,beat,,,,ra,2,testConjL1Uns//r1.s2.0.wav,2.0,conjunction_un,unsyncopated,a,s2,rule,rule,L1,m,1.4308,5.0,0.0,1.3818,2.0,3.0,CASTELLANO,0.0,CATALÁN,0.0,3.0,4.0,yes,no,no,PIANO,6,GUITARRA,6,CANTO,6,FLAUTA,6.0,,,Ya lo hiceeee wii,67.0,yes
36,2023-10-01_18h53.04.363,Unsyncopated1,s26,27.0,feminino,right,ESPAÑA,CASTELLANO Y CATALÁN,Bachelor degree,no,no,B,1,what,L2,unsyncopated,s1,r2,36,Online_whatL2//d.si.ñu29.222.1110.wav,fe,si,me,sil,ra,ñu,ño,sil2,mi,te,sil1,['miss'],,,1.11,no_beat,,,,ñu,4,testConjL1Uns//r1.s1.2.wav,2.0,conjunction_un,unsyncopated,a,s1,rule,rule,L1,m,1.6643,5.0,0.0,0.8159,2.0,3.0,CASTELLANO,0.0,CATALÁN,0.0,3.0,4.0,yes,no,no,PIANO,6,GUITARRA,6,CANTO,6,FLAUTA,6.0,,,Ya lo hiceeee wii,67.0,yes
37,2023-10-01_18h53.04.363,Unsyncopated1,s26,27.0,feminino,right,ESPAÑA,CASTELLANO Y CATALÁN,Bachelor degree,no,no,B,1,what,L2,unsyncopated,s1,r2,37,Online_whatL2//d.si.ñu30.1332.222.wav,fe,ñu,te,sil2,ra,si,to,sil,bi,ba,sil1,['miss'],,,0.222,no_beat,,,,ñu,4,testConjL1Uns//dep_viol.r1.s2.0.wav,2.0,conjunction_un,unsyncopated,a,s2,no_rule,dep,L1,m,1.6959,5.0,1.0,0.8493,2.0,3.0,CASTELLANO,0.0,CATALÁN,0.0,3.0,4.0,yes,no,no,PIANO,6,GUITARRA,6,CANTO,6,FLAUTA,6.0,,,Ya lo hiceeee wii,67.0,yes
38,2023-10-01_18h53.04.363,Unsyncopated1,s26,27.0,feminino,right,ESPAÑA,CASTELLANO Y CATALÁN,Bachelor degree,no,no,B,1,what,L2,unsyncopated,s1,r2,38,Online_whatL2//d.si.ñu31.none.none.wav,fe,mi,ño,sil,ra,su,me,sil1,ba,te,sil2,['-'],,,none,none,,,,ñu,4,testConjL1Uns//time_viol.r2.s1.0.wav,2.0,conjunction_un,unsyncopated,b,s1,no_rule,time,L1,m,0.7163,5.0,1.0,0.8668,2.0,3.0,CASTELLANO,0.0,CATALÁN,0.0,3.0,4.0,yes,no,no,PIANO,6,GUITARRA,6,CANTO,6,FLAUTA,6.0,,,Ya lo hiceeee wii,67.0,yes
39,2023-10-01_18h53.04.363,Unsyncopated1,s26,27.0,feminino,right,ESPAÑA,CASTELLANO Y CATALÁN,Bachelor degree,no,no,B,1,what,L2,unsyncopated,s1,r1,39,Online_whatL2//d.si.ñu28.444.1554.wav,go,me,si,sil2,du,to,ñu,sil,te,mi,sil1,['miss'],,,1.554,no_beat,,,,ñu,4,testConjL1Uns//dep_viol.r2.s1.0.wav,2.0,conjunction_un,unsyncopated,b,s1,no_rule,dep,L1,m,2.0971,5.0,1.0,0.9801,2.0,3.0,CASTELLANO,0.0,CATALÁN,0.0,3.0,4.0,yes,no,no,PIANO,6,GUITARRA,6,CANTO,6,FLAUTA,6.0,,,Ya lo hiceeee wii,67.0,yes
40,2023-10-01_18h53.04.363,Unsyncopated1,s26,27.0,feminino,right,ESPAÑA,CASTELLANO Y CATALÁN,Bachelor degree,no,no,B,1,what,L2,unsyncopated,s2,r2,40,Online_whatL2//c.cha.me4.none.none.wav,ba,te,su,sil2,fe,ño,si,sil,ra,ñu,sil1,['-'],,,none,none,,,,me,3,testConjL1Uns//r1.s1.1.wav,2.0,conjunction_un,unsyncopated,a,s1,rule,rule,L1,z,0.8518,6.0,1.0,0.8847,2.0,3.0,CASTELLANO,0.0,CATALÁN,0.0,3.0,4.0,yes,no,no,PIANO,6,GUITARRA,6,CANTO,6,FLAUTA,6.0,,,Ya lo hiceeee wii,67.0,yes
41,2023-10-01_18h53.04.363,Unsyncopated1,s26,27.0,feminino,right,ESPAÑA,CASTELLANO Y CATALÁN,Bachelor degree,no,no,B,1,what,L2,unsyncopated,s1,r2,41,Online_whatL2//c.cha.me6.222.1110.wav,fe,cha,ba,sil,ra,me,te,sil2,si,mi,sil1,['miss'],,,1.11,no_beat,,,,me,3,testConjL1Uns//r2.s1.0.wav,2.0,conjunction_un,unsyncopated,b,s1,rule,rule,L1,m,0.9822,5.0,0.0,0.9833,2.0,3.0,CASTELLANO,0.0,CATALÁN,0.0,3.0,4.0,yes,no,no,PIANO,6,GUITARRA,6,CANTO,6,FLAUTA,6.0,,,Ya lo hiceeee wii,67.0,yes
42,2023-10-01_18h53.04.363,Unsyncopated1,s26,27.0,feminino,right,ESPAÑA,CASTELLANO Y CATALÁN,Bachelor degree,no,no,B,1,what,L2,unsyncopated,s2,r1,42,Online_whatL2//c.cha.me5.none.none.wav,ñu,mi,ño,sil2,go,te,ba,sil,du,su,sil1,['-'],,,none,none,,,,me,3,testConjL1Uns//r2.s2.2.wav,2.0,conjunction_un,unsyncopated,b,s2,rule,rule,L1,m,0.5666,5.0,0.0,0.8822,2.0,3.0,CASTELLANO,0.0,CATALÁN,0.0,3.0,4.0,yes,no,no,PIANO,6,GUITARRA,6,CANTO,6,FLAUTA,6.0,,,Ya lo hiceeee wii,67.0,yes
43,2023-10-01_18h53.04.363,Unsyncopated1,s26,27.0,feminino,right,ESPAÑA,CASTELLANO Y CATALÁN,Bachelor degree,no,no,B,1,what,L2,unsyncopated,s1,r1,43,Online_whatL2//c.cha.me7.222.444.wav,go,cha,me,sil,du,bi,si,sil1,su,ba,sil2,['miss'],,,0.444,no_beat,,,,me,3,testConjL1Uns//cat_viol.r2.s2.0.wav,2.0,conjunction_un,unsyncopated,b,s2,no_rule,cat,L1,m,0.3005,5.0,1.0,0.8488,2.0,3.0,CASTELLANO,0.0,CATALÁN,0.0,3.0,4.0,yes,no,no,PIANO,6,GUITARRA,6,CANTO,6,FLAUTA,6.0,,,Ya lo hiceeee wii,67.0,yes
44,2023-10-01_18h53.04.363,Unsyncopated1,s26,27.0,feminino,right,ESPAÑA,CASTELLANO Y CATALÁN,Bachelor degree,no,no,B,1,what,L2,unsyncopated,s2,r1,44,Online_whatL2//c.cha.me29.none.none.wav,ño,ba,mi,sil,go,ñu,bi,sil1,du,te,sil2,['-'],,,none,none,,,,me,3,testConjL1Uns//time_viol.r2.s2.0.wav,2.0,conjunction_un,unsyncopated,b,s2,no_rule,time,L1,m,0.616,5.0,1.0,0.982,2.0,3.0,CASTELLANO,0.0,CATALÁN,0.0,3.0,4.0,yes,no,no,PIANO,6,GUITARRA,6,CANTO,6,FLAUTA,6.0,,,Ya lo hiceeee wii,67.0,yes
45,2023-10-01_18h53.04.363,Unsyncopated1,s26,27.0,feminino,right,ESPAÑA,CASTELLANO Y CATALÁN,Bachelor degree,no,no,B,1,what,L2,unsyncopated,s2,r2,45,Online_whatL2//c.cha.me28.0.1110.wav,cha,to,su,sil,fe,me,te,sil1,ra,bi,sil2,['miss'],,,1.11,no_beat,,,,me,3,testConjL1Uns//r2.s1.2.wav,2.0,conjunction_un,unsyncopated,b,s1,rule,rule,L1,m,0.8997,5.0,0.0,0.7486,2.0,3.0,CASTELLANO,0.0,CATALÁN,0.0,3.0,4.0,yes,no,no,PIANO,6,GUITARRA,6,CANTO,6,FLAUTA,6.0,,,Ya lo hiceeee wii,67.0,yes
46,2023-10-01_18h53.04.363,Unsyncopated1,s26,27.0,feminino,right,ESPAÑA,CASTELLANO Y CATALÁN,Bachelor degree,no,no,B,1,what,L2,unsyncopated,s2,r2,46,Online_whatL2//c.cha.me31.1110.222.wav,su,me,ño,sil,fe,cha,bi,sil1,ra,mi,sil2,['miss'],,,0.222,no_beat,,,,me,3,testConjL1Uns//r1.s2.2.wav,2.0,conjunction_un,unsyncopated,a,s2,rule,rule,L1,m,2.0142,4.0,0.0,1.6958,2.0,3.0,CASTELLANO,0.0,CATALÁN,0.0,3.0,4.0,yes,no,no,PIANO,6,GUITARRA,6,CANTO,6,FLAUTA,6.0,,,Ya lo hiceeee wii,67.0,yes
47,2023-10-01_18h53.04.363,Unsyncopated1,s26,27.0,feminino,right,ESPAÑA,CASTELLANO Y CATALÁN,Bachelor degree,no,no,B,1,what,L2,unsyncopated,s1,r2,47,Online_whatL2//c.cha.me30.none.none.wav,fe,ba,su,sil,ra,mi,ño,sil1,ñu,to,sil2,['-'],,,none,none,,,,me,3,testConjL1Uns//cat_viol.r1.s1.0.wav,2.0,conjunction_un,unsyncopated,a,s1,no_rule,cat,L1,m,1.3645,4.0,1.0,0.2498,2.0,3.0,CASTELLANO,0.0,CATALÁN,0.0,3.0,4.0,yes,no,no,PIANO,6,GUITARRA,6,CANTO,6,FLAUTA,6.0,,,Ya lo hiceeee wii,67.0,yes
48,2023-10-01_18h53.04.363,Unsyncopated1,s26,27.0,feminino,right,ESPAÑA,CASTELLANO Y CATALÁN,Bachelor degree,no,no,B,1,what,L2,unsyncopated,s2,r1,48,Online_whatL2//b.fe.ra23.none.none.wav,te,ñu,me,sil,go,cha,ño,sil1,du,bi,sil2,['-'],,,none,none,,,,ra,2,testWhenL3Uns//r2.s2.2.wav,3.0,when,unsyncopated,b,s2,rule,rule,L3,z,1.0245,6.0,1.0,0.5812,2.0,3.0,CASTELLANO,0.0,CATALÁN,0.0,3.0,4.0,yes,no,no,PIANO,6,GUITARRA,6,CANTO,6,FLAUTA,6.0,,,Ya lo hiceeee wii,67.0,yes
49,2023-10-01_18h53.04.363,Unsyncopated1,s26,27.0,feminino,right,ESPAÑA,CASTELLANO Y CATALÁN,Bachelor degree,no,no,B,1,what,L2,unsyncopated,s2,r1,49,Online_whatL2//b.fe.ra20.none.none.wav,te,me,mi,sil,go,to,ñu,sil2,du,ba,sil1,['-'],,,none,none,,,,ra,2,testWhenL3Uns//dep_viol.r1.s2.0.wav,3.0,when,unsyncopated,a,s2,no_rule,dep,L3,z,0.2663,6.0,1.0,0.3662,2.0,3.0,CASTELLANO,0.0,CATALÁN,0.0,3.0,4.0,yes,no,no,PIANO,6,GUITARRA,6,CANTO,6,FLAUTA,6.0,,,Ya lo hiceeee wii,67.0,yes
50,2023-10-01_18h53.04.363,Unsyncopated1,s26,27.0,feminino,right,ESPAÑA,CASTELLANO Y CATALÁN,Bachelor degree,no,no,B,1,what,L2,unsyncopated,s2,r2,50,Online_whatL2//b.fe.ra22.888.1776.wav,ba,me,cha,sil,fe,su,ño,sil1,ra,to,sil2,['miss'],,,1.776,beat,,,,ra,2,testWhenL3Uns//dep_viol.r1.s1.0.wav,3.0,when,unsyncopated,a,s1,no_rule,dep,L3,m,0.4014,4.0,0.0,1.4643,2.0,3.0,CASTELLANO,0.0,CATALÁN,0.0,3.0,4.0,yes,no,no,PIANO,6,GUITARRA,6,CANTO,6,FLAUTA,6.0,,,Ya lo hiceeee wii,67.0,yes
51,2023-10-01_18h53.04.363,Unsyncopated1,s26,27.0,feminino,right,ESPAÑA,CASTELLANO Y CATALÁN,Bachelor degree,no,no,B,1,what,L2,unsyncopated,s1,r2,51,Online_whatL2//b.fe.ra21.0.888.wav,fe,bi,su,sil,ra,to,te,sil1,ba,ñu,sil2,['miss'],,,0.888,beat,,,,ra,2,testWhenL3Uns//r1.s2.1.wav,3.0,when,unsyncopated,a,s2,rule,rule,L3,z,1.4797,6.0,1.0,0.6338,2.0,3.0,CASTELLANO,0.0,CATALÁN,0.0,3.0,4.0,yes,no,no,PIANO,6,GUITARRA,6,CANTO,6,FLAUTA,6.0,,,Ya lo hiceeee wii,67.0,yes
52,2023-10-01_18h53.04.363,Unsyncopated1,s26,27.0,feminino,right,ESPAÑA,CASTELLANO Y CATALÁN,Bachelor degree,no,no,B,1,what,L2,unsyncopated,s2,r1,52,Online_whatL2//b.fe.ra6.none.none.wav,si,su,te,sil2,go,ba,mi,sil,du,ñu,sil1,['-'],,,none,none,,,,ra,2,testWhenL3Uns//r1.s1.2.wav,3.0,when,unsyncopated,a,s1,rule,rule,L3,m,0.4999,5.0,0.0,1.0491,2.0,3.0,CASTELLANO,0.0,CATALÁN,0.0,3.0,4.0,yes,no,no,PIANO,6,GUITARRA,6,CANTO,6,FLAUTA,6.0,,,Ya lo hiceeee wii,67.0,yes
53,2023-10-01_18h53.04.363,Unsyncopated1,s26,27.0,feminino,right,ESPAÑA,CASTELLANO Y CATALÁN,Bachelor degree,no,no,B,1,what,L2,unsyncopated,s1,r1,53,Online_whatL2//b.fe.ra4.none.none.wav,go,te,to,sil2,du,ño,me,sil,su,cha,sil1,['-'],,,none,none,,,,ra,2,testWhenL3Uns//r1.s1.0.wav,3.0,when,unsyncopated,a,s1,rule,rule,L3,z,0.9825,6.0,1.0,0.5671,2.0,3.0,CASTELLANO,0.0,CATALÁN,0.0,3.0,4.0,yes,no,no,PIANO,6,GUITARRA,6,CANTO,6,FLAUTA,6.0,,,Ya lo hiceeee wii,67.0,yes
54,2023-10-01_18h53.04.363,Unsyncopated1,s26,27.0,feminino,right,ESPAÑA,CASTELLANO Y CATALÁN,Bachelor degree,no,no,B,1,what,L2,unsyncopated,s1,r1,54,Online_whatL2//b.fe.ra7.none.none.wav,go,cha,me,sil,du,bi,te,sil1,ñu,su,sil2,['-'],,,none,none,,,,ra,2,testWhenL3Uns//dep_viol.r2.s2.0.wav,3.0,when,unsyncopated,b,s2,no_rule,dep,L3,m,0.8817,6.0,0.0,0.3334,2.0,3.0,CASTELLANO,0.0,CATALÁN,0.0,3.0,4.0,yes,no,no,PIANO,6,GUITARRA,6,CANTO,6,FLAUTA,6.0,,,Ya lo hiceeee wii,67.0,yes
55,2023-10-01_18h53.04.363,Unsyncopated1,s26,27.0,feminino,right,ESPAÑA,CASTELLANO Y CATALÁN,Bachelor degree,no,no,B,1,what,L2,unsyncopated,s2,r2,55,Online_whatL2//b.fe.ra5.888.1776.wav,ñu,ño,mi,sil,fe,me,ba,sil1,ra,te,sil2,['miss'],,,1.776,beat,,,,ra,2,testWhenL3Uns//r1.s2.0.wav,3.0,when,unsyncopated,a,s2,rule,rule,L3,z,0.235,6.0,1.0,0.4504,2.0,3.0,CASTELLANO,0.0,CATALÁN,0.0,3.0,4.0,yes,no,no,PIANO,6,GUITARRA,6,CANTO,6,FLAUTA,6.0,,,Ya lo hiceeee wii,67.0,yes
56,2023-10-01_18h53.04.363,Unsyncopated1,s26,27.0,feminino,right,ESPAÑA,CASTELLANO Y CATALÁN,Bachelor degree,no,no,B,1,what,L2,unsyncopated,s1,r1,56,Online_whatL2//c.cha.me19.none.none.wav,go,su,bi,sil,du,ño,to,sil2,ñu,ba,sil1,['-'],,,none,none,,,,me,3,testWhenL3Uns//dep_viol.r2.s1.0.wav,3.0,when,unsyncopated,b,s1,no_rule,dep,L3,m,1.0642,6.0,0.0,0.885,2.0,3.0,CASTELLANO,0.0,CATALÁN,0.0,3.0,4.0,yes,no,no,PIANO,6,GUITARRA,6,CANTO,6,FLAUTA,6.0,,,Ya lo hiceeee wii,67.0,yes
57,2023-10-01_18h53.04.363,Unsyncopated1,s26,27.0,feminino,right,ESPAÑA,CASTELLANO Y CATALÁN,Bachelor degree,no,no,B,1,what,L2,unsyncopated,s2,r2,57,Online_whatL2//c.cha.me18.none.none.wav,bi,to,ñu,sil,fe,ño,ba,sil1,ra,si,sil2,['-'],,,none,none,,,,me,3,testWhenL3Uns//r1.s1.1.wav,3.0,when,unsyncopated,a,s1,rule,rule,L3,z,0.2839,6.0,1.0,0.3659,2.0,3.0,CASTELLANO,0.0,CATALÁN,0.0,3.0,4.0,yes,no,no,PIANO,6,GUITARRA,6,CANTO,6,FLAUTA,6.0,,,Ya lo hiceeee wii,67.0,yes
58,2023-10-01_18h53.04.363,Unsyncopated1,s26,27.0,feminino,right,ESPAÑA,CASTELLANO Y CATALÁN,Bachelor degree,no,no,B,1,what,L2,unsyncopated,s1,r1,58,Online_whatL2//c.cha.me16.none.none.wav,go,ñu,bi,sil2,du,to,te,sil,ño,mi,sil1,['-'],,,none,none,,,,me,3,testWhenL3Uns//r2.s1.2.wav,3.0,when,unsyncopated,b,s1,rule,rule,L3,m,5.0046,5.0,0.0,0.1694,2.0,3.0,CASTELLANO,0.0,CATALÁN,0.0,3.0,4.0,yes,no,no,PIANO,6,GUITARRA,6,CANTO,6,FLAUTA,6.0,,,Ya lo hiceeee wii,67.0,yes
59,2023-10-01_18h53.04.363,Unsyncopated1,s26,27.0,feminino,right,ESPAÑA,CASTELLANO Y CATALÁN,Bachelor degree,no,no,B,1,what,L2,unsyncopated,s2,r1,59,Online_whatL2//c.cha.me17.0.444.wav,cha,te,me,sil2,go,bi,ñu,sil,du,mi,sil1,['miss'],,,0.444,no_beat,,,,me,3,testWhenL3Uns//time_viol.r2.s2.0.wav,3.0,when,unsyncopated,b,s2,no_rule,time,L3,m,3.2095,5.0,0.0,0.5317,2.0,3.0,CASTELLANO,0.0,CATALÁN,0.0,3.0,4.0,yes,no,no,PIANO,6,GUITARRA,6,CANTO,6,FLAUTA,6.0,,,Ya lo hiceeee wii,67.0,yes
60,2023-10-01_18h53.04.363,Unsyncopated1,s26,27.0,feminino,right,ESPAÑA,CASTELLANO Y CATALÁN,Bachelor degree,no,no,B,1,what,L2,unsyncopated,s2,r2,60,Online_whatL2//d.si.ñu23.none.none.wav,me,to,ño,sil2,fe,cha,su,sil,ra,mi,sil1,['-'],,,none,none,,,,ñu,4,testWhenL3Uns//r2.s2.1.wav,3.0,when,unsyncopated,b,s2,rule,rule,L3,m,0.8663,5.0,0.0,0.3668,2.0,3.0,CASTELLANO,0.0,CATALÁN,0.0,3.0,4.0,yes,no,no,PIANO,6,GUITARRA,6,CANTO,6,FLAUTA,6.0,,,Ya lo hiceeee wii,67.0,yes
61,2023-10-01_18h53.04.363,Unsyncopated1,s26,27.0,feminino,right,ESPAÑA,CASTELLANO Y CATALÁN,Bachelor degree,no,no,B,1,what,L2,unsyncopated,s1,r1,61,Online_whatL2//d.si.ñu21.none.none.wav,go,cha,ño,sil,du,su,bi,sil2,ba,te,sil1,['-'],,,none,none,,,,ñu,4,testWhenL3Uns//time_viol.r1.s2.0.wav,3.0,when,unsyncopated,a,s2,no_rule,time,L3,m,0.5156,5.0,0.0,0.5828,2.0,3.0,CASTELLANO,0.0,CATALÁN,0.0,3.0,4.0,yes,no,no,PIANO,6,GUITARRA,6,CANTO,6,FLAUTA,6.0,,,Ya lo hiceeee wii,67.0,yes
62,2023-10-01_18h53.04.363,Unsyncopated1,s26,27.0,feminino,right,ESPAÑA,CASTELLANO Y CATALÁN,Bachelor degree,no,no,B,1,what,L2,unsyncopated,s1,r2,62,Online_whatL2//d.si.ñu22.444.1332.wav,fe,to,si,sil,ra,bi,ñu,sil2,ba,me,sil1,['miss'],,,1.332,no_beat,,,,ñu,4,testWhenL3Uns//cat_viol.r1.s2.0.wav,3.0,when,unsyncopated,a,s2,no_rule,cat,L3,m,1.2839,5.0,0.0,0.2998,2.0,3.0,CASTELLANO,0.0,CATALÁN,0.0,3.0,4.0,yes,no,no,PIANO,6,GUITARRA,6,CANTO,6,FLAUTA,6.0,,,Ya lo hiceeee wii,67.0,yes
63,2023-10-01_18h53.04.363,Unsyncopated1,s26,27.0,feminino,right,ESPAÑA,CASTELLANO Y CATALÁN,Bachelor degree,no,no,B,1,what,L2,unsyncopated,s1,r2,63,Online_whatL2//d.si.ñu20.none.none.wav,fe,cha,me,sil2,ra,to,bi,sil,mi,ba,sil1,['-'],,,none,none,,,,ñu,4,testWhenL3Uns//r2.s1.1.wav,3.0,when,unsyncopated,b,s1,rule,rule,L3,m,0.6409,5.0,0.0,0.5673,2.0,3.0,CASTELLANO,0.0,CATALÁN,0.0,3.0,4.0,yes,no,no,PIANO,6,GUITARRA,6,CANTO,6,FLAUTA,6.0,,,Ya lo hiceeee wii,67.0,yes
64,2023-10-01_18h53.04.363,Unsyncopated1,s26,27.0,feminino,right,ESPAÑA,CASTELLANO Y CATALÁN,Bachelor degree,no,no,B,1,what,L2,unsyncopated,s1,r1,64,Online_whatL2//a.go.du12.0.888.wav,go,su,cha,sil,du,to,te,sil2,me,mi,sil1,['miss'],,,0.0,beat,,,,go,1,testWhenL3Uns//cat_viol.r2.s1.0.wav,3.0,when,unsyncopated,b,s1,no_rule,cat,L3,m,1.7408,5.0,0.0,0.2187,2.0,3.0,CASTELLANO,0.0,CATALÁN,0.0,3.0,4.0,yes,no,no,PIANO,6,GUITARRA,6,CANTO,6,FLAUTA,6.0,,,Ya lo hiceeee wii,67.0,yes
65,2023-10-01_18h53.04.363,Unsyncopated1,s26,27.0,feminino,right,ESPAÑA,CASTELLANO Y CATALÁN,Bachelor degree,no,no,B,1,what,L2,unsyncopated,s1,r1,65,Online_whatL2//a.go.du15.0.888.wav,go,cha,mi,sil,du,ñu,to,sil1,ba,ño,sil2,['miss'],,,0.0,beat,,,,go,1,testWhenL3Uns//time_viol.r2.s1.0.wav,3.0,when,unsyncopated,b,s1,no_rule,time,L3,m,0.4184,5.0,0.0,0.3497,2.0,3.0,CASTELLANO,0.0,CATALÁN,0.0,3.0,4.0,yes,no,no,PIANO,6,GUITARRA,6,CANTO,6,FLAUTA,6.0,,,Ya lo hiceeee wii,67.0,yes
66,2023-10-01_18h53.04.363,Unsyncopated1,s26,27.0,feminino,right,ESPAÑA,CASTELLANO Y CATALÁN,Bachelor degree,no,no,B,1,what,L2,unsyncopated,s2,r2,66,Online_whatL2//a.go.du14.none.none.wav,bi,me,mi,sil2,fe,to,ñu,sil,ra,su,sil1,['-'],,,none,none,,,,go,1,testWhenL3Uns//r2.s2.0.wav,3.0,when,unsyncopated,b,s2,rule,rule,L3,m,0.0189,5.0,0.0,0.3665,2.0,3.0,CASTELLANO,0.0,CATALÁN,0.0,3.0,4.0,yes,no,no,PIANO,6,GUITARRA,6,CANTO,6,FLAUTA,6.0,,,Ya lo hiceeee wii,67.0,yes
67,2023-10-01_18h53.04.363,Unsyncopated1,s26,27.0,feminino,right,ESPAÑA,CASTELLANO Y CATALÁN,Bachelor degree,no,no,B,1,what,L2,unsyncopated,s2,r2,67,Online_whatL2//a.go.du13.none.none.wav,te,si,ño,sil2,fe,su,ñu,sil,ra,mi,sil1,['-'],,,none,none,,,,go,1,testWhenL3Uns//r2.s1.0.wav,3.0,when,unsyncopated,b,s1,rule,rule,L3,z,0.3574,6.0,1.0,0.3496,2.0,3.0,CASTELLANO,0.0,CATALÁN,0.0,3.0,4.0,yes,no,no,PIANO,6,GUITARRA,6,CANTO,6,FLAUTA,6.0,,,Ya lo hiceeee wii,67.0,yes
68,2023-10-01_18h53.04.363,Unsyncopated1,s26,27.0,feminino,right,ESPAÑA,CASTELLANO Y CATALÁN,Bachelor degree,no,no,B,1,what,L2,unsyncopated,s1,r1,68,Online_whatL2//b.fe.ra10.none.none.wav,go,ñu,ño,sil,du,cha,mi,sil2,to,si,sil1,['-'],,,none,none,,,,ra,2,testWhenL3Uns//time_viol.r1.s1.0.wav,3.0,when,unsyncopated,a,s1,no_rule,time,L3,m,0.3007,5.0,0.0,0.4085,2.0,3.0,CASTELLANO,0.0,CATALÁN,0.0,3.0,4.0,yes,no,no,PIANO,6,GUITARRA,6,CANTO,6,FLAUTA,6.0,,,Ya lo hiceeee wii,67.0,yes
69,2023-10-01_18h53.04.363,Unsyncopated1,s26,27.0,feminino,right,ESPAÑA,CASTELLANO Y CATALÁN,Bachelor degree,no,no,B,1,what,L2,unsyncopated,s1,r1,69,Online_whatL2//b.fe.ra9.none.none.wav,go,mi,bi,sil,du,to,te,sil1,ño,si,sil2,['-'],,,none,none,,,,ra,2,testWhenL3Uns//cat_viol.r1.s1.0.wav,3.0,when,unsyncopated,a,s1,no_rule,cat,L3,m,1.3139,5.0,0.0,0.3494,2.0,3.0,CASTELLANO,0.0,CATALÁN,0.0,3.0,4.0,yes,no,no,PIANO,6,GUITARRA,6,CANTO,6,FLAUTA,6.0,,,Ya lo hiceeee wii,67.0,yes
70,2023-10-01_18h53.04.363,Unsyncopated1,s26,27.0,feminino,right,ESPAÑA,CASTELLANO Y CATALÁN,Bachelor degree,no,no,B,1,what,L2,unsyncopated,s2,r2,70,Online_whatL2//b.fe.ra8.1110.1998.wav,si,me,bi,sil2,fe,te,ba,sil,ra,mi,sil1,['miss'],,,1.998,no_beat,,,,ra,2,testWhenL3Uns//cat_viol.r2.s2.0.wav,3.0,when,unsyncopated,b,s2,no_rule,cat,L3,m,0.1919,5.0,0.0,0.5028,2.0,3.0,CASTELLANO,0.0,CATALÁN,0.0,3.0,4.0,yes,no,no,PIANO,6,GUITARRA,6,CANTO,6,FLAUTA,6.0,,,Ya lo hiceeee wii,67.0,yes
71,2023-10-01_18h53.04.363,Unsyncopated1,s26,27.0,feminino,right,ESPAÑA,CASTELLANO Y CATALÁN,Bachelor degree,no,no,B,1,what,L2,unsyncopated,s2,r2,71,Online_whatL2//b.fe.ra11.888.1776.wav,ño,me,su,sil,fe,bi,ñu,sil1,ra,ba,sil2,['miss'],,,1.776,beat,,,,ra,2,testWhenL3Uns//r1.s2.2.wav,3.0,when,unsyncopated,a,s2,rule,rule,L3,m,1.0809,5.0,0.0,0.3333,2.0,3.0,CASTELLANO,0.0,CATALÁN,0.0,3.0,4.0,yes,no,no,PIANO,6,GUITARRA,6,CANTO,6,FLAUTA,6.0,,,Ya lo hiceeee wii,67.0,yes
72,2023-10-01_18h53.04.363,Unsyncopated1,s26,27.0,feminino,right,ESPAÑA,CASTELLANO Y CATALÁN,Bachelor degree,no,no,B,1,what,L2,unsyncopated,s1,r1,72,Online_whatL2//a.go.du28.0.888.wav,go,ñu,mi,sil,du,ba,ño,sil1,me,su,sil2,['miss'],,,0.0,beat,,,,go,1,testConjL4Syn//r1.s2.1.wav,4.0,conjunction_syn,syncopated,a,s2,rule,rule,L4,z,2.6606,5.0,1.0,1.6452,2.0,3.0,CASTELLANO,0.0,CATALÁN,0.0,3.0,4.0,yes,no,no,PIANO,6,GUITARRA,6,CANTO,6,FLAUTA,6.0,,,Ya lo hiceeee wii,67.0,yes
73,2023-10-01_18h53.04.363,Unsyncopated1,s26,27.0,feminino,right,ESPAÑA,CASTELLANO Y CATALÁN,Bachelor degree,no,no,B,1,what,L2,unsyncopated,s2,r1,73,Online_whatL2//a.go.du30.888.1776.wav,cha,me,te,sil,go,ba,mi,sil1,du,bi,sil2,['miss'],,,0.888,beat,,,,go,1,testConjL4Syn//cat_viol.r2.s2.0.wav,4.0,conjunction_syn,syncopated,b,s2,no_rule,cat,L4,m,0.3005,5.0,1.0,0.7056,2.0,3.0,CASTELLANO,0.0,CATALÁN,0.0,3.0,4.0,yes,no,no,PIANO,6,GUITARRA,6,CANTO,6,FLAUTA,6.0,,,Ya lo hiceeee wii,67.0,yes
74,2023-10-01_18h53.04.363,Unsyncopated1,s26,27.0,feminino,right,ESPAÑA,CASTELLANO Y CATALÁN,Bachelor degree,no,no,B,1,what,L2,unsyncopated,s2,r2,74,Online_whatL2//a.go.du31.none.none.wav,cha,su,mi,sil,fe,ño,si,sil2,ra,te,sil1,['-'],,,none,none,,,,go,1,testConjL4Syn//r1.s1.1.wav,4.0,conjunction_syn,syncopated,a,s1,rule,rule,L4,z,1.3517,5.0,1.0,0.35,2.0,3.0,CASTELLANO,0.0,CATALÁN,0.0,3.0,4.0,yes,no,no,PIANO,6,GUITARRA,6,CANTO,6,FLAUTA,6.0,,,Ya lo hiceeee wii,67.0,yes
75,2023-10-01_18h53.04.363,Unsyncopated1,s26,27.0,feminino,right,ESPAÑA,CASTELLANO Y CATALÁN,Bachelor degree,no,no,B,1,what,L2,unsyncopated,s1,r2,75,Online_whatL2//a.go.du29.none.none.wav,fe,ñu,mi,sil,ra,cha,su,sil2,te,bi,sil1,['-'],,,none,none,,,,go,1,testConjL4Syn//r1.s1.2.wav,4.0,conjunction_syn,syncopated,a,s1,rule,rule,L4,m,0.3069,5.0,0.0,0.2833,2.0,3.0,CASTELLANO,0.0,CATALÁN,0.0,3.0,4.0,yes,no,no,PIANO,6,GUITARRA,6,CANTO,6,FLAUTA,6.0,,,Ya lo hiceeee wii,67.0,yes
76,2023-10-01_18h53.04.363,Unsyncopated1,s26,27.0,feminino,right,ESPAÑA,CASTELLANO Y CATALÁN,Bachelor degree,no,no,B,1,what,L2,unsyncopated,s2,r2,76,Online_whatL2//d.si.ñu27.none.none.wav,su,te,bi,sil,fe,cha,ño,sil2,ra,ba,sil1,['-'],,,none,none,,,,ñu,4,testConjL4Syn//dep_viol.r1.s1.0.wav,4.0,conjunction_syn,syncopated,a,s1,no_rule,dep,L4,z,1.4727,5.0,0.0,0.3249,2.0,3.0,CASTELLANO,0.0,CATALÁN,0.0,3.0,4.0,yes,no,no,PIANO,6,GUITARRA,6,CANTO,6,FLAUTA,6.0,,,Ya lo hiceeee wii,67.0,yes
77,2023-10-01_18h53.04.363,Unsyncopated1,s26,27.0,feminino,right,ESPAÑA,CASTELLANO Y CATALÁN,Bachelor degree,no,no,B,1,what,L2,unsyncopated,s1,r2,77,Online_whatL2//d.si.ñu24.none.none.wav,fe,ba,cha,sil2,ra,to,mi,sil,te,bi,sil1,['-'],,,none,none,,,,ñu,4,testConjL4Syn//cat_viol.r1.s1.0.wav,4.0,conjunction_syn,syncopated,a,s1,no_rule,cat,L4,m,0.2835,5.0,1.0,0.3749,2.0,3.0,CASTELLANO,0.0,CATALÁN,0.0,3.0,4.0,yes,no,no,PIANO,6,GUITARRA,6,CANTO,6,FLAUTA,6.0,,,Ya lo hiceeee wii,67.0,yes
78,2023-10-01_18h53.04.363,Unsyncopated1,s26,27.0,feminino,right,ESPAÑA,CASTELLANO Y CATALÁN,Bachelor degree,no,no,B,1,what,L2,unsyncopated,s2,r1,78,Online_whatL2//d.si.ñu26.none.none.wav,mi,cha,te,sil,go,ño,su,sil2,du,me,sil1,['-'],,,none,none,,,,ñu,4,testConjL4Syn//r2.s1.2.wav,4.0,conjunction_syn,syncopated,b,s1,rule,rule,L4,m,0.0433,5.0,0.0,0.623,2.0,3.0,CASTELLANO,0.0,CATALÁN,0.0,3.0,4.0,yes,no,no,PIANO,6,GUITARRA,6,CANTO,6,FLAUTA,6.0,,,Ya lo hiceeee wii,67.0,yes
79,2023-10-01_18h53.04.363,Unsyncopated1,s26,27.0,feminino,right,ESPAÑA,CASTELLANO Y CATALÁN,Bachelor degree,no,no,B,1,what,L2,unsyncopated,s1,r1,79,Online_whatL2//d.si.ñu25.none.none.wav,go,te,su,sil,du,to,ba,sil2,cha,mi,sil1,['-'],,,none,none,,,,ñu,4,testConjL4Syn//r1.s2.2.wav,4.0,conjunction_syn,syncopated,a,s2,rule,rule,L4,m,0.1072,5.0,0.0,0.4035,2.0,3.0,CASTELLANO,0.0,CATALÁN,0.0,3.0,4.0,yes,no,no,PIANO,6,GUITARRA,6,CANTO,6,FLAUTA,6.0,,,Ya lo hiceeee wii,67.0,yes
80,2023-10-01_18h53.04.363,Unsyncopated1,s26,27.0,feminino,right,ESPAÑA,CASTELLANO Y CATALÁN,Bachelor degree,no,no,B,1,what,L2,unsyncopated,s1,r2,80,Online_whatL2//a.go.du23.none.none.wav,fe,si,me,sil2,ra,mi,ba,sil,ño,ñu,sil1,['-'],,,none,none,,,,go,1,testConjL4Syn//r2.s2.1.wav,4.0,conjunction_syn,syncopated,b,s2,rule,rule,L4,m,0.0341,5.0,0.0,0.4744,2.0,3.0,CASTELLANO,0.0,CATALÁN,0.0,3.0,4.0,yes,no,no,PIANO,6,GUITARRA,6,CANTO,6,FLAUTA,6.0,,,Ya lo hiceeee wii,67.0,yes
81,2023-10-01_18h53.04.363,Unsyncopated1,s26,27.0,feminino,right,ESPAÑA,CASTELLANO Y CATALÁN,Bachelor degree,no,no,B,1,what,L2,unsyncopated,s2,r2,81,Online_whatL2//a.go.du20.none.none.wav,mi,ba,cha,sil,fe,to,ñu,sil1,ra,bi,sil2,['-'],,,none,none,,,,go,1,testConjL4Syn//cat_viol.r2.s1.0.wav,4.0,conjunction_syn,syncopated,b,s1,no_rule,cat,L4,z,0.1338,5.0,0.0,0.516,2.0,3.0,CASTELLANO,0.0,CATALÁN,0.0,3.0,4.0,yes,no,no,PIANO,6,GUITARRA,6,CANTO,6,FLAUTA,6.0,,,Ya lo hiceeee wii,67.0,yes
82,2023-10-01_18h53.04.363,Unsyncopated1,s26,27.0,feminino,right,ESPAÑA,CASTELLANO Y CATALÁN,Bachelor degree,no,no,B,1,what,L2,unsyncopated,s2,r1,82,Online_whatL2//a.go.du22.888.1776.wav,me,ño,cha,sil,go,te,ñu,sil1,du,to,sil2,['miss'],,,0.888,beat,,,,go,1,testConjL4Syn//r2.s2.0.wav,4.0,conjunction_syn,syncopated,b,s2,rule,rule,L4,m,0.8728,5.0,0.0,0.316,2.0,3.0,CASTELLANO,0.0,CATALÁN,0.0,3.0,4.0,yes,no,no,PIANO,6,GUITARRA,6,CANTO,6,FLAUTA,6.0,,,Ya lo hiceeee wii,67.0,yes
83,2023-10-01_18h53.04.363,Unsyncopated1,s26,27.0,feminino,right,ESPAÑA,CASTELLANO Y CATALÁN,Bachelor degree,no,no,B,1,what,L2,unsyncopated,s2,r2,83,Online_whatL2//a.go.du21.none.none.wav,ñu,ba,mi,sil,fe,cha,me,sil2,ra,bi,sil1,['-'],,,none,none,,,,go,1,testConjL4Syn//time_viol.r1.s2.0.wav,4.0,conjunction_syn,syncopated,a,s2,no_rule,time,L4,m,0.8821,5.0,1.0,0.2502,2.0,3.0,CASTELLANO,0.0,CATALÁN,0.0,3.0,4.0,yes,no,no,PIANO,6,GUITARRA,6,CANTO,6,FLAUTA,6.0,,,Ya lo hiceeee wii,67.0,yes
84,2023-10-01_18h53.04.363,Unsyncopated1,s26,27.0,feminino,right,ESPAÑA,CASTELLANO Y CATALÁN,Bachelor degree,no,no,B,1,what,L2,unsyncopated,s1,r1,84,Online_whatL2//b.fe.ra2.none.none.wav,go,cha,mi,sil2,du,to,bi,sil,ño,ba,sil1,['-'],,,none,none,,,,ra,2,testConjL4Syn//dep_viol.r2.s2.0.wav,4.0,conjunction_syn,syncopated,b,s2,no_rule,dep,L4,z,0.4017,5.0,0.0,0.3071,2.0,3.0,CASTELLANO,0.0,CATALÁN,0.0,3.0,4.0,yes,no,no,PIANO,6,GUITARRA,6,CANTO,6,FLAUTA,6.0,,,Ya lo hiceeee wii,67.0,yes
85,2023-10-01_18h53.04.363,Unsyncopated1,s26,27.0,feminino,right,ESPAÑA,CASTELLANO Y CATALÁN,Bachelor degree,no,no,B,1,what,L2,unsyncopated,s2,r2,85,Online_whatL2//b.fe.ra3.1110.1998.wav,si,ño,me,sil2,fe,ñu,cha,sil,ra,bi,sil1,['miss'],,,1.998,no_beat,,,,ra,2,testConjL4Syn//r2.s1.0.wav,4.0,conjunction_syn,syncopated,b,s1,rule,rule,L4,z,0.3627,5.0,1.0,0.3833,2.0,3.0,CASTELLANO,0.0,CATALÁN,0.0,3.0,4.0,yes,no,no,PIANO,6,GUITARRA,6,CANTO,6,FLAUTA,6.0,,,Ya lo hiceeee wii,67.0,yes
86,2023-10-01_18h53.04.363,Unsyncopated1,s26,27.0,feminino,right,ESPAÑA,CASTELLANO Y CATALÁN,Bachelor degree,no,no,B,1,what,L2,unsyncopated,s1,r2,86,Online_whatL2//b.fe.ra1.0.1110.wav,fe,bi,ño,sil2,ra,ba,cha,sil,ñu,to,sil1,['miss'],,,1.11,no_beat,,,,ra,2,testConjL4Syn//r1.s2.0.wav,4.0,conjunction_syn,syncopated,a,s2,rule,rule,L4,m,0.5,5.0,0.0,0.3287,2.0,3.0,CASTELLANO,0.0,CATALÁN,0.0,3.0,4.0,yes,no,no,PIANO,6,GUITARRA,6,CANTO,6,FLAUTA,6.0,,,Ya lo hiceeee wii,67.0,yes
87,2023-10-01_18h53.04.363,Unsyncopated1,s26,27.0,feminino,right,ESPAÑA,CASTELLANO Y CATALÁN,Bachelor degree,no,no,B,1,what,L2,unsyncopated,s1,r2,87,Online_whatL2//b.fe.ra0.0.1110.wav,fe,cha,ño,sil2,ra,te,me,sil,to,ñu,sil1,['miss'],,,1.11,no_beat,,,,ra,2,testConjL4Syn//time_viol.r1.s1.0.wav,4.0,conjunction_syn,syncopated,a,s1,no_rule,time,L4,m,0.582,5.0,1.0,0.3828,2.0,3.0,CASTELLANO,0.0,CATALÁN,0.0,3.0,4.0,yes,no,no,PIANO,6,GUITARRA,6,CANTO,6,FLAUTA,6.0,,,Ya lo hiceeee wii,67.0,yes
88,2023-10-01_18h53.04.363,Unsyncopated1,s26,27.0,feminino,right,ESPAÑA,CASTELLANO Y CATALÁN,Bachelor degree,no,no,B,1,what,L2,unsyncopated,s1,r1,88,Online_whatL2//d.si.ñu8.none.none.wav,go,ba,to,sil2,du,mi,su,sil,te,cha,sil1,['-'],,,none,none,,,,ñu,4,testConjL4Syn//cat_viol.r1.s2.0.wav,4.0,conjunction_syn,syncopated,a,s2,no_rule,cat,L4,m,0.5501,5.0,1.0,0.3571,2.0,3.0,CASTELLANO,0.0,CATALÁN,0.0,3.0,4.0,yes,no,no,PIANO,6,GUITARRA,6,CANTO,6,FLAUTA,6.0,,,Ya lo hiceeee wii,67.0,yes
89,2023-10-01_18h53.04.363,Unsyncopated1,s26,27.0,feminino,right,ESPAÑA,CASTELLANO Y CATALÁN,Bachelor degree,no,no,B,1,what,L2,unsyncopated,s2,r1,89,Online_whatL2//d.si.ñu11.none.none.wav,su,bi,me,sil,go,te,mi,sil1,du,ño,sil2,['-'],,,none,none,,,,ñu,4,testConjL4Syn//dep_viol.r1.s2.0.wav,4.0,conjunction_syn,syncopated,a,s2,no_rule,dep,L4,z,0.2338,5.0,0.0,0.4918,2.0,3.0,CASTELLANO,0.0,CATALÁN,0.0,3.0,4.0,yes,no,no,PIANO,6,GUITARRA,6,CANTO,6,FLAUTA,6.0,,,Ya lo hiceeee wii,67.0,yes
90,2023-10-01_18h53.04.363,Unsyncopated1,s26,27.0,feminino,right,ESPAÑA,CASTELLANO Y CATALÁN,Bachelor degree,no,no,B,1,what,L2,unsyncopated,s1,r1,90,Online_whatL2//d.si.ñu9.444.1332.wav,go,mi,si,sil,du,me,ñu,sil2,to,su,sil1,['miss'],,,1.332,no_beat,,,,ñu,4,testConjL4Syn//time_viol.r2.s2.0.wav,4.0,conjunction_syn,syncopated,b,s2,no_rule,time,L4,m,0.2346,5.0,1.0,0.3896,2.0,3.0,CASTELLANO,0.0,CATALÁN,0.0,3.0,4.0,yes,no,no,PIANO,6,GUITARRA,6,CANTO,6,FLAUTA,6.0,,,Ya lo hiceeee wii,67.0,yes
91,2023-10-01_18h53.04.363,Unsyncopated1,s26,27.0,feminino,right,ESPAÑA,CASTELLANO Y CATALÁN,Bachelor degree,no,no,B,1,what,L2,unsyncopated,s2,r2,91,Online_whatL2//d.si.ñu10.1554.222.wav,to,ñu,cha,sil2,fe,me,si,sil,ra,te,sil1,['miss'],,,0.222,no_beat,,,,ñu,4,testConjL4Syn//r2.s1.1.wav,4.0,conjunction_syn,syncopated,b,s1,rule,rule,L4,m,0.2003,5.0,0.0,0.4261,2.0,3.0,CASTELLANO,0.0,CATALÁN,0.0,3.0,4.0,yes,no,no,PIANO,6,GUITARRA,6,CANTO,6,FLAUTA,6.0,,,Ya lo hiceeee wii,67.0,yes
92,2023-10-01_18h53.04.363,Unsyncopated1,s26,27.0,feminino,right,ESPAÑA,CASTELLANO Y CATALÁN,Bachelor degree,no,no,B,1,what,L2,unsyncopated,s2,r2,92,Online_whatL2//d.si.ñu7.1332.0.wav,ñu,to,me,sil,fe,su,si,sil1,ra,bi,sil2,['miss'],,,0.0,beat,,,,ñu,4,testConjL4Syn//time_viol.r2.s1.0.wav,4.0,conjunction_syn,syncopated,b,s1,no_rule,time,L4,m,0.1437,5.0,1.0,0.4436,2.0,3.0,CASTELLANO,0.0,CATALÁN,0.0,3.0,4.0,yes,no,no,PIANO,6,GUITARRA,6,CANTO,6,FLAUTA,6.0,,,Ya lo hiceeee wii,67.0,yes
93,2023-10-01_18h53.04.363,Unsyncopated1,s26,27.0,feminino,right,ESPAÑA,CASTELLANO Y CATALÁN,Bachelor degree,no,no,B,1,what,L2,unsyncopated,s1,r1,93,Online_whatL2//d.si.ñu5.none.none.wav,go,to,me,sil2,du,mi,ño,sil,ba,su,sil1,['-'],,,none,none,,,,ñu,4,testConjL4Syn//dep_viol.r2.s1.0.wav,4.0,conjunction_syn,syncopated,b,s1,no_rule,dep,L4,m,0.2835,5.0,1.0,0.3336,2.0,3.0,CASTELLANO,0.0,CATALÁN,0.0,3.0,4.0,yes,no,no,PIANO,6,GUITARRA,6,CANTO,6,FLAUTA,6.0,,,Ya lo hiceeee wii,67.0,yes
94,2023-10-01_18h53.04.363,Unsyncopated1,s26,27.0,feminino,right,ESPAÑA,CASTELLANO Y CATALÁN,Bachelor degree,no,no,B,1,what,L2,unsyncopated,s2,r1,94,Online_whatL2//d.si.ñu6.none.none.wav,te,me,mi,sil2,go,su,to,sil,du,bi,sil1,['-'],,,none,none,,,,ñu,4,testConjL4Syn//r2.s2.2.wav,4.0,conjunction_syn,syncopated,b,s2,rule,rule,L4,z,0.1475,5.0,1.0,0.3681,2.0,3.0,CASTELLANO,0.0,CATALÁN,0.0,3.0,4.0,yes,no,no,PIANO,6,GUITARRA,6,CANTO,6,FLAUTA,6.0,,,Ya lo hiceeee wii,67.0,yes
95,2023-10-01_18h53.04.363,Unsyncopated1,s26,27.0,feminino,right,ESPAÑA,CASTELLANO Y CATALÁN,Bachelor degree,no,no,B,1,what,L2,unsyncopated,s1,r2,95,Online_whatL2//d.si.ñu4.1776.1110.wav,fe,su,to,sil,ra,ñu,cha,sil1,si,me,sil2,['miss'],,,1.11,no_beat,,,,ñu,4,testConjL4Syn//r1.s1.0.wav,4.0,conjunction_syn,syncopated,a,s1,rule,rule,L4,z,0.2576,5.0,1.0,0.3173,2.0,3.0,CASTELLANO,0.0,CATALÁN,0.0,3.0,4.0,yes,no,no,PIANO,6,GUITARRA,6,CANTO,6,FLAUTA,6.0,,,Ya lo hiceeee wii,67.0,yes
96,2023-10-01_18h53.04.363,Unsyncopated1,s26,27.0,feminino,right,ESPAÑA,CASTELLANO Y CATALÁN,Bachelor degree,no,no,B,1,what,L2,unsyncopated,s2,r1,96,Online_whatL2//b.fe.ra17.none.none.wav,ñu,su,to,sil,go,te,bi,sil2,du,si,sil1,['-'],,,none,none,,,,ra,2,,,,,,,,,,,,,,,2.0,3.0,CASTELLANO,0.0,CATALÁN,0.0,3.0,4.0,yes,no,no,PIANO,6,GUITARRA,6,CANTO,6,FLAUTA,6.0,,,Ya lo hiceeee wii,67.0,yes
97,2023-10-01_18h53.04.363,Unsyncopated1,s26,27.0,feminino,right,ESPAÑA,CASTELLANO Y CATALÁN,Bachelor degree,no,no,B,1,what,L2,unsyncopated,s1,r2,97,Online_whatL2//b.fe.ra16.0.1110.wav,fe,te,su,sil2,ra,si,ñu,sil,cha,mi,sil1,['miss'],,,1.11,no_beat,,,,ra,2,,,,,,,,,,,,,,,2.0,3.0,CASTELLANO,0.0,CATALÁN,0.0,3.0,4.0,yes,no,no,PIANO,6,GUITARRA,6,CANTO,6,FLAUTA,6.0,,,Ya lo hiceeee wii,67.0,yes
98,2023-10-01_18h53.04.363,Unsyncopated1,s26,27.0,feminino,right,ESPAÑA,CASTELLANO Y CATALÁN,Bachelor degree,no,no,B,1,what,L2,unsyncopated,s1,r1,98,Online_whatL2//b.fe.ra18.none.none.wav,go,si,te,sil,du,to,ño,sil2,me,bi,sil1,['-'],,,none,none,,,,ra,2,,,,,,,,,,,,,,,2.0,3.0,CASTELLANO,0.0,CATALÁN,0.0,3.0,4.0,yes,no,no,PIANO,6,GUITARRA,6,CANTO,6,FLAUTA,6.0,,,Ya lo hiceeee wii,67.0,yes
99,2023-10-01_18h53.04.363,Unsyncopated1,s26,27.0,feminino,right,ESPAÑA,CASTELLANO Y CATALÁN,Bachelor degree,no,no,B,1,what,L2,unsyncopated,s1,r2,99,Online_whatL2//b.fe.ra19.0.888.wav,fe,si,ñu,sil,ra,me,su,sil2,cha,to,sil1,['miss'],,,0.888,beat,,,,ra,2,,,,,,,,,,,,,,,2.0,3.0,CASTELLANO,0.0,CATALÁN,0.0,3.0,4.0,yes,no,no,PIANO,6,GUITARRA,6,CANTO,6,FLAUTA,6.0,,,Ya lo hiceeee wii,67.0,yes
100,2023-10-01_18h53.04.363,Unsyncopated1,s26,27.0,feminino,right,ESPAÑA,CASTELLANO Y CATALÁN,Bachelor degree,no,no,B,1,what,L2,unsyncopated,s2,r1,100,Online_whatL2//c.cha.me15.none.none.wav,su,ñu,mi,sil,go,ba,bi,sil1,du,to,sil2,['-'],,,none,none,,,,me,3,,,,,,,,,,,,,,,2.0,3.0,CASTELLANO,0.0,CATALÁN,0.0,3.0,4.0,yes,no,no,PIANO,6,GUITARRA,6,CANTO,6,FLAUTA,6.0,,,Ya lo hiceeee wii,67.0,yes
101,2023-10-01_18h53.04.363,Unsyncopated1,s26,27.0,feminino,right,ESPAÑA,CASTELLANO Y CATALÁN,Bachelor degree,no,no,B,1,what,L2,unsyncopated,s2,r1,101,Online_whatL2//c.cha.me14.none.none.wav,ñu,to,ño,sil,go,ba,si,sil2,du,mi,sil1,['-'],,,none,none,,,,me,3,,,,,,,,,,,,,,,2.0,3.0,CASTELLANO,0.0,CATALÁN,0.0,3.0,4.0,yes,no,no,PIANO,6,GUITARRA,6,CANTO,6,FLAUTA,6.0,,,Ya lo hiceeee wii,67.0,yes
102,2023-10-01_18h53.04.363,Unsyncopated1,s26,27.0,feminino,right,ESPAÑA,CASTELLANO Y CATALÁN,Bachelor degree,no,no,B,1,what,L2,unsyncopated,s1,r2,102,Online_whatL2//c.cha.me13.none.none.wav,fe,su,te,sil,ra,ño,si,sil2,ba,bi,sil1,['-'],,,none,none,,,,me,3,,,,,,,,,,,,,,,2.0,3.0,CASTELLANO,0.0,CATALÁN,0.0,3.0,4.0,yes,no,no,PIANO,6,GUITARRA,6,CANTO,6,FLAUTA,6.0,,,Ya lo hiceeee wii,67.0,yes
103,2023-10-01_18h53.04.363,Unsyncopated1,s26,27.0,feminino,right,ESPAÑA,CASTELLANO Y CATALÁN,Bachelor degree,no,no,B,1,what,L2,unsyncopated,s1,r1,103,Online_whatL2//c.cha.me12.1332.222.wav,go,me,si,sil,du,ñu,cha,sil1,mi,to,sil2,['miss'],,,0.222,no_beat,,,,me,3,,,,,,,,,,,,,,,2.0,3.0,CASTELLANO,0.0,CATALÁN,0.0,3.0,4.0,yes,no,no,PIANO,6,GUITARRA,6,CANTO,6,FLAUTA,6.0,,,Ya lo hiceeee wii,67.0,yes
104,2023-10-01_18h53.04.363,Unsyncopated1,s26,27.0,feminino,right,ESPAÑA,CASTELLANO Y CATALÁN,Bachelor degree,no,no,B,1,what,L2,unsyncopated,s2,r1,104,Online_whatL2//c.cha.me24.0.444.wav,cha,te,me,sil,go,ba,ño,sil2,du,si,sil1,['miss'],,,0.444,no_beat,,,,me,3,,,,,,,,,,,,,,,2.0,3.0,CASTELLANO,0.0,CATALÁN,0.0,3.0,4.0,yes,no,no,PIANO,6,GUITARRA,6,CANTO,6,FLAUTA,6.0,,,Ya lo hiceeee wii,67.0,yes
105,2023-10-01_18h53.04.363,Unsyncopated1,s26,27.0,feminino,right,ESPAÑA,CASTELLANO Y CATALÁN,Bachelor degree,no,no,B,1,what,L2,unsyncopated,s1,r2,105,Online_whatL2//c.cha.me25.none.none.wav,fe,te,mi,sil,ra,ñu,si,sil2,ba,bi,sil1,['-'],,,none,none,,,,me,3,,,,,,,,,,,,,,,2.0,3.0,CASTELLANO,0.0,CATALÁN,0.0,3.0,4.0,yes,no,no,PIANO,6,GUITARRA,6,CANTO,6,FLAUTA,6.0,,,Ya lo hiceeee wii,67.0,yes
106,2023-10-01_18h53.04.363,Unsyncopated1,s26,27.0,feminino,right,ESPAÑA,CASTELLANO Y CATALÁN,Bachelor degree,no,no,B,1,what,L2,unsyncopated,s1,r2,106,Online_whatL2//c.cha.me27.none.none.wav,fe,si,ñu,sil2,ra,ño,ba,sil,te,bi,sil1,['-'],,,none,none,,,,me,3,,,,,,,,,,,,,,,2.0,3.0,CASTELLANO,0.0,CATALÁN,0.0,3.0,4.0,yes,no,no,PIANO,6,GUITARRA,6,CANTO,6,FLAUTA,6.0,,,Ya lo hiceeee wii,67.0,yes
107,2023-10-01_18h53.04.363,Unsyncopated1,s26,27.0,feminino,right,ESPAÑA,CASTELLANO Y CATALÁN,Bachelor degree,no,no,B,1,what,L2,unsyncopated,s2,r1,107,Online_whatL2//c.cha.me26.444.1110.wav,mi,bi,cha,sil,go,me,ño,sil1,du,te,sil2,['miss'],,,1.11,no_beat,,,,me,3,,,,,,,,,,,,,,,2.0,3.0,CASTELLANO,0.0,CATALÁN,0.0,3.0,4.0,yes,no,no,PIANO,6,GUITARRA,6,CANTO,6,FLAUTA,6.0,,,Ya lo hiceeee wii,67.0,yes
108,2023-10-01_18h53.04.363,Unsyncopated1,s26,27.0,feminino,right,ESPAÑA,CASTELLANO Y CATALÁN,Bachelor degree,no,no,B,1,what,L2,unsyncopated,s2,r2,108,Online_whatL2//a.go.du24.none.none.wav,me,cha,bi,sil,fe,ño,su,sil2,ra,to,sil1,['-'],,,none,none,,,,go,1,,,,,,,,,,,,,,,2.0,3.0,CASTELLANO,0.0,CATALÁN,0.0,3.0,4.0,yes,no,no,PIANO,6,GUITARRA,6,CANTO,6,FLAUTA,6.0,,,Ya lo hiceeee wii,67.0,yes
109,2023-10-01_18h53.04.363,Unsyncopated1,s26,27.0,feminino,right,ESPAÑA,CASTELLANO Y CATALÁN,Bachelor degree,no,no,B,1,what,L2,unsyncopated,s1,r1,109,Online_whatL2//a.go.du25.0.888.wav,go,bi,ñu,sil,du,mi,si,sil2,su,cha,sil1,['miss'],,,0.0,beat,,,,go,1,,,,,,,,,,,,,,,2.0,3.0,CASTELLANO,0.0,CATALÁN,0.0,3.0,4.0,yes,no,no,PIANO,6,GUITARRA,6,CANTO,6,FLAUTA,6.0,,,Ya lo hiceeee wii,67.0,yes
110,2023-10-01_18h53.04.363,Unsyncopated1,s26,27.0,feminino,right,ESPAÑA,CASTELLANO Y CATALÁN,Bachelor degree,no,no,B,1,what,L2,unsyncopated,s1,r2,110,Online_whatL2//a.go.du26.none.none.wav,fe,te,si,sil2,ra,ba,to,sil,su,bi,sil1,['-'],,,none,none,,,,go,1,,,,,,,,,,,,,,,2.0,3.0,CASTELLANO,0.0,CATALÁN,0.0,3.0,4.0,yes,no,no,PIANO,6,GUITARRA,6,CANTO,6,FLAUTA,6.0,,,Ya lo hiceeee wii,67.0,yes
111,2023-10-01_18h53.04.363,Unsyncopated1,s26,27.0,feminino,right,ESPAÑA,CASTELLANO Y CATALÁN,Bachelor degree,no,no,B,1,what,L2,unsyncopated,s2,r2,111,Online_whatL2//a.go.du27.none.none.wav,mi,cha,ba,sil,fe,bi,su,sil2,ra,ño,sil1,['-'],,,none,none,,,,go,1,,,,,,,,,,,,,,,2.0,3.0,CASTELLANO,0.0,CATALÁN,0.0,3.0,4.0,yes,no,no,PIANO,6,GUITARRA,6,CANTO,6,FLAUTA,6.0,,,Ya lo hiceeee wii,67.0,yes
112,2023-10-01_18h53.04.363,Unsyncopated1,s26,27.0,feminino,right,ESPAÑA,CASTELLANO Y CATALÁN,Bachelor degree,no,no,B,1,what,L2,unsyncopated,s2,r1,112,Online_whatL2//a.go.du11.1110.1998.wav,si,me,to,sil2,go,su,te,sil,du,mi,sil1,['miss'],,,1.11,no_beat,,,,go,1,,,,,,,,,,,,,,,2.0,3.0,CASTELLANO,0.0,CATALÁN,0.0,3.0,4.0,yes,no,no,PIANO,6,GUITARRA,6,CANTO,6,FLAUTA,6.0,,,Ya lo hiceeee wii,67.0,yes
113,2023-10-01_18h53.04.363,Unsyncopated1,s26,27.0,feminino,right,ESPAÑA,CASTELLANO Y CATALÁN,Bachelor degree,no,no,B,1,what,L2,unsyncopated,s1,r1,113,Online_whatL2//a.go.du8.0.888.wav,go,su,mi,sil,du,ñu,ño,sil1,to,si,sil2,['miss'],,,0.0,beat,,,,go,1,,,,,,,,,,,,,,,2.0,3.0,CASTELLANO,0.0,CATALÁN,0.0,3.0,4.0,yes,no,no,PIANO,6,GUITARRA,6,CANTO,6,FLAUTA,6.0,,,Ya lo hiceeee wii,67.0,yes
114,2023-10-01_18h53.04.363,Unsyncopated1,s26,27.0,feminino,right,ESPAÑA,CASTELLANO Y CATALÁN,Bachelor degree,no,no,B,1,what,L2,unsyncopated,s1,r2,114,Online_whatL2//a.go.du9.none.none.wav,fe,ba,to,sil2,ra,mi,ño,sil,si,ñu,sil1,['-'],,,none,none,,,,go,1,,,,,,,,,,,,,,,2.0,3.0,CASTELLANO,0.0,CATALÁN,0.0,3.0,4.0,yes,no,no,PIANO,6,GUITARRA,6,CANTO,6,FLAUTA,6.0,,,Ya lo hiceeee wii,67.0,yes
115,2023-10-01_18h53.04.363,Unsyncopated1,s26,27.0,feminino,right,ESPAÑA,CASTELLANO Y CATALÁN,Bachelor degree,no,no,B,1,what,L2,unsyncopated,s1,r1,115,Online_whatL2//a.go.du10.0.888.wav,go,to,ño,sil,du,si,ba,sil2,ñu,me,sil1,['miss'],,,0.0,beat,,,,go,1,,,,,,,,,,,,,,,2.0,3.0,CASTELLANO,0.0,CATALÁN,0.0,3.0,4.0,yes,no,no,PIANO,6,GUITARRA,6,CANTO,6,FLAUTA,6.0,,,Ya lo hiceeee wii,67.0,yes
116,2023-10-01_18h53.04.363,Unsyncopated1,s26,27.0,feminino,right,ESPAÑA,CASTELLANO Y CATALÁN,Bachelor degree,no,no,B,1,what,L2,unsyncopated,s2,r1,116,Online_whatL2//a.go.du19.1110.1998.wav,si,cha,ñu,sil2,go,mi,ño,sil,du,me,sil1,['miss'],,,1.11,no_beat,,,,go,1,,,,,,,,,,,,,,,2.0,3.0,CASTELLANO,0.0,CATALÁN,0.0,3.0,4.0,yes,no,no,PIANO,6,GUITARRA,6,CANTO,6,FLAUTA,6.0,,,Ya lo hiceeee wii,67.0,yes
117,2023-10-01_18h53.04.363,Unsyncopated1,s26,27.0,feminino,right,ESPAÑA,CASTELLANO Y CATALÁN,Bachelor degree,no,no,B,1,what,L2,unsyncopated,s1,r1,117,Online_whatL2//a.go.du18.0.1110.wav,go,cha,me,sil2,du,ño,ñu,sil,ba,mi,sil1,['miss'],,,0.0,beat,,,,go,1,,,,,,,,,,,,,,,2.0,3.0,CASTELLANO,0.0,CATALÁN,0.0,3.0,4.0,yes,no,no,PIANO,6,GUITARRA,6,CANTO,6,FLAUTA,6.0,,,Ya lo hiceeee wii,67.0,yes
118,2023-10-01_18h53.04.363,Unsyncopated1,s26,27.0,feminino,right,ESPAÑA,CASTELLANO Y CATALÁN,Bachelor degree,no,no,B,1,what,L2,unsyncopated,s2,r1,118,Online_whatL2//a.go.du16.888.1776.wav,cha,bi,mi,sil,go,me,to,sil1,du,ño,sil2,['miss'],,,0.888,beat,,,,go,1,,,,,,,,,,,,,,,2.0,3.0,CASTELLANO,0.0,CATALÁN,0.0,3.0,4.0,yes,no,no,PIANO,6,GUITARRA,6,CANTO,6,FLAUTA,6.0,,,Ya lo hiceeee wii,67.0,yes
119,2023-10-01_18h53.04.363,Unsyncopated1,s26,27.0,feminino,right,ESPAÑA,CASTELLANO Y CATALÁN,Bachelor degree,no,no,B,1,what,L2,unsyncopated,s2,r1,119,Online_whatL2//a.go.du17.888.1776.wav,si,ño,bi,sil,go,te,ñu,sil1,du,su,sil2,['miss'],,,0.888,beat,,,,go,1,,,,,,,,,,,,,,,2.0,3.0,CASTELLANO,0.0,CATALÁN,0.0,3.0,4.0,yes,no,no,PIANO,6,GUITARRA,6,CANTO,6,FLAUTA,6.0,,,Ya lo hiceeee wii,67.0,yes
120,2023-10-01_18h53.04.363,Unsyncopated1,s26,27.0,feminino,right,ESPAÑA,CASTELLANO Y CATALÁN,Bachelor degree,no,no,B,1,what,L2,unsyncopated,s2,r2,120,Online_whatL2//b.fe.ra26.1110.1998.wav,si,me,bi,sil2,fe,cha,te,sil,ra,to,sil1,['miss'],,,1.998,no_beat,,,,ra,2,,,,,,,,,,,,,,,2.0,3.0,CASTELLANO,0.0,CATALÁN,0.0,3.0,4.0,yes,no,no,PIANO,6,GUITARRA,6,CANTO,6,FLAUTA,6.0,,,Ya lo hiceeee wii,67.0,yes
121,2023-10-01_18h53.04.363,Unsyncopated1,s26,27.0,feminino,right,ESPAÑA,CASTELLANO Y CATALÁN,Bachelor degree,no,no,B,1,what,L2,unsyncopated,s1,r2,121,Online_whatL2//b.fe.ra25.0.888.wav,fe,to,si,sil,ra,mi,su,sil2,cha,ño,sil1,['miss'],,,0.888,beat,,,,ra,2,,,,,,,,,,,,,,,2.0,3.0,CASTELLANO,0.0,CATALÁN,0.0,3.0,4.0,yes,no,no,PIANO,6,GUITARRA,6,CANTO,6,FLAUTA,6.0,,,Ya lo hiceeee wii,67.0,yes
122,2023-10-01_18h53.04.363,Unsyncopated1,s26,27.0,feminino,right,ESPAÑA,CASTELLANO Y CATALÁN,Bachelor degree,no,no,B,1,what,L2,unsyncopated,s2,r1,122,Online_whatL2//b.fe.ra24.none.none.wav,si,cha,su,sil2,go,mi,me,sil,du,bi,sil1,['-'],,,none,none,,,,ra,2,,,,,,,,,,,,,,,2.0,3.0,CASTELLANO,0.0,CATALÁN,0.0,3.0,4.0,yes,no,no,PIANO,6,GUITARRA,6,CANTO,6,FLAUTA,6.0,,,Ya lo hiceeee wii,67.0,yes
123,2023-10-01_18h53.04.363,Unsyncopated1,s26,27.0,feminino,right,ESPAÑA,CASTELLANO Y CATALÁN,Bachelor degree,no,no,B,1,what,L2,unsyncopated,s2,r1,123,Online_whatL2//b.fe.ra27.none.none.wav,mi,me,su,sil,go,cha,ño,sil2,du,te,sil1,['-'],,,none,none,,,,ra,2,,,,,,,,,,,,,,,2.0,3.0,CASTELLANO,0.0,CATALÁN,0.0,3.0,4.0,yes,no,no,PIANO,6,GUITARRA,6,CANTO,6,FLAUTA,6.0,,,Ya lo hiceeee wii,67.0,yes
124,2023-10-01_18h53.04.363,Unsyncopated1,s26,27.0,feminino,right,ESPAÑA,CASTELLANO Y CATALÁN,Bachelor degree,no,no,B,1,what,L2,unsyncopated,s2,r2,124,Online_whatL2//c.cha.me11.1332.0.wav,me,ba,si,sil2,fe,cha,ñu,sil,ra,bi,sil1,['miss'],,,0.0,beat,,,,me,3,,,,,,,,,,,,,,,2.0,3.0,CASTELLANO,0.0,CATALÁN,0.0,3.0,4.0,yes,no,no,PIANO,6,GUITARRA,6,CANTO,6,FLAUTA,6.0,,,Ya lo hiceeee wii,67.0,yes
125,2023-10-01_18h53.04.363,Unsyncopated1,s26,27.0,feminino,right,ESPAÑA,CASTELLANO Y CATALÁN,Bachelor degree,no,no,B,1,what,L2,unsyncopated,s1,r1,125,Online_whatL2//c.cha.me8.1998.1332.wav,go,ñu,ño,sil2,du,me,mi,sil,cha,su,sil1,['miss'],,,1.332,no_beat,,,,me,3,,,,,,,,,,,,,,,2.0,3.0,CASTELLANO,0.0,CATALÁN,0.0,3.0,4.0,yes,no,no,PIANO,6,GUITARRA,6,CANTO,6,FLAUTA,6.0,,,Ya lo hiceeee wii,67.0,yes
126,2023-10-01_18h53.04.363,Unsyncopated1,s26,27.0,feminino,right,ESPAÑA,CASTELLANO Y CATALÁN,Bachelor degree,no,no,B,1,what,L2,unsyncopated,s1,r2,126,Online_whatL2//c.cha.me10.222.1110.wav,fe,cha,ño,sil,ra,me,su,sil1,si,to,sil2,['miss'],,,1.11,no_beat,,,,me,3,,,,,,,,,,,,,,,2.0,3.0,CASTELLANO,0.0,CATALÁN,0.0,3.0,4.0,yes,no,no,PIANO,6,GUITARRA,6,CANTO,6,FLAUTA,6.0,,,Ya lo hiceeee wii,67.0,yes
127,2023-10-01_18h53.04.363,Unsyncopated1,s26,27.0,feminino,right,ESPAÑA,CASTELLANO Y CATALÁN,Bachelor degree,no,no,B,1,what,L2,unsyncopated,s2,r2,127,Online_whatL2//c.cha.me9.none.none.wav,te,to,si,sil2,fe,su,ñu,sil,ra,bi,sil1,['-'],,,none,none,,,,me,3,,,,,,,,,,,,,,,2.0,3.0,CASTELLANO,0.0,CATALÁN,0.0,3.0,4.0,yes,no,no,PIANO,6,GUITARRA,6,CANTO,6,FLAUTA,6.0,,,Ya lo hiceeee wii,67.0,yes
128,2023-10-01_18h53.04.363,Unsyncopated1,s26,27.0,feminino,right,ESPAÑA,CASTELLANO Y CATALÁN,Bachelor degree,no,no,B,2,conjunction_un,L1,unsyncopated,s2,r2,0,Online_conjL1_un//b.ta.be16.888.1776.wav,ze,cho,fo,sil,ta,ne,zu,sil1,be,lu,sil2,['catch'],[2.578400000035799],[2.578400000035799],1.776,beat,0.8024000000357991,0.8024000000357991,"[""space""]",be,2,,,,,,,,,,,,,,,2.0,3.0,CASTELLANO,0.0,CATALÁN,0.0,3.0,4.0,yes,no,no,PIANO,6,GUITARRA,6,CANTO,6,FLAUTA,6.0,,,Ya lo hiceeee wii,67.0,yes
129,2023-10-01_18h53.04.363,Unsyncopated1,s26,27.0,feminino,right,ESPAÑA,CASTELLANO Y CATALÁN,Bachelor degree,no,no,B,2,conjunction_un,L1,unsyncopated,s2,r1,1,Online_conjL1_un//b.ta.be18.none.none.wav,ne,ze,ro,sil,pu,la,cho,sil1,ki,lu,sil2,['-'],,,none,none,,,,be,2,,,,,,,,,,,,,,,2.0,3.0,CASTELLANO,0.0,CATALÁN,0.0,3.0,4.0,yes,no,no,PIANO,6,GUITARRA,6,CANTO,6,FLAUTA,6.0,,,Ya lo hiceeee wii,67.0,yes
130,2023-10-01_18h53.04.363,Unsyncopated1,s26,27.0,feminino,right,ESPAÑA,CASTELLANO Y CATALÁN,Bachelor degree,no,no,B,2,conjunction_un,L1,unsyncopated,s2,r2,2,Online_conjL1_un//b.ta.be19.888.1776.wav,zu,ni,lu,sil,ta,ri,la,sil1,be,ze,sil2,['catch'],[2.4708000000118773],[2.4708000000118773],1.776,beat,0.6948000000118773,0.6948000000118773,"[""space""]",be,2,,,,,,,,,,,,,,,2.0,3.0,CASTELLANO,0.0,CATALÁN,0.0,3.0,4.0,yes,no,no,PIANO,6,GUITARRA,6,CANTO,6,FLAUTA,6.0,,,Ya lo hiceeee wii,67.0,yes
131,2023-10-01_18h53.04.363,Unsyncopated1,s26,27.0,feminino,right,ESPAÑA,CASTELLANO Y CATALÁN,Bachelor degree,no,no,B,2,conjunction_un,L1,unsyncopated,s2,r2,3,Online_conjL1_un//b.ta.be17.888.1776.wav,ro,zu,ne,sil,ta,ze,fo,sil1,be,ri,sil2,['catch_delay'],[1.0255999999640955],[1.0255999999640955],1.776,beat,1.0255999999640957,1.0255999999640957,,be,2,,,,,,,,,,,,,,,2.0,3.0,CASTELLANO,0.0,CATALÁN,0.0,3.0,4.0,yes,no,no,PIANO,6,GUITARRA,6,CANTO,6,FLAUTA,6.0,,,Ya lo hiceeee wii,67.0,yes
132,2023-10-01_18h53.04.363,Unsyncopated1,s26,27.0,feminino,right,ESPAÑA,CASTELLANO Y CATALÁN,Bachelor degree,no,no,B,2,conjunction_un,L1,unsyncopated,s2,r2,4,Online_conjL1_un//c.ro.fo31.0.1110.wav,ro,ne,zu,sil,ta,fo,cho,sil1,be,ri,sil2,['miss'],[0.13759999996409533],[0.13759999996409533],1.11,no_beat,,,"[""space""]",fo,3,,,,,,,,,,,,,,,2.0,3.0,CASTELLANO,0.0,CATALÁN,0.0,3.0,4.0,yes,no,no,PIANO,6,GUITARRA,6,CANTO,6,FLAUTA,6.0,,,Ya lo hiceeee wii,67.0,yes
133,2023-10-01_18h53.04.363,Unsyncopated1,s26,27.0,feminino,right,ESPAÑA,CASTELLANO Y CATALÁN,Bachelor degree,no,no,B,2,conjunction_un,L1,unsyncopated,s1,r1,5,Online_conjL1_un//c.ro.fo30.none.none.wav,pu,ni,cho,sil,ki,la,lu,sil1,ne,fa,sil2,['-'],,,none,none,,,,fo,3,,,,,,,,,,,,,,,2.0,3.0,CASTELLANO,0.0,CATALÁN,0.0,3.0,4.0,yes,no,no,PIANO,6,GUITARRA,6,CANTO,6,FLAUTA,6.0,,,Ya lo hiceeee wii,67.0,yes
134,2023-10-01_18h53.04.363,Unsyncopated1,s26,27.0,feminino,right,ESPAÑA,CASTELLANO Y CATALÁN,Bachelor degree,no,no,B,2,conjunction_un,L1,unsyncopated,s1,r2,6,Online_conjL1_un//c.ro.fo28.444.1110.wav,ta,lu,ro,sil,be,fo,ri,sil1,cho,fa,sil2,['catch'],[2.08849999999984],[2.08849999999984],1.11,no_beat,0.9784999999998398,0.9784999999998398,"[""space""]",fo,3,,,,,,,,,,,,,,,2.0,3.0,CASTELLANO,0.0,CATALÁN,0.0,3.0,4.0,yes,no,no,PIANO,6,GUITARRA,6,CANTO,6,FLAUTA,6.0,,,Ya lo hiceeee wii,67.0,yes
135,2023-10-01_18h53.04.363,Unsyncopated1,s26,27.0,feminino,right,ESPAÑA,CASTELLANO Y CATALÁN,Bachelor degree,no,no,B,2,conjunction_un,L1,unsyncopated,s1,r1,7,Online_conjL1_un//c.ro.fo29.1110.1332.wav,pu,fa,ni,sil,ki,ro,fo,sil1,zu,cho,sil2,['miss'],,,1.332,no_beat,,,,fo,3,,,,,,,,,,,,,,,2.0,3.0,CASTELLANO,0.0,CATALÁN,0.0,3.0,4.0,yes,no,no,PIANO,6,GUITARRA,6,CANTO,6,FLAUTA,6.0,,,Ya lo hiceeee wii,67.0,yes
136,2023-10-01_18h53.04.363,Unsyncopated1,s26,27.0,feminino,right,ESPAÑA,CASTELLANO Y CATALÁN,Bachelor degree,no,no,B,2,conjunction_un,L1,unsyncopated,s1,r1,8,Online_conjL1_un//c.ro.fo2.none.none.wav,pu,ni,ne,sil,ki,la,ri,sil1,cho,zu,sil2,['-'],,,none,none,,,,fo,3,,,,,,,,,,,,,,,2.0,3.0,CASTELLANO,0.0,CATALÁN,0.0,3.0,4.0,yes,no,no,PIANO,6,GUITARRA,6,CANTO,6,FLAUTA,6.0,,,Ya lo hiceeee wii,67.0,yes
137,2023-10-01_18h53.04.363,Unsyncopated1,s26,27.0,feminino,right,ESPAÑA,CASTELLANO Y CATALÁN,Bachelor degree,no,no,B,2,conjunction_un,L1,unsyncopated,s1,r2,9,Online_conjL1_un//c.ro.fo3.222.1110.wav,ta,ro,ne,sil,be,fo,fa,sil1,cho,ze,sil2,['catch'],[1.9751000000237582],[1.9751000000237582],1.11,no_beat,0.8651000000237581,0.8651000000237581,"[""space""]",fo,3,,,,,,,,,,,,,,,2.0,3.0,CASTELLANO,0.0,CATALÁN,0.0,3.0,4.0,yes,no,no,PIANO,6,GUITARRA,6,CANTO,6,FLAUTA,6.0,,,Ya lo hiceeee wii,67.0,yes
138,2023-10-01_18h53.04.363,Unsyncopated1,s26,27.0,feminino,right,ESPAÑA,CASTELLANO Y CATALÁN,Bachelor degree,no,no,B,2,conjunction_un,L1,unsyncopated,s2,r1,10,Online_conjL1_un//c.ro.fo1.none.none.wav,cho,zu,fa,sil,pu,lu,ni,sil1,ki,ze,sil2,['false alarm'],[1.1905999999642063],[1.1905999999642063],none,none,,,"[""space""]",fo,3,,,,,,,,,,,,,,,2.0,3.0,CASTELLANO,0.0,CATALÁN,0.0,3.0,4.0,yes,no,no,PIANO,6,GUITARRA,6,CANTO,6,FLAUTA,6.0,,,Ya lo hiceeee wii,67.0,yes
139,2023-10-01_18h53.04.363,Unsyncopated1,s26,27.0,feminino,right,ESPAÑA,CASTELLANO Y CATALÁN,Bachelor degree,no,no,B,2,conjunction_un,L1,unsyncopated,s2,r2,11,Online_conjL1_un//c.ro.fo0.0.222.wav,ro,fo,ri,sil,ta,fa,zu,sil1,be,ze,sil2,['catch'],[1.1577999999522035],[1.1577999999522035],0.222,no_beat,0.9357999999522036,0.9357999999522036,"[""space""]",fo,3,,,,,,,,,,,,,,,2.0,3.0,CASTELLANO,0.0,CATALÁN,0.0,3.0,4.0,yes,no,no,PIANO,6,GUITARRA,6,CANTO,6,FLAUTA,6.0,,,Ya lo hiceeee wii,67.0,yes
140,2023-10-01_18h53.04.363,Unsyncopated1,s26,27.0,feminino,right,ESPAÑA,CASTELLANO Y CATALÁN,Bachelor degree,no,no,B,2,conjunction_un,L1,unsyncopated,s1,r2,12,Online_conjL1_un//b.ta.be21.0.888.wav,ta,fo,ri,sil,be,lu,ni,sil1,zu,la,sil2,['catch'],[1.56770000004758],[1.56770000004758],0.888,beat,0.67970000004758,0.67970000004758,"[""space""]",be,2,,,,,,,,,,,,,,,2.0,3.0,CASTELLANO,0.0,CATALÁN,0.0,3.0,4.0,yes,no,no,PIANO,6,GUITARRA,6,CANTO,6,FLAUTA,6.0,,,Ya lo hiceeee wii,67.0,yes
141,2023-10-01_18h53.04.363,Unsyncopated1,s26,27.0,feminino,right,ESPAÑA,CASTELLANO Y CATALÁN,Bachelor degree,no,no,B,2,conjunction_un,L1,unsyncopated,s1,r1,13,Online_conjL1_un//b.ta.be23.none.none.wav,pu,ro,zu,sil,ki,ze,ni,sil1,fo,ri,sil2,['-'],,,none,none,,,,be,2,,,,,,,,,,,,,,,2.0,3.0,CASTELLANO,0.0,CATALÁN,0.0,3.0,4.0,yes,no,no,PIANO,6,GUITARRA,6,CANTO,6,FLAUTA,6.0,,,Ya lo hiceeee wii,67.0,yes
142,2023-10-01_18h53.04.363,Unsyncopated1,s26,27.0,feminino,right,ESPAÑA,CASTELLANO Y CATALÁN,Bachelor degree,no,no,B,2,conjunction_un,L1,unsyncopated,s1,r1,14,Online_conjL1_un//b.ta.be22.none.none.wav,pu,ze,fa,sil,ki,zu,cho,sil1,ro,la,sil2,['false alarm'],[1.2419999999999618],[1.2419999999999618],none,none,,,"[""space""]",be,2,,,,,,,,,,,,,,,2.0,3.0,CASTELLANO,0.0,CATALÁN,0.0,3.0,4.0,yes,no,no,PIANO,6,GUITARRA,6,CANTO,6,FLAUTA,6.0,,,Ya lo hiceeee wii,67.0,yes
143,2023-10-01_18h53.04.363,Unsyncopated1,s26,27.0,feminino,right,ESPAÑA,CASTELLANO Y CATALÁN,Bachelor degree,no,no,B,2,conjunction_un,L1,unsyncopated,s1,r1,15,Online_conjL1_un//b.ta.be20.none.none.wav,pu,ri,ro,sil,ki,ze,ne,sil1,zu,fa,sil2,['-'],,,none,none,,,,be,2,,,,,,,,,,,,,,,2.0,3.0,CASTELLANO,0.0,CATALÁN,0.0,3.0,4.0,yes,no,no,PIANO,6,GUITARRA,6,CANTO,6,FLAUTA,6.0,,,Ya lo hiceeee wii,67.0,yes
144,2023-10-01_18h53.04.363,Unsyncopated1,s26,27.0,feminino,right,ESPAÑA,CASTELLANO Y CATALÁN,Bachelor degree,no,no,B,2,conjunction_un,L1,unsyncopated,s1,r1,16,Online_conjL1_un//b.ta.be2.none.none.wav,pu,ro,ri,sil,ki,fa,la,sil1,ze,zu,sil2,['-'],,,none,none,,,,be,2,,,,,,,,,,,,,,,2.0,3.0,CASTELLANO,0.0,CATALÁN,0.0,3.0,4.0,yes,no,no,PIANO,6,GUITARRA,6,CANTO,6,FLAUTA,6.0,,,Ya lo hiceeee wii,67.0,yes
145,2023-10-01_18h53.04.363,Unsyncopated1,s26,27.0,feminino,right,ESPAÑA,CASTELLANO Y CATALÁN,Bachelor degree,no,no,B,2,conjunction_un,L1,unsyncopated,s1,r2,17,Online_conjL1_un//b.ta.be3.0.888.wav,ta,fa,ri,sil,be,lu,ro,sil1,zu,la,sil2,['catch'],[1.7762000000477656],[1.7762000000477656],0.888,beat,0.8882000000477656,0.8882000000477656,"[""space""]",be,2,,,,,,,,,,,,,,,2.0,3.0,CASTELLANO,0.0,CATALÁN,0.0,3.0,4.0,yes,no,no,PIANO,6,GUITARRA,6,CANTO,6,FLAUTA,6.0,,,Ya lo hiceeee wii,67.0,yes
146,2023-10-01_18h53.04.363,Unsyncopated1,s26,27.0,feminino,right,ESPAÑA,CASTELLANO Y CATALÁN,Bachelor degree,no,no,B,2,conjunction_un,L1,unsyncopated,s2,r1,18,Online_conjL1_un//b.ta.be0.none.none.wav,fa,fo,ze,sil,pu,ri,zu,sil1,ki,ne,sil2,['-'],,,none,none,,,,be,2,,,,,,,,,,,,,,,2.0,3.0,CASTELLANO,0.0,CATALÁN,0.0,3.0,4.0,yes,no,no,PIANO,6,GUITARRA,6,CANTO,6,FLAUTA,6.0,,,Ya lo hiceeee wii,67.0,yes
147,2023-10-01_18h53.04.363,Unsyncopated1,s26,27.0,feminino,right,ESPAÑA,CASTELLANO Y CATALÁN,Bachelor degree,no,no,B,2,conjunction_un,L1,unsyncopated,s1,r1,19,Online_conjL1_un//b.ta.be1.none.none.wav,pu,fa,ne,sil,ki,fo,lu,sil1,cho,la,sil2,['-'],,,none,none,,,,be,2,,,,,,,,,,,,,,,2.0,3.0,CASTELLANO,0.0,CATALÁN,0.0,3.0,4.0,yes,no,no,PIANO,6,GUITARRA,6,CANTO,6,FLAUTA,6.0,,,Ya lo hiceeee wii,67.0,yes
148,2023-10-01_18h53.04.363,Unsyncopated1,s26,27.0,feminino,right,ESPAÑA,CASTELLANO Y CATALÁN,Bachelor degree,no,no,B,2,conjunction_un,L1,unsyncopated,s2,r2,20,Online_conjL1_un//d.ne.ni21.none.none.wav,lu,ro,ze,sil,ta,fo,cho,sil1,be,zu,sil2,['-'],,,none,none,,,,ni,4,,,,,,,,,,,,,,,2.0,3.0,CASTELLANO,0.0,CATALÁN,0.0,3.0,4.0,yes,no,no,PIANO,6,GUITARRA,6,CANTO,6,FLAUTA,6.0,,,Ya lo hiceeee wii,67.0,yes
149,2023-10-01_18h53.04.363,Unsyncopated1,s26,27.0,feminino,right,ESPAÑA,CASTELLANO Y CATALÁN,Bachelor degree,no,no,B,2,conjunction_un,L1,unsyncopated,s1,r1,21,Online_conjL1_un//d.ne.ni22.none.none.wav,pu,cho,la,sil,ki,ro,ze,sil1,ri,lu,sil2,['-'],,,none,none,,,,ni,4,,,,,,,,,,,,,,,2.0,3.0,CASTELLANO,0.0,CATALÁN,0.0,3.0,4.0,yes,no,no,PIANO,6,GUITARRA,6,CANTO,6,FLAUTA,6.0,,,Ya lo hiceeee wii,67.0,yes
150,2023-10-01_18h53.04.363,Unsyncopated1,s26,27.0,feminino,right,ESPAÑA,CASTELLANO Y CATALÁN,Bachelor degree,no,no,B,2,conjunction_un,L1,unsyncopated,s1,r1,22,Online_conjL1_un//d.ne.ni23.1110.222.wav,pu,ni,ro,sil,ki,ne,lu,sil1,zu,fa,sil2,['catch'],[1.2078000000119573],[1.2078000000119573],0.222,no_beat,0.9858000000119572,0.9858000000119572,"[""space""]",ni,4,,,,,,,,,,,,,,,2.0,3.0,CASTELLANO,0.0,CATALÁN,0.0,3.0,4.0,yes,no,no,PIANO,6,GUITARRA,6,CANTO,6,FLAUTA,6.0,,,Ya lo hiceeee wii,67.0,yes
151,2023-10-01_18h53.04.363,Unsyncopated1,s26,27.0,feminino,right,ESPAÑA,CASTELLANO Y CATALÁN,Bachelor degree,no,no,B,2,conjunction_un,L1,unsyncopated,s1,r1,23,Online_conjL1_un//d.ne.ni20.1110.1332.wav,pu,ro,fa,sil,ki,ne,ni,sil1,cho,fo,sil2,['catch'],[2.038600000023962],[2.038600000023962],1.332,no_beat,0.7066000000239618,0.7066000000239618,"[""space""]",ni,4,,,,,,,,,,,,,,,2.0,3.0,CASTELLANO,0.0,CATALÁN,0.0,3.0,4.0,yes,no,no,PIANO,6,GUITARRA,6,CANTO,6,FLAUTA,6.0,,,Ya lo hiceeee wii,67.0,yes
152,2023-10-01_18h53.04.363,Unsyncopated1,s26,27.0,feminino,right,ESPAÑA,CASTELLANO Y CATALÁN,Bachelor degree,no,no,B,2,conjunction_un,L1,unsyncopated,s2,r2,24,Online_conjL1_un//a.pu.ki12.none.none.wav,ri,ze,fo,sil,ta,lu,ro,sil1,be,ne,sil2,['-'],,,none,none,,,,pu,1,,,,,,,,,,,,,,,2.0,3.0,CASTELLANO,0.0,CATALÁN,0.0,3.0,4.0,yes,no,no,PIANO,6,GUITARRA,6,CANTO,6,FLAUTA,6.0,,,Ya lo hiceeee wii,67.0,yes
153,2023-10-01_18h53.04.363,Unsyncopated1,s26,27.0,feminino,right,ESPAÑA,CASTELLANO Y CATALÁN,Bachelor degree,no,no,B,2,conjunction_un,L1,unsyncopated,s2,r2,25,Online_conjL1_un//a.pu.ki14.none.none.wav,ne,ze,ni,sil,ta,zu,fo,sil1,be,lu,sil2,['-'],,,none,none,,,,pu,1,,,,,,,,,,,,,,,2.0,3.0,CASTELLANO,0.0,CATALÁN,0.0,3.0,4.0,yes,no,no,PIANO,6,GUITARRA,6,CANTO,6,FLAUTA,6.0,,,Ya lo hiceeee wii,67.0,yes
154,2023-10-01_18h53.04.363,Unsyncopated1,s26,27.0,feminino,right,ESPAÑA,CASTELLANO Y CATALÁN,Bachelor degree,no,no,B,2,conjunction_un,L1,unsyncopated,s1,r2,26,Online_conjL1_un//a.pu.ki13.none.none.wav,ta,ne,ro,sil,be,lu,fa,sil1,zu,la,sil2,['-'],,,none,none,,,,pu,1,,,,,,,,,,,,,,,2.0,3.0,CASTELLANO,0.0,CATALÁN,0.0,3.0,4.0,yes,no,no,PIANO,6,GUITARRA,6,CANTO,6,FLAUTA,6.0,,,Ya lo hiceeee wii,67.0,yes
155,2023-10-01_18h53.04.363,Unsyncopated1,s26,27.0,feminino,right,ESPAÑA,CASTELLANO Y CATALÁN,Bachelor degree,no,no,B,2,conjunction_un,L1,unsyncopated,s2,r1,27,Online_conjL1_un//a.pu.ki15.888.1776.wav,cho,ri,ne,sil,pu,ze,ni,sil1,ki,zu,sil2,['catch'],[1.67459999996413],[1.67459999996413],0.888,beat,0.7865999999641299,0.7865999999641299,"[""space""]",pu,1,,,,,,,,,,,,,,,2.0,3.0,CASTELLANO,0.0,CATALÁN,0.0,3.0,4.0,yes,no,no,PIANO,6,GUITARRA,6,CANTO,6,FLAUTA,6.0,,,Ya lo hiceeee wii,67.0,yes
156,2023-10-01_18h53.04.363,Unsyncopated1,s26,27.0,feminino,right,ESPAÑA,CASTELLANO Y CATALÁN,Bachelor degree,no,no,B,2,conjunction_un,L1,unsyncopated,s2,r1,28,Online_conjL1_un//a.pu.ki26.888.1776.wav,zu,ze,cho,sil,pu,ni,ne,sil1,ki,fo,sil2,['catch'],[2.1810999999643172],[2.1810999999643172],0.888,beat,,1.2930999999643171,"[""space""]",pu,1,,,,,,,,,,,,,,,2.0,3.0,CASTELLANO,0.0,CATALÁN,0.0,3.0,4.0,yes,no,no,PIANO,6,GUITARRA,6,CANTO,6,FLAUTA,6.0,,,Ya lo hiceeee wii,67.0,yes
157,2023-10-01_18h53.04.363,Unsyncopated1,s26,27.0,feminino,right,ESPAÑA,CASTELLANO Y CATALÁN,Bachelor degree,no,no,B,2,conjunction_un,L1,unsyncopated,s1,r2,29,Online_conjL1_un//a.pu.ki24.none.none.wav,ta,lu,ri,sil,be,la,zu,sil1,fa,ze,sil2,['-'],,,none,none,,,,pu,1,,,,,,,,,,,,,,,2.0,3.0,CASTELLANO,0.0,CATALÁN,0.0,3.0,4.0,yes,no,no,PIANO,6,GUITARRA,6,CANTO,6,FLAUTA,6.0,,,Ya lo hiceeee wii,67.0,yes
158,2023-10-01_18h53.04.363,Unsyncopated1,s26,27.0,feminino,right,ESPAÑA,CASTELLANO Y CATALÁN,Bachelor degree,no,no,B,2,conjunction_un,L1,unsyncopated,s1,r2,30,Online_conjL1_un//a.pu.ki27.none.none.wav,ta,fa,ro,sil,be,ze,ni,sil1,lu,fo,sil2,['-'],,,none,none,,,,pu,1,,,,,,,,,,,,,,,2.0,3.0,CASTELLANO,0.0,CATALÁN,0.0,3.0,4.0,yes,no,no,PIANO,6,GUITARRA,6,CANTO,6,FLAUTA,6.0,,,Ya lo hiceeee wii,67.0,yes
159,2023-10-01_18h53.04.363,Unsyncopated1,s26,27.0,feminino,right,ESPAÑA,CASTELLANO Y CATALÁN,Bachelor degree,no,no,B,2,conjunction_un,L1,unsyncopated,s1,r2,31,Online_conjL1_un//a.pu.ki25.none.none.wav,ta,lu,la,sil,be,cho,ro,sil1,ni,zu,sil2,['-'],,,none,none,,,,pu,1,,,,,,,,,,,,,,,2.0,3.0,CASTELLANO,0.0,CATALÁN,0.0,3.0,4.0,yes,no,no,PIANO,6,GUITARRA,6,CANTO,6,FLAUTA,6.0,,,Ya lo hiceeee wii,67.0,yes
160,2023-10-01_18h53.04.363,Unsyncopated1,s26,27.0,feminino,right,ESPAÑA,CASTELLANO Y CATALÁN,Bachelor degree,no,no,B,2,conjunction_un,L1,unsyncopated,s1,r2,32,Online_conjL1_un//a.pu.ki2.none.none.wav,ta,ro,ne,sil,be,lu,fo,sil1,la,ri,sil2,['-'],,,none,none,,,,pu,1,,,,,,,,,,,,,,,2.0,3.0,CASTELLANO,0.0,CATALÁN,0.0,3.0,4.0,yes,no,no,PIANO,6,GUITARRA,6,CANTO,6,FLAUTA,6.0,,,Ya lo hiceeee wii,67.0,yes
161,2023-10-01_18h53.04.363,Unsyncopated1,s26,27.0,feminino,right,ESPAÑA,CASTELLANO Y CATALÁN,Bachelor degree,no,no,B,2,conjunction_un,L1,unsyncopated,s2,r1,33,Online_conjL1_un//a.pu.ki0.888.1776.wav,ni,zu,ne,sil,pu,fa,ze,sil1,ki,ri,sil2,['catch'],[2.0411999999880663],[2.0411999999880663],0.888,beat,1.1531999999880664,1.1531999999880664,"[""space""]",pu,1,,,,,,,,,,,,,,,2.0,3.0,CASTELLANO,0.0,CATALÁN,0.0,3.0,4.0,yes,no,no,PIANO,6,GUITARRA,6,CANTO,6,FLAUTA,6.0,,,Ya lo hiceeee wii,67.0,yes
162,2023-10-01_18h53.04.363,Unsyncopated1,s26,27.0,feminino,right,ESPAÑA,CASTELLANO Y CATALÁN,Bachelor degree,no,no,B,2,conjunction_un,L1,unsyncopated,s1,r2,34,Online_conjL1_un//a.pu.ki3.none.none.wav,ta,fo,lu,sil,be,ze,cho,sil1,ri,la,sil2,['-'],,,none,none,,,,pu,1,,,,,,,,,,,,,,,2.0,3.0,CASTELLANO,0.0,CATALÁN,0.0,3.0,4.0,yes,no,no,PIANO,6,GUITARRA,6,CANTO,6,FLAUTA,6.0,,,Ya lo hiceeee wii,67.0,yes
163,2023-10-01_18h53.04.363,Unsyncopated1,s26,27.0,feminino,right,ESPAÑA,CASTELLANO Y CATALÁN,Bachelor degree,no,no,B,2,conjunction_un,L1,unsyncopated,s2,r1,35,Online_conjL1_un//a.pu.ki1.888.1776.wav,ro,fa,ne,sil,pu,lu,cho,sil1,ki,ri,sil2,['catch'],[1.589700000047742],[1.589700000047742],0.888,beat,0.7017000000477419,0.7017000000477419,"[""space""]",pu,1,,,,,,,,,,,,,,,2.0,3.0,CASTELLANO,0.0,CATALÁN,0.0,3.0,4.0,yes,no,no,PIANO,6,GUITARRA,6,CANTO,6,FLAUTA,6.0,,,Ya lo hiceeee wii,67.0,yes
164,2023-10-01_18h53.04.363,Unsyncopated1,s26,27.0,feminino,right,ESPAÑA,CASTELLANO Y CATALÁN,Bachelor degree,no,no,B,2,conjunction_un,L1,unsyncopated,s2,r2,36,Online_conjL1_un//c.ro.fo8.none.none.wav,ni,cho,ri,sil,ta,la,ze,sil1,be,zu,sil2,['-'],,,none,none,,,,fo,3,,,,,,,,,,,,,,,2.0,3.0,CASTELLANO,0.0,CATALÁN,0.0,3.0,4.0,yes,no,no,PIANO,6,GUITARRA,6,CANTO,6,FLAUTA,6.0,,,Ya lo hiceeee wii,67.0,yes
165,2023-10-01_18h53.04.363,Unsyncopated1,s26,27.0,feminino,right,ESPAÑA,CASTELLANO Y CATALÁN,Bachelor degree,no,no,B,2,conjunction_un,L1,unsyncopated,s1,r2,37,Online_conjL1_un//c.ro.fo10.none.none.wav,ta,zu,cho,sil,be,ze,la,sil1,ne,lu,sil2,['-'],,,none,none,,,,fo,3,,,,,,,,,,,,,,,2.0,3.0,CASTELLANO,0.0,CATALÁN,0.0,3.0,4.0,yes,no,no,PIANO,6,GUITARRA,6,CANTO,6,FLAUTA,6.0,,,Ya lo hiceeee wii,67.0,yes
166,2023-10-01_18h53.04.363,Unsyncopated1,s26,27.0,feminino,right,ESPAÑA,CASTELLANO Y CATALÁN,Bachelor degree,no,no,B,2,conjunction_un,L1,unsyncopated,s1,r2,38,Online_conjL1_un//c.ro.fo11.none.none.wav,ta,lu,la,sil,be,fa,ne,sil1,ze,ni,sil2,['-'],,,none,none,,,,fo,3,,,,,,,,,,,,,,,2.0,3.0,CASTELLANO,0.0,CATALÁN,0.0,3.0,4.0,yes,no,no,PIANO,6,GUITARRA,6,CANTO,6,FLAUTA,6.0,,,Ya lo hiceeee wii,67.0,yes
167,2023-10-01_18h53.04.363,Unsyncopated1,s26,27.0,feminino,right,ESPAÑA,CASTELLANO Y CATALÁN,Bachelor degree,no,no,B,2,conjunction_un,L1,unsyncopated,s2,r1,39,Online_conjL1_un//c.ro.fo9.1332.444.wav,ri,ze,fo,sil,pu,fa,ro,sil1,ki,ne,sil2,"['catch', 'false alarm']","[1.1089999999999236, 2.2570999999641117]",[1.1089999999999236],0.444,no_beat,0.6649999999999237,0.6649999999999237,"[""space"",""space""]",fo,3,,,,,,,,,,,,,,,2.0,3.0,CASTELLANO,0.0,CATALÁN,0.0,3.0,4.0,yes,no,no,PIANO,6,GUITARRA,6,CANTO,6,FLAUTA,6.0,,,Ya lo hiceeee wii,67.0,yes
168,2023-10-01_18h53.04.363,Unsyncopated1,s26,27.0,feminino,right,ESPAÑA,CASTELLANO Y CATALÁN,Bachelor degree,no,no,B,2,conjunction_un,L1,unsyncopated,s1,r1,40,Online_conjL1_un//a.pu.ki6.0.888.wav,pu,cho,fa,sil,ki,zu,ni,sil1,ne,ro,sil2,['catch'],[0.9851999999880263],[0.9851999999880263],0.0,beat,0.9851999999880264,0.9851999999880264,"[""space""]",pu,1,,,,,,,,,,,,,,,2.0,3.0,CASTELLANO,0.0,CATALÁN,0.0,3.0,4.0,yes,no,no,PIANO,6,GUITARRA,6,CANTO,6,FLAUTA,6.0,,,Ya lo hiceeee wii,67.0,yes
169,2023-10-01_18h53.04.363,Unsyncopated1,s26,27.0,feminino,right,ESPAÑA,CASTELLANO Y CATALÁN,Bachelor degree,no,no,B,2,conjunction_un,L1,unsyncopated,s1,r1,41,Online_conjL1_un//a.pu.ki7.0.888.wav,pu,la,fa,sil,ki,ri,ze,sil1,lu,ro,sil2,['miss'],,,0.0,beat,,,,pu,1,,,,,,,,,,,,,,,2.0,3.0,CASTELLANO,0.0,CATALÁN,0.0,3.0,4.0,yes,no,no,PIANO,6,GUITARRA,6,CANTO,6,FLAUTA,6.0,,,Ya lo hiceeee wii,67.0,yes
170,2023-10-01_18h53.04.363,Unsyncopated1,s26,27.0,feminino,right,ESPAÑA,CASTELLANO Y CATALÁN,Bachelor degree,no,no,B,2,conjunction_un,L1,unsyncopated,s2,r1,42,Online_conjL1_un//a.pu.ki4.888.1776.wav,ni,cho,fa,sil,pu,fo,ne,sil1,ki,la,sil2,['catch'],[1.5235000000000127],[1.5235000000000127],0.888,beat,0.6355000000000127,0.6355000000000127,"[""space""]",pu,1,,,,,,,,,,,,,,,2.0,3.0,CASTELLANO,0.0,CATALÁN,0.0,3.0,4.0,yes,no,no,PIANO,6,GUITARRA,6,CANTO,6,FLAUTA,6.0,,,Ya lo hiceeee wii,67.0,yes
171,2023-10-01_18h53.04.363,Unsyncopated1,s26,27.0,feminino,right,ESPAÑA,CASTELLANO Y CATALÁN,Bachelor degree,no,no,B,2,conjunction_un,L1,unsyncopated,s1,r1,43,Online_conjL1_un//a.pu.ki5.0.888.wav,pu,lu,zu,sil,ki,fo,la,sil1,cho,ze,sil2,['miss'],,,0.0,beat,,,,pu,1,,,,,,,,,,,,,,,2.0,3.0,CASTELLANO,0.0,CATALÁN,0.0,3.0,4.0,yes,no,no,PIANO,6,GUITARRA,6,CANTO,6,FLAUTA,6.0,,,Ya lo hiceeee wii,67.0,yes
172,2023-10-01_18h53.04.363,Unsyncopated1,s26,27.0,feminino,right,ESPAÑA,CASTELLANO Y CATALÁN,Bachelor degree,no,no,B,2,conjunction_un,L1,unsyncopated,s2,r2,44,Online_conjL1_un//b.ta.be31.888.1776.wav,la,cho,zu,sil,ta,ne,ri,sil1,be,ze,sil2,['catch'],[2.5821000000239565],[2.5821000000239565],1.776,beat,0.8061000000239564,0.8061000000239564,"[""space""]",be,2,,,,,,,,,,,,,,,2.0,3.0,CASTELLANO,0.0,CATALÁN,0.0,3.0,4.0,yes,no,no,PIANO,6,GUITARRA,6,CANTO,6,FLAUTA,6.0,,,Ya lo hiceeee wii,67.0,yes
173,2023-10-01_18h53.04.363,Unsyncopated1,s26,27.0,feminino,right,ESPAÑA,CASTELLANO Y CATALÁN,Bachelor degree,no,no,B,2,conjunction_un,L1,unsyncopated,s1,r1,45,Online_conjL1_un//b.ta.be30.none.none.wav,pu,fa,lu,sil,ki,ni,ne,sil1,ri,ro,sil2,['-'],,,none,none,,,,be,2,,,,,,,,,,,,,,,2.0,3.0,CASTELLANO,0.0,CATALÁN,0.0,3.0,4.0,yes,no,no,PIANO,6,GUITARRA,6,CANTO,6,FLAUTA,6.0,,,Ya lo hiceeee wii,67.0,yes
174,2023-10-01_18h53.04.363,Unsyncopated1,s26,27.0,feminino,right,ESPAÑA,CASTELLANO Y CATALÁN,Bachelor degree,no,no,B,2,conjunction_un,L1,unsyncopated,s1,r2,46,Online_conjL1_un//b.ta.be28.0.888.wav,ta,fo,ni,sil,be,ze,ne,sil1,fa,ri,sil2,['catch'],[2.092400000035923],[2.092400000035923],0.888,beat,,1.204400000035923,"[""space""]",be,2,,,,,,,,,,,,,,,2.0,3.0,CASTELLANO,0.0,CATALÁN,0.0,3.0,4.0,yes,no,no,PIANO,6,GUITARRA,6,CANTO,6,FLAUTA,6.0,,,Ya lo hiceeee wii,67.0,yes
175,2023-10-01_18h53.04.363,Unsyncopated1,s26,27.0,feminino,right,ESPAÑA,CASTELLANO Y CATALÁN,Bachelor degree,no,no,B,2,conjunction_un,L1,unsyncopated,s1,r2,47,Online_conjL1_un//b.ta.be29.0.888.wav,ta,ze,lu,sil,be,la,zu,sil1,fo,fa,sil2,['miss'],,,0.888,beat,,,,be,2,,,,,,,,,,,,,,,2.0,3.0,CASTELLANO,0.0,CATALÁN,0.0,3.0,4.0,yes,no,no,PIANO,6,GUITARRA,6,CANTO,6,FLAUTA,6.0,,,Ya lo hiceeee wii,67.0,yes
176,2023-10-01_18h53.04.363,Unsyncopated1,s26,27.0,feminino,right,ESPAÑA,CASTELLANO Y CATALÁN,Bachelor degree,no,no,B,2,conjunction_un,L1,unsyncopated,s2,r2,48,Online_conjL1_un//a.pu.ki19.none.none.wav,ze,fo,cho,sil,ta,fa,lu,sil1,be,ne,sil2,['-'],,,none,none,,,,pu,1,,,,,,,,,,,,,,,2.0,3.0,CASTELLANO,0.0,CATALÁN,0.0,3.0,4.0,yes,no,no,PIANO,6,GUITARRA,6,CANTO,6,FLAUTA,6.0,,,Ya lo hiceeee wii,67.0,yes
177,2023-10-01_18h53.04.363,Unsyncopated1,s26,27.0,feminino,right,ESPAÑA,CASTELLANO Y CATALÁN,Bachelor degree,no,no,B,2,conjunction_un,L1,unsyncopated,s2,r1,49,Online_conjL1_un//a.pu.ki17.888.1776.wav,ne,ro,ze,sil,pu,fo,lu,sil1,ki,zu,sil2,['catch'],[1.5751999999881718],[1.5751999999881718],0.888,beat,0.6871999999881718,0.6871999999881718,"[""space""]",pu,1,,,,,,,,,,,,,,,2.0,3.0,CASTELLANO,0.0,CATALÁN,0.0,3.0,4.0,yes,no,no,PIANO,6,GUITARRA,6,CANTO,6,FLAUTA,6.0,,,Ya lo hiceeee wii,67.0,yes
178,2023-10-01_18h53.04.363,Unsyncopated1,s26,27.0,feminino,right,ESPAÑA,CASTELLANO Y CATALÁN,Bachelor degree,no,no,B,2,conjunction_un,L1,unsyncopated,s2,r2,50,Online_conjL1_un//a.pu.ki16.none.none.wav,ze,zu,ni,sil,ta,lu,ne,sil1,be,ri,sil2,['-'],,,none,none,,,,pu,1,,,,,,,,,,,,,,,2.0,3.0,CASTELLANO,0.0,CATALÁN,0.0,3.0,4.0,yes,no,no,PIANO,6,GUITARRA,6,CANTO,6,FLAUTA,6.0,,,Ya lo hiceeee wii,67.0,yes
179,2023-10-01_18h53.04.363,Unsyncopated1,s26,27.0,feminino,right,ESPAÑA,CASTELLANO Y CATALÁN,Bachelor degree,no,no,B,2,conjunction_un,L1,unsyncopated,s2,r2,51,Online_conjL1_un//a.pu.ki18.none.none.wav,zu,ro,ze,sil,ta,fa,cho,sil1,be,ne,sil2,['-'],,,none,none,,,,pu,1,,,,,,,,,,,,,,,2.0,3.0,CASTELLANO,0.0,CATALÁN,0.0,3.0,4.0,yes,no,no,PIANO,6,GUITARRA,6,CANTO,6,FLAUTA,6.0,,,Ya lo hiceeee wii,67.0,yes
180,2023-10-01_18h53.04.363,Unsyncopated1,s26,27.0,feminino,right,ESPAÑA,CASTELLANO Y CATALÁN,Bachelor degree,no,no,B,2,conjunction_un,L1,unsyncopated,s1,r1,52,Online_conjL1_un//d.ne.ni12.1332.444.wav,pu,fo,ni,sil,ki,ri,ne,sil1,fa,zu,sil2,['catch'],[0.8696999999879154],[0.8696999999879154],0.444,no_beat,0.4256999999879153,0.4256999999879153,"[""space""]",ni,4,,,,,,,,,,,,,,,2.0,3.0,CASTELLANO,0.0,CATALÁN,0.0,3.0,4.0,yes,no,no,PIANO,6,GUITARRA,6,CANTO,6,FLAUTA,6.0,,,Ya lo hiceeee wii,67.0,yes
181,2023-10-01_18h53.04.363,Unsyncopated1,s26,27.0,feminino,right,ESPAÑA,CASTELLANO Y CATALÁN,Bachelor degree,no,no,B,2,conjunction_un,L1,unsyncopated,s1,r2,53,Online_conjL1_un//d.ne.ni14.222.1332.wav,ta,ne,ri,sil,be,fa,ni,sil1,cho,ro,sil2,['false alarm'],[1.2568999999762127],[1.2568999999762127],1.332,no_beat,,,"[""space""]",ni,4,,,,,,,,,,,,,,,2.0,3.0,CASTELLANO,0.0,CATALÁN,0.0,3.0,4.0,yes,no,no,PIANO,6,GUITARRA,6,CANTO,6,FLAUTA,6.0,,,Ya lo hiceeee wii,67.0,yes
182,2023-10-01_18h53.04.363,Unsyncopated1,s26,27.0,feminino,right,ESPAÑA,CASTELLANO Y CATALÁN,Bachelor degree,no,no,B,2,conjunction_un,L1,unsyncopated,s1,r1,54,Online_conjL1_un//d.ne.ni15.222.1110.wav,pu,ne,ze,sil,ki,ni,cho,sil1,lu,zu,sil2,['miss'],,,1.11,no_beat,,,,ni,4,,,,,,,,,,,,,,,2.0,3.0,CASTELLANO,0.0,CATALÁN,0.0,3.0,4.0,yes,no,no,PIANO,6,GUITARRA,6,CANTO,6,FLAUTA,6.0,,,Ya lo hiceeee wii,67.0,yes
183,2023-10-01_18h53.04.363,Unsyncopated1,s26,27.0,feminino,right,ESPAÑA,CASTELLANO Y CATALÁN,Bachelor degree,no,no,B,2,conjunction_un,L1,unsyncopated,s1,r2,55,Online_conjL1_un//d.ne.ni13.none.none.wav,ta,ri,fa,sil,be,fo,ze,sil1,ro,zu,sil2,['-'],,,none,none,,,,ni,4,,,,,,,,,,,,,,,2.0,3.0,CASTELLANO,0.0,CATALÁN,0.0,3.0,4.0,yes,no,no,PIANO,6,GUITARRA,6,CANTO,6,FLAUTA,6.0,,,Ya lo hiceeee wii,67.0,yes
184,2023-10-01_18h53.04.363,Unsyncopated1,s26,27.0,feminino,right,ESPAÑA,CASTELLANO Y CATALÁN,Bachelor degree,no,no,B,2,conjunction_un,L1,unsyncopated,s1,r2,56,Online_conjL1_un//b.ta.be11.0.888.wav,ta,fa,lu,sil,be,ni,ze,sil1,ri,ro,sil2,['catch'],[1.5836000000238073],[1.5836000000238073],0.888,beat,0.6956000000238073,0.6956000000238073,"[""space""]",be,2,,,,,,,,,,,,,,,2.0,3.0,CASTELLANO,0.0,CATALÁN,0.0,3.0,4.0,yes,no,no,PIANO,6,GUITARRA,6,CANTO,6,FLAUTA,6.0,,,Ya lo hiceeee wii,67.0,yes
185,2023-10-01_18h53.04.363,Unsyncopated1,s26,27.0,feminino,right,ESPAÑA,CASTELLANO Y CATALÁN,Bachelor degree,no,no,B,2,conjunction_un,L1,unsyncopated,s2,r1,57,Online_conjL1_un//b.ta.be10.none.none.wav,ni,lu,cho,sil,pu,fa,zu,sil1,ki,fo,sil2,['-'],,,none,none,,,,be,2,,,,,,,,,,,,,,,2.0,3.0,CASTELLANO,0.0,CATALÁN,0.0,3.0,4.0,yes,no,no,PIANO,6,GUITARRA,6,CANTO,6,FLAUTA,6.0,,,Ya lo hiceeee wii,67.0,yes
186,2023-10-01_18h53.04.363,Unsyncopated1,s26,27.0,feminino,right,ESPAÑA,CASTELLANO Y CATALÁN,Bachelor degree,no,no,B,2,conjunction_un,L1,unsyncopated,s1,r2,58,Online_conjL1_un//b.ta.be8.0.888.wav,ta,la,ne,sil,be,lu,ni,sil1,ro,fa,sil2,['catch'],[1.6893000000120537],[1.6893000000120537],0.888,beat,0.8013000000120537,0.8013000000120537,"[""space""]",be,2,,,,,,,,,,,,,,,2.0,3.0,CASTELLANO,0.0,CATALÁN,0.0,3.0,4.0,yes,no,no,PIANO,6,GUITARRA,6,CANTO,6,FLAUTA,6.0,,,Ya lo hiceeee wii,67.0,yes
187,2023-10-01_18h53.04.363,Unsyncopated1,s26,27.0,feminino,right,ESPAÑA,CASTELLANO Y CATALÁN,Bachelor degree,no,no,B,2,conjunction_un,L1,unsyncopated,s2,r1,59,Online_conjL1_un//b.ta.be9.none.none.wav,fa,ne,lu,sil,pu,ri,la,sil1,ki,ni,sil2,['-'],,,none,none,,,,be,2,,,,,,,,,,,,,,,2.0,3.0,CASTELLANO,0.0,CATALÁN,0.0,3.0,4.0,yes,no,no,PIANO,6,GUITARRA,6,CANTO,6,FLAUTA,6.0,,,Ya lo hiceeee wii,67.0,yes
188,2023-10-01_18h53.04.363,Unsyncopated1,s26,27.0,feminino,right,ESPAÑA,CASTELLANO Y CATALÁN,Bachelor degree,no,no,B,2,conjunction_un,L1,unsyncopated,s1,r1,60,Online_conjL1_un//a.pu.ki23.0.888.wav,pu,la,ze,sil,ki,cho,fo,sil1,ne,zu,sil2,['catch'],[0.8032000000478092],[0.8032000000478092],0.0,beat,0.8032000000478092,0.8032000000478092,"[""space""]",pu,1,,,,,,,,,,,,,,,2.0,3.0,CASTELLANO,0.0,CATALÁN,0.0,3.0,4.0,yes,no,no,PIANO,6,GUITARRA,6,CANTO,6,FLAUTA,6.0,,,Ya lo hiceeee wii,67.0,yes
189,2023-10-01_18h53.04.363,Unsyncopated1,s26,27.0,feminino,right,ESPAÑA,CASTELLANO Y CATALÁN,Bachelor degree,no,no,B,2,conjunction_un,L1,unsyncopated,s2,r1,61,Online_conjL1_un//a.pu.ki22.888.1776.wav,la,ze,zu,sil,pu,ne,cho,sil1,ki,ri,sil2,['catch'],[1.7561999999879845],[1.7561999999879845],0.888,beat,0.8681999999879845,0.8681999999879845,"[""space""]",pu,1,,,,,,,,,,,,,,,2.0,3.0,CASTELLANO,0.0,CATALÁN,0.0,3.0,4.0,yes,no,no,PIANO,6,GUITARRA,6,CANTO,6,FLAUTA,6.0,,,Ya lo hiceeee wii,67.0,yes
190,2023-10-01_18h53.04.363,Unsyncopated1,s26,27.0,feminino,right,ESPAÑA,CASTELLANO Y CATALÁN,Bachelor degree,no,no,B,2,conjunction_un,L1,unsyncopated,s2,r1,62,Online_conjL1_un//a.pu.ki21.888.1776.wav,zu,ri,ni,sil,pu,lu,fa,sil1,ki,ro,sil2,['catch'],[1.507900000035761],[1.507900000035761],0.888,beat,0.619900000035761,0.619900000035761,"[""space""]",pu,1,,,,,,,,,,,,,,,2.0,3.0,CASTELLANO,0.0,CATALÁN,0.0,3.0,4.0,yes,no,no,PIANO,6,GUITARRA,6,CANTO,6,FLAUTA,6.0,,,Ya lo hiceeee wii,67.0,yes
191,2023-10-01_18h53.04.363,Unsyncopated1,s26,27.0,feminino,right,ESPAÑA,CASTELLANO Y CATALÁN,Bachelor degree,no,no,B,2,conjunction_un,L1,unsyncopated,s1,r2,63,Online_conjL1_un//a.pu.ki20.none.none.wav,ta,ni,ze,sil,be,ri,ne,sil1,cho,fo,sil2,['-'],,,none,none,,,,pu,1,,,,,,,,,,,,,,,2.0,3.0,CASTELLANO,0.0,CATALÁN,0.0,3.0,4.0,yes,no,no,PIANO,6,GUITARRA,6,CANTO,6,FLAUTA,6.0,,,Ya lo hiceeee wii,67.0,yes
192,2023-10-01_18h53.04.363,Unsyncopated1,s26,27.0,feminino,right,ESPAÑA,CASTELLANO Y CATALÁN,Bachelor degree,no,no,B,2,conjunction_un,L1,unsyncopated,s2,r1,64,Online_conjL1_un//b.ta.be6.none.none.wav,la,fo,cho,sil,pu,fa,ro,sil1,ki,ze,sil2,['-'],,,none,none,,,,be,2,,,,,,,,,,,,,,,2.0,3.0,CASTELLANO,0.0,CATALÁN,0.0,3.0,4.0,yes,no,no,PIANO,6,GUITARRA,6,CANTO,6,FLAUTA,6.0,,,Ya lo hiceeee wii,67.0,yes
193,2023-10-01_18h53.04.363,Unsyncopated1,s26,27.0,feminino,right,ESPAÑA,CASTELLANO Y CATALÁN,Bachelor degree,no,no,B,2,conjunction_un,L1,unsyncopated,s2,r2,65,Online_conjL1_un//b.ta.be4.888.1776.wav,fa,ri,cho,sil,ta,ni,ze,sil1,be,ro,sil2,['catch'],[2.4536000000239255],[2.4536000000239255],1.776,beat,0.6776000000239255,0.6776000000239255,"[""space""]",be,2,,,,,,,,,,,,,,,2.0,3.0,CASTELLANO,0.0,CATALÁN,0.0,3.0,4.0,yes,no,no,PIANO,6,GUITARRA,6,CANTO,6,FLAUTA,6.0,,,Ya lo hiceeee wii,67.0,yes
194,2023-10-01_18h53.04.363,Unsyncopated1,s26,27.0,feminino,right,ESPAÑA,CASTELLANO Y CATALÁN,Bachelor degree,no,no,B,2,conjunction_un,L1,unsyncopated,s2,r1,66,Online_conjL1_un//b.ta.be7.none.none.wav,zu,fa,lu,sil,pu,fo,ri,sil1,ki,ne,sil2,['-'],,,none,none,,,,be,2,,,,,,,,,,,,,,,2.0,3.0,CASTELLANO,0.0,CATALÁN,0.0,3.0,4.0,yes,no,no,PIANO,6,GUITARRA,6,CANTO,6,FLAUTA,6.0,,,Ya lo hiceeee wii,67.0,yes
195,2023-10-01_18h53.04.363,Unsyncopated1,s26,27.0,feminino,right,ESPAÑA,CASTELLANO Y CATALÁN,Bachelor degree,no,no,B,2,conjunction_un,L1,unsyncopated,s2,r1,67,Online_conjL1_un//b.ta.be5.none.none.wav,ri,ni,fo,sil,pu,la,ze,sil1,ki,zu,sil2,['-'],,,none,none,,,,be,2,,,,,,,,,,,,,,,2.0,3.0,CASTELLANO,0.0,CATALÁN,0.0,3.0,4.0,yes,no,no,PIANO,6,GUITARRA,6,CANTO,6,FLAUTA,6.0,,,Ya lo hiceeee wii,67.0,yes
196,2023-10-01_18h53.04.363,Unsyncopated1,s26,27.0,feminino,right,ESPAÑA,CASTELLANO Y CATALÁN,Bachelor degree,no,no,B,2,conjunction_un,L1,unsyncopated,s1,r2,68,Online_conjL1_un//d.ne.ni8.1776.222.wav,ta,ni,ri,sil,be,zu,lu,sil1,ne,fa,sil2,['catch'],[0.8679999999999382],[0.8679999999999382],0.222,no_beat,0.6459999999999382,0.6459999999999382,"[""space""]",ni,4,,,,,,,,,,,,,,,2.0,3.0,CASTELLANO,0.0,CATALÁN,0.0,3.0,4.0,yes,no,no,PIANO,6,GUITARRA,6,CANTO,6,FLAUTA,6.0,,,Ya lo hiceeee wii,67.0,yes
197,2023-10-01_18h53.04.363,Unsyncopated1,s26,27.0,feminino,right,ESPAÑA,CASTELLANO Y CATALÁN,Bachelor degree,no,no,B,2,conjunction_un,L1,unsyncopated,s2,r1,69,Online_conjL1_un//d.ne.ni10.1110.222.wav,la,ni,cho,sil,pu,ne,lu,sil1,ki,zu,sil2,['miss'],,,0.222,no_beat,,,,ni,4,,,,,,,,,,,,,,,2.0,3.0,CASTELLANO,0.0,CATALÁN,0.0,3.0,4.0,yes,no,no,PIANO,6,GUITARRA,6,CANTO,6,FLAUTA,6.0,,,Ya lo hiceeee wii,67.0,yes
198,2023-10-01_18h53.04.363,Unsyncopated1,s26,27.0,feminino,right,ESPAÑA,CASTELLANO Y CATALÁN,Bachelor degree,no,no,B,2,conjunction_un,L1,unsyncopated,s2,r2,70,Online_conjL1_un//d.ne.ni11.none.none.wav,ro,zu,la,sil,ta,ze,cho,sil1,be,fa,sil2,['-'],,,none,none,,,,ni,4,,,,,,,,,,,,,,,2.0,3.0,CASTELLANO,0.0,CATALÁN,0.0,3.0,4.0,yes,no,no,PIANO,6,GUITARRA,6,CANTO,6,FLAUTA,6.0,,,Ya lo hiceeee wii,67.0,yes
199,2023-10-01_18h53.04.363,Unsyncopated1,s26,27.0,feminino,right,ESPAÑA,CASTELLANO Y CATALÁN,Bachelor degree,no,no,B,2,conjunction_un,L1,unsyncopated,s1,r2,71,Online_conjL1_un//d.ne.ni9.none.none.wav,ta,ro,fo,sil,be,zu,cho,sil1,lu,ze,sil2,['-'],,,none,none,,,,ni,4,,,,,,,,,,,,,,,2.0,3.0,CASTELLANO,0.0,CATALÁN,0.0,3.0,4.0,yes,no,no,PIANO,6,GUITARRA,6,CANTO,6,FLAUTA,6.0,,,Ya lo hiceeee wii,67.0,yes
200,2023-10-01_18h53.04.363,Unsyncopated1,s26,27.0,feminino,right,ESPAÑA,CASTELLANO Y CATALÁN,Bachelor degree,no,no,B,2,conjunction_un,L1,unsyncopated,s1,r1,72,Online_conjL1_un//d.ne.ni28.none.none.wav,pu,ro,ri,sil,ki,la,zu,sil1,lu,cho,sil2,['-'],,,none,none,,,,ni,4,,,,,,,,,,,,,,,2.0,3.0,CASTELLANO,0.0,CATALÁN,0.0,3.0,4.0,yes,no,no,PIANO,6,GUITARRA,6,CANTO,6,FLAUTA,6.0,,,Ya lo hiceeee wii,67.0,yes
201,2023-10-01_18h53.04.363,Unsyncopated1,s26,27.0,feminino,right,ESPAÑA,CASTELLANO Y CATALÁN,Bachelor degree,no,no,B,2,conjunction_un,L1,unsyncopated,s1,r1,73,Online_conjL1_un//d.ne.ni30.none.none.wav,pu,la,ro,sil,ki,ze,fa,sil1,ri,lu,sil2,['-'],,,none,none,,,,ni,4,,,,,,,,,,,,,,,2.0,3.0,CASTELLANO,0.0,CATALÁN,0.0,3.0,4.0,yes,no,no,PIANO,6,GUITARRA,6,CANTO,6,FLAUTA,6.0,,,Ya lo hiceeee wii,67.0,yes
202,2023-10-01_18h53.04.363,Unsyncopated1,s26,27.0,feminino,right,ESPAÑA,CASTELLANO Y CATALÁN,Bachelor degree,no,no,B,2,conjunction_un,L1,unsyncopated,s1,r2,74,Online_conjL1_un//d.ne.ni31.none.none.wav,ta,ro,cho,sil,be,ri,lu,sil1,fo,fa,sil2,['-'],,,none,none,,,,ni,4,,,,,,,,,,,,,,,2.0,3.0,CASTELLANO,0.0,CATALÁN,0.0,3.0,4.0,yes,no,no,PIANO,6,GUITARRA,6,CANTO,6,FLAUTA,6.0,,,Ya lo hiceeee wii,67.0,yes
203,2023-10-01_18h53.04.363,Unsyncopated1,s26,27.0,feminino,right,ESPAÑA,CASTELLANO Y CATALÁN,Bachelor degree,no,no,B,2,conjunction_un,L1,unsyncopated,s2,r2,75,Online_conjL1_un//d.ne.ni29.0.444.wav,ne,ro,ni,sil,ta,fa,cho,sil1,be,ri,sil2,['catch'],[1.2254000000357337],[1.2254000000357337],0.444,no_beat,0.7814000000357337,0.7814000000357337,"[""space""]",ni,4,,,,,,,,,,,,,,,2.0,3.0,CASTELLANO,0.0,CATALÁN,0.0,3.0,4.0,yes,no,no,PIANO,6,GUITARRA,6,CANTO,6,FLAUTA,6.0,,,Ya lo hiceeee wii,67.0,yes
204,2023-10-01_18h53.04.363,Unsyncopated1,s26,27.0,feminino,right,ESPAÑA,CASTELLANO Y CATALÁN,Bachelor degree,no,no,B,2,conjunction_un,L1,unsyncopated,s2,r1,76,Online_conjL1_un//c.ro.fo21.none.none.wav,zu,lu,cho,sil,pu,la,ne,sil1,ki,fa,sil2,['-'],,,none,none,,,,fo,3,,,,,,,,,,,,,,,2.0,3.0,CASTELLANO,0.0,CATALÁN,0.0,3.0,4.0,yes,no,no,PIANO,6,GUITARRA,6,CANTO,6,FLAUTA,6.0,,,Ya lo hiceeee wii,67.0,yes
205,2023-10-01_18h53.04.363,Unsyncopated1,s26,27.0,feminino,right,ESPAÑA,CASTELLANO Y CATALÁN,Bachelor degree,no,no,B,2,conjunction_un,L1,unsyncopated,s1,r1,77,Online_conjL1_un//c.ro.fo22.444.1332.wav,pu,la,ro,sil,ki,ri,fo,sil1,cho,ni,sil2,['miss'],,,1.332,no_beat,,,,fo,3,,,,,,,,,,,,,,,2.0,3.0,CASTELLANO,0.0,CATALÁN,0.0,3.0,4.0,yes,no,no,PIANO,6,GUITARRA,6,CANTO,6,FLAUTA,6.0,,,Ya lo hiceeee wii,67.0,yes
206,2023-10-01_18h53.04.363,Unsyncopated1,s26,27.0,feminino,right,ESPAÑA,CASTELLANO Y CATALÁN,Bachelor degree,no,no,B,2,conjunction_un,L1,unsyncopated,s1,r2,78,Online_conjL1_un//c.ro.fo20.none.none.wav,ta,ri,ni,sil,be,ze,cho,sil1,la,fa,sil2,['-'],,,none,none,,,,fo,3,,,,,,,,,,,,,,,2.0,3.0,CASTELLANO,0.0,CATALÁN,0.0,3.0,4.0,yes,no,no,PIANO,6,GUITARRA,6,CANTO,6,FLAUTA,6.0,,,Ya lo hiceeee wii,67.0,yes
207,2023-10-01_18h53.04.363,Unsyncopated1,s26,27.0,feminino,right,ESPAÑA,CASTELLANO Y CATALÁN,Bachelor degree,no,no,B,2,conjunction_un,L1,unsyncopated,s1,r1,79,Online_conjL1_un//c.ro.fo23.444.1332.wav,pu,ri,ro,sil,ki,ne,fo,sil1,cho,ze,sil2,['miss'],,,1.332,no_beat,,,,fo,3,,,,,,,,,,,,,,,2.0,3.0,CASTELLANO,0.0,CATALÁN,0.0,3.0,4.0,yes,no,no,PIANO,6,GUITARRA,6,CANTO,6,FLAUTA,6.0,,,Ya lo hiceeee wii,67.0,yes
208,2023-10-01_18h53.04.363,Unsyncopated1,s26,27.0,feminino,right,ESPAÑA,CASTELLANO Y CATALÁN,Bachelor degree,no,no,B,2,conjunction_un,L1,unsyncopated,s2,r2,80,Online_conjL1_un//c.ro.fo25.none.none.wav,ni,cho,fa,sil,ta,zu,la,sil1,be,lu,sil2,['-'],,,none,none,,,,fo,3,,,,,,,,,,,,,,,2.0,3.0,CASTELLANO,0.0,CATALÁN,0.0,3.0,4.0,yes,no,no,PIANO,6,GUITARRA,6,CANTO,6,FLAUTA,6.0,,,Ya lo hiceeee wii,67.0,yes
209,2023-10-01_18h53.04.363,Unsyncopated1,s26,27.0,feminino,right,ESPAÑA,CASTELLANO Y CATALÁN,Bachelor degree,no,no,B,2,conjunction_un,L1,unsyncopated,s1,r1,81,Online_conjL1_un//c.ro.fo27.1332.222.wav,pu,fo,lu,sil,ki,la,ro,sil1,ze,zu,sil2,['miss'],,,0.222,no_beat,,,,fo,3,,,,,,,,,,,,,,,2.0,3.0,CASTELLANO,0.0,CATALÁN,0.0,3.0,4.0,yes,no,no,PIANO,6,GUITARRA,6,CANTO,6,FLAUTA,6.0,,,Ya lo hiceeee wii,67.0,yes
210,2023-10-01_18h53.04.363,Unsyncopated1,s26,27.0,feminino,right,ESPAÑA,CASTELLANO Y CATALÁN,Bachelor degree,no,no,B,2,conjunction_un,L1,unsyncopated,s2,r1,82,Online_conjL1_un//c.ro.fo26.1332.0.wav,fo,lu,ne,sil,pu,ri,ro,sil1,ki,ze,sil2,['catch'],[0.8437000000476473],[0.8437000000476473],0.0,beat,0.8437000000476473,0.8437000000476473,"[""space""]",fo,3,,,,,,,,,,,,,,,2.0,3.0,CASTELLANO,0.0,CATALÁN,0.0,3.0,4.0,yes,no,no,PIANO,6,GUITARRA,6,CANTO,6,FLAUTA,6.0,,,Ya lo hiceeee wii,67.0,yes
211,2023-10-01_18h53.04.363,Unsyncopated1,s26,27.0,feminino,right,ESPAÑA,CASTELLANO Y CATALÁN,Bachelor degree,no,no,B,2,conjunction_un,L1,unsyncopated,s2,r1,83,Online_conjL1_un//c.ro.fo24.none.none.wav,la,lu,cho,sil,pu,fa,ri,sil1,ki,ze,sil2,['-'],,,none,none,,,,fo,3,,,,,,,,,,,,,,,2.0,3.0,CASTELLANO,0.0,CATALÁN,0.0,3.0,4.0,yes,no,no,PIANO,6,GUITARRA,6,CANTO,6,FLAUTA,6.0,,,Ya lo hiceeee wii,67.0,yes
212,2023-10-01_18h53.04.363,Unsyncopated1,s26,27.0,feminino,right,ESPAÑA,CASTELLANO Y CATALÁN,Bachelor degree,no,no,B,2,conjunction_un,L1,unsyncopated,s2,r2,84,Online_conjL1_un//d.ne.ni27.1110.0.wav,ni,fa,ri,sil,ta,ne,zu,sil1,be,la,sil2,['catch'],[0.8196999999881882],[0.8196999999881882],0.0,beat,0.8196999999881882,0.8196999999881882,"[""space""]",ni,4,,,,,,,,,,,,,,,2.0,3.0,CASTELLANO,0.0,CATALÁN,0.0,3.0,4.0,yes,no,no,PIANO,6,GUITARRA,6,CANTO,6,FLAUTA,6.0,,,Ya lo hiceeee wii,67.0,yes
213,2023-10-01_18h53.04.363,Unsyncopated1,s26,27.0,feminino,right,ESPAÑA,CASTELLANO Y CATALÁN,Bachelor degree,no,no,B,2,conjunction_un,L1,unsyncopated,s2,r1,85,Online_conjL1_un//d.ne.ni26.none.none.wav,lu,ri,ro,sil,pu,cho,fa,sil1,ki,ze,sil2,['-'],,,none,none,,,,ni,4,,,,,,,,,,,,,,,2.0,3.0,CASTELLANO,0.0,CATALÁN,0.0,3.0,4.0,yes,no,no,PIANO,6,GUITARRA,6,CANTO,6,FLAUTA,6.0,,,Ya lo hiceeee wii,67.0,yes
214,2023-10-01_18h53.04.363,Unsyncopated1,s26,27.0,feminino,right,ESPAÑA,CASTELLANO Y CATALÁN,Bachelor degree,no,no,B,2,conjunction_un,L1,unsyncopated,s2,r1,86,Online_conjL1_un//d.ne.ni24.1110.222.wav,ri,ni,fa,sil,pu,ne,ro,sil1,ki,fo,sil2,['catch'],[0.9591000000236818],[0.9591000000236818],0.222,no_beat,0.7371000000236818,0.7371000000236818,"[""space""]",ni,4,,,,,,,,,,,,,,,2.0,3.0,CASTELLANO,0.0,CATALÁN,0.0,3.0,4.0,yes,no,no,PIANO,6,GUITARRA,6,CANTO,6,FLAUTA,6.0,,,Ya lo hiceeee wii,67.0,yes
215,2023-10-01_18h53.04.363,Unsyncopated1,s26,27.0,feminino,right,ESPAÑA,CASTELLANO Y CATALÁN,Bachelor degree,no,no,B,2,conjunction_un,L1,unsyncopated,s1,r2,87,Online_conjL1_un//d.ne.ni25.none.none.wav,ta,fa,ze,sil,be,ro,lu,sil1,la,fo,sil2,['-'],,,none,none,,,,ni,4,,,,,,,,,,,,,,,2.0,3.0,CASTELLANO,0.0,CATALÁN,0.0,3.0,4.0,yes,no,no,PIANO,6,GUITARRA,6,CANTO,6,FLAUTA,6.0,,,Ya lo hiceeee wii,67.0,yes
216,2023-10-01_18h53.04.363,Unsyncopated1,s26,27.0,feminino,right,ESPAÑA,CASTELLANO Y CATALÁN,Bachelor degree,no,no,B,2,conjunction_un,L1,unsyncopated,s1,r2,88,Online_conjL1_un//c.ro.fo18.1776.222.wav,ta,fo,ni,sil,be,cho,zu,sil1,ro,ne,sil2,['miss'],,,0.222,no_beat,,,,fo,3,,,,,,,,,,,,,,,2.0,3.0,CASTELLANO,0.0,CATALÁN,0.0,3.0,4.0,yes,no,no,PIANO,6,GUITARRA,6,CANTO,6,FLAUTA,6.0,,,Ya lo hiceeee wii,67.0,yes
217,2023-10-01_18h53.04.363,Unsyncopated1,s26,27.0,feminino,right,ESPAÑA,CASTELLANO Y CATALÁN,Bachelor degree,no,no,B,2,conjunction_un,L1,unsyncopated,s2,r1,89,Online_conjL1_un//c.ro.fo17.none.none.wav,cho,lu,zu,sil,pu,ze,ni,sil1,ki,la,sil2,['-'],,,none,none,,,,fo,3,,,,,,,,,,,,,,,2.0,3.0,CASTELLANO,0.0,CATALÁN,0.0,3.0,4.0,yes,no,no,PIANO,6,GUITARRA,6,CANTO,6,FLAUTA,6.0,,,Ya lo hiceeee wii,67.0,yes
