Unnamed: 0,date,expName,participant,age,sex,hand,residence,native_lang,education_level,lang_deficit,aud_deficit,group,block,condition,language,rhythm,rule structure online,rule type online,order_trial_on,trial_online,s1,s2,s3,s4,s5,s6,s7,s8,s9,s10,s11,catch_syll_resp,rts_syll_catch,clean_rts,time_syll,beat_no_beat,catch_rtsTR,catch_rts,syllable_catch.keys,cond_syll,syll_to_catch,test_offline,block_off,condition_off,rhythm_off,rule,rule_str_off,rule_norule,conds_offline,language_off,Partz_no_partm.keys,Partz_no_partm.rt,security_1_7.keys,accuracy,security_1_7.rt,n_lang,n_lang_used,lang_1,age_l1,lang_2,age_l2,lang_3,age_l3,ability_learn_l2,tendence_mix_lan,music_experience,muisc_use,partiture,instr_1,age_M1,instr_2,age_M2,preguntas_musica1,BMRQ_answer.response,final comment,BMRQ_Score,bilingual
0,2024-02-22_20h01.24.323,Unsyncopated_study3,s124,20 ,feminino,right,españa,castellano y catalán,Upper secondary,no,no,A,1,what,L4,unsyncopated,s1,r1,0,Online_whatL4//a.zi.lo1.0.888.wav,zi,ru,po,sil,lo,ñi,da,sil2,de,bu,sil1,['catch'],[1.662700000047721],[1.662700000047721],0.888,beat,0.774700000047721,0.774700000047721,"[""space""]",lo,2,testWhatL4Uns//r2.s1.2.wav,1.0,what,unsyncopated,b,s1,rule,rule,L4,z,3.029,5.0,1.0,11.4924,3 ,2.0,Castellano,0.0,Catalán,0.0,Inglés,5.0,3.0,3.0,yes,no,yes,Canto,6,Flauta travesera,6,1. Cuando comparto música con alguien siento una complicidad especial con aquella persona.,3.0,nada ,68.0,yes
1,2024-02-22_20h01.24.323,Unsyncopated_study3,s124,20 ,feminino,right,españa,castellano y catalán,Upper secondary,no,no,A,1,what,L4,unsyncopated,s2,r1,1,Online_whatL4//a.zi.lo3.888.1998.wav,po,re,ñi,sil,zi,de,ña,sil2,lo,ci,sil1,['false alarm'],[1.8940000000000055],[1.8940000000000055],1.998,no_beat,,,"[""space""]",lo,2,testWhatL4Uns//r1.s1.2.wav,1.0,what,unsyncopated,a,s1,rule,rule,L4,z,0.7656,5.0,1.0,4.3984,3 ,2.0,Castellano,0.0,Catalán,0.0,Inglés,5.0,3.0,3.0,yes,no,yes,Canto,6,Flauta travesera,6,2. En mi tiempo libre apenas escucho música.,5.0,nada ,68.0,yes
2,2024-02-22_20h01.24.323,Unsyncopated_study3,s124,20 ,feminino,right,españa,castellano y catalán,Upper secondary,no,no,A,1,what,L4,unsyncopated,s1,r1,2,Online_whatL4//a.zi.lo2.0.1110.wav,zi,ñi,po,sil2,lo,re,bu,sil,de,da,sil1,['catch'],[1.9859000000952847],[1.9859000000952847],1.11,no_beat,0.8759000000952846,0.8759000000952846,"[""space""]",lo,2,testWhatL4Uns//cat_viol.r2.s1.0.wav,1.0,what,unsyncopated,b,s1,no_rule,cat,L4,m,1.1506,2.0,1.0,3.8854,3 ,2.0,Castellano,0.0,Catalán,0.0,Inglés,5.0,3.0,3.0,yes,no,yes,Canto,6,Flauta travesera,6,3. Algunas canciones me ponen los pelos de punta,3.0,nada ,68.0,yes
3,2024-02-22_20h01.24.323,Unsyncopated_study3,s124,20 ,feminino,right,españa,castellano y catalán,Upper secondary,no,no,A,1,what,L4,unsyncopated,s1,r1,3,Online_whatL4//a.zi.lo0.0.888.wav,zi,re,bo,sil,lo,pe,ña,sil1,de,bu,sil2,['false alarm'],[0.25559999990468896],[0.25559999990468896],0.888,beat,,,"[""space""]",lo,2,testWhatL4Uns//r1.s2.0.wav,1.0,what,unsyncopated,a,s2,rule,rule,L4,z,1.1171,6.0,1.0,1.6872,3 ,2.0,Castellano,0.0,Catalán,0.0,Inglés,5.0,3.0,3.0,yes,no,yes,Canto,6,Flauta travesera,6,4. La música me hace compañía cuando estoy solo,3.0,nada ,68.0,yes
4,2024-02-22_20h01.24.323,Unsyncopated_study3,s124,20 ,feminino,right,españa,castellano y catalán,Upper secondary,no,no,A,1,what,L4,unsyncopated,s2,r2,4,Online_whatL4//b.ja.nu23.888.1776.wav,bo,ci,ña,sil,ja,de,ru,sil1,nu,pe,sil2,['miss'],,,0.888,beat,,,,ja,1,testWhatL4Uns//cat_viol.r2.s2.0.wav,1.0,what,unsyncopated,b,s2,no_rule,cat,L4,m,1.5735,3.0,1.0,3.5712,3 ,2.0,Castellano,0.0,Catalán,0.0,Inglés,5.0,3.0,3.0,yes,no,yes,Canto,6,Flauta travesera,6,5. No me apetece bailar ni con la música que más me gusta,4.0,nada ,68.0,yes
5,2024-02-22_20h01.24.323,Unsyncopated_study3,s124,20 ,feminino,right,españa,castellano y catalán,Upper secondary,no,no,A,1,what,L4,unsyncopated,s1,r2,5,Online_whatL4//b.ja.nu20.0.888.wav,ja,ñi,ci,sil,nu,bo,de,sil2,po,pe,sil1,['miss'],,,0.0,beat,,,,ja,1,testWhatL4Uns//cat_viol.r1.s1.0.wav,1.0,what,unsyncopated,a,s1,no_rule,cat,L4,z,1.2756,5.0,0.0,1.9004,3 ,2.0,Castellano,0.0,Catalán,0.0,Inglés,5.0,3.0,3.0,yes,no,yes,Canto,6,Flauta travesera,6,6. La música me hace conectar con la gente,3.0,nada ,68.0,yes
6,2024-02-22_20h01.24.323,Unsyncopated_study3,s124,20 ,feminino,right,españa,castellano y catalán,Upper secondary,no,no,A,1,what,L4,unsyncopated,s2,r2,6,Online_whatL4//b.ja.nu21.1110.1998.wav,po,da,ci,sil2,ja,bu,re,sil,nu,pe,sil1,['miss'],,,1.11,no_beat,,,,ja,1,testWhatL4Uns//time_viol.r1.s1.0.wav,1.0,what,unsyncopated,a,s1,no_rule,time,L4,m,0.4872,3.0,1.0,1.4862,3 ,2.0,Castellano,0.0,Catalán,0.0,Inglés,5.0,3.0,3.0,yes,no,yes,Canto,6,Flauta travesera,6,7. Me informo sobre la música que me gusta.,3.0,nada ,68.0,yes
7,2024-02-22_20h01.24.323,Unsyncopated_study3,s124,20 ,feminino,right,españa,castellano y catalán,Upper secondary,no,no,A,1,what,L4,unsyncopated,s1,r1,7,Online_whatL4//b.ja.nu22.none.none.wav,zi,ñi,ci,sil,lo,da,pe,sil2,po,bo,sil1,['false alarm'],[1.2792999999522863],[1.2792999999522863],none,none,,,"[""space""]",ja,1,testWhatL4Uns//r2.s1.0.wav,1.0,what,unsyncopated,b,s1,rule,rule,L4,z,0.5672,5.0,1.0,1.8924,3 ,2.0,Castellano,0.0,Catalán,0.0,Inglés,5.0,3.0,3.0,yes,no,yes,Canto,6,Flauta travesera,6,8.Me emociono escuchando ciertas canciones.,4.0,nada ,68.0,yes
8,2024-02-22_20h01.24.323,Unsyncopated_study3,s124,20 ,feminino,right,españa,castellano y catalán,Upper secondary,no,no,A,1,what,L4,unsyncopated,s2,r1,8,Online_whatL4//b.ja.nu1.none.none.wav,pe,re,de,sil2,zi,ñi,da,sil,lo,po,sil1,['-'],,,none,none,,,,ja,1,testWhatL4Uns//cat_viol.r1.s2.0.wav,1.0,what,unsyncopated,a,s2,no_rule,cat,L4,m,0.304,2.0,1.0,2.825,3 ,2.0,Castellano,0.0,Catalán,0.0,Inglés,5.0,3.0,3.0,yes,no,yes,Canto,6,Flauta travesera,6,9.La música me tranquiliza y me relaja.,4.0,nada ,68.0,yes
9,2024-02-22_20h01.24.323,Unsyncopated_study3,s124,20 ,feminino,right,españa,castellano y catalán,Upper secondary,no,no,A,1,what,L4,unsyncopated,s2,r1,9,Online_whatL4//b.ja.nu2.none.none.wav,ña,re,ru,sil2,zi,de,bu,sil,lo,pe,sil1,['-'],,,none,none,,,,ja,1,testWhatL4Uns//time_viol.r1.s2.0.wav,1.0,what,unsyncopated,a,s2,no_rule,time,L4,m,0.9675,3.0,1.0,1.193,3 ,2.0,Castellano,0.0,Catalán,0.0,Inglés,5.0,3.0,3.0,yes,no,yes,Canto,6,Flauta travesera,6,10.La música me hace bailar,3.0,nada ,68.0,yes
10,2024-02-22_20h01.24.323,Unsyncopated_study3,s124,20 ,feminino,right,españa,castellano y catalán,Upper secondary,no,no,A,1,what,L4,unsyncopated,s1,r2,10,Online_whatL4//b.ja.nu0.0.888.wav,ja,pe,da,sil,nu,po,ña,sil1,ci,de,sil2,['miss'],,,0.0,beat,,,,ja,1,testWhatL4Uns//r1.s2.1.wav,1.0,what,unsyncopated,a,s2,rule,rule,L4,z,0.3187,4.0,1.0,1.3184,3 ,2.0,Castellano,0.0,Catalán,0.0,Inglés,5.0,3.0,3.0,yes,no,yes,Canto,6,Flauta travesera,6,11.Busco novedades musicales continuamente,3.0,nada ,68.0,yes
11,2024-02-22_20h01.24.323,Unsyncopated_study3,s124,20 ,feminino,right,españa,castellano y catalán,Upper secondary,no,no,A,1,what,L4,unsyncopated,s1,r1,11,Online_whatL4//b.ja.nu3.none.none.wav,zi,ci,pe,sil,lo,da,bu,sil2,bo,re,sil1,['-'],,,none,none,,,,ja,1,testWhatL4Uns//time_viol.r2.s1.0.wav,1.0,what,unsyncopated,b,s1,no_rule,time,L4,m,0.4172,4.0,1.0,1.9393,3 ,2.0,Castellano,0.0,Catalán,0.0,Inglés,5.0,3.0,3.0,yes,no,yes,Canto,6,Flauta travesera,6,12. Puedo llorar cuando escucho algunas melodías que me gustan mucho.,3.0,nada ,68.0,yes
12,2024-02-22_20h01.24.323,Unsyncopated_study3,s124,20 ,feminino,right,españa,castellano y catalán,Upper secondary,no,no,A,1,what,L4,unsyncopated,s2,r1,12,Online_whatL4//c.bu.da14.222.444.wav,po,bu,da,sil,zi,pe,re,sil2,lo,ña,sil1,['catch'],[0.7438000001907312],[0.7438000001907312],0.222,no_beat,0.5218000001907313,0.5218000001907313,"[""space""]",bu,3,testWhatL4Uns//dep_viol.r1.s2.0.wav,1.0,what,unsyncopated,a,s2,no_rule,dep,L4,z,1.2746,4.0,0.0,1.4068,3 ,2.0,Castellano,0.0,Catalán,0.0,Inglés,5.0,3.0,3.0,yes,no,yes,Canto,6,Flauta travesera,6,13. Me gusta cantar o tocar un instrumento con más gente,3.0,nada ,68.0,yes
13,2024-02-22_20h01.24.323,Unsyncopated_study3,s124,20 ,feminino,right,españa,castellano y catalán,Upper secondary,no,no,A,1,what,L4,unsyncopated,s1,r2,13,Online_whatL4//c.bu.da13.1332.444.wav,ja,de,da,sil,nu,ci,bu,sil1,ña,po,sil2,['miss'],,,1.332,no_beat,,,,bu,3,testWhatL4Uns//dep_viol.r1.s1.0.wav,1.0,what,unsyncopated,a,s1,no_rule,dep,L4,z,1.2738,2.0,0.0,1.686,3 ,2.0,Castellano,0.0,Catalán,0.0,Inglés,5.0,3.0,3.0,yes,no,yes,Canto,6,Flauta travesera,6,14. La música me ayuda a desconectar.,4.0,nada ,68.0,yes
14,2024-02-22_20h01.24.323,Unsyncopated_study3,s124,20 ,feminino,right,españa,castellano y catalán,Upper secondary,no,no,A,1,what,L4,unsyncopated,s1,r1,14,Online_whatL4//c.bu.da15.1110.222.wav,zi,da,ru,sil,lo,bu,bo,sil1,ñi,ci,sil2,['miss'],,,1.11,no_beat,,,,bu,3,testWhatL4Uns//r2.s1.1.wav,1.0,what,unsyncopated,b,s1,rule,rule,L4,m,2.2257,1.0,0.0,1.9344,3 ,2.0,Castellano,0.0,Catalán,0.0,Inglés,5.0,3.0,3.0,yes,no,yes,Canto,6,Flauta travesera,6,15. No puedo evitar tararear las canciones que me gustan cuando las escucho.,4.0,nada ,68.0,yes
15,2024-02-22_20h01.24.323,Unsyncopated_study3,s124,20 ,feminino,right,españa,castellano y catalán,Upper secondary,no,no,A,1,what,L4,unsyncopated,s2,r2,15,Online_whatL4//c.bu.da12.none.none.wav,re,ñi,ña,sil,ja,po,bo,sil2,nu,de,sil1,['-'],,,none,none,,,,bu,3,testWhatL4Uns//r2.s2.2.wav,1.0,what,unsyncopated,b,s2,rule,rule,L4,m,1.0718,2.0,0.0,1.477,3 ,2.0,Castellano,0.0,Catalán,0.0,Inglés,5.0,3.0,3.0,yes,no,yes,Canto,6,Flauta travesera,6,16. En los conciertos me siento en sintonía con los artistas y el público.,4.0,nada ,68.0,yes
16,2024-02-22_20h01.24.323,Unsyncopated_study3,s124,20 ,feminino,right,españa,castellano y catalán,Upper secondary,no,no,A,1,what,L4,unsyncopated,s2,r2,16,Online_whatL4//d.pe.po6.none.none.wav,ñi,bu,ru,sil,ja,ña,ci,sil1,nu,de,sil2,['-'],,,none,none,,,,pe,4,testWhatL4Uns//r1.s2.2.wav,1.0,what,unsyncopated,a,s2,rule,rule,L4,z,0.6508,3.0,1.0,1.3108,3 ,2.0,Castellano,0.0,Catalán,0.0,Inglés,5.0,3.0,3.0,yes,no,yes,Canto,6,Flauta travesera,6,17. Me gasto bastante dinero en música y cosas relacionadas con la música.,2.0,nada ,68.0,yes
17,2024-02-22_20h01.24.323,Unsyncopated_study3,s124,20 ,feminino,right,españa,castellano y catalán,Upper secondary,no,no,A,1,what,L4,unsyncopated,s2,r1,17,Online_whatL4//d.pe.po5.none.none.wav,bo,da,ña,sil,zi,bu,re,sil2,lo,de,sil1,['-'],,,none,none,,,,pe,4,testWhatL4Uns//r2.s2.1.wav,1.0,what,unsyncopated,b,s2,rule,rule,L4,m,0.584,3.0,0.0,1.3932,3 ,2.0,Castellano,0.0,Catalán,0.0,Inglés,5.0,3.0,3.0,yes,no,yes,Canto,6,Flauta travesera,6,18. Siento escalofríos cuando escucho una melodía que me gusta.,3.0,nada ,68.0,yes
18,2024-02-22_20h01.24.323,Unsyncopated_study3,s124,20 ,feminino,right,españa,castellano y catalán,Upper secondary,no,no,A,1,what,L4,unsyncopated,s2,r1,18,Online_whatL4//d.pe.po4.1554.444.wav,bu,ci,po,sil2,zi,de,pe,sil,lo,bo,sil1,['miss'],,,1.554,no_beat,,,,pe,4,testWhatL4Uns//time_viol.r2.s2.0.wav,1.0,what,unsyncopated,b,s2,no_rule,time,L4,m,0.6004,3.0,1.0,0.9376,3 ,2.0,Castellano,0.0,Catalán,0.0,Inglés,5.0,3.0,3.0,yes,no,yes,Canto,6,Flauta travesera,6,19. Con la música me puedo desahogar.,4.0,nada ,68.0,yes
19,2024-02-22_20h01.24.323,Unsyncopated_study3,s124,20 ,feminino,right,españa,castellano y catalán,Upper secondary,no,no,A,1,what,L4,unsyncopated,s2,r2,19,Online_whatL4//d.pe.po7.444.0.wav,po,bo,pe,sil,ja,ci,da,sil1,nu,ñi,sil2,['miss'],,,0.444,no_beat,,,,pe,4,testWhatL4Uns//r1.s1.0.wav,1.0,what,unsyncopated,a,s1,rule,rule,L4,m,0.4611,3.0,0.0,1.4025,3 ,2.0,Castellano,0.0,Catalán,0.0,Inglés,5.0,3.0,3.0,yes,no,yes,Canto,6,Flauta travesera,6,20. Cuando escucho una melodía que me gusta mucho no puedo evitar mover el cuerpo.,3.0,nada ,68.0,yes
20,2024-02-22_20h01.24.323,Unsyncopated_study3,s124,20 ,feminino,right,españa,castellano y catalán,Upper secondary,no,no,A,1,what,L4,unsyncopated,s1,r2,20,Online_whatL4//a.zi.lo8.none.none.wav,ja,bo,ña,sil2,nu,po,pe,sil,de,ñi,sil1,['-'],,,none,none,,,,lo,2,testWhatL4Uns//r2.s2.0.wav,1.0,what,unsyncopated,b,s2,rule,rule,L4,m,0.5337,2.0,0.0,0.9008,3 ,2.0,Castellano,0.0,Catalán,0.0,Inglés,5.0,3.0,3.0,yes,no,yes,Canto,6,Flauta travesera,6,,,nada ,68.0,yes
21,2024-02-22_20h01.24.323,Unsyncopated_study3,s124,20 ,feminino,right,españa,castellano y catalán,Upper secondary,no,no,A,1,what,L4,unsyncopated,s2,r2,21,Online_whatL4//a.zi.lo11.none.none.wav,ru,po,re,sil,ja,bo,ña,sil1,nu,de,sil2,['-'],,,none,none,,,,lo,2,testWhatL4Uns//dep_viol.r2.s1.0.wav,1.0,what,unsyncopated,b,s1,no_rule,dep,L4,m,0.5012,2.0,1.0,0.7591,3 ,2.0,Castellano,0.0,Catalán,0.0,Inglés,5.0,3.0,3.0,yes,no,yes,Canto,6,Flauta travesera,6,,,nada ,68.0,yes
22,2024-02-22_20h01.24.323,Unsyncopated_study3,s124,20 ,feminino,right,españa,castellano y catalán,Upper secondary,no,no,A,1,what,L4,unsyncopated,s2,r2,22,Online_whatL4//a.zi.lo9.none.none.wav,pe,bu,ñi,sil2,ja,re,de,sil,nu,ña,sil1,['-'],,,none,none,,,,lo,2,testWhatL4Uns//dep_viol.r2.s2.0.wav,1.0,what,unsyncopated,b,s2,no_rule,dep,L4,m,2.623,2.0,1.0,1.1594,3 ,2.0,Castellano,0.0,Catalán,0.0,Inglés,5.0,3.0,3.0,yes,no,yes,Canto,6,Flauta travesera,6,,,nada ,68.0,yes
23,2024-02-22_20h01.24.323,Unsyncopated_study3,s124,20 ,feminino,right,españa,castellano y catalán,Upper secondary,no,no,A,1,what,L4,unsyncopated,s2,r1,23,Online_whatL4//a.zi.lo10.888.1776.wav,ña,ci,de,sil,zi,bu,re,sil1,lo,ñi,sil2,['miss'],,,1.776,beat,,,,lo,2,testWhatL4Uns//r1.s1.1.wav,1.0,what,unsyncopated,a,s1,rule,rule,L4,z,0.537,3.0,1.0,1.75,3 ,2.0,Castellano,0.0,Catalán,0.0,Inglés,5.0,3.0,3.0,yes,no,yes,Canto,6,Flauta travesera,6,,,nada ,68.0,yes
24,2024-02-22_20h01.24.323,Unsyncopated_study3,s124,20 ,feminino,right,españa,castellano y catalán,Upper secondary,no,no,A,1,what,L4,unsyncopated,s2,r1,24,Online_whatL4//a.zi.lo14.888.1998.wav,ru,bo,re,sil,zi,de,po,sil2,lo,ñi,sil1,['false alarm'],[0.36739999985695704],[0.36739999985695704],1.998,no_beat,,,"[""space""]",lo,2,testConjL2Syn//r1.s2.0.wav,2.0,conjunction_syn,syncopated,a,s2,rule,rule,L2,z,0.4207,5.0,1.0,1.0746,3 ,2.0,Castellano,0.0,Catalán,0.0,Inglés,5.0,3.0,3.0,yes,no,yes,Canto,6,Flauta travesera,6,,,nada ,68.0,yes
25,2024-02-22_20h01.24.323,Unsyncopated_study3,s124,20 ,feminino,right,españa,castellano y catalán,Upper secondary,no,no,A,1,what,L4,unsyncopated,s1,r1,25,Online_whatL4//a.zi.lo13.0.888.wav,zi,pe,da,sil,lo,ru,ci,sil2,re,bu,sil1,['miss'],,,0.888,beat,,,,lo,2,testConjL2Syn//r1.s1.0.wav,2.0,conjunction_syn,syncopated,a,s1,rule,rule,L2,z,0.3545,6.0,1.0,1.2852,3 ,2.0,Castellano,0.0,Catalán,0.0,Inglés,5.0,3.0,3.0,yes,no,yes,Canto,6,Flauta travesera,6,,,nada ,68.0,yes
26,2024-02-22_20h01.24.323,Unsyncopated_study3,s124,20 ,feminino,right,españa,castellano y catalán,Upper secondary,no,no,A,1,what,L4,unsyncopated,s1,r2,26,Online_whatL4//a.zi.lo15.none.none.wav,ja,ru,po,sil2,nu,de,bo,sil,ña,bu,sil1,['-'],,,none,none,,,,lo,2,testConjL2Syn//r1.s1.2.wav,2.0,conjunction_syn,syncopated,a,s1,rule,rule,L2,m,0.4182,4.0,0.0,1.0811,3 ,2.0,Castellano,0.0,Catalán,0.0,Inglés,5.0,3.0,3.0,yes,no,yes,Canto,6,Flauta travesera,6,,,nada ,68.0,yes
27,2024-02-22_20h01.24.323,Unsyncopated_study3,s124,20 ,feminino,right,españa,castellano y catalán,Upper secondary,no,no,A,1,what,L4,unsyncopated,s1,r1,27,Online_whatL4//a.zi.lo12.0.888.wav,zi,po,da,sil,lo,bo,de,sil1,ña,pe,sil2,['miss'],,,0.888,beat,,,,lo,2,testConjL2Syn//cat_viol.r2.s2.0.wav,2.0,conjunction_syn,syncopated,b,s2,no_rule,cat,L2,m,0.8721,3.0,1.0,1.441,3 ,2.0,Castellano,0.0,Catalán,0.0,Inglés,5.0,3.0,3.0,yes,no,yes,Canto,6,Flauta travesera,6,,,nada ,68.0,yes
28,2024-02-22_20h01.24.323,Unsyncopated_study3,s124,20 ,feminino,right,españa,castellano y catalán,Upper secondary,no,no,A,1,what,L4,unsyncopated,s1,r2,28,Online_whatL4//d.pe.po13.none.none.wav,ja,da,bo,sil2,nu,ru,re,sil,ci,bu,sil1,['-'],,,none,none,,,,pe,4,testConjL2Syn//dep_viol.r1.s2.0.wav,2.0,conjunction_syn,syncopated,a,s2,no_rule,dep,L2,z,0.3665,5.0,0.0,1.6566,3 ,2.0,Castellano,0.0,Catalán,0.0,Inglés,5.0,3.0,3.0,yes,no,yes,Canto,6,Flauta travesera,6,,,nada ,68.0,yes
29,2024-02-22_20h01.24.323,Unsyncopated_study3,s124,20 ,feminino,right,españa,castellano y catalán,Upper secondary,no,no,A,1,what,L4,unsyncopated,s2,r2,29,Online_whatL4//d.pe.po15.none.none.wav,ña,ci,bo,sil2,ja,bu,ñi,sil,nu,ru,sil1,['-'],,,none,none,,,,pe,4,testConjL2Syn//cat_viol.r1.s1.0.wav,2.0,conjunction_syn,syncopated,a,s1,no_rule,cat,L2,m,0.5696,3.0,1.0,0.9861,3 ,2.0,Castellano,0.0,Catalán,0.0,Inglés,5.0,3.0,3.0,yes,no,yes,Canto,6,Flauta travesera,6,,,nada ,68.0,yes
30,2024-02-22_20h01.24.323,Unsyncopated_study3,s124,20 ,feminino,right,españa,castellano y catalán,Upper secondary,no,no,A,1,what,L4,unsyncopated,s1,r2,30,Online_whatL4//d.pe.po12.none.none.wav,ja,ci,da,sil,nu,re,ñi,sil2,ña,bu,sil1,['-'],,,none,none,,,,pe,4,testConjL2Syn//r2.s1.0.wav,2.0,conjunction_syn,syncopated,b,s1,rule,rule,L2,z,1.1503,4.0,1.0,1.3532,3 ,2.0,Castellano,0.0,Catalán,0.0,Inglés,5.0,3.0,3.0,yes,no,yes,Canto,6,Flauta travesera,6,,,nada ,68.0,yes
31,2024-02-22_20h01.24.323,Unsyncopated_study3,s124,20 ,feminino,right,españa,castellano y catalán,Upper secondary,no,no,A,1,what,L4,unsyncopated,s2,r1,31,Online_whatL4//d.pe.po14.222.444.wav,ñi,pe,po,sil2,zi,ña,da,sil,lo,ci,sil1,['miss'],,,0.222,no_beat,,,,pe,4,testConjL2Syn//r1.s1.1.wav,2.0,conjunction_syn,syncopated,a,s1,rule,rule,L2,z,0.6381,3.0,1.0,0.884,3 ,2.0,Castellano,0.0,Catalán,0.0,Inglés,5.0,3.0,3.0,yes,no,yes,Canto,6,Flauta travesera,6,,,nada ,68.0,yes
32,2024-02-22_20h01.24.323,Unsyncopated_study3,s124,20 ,feminino,right,españa,castellano y catalán,Upper secondary,no,no,A,1,what,L4,unsyncopated,s2,r2,32,Online_whatL4//c.bu.da0.444.1332.wav,re,de,bu,sil2,ja,da,bo,sil,nu,pe,sil1,['catch'],[1.3798000001908122],[1.3798000001908122],0.444,no_beat,0.9358000001908122,0.9358000001908122,"[""space""]",bu,3,testConjL2Syn//cat_viol.r2.s1.0.wav,2.0,conjunction_syn,syncopated,b,s1,no_rule,cat,L2,z,0.3375,3.0,0.0,0.3907,3 ,2.0,Castellano,0.0,Catalán,0.0,Inglés,5.0,3.0,3.0,yes,no,yes,Canto,6,Flauta travesera,6,,,nada ,68.0,yes
33,2024-02-22_20h01.24.323,Unsyncopated_study3,s124,20 ,feminino,right,españa,castellano y catalán,Upper secondary,no,no,A,1,what,L4,unsyncopated,s2,r1,33,Online_whatL4//c.bu.da2.1332.222.wav,de,da,po,sil,zi,ru,bu,sil2,lo,ña,sil1,['catch'],[2.030999999999949],[2.030999999999949],1.332,no_beat,0.698999999999949,0.698999999999949,"[""space""]",bu,3,testConjL2Syn//r2.s2.2.wav,2.0,conjunction_syn,syncopated,b,s2,rule,rule,L2,m,0.9171,3.0,0.0,1.517,3 ,2.0,Castellano,0.0,Catalán,0.0,Inglés,5.0,3.0,3.0,yes,no,yes,Canto,6,Flauta travesera,6,,,nada ,68.0,yes
34,2024-02-22_20h01.24.323,Unsyncopated_study3,s124,20 ,feminino,right,españa,castellano y catalán,Upper secondary,no,no,A,1,what,L4,unsyncopated,s2,r1,34,Online_whatL4//c.bu.da3.none.none.wav,pe,po,bo,sil,zi,re,ña,sil1,lo,ru,sil2,['-'],,,none,none,,,,bu,3,testConjL2Syn//time_viol.r2.s2.0.wav,2.0,conjunction_syn,syncopated,b,s2,no_rule,time,L2,z,0.4941,4.0,0.0,0.9002,3 ,2.0,Castellano,0.0,Catalán,0.0,Inglés,5.0,3.0,3.0,yes,no,yes,Canto,6,Flauta travesera,6,,,nada ,68.0,yes
35,2024-02-22_20h01.24.323,Unsyncopated_study3,s124,20 ,feminino,right,españa,castellano y catalán,Upper secondary,no,no,A,1,what,L4,unsyncopated,s1,r2,35,Online_whatL4//c.bu.da1.none.none.wav,ja,ña,ñi,sil2,nu,re,de,sil,ru,pe,sil1,['-'],,,none,none,,,,bu,3,testConjL2Syn//dep_viol.r2.s1.0.wav,2.0,conjunction_syn,syncopated,b,s1,no_rule,dep,L2,z,0.2673,4.0,0.0,1.0039,3 ,2.0,Castellano,0.0,Catalán,0.0,Inglés,5.0,3.0,3.0,yes,no,yes,Canto,6,Flauta travesera,6,,,nada ,68.0,yes
36,2024-02-22_20h01.24.323,Unsyncopated_study3,s124,20 ,feminino,right,españa,castellano y catalán,Upper secondary,no,no,A,1,what,L4,unsyncopated,s1,r1,36,Online_whatL4//b.ja.nu10.none.none.wav,zi,ñi,re,sil,lo,de,pe,sil1,ña,po,sil2,['-'],,,none,none,,,,ja,1,testConjL2Syn//time_viol.r2.s1.0.wav,2.0,conjunction_syn,syncopated,b,s1,no_rule,time,L2,z,0.5278,4.0,0.0,2.9608,3 ,2.0,Castellano,0.0,Catalán,0.0,Inglés,5.0,3.0,3.0,yes,no,yes,Canto,6,Flauta travesera,6,,,nada ,68.0,yes
37,2024-02-22_20h01.24.323,Unsyncopated_study3,s124,20 ,feminino,right,españa,castellano y catalán,Upper secondary,no,no,A,1,what,L4,unsyncopated,s1,r2,37,Online_whatL4//b.ja.nu11.0.888.wav,ja,bo,ru,sil,nu,ñi,ci,sil2,pe,po,sil1,['catch'],[0.5210999999046635],[0.5210999999046635],0.0,beat,0.5210999999046635,0.5210999999046635,"[""space""]",ja,1,testConjL2Syn//r2.s1.2.wav,2.0,conjunction_syn,syncopated,b,s1,rule,rule,L2,z,2.5837,4.0,1.0,0.9894,3 ,2.0,Castellano,0.0,Catalán,0.0,Inglés,5.0,3.0,3.0,yes,no,yes,Canto,6,Flauta travesera,6,,,nada ,68.0,yes
38,2024-02-22_20h01.24.323,Unsyncopated_study3,s124,20 ,feminino,right,españa,castellano y catalán,Upper secondary,no,no,A,1,what,L4,unsyncopated,s2,r1,38,Online_whatL4//b.ja.nu8.none.none.wav,po,de,re,sil2,zi,ru,pe,sil,lo,bu,sil1,['-'],,,none,none,,,,ja,1,testConjL2Syn//r1.s2.2.wav,2.0,conjunction_syn,syncopated,a,s2,rule,rule,L2,m,0.8224,3.0,0.0,2.05,3 ,2.0,Castellano,0.0,Catalán,0.0,Inglés,5.0,3.0,3.0,yes,no,yes,Canto,6,Flauta travesera,6,,,nada ,68.0,yes
39,2024-02-22_20h01.24.323,Unsyncopated_study3,s124,20 ,feminino,right,españa,castellano y catalán,Upper secondary,no,no,A,1,what,L4,unsyncopated,s2,r1,39,Online_whatL4//b.ja.nu9.none.none.wav,re,ña,ru,sil2,zi,ñi,de,sil,lo,bo,sil1,['-'],,,none,none,,,,ja,1,testConjL2Syn//cat_viol.r1.s2.0.wav,2.0,conjunction_syn,syncopated,a,s2,no_rule,cat,L2,z,0.5179,3.0,0.0,0.8177,3 ,2.0,Castellano,0.0,Catalán,0.0,Inglés,5.0,3.0,3.0,yes,no,yes,Canto,6,Flauta travesera,6,,,nada ,68.0,yes
40,2024-02-22_20h01.24.323,Unsyncopated_study3,s124,20 ,feminino,right,españa,castellano y catalán,Upper secondary,no,no,A,1,what,L4,unsyncopated,s1,r2,40,Online_whatL4//a.zi.lo27.none.none.wav,ja,da,re,sil,nu,ña,po,sil2,ru,ci,sil1,['-'],,,none,none,,,,lo,2,testConjL2Syn//r2.s2.1.wav,2.0,conjunction_syn,syncopated,b,s2,rule,rule,L2,z,0.2943,4.0,1.0,0.917,3 ,2.0,Castellano,0.0,Catalán,0.0,Inglés,5.0,3.0,3.0,yes,no,yes,Canto,6,Flauta travesera,6,,,nada ,68.0,yes
41,2024-02-22_20h01.24.323,Unsyncopated_study3,s124,20 ,feminino,right,españa,castellano y catalán,Upper secondary,no,no,A,1,what,L4,unsyncopated,s2,r1,41,Online_whatL4//a.zi.lo24.888.1998.wav,ñi,bu,ña,sil,zi,pe,ru,sil2,lo,ci,sil1,['catch'],[2.4699999999999136],[2.4699999999999136],1.998,no_beat,0.4719999999999136,0.4719999999999136,"[""space""]",lo,2,testConjL2Syn//time_viol.r1.s2.0.wav,2.0,conjunction_syn,syncopated,a,s2,no_rule,time,L2,m,0.8843,4.0,1.0,0.8679,3 ,2.0,Castellano,0.0,Catalán,0.0,Inglés,5.0,3.0,3.0,yes,no,yes,Canto,6,Flauta travesera,6,,,nada ,68.0,yes
42,2024-02-22_20h01.24.323,Unsyncopated_study3,s124,20 ,feminino,right,españa,castellano y catalán,Upper secondary,no,no,A,1,what,L4,unsyncopated,s2,r2,42,Online_whatL4//a.zi.lo25.none.none.wav,ña,ci,bu,sil2,ja,po,bo,sil,nu,pe,sil1,['-'],,,none,none,,,,lo,2,testConjL2Syn//dep_viol.r1.s1.0.wav,2.0,conjunction_syn,syncopated,a,s1,no_rule,dep,L2,z,0.2504,5.0,0.0,2.0667,3 ,2.0,Castellano,0.0,Catalán,0.0,Inglés,5.0,3.0,3.0,yes,no,yes,Canto,6,Flauta travesera,6,,,nada ,68.0,yes
43,2024-02-22_20h01.24.323,Unsyncopated_study3,s124,20 ,feminino,right,españa,castellano y catalán,Upper secondary,no,no,A,1,what,L4,unsyncopated,s1,r2,43,Online_whatL4//a.zi.lo26.none.none.wav,ja,pe,ru,sil2,nu,bu,de,sil,ñi,ña,sil1,['-'],,,none,none,,,,lo,2,testConjL2Syn//r1.s2.1.wav,2.0,conjunction_syn,syncopated,a,s2,rule,rule,L2,z,10.8156,2.0,1.0,0.9729,3 ,2.0,Castellano,0.0,Catalán,0.0,Inglés,5.0,3.0,3.0,yes,no,yes,Canto,6,Flauta travesera,6,,,nada ,68.0,yes
44,2024-02-22_20h01.24.323,Unsyncopated_study3,s124,20 ,feminino,right,españa,castellano y catalán,Upper secondary,no,no,A,1,what,L4,unsyncopated,s2,r1,44,Online_whatL4//d.pe.po23.none.none.wav,ña,ñi,de,sil2,zi,ru,bu,sil,lo,ci,sil1,['-'],,,none,none,,,,pe,4,testConjL2Syn//dep_viol.r2.s2.0.wav,2.0,conjunction_syn,syncopated,b,s2,no_rule,dep,L2,m,0.7391,2.0,1.0,3.6258,3 ,2.0,Castellano,0.0,Catalán,0.0,Inglés,5.0,3.0,3.0,yes,no,yes,Canto,6,Flauta travesera,6,,,nada ,68.0,yes
45,2024-02-22_20h01.24.323,Unsyncopated_study3,s124,20 ,feminino,right,españa,castellano y catalán,Upper secondary,no,no,A,1,what,L4,unsyncopated,s1,r1,45,Online_whatL4//d.pe.po22.1332.222.wav,zi,po,bu,sil,lo,ci,pe,sil2,ñi,bo,sil1,['catch'],[1.7911000001430466],[1.7911000001430466],1.332,no_beat,0.4591000001430465,0.4591000001430465,"[""space""]",pe,4,testConjL2Syn//r2.s1.1.wav,2.0,conjunction_syn,syncopated,b,s1,rule,rule,L2,z,0.2514,4.0,1.0,0.9346,3 ,2.0,Castellano,0.0,Catalán,0.0,Inglés,5.0,3.0,3.0,yes,no,yes,Canto,6,Flauta travesera,6,,,nada ,68.0,yes
46,2024-02-22_20h01.24.323,Unsyncopated_study3,s124,20 ,feminino,right,españa,castellano y catalán,Upper secondary,no,no,A,1,what,L4,unsyncopated,s1,r1,46,Online_whatL4//d.pe.po20.444.1332.wav,zi,ña,pe,sil,lo,re,po,sil2,de,ci,sil1,['miss'],,,0.444,no_beat,,,,pe,4,testConjL2Syn//time_viol.r1.s1.0.wav,2.0,conjunction_syn,syncopated,a,s1,no_rule,time,L2,m,1.4549,3.0,1.0,1.1422,3 ,2.0,Castellano,0.0,Catalán,0.0,Inglés,5.0,3.0,3.0,yes,no,yes,Canto,6,Flauta travesera,6,,,nada ,68.0,yes
47,2024-02-22_20h01.24.323,Unsyncopated_study3,s124,20 ,feminino,right,españa,castellano y catalán,Upper secondary,no,no,A,1,what,L4,unsyncopated,s1,r2,47,Online_whatL4//d.pe.po21.none.none.wav,ja,ru,de,sil,nu,da,ñi,sil2,ña,re,sil1,['-'],,,none,none,,,,pe,4,testConjL2Syn//r2.s2.0.wav,2.0,conjunction_syn,syncopated,b,s2,rule,rule,L2,m,0.2073,3.0,0.0,0.6521,3 ,2.0,Castellano,0.0,Catalán,0.0,Inglés,5.0,3.0,3.0,yes,no,yes,Canto,6,Flauta travesera,6,,,nada ,68.0,yes
48,2024-02-22_20h01.24.323,Unsyncopated_study3,s124,20 ,feminino,right,españa,castellano y catalán,Upper secondary,no,no,A,1,what,L4,unsyncopated,s2,r1,48,Online_whatL4//b.ja.nu31.none.none.wav,bu,po,ru,sil2,zi,re,ña,sil,lo,de,sil1,['false alarm'],[2.2450000000000045],[2.2450000000000045],none,none,,,"[""space""]",ja,1,testWhenL1Uns//r2.s1.1.wav,3.0,when,unsyncopated,b,s1,rule,rule,L1,z,0.3244,7.0,1.0,1.5861,3 ,2.0,Castellano,0.0,Catalán,0.0,Inglés,5.0,3.0,3.0,yes,no,yes,Canto,6,Flauta travesera,6,,,nada ,68.0,yes
49,2024-02-22_20h01.24.323,Unsyncopated_study3,s124,20 ,feminino,right,españa,castellano y catalán,Upper secondary,no,no,A,1,what,L4,unsyncopated,s1,r1,49,Online_whatL4//b.ja.nu30.none.none.wav,zi,da,bu,sil2,lo,bo,po,sil,de,ñi,sil1,['-'],,,none,none,,,,ja,1,testWhenL1Uns//dep_viol.r1.s2.0.wav,3.0,when,unsyncopated,a,s2,no_rule,dep,L1,m,0.7049,4.0,0.0,0.9081,3 ,2.0,Castellano,0.0,Catalán,0.0,Inglés,5.0,3.0,3.0,yes,no,yes,Canto,6,Flauta travesera,6,,,nada ,68.0,yes
50,2024-02-22_20h01.24.323,Unsyncopated_study3,s124,20 ,feminino,right,españa,castellano y catalán,Upper secondary,no,no,A,1,what,L4,unsyncopated,s1,r2,50,Online_whatL4//b.ja.nu29.0.888.wav,ja,de,da,sil,nu,ñi,ru,sil1,ci,ña,sil2,['catch'],[0.4872000000476646],[0.4872000000476646],0.0,beat,0.4872000000476646,0.4872000000476646,"[""space""]",ja,1,testWhenL1Uns//dep_viol.r2.s2.0.wav,3.0,when,unsyncopated,b,s2,no_rule,dep,L1,z,0.5938,4.0,1.0,0.9545,3 ,2.0,Castellano,0.0,Catalán,0.0,Inglés,5.0,3.0,3.0,yes,no,yes,Canto,6,Flauta travesera,6,,,nada ,68.0,yes
51,2024-02-22_20h01.24.323,Unsyncopated_study3,s124,20 ,feminino,right,españa,castellano y catalán,Upper secondary,no,no,A,1,what,L4,unsyncopated,s2,r1,51,Online_whatL4//b.ja.nu28.none.none.wav,de,ci,bu,sil,zi,bo,ña,sil2,lo,re,sil1,['-'],,,none,none,,,,ja,1,testWhenL1Uns//r1.s2.2.wav,3.0,when,unsyncopated,a,s2,rule,rule,L1,z,0.362,3.0,1.0,0.9509,3 ,2.0,Castellano,0.0,Catalán,0.0,Inglés,5.0,3.0,3.0,yes,no,yes,Canto,6,Flauta travesera,6,,,nada ,68.0,yes
52,2024-02-22_20h01.24.323,Unsyncopated_study3,s124,20 ,feminino,right,españa,castellano y catalán,Upper secondary,no,no,A,1,what,L4,unsyncopated,s1,r2,52,Online_whatL4//c.bu.da25.1110.1332.wav,ja,bo,ci,sil,nu,bu,da,sil2,ru,de,sil1,['miss'],,,1.11,no_beat,,,,bu,3,testWhenL1Uns//cat_viol.r2.s2.0.wav,3.0,when,unsyncopated,b,s2,no_rule,cat,L1,m,0.2541,2.0,0.0,1.6055,3 ,2.0,Castellano,0.0,Catalán,0.0,Inglés,5.0,3.0,3.0,yes,no,yes,Canto,6,Flauta travesera,6,,,nada ,68.0,yes
53,2024-02-22_20h01.24.323,Unsyncopated_study3,s124,20 ,feminino,right,españa,castellano y catalán,Upper secondary,no,no,A,1,what,L4,unsyncopated,s2,r1,53,Online_whatL4//c.bu.da24.1332.0.wav,da,bo,ña,sil,zi,po,bu,sil2,lo,re,sil1,['catch'],[1.836500000000001],[1.836500000000001],1.332,no_beat,0.5045000000000008,0.5045000000000008,"[""space""]",bu,3,testWhenL1Uns//r1.s2.1.wav,3.0,when,unsyncopated,a,s2,rule,rule,L1,z,0.2912,4.0,1.0,1.1099,3 ,2.0,Castellano,0.0,Catalán,0.0,Inglés,5.0,3.0,3.0,yes,no,yes,Canto,6,Flauta travesera,6,,,nada ,68.0,yes
54,2024-02-22_20h01.24.323,Unsyncopated_study3,s124,20 ,feminino,right,españa,castellano y catalán,Upper secondary,no,no,A,1,what,L4,unsyncopated,s1,r1,54,Online_whatL4//c.bu.da27.1998.222.wav,zi,da,ñi,sil2,lo,ña,pe,sil,bu,ru,sil1,['catch_delay'],[1.0042000000476639],[1.0042000000476639],1.998,no_beat,1.004200000047664,1.004200000047664,,bu,3,testWhenL1Uns//r2.s2.0.wav,3.0,when,unsyncopated,b,s2,rule,rule,L1,m,0.187,3.0,0.0,1.17,3 ,2.0,Castellano,0.0,Catalán,0.0,Inglés,5.0,3.0,3.0,yes,no,yes,Canto,6,Flauta travesera,6,,,nada ,68.0,yes
55,2024-02-22_20h01.24.323,Unsyncopated_study3,s124,20 ,feminino,right,españa,castellano y catalán,Upper secondary,no,no,A,1,what,L4,unsyncopated,s2,r1,55,Online_whatL4//c.bu.da26.none.none.wav,de,pe,ña,sil,zi,ci,ñi,sil1,lo,re,sil2,['-'],[0.3382000000476637],[0.3382000000476637],none,none,,,"[""space""]",bu,3,testWhenL1Uns//r1.s1.2.wav,3.0,when,unsyncopated,a,s1,rule,rule,L1,m,1.7675,3.0,0.0,0.9215,3 ,2.0,Castellano,0.0,Catalán,0.0,Inglés,5.0,3.0,3.0,yes,no,yes,Canto,6,Flauta travesera,6,,,nada ,68.0,yes
56,2024-02-22_20h01.24.323,Unsyncopated_study3,s124,20 ,feminino,right,españa,castellano y catalán,Upper secondary,no,no,A,1,what,L4,unsyncopated,s1,r1,56,Online_whatL4//b.ja.nu12.none.none.wav,zi,re,de,sil,lo,bu,pe,sil2,ru,ña,sil1,['-'],,,none,none,,,,ja,1,testWhenL1Uns//r2.s2.1.wav,3.0,when,unsyncopated,b,s2,rule,rule,L1,z,0.3885,3.0,1.0,0.922,3 ,2.0,Castellano,0.0,Catalán,0.0,Inglés,5.0,3.0,3.0,yes,no,yes,Canto,6,Flauta travesera,6,,,nada ,68.0,yes
57,2024-02-22_20h01.24.323,Unsyncopated_study3,s124,20 ,feminino,right,españa,castellano y catalán,Upper secondary,no,no,A,1,what,L4,unsyncopated,s1,r2,57,Online_whatL4//b.ja.nu15.0.1110.wav,ja,bu,bo,sil2,nu,pe,re,sil,ci,po,sil1,['catch'],[0.6030999999046571],[0.6030999999046571],0.0,beat,0.6030999999046571,0.6030999999046571,"[""space""]",ja,1,testWhenL1Uns//dep_viol.r2.s1.0.wav,3.0,when,unsyncopated,b,s1,no_rule,dep,L1,z,0.3748,2.0,1.0,0.9679,3 ,2.0,Castellano,0.0,Catalán,0.0,Inglés,5.0,3.0,3.0,yes,no,yes,Canto,6,Flauta travesera,6,,,nada ,68.0,yes
58,2024-02-22_20h01.24.323,Unsyncopated_study3,s124,20 ,feminino,right,españa,castellano y catalán,Upper secondary,no,no,A,1,what,L4,unsyncopated,s2,r1,58,Online_whatL4//b.ja.nu13.none.none.wav,da,po,bu,sil,zi,ña,ru,sil2,lo,de,sil1,['-'],,,none,none,,,,ja,1,testWhenL1Uns//time_viol.r2.s1.0.wav,3.0,when,unsyncopated,b,s1,no_rule,time,L1,z,0.3264,4.0,1.0,1.0006,3 ,2.0,Castellano,0.0,Catalán,0.0,Inglés,5.0,3.0,3.0,yes,no,yes,Canto,6,Flauta travesera,6,,,nada ,68.0,yes
59,2024-02-22_20h01.24.323,Unsyncopated_study3,s124,20 ,feminino,right,españa,castellano y catalán,Upper secondary,no,no,A,1,what,L4,unsyncopated,s1,r1,59,Online_whatL4//b.ja.nu14.none.none.wav,zi,bo,re,sil2,lo,ña,po,sil,ru,ñi,sil1,['-'],,,none,none,,,,ja,1,testWhenL1Uns//r2.s1.0.wav,3.0,when,unsyncopated,b,s1,rule,rule,L1,z,0.3425,3.0,1.0,0.8725,3 ,2.0,Castellano,0.0,Catalán,0.0,Inglés,5.0,3.0,3.0,yes,no,yes,Canto,6,Flauta travesera,6,,,nada ,68.0,yes
60,2024-02-22_20h01.24.323,Unsyncopated_study3,s124,20 ,feminino,right,españa,castellano y catalán,Upper secondary,no,no,A,1,what,L4,unsyncopated,s1,r1,60,Online_whatL4//d.pe.po28.none.none.wav,zi,ci,bu,sil,lo,ru,ñi,sil1,de,da,sil2,['-'],,,none,none,,,,pe,4,testWhenL1Uns//r2.s2.2.wav,3.0,when,unsyncopated,b,s2,rule,rule,L1,z,0.4096,3.0,1.0,1.1517,3 ,2.0,Castellano,0.0,Catalán,0.0,Inglés,5.0,3.0,3.0,yes,no,yes,Canto,6,Flauta travesera,6,,,nada ,68.0,yes
61,2024-02-22_20h01.24.323,Unsyncopated_study3,s124,20 ,feminino,right,españa,castellano y catalán,Upper secondary,no,no,A,1,what,L4,unsyncopated,s1,r2,61,Online_whatL4//d.pe.po29.222.444.wav,ja,pe,po,sil2,nu,de,ñi,sil,ru,da,sil1,['catch'],[0.8552999999523081],[0.8552999999523081],0.222,no_beat,0.6332999999523081,0.6332999999523081,"[""space""]",pe,4,testWhenL1Uns//dep_viol.r1.s1.0.wav,3.0,when,unsyncopated,a,s1,no_rule,dep,L1,m,0.1403,3.0,0.0,3.0834,3 ,2.0,Castellano,0.0,Catalán,0.0,Inglés,5.0,3.0,3.0,yes,no,yes,Canto,6,Flauta travesera,6,,,nada ,68.0,yes
62,2024-02-22_20h01.24.323,Unsyncopated_study3,s124,20 ,feminino,right,españa,castellano y catalán,Upper secondary,no,no,A,1,what,L4,unsyncopated,s1,r1,62,Online_whatL4//d.pe.po30.none.none.wav,zi,ci,ña,sil,lo,re,bu,sil2,ñi,de,sil1,['-'],,,none,none,,,,pe,4,testWhenL1Uns//time_viol.r2.s2.0.wav,3.0,when,unsyncopated,b,s2,no_rule,time,L1,z,0.4229,2.0,1.0,0.7173,3 ,2.0,Castellano,0.0,Catalán,0.0,Inglés,5.0,3.0,3.0,yes,no,yes,Canto,6,Flauta travesera,6,,,nada ,68.0,yes
63,2024-02-22_20h01.24.323,Unsyncopated_study3,s124,20 ,feminino,right,españa,castellano y catalán,Upper secondary,no,no,A,1,what,L4,unsyncopated,s2,r2,63,Online_whatL4//d.pe.po31.1554.0.wav,po,de,ña,sil2,ja,ci,pe,sil,nu,re,sil1,['catch'],[2.309900000095354],[2.309900000095354],1.554,no_beat,0.7559000000953537,0.7559000000953537,"[""space""]",pe,4,testWhenL1Uns//cat_viol.r2.s1.0.wav,3.0,when,unsyncopated,b,s1,no_rule,cat,L1,m,0.5851,1.0,0.0,1.9171,3 ,2.0,Castellano,0.0,Catalán,0.0,Inglés,5.0,3.0,3.0,yes,no,yes,Canto,6,Flauta travesera,6,,,nada ,68.0,yes
64,2024-02-22_20h01.24.323,Unsyncopated_study3,s124,20 ,feminino,right,españa,castellano y catalán,Upper secondary,no,no,A,1,what,L4,unsyncopated,s1,r1,64,Online_whatL4//c.bu.da7.222.1332.wav,zi,bu,re,sil,lo,po,da,sil2,bo,ci,sil1,['miss'],,,0.222,no_beat,,,,bu,3,testWhenL1Uns//r1.s1.0.wav,3.0,when,unsyncopated,a,s1,rule,rule,L1,z,1.6317,2.0,1.0,0.7173,3 ,2.0,Castellano,0.0,Catalán,0.0,Inglés,5.0,3.0,3.0,yes,no,yes,Canto,6,Flauta travesera,6,,,nada ,68.0,yes
65,2024-02-22_20h01.24.323,Unsyncopated_study3,s124,20 ,feminino,right,españa,castellano y catalán,Upper secondary,no,no,A,1,what,L4,unsyncopated,s1,r1,65,Online_whatL4//c.bu.da4.none.none.wav,zi,ru,de,sil2,lo,ci,po,sil,pe,bo,sil1,['-'],,,none,none,,,,bu,3,testWhenL1Uns//r2.s1.2.wav,3.0,when,unsyncopated,b,s1,rule,rule,L1,m,1.4257,2.0,0.0,0.6339,3 ,2.0,Castellano,0.0,Catalán,0.0,Inglés,5.0,3.0,3.0,yes,no,yes,Canto,6,Flauta travesera,6,,,nada ,68.0,yes
66,2024-02-22_20h01.24.323,Unsyncopated_study3,s124,20 ,feminino,right,españa,castellano y catalán,Upper secondary,no,no,A,1,what,L4,unsyncopated,s1,r2,66,Online_whatL4//c.bu.da5.none.none.wav,ja,ci,ña,sil2,nu,bo,de,sil,ñi,re,sil1,['-'],,,none,none,,,,bu,3,testWhenL1Uns//time_viol.r1.s1.0.wav,3.0,when,unsyncopated,a,s1,no_rule,time,L1,z,0.2933,2.0,1.0,0.8285,3 ,2.0,Castellano,0.0,Catalán,0.0,Inglés,5.0,3.0,3.0,yes,no,yes,Canto,6,Flauta travesera,6,,,nada ,68.0,yes
67,2024-02-22_20h01.24.323,Unsyncopated_study3,s124,20 ,feminino,right,españa,castellano y catalán,Upper secondary,no,no,A,1,what,L4,unsyncopated,s1,r1,67,Online_whatL4//c.bu.da6.1110.1332.wav,zi,ña,ci,sil,lo,bu,da,sil1,pe,ñi,sil2,['catch'],[1.7226000001430748],[1.7226000001430748],1.11,no_beat,0.6126000001430747,0.6126000001430747,"[""space""]",bu,3,testWhenL1Uns//time_viol.r1.s2.0.wav,3.0,when,unsyncopated,a,s2,no_rule,time,L1,m,0.284,5.0,0.0,1.4737,3 ,2.0,Castellano,0.0,Catalán,0.0,Inglés,5.0,3.0,3.0,yes,no,yes,Canto,6,Flauta travesera,6,,,nada ,68.0,yes
68,2024-02-22_20h01.24.323,Unsyncopated_study3,s124,20 ,feminino,right,españa,castellano y catalán,Upper secondary,no,no,A,1,what,L4,unsyncopated,s1,r2,68,Online_whatL4//c.bu.da10.none.none.wav,ja,ru,ña,sil,nu,ci,ñi,sil2,pe,re,sil1,['-'],,,none,none,,,,bu,3,testWhenL1Uns//r1.s1.1.wav,3.0,when,unsyncopated,a,s1,rule,rule,L1,m,0.762,4.0,0.0,2.137,3 ,2.0,Castellano,0.0,Catalán,0.0,Inglés,5.0,3.0,3.0,yes,no,yes,Canto,6,Flauta travesera,6,,,nada ,68.0,yes
69,2024-02-22_20h01.24.323,Unsyncopated_study3,s124,20 ,feminino,right,españa,castellano y catalán,Upper secondary,no,no,A,1,what,L4,unsyncopated,s2,r2,69,Online_whatL4//c.bu.da11.none.none.wav,ci,bo,po,sil,ja,ña,pe,sil1,nu,re,sil2,['-'],,,none,none,,,,bu,3,testWhenL1Uns//r1.s2.0.wav,3.0,when,unsyncopated,a,s2,rule,rule,L1,z,0.3343,5.0,1.0,1.2895,3 ,2.0,Castellano,0.0,Catalán,0.0,Inglés,5.0,3.0,3.0,yes,no,yes,Canto,6,Flauta travesera,6,,,nada ,68.0,yes
70,2024-02-22_20h01.24.323,Unsyncopated_study3,s124,20 ,feminino,right,españa,castellano y catalán,Upper secondary,no,no,A,1,what,L4,unsyncopated,s2,r1,70,Online_whatL4//c.bu.da8.none.none.wav,ña,ñi,pe,sil,zi,ci,re,sil1,lo,de,sil2,['-'],,,none,none,,,,bu,3,testWhenL1Uns//cat_viol.r1.s1.0.wav,3.0,when,unsyncopated,a,s1,no_rule,cat,L1,z,0.3179,5.0,1.0,0.9945,3 ,2.0,Castellano,0.0,Catalán,0.0,Inglés,5.0,3.0,3.0,yes,no,yes,Canto,6,Flauta travesera,6,,,nada ,68.0,yes
71,2024-02-22_20h01.24.323,Unsyncopated_study3,s124,20 ,feminino,right,españa,castellano y catalán,Upper secondary,no,no,A,1,what,L4,unsyncopated,s2,r2,71,Online_whatL4//c.bu.da9.none.none.wav,pe,po,de,sil,ja,ru,ña,sil2,nu,re,sil1,['-'],,,none,none,,,,bu,3,testWhenL1Uns//cat_viol.r1.s2.0.wav,3.0,when,unsyncopated,a,s2,no_rule,cat,L1,m,2.45,2.0,0.0,0.7224,3 ,2.0,Castellano,0.0,Catalán,0.0,Inglés,5.0,3.0,3.0,yes,no,yes,Canto,6,Flauta travesera,6,,,nada ,68.0,yes
72,2024-02-22_20h01.24.323,Unsyncopated_study3,s124,20 ,feminino,right,españa,castellano y catalán,Upper secondary,no,no,A,1,what,L4,unsyncopated,s2,r2,72,Online_whatL4//d.pe.po26.none.none.wav,ru,da,ñi,sil,ja,bu,re,sil1,nu,de,sil2,['-'],,,none,none,,,,pe,4,testConjL3Uns//dep_viol.r1.s2.0.wav,4.0,conjunction_un,unsyncopated,a,s2,no_rule,dep,L3,z,0.6026,4.0,0.0,0.4687,3 ,2.0,Castellano,0.0,Catalán,0.0,Inglés,5.0,3.0,3.0,yes,no,yes,Canto,6,Flauta travesera,6,,,nada ,68.0,yes
73,2024-02-22_20h01.24.323,Unsyncopated_study3,s124,20 ,feminino,right,españa,castellano y catalán,Upper secondary,no,no,A,1,what,L4,unsyncopated,s1,r1,73,Online_whatL4//d.pe.po25.222.444.wav,zi,pe,po,sil2,lo,re,bu,sil,de,ru,sil1,['catch'],[0.7920000000001437],[0.7920000000001437],0.222,no_beat,0.5700000000001437,0.5700000000001437,"[""space""]",pe,4,testConjL3Uns//r2.s1.2.wav,4.0,conjunction_un,unsyncopated,b,s1,rule,rule,L3,m,0.3994,3.0,0.0,0.6347,3 ,2.0,Castellano,0.0,Catalán,0.0,Inglés,5.0,3.0,3.0,yes,no,yes,Canto,6,Flauta travesera,6,,,nada ,68.0,yes
74,2024-02-22_20h01.24.323,Unsyncopated_study3,s124,20 ,feminino,right,españa,castellano y catalán,Upper secondary,no,no,A,1,what,L4,unsyncopated,s1,r2,74,Online_whatL4//d.pe.po24.1110.1332.wav,ja,re,bu,sil,nu,pe,po,sil2,ci,ru,sil1,['miss'],,,1.11,no_beat,,,,pe,4,testConjL3Uns//time_viol.r2.s1.0.wav,4.0,conjunction_un,unsyncopated,b,s1,no_rule,time,L3,m,0.4708,2.0,1.0,0.9012,3 ,2.0,Castellano,0.0,Catalán,0.0,Inglés,5.0,3.0,3.0,yes,no,yes,Canto,6,Flauta travesera,6,,,nada ,68.0,yes
75,2024-02-22_20h01.24.323,Unsyncopated_study3,s124,20 ,feminino,right,españa,castellano y catalán,Upper secondary,no,no,A,1,what,L4,unsyncopated,s2,r2,75,Online_whatL4//d.pe.po27.222.444.wav,re,pe,po,sil2,ja,ña,ru,sil,nu,ci,sil1,['catch'],[0.9767999999523909],[0.9767999999523909],0.222,no_beat,0.7547999999523909,0.7547999999523909,"[""space""]",pe,4,testConjL3Uns//r2.s2.0.wav,4.0,conjunction_un,unsyncopated,b,s2,rule,rule,L3,z,0.2672,4.0,1.0,1.0676,3 ,2.0,Castellano,0.0,Catalán,0.0,Inglés,5.0,3.0,3.0,yes,no,yes,Canto,6,Flauta travesera,6,,,nada ,68.0,yes
76,2024-02-22_20h01.24.323,Unsyncopated_study3,s124,20 ,feminino,right,españa,castellano y catalán,Upper secondary,no,no,A,1,what,L4,unsyncopated,s1,r1,76,Online_whatL4//c.bu.da21.none.none.wav,zi,ci,re,sil2,lo,ñi,de,sil,ña,bo,sil1,['-'],,,none,none,,,,bu,3,testConjL3Uns//cat_viol.r2.s2.0.wav,4.0,conjunction_un,unsyncopated,b,s2,no_rule,cat,L3,z,0.2005,6.0,0.0,1.5602,3 ,2.0,Castellano,0.0,Catalán,0.0,Inglés,5.0,3.0,3.0,yes,no,yes,Canto,6,Flauta travesera,6,,,nada ,68.0,yes
77,2024-02-22_20h01.24.323,Unsyncopated_study3,s124,20 ,feminino,right,españa,castellano y catalán,Upper secondary,no,no,A,1,what,L4,unsyncopated,s1,r1,77,Online_whatL4//c.bu.da22.none.none.wav,zi,de,ña,sil2,lo,re,ñi,sil,po,ru,sil1,['-'],,,none,none,,,,bu,3,testConjL3Uns//r1.s1.2.wav,4.0,conjunction_un,unsyncopated,a,s1,rule,rule,L3,m,0.2181,2.0,0.0,0.7844,3 ,2.0,Castellano,0.0,Catalán,0.0,Inglés,5.0,3.0,3.0,yes,no,yes,Canto,6,Flauta travesera,6,,,nada ,68.0,yes
78,2024-02-22_20h01.24.323,Unsyncopated_study3,s124,20 ,feminino,right,españa,castellano y catalán,Upper secondary,no,no,A,1,what,L4,unsyncopated,s1,r2,78,Online_whatL4//c.bu.da20.1776.444.wav,ja,ci,da,sil,nu,po,ru,sil1,bu,de,sil2,['catch'],[2.1705000000001746],[2.1705000000001746],1.776,beat,0.3945000000001746,0.3945000000001746,"[""space""]",bu,3,testConjL3Uns//r2.s2.1.wav,4.0,conjunction_un,unsyncopated,b,s2,rule,rule,L3,z,0.2451,6.0,1.0,1.4725,3 ,2.0,Castellano,0.0,Catalán,0.0,Inglés,5.0,3.0,3.0,yes,no,yes,Canto,6,Flauta travesera,6,,,nada ,68.0,yes
79,2024-02-22_20h01.24.323,Unsyncopated_study3,s124,20 ,feminino,right,españa,castellano y catalán,Upper secondary,no,no,A,1,what,L4,unsyncopated,s1,r1,79,Online_whatL4//c.bu.da23.none.none.wav,zi,pe,ru,sil,lo,re,po,sil2,ci,ña,sil1,['-'],,,none,none,,,,bu,3,testConjL3Uns//dep_viol.r2.s1.0.wav,4.0,conjunction_un,unsyncopated,b,s1,no_rule,dep,L3,z,0.4052,4.0,0.0,0.8835,3 ,2.0,Castellano,0.0,Catalán,0.0,Inglés,5.0,3.0,3.0,yes,no,yes,Canto,6,Flauta travesera,6,,,nada ,68.0,yes
80,2024-02-22_20h01.24.323,Unsyncopated_study3,s124,20 ,feminino,right,españa,castellano y catalán,Upper secondary,no,no,A,1,what,L4,unsyncopated,s1,r1,80,Online_whatL4//a.zi.lo21.0.888.wav,zi,ru,ña,sil,lo,pe,po,sil1,re,bo,sil2,['catch'],[1.8406999998092033],[1.8406999998092033],0.888,beat,0.9526999998092032,0.9526999998092032,"[""space""]",lo,2,testConjL3Uns//r2.s1.0.wav,4.0,conjunction_un,unsyncopated,b,s1,rule,rule,L3,m,0.2569,4.0,0.0,1.2673,3 ,2.0,Castellano,0.0,Catalán,0.0,Inglés,5.0,3.0,3.0,yes,no,yes,Canto,6,Flauta travesera,6,,,nada ,68.0,yes
81,2024-02-22_20h01.24.323,Unsyncopated_study3,s124,20 ,feminino,right,españa,castellano y catalán,Upper secondary,no,no,A,1,what,L4,unsyncopated,s2,r2,81,Online_whatL4//a.zi.lo22.none.none.wav,ci,bu,da,sil,ja,re,ñi,sil1,nu,de,sil2,['-'],,,none,none,,,,lo,2,testConjL3Uns//r2.s2.2.wav,4.0,conjunction_un,unsyncopated,b,s2,rule,rule,L3,m,0.3031,1.0,0.0,0.7986,3 ,2.0,Castellano,0.0,Catalán,0.0,Inglés,5.0,3.0,3.0,yes,no,yes,Canto,6,Flauta travesera,6,,,nada ,68.0,yes
82,2024-02-22_20h01.24.323,Unsyncopated_study3,s124,20 ,feminino,right,españa,castellano y catalán,Upper secondary,no,no,A,1,what,L4,unsyncopated,s2,r2,82,Online_whatL4//a.zi.lo20.none.none.wav,re,ña,ci,sil,ja,ñi,pe,sil1,nu,bo,sil2,['-'],,,none,none,,,,lo,2,testConjL3Uns//cat_viol.r1.s1.0.wav,4.0,conjunction_un,unsyncopated,a,s1,no_rule,cat,L3,m,0.5171,4.0,1.0,0.8332,3 ,2.0,Castellano,0.0,Catalán,0.0,Inglés,5.0,3.0,3.0,yes,no,yes,Canto,6,Flauta travesera,6,,,nada ,68.0,yes
83,2024-02-22_20h01.24.323,Unsyncopated_study3,s124,20 ,feminino,right,españa,castellano y catalán,Upper secondary,no,no,A,1,what,L4,unsyncopated,s2,r2,83,Online_whatL4//a.zi.lo23.none.none.wav,pe,ci,po,sil,ja,bu,de,sil2,nu,ñi,sil1,['-'],,,none,none,,,,lo,2,testConjL3Uns//cat_viol.r1.s2.0.wav,4.0,conjunction_un,unsyncopated,a,s2,no_rule,cat,L3,m,0.4839,3.0,1.0,0.9501,3 ,2.0,Castellano,0.0,Catalán,0.0,Inglés,5.0,3.0,3.0,yes,no,yes,Canto,6,Flauta travesera,6,,,nada ,68.0,yes
84,2024-02-22_20h01.24.323,Unsyncopated_study3,s124,20 ,feminino,right,españa,castellano y catalán,Upper secondary,no,no,A,1,what,L4,unsyncopated,s2,r2,84,Online_whatL4//b.ja.nu24.888.1998.wav,ñi,ru,bo,sil,ja,po,de,sil2,nu,da,sil1,['catch'],[1.4435000000000855],[1.4435000000000855],0.888,beat,0.5555000000000855,0.5555000000000855,"[""space""]",ja,1,testConjL3Uns//r2.s1.1.wav,4.0,conjunction_un,unsyncopated,b,s1,rule,rule,L3,m,0.3928,5.0,0.0,1.2043,3 ,2.0,Castellano,0.0,Catalán,0.0,Inglés,5.0,3.0,3.0,yes,no,yes,Canto,6,Flauta travesera,6,,,nada ,68.0,yes
85,2024-02-22_20h01.24.323,Unsyncopated_study3,s124,20 ,feminino,right,españa,castellano y catalán,Upper secondary,no,no,A,1,what,L4,unsyncopated,s2,r2,85,Online_whatL4//b.ja.nu25.888.1998.wav,bu,ru,de,sil,ja,ñi,bo,sil2,nu,pe,sil1,['miss'],,,0.888,beat,,,,ja,1,testConjL3Uns//r1.s2.0.wav,4.0,conjunction_un,unsyncopated,a,s2,rule,rule,L3,z,0.2405,6.0,1.0,1.115,3 ,2.0,Castellano,0.0,Catalán,0.0,Inglés,5.0,3.0,3.0,yes,no,yes,Canto,6,Flauta travesera,6,,,nada ,68.0,yes
86,2024-02-22_20h01.24.323,Unsyncopated_study3,s124,20 ,feminino,right,españa,castellano y catalán,Upper secondary,no,no,A,1,what,L4,unsyncopated,s1,r2,86,Online_whatL4//b.ja.nu27.0.888.wav,ja,de,re,sil,nu,ci,pe,sil1,po,ñi,sil2,['catch'],[1.9631000001431858],[1.9631000001431858],0.0,beat,,1.9631000001431855,"[""space""]",ja,1,testConjL3Uns//cat_viol.r2.s1.0.wav,4.0,conjunction_un,unsyncopated,b,s1,no_rule,cat,L3,m,0.3739,3.0,1.0,1.2574,3 ,2.0,Castellano,0.0,Catalán,0.0,Inglés,5.0,3.0,3.0,yes,no,yes,Canto,6,Flauta travesera,6,,,nada ,68.0,yes
87,2024-02-22_20h01.24.323,Unsyncopated_study3,s124,20 ,feminino,right,españa,castellano y catalán,Upper secondary,no,no,A,1,what,L4,unsyncopated,s2,r2,87,Online_whatL4//b.ja.nu26.888.1776.wav,da,ña,re,sil,ja,ci,bo,sil1,nu,bu,sil2,['miss'],,,0.888,beat,,,,ja,1,testConjL3Uns//time_viol.r2.s2.0.wav,4.0,conjunction_un,unsyncopated,b,s2,no_rule,time,L3,m,0.71,5.0,1.0,1.017,3 ,2.0,Castellano,0.0,Catalán,0.0,Inglés,5.0,3.0,3.0,yes,no,yes,Canto,6,Flauta travesera,6,,,nada ,68.0,yes
88,2024-02-22_20h01.24.323,Unsyncopated_study3,s124,20 ,feminino,right,españa,castellano y catalán,Upper secondary,no,no,A,1,what,L4,unsyncopated,s2,r1,88,Online_whatL4//a.zi.lo17.1110.1998.wav,po,pe,ru,sil2,zi,ci,re,sil,lo,ña,sil1,['catch'],[2.5129000000952146],[2.5129000000952146],1.998,no_beat,0.5149000000952146,0.5149000000952146,"[""space""]",lo,2,testConjL3Uns//r1.s1.1.wav,4.0,conjunction_un,unsyncopated,a,s1,rule,rule,L3,m,0.3543,4.0,0.0,1.11,3 ,2.0,Castellano,0.0,Catalán,0.0,Inglés,5.0,3.0,3.0,yes,no,yes,Canto,6,Flauta travesera,6,,,nada ,68.0,yes
89,2024-02-22_20h01.24.323,Unsyncopated_study3,s124,20 ,feminino,right,españa,castellano y catalán,Upper secondary,no,no,A,1,what,L4,unsyncopated,s2,r1,89,Online_whatL4//a.zi.lo19.888.1776.wav,da,ru,re,sil,zi,ña,po,sil1,lo,ci,sil2,['catch'],[2.453299999952378],[2.453299999952378],1.776,beat,0.6772999999523781,0.6772999999523781,"[""space""]",lo,2,testConjL3Uns//r1.s1.0.wav,4.0,conjunction_un,unsyncopated,a,s1,rule,rule,L3,m,0.5671,2.0,0.0,2.0011,3 ,2.0,Castellano,0.0,Catalán,0.0,Inglés,5.0,3.0,3.0,yes,no,yes,Canto,6,Flauta travesera,6,,,nada ,68.0,yes
90,2024-02-22_20h01.24.323,Unsyncopated_study3,s124,20 ,feminino,right,españa,castellano y catalán,Upper secondary,no,no,A,1,what,L4,unsyncopated,s1,r1,90,Online_whatL4//a.zi.lo16.0.888.wav,zi,ñi,bo,sil,lo,da,ña,sil1,ru,bu,sil2,['catch'],[1.7427999999524673],[1.7427999999524673],0.888,beat,0.8547999999524672,0.8547999999524672,"[""space""]",lo,2,testConjL3Uns//dep_viol.r1.s1.0.wav,4.0,conjunction_un,unsyncopated,a,s1,no_rule,dep,L3,z,0.2502,3.0,0.0,1.1342,3 ,2.0,Castellano,0.0,Catalán,0.0,Inglés,5.0,3.0,3.0,yes,no,yes,Canto,6,Flauta travesera,6,,,nada ,68.0,yes
91,2024-02-22_20h01.24.323,Unsyncopated_study3,s124,20 ,feminino,right,españa,castellano y catalán,Upper secondary,no,no,A,1,what,L4,unsyncopated,s1,r2,91,Online_whatL4//a.zi.lo18.none.none.wav,ja,de,da,sil,nu,ña,re,sil2,ci,ru,sil1,['-'],,,none,none,,,,lo,2,testConjL3Uns//time_viol.r1.s2.0.wav,4.0,conjunction_un,unsyncopated,a,s2,no_rule,time,L3,m,0.1349,5.0,1.0,1.1573,3 ,2.0,Castellano,0.0,Catalán,0.0,Inglés,5.0,3.0,3.0,yes,no,yes,Canto,6,Flauta travesera,6,,,nada ,68.0,yes
92,2024-02-22_20h01.24.323,Unsyncopated_study3,s124,20 ,feminino,right,españa,castellano y catalán,Upper secondary,no,no,A,1,what,L4,unsyncopated,s2,r1,92,Online_whatL4//d.pe.po0.0.222.wav,pe,po,ru,sil,zi,ña,ñi,sil1,lo,bo,sil2,['catch'],[0.5980999999046617],[0.5980999999046617],0.0,beat,0.5980999999046617,0.5980999999046617,"[""space""]",pe,4,testConjL3Uns//r1.s2.1.wav,4.0,conjunction_un,unsyncopated,a,s2,rule,rule,L3,m,0.4336,3.0,0.0,0.9509,3 ,2.0,Castellano,0.0,Catalán,0.0,Inglés,5.0,3.0,3.0,yes,no,yes,Canto,6,Flauta travesera,6,,,nada ,68.0,yes
93,2024-02-22_20h01.24.323,Unsyncopated_study3,s124,20 ,feminino,right,españa,castellano y catalán,Upper secondary,no,no,A,1,what,L4,unsyncopated,s2,r1,93,Online_whatL4//d.pe.po1.none.none.wav,ña,ru,de,sil,zi,da,bo,sil1,lo,ñi,sil2,['-'],,,none,none,,,,pe,4,testConjL3Uns//time_viol.r1.s1.0.wav,4.0,conjunction_un,unsyncopated,a,s1,no_rule,time,L3,z,1.2181,3.0,0.0,0.8667,3 ,2.0,Castellano,0.0,Catalán,0.0,Inglés,5.0,3.0,3.0,yes,no,yes,Canto,6,Flauta travesera,6,,,nada ,68.0,yes
94,2024-02-22_20h01.24.323,Unsyncopated_study3,s124,20 ,feminino,right,españa,castellano y catalán,Upper secondary,no,no,A,1,what,L4,unsyncopated,s1,r1,94,Online_whatL4//d.pe.po3.none.none.wav,zi,ci,ñi,sil2,lo,de,ña,sil,da,bu,sil1,['-'],,,none,none,,,,pe,4,testConjL3Uns//r1.s2.2.wav,4.0,conjunction_un,unsyncopated,a,s2,rule,rule,L3,m,0.9708,2.0,0.0,0.8746,3 ,2.0,Castellano,0.0,Catalán,0.0,Inglés,5.0,3.0,3.0,yes,no,yes,Canto,6,Flauta travesera,6,,,nada ,68.0,yes
95,2024-02-22_20h01.24.323,Unsyncopated_study3,s124,20 ,feminino,right,españa,castellano y catalán,Upper secondary,no,no,A,1,what,L4,unsyncopated,s1,r1,95,Online_whatL4//d.pe.po2.none.none.wav,zi,de,ña,sil,lo,bo,da,sil2,re,ñi,sil1,['-'],,,none,none,,,,pe,4,testConjL3Uns//dep_viol.r2.s2.0.wav,4.0,conjunction_un,unsyncopated,b,s2,no_rule,dep,L3,z,0.5171,5.0,0.0,0.8177,3 ,2.0,Castellano,0.0,Catalán,0.0,Inglés,5.0,3.0,3.0,yes,no,yes,Canto,6,Flauta travesera,6,,,nada ,68.0,yes
96,2024-02-22_20h01.24.323,Unsyncopated_study3,s124,20 ,feminino,right,españa,castellano y catalán,Upper secondary,no,no,A,1,what,L4,unsyncopated,s2,r2,96,Online_whatL4//c.bu.da18.444.1332.wav,ña,pe,bu,sil2,ja,da,de,sil,nu,re,sil1,['catch'],[1.0614000000955457],[1.0614000000955457],0.444,no_beat,0.6174000000955457,0.6174000000955457,"[""space""]",bu,3,,,,,,,,,,,,,,,3 ,2.0,Castellano,0.0,Catalán,0.0,Inglés,5.0,3.0,3.0,yes,no,yes,Canto,6,Flauta travesera,6,,,nada ,68.0,yes
97,2024-02-22_20h01.24.323,Unsyncopated_study3,s124,20 ,feminino,right,españa,castellano y catalán,Upper secondary,no,no,A,1,what,L4,unsyncopated,s2,r1,97,Online_whatL4//c.bu.da17.none.none.wav,ña,po,pe,sil,zi,ñi,re,sil1,lo,bo,sil2,['-'],,,none,none,,,,bu,3,,,,,,,,,,,,,,,3 ,2.0,Castellano,0.0,Catalán,0.0,Inglés,5.0,3.0,3.0,yes,no,yes,Canto,6,Flauta travesera,6,,,nada ,68.0,yes
98,2024-02-22_20h01.24.323,Unsyncopated_study3,s124,20 ,feminino,right,españa,castellano y catalán,Upper secondary,no,no,A,1,what,L4,unsyncopated,s1,r2,98,Online_whatL4//c.bu.da19.1998.444.wav,ja,de,da,sil,nu,re,ci,sil2,bu,ña,sil1,['catch_delay'],[0.686900000095253],[0.686900000095253],1.998,no_beat,0.686900000095253,0.686900000095253,,bu,3,,,,,,,,,,,,,,,3 ,2.0,Castellano,0.0,Catalán,0.0,Inglés,5.0,3.0,3.0,yes,no,yes,Canto,6,Flauta travesera,6,,,nada ,68.0,yes
99,2024-02-22_20h01.24.323,Unsyncopated_study3,s124,20 ,feminino,right,españa,castellano y catalán,Upper secondary,no,no,A,1,what,L4,unsyncopated,s2,r2,99,Online_whatL4//c.bu.da16.none.none.wav,re,de,po,sil,ja,ci,ru,sil2,nu,ña,sil1,['-'],[0.020900000095252835],[0.020900000095252835],none,none,,,"[""space""]",bu,3,,,,,,,,,,,,,,,3 ,2.0,Castellano,0.0,Catalán,0.0,Inglés,5.0,3.0,3.0,yes,no,yes,Canto,6,Flauta travesera,6,,,nada ,68.0,yes
100,2024-02-22_20h01.24.323,Unsyncopated_study3,s124,20 ,feminino,right,españa,castellano y catalán,Upper secondary,no,no,A,1,what,L4,unsyncopated,s2,r2,100,Online_whatL4//c.bu.da31.222.444.wav,de,bu,da,sil,ja,ci,bo,sil2,nu,ña,sil1,['catch'],[1.2129999999999654],[1.2129999999999654],0.222,no_beat,0.9909999999999656,0.9909999999999656,"[""space""]",bu,3,,,,,,,,,,,,,,,3 ,2.0,Castellano,0.0,Catalán,0.0,Inglés,5.0,3.0,3.0,yes,no,yes,Canto,6,Flauta travesera,6,,,nada ,68.0,yes
101,2024-02-22_20h01.24.323,Unsyncopated_study3,s124,20 ,feminino,right,españa,castellano y catalán,Upper secondary,no,no,A,1,what,L4,unsyncopated,s2,r1,101,Online_whatL4//c.bu.da29.1110.0.wav,da,ru,pe,sil,zi,bu,ci,sil1,lo,de,sil2,['miss'],,,1.11,no_beat,,,,bu,3,,,,,,,,,,,,,,,3 ,2.0,Castellano,0.0,Catalán,0.0,Inglés,5.0,3.0,3.0,yes,no,yes,Canto,6,Flauta travesera,6,,,nada ,68.0,yes
102,2024-02-22_20h01.24.323,Unsyncopated_study3,s124,20 ,feminino,right,españa,castellano y catalán,Upper secondary,no,no,A,1,what,L4,unsyncopated,s2,r2,102,Online_whatL4//c.bu.da30.1554.0.wav,da,ña,re,sil2,ja,po,bu,sil,nu,ci,sil1,['catch'],[2.2707000000475546],[2.2707000000475546],1.554,no_beat,0.7167000000475545,0.7167000000475545,"[""space""]",bu,3,,,,,,,,,,,,,,,3 ,2.0,Castellano,0.0,Catalán,0.0,Inglés,5.0,3.0,3.0,yes,no,yes,Canto,6,Flauta travesera,6,,,nada ,68.0,yes
103,2024-02-22_20h01.24.323,Unsyncopated_study3,s124,20 ,feminino,right,españa,castellano y catalán,Upper secondary,no,no,A,1,what,L4,unsyncopated,s1,r2,103,Online_whatL4//c.bu.da28.none.none.wav,ja,ña,bo,sil,nu,pe,ñi,sil1,re,de,sil2,['-'],,,none,none,,,,bu,3,,,,,,,,,,,,,,,3 ,2.0,Castellano,0.0,Catalán,0.0,Inglés,5.0,3.0,3.0,yes,no,yes,Canto,6,Flauta travesera,6,,,nada ,68.0,yes
104,2024-02-22_20h01.24.323,Unsyncopated_study3,s124,20 ,feminino,right,españa,castellano y catalán,Upper secondary,no,no,A,1,what,L4,unsyncopated,s1,r1,104,Online_whatL4//d.pe.po10.444.1332.wav,zi,ci,pe,sil,lo,bo,po,sil2,re,bu,sil1,['catch'],[0.8673999998568434],[0.8673999998568434],0.444,no_beat,0.4233999998568433,0.4233999998568433,"[""space""]",pe,4,,,,,,,,,,,,,,,3 ,2.0,Castellano,0.0,Catalán,0.0,Inglés,5.0,3.0,3.0,yes,no,yes,Canto,6,Flauta travesera,6,,,nada ,68.0,yes
105,2024-02-22_20h01.24.323,Unsyncopated_study3,s124,20 ,feminino,right,españa,castellano y catalán,Upper secondary,no,no,A,1,what,L4,unsyncopated,s2,r1,105,Online_whatL4//d.pe.po9.none.none.wav,ña,da,bo,sil,zi,ñi,ru,sil2,lo,de,sil1,['-'],,,none,none,,,,pe,4,,,,,,,,,,,,,,,3 ,2.0,Castellano,0.0,Catalán,0.0,Inglés,5.0,3.0,3.0,yes,no,yes,Canto,6,Flauta travesera,6,,,nada ,68.0,yes
106,2024-02-22_20h01.24.323,Unsyncopated_study3,s124,20 ,feminino,right,españa,castellano y catalán,Upper secondary,no,no,A,1,what,L4,unsyncopated,s1,r2,106,Online_whatL4//d.pe.po8.222.1332.wav,ja,pe,bu,sil,nu,ci,po,sil2,da,re,sil1,['catch'],[1.0558999998568197],[1.0558999998568197],0.222,no_beat,0.8338999998568197,0.8338999998568197,"[""space""]",pe,4,,,,,,,,,,,,,,,3 ,2.0,Castellano,0.0,Catalán,0.0,Inglés,5.0,3.0,3.0,yes,no,yes,Canto,6,Flauta travesera,6,,,nada ,68.0,yes
107,2024-02-22_20h01.24.323,Unsyncopated_study3,s124,20 ,feminino,right,españa,castellano y catalán,Upper secondary,no,no,A,1,what,L4,unsyncopated,s2,r1,107,Online_whatL4//d.pe.po11.222.1332.wav,re,pe,ñi,sil2,zi,po,bu,sil,lo,de,sil1,['catch'],[1.1784000000955075],[1.1784000000955075],0.222,no_beat,0.9564000000955076,0.9564000000955076,"[""space""]",pe,4,,,,,,,,,,,,,,,3 ,2.0,Castellano,0.0,Catalán,0.0,Inglés,5.0,3.0,3.0,yes,no,yes,Canto,6,Flauta travesera,6,,,nada ,68.0,yes
108,2024-02-22_20h01.24.323,Unsyncopated_study3,s124,20 ,feminino,right,españa,castellano y catalán,Upper secondary,no,no,A,1,what,L4,unsyncopated,s1,r2,108,Online_whatL4//d.pe.po19.1776.222.wav,ja,po,re,sil,nu,ru,ña,sil1,pe,da,sil2,['catch'],[2.4869999999998527],[2.4869999999998527],1.776,beat,0.7109999999998526,0.7109999999998526,"[""space""]",pe,4,,,,,,,,,,,,,,,3 ,2.0,Castellano,0.0,Catalán,0.0,Inglés,5.0,3.0,3.0,yes,no,yes,Canto,6,Flauta travesera,6,,,nada ,68.0,yes
109,2024-02-22_20h01.24.323,Unsyncopated_study3,s124,20 ,feminino,right,españa,castellano y catalán,Upper secondary,no,no,A,1,what,L4,unsyncopated,s2,r2,109,Online_whatL4//d.pe.po18.0.444.wav,pe,de,po,sil,ja,ña,ñi,sil1,nu,re,sil2,['miss'],,,0.0,beat,,,,pe,4,,,,,,,,,,,,,,,3 ,2.0,Castellano,0.0,Catalán,0.0,Inglés,5.0,3.0,3.0,yes,no,yes,Canto,6,Flauta travesera,6,,,nada ,68.0,yes
110,2024-02-22_20h01.24.323,Unsyncopated_study3,s124,20 ,feminino,right,españa,castellano y catalán,Upper secondary,no,no,A,1,what,L4,unsyncopated,s1,r2,110,Online_whatL4//d.pe.po17.none.none.wav,ja,re,bo,sil,nu,ci,ru,sil1,ñi,da,sil2,['-'],,,none,none,,,,pe,4,,,,,,,,,,,,,,,3 ,2.0,Castellano,0.0,Catalán,0.0,Inglés,5.0,3.0,3.0,yes,no,yes,Canto,6,Flauta travesera,6,,,nada ,68.0,yes
111,2024-02-22_20h01.24.323,Unsyncopated_study3,s124,20 ,feminino,right,españa,castellano y catalán,Upper secondary,no,no,A,1,what,L4,unsyncopated,s2,r2,111,Online_whatL4//d.pe.po16.none.none.wav,ci,bo,ña,sil2,ja,bu,da,sil,nu,ru,sil1,['-'],,,none,none,,,,pe,4,,,,,,,,,,,,,,,3 ,2.0,Castellano,0.0,Catalán,0.0,Inglés,5.0,3.0,3.0,yes,no,yes,Canto,6,Flauta travesera,6,,,nada ,68.0,yes
112,2024-02-22_20h01.24.323,Unsyncopated_study3,s124,20 ,feminino,right,españa,castellano y catalán,Upper secondary,no,no,A,1,what,L4,unsyncopated,s2,r2,112,Online_whatL4//b.ja.nu7.888.1776.wav,de,bo,re,sil,ja,ñi,bu,sil1,nu,da,sil2,['catch'],[1.7925999999044961],[1.7925999999044961],0.888,beat,0.904599999904496,0.904599999904496,"[""space""]",ja,1,,,,,,,,,,,,,,,3 ,2.0,Castellano,0.0,Catalán,0.0,Inglés,5.0,3.0,3.0,yes,no,yes,Canto,6,Flauta travesera,6,,,nada ,68.0,yes
113,2024-02-22_20h01.24.323,Unsyncopated_study3,s124,20 ,feminino,right,españa,castellano y catalán,Upper secondary,no,no,A,1,what,L4,unsyncopated,s2,r2,113,Online_whatL4//b.ja.nu6.888.1776.wav,bo,ña,bu,sil,ja,re,pe,sil1,nu,ci,sil2,['miss'],,,0.888,beat,,,,ja,1,,,,,,,,,,,,,,,3 ,2.0,Castellano,0.0,Catalán,0.0,Inglés,5.0,3.0,3.0,yes,no,yes,Canto,6,Flauta travesera,6,,,nada ,68.0,yes
114,2024-02-22_20h01.24.323,Unsyncopated_study3,s124,20 ,feminino,right,españa,castellano y catalán,Upper secondary,no,no,A,1,what,L4,unsyncopated,s2,r2,114,Online_whatL4//b.ja.nu5.888.1776.wav,re,ña,ci,sil,ja,bu,ru,sil1,nu,de,sil2,['catch'],[2.240700000047582],[2.240700000047582],0.888,beat,,1.352700000047582,"[""space""]",ja,1,,,,,,,,,,,,,,,3 ,2.0,Castellano,0.0,Catalán,0.0,Inglés,5.0,3.0,3.0,yes,no,yes,Canto,6,Flauta travesera,6,,,nada ,68.0,yes
115,2024-02-22_20h01.24.323,Unsyncopated_study3,s124,20 ,feminino,right,españa,castellano y catalán,Upper secondary,no,no,A,1,what,L4,unsyncopated,s1,r2,115,Online_whatL4//b.ja.nu4.0.888.wav,ja,po,ru,sil,nu,ñi,de,sil2,ña,bo,sil1,['catch'],[0.8456000001431221],[0.8456000001431221],0.0,beat,0.8456000001431221,0.8456000001431221,"[""space""]",ja,1,,,,,,,,,,,,,,,3 ,2.0,Castellano,0.0,Catalán,0.0,Inglés,5.0,3.0,3.0,yes,no,yes,Canto,6,Flauta travesera,6,,,nada ,68.0,yes
116,2024-02-22_20h01.24.323,Unsyncopated_study3,s124,20 ,feminino,right,españa,castellano y catalán,Upper secondary,no,no,A,1,what,L4,unsyncopated,s1,r2,116,Online_whatL4//b.ja.nu18.0.1110.wav,ja,re,ru,sil2,nu,bu,bo,sil,po,de,sil1,['catch'],[0.9315000000001419],[0.9315000000001419],0.0,beat,0.931500000000142,0.931500000000142,"[""space""]",ja,1,,,,,,,,,,,,,,,3 ,2.0,Castellano,0.0,Catalán,0.0,Inglés,5.0,3.0,3.0,yes,no,yes,Canto,6,Flauta travesera,6,,,nada ,68.0,yes
117,2024-02-22_20h01.24.323,Unsyncopated_study3,s124,20 ,feminino,right,españa,castellano y catalán,Upper secondary,no,no,A,1,what,L4,unsyncopated,s1,r1,117,Online_whatL4//b.ja.nu19.none.none.wav,zi,pe,de,sil2,lo,bo,ru,sil,bu,po,sil1,['-'],,,none,none,,,,ja,1,,,,,,,,,,,,,,,3 ,2.0,Castellano,0.0,Catalán,0.0,Inglés,5.0,3.0,3.0,yes,no,yes,Canto,6,Flauta travesera,6,,,nada ,68.0,yes
118,2024-02-22_20h01.24.323,Unsyncopated_study3,s124,20 ,feminino,right,españa,castellano y catalán,Upper secondary,no,no,A,1,what,L4,unsyncopated,s2,r1,118,Online_whatL4//b.ja.nu16.none.none.wav,bo,pe,po,sil,zi,ci,ñi,sil2,lo,ru,sil1,['-'],,,none,none,,,,ja,1,,,,,,,,,,,,,,,3 ,2.0,Castellano,0.0,Catalán,0.0,Inglés,5.0,3.0,3.0,yes,no,yes,Canto,6,Flauta travesera,6,,,nada ,68.0,yes
119,2024-02-22_20h01.24.323,Unsyncopated_study3,s124,20 ,feminino,right,españa,castellano y catalán,Upper secondary,no,no,A,1,what,L4,unsyncopated,s1,r1,119,Online_whatL4//b.ja.nu17.none.none.wav,zi,ñi,ña,sil2,lo,pe,ci,sil,po,re,sil1,['-'],,,none,none,,,,ja,1,,,,,,,,,,,,,,,3 ,2.0,Castellano,0.0,Catalán,0.0,Inglés,5.0,3.0,3.0,yes,no,yes,Canto,6,Flauta travesera,6,,,nada ,68.0,yes
120,2024-02-22_20h01.24.323,Unsyncopated_study3,s124,20 ,feminino,right,españa,castellano y catalán,Upper secondary,no,no,A,1,what,L4,unsyncopated,s1,r2,120,Online_whatL4//a.zi.lo31.none.none.wav,ja,da,ru,sil,nu,pe,bu,sil2,ñi,ña,sil1,['false alarm'],[0.5459000000953438],[0.5459000000953438],none,none,,,"[""space""]",lo,2,,,,,,,,,,,,,,,3 ,2.0,Castellano,0.0,Catalán,0.0,Inglés,5.0,3.0,3.0,yes,no,yes,Canto,6,Flauta travesera,6,,,nada ,68.0,yes
121,2024-02-22_20h01.24.323,Unsyncopated_study3,s124,20 ,feminino,right,españa,castellano y catalán,Upper secondary,no,no,A,1,what,L4,unsyncopated,s1,r1,121,Online_whatL4//a.zi.lo30.0.1110.wav,zi,da,ña,sil2,lo,bo,pe,sil,bu,re,sil1,['catch'],[1.8967999999524636],[1.8967999999524636],1.11,no_beat,0.7867999999524635,0.7867999999524635,"[""space""]",lo,2,,,,,,,,,,,,,,,3 ,2.0,Castellano,0.0,Catalán,0.0,Inglés,5.0,3.0,3.0,yes,no,yes,Canto,6,Flauta travesera,6,,,nada ,68.0,yes
122,2024-02-22_20h01.24.323,Unsyncopated_study3,s124,20 ,feminino,right,españa,castellano y catalán,Upper secondary,no,no,A,1,what,L4,unsyncopated,s2,r2,122,Online_whatL4//a.zi.lo28.none.none.wav,ñi,re,de,sil,ja,bu,po,sil1,nu,ci,sil2,['-'],,,none,none,,,,lo,2,,,,,,,,,,,,,,,3 ,2.0,Castellano,0.0,Catalán,0.0,Inglés,5.0,3.0,3.0,yes,no,yes,Canto,6,Flauta travesera,6,,,nada ,68.0,yes
123,2024-02-22_20h01.24.323,Unsyncopated_study3,s124,20 ,feminino,right,españa,castellano y catalán,Upper secondary,no,no,A,1,what,L4,unsyncopated,s1,r2,123,Online_whatL4//a.zi.lo29.none.none.wav,ja,da,pe,sil,nu,ña,ru,sil1,ñi,ci,sil2,['-'],,,none,none,,,,lo,2,,,,,,,,,,,,,,,3 ,2.0,Castellano,0.0,Catalán,0.0,Inglés,5.0,3.0,3.0,yes,no,yes,Canto,6,Flauta travesera,6,,,nada ,68.0,yes
124,2024-02-22_20h01.24.323,Unsyncopated_study3,s124,20 ,feminino,right,españa,castellano y catalán,Upper secondary,no,no,A,1,what,L4,unsyncopated,s1,r2,124,Online_whatL4//a.zi.lo5.none.none.wav,ja,ci,bo,sil,nu,da,bu,sil1,ña,ru,sil2,['-'],,,none,none,,,,lo,2,,,,,,,,,,,,,,,3 ,2.0,Castellano,0.0,Catalán,0.0,Inglés,5.0,3.0,3.0,yes,no,yes,Canto,6,Flauta travesera,6,,,nada ,68.0,yes
125,2024-02-22_20h01.24.323,Unsyncopated_study3,s124,20 ,feminino,right,españa,castellano y catalán,Upper secondary,no,no,A,1,what,L4,unsyncopated,s2,r1,125,Online_whatL4//a.zi.lo4.1110.1998.wav,ci,ñi,po,sil2,zi,bo,re,sil,lo,pe,sil1,['catch'],[2.5632000000478],[2.5632000000478],1.998,no_beat,0.5652000000478001,0.5652000000478001,"[""space""]",lo,2,,,,,,,,,,,,,,,3 ,2.0,Castellano,0.0,Catalán,0.0,Inglés,5.0,3.0,3.0,yes,no,yes,Canto,6,Flauta travesera,6,,,nada ,68.0,yes
126,2024-02-22_20h01.24.323,Unsyncopated_study3,s124,20 ,feminino,right,españa,castellano y catalán,Upper secondary,no,no,A,1,what,L4,unsyncopated,s2,r2,126,Online_whatL4//a.zi.lo7.none.none.wav,po,ci,ñi,sil2,ja,bo,de,sil,nu,ña,sil1,['-'],,,none,none,,,,lo,2,,,,,,,,,,,,,,,3 ,2.0,Castellano,0.0,Catalán,0.0,Inglés,5.0,3.0,3.0,yes,no,yes,Canto,6,Flauta travesera,6,,,nada ,68.0,yes
127,2024-02-22_20h01.24.323,Unsyncopated_study3,s124,20 ,feminino,right,españa,castellano y catalán,Upper secondary,no,no,A,1,what,L4,unsyncopated,s2,r1,127,Online_whatL4//a.zi.lo6.1110.1998.wav,pe,de,ñi,sil2,zi,ru,bu,sil,lo,ci,sil1,['catch'],[2.52740000009544],[2.52740000009544],1.998,no_beat,0.5294000000954402,0.5294000000954402,"[""space""]",lo,2,,,,,,,,,,,,,,,3 ,2.0,Castellano,0.0,Catalán,0.0,Inglés,5.0,3.0,3.0,yes,no,yes,Canto,6,Flauta travesera,6,,,nada ,68.0,yes
128,2024-02-22_20h01.24.323,Unsyncopated_study3,s124,20 ,feminino,right,españa,castellano y catalán,Upper secondary,no,no,A,2,conjunction_syn,L2,syncopated,s2,r2,0,Online_conjL2_syn//b.fe.ra8.666.1554.wav,to,mi,ño,fe,sil,cha,te,ra,sil1,me,sil2,['miss'],,,0.666,no_beat,,,,fe,1,,,,,,,,,,,,,,,3 ,2.0,Castellano,0.0,Catalán,0.0,Inglés,5.0,3.0,3.0,yes,no,yes,Canto,6,Flauta travesera,6,,,nada ,68.0,yes
129,2024-02-22_20h01.24.323,Unsyncopated_study3,s124,20 ,feminino,right,españa,castellano y catalán,Upper secondary,no,no,A,2,conjunction_syn,L2,syncopated,s1,r2,1,Online_conjL2_syn//b.fe.ra10.0.666.wav,fe,bi,cha,ra,sil,si,te,su,sil1,ba,sil2,['miss'],,,0.0,beat,,,,fe,1,,,,,,,,,,,,,,,3 ,2.0,Castellano,0.0,Catalán,0.0,Inglés,5.0,3.0,3.0,yes,no,yes,Canto,6,Flauta travesera,6,,,nada ,68.0,yes
130,2024-02-22_20h01.24.323,Unsyncopated_study3,s124,20 ,feminino,right,españa,castellano y catalán,Upper secondary,no,no,A,2,conjunction_syn,L2,syncopated,s1,r2,2,Online_conjL2_syn//b.fe.ra11.0.666.wav,fe,to,bi,ra,sil,mi,me,ñu,sil1,ba,sil2,['miss'],,,0.0,beat,,,,fe,1,,,,,,,,,,,,,,,3 ,2.0,Castellano,0.0,Catalán,0.0,Inglés,5.0,3.0,3.0,yes,no,yes,Canto,6,Flauta travesera,6,,,nada ,68.0,yes
131,2024-02-22_20h01.24.323,Unsyncopated_study3,s124,20 ,feminino,right,españa,castellano y catalán,Upper secondary,no,no,A,2,conjunction_syn,L2,syncopated,s2,r2,3,Online_conjL2_syn//b.fe.ra9.666.1554.wav,cha,to,bi,fe,sil,ñu,me,ra,sil1,ño,sil2,['miss'],,,0.666,no_beat,,,,fe,1,,,,,,,,,,,,,,,3 ,2.0,Castellano,0.0,Catalán,0.0,Inglés,5.0,3.0,3.0,yes,no,yes,Canto,6,Flauta travesera,6,,,nada ,68.0,yes
132,2024-02-22_20h01.24.323,Unsyncopated_study3,s124,20 ,feminino,right,españa,castellano y catalán,Upper secondary,no,no,A,2,conjunction_syn,L2,syncopated,s2,r2,4,Online_conjL2_syn//b.fe.ra5.666.1554.wav,ñu,te,to,fe,sil,ba,su,ra,sil1,mi,sil2,['miss'],,,0.666,no_beat,,,,fe,1,,,,,,,,,,,,,,,3 ,2.0,Castellano,0.0,Catalán,0.0,Inglés,5.0,3.0,3.0,yes,no,yes,Canto,6,Flauta travesera,6,,,nada ,68.0,yes
133,2024-02-22_20h01.24.323,Unsyncopated_study3,s124,20 ,feminino,right,españa,castellano y catalán,Upper secondary,no,no,A,2,conjunction_syn,L2,syncopated,s2,r1,5,Online_conjL2_syn//b.fe.ra6.none.none.wav,te,ño,ba,go,sil,ñu,cha,du,sil1,su,sil2,['-'],,,none,none,,,,fe,1,,,,,,,,,,,,,,,3 ,2.0,Castellano,0.0,Catalán,0.0,Inglés,5.0,3.0,3.0,yes,no,yes,Canto,6,Flauta travesera,6,,,nada ,68.0,yes
134,2024-02-22_20h01.24.323,Unsyncopated_study3,s124,20 ,feminino,right,españa,castellano y catalán,Upper secondary,no,no,A,2,conjunction_syn,L2,syncopated,s2,r1,6,Online_conjL2_syn//b.fe.ra4.none.none.wav,me,bi,ño,go,sil,ñu,to,du,sil1,te,sil2,['-'],,,none,none,,,,fe,1,,,,,,,,,,,,,,,3 ,2.0,Castellano,0.0,Catalán,0.0,Inglés,5.0,3.0,3.0,yes,no,yes,Canto,6,Flauta travesera,6,,,nada ,68.0,yes
135,2024-02-22_20h01.24.323,Unsyncopated_study3,s124,20 ,feminino,right,españa,castellano y catalán,Upper secondary,no,no,A,2,conjunction_syn,L2,syncopated,s2,r1,7,Online_conjL2_syn//b.fe.ra7.none.none.wav,ba,cha,me,go,sil,su,si,du,sil1,mi,sil2,['-'],,,none,none,,,,fe,1,,,,,,,,,,,,,,,3 ,2.0,Castellano,0.0,Catalán,0.0,Inglés,5.0,3.0,3.0,yes,no,yes,Canto,6,Flauta travesera,6,,,nada ,68.0,yes
136,2024-02-22_20h01.24.323,Unsyncopated_study3,s124,20 ,feminino,right,españa,castellano y catalán,Upper secondary,no,no,A,2,conjunction_syn,L2,syncopated,s1,r1,8,Online_conjL2_syn//b.fe.ra21.none.none.wav,go,bi,cha,du,sil,te,me,mi,sil1,ba,sil2,['-'],,,none,none,,,,fe,1,,,,,,,,,,,,,,,3 ,2.0,Castellano,0.0,Catalán,0.0,Inglés,5.0,3.0,3.0,yes,no,yes,Canto,6,Flauta travesera,6,,,nada ,68.0,yes
137,2024-02-22_20h01.24.323,Unsyncopated_study3,s124,20 ,feminino,right,españa,castellano y catalán,Upper secondary,no,no,A,2,conjunction_syn,L2,syncopated,s2,r1,9,Online_conjL2_syn//b.fe.ra23.none.none.wav,me,su,bi,go,sil,ñu,mi,du,sil1,si,sil2,['-'],,,none,none,,,,fe,1,,,,,,,,,,,,,,,3 ,2.0,Castellano,0.0,Catalán,0.0,Inglés,5.0,3.0,3.0,yes,no,yes,Canto,6,Flauta travesera,6,,,nada ,68.0,yes
138,2024-02-22_20h01.24.323,Unsyncopated_study3,s124,20 ,feminino,right,españa,castellano y catalán,Upper secondary,no,no,A,2,conjunction_syn,L2,syncopated,s2,r2,10,Online_conjL2_syn//b.fe.ra20.666.1554.wav,si,ño,cha,fe,sil,to,me,ra,sil1,su,sil2,['miss'],,,0.666,no_beat,,,,fe,1,,,,,,,,,,,,,,,3 ,2.0,Castellano,0.0,Catalán,0.0,Inglés,5.0,3.0,3.0,yes,no,yes,Canto,6,Flauta travesera,6,,,nada ,68.0,yes
139,2024-02-22_20h01.24.323,Unsyncopated_study3,s124,20 ,feminino,right,españa,castellano y catalán,Upper secondary,no,no,A,2,conjunction_syn,L2,syncopated,s2,r1,11,Online_conjL2_syn//b.fe.ra22.none.none.wav,cha,ño,me,go,sil,ñu,to,du,sil1,mi,sil2,['-'],,,none,none,,,,fe,1,,,,,,,,,,,,,,,3 ,2.0,Castellano,0.0,Catalán,0.0,Inglés,5.0,3.0,3.0,yes,no,yes,Canto,6,Flauta travesera,6,,,nada ,68.0,yes
140,2024-02-22_20h01.24.323,Unsyncopated_study3,s124,20 ,feminino,right,españa,castellano y catalán,Upper secondary,no,no,A,2,conjunction_syn,L2,syncopated,s1,r1,12,Online_conjL2_syn//a.go.du29.0.666.wav,go,ñu,su,du,sil,si,me,to,sil1,bi,sil2,['catch'],[1.1814000000952092],[1.1814000000952092],0.666,no_beat,0.5154000000952091,0.5154000000952091,"[""space""]",du,2,,,,,,,,,,,,,,,3 ,2.0,Castellano,0.0,Catalán,0.0,Inglés,5.0,3.0,3.0,yes,no,yes,Canto,6,Flauta travesera,6,,,nada ,68.0,yes
141,2024-02-22_20h01.24.323,Unsyncopated_study3,s124,20 ,feminino,right,españa,castellano y catalán,Upper secondary,no,no,A,2,conjunction_syn,L2,syncopated,s2,r2,13,Online_conjL2_syn//a.go.du30.none.none.wav,to,ñu,me,fe,sil,bi,ño,ra,sil1,su,sil2,['-'],,,none,none,,,,du,2,,,,,,,,,,,,,,,3 ,2.0,Castellano,0.0,Catalán,0.0,Inglés,5.0,3.0,3.0,yes,no,yes,Canto,6,Flauta travesera,6,,,nada ,68.0,yes
142,2024-02-22_20h01.24.323,Unsyncopated_study3,s124,20 ,feminino,right,españa,castellano y catalán,Upper secondary,no,no,A,2,conjunction_syn,L2,syncopated,s1,r1,14,Online_conjL2_syn//a.go.du31.0.666.wav,go,ba,su,du,sil,ñu,si,bi,sil1,me,sil2,['catch'],[1.669499999999971],[1.669499999999971],0.666,no_beat,1.003499999999971,1.003499999999971,"[""space""]",du,2,,,,,,,,,,,,,,,3 ,2.0,Castellano,0.0,Catalán,0.0,Inglés,5.0,3.0,3.0,yes,no,yes,Canto,6,Flauta travesera,6,,,nada ,68.0,yes
143,2024-02-22_20h01.24.323,Unsyncopated_study3,s124,20 ,feminino,right,españa,castellano y catalán,Upper secondary,no,no,A,2,conjunction_syn,L2,syncopated,s2,r2,15,Online_conjL2_syn//a.go.du28.none.none.wav,me,su,ba,fe,sil,mi,to,ra,sil1,cha,sil2,['-'],,,none,none,,,,du,2,,,,,,,,,,,,,,,3 ,2.0,Castellano,0.0,Catalán,0.0,Inglés,5.0,3.0,3.0,yes,no,yes,Canto,6,Flauta travesera,6,,,nada ,68.0,yes
144,2024-02-22_20h01.24.323,Unsyncopated_study3,s124,20 ,feminino,right,españa,castellano y catalán,Upper secondary,no,no,A,2,conjunction_syn,L2,syncopated,s1,r1,16,Online_conjL2_syn//b.fe.ra26.none.none.wav,go,ño,mi,du,sil,me,si,bi,sil1,ba,sil2,['-'],,,none,none,,,,fe,1,,,,,,,,,,,,,,,3 ,2.0,Castellano,0.0,Catalán,0.0,Inglés,5.0,3.0,3.0,yes,no,yes,Canto,6,Flauta travesera,6,,,nada ,68.0,yes
145,2024-02-22_20h01.24.323,Unsyncopated_study3,s124,20 ,feminino,right,españa,castellano y catalán,Upper secondary,no,no,A,2,conjunction_syn,L2,syncopated,s2,r1,17,Online_conjL2_syn//b.fe.ra24.none.none.wav,ñu,me,cha,go,sil,ba,to,du,sil1,si,sil2,['-'],,,none,none,,,,fe,1,,,,,,,,,,,,,,,3 ,2.0,Castellano,0.0,Catalán,0.0,Inglés,5.0,3.0,3.0,yes,no,yes,Canto,6,Flauta travesera,6,,,nada ,68.0,yes
146,2024-02-22_20h01.24.323,Unsyncopated_study3,s124,20 ,feminino,right,españa,castellano y catalán,Upper secondary,no,no,A,2,conjunction_syn,L2,syncopated,s1,r1,18,Online_conjL2_syn//b.fe.ra25.none.none.wav,go,to,mi,du,sil,me,ba,si,sil1,su,sil2,['-'],,,none,none,,,,fe,1,,,,,,,,,,,,,,,3 ,2.0,Castellano,0.0,Catalán,0.0,Inglés,5.0,3.0,3.0,yes,no,yes,Canto,6,Flauta travesera,6,,,nada ,68.0,yes
147,2024-02-22_20h01.24.323,Unsyncopated_study3,s124,20 ,feminino,right,españa,castellano y catalán,Upper secondary,no,no,A,2,conjunction_syn,L2,syncopated,s1,r2,19,Online_conjL2_syn//b.fe.ra27.0.666.wav,fe,ñu,si,ra,sil,ño,to,te,sil1,su,sil2,['miss'],,,0.0,beat,,,,fe,1,,,,,,,,,,,,,,,3 ,2.0,Castellano,0.0,Catalán,0.0,Inglés,5.0,3.0,3.0,yes,no,yes,Canto,6,Flauta travesera,6,,,nada ,68.0,yes
148,2024-02-22_20h01.24.323,Unsyncopated_study3,s124,20 ,feminino,right,españa,castellano y catalán,Upper secondary,no,no,A,2,conjunction_syn,L2,syncopated,s2,r2,20,Online_conjL2_syn//c.cha.me4.1110.0.wav,me,si,bi,fe,sil,cha,to,ra,sil1,su,sil2,['catch'],[1.5482999999524054],[1.5482999999524054],1.11,no_beat,0.4382999999524053,0.4382999999524053,"[""space""]",cha,3,,,,,,,,,,,,,,,3 ,2.0,Castellano,0.0,Catalán,0.0,Inglés,5.0,3.0,3.0,yes,no,yes,Canto,6,Flauta travesera,6,,,nada ,68.0,yes
149,2024-02-22_20h01.24.323,Unsyncopated_study3,s124,20 ,feminino,right,españa,castellano y catalán,Upper secondary,no,no,A,2,conjunction_syn,L2,syncopated,s1,r1,21,Online_conjL2_syn//c.cha.me6.none.none.wav,go,to,si,du,sil,ñu,ño,mi,sil1,ba,sil2,['-'],,,none,none,,,,cha,3,,,,,,,,,,,,,,,3 ,2.0,Castellano,0.0,Catalán,0.0,Inglés,5.0,3.0,3.0,yes,no,yes,Canto,6,Flauta travesera,6,,,nada ,68.0,yes
150,2024-02-22_20h01.24.323,Unsyncopated_study3,s124,20 ,feminino,right,españa,castellano y catalán,Upper secondary,no,no,A,2,conjunction_syn,L2,syncopated,s2,r2,22,Online_conjL2_syn//c.cha.me7.none.none.wav,te,mi,ba,fe,sil,ñu,su,ra,sil1,to,sil2,['-'],,,none,none,,,,cha,3,,,,,,,,,,,,,,,3 ,2.0,Castellano,0.0,Catalán,0.0,Inglés,5.0,3.0,3.0,yes,no,yes,Canto,6,Flauta travesera,6,,,nada ,68.0,yes
151,2024-02-22_20h01.24.323,Unsyncopated_study3,s124,20 ,feminino,right,españa,castellano y catalán,Upper secondary,no,no,A,2,conjunction_syn,L2,syncopated,s2,r1,23,Online_conjL2_syn//c.cha.me5.none.none.wav,ño,mi,ñu,go,sil,ba,te,du,sil1,su,sil2,['-'],,,none,none,,,,cha,3,,,,,,,,,,,,,,,3 ,2.0,Castellano,0.0,Catalán,0.0,Inglés,5.0,3.0,3.0,yes,no,yes,Canto,6,Flauta travesera,6,,,nada ,68.0,yes
152,2024-02-22_20h01.24.323,Unsyncopated_study3,s124,20 ,feminino,right,españa,castellano y catalán,Upper secondary,no,no,A,2,conjunction_syn,L2,syncopated,s1,r2,24,Online_conjL2_syn//b.fe.ra14.0.666.wav,fe,te,ño,ra,sil,su,cha,bi,sil1,to,sil2,['catch'],[1.1525999999046235],[1.1525999999046235],0.0,beat,1.1525999999046237,1.1525999999046237,"[""space""]",fe,1,,,,,,,,,,,,,,,3 ,2.0,Castellano,0.0,Catalán,0.0,Inglés,5.0,3.0,3.0,yes,no,yes,Canto,6,Flauta travesera,6,,,nada ,68.0,yes
153,2024-02-22_20h01.24.323,Unsyncopated_study3,s124,20 ,feminino,right,españa,castellano y catalán,Upper secondary,no,no,A,2,conjunction_syn,L2,syncopated,s1,r2,25,Online_conjL2_syn//b.fe.ra13.0.666.wav,fe,si,ba,ra,sil,bi,su,ñu,sil1,ño,sil2,['miss'],,,0.0,beat,,,,fe,1,,,,,,,,,,,,,,,3 ,2.0,Castellano,0.0,Catalán,0.0,Inglés,5.0,3.0,3.0,yes,no,yes,Canto,6,Flauta travesera,6,,,nada ,68.0,yes
154,2024-02-22_20h01.24.323,Unsyncopated_study3,s124,20 ,feminino,right,españa,castellano y catalán,Upper secondary,no,no,A,2,conjunction_syn,L2,syncopated,s2,r1,26,Online_conjL2_syn//b.fe.ra12.none.none.wav,ba,to,mi,go,sil,bi,si,du,sil1,me,sil2,['-'],,,none,none,,,,fe,1,,,,,,,,,,,,,,,3 ,2.0,Castellano,0.0,Catalán,0.0,Inglés,5.0,3.0,3.0,yes,no,yes,Canto,6,Flauta travesera,6,,,nada ,68.0,yes
155,2024-02-22_20h01.24.323,Unsyncopated_study3,s124,20 ,feminino,right,españa,castellano y catalán,Upper secondary,no,no,A,2,conjunction_syn,L2,syncopated,s1,r1,27,Online_conjL2_syn//b.fe.ra15.none.none.wav,go,ñu,to,du,sil,bi,cha,ño,sil1,ba,sil2,['-'],,,none,none,,,,fe,1,,,,,,,,,,,,,,,3 ,2.0,Castellano,0.0,Catalán,0.0,Inglés,5.0,3.0,3.0,yes,no,yes,Canto,6,Flauta travesera,6,,,nada ,68.0,yes
156,2024-02-22_20h01.24.323,Unsyncopated_study3,s124,20 ,feminino,right,españa,castellano y catalán,Upper secondary,no,no,A,2,conjunction_syn,L2,syncopated,s2,r2,28,Online_conjL2_syn//a.go.du21.none.none.wav,cha,te,to,fe,sil,si,ba,ra,sil1,bi,sil2,['-'],,,none,none,,,,du,2,,,,,,,,,,,,,,,3 ,2.0,Castellano,0.0,Catalán,0.0,Inglés,5.0,3.0,3.0,yes,no,yes,Canto,6,Flauta travesera,6,,,nada ,68.0,yes
157,2024-02-22_20h01.24.323,Unsyncopated_study3,s124,20 ,feminino,right,españa,castellano y catalán,Upper secondary,no,no,A,2,conjunction_syn,L2,syncopated,s2,r2,29,Online_conjL2_syn//a.go.du22.none.none.wav,to,cha,mi,fe,sil,bi,ba,ra,sil1,si,sil2,['-'],,,none,none,,,,du,2,,,,,,,,,,,,,,,3 ,2.0,Castellano,0.0,Catalán,0.0,Inglés,5.0,3.0,3.0,yes,no,yes,Canto,6,Flauta travesera,6,,,nada ,68.0,yes
158,2024-02-22_20h01.24.323,Unsyncopated_study3,s124,20 ,feminino,right,españa,castellano y catalán,Upper secondary,no,no,A,2,conjunction_syn,L2,syncopated,s1,r1,30,Online_conjL2_syn//a.go.du23.0.666.wav,go,te,ba,du,sil,bi,si,su,sil1,ñu,sil2,['catch'],[1.5032999999523327],[1.5032999999523327],0.666,no_beat,0.8372999999523326,0.8372999999523326,"[""space""]",du,2,,,,,,,,,,,,,,,3 ,2.0,Castellano,0.0,Catalán,0.0,Inglés,5.0,3.0,3.0,yes,no,yes,Canto,6,Flauta travesera,6,,,nada ,68.0,yes
159,2024-02-22_20h01.24.323,Unsyncopated_study3,s124,20 ,feminino,right,españa,castellano y catalán,Upper secondary,no,no,A,2,conjunction_syn,L2,syncopated,s2,r2,31,Online_conjL2_syn//a.go.du20.none.none.wav,to,ba,me,fe,sil,su,te,ra,sil1,ñu,sil2,['-'],,,none,none,,,,du,2,,,,,,,,,,,,,,,3 ,2.0,Castellano,0.0,Catalán,0.0,Inglés,5.0,3.0,3.0,yes,no,yes,Canto,6,Flauta travesera,6,,,nada ,68.0,yes
160,2024-02-22_20h01.24.323,Unsyncopated_study3,s124,20 ,feminino,right,españa,castellano y catalán,Upper secondary,no,no,A,2,conjunction_syn,L2,syncopated,s1,r2,32,Online_conjL2_syn//d.si.ñu19.444.1110.wav,fe,bi,si,ra,sil,ñu,te,to,sil1,ño,sil2,['catch'],[0.8975999999047417],[0.8975999999047417],0.444,no_beat,0.4535999999047417,0.4535999999047417,"[""space""]",si,4,,,,,,,,,,,,,,,3 ,2.0,Castellano,0.0,Catalán,0.0,Inglés,5.0,3.0,3.0,yes,no,yes,Canto,6,Flauta travesera,6,,,nada ,68.0,yes
161,2024-02-22_20h01.24.323,Unsyncopated_study3,s124,20 ,feminino,right,españa,castellano y catalán,Upper secondary,no,no,A,2,conjunction_syn,L2,syncopated,s2,r2,33,Online_conjL2_syn//d.si.ñu16.none.none.wav,te,to,bi,fe,sil,me,mi,ra,sil1,cha,sil2,['-'],,,none,none,,,,si,4,,,,,,,,,,,,,,,3 ,2.0,Castellano,0.0,Catalán,0.0,Inglés,5.0,3.0,3.0,yes,no,yes,Canto,6,Flauta travesera,6,,,nada ,68.0,yes
162,2024-02-22_20h01.24.323,Unsyncopated_study3,s124,20 ,feminino,right,españa,castellano y catalán,Upper secondary,no,no,A,2,conjunction_syn,L2,syncopated,s2,r1,34,Online_conjL2_syn//d.si.ñu17.0.222.wav,si,ñu,te,go,sil,to,ba,du,sil1,bi,sil2,['catch'],[0.6297000000477055],[0.6297000000477055],0.0,beat,0.6297000000477055,0.6297000000477055,"[""space""]",si,4,,,,,,,,,,,,,,,3 ,2.0,Castellano,0.0,Catalán,0.0,Inglés,5.0,3.0,3.0,yes,no,yes,Canto,6,Flauta travesera,6,,,nada ,68.0,yes
163,2024-02-22_20h01.24.323,Unsyncopated_study3,s124,20 ,feminino,right,españa,castellano y catalán,Upper secondary,no,no,A,2,conjunction_syn,L2,syncopated,s2,r2,35,Online_conjL2_syn//d.si.ñu18.none.none.wav,te,su,to,fe,sil,me,cha,ra,sil1,ba,sil2,['-'],,,none,none,,,,si,4,,,,,,,,,,,,,,,3 ,2.0,Castellano,0.0,Catalán,0.0,Inglés,5.0,3.0,3.0,yes,no,yes,Canto,6,Flauta travesera,6,,,nada ,68.0,yes
164,2024-02-22_20h01.24.323,Unsyncopated_study3,s124,20 ,feminino,right,españa,castellano y catalán,Upper secondary,no,no,A,2,conjunction_syn,L2,syncopated,s1,r1,36,Online_conjL2_syn//c.cha.me10.none.none.wav,go,te,bi,du,sil,si,ño,ba,sil1,to,sil2,['-'],,,none,none,,,,cha,3,,,,,,,,,,,,,,,3 ,2.0,Castellano,0.0,Catalán,0.0,Inglés,5.0,3.0,3.0,yes,no,yes,Canto,6,Flauta travesera,6,,,nada ,68.0,yes
165,2024-02-22_20h01.24.323,Unsyncopated_study3,s124,20 ,feminino,right,españa,castellano y catalán,Upper secondary,no,no,A,2,conjunction_syn,L2,syncopated,s2,r2,37,Online_conjL2_syn//c.cha.me9.none.none.wav,ño,mi,to,fe,sil,si,te,ra,sil1,ñu,sil2,['-'],,,none,none,,,,cha,3,,,,,,,,,,,,,,,3 ,2.0,Castellano,0.0,Catalán,0.0,Inglés,5.0,3.0,3.0,yes,no,yes,Canto,6,Flauta travesera,6,,,nada ,68.0,yes
166,2024-02-22_20h01.24.323,Unsyncopated_study3,s124,20 ,feminino,right,españa,castellano y catalán,Upper secondary,no,no,A,2,conjunction_syn,L2,syncopated,s2,r2,38,Online_conjL2_syn//c.cha.me8.222.1110.wav,si,cha,to,fe,sil,me,ba,ra,sil1,ñu,sil2,['catch'],[0.7220999999046853],[0.7220999999046853],0.222,no_beat,0.5000999999046853,0.5000999999046853,"[""space""]",cha,3,,,,,,,,,,,,,,,3 ,2.0,Castellano,0.0,Catalán,0.0,Inglés,5.0,3.0,3.0,yes,no,yes,Canto,6,Flauta travesera,6,,,nada ,68.0,yes
167,2024-02-22_20h01.24.323,Unsyncopated_study3,s124,20 ,feminino,right,españa,castellano y catalán,Upper secondary,no,no,A,2,conjunction_syn,L2,syncopated,s1,r2,39,Online_conjL2_syn//c.cha.me11.1554.1110.wav,fe,mi,ñu,ra,sil,me,si,cha,sil1,ba,sil2,['catch'],[2.0594000000953656],[2.0594000000953656],1.554,no_beat,0.5054000000953656,0.5054000000953656,"[""space""]",cha,3,,,,,,,,,,,,,,,3 ,2.0,Castellano,0.0,Catalán,0.0,Inglés,5.0,3.0,3.0,yes,no,yes,Canto,6,Flauta travesera,6,,,nada ,68.0,yes
168,2024-02-22_20h01.24.323,Unsyncopated_study3,s124,20 ,feminino,right,españa,castellano y catalán,Upper secondary,no,no,A,2,conjunction_syn,L2,syncopated,s1,r2,40,Online_conjL2_syn//c.cha.me15.222.1110.wav,fe,cha,si,ra,sil,me,su,ba,sil1,ñu,sil2,['catch'],[1.0672000000477055],[1.0672000000477055],0.222,no_beat,0.8452000000477056,0.8452000000477056,"[""space""]",cha,3,,,,,,,,,,,,,,,3 ,2.0,Castellano,0.0,Catalán,0.0,Inglés,5.0,3.0,3.0,yes,no,yes,Canto,6,Flauta travesera,6,,,nada ,68.0,yes
169,2024-02-22_20h01.24.323,Unsyncopated_study3,s124,20 ,feminino,right,españa,castellano y catalán,Upper secondary,no,no,A,2,conjunction_syn,L2,syncopated,s1,r1,41,Online_conjL2_syn//c.cha.me12.none.none.wav,go,te,ño,du,sil,bi,ñu,to,sil1,mi,sil2,['-'],,,none,none,,,,cha,3,,,,,,,,,,,,,,,3 ,2.0,Castellano,0.0,Catalán,0.0,Inglés,5.0,3.0,3.0,yes,no,yes,Canto,6,Flauta travesera,6,,,nada ,68.0,yes
170,2024-02-22_20h01.24.323,Unsyncopated_study3,s124,20 ,feminino,right,españa,castellano y catalán,Upper secondary,no,no,A,2,conjunction_syn,L2,syncopated,s1,r2,42,Online_conjL2_syn//c.cha.me14.none.none.wav,fe,to,su,ra,sil,si,te,mi,sil1,bi,sil2,['-'],,,none,none,,,,cha,3,,,,,,,,,,,,,,,3 ,2.0,Castellano,0.0,Catalán,0.0,Inglés,5.0,3.0,3.0,yes,no,yes,Canto,6,Flauta travesera,6,,,nada ,68.0,yes
171,2024-02-22_20h01.24.323,Unsyncopated_study3,s124,20 ,feminino,right,españa,castellano y catalán,Upper secondary,no,no,A,2,conjunction_syn,L2,syncopated,s1,r1,43,Online_conjL2_syn//c.cha.me13.222.1110.wav,go,cha,su,du,sil,me,ño,ñu,sil1,mi,sil2,['catch'],[0.7962000000477474],[0.7962000000477474],0.222,no_beat,0.5742000000477474,0.5742000000477474,"[""space""]",cha,3,,,,,,,,,,,,,,,3 ,2.0,Castellano,0.0,Catalán,0.0,Inglés,5.0,3.0,3.0,yes,no,yes,Canto,6,Flauta travesera,6,,,nada ,68.0,yes
172,2024-02-22_20h01.24.323,Unsyncopated_study3,s124,20 ,feminino,right,españa,castellano y catalán,Upper secondary,no,no,A,2,conjunction_syn,L2,syncopated,s2,r2,44,Online_conjL2_syn//d.si.ñu26.none.none.wav,ba,su,cha,fe,sil,mi,me,ra,sil1,to,sil2,['-'],,,none,none,,,,si,4,,,,,,,,,,,,,,,3 ,2.0,Castellano,0.0,Catalán,0.0,Inglés,5.0,3.0,3.0,yes,no,yes,Canto,6,Flauta travesera,6,,,nada ,68.0,yes
173,2024-02-22_20h01.24.323,Unsyncopated_study3,s124,20 ,feminino,right,españa,castellano y catalán,Upper secondary,no,no,A,2,conjunction_syn,L2,syncopated,s2,r2,45,Online_conjL2_syn//d.si.ñu25.none.none.wav,mi,to,ño,fe,sil,bi,ba,ra,sil1,su,sil2,['-'],,,none,none,,,,si,4,,,,,,,,,,,,,,,3 ,2.0,Castellano,0.0,Catalán,0.0,Inglés,5.0,3.0,3.0,yes,no,yes,Canto,6,Flauta travesera,6,,,nada ,68.0,yes
174,2024-02-22_20h01.24.323,Unsyncopated_study3,s124,20 ,feminino,right,españa,castellano y catalán,Upper secondary,no,no,A,2,conjunction_syn,L2,syncopated,s2,r1,46,Online_conjL2_syn//d.si.ñu27.none.none.wav,cha,ño,ba,go,sil,mi,to,du,sil1,bi,sil2,['-'],,,none,none,,,,si,4,,,,,,,,,,,,,,,3 ,2.0,Castellano,0.0,Catalán,0.0,Inglés,5.0,3.0,3.0,yes,no,yes,Canto,6,Flauta travesera,6,,,nada ,68.0,yes
175,2024-02-22_20h01.24.323,Unsyncopated_study3,s124,20 ,feminino,right,españa,castellano y catalán,Upper secondary,no,no,A,2,conjunction_syn,L2,syncopated,s2,r2,47,Online_conjL2_syn//d.si.ñu24.222.1110.wav,ba,si,cha,fe,sil,ñu,su,ra,sil1,ño,sil2,['catch'],[0.7237999999522344],[0.7237999999522344],0.222,no_beat,0.5017999999522345,0.5017999999522345,"[""space""]",si,4,,,,,,,,,,,,,,,3 ,2.0,Castellano,0.0,Catalán,0.0,Inglés,5.0,3.0,3.0,yes,no,yes,Canto,6,Flauta travesera,6,,,nada ,68.0,yes
176,2024-02-22_20h01.24.323,Unsyncopated_study3,s124,20 ,feminino,right,españa,castellano y catalán,Upper secondary,no,no,A,2,conjunction_syn,L2,syncopated,s1,r2,48,Online_conjL2_syn//a.go.du5.none.none.wav,fe,ñu,cha,ra,sil,te,ño,ba,sil1,si,sil2,['-'],,,none,none,,,,du,2,,,,,,,,,,,,,,,3 ,2.0,Castellano,0.0,Catalán,0.0,Inglés,5.0,3.0,3.0,yes,no,yes,Canto,6,Flauta travesera,6,,,nada ,68.0,yes
177,2024-02-22_20h01.24.323,Unsyncopated_study3,s124,20 ,feminino,right,españa,castellano y catalán,Upper secondary,no,no,A,2,conjunction_syn,L2,syncopated,s1,r1,49,Online_conjL2_syn//a.go.du6.0.666.wav,go,bi,to,du,sil,me,su,ba,sil1,te,sil2,['catch'],[1.2637000000474927],[1.2637000000474927],0.666,no_beat,0.5977000000474927,0.5977000000474927,"[""space""]",du,2,,,,,,,,,,,,,,,3 ,2.0,Castellano,0.0,Catalán,0.0,Inglés,5.0,3.0,3.0,yes,no,yes,Canto,6,Flauta travesera,6,,,nada ,68.0,yes
178,2024-02-22_20h01.24.323,Unsyncopated_study3,s124,20 ,feminino,right,españa,castellano y catalán,Upper secondary,no,no,A,2,conjunction_syn,L2,syncopated,s2,r1,50,Online_conjL2_syn//a.go.du4.666.1554.wav,mi,si,te,go,sil,ño,to,du,sil1,ñu,sil2,['catch'],[2.0398999998569707],[2.0398999998569707],1.554,no_beat,0.4858999998569706,0.4858999998569706,"[""space""]",du,2,,,,,,,,,,,,,,,3 ,2.0,Castellano,0.0,Catalán,0.0,Inglés,5.0,3.0,3.0,yes,no,yes,Canto,6,Flauta travesera,6,,,nada ,68.0,yes
179,2024-02-22_20h01.24.323,Unsyncopated_study3,s124,20 ,feminino,right,españa,castellano y catalán,Upper secondary,no,no,A,2,conjunction_syn,L2,syncopated,s1,r2,51,Online_conjL2_syn//a.go.du7.none.none.wav,fe,mi,ñu,ra,sil,ño,ba,me,sil1,su,sil2,['-'],,,none,none,,,,du,2,,,,,,,,,,,,,,,3 ,2.0,Castellano,0.0,Catalán,0.0,Inglés,5.0,3.0,3.0,yes,no,yes,Canto,6,Flauta travesera,6,,,nada ,68.0,yes
180,2024-02-22_20h01.24.323,Unsyncopated_study3,s124,20 ,feminino,right,españa,castellano y catalán,Upper secondary,no,no,A,2,conjunction_syn,L2,syncopated,s1,r1,52,Online_conjL2_syn//d.si.ñu29.1554.222.wav,go,ñu,me,du,sil,ño,mi,si,sil1,to,sil2,['catch'],[2.0095999999045944],[2.0095999999045944],1.554,no_beat,0.4555999999045943,0.4555999999045943,"[""space""]",si,4,,,,,,,,,,,,,,,3 ,2.0,Castellano,0.0,Catalán,0.0,Inglés,5.0,3.0,3.0,yes,no,yes,Canto,6,Flauta travesera,6,,,nada ,68.0,yes
181,2024-02-22_20h01.24.323,Unsyncopated_study3,s124,20 ,feminino,right,españa,castellano y catalán,Upper secondary,no,no,A,2,conjunction_syn,L2,syncopated,s1,r1,53,Online_conjL2_syn//d.si.ñu30.222.1332.wav,go,si,te,du,sil,ño,ñu,mi,sil1,bi,sil2,['catch'],[1.053899999856867],[1.053899999856867],0.222,no_beat,0.831899999856867,0.831899999856867,"[""space""]",si,4,,,,,,,,,,,,,,,3 ,2.0,Castellano,0.0,Catalán,0.0,Inglés,5.0,3.0,3.0,yes,no,yes,Canto,6,Flauta travesera,6,,,nada ,68.0,yes
182,2024-02-22_20h01.24.323,Unsyncopated_study3,s124,20 ,feminino,right,españa,castellano y catalán,Upper secondary,no,no,A,2,conjunction_syn,L2,syncopated,s1,r2,54,Online_conjL2_syn//d.si.ñu28.1554.1110.wav,fe,te,su,ra,sil,ñu,bi,si,sil1,mi,sil2,['catch'],[2.1447000000478056],[2.1447000000478056],1.554,no_beat,0.5907000000478055,0.5907000000478055,"[""space""]",si,4,,,,,,,,,,,,,,,3 ,2.0,Castellano,0.0,Catalán,0.0,Inglés,5.0,3.0,3.0,yes,no,yes,Canto,6,Flauta travesera,6,,,nada ,68.0,yes
183,2024-02-22_20h01.24.323,Unsyncopated_study3,s124,20 ,feminino,right,españa,castellano y catalán,Upper secondary,no,no,A,2,conjunction_syn,L2,syncopated,s1,r1,55,Online_conjL2_syn//d.si.ñu31.none.none.wav,go,me,ño,du,sil,ba,te,mi,sil1,cha,sil2,['-'],,,none,none,,,,si,4,,,,,,,,,,,,,,,3 ,2.0,Castellano,0.0,Catalán,0.0,Inglés,5.0,3.0,3.0,yes,no,yes,Canto,6,Flauta travesera,6,,,nada ,68.0,yes
184,2024-02-22_20h01.24.323,Unsyncopated_study3,s124,20 ,feminino,right,españa,castellano y catalán,Upper secondary,no,no,A,2,conjunction_syn,L2,syncopated,s2,r1,56,Online_conjL2_syn//a.go.du24.666.1554.wav,ño,ñu,si,go,sil,me,su,du,sil1,te,sil2,['catch'],[1.977099999904567],[1.977099999904567],1.554,no_beat,0.423099999904567,0.423099999904567,"[""space""]",du,2,,,,,,,,,,,,,,,3 ,2.0,Castellano,0.0,Catalán,0.0,Inglés,5.0,3.0,3.0,yes,no,yes,Canto,6,Flauta travesera,6,,,nada ,68.0,yes
185,2024-02-22_20h01.24.323,Unsyncopated_study3,s124,20 ,feminino,right,españa,castellano y catalán,Upper secondary,no,no,A,2,conjunction_syn,L2,syncopated,s1,r2,57,Online_conjL2_syn//a.go.du26.none.none.wav,fe,ba,su,ra,sil,bi,me,ñu,sil1,cha,sil2,['-'],,,none,none,,,,du,2,,,,,,,,,,,,,,,3 ,2.0,Castellano,0.0,Catalán,0.0,Inglés,5.0,3.0,3.0,yes,no,yes,Canto,6,Flauta travesera,6,,,nada ,68.0,yes
186,2024-02-22_20h01.24.323,Unsyncopated_study3,s124,20 ,feminino,right,españa,castellano y catalán,Upper secondary,no,no,A,2,conjunction_syn,L2,syncopated,s1,r2,58,Online_conjL2_syn//a.go.du25.none.none.wav,fe,ba,to,ra,sil,me,cha,si,sil1,ño,sil2,['-'],,,none,none,,,,du,2,,,,,,,,,,,,,,,3 ,2.0,Castellano,0.0,Catalán,0.0,Inglés,5.0,3.0,3.0,yes,no,yes,Canto,6,Flauta travesera,6,,,nada ,68.0,yes
187,2024-02-22_20h01.24.323,Unsyncopated_study3,s124,20 ,feminino,right,españa,castellano y catalán,Upper secondary,no,no,A,2,conjunction_syn,L2,syncopated,s1,r1,59,Online_conjL2_syn//a.go.du27.0.666.wav,go,te,ñu,du,sil,bi,ño,su,sil1,me,sil2,['catch'],[1.0269999999998163],[1.0269999999998163],0.666,no_beat,0.3609999999998162,0.3609999999998162,"[""space""]",du,2,,,,,,,,,,,,,,,3 ,2.0,Castellano,0.0,Catalán,0.0,Inglés,5.0,3.0,3.0,yes,no,yes,Canto,6,Flauta travesera,6,,,nada ,68.0,yes
188,2024-02-22_20h01.24.323,Unsyncopated_study3,s124,20 ,feminino,right,españa,castellano y catalán,Upper secondary,no,no,A,2,conjunction_syn,L2,syncopated,s1,r1,60,Online_conjL2_syn//b.fe.ra29.none.none.wav,go,cha,si,du,sil,bi,to,ñu,sil1,ba,sil2,['-'],,,none,none,,,,fe,1,,,,,,,,,,,,,,,3 ,2.0,Castellano,0.0,Catalán,0.0,Inglés,5.0,3.0,3.0,yes,no,yes,Canto,6,Flauta travesera,6,,,nada ,68.0,yes
189,2024-02-22_20h01.24.323,Unsyncopated_study3,s124,20 ,feminino,right,españa,castellano y catalán,Upper secondary,no,no,A,2,conjunction_syn,L2,syncopated,s1,r1,61,Online_conjL2_syn//b.fe.ra28.none.none.wav,go,te,ñu,du,sil,ba,mi,me,sil1,ño,sil2,['-'],,,none,none,,,,fe,1,,,,,,,,,,,,,,,3 ,2.0,Castellano,0.0,Catalán,0.0,Inglés,5.0,3.0,3.0,yes,no,yes,Canto,6,Flauta travesera,6,,,nada ,68.0,yes
190,2024-02-22_20h01.24.323,Unsyncopated_study3,s124,20 ,feminino,right,españa,castellano y catalán,Upper secondary,no,no,A,2,conjunction_syn,L2,syncopated,s2,r2,62,Online_conjL2_syn//b.fe.ra31.666.1554.wav,bi,cha,te,fe,sil,me,ñu,ra,sil1,si,sil2,['miss'],,,0.666,no_beat,,,,fe,1,,,,,,,,,,,,,,,3 ,2.0,Castellano,0.0,Catalán,0.0,Inglés,5.0,3.0,3.0,yes,no,yes,Canto,6,Flauta travesera,6,,,nada ,68.0,yes
191,2024-02-22_20h01.24.323,Unsyncopated_study3,s124,20 ,feminino,right,españa,castellano y catalán,Upper secondary,no,no,A,2,conjunction_syn,L2,syncopated,s1,r2,63,Online_conjL2_syn//b.fe.ra30.0.666.wav,fe,ba,ñu,ra,sil,su,ño,mi,sil1,cha,sil2,['catch'],[0.7271000001430821],[0.7271000001430821],0.0,beat,0.7271000001430821,0.7271000001430821,"[""space""]",fe,1,,,,,,,,,,,,,,,3 ,2.0,Castellano,0.0,Catalán,0.0,Inglés,5.0,3.0,3.0,yes,no,yes,Canto,6,Flauta travesera,6,,,nada ,68.0,yes
192,2024-02-22_20h01.24.323,Unsyncopated_study3,s124,20 ,feminino,right,españa,castellano y catalán,Upper secondary,no,no,A,2,conjunction_syn,L2,syncopated,s2,r1,64,Online_conjL2_syn//a.go.du12.666.1554.wav,cha,bi,te,go,sil,ba,ñu,du,sil1,si,sil2,['catch'],[2.120100000143111],[2.120100000143111],1.554,no_beat,0.5661000001431111,0.5661000001431111,"[""space""]",du,2,,,,,,,,,,,,,,,3 ,2.0,Castellano,0.0,Catalán,0.0,Inglés,5.0,3.0,3.0,yes,no,yes,Canto,6,Flauta travesera,6,,,nada ,68.0,yes
193,2024-02-22_20h01.24.323,Unsyncopated_study3,s124,20 ,feminino,right,españa,castellano y catalán,Upper secondary,no,no,A,2,conjunction_syn,L2,syncopated,s1,r1,65,Online_conjL2_syn//a.go.du15.0.666.wav,go,bi,cha,du,sil,su,si,ño,sil1,me,sil2,['miss'],,,0.666,no_beat,,,,du,2,,,,,,,,,,,,,,,3 ,2.0,Castellano,0.0,Catalán,0.0,Inglés,5.0,3.0,3.0,yes,no,yes,Canto,6,Flauta travesera,6,,,nada ,68.0,yes
194,2024-02-22_20h01.24.323,Unsyncopated_study3,s124,20 ,feminino,right,españa,castellano y catalán,Upper secondary,no,no,A,2,conjunction_syn,L2,syncopated,s2,r1,66,Online_conjL2_syn//a.go.du13.666.1554.wav,su,bi,ba,go,sil,ño,to,du,sil1,te,sil2,['catch'],[2.1539999999999964],[2.1539999999999964],1.554,no_beat,0.5999999999999963,0.5999999999999963,"[""space""]",du,2,,,,,,,,,,,,,,,3 ,2.0,Castellano,0.0,Catalán,0.0,Inglés,5.0,3.0,3.0,yes,no,yes,Canto,6,Flauta travesera,6,,,nada ,68.0,yes
195,2024-02-22_20h01.24.323,Unsyncopated_study3,s124,20 ,feminino,right,españa,castellano y catalán,Upper secondary,no,no,A,2,conjunction_syn,L2,syncopated,s2,r1,67,Online_conjL2_syn//a.go.du14.666.1554.wav,si,ba,me,go,sil,ño,su,du,sil1,to,sil2,['catch'],[2.077900000095269],[2.077900000095269],1.554,no_beat,0.5239000000952692,0.5239000000952692,"[""space""]",du,2,,,,,,,,,,,,,,,3 ,2.0,Castellano,0.0,Catalán,0.0,Inglés,5.0,3.0,3.0,yes,no,yes,Canto,6,Flauta travesera,6,,,nada ,68.0,yes
196,2024-02-22_20h01.24.323,Unsyncopated_study3,s124,20 ,feminino,right,españa,castellano y catalán,Upper secondary,no,no,A,2,conjunction_syn,L2,syncopated,s2,r1,68,Online_conjL2_syn//b.fe.ra2.none.none.wav,te,to,bi,go,sil,cha,ñu,du,sil1,su,sil2,['-'],,,none,none,,,,fe,1,,,,,,,,,,,,,,,3 ,2.0,Castellano,0.0,Catalán,0.0,Inglés,5.0,3.0,3.0,yes,no,yes,Canto,6,Flauta travesera,6,,,nada ,68.0,yes
197,2024-02-22_20h01.24.323,Unsyncopated_study3,s124,20 ,feminino,right,españa,castellano y catalán,Upper secondary,no,no,A,2,conjunction_syn,L2,syncopated,s2,r2,69,Online_conjL2_syn//b.fe.ra3.666.1554.wav,cha,ba,ñu,fe,sil,me,ño,ra,sil1,bi,sil2,['miss'],,,0.666,no_beat,,,,fe,1,,,,,,,,,,,,,,,3 ,2.0,Castellano,0.0,Catalán,0.0,Inglés,5.0,3.0,3.0,yes,no,yes,Canto,6,Flauta travesera,6,,,nada ,68.0,yes
198,2024-02-22_20h01.24.323,Unsyncopated_study3,s124,20 ,feminino,right,españa,castellano y catalán,Upper secondary,no,no,A,2,conjunction_syn,L2,syncopated,s2,r2,70,Online_conjL2_syn//b.fe.ra0.666.1554.wav,te,si,ba,fe,sil,mi,ño,ra,sil1,cha,sil2,['miss'],,,0.666,no_beat,,,,fe,1,,,,,,,,,,,,,,,3 ,2.0,Castellano,0.0,Catalán,0.0,Inglés,5.0,3.0,3.0,yes,no,yes,Canto,6,Flauta travesera,6,,,nada ,68.0,yes
199,2024-02-22_20h01.24.323,Unsyncopated_study3,s124,20 ,feminino,right,españa,castellano y catalán,Upper secondary,no,no,A,2,conjunction_syn,L2,syncopated,s1,r2,71,Online_conjL2_syn//b.fe.ra1.0.666.wav,fe,to,bi,ra,sil,me,te,su,sil1,ño,sil2,['catch'],[0.6384000000953165],[0.6384000000953165],0.0,beat,0.6384000000953165,0.6384000000953165,"[""space""]",fe,1,,,,,,,,,,,,,,,3 ,2.0,Castellano,0.0,Catalán,0.0,Inglés,5.0,3.0,3.0,yes,no,yes,Canto,6,Flauta travesera,6,,,nada ,68.0,yes
200,2024-02-22_20h01.24.323,Unsyncopated_study3,s124,20 ,feminino,right,españa,castellano y catalán,Upper secondary,no,no,A,2,conjunction_syn,L2,syncopated,s1,r2,72,Online_conjL2_syn//d.si.ñu9.1110.1332.wav,fe,te,ño,ra,sil,si,ñu,bi,sil1,cha,sil2,['catch'],[1.5809999999999036],[1.5809999999999036],1.11,no_beat,0.4709999999999035,0.4709999999999035,"[""space""]",si,4,,,,,,,,,,,,,,,3 ,2.0,Castellano,0.0,Catalán,0.0,Inglés,5.0,3.0,3.0,yes,no,yes,Canto,6,Flauta travesera,6,,,nada ,68.0,yes
201,2024-02-22_20h01.24.323,Unsyncopated_study3,s124,20 ,feminino,right,españa,castellano y catalán,Upper secondary,no,no,A,2,conjunction_syn,L2,syncopated,s1,r2,73,Online_conjL2_syn//d.si.ñu8.none.none.wav,fe,ba,bi,ra,sil,cha,ño,te,sil1,mi,sil2,['-'],,,none,none,,,,si,4,,,,,,,,,,,,,,,3 ,2.0,Castellano,0.0,Catalán,0.0,Inglés,5.0,3.0,3.0,yes,no,yes,Canto,6,Flauta travesera,6,,,nada ,68.0,yes
202,2024-02-22_20h01.24.323,Unsyncopated_study3,s124,20 ,feminino,right,españa,castellano y catalán,Upper secondary,no,no,A,2,conjunction_syn,L2,syncopated,s2,r1,74,Online_conjL2_syn//d.si.ñu10.none.none.wav,ño,te,me,go,sil,su,to,du,sil1,ba,sil2,['-'],,,none,none,,,,si,4,,,,,,,,,,,,,,,3 ,2.0,Castellano,0.0,Catalán,0.0,Inglés,5.0,3.0,3.0,yes,no,yes,Canto,6,Flauta travesera,6,,,nada ,68.0,yes
203,2024-02-22_20h01.24.323,Unsyncopated_study3,s124,20 ,feminino,right,españa,castellano y catalán,Upper secondary,no,no,A,2,conjunction_syn,L2,syncopated,s1,r2,75,Online_conjL2_syn//d.si.ñu11.none.none.wav,fe,me,ño,ra,sil,su,to,cha,sil1,bi,sil2,['-'],,,none,none,,,,si,4,,,,,,,,,,,,,,,3 ,2.0,Castellano,0.0,Catalán,0.0,Inglés,5.0,3.0,3.0,yes,no,yes,Canto,6,Flauta travesera,6,,,nada ,68.0,yes
204,2024-02-22_20h01.24.323,Unsyncopated_study3,s124,20 ,feminino,right,españa,castellano y catalán,Upper secondary,no,no,A,2,conjunction_syn,L2,syncopated,s2,r2,76,Online_conjL2_syn//d.si.ñu12.0.222.wav,si,ñu,cha,fe,sil,te,me,ra,sil1,to,sil2,['catch'],[0.6307999999521599],[0.6307999999521599],0.0,beat,0.6307999999521599,0.6307999999521599,"[""space""]",si,4,,,,,,,,,,,,,,,3 ,2.0,Castellano,0.0,Catalán,0.0,Inglés,5.0,3.0,3.0,yes,no,yes,Canto,6,Flauta travesera,6,,,nada ,68.0,yes
205,2024-02-22_20h01.24.323,Unsyncopated_study3,s124,20 ,feminino,right,españa,castellano y catalán,Upper secondary,no,no,A,2,conjunction_syn,L2,syncopated,s2,r1,77,Online_conjL2_syn//d.si.ñu15.none.none.wav,su,ño,ba,go,sil,bi,mi,du,sil1,to,sil2,['-'],,,none,none,,,,si,4,,,,,,,,,,,,,,,3 ,2.0,Castellano,0.0,Catalán,0.0,Inglés,5.0,3.0,3.0,yes,no,yes,Canto,6,Flauta travesera,6,,,nada ,68.0,yes
206,2024-02-22_20h01.24.323,Unsyncopated_study3,s124,20 ,feminino,right,españa,castellano y catalán,Upper secondary,no,no,A,2,conjunction_syn,L2,syncopated,s1,r2,78,Online_conjL2_syn//d.si.ñu14.none.none.wav,fe,cha,bi,ra,sil,to,mi,me,sil1,ba,sil2,['-'],,,none,none,,,,si,4,,,,,,,,,,,,,,,3 ,2.0,Castellano,0.0,Catalán,0.0,Inglés,5.0,3.0,3.0,yes,no,yes,Canto,6,Flauta travesera,6,,,nada ,68.0,yes
207,2024-02-22_20h01.24.323,Unsyncopated_study3,s124,20 ,feminino,right,españa,castellano y catalán,Upper secondary,no,no,A,2,conjunction_syn,L2,syncopated,s2,r1,79,Online_conjL2_syn//d.si.ñu13.none.none.wav,bi,te,to,go,sil,ño,cha,du,sil1,me,sil2,['-'],,,none,none,,,,si,4,,,,,,,,,,,,,,,3 ,2.0,Castellano,0.0,Catalán,0.0,Inglés,5.0,3.0,3.0,yes,no,yes,Canto,6,Flauta travesera,6,,,nada ,68.0,yes
208,2024-02-22_20h01.24.323,Unsyncopated_study3,s124,20 ,feminino,right,españa,castellano y catalán,Upper secondary,no,no,A,2,conjunction_syn,L2,syncopated,s1,r2,80,Online_conjL2_syn//c.cha.me21.222.444.wav,fe,cha,me,ra,sil,su,ñu,to,sil1,mi,sil2,['catch'],[0.4964999999999691],[0.4964999999999691],0.222,no_beat,0.2744999999999691,0.2744999999999691,"[""space""]",cha,3,,,,,,,,,,,,,,,3 ,2.0,Castellano,0.0,Catalán,0.0,Inglés,5.0,3.0,3.0,yes,no,yes,Canto,6,Flauta travesera,6,,,nada ,68.0,yes
209,2024-02-22_20h01.24.323,Unsyncopated_study3,s124,20 ,feminino,right,españa,castellano y catalán,Upper secondary,no,no,A,2,conjunction_syn,L2,syncopated,s1,r1,81,Online_conjL2_syn//c.cha.me20.none.none.wav,go,mi,si,du,sil,bi,ba,ño,sil1,su,sil2,['-'],,,none,none,,,,cha,3,,,,,,,,,,,,,,,3 ,2.0,Castellano,0.0,Catalán,0.0,Inglés,5.0,3.0,3.0,yes,no,yes,Canto,6,Flauta travesera,6,,,nada ,68.0,yes
210,2024-02-22_20h01.24.323,Unsyncopated_study3,s124,20 ,feminino,right,españa,castellano y catalán,Upper secondary,no,no,A,2,conjunction_syn,L2,syncopated,s1,r1,82,Online_conjL2_syn//c.cha.me22.1554.444.wav,go,bi,me,du,sil,to,ba,cha,sil1,ño,sil2,['catch'],[1.9947000000477146],[1.9947000000477146],1.554,no_beat,0.4407000000477146,0.4407000000477146,"[""space""]",cha,3,,,,,,,,,,,,,,,3 ,2.0,Castellano,0.0,Catalán,0.0,Inglés,5.0,3.0,3.0,yes,no,yes,Canto,6,Flauta travesera,6,,,nada ,68.0,yes
211,2024-02-22_20h01.24.323,Unsyncopated_study3,s124,20 ,feminino,right,españa,castellano y catalán,Upper secondary,no,no,A,2,conjunction_syn,L2,syncopated,s1,r2,83,Online_conjL2_syn//c.cha.me23.none.none.wav,fe,bi,ñu,ra,sil,ba,su,to,sil1,te,sil2,['-'],,,none,none,,,,cha,3,,,,,,,,,,,,,,,3 ,2.0,Castellano,0.0,Catalán,0.0,Inglés,5.0,3.0,3.0,yes,no,yes,Canto,6,Flauta travesera,6,,,nada ,68.0,yes
212,2024-02-22_20h01.24.323,Unsyncopated_study3,s124,20 ,feminino,right,españa,castellano y catalán,Upper secondary,no,no,A,2,conjunction_syn,L2,syncopated,s1,r2,84,Online_conjL2_syn//c.cha.me27.none.none.wav,fe,si,su,ra,sil,ño,to,ñu,sil1,ba,sil2,['-'],,,none,none,,,,cha,3,,,,,,,,,,,,,,,3 ,2.0,Castellano,0.0,Catalán,0.0,Inglés,5.0,3.0,3.0,yes,no,yes,Canto,6,Flauta travesera,6,,,nada ,68.0,yes
213,2024-02-22_20h01.24.323,Unsyncopated_study3,s124,20 ,feminino,right,españa,castellano y catalán,Upper secondary,no,no,A,2,conjunction_syn,L2,syncopated,s1,r1,85,Online_conjL2_syn//c.cha.me26.1332.222.wav,go,me,si,du,sil,ño,cha,su,sil1,ba,sil2,['catch'],[2.2704999999998563],[2.2704999999998563],1.332,no_beat,0.9384999999998562,0.9384999999998562,"[""space""]",cha,3,,,,,,,,,,,,,,,3 ,2.0,Castellano,0.0,Catalán,0.0,Inglés,5.0,3.0,3.0,yes,no,yes,Canto,6,Flauta travesera,6,,,nada ,68.0,yes
