Unnamed: 0,date,expName,participant,age,sex,hand,residence,native_lang,education_level,lang_deficit,aud_deficit,group,block,condition,language,rhythm,rule structure online,rule type online,order_trial_on,trial_online,s1,s2,s3,s4,s5,s6,s7,s8,s9,s10,s11,catch_syll_resp,rts_syll_catch,clean_rts,time_syll,beat_no_beat,catch_rtsTR,catch_rts,syllable_catch.keys,cond_syll,syll_to_catch,test_offline,block_off,condition_off,rhythm_off,rule,rule_str_off,rule_norule,conds_offline,language_off,Partz_no_partm.keys,Partz_no_partm.rt,security_1_7.keys,accuracy,security_1_7.rt,n_lang,n_lang_used,lang_1,age_l1,lang_2,age_l2,lang_3,age_l3,lang_4,age_l4,ability_learn_l2,tendence_mix_lan,music_experience,muisc_use,partiture,instr_1,age_M1,preguntas_musica1,BMRQ_answer.response,final comment,BMRQ_Score,bilingual
0,2024-04-15_13h02.47.233,Unsyncopated_study3,s147,18.0,feminino,left,España,Castellano,Upper secondary,no,no,B,1,when,L1,unsyncopated,when,when,0,Online_whenL1//b.ta7.888.wav,lu,fa,fo,sil,ta,pu,ri,sil1,ni,ne,sil2,['catch'],[1.669999999999959],[1.669999999999959],0.888,beat,0.7819999999999591,0.7819999999999591,"[""space""]",ta,2,testWhenL1Uns//r2.s2.2.wav,1.0,when,unsyncopated,b,s2,rule,rule,L1,m,3.3192,4.0,0.0,0.1132,4 ,2.0,Castellano,0.0,Catalán,0.0,Inglés,3.0,Francés,12.0,4.0,3.0,no,no,yes,Nada,,1. Cuando comparto música con alguien siento una complicidad especial con aquella persona.,4.0,"En el úlitmo lenguaje en la fase 3 alguna frase se medio cortaba, por lo demás todo bien! ",77.0,yes
1,2024-04-15_13h02.47.233,Unsyncopated_study3,s147,18.0,feminino,left,España,Castellano,Upper secondary,no,no,B,1,when,L1,unsyncopated,when,when,1,Online_whenL1//b.ta6.none.wav,ze,zu,la,sil,ni,ri,ki,sil1,ro,pu,sil2,['-'],,,none,none,,,,ta,2,testWhenL1Uns//cat_viol.r1.s2.0.wav,1.0,when,unsyncopated,a,s2,no_rule,cat,L1,z,0.7334,6.0,1.0,0.5482,4 ,2.0,Castellano,0.0,Catalán,0.0,Inglés,3.0,Francés,12.0,4.0,3.0,no,no,yes,Nada,,2. En mi tiempo libre apenas escucho música.,4.0,"En el úlitmo lenguaje en la fase 3 alguna frase se medio cortaba, por lo demás todo bien! ",77.0,yes
2,2024-04-15_13h02.47.233,Unsyncopated_study3,s147,18.0,feminino,left,España,Castellano,Upper secondary,no,no,B,1,when,L1,unsyncopated,when,when,2,Online_whenL1//b.ta5.1332.wav,pu,ro,cho,sil,zu,fa,ta,sil1,ri,ne,sil2,['catch'],[2.1635999999939486],[2.1635999999939486],1.332,no_beat,0.8315999999939485,0.8315999999939485,"[""space""]",ta,2,testWhenL1Uns//r1.s2.0.wav,1.0,when,unsyncopated,a,s2,rule,rule,L1,z,0.6179,5.0,1.0,0.4503,4 ,2.0,Castellano,0.0,Catalán,0.0,Inglés,3.0,Francés,12.0,4.0,3.0,no,no,yes,Nada,,3. Algunas canciones me ponen los pelos de punta,4.0,"En el úlitmo lenguaje en la fase 3 alguna frase se medio cortaba, por lo demás todo bien! ",77.0,yes
3,2024-04-15_13h02.47.233,Unsyncopated_study3,s147,18.0,feminino,left,España,Castellano,Upper secondary,no,no,B,1,when,L1,unsyncopated,when,when,3,Online_whenL1//b.ta4.1776.wav,ni,pu,ze,sil,fo,ro,ne,sil1,ta,zu,sil2,['catch_delay'],[0.9893000000119747],[0.9893000000119747],1.776,beat,0.9893000000119748,0.9893000000119748,,ta,2,testWhenL1Uns//r2.s1.2.wav,1.0,when,unsyncopated,b,s1,rule,rule,L1,m,0.5175,5.0,0.0,0.7333,4 ,2.0,Castellano,0.0,Catalán,0.0,Inglés,3.0,Francés,12.0,4.0,3.0,no,no,yes,Nada,,4. La música me hace compañía cuando estoy solo,4.0,"En el úlitmo lenguaje en la fase 3 alguna frase se medio cortaba, por lo demás todo bien! ",77.0,yes
4,2024-04-15_13h02.47.233,Unsyncopated_study3,s147,18.0,feminino,left,España,Castellano,Upper secondary,no,no,B,1,when,L1,unsyncopated,when,when,4,Online_whenL1//d.ne3.none.wav,fo,la,be,sil,pu,fa,ni,sil1,lu,cho,sil2,['-'],[0.10130000001197459],[0.10130000001197459],none,none,,,"[""space""]",ne,4,testWhenL1Uns//r2.s2.1.wav,1.0,when,unsyncopated,b,s2,rule,rule,L1,z,0.3682,6.0,1.0,0.3002,4 ,2.0,Castellano,0.0,Catalán,0.0,Inglés,3.0,Francés,12.0,4.0,3.0,no,no,yes,Nada,,5. No me apetece bailar ni con la música que más me gusta,5.0,"En el úlitmo lenguaje en la fase 3 alguna frase se medio cortaba, por lo demás todo bien! ",77.0,yes
5,2024-04-15_13h02.47.233,Unsyncopated_study3,s147,18.0,feminino,left,España,Castellano,Upper secondary,no,no,B,1,when,L1,unsyncopated,when,when,5,Online_whenL1//d.ne2.none.wav,lu,ze,ni,sil,pu,la,ri,sil1,ki,zu,sil2,['-'],,,none,none,,,,ne,4,testWhenL1Uns//r2.s1.1.wav,1.0,when,unsyncopated,b,s1,rule,rule,L1,m,1.3003,3.0,0.0,0.1509,4 ,2.0,Castellano,0.0,Catalán,0.0,Inglés,3.0,Francés,12.0,4.0,3.0,no,no,yes,Nada,,6. La música me hace conectar con la gente,4.0,"En el úlitmo lenguaje en la fase 3 alguna frase se medio cortaba, por lo demás todo bien! ",77.0,yes
6,2024-04-15_13h02.47.233,Unsyncopated_study3,s147,18.0,feminino,left,España,Castellano,Upper secondary,no,no,B,1,when,L1,unsyncopated,when,when,6,Online_whenL1//d.ne0.1110.wav,ze,fa,fo,sil,pu,ne,ta,sil1,la,ni,sil2,['catch'],[2.449299999982145],[2.449299999982145],1.11,no_beat,,1.3392999999821449,"[""space""]",ne,4,testWhenL1Uns//r1.s1.0.wav,1.0,when,unsyncopated,a,s1,rule,rule,L1,z,0.4835,5.0,1.0,0.2966,4 ,2.0,Castellano,0.0,Catalán,0.0,Inglés,3.0,Francés,12.0,4.0,3.0,no,no,yes,Nada,,7. Me informo sobre la música que me gusta.,4.0,"En el úlitmo lenguaje en la fase 3 alguna frase se medio cortaba, por lo demás todo bien! ",77.0,yes
7,2024-04-15_13h02.47.233,Unsyncopated_study3,s147,18.0,feminino,left,España,Castellano,Upper secondary,no,no,B,1,when,L1,unsyncopated,when,when,7,Online_whenL1//d.ne1.none.wav,pu,zu,fo,sil,ze,fa,ni,sil1,ta,lu,sil2,['-'],,,none,none,,,,ne,4,testWhenL1Uns//cat_viol.r2.s2.0.wav,1.0,when,unsyncopated,b,s2,no_rule,cat,L1,m,0.1968,5.0,0.0,0.4604,4 ,2.0,Castellano,0.0,Catalán,0.0,Inglés,3.0,Francés,12.0,4.0,3.0,no,no,yes,Nada,,8.Me emociono escuchando ciertas canciones.,4.0,"En el úlitmo lenguaje en la fase 3 alguna frase se medio cortaba, por lo demás todo bien! ",77.0,yes
8,2024-04-15_13h02.47.233,Unsyncopated_study3,s147,18.0,feminino,left,España,Castellano,Upper secondary,no,no,B,1,when,L1,unsyncopated,when,when,8,Online_whenL1//c.ro2.1110.wav,fo,be,ri,sil,ni,ro,ta,sil1,la,zu,sil2,['catch'],[1.8969999999999345],[1.8969999999999345],1.11,no_beat,0.7869999999999344,0.7869999999999344,"[""space""]",ro,3,testWhenL1Uns//r1.s1.2.wav,1.0,when,unsyncopated,a,s1,rule,rule,L1,z,0.3508,5.0,1.0,1.0998,4 ,2.0,Castellano,0.0,Catalán,0.0,Inglés,3.0,Francés,12.0,4.0,3.0,no,no,yes,Nada,,9.La música me tranquiliza y me relaja.,3.0,"En el úlitmo lenguaje en la fase 3 alguna frase se medio cortaba, por lo demás todo bien! ",77.0,yes
9,2024-04-15_13h02.47.233,Unsyncopated_study3,s147,18.0,feminino,left,España,Castellano,Upper secondary,no,no,B,1,when,L1,unsyncopated,when,when,9,Online_whenL1//c.ro0.222.wav,zu,ro,ze,sil,ri,fo,pu,sil1,ki,lu,sil2,['catch'],[1.040599999994015],[1.040599999994015],0.222,no_beat,0.818599999994015,0.818599999994015,"[""space""]",ro,3,testWhenL1Uns//r1.s2.2.wav,1.0,when,unsyncopated,a,s2,rule,rule,L1,m,1.864,4.0,0.0,0.1015,4 ,2.0,Castellano,0.0,Catalán,0.0,Inglés,3.0,Francés,12.0,4.0,3.0,no,no,yes,Nada,,10.La música me hace bailar,4.0,"En el úlitmo lenguaje en la fase 3 alguna frase se medio cortaba, por lo demás todo bien! ",77.0,yes
10,2024-04-15_13h02.47.233,Unsyncopated_study3,s147,18.0,feminino,left,España,Castellano,Upper secondary,no,no,B,1,when,L1,unsyncopated,when,when,10,Online_whenL1//c.ro3.444.wav,ze,be,ro,sil,ri,pu,cho,sil1,lu,fa,sil2,['catch'],[1.1472000000179605],[1.1472000000179605],0.444,no_beat,0.7032000000179606,0.7032000000179606,"[""space""]",ro,3,testWhenL1Uns//dep_viol.r2.s1.0.wav,1.0,when,unsyncopated,b,s1,no_rule,dep,L1,z,0.7471,6.0,1.0,0.2181,4 ,2.0,Castellano,0.0,Catalán,0.0,Inglés,3.0,Francés,12.0,4.0,3.0,no,no,yes,Nada,,11.Busco novedades musicales continuamente,4.0,"En el úlitmo lenguaje en la fase 3 alguna frase se medio cortaba, por lo demás todo bien! ",77.0,yes
11,2024-04-15_13h02.47.233,Unsyncopated_study3,s147,18.0,feminino,left,España,Castellano,Upper secondary,no,no,B,1,when,L1,unsyncopated,when,when,11,Online_whenL1//c.ro1.none.wav,fo,be,cho,sil,lu,ze,ni,sil1,pu,la,sil2,['-'],,,none,none,,,,ro,3,testWhenL1Uns//cat_viol.r2.s1.0.wav,1.0,when,unsyncopated,b,s1,no_rule,cat,L1,m,0.3671,5.0,0.0,1.2502,4 ,2.0,Castellano,0.0,Catalán,0.0,Inglés,3.0,Francés,12.0,4.0,3.0,no,no,yes,Nada,,12. Puedo llorar cuando escucho algunas melodías que me gustan mucho.,4.0,"En el úlitmo lenguaje en la fase 3 alguna frase se medio cortaba, por lo demás todo bien! ",77.0,yes
12,2024-04-15_13h02.47.233,Unsyncopated_study3,s147,18.0,feminino,left,España,Castellano,Upper secondary,no,no,B,1,when,L1,unsyncopated,when,when,12,Online_whenL1//b.ta8.0.wav,ta,ki,lu,sil,cho,ne,ro,sil1,fo,ri,sil2,['catch'],[0.724200000017845],[0.724200000017845],0.0,beat,0.724200000017845,0.724200000017845,"[""space""]",ta,2,testWhenL1Uns//cat_viol.r1.s1.0.wav,1.0,when,unsyncopated,a,s1,no_rule,cat,L1,z,0.409,6.0,1.0,0.9675,4 ,2.0,Castellano,0.0,Catalán,0.0,Inglés,3.0,Francés,12.0,4.0,3.0,no,no,yes,Nada,,13. Me gusta cantar o tocar un instrumento con más gente,2.0,"En el úlitmo lenguaje en la fase 3 alguna frase se medio cortaba, por lo demás todo bien! ",77.0,yes
13,2024-04-15_13h02.47.233,Unsyncopated_study3,s147,18.0,feminino,left,España,Castellano,Upper secondary,no,no,B,1,when,L1,unsyncopated,when,when,13,Online_whenL1//b.ta9.0.wav,ta,ri,ni,sil,ki,ro,ze,sil1,lu,la,sil2,['catch'],[0.7995999999940295],[0.7995999999940295],0.0,beat,0.7995999999940295,0.7995999999940295,"[""space""]",ta,2,testWhenL1Uns//dep_viol.r1.s2.0.wav,1.0,when,unsyncopated,a,s2,no_rule,dep,L1,m,2.6746,4.0,0.0,0.1524,4 ,2.0,Castellano,0.0,Catalán,0.0,Inglés,3.0,Francés,12.0,4.0,3.0,no,no,yes,Nada,,14. La música me ayuda a desconectar.,4.0,"En el úlitmo lenguaje en la fase 3 alguna frase se medio cortaba, por lo demás todo bien! ",77.0,yes
14,2024-04-15_13h02.47.233,Unsyncopated_study3,s147,18.0,feminino,left,España,Castellano,Upper secondary,no,no,B,1,when,L1,unsyncopated,when,when,14,Online_whenL1//b.ta11.none.wav,cho,pu,ri,sil,ro,zu,lu,sil1,ki,fa,sil2,['-'],,,none,none,,,,ta,2,testWhenL1Uns//time_viol.r2.s1.0.wav,1.0,when,unsyncopated,b,s1,no_rule,time,L1,m,0.4456,3.0,0.0,0.6506,4 ,2.0,Castellano,0.0,Catalán,0.0,Inglés,3.0,Francés,12.0,4.0,3.0,no,no,yes,Nada,,15. No puedo evitar tararear las canciones que me gustan cuando las escucho.,4.0,"En el úlitmo lenguaje en la fase 3 alguna frase se medio cortaba, por lo demás todo bien! ",77.0,yes
15,2024-04-15_13h02.47.233,Unsyncopated_study3,s147,18.0,feminino,left,España,Castellano,Upper secondary,no,no,B,1,when,L1,unsyncopated,when,when,15,Online_whenL1//b.ta10.none.wav,lu,ro,la,sil,be,ze,ki,sil1,fo,ne,sil2,['-'],,,none,none,,,,ta,2,testWhenL1Uns//r2.s1.0.wav,1.0,when,unsyncopated,b,s1,rule,rule,L1,m,0.5853,3.0,0.0,0.7496,4 ,2.0,Castellano,0.0,Catalán,0.0,Inglés,3.0,Francés,12.0,4.0,3.0,no,no,yes,Nada,,16. En los conciertos me siento en sintonía con los artistas y el público.,4.0,"En el úlitmo lenguaje en la fase 3 alguna frase se medio cortaba, por lo demás todo bien! ",77.0,yes
16,2024-04-15_13h02.47.233,Unsyncopated_study3,s147,18.0,feminino,left,España,Castellano,Upper secondary,no,no,B,1,when,L1,unsyncopated,when,when,16,Online_whenL1//a.ki9.none.wav,la,ro,ze,sil,cho,fa,pu,sil1,ne,ta,sil2,['-'],,,none,none,,,,ki,1,testWhenL1Uns//r2.s2.0.wav,1.0,when,unsyncopated,b,s2,rule,rule,L1,z,0.3335,5.0,1.0,0.3837,4 ,2.0,Castellano,0.0,Catalán,0.0,Inglés,3.0,Francés,12.0,4.0,3.0,no,no,yes,Nada,,17. Me gasto bastante dinero en música y cosas relacionadas con la música.,3.0,"En el úlitmo lenguaje en la fase 3 alguna frase se medio cortaba, por lo demás todo bien! ",77.0,yes
17,2024-04-15_13h02.47.233,Unsyncopated_study3,s147,18.0,feminino,left,España,Castellano,Upper secondary,no,no,B,1,when,L1,unsyncopated,when,when,17,Online_whenL1//a.ki8.none.wav,ne,fo,zu,sil,pu,be,ni,sil1,ze,la,sil2,['-'],,,none,none,,,,ki,1,testWhenL1Uns//time_viol.r1.s1.0.wav,1.0,when,unsyncopated,a,s1,no_rule,time,L1,z,0.5032,6.0,1.0,0.2979,4 ,2.0,Castellano,0.0,Catalán,0.0,Inglés,3.0,Francés,12.0,4.0,3.0,no,no,yes,Nada,,18. Siento escalofríos cuando escucho una melodía que me gusta.,4.0,"En el úlitmo lenguaje en la fase 3 alguna frase se medio cortaba, por lo demás todo bien! ",77.0,yes
18,2024-04-15_13h02.47.233,Unsyncopated_study3,s147,18.0,feminino,left,España,Castellano,Upper secondary,no,no,B,1,when,L1,unsyncopated,when,when,18,Online_whenL1//a.ki11.none.wav,cho,la,pu,sil,zu,ta,ro,sil1,ni,ri,sil2,['-'],,,none,none,,,,ki,1,testWhenL1Uns//r1.s2.1.wav,1.0,when,unsyncopated,a,s2,rule,rule,L1,m,1.3665,2.0,0.0,0.1173,4 ,2.0,Castellano,0.0,Catalán,0.0,Inglés,3.0,Francés,12.0,4.0,3.0,no,no,yes,Nada,,19. Con la música me puedo desahogar.,4.0,"En el úlitmo lenguaje en la fase 3 alguna frase se medio cortaba, por lo demás todo bien! ",77.0,yes
19,2024-04-15_13h02.47.233,Unsyncopated_study3,s147,18.0,feminino,left,España,Castellano,Upper secondary,no,no,B,1,when,L1,unsyncopated,when,when,19,Online_whenL1//a.ki10.222.wav,ro,ki,be,sil,la,ri,lu,sil1,fo,fa,sil2,['catch'],[1.0649000000059914],[1.0649000000059914],0.222,no_beat,0.8429000000059914,0.8429000000059914,"[""space""]",ki,1,testWhenL1Uns//time_viol.r1.s2.0.wav,1.0,when,unsyncopated,a,s2,no_rule,time,L1,z,0.7029,4.0,1.0,0.4675,4 ,2.0,Castellano,0.0,Catalán,0.0,Inglés,3.0,Francés,12.0,4.0,3.0,no,no,yes,Nada,,20. Cuando escucho una melodía que me gusta mucho no puedo evitar mover el cuerpo.,4.0,"En el úlitmo lenguaje en la fase 3 alguna frase se medio cortaba, por lo demás todo bien! ",77.0,yes
20,2024-04-15_13h02.47.233,Unsyncopated_study3,s147,18.0,feminino,left,España,Castellano,Upper secondary,no,no,B,1,when,L1,unsyncopated,when,when,20,Online_whenL1//c.ro5.none.wav,ni,zu,ze,sil,pu,be,fa,sil1,cho,fo,sil2,['-'],,,none,none,,,,ro,3,testWhenL1Uns//time_viol.r2.s2.0.wav,1.0,when,unsyncopated,b,s2,no_rule,time,L1,z,0.4342,4.0,1.0,0.3849,4 ,2.0,Castellano,0.0,Catalán,0.0,Inglés,3.0,Francés,12.0,4.0,3.0,no,no,yes,Nada,,,,"En el úlitmo lenguaje en la fase 3 alguna frase se medio cortaba, por lo demás todo bien! ",77.0,yes
21,2024-04-15_13h02.47.233,Unsyncopated_study3,s147,18.0,feminino,left,España,Castellano,Upper secondary,no,no,B,1,when,L1,unsyncopated,when,when,21,Online_whenL1//c.ro6.none.wav,ri,ze,ta,sil,ne,zu,lu,sil1,be,fo,sil2,['-'],,,none,none,,,,ro,3,testWhenL1Uns//dep_viol.r1.s1.0.wav,1.0,when,unsyncopated,a,s1,no_rule,dep,L1,z,0.3175,4.0,1.0,0.3839,4 ,2.0,Castellano,0.0,Catalán,0.0,Inglés,3.0,Francés,12.0,4.0,3.0,no,no,yes,Nada,,,,"En el úlitmo lenguaje en la fase 3 alguna frase se medio cortaba, por lo demás todo bien! ",77.0,yes
22,2024-04-15_13h02.47.233,Unsyncopated_study3,s147,18.0,feminino,left,España,Castellano,Upper secondary,no,no,B,1,when,L1,unsyncopated,when,when,22,Online_whenL1//c.ro4.0.wav,ro,ri,ni,sil,pu,be,la,sil1,fa,ze,sil2,['catch'],[0.9335999999940441],[0.9335999999940441],0.0,beat,0.933599999994044,0.933599999994044,"[""space""]",ro,3,testWhenL1Uns//dep_viol.r2.s2.0.wav,1.0,when,unsyncopated,b,s2,no_rule,dep,L1,m,0.9651,4.0,0.0,0.0681,4 ,2.0,Castellano,0.0,Catalán,0.0,Inglés,3.0,Francés,12.0,4.0,3.0,no,no,yes,Nada,,,,"En el úlitmo lenguaje en la fase 3 alguna frase se medio cortaba, por lo demás todo bien! ",77.0,yes
23,2024-04-15_13h02.47.233,Unsyncopated_study3,s147,18.0,feminino,left,España,Castellano,Upper secondary,no,no,B,1,when,L1,unsyncopated,when,when,23,Online_whenL1//c.ro7.0.wav,ro,ta,pu,sil,fa,lu,fo,sil1,cho,ri,sil2,['miss'],,,0.0,beat,,,,ro,3,testWhenL1Uns//r1.s1.1.wav,1.0,when,unsyncopated,a,s1,rule,rule,L1,m,0.3998,4.0,0.0,0.4007,4 ,2.0,Castellano,0.0,Catalán,0.0,Inglés,3.0,Francés,12.0,4.0,3.0,no,no,yes,Nada,,,,"En el úlitmo lenguaje en la fase 3 alguna frase se medio cortaba, por lo demás todo bien! ",77.0,yes
24,2024-04-15_13h02.47.233,Unsyncopated_study3,s147,18.0,feminino,left,España,Castellano,Upper secondary,no,no,B,1,when,L1,unsyncopated,when,when,24,Online_whenL1//a.ki4.222.wav,fa,ki,zu,sil,ni,ta,lu,sil1,ro,ri,sil2,['catch'],[1.1119999999999663],[1.1119999999999663],0.222,no_beat,0.8899999999999664,0.8899999999999664,"[""space""]",ki,1,testConjL2Syn//r2.s2.1.wav,2.0,conjunction_syn,syncopated,b,s2,rule,rule,L2,z,1.4506,5.0,1.0,0.2358,4 ,2.0,Castellano,0.0,Catalán,0.0,Inglés,3.0,Francés,12.0,4.0,3.0,no,no,yes,Nada,,,,"En el úlitmo lenguaje en la fase 3 alguna frase se medio cortaba, por lo demás todo bien! ",77.0,yes
25,2024-04-15_13h02.47.233,Unsyncopated_study3,s147,18.0,feminino,left,España,Castellano,Upper secondary,no,no,B,1,when,L1,unsyncopated,when,when,25,Online_whenL1//a.ki5.none.wav,fo,be,lu,sil,ze,ro,cho,sil1,ta,zu,sil2,['-'],,,none,none,,,,ki,1,testConjL2Syn//r2.s1.2.wav,2.0,conjunction_syn,syncopated,b,s1,rule,rule,L2,m,0.9171,4.0,0.0,0.6945,4 ,2.0,Castellano,0.0,Catalán,0.0,Inglés,3.0,Francés,12.0,4.0,3.0,no,no,yes,Nada,,,,"En el úlitmo lenguaje en la fase 3 alguna frase se medio cortaba, por lo demás todo bien! ",77.0,yes
26,2024-04-15_13h02.47.233,Unsyncopated_study3,s147,18.0,feminino,left,España,Castellano,Upper secondary,no,no,B,1,when,L1,unsyncopated,when,when,26,Online_whenL1//a.ki7.none.wav,cho,ro,ri,sil,pu,zu,fa,sil1,ni,be,sil2,['-'],,,none,none,,,,ki,1,testConjL2Syn//r2.s1.0.wav,2.0,conjunction_syn,syncopated,b,s1,rule,rule,L2,m,0.7177,4.0,0.0,0.5003,4 ,2.0,Castellano,0.0,Catalán,0.0,Inglés,3.0,Francés,12.0,4.0,3.0,no,no,yes,Nada,,,,"En el úlitmo lenguaje en la fase 3 alguna frase se medio cortaba, por lo demás todo bien! ",77.0,yes
27,2024-04-15_13h02.47.233,Unsyncopated_study3,s147,18.0,feminino,left,España,Castellano,Upper secondary,no,no,B,1,when,L1,unsyncopated,when,when,27,Online_whenL1//a.ki6.none.wav,la,ri,ni,sil,pu,ro,ne,sil1,be,zu,sil2,['-'],,,none,none,,,,ki,1,testConjL2Syn//r1.s2.1.wav,2.0,conjunction_syn,syncopated,a,s2,rule,rule,L2,z,0.4668,5.0,1.0,0.251,4 ,2.0,Castellano,0.0,Catalán,0.0,Inglés,3.0,Francés,12.0,4.0,3.0,no,no,yes,Nada,,,,"En el úlitmo lenguaje en la fase 3 alguna frase se medio cortaba, por lo demás todo bien! ",77.0,yes
28,2024-04-15_13h02.47.233,Unsyncopated_study3,s147,18.0,feminino,left,España,Castellano,Upper secondary,no,no,B,1,when,L1,unsyncopated,when,when,28,Online_whenL1//a.ki3.1110.wav,ri,ni,fa,sil,cho,ki,ze,sil1,fo,ta,sil2,['miss'],,,1.11,no_beat,,,,ki,1,testConjL2Syn//r1.s2.2.wav,2.0,conjunction_syn,syncopated,a,s2,rule,rule,L2,z,0.4677,6.0,1.0,0.2205,4 ,2.0,Castellano,0.0,Catalán,0.0,Inglés,3.0,Francés,12.0,4.0,3.0,no,no,yes,Nada,,,,"En el úlitmo lenguaje en la fase 3 alguna frase se medio cortaba, por lo demás todo bien! ",77.0,yes
29,2024-04-15_13h02.47.233,Unsyncopated_study3,s147,18.0,feminino,left,España,Castellano,Upper secondary,no,no,B,1,when,L1,unsyncopated,when,when,29,Online_whenL1//a.ki2.none.wav,zu,ne,ta,sil,ri,be,ni,sil1,fo,lu,sil2,['false alarm'],[0.1807999999821277],[0.1807999999821277],none,none,,,"[""space""]",ki,1,testConjL2Syn//r1.s2.0.wav,2.0,conjunction_syn,syncopated,a,s2,rule,rule,L2,m,0.9833,5.0,0.0,0.8151,4 ,2.0,Castellano,0.0,Catalán,0.0,Inglés,3.0,Francés,12.0,4.0,3.0,no,no,yes,Nada,,,,"En el úlitmo lenguaje en la fase 3 alguna frase se medio cortaba, por lo demás todo bien! ",77.0,yes
30,2024-04-15_13h02.47.233,Unsyncopated_study3,s147,18.0,feminino,left,España,Castellano,Upper secondary,no,no,B,1,when,L1,unsyncopated,when,when,30,Online_whenL1//a.ki1.1776.wav,zu,ri,ni,sil,ne,be,ro,sil1,ki,fa,sil2,['catch'],[2.5335000000000036],[2.5335000000000036],1.776,beat,0.7575000000000036,0.7575000000000036,"[""space""]",ki,1,testConjL2Syn//r2.s2.0.wav,2.0,conjunction_syn,syncopated,b,s2,rule,rule,L2,m,0.8793,4.0,0.0,0.833,4 ,2.0,Castellano,0.0,Catalán,0.0,Inglés,3.0,Francés,12.0,4.0,3.0,no,no,yes,Nada,,,,"En el úlitmo lenguaje en la fase 3 alguna frase se medio cortaba, por lo demás todo bien! ",77.0,yes
31,2024-04-15_13h02.47.233,Unsyncopated_study3,s147,18.0,feminino,left,España,Castellano,Upper secondary,no,no,B,1,when,L1,unsyncopated,when,when,31,Online_whenL1//a.ki0.none.wav,zu,ta,ri,sil,ro,ne,cho,sil1,pu,la,sil2,['-'],,,none,none,,,,ki,1,testConjL2Syn//time_viol.r2.s2.0.wav,2.0,conjunction_syn,syncopated,b,s2,no_rule,time,L2,m,2.088,4.0,1.0,0.4166,4 ,2.0,Castellano,0.0,Catalán,0.0,Inglés,3.0,Francés,12.0,4.0,3.0,no,no,yes,Nada,,,,"En el úlitmo lenguaje en la fase 3 alguna frase se medio cortaba, por lo demás todo bien! ",77.0,yes
32,2024-04-15_13h02.47.233,Unsyncopated_study3,s147,18.0,feminino,left,España,Castellano,Upper secondary,no,no,B,1,when,L1,unsyncopated,when,when,32,Online_whenL1//a.ki13.1332.wav,lu,cho,ri,sil,ta,la,ki,sil1,ne,ro,sil2,['catch'],[2.2116999999880136],[2.2116999999880136],1.332,no_beat,0.8796999999880135,0.8796999999880135,"[""space""]",ki,1,testConjL2Syn//time_viol.r1.s2.0.wav,2.0,conjunction_syn,syncopated,a,s2,no_rule,time,L2,z,0.2503,4.0,0.0,0.7676,4 ,2.0,Castellano,0.0,Catalán,0.0,Inglés,3.0,Francés,12.0,4.0,3.0,no,no,yes,Nada,,,,"En el úlitmo lenguaje en la fase 3 alguna frase se medio cortaba, por lo demás todo bien! ",77.0,yes
33,2024-04-15_13h02.47.233,Unsyncopated_study3,s147,18.0,feminino,left,España,Castellano,Upper secondary,no,no,B,1,when,L1,unsyncopated,when,when,33,Online_whenL1//a.ki15.none.wav,ri,ta,fa,sil,fo,ne,be,sil1,ro,ze,sil2,['-'],,,none,none,,,,ki,1,testConjL2Syn//dep_viol.r2.s1.0.wav,2.0,conjunction_syn,syncopated,b,s1,no_rule,dep,L2,m,1.6673,3.0,1.0,0.1545,4 ,2.0,Castellano,0.0,Catalán,0.0,Inglés,3.0,Francés,12.0,4.0,3.0,no,no,yes,Nada,,,,"En el úlitmo lenguaje en la fase 3 alguna frase se medio cortaba, por lo demás todo bien! ",77.0,yes
34,2024-04-15_13h02.47.233,Unsyncopated_study3,s147,18.0,feminino,left,España,Castellano,Upper secondary,no,no,B,1,when,L1,unsyncopated,when,when,34,Online_whenL1//a.ki12.222.wav,pu,ki,zu,sil,cho,ne,fo,sil1,ni,ze,sil2,['catch'],[0.9656999999880327],[0.9656999999880327],0.222,no_beat,0.7436999999880327,0.7436999999880327,"[""space""]",ki,1,testConjL2Syn//r2.s2.2.wav,2.0,conjunction_syn,syncopated,b,s2,rule,rule,L2,m,0.4161,3.0,0.0,0.1846,4 ,2.0,Castellano,0.0,Catalán,0.0,Inglés,3.0,Francés,12.0,4.0,3.0,no,no,yes,Nada,,,,"En el úlitmo lenguaje en la fase 3 alguna frase se medio cortaba, por lo demás todo bien! ",77.0,yes
35,2024-04-15_13h02.47.233,Unsyncopated_study3,s147,18.0,feminino,left,España,Castellano,Upper secondary,no,no,B,1,when,L1,unsyncopated,when,when,35,Online_whenL1//a.ki14.444.wav,fo,ni,ki,sil,ri,zu,la,sil1,ro,pu,sil2,['miss'],,,0.444,no_beat,,,,ki,1,testConjL2Syn//cat_viol.r1.s2.0.wav,2.0,conjunction_syn,syncopated,a,s2,no_rule,cat,L2,z,0.3995,5.0,0.0,0.6214,4 ,2.0,Castellano,0.0,Catalán,0.0,Inglés,3.0,Francés,12.0,4.0,3.0,no,no,yes,Nada,,,,"En el úlitmo lenguaje en la fase 3 alguna frase se medio cortaba, por lo demás todo bien! ",77.0,yes
36,2024-04-15_13h02.47.233,Unsyncopated_study3,s147,18.0,feminino,left,España,Castellano,Upper secondary,no,no,B,1,when,L1,unsyncopated,when,when,36,Online_whenL1//a.ki27.none.wav,fa,fo,cho,sil,ze,ri,ta,sil1,pu,zu,sil2,['-'],,,none,none,,,,ki,1,testConjL2Syn//time_viol.r1.s1.0.wav,2.0,conjunction_syn,syncopated,a,s1,no_rule,time,L2,m,0.9336,4.0,1.0,0.0679,4 ,2.0,Castellano,0.0,Catalán,0.0,Inglés,3.0,Francés,12.0,4.0,3.0,no,no,yes,Nada,,,,"En el úlitmo lenguaje en la fase 3 alguna frase se medio cortaba, por lo demás todo bien! ",77.0,yes
37,2024-04-15_13h02.47.233,Unsyncopated_study3,s147,18.0,feminino,left,España,Castellano,Upper secondary,no,no,B,1,when,L1,unsyncopated,when,when,37,Online_whenL1//a.ki25.none.wav,pu,lu,ni,sil,ro,ne,zu,sil1,la,ta,sil2,['-'],,,none,none,,,,ki,1,testConjL2Syn//cat_viol.r1.s1.0.wav,2.0,conjunction_syn,syncopated,a,s1,no_rule,cat,L2,z,0.2175,6.0,0.0,0.1679,4 ,2.0,Castellano,0.0,Catalán,0.0,Inglés,3.0,Francés,12.0,4.0,3.0,no,no,yes,Nada,,,,"En el úlitmo lenguaje en la fase 3 alguna frase se medio cortaba, por lo demás todo bien! ",77.0,yes
38,2024-04-15_13h02.47.233,Unsyncopated_study3,s147,18.0,feminino,left,España,Castellano,Upper secondary,no,no,B,1,when,L1,unsyncopated,when,when,38,Online_whenL1//a.ki24.none.wav,cho,ze,ni,sil,zu,la,ri,sil1,be,pu,sil2,['-'],,,none,none,,,,ki,1,testConjL2Syn//r1.s1.0.wav,2.0,conjunction_syn,syncopated,a,s1,rule,rule,L2,z,0.3847,5.0,1.0,0.2179,4 ,2.0,Castellano,0.0,Catalán,0.0,Inglés,3.0,Francés,12.0,4.0,3.0,no,no,yes,Nada,,,,"En el úlitmo lenguaje en la fase 3 alguna frase se medio cortaba, por lo demás todo bien! ",77.0,yes
39,2024-04-15_13h02.47.233,Unsyncopated_study3,s147,18.0,feminino,left,España,Castellano,Upper secondary,no,no,B,1,when,L1,unsyncopated,when,when,39,Online_whenL1//a.ki26.none.wav,fo,be,ne,sil,ta,ze,ri,sil1,la,cho,sil2,['-'],,,none,none,,,,ki,1,testConjL2Syn//r1.s1.2.wav,2.0,conjunction_syn,syncopated,a,s1,rule,rule,L2,z,1.3506,5.0,1.0,0.1345,4 ,2.0,Castellano,0.0,Catalán,0.0,Inglés,3.0,Francés,12.0,4.0,3.0,no,no,yes,Nada,,,,"En el úlitmo lenguaje en la fase 3 alguna frase se medio cortaba, por lo demás todo bien! ",77.0,yes
40,2024-04-15_13h02.47.233,Unsyncopated_study3,s147,18.0,feminino,left,España,Castellano,Upper secondary,no,no,B,1,when,L1,unsyncopated,when,when,40,Online_whenL1//c.ro17.none.wav,la,ze,pu,sil,ki,cho,zu,sil1,fa,ne,sil2,['-'],,,none,none,,,,ro,3,testConjL2Syn//r2.s1.1.wav,2.0,conjunction_syn,syncopated,b,s1,rule,rule,L2,m,3.0477,3.0,0.0,0.1174,4 ,2.0,Castellano,0.0,Catalán,0.0,Inglés,3.0,Francés,12.0,4.0,3.0,no,no,yes,Nada,,,,"En el úlitmo lenguaje en la fase 3 alguna frase se medio cortaba, por lo demás todo bien! ",77.0,yes
41,2024-04-15_13h02.47.233,Unsyncopated_study3,s147,18.0,feminino,left,España,Castellano,Upper secondary,no,no,B,1,when,L1,unsyncopated,when,when,41,Online_whenL1//c.ro16.1776.wav,fa,ne,zu,sil,ki,ta,ze,sil1,ro,cho,sil2,['catch'],[2.558999999999969],[2.558999999999969],1.776,beat,0.782999999999969,0.782999999999969,"[""space""]",ro,3,testConjL2Syn//dep_viol.r1.s1.0.wav,2.0,conjunction_syn,syncopated,a,s1,no_rule,dep,L2,z,0.3163,4.0,0.0,0.3839,4 ,2.0,Castellano,0.0,Catalán,0.0,Inglés,3.0,Francés,12.0,4.0,3.0,no,no,yes,Nada,,,,"En el úlitmo lenguaje en la fase 3 alguna frase se medio cortaba, por lo demás todo bien! ",77.0,yes
42,2024-04-15_13h02.47.233,Unsyncopated_study3,s147,18.0,feminino,left,España,Castellano,Upper secondary,no,no,B,1,when,L1,unsyncopated,when,when,42,Online_whenL1//c.ro18.none.wav,ki,ri,ni,sil,ne,ta,cho,sil1,fo,ze,sil2,['-'],,,none,none,,,,ro,3,testConjL2Syn//dep_viol.r2.s2.0.wav,2.0,conjunction_syn,syncopated,b,s2,no_rule,dep,L2,z,3.4102,4.0,0.0,0.2435,4 ,2.0,Castellano,0.0,Catalán,0.0,Inglés,3.0,Francés,12.0,4.0,3.0,no,no,yes,Nada,,,,"En el úlitmo lenguaje en la fase 3 alguna frase se medio cortaba, por lo demás todo bien! ",77.0,yes
43,2024-04-15_13h02.47.233,Unsyncopated_study3,s147,18.0,feminino,left,España,Castellano,Upper secondary,no,no,B,1,when,L1,unsyncopated,when,when,43,Online_whenL1//c.ro19.1332.wav,ze,be,pu,sil,ne,fo,ro,sil1,lu,cho,sil2,['catch'],[2.1073000000119464],[2.1073000000119464],1.332,no_beat,0.7753000000119463,0.7753000000119463,"[""space""]",ro,3,testConjL2Syn//cat_viol.r2.s1.0.wav,2.0,conjunction_syn,syncopated,b,s1,no_rule,cat,L2,m,0.6393,4.0,1.0,0.1244,4 ,2.0,Castellano,0.0,Catalán,0.0,Inglés,3.0,Francés,12.0,4.0,3.0,no,no,yes,Nada,,,,"En el úlitmo lenguaje en la fase 3 alguna frase se medio cortaba, por lo demás todo bien! ",77.0,yes
44,2024-04-15_13h02.47.233,Unsyncopated_study3,s147,18.0,feminino,left,España,Castellano,Upper secondary,no,no,B,1,when,L1,unsyncopated,when,when,44,Online_whenL1//b.ta12.1998.wav,lu,la,ro,sil,ne,zu,fo,sil1,ki,ta,sil2,['miss'],,,1.998,no_beat,,,,ta,2,testConjL2Syn//time_viol.r2.s1.0.wav,2.0,conjunction_syn,syncopated,b,s1,no_rule,time,L2,z,0.4676,6.0,0.0,0.3509,4 ,2.0,Castellano,0.0,Catalán,0.0,Inglés,3.0,Francés,12.0,4.0,3.0,no,no,yes,Nada,,,,"En el úlitmo lenguaje en la fase 3 alguna frase se medio cortaba, por lo demás todo bien! ",77.0,yes
45,2024-04-15_13h02.47.233,Unsyncopated_study3,s147,18.0,feminino,left,España,Castellano,Upper secondary,no,no,B,1,when,L1,unsyncopated,when,when,45,Online_whenL1//b.ta13.none.wav,pu,la,be,sil,zu,ze,ri,sil1,ne,ni,sil2,['false alarm'],[0.5767999999821996],[0.5767999999821996],none,none,,,"[""space""]",ta,2,testConjL2Syn//r1.s1.1.wav,2.0,conjunction_syn,syncopated,a,s1,rule,rule,L2,m,1.0004,3.0,0.0,0.1241,4 ,2.0,Castellano,0.0,Catalán,0.0,Inglés,3.0,Francés,12.0,4.0,3.0,no,no,yes,Nada,,,,"En el úlitmo lenguaje en la fase 3 alguna frase se medio cortaba, por lo demás todo bien! ",77.0,yes
46,2024-04-15_13h02.47.233,Unsyncopated_study3,s147,18.0,feminino,left,España,Castellano,Upper secondary,no,no,B,1,when,L1,unsyncopated,when,when,46,Online_whenL1//b.ta15.none.wav,fa,ro,la,sil,ki,ze,pu,sil1,ne,ri,sil2,['-'],,,none,none,,,,ta,2,testConjL2Syn//dep_viol.r1.s2.0.wav,2.0,conjunction_syn,syncopated,a,s2,no_rule,dep,L2,m,0.4007,5.0,1.0,0.2223,4 ,2.0,Castellano,0.0,Catalán,0.0,Inglés,3.0,Francés,12.0,4.0,3.0,no,no,yes,Nada,,,,"En el úlitmo lenguaje en la fase 3 alguna frase se medio cortaba, por lo demás todo bien! ",77.0,yes
47,2024-04-15_13h02.47.233,Unsyncopated_study3,s147,18.0,feminino,left,España,Castellano,Upper secondary,no,no,B,1,when,L1,unsyncopated,when,when,47,Online_whenL1//b.ta14.none.wav,lu,fo,zu,sil,ni,be,cho,sil1,pu,ri,sil2,['-'],,,none,none,,,,ta,2,testConjL2Syn//cat_viol.r2.s2.0.wav,2.0,conjunction_syn,syncopated,b,s2,no_rule,cat,L2,z,1.1999,5.0,0.0,0.2512,4 ,2.0,Castellano,0.0,Catalán,0.0,Inglés,3.0,Francés,12.0,4.0,3.0,no,no,yes,Nada,,,,"En el úlitmo lenguaje en la fase 3 alguna frase se medio cortaba, por lo demás todo bien! ",77.0,yes
48,2024-04-15_13h02.47.233,Unsyncopated_study3,s147,18.0,feminino,left,España,Castellano,Upper secondary,no,no,B,1,when,L1,unsyncopated,when,when,48,Online_whenL1//b.ta0.none.wav,ri,lu,ze,sil,zu,la,pu,sil1,cho,be,sil2,['-'],,,none,none,,,,ta,2,testWhatL4Uns//r2.s1.2.wav,3.0,what,unsyncopated,b,s1,rule,rule,L4,z,1.7649,5.0,1.0,0.2155,4 ,2.0,Castellano,0.0,Catalán,0.0,Inglés,3.0,Francés,12.0,4.0,3.0,no,no,yes,Nada,,,,"En el úlitmo lenguaje en la fase 3 alguna frase se medio cortaba, por lo demás todo bien! ",77.0,yes
49,2024-04-15_13h02.47.233,Unsyncopated_study3,s147,18.0,feminino,left,España,Castellano,Upper secondary,no,no,B,1,when,L1,unsyncopated,when,when,49,Online_whenL1//b.ta3.222.wav,ri,ta,fo,sil,ro,ni,pu,sil1,zu,ne,sil2,['catch'],[0.9690999999941141],[0.9690999999941141],0.222,no_beat,0.7470999999941141,0.7470999999941141,"[""space""]",ta,2,testWhatL4Uns//r2.s2.2.wav,3.0,what,unsyncopated,b,s2,rule,rule,L4,m,1.8656,4.0,0.0,0.0936,4 ,2.0,Castellano,0.0,Catalán,0.0,Inglés,3.0,Francés,12.0,4.0,3.0,no,no,yes,Nada,,,,"En el úlitmo lenguaje en la fase 3 alguna frase se medio cortaba, por lo demás todo bien! ",77.0,yes
50,2024-04-15_13h02.47.233,Unsyncopated_study3,s147,18.0,feminino,left,España,Castellano,Upper secondary,no,no,B,1,when,L1,unsyncopated,when,when,50,Online_whenL1//b.ta2.1332.wav,zu,ni,pu,sil,ri,ne,ta,sil1,ze,fa,sil2,['catch'],[2.1444000000059305],[2.1444000000059305],1.332,no_beat,0.8124000000059304,0.8124000000059304,"[""space""]",ta,2,testWhatL4Uns//r2.s2.0.wav,3.0,what,unsyncopated,b,s2,rule,rule,L4,z,0.5839,5.0,1.0,0.5405,4 ,2.0,Castellano,0.0,Catalán,0.0,Inglés,3.0,Francés,12.0,4.0,3.0,no,no,yes,Nada,,,,"En el úlitmo lenguaje en la fase 3 alguna frase se medio cortaba, por lo demás todo bien! ",77.0,yes
51,2024-04-15_13h02.47.233,Unsyncopated_study3,s147,18.0,feminino,left,España,Castellano,Upper secondary,no,no,B,1,when,L1,unsyncopated,when,when,51,Online_whenL1//b.ta1.none.wav,ki,cho,fa,sil,ne,ze,ri,sil1,be,la,sil2,['-'],,,none,none,,,,ta,2,testWhatL4Uns//time_viol.r2.s2.0.wav,3.0,what,unsyncopated,b,s2,no_rule,time,L4,m,0.9187,2.0,1.0,0.1849,4 ,2.0,Castellano,0.0,Catalán,0.0,Inglés,3.0,Francés,12.0,4.0,3.0,no,no,yes,Nada,,,,"En el úlitmo lenguaje en la fase 3 alguna frase se medio cortaba, por lo demás todo bien! ",77.0,yes
52,2024-04-15_13h02.47.233,Unsyncopated_study3,s147,18.0,feminino,left,España,Castellano,Upper secondary,no,no,B,1,when,L1,unsyncopated,when,when,52,Online_whenL1//a.ki32.1110.wav,cho,ro,ne,sil,ri,ki,zu,sil1,ze,be,sil2,['catch'],[1.79099999999994],[1.79099999999994],1.11,no_beat,0.6809999999999399,0.6809999999999399,"[""space""]",ki,1,testWhatL4Uns//time_viol.r2.s1.0.wav,3.0,what,unsyncopated,b,s1,no_rule,time,L4,z,0.5002,4.0,0.0,0.4008,4 ,2.0,Castellano,0.0,Catalán,0.0,Inglés,3.0,Francés,12.0,4.0,3.0,no,no,yes,Nada,,,,"En el úlitmo lenguaje en la fase 3 alguna frase se medio cortaba, por lo demás todo bien! ",77.0,yes
53,2024-04-15_13h02.47.233,Unsyncopated_study3,s147,18.0,feminino,left,España,Castellano,Upper secondary,no,no,B,1,when,L1,unsyncopated,when,when,53,Online_whenL1//a.ki33.1332.wav,fa,be,ne,sil,la,ni,ki,sil1,ro,zu,sil2,['catch'],[2.59519999998804],[2.59519999998804],1.332,no_beat,,1.26319999998804,"[""space""]",ki,1,testWhatL4Uns//cat_viol.r2.s1.0.wav,3.0,what,unsyncopated,b,s1,no_rule,cat,L4,z,0.2845,4.0,0.0,0.4176,4 ,2.0,Castellano,0.0,Catalán,0.0,Inglés,3.0,Francés,12.0,4.0,3.0,no,no,yes,Nada,,,,"En el úlitmo lenguaje en la fase 3 alguna frase se medio cortaba, por lo demás todo bien! ",77.0,yes
54,2024-04-15_13h02.47.233,Unsyncopated_study3,s147,18.0,feminino,left,España,Castellano,Upper secondary,no,no,B,1,when,L1,unsyncopated,when,when,54,Online_whenL1//a.ki35.none.wav,ne,la,fo,sil,cho,ta,ni,sil1,ri,be,sil2,['-'],,,none,none,,,,ki,1,testWhatL4Uns//r1.s2.0.wav,3.0,what,unsyncopated,a,s2,rule,rule,L4,z,0.3498,4.0,1.0,0.3086,4 ,2.0,Castellano,0.0,Catalán,0.0,Inglés,3.0,Francés,12.0,4.0,3.0,no,no,yes,Nada,,,,"En el úlitmo lenguaje en la fase 3 alguna frase se medio cortaba, por lo demás todo bien! ",77.0,yes
55,2024-04-15_13h02.47.233,Unsyncopated_study3,s147,18.0,feminino,left,España,Castellano,Upper secondary,no,no,B,1,when,L1,unsyncopated,when,when,55,Online_whenL1//a.ki34.none.wav,ni,be,ro,sil,fo,cho,pu,sil1,ri,ze,sil2,['-'],,,none,none,,,,ki,1,testWhatL4Uns//cat_viol.r1.s1.0.wav,3.0,what,unsyncopated,a,s1,no_rule,cat,L4,m,0.6269,3.0,1.0,0.318,4 ,2.0,Castellano,0.0,Catalán,0.0,Inglés,3.0,Francés,12.0,4.0,3.0,no,no,yes,Nada,,,,"En el úlitmo lenguaje en la fase 3 alguna frase se medio cortaba, por lo demás todo bien! ",77.0,yes
56,2024-04-15_13h02.47.233,Unsyncopated_study3,s147,18.0,feminino,left,España,Castellano,Upper secondary,no,no,B,1,when,L1,unsyncopated,when,when,56,Online_whenL1//d.ne25.none.wav,lu,la,ri,sil,ta,ni,zu,sil1,ze,ki,sil2,['-'],,,none,none,,,,ne,4,testWhatL4Uns//time_viol.r1.s2.0.wav,3.0,what,unsyncopated,a,s2,no_rule,time,L4,z,0.0677,5.0,0.0,0.3851,4 ,2.0,Castellano,0.0,Catalán,0.0,Inglés,3.0,Francés,12.0,4.0,3.0,no,no,yes,Nada,,,,"En el úlitmo lenguaje en la fase 3 alguna frase se medio cortaba, por lo demás todo bien! ",77.0,yes
57,2024-04-15_13h02.47.233,Unsyncopated_study3,s147,18.0,feminino,left,España,Castellano,Upper secondary,no,no,B,1,when,L1,unsyncopated,when,when,57,Online_whenL1//d.ne24.none.wav,ri,ze,cho,sil,pu,lu,fo,sil1,ki,ni,sil2,['-'],,,none,none,,,,ne,4,testWhatL4Uns//r2.s1.1.wav,3.0,what,unsyncopated,b,s1,rule,rule,L4,m,1.9548,4.0,0.0,0.1528,4 ,2.0,Castellano,0.0,Catalán,0.0,Inglés,3.0,Francés,12.0,4.0,3.0,no,no,yes,Nada,,,,"En el úlitmo lenguaje en la fase 3 alguna frase se medio cortaba, por lo demás todo bien! ",77.0,yes
58,2024-04-15_13h02.47.233,Unsyncopated_study3,s147,18.0,feminino,left,España,Castellano,Upper secondary,no,no,B,1,when,L1,unsyncopated,when,when,58,Online_whenL1//d.ne27.none.wav,ta,zu,ni,sil,lu,ri,fa,sil1,fo,be,sil2,['-'],,,none,none,,,,ne,4,testWhatL4Uns//r2.s2.1.wav,3.0,what,unsyncopated,b,s2,rule,rule,L4,m,1.8828,4.0,0.0,0.2171,4 ,2.0,Castellano,0.0,Catalán,0.0,Inglés,3.0,Francés,12.0,4.0,3.0,no,no,yes,Nada,,,,"En el úlitmo lenguaje en la fase 3 alguna frase se medio cortaba, por lo demás todo bien! ",77.0,yes
59,2024-04-15_13h02.47.233,Unsyncopated_study3,s147,18.0,feminino,left,España,Castellano,Upper secondary,no,no,B,1,when,L1,unsyncopated,when,when,59,Online_whenL1//d.ne26.none.wav,fo,lu,be,sil,ro,ta,ri,sil1,fa,ni,sil2,['-'],,,none,none,,,,ne,4,testWhatL4Uns//r2.s1.0.wav,3.0,what,unsyncopated,b,s1,rule,rule,L4,z,0.3176,4.0,1.0,0.4003,4 ,2.0,Castellano,0.0,Catalán,0.0,Inglés,3.0,Francés,12.0,4.0,3.0,no,no,yes,Nada,,,,"En el úlitmo lenguaje en la fase 3 alguna frase se medio cortaba, por lo demás todo bien! ",77.0,yes
60,2024-04-15_13h02.47.233,Unsyncopated_study3,s147,18.0,feminino,left,España,Castellano,Upper secondary,no,no,B,1,when,L1,unsyncopated,when,when,60,Online_whenL1//d.ne13.none.wav,ro,cho,fa,sil,lu,ki,ze,sil1,be,fo,sil2,['-'],,,none,none,,,,ne,4,testWhatL4Uns//dep_viol.r1.s2.0.wav,3.0,what,unsyncopated,a,s2,no_rule,dep,L4,z,0.5288,5.0,0.0,0.3337,4 ,2.0,Castellano,0.0,Catalán,0.0,Inglés,3.0,Francés,12.0,4.0,3.0,no,no,yes,Nada,,,,"En el úlitmo lenguaje en la fase 3 alguna frase se medio cortaba, por lo demás todo bien! ",77.0,yes
61,2024-04-15_13h02.47.233,Unsyncopated_study3,s147,18.0,feminino,left,España,Castellano,Upper secondary,no,no,B,1,when,L1,unsyncopated,when,when,61,Online_whenL1//d.ne14.none.wav,ro,lu,cho,sil,ni,pu,ri,sil1,be,zu,sil2,['-'],,,none,none,,,,ne,4,testWhatL4Uns//r1.s1.1.wav,3.0,what,unsyncopated,a,s1,rule,rule,L4,z,4.0142,4.0,1.0,0.3058,4 ,2.0,Castellano,0.0,Catalán,0.0,Inglés,3.0,Francés,12.0,4.0,3.0,no,no,yes,Nada,,,,"En el úlitmo lenguaje en la fase 3 alguna frase se medio cortaba, por lo demás todo bien! ",77.0,yes
62,2024-04-15_13h02.47.233,Unsyncopated_study3,s147,18.0,feminino,left,España,Castellano,Upper secondary,no,no,B,1,when,L1,unsyncopated,when,when,62,Online_whenL1//d.ne15.444.wav,be,la,ne,sil,fo,pu,ro,sil1,fa,lu,sil2,['catch'],[1.603099999994015],[1.603099999994015],0.444,no_beat,1.159099999994015,1.159099999994015,"[""space""]",ne,4,testWhatL4Uns//r1.s2.1.wav,3.0,what,unsyncopated,a,s2,rule,rule,L4,z,5.496,4.0,1.0,0.4999,4 ,2.0,Castellano,0.0,Catalán,0.0,Inglés,3.0,Francés,12.0,4.0,3.0,no,no,yes,Nada,,,,"En el úlitmo lenguaje en la fase 3 alguna frase se medio cortaba, por lo demás todo bien! ",77.0,yes
63,2024-04-15_13h02.47.233,Unsyncopated_study3,s147,18.0,feminino,left,España,Castellano,Upper secondary,no,no,B,1,when,L1,unsyncopated,when,when,63,Online_whenL1//d.ne12.888.wav,fo,be,zu,sil,ne,ro,ze,sil1,ni,ta,sil2,['miss'],,,0.888,beat,,,,ne,4,testWhatL4Uns//dep_viol.r1.s1.0.wav,3.0,what,unsyncopated,a,s1,no_rule,dep,L4,m,1.5162,4.0,1.0,0.1673,4 ,2.0,Castellano,0.0,Catalán,0.0,Inglés,3.0,Francés,12.0,4.0,3.0,no,no,yes,Nada,,,,"En el úlitmo lenguaje en la fase 3 alguna frase se medio cortaba, por lo demás todo bien! ",77.0,yes
64,2024-04-15_13h02.47.233,Unsyncopated_study3,s147,18.0,feminino,left,España,Castellano,Upper secondary,no,no,B,1,when,L1,unsyncopated,when,when,64,Online_whenL1//a.ki22.444.wav,zu,pu,ki,sil,ze,cho,ne,sil1,ni,ro,sil2,"['false alarm', 'catch']","[0.16099999999994452, 1.331300000011879]",[1.331300000011879],0.444,no_beat,0.8873000000118791,0.8873000000118791,"[""space"",""space""]",ki,1,testWhatL4Uns//r1.s1.2.wav,3.0,what,unsyncopated,a,s1,rule,rule,L4,z,0.7149,5.0,1.0,0.3505,4 ,2.0,Castellano,0.0,Catalán,0.0,Inglés,3.0,Francés,12.0,4.0,3.0,no,no,yes,Nada,,,,"En el úlitmo lenguaje en la fase 3 alguna frase se medio cortaba, por lo demás todo bien! ",77.0,yes
65,2024-04-15_13h02.47.233,Unsyncopated_study3,s147,18.0,feminino,left,España,Castellano,Upper secondary,no,no,B,1,when,L1,unsyncopated,when,when,65,Online_whenL1//a.ki21.0.wav,ki,ni,cho,sil,fo,ri,lu,sil1,ze,be,sil2,['catch'],[0.9311999999880527],[0.9311999999880527],0.0,beat,0.9311999999880528,0.9311999999880528,"[""space""]",ki,1,testWhatL4Uns//cat_viol.r1.s2.0.wav,3.0,what,unsyncopated,a,s2,no_rule,cat,L4,z,0.1538,5.0,0.0,0.2828,4 ,2.0,Castellano,0.0,Catalán,0.0,Inglés,3.0,Francés,12.0,4.0,3.0,no,no,yes,Nada,,,,"En el úlitmo lenguaje en la fase 3 alguna frase se medio cortaba, por lo demás todo bien! ",77.0,yes
66,2024-04-15_13h02.47.233,Unsyncopated_study3,s147,18.0,feminino,left,España,Castellano,Upper secondary,no,no,B,1,when,L1,unsyncopated,when,when,66,Online_whenL1//a.ki23.1110.wav,be,ri,zu,sil,ro,ki,ni,sil1,la,ne,sil2,['miss'],,,1.11,no_beat,,,,ki,1,testWhatL4Uns//r1.s2.2.wav,3.0,what,unsyncopated,a,s2,rule,rule,L4,z,0.391,5.0,1.0,0.2511,4 ,2.0,Castellano,0.0,Catalán,0.0,Inglés,3.0,Francés,12.0,4.0,3.0,no,no,yes,Nada,,,,"En el úlitmo lenguaje en la fase 3 alguna frase se medio cortaba, por lo demás todo bien! ",77.0,yes
67,2024-04-15_13h02.47.233,Unsyncopated_study3,s147,18.0,feminino,left,España,Castellano,Upper secondary,no,no,B,1,when,L1,unsyncopated,when,when,67,Online_whenL1//a.ki20.0.wav,ki,ne,zu,sil,ri,ni,cho,sil1,lu,pu,sil2,"['catch', 'false alarm']","[0.6309000000059086, 2.3022000000179332]",[0.6309000000059086],0.0,beat,0.6309000000059086,0.6309000000059086,"[""space"",""space""]",ki,1,testWhatL4Uns//dep_viol.r2.s2.0.wav,3.0,what,unsyncopated,b,s2,no_rule,dep,L4,z,0.4345,5.0,0.0,0.2345,4 ,2.0,Castellano,0.0,Catalán,0.0,Inglés,3.0,Francés,12.0,4.0,3.0,no,no,yes,Nada,,,,"En el úlitmo lenguaje en la fase 3 alguna frase se medio cortaba, por lo demás todo bien! ",77.0,yes
68,2024-04-15_13h02.47.233,Unsyncopated_study3,s147,18.0,feminino,left,España,Castellano,Upper secondary,no,no,B,1,when,L1,unsyncopated,when,when,68,Online_whenL1//b.ta28.222.wav,la,ta,lu,sil,fo,ni,ro,sil1,ki,cho,sil2,['miss'],,,0.222,no_beat,,,,ta,2,testWhatL4Uns//time_viol.r1.s1.0.wav,3.0,what,unsyncopated,a,s1,no_rule,time,L4,m,0.4509,3.0,1.0,0.2217,4 ,2.0,Castellano,0.0,Catalán,0.0,Inglés,3.0,Francés,12.0,4.0,3.0,no,no,yes,Nada,,,,"En el úlitmo lenguaje en la fase 3 alguna frase se medio cortaba, por lo demás todo bien! ",77.0,yes
69,2024-04-15_13h02.47.233,Unsyncopated_study3,s147,18.0,feminino,left,España,Castellano,Upper secondary,no,no,B,1,when,L1,unsyncopated,when,when,69,Online_whenL1//b.ta30.444.wav,lu,ze,ta,sil,ne,ni,fo,sil1,la,be,sil2,"['false alarm', 'catch']","[0.03289999997616633, 1.2160000000000082]",[1.2160000000000082],0.444,no_beat,0.7720000000000082,0.7720000000000082,"[""space"",""space""]",ta,2,testWhatL4Uns//r1.s1.0.wav,3.0,what,unsyncopated,a,s1,rule,rule,L4,m,0.5302,6.0,0.0,0.925,4 ,2.0,Castellano,0.0,Catalán,0.0,Inglés,3.0,Francés,12.0,4.0,3.0,no,no,yes,Nada,,,,"En el úlitmo lenguaje en la fase 3 alguna frase se medio cortaba, por lo demás todo bien! ",77.0,yes
70,2024-04-15_13h02.47.233,Unsyncopated_study3,s147,18.0,feminino,left,España,Castellano,Upper secondary,no,no,B,1,when,L1,unsyncopated,when,when,70,Online_whenL1//b.ta29.none.wav,ri,ki,cho,sil,lu,zu,ze,sil1,fo,pu,sil2,['-'],,,none,none,,,,ta,2,testWhatL4Uns//dep_viol.r2.s1.0.wav,3.0,what,unsyncopated,b,s1,no_rule,dep,L4,m,1.1009,5.0,1.0,0.2075,4 ,2.0,Castellano,0.0,Catalán,0.0,Inglés,3.0,Francés,12.0,4.0,3.0,no,no,yes,Nada,,,,"En el úlitmo lenguaje en la fase 3 alguna frase se medio cortaba, por lo demás todo bien! ",77.0,yes
71,2024-04-15_13h02.47.233,Unsyncopated_study3,s147,18.0,feminino,left,España,Castellano,Upper secondary,no,no,B,1,when,L1,unsyncopated,when,when,71,Online_whenL1//b.ta31.none.wav,pu,lu,zu,sil,cho,la,ki,sil1,fa,ro,sil2,['-'],,,none,none,,,,ta,2,testWhatL4Uns//cat_viol.r2.s2.0.wav,3.0,what,unsyncopated,b,s2,no_rule,cat,L4,m,0.6209,5.0,1.0,0.5966,4 ,2.0,Castellano,0.0,Catalán,0.0,Inglés,3.0,Francés,12.0,4.0,3.0,no,no,yes,Nada,,,,"En el úlitmo lenguaje en la fase 3 alguna frase se medio cortaba, por lo demás todo bien! ",77.0,yes
72,2024-04-15_13h02.47.233,Unsyncopated_study3,s147,18.0,feminino,left,España,Castellano,Upper secondary,no,no,B,1,when,L1,unsyncopated,when,when,72,Online_whenL1//c.ro8.222.wav,ne,ro,ze,sil,ki,fo,zu,sil1,cho,pu,sil2,['catch'],[1.176099999993994],[1.176099999993994],0.222,no_beat,0.954099999993994,0.954099999993994,"[""space""]",ro,3,testConjL3Uns//cat_viol.r2.s2.0.wav,4.0,conjunction_un,unsyncopated,b,s2,no_rule,cat,L3,m,1.3021,6.0,1.0,0.6773,4 ,2.0,Castellano,0.0,Catalán,0.0,Inglés,3.0,Francés,12.0,4.0,3.0,no,no,yes,Nada,,,,"En el úlitmo lenguaje en la fase 3 alguna frase se medio cortaba, por lo demás todo bien! ",77.0,yes
73,2024-04-15_13h02.47.233,Unsyncopated_study3,s147,18.0,feminino,left,España,Castellano,Upper secondary,no,no,B,1,when,L1,unsyncopated,when,when,73,Online_whenL1//c.ro11.888.wav,ni,fa,ze,sil,ro,ta,ri,sil1,la,be,sil2,['catch'],[2.4291999999881],[2.4291999999881],0.888,beat,,1.5411999999881,"[""space""]",ro,3,testConjL3Uns//time_viol.r1.s1.0.wav,4.0,conjunction_un,unsyncopated,a,s1,no_rule,time,L3,z,0.1166,6.0,0.0,0.3675,4 ,2.0,Castellano,0.0,Catalán,0.0,Inglés,3.0,Francés,12.0,4.0,3.0,no,no,yes,Nada,,,,"En el úlitmo lenguaje en la fase 3 alguna frase se medio cortaba, por lo demás todo bien! ",77.0,yes
74,2024-04-15_13h02.47.233,Unsyncopated_study3,s147,18.0,feminino,left,España,Castellano,Upper secondary,no,no,B,1,when,L1,unsyncopated,when,when,74,Online_whenL1//c.ro9.none.wav,ze,zu,ta,sil,la,lu,fo,sil1,pu,ri,sil2,['-'],,,none,none,,,,ro,3,testConjL3Uns//r1.s1.2.wav,4.0,conjunction_un,unsyncopated,a,s1,rule,rule,L3,z,1.7745,3.0,1.0,0.3348,4 ,2.0,Castellano,0.0,Catalán,0.0,Inglés,3.0,Francés,12.0,4.0,3.0,no,no,yes,Nada,,,,"En el úlitmo lenguaje en la fase 3 alguna frase se medio cortaba, por lo demás todo bien! ",77.0,yes
75,2024-04-15_13h02.47.233,Unsyncopated_study3,s147,18.0,feminino,left,España,Castellano,Upper secondary,no,no,B,1,when,L1,unsyncopated,when,when,75,Online_whenL1//c.ro10.1110.wav,ne,ta,ni,sil,ri,ro,lu,sil1,ki,cho,sil2,['catch'],[2.0526000000238582],[2.0526000000238582],1.11,no_beat,0.942600000023858,0.942600000023858,"[""space""]",ro,3,testConjL3Uns//cat_viol.r1.s1.0.wav,4.0,conjunction_un,unsyncopated,a,s1,no_rule,cat,L3,z,0.459,3.0,0.0,0.4028,4 ,2.0,Castellano,0.0,Catalán,0.0,Inglés,3.0,Francés,12.0,4.0,3.0,no,no,yes,Nada,,,,"En el úlitmo lenguaje en la fase 3 alguna frase se medio cortaba, por lo demás todo bien! ",77.0,yes
76,2024-04-15_13h02.47.233,Unsyncopated_study3,s147,18.0,feminino,left,España,Castellano,Upper secondary,no,no,B,1,when,L1,unsyncopated,when,when,76,Online_whenL1//c.ro21.none.wav,ni,ta,ki,sil,fo,lu,cho,sil1,la,ne,sil2,['-'],,,none,none,,,,ro,3,testConjL3Uns//r2.s2.2.wav,4.0,conjunction_un,unsyncopated,b,s2,rule,rule,L3,m,1.1494,4.0,0.0,0.1401,4 ,2.0,Castellano,0.0,Catalán,0.0,Inglés,3.0,Francés,12.0,4.0,3.0,no,no,yes,Nada,,,,"En el úlitmo lenguaje en la fase 3 alguna frase se medio cortaba, por lo demás todo bien! ",77.0,yes
77,2024-04-15_13h02.47.233,Unsyncopated_study3,s147,18.0,feminino,left,España,Castellano,Upper secondary,no,no,B,1,when,L1,unsyncopated,when,when,77,Online_whenL1//c.ro22.none.wav,cho,la,zu,sil,fa,fo,ta,sil1,ni,be,sil2,['-'],,,none,none,,,,ro,3,testConjL3Uns//r2.s1.0.wav,4.0,conjunction_un,unsyncopated,b,s1,rule,rule,L3,m,1.3694,4.0,0.0,0.1591,4 ,2.0,Castellano,0.0,Catalán,0.0,Inglés,3.0,Francés,12.0,4.0,3.0,no,no,yes,Nada,,,,"En el úlitmo lenguaje en la fase 3 alguna frase se medio cortaba, por lo demás todo bien! ",77.0,yes
78,2024-04-15_13h02.47.233,Unsyncopated_study3,s147,18.0,feminino,left,España,Castellano,Upper secondary,no,no,B,1,when,L1,unsyncopated,when,when,78,Online_whenL1//c.ro20.none.wav,cho,zu,ri,sil,la,be,ne,sil1,fa,ta,sil2,['-'],,,none,none,,,,ro,3,testConjL3Uns//cat_viol.r1.s2.0.wav,4.0,conjunction_un,unsyncopated,a,s2,no_rule,cat,L3,z,0.0518,5.0,0.0,0.3427,4 ,2.0,Castellano,0.0,Catalán,0.0,Inglés,3.0,Francés,12.0,4.0,3.0,no,no,yes,Nada,,,,"En el úlitmo lenguaje en la fase 3 alguna frase se medio cortaba, por lo demás todo bien! ",77.0,yes
79,2024-04-15_13h02.47.233,Unsyncopated_study3,s147,18.0,feminino,left,España,Castellano,Upper secondary,no,no,B,1,when,L1,unsyncopated,when,when,79,Online_whenL1//c.ro23.1998.wav,cho,la,pu,sil,ri,fo,ta,sil1,lu,ro,sil2,['catch_delay'],[0.9585999999940815],[0.9585999999940815],1.998,no_beat,0.9585999999940816,0.9585999999940816,"[""space""]",ro,3,testConjL3Uns//r1.s1.0.wav,4.0,conjunction_un,unsyncopated,a,s1,rule,rule,L3,m,0.4555,3.0,0.0,0.2096,4 ,2.0,Castellano,0.0,Catalán,0.0,Inglés,3.0,Francés,12.0,4.0,3.0,no,no,yes,Nada,,,,"En el úlitmo lenguaje en la fase 3 alguna frase se medio cortaba, por lo demás todo bien! ",77.0,yes
80,2024-04-15_13h02.47.233,Unsyncopated_study3,s147,18.0,feminino,left,España,Castellano,Upper secondary,no,no,B,1,when,L1,unsyncopated,when,when,80,Online_whenL1//d.ne22.none.wav,ni,ki,pu,sil,ro,la,cho,sil1,fa,ri,sil2,['-'],[0.2925999999940814],[0.2925999999940814],none,none,,,"[""space""]",ne,4,testConjL3Uns//dep_viol.r2.s1.0.wav,4.0,conjunction_un,unsyncopated,b,s1,no_rule,dep,L3,z,0.4545,5.0,0.0,0.343,4 ,2.0,Castellano,0.0,Catalán,0.0,Inglés,3.0,Francés,12.0,4.0,3.0,no,no,yes,Nada,,,,"En el úlitmo lenguaje en la fase 3 alguna frase se medio cortaba, por lo demás todo bien! ",77.0,yes
81,2024-04-15_13h02.47.233,Unsyncopated_study3,s147,18.0,feminino,left,España,Castellano,Upper secondary,no,no,B,1,when,L1,unsyncopated,when,when,81,Online_whenL1//d.ne21.1332.wav,la,ro,ki,sil,cho,fo,ne,sil1,ta,ni,sil2,['miss'],,,1.332,no_beat,,,,ne,4,testConjL3Uns//r1.s2.2.wav,4.0,conjunction_un,unsyncopated,a,s2,rule,rule,L3,m,1.015,4.0,0.0,0.1936,4 ,2.0,Castellano,0.0,Catalán,0.0,Inglés,3.0,Francés,12.0,4.0,3.0,no,no,yes,Nada,,,,"En el úlitmo lenguaje en la fase 3 alguna frase se medio cortaba, por lo demás todo bien! ",77.0,yes
82,2024-04-15_13h02.47.233,Unsyncopated_study3,s147,18.0,feminino,left,España,Castellano,Upper secondary,no,no,B,1,when,L1,unsyncopated,when,when,82,Online_whenL1//d.ne20.1110.wav,fa,ki,cho,sil,pu,ne,zu,sil1,la,ro,sil2,['catch'],[2.214099999994005],[2.214099999994005],1.11,no_beat,1.1040999999940049,1.1040999999940049,"[""space""]",ne,4,testConjL3Uns//r2.s1.1.wav,4.0,conjunction_un,unsyncopated,b,s1,rule,rule,L3,z,0.3891,5.0,1.0,0.3345,4 ,2.0,Castellano,0.0,Catalán,0.0,Inglés,3.0,Francés,12.0,4.0,3.0,no,no,yes,Nada,,,,"En el úlitmo lenguaje en la fase 3 alguna frase se medio cortaba, por lo demás todo bien! ",77.0,yes
83,2024-04-15_13h02.47.233,Unsyncopated_study3,s147,18.0,feminino,left,España,Castellano,Upper secondary,no,no,B,1,when,L1,unsyncopated,when,when,83,Online_whenL1//d.ne23.none.wav,be,ni,cho,sil,ri,ro,fo,sil1,la,ki,sil2,['-'],,,none,none,,,,ne,4,testConjL3Uns//r1.s2.1.wav,4.0,conjunction_un,unsyncopated,a,s2,rule,rule,L3,m,0.751,5.0,0.0,1.9976,4 ,2.0,Castellano,0.0,Catalán,0.0,Inglés,3.0,Francés,12.0,4.0,3.0,no,no,yes,Nada,,,,"En el úlitmo lenguaje en la fase 3 alguna frase se medio cortaba, por lo demás todo bien! ",77.0,yes
84,2024-04-15_13h02.47.233,Unsyncopated_study3,s147,18.0,feminino,left,España,Castellano,Upper secondary,no,no,B,1,when,L1,unsyncopated,when,when,84,Online_whenL1//c.ro28.none.wav,fo,fa,ki,sil,ri,ze,zu,sil1,be,ne,sil2,['-'],,,none,none,,,,ro,3,testConjL3Uns//r2.s2.0.wav,4.0,conjunction_un,unsyncopated,b,s2,rule,rule,L3,z,0.2822,5.0,1.0,0.3254,4 ,2.0,Castellano,0.0,Catalán,0.0,Inglés,3.0,Francés,12.0,4.0,3.0,no,no,yes,Nada,,,,"En el úlitmo lenguaje en la fase 3 alguna frase se medio cortaba, por lo demás todo bien! ",77.0,yes
85,2024-04-15_13h02.47.233,Unsyncopated_study3,s147,18.0,feminino,left,España,Castellano,Upper secondary,no,no,B,1,when,L1,unsyncopated,when,when,85,Online_whenL1//c.ro29.none.wav,fa,ne,cho,sil,fo,ki,ta,sil1,ze,la,sil2,['-'],,,none,none,,,,ro,3,testConjL3Uns//dep_viol.r2.s2.0.wav,4.0,conjunction_un,unsyncopated,b,s2,no_rule,dep,L3,z,0.4693,6.0,0.0,0.3676,4 ,2.0,Castellano,0.0,Catalán,0.0,Inglés,3.0,Francés,12.0,4.0,3.0,no,no,yes,Nada,,,,"En el úlitmo lenguaje en la fase 3 alguna frase se medio cortaba, por lo demás todo bien! ",77.0,yes
86,2024-04-15_13h02.47.233,Unsyncopated_study3,s147,18.0,feminino,left,España,Castellano,Upper secondary,no,no,B,1,when,L1,unsyncopated,when,when,86,Online_whenL1//c.ro30.0.wav,ro,ze,zu,sil,ki,be,lu,sil1,fo,ni,sil2,['catch'],[0.9394999999999527],[0.9394999999999527],0.0,beat,0.9394999999999528,0.9394999999999528,"[""space""]",ro,3,testConjL3Uns//time_viol.r2.s2.0.wav,4.0,conjunction_un,unsyncopated,b,s2,no_rule,time,L3,m,0.4612,2.0,1.0,0.1839,4 ,2.0,Castellano,0.0,Catalán,0.0,Inglés,3.0,Francés,12.0,4.0,3.0,no,no,yes,Nada,,,,"En el úlitmo lenguaje en la fase 3 alguna frase se medio cortaba, por lo demás todo bien! ",77.0,yes
87,2024-04-15_13h02.47.233,Unsyncopated_study3,s147,18.0,feminino,left,España,Castellano,Upper secondary,no,no,B,1,when,L1,unsyncopated,when,when,87,Online_whenL1//c.ro31.none.wav,ni,ze,fo,sil,ne,zu,pu,sil1,ta,la,sil2,['false alarm'],[1.830000000000041],[1.830000000000041],none,none,,,"[""space""]",ro,3,testConjL3Uns//r2.s2.1.wav,4.0,conjunction_un,unsyncopated,b,s2,rule,rule,L3,z,0.2487,6.0,1.0,0.4118,4 ,2.0,Castellano,0.0,Catalán,0.0,Inglés,3.0,Francés,12.0,4.0,3.0,no,no,yes,Nada,,,,"En el úlitmo lenguaje en la fase 3 alguna frase se medio cortaba, por lo demás todo bien! ",77.0,yes
88,2024-04-15_13h02.47.233,Unsyncopated_study3,s147,18.0,feminino,left,España,Castellano,Upper secondary,no,no,B,1,when,L1,unsyncopated,when,when,88,Online_whenL1//b.ta26.888.wav,zu,la,be,sil,ta,ro,cho,sil1,fo,ne,sil2,['catch'],[1.538000000000011],[1.538000000000011],0.888,beat,0.6500000000000109,0.6500000000000109,"[""space""]",ta,2,testConjL3Uns//cat_viol.r2.s1.0.wav,4.0,conjunction_un,unsyncopated,b,s1,no_rule,cat,L3,m,1.4494,5.0,1.0,0.1385,4 ,2.0,Castellano,0.0,Catalán,0.0,Inglés,3.0,Francés,12.0,4.0,3.0,no,no,yes,Nada,,,,"En el úlitmo lenguaje en la fase 3 alguna frase se medio cortaba, por lo demás todo bien! ",77.0,yes
89,2024-04-15_13h02.47.233,Unsyncopated_study3,s147,18.0,feminino,left,España,Castellano,Upper secondary,no,no,B,1,when,L1,unsyncopated,when,when,89,Online_whenL1//b.ta24.1998.wav,ro,lu,ki,sil,cho,ne,ri,sil1,ni,ta,sil2,['catch_delay'],[1.0745999999939533],[1.0745999999939533],1.998,no_beat,1.0745999999939533,1.0745999999939533,,ta,2,testConjL3Uns//r1.s1.1.wav,4.0,conjunction_un,unsyncopated,a,s1,rule,rule,L3,m,2.0359,4.0,0.0,0.1183,4 ,2.0,Castellano,0.0,Catalán,0.0,Inglés,3.0,Francés,12.0,4.0,3.0,no,no,yes,Nada,,,,"En el úlitmo lenguaje en la fase 3 alguna frase se medio cortaba, por lo demás todo bien! ",77.0,yes
90,2024-04-15_13h02.47.233,Unsyncopated_study3,s147,18.0,feminino,left,España,Castellano,Upper secondary,no,no,B,1,when,L1,unsyncopated,when,when,90,Online_whenL1//b.ta27.none.wav,be,fa,cho,sil,pu,ze,ni,sil1,lu,zu,sil2,['-'],[0.40859999999395313],[0.40859999999395313],none,none,,,"[""space""]",ta,2,testConjL3Uns//r1.s2.0.wav,4.0,conjunction_un,unsyncopated,a,s2,rule,rule,L3,z,0.0008,6.0,1.0,0.3845,4 ,2.0,Castellano,0.0,Catalán,0.0,Inglés,3.0,Francés,12.0,4.0,3.0,no,no,yes,Nada,,,,"En el úlitmo lenguaje en la fase 3 alguna frase se medio cortaba, por lo demás todo bien! ",77.0,yes
91,2024-04-15_13h02.47.233,Unsyncopated_study3,s147,18.0,feminino,left,España,Castellano,Upper secondary,no,no,B,1,when,L1,unsyncopated,when,when,91,Online_whenL1//b.ta25.0.wav,ta,ne,ro,sil,fo,be,lu,sil1,zu,fa,sil2,['catch'],[0.7968000000118991],[0.7968000000118991],0.0,beat,0.7968000000118991,0.7968000000118991,"[""space""]",ta,2,testConjL3Uns//time_viol.r1.s2.0.wav,4.0,conjunction_un,unsyncopated,a,s2,no_rule,time,L3,m,1.8647,4.0,1.0,0.1065,4 ,2.0,Castellano,0.0,Catalán,0.0,Inglés,3.0,Francés,12.0,4.0,3.0,no,no,yes,Nada,,,,"En el úlitmo lenguaje en la fase 3 alguna frase se medio cortaba, por lo demás todo bien! ",77.0,yes
92,2024-04-15_13h02.47.233,Unsyncopated_study3,s147,18.0,feminino,left,España,Castellano,Upper secondary,no,no,B,1,when,L1,unsyncopated,when,when,92,Online_whenL1//d.ne29.444.wav,lu,ri,ne,sil,zu,la,ze,sil1,pu,ki,sil2,['catch'],[1.289800000011951],[1.289800000011951],0.444,no_beat,0.845800000011951,0.845800000011951,"[""space""]",ne,4,testConjL3Uns//dep_viol.r1.s2.0.wav,4.0,conjunction_un,unsyncopated,a,s2,no_rule,dep,L3,z,0.1172,5.0,0.0,0.4005,4 ,2.0,Castellano,0.0,Catalán,0.0,Inglés,3.0,Francés,12.0,4.0,3.0,no,no,yes,Nada,,,,"En el úlitmo lenguaje en la fase 3 alguna frase se medio cortaba, por lo demás todo bien! ",77.0,yes
93,2024-04-15_13h02.47.233,Unsyncopated_study3,s147,18.0,feminino,left,España,Castellano,Upper secondary,no,no,B,1,when,L1,unsyncopated,when,when,93,Online_whenL1//d.ne31.1998.wav,ni,ta,la,sil,be,ze,lu,sil1,fa,ne,sil2,['catch_delay'],[1.0240999999940106],[1.0240999999940106],1.998,no_beat,1.0240999999940106,1.0240999999940106,,ne,4,testConjL3Uns//r2.s1.2.wav,4.0,conjunction_un,unsyncopated,b,s1,rule,rule,L3,z,0.0007,5.0,1.0,0.3761,4 ,2.0,Castellano,0.0,Catalán,0.0,Inglés,3.0,Francés,12.0,4.0,3.0,no,no,yes,Nada,,,,"En el úlitmo lenguaje en la fase 3 alguna frase se medio cortaba, por lo demás todo bien! ",77.0,yes
94,2024-04-15_13h02.47.233,Unsyncopated_study3,s147,18.0,feminino,left,España,Castellano,Upper secondary,no,no,B,1,when,L1,unsyncopated,when,when,94,Online_whenL1//d.ne28.1332.wav,ta,ze,cho,sil,ro,zu,ne,sil1,ki,ri,sil2,['catch'],"[0.35809999999401043, 2.375699999988001]",[2.375699999988001],1.332,no_beat,1.0436999999880008,1.0436999999880008,"[""space"",""space""]",ne,4,testConjL3Uns//time_viol.r2.s1.0.wav,4.0,conjunction_un,unsyncopated,b,s1,no_rule,time,L3,m,1.0559,3.0,1.0,0.1486,4 ,2.0,Castellano,0.0,Catalán,0.0,Inglés,3.0,Francés,12.0,4.0,3.0,no,no,yes,Nada,,,,"En el úlitmo lenguaje en la fase 3 alguna frase se medio cortaba, por lo demás todo bien! ",77.0,yes
95,2024-04-15_13h02.47.233,Unsyncopated_study3,s147,18.0,feminino,left,España,Castellano,Upper secondary,no,no,B,1,when,L1,unsyncopated,when,when,95,Online_whenL1//d.ne30.888.wav,cho,ta,la,sil,ne,zu,fa,sil1,be,ri,sil2,['miss'],,,0.888,beat,,,,ne,4,testConjL3Uns//dep_viol.r1.s1.0.wav,4.0,conjunction_un,unsyncopated,a,s1,no_rule,dep,L3,z,0.4404,6.0,0.0,0.3505,4 ,2.0,Castellano,0.0,Catalán,0.0,Inglés,3.0,Francés,12.0,4.0,3.0,no,no,yes,Nada,,,,"En el úlitmo lenguaje en la fase 3 alguna frase se medio cortaba, por lo demás todo bien! ",77.0,yes
96,2024-04-15_13h02.47.233,Unsyncopated_study3,s147,18.0,feminino,left,España,Castellano,Upper secondary,no,no,B,1,when,L1,unsyncopated,when,when,96,Online_whenL1//b.ta35.222.wav,fa,ta,ze,sil,fo,lu,ro,sil1,ni,be,sil2,['catch'],[1.4599999999999227],[1.4599999999999227],0.222,no_beat,,1.2379999999999227,"[""space""]",ta,2,,,,,,,,,,,,,,,4 ,2.0,Castellano,0.0,Catalán,0.0,Inglés,3.0,Francés,12.0,4.0,3.0,no,no,yes,Nada,,,,"En el úlitmo lenguaje en la fase 3 alguna frase se medio cortaba, por lo demás todo bien! ",77.0,yes
97,2024-04-15_13h02.47.233,Unsyncopated_study3,s147,18.0,feminino,left,España,Castellano,Upper secondary,no,no,B,1,when,L1,unsyncopated,when,when,97,Online_whenL1//b.ta33.none.wav,ro,cho,be,sil,la,pu,ri,sil1,lu,zu,sil2,['-'],,,none,none,,,,ta,2,,,,,,,,,,,,,,,4 ,2.0,Castellano,0.0,Catalán,0.0,Inglés,3.0,Francés,12.0,4.0,3.0,no,no,yes,Nada,,,,"En el úlitmo lenguaje en la fase 3 alguna frase se medio cortaba, por lo demás todo bien! ",77.0,yes
98,2024-04-15_13h02.47.233,Unsyncopated_study3,s147,18.0,feminino,left,España,Castellano,Upper secondary,no,no,B,1,when,L1,unsyncopated,when,when,98,Online_whenL1//b.ta32.none.wav,ki,ni,fo,sil,lu,zu,cho,sil1,be,ri,sil2,['-'],,,none,none,,,,ta,2,,,,,,,,,,,,,,,4 ,2.0,Castellano,0.0,Catalán,0.0,Inglés,3.0,Francés,12.0,4.0,3.0,no,no,yes,Nada,,,,"En el úlitmo lenguaje en la fase 3 alguna frase se medio cortaba, por lo demás todo bien! ",77.0,yes
99,2024-04-15_13h02.47.233,Unsyncopated_study3,s147,18.0,feminino,left,España,Castellano,Upper secondary,no,no,B,1,when,L1,unsyncopated,when,when,99,Online_whenL1//b.ta34.1110.wav,be,cho,la,sil,ro,ta,fo,sil1,lu,ni,sil2,['catch'],[2.024400000005926],[2.024400000005926],1.11,no_beat,0.9144000000059258,0.9144000000059258,"[""space""]",ta,2,,,,,,,,,,,,,,,4 ,2.0,Castellano,0.0,Catalán,0.0,Inglés,3.0,Francés,12.0,4.0,3.0,no,no,yes,Nada,,,,"En el úlitmo lenguaje en la fase 3 alguna frase se medio cortaba, por lo demás todo bien! ",77.0,yes
100,2024-04-15_13h02.47.233,Unsyncopated_study3,s147,18.0,feminino,left,España,Castellano,Upper secondary,no,no,B,1,when,L1,unsyncopated,when,when,100,Online_whenL1//c.ro27.none.wav,ni,be,la,sil,lu,zu,ri,sil1,pu,ze,sil2,['-'],,,none,none,,,,ro,3,,,,,,,,,,,,,,,4 ,2.0,Castellano,0.0,Catalán,0.0,Inglés,3.0,Francés,12.0,4.0,3.0,no,no,yes,Nada,,,,"En el úlitmo lenguaje en la fase 3 alguna frase se medio cortaba, por lo demás todo bien! ",77.0,yes
101,2024-04-15_13h02.47.233,Unsyncopated_study3,s147,18.0,feminino,left,España,Castellano,Upper secondary,no,no,B,1,when,L1,unsyncopated,when,when,101,Online_whenL1//c.ro26.444.wav,ki,zu,ro,sil,cho,ta,ne,sil1,ri,fa,sil2,['catch'],[2.0333000000118773],[2.0333000000118773],0.444,no_beat,,1.589300000011877,"[""space""]",ro,3,,,,,,,,,,,,,,,4 ,2.0,Castellano,0.0,Catalán,0.0,Inglés,3.0,Francés,12.0,4.0,3.0,no,no,yes,Nada,,,,"En el úlitmo lenguaje en la fase 3 alguna frase se medio cortaba, por lo demás todo bien! ",77.0,yes
102,2024-04-15_13h02.47.233,Unsyncopated_study3,s147,18.0,feminino,left,España,Castellano,Upper secondary,no,no,B,1,when,L1,unsyncopated,when,when,102,Online_whenL1//c.ro24.222.wav,fo,ro,ta,sil,fa,ne,cho,sil1,be,ze,sil2,['catch'],[1.2305000000000064],[1.2305000000000064],0.222,no_beat,1.0085000000000064,1.0085000000000064,"[""space""]",ro,3,,,,,,,,,,,,,,,4 ,2.0,Castellano,0.0,Catalán,0.0,Inglés,3.0,Francés,12.0,4.0,3.0,no,no,yes,Nada,,,,"En el úlitmo lenguaje en la fase 3 alguna frase se medio cortaba, por lo demás todo bien! ",77.0,yes
103,2024-04-15_13h02.47.233,Unsyncopated_study3,s147,18.0,feminino,left,España,Castellano,Upper secondary,no,no,B,1,when,L1,unsyncopated,when,when,103,Online_whenL1//c.ro25.none.wav,la,pu,cho,sil,ki,fo,ze,sil1,ne,ni,sil2,['-'],,,none,none,,,,ro,3,,,,,,,,,,,,,,,4 ,2.0,Castellano,0.0,Catalán,0.0,Inglés,3.0,Francés,12.0,4.0,3.0,no,no,yes,Nada,,,,"En el úlitmo lenguaje en la fase 3 alguna frase se medio cortaba, por lo demás todo bien! ",77.0,yes
104,2024-04-15_13h02.47.233,Unsyncopated_study3,s147,18.0,feminino,left,España,Castellano,Upper secondary,no,no,B,1,when,L1,unsyncopated,when,when,104,Online_whenL1//c.ro13.none.wav,ne,lu,be,sil,fo,ki,ri,sil1,ni,cho,sil2,['-'],,,none,none,,,,ro,3,,,,,,,,,,,,,,,4 ,2.0,Castellano,0.0,Catalán,0.0,Inglés,3.0,Francés,12.0,4.0,3.0,no,no,yes,Nada,,,,"En el úlitmo lenguaje en la fase 3 alguna frase se medio cortaba, por lo demás todo bien! ",77.0,yes
105,2024-04-15_13h02.47.233,Unsyncopated_study3,s147,18.0,feminino,left,España,Castellano,Upper secondary,no,no,B,1,when,L1,unsyncopated,when,when,105,Online_whenL1//c.ro14.none.wav,zu,ki,fa,sil,pu,ni,lu,sil1,fo,la,sil2,['-'],,,none,none,,,,ro,3,,,,,,,,,,,,,,,4 ,2.0,Castellano,0.0,Catalán,0.0,Inglés,3.0,Francés,12.0,4.0,3.0,no,no,yes,Nada,,,,"En el úlitmo lenguaje en la fase 3 alguna frase se medio cortaba, por lo demás todo bien! ",77.0,yes
106,2024-04-15_13h02.47.233,Unsyncopated_study3,s147,18.0,feminino,left,España,Castellano,Upper secondary,no,no,B,1,when,L1,unsyncopated,when,when,106,Online_whenL1//c.ro15.0.wav,ro,ne,zu,sil,la,ri,pu,sil1,ki,ni,sil2,"['catch', 'false alarm']","[0.7850000000000819, 2.4465999999940777]",[0.7850000000000819],0.0,beat,0.7850000000000819,0.7850000000000819,"[""space"",""space""]",ro,3,,,,,,,,,,,,,,,4 ,2.0,Castellano,0.0,Catalán,0.0,Inglés,3.0,Francés,12.0,4.0,3.0,no,no,yes,Nada,,,,"En el úlitmo lenguaje en la fase 3 alguna frase se medio cortaba, por lo demás todo bien! ",77.0,yes
107,2024-04-15_13h02.47.233,Unsyncopated_study3,s147,18.0,feminino,left,España,Castellano,Upper secondary,no,no,B,1,when,L1,unsyncopated,when,when,107,Online_whenL1//c.ro12.444.wav,fa,la,ro,sil,ze,be,ki,sil1,fo,ni,sil2,['catch'],[1.3304999999999154],[1.3304999999999154],0.444,no_beat,0.8864999999999155,0.8864999999999155,"[""space""]",ro,3,,,,,,,,,,,,,,,4 ,2.0,Castellano,0.0,Catalán,0.0,Inglés,3.0,Francés,12.0,4.0,3.0,no,no,yes,Nada,,,,"En el úlitmo lenguaje en la fase 3 alguna frase se medio cortaba, por lo demás todo bien! ",77.0,yes
108,2024-04-15_13h02.47.233,Unsyncopated_study3,s147,18.0,feminino,left,España,Castellano,Upper secondary,no,no,B,1,when,L1,unsyncopated,when,when,108,Online_whenL1//d.ne18.1998.wav,fo,ri,be,sil,ki,ze,la,sil1,lu,ne,sil2,['miss'],,,1.998,no_beat,,,,ne,4,,,,,,,,,,,,,,,4 ,2.0,Castellano,0.0,Catalán,0.0,Inglés,3.0,Francés,12.0,4.0,3.0,no,no,yes,Nada,,,,"En el úlitmo lenguaje en la fase 3 alguna frase se medio cortaba, por lo demás todo bien! ",77.0,yes
109,2024-04-15_13h02.47.233,Unsyncopated_study3,s147,18.0,feminino,left,España,Castellano,Upper secondary,no,no,B,1,when,L1,unsyncopated,when,when,109,Online_whenL1//d.ne19.222.wav,ri,ne,ni,sil,cho,be,zu,sil1,pu,fa,sil2,"['catch', 'false alarm']","[0.9343000000118309, 1.4834999999999354]",[0.9343000000118309],0.222,no_beat,0.7123000000118309,0.7123000000118309,"[""space"",""space""]",ne,4,,,,,,,,,,,,,,,4 ,2.0,Castellano,0.0,Catalán,0.0,Inglés,3.0,Francés,12.0,4.0,3.0,no,no,yes,Nada,,,,"En el úlitmo lenguaje en la fase 3 alguna frase se medio cortaba, por lo demás todo bien! ",77.0,yes
110,2024-04-15_13h02.47.233,Unsyncopated_study3,s147,18.0,feminino,left,España,Castellano,Upper secondary,no,no,B,1,when,L1,unsyncopated,when,when,110,Online_whenL1//d.ne17.none.wav,fa,cho,ki,sil,la,ta,lu,sil1,fo,ni,sil2,['-'],,,none,none,,,,ne,4,,,,,,,,,,,,,,,4 ,2.0,Castellano,0.0,Catalán,0.0,Inglés,3.0,Francés,12.0,4.0,3.0,no,no,yes,Nada,,,,"En el úlitmo lenguaje en la fase 3 alguna frase se medio cortaba, por lo demás todo bien! ",77.0,yes
111,2024-04-15_13h02.47.233,Unsyncopated_study3,s147,18.0,feminino,left,España,Castellano,Upper secondary,no,no,B,1,when,L1,unsyncopated,when,when,111,Online_whenL1//d.ne16.1776.wav,cho,fo,ri,sil,lu,pu,zu,sil1,ne,be,sil2,['miss'],,,1.776,beat,,,,ne,4,,,,,,,,,,,,,,,4 ,2.0,Castellano,0.0,Catalán,0.0,Inglés,3.0,Francés,12.0,4.0,3.0,no,no,yes,Nada,,,,"En el úlitmo lenguaje en la fase 3 alguna frase se medio cortaba, por lo demás todo bien! ",77.0,yes
112,2024-04-15_13h02.47.233,Unsyncopated_study3,s147,18.0,feminino,left,España,Castellano,Upper secondary,no,no,B,1,when,L1,unsyncopated,when,when,112,Online_whenL1//d.ne9.none.wav,lu,be,pu,sil,fa,cho,zu,sil1,la,fo,sil2,['-'],,,none,none,,,,ne,4,,,,,,,,,,,,,,,4 ,2.0,Castellano,0.0,Catalán,0.0,Inglés,3.0,Francés,12.0,4.0,3.0,no,no,yes,Nada,,,,"En el úlitmo lenguaje en la fase 3 alguna frase se medio cortaba, por lo demás todo bien! ",77.0,yes
113,2024-04-15_13h02.47.233,Unsyncopated_study3,s147,18.0,feminino,left,España,Castellano,Upper secondary,no,no,B,1,when,L1,unsyncopated,when,when,113,Online_whenL1//d.ne10.222.wav,ki,ne,fa,sil,be,zu,lu,sil1,la,cho,sil2,['miss'],,,0.222,no_beat,,,,ne,4,,,,,,,,,,,,,,,4 ,2.0,Castellano,0.0,Catalán,0.0,Inglés,3.0,Francés,12.0,4.0,3.0,no,no,yes,Nada,,,,"En el úlitmo lenguaje en la fase 3 alguna frase se medio cortaba, por lo demás todo bien! ",77.0,yes
114,2024-04-15_13h02.47.233,Unsyncopated_study3,s147,18.0,feminino,left,España,Castellano,Upper secondary,no,no,B,1,when,L1,unsyncopated,when,when,114,Online_whenL1//d.ne11.0.wav,ne,cho,la,sil,lu,ta,pu,sil1,fa,ze,sil2,['catch'],[0.7679999999999154],[0.7679999999999154],0.0,beat,0.7679999999999154,0.7679999999999154,"[""space""]",ne,4,,,,,,,,,,,,,,,4 ,2.0,Castellano,0.0,Catalán,0.0,Inglés,3.0,Francés,12.0,4.0,3.0,no,no,yes,Nada,,,,"En el úlitmo lenguaje en la fase 3 alguna frase se medio cortaba, por lo demás todo bien! ",77.0,yes
115,2024-04-15_13h02.47.233,Unsyncopated_study3,s147,18.0,feminino,left,España,Castellano,Upper secondary,no,no,B,1,when,L1,unsyncopated,when,when,115,Online_whenL1//d.ne8.none.wav,lu,ni,la,sil,ro,ri,fa,sil1,ta,pu,sil2,['-'],,,none,none,,,,ne,4,,,,,,,,,,,,,,,4 ,2.0,Castellano,0.0,Catalán,0.0,Inglés,3.0,Francés,12.0,4.0,3.0,no,no,yes,Nada,,,,"En el úlitmo lenguaje en la fase 3 alguna frase se medio cortaba, por lo demás todo bien! ",77.0,yes
116,2024-04-15_13h02.47.233,Unsyncopated_study3,s147,18.0,feminino,left,España,Castellano,Upper secondary,no,no,B,1,when,L1,unsyncopated,when,when,116,Online_whenL1//d.ne4.1998.wav,fo,ki,ta,sil,ri,cho,zu,sil1,ni,ne,sil2,['catch_delay'],[0.9334000000059779],[0.9334000000059779],1.998,no_beat,0.933400000005978,0.933400000005978,,ne,4,,,,,,,,,,,,,,,4 ,2.0,Castellano,0.0,Catalán,0.0,Inglés,3.0,Francés,12.0,4.0,3.0,no,no,yes,Nada,,,,"En el úlitmo lenguaje en la fase 3 alguna frase se medio cortaba, por lo demás todo bien! ",77.0,yes
117,2024-04-15_13h02.47.233,Unsyncopated_study3,s147,18.0,feminino,left,España,Castellano,Upper secondary,no,no,B,1,when,L1,unsyncopated,when,when,117,Online_whenL1//d.ne7.none.wav,ri,lu,ki,sil,zu,ni,ta,sil1,cho,ro,sil2,['-'],[0.26740000000597774],[0.26740000000597774],none,none,,,"[""space""]",ne,4,,,,,,,,,,,,,,,4 ,2.0,Castellano,0.0,Catalán,0.0,Inglés,3.0,Francés,12.0,4.0,3.0,no,no,yes,Nada,,,,"En el úlitmo lenguaje en la fase 3 alguna frase se medio cortaba, por lo demás todo bien! ",77.0,yes
118,2024-04-15_13h02.47.233,Unsyncopated_study3,s147,18.0,feminino,left,España,Castellano,Upper secondary,no,no,B,1,when,L1,unsyncopated,when,when,118,Online_whenL1//d.ne6.444.wav,fo,pu,ne,sil,cho,ro,lu,sil1,ki,zu,sil2,['catch'],[1.4643000000119173],[1.4643000000119173],0.444,no_beat,1.0203000000119171,1.0203000000119171,"[""space""]",ne,4,,,,,,,,,,,,,,,4 ,2.0,Castellano,0.0,Catalán,0.0,Inglés,3.0,Francés,12.0,4.0,3.0,no,no,yes,Nada,,,,"En el úlitmo lenguaje en la fase 3 alguna frase se medio cortaba, por lo demás todo bien! ",77.0,yes
119,2024-04-15_13h02.47.233,Unsyncopated_study3,s147,18.0,feminino,left,España,Castellano,Upper secondary,no,no,B,1,when,L1,unsyncopated,when,when,119,Online_whenL1//d.ne5.none.wav,zu,ta,lu,sil,la,ni,ri,sil1,fa,be,sil2,['-'],,,none,none,,,,ne,4,,,,,,,,,,,,,,,4 ,2.0,Castellano,0.0,Catalán,0.0,Inglés,3.0,Francés,12.0,4.0,3.0,no,no,yes,Nada,,,,"En el úlitmo lenguaje en la fase 3 alguna frase se medio cortaba, por lo demás todo bien! ",77.0,yes
120,2024-04-15_13h02.47.233,Unsyncopated_study3,s147,18.0,feminino,left,España,Castellano,Upper secondary,no,no,B,1,when,L1,unsyncopated,when,when,120,Online_whenL1//b.ta17.none.wav,ni,fo,zu,sil,be,ki,ze,sil1,ro,ri,sil2,['-'],,,none,none,,,,ta,2,,,,,,,,,,,,,,,4 ,2.0,Castellano,0.0,Catalán,0.0,Inglés,3.0,Francés,12.0,4.0,3.0,no,no,yes,Nada,,,,"En el úlitmo lenguaje en la fase 3 alguna frase se medio cortaba, por lo demás todo bien! ",77.0,yes
121,2024-04-15_13h02.47.233,Unsyncopated_study3,s147,18.0,feminino,left,España,Castellano,Upper secondary,no,no,B,1,when,L1,unsyncopated,when,when,121,Online_whenL1//b.ta19.none.wav,pu,fa,lu,sil,fo,cho,la,sil1,be,ri,sil2,['-'],,,none,none,,,,ta,2,,,,,,,,,,,,,,,4 ,2.0,Castellano,0.0,Catalán,0.0,Inglés,3.0,Francés,12.0,4.0,3.0,no,no,yes,Nada,,,,"En el úlitmo lenguaje en la fase 3 alguna frase se medio cortaba, por lo demás todo bien! ",77.0,yes
122,2024-04-15_13h02.47.233,Unsyncopated_study3,s147,18.0,feminino,left,España,Castellano,Upper secondary,no,no,B,1,when,L1,unsyncopated,when,when,122,Online_whenL1//b.ta18.0.wav,ta,ze,zu,sil,ri,ro,lu,sil1,pu,la,sil2,['catch'],[0.78449999999998],[0.78449999999998],0.0,beat,0.78449999999998,0.78449999999998,"[""space""]",ta,2,,,,,,,,,,,,,,,4 ,2.0,Castellano,0.0,Catalán,0.0,Inglés,3.0,Francés,12.0,4.0,3.0,no,no,yes,Nada,,,,"En el úlitmo lenguaje en la fase 3 alguna frase se medio cortaba, por lo demás todo bien! ",77.0,yes
123,2024-04-15_13h02.47.233,Unsyncopated_study3,s147,18.0,feminino,left,España,Castellano,Upper secondary,no,no,B,1,when,L1,unsyncopated,when,when,123,Online_whenL1//b.ta16.none.wav,ni,pu,fa,sil,ne,ki,cho,sil1,fo,ro,sil2,['-'],,,none,none,,,,ta,2,,,,,,,,,,,,,,,4 ,2.0,Castellano,0.0,Catalán,0.0,Inglés,3.0,Francés,12.0,4.0,3.0,no,no,yes,Nada,,,,"En el úlitmo lenguaje en la fase 3 alguna frase se medio cortaba, por lo demás todo bien! ",77.0,yes
124,2024-04-15_13h02.47.233,Unsyncopated_study3,s147,18.0,feminino,left,España,Castellano,Upper secondary,no,no,B,1,when,L1,unsyncopated,when,when,124,Online_whenL1//a.ki16.888.wav,ni,ro,ta,sil,ki,lu,cho,sil1,fo,ri,sil2,['catch'],[1.691500000000019],[1.691500000000019],0.888,beat,0.8035000000000191,0.8035000000000191,"[""space""]",ki,1,,,,,,,,,,,,,,,4 ,2.0,Castellano,0.0,Catalán,0.0,Inglés,3.0,Francés,12.0,4.0,3.0,no,no,yes,Nada,,,,"En el úlitmo lenguaje en la fase 3 alguna frase se medio cortaba, por lo demás todo bien! ",77.0,yes
125,2024-04-15_13h02.47.233,Unsyncopated_study3,s147,18.0,feminino,left,España,Castellano,Upper secondary,no,no,B,1,when,L1,unsyncopated,when,when,125,Online_whenL1//a.ki18.444.wav,ni,fa,ki,sil,pu,ri,fo,sil1,zu,ne,sil2,['miss'],,,0.444,no_beat,,,,ki,1,,,,,,,,,,,,,,,4 ,2.0,Castellano,0.0,Catalán,0.0,Inglés,3.0,Francés,12.0,4.0,3.0,no,no,yes,Nada,,,,"En el úlitmo lenguaje en la fase 3 alguna frase se medio cortaba, por lo demás todo bien! ",77.0,yes
126,2024-04-15_13h02.47.233,Unsyncopated_study3,s147,18.0,feminino,left,España,Castellano,Upper secondary,no,no,B,1,when,L1,unsyncopated,when,when,126,Online_whenL1//a.ki19.1998.wav,pu,ze,ro,sil,fo,zu,cho,sil1,fa,ki,sil2,['catch_delay'],[1.0129999999999801],[1.0129999999999801],1.998,no_beat,1.01299999999998,1.01299999999998,,ki,1,,,,,,,,,,,,,,,4 ,2.0,Castellano,0.0,Catalán,0.0,Inglés,3.0,Francés,12.0,4.0,3.0,no,no,yes,Nada,,,,"En el úlitmo lenguaje en la fase 3 alguna frase se medio cortaba, por lo demás todo bien! ",77.0,yes
127,2024-04-15_13h02.47.233,Unsyncopated_study3,s147,18.0,feminino,left,España,Castellano,Upper secondary,no,no,B,1,when,L1,unsyncopated,when,when,127,Online_whenL1//a.ki17.none.wav,be,la,fo,sil,zu,ze,ro,sil1,pu,ne,sil2,['-'],[0.34699999999998],[0.34699999999998],none,none,,,"[""space""]",ki,1,,,,,,,,,,,,,,,4 ,2.0,Castellano,0.0,Catalán,0.0,Inglés,3.0,Francés,12.0,4.0,3.0,no,no,yes,Nada,,,,"En el úlitmo lenguaje en la fase 3 alguna frase se medio cortaba, por lo demás todo bien! ",77.0,yes
128,2024-04-15_13h02.47.233,Unsyncopated_study3,s147,18.0,feminino,left,España,Castellano,Upper secondary,no,no,B,1,when,L1,unsyncopated,when,when,128,Online_whenL1//a.ki29.none.wav,be,fa,ta,sil,zu,lu,ze,sil1,ri,ro,sil2,['-'],,,none,none,,,,ki,1,,,,,,,,,,,,,,,4 ,2.0,Castellano,0.0,Catalán,0.0,Inglés,3.0,Francés,12.0,4.0,3.0,no,no,yes,Nada,,,,"En el úlitmo lenguaje en la fase 3 alguna frase se medio cortaba, por lo demás todo bien! ",77.0,yes
129,2024-04-15_13h02.47.233,Unsyncopated_study3,s147,18.0,feminino,left,España,Castellano,Upper secondary,no,no,B,1,when,L1,unsyncopated,when,when,129,Online_whenL1//a.ki30.none.wav,ta,fa,ze,sil,pu,ne,fo,sil1,ni,zu,sil2,['false alarm'],[0.5178000000119027],[0.5178000000119027],none,none,,,"[""space""]",ki,1,,,,,,,,,,,,,,,4 ,2.0,Castellano,0.0,Catalán,0.0,Inglés,3.0,Francés,12.0,4.0,3.0,no,no,yes,Nada,,,,"En el úlitmo lenguaje en la fase 3 alguna frase se medio cortaba, por lo demás todo bien! ",77.0,yes
130,2024-04-15_13h02.47.233,Unsyncopated_study3,s147,18.0,feminino,left,España,Castellano,Upper secondary,no,no,B,1,when,L1,unsyncopated,when,when,130,Online_whenL1//a.ki31.0.wav,ki,ze,cho,sil,ri,lu,ta,sil1,ro,fa,sil2,['catch'],[0.9460000000000264],[0.9460000000000264],0.0,beat,0.9460000000000264,0.9460000000000264,"[""space""]",ki,1,,,,,,,,,,,,,,,4 ,2.0,Castellano,0.0,Catalán,0.0,Inglés,3.0,Francés,12.0,4.0,3.0,no,no,yes,Nada,,,,"En el úlitmo lenguaje en la fase 3 alguna frase se medio cortaba, por lo demás todo bien! ",77.0,yes
131,2024-04-15_13h02.47.233,Unsyncopated_study3,s147,18.0,feminino,left,España,Castellano,Upper secondary,no,no,B,1,when,L1,unsyncopated,when,when,131,Online_whenL1//a.ki28.1998.wav,la,fa,ze,sil,zu,ta,ri,sil1,ni,ki,sil2,['catch_delay'],[0.6990000000000156],[0.6990000000000156],1.998,no_beat,0.6990000000000156,0.6990000000000156,,ki,1,,,,,,,,,,,,,,,4 ,2.0,Castellano,0.0,Catalán,0.0,Inglés,3.0,Francés,12.0,4.0,3.0,no,no,yes,Nada,,,,"En el úlitmo lenguaje en la fase 3 alguna frase se medio cortaba, por lo demás todo bien! ",77.0,yes
132,2024-04-15_13h02.47.233,Unsyncopated_study3,s147,18.0,feminino,left,España,Castellano,Upper secondary,no,no,B,1,when,L1,unsyncopated,when,when,132,Online_whenL1//b.ta20.1110.wav,zu,lu,fo,sil,ki,ta,ne,sil1,ri,la,sil2,['catch'],"[0.03300000000001546, 2.0981999999880827]",[2.0981999999880827],1.11,no_beat,0.9881999999880826,0.9881999999880826,"[""space"",""space""]",ta,2,,,,,,,,,,,,,,,4 ,2.0,Castellano,0.0,Catalán,0.0,Inglés,3.0,Francés,12.0,4.0,3.0,no,no,yes,Nada,,,,"En el úlitmo lenguaje en la fase 3 alguna frase se medio cortaba, por lo demás todo bien! ",77.0,yes
133,2024-04-15_13h02.47.233,Unsyncopated_study3,s147,18.0,feminino,left,España,Castellano,Upper secondary,no,no,B,1,when,L1,unsyncopated,when,when,133,Online_whenL1//b.ta22.none.wav,be,ri,fo,sil,ne,ki,zu,sil1,fa,lu,sil2,['-'],,,none,none,,,,ta,2,,,,,,,,,,,,,,,4 ,2.0,Castellano,0.0,Catalán,0.0,Inglés,3.0,Francés,12.0,4.0,3.0,no,no,yes,Nada,,,,"En el úlitmo lenguaje en la fase 3 alguna frase se medio cortaba, por lo demás todo bien! ",77.0,yes
134,2024-04-15_13h02.47.233,Unsyncopated_study3,s147,18.0,feminino,left,España,Castellano,Upper secondary,no,no,B,1,when,L1,unsyncopated,when,when,134,Online_whenL1//b.ta21.1998.wav,fa,be,la,sil,zu,cho,fo,sil1,ni,ta,sil2,['catch_delay'],[0.9535000000000229],[0.9535000000000229],1.998,no_beat,0.9535000000000228,0.9535000000000228,"[""space""]",ta,2,,,,,,,,,,,,,,,4 ,2.0,Castellano,0.0,Catalán,0.0,Inglés,3.0,Francés,12.0,4.0,3.0,no,no,yes,Nada,,,,"En el úlitmo lenguaje en la fase 3 alguna frase se medio cortaba, por lo demás todo bien! ",77.0,yes
135,2024-04-15_13h02.47.233,Unsyncopated_study3,s147,18.0,feminino,left,España,Castellano,Upper secondary,no,no,B,1,when,L1,unsyncopated,when,when,135,Online_whenL1//b.ta23.none.wav,ni,fo,ri,sil,ki,la,be,sil1,ze,ne,sil2,['-'],[0.28750000000002274],[0.28750000000002274],none,none,,,"[""space""]",ta,2,,,,,,,,,,,,,,,4 ,2.0,Castellano,0.0,Catalán,0.0,Inglés,3.0,Francés,12.0,4.0,3.0,no,no,yes,Nada,,,,"En el úlitmo lenguaje en la fase 3 alguna frase se medio cortaba, por lo demás todo bien! ",77.0,yes
136,2024-04-15_13h02.47.233,Unsyncopated_study3,s147,18.0,feminino,left,España,Castellano,Upper secondary,no,no,B,2,conjunction_syn,L2,syncopated,s1,r1,0,Online_conjL2_syn//b.fe.ra26.none.none.wav,go,ño,mi,du,sil,me,si,bi,sil1,ba,sil2,['-'],,,none,none,,,,ra,2,,,,,,,,,,,,,,,4 ,2.0,Castellano,0.0,Catalán,0.0,Inglés,3.0,Francés,12.0,4.0,3.0,no,no,yes,Nada,,,,"En el úlitmo lenguaje en la fase 3 alguna frase se medio cortaba, por lo demás todo bien! ",77.0,yes
137,2024-04-15_13h02.47.233,Unsyncopated_study3,s147,18.0,feminino,left,España,Castellano,Upper secondary,no,no,B,2,conjunction_syn,L2,syncopated,s1,r2,1,Online_conjL2_syn//b.fe.ra27.0.666.wav,fe,ñu,si,ra,sil,ño,to,te,sil1,su,sil2,['catch'],[1.5372000000179469],[1.5372000000179469],0.666,no_beat,0.8712000000179468,0.8712000000179468,"[""space""]",ra,2,,,,,,,,,,,,,,,4 ,2.0,Castellano,0.0,Catalán,0.0,Inglés,3.0,Francés,12.0,4.0,3.0,no,no,yes,Nada,,,,"En el úlitmo lenguaje en la fase 3 alguna frase se medio cortaba, por lo demás todo bien! ",77.0,yes
138,2024-04-15_13h02.47.233,Unsyncopated_study3,s147,18.0,feminino,left,España,Castellano,Upper secondary,no,no,B,2,conjunction_syn,L2,syncopated,s1,r1,2,Online_conjL2_syn//b.fe.ra25.none.none.wav,go,to,mi,du,sil,me,ba,si,sil1,su,sil2,['-'],,,none,none,,,,ra,2,,,,,,,,,,,,,,,4 ,2.0,Castellano,0.0,Catalán,0.0,Inglés,3.0,Francés,12.0,4.0,3.0,no,no,yes,Nada,,,,"En el úlitmo lenguaje en la fase 3 alguna frase se medio cortaba, por lo demás todo bien! ",77.0,yes
139,2024-04-15_13h02.47.233,Unsyncopated_study3,s147,18.0,feminino,left,España,Castellano,Upper secondary,no,no,B,2,conjunction_syn,L2,syncopated,s2,r1,3,Online_conjL2_syn//b.fe.ra24.none.none.wav,ñu,me,cha,go,sil,ba,to,du,sil1,si,sil2,['-'],,,none,none,,,,ra,2,,,,,,,,,,,,,,,4 ,2.0,Castellano,0.0,Catalán,0.0,Inglés,3.0,Francés,12.0,4.0,3.0,no,no,yes,Nada,,,,"En el úlitmo lenguaje en la fase 3 alguna frase se medio cortaba, por lo demás todo bien! ",77.0,yes
140,2024-04-15_13h02.47.233,Unsyncopated_study3,s147,18.0,feminino,left,España,Castellano,Upper secondary,no,no,B,2,conjunction_syn,L2,syncopated,s1,r2,4,Online_conjL2_syn//b.fe.ra14.0.666.wav,fe,te,ño,ra,sil,su,cha,bi,sil1,to,sil2,['miss'],,,0.666,no_beat,,,,ra,2,,,,,,,,,,,,,,,4 ,2.0,Castellano,0.0,Catalán,0.0,Inglés,3.0,Francés,12.0,4.0,3.0,no,no,yes,Nada,,,,"En el úlitmo lenguaje en la fase 3 alguna frase se medio cortaba, por lo demás todo bien! ",77.0,yes
141,2024-04-15_13h02.47.233,Unsyncopated_study3,s147,18.0,feminino,left,España,Castellano,Upper secondary,no,no,B,2,conjunction_syn,L2,syncopated,s1,r2,5,Online_conjL2_syn//b.fe.ra13.0.666.wav,fe,si,ba,ra,sil,bi,su,ñu,sil1,ño,sil2,"['catch', 'false alarm']","[1.1690999999939322, 1.751599999993914]",[1.1690999999939322],0.666,no_beat,0.5030999999939322,0.5030999999939322,"[""space"",""space""]",ra,2,,,,,,,,,,,,,,,4 ,2.0,Castellano,0.0,Catalán,0.0,Inglés,3.0,Francés,12.0,4.0,3.0,no,no,yes,Nada,,,,"En el úlitmo lenguaje en la fase 3 alguna frase se medio cortaba, por lo demás todo bien! ",77.0,yes
142,2024-04-15_13h02.47.233,Unsyncopated_study3,s147,18.0,feminino,left,España,Castellano,Upper secondary,no,no,B,2,conjunction_syn,L2,syncopated,s1,r1,6,Online_conjL2_syn//b.fe.ra15.none.none.wav,go,ñu,to,du,sil,bi,cha,ño,sil1,ba,sil2,['-'],,,none,none,,,,ra,2,,,,,,,,,,,,,,,4 ,2.0,Castellano,0.0,Catalán,0.0,Inglés,3.0,Francés,12.0,4.0,3.0,no,no,yes,Nada,,,,"En el úlitmo lenguaje en la fase 3 alguna frase se medio cortaba, por lo demás todo bien! ",77.0,yes
143,2024-04-15_13h02.47.233,Unsyncopated_study3,s147,18.0,feminino,left,España,Castellano,Upper secondary,no,no,B,2,conjunction_syn,L2,syncopated,s2,r1,7,Online_conjL2_syn//b.fe.ra12.none.none.wav,ba,to,mi,go,sil,bi,si,du,sil1,me,sil2,['-'],,,none,none,,,,ra,2,,,,,,,,,,,,,,,4 ,2.0,Castellano,0.0,Catalán,0.0,Inglés,3.0,Francés,12.0,4.0,3.0,no,no,yes,Nada,,,,"En el úlitmo lenguaje en la fase 3 alguna frase se medio cortaba, por lo demás todo bien! ",77.0,yes
144,2024-04-15_13h02.47.233,Unsyncopated_study3,s147,18.0,feminino,left,España,Castellano,Upper secondary,no,no,B,2,conjunction_syn,L2,syncopated,s2,r1,8,Online_conjL2_syn//a.go.du4.666.1554.wav,mi,si,te,go,sil,ño,to,du,sil1,ñu,sil2,['catch'],[2.336099999994076],[2.336099999994076],0.666,no_beat,,1.670099999994076,"[""space""]",go,1,,,,,,,,,,,,,,,4 ,2.0,Castellano,0.0,Catalán,0.0,Inglés,3.0,Francés,12.0,4.0,3.0,no,no,yes,Nada,,,,"En el úlitmo lenguaje en la fase 3 alguna frase se medio cortaba, por lo demás todo bien! ",77.0,yes
145,2024-04-15_13h02.47.233,Unsyncopated_study3,s147,18.0,feminino,left,España,Castellano,Upper secondary,no,no,B,2,conjunction_syn,L2,syncopated,s1,r2,9,Online_conjL2_syn//a.go.du5.none.none.wav,fe,ñu,cha,ra,sil,te,ño,ba,sil1,si,sil2,['-'],,,none,none,,,,go,1,,,,,,,,,,,,,,,4 ,2.0,Castellano,0.0,Catalán,0.0,Inglés,3.0,Francés,12.0,4.0,3.0,no,no,yes,Nada,,,,"En el úlitmo lenguaje en la fase 3 alguna frase se medio cortaba, por lo demás todo bien! ",77.0,yes
146,2024-04-15_13h02.47.233,Unsyncopated_study3,s147,18.0,feminino,left,España,Castellano,Upper secondary,no,no,B,2,conjunction_syn,L2,syncopated,s1,r1,10,Online_conjL2_syn//a.go.du6.0.666.wav,go,bi,to,du,sil,me,su,ba,sil1,te,sil2,['catch'],[1.8548000000118918],[1.8548000000118918],0.0,beat,,1.854800000011892,"[""space""]",go,1,,,,,,,,,,,,,,,4 ,2.0,Castellano,0.0,Catalán,0.0,Inglés,3.0,Francés,12.0,4.0,3.0,no,no,yes,Nada,,,,"En el úlitmo lenguaje en la fase 3 alguna frase se medio cortaba, por lo demás todo bien! ",77.0,yes
147,2024-04-15_13h02.47.233,Unsyncopated_study3,s147,18.0,feminino,left,España,Castellano,Upper secondary,no,no,B,2,conjunction_syn,L2,syncopated,s1,r2,11,Online_conjL2_syn//a.go.du7.none.none.wav,fe,mi,ñu,ra,sil,ño,ba,me,sil1,su,sil2,['-'],,,none,none,,,,go,1,,,,,,,,,,,,,,,4 ,2.0,Castellano,0.0,Catalán,0.0,Inglés,3.0,Francés,12.0,4.0,3.0,no,no,yes,Nada,,,,"En el úlitmo lenguaje en la fase 3 alguna frase se medio cortaba, por lo demás todo bien! ",77.0,yes
148,2024-04-15_13h02.47.233,Unsyncopated_study3,s147,18.0,feminino,left,España,Castellano,Upper secondary,no,no,B,2,conjunction_syn,L2,syncopated,s1,r1,12,Online_conjL2_syn//c.cha.me22.1554.444.wav,go,bi,me,du,sil,to,ba,cha,sil1,ño,sil2,['catch'],[2.5262999999820295],[2.5262999999820295],0.444,no_beat,,2.082299999982029,"[""space""]",me,3,,,,,,,,,,,,,,,4 ,2.0,Castellano,0.0,Catalán,0.0,Inglés,3.0,Francés,12.0,4.0,3.0,no,no,yes,Nada,,,,"En el úlitmo lenguaje en la fase 3 alguna frase se medio cortaba, por lo demás todo bien! ",77.0,yes
149,2024-04-15_13h02.47.233,Unsyncopated_study3,s147,18.0,feminino,left,España,Castellano,Upper secondary,no,no,B,2,conjunction_syn,L2,syncopated,s1,r1,13,Online_conjL2_syn//c.cha.me20.none.none.wav,go,mi,si,du,sil,bi,ba,ño,sil1,su,sil2,['false alarm'],[0.9726999999882082],[0.9726999999882082],none,none,,,"[""space""]",me,3,,,,,,,,,,,,,,,4 ,2.0,Castellano,0.0,Catalán,0.0,Inglés,3.0,Francés,12.0,4.0,3.0,no,no,yes,Nada,,,,"En el úlitmo lenguaje en la fase 3 alguna frase se medio cortaba, por lo demás todo bien! ",77.0,yes
150,2024-04-15_13h02.47.233,Unsyncopated_study3,s147,18.0,feminino,left,España,Castellano,Upper secondary,no,no,B,2,conjunction_syn,L2,syncopated,s1,r2,14,Online_conjL2_syn//c.cha.me21.222.444.wav,fe,cha,me,ra,sil,su,ñu,to,sil1,mi,sil2,['miss'],,,0.444,no_beat,,,,me,3,,,,,,,,,,,,,,,4 ,2.0,Castellano,0.0,Catalán,0.0,Inglés,3.0,Francés,12.0,4.0,3.0,no,no,yes,Nada,,,,"En el úlitmo lenguaje en la fase 3 alguna frase se medio cortaba, por lo demás todo bien! ",77.0,yes
151,2024-04-15_13h02.47.233,Unsyncopated_study3,s147,18.0,feminino,left,España,Castellano,Upper secondary,no,no,B,2,conjunction_syn,L2,syncopated,s1,r2,15,Online_conjL2_syn//c.cha.me23.none.none.wav,fe,bi,ñu,ra,sil,ba,su,to,sil1,te,sil2,['-'],,,none,none,,,,me,3,,,,,,,,,,,,,,,4 ,2.0,Castellano,0.0,Catalán,0.0,Inglés,3.0,Francés,12.0,4.0,3.0,no,no,yes,Nada,,,,"En el úlitmo lenguaje en la fase 3 alguna frase se medio cortaba, por lo demás todo bien! ",77.0,yes
152,2024-04-15_13h02.47.233,Unsyncopated_study3,s147,18.0,feminino,left,España,Castellano,Upper secondary,no,no,B,2,conjunction_syn,L2,syncopated,s2,r1,16,Online_conjL2_syn//b.fe.ra4.none.none.wav,me,bi,ño,go,sil,ñu,to,du,sil1,te,sil2,['-'],,,none,none,,,,ra,2,,,,,,,,,,,,,,,4 ,2.0,Castellano,0.0,Catalán,0.0,Inglés,3.0,Francés,12.0,4.0,3.0,no,no,yes,Nada,,,,"En el úlitmo lenguaje en la fase 3 alguna frase se medio cortaba, por lo demás todo bien! ",77.0,yes
153,2024-04-15_13h02.47.233,Unsyncopated_study3,s147,18.0,feminino,left,España,Castellano,Upper secondary,no,no,B,2,conjunction_syn,L2,syncopated,s2,r1,17,Online_conjL2_syn//b.fe.ra7.none.none.wav,ba,cha,me,go,sil,su,si,du,sil1,mi,sil2,['-'],,,none,none,,,,ra,2,,,,,,,,,,,,,,,4 ,2.0,Castellano,0.0,Catalán,0.0,Inglés,3.0,Francés,12.0,4.0,3.0,no,no,yes,Nada,,,,"En el úlitmo lenguaje en la fase 3 alguna frase se medio cortaba, por lo demás todo bien! ",77.0,yes
154,2024-04-15_13h02.47.233,Unsyncopated_study3,s147,18.0,feminino,left,España,Castellano,Upper secondary,no,no,B,2,conjunction_syn,L2,syncopated,s2,r1,18,Online_conjL2_syn//b.fe.ra6.none.none.wav,te,ño,ba,go,sil,ñu,cha,du,sil1,su,sil2,['-'],,,none,none,,,,ra,2,,,,,,,,,,,,,,,4 ,2.0,Castellano,0.0,Catalán,0.0,Inglés,3.0,Francés,12.0,4.0,3.0,no,no,yes,Nada,,,,"En el úlitmo lenguaje en la fase 3 alguna frase se medio cortaba, por lo demás todo bien! ",77.0,yes
155,2024-04-15_13h02.47.233,Unsyncopated_study3,s147,18.0,feminino,left,España,Castellano,Upper secondary,no,no,B,2,conjunction_syn,L2,syncopated,s2,r2,19,Online_conjL2_syn//b.fe.ra5.666.1554.wav,ñu,te,to,fe,sil,ba,su,ra,sil1,mi,sil2,['miss'],,,1.554,no_beat,,,,ra,2,,,,,,,,,,,,,,,4 ,2.0,Castellano,0.0,Catalán,0.0,Inglés,3.0,Francés,12.0,4.0,3.0,no,no,yes,Nada,,,,"En el úlitmo lenguaje en la fase 3 alguna frase se medio cortaba, por lo demás todo bien! ",77.0,yes
156,2024-04-15_13h02.47.233,Unsyncopated_study3,s147,18.0,feminino,left,España,Castellano,Upper secondary,no,no,B,2,conjunction_syn,L2,syncopated,s1,r2,20,Online_conjL2_syn//a.go.du25.none.none.wav,fe,ba,to,ra,sil,me,cha,si,sil1,ño,sil2,['-'],,,none,none,,,,go,1,,,,,,,,,,,,,,,4 ,2.0,Castellano,0.0,Catalán,0.0,Inglés,3.0,Francés,12.0,4.0,3.0,no,no,yes,Nada,,,,"En el úlitmo lenguaje en la fase 3 alguna frase se medio cortaba, por lo demás todo bien! ",77.0,yes
157,2024-04-15_13h02.47.233,Unsyncopated_study3,s147,18.0,feminino,left,España,Castellano,Upper secondary,no,no,B,2,conjunction_syn,L2,syncopated,s1,r1,21,Online_conjL2_syn//a.go.du27.0.666.wav,go,te,ñu,du,sil,bi,ño,su,sil1,me,sil2,['miss'],,,0.0,beat,,,,go,1,,,,,,,,,,,,,,,4 ,2.0,Castellano,0.0,Catalán,0.0,Inglés,3.0,Francés,12.0,4.0,3.0,no,no,yes,Nada,,,,"En el úlitmo lenguaje en la fase 3 alguna frase se medio cortaba, por lo demás todo bien! ",77.0,yes
158,2024-04-15_13h02.47.233,Unsyncopated_study3,s147,18.0,feminino,left,España,Castellano,Upper secondary,no,no,B,2,conjunction_syn,L2,syncopated,s2,r1,22,Online_conjL2_syn//a.go.du24.666.1554.wav,ño,ñu,si,go,sil,me,su,du,sil1,te,sil2,['false alarm'],[0.08829999998215499],[0.08829999998215499],0.666,no_beat,,,"[""space""]",go,1,,,,,,,,,,,,,,,4 ,2.0,Castellano,0.0,Catalán,0.0,Inglés,3.0,Francés,12.0,4.0,3.0,no,no,yes,Nada,,,,"En el úlitmo lenguaje en la fase 3 alguna frase se medio cortaba, por lo demás todo bien! ",77.0,yes
159,2024-04-15_13h02.47.233,Unsyncopated_study3,s147,18.0,feminino,left,España,Castellano,Upper secondary,no,no,B,2,conjunction_syn,L2,syncopated,s1,r2,23,Online_conjL2_syn//a.go.du26.none.none.wav,fe,ba,su,ra,sil,bi,me,ñu,sil1,cha,sil2,['-'],,,none,none,,,,go,1,,,,,,,,,,,,,,,4 ,2.0,Castellano,0.0,Catalán,0.0,Inglés,3.0,Francés,12.0,4.0,3.0,no,no,yes,Nada,,,,"En el úlitmo lenguaje en la fase 3 alguna frase se medio cortaba, por lo demás todo bien! ",77.0,yes
160,2024-04-15_13h02.47.233,Unsyncopated_study3,s147,18.0,feminino,left,España,Castellano,Upper secondary,no,no,B,2,conjunction_syn,L2,syncopated,s2,r2,24,Online_conjL2_syn//a.go.du28.none.none.wav,me,su,ba,fe,sil,mi,to,ra,sil1,cha,sil2,['-'],,,none,none,,,,go,1,,,,,,,,,,,,,,,4 ,2.0,Castellano,0.0,Catalán,0.0,Inglés,3.0,Francés,12.0,4.0,3.0,no,no,yes,Nada,,,,"En el úlitmo lenguaje en la fase 3 alguna frase se medio cortaba, por lo demás todo bien! ",77.0,yes
161,2024-04-15_13h02.47.233,Unsyncopated_study3,s147,18.0,feminino,left,España,Castellano,Upper secondary,no,no,B,2,conjunction_syn,L2,syncopated,s1,r1,25,Online_conjL2_syn//a.go.du29.0.666.wav,go,ñu,su,du,sil,si,me,to,sil1,bi,sil2,"['catch', 'false alarm']","[0.12320000001795961, 1.02430000001209]",[0.12320000001795961],0.0,beat,0.1232000000179596,0.1232000000179596,"[""space"",""space""]",go,1,,,,,,,,,,,,,,,4 ,2.0,Castellano,0.0,Catalán,0.0,Inglés,3.0,Francés,12.0,4.0,3.0,no,no,yes,Nada,,,,"En el úlitmo lenguaje en la fase 3 alguna frase se medio cortaba, por lo demás todo bien! ",77.0,yes
162,2024-04-15_13h02.47.233,Unsyncopated_study3,s147,18.0,feminino,left,España,Castellano,Upper secondary,no,no,B,2,conjunction_syn,L2,syncopated,s1,r1,26,Online_conjL2_syn//a.go.du31.0.666.wav,go,ba,su,du,sil,ñu,si,bi,sil1,me,sil2,['catch'],[1.6769999999999072],[1.6769999999999072],0.0,beat,,1.6769999999999072,"[""space""]",go,1,,,,,,,,,,,,,,,4 ,2.0,Castellano,0.0,Catalán,0.0,Inglés,3.0,Francés,12.0,4.0,3.0,no,no,yes,Nada,,,,"En el úlitmo lenguaje en la fase 3 alguna frase se medio cortaba, por lo demás todo bien! ",77.0,yes
163,2024-04-15_13h02.47.233,Unsyncopated_study3,s147,18.0,feminino,left,España,Castellano,Upper secondary,no,no,B,2,conjunction_syn,L2,syncopated,s2,r2,27,Online_conjL2_syn//a.go.du30.none.none.wav,to,ñu,me,fe,sil,bi,ño,ra,sil1,su,sil2,['-'],,,none,none,,,,go,1,,,,,,,,,,,,,,,4 ,2.0,Castellano,0.0,Catalán,0.0,Inglés,3.0,Francés,12.0,4.0,3.0,no,no,yes,Nada,,,,"En el úlitmo lenguaje en la fase 3 alguna frase se medio cortaba, por lo demás todo bien! ",77.0,yes
164,2024-04-15_13h02.47.233,Unsyncopated_study3,s147,18.0,feminino,left,España,Castellano,Upper secondary,no,no,B,2,conjunction_syn,L2,syncopated,s1,r2,28,Online_conjL2_syn//d.si.ñu6.1110.1332.wav,fe,ño,bi,ra,sil,si,ñu,te,sil1,me,sil2,['false alarm'],[1.0587000000177795],[1.0587000000177795],1.332,no_beat,,,"[""space""]",ñu,4,,,,,,,,,,,,,,,4 ,2.0,Castellano,0.0,Catalán,0.0,Inglés,3.0,Francés,12.0,4.0,3.0,no,no,yes,Nada,,,,"En el úlitmo lenguaje en la fase 3 alguna frase se medio cortaba, por lo demás todo bien! ",77.0,yes
165,2024-04-15_13h02.47.233,Unsyncopated_study3,s147,18.0,feminino,left,España,Castellano,Upper secondary,no,no,B,2,conjunction_syn,L2,syncopated,s2,r2,29,Online_conjL2_syn//d.si.ñu5.1332.444.wav,cha,ño,ñu,fe,sil,bi,si,ra,sil1,to,sil2,"['catch', 'false alarm']","[1.5349999999998545, 1.8030999999939468]",[1.5349999999998545],0.444,no_beat,1.0909999999998543,1.0909999999998543,"[""space"",""space""]",ñu,4,,,,,,,,,,,,,,,4 ,2.0,Castellano,0.0,Catalán,0.0,Inglés,3.0,Francés,12.0,4.0,3.0,no,no,yes,Nada,,,,"En el úlitmo lenguaje en la fase 3 alguna frase se medio cortaba, por lo demás todo bien! ",77.0,yes
166,2024-04-15_13h02.47.233,Unsyncopated_study3,s147,18.0,feminino,left,España,Castellano,Upper secondary,no,no,B,2,conjunction_syn,L2,syncopated,s1,r1,30,Online_conjL2_syn//d.si.ñu7.444.1110.wav,go,to,si,du,sil,ñu,te,mi,sil1,su,sil2,['miss'],,,1.11,no_beat,,,,ñu,4,,,,,,,,,,,,,,,4 ,2.0,Castellano,0.0,Catalán,0.0,Inglés,3.0,Francés,12.0,4.0,3.0,no,no,yes,Nada,,,,"En el úlitmo lenguaje en la fase 3 alguna frase se medio cortaba, por lo demás todo bien! ",77.0,yes
167,2024-04-15_13h02.47.233,Unsyncopated_study3,s147,18.0,feminino,left,España,Castellano,Upper secondary,no,no,B,2,conjunction_syn,L2,syncopated,s1,r1,31,Online_conjL2_syn//d.si.ñu4.none.none.wav,go,su,to,du,sil,bi,me,cha,sil1,mi,sil2,['-'],,,none,none,,,,ñu,4,,,,,,,,,,,,,,,4 ,2.0,Castellano,0.0,Catalán,0.0,Inglés,3.0,Francés,12.0,4.0,3.0,no,no,yes,Nada,,,,"En el úlitmo lenguaje en la fase 3 alguna frase se medio cortaba, por lo demás todo bien! ",77.0,yes
168,2024-04-15_13h02.47.233,Unsyncopated_study3,s147,18.0,feminino,left,España,Castellano,Upper secondary,no,no,B,2,conjunction_syn,L2,syncopated,s2,r2,32,Online_conjL2_syn//b.fe.ra8.666.1554.wav,to,mi,ño,fe,sil,cha,te,ra,sil1,me,sil2,['miss'],,,1.554,no_beat,,,,ra,2,,,,,,,,,,,,,,,4 ,2.0,Castellano,0.0,Catalán,0.0,Inglés,3.0,Francés,12.0,4.0,3.0,no,no,yes,Nada,,,,"En el úlitmo lenguaje en la fase 3 alguna frase se medio cortaba, por lo demás todo bien! ",77.0,yes
169,2024-04-15_13h02.47.233,Unsyncopated_study3,s147,18.0,feminino,left,España,Castellano,Upper secondary,no,no,B,2,conjunction_syn,L2,syncopated,s1,r2,33,Online_conjL2_syn//b.fe.ra11.0.666.wav,fe,to,bi,ra,sil,mi,me,ñu,sil1,ba,sil2,"['false alarm', 'catch']","[0.3702999999820804, 1.7106999999880372]",[1.7106999999880372],0.666,no_beat,1.0446999999880373,1.0446999999880373,"[""space"",""space""]",ra,2,,,,,,,,,,,,,,,4 ,2.0,Castellano,0.0,Catalán,0.0,Inglés,3.0,Francés,12.0,4.0,3.0,no,no,yes,Nada,,,,"En el úlitmo lenguaje en la fase 3 alguna frase se medio cortaba, por lo demás todo bien! ",77.0,yes
170,2024-04-15_13h02.47.233,Unsyncopated_study3,s147,18.0,feminino,left,España,Castellano,Upper secondary,no,no,B,2,conjunction_syn,L2,syncopated,s2,r2,34,Online_conjL2_syn//b.fe.ra9.666.1554.wav,cha,to,bi,fe,sil,ñu,me,ra,sil1,ño,sil2,['miss'],,,1.554,no_beat,,,,ra,2,,,,,,,,,,,,,,,4 ,2.0,Castellano,0.0,Catalán,0.0,Inglés,3.0,Francés,12.0,4.0,3.0,no,no,yes,Nada,,,,"En el úlitmo lenguaje en la fase 3 alguna frase se medio cortaba, por lo demás todo bien! ",77.0,yes
171,2024-04-15_13h02.47.233,Unsyncopated_study3,s147,18.0,feminino,left,España,Castellano,Upper secondary,no,no,B,2,conjunction_syn,L2,syncopated,s1,r2,35,Online_conjL2_syn//b.fe.ra10.0.666.wav,fe,bi,cha,ra,sil,si,te,su,sil1,ba,sil2,['false alarm'],[0.11130000001207918],[0.11130000001207918],0.666,no_beat,,,"[""space""]",ra,2,,,,,,,,,,,,,,,4 ,2.0,Castellano,0.0,Catalán,0.0,Inglés,3.0,Francés,12.0,4.0,3.0,no,no,yes,Nada,,,,"En el úlitmo lenguaje en la fase 3 alguna frase se medio cortaba, por lo demás todo bien! ",77.0,yes
172,2024-04-15_13h02.47.233,Unsyncopated_study3,s147,18.0,feminino,left,España,Castellano,Upper secondary,no,no,B,2,conjunction_syn,L2,syncopated,s2,r1,36,Online_conjL2_syn//d.si.ñu20.1110.0.wav,ñu,ño,mi,go,sil,si,to,du,sil1,me,sil2,['miss'],,,0.0,beat,,,,ñu,4,,,,,,,,,,,,,,,4 ,2.0,Castellano,0.0,Catalán,0.0,Inglés,3.0,Francés,12.0,4.0,3.0,no,no,yes,Nada,,,,"En el úlitmo lenguaje en la fase 3 alguna frase se medio cortaba, por lo demás todo bien! ",77.0,yes
173,2024-04-15_13h02.47.233,Unsyncopated_study3,s147,18.0,feminino,left,España,Castellano,Upper secondary,no,no,B,2,conjunction_syn,L2,syncopated,s2,r1,37,Online_conjL2_syn//d.si.ñu21.0.1110.wav,si,su,bi,go,sil,ñu,me,du,sil1,mi,sil2,['miss'],,,1.11,no_beat,,,,ñu,4,,,,,,,,,,,,,,,4 ,2.0,Castellano,0.0,Catalán,0.0,Inglés,3.0,Francés,12.0,4.0,3.0,no,no,yes,Nada,,,,"En el úlitmo lenguaje en la fase 3 alguna frase se medio cortaba, por lo demás todo bien! ",77.0,yes
174,2024-04-15_13h02.47.233,Unsyncopated_study3,s147,18.0,feminino,left,España,Castellano,Upper secondary,no,no,B,2,conjunction_syn,L2,syncopated,s2,r2,38,Online_conjL2_syn//d.si.ñu23.0.444.wav,si,su,ñu,fe,sil,mi,ño,ra,sil1,cha,sil2,"['catch', 'false alarm']","[1.5205999999939195, 2.0009999999999764]",[1.5205999999939195],0.444,no_beat,1.0765999999939195,1.0765999999939195,"[""space"",""space""]",ñu,4,,,,,,,,,,,,,,,4 ,2.0,Castellano,0.0,Catalán,0.0,Inglés,3.0,Francés,12.0,4.0,3.0,no,no,yes,Nada,,,,"En el úlitmo lenguaje en la fase 3 alguna frase se medio cortaba, por lo demás todo bien! ",77.0,yes
175,2024-04-15_13h02.47.233,Unsyncopated_study3,s147,18.0,feminino,left,España,Castellano,Upper secondary,no,no,B,2,conjunction_syn,L2,syncopated,s2,r1,39,Online_conjL2_syn//d.si.ñu22.1332.222.wav,ba,ñu,me,go,sil,ño,si,du,sil1,te,sil2,"['catch', 'false alarm']","[1.6758000000118045, 2.0606999999879463]",[1.6758000000118045],0.222,no_beat,,1.4538000000118043,"[""space"",""space""]",ñu,4,,,,,,,,,,,,,,,4 ,2.0,Castellano,0.0,Catalán,0.0,Inglés,3.0,Francés,12.0,4.0,3.0,no,no,yes,Nada,,,,"En el úlitmo lenguaje en la fase 3 alguna frase se medio cortaba, por lo demás todo bien! ",77.0,yes
176,2024-04-15_13h02.47.233,Unsyncopated_study3,s147,18.0,feminino,left,España,Castellano,Upper secondary,no,no,B,2,conjunction_syn,L2,syncopated,s2,r1,40,Online_conjL2_syn//b.fe.ra2.none.none.wav,te,to,bi,go,sil,cha,ñu,du,sil1,su,sil2,['-'],,,none,none,,,,ra,2,,,,,,,,,,,,,,,4 ,2.0,Castellano,0.0,Catalán,0.0,Inglés,3.0,Francés,12.0,4.0,3.0,no,no,yes,Nada,,,,"En el úlitmo lenguaje en la fase 3 alguna frase se medio cortaba, por lo demás todo bien! ",77.0,yes
177,2024-04-15_13h02.47.233,Unsyncopated_study3,s147,18.0,feminino,left,España,Castellano,Upper secondary,no,no,B,2,conjunction_syn,L2,syncopated,s2,r2,41,Online_conjL2_syn//b.fe.ra3.666.1554.wav,cha,ba,ñu,fe,sil,me,ño,ra,sil1,bi,sil2,['miss'],,,1.554,no_beat,,,,ra,2,,,,,,,,,,,,,,,4 ,2.0,Castellano,0.0,Catalán,0.0,Inglés,3.0,Francés,12.0,4.0,3.0,no,no,yes,Nada,,,,"En el úlitmo lenguaje en la fase 3 alguna frase se medio cortaba, por lo demás todo bien! ",77.0,yes
178,2024-04-15_13h02.47.233,Unsyncopated_study3,s147,18.0,feminino,left,España,Castellano,Upper secondary,no,no,B,2,conjunction_syn,L2,syncopated,s1,r2,42,Online_conjL2_syn//b.fe.ra1.0.666.wav,fe,to,bi,ra,sil,me,te,su,sil1,ño,sil2,"['false alarm', 'catch']","[0.5114999999998417, 1.7764000000058786]",[1.7764000000058786],0.666,no_beat,1.110400000005879,1.110400000005879,"[""space"",""space""]",ra,2,,,,,,,,,,,,,,,4 ,2.0,Castellano,0.0,Catalán,0.0,Inglés,3.0,Francés,12.0,4.0,3.0,no,no,yes,Nada,,,,"En el úlitmo lenguaje en la fase 3 alguna frase se medio cortaba, por lo demás todo bien! ",77.0,yes
179,2024-04-15_13h02.47.233,Unsyncopated_study3,s147,18.0,feminino,left,España,Castellano,Upper secondary,no,no,B,2,conjunction_syn,L2,syncopated,s2,r2,43,Online_conjL2_syn//b.fe.ra0.666.1554.wav,te,si,ba,fe,sil,mi,ño,ra,sil1,cha,sil2,['miss'],,,1.554,no_beat,,,,ra,2,,,,,,,,,,,,,,,4 ,2.0,Castellano,0.0,Catalán,0.0,Inglés,3.0,Francés,12.0,4.0,3.0,no,no,yes,Nada,,,,"En el úlitmo lenguaje en la fase 3 alguna frase se medio cortaba, por lo demás todo bien! ",77.0,yes
180,2024-04-15_13h02.47.233,Unsyncopated_study3,s147,18.0,feminino,left,España,Castellano,Upper secondary,no,no,B,2,conjunction_syn,L2,syncopated,s2,r1,44,Online_conjL2_syn//c.cha.me2.444.0.wav,me,te,cha,go,sil,mi,su,du,sil1,ño,sil2,"['catch', 'false alarm']","[0.017099999994115933, 0.7680000000000291]",[0.017099999994115933],0.0,beat,0.0170999999941159,0.0170999999941159,"[""space"",""space""]",me,3,,,,,,,,,,,,,,,4 ,2.0,Castellano,0.0,Catalán,0.0,Inglés,3.0,Francés,12.0,4.0,3.0,no,no,yes,Nada,,,,"En el úlitmo lenguaje en la fase 3 alguna frase se medio cortaba, por lo demás todo bien! ",77.0,yes
181,2024-04-15_13h02.47.233,Unsyncopated_study3,s147,18.0,feminino,left,España,Castellano,Upper secondary,no,no,B,2,conjunction_syn,L2,syncopated,s2,r1,45,Online_conjL2_syn//c.cha.me3.444.0.wav,me,ba,cha,go,sil,te,mi,du,sil1,ñu,sil2,['catch'],[0.8501999999882628],[0.8501999999882628],0.0,beat,0.8501999999882628,0.8501999999882628,"[""space""]",me,3,,,,,,,,,,,,,,,4 ,2.0,Castellano,0.0,Catalán,0.0,Inglés,3.0,Francés,12.0,4.0,3.0,no,no,yes,Nada,,,,"En el úlitmo lenguaje en la fase 3 alguna frase se medio cortaba, por lo demás todo bien! ",77.0,yes
