Unnamed: 0,date,expName,participant,age,sex,hand,residence,native_lang,education_level,lang_deficit,aud_deficit,group,block,condition,language,rhythm,rule structure online,rule type online,order_trial_on,trial_online,s1,s2,s3,s4,s5,s6,s7,s8,s9,s10,s11,catch_syll_resp,rts_syll_catch,clean_rts,time_syll,beat_no_beat,catch_rtsTR,catch_rts,syllable_catch.keys,cond_syll,syll_to_catch,test_offline,block_off,condition_off,rhythm_off,rule,rule_str_off,rule_norule,conds_offline,language_off,Partz_no_partm.keys,Partz_no_partm.rt,security_1_7.keys,accuracy,security_1_7.rt,n_lang,n_lang_used,lang_1,age_l1,lang_2,age_l2,lang_3,age_l3,ability_learn_l2,tendence_mix_lan,music_experience,muisc_use,partiture,instr_1,age_M1,instr_2,age_M2,preguntas_musica1,BMRQ_answer.response,final comment,BMRQ_Score,bilingual
0,2024-02-19_20h04.52.495,Unsyncopated_study2,s114,18.0,feminino,right,Espana,Espanol,Upper secondary,no,no,A,1,conjunction_un,L2,unsyncopated,s2,r2,0,Online_conjL2_un//c.cha.me4.none.none.wav,mi,ñu,su,sil,fe,bi,to,sil1,ra,ñi,sil2,['-'],,,none,none,,,,cha,3,testConjL2Uns//time_viol.r2.s2.0.wav,1.0,conjunction_un,unsyncopated,b,s2,no_rule,time,L2,z,1.768,7.0,0.0,5.0658,3 ,3.0,Castellano,0.0,Ingles,5.0,Catalan,10.0,4.0,3.0,yes,no,no,Canto,5,Piano,5,1. Cuando comparto música con alguien siento una complicidad especial con aquella persona.,4.0,Nada,75.0,yes
1,2024-02-19_20h04.52.495,Unsyncopated_study2,s114,18.0,feminino,right,Espana,Espanol,Upper secondary,no,no,A,1,conjunction_un,L2,unsyncopated,s2,r2,1,Online_conjL2_un//c.cha.me6.0.222.wav,cha,me,si,sil,fe,ba,te,sil1,ra,to,sil2,['catch'],[0.6032000000029711],[0.6032000000029711],0.0,beat,0.6032000000029711,0.6032000000029711,"[""space""]",cha,3,testConjL2Uns//r1.s1.2.wav,1.0,conjunction_un,unsyncopated,a,s1,rule,rule,L2,m,1.4549,5.0,0.0,4.6359,3 ,3.0,Castellano,0.0,Ingles,5.0,Catalan,10.0,4.0,3.0,yes,no,no,Canto,5,Piano,5,2. En mi tiempo libre apenas escucho música.,5.0,Nada,75.0,yes
2,2024-02-19_20h04.52.495,Unsyncopated_study2,s114,18.0,feminino,right,Espana,Espanol,Upper secondary,no,no,A,1,conjunction_un,L2,unsyncopated,s1,r2,2,Online_conjL2_un//c.cha.me7.none.none.wav,fe,su,si,sil,ra,te,mi,sil1,ba,to,sil2,['-'],,,none,none,,,,cha,3,testConjL2Uns//r2.s2.2.wav,1.0,conjunction_un,unsyncopated,b,s2,rule,rule,L2,z,0.1584,6.0,1.0,2.8032,3 ,3.0,Castellano,0.0,Ingles,5.0,Catalan,10.0,4.0,3.0,yes,no,no,Canto,5,Piano,5,3. Algunas canciones me ponen los pelos de punta,4.0,Nada,75.0,yes
3,2024-02-19_20h04.52.495,Unsyncopated_study2,s114,18.0,feminino,right,Espana,Espanol,Upper secondary,no,no,A,1,conjunction_un,L2,unsyncopated,s2,r1,3,Online_conjL2_un//c.cha.me5.1332.0.wav,me,ñi,mi,sil,go,to,cha,sil1,du,su,sil2,['catch'],[2.1440000000000055],[2.1440000000000055],1.332,no_beat,0.8120000000000054,0.8120000000000054,"[""space""]",cha,3,testConjL2Uns//r1.s2.1.wav,1.0,conjunction_un,unsyncopated,a,s2,rule,rule,L2,m,1.5195,5.0,0.0,2.6138,3 ,3.0,Castellano,0.0,Ingles,5.0,Catalan,10.0,4.0,3.0,yes,no,no,Canto,5,Piano,5,4. La música me hace compañía cuando estoy solo,4.0,Nada,75.0,yes
4,2024-02-19_20h04.52.495,Unsyncopated_study2,s114,18.0,feminino,right,Espana,Espanol,Upper secondary,no,no,A,1,conjunction_un,L2,unsyncopated,s1,r2,4,Online_conjL2_un//d.si.ñu25.none.none.wav,fe,me,ñi,sil,ra,to,mi,sil1,bi,cha,sil2,['-'],,,none,none,,,,si,4,testConjL2Uns//r1.s2.0.wav,1.0,conjunction_un,unsyncopated,a,s2,rule,rule,L2,m,1.6492,3.0,0.0,3.0492,3 ,3.0,Castellano,0.0,Ingles,5.0,Catalan,10.0,4.0,3.0,yes,no,no,Canto,5,Piano,5,5. No me apetece bailar ni con la música que más me gusta,5.0,Nada,75.0,yes
5,2024-02-19_20h04.52.495,Unsyncopated_study2,s114,18.0,feminino,right,Espana,Espanol,Upper secondary,no,no,A,1,conjunction_un,L2,unsyncopated,s2,r2,5,Online_conjL2_un//d.si.ñu27.1332.0.wav,ñu,bi,to,sil,fe,ba,si,sil1,ra,te,sil2,['catch'],[2.074800000000778],[2.074800000000778],1.332,no_beat,0.7428000000007777,0.7428000000007777,"[""space""]",si,4,testConjL2Uns//cat_viol.r1.s2.0.wav,1.0,conjunction_un,unsyncopated,a,s2,no_rule,cat,L2,m,0.9531,5.0,1.0,1.8099,3 ,3.0,Castellano,0.0,Ingles,5.0,Catalan,10.0,4.0,3.0,yes,no,no,Canto,5,Piano,5,6. La música me hace conectar con la gente,3.0,Nada,75.0,yes
6,2024-02-19_20h04.52.495,Unsyncopated_study2,s114,18.0,feminino,right,Espana,Espanol,Upper secondary,no,no,A,1,conjunction_un,L2,unsyncopated,s1,r2,6,Online_conjL2_un//d.si.ñu26.none.none.wav,fe,bi,to,sil,ra,mi,me,sil1,te,ba,sil2,['-'],,,none,none,,,,si,4,testConjL2Uns//dep_viol.r2.s1.0.wav,1.0,conjunction_un,unsyncopated,b,s1,no_rule,dep,L2,z,2.6332,3.0,0.0,2.0606,3 ,3.0,Castellano,0.0,Ingles,5.0,Catalan,10.0,4.0,3.0,yes,no,no,Canto,5,Piano,5,7. Me informo sobre la música que me gusta.,2.0,Nada,75.0,yes
7,2024-02-19_20h04.52.495,Unsyncopated_study2,s114,18.0,feminino,right,Espana,Espanol,Upper secondary,no,no,A,1,conjunction_un,L2,unsyncopated,s2,r2,7,Online_conjL2_un//d.si.ñu24.0.1110.wav,si,bi,to,sil,fe,ñu,te,sil1,ra,ñi,sil2,['catch'],[0.591100000001461],[0.591100000001461],0.0,beat,0.591100000001461,0.591100000001461,"[""space""]",si,4,testConjL2Uns//time_viol.r1.s2.0.wav,1.0,conjunction_un,unsyncopated,a,s2,no_rule,time,L2,m,1.3415,6.0,1.0,2.1437,3 ,3.0,Castellano,0.0,Ingles,5.0,Catalan,10.0,4.0,3.0,yes,no,no,Canto,5,Piano,5,8.Me emociono escuchando ciertas canciones.,4.0,Nada,75.0,yes
8,2024-02-19_20h04.52.495,Unsyncopated_study2,s114,18.0,feminino,right,Espana,Espanol,Upper secondary,no,no,A,1,conjunction_un,L2,unsyncopated,s2,r1,8,Online_conjL2_un//b.fe.ra27.none.none.wav,mi,si,me,sil,go,ñu,to,sil1,du,te,sil2,['-'],,,none,none,,,,fe,1,testConjL2Uns//dep_viol.r1.s1.0.wav,1.0,conjunction_un,unsyncopated,a,s1,no_rule,dep,L2,z,1.1487,5.0,0.0,1.8005,3 ,3.0,Castellano,0.0,Ingles,5.0,Catalan,10.0,4.0,3.0,yes,no,no,Canto,5,Piano,5,9.La música me tranquiliza y me relaja.,4.0,Nada,75.0,yes
9,2024-02-19_20h04.52.495,Unsyncopated_study2,s114,18.0,feminino,right,Espana,Espanol,Upper secondary,no,no,A,1,conjunction_un,L2,unsyncopated,s2,r2,9,Online_conjL2_un//b.fe.ra26.888.1776.wav,ba,su,si,sil,fe,ñu,mi,sil1,ra,ñi,sil2,['miss'],,,0.888,beat,,,,fe,1,testConjL2Uns//r2.s1.2.wav,1.0,conjunction_un,unsyncopated,b,s1,rule,rule,L2,m,1.1974,3.0,0.0,1.234,3 ,3.0,Castellano,0.0,Ingles,5.0,Catalan,10.0,4.0,3.0,yes,no,no,Canto,5,Piano,5,10.La música me hace bailar,4.0,Nada,75.0,yes
10,2024-02-19_20h04.52.495,Unsyncopated_study2,s114,18.0,feminino,right,Espana,Espanol,Upper secondary,no,no,A,1,conjunction_un,L2,unsyncopated,s2,r2,10,Online_conjL2_un//b.fe.ra25.888.1776.wav,me,bi,si,sil,fe,su,te,sil1,ra,cha,sil2,['miss'],,,0.888,beat,,,,fe,1,testConjL2Uns//cat_viol.r2.s1.0.wav,1.0,conjunction_un,unsyncopated,b,s1,no_rule,cat,L2,m,1.1755,5.0,1.0,1.6682,3 ,3.0,Castellano,0.0,Ingles,5.0,Catalan,10.0,4.0,3.0,yes,no,no,Canto,5,Piano,5,11.Busco novedades musicales continuamente,2.0,Nada,75.0,yes
11,2024-02-19_20h04.52.495,Unsyncopated_study2,s114,18.0,feminino,right,Espana,Espanol,Upper secondary,no,no,A,1,conjunction_un,L2,unsyncopated,s1,r1,11,Online_conjL2_un//b.fe.ra24.none.none.wav,go,su,bi,sil,du,me,ñi,sil1,mi,cha,sil2,['-'],,,none,none,,,,fe,1,testConjL2Uns//r1.s2.2.wav,1.0,conjunction_un,unsyncopated,a,s2,rule,rule,L2,z,0.7184,5.0,1.0,1.5353,3 ,3.0,Castellano,0.0,Ingles,5.0,Catalan,10.0,4.0,3.0,yes,no,no,Canto,5,Piano,5,12. Puedo llorar cuando escucho algunas melodías que me gustan mucho.,4.0,Nada,75.0,yes
12,2024-02-19_20h04.52.495,Unsyncopated_study2,s114,18.0,feminino,right,Espana,Espanol,Upper secondary,no,no,A,1,conjunction_un,L2,unsyncopated,s2,r2,12,Online_conjL2_un//a.go.du25.none.none.wav,mi,ñu,ba,sil,fe,bi,to,sil1,ra,si,sil2,['-'],,,none,none,,,,du,2,testConjL2Uns//dep_viol.r2.s2.0.wav,1.0,conjunction_un,unsyncopated,b,s2,no_rule,dep,L2,m,0.7795,3.0,1.0,1.1662,3 ,3.0,Castellano,0.0,Ingles,5.0,Catalan,10.0,4.0,3.0,yes,no,no,Canto,5,Piano,5,13. Me gusta cantar o tocar un instrumento con más gente,3.0,Nada,75.0,yes
13,2024-02-19_20h04.52.495,Unsyncopated_study2,s114,18.0,feminino,right,Espana,Espanol,Upper secondary,no,no,A,1,conjunction_un,L2,unsyncopated,s2,r2,13,Online_conjL2_un//a.go.du26.none.none.wav,mi,bi,ñi,sil,fe,cha,te,sil1,ra,su,sil2,['-'],,,none,none,,,,du,2,testConjL2Uns//time_viol.r1.s1.0.wav,1.0,conjunction_un,unsyncopated,a,s1,no_rule,time,L2,z,1.2662,4.0,0.0,1.3276,3 ,3.0,Castellano,0.0,Ingles,5.0,Catalan,10.0,4.0,3.0,yes,no,no,Canto,5,Piano,5,14. La música me ayuda a desconectar.,4.0,Nada,75.0,yes
14,2024-02-19_20h04.52.495,Unsyncopated_study2,s114,18.0,feminino,right,Espana,Espanol,Upper secondary,no,no,A,1,conjunction_un,L2,unsyncopated,s2,r1,14,Online_conjL2_un//a.go.du27.888.1776.wav,ñu,ba,bi,sil,go,si,mi,sil1,du,te,sil2,['catch_delay'],[1.1004999999999774],[1.1004999999999774],1.776,beat,1.1004999999999774,1.1004999999999774,"[""space""]",du,2,testConjL2Uns//r2.s2.1.wav,1.0,conjunction_un,unsyncopated,b,s2,rule,rule,L2,z,0.4445,5.0,1.0,1.4838,3 ,3.0,Castellano,0.0,Ingles,5.0,Catalan,10.0,4.0,3.0,yes,no,no,Canto,5,Piano,5,15. No puedo evitar tararear las canciones que me gustan cuando las escucho.,4.0,Nada,75.0,yes
15,2024-02-19_20h04.52.495,Unsyncopated_study2,s114,18.0,feminino,right,Espana,Espanol,Upper secondary,no,no,A,1,conjunction_un,L2,unsyncopated,s1,r1,15,Online_conjL2_un//a.go.du24.0.888.wav,go,si,bi,sil,du,to,me,sil1,ñi,ba,sil2,['catch'],"[0.21249999999997726, 1.562099999997713]",[1.562099999997713],0.888,beat,0.674099999997713,0.674099999997713,"[""space"",""space""]",du,2,testConjL2Uns//time_viol.r2.s1.0.wav,1.0,conjunction_un,unsyncopated,b,s1,no_rule,time,L2,m,0.296,6.0,1.0,1.8748,3 ,3.0,Castellano,0.0,Ingles,5.0,Catalan,10.0,4.0,3.0,yes,no,no,Canto,5,Piano,5,16. En los conciertos me siento en sintonía con los artistas y el público.,4.0,Nada,75.0,yes
16,2024-02-19_20h04.52.495,Unsyncopated_study2,s114,18.0,feminino,right,Espana,Espanol,Upper secondary,no,no,A,1,conjunction_un,L2,unsyncopated,s2,r1,16,Online_conjL2_un//c.cha.me26.none.none.wav,to,si,ba,sil,go,ñi,ñu,sil1,du,bi,sil2,['-'],,,none,none,,,,cha,3,testConjL2Uns//r1.s1.1.wav,1.0,conjunction_un,unsyncopated,a,s1,rule,rule,L2,m,0.3844,5.0,0.0,1.2222,3 ,3.0,Castellano,0.0,Ingles,5.0,Catalan,10.0,4.0,3.0,yes,no,no,Canto,5,Piano,5,17. Me gasto bastante dinero en música y cosas relacionadas con la música.,3.0,Nada,75.0,yes
17,2024-02-19_20h04.52.495,Unsyncopated_study2,s114,18.0,feminino,right,Espana,Espanol,Upper secondary,no,no,A,1,conjunction_un,L2,unsyncopated,s1,r2,17,Online_conjL2_un//c.cha.me25.none.none.wav,fe,ñu,ba,sil,ra,ñi,si,sil1,te,su,sil2,['-'],,,none,none,,,,cha,3,testConjL2Uns//cat_viol.r1.s1.0.wav,1.0,conjunction_un,unsyncopated,a,s1,no_rule,cat,L2,m,1.1183,5.0,1.0,1.1617,3 ,3.0,Castellano,0.0,Ingles,5.0,Catalan,10.0,4.0,3.0,yes,no,no,Canto,5,Piano,5,18. Siento escalofríos cuando escucho una melodía que me gusta.,4.0,Nada,75.0,yes
18,2024-02-19_20h04.52.495,Unsyncopated_study2,s114,18.0,feminino,right,Espana,Espanol,Upper secondary,no,no,A,1,conjunction_un,L2,unsyncopated,s2,r1,18,Online_conjL2_un//c.cha.me24.444.0.wav,me,ba,cha,sil,go,su,bi,sil1,du,ñu,sil2,['catch'],[1.1513000000006741],[1.1513000000006741],0.444,no_beat,0.7073000000006742,0.7073000000006742,"[""space""]",cha,3,testConjL2Uns//r2.s2.0.wav,1.0,conjunction_un,unsyncopated,b,s2,rule,rule,L2,z,2.0087,5.0,1.0,1.1104,3 ,3.0,Castellano,0.0,Ingles,5.0,Catalan,10.0,4.0,3.0,yes,no,no,Canto,5,Piano,5,19. Con la música me puedo desahogar.,4.0,Nada,75.0,yes
19,2024-02-19_20h04.52.495,Unsyncopated_study2,s114,18.0,feminino,right,Espana,Espanol,Upper secondary,no,no,A,1,conjunction_un,L2,unsyncopated,s1,r2,19,Online_conjL2_un//c.cha.me27.1776.444.wav,fe,bi,me,sil,ra,mi,ba,sil1,cha,ñu,sil2,['catch'],[2.389400000002297],[2.389400000002297],1.776,beat,0.613400000002297,0.613400000002297,"[""space""]",cha,3,testConjL2Uns//dep_viol.r1.s2.0.wav,1.0,conjunction_un,unsyncopated,a,s2,no_rule,dep,L2,m,0.7947,6.0,1.0,1.6,3 ,3.0,Castellano,0.0,Ingles,5.0,Catalan,10.0,4.0,3.0,yes,no,no,Canto,5,Piano,5,20. Cuando escucho una melodía que me gusta mucho no puedo evitar mover el cuerpo.,4.0,Nada,75.0,yes
20,2024-02-19_20h04.52.495,Unsyncopated_study2,s114,18.0,feminino,right,Espana,Espanol,Upper secondary,no,no,A,1,conjunction_un,L2,unsyncopated,s1,r2,20,Online_conjL2_un//c.cha.me21.1332.444.wav,fe,su,me,sil,ra,si,cha,sil1,ñi,ba,sil2,['catch'],[2.07650000000001],[2.07650000000001],1.332,no_beat,0.7445000000000099,0.7445000000000099,"[""space""]",cha,3,testConjL2Uns//r1.s1.0.wav,1.0,conjunction_un,unsyncopated,a,s1,rule,rule,L2,m,0.369,5.0,0.0,0.7093,3 ,3.0,Castellano,0.0,Ingles,5.0,Catalan,10.0,4.0,3.0,yes,no,no,Canto,5,Piano,5,,,Nada,75.0,yes
21,2024-02-19_20h04.52.495,Unsyncopated_study2,s114,18.0,feminino,right,Espana,Espanol,Upper secondary,no,no,A,1,conjunction_un,L2,unsyncopated,s2,r2,21,Online_conjL2_un//c.cha.me23.222.444.wav,su,cha,me,sil,fe,mi,to,sil1,ra,ñu,sil2,"['catch', 'false alarm']","[0.8964999999999463, 2.468400000002134]",[0.8964999999999463],0.222,no_beat,0.6744999999999464,0.6744999999999464,"[""space"",""space""]",cha,3,testConjL2Uns//cat_viol.r2.s2.0.wav,1.0,conjunction_un,unsyncopated,b,s2,no_rule,cat,L2,z,1.539,4.0,0.0,1.3074,3 ,3.0,Castellano,0.0,Ingles,5.0,Catalan,10.0,4.0,3.0,yes,no,no,Canto,5,Piano,5,,,Nada,75.0,yes
22,2024-02-19_20h04.52.495,Unsyncopated_study2,s114,18.0,feminino,right,Espana,Espanol,Upper secondary,no,no,A,1,conjunction_un,L2,unsyncopated,s1,r1,22,Online_conjL2_un//c.cha.me22.222.444.wav,go,cha,me,sil,du,ñu,to,sil1,te,su,sil2,['catch'],[1.231999999999971],[1.231999999999971],0.222,no_beat,1.009999999999971,1.009999999999971,"[""space""]",cha,3,testConjL2Uns//r2.s1.1.wav,1.0,conjunction_un,unsyncopated,b,s1,rule,rule,L2,z,0.368,6.0,1.0,1.5186,3 ,3.0,Castellano,0.0,Ingles,5.0,Catalan,10.0,4.0,3.0,yes,no,no,Canto,5,Piano,5,,,Nada,75.0,yes
23,2024-02-19_20h04.52.495,Unsyncopated_study2,s114,18.0,feminino,right,Espana,Espanol,Upper secondary,no,no,A,1,conjunction_un,L2,unsyncopated,s2,r1,23,Online_conjL2_un//c.cha.me20.none.none.wav,ñu,su,ñi,sil,go,to,si,sil1,du,ba,sil2,['false alarm'],[2.0743000000007896],[2.0743000000007896],none,none,,,"[""space""]",cha,3,testConjL2Uns//r2.s1.0.wav,1.0,conjunction_un,unsyncopated,b,s1,rule,rule,L2,z,0.4036,6.0,1.0,0.6119,3 ,3.0,Castellano,0.0,Ingles,5.0,Catalan,10.0,4.0,3.0,yes,no,no,Canto,5,Piano,5,,,Nada,75.0,yes
24,2024-02-19_20h04.52.495,Unsyncopated_study2,s114,18.0,feminino,right,Espana,Espanol,Upper secondary,no,no,A,1,conjunction_un,L2,unsyncopated,s2,r1,24,Online_conjL2_un//d.si.ñu11.none.none.wav,ba,to,bi,sil,go,mi,te,sil1,du,su,sil2,['false alarm'],[2.6321999999993295],[2.6321999999993295],none,none,,,"[""space""]",si,4,testConjL1Syn//dep_viol.r1.s2.0.wav,2.0,conjunction_syn,syncopated,a,s2,no_rule,dep,L1,z,1.3598,6.0,0.0,2.0451,3 ,3.0,Castellano,0.0,Ingles,5.0,Catalan,10.0,4.0,3.0,yes,no,no,Canto,5,Piano,5,,,Nada,75.0,yes
25,2024-02-19_20h04.52.495,Unsyncopated_study2,s114,18.0,feminino,right,Espana,Espanol,Upper secondary,no,no,A,1,conjunction_un,L2,unsyncopated,s2,r1,25,Online_conjL2_un//d.si.ñu8.0.222.wav,si,ñu,bi,sil,go,me,to,sil1,du,ba,sil2,['catch'],[0.9581000000015365],[0.9581000000015365],0.0,beat,0.9581000000015364,0.9581000000015364,"[""space""]",si,4,testConjL1Syn//time_viol.r1.s1.0.wav,2.0,conjunction_syn,syncopated,a,s1,no_rule,time,L1,z,1.8456,5.0,0.0,2.1858,3 ,3.0,Castellano,0.0,Ingles,5.0,Catalan,10.0,4.0,3.0,yes,no,no,Canto,5,Piano,5,,,Nada,75.0,yes
26,2024-02-19_20h04.52.495,Unsyncopated_study2,s114,18.0,feminino,right,Espana,Espanol,Upper secondary,no,no,A,1,conjunction_un,L2,unsyncopated,s2,r2,26,Online_conjL2_un//d.si.ñu9.none.none.wav,bi,cha,to,sil,fe,te,ba,sil1,ra,me,sil2,['-'],,,none,none,,,,si,4,testConjL1Syn//cat_viol.r1.s2.0.wav,2.0,conjunction_syn,syncopated,a,s2,no_rule,cat,L1,m,2.3047,4.0,1.0,1.6011,3 ,3.0,Castellano,0.0,Ingles,5.0,Catalan,10.0,4.0,3.0,yes,no,no,Canto,5,Piano,5,,,Nada,75.0,yes
27,2024-02-19_20h04.52.495,Unsyncopated_study2,s114,18.0,feminino,right,Espana,Espanol,Upper secondary,no,no,A,1,conjunction_un,L2,unsyncopated,s1,r2,27,Online_conjL2_un//d.si.ñu10.none.none.wav,fe,ba,bi,sil,ra,te,mi,sil1,me,to,sil2,['-'],,,none,none,,,,si,4,testConjL1Syn//r2.s2.0.wav,2.0,conjunction_syn,syncopated,b,s2,rule,rule,L1,z,1.5174,5.0,1.0,1.92,3 ,3.0,Castellano,0.0,Ingles,5.0,Catalan,10.0,4.0,3.0,yes,no,no,Canto,5,Piano,5,,,Nada,75.0,yes
28,2024-02-19_20h04.52.495,Unsyncopated_study2,s114,18.0,feminino,right,Espana,Espanol,Upper secondary,no,no,A,1,conjunction_un,L2,unsyncopated,s2,r2,28,Online_conjL2_un//c.cha.me10.0.222.wav,cha,me,mi,sil,fe,su,si,sil1,ra,ba,sil2,"['catch', 'false alarm']","[0.7435999999977412, 2.2480000000000473]",[0.7435999999977412],0.0,beat,0.7435999999977412,0.7435999999977412,"[""space"",""space""]",cha,3,testConjL1Syn//r2.s1.2.wav,2.0,conjunction_syn,syncopated,b,s1,rule,rule,L1,m,0.8569,5.0,0.0,1.4379,3 ,3.0,Castellano,0.0,Ingles,5.0,Catalan,10.0,4.0,3.0,yes,no,no,Canto,5,Piano,5,,,Nada,75.0,yes
29,2024-02-19_20h04.52.495,Unsyncopated_study2,s114,18.0,feminino,right,Espana,Espanol,Upper secondary,no,no,A,1,conjunction_un,L2,unsyncopated,s1,r1,29,Online_conjL2_un//c.cha.me9.none.none.wav,go,to,ñi,sil,du,mi,ñu,sil1,bi,su,sil2,['-'],,,none,none,,,,cha,3,testConjL1Syn//cat_viol.r2.s2.0.wav,2.0,conjunction_syn,syncopated,b,s2,no_rule,cat,L1,m,1.3125,3.0,1.0,1.4013,3 ,3.0,Castellano,0.0,Ingles,5.0,Catalan,10.0,4.0,3.0,yes,no,no,Canto,5,Piano,5,,,Nada,75.0,yes
30,2024-02-19_20h04.52.495,Unsyncopated_study2,s114,18.0,feminino,right,Espana,Espanol,Upper secondary,no,no,A,1,conjunction_un,L2,unsyncopated,s1,r1,30,Online_conjL2_un//c.cha.me11.none.none.wav,go,su,ñu,sil,du,ñi,mi,sil1,ba,to,sil2,['-'],,,none,none,,,,cha,3,testConjL1Syn//time_viol.r1.s2.0.wav,2.0,conjunction_syn,syncopated,a,s2,no_rule,time,L1,z,0.6503,5.0,0.0,1.4092,3 ,3.0,Castellano,0.0,Ingles,5.0,Catalan,10.0,4.0,3.0,yes,no,no,Canto,5,Piano,5,,,Nada,75.0,yes
31,2024-02-19_20h04.52.495,Unsyncopated_study2,s114,18.0,feminino,right,Espana,Espanol,Upper secondary,no,no,A,1,conjunction_un,L2,unsyncopated,s1,r2,31,Online_conjL2_un//c.cha.me8.444.1332.wav,fe,bi,cha,sil,ra,ñi,me,sil1,te,si,sil2,['catch'],[1.1709999999999354],[1.1709999999999354],0.444,no_beat,0.7269999999999355,0.7269999999999355,"[""space""]",cha,3,testConjL1Syn//dep_viol.r2.s1.0.wav,2.0,conjunction_syn,syncopated,b,s1,no_rule,dep,L1,m,0.8754,5.0,1.0,1.4855,3 ,3.0,Castellano,0.0,Ingles,5.0,Catalan,10.0,4.0,3.0,yes,no,no,Canto,5,Piano,5,,,Nada,75.0,yes
32,2024-02-19_20h04.52.495,Unsyncopated_study2,s114,18.0,feminino,right,Espana,Espanol,Upper secondary,no,no,A,1,conjunction_un,L2,unsyncopated,s1,r1,32,Online_conjL2_un//a.go.du10.0.888.wav,go,bi,ñi,sil,du,si,te,sil1,ñu,su,sil2,['catch'],[1.66239999999857],[1.66239999999857],0.888,beat,0.7743999999985699,0.7743999999985699,"[""space""]",du,2,testConjL1Syn//r2.s1.1.wav,2.0,conjunction_syn,syncopated,b,s1,rule,rule,L1,m,1.9752,5.0,0.0,1.2834,3 ,3.0,Castellano,0.0,Ingles,5.0,Catalan,10.0,4.0,3.0,yes,no,no,Canto,5,Piano,5,,,Nada,75.0,yes
33,2024-02-19_20h04.52.495,Unsyncopated_study2,s114,18.0,feminino,right,Espana,Espanol,Upper secondary,no,no,A,1,conjunction_un,L2,unsyncopated,s2,r1,33,Online_conjL2_un//a.go.du9.888.1776.wav,mi,bi,cha,sil,go,ñu,si,sil1,du,to,sil2,['catch'],[2.4623999999985244],[2.4623999999985244],1.776,beat,0.6863999999985244,0.6863999999985244,"[""space""]",du,2,testConjL1Syn//r1.s1.0.wav,2.0,conjunction_syn,syncopated,a,s1,rule,rule,L1,z,0.7009,4.0,1.0,2.5953,3 ,3.0,Castellano,0.0,Ingles,5.0,Catalan,10.0,4.0,3.0,yes,no,no,Canto,5,Piano,5,,,Nada,75.0,yes
34,2024-02-19_20h04.52.495,Unsyncopated_study2,s114,18.0,feminino,right,Espana,Espanol,Upper secondary,no,no,A,1,conjunction_un,L2,unsyncopated,s2,r1,34,Online_conjL2_un//a.go.du11.888.1776.wav,si,ba,ñu,sil,go,ñi,mi,sil1,du,te,sil2,['catch'],[2.563400000002275],[2.563400000002275],1.776,beat,0.7874000000022752,0.7874000000022752,"[""space""]",du,2,testConjL1Syn//r1.s1.1.wav,2.0,conjunction_syn,syncopated,a,s1,rule,rule,L1,m,1.4154,6.0,0.0,1.8717,3 ,3.0,Castellano,0.0,Ingles,5.0,Catalan,10.0,4.0,3.0,yes,no,no,Canto,5,Piano,5,,,Nada,75.0,yes
35,2024-02-19_20h04.52.495,Unsyncopated_study2,s114,18.0,feminino,right,Espana,Espanol,Upper secondary,no,no,A,1,conjunction_un,L2,unsyncopated,s1,r2,35,Online_conjL2_un//a.go.du8.none.none.wav,fe,to,ñi,sil,ra,ba,cha,sil1,ñu,bi,sil2,['-'],,,none,none,,,,du,2,testConjL1Syn//r2.s2.1.wav,2.0,conjunction_syn,syncopated,b,s2,rule,rule,L1,m,1.6912,5.0,0.0,3.8538,3 ,3.0,Castellano,0.0,Ingles,5.0,Catalan,10.0,4.0,3.0,yes,no,no,Canto,5,Piano,5,,,Nada,75.0,yes
36,2024-02-19_20h04.52.495,Unsyncopated_study2,s114,18.0,feminino,right,Espana,Espanol,Upper secondary,no,no,A,1,conjunction_un,L2,unsyncopated,s2,r2,36,Online_conjL2_un//b.fe.ra4.888.1776.wav,bi,ñi,to,sil,fe,me,ba,sil1,ra,cha,sil2,['catch'],[1.585199999999304],[1.585199999999304],0.888,beat,0.697199999999304,0.697199999999304,"[""space""]",fe,1,testConjL1Syn//r1.s1.2.wav,2.0,conjunction_syn,syncopated,a,s1,rule,rule,L1,z,0.7998,5.0,1.0,0.9829,3 ,3.0,Castellano,0.0,Ingles,5.0,Catalan,10.0,4.0,3.0,yes,no,no,Canto,5,Piano,5,,,Nada,75.0,yes
37,2024-02-19_20h04.52.495,Unsyncopated_study2,s114,18.0,feminino,right,Espana,Espanol,Upper secondary,no,no,A,1,conjunction_un,L2,unsyncopated,s1,r2,37,Online_conjL2_un//b.fe.ra6.0.888.wav,fe,me,ñu,sil,ra,ñi,mi,sil1,to,bi,sil2,['catch'],[0.6615000000000464],[0.6615000000000464],0.0,beat,0.6615000000000464,0.6615000000000464,"[""space""]",fe,1,testConjL1Syn//r2.s1.0.wav,2.0,conjunction_syn,syncopated,b,s1,rule,rule,L1,m,2.8249,4.0,0.0,1.8025,3 ,3.0,Castellano,0.0,Ingles,5.0,Catalan,10.0,4.0,3.0,yes,no,no,Canto,5,Piano,5,,,Nada,75.0,yes
38,2024-02-19_20h04.52.495,Unsyncopated_study2,s114,18.0,feminino,right,Espana,Espanol,Upper secondary,no,no,A,1,conjunction_un,L2,unsyncopated,s2,r1,38,Online_conjL2_un//b.fe.ra5.none.none.wav,cha,si,su,sil,go,bi,mi,sil1,du,ñu,sil2,['-'],,,none,none,,,,fe,1,testConjL1Syn//cat_viol.r1.s1.0.wav,2.0,conjunction_syn,syncopated,a,s1,no_rule,cat,L1,z,2.5913,3.0,0.0,1.2203,3 ,3.0,Castellano,0.0,Ingles,5.0,Catalan,10.0,4.0,3.0,yes,no,no,Canto,5,Piano,5,,,Nada,75.0,yes
39,2024-02-19_20h04.52.495,Unsyncopated_study2,s114,18.0,feminino,right,Espana,Espanol,Upper secondary,no,no,A,1,conjunction_un,L2,unsyncopated,s1,r1,39,Online_conjL2_un//b.fe.ra7.none.none.wav,go,ñu,si,sil,du,me,ñi,sil1,te,ba,sil2,['-'],,,none,none,,,,fe,1,testConjL1Syn//dep_viol.r2.s2.0.wav,2.0,conjunction_syn,syncopated,b,s2,no_rule,dep,L1,z,3.2094,6.0,0.0,3.6961,3 ,3.0,Castellano,0.0,Ingles,5.0,Catalan,10.0,4.0,3.0,yes,no,no,Canto,5,Piano,5,,,Nada,75.0,yes
40,2024-02-19_20h04.52.495,Unsyncopated_study2,s114,18.0,feminino,right,Espana,Espanol,Upper secondary,no,no,A,1,conjunction_un,L2,unsyncopated,s2,r1,40,Online_conjL2_un//d.si.ñu30.1332.222.wav,ba,ñu,ñi,sil,go,mi,si,sil1,du,cha,sil2,['catch'],[1.9204999999998336],[1.9204999999998336],1.332,no_beat,0.5884999999998335,0.5884999999998335,"[""space""]",si,4,testConjL1Syn//r1.s2.0.wav,2.0,conjunction_syn,syncopated,a,s2,rule,rule,L1,z,1.5832,6.0,1.0,1.5437,3 ,3.0,Castellano,0.0,Ingles,5.0,Catalan,10.0,4.0,3.0,yes,no,no,Canto,5,Piano,5,,,Nada,75.0,yes
41,2024-02-19_20h04.52.495,Unsyncopated_study2,s114,18.0,feminino,right,Espana,Espanol,Upper secondary,no,no,A,1,conjunction_un,L2,unsyncopated,s2,r2,41,Online_conjL2_un//d.si.ñu31.none.none.wav,su,ñi,to,sil,fe,me,ba,sil1,ra,te,sil2,['-'],,,none,none,,,,si,4,testConjL1Syn//time_viol.r2.s1.0.wav,2.0,conjunction_syn,syncopated,b,s1,no_rule,time,L1,m,0.3319,4.0,1.0,1.6349,3 ,3.0,Castellano,0.0,Ingles,5.0,Catalan,10.0,4.0,3.0,yes,no,no,Canto,5,Piano,5,,,Nada,75.0,yes
42,2024-02-19_20h04.52.495,Unsyncopated_study2,s114,18.0,feminino,right,Espana,Espanol,Upper secondary,no,no,A,1,conjunction_un,L2,unsyncopated,s1,r2,42,Online_conjL2_un//d.si.ñu29.1332.444.wav,fe,mi,ñu,sil,ra,su,si,sil1,ñi,cha,sil2,['catch'],[1.9329999999999927],[1.9329999999999927],1.332,no_beat,0.6009999999999927,0.6009999999999927,"[""space""]",si,4,testConjL1Syn//r1.s2.2.wav,2.0,conjunction_syn,syncopated,a,s2,rule,rule,L1,z,0.5827,7.0,1.0,1.2386,3 ,3.0,Castellano,0.0,Ingles,5.0,Catalan,10.0,4.0,3.0,yes,no,no,Canto,5,Piano,5,,,Nada,75.0,yes
43,2024-02-19_20h04.52.495,Unsyncopated_study2,s114,18.0,feminino,right,Espana,Espanol,Upper secondary,no,no,A,1,conjunction_un,L2,unsyncopated,s1,r1,43,Online_conjL2_un//d.si.ñu28.none.none.wav,go,me,su,sil,du,te,to,sil1,bi,ba,sil2,['-'],,,none,none,,,,si,4,testConjL1Syn//time_viol.r2.s2.0.wav,2.0,conjunction_syn,syncopated,b,s2,no_rule,time,L1,m,0.2085,4.0,1.0,0.7425,3 ,3.0,Castellano,0.0,Ingles,5.0,Catalan,10.0,4.0,3.0,yes,no,no,Canto,5,Piano,5,,,Nada,75.0,yes
44,2024-02-19_20h04.52.495,Unsyncopated_study2,s114,18.0,feminino,right,Espana,Espanol,Upper secondary,no,no,A,1,conjunction_un,L2,unsyncopated,s2,r1,44,Online_conjL2_un//a.go.du23.888.1776.wav,su,te,mi,sil,go,ñu,bi,sil1,du,me,sil2,['catch'],[2.4470999999978176],[2.4470999999978176],1.776,beat,0.6710999999978176,0.6710999999978176,"[""space""]",du,2,testConjL1Syn//cat_viol.r2.s1.0.wav,2.0,conjunction_syn,syncopated,b,s1,no_rule,cat,L1,z,0.4101,6.0,0.0,0.9171,3 ,3.0,Castellano,0.0,Ingles,5.0,Catalan,10.0,4.0,3.0,yes,no,no,Canto,5,Piano,5,,,Nada,75.0,yes
45,2024-02-19_20h04.52.495,Unsyncopated_study2,s114,18.0,feminino,right,Espana,Espanol,Upper secondary,no,no,A,1,conjunction_un,L2,unsyncopated,s1,r2,45,Online_conjL2_un//a.go.du22.none.none.wav,fe,bi,ñi,sil,ra,mi,me,sil1,su,ñu,sil2,['-'],,,none,none,,,,du,2,testConjL1Syn//r2.s2.2.wav,2.0,conjunction_syn,syncopated,b,s2,rule,rule,L1,m,0.2425,6.0,0.0,1.0588,3 ,3.0,Castellano,0.0,Ingles,5.0,Catalan,10.0,4.0,3.0,yes,no,no,Canto,5,Piano,5,,,Nada,75.0,yes
46,2024-02-19_20h04.52.495,Unsyncopated_study2,s114,18.0,feminino,right,Espana,Espanol,Upper secondary,no,no,A,1,conjunction_un,L2,unsyncopated,s2,r1,46,Online_conjL2_un//a.go.du21.888.1776.wav,ba,cha,si,sil,go,to,ñi,sil1,du,te,sil2,['catch_delay'],[1.1291999999992532],[1.1291999999992532],1.776,beat,1.1291999999992532,1.1291999999992532,"[""space""]",du,2,testConjL1Syn//r1.s2.1.wav,2.0,conjunction_syn,syncopated,a,s2,rule,rule,L1,z,0.5011,7.0,1.0,1.3008,3 ,3.0,Castellano,0.0,Ingles,5.0,Catalan,10.0,4.0,3.0,yes,no,no,Canto,5,Piano,5,,,Nada,75.0,yes
47,2024-02-19_20h04.52.495,Unsyncopated_study2,s114,18.0,feminino,right,Espana,Espanol,Upper secondary,no,no,A,1,conjunction_un,L2,unsyncopated,s1,r1,47,Online_conjL2_un//a.go.du20.0.888.wav,go,ñi,si,sil,du,mi,me,sil1,bi,te,sil2,['catch'],"[0.24119999999925312, 1.6258000000007087]",[1.6258000000007087],0.888,beat,0.7378000000007087,0.7378000000007087,"[""space"",""space""]",du,2,testConjL1Syn//dep_viol.r1.s1.0.wav,2.0,conjunction_syn,syncopated,a,s1,no_rule,dep,L1,m,0.7104,6.0,1.0,1.1015,3 ,3.0,Castellano,0.0,Ingles,5.0,Catalan,10.0,4.0,3.0,yes,no,no,Canto,5,Piano,5,,,Nada,75.0,yes
48,2024-02-19_20h04.52.495,Unsyncopated_study2,s114,18.0,feminino,right,Espana,Espanol,Upper secondary,no,no,A,1,conjunction_un,L2,unsyncopated,s1,r1,48,Online_conjL2_un//b.fe.ra3.none.none.wav,go,bi,to,sil,du,me,ba,sil1,su,ñi,sil2,['-'],,,none,none,,,,fe,1,testWhenL4Uns//r1.s1.1.wav,3.0,when,unsyncopated,a,s1,rule,rule,L4,z,0.0268,7.0,1.0,0.7703,3 ,3.0,Castellano,0.0,Ingles,5.0,Catalan,10.0,4.0,3.0,yes,no,no,Canto,5,Piano,5,,,Nada,75.0,yes
49,2024-02-19_20h04.52.495,Unsyncopated_study2,s114,18.0,feminino,right,Espana,Espanol,Upper secondary,no,no,A,1,conjunction_un,L2,unsyncopated,s1,r1,49,Online_conjL2_un//b.fe.ra1.none.none.wav,go,te,su,sil,du,mi,ba,sil1,si,me,sil2,['-'],,,none,none,,,,fe,1,testWhenL4Uns//dep_viol.r1.s2.0.wav,3.0,when,unsyncopated,a,s2,no_rule,dep,L4,z,0.3248,5.0,1.0,1.0026,3 ,3.0,Castellano,0.0,Ingles,5.0,Catalan,10.0,4.0,3.0,yes,no,no,Canto,5,Piano,5,,,Nada,75.0,yes
50,2024-02-19_20h04.52.495,Unsyncopated_study2,s114,18.0,feminino,right,Espana,Espanol,Upper secondary,no,no,A,1,conjunction_un,L2,unsyncopated,s2,r2,50,Online_conjL2_un//b.fe.ra0.888.1776.wav,ñi,mi,si,sil,fe,to,ñu,sil1,ra,ba,sil2,['catch'],[1.8211999999994077],[1.8211999999994077],0.888,beat,0.9331999999994076,0.9331999999994076,"[""space""]",fe,1,testWhenL4Uns//r2.s2.1.wav,3.0,when,unsyncopated,b,s2,rule,rule,L4,z,0.2883,6.0,1.0,0.4576,3 ,3.0,Castellano,0.0,Ingles,5.0,Catalan,10.0,4.0,3.0,yes,no,no,Canto,5,Piano,5,,,Nada,75.0,yes
51,2024-02-19_20h04.52.495,Unsyncopated_study2,s114,18.0,feminino,right,Espana,Espanol,Upper secondary,no,no,A,1,conjunction_un,L2,unsyncopated,s2,r2,51,Online_conjL2_un//b.fe.ra2.888.1776.wav,bi,te,mi,sil,fe,ñu,si,sil1,ra,ba,sil2,['catch'],[1.6355000000000928],[1.6355000000000928],0.888,beat,0.7475000000000928,0.7475000000000928,"[""space""]",fe,1,testWhenL4Uns//r1.s1.2.wav,3.0,when,unsyncopated,a,s1,rule,rule,L4,z,0.3554,6.0,1.0,0.7598,3 ,3.0,Castellano,0.0,Ingles,5.0,Catalan,10.0,4.0,3.0,yes,no,no,Canto,5,Piano,5,,,Nada,75.0,yes
52,2024-02-19_20h04.52.495,Unsyncopated_study2,s114,18.0,feminino,right,Espana,Espanol,Upper secondary,no,no,A,1,conjunction_un,L2,unsyncopated,s2,r1,52,Online_conjL2_un//a.go.du16.888.1776.wav,cha,me,ba,sil,go,to,si,sil1,du,ñi,sil2,['catch'],[2.5971999999992477],[2.5971999999992477],1.776,beat,0.8211999999992476,0.8211999999992476,"[""space""]",du,2,testWhenL4Uns//r2.s1.1.wav,3.0,when,unsyncopated,b,s1,rule,rule,L4,z,0.5215,5.0,1.0,0.3298,3 ,3.0,Castellano,0.0,Ingles,5.0,Catalan,10.0,4.0,3.0,yes,no,no,Canto,5,Piano,5,,,Nada,75.0,yes
53,2024-02-19_20h04.52.495,Unsyncopated_study2,s114,18.0,feminino,right,Espana,Espanol,Upper secondary,no,no,A,1,conjunction_un,L2,unsyncopated,s1,r2,53,Online_conjL2_un//a.go.du17.none.none.wav,fe,mi,su,sil,ra,me,bi,sil1,te,si,sil2,['-'],,,none,none,,,,du,2,testWhenL4Uns//r2.s1.0.wav,3.0,when,unsyncopated,b,s1,rule,rule,L4,m,0.5021,5.0,0.0,1.387,3 ,3.0,Castellano,0.0,Ingles,5.0,Catalan,10.0,4.0,3.0,yes,no,no,Canto,5,Piano,5,,,Nada,75.0,yes
54,2024-02-19_20h04.52.495,Unsyncopated_study2,s114,18.0,feminino,right,Espana,Espanol,Upper secondary,no,no,A,1,conjunction_un,L2,unsyncopated,s1,r1,54,Online_conjL2_un//a.go.du18.0.888.wav,go,me,si,sil,du,ñi,ba,sil1,su,to,sil2,['catch'],[1.6099000000021988],[1.6099000000021988],0.888,beat,0.7219000000021988,0.7219000000021988,"[""space""]",du,2,testWhenL4Uns//dep_viol.r2.s1.0.wav,3.0,when,unsyncopated,b,s1,no_rule,dep,L4,m,0.7034,3.0,0.0,1.4663,3 ,3.0,Castellano,0.0,Ingles,5.0,Catalan,10.0,4.0,3.0,yes,no,no,Canto,5,Piano,5,,,Nada,75.0,yes
55,2024-02-19_20h04.52.495,Unsyncopated_study2,s114,18.0,feminino,right,Espana,Espanol,Upper secondary,no,no,A,1,conjunction_un,L2,unsyncopated,s1,r1,55,Online_conjL2_un//a.go.du19.0.888.wav,go,ba,si,sil,du,su,mi,sil1,ñi,cha,sil2,['catch'],[1.5778000000007069],[1.5778000000007069],0.888,beat,0.6898000000007068,0.6898000000007068,"[""space""]",du,2,testWhenL4Uns//r2.s1.2.wav,3.0,when,unsyncopated,b,s1,rule,rule,L4,m,0.3177,6.0,0.0,0.5772,3 ,3.0,Castellano,0.0,Ingles,5.0,Catalan,10.0,4.0,3.0,yes,no,no,Canto,5,Piano,5,,,Nada,75.0,yes
56,2024-02-19_20h04.52.495,Unsyncopated_study2,s114,18.0,feminino,right,Espana,Espanol,Upper secondary,no,no,A,1,conjunction_un,L2,unsyncopated,s2,r1,56,Online_conjL2_un//b.fe.ra8.none.none.wav,si,to,mi,sil,go,cha,me,sil1,du,bi,sil2,['-'],,,none,none,,,,fe,1,testWhenL4Uns//time_viol.r1.s2.0.wav,3.0,when,unsyncopated,a,s2,no_rule,time,L4,m,0.3664,6.0,0.0,0.7257,3 ,3.0,Castellano,0.0,Ingles,5.0,Catalan,10.0,4.0,3.0,yes,no,no,Canto,5,Piano,5,,,Nada,75.0,yes
57,2024-02-19_20h04.52.495,Unsyncopated_study2,s114,18.0,feminino,right,Espana,Espanol,Upper secondary,no,no,A,1,conjunction_un,L2,unsyncopated,s1,r2,57,Online_conjL2_un//b.fe.ra11.0.888.wav,fe,bi,mi,sil,ra,te,su,sil1,cha,ba,sil2,['catch'],[0.665000000000191],[0.665000000000191],0.0,beat,0.665000000000191,0.665000000000191,"[""space""]",fe,1,testWhenL4Uns//cat_viol.r1.s1.0.wav,3.0,when,unsyncopated,a,s1,no_rule,cat,L4,z,0.2985,7.0,1.0,0.5444,3 ,3.0,Castellano,0.0,Ingles,5.0,Catalan,10.0,4.0,3.0,yes,no,no,Canto,5,Piano,5,,,Nada,75.0,yes
58,2024-02-19_20h04.52.495,Unsyncopated_study2,s114,18.0,feminino,right,Espana,Espanol,Upper secondary,no,no,A,1,conjunction_un,L2,unsyncopated,s1,r2,58,Online_conjL2_un//b.fe.ra9.0.888.wav,fe,ñu,cha,sil,ra,to,bi,sil1,te,ba,sil2,['catch'],[0.7104999999999109],[0.7104999999999109],0.0,beat,0.7104999999999109,0.7104999999999109,"[""space""]",fe,1,testWhenL4Uns//cat_viol.r2.s1.0.wav,3.0,when,unsyncopated,b,s1,no_rule,cat,L4,z,0.262,7.0,1.0,0.2436,3 ,3.0,Castellano,0.0,Ingles,5.0,Catalan,10.0,4.0,3.0,yes,no,no,Canto,5,Piano,5,,,Nada,75.0,yes
59,2024-02-19_20h04.52.495,Unsyncopated_study2,s114,18.0,feminino,right,Espana,Espanol,Upper secondary,no,no,A,1,conjunction_un,L2,unsyncopated,s1,r2,59,Online_conjL2_un//b.fe.ra10.0.888.wav,fe,ñu,cha,sil,ra,mi,bi,sil1,me,si,sil2,['catch'],[0.8508999999985463],[0.8508999999985463],0.0,beat,0.8508999999985463,0.8508999999985463,"[""space""]",fe,1,testWhenL4Uns//r1.s2.0.wav,3.0,when,unsyncopated,a,s2,rule,rule,L4,z,0.3258,5.0,1.0,0.4677,3 ,3.0,Castellano,0.0,Ingles,5.0,Catalan,10.0,4.0,3.0,yes,no,no,Canto,5,Piano,5,,,Nada,75.0,yes
60,2024-02-19_20h04.52.495,Unsyncopated_study2,s114,18.0,feminino,right,Espana,Espanol,Upper secondary,no,no,A,1,conjunction_un,L2,unsyncopated,s2,r1,60,Online_conjL2_un//d.si.ñu23.none.none.wav,su,to,ñi,sil,go,mi,cha,sil1,du,ba,sil2,['-'],,,none,none,,,,si,4,testWhenL4Uns//time_viol.r1.s1.0.wav,3.0,when,unsyncopated,a,s1,no_rule,time,L4,m,0.3198,6.0,0.0,1.0932,3 ,3.0,Castellano,0.0,Ingles,5.0,Catalan,10.0,4.0,3.0,yes,no,no,Canto,5,Piano,5,,,Nada,75.0,yes
61,2024-02-19_20h04.52.495,Unsyncopated_study2,s114,18.0,feminino,right,Espana,Espanol,Upper secondary,no,no,A,1,conjunction_un,L2,unsyncopated,s1,r2,61,Online_conjL2_un//d.si.ñu21.none.none.wav,fe,ba,mi,sil,ra,cha,su,sil1,to,me,sil2,['-'],,,none,none,,,,si,4,testWhenL4Uns//cat_viol.r1.s2.0.wav,3.0,when,unsyncopated,a,s2,no_rule,cat,L4,m,1.5111,6.0,0.0,0.5992,3 ,3.0,Castellano,0.0,Ingles,5.0,Catalan,10.0,4.0,3.0,yes,no,no,Canto,5,Piano,5,,,Nada,75.0,yes
62,2024-02-19_20h04.52.495,Unsyncopated_study2,s114,18.0,feminino,right,Espana,Espanol,Upper secondary,no,no,A,1,conjunction_un,L2,unsyncopated,s1,r2,62,Online_conjL2_un//d.si.ñu20.1776.222.wav,fe,ñu,cha,sil,ra,bi,te,sil1,si,ñi,sil2,['catch'],[2.3350000000000364],[2.3350000000000364],1.776,beat,0.5590000000000364,0.5590000000000364,"[""space""]",si,4,testWhenL4Uns//time_viol.r2.s1.0.wav,3.0,when,unsyncopated,b,s1,no_rule,time,L4,z,0.3747,6.0,1.0,0.5838,3 ,3.0,Castellano,0.0,Ingles,5.0,Catalan,10.0,4.0,3.0,yes,no,no,Canto,5,Piano,5,,,Nada,75.0,yes
63,2024-02-19_20h04.52.495,Unsyncopated_study2,s114,18.0,feminino,right,Espana,Espanol,Upper secondary,no,no,A,1,conjunction_un,L2,unsyncopated,s1,r1,63,Online_conjL2_un//d.si.ñu22.none.none.wav,go,su,to,sil,du,ñi,me,sil1,bi,mi,sil2,['false alarm'],[1.2356999999992695],[1.2356999999992695],none,none,,,"[""space""]",si,4,testWhenL4Uns//dep_viol.r1.s1.0.wav,3.0,when,unsyncopated,a,s1,no_rule,dep,L4,z,0.2917,6.0,1.0,0.2096,3 ,3.0,Castellano,0.0,Ingles,5.0,Catalan,10.0,4.0,3.0,yes,no,no,Canto,5,Piano,5,,,Nada,75.0,yes
64,2024-02-19_20h04.52.495,Unsyncopated_study2,s114,18.0,feminino,right,Espana,Espanol,Upper secondary,no,no,A,1,conjunction_un,L2,unsyncopated,s2,r2,64,Online_conjL2_un//a.go.du4.none.none.wav,ñi,ba,cha,sil,fe,bi,ñu,sil1,ra,mi,sil2,['-'],,,none,none,,,,du,2,testWhenL4Uns//r2.s2.2.wav,3.0,when,unsyncopated,b,s2,rule,rule,L4,z,0.6038,6.0,1.0,0.4928,3 ,3.0,Castellano,0.0,Ingles,5.0,Catalan,10.0,4.0,3.0,yes,no,no,Canto,5,Piano,5,,,Nada,75.0,yes
65,2024-02-19_20h04.52.495,Unsyncopated_study2,s114,18.0,feminino,right,Espana,Espanol,Upper secondary,no,no,A,1,conjunction_un,L2,unsyncopated,s2,r2,65,Online_conjL2_un//a.go.du6.none.none.wav,ñu,ba,bi,sil,fe,me,su,sil1,ra,to,sil2,['-'],,,none,none,,,,du,2,testWhenL4Uns//time_viol.r2.s2.0.wav,3.0,when,unsyncopated,b,s2,no_rule,time,L4,z,0.8139,6.0,1.0,0.6701,3 ,3.0,Castellano,0.0,Ingles,5.0,Catalan,10.0,4.0,3.0,yes,no,no,Canto,5,Piano,5,,,Nada,75.0,yes
66,2024-02-19_20h04.52.495,Unsyncopated_study2,s114,18.0,feminino,right,Espana,Espanol,Upper secondary,no,no,A,1,conjunction_un,L2,unsyncopated,s1,r2,66,Online_conjL2_un//a.go.du5.none.none.wav,fe,bi,me,sil,ra,to,si,sil1,ñi,ñu,sil2,['-'],,,none,none,,,,du,2,testWhenL4Uns//r1.s2.1.wav,3.0,when,unsyncopated,a,s2,rule,rule,L4,z,0.3688,7.0,1.0,0.2265,3 ,3.0,Castellano,0.0,Ingles,5.0,Catalan,10.0,4.0,3.0,yes,no,no,Canto,5,Piano,5,,,Nada,75.0,yes
67,2024-02-19_20h04.52.495,Unsyncopated_study2,s114,18.0,feminino,right,Espana,Espanol,Upper secondary,no,no,A,1,conjunction_un,L2,unsyncopated,s2,r2,67,Online_conjL2_un//a.go.du7.none.none.wav,to,ñi,su,sil,fe,si,ñu,sil1,ra,cha,sil2,['-'],,,none,none,,,,du,2,testWhenL4Uns//dep_viol.r2.s2.0.wav,3.0,when,unsyncopated,b,s2,no_rule,dep,L4,m,0.2892,3.0,0.0,0.2329,3 ,3.0,Castellano,0.0,Ingles,5.0,Catalan,10.0,4.0,3.0,yes,no,no,Canto,5,Piano,5,,,Nada,75.0,yes
68,2024-02-19_20h04.52.495,Unsyncopated_study2,s114,18.0,feminino,right,Espana,Espanol,Upper secondary,no,no,A,1,conjunction_un,L2,unsyncopated,s2,r2,68,Online_conjL2_un//b.fe.ra15.888.1776.wav,si,me,to,sil,fe,su,ba,sil1,ra,bi,sil2,['catch'],[1.6263999999985117],[1.6263999999985117],0.888,beat,0.7383999999985117,0.7383999999985117,"[""space""]",fe,1,testWhenL4Uns//r2.s2.0.wav,3.0,when,unsyncopated,b,s2,rule,rule,L4,z,0.3926,5.0,1.0,0.2791,3 ,3.0,Castellano,0.0,Ingles,5.0,Catalan,10.0,4.0,3.0,yes,no,no,Canto,5,Piano,5,,,Nada,75.0,yes
69,2024-02-19_20h04.52.495,Unsyncopated_study2,s114,18.0,feminino,right,Espana,Espanol,Upper secondary,no,no,A,1,conjunction_un,L2,unsyncopated,s2,r1,69,Online_conjL2_un//b.fe.ra13.none.none.wav,ñu,bi,su,sil,go,mi,ba,sil1,du,cha,sil2,['-'],,,none,none,,,,fe,1,testWhenL4Uns//r1.s1.0.wav,3.0,when,unsyncopated,a,s1,rule,rule,L4,z,0.5099,5.0,1.0,0.2759,3 ,3.0,Castellano,0.0,Ingles,5.0,Catalan,10.0,4.0,3.0,yes,no,no,Canto,5,Piano,5,,,Nada,75.0,yes
70,2024-02-19_20h04.52.495,Unsyncopated_study2,s114,18.0,feminino,right,Espana,Espanol,Upper secondary,no,no,A,1,conjunction_un,L2,unsyncopated,s1,r2,70,Online_conjL2_un//b.fe.ra14.0.888.wav,fe,si,ñu,sil,ra,mi,to,sil1,me,bi,sil2,['catch'],[0.6884000000022752],[0.6884000000022752],0.0,beat,0.6884000000022752,0.6884000000022752,"[""space""]",fe,1,testWhenL4Uns//r1.s2.2.wav,3.0,when,unsyncopated,a,s2,rule,rule,L4,z,0.3918,6.0,1.0,0.2138,3 ,3.0,Castellano,0.0,Ingles,5.0,Catalan,10.0,4.0,3.0,yes,no,no,Canto,5,Piano,5,,,Nada,75.0,yes
71,2024-02-19_20h04.52.495,Unsyncopated_study2,s114,18.0,feminino,right,Espana,Espanol,Upper secondary,no,no,A,1,conjunction_un,L2,unsyncopated,s1,r1,71,Online_conjL2_un//b.fe.ra12.none.none.wav,go,ñi,ba,sil,du,me,si,sil1,cha,to,sil2,['-'],,,none,none,,,,fe,1,testWhenL4Uns//cat_viol.r2.s2.0.wav,3.0,when,unsyncopated,b,s2,no_rule,cat,L4,m,0.2418,4.0,0.0,0.6195,3 ,3.0,Castellano,0.0,Ingles,5.0,Catalan,10.0,4.0,3.0,yes,no,no,Canto,5,Piano,5,,,Nada,75.0,yes
72,2024-02-19_20h04.52.495,Unsyncopated_study2,s114,18.0,feminino,right,Espana,Espanol,Upper secondary,no,no,A,1,conjunction_un,L2,unsyncopated,s1,r2,72,Online_conjL2_un//a.go.du30.none.none.wav,fe,cha,si,sil,ra,su,te,sil1,ba,bi,sil2,['-'],,,none,none,,,,du,2,testWhatL3Uns//time_viol.r1.s2.0.wav,4.0,what,unsyncopated,a,s2,no_rule,time,L3,m,0.7653,5.0,1.0,0.9903,3 ,3.0,Castellano,0.0,Ingles,5.0,Catalan,10.0,4.0,3.0,yes,no,no,Canto,5,Piano,5,,,Nada,75.0,yes
73,2024-02-19_20h04.52.495,Unsyncopated_study2,s114,18.0,feminino,right,Espana,Espanol,Upper secondary,no,no,A,1,conjunction_un,L2,unsyncopated,s1,r2,73,Online_conjL2_un//a.go.du28.none.none.wav,fe,cha,ba,sil,ra,mi,me,sil1,bi,te,sil2,['-'],,,none,none,,,,du,2,testWhatL3Uns//r1.s2.0.wav,4.0,what,unsyncopated,a,s2,rule,rule,L3,z,0.1571,6.0,1.0,0.5402,3 ,3.0,Castellano,0.0,Ingles,5.0,Catalan,10.0,4.0,3.0,yes,no,no,Canto,5,Piano,5,,,Nada,75.0,yes
74,2024-02-19_20h04.52.495,Unsyncopated_study2,s114,18.0,feminino,right,Espana,Espanol,Upper secondary,no,no,A,1,conjunction_un,L2,unsyncopated,s1,r2,74,Online_conjL2_un//a.go.du31.none.none.wav,fe,to,ñi,sil,ra,bi,ñu,sil1,su,si,sil2,['-'],,,none,none,,,,du,2,testWhatL3Uns//cat_viol.r2.s1.0.wav,4.0,what,unsyncopated,b,s1,no_rule,cat,L3,z,0.464,6.0,0.0,0.4013,3 ,3.0,Castellano,0.0,Ingles,5.0,Catalan,10.0,4.0,3.0,yes,no,no,Canto,5,Piano,5,,,Nada,75.0,yes
75,2024-02-19_20h04.52.495,Unsyncopated_study2,s114,18.0,feminino,right,Espana,Espanol,Upper secondary,no,no,A,1,conjunction_un,L2,unsyncopated,s1,r1,75,Online_conjL2_un//a.go.du29.0.888.wav,go,mi,me,sil,du,to,bi,sil1,cha,ñu,sil2,['catch'],[1.7593000000008487],[1.7593000000008487],0.888,beat,0.8713000000008487,0.8713000000008487,"[""space""]",du,2,testWhatL3Uns//dep_viol.r1.s1.0.wav,4.0,what,unsyncopated,a,s1,no_rule,dep,L3,z,0.3751,6.0,0.0,0.4849,3 ,3.0,Castellano,0.0,Ingles,5.0,Catalan,10.0,4.0,3.0,yes,no,no,Canto,5,Piano,5,,,Nada,75.0,yes
76,2024-02-19_20h04.52.495,Unsyncopated_study2,s114,18.0,feminino,right,Espana,Espanol,Upper secondary,no,no,A,1,conjunction_un,L2,unsyncopated,s1,r1,76,Online_conjL2_un//d.si.ñu6.444.1110.wav,go,cha,si,sil,du,ñu,ba,sil1,me,to,sil2,['catch'],[1.1638999999984208],[1.1638999999984208],0.444,no_beat,0.7198999999984208,0.7198999999984208,"[""space""]",si,4,testWhatL3Uns//r2.s1.0.wav,4.0,what,unsyncopated,b,s1,rule,rule,L3,m,0.2198,3.0,0.0,0.6295,3 ,3.0,Castellano,0.0,Ingles,5.0,Catalan,10.0,4.0,3.0,yes,no,no,Canto,5,Piano,5,,,Nada,75.0,yes
77,2024-02-19_20h04.52.495,Unsyncopated_study2,s114,18.0,feminino,right,Espana,Espanol,Upper secondary,no,no,A,1,conjunction_un,L2,unsyncopated,s1,r1,77,Online_conjL2_un//d.si.ñu7.none.none.wav,go,ñi,mi,sil,du,te,ba,sil1,su,to,sil2,['false alarm'],[1.8705999999976939],[1.8705999999976939],none,none,,,"[""space""]",si,4,testWhatL3Uns//r2.s2.0.wav,4.0,what,unsyncopated,b,s2,rule,rule,L3,z,0.2922,6.0,1.0,0.7012,3 ,3.0,Castellano,0.0,Ingles,5.0,Catalan,10.0,4.0,3.0,yes,no,no,Canto,5,Piano,5,,,Nada,75.0,yes
78,2024-02-19_20h04.52.495,Unsyncopated_study2,s114,18.0,feminino,right,Espana,Espanol,Upper secondary,no,no,A,1,conjunction_un,L2,unsyncopated,s2,r2,78,Online_conjL2_un//d.si.ñu5.none.none.wav,bi,ñi,mi,sil,fe,te,ba,sil1,ra,to,sil2,['-'],,,none,none,,,,si,4,testWhatL3Uns//time_viol.r2.s1.0.wav,4.0,what,unsyncopated,b,s1,no_rule,time,L3,z,0.4277,6.0,0.0,1.0472,3 ,3.0,Castellano,0.0,Ingles,5.0,Catalan,10.0,4.0,3.0,yes,no,no,Canto,5,Piano,5,,,Nada,75.0,yes
79,2024-02-19_20h04.52.495,Unsyncopated_study2,s114,18.0,feminino,right,Espana,Espanol,Upper secondary,no,no,A,1,conjunction_un,L2,unsyncopated,s1,r1,79,Online_conjL2_un//d.si.ñu4.1332.444.wav,go,me,ñu,sil,du,cha,si,sil1,bi,to,sil2,['catch'],[2.0203000000005886],[2.0203000000005886],1.332,no_beat,0.6883000000005886,0.6883000000005886,"[""space""]",si,4,testWhatL3Uns//r2.s2.1.wav,4.0,what,unsyncopated,b,s2,rule,rule,L3,m,0.7373,5.0,0.0,1.1495,3 ,3.0,Castellano,0.0,Ingles,5.0,Catalan,10.0,4.0,3.0,yes,no,no,Canto,5,Piano,5,,,Nada,75.0,yes
80,2024-02-19_20h04.52.495,Unsyncopated_study2,s114,18.0,feminino,right,Espana,Espanol,Upper secondary,no,no,A,1,conjunction_un,L2,unsyncopated,s2,r1,80,Online_conjL2_un//b.fe.ra28.none.none.wav,me,cha,mi,sil,go,si,ñi,sil1,du,to,sil2,['-'],,,none,none,,,,fe,1,testWhatL3Uns//cat_viol.r1.s2.0.wav,4.0,what,unsyncopated,a,s2,no_rule,cat,L3,z,0.5174,6.0,0.0,0.4326,3 ,3.0,Castellano,0.0,Ingles,5.0,Catalan,10.0,4.0,3.0,yes,no,no,Canto,5,Piano,5,,,Nada,75.0,yes
81,2024-02-19_20h04.52.495,Unsyncopated_study2,s114,18.0,feminino,right,Espana,Espanol,Upper secondary,no,no,A,1,conjunction_un,L2,unsyncopated,s1,r2,81,Online_conjL2_un//b.fe.ra29.0.888.wav,fe,ba,si,sil,ra,bi,cha,sil1,mi,ñu,sil2,['catch'],[0.7478000000005522],[0.7478000000005522],0.0,beat,0.7478000000005522,0.7478000000005522,"[""space""]",fe,1,testWhatL3Uns//r1.s1.2.wav,4.0,what,unsyncopated,a,s1,rule,rule,L3,m,1.3091,5.0,0.0,0.8207,3 ,3.0,Castellano,0.0,Ingles,5.0,Catalan,10.0,4.0,3.0,yes,no,no,Canto,5,Piano,5,,,Nada,75.0,yes
82,2024-02-19_20h04.52.495,Unsyncopated_study2,s114,18.0,feminino,right,Espana,Espanol,Upper secondary,no,no,A,1,conjunction_un,L2,unsyncopated,s1,r1,82,Online_conjL2_un//b.fe.ra30.none.none.wav,go,si,cha,sil,du,ba,te,sil1,ñu,ñi,sil2,['-'],,,none,none,,,,fe,1,testWhatL3Uns//dep_viol.r1.s2.0.wav,4.0,what,unsyncopated,a,s2,no_rule,dep,L3,z,0.5944,6.0,0.0,0.6732,3 ,3.0,Castellano,0.0,Ingles,5.0,Catalan,10.0,4.0,3.0,yes,no,no,Canto,5,Piano,5,,,Nada,75.0,yes
83,2024-02-19_20h04.52.495,Unsyncopated_study2,s114,18.0,feminino,right,Espana,Espanol,Upper secondary,no,no,A,1,conjunction_un,L2,unsyncopated,s2,r2,83,Online_conjL2_un//b.fe.ra31.888.1776.wav,ñu,to,me,sil,fe,cha,mi,sil1,ra,ba,sil2,['catch'],[1.9246999999993477],[1.9246999999993477],0.888,beat,1.0366999999993478,1.0366999999993478,"[""space""]",fe,1,testWhatL3Uns//r2.s2.2.wav,4.0,what,unsyncopated,b,s2,rule,rule,L3,z,0.6228,6.0,1.0,0.5119,3 ,3.0,Castellano,0.0,Ingles,5.0,Catalan,10.0,4.0,3.0,yes,no,no,Canto,5,Piano,5,,,Nada,75.0,yes
84,2024-02-19_20h04.52.495,Unsyncopated_study2,s114,18.0,feminino,right,Espana,Espanol,Upper secondary,no,no,A,1,conjunction_un,L2,unsyncopated,s1,r2,84,Online_conjL2_un//b.fe.ra16.0.888.wav,fe,ñi,mi,sil,ra,bi,su,sil1,ñu,me,sil2,['catch'],[0.8563000000006014],[0.8563000000006014],0.0,beat,0.8563000000006014,0.8563000000006014,"[""space""]",fe,1,testWhatL3Uns//dep_viol.r2.s1.0.wav,4.0,what,unsyncopated,b,s1,no_rule,dep,L3,m,0.0572,3.0,1.0,0.3051,3 ,3.0,Castellano,0.0,Ingles,5.0,Catalan,10.0,4.0,3.0,yes,no,no,Canto,5,Piano,5,,,Nada,75.0,yes
85,2024-02-19_20h04.52.495,Unsyncopated_study2,s114,18.0,feminino,right,Espana,Espanol,Upper secondary,no,no,A,1,conjunction_un,L2,unsyncopated,s2,r1,85,Online_conjL2_un//b.fe.ra19.none.none.wav,me,mi,to,sil,go,ñu,ñi,sil1,du,ba,sil2,['-'],,,none,none,,,,fe,1,testWhatL3Uns//r2.s1.2.wav,4.0,what,unsyncopated,b,s1,rule,rule,L3,m,0.3164,6.0,0.0,0.1667,3 ,3.0,Castellano,0.0,Ingles,5.0,Catalan,10.0,4.0,3.0,yes,no,no,Canto,5,Piano,5,,,Nada,75.0,yes
86,2024-02-19_20h04.52.495,Unsyncopated_study2,s114,18.0,feminino,right,Espana,Espanol,Upper secondary,no,no,A,1,conjunction_un,L2,unsyncopated,s1,r2,86,Online_conjL2_un//b.fe.ra17.0.888.wav,fe,cha,mi,sil,ra,si,su,sil1,ba,ñi,sil2,['catch'],[0.7965999999978521],[0.7965999999978521],0.0,beat,0.7965999999978521,0.7965999999978521,"[""space""]",fe,1,testWhatL3Uns//r1.s2.1.wav,4.0,what,unsyncopated,a,s2,rule,rule,L3,z,0.2658,7.0,1.0,0.3719,3 ,3.0,Castellano,0.0,Ingles,5.0,Catalan,10.0,4.0,3.0,yes,no,no,Canto,5,Piano,5,,,Nada,75.0,yes
87,2024-02-19_20h04.52.495,Unsyncopated_study2,s114,18.0,feminino,right,Espana,Espanol,Upper secondary,no,no,A,1,conjunction_un,L2,unsyncopated,s1,r1,87,Online_conjL2_un//b.fe.ra18.none.none.wav,go,su,bi,sil,du,te,si,sil1,ñu,to,sil2,['-'],,,none,none,,,,fe,1,testWhatL3Uns//r1.s1.0.wav,4.0,what,unsyncopated,a,s1,rule,rule,L3,z,0.3843,6.0,1.0,0.3283,3 ,3.0,Castellano,0.0,Ingles,5.0,Catalan,10.0,4.0,3.0,yes,no,no,Canto,5,Piano,5,,,Nada,75.0,yes
88,2024-02-19_20h04.52.495,Unsyncopated_study2,s114,18.0,feminino,right,Espana,Espanol,Upper secondary,no,no,A,1,conjunction_un,L2,unsyncopated,s2,r1,88,Online_conjL2_un//c.cha.me19.none.none.wav,bi,mi,to,sil,go,ñu,si,sil1,du,ñi,sil2,['-'],,,none,none,,,,cha,3,testWhatL3Uns//r1.s1.1.wav,4.0,what,unsyncopated,a,s1,rule,rule,L3,m,0.2523,6.0,0.0,0.6382,3 ,3.0,Castellano,0.0,Ingles,5.0,Catalan,10.0,4.0,3.0,yes,no,no,Canto,5,Piano,5,,,Nada,75.0,yes
89,2024-02-19_20h04.52.495,Unsyncopated_study2,s114,18.0,feminino,right,Espana,Espanol,Upper secondary,no,no,A,1,conjunction_un,L2,unsyncopated,s2,r2,89,Online_conjL2_un//c.cha.me16.none.none.wav,te,mi,si,sil,fe,ñi,bi,sil1,ra,ñu,sil2,['-'],,,none,none,,,,cha,3,testWhatL3Uns//cat_viol.r1.s1.0.wav,4.0,what,unsyncopated,a,s1,no_rule,cat,L3,z,0.1985,6.0,0.0,0.5249,3 ,3.0,Castellano,0.0,Ingles,5.0,Catalan,10.0,4.0,3.0,yes,no,no,Canto,5,Piano,5,,,Nada,75.0,yes
90,2024-02-19_20h04.52.495,Unsyncopated_study2,s114,18.0,feminino,right,Espana,Espanol,Upper secondary,no,no,A,1,conjunction_un,L2,unsyncopated,s2,r1,90,Online_conjL2_un//c.cha.me18.none.none.wav,ba,su,mi,sil,go,ñu,te,sil1,du,ñi,sil2,['-'],,,none,none,,,,cha,3,testWhatL3Uns//cat_viol.r2.s2.0.wav,4.0,what,unsyncopated,b,s2,no_rule,cat,L3,z,0.9462,4.0,0.0,0.6053,3 ,3.0,Castellano,0.0,Ingles,5.0,Catalan,10.0,4.0,3.0,yes,no,no,Canto,5,Piano,5,,,Nada,75.0,yes
91,2024-02-19_20h04.52.495,Unsyncopated_study2,s114,18.0,feminino,right,Espana,Espanol,Upper secondary,no,no,A,1,conjunction_un,L2,unsyncopated,s2,r1,91,Online_conjL2_un//c.cha.me17.1332.444.wav,bi,ba,me,sil,go,ñi,cha,sil1,du,si,sil2,['catch'],[2.0821000000014465],[2.0821000000014465],1.332,no_beat,0.7501000000014464,0.7501000000014464,"[""space""]",cha,3,testWhatL3Uns//r1.s2.2.wav,4.0,what,unsyncopated,a,s2,rule,rule,L3,m,0.1261,5.0,0.0,0.2187,3 ,3.0,Castellano,0.0,Ingles,5.0,Catalan,10.0,4.0,3.0,yes,no,no,Canto,5,Piano,5,,,Nada,75.0,yes
92,2024-02-19_20h04.52.495,Unsyncopated_study2,s114,18.0,feminino,right,Espana,Espanol,Upper secondary,no,no,A,1,conjunction_un,L2,unsyncopated,s1,r1,92,Online_conjL2_un//b.fe.ra22.none.none.wav,go,te,to,sil,du,me,ñu,sil1,ñi,si,sil2,['-'],,,none,none,,,,fe,1,testWhatL3Uns//dep_viol.r2.s2.0.wav,4.0,what,unsyncopated,b,s2,no_rule,dep,L3,z,0.2754,6.0,0.0,0.2115,3 ,3.0,Castellano,0.0,Ingles,5.0,Catalan,10.0,4.0,3.0,yes,no,no,Canto,5,Piano,5,,,Nada,75.0,yes
93,2024-02-19_20h04.52.495,Unsyncopated_study2,s114,18.0,feminino,right,Espana,Espanol,Upper secondary,no,no,A,1,conjunction_un,L2,unsyncopated,s2,r1,93,Online_conjL2_un//b.fe.ra21.none.none.wav,bi,ba,to,sil,go,te,si,sil1,du,me,sil2,['-'],,,none,none,,,,fe,1,testWhatL3Uns//r2.s1.1.wav,4.0,what,unsyncopated,b,s1,rule,rule,L3,m,0.1919,5.0,0.0,0.4598,3 ,3.0,Castellano,0.0,Ingles,5.0,Catalan,10.0,4.0,3.0,yes,no,no,Canto,5,Piano,5,,,Nada,75.0,yes
94,2024-02-19_20h04.52.495,Unsyncopated_study2,s114,18.0,feminino,right,Espana,Espanol,Upper secondary,no,no,A,1,conjunction_un,L2,unsyncopated,s2,r1,94,Online_conjL2_un//b.fe.ra23.none.none.wav,ñu,ba,mi,sil,go,to,ñi,sil1,du,bi,sil2,['-'],,,none,none,,,,fe,1,testWhatL3Uns//time_viol.r1.s1.0.wav,4.0,what,unsyncopated,a,s1,no_rule,time,L3,z,0.9128,5.0,0.0,1.7287,3 ,3.0,Castellano,0.0,Ingles,5.0,Catalan,10.0,4.0,3.0,yes,no,no,Canto,5,Piano,5,,,Nada,75.0,yes
95,2024-02-19_20h04.52.495,Unsyncopated_study2,s114,18.0,feminino,right,Espana,Espanol,Upper secondary,no,no,A,1,conjunction_un,L2,unsyncopated,s2,r2,95,Online_conjL2_un//b.fe.ra20.888.1776.wav,bi,ñi,me,sil,fe,cha,si,sil1,ra,su,sil2,['catch'],[1.660900000002357],[1.660900000002357],0.888,beat,0.772900000002357,0.772900000002357,"[""space""]",fe,1,testWhatL3Uns//time_viol.r2.s2.0.wav,4.0,what,unsyncopated,b,s2,no_rule,time,L3,m,0.5681,3.0,1.0,0.4776,3 ,3.0,Castellano,0.0,Ingles,5.0,Catalan,10.0,4.0,3.0,yes,no,no,Canto,5,Piano,5,,,Nada,75.0,yes
96,2024-02-19_20h04.52.495,Unsyncopated_study2,s114,18.0,feminino,right,Espana,Espanol,Upper secondary,no,no,A,1,conjunction_un,L2,unsyncopated,s1,r1,96,Online_conjL2_un//d.si.ñu2.1776.444.wav,go,ba,ñu,sil,du,to,su,sil1,si,ñi,sil2,['catch'],[2.585199999999304],[2.585199999999304],1.776,beat,0.809199999999304,0.809199999999304,"[""space""]",si,4,,,,,,,,,,,,,,,3 ,3.0,Castellano,0.0,Ingles,5.0,Catalan,10.0,4.0,3.0,yes,no,no,Canto,5,Piano,5,,,Nada,75.0,yes
97,2024-02-19_20h04.52.495,Unsyncopated_study2,s114,18.0,feminino,right,Espana,Espanol,Upper secondary,no,no,A,1,conjunction_un,L2,unsyncopated,s1,r1,97,Online_conjL2_un//d.si.ñu0.none.none.wav,go,cha,ba,sil,du,ñi,bi,sil1,su,to,sil2,['-'],,,none,none,,,,si,4,,,,,,,,,,,,,,,3 ,3.0,Castellano,0.0,Ingles,5.0,Catalan,10.0,4.0,3.0,yes,no,no,Canto,5,Piano,5,,,Nada,75.0,yes
98,2024-02-19_20h04.52.495,Unsyncopated_study2,s114,18.0,feminino,right,Espana,Espanol,Upper secondary,no,no,A,1,conjunction_un,L2,unsyncopated,s2,r2,98,Online_conjL2_un//d.si.ñu3.none.none.wav,to,ba,te,sil,fe,cha,bi,sil1,ra,me,sil2,['-'],,,none,none,,,,si,4,,,,,,,,,,,,,,,3 ,3.0,Castellano,0.0,Ingles,5.0,Catalan,10.0,4.0,3.0,yes,no,no,Canto,5,Piano,5,,,Nada,75.0,yes
99,2024-02-19_20h04.52.495,Unsyncopated_study2,s114,18.0,feminino,right,Espana,Espanol,Upper secondary,no,no,A,1,conjunction_un,L2,unsyncopated,s1,r2,99,Online_conjL2_un//d.si.ñu1.222.1332.wav,fe,si,ba,sil,ra,su,ñu,sil1,ñi,me,sil2,"['catch', 'false alarm']","[0.9221999999992931, 2.4190999999977976]",[0.9221999999992931],0.222,no_beat,0.7001999999992932,0.7001999999992932,"[""space"",""space""]",si,4,,,,,,,,,,,,,,,3 ,3.0,Castellano,0.0,Ingles,5.0,Catalan,10.0,4.0,3.0,yes,no,no,Canto,5,Piano,5,,,Nada,75.0,yes
100,2024-02-19_20h04.52.495,Unsyncopated_study2,s114,18.0,feminino,right,Espana,Espanol,Upper secondary,no,no,A,1,conjunction_un,L2,unsyncopated,s1,r1,100,Online_conjL2_un//c.cha.me28.222.444.wav,go,cha,me,sil,du,mi,ba,sil1,bi,to,sil2,['miss'],,,0.222,no_beat,,,,cha,3,,,,,,,,,,,,,,,3 ,3.0,Castellano,0.0,Ingles,5.0,Catalan,10.0,4.0,3.0,yes,no,no,Canto,5,Piano,5,,,Nada,75.0,yes
101,2024-02-19_20h04.52.495,Unsyncopated_study2,s114,18.0,feminino,right,Espana,Espanol,Upper secondary,no,no,A,1,conjunction_un,L2,unsyncopated,s2,r2,101,Online_conjL2_un//c.cha.me30.0.1110.wav,cha,mi,ba,sil,fe,me,si,sil1,ra,ñi,sil2,['catch'],[0.6673999999984517],[0.6673999999984517],0.0,beat,0.6673999999984517,0.6673999999984517,"[""space""]",cha,3,,,,,,,,,,,,,,,3 ,3.0,Castellano,0.0,Ingles,5.0,Catalan,10.0,4.0,3.0,yes,no,no,Canto,5,Piano,5,,,Nada,75.0,yes
102,2024-02-19_20h04.52.495,Unsyncopated_study2,s114,18.0,feminino,right,Espana,Espanol,Upper secondary,no,no,A,1,conjunction_un,L2,unsyncopated,s2,r2,102,Online_conjL2_un//c.cha.me29.none.none.wav,ba,ñu,mi,sil,fe,te,si,sil1,ra,ñi,sil2,['-'],,,none,none,,,,cha,3,,,,,,,,,,,,,,,3 ,3.0,Castellano,0.0,Ingles,5.0,Catalan,10.0,4.0,3.0,yes,no,no,Canto,5,Piano,5,,,Nada,75.0,yes
103,2024-02-19_20h04.52.495,Unsyncopated_study2,s114,18.0,feminino,right,Espana,Espanol,Upper secondary,no,no,A,1,conjunction_un,L2,unsyncopated,s1,r2,103,Online_conjL2_un//c.cha.me31.none.none.wav,fe,ñi,ba,sil,ra,si,te,sil1,ñu,mi,sil2,['-'],,,none,none,,,,cha,3,,,,,,,,,,,,,,,3 ,3.0,Castellano,0.0,Ingles,5.0,Catalan,10.0,4.0,3.0,yes,no,no,Canto,5,Piano,5,,,Nada,75.0,yes
104,2024-02-19_20h04.52.495,Unsyncopated_study2,s114,18.0,feminino,right,Espana,Espanol,Upper secondary,no,no,A,1,conjunction_un,L2,unsyncopated,s2,r2,104,Online_conjL2_un//d.si.ñu17.1110.0.wav,ñu,bi,te,sil,fe,si,me,sil1,ra,ba,sil2,['catch'],[1.7100000000000364],[1.7100000000000364],1.11,no_beat,0.6000000000000363,0.6000000000000363,"[""space""]",si,4,,,,,,,,,,,,,,,3 ,3.0,Castellano,0.0,Ingles,5.0,Catalan,10.0,4.0,3.0,yes,no,no,Canto,5,Piano,5,,,Nada,75.0,yes
105,2024-02-19_20h04.52.495,Unsyncopated_study2,s114,18.0,feminino,right,Espana,Espanol,Upper secondary,no,no,A,1,conjunction_un,L2,unsyncopated,s1,r1,105,Online_conjL2_un//d.si.ñu19.444.1332.wav,go,su,si,sil,du,to,ñu,sil1,te,me,sil2,['catch'],[1.1114999999999782],[1.1114999999999782],0.444,no_beat,0.6674999999999782,0.6674999999999782,"[""space""]",si,4,,,,,,,,,,,,,,,3 ,3.0,Castellano,0.0,Ingles,5.0,Catalan,10.0,4.0,3.0,yes,no,no,Canto,5,Piano,5,,,Nada,75.0,yes
106,2024-02-19_20h04.52.495,Unsyncopated_study2,s114,18.0,feminino,right,Espana,Espanol,Upper secondary,no,no,A,1,conjunction_un,L2,unsyncopated,s2,r1,106,Online_conjL2_un//d.si.ñu16.1110.222.wav,te,ñu,mi,sil,go,si,to,sil1,du,me,sil2,['catch'],[1.7616000000016356],[1.7616000000016356],1.11,no_beat,0.6516000000016355,0.6516000000016355,"[""space""]",si,4,,,,,,,,,,,,,,,3 ,3.0,Castellano,0.0,Ingles,5.0,Catalan,10.0,4.0,3.0,yes,no,no,Canto,5,Piano,5,,,Nada,75.0,yes
107,2024-02-19_20h04.52.495,Unsyncopated_study2,s114,18.0,feminino,right,Espana,Espanol,Upper secondary,no,no,A,1,conjunction_un,L2,unsyncopated,s2,r1,107,Online_conjL2_un//d.si.ñu18.1332.222.wav,bi,ñu,me,sil,go,cha,si,sil1,du,ba,sil2,['catch'],[2.487600000001521],[2.487600000001521],1.332,no_beat,1.155600000001521,1.155600000001521,"[""space""]",si,4,,,,,,,,,,,,,,,3 ,3.0,Castellano,0.0,Ingles,5.0,Catalan,10.0,4.0,3.0,yes,no,no,Canto,5,Piano,5,,,Nada,75.0,yes
108,2024-02-19_20h04.52.495,Unsyncopated_study2,s114,18.0,feminino,right,Espana,Espanol,Upper secondary,no,no,A,1,conjunction_un,L2,unsyncopated,s2,r1,108,Online_conjL2_un//c.cha.me15.444.1110.wav,mi,ba,cha,sil,go,me,si,sil1,du,te,sil2,['catch'],[1.1868000000006305],[1.1868000000006305],0.444,no_beat,0.7428000000006305,0.7428000000006305,"[""space""]",cha,3,,,,,,,,,,,,,,,3 ,3.0,Castellano,0.0,Ingles,5.0,Catalan,10.0,4.0,3.0,yes,no,no,Canto,5,Piano,5,,,Nada,75.0,yes
109,2024-02-19_20h04.52.495,Unsyncopated_study2,s114,18.0,feminino,right,Espana,Espanol,Upper secondary,no,no,A,1,conjunction_un,L2,unsyncopated,s1,r1,109,Online_conjL2_un//c.cha.me12.1332.222.wav,go,me,si,sil,du,ñu,cha,sil1,ñi,bi,sil2,['catch'],[2.1310999999977867],[2.1310999999977867],1.332,no_beat,0.7990999999977866,0.7990999999977866,"[""space""]",cha,3,,,,,,,,,,,,,,,3 ,3.0,Castellano,0.0,Ingles,5.0,Catalan,10.0,4.0,3.0,yes,no,no,Canto,5,Piano,5,,,Nada,75.0,yes
110,2024-02-19_20h04.52.495,Unsyncopated_study2,s114,18.0,feminino,right,Espana,Espanol,Upper secondary,no,no,A,1,conjunction_un,L2,unsyncopated,s1,r2,110,Online_conjL2_un//c.cha.me14.none.none.wav,fe,mi,su,sil,ra,si,ba,sil1,te,ñi,sil2,['-'],,,none,none,,,,cha,3,,,,,,,,,,,,,,,3 ,3.0,Castellano,0.0,Ingles,5.0,Catalan,10.0,4.0,3.0,yes,no,no,Canto,5,Piano,5,,,Nada,75.0,yes
111,2024-02-19_20h04.52.495,Unsyncopated_study2,s114,18.0,feminino,right,Espana,Espanol,Upper secondary,no,no,A,1,conjunction_un,L2,unsyncopated,s1,r1,111,Online_conjL2_un//c.cha.me13.none.none.wav,go,bi,su,sil,du,si,te,sil1,mi,ñu,sil2,['-'],,,none,none,,,,cha,3,,,,,,,,,,,,,,,3 ,3.0,Castellano,0.0,Ingles,5.0,Catalan,10.0,4.0,3.0,yes,no,no,Canto,5,Piano,5,,,Nada,75.0,yes
112,2024-02-19_20h04.52.495,Unsyncopated_study2,s114,18.0,feminino,right,Espana,Espanol,Upper secondary,no,no,A,1,conjunction_un,L2,unsyncopated,s1,r2,112,Online_conjL2_un//c.cha.me2.1776.444.wav,fe,su,me,sil,ra,mi,ba,sil1,cha,ñu,sil2,['catch_delay'],[0.9954999999998455],[0.9954999999998455],1.776,beat,0.9954999999998456,0.9954999999998456,,cha,3,,,,,,,,,,,,,,,3 ,3.0,Castellano,0.0,Ingles,5.0,Catalan,10.0,4.0,3.0,yes,no,no,Canto,5,Piano,5,,,Nada,75.0,yes
113,2024-02-19_20h04.52.495,Unsyncopated_study2,s114,18.0,feminino,right,Espana,Espanol,Upper secondary,no,no,A,1,conjunction_un,L2,unsyncopated,s2,r2,113,Online_conjL2_un//c.cha.me0.none.none.wav,si,mi,ba,sil,fe,su,te,sil1,ra,ñi,sil2,['-'],[0.10749999999984539],[0.10749999999984539],none,none,,,"[""space""]",cha,3,,,,,,,,,,,,,,,3 ,3.0,Castellano,0.0,Ingles,5.0,Catalan,10.0,4.0,3.0,yes,no,no,Canto,5,Piano,5,,,Nada,75.0,yes
114,2024-02-19_20h04.52.495,Unsyncopated_study2,s114,18.0,feminino,right,Espana,Espanol,Upper secondary,no,no,A,1,conjunction_un,L2,unsyncopated,s1,r1,114,Online_conjL2_un//c.cha.me1.none.none.wav,go,ba,mi,sil,du,ñi,ñu,sil1,bi,si,sil2,['-'],,,none,none,,,,cha,3,,,,,,,,,,,,,,,3 ,3.0,Castellano,0.0,Ingles,5.0,Catalan,10.0,4.0,3.0,yes,no,no,Canto,5,Piano,5,,,Nada,75.0,yes
115,2024-02-19_20h04.52.495,Unsyncopated_study2,s114,18.0,feminino,right,Espana,Espanol,Upper secondary,no,no,A,1,conjunction_un,L2,unsyncopated,s1,r1,115,Online_conjL2_un//c.cha.me3.1776.1110.wav,go,mi,te,sil,du,me,bi,sil1,cha,su,sil2,['catch'],[2.5453000000006796],[2.5453000000006796],1.776,beat,0.7693000000006796,0.7693000000006796,"[""space""]",cha,3,,,,,,,,,,,,,,,3 ,3.0,Castellano,0.0,Ingles,5.0,Catalan,10.0,4.0,3.0,yes,no,no,Canto,5,Piano,5,,,Nada,75.0,yes
116,2024-02-19_20h04.52.495,Unsyncopated_study2,s114,18.0,feminino,right,Espana,Espanol,Upper secondary,no,no,A,1,conjunction_un,L2,unsyncopated,s2,r1,116,Online_conjL2_un//d.si.ñu15.none.none.wav,su,mi,bi,sil,go,me,ba,sil1,du,te,sil2,['-'],,,none,none,,,,si,4,,,,,,,,,,,,,,,3 ,3.0,Castellano,0.0,Ingles,5.0,Catalan,10.0,4.0,3.0,yes,no,no,Canto,5,Piano,5,,,Nada,75.0,yes
117,2024-02-19_20h04.52.495,Unsyncopated_study2,s114,18.0,feminino,right,Espana,Espanol,Upper secondary,no,no,A,1,conjunction_un,L2,unsyncopated,s2,r2,117,Online_conjL2_un//d.si.ñu13.0.1110.wav,si,su,ba,sil,fe,ñu,ñi,sil1,ra,mi,sil2,['catch'],[0.686900000002197],[0.686900000002197],0.0,beat,0.686900000002197,0.686900000002197,"[""space""]",si,4,,,,,,,,,,,,,,,3 ,3.0,Castellano,0.0,Ingles,5.0,Catalan,10.0,4.0,3.0,yes,no,no,Canto,5,Piano,5,,,Nada,75.0,yes
118,2024-02-19_20h04.52.495,Unsyncopated_study2,s114,18.0,feminino,right,Espana,Espanol,Upper secondary,no,no,A,1,conjunction_un,L2,unsyncopated,s2,r1,118,Online_conjL2_un//d.si.ñu12.none.none.wav,ba,bi,mi,sil,go,to,cha,sil1,du,te,sil2,['-'],,,none,none,,,,si,4,,,,,,,,,,,,,,,3 ,3.0,Castellano,0.0,Ingles,5.0,Catalan,10.0,4.0,3.0,yes,no,no,Canto,5,Piano,5,,,Nada,75.0,yes
119,2024-02-19_20h04.52.495,Unsyncopated_study2,s114,18.0,feminino,right,Espana,Espanol,Upper secondary,no,no,A,1,conjunction_un,L2,unsyncopated,s1,r2,119,Online_conjL2_un//d.si.ñu14.1110.222.wav,fe,ñu,ñi,sil,ra,si,ba,sil1,te,su,sil2,['catch'],[1.7868000000007669],[1.7868000000007669],1.11,no_beat,0.6768000000007668,0.6768000000007668,"[""space""]",si,4,,,,,,,,,,,,,,,3 ,3.0,Castellano,0.0,Ingles,5.0,Catalan,10.0,4.0,3.0,yes,no,no,Canto,5,Piano,5,,,Nada,75.0,yes
120,2024-02-19_20h04.52.495,Unsyncopated_study2,s114,18.0,feminino,right,Espana,Espanol,Upper secondary,no,no,A,1,conjunction_un,L2,unsyncopated,s1,r2,120,Online_conjL2_un//a.go.du0.none.none.wav,fe,ñu,ba,sil,ra,mi,cha,sil1,bi,si,sil2,['-'],,,none,none,,,,du,2,,,,,,,,,,,,,,,3 ,3.0,Castellano,0.0,Ingles,5.0,Catalan,10.0,4.0,3.0,yes,no,no,Canto,5,Piano,5,,,Nada,75.0,yes
121,2024-02-19_20h04.52.495,Unsyncopated_study2,s114,18.0,feminino,right,Espana,Espanol,Upper secondary,no,no,A,1,conjunction_un,L2,unsyncopated,s1,r1,121,Online_conjL2_un//a.go.du1.0.888.wav,go,bi,si,sil,du,ñu,ba,sil1,mi,cha,sil2,['catch'],[1.6012999999968542],[1.6012999999968542],0.888,beat,0.7132999999968542,0.7132999999968542,"[""space""]",du,2,,,,,,,,,,,,,,,3 ,3.0,Castellano,0.0,Ingles,5.0,Catalan,10.0,4.0,3.0,yes,no,no,Canto,5,Piano,5,,,Nada,75.0,yes
122,2024-02-19_20h04.52.495,Unsyncopated_study2,s114,18.0,feminino,right,Espana,Espanol,Upper secondary,no,no,A,1,conjunction_un,L2,unsyncopated,s2,r2,122,Online_conjL2_un//a.go.du3.none.none.wav,te,bi,su,sil,fe,me,ñi,sil1,ra,si,sil2,['-'],,,none,none,,,,du,2,,,,,,,,,,,,,,,3 ,3.0,Castellano,0.0,Ingles,5.0,Catalan,10.0,4.0,3.0,yes,no,no,Canto,5,Piano,5,,,Nada,75.0,yes
123,2024-02-19_20h04.52.495,Unsyncopated_study2,s114,18.0,feminino,right,Espana,Espanol,Upper secondary,no,no,A,1,conjunction_un,L2,unsyncopated,s2,r1,123,Online_conjL2_un//a.go.du2.888.1776.wav,si,me,to,sil,go,bi,te,sil1,du,cha,sil2,['catch'],[2.5709999999999127],[2.5709999999999127],1.776,beat,0.7949999999999127,0.7949999999999127,"[""space""]",du,2,,,,,,,,,,,,,,,3 ,3.0,Castellano,0.0,Ingles,5.0,Catalan,10.0,4.0,3.0,yes,no,no,Canto,5,Piano,5,,,Nada,75.0,yes
124,2024-02-19_20h04.52.495,Unsyncopated_study2,s114,18.0,feminino,right,Espana,Espanol,Upper secondary,no,no,A,1,conjunction_un,L2,unsyncopated,s1,r1,124,Online_conjL2_un//a.go.du14.0.888.wav,go,su,to,sil,du,te,ba,sil1,ñi,me,sil2,['catch'],[1.6478000000006432],[1.6478000000006432],0.888,beat,0.7598000000006432,0.7598000000006432,"[""space""]",du,2,,,,,,,,,,,,,,,3 ,3.0,Castellano,0.0,Ingles,5.0,Catalan,10.0,4.0,3.0,yes,no,no,Canto,5,Piano,5,,,Nada,75.0,yes
125,2024-02-19_20h04.52.495,Unsyncopated_study2,s114,18.0,feminino,right,Espana,Espanol,Upper secondary,no,no,A,1,conjunction_un,L2,unsyncopated,s2,r2,125,Online_conjL2_un//a.go.du12.none.none.wav,bi,su,mi,sil,fe,ñi,te,sil1,ra,si,sil2,['-'],,,none,none,,,,du,2,,,,,,,,,,,,,,,3 ,3.0,Castellano,0.0,Ingles,5.0,Catalan,10.0,4.0,3.0,yes,no,no,Canto,5,Piano,5,,,Nada,75.0,yes
126,2024-02-19_20h04.52.495,Unsyncopated_study2,s114,18.0,feminino,right,Espana,Espanol,Upper secondary,no,no,A,1,conjunction_un,L2,unsyncopated,s2,r2,126,Online_conjL2_un//a.go.du15.none.none.wav,me,mi,ñu,sil,fe,si,ñi,sil1,ra,su,sil2,['-'],,,none,none,,,,du,2,,,,,,,,,,,,,,,3 ,3.0,Castellano,0.0,Ingles,5.0,Catalan,10.0,4.0,3.0,yes,no,no,Canto,5,Piano,5,,,Nada,75.0,yes
127,2024-02-19_20h04.52.495,Unsyncopated_study2,s114,18.0,feminino,right,Espana,Espanol,Upper secondary,no,no,A,1,conjunction_un,L2,unsyncopated,s2,r1,127,Online_conjL2_un//a.go.du13.888.1776.wav,mi,bi,ba,sil,go,ñu,to,sil1,du,te,sil2,['catch'],[2.49149999999986],[2.49149999999986],1.776,beat,0.7154999999998599,0.7154999999998599,"[""space""]",du,2,,,,,,,,,,,,,,,3 ,3.0,Castellano,0.0,Ingles,5.0,Catalan,10.0,4.0,3.0,yes,no,no,Canto,5,Piano,5,,,Nada,75.0,yes
128,2024-02-19_20h04.52.495,Unsyncopated_study2,s114,18.0,feminino,right,Espana,Espanol,Upper secondary,no,no,A,2,conjunction_syn,L1,syncopated,s1,r1,0,Online_conjL1_syn//b.ta.be4.none.none.wav,pu,la,fo,ki,sil,cho,ze,lu,sil1,ri,sil2,['-'],,,none,none,,,,ta,1,,,,,,,,,,,,,,,3 ,3.0,Castellano,0.0,Ingles,5.0,Catalan,10.0,4.0,3.0,yes,no,no,Canto,5,Piano,5,,,Nada,75.0,yes
129,2024-02-19_20h04.52.495,Unsyncopated_study2,s114,18.0,feminino,right,Espana,Espanol,Upper secondary,no,no,A,2,conjunction_syn,L1,syncopated,s2,r1,1,Online_conjL1_syn//b.ta.be5.none.none.wav,la,ro,cho,pu,sil,fa,ne,ki,sil1,ze,sil2,['-'],,,none,none,,,,ta,1,,,,,,,,,,,,,,,3 ,3.0,Castellano,0.0,Ingles,5.0,Catalan,10.0,4.0,3.0,yes,no,no,Canto,5,Piano,5,,,Nada,75.0,yes
130,2024-02-19_20h04.52.495,Unsyncopated_study2,s114,18.0,feminino,right,Espana,Espanol,Upper secondary,no,no,A,2,conjunction_syn,L1,syncopated,s2,r1,2,Online_conjL1_syn//b.ta.be7.none.none.wav,fa,ne,lu,pu,sil,zu,fo,ki,sil1,cho,sil2,['-'],,,none,none,,,,ta,1,,,,,,,,,,,,,,,3 ,3.0,Castellano,0.0,Ingles,5.0,Catalan,10.0,4.0,3.0,yes,no,no,Canto,5,Piano,5,,,Nada,75.0,yes
131,2024-02-19_20h04.52.495,Unsyncopated_study2,s114,18.0,feminino,right,Espana,Espanol,Upper secondary,no,no,A,2,conjunction_syn,L1,syncopated,s1,r1,3,Online_conjL1_syn//b.ta.be6.none.none.wav,pu,cho,fo,ki,sil,ni,ro,ri,sil1,lu,sil2,['-'],,,none,none,,,,ta,1,,,,,,,,,,,,,,,3 ,3.0,Castellano,0.0,Ingles,5.0,Catalan,10.0,4.0,3.0,yes,no,no,Canto,5,Piano,5,,,Nada,75.0,yes
132,2024-02-19_20h04.52.495,Unsyncopated_study2,s114,18.0,feminino,right,Espana,Espanol,Upper secondary,no,no,A,2,conjunction_syn,L1,syncopated,s1,r1,4,Online_conjL1_syn//d.ne.ni3.none.none.wav,pu,fo,la,ki,sil,ro,lu,ri,sil1,cho,sil2,['-'],,,none,none,,,,ne,4,,,,,,,,,,,,,,,3 ,3.0,Castellano,0.0,Ingles,5.0,Catalan,10.0,4.0,3.0,yes,no,no,Canto,5,Piano,5,,,Nada,75.0,yes
133,2024-02-19_20h04.52.495,Unsyncopated_study2,s114,18.0,feminino,right,Espana,Espanol,Upper secondary,no,no,A,2,conjunction_syn,L1,syncopated,s2,r1,5,Online_conjL1_syn//d.ne.ni0.none.none.wav,lu,ze,zu,pu,sil,ro,ri,ki,sil1,la,sil2,['-'],,,none,none,,,,ne,4,,,,,,,,,,,,,,,3 ,3.0,Castellano,0.0,Ingles,5.0,Catalan,10.0,4.0,3.0,yes,no,no,Canto,5,Piano,5,,,Nada,75.0,yes
134,2024-02-19_20h04.52.495,Unsyncopated_study2,s114,18.0,feminino,right,Espana,Espanol,Upper secondary,no,no,A,2,conjunction_syn,L1,syncopated,s1,r2,6,Online_conjL1_syn//d.ne.ni2.222.1332.wav,ta,ne,lu,be,sil,ri,ni,cho,sil1,ze,sil2,['catch'],[1.1459999999999582],[1.1459999999999582],0.222,no_beat,0.9239999999999582,0.9239999999999582,"[""space""]",ne,4,,,,,,,,,,,,,,,3 ,3.0,Castellano,0.0,Ingles,5.0,Catalan,10.0,4.0,3.0,yes,no,no,Canto,5,Piano,5,,,Nada,75.0,yes
135,2024-02-19_20h04.52.495,Unsyncopated_study2,s114,18.0,feminino,right,Espana,Espanol,Upper secondary,no,no,A,2,conjunction_syn,L1,syncopated,s1,r1,7,Online_conjL1_syn//d.ne.ni1.222.1110.wav,pu,ne,ri,ki,sil,ni,la,ze,sil1,lu,sil2,['catch'],[1.3944000000024062],[1.3944000000024062],0.222,no_beat,1.1724000000024062,1.1724000000024062,"[""space""]",ne,4,,,,,,,,,,,,,,,3 ,3.0,Castellano,0.0,Ingles,5.0,Catalan,10.0,4.0,3.0,yes,no,no,Canto,5,Piano,5,,,Nada,75.0,yes
136,2024-02-19_20h04.52.495,Unsyncopated_study2,s114,18.0,feminino,right,Espana,Espanol,Upper secondary,no,no,A,2,conjunction_syn,L1,syncopated,s1,r2,8,Online_conjL1_syn//a.pu.ki14.none.none.wav,ta,ri,ze,be,sil,lu,fa,cho,sil1,fo,sil2,['-'],,,none,none,,,,ki,2,,,,,,,,,,,,,,,3 ,3.0,Castellano,0.0,Ingles,5.0,Catalan,10.0,4.0,3.0,yes,no,no,Canto,5,Piano,5,,,Nada,75.0,yes
137,2024-02-19_20h04.52.495,Unsyncopated_study2,s114,18.0,feminino,right,Espana,Espanol,Upper secondary,no,no,A,2,conjunction_syn,L1,syncopated,s1,r2,9,Online_conjL1_syn//a.pu.ki15.none.none.wav,ta,fo,ne,be,sil,la,ze,fa,sil1,cho,sil2,['-'],,,none,none,,,,ki,2,,,,,,,,,,,,,,,3 ,3.0,Castellano,0.0,Ingles,5.0,Catalan,10.0,4.0,3.0,yes,no,no,Canto,5,Piano,5,,,Nada,75.0,yes
138,2024-02-19_20h04.52.495,Unsyncopated_study2,s114,18.0,feminino,right,Espana,Espanol,Upper secondary,no,no,A,2,conjunction_syn,L1,syncopated,s1,r1,10,Online_conjL1_syn//a.pu.ki12.0.666.wav,pu,zu,ni,ki,sil,ne,ro,fo,sil1,cho,sil2,['catch'],[1.2191999999993186],[1.2191999999993186],0.666,no_beat,0.5531999999993186,0.5531999999993186,"[""space""]",ki,2,,,,,,,,,,,,,,,3 ,3.0,Castellano,0.0,Ingles,5.0,Catalan,10.0,4.0,3.0,yes,no,no,Canto,5,Piano,5,,,Nada,75.0,yes
139,2024-02-19_20h04.52.495,Unsyncopated_study2,s114,18.0,feminino,right,Espana,Espanol,Upper secondary,no,no,A,2,conjunction_syn,L1,syncopated,s2,r1,11,Online_conjL1_syn//a.pu.ki13.666.1554.wav,fa,ro,ne,pu,sil,fo,lu,ki,sil1,ni,sil2,['miss'],,,1.554,no_beat,,,,ki,2,,,,,,,,,,,,,,,3 ,3.0,Castellano,0.0,Ingles,5.0,Catalan,10.0,4.0,3.0,yes,no,no,Canto,5,Piano,5,,,Nada,75.0,yes
140,2024-02-19_20h04.52.495,Unsyncopated_study2,s114,18.0,feminino,right,Espana,Espanol,Upper secondary,no,no,A,2,conjunction_syn,L1,syncopated,s1,r1,12,Online_conjL1_syn//d.ne.ni7.444.1110.wav,pu,lu,ne,ki,sil,ni,ri,ze,sil1,zu,sil2,['false alarm'],[0.13679999999703796],[0.13679999999703796],0.444,no_beat,,,"[""space""]",ne,4,,,,,,,,,,,,,,,3 ,3.0,Castellano,0.0,Ingles,5.0,Catalan,10.0,4.0,3.0,yes,no,no,Canto,5,Piano,5,,,Nada,75.0,yes
141,2024-02-19_20h04.52.495,Unsyncopated_study2,s114,18.0,feminino,right,Espana,Espanol,Upper secondary,no,no,A,2,conjunction_syn,L1,syncopated,s2,r1,13,Online_conjL1_syn//d.ne.ni5.none.none.wav,zu,ri,ze,pu,sil,cho,fa,ki,sil1,la,sil2,['-'],,,none,none,,,,ne,4,,,,,,,,,,,,,,,3 ,3.0,Castellano,0.0,Ingles,5.0,Catalan,10.0,4.0,3.0,yes,no,no,Canto,5,Piano,5,,,Nada,75.0,yes
142,2024-02-19_20h04.52.495,Unsyncopated_study2,s114,18.0,feminino,right,Espana,Espanol,Upper secondary,no,no,A,2,conjunction_syn,L1,syncopated,s1,r2,14,Online_conjL1_syn//d.ne.ni6.444.1110.wav,ta,zu,ne,be,sil,ni,ze,la,sil1,fa,sil2,['catch'],[1.3601999999991676],[1.3601999999991676],0.444,no_beat,0.9161999999991676,0.9161999999991676,"[""space""]",ne,4,,,,,,,,,,,,,,,3 ,3.0,Castellano,0.0,Ingles,5.0,Catalan,10.0,4.0,3.0,yes,no,no,Canto,5,Piano,5,,,Nada,75.0,yes
143,2024-02-19_20h04.52.495,Unsyncopated_study2,s114,18.0,feminino,right,Espana,Espanol,Upper secondary,no,no,A,2,conjunction_syn,L1,syncopated,s1,r1,15,Online_conjL1_syn//d.ne.ni4.222.1332.wav,pu,ne,cho,ki,sil,ri,ni,ro,sil1,zu,sil2,['miss'],,,0.222,no_beat,,,,ne,4,,,,,,,,,,,,,,,3 ,3.0,Castellano,0.0,Ingles,5.0,Catalan,10.0,4.0,3.0,yes,no,no,Canto,5,Piano,5,,,Nada,75.0,yes
144,2024-02-19_20h04.52.495,Unsyncopated_study2,s114,18.0,feminino,right,Espana,Espanol,Upper secondary,no,no,A,2,conjunction_syn,L1,syncopated,s1,r2,16,Online_conjL1_syn//b.ta.be25.0.666.wav,ta,ri,ze,be,sil,ni,cho,lu,sil1,ne,sil2,['catch'],[0.8081999999992604],[0.8081999999992604],0.0,beat,0.8081999999992604,0.8081999999992604,"[""space""]",ta,1,,,,,,,,,,,,,,,3 ,3.0,Castellano,0.0,Ingles,5.0,Catalan,10.0,4.0,3.0,yes,no,no,Canto,5,Piano,5,,,Nada,75.0,yes
145,2024-02-19_20h04.52.495,Unsyncopated_study2,s114,18.0,feminino,right,Espana,Espanol,Upper secondary,no,no,A,2,conjunction_syn,L1,syncopated,s2,r2,17,Online_conjL1_syn//b.ta.be26.666.1554.wav,cho,lu,la,ta,sil,fo,ro,be,sil1,zu,sil2,['catch'],[1.3956999999993513],[1.3956999999993513],0.666,no_beat,0.7296999999993513,0.7296999999993513,"[""space""]",ta,1,,,,,,,,,,,,,,,3 ,3.0,Castellano,0.0,Ingles,5.0,Catalan,10.0,4.0,3.0,yes,no,no,Canto,5,Piano,5,,,Nada,75.0,yes
146,2024-02-19_20h04.52.495,Unsyncopated_study2,s114,18.0,feminino,right,Espana,Espanol,Upper secondary,no,no,A,2,conjunction_syn,L1,syncopated,s1,r1,18,Online_conjL1_syn//b.ta.be27.none.none.wav,pu,ze,lu,ki,sil,ro,fo,ni,sil1,ri,sil2,['-'],,,none,none,,,,ta,1,,,,,,,,,,,,,,,3 ,3.0,Castellano,0.0,Ingles,5.0,Catalan,10.0,4.0,3.0,yes,no,no,Canto,5,Piano,5,,,Nada,75.0,yes
147,2024-02-19_20h04.52.495,Unsyncopated_study2,s114,18.0,feminino,right,Espana,Espanol,Upper secondary,no,no,A,2,conjunction_syn,L1,syncopated,s2,r2,19,Online_conjL1_syn//b.ta.be24.666.1554.wav,fo,ni,ro,ta,sil,ri,cho,be,sil1,ne,sil2,['catch'],[1.3330000000000837],[1.3330000000000837],0.666,no_beat,0.6670000000000836,0.6670000000000836,"[""space""]",ta,1,,,,,,,,,,,,,,,3 ,3.0,Castellano,0.0,Ingles,5.0,Catalan,10.0,4.0,3.0,yes,no,no,Canto,5,Piano,5,,,Nada,75.0,yes
148,2024-02-19_20h04.52.495,Unsyncopated_study2,s114,18.0,feminino,right,Espana,Espanol,Upper secondary,no,no,A,2,conjunction_syn,L1,syncopated,s2,r2,20,Online_conjL1_syn//c.ro.fo25.none.none.wav,lu,ri,fa,ta,sil,zu,cho,be,sil1,ze,sil2,['-'],,,none,none,,,,ro,3,,,,,,,,,,,,,,,3 ,3.0,Castellano,0.0,Ingles,5.0,Catalan,10.0,4.0,3.0,yes,no,no,Canto,5,Piano,5,,,Nada,75.0,yes
149,2024-02-19_20h04.52.495,Unsyncopated_study2,s114,18.0,feminino,right,Espana,Espanol,Upper secondary,no,no,A,2,conjunction_syn,L1,syncopated,s2,r1,21,Online_conjL1_syn//c.ro.fo26.444.0.wav,fo,ne,ro,pu,sil,ze,ni,ki,sil1,fa,sil2,['miss'],,,0.444,no_beat,,,,ro,3,,,,,,,,,,,,,,,3 ,3.0,Castellano,0.0,Ingles,5.0,Catalan,10.0,4.0,3.0,yes,no,no,Canto,5,Piano,5,,,Nada,75.0,yes
150,2024-02-19_20h04.52.495,Unsyncopated_study2,s114,18.0,feminino,right,Espana,Espanol,Upper secondary,no,no,A,2,conjunction_syn,L1,syncopated,s2,r2,22,Online_conjL1_syn//c.ro.fo27.444.1110.wav,la,fa,ro,ta,sil,fo,lu,be,sil1,ze,sil2,"['catch', 'false alarm']","[1.1688999999983025, 2.285100000001421]",[1.1688999999983025],0.444,no_beat,0.7248999999983026,0.7248999999983026,"[""space"",""space""]",ro,3,,,,,,,,,,,,,,,3 ,3.0,Castellano,0.0,Ingles,5.0,Catalan,10.0,4.0,3.0,yes,no,no,Canto,5,Piano,5,,,Nada,75.0,yes
151,2024-02-19_20h04.52.495,Unsyncopated_study2,s114,18.0,feminino,right,Espana,Espanol,Upper secondary,no,no,A,2,conjunction_syn,L1,syncopated,s1,r1,23,Online_conjL1_syn//c.ro.fo24.1332.222.wav,pu,fo,ni,ki,sil,la,ro,ze,sil1,zu,sil2,['catch'],[2.045199999999113],[2.045199999999113],1.332,no_beat,0.713199999999113,0.713199999999113,"[""space""]",ro,3,,,,,,,,,,,,,,,3 ,3.0,Castellano,0.0,Ingles,5.0,Catalan,10.0,4.0,3.0,yes,no,no,Canto,5,Piano,5,,,Nada,75.0,yes
152,2024-02-19_20h04.52.495,Unsyncopated_study2,s114,18.0,feminino,right,Espana,Espanol,Upper secondary,no,no,A,2,conjunction_syn,L1,syncopated,s2,r1,24,Online_conjL1_syn//a.pu.ki1.666.1554.wav,ni,fo,fa,pu,sil,zu,lu,ki,sil1,ne,sil2,['catch'],[2.3031999999993786],[2.3031999999993786],1.554,no_beat,0.7491999999993786,0.7491999999993786,"[""space""]",ki,2,,,,,,,,,,,,,,,3 ,3.0,Castellano,0.0,Ingles,5.0,Catalan,10.0,4.0,3.0,yes,no,no,Canto,5,Piano,5,,,Nada,75.0,yes
153,2024-02-19_20h04.52.495,Unsyncopated_study2,s114,18.0,feminino,right,Espana,Espanol,Upper secondary,no,no,A,2,conjunction_syn,L1,syncopated,s2,r2,25,Online_conjL1_syn//a.pu.ki2.none.none.wav,ne,ro,ri,ta,sil,fa,ze,be,sil1,la,sil2,['false alarm'],[1.691699999999173],[1.691699999999173],none,none,,,"[""space""]",ki,2,,,,,,,,,,,,,,,3 ,3.0,Castellano,0.0,Ingles,5.0,Catalan,10.0,4.0,3.0,yes,no,no,Canto,5,Piano,5,,,Nada,75.0,yes
154,2024-02-19_20h04.52.495,Unsyncopated_study2,s114,18.0,feminino,right,Espana,Espanol,Upper secondary,no,no,A,2,conjunction_syn,L1,syncopated,s1,r2,26,Online_conjL1_syn//a.pu.ki0.none.none.wav,ta,la,ni,be,sil,fa,lu,ro,sil1,fo,sil2,['-'],,,none,none,,,,ki,2,,,,,,,,,,,,,,,3 ,3.0,Castellano,0.0,Ingles,5.0,Catalan,10.0,4.0,3.0,yes,no,no,Canto,5,Piano,5,,,Nada,75.0,yes
155,2024-02-19_20h04.52.495,Unsyncopated_study2,s114,18.0,feminino,right,Espana,Espanol,Upper secondary,no,no,A,2,conjunction_syn,L1,syncopated,s1,r1,27,Online_conjL1_syn//a.pu.ki3.0.666.wav,pu,zu,la,ki,sil,fa,cho,ri,sil1,ro,sil2,['catch'],[1.3794000000023061],[1.3794000000023061],0.666,no_beat,0.7134000000023061,0.7134000000023061,"[""space""]",ki,2,,,,,,,,,,,,,,,3 ,3.0,Castellano,0.0,Ingles,5.0,Catalan,10.0,4.0,3.0,yes,no,no,Canto,5,Piano,5,,,Nada,75.0,yes
156,2024-02-19_20h04.52.495,Unsyncopated_study2,s114,18.0,feminino,right,Espana,Espanol,Upper secondary,no,no,A,2,conjunction_syn,L1,syncopated,s2,r1,28,Online_conjL1_syn//b.ta.be22.none.none.wav,zu,la,cho,pu,sil,ne,ri,ki,sil1,fa,sil2,['-'],,,none,none,,,,ta,1,,,,,,,,,,,,,,,3 ,3.0,Castellano,0.0,Ingles,5.0,Catalan,10.0,4.0,3.0,yes,no,no,Canto,5,Piano,5,,,Nada,75.0,yes
157,2024-02-19_20h04.52.495,Unsyncopated_study2,s114,18.0,feminino,right,Espana,Espanol,Upper secondary,no,no,A,2,conjunction_syn,L1,syncopated,s1,r1,29,Online_conjL1_syn//b.ta.be20.none.none.wav,pu,lu,ze,ki,sil,ro,la,zu,sil1,fo,sil2,['-'],,,none,none,,,,ta,1,,,,,,,,,,,,,,,3 ,3.0,Castellano,0.0,Ingles,5.0,Catalan,10.0,4.0,3.0,yes,no,no,Canto,5,Piano,5,,,Nada,75.0,yes
158,2024-02-19_20h04.52.495,Unsyncopated_study2,s114,18.0,feminino,right,Espana,Espanol,Upper secondary,no,no,A,2,conjunction_syn,L1,syncopated,s2,r1,30,Online_conjL1_syn//b.ta.be21.none.none.wav,ri,ro,fa,pu,sil,ni,cho,ki,sil1,ze,sil2,['-'],,,none,none,,,,ta,1,,,,,,,,,,,,,,,3 ,3.0,Castellano,0.0,Ingles,5.0,Catalan,10.0,4.0,3.0,yes,no,no,Canto,5,Piano,5,,,Nada,75.0,yes
159,2024-02-19_20h04.52.495,Unsyncopated_study2,s114,18.0,feminino,right,Espana,Espanol,Upper secondary,no,no,A,2,conjunction_syn,L1,syncopated,s1,r1,31,Online_conjL1_syn//b.ta.be23.none.none.wav,pu,cho,ze,ki,sil,ne,la,ri,sil1,fa,sil2,['-'],,,none,none,,,,ta,1,,,,,,,,,,,,,,,3 ,3.0,Castellano,0.0,Ingles,5.0,Catalan,10.0,4.0,3.0,yes,no,no,Canto,5,Piano,5,,,Nada,75.0,yes
160,2024-02-19_20h04.52.495,Unsyncopated_study2,s114,18.0,feminino,right,Espana,Espanol,Upper secondary,no,no,A,2,conjunction_syn,L1,syncopated,s1,r2,32,Online_conjL1_syn//c.ro.fo16.1332.222.wav,ta,fo,ni,be,sil,la,ro,lu,sil1,fa,sil2,['catch'],[1.9775999999978922],[1.9775999999978922],1.332,no_beat,0.6455999999978921,0.6455999999978921,"[""space""]",ro,3,,,,,,,,,,,,,,,3 ,3.0,Castellano,0.0,Ingles,5.0,Catalan,10.0,4.0,3.0,yes,no,no,Canto,5,Piano,5,,,Nada,75.0,yes
161,2024-02-19_20h04.52.495,Unsyncopated_study2,s114,18.0,feminino,right,Espana,Espanol,Upper secondary,no,no,A,2,conjunction_syn,L1,syncopated,s2,r1,33,Online_conjL1_syn//c.ro.fo19.none.none.wav,la,ni,zu,pu,sil,ne,ri,ki,sil1,lu,sil2,['-'],,,none,none,,,,ro,3,,,,,,,,,,,,,,,3 ,3.0,Castellano,0.0,Ingles,5.0,Catalan,10.0,4.0,3.0,yes,no,no,Canto,5,Piano,5,,,Nada,75.0,yes
162,2024-02-19_20h04.52.495,Unsyncopated_study2,s114,18.0,feminino,right,Espana,Espanol,Upper secondary,no,no,A,2,conjunction_syn,L1,syncopated,s2,r1,34,Online_conjL1_syn//c.ro.fo17.444.0.wav,fo,fa,ro,pu,sil,lu,ze,ki,sil1,ni,sil2,['catch'],[1.0888999999983753],[1.0888999999983753],0.444,no_beat,0.6448999999983753,0.6448999999983753,"[""space""]",ro,3,,,,,,,,,,,,,,,3 ,3.0,Castellano,0.0,Ingles,5.0,Catalan,10.0,4.0,3.0,yes,no,no,Canto,5,Piano,5,,,Nada,75.0,yes
163,2024-02-19_20h04.52.495,Unsyncopated_study2,s114,18.0,feminino,right,Espana,Espanol,Upper secondary,no,no,A,2,conjunction_syn,L1,syncopated,s1,r1,35,Online_conjL1_syn//c.ro.fo18.1110.222.wav,pu,fo,zu,ki,sil,ro,cho,ze,sil1,ne,sil2,['catch'],[1.6699000000021442],[1.6699000000021442],1.11,no_beat,0.5599000000021441,0.5599000000021441,"[""space""]",ro,3,,,,,,,,,,,,,,,3 ,3.0,Castellano,0.0,Ingles,5.0,Catalan,10.0,4.0,3.0,yes,no,no,Canto,5,Piano,5,,,Nada,75.0,yes
164,2024-02-19_20h04.52.495,Unsyncopated_study2,s114,18.0,feminino,right,Espana,Espanol,Upper secondary,no,no,A,2,conjunction_syn,L1,syncopated,s1,r2,36,Online_conjL1_syn//d.ne.ni14.none.none.wav,ta,ri,cho,be,sil,ze,lu,zu,sil1,la,sil2,['-'],,,none,none,,,,ne,4,,,,,,,,,,,,,,,3 ,3.0,Castellano,0.0,Ingles,5.0,Catalan,10.0,4.0,3.0,yes,no,no,Canto,5,Piano,5,,,Nada,75.0,yes
165,2024-02-19_20h04.52.495,Unsyncopated_study2,s114,18.0,feminino,right,Espana,Espanol,Upper secondary,no,no,A,2,conjunction_syn,L1,syncopated,s2,r1,37,Online_conjL1_syn//d.ne.ni13.1110.222.wav,ze,ni,lu,pu,sil,ne,ro,ki,sil1,zu,sil2,['catch'],[2.0026999999993222],[2.0026999999993222],1.11,no_beat,0.8926999999993221,0.8926999999993221,"[""space""]",ne,4,,,,,,,,,,,,,,,3 ,3.0,Castellano,0.0,Ingles,5.0,Catalan,10.0,4.0,3.0,yes,no,no,Canto,5,Piano,5,,,Nada,75.0,yes
166,2024-02-19_20h04.52.495,Unsyncopated_study2,s114,18.0,feminino,right,Espana,Espanol,Upper secondary,no,no,A,2,conjunction_syn,L1,syncopated,s1,r1,38,Online_conjL1_syn//d.ne.ni12.none.none.wav,pu,fo,ri,ki,sil,ze,zu,ro,sil1,la,sil2,['-'],,,none,none,,,,ne,4,,,,,,,,,,,,,,,3 ,3.0,Castellano,0.0,Ingles,5.0,Catalan,10.0,4.0,3.0,yes,no,no,Canto,5,Piano,5,,,Nada,75.0,yes
167,2024-02-19_20h04.52.495,Unsyncopated_study2,s114,18.0,feminino,right,Espana,Espanol,Upper secondary,no,no,A,2,conjunction_syn,L1,syncopated,s1,r1,39,Online_conjL1_syn//d.ne.ni15.none.none.wav,pu,lu,ze,ki,sil,cho,zu,ri,sil1,la,sil2,['-'],,,none,none,,,,ne,4,,,,,,,,,,,,,,,3 ,3.0,Castellano,0.0,Ingles,5.0,Catalan,10.0,4.0,3.0,yes,no,no,Canto,5,Piano,5,,,Nada,75.0,yes
168,2024-02-19_20h04.52.495,Unsyncopated_study2,s114,18.0,feminino,right,Espana,Espanol,Upper secondary,no,no,A,2,conjunction_syn,L1,syncopated,s1,r1,40,Online_conjL1_syn//b.ta.be18.none.none.wav,pu,ni,zu,ki,sil,ne,la,ze,sil1,cho,sil2,['-'],,,none,none,,,,ta,1,,,,,,,,,,,,,,,3 ,3.0,Castellano,0.0,Ingles,5.0,Catalan,10.0,4.0,3.0,yes,no,no,Canto,5,Piano,5,,,Nada,75.0,yes
169,2024-02-19_20h04.52.495,Unsyncopated_study2,s114,18.0,feminino,right,Espana,Espanol,Upper secondary,no,no,A,2,conjunction_syn,L1,syncopated,s2,r1,41,Online_conjL1_syn//b.ta.be17.none.none.wav,zu,lu,ze,pu,sil,la,cho,ki,sil1,fa,sil2,['-'],,,none,none,,,,ta,1,,,,,,,,,,,,,,,3 ,3.0,Castellano,0.0,Ingles,5.0,Catalan,10.0,4.0,3.0,yes,no,no,Canto,5,Piano,5,,,Nada,75.0,yes
170,2024-02-19_20h04.52.495,Unsyncopated_study2,s114,18.0,feminino,right,Espana,Espanol,Upper secondary,no,no,A,2,conjunction_syn,L1,syncopated,s2,r2,42,Online_conjL1_syn//b.ta.be19.666.1554.wav,fa,la,ni,ta,sil,cho,ne,be,sil1,ri,sil2,"['false alarm', 'catch', 'false alarm']","[0.040600000001404624, 0.9116999999992004, 1.580199999999195]",[0.9116999999992004],0.666,no_beat,0.2456999999992003,0.2456999999992003,"[""space"",""space"",""space""]",ta,1,,,,,,,,,,,,,,,3 ,3.0,Castellano,0.0,Ingles,5.0,Catalan,10.0,4.0,3.0,yes,no,no,Canto,5,Piano,5,,,Nada,75.0,yes
171,2024-02-19_20h04.52.495,Unsyncopated_study2,s114,18.0,feminino,right,Espana,Espanol,Upper secondary,no,no,A,2,conjunction_syn,L1,syncopated,s2,r2,43,Online_conjL1_syn//b.ta.be16.666.1554.wav,ro,ne,lu,ta,sil,la,ri,be,sil1,fo,sil2,['catch'],[1.3706999999992604],[1.3706999999992604],0.666,no_beat,0.7046999999992604,0.7046999999992604,"[""space""]",ta,1,,,,,,,,,,,,,,,3 ,3.0,Castellano,0.0,Ingles,5.0,Catalan,10.0,4.0,3.0,yes,no,no,Canto,5,Piano,5,,,Nada,75.0,yes
172,2024-02-19_20h04.52.495,Unsyncopated_study2,s114,18.0,feminino,right,Espana,Espanol,Upper secondary,no,no,A,2,conjunction_syn,L1,syncopated,s1,r1,44,Online_conjL1_syn//a.pu.ki11.0.666.wav,pu,fa,ri,ki,sil,lu,cho,zu,sil1,ni,sil2,['catch'],[1.5368000000007669],[1.5368000000007669],0.666,no_beat,0.8708000000007668,0.8708000000007668,"[""space""]",ki,2,,,,,,,,,,,,,,,3 ,3.0,Castellano,0.0,Ingles,5.0,Catalan,10.0,4.0,3.0,yes,no,no,Canto,5,Piano,5,,,Nada,75.0,yes
173,2024-02-19_20h04.52.495,Unsyncopated_study2,s114,18.0,feminino,right,Espana,Espanol,Upper secondary,no,no,A,2,conjunction_syn,L1,syncopated,s2,r2,45,Online_conjL1_syn//a.pu.ki9.none.none.wav,fa,ne,cho,ta,sil,ni,zu,be,sil1,lu,sil2,['-'],,,none,none,,,,ki,2,,,,,,,,,,,,,,,3 ,3.0,Castellano,0.0,Ingles,5.0,Catalan,10.0,4.0,3.0,yes,no,no,Canto,5,Piano,5,,,Nada,75.0,yes
174,2024-02-19_20h04.52.495,Unsyncopated_study2,s114,18.0,feminino,right,Espana,Espanol,Upper secondary,no,no,A,2,conjunction_syn,L1,syncopated,s1,r1,46,Online_conjL1_syn//a.pu.ki8.0.666.wav,pu,ze,ni,ki,sil,ne,ro,ri,sil1,fa,sil2,['catch'],[1.2778999999984535],[1.2778999999984535],0.666,no_beat,0.6118999999984535,0.6118999999984535,"[""space""]",ki,2,,,,,,,,,,,,,,,3 ,3.0,Castellano,0.0,Ingles,5.0,Catalan,10.0,4.0,3.0,yes,no,no,Canto,5,Piano,5,,,Nada,75.0,yes
175,2024-02-19_20h04.52.495,Unsyncopated_study2,s114,18.0,feminino,right,Espana,Espanol,Upper secondary,no,no,A,2,conjunction_syn,L1,syncopated,s1,r1,47,Online_conjL1_syn//a.pu.ki10.0.666.wav,pu,ro,cho,ki,sil,zu,la,fa,sil1,ne,sil2,['catch'],[1.7961999999993168],[1.7961999999993168],0.666,no_beat,1.1301999999993169,1.1301999999993169,"[""space""]",ki,2,,,,,,,,,,,,,,,3 ,3.0,Castellano,0.0,Ingles,5.0,Catalan,10.0,4.0,3.0,yes,no,no,Canto,5,Piano,5,,,Nada,75.0,yes
176,2024-02-19_20h04.52.495,Unsyncopated_study2,s114,18.0,feminino,right,Espana,Espanol,Upper secondary,no,no,A,2,conjunction_syn,L1,syncopated,s2,r2,48,Online_conjL1_syn//c.ro.fo31.none.none.wav,ri,fa,la,ta,sil,lu,ne,be,sil1,zu,sil2,['-'],,,none,none,,,,ro,3,,,,,,,,,,,,,,,3 ,3.0,Castellano,0.0,Ingles,5.0,Catalan,10.0,4.0,3.0,yes,no,no,Canto,5,Piano,5,,,Nada,75.0,yes
177,2024-02-19_20h04.52.495,Unsyncopated_study2,s114,18.0,feminino,right,Espana,Espanol,Upper secondary,no,no,A,2,conjunction_syn,L1,syncopated,s1,r2,49,Online_conjL1_syn//c.ro.fo29.none.none.wav,ta,zu,ri,be,sil,la,ni,fa,sil1,lu,sil2,['false alarm'],[1.7274999999999636],[1.7274999999999636],none,none,,,"[""space""]",ro,3,,,,,,,,,,,,,,,3 ,3.0,Castellano,0.0,Ingles,5.0,Catalan,10.0,4.0,3.0,yes,no,no,Canto,5,Piano,5,,,Nada,75.0,yes
178,2024-02-19_20h04.52.495,Unsyncopated_study2,s114,18.0,feminino,right,Espana,Espanol,Upper secondary,no,no,A,2,conjunction_syn,L1,syncopated,s2,r2,50,Online_conjL1_syn//c.ro.fo30.1110.0.wav,fo,ze,fa,ta,sil,ro,ri,be,sil1,ni,sil2,['catch'],[1.951699999999164],[1.951699999999164],1.11,no_beat,0.8416999999991639,0.8416999999991639,"[""space""]",ro,3,,,,,,,,,,,,,,,3 ,3.0,Castellano,0.0,Ingles,5.0,Catalan,10.0,4.0,3.0,yes,no,no,Canto,5,Piano,5,,,Nada,75.0,yes
179,2024-02-19_20h04.52.495,Unsyncopated_study2,s114,18.0,feminino,right,Espana,Espanol,Upper secondary,no,no,A,2,conjunction_syn,L1,syncopated,s1,r1,51,Online_conjL1_syn//c.ro.fo28.none.none.wav,pu,ni,lu,ki,sil,ne,la,ze,sil1,fa,sil2,['-'],,,none,none,,,,ro,3,,,,,,,,,,,,,,,3 ,3.0,Castellano,0.0,Ingles,5.0,Catalan,10.0,4.0,3.0,yes,no,no,Canto,5,Piano,5,,,Nada,75.0,yes
180,2024-02-19_20h04.52.495,Unsyncopated_study2,s114,18.0,feminino,right,Espana,Espanol,Upper secondary,no,no,A,2,conjunction_syn,L1,syncopated,s1,r2,52,Online_conjL1_syn//c.ro.fo23.1110.1332.wav,ta,ne,cho,be,sil,ro,fo,zu,sil1,ni,sil2,['catch'],[1.780300000000807],[1.780300000000807],1.11,no_beat,0.6703000000008068,0.6703000000008068,"[""space""]",ro,3,,,,,,,,,,,,,,,3 ,3.0,Castellano,0.0,Ingles,5.0,Catalan,10.0,4.0,3.0,yes,no,no,Canto,5,Piano,5,,,Nada,75.0,yes
181,2024-02-19_20h04.52.495,Unsyncopated_study2,s114,18.0,feminino,right,Espana,Espanol,Upper secondary,no,no,A,2,conjunction_syn,L1,syncopated,s1,r1,53,Online_conjL1_syn//c.ro.fo22.none.none.wav,pu,fa,cho,ki,sil,ne,la,ni,sil1,ze,sil2,['-'],,,none,none,,,,ro,3,,,,,,,,,,,,,,,3 ,3.0,Castellano,0.0,Ingles,5.0,Catalan,10.0,4.0,3.0,yes,no,no,Canto,5,Piano,5,,,Nada,75.0,yes
182,2024-02-19_20h04.52.495,Unsyncopated_study2,s114,18.0,feminino,right,Espana,Espanol,Upper secondary,no,no,A,2,conjunction_syn,L1,syncopated,s2,r1,54,Online_conjL1_syn//c.ro.fo20.none.none.wav,lu,ne,la,pu,sil,zu,cho,ki,sil1,ni,sil2,['-'],,,none,none,,,,ro,3,,,,,,,,,,,,,,,3 ,3.0,Castellano,0.0,Ingles,5.0,Catalan,10.0,4.0,3.0,yes,no,no,Canto,5,Piano,5,,,Nada,75.0,yes
183,2024-02-19_20h04.52.495,Unsyncopated_study2,s114,18.0,feminino,right,Espana,Espanol,Upper secondary,no,no,A,2,conjunction_syn,L1,syncopated,s2,r2,55,Online_conjL1_syn//c.ro.fo21.none.none.wav,ze,zu,la,ta,sil,ne,cho,be,sil1,ni,sil2,['-'],,,none,none,,,,ro,3,,,,,,,,,,,,,,,3 ,3.0,Castellano,0.0,Ingles,5.0,Catalan,10.0,4.0,3.0,yes,no,no,Canto,5,Piano,5,,,Nada,75.0,yes
184,2024-02-19_20h04.52.495,Unsyncopated_study2,s114,18.0,feminino,right,Espana,Espanol,Upper secondary,no,no,A,2,conjunction_syn,L1,syncopated,s1,r1,56,Online_conjL1_syn//b.ta.be12.none.none.wav,pu,ro,lu,ki,sil,ri,fa,ni,sil1,cho,sil2,['false alarm'],[2.217200000003004],[2.217200000003004],none,none,,,"[""space""]",ta,1,,,,,,,,,,,,,,,3 ,3.0,Castellano,0.0,Ingles,5.0,Catalan,10.0,4.0,3.0,yes,no,no,Canto,5,Piano,5,,,Nada,75.0,yes
185,2024-02-19_20h04.52.495,Unsyncopated_study2,s114,18.0,feminino,right,Espana,Espanol,Upper secondary,no,no,A,2,conjunction_syn,L1,syncopated,s1,r2,57,Online_conjL1_syn//b.ta.be14.0.666.wav,ta,la,fa,be,sil,ni,fo,ro,sil1,lu,sil2,['catch'],[0.6613999999983662],[0.6613999999983662],0.0,beat,0.6613999999983662,0.6613999999983662,"[""space""]",ta,1,,,,,,,,,,,,,,,3 ,3.0,Castellano,0.0,Ingles,5.0,Catalan,10.0,4.0,3.0,yes,no,no,Canto,5,Piano,5,,,Nada,75.0,yes
186,2024-02-19_20h04.52.495,Unsyncopated_study2,s114,18.0,feminino,right,Espana,Espanol,Upper secondary,no,no,A,2,conjunction_syn,L1,syncopated,s2,r1,58,Online_conjL1_syn//b.ta.be15.none.none.wav,la,ni,lu,pu,sil,ri,cho,ki,sil1,fa,sil2,['-'],,,none,none,,,,ta,1,,,,,,,,,,,,,,,3 ,3.0,Castellano,0.0,Ingles,5.0,Catalan,10.0,4.0,3.0,yes,no,no,Canto,5,Piano,5,,,Nada,75.0,yes
187,2024-02-19_20h04.52.495,Unsyncopated_study2,s114,18.0,feminino,right,Espana,Espanol,Upper secondary,no,no,A,2,conjunction_syn,L1,syncopated,s1,r2,59,Online_conjL1_syn//b.ta.be13.0.666.wav,ta,ni,fo,be,sil,ze,ne,fa,sil1,ri,sil2,"['catch', 'false alarm']","[0.029199999999264037, 0.8918000000007851]",[0.029199999999264037],0.0,beat,0.029199999999264,0.029199999999264,"[""space"",""space""]",ta,1,,,,,,,,,,,,,,,3 ,3.0,Castellano,0.0,Ingles,5.0,Catalan,10.0,4.0,3.0,yes,no,no,Canto,5,Piano,5,,,Nada,75.0,yes
188,2024-02-19_20h04.52.495,Unsyncopated_study2,s114,18.0,feminino,right,Espana,Espanol,Upper secondary,no,no,A,2,conjunction_syn,L1,syncopated,s1,r2,60,Online_conjL1_syn//d.ne.ni10.none.none.wav,ta,ze,fo,be,sil,ro,zu,ri,sil1,lu,sil2,['-'],,,none,none,,,,ne,4,,,,,,,,,,,,,,,3 ,3.0,Castellano,0.0,Ingles,5.0,Catalan,10.0,4.0,3.0,yes,no,no,Canto,5,Piano,5,,,Nada,75.0,yes
189,2024-02-19_20h04.52.495,Unsyncopated_study2,s114,18.0,feminino,right,Espana,Espanol,Upper secondary,no,no,A,2,conjunction_syn,L1,syncopated,s2,r1,61,Online_conjL1_syn//d.ne.ni8.222.444.wav,fo,ne,ni,pu,sil,ri,ze,ki,sil1,ro,sil2,['miss'],,,0.222,no_beat,,,,ne,4,,,,,,,,,,,,,,,3 ,3.0,Castellano,0.0,Ingles,5.0,Catalan,10.0,4.0,3.0,yes,no,no,Canto,5,Piano,5,,,Nada,75.0,yes
190,2024-02-19_20h04.52.495,Unsyncopated_study2,s114,18.0,feminino,right,Espana,Espanol,Upper secondary,no,no,A,2,conjunction_syn,L1,syncopated,s2,r2,62,Online_conjL1_syn//d.ne.ni9.0.444.wav,ne,fo,ni,ta,sil,lu,ri,be,sil1,cho,sil2,['catch'],[0.8848000000009506],[0.8848000000009506],0.0,beat,0.8848000000009506,0.8848000000009506,"[""space""]",ne,4,,,,,,,,,,,,,,,3 ,3.0,Castellano,0.0,Ingles,5.0,Catalan,10.0,4.0,3.0,yes,no,no,Canto,5,Piano,5,,,Nada,75.0,yes
191,2024-02-19_20h04.52.495,Unsyncopated_study2,s114,18.0,feminino,right,Espana,Espanol,Upper secondary,no,no,A,2,conjunction_syn,L1,syncopated,s1,r1,63,Online_conjL1_syn//d.ne.ni11.222.1332.wav,pu,ne,ri,ki,sil,la,ni,cho,sil1,ro,sil2,['catch'],[1.3430000000000746],[1.3430000000000746],0.222,no_beat,1.1210000000000746,1.1210000000000746,"[""space""]",ne,4,,,,,,,,,,,,,,,3 ,3.0,Castellano,0.0,Ingles,5.0,Catalan,10.0,4.0,3.0,yes,no,no,Canto,5,Piano,5,,,Nada,75.0,yes
192,2024-02-19_20h04.52.495,Unsyncopated_study2,s114,18.0,feminino,right,Espana,Espanol,Upper secondary,no,no,A,2,conjunction_syn,L1,syncopated,s2,r2,64,Online_conjL1_syn//d.ne.ni24.none.none.wav,lu,ro,la,ta,sil,fa,fo,be,sil1,zu,sil2,['-'],,,none,none,,,,ne,4,,,,,,,,,,,,,,,3 ,3.0,Castellano,0.0,Ingles,5.0,Catalan,10.0,4.0,3.0,yes,no,no,Canto,5,Piano,5,,,Nada,75.0,yes
193,2024-02-19_20h04.52.495,Unsyncopated_study2,s114,18.0,feminino,right,Espana,Espanol,Upper secondary,no,no,A,2,conjunction_syn,L1,syncopated,s1,r2,65,Online_conjL1_syn//d.ne.ni25.222.1110.wav,ta,ne,ze,be,sil,ni,cho,la,sil1,lu,sil2,['miss'],,,0.222,no_beat,,,,ne,4,,,,,,,,,,,,,,,3 ,3.0,Castellano,0.0,Ingles,5.0,Catalan,10.0,4.0,3.0,yes,no,no,Canto,5,Piano,5,,,Nada,75.0,yes
194,2024-02-19_20h04.52.495,Unsyncopated_study2,s114,18.0,feminino,right,Espana,Espanol,Upper secondary,no,no,A,2,conjunction_syn,L1,syncopated,s1,r2,66,Online_conjL1_syn//d.ne.ni27.none.none.wav,ta,la,fo,be,sil,zu,cho,ze,sil1,ri,sil2,['-'],,,none,none,,,,ne,4,,,,,,,,,,,,,,,3 ,3.0,Castellano,0.0,Ingles,5.0,Catalan,10.0,4.0,3.0,yes,no,no,Canto,5,Piano,5,,,Nada,75.0,yes
195,2024-02-19_20h04.52.495,Unsyncopated_study2,s114,18.0,feminino,right,Espana,Espanol,Upper secondary,no,no,A,2,conjunction_syn,L1,syncopated,s2,r1,67,Online_conjL1_syn//d.ne.ni26.none.none.wav,ze,zu,fa,pu,sil,cho,lu,ki,sil1,fo,sil2,['-'],,,none,none,,,,ne,4,,,,,,,,,,,,,,,3 ,3.0,Castellano,0.0,Ingles,5.0,Catalan,10.0,4.0,3.0,yes,no,no,Canto,5,Piano,5,,,Nada,75.0,yes
196,2024-02-19_20h04.52.495,Unsyncopated_study2,s114,18.0,feminino,right,Espana,Espanol,Upper secondary,no,no,A,2,conjunction_syn,L1,syncopated,s2,r2,68,Online_conjL1_syn//d.ne.ni20.none.none.wav,ze,lu,ro,ta,sil,fa,ri,be,sil1,cho,sil2,['-'],,,none,none,,,,ne,4,,,,,,,,,,,,,,,3 ,3.0,Castellano,0.0,Ingles,5.0,Catalan,10.0,4.0,3.0,yes,no,no,Canto,5,Piano,5,,,Nada,75.0,yes
197,2024-02-19_20h04.52.495,Unsyncopated_study2,s114,18.0,feminino,right,Espana,Espanol,Upper secondary,no,no,A,2,conjunction_syn,L1,syncopated,s2,r1,69,Online_conjL1_syn//d.ne.ni23.0.444.wav,ne,fo,ni,pu,sil,ri,fa,ki,sil1,lu,sil2,['catch'],[1.6030000000000655],[1.6030000000000655],0.0,beat,,1.6030000000000657,"[""space""]",ne,4,,,,,,,,,,,,,,,3 ,3.0,Castellano,0.0,Ingles,5.0,Catalan,10.0,4.0,3.0,yes,no,no,Canto,5,Piano,5,,,Nada,75.0,yes
198,2024-02-19_20h04.52.495,Unsyncopated_study2,s114,18.0,feminino,right,Espana,Espanol,Upper secondary,no,no,A,2,conjunction_syn,L1,syncopated,s1,r1,70,Online_conjL1_syn//d.ne.ni21.none.none.wav,pu,lu,fo,ki,sil,ze,cho,ro,sil1,zu,sil2,['-'],,,none,none,,,,ne,4,,,,,,,,,,,,,,,3 ,3.0,Castellano,0.0,Ingles,5.0,Catalan,10.0,4.0,3.0,yes,no,no,Canto,5,Piano,5,,,Nada,75.0,yes
199,2024-02-19_20h04.52.495,Unsyncopated_study2,s114,18.0,feminino,right,Espana,Espanol,Upper secondary,no,no,A,2,conjunction_syn,L1,syncopated,s2,r2,71,Online_conjL1_syn//d.ne.ni22.1110.0.wav,ni,ze,lu,ta,sil,ne,cho,be,sil1,zu,sil2,['miss'],,,1.11,no_beat,,,,ne,4,,,,,,,,,,,,,,,3 ,3.0,Castellano,0.0,Ingles,5.0,Catalan,10.0,4.0,3.0,yes,no,no,Canto,5,Piano,5,,,Nada,75.0,yes
200,2024-02-19_20h04.52.495,Unsyncopated_study2,s114,18.0,feminino,right,Espana,Espanol,Upper secondary,no,no,A,2,conjunction_syn,L1,syncopated,s1,r2,72,Online_conjL1_syn//b.ta.be8.0.666.wav,ta,la,zu,be,sil,ro,cho,ze,sil1,lu,sil2,['catch'],[0.755500000000211],[0.755500000000211],0.0,beat,0.755500000000211,0.755500000000211,"[""space""]",ta,1,,,,,,,,,,,,,,,3 ,3.0,Castellano,0.0,Ingles,5.0,Catalan,10.0,4.0,3.0,yes,no,no,Canto,5,Piano,5,,,Nada,75.0,yes
201,2024-02-19_20h04.52.495,Unsyncopated_study2,s114,18.0,feminino,right,Espana,Espanol,Upper secondary,no,no,A,2,conjunction_syn,L1,syncopated,s1,r2,73,Online_conjL1_syn//b.ta.be10.0.666.wav,ta,cho,ri,be,sil,ni,zu,ze,sil1,ne,sil2,['catch'],[1.074999999999818],[1.074999999999818],0.0,beat,1.074999999999818,1.074999999999818,"[""space""]",ta,1,,,,,,,,,,,,,,,3 ,3.0,Castellano,0.0,Ingles,5.0,Catalan,10.0,4.0,3.0,yes,no,no,Canto,5,Piano,5,,,Nada,75.0,yes
202,2024-02-19_20h04.52.495,Unsyncopated_study2,s114,18.0,feminino,right,Espana,Espanol,Upper secondary,no,no,A,2,conjunction_syn,L1,syncopated,s2,r2,74,Online_conjL1_syn//b.ta.be9.666.1554.wav,la,lu,ne,ta,sil,ze,fo,be,sil1,zu,sil2,['catch'],[1.6431999999992968],[1.6431999999992968],0.666,no_beat,0.9771999999992969,0.9771999999992969,"[""space""]",ta,1,,,,,,,,,,,,,,,3 ,3.0,Castellano,0.0,Ingles,5.0,Catalan,10.0,4.0,3.0,yes,no,no,Canto,5,Piano,5,,,Nada,75.0,yes
203,2024-02-19_20h04.52.495,Unsyncopated_study2,s114,18.0,feminino,right,Espana,Espanol,Upper secondary,no,no,A,2,conjunction_syn,L1,syncopated,s1,r2,75,Online_conjL1_syn//b.ta.be11.0.666.wav,ta,zu,lu,be,sil,ni,ro,cho,sil1,fo,sil2,['catch'],[0.827300000000605],[0.827300000000605],0.0,beat,0.827300000000605,0.827300000000605,"[""space""]",ta,1,,,,,,,,,,,,,,,3 ,3.0,Castellano,0.0,Ingles,5.0,Catalan,10.0,4.0,3.0,yes,no,no,Canto,5,Piano,5,,,Nada,75.0,yes
204,2024-02-19_20h04.52.495,Unsyncopated_study2,s114,18.0,feminino,right,Espana,Espanol,Upper secondary,no,no,A,2,conjunction_syn,L1,syncopated,s2,r1,76,Online_conjL1_syn//c.ro.fo5.1332.0.wav,fo,zu,cho,pu,sil,ni,ro,ki,sil1,fa,sil2,['catch'],[2.0110000000001946],[2.0110000000001946],1.332,no_beat,0.6790000000001946,0.6790000000001946,"[""space""]",ro,3,,,,,,,,,,,,,,,3 ,3.0,Castellano,0.0,Ingles,5.0,Catalan,10.0,4.0,3.0,yes,no,no,Canto,5,Piano,5,,,Nada,75.0,yes
205,2024-02-19_20h04.52.495,Unsyncopated_study2,s114,18.0,feminino,right,Espana,Espanol,Upper secondary,no,no,A,2,conjunction_syn,L1,syncopated,s1,r1,77,Online_conjL1_syn//c.ro.fo7.none.none.wav,pu,zu,la,ki,sil,ze,ne,lu,sil1,ri,sil2,['-'],,,none,none,,,,ro,3,,,,,,,,,,,,,,,3 ,3.0,Castellano,0.0,Ingles,5.0,Catalan,10.0,4.0,3.0,yes,no,no,Canto,5,Piano,5,,,Nada,75.0,yes
206,2024-02-19_20h04.52.495,Unsyncopated_study2,s114,18.0,feminino,right,Espana,Espanol,Upper secondary,no,no,A,2,conjunction_syn,L1,syncopated,s1,r2,78,Online_conjL1_syn//c.ro.fo6.none.none.wav,ta,fa,ni,be,sil,la,ne,cho,sil1,ze,sil2,['-'],,,none,none,,,,ro,3,,,,,,,,,,,,,,,3 ,3.0,Castellano,0.0,Ingles,5.0,Catalan,10.0,4.0,3.0,yes,no,no,Canto,5,Piano,5,,,Nada,75.0,yes
207,2024-02-19_20h04.52.495,Unsyncopated_study2,s114,18.0,feminino,right,Espana,Espanol,Upper secondary,no,no,A,2,conjunction_syn,L1,syncopated,s1,r2,79,Online_conjL1_syn//c.ro.fo4.444.1110.wav,ta,ze,ro,be,sil,fo,ni,cho,sil1,zu,sil2,['catch'],[1.1456999999993513],[1.1456999999993513],0.444,no_beat,0.7016999999993514,0.7016999999993514,"[""space""]",ro,3,,,,,,,,,,,,,,,3 ,3.0,Castellano,0.0,Ingles,5.0,Catalan,10.0,4.0,3.0,yes,no,no,Canto,5,Piano,5,,,Nada,75.0,yes
208,2024-02-19_20h04.52.495,Unsyncopated_study2,s114,18.0,feminino,right,Espana,Espanol,Upper secondary,no,no,A,2,conjunction_syn,L1,syncopated,s2,r2,80,Online_conjL1_syn//b.ta.be1.666.1554.wav,ni,la,lu,ta,sil,cho,ro,be,sil1,ne,sil2,['catch'],[1.3857000000029984],[1.3857000000029984],0.666,no_beat,0.7197000000029984,0.7197000000029984,"[""space""]",ta,1,,,,,,,,,,,,,,,3 ,3.0,Castellano,0.0,Ingles,5.0,Catalan,10.0,4.0,3.0,yes,no,no,Canto,5,Piano,5,,,Nada,75.0,yes
209,2024-02-19_20h04.52.495,Unsyncopated_study2,s114,18.0,feminino,right,Espana,Espanol,Upper secondary,no,no,A,2,conjunction_syn,L1,syncopated,s2,r2,81,Online_conjL1_syn//b.ta.be0.666.1554.wav,cho,fa,fo,ta,sil,zu,la,be,sil1,ne,sil2,['catch'],[0.9047999999970671],[0.9047999999970671],0.666,no_beat,0.238799999997067,0.238799999997067,"[""space""]",ta,1,,,,,,,,,,,,,,,3 ,3.0,Castellano,0.0,Ingles,5.0,Catalan,10.0,4.0,3.0,yes,no,no,Canto,5,Piano,5,,,Nada,75.0,yes
210,2024-02-19_20h04.52.495,Unsyncopated_study2,s114,18.0,feminino,right,Espana,Espanol,Upper secondary,no,no,A,2,conjunction_syn,L1,syncopated,s2,r2,82,Online_conjL1_syn//b.ta.be3.666.1554.wav,lu,ro,zu,ta,sil,ne,fo,be,sil1,ni,sil2,['catch'],[1.2883999999985463],[1.2883999999985463],0.666,no_beat,0.6223999999985462,0.6223999999985462,"[""space""]",ta,1,,,,,,,,,,,,,,,3 ,3.0,Castellano,0.0,Ingles,5.0,Catalan,10.0,4.0,3.0,yes,no,no,Canto,5,Piano,5,,,Nada,75.0,yes
211,2024-02-19_20h04.52.495,Unsyncopated_study2,s114,18.0,feminino,right,Espana,Espanol,Upper secondary,no,no,A,2,conjunction_syn,L1,syncopated,s2,r1,83,Online_conjL1_syn//b.ta.be2.none.none.wav,ri,ne,fo,pu,sil,zu,la,ki,sil1,lu,sil2,['-'],,,none,none,,,,ta,1,,,,,,,,,,,,,,,3 ,3.0,Castellano,0.0,Ingles,5.0,Catalan,10.0,4.0,3.0,yes,no,no,Canto,5,Piano,5,,,Nada,75.0,yes
212,2024-02-19_20h04.52.495,Unsyncopated_study2,s114,18.0,feminino,right,Espana,Espanol,Upper secondary,no,no,A,2,conjunction_syn,L1,syncopated,s2,r2,84,Online_conjL1_syn//a.pu.ki16.none.none.wav,la,ze,fo,ta,sil,zu,lu,be,sil1,ne,sil2,['-'],,,none,none,,,,ki,2,,,,,,,,,,,,,,,3 ,3.0,Castellano,0.0,Ingles,5.0,Catalan,10.0,4.0,3.0,yes,no,no,Canto,5,Piano,5,,,Nada,75.0,yes
213,2024-02-19_20h04.52.495,Unsyncopated_study2,s114,18.0,feminino,right,Espana,Espanol,Upper secondary,no,no,A,2,conjunction_syn,L1,syncopated,s1,r2,85,Online_conjL1_syn//a.pu.ki19.none.none.wav,ta,fa,lu,be,sil,ne,fo,ri,sil1,ze,sil2,['-'],,,none,none,,,,ki,2,,,,,,,,,,,,,,,3 ,3.0,Castellano,0.0,Ingles,5.0,Catalan,10.0,4.0,3.0,yes,no,no,Canto,5,Piano,5,,,Nada,75.0,yes
214,2024-02-19_20h04.52.495,Unsyncopated_study2,s114,18.0,feminino,right,Espana,Espanol,Upper secondary,no,no,A,2,conjunction_syn,L1,syncopated,s2,r1,86,Online_conjL1_syn//a.pu.ki18.666.1554.wav,lu,ni,ri,pu,sil,ro,fo,ki,sil1,cho,sil2,['catch'],[2.538000000000011],[2.538000000000011],1.554,no_beat,0.9840000000000108,0.9840000000000108,"[""space""]",ki,2,,,,,,,,,,,,,,,3 ,3.0,Castellano,0.0,Ingles,5.0,Catalan,10.0,4.0,3.0,yes,no,no,Canto,5,Piano,5,,,Nada,75.0,yes
