Unnamed: 0,date,expName,participant,age,sex,hand,residence,native_lang,education_level,lang_deficit,aud_deficit,group,block,condition,language,rhythm,rule structure online,rule type online,order_trial_on,trial_online,s1,s2,s3,s4,s5,s6,s7,s8,s9,s10,s11,catch_syll_resp,rts_syll_catch,clean_rts,time_syll,beat_no_beat,catch_rtsTR,catch_rts,syllable_catch.keys,cond_syll,syll_to_catch,test_offline,block_off,condition_off,rhythm_off,rule,rule_str_off,rule_norule,conds_offline,language_off,Partz_no_partm.keys,Partz_no_partm.rt,security_1_7.keys,accuracy,security_1_7.rt,n_lang,n_lang_used,lang_1,age_l1,lang_2,age_l2,lang_3,age_l3,ability_learn_l2,tendence_mix_lan,music_experience,muisc_use,partiture,instr_1,age_M1,preguntas_musica1,BMRQ_answer.response,final comment,BMRQ_Score,bilingual
0,2024-04-11_13h38.23.410,Experiment4_uns,s170,22.0,feminino,right,España,Castellano y Catalan,Upper secondary,no,no,B,1,conjunction_un,L4,unsyncopated,s1,r2,0,Online_conjL4_un//b.ja.nu16.0.888.wav,ja,da,po,sil,nu,ru,bu,sil1,ci,de,sil2,['catch'],[1.575700000003053],[1.575700000003053],0.888,beat,0.687700000003053,0.687700000003053,"[""space""]",nu,2,testConjL4Uns//r1.s1.1.wav,1.0,conjunction_un,unsyncopated,a,s1,rule,rule,L4,z,2.9358,7.0,1.0,2.372,3.0,2.0,Castellano,0.0,Catalan,0.0,Inglés,6.0,3.0,3.0,yes,no,no,flauta,11,1. Cuando comparto música con alguien siento una complicidad especial con aquella persona.,3.0,Nada,63.0,yes
1,2024-04-11_13h38.23.410,Experiment4_uns,s170,22.0,feminino,right,España,Castellano y Catalan,Upper secondary,no,no,B,1,conjunction_un,L4,unsyncopated,s2,r1,1,Online_conjL4_un//b.ja.nu18.none.none.wav,re,ci,bu,sil,zi,ñi,ña,sil1,lo,pe,sil2,['-'],,,none,none,,,,nu,2,testConjL4Uns//cat_viol.r2.s2.0.wav,1.0,conjunction_un,unsyncopated,b,s2,no_rule,cat,L4,z,1.636,7.0,0.0,1.4381,3.0,2.0,Castellano,0.0,Catalan,0.0,Inglés,6.0,3.0,3.0,yes,no,no,flauta,11,2. En mi tiempo libre apenas escucho música.,4.0,Nada,63.0,yes
2,2024-04-11_13h38.23.410,Experiment4_uns,s170,22.0,feminino,right,España,Castellano y Catalan,Upper secondary,no,no,B,1,conjunction_un,L4,unsyncopated,s1,r1,2,Online_conjL4_un//b.ja.nu19.none.none.wav,zi,ña,pe,sil,lo,bu,ñi,sil1,da,ru,sil2,['-'],,,none,none,,,,nu,2,testConjL4Uns//dep_viol.r2.s2.0.wav,1.0,conjunction_un,unsyncopated,b,s2,no_rule,dep,L4,z,1.6838,7.0,0.0,2.431,3.0,2.0,Castellano,0.0,Catalan,0.0,Inglés,6.0,3.0,3.0,yes,no,no,flauta,11,3. Algunas canciones me ponen los pelos de punta,4.0,Nada,63.0,yes
3,2024-04-11_13h38.23.410,Experiment4_uns,s170,22.0,feminino,right,España,Castellano y Catalan,Upper secondary,no,no,B,1,conjunction_un,L4,unsyncopated,s1,r2,3,Online_conjL4_un//b.ja.nu17.0.888.wav,ja,da,ru,sil,nu,ña,ci,sil1,po,re,sil2,['catch'],[1.6455000000000837],[1.6455000000000837],0.888,beat,0.7575000000000837,0.7575000000000837,"[""space""]",nu,2,testConjL4Uns//cat_viol.r1.s2.0.wav,1.0,conjunction_un,unsyncopated,a,s2,no_rule,cat,L4,z,1.8056,5.0,0.0,1.1358,3.0,2.0,Castellano,0.0,Catalan,0.0,Inglés,6.0,3.0,3.0,yes,no,no,flauta,11,4. La música me hace compañía cuando estoy solo,3.0,Nada,63.0,yes
4,2024-04-11_13h38.23.410,Experiment4_uns,s170,22.0,feminino,right,España,Castellano y Catalan,Upper secondary,no,no,B,1,conjunction_un,L4,unsyncopated,s1,r2,4,Online_conjL4_un//c.bu.da6.1776.444.wav,ja,ru,da,sil,nu,ñi,ña,sil1,bu,re,sil2,['catch'],[1.3802000000030148],[1.3802000000030148],0.444,no_beat,0.9362000000030148,0.9362000000030148,"[""space""]",da,3,testConjL4Uns//time_viol.r1.s1.0.wav,1.0,conjunction_un,unsyncopated,a,s1,no_rule,time,L4,z,1.6187,6.0,0.0,0.9869,3.0,2.0,Castellano,0.0,Catalan,0.0,Inglés,6.0,3.0,3.0,yes,no,no,flauta,11,5. No me apetece bailar ni con la música que más me gusta,5.0,Nada,63.0,yes
5,2024-04-11_13h38.23.410,Experiment4_uns,s170,22.0,feminino,right,España,Castellano y Catalan,Upper secondary,no,no,B,1,conjunction_un,L4,unsyncopated,s2,r1,5,Online_conjL4_un//c.bu.da5.222.444.wav,po,bu,da,sil,zi,de,ci,sil1,lo,re,sil2,['catch'],[1.2897000000029948],[1.2897000000029948],0.444,no_beat,0.8457000000029948,0.8457000000029948,"[""space""]",da,3,testConjL4Uns//r1.s2.1.wav,1.0,conjunction_un,unsyncopated,a,s2,rule,rule,L4,z,0.957,4.0,1.0,0.2981,3.0,2.0,Castellano,0.0,Catalan,0.0,Inglés,6.0,3.0,3.0,yes,no,no,flauta,11,6. La música me hace conectar con la gente,3.0,Nada,63.0,yes
6,2024-04-11_13h38.23.410,Experiment4_uns,s170,22.0,feminino,right,España,Castellano y Catalan,Upper secondary,no,no,B,1,conjunction_un,L4,unsyncopated,s1,r1,6,Online_conjL4_un//c.bu.da7.none.none.wav,zi,re,po,sil,lo,bo,ci,sil1,ña,de,sil2,['-'],,,none,none,,,,da,3,testConjL4Uns//r2.s1.2.wav,1.0,conjunction_un,unsyncopated,b,s1,rule,rule,L4,z,1.3525,4.0,1.0,0.9377,3.0,2.0,Castellano,0.0,Catalan,0.0,Inglés,6.0,3.0,3.0,yes,no,no,flauta,11,7. Me informo sobre la música que me gusta.,2.0,Nada,63.0,yes
7,2024-04-11_13h38.23.410,Experiment4_uns,s170,22.0,feminino,right,España,Castellano y Catalan,Upper secondary,no,no,B,1,conjunction_un,L4,unsyncopated,s1,r1,7,Online_conjL4_un//c.bu.da4.1776.1110.wav,zi,re,bo,sil,lo,da,ru,sil1,bu,de,sil2,['catch'],[1.8447000000030584],[1.8447000000030584],1.11,no_beat,0.7347000000030584,0.7347000000030584,"[""space""]",da,3,testConjL4Uns//time_viol.r1.s2.0.wav,1.0,conjunction_un,unsyncopated,a,s2,no_rule,time,L4,m,4.8408,2.0,1.0,2.2831,3.0,2.0,Castellano,0.0,Catalan,0.0,Inglés,6.0,3.0,3.0,yes,no,no,flauta,11,8.Me emociono escuchando ciertas canciones.,4.0,Nada,63.0,yes
8,2024-04-11_13h38.23.410,Experiment4_uns,s170,22.0,feminino,right,España,Castellano y Catalan,Upper secondary,no,no,B,1,conjunction_un,L4,unsyncopated,s1,r1,8,Online_conjL4_un//c.bu.da26.444.1110.wav,zi,po,bu,sil,lo,da,ci,sil1,de,ñi,sil2,['catch'],[1.6909000000059677],[1.6909000000059677],1.11,no_beat,0.5809000000059676,0.5809000000059676,"[""space""]",da,3,testConjL4Uns//r2.s2.1.wav,1.0,conjunction_un,unsyncopated,b,s2,rule,rule,L4,m,1.5556,2.0,0.0,1.5014,3.0,2.0,Castellano,0.0,Catalan,0.0,Inglés,6.0,3.0,3.0,yes,no,no,flauta,11,9.La música me tranquiliza y me relaja.,3.0,Nada,63.0,yes
9,2024-04-11_13h38.23.410,Experiment4_uns,s170,22.0,feminino,right,España,Castellano y Catalan,Upper secondary,no,no,B,1,conjunction_un,L4,unsyncopated,s1,r2,9,Online_conjL4_un//c.bu.da24.none.none.wav,ja,po,ci,sil,nu,ña,ru,sil1,re,bo,sil2,['-'],,,none,none,,,,da,3,testConjL4Uns//r1.s1.0.wav,1.0,conjunction_un,unsyncopated,a,s1,rule,rule,L4,m,0.8357,4.0,0.0,1.2526,3.0,2.0,Castellano,0.0,Catalan,0.0,Inglés,6.0,3.0,3.0,yes,no,no,flauta,11,10.La música me hace bailar,3.0,Nada,63.0,yes
10,2024-04-11_13h38.23.410,Experiment4_uns,s170,22.0,feminino,right,España,Castellano y Catalan,Upper secondary,no,no,B,1,conjunction_un,L4,unsyncopated,s2,r1,10,Online_conjL4_un//c.bu.da27.0.444.wav,bu,po,da,sil,zi,re,pe,sil1,lo,bo,sil2,['catch'],[1.1747000000029857],[1.1747000000029857],0.444,no_beat,0.7307000000029857,0.7307000000029857,"[""space""]",da,3,testConjL4Uns//cat_viol.r2.s1.0.wav,1.0,conjunction_un,unsyncopated,b,s1,no_rule,cat,L4,z,1.6875,3.0,0.0,1.051,3.0,2.0,Castellano,0.0,Catalan,0.0,Inglés,6.0,3.0,3.0,yes,no,no,flauta,11,11.Busco novedades musicales continuamente,1.0,Nada,63.0,yes
11,2024-04-11_13h38.23.410,Experiment4_uns,s170,22.0,feminino,right,España,Castellano y Catalan,Upper secondary,no,no,B,1,conjunction_un,L4,unsyncopated,s2,r1,11,Online_conjL4_un//c.bu.da25.444.1110.wav,ru,de,bu,sil,zi,da,ñi,sil1,lo,ña,sil2,['catch'],[1.905600000008917],[1.905600000008917],1.11,no_beat,0.795600000008917,0.795600000008917,"[""space""]",da,3,testConjL4Uns//r1.s1.2.wav,1.0,conjunction_un,unsyncopated,a,s1,rule,rule,L4,z,0.833,6.0,1.0,0.6209,3.0,2.0,Castellano,0.0,Catalan,0.0,Inglés,6.0,3.0,3.0,yes,no,no,flauta,11,12. Puedo llorar cuando escucho algunas melodías que me gustan mucho.,4.0,Nada,63.0,yes
12,2024-04-11_13h38.23.410,Experiment4_uns,s170,22.0,feminino,right,España,Castellano y Catalan,Upper secondary,no,no,B,1,conjunction_un,L4,unsyncopated,s1,r1,12,Online_conjL4_un//b.ja.nu9.none.none.wav,zi,de,bu,sil,lo,bo,po,sil1,da,ñi,sil2,['-'],,,none,none,,,,nu,2,testConjL4Uns//time_viol.r2.s1.0.wav,1.0,conjunction_un,unsyncopated,b,s1,no_rule,time,L4,m,1.807,4.0,1.0,1.6221,3.0,2.0,Castellano,0.0,Catalan,0.0,Inglés,6.0,3.0,3.0,yes,no,no,flauta,11,13. Me gusta cantar o tocar un instrumento con más gente,4.0,Nada,63.0,yes
13,2024-04-11_13h38.23.410,Experiment4_uns,s170,22.0,feminino,right,España,Castellano y Catalan,Upper secondary,no,no,B,1,conjunction_un,L4,unsyncopated,s2,r1,13,Online_conjL4_un//b.ja.nu11.none.none.wav,ci,re,bu,sil,zi,da,ña,sil1,lo,ru,sil2,['-'],,,none,none,,,,nu,2,testConjL4Uns//r1.s2.0.wav,1.0,conjunction_un,unsyncopated,a,s2,rule,rule,L4,m,0.8503,1.0,0.0,0.3538,3.0,2.0,Castellano,0.0,Catalan,0.0,Inglés,6.0,3.0,3.0,yes,no,no,flauta,11,14. La música me ayuda a desconectar.,3.0,Nada,63.0,yes
14,2024-04-11_13h38.23.410,Experiment4_uns,s170,22.0,feminino,right,España,Castellano y Catalan,Upper secondary,no,no,B,1,conjunction_un,L4,unsyncopated,s2,r2,14,Online_conjL4_un//b.ja.nu8.888.1776.wav,po,ñi,re,sil,ja,de,da,sil1,nu,pe,sil2,['catch_delay'],[0.896200000002944],[0.896200000002944],1.776,beat,0.896200000002944,0.896200000002944,,nu,2,testConjL4Uns//dep_viol.r1.s1.0.wav,1.0,conjunction_un,unsyncopated,a,s1,no_rule,dep,L4,m,0.5137,3.0,1.0,0.3852,3.0,2.0,Castellano,0.0,Catalan,0.0,Inglés,6.0,3.0,3.0,yes,no,no,flauta,11,15. No puedo evitar tararear las canciones que me gustan cuando las escucho.,3.0,Nada,63.0,yes
15,2024-04-11_13h38.23.410,Experiment4_uns,s170,22.0,feminino,right,España,Castellano y Catalan,Upper secondary,no,no,B,1,conjunction_un,L4,unsyncopated,s2,r1,15,Online_conjL4_un//b.ja.nu10.none.none.wav,bu,da,de,sil,zi,ña,ñi,sil1,lo,ci,sil2,['-'],[0.008200000002943852],[0.008200000002943852],none,none,,,"[""space""]",nu,2,testConjL4Uns//dep_viol.r1.s2.0.wav,1.0,conjunction_un,unsyncopated,a,s2,no_rule,dep,L4,m,1.3052,5.0,1.0,1.5522,3.0,2.0,Castellano,0.0,Catalan,0.0,Inglés,6.0,3.0,3.0,yes,no,no,flauta,11,16. En los conciertos me siento en sintonía con los artistas y el público.,3.0,Nada,63.0,yes
16,2024-04-11_13h38.23.410,Experiment4_uns,s170,22.0,feminino,right,España,Castellano y Catalan,Upper secondary,no,no,B,1,conjunction_un,L4,unsyncopated,s1,r2,16,Online_conjL4_un//d.pe.po15.444.1332.wav,ja,bu,pe,sil,nu,ru,po,sil1,de,da,sil2,['catch'],[2.0034000000059677],[2.0034000000059677],1.332,no_beat,0.6714000000059677,0.6714000000059677,"[""space""]",po,4,testConjL4Uns//r2.s2.2.wav,1.0,conjunction_un,unsyncopated,b,s2,rule,rule,L4,m,0.6043,3.0,0.0,1.158,3.0,2.0,Castellano,0.0,Catalan,0.0,Inglés,6.0,3.0,3.0,yes,no,no,flauta,11,17. Me gasto bastante dinero en música y cosas relacionadas con la música.,3.0,Nada,63.0,yes
17,2024-04-11_13h38.23.410,Experiment4_uns,s170,22.0,feminino,right,España,Castellano y Catalan,Upper secondary,no,no,B,1,conjunction_un,L4,unsyncopated,s1,r1,17,Online_conjL4_un//d.pe.po14.none.none.wav,zi,bo,da,sil,lo,ña,ci,sil1,de,re,sil2,['-'],,,none,none,,,,po,4,testConjL4Uns//r2.s1.0.wav,1.0,conjunction_un,unsyncopated,b,s1,rule,rule,L4,m,0.7172,5.0,0.0,2.4052,3.0,2.0,Castellano,0.0,Catalan,0.0,Inglés,6.0,3.0,3.0,yes,no,no,flauta,11,18. Siento escalofríos cuando escucho una melodía que me gusta.,2.0,Nada,63.0,yes
18,2024-04-11_13h38.23.410,Experiment4_uns,s170,22.0,feminino,right,España,Castellano y Catalan,Upper secondary,no,no,B,1,conjunction_un,L4,unsyncopated,s1,r1,18,Online_conjL4_un//d.pe.po13.1776.1110.wav,zi,ña,ñi,sil,lo,po,bu,sil1,pe,de,sil2,['catch'],[1.9255999999940059],[1.9255999999940059],1.11,no_beat,0.8155999999940058,0.8155999999940058,"[""space""]",po,4,testConjL4Uns//r2.s2.0.wav,1.0,conjunction_un,unsyncopated,b,s2,rule,rule,L4,m,0.7263,6.0,0.0,0.3597,3.0,2.0,Castellano,0.0,Catalan,0.0,Inglés,6.0,3.0,3.0,yes,no,no,flauta,11,19. Con la música me puedo desahogar.,3.0,Nada,63.0,yes
19,2024-04-11_13h38.23.410,Experiment4_uns,s170,22.0,feminino,right,España,Castellano y Catalan,Upper secondary,no,no,B,1,conjunction_un,L4,unsyncopated,s2,r2,19,Online_conjL4_un//d.pe.po12.none.none.wav,da,ñi,bo,sil,ja,ña,ru,sil1,nu,bu,sil2,['-'],,,none,none,,,,po,4,testConjL4Uns//time_viol.r2.s2.0.wav,1.0,conjunction_un,unsyncopated,b,s2,no_rule,time,L4,m,9.1411,3.0,1.0,2.1574,3.0,2.0,Castellano,0.0,Catalan,0.0,Inglés,6.0,3.0,3.0,yes,no,no,flauta,11,20. Cuando escucho una melodía que me gusta mucho no puedo evitar mover el cuerpo.,3.0,Nada,63.0,yes
20,2024-04-11_13h38.23.410,Experiment4_uns,s170,22.0,feminino,right,España,Castellano y Catalan,Upper secondary,no,no,B,1,conjunction_un,L4,unsyncopated,s2,r1,20,Online_conjL4_un//a.zi.lo24.888.1776.wav,re,bo,po,sil,zi,da,ñi,sil1,lo,pe,sil2,['catch'],[1.5972999999970625],[1.5972999999970625],0.888,beat,0.7092999999970625,0.7092999999970625,"[""space""]",zi,1,testConjL4Uns//dep_viol.r2.s1.0.wav,1.0,conjunction_un,unsyncopated,b,s1,no_rule,dep,L4,m,0.5205,1.0,1.0,0.2507,3.0,2.0,Castellano,0.0,Catalan,0.0,Inglés,6.0,3.0,3.0,yes,no,no,flauta,11,,,Nada,63.0,yes
21,2024-04-11_13h38.23.410,Experiment4_uns,s170,22.0,feminino,right,España,Castellano y Catalan,Upper secondary,no,no,B,1,conjunction_un,L4,unsyncopated,s2,r1,21,Online_conjL4_un//a.zi.lo25.888.1776.wav,bu,ña,de,sil,zi,ci,pe,sil1,lo,po,sil2,['catch'],[1.7070999999940568],[1.7070999999940568],0.888,beat,0.8190999999940568,0.8190999999940568,"[""space""]",zi,1,testConjL4Uns//r1.s2.2.wav,1.0,conjunction_un,unsyncopated,a,s2,rule,rule,L4,m,0.6388,4.0,0.0,0.2559,3.0,2.0,Castellano,0.0,Catalan,0.0,Inglés,6.0,3.0,3.0,yes,no,no,flauta,11,,,Nada,63.0,yes
22,2024-04-11_13h38.23.410,Experiment4_uns,s170,22.0,feminino,right,España,Castellano y Catalan,Upper secondary,no,no,B,1,conjunction_un,L4,unsyncopated,s1,r2,22,Online_conjL4_un//a.zi.lo27.none.none.wav,ja,ña,bu,sil,nu,ñi,re,sil1,pe,po,sil2,['-'],,,none,none,,,,zi,1,testConjL4Uns//r2.s1.1.wav,1.0,conjunction_un,unsyncopated,b,s1,rule,rule,L4,m,0.8479,3.0,0.0,0.2638,3.0,2.0,Castellano,0.0,Catalan,0.0,Inglés,6.0,3.0,3.0,yes,no,no,flauta,11,,,Nada,63.0,yes
23,2024-04-11_13h38.23.410,Experiment4_uns,s170,22.0,feminino,right,España,Castellano y Catalan,Upper secondary,no,no,B,1,conjunction_un,L4,unsyncopated,s2,r1,23,Online_conjL4_un//a.zi.lo26.888.1776.wav,pe,bu,de,sil,zi,da,ñi,sil1,lo,bo,sil2,['catch'],[1.692200000002913],[1.692200000002913],0.888,beat,0.8042000000029129,0.8042000000029129,"[""space""]",zi,1,testConjL4Uns//cat_viol.r1.s1.0.wav,1.0,conjunction_un,unsyncopated,a,s1,no_rule,cat,L4,m,1.3548,2.0,1.0,2.5664,3.0,2.0,Castellano,0.0,Catalan,0.0,Inglés,6.0,3.0,3.0,yes,no,no,flauta,11,,,Nada,63.0,yes
24,2024-04-11_13h38.23.410,Experiment4_uns,s170,22.0,feminino,right,España,Castellano y Catalan,Upper secondary,no,no,B,1,conjunction_un,L4,unsyncopated,s1,r2,24,Online_conjL4_un//a.zi.lo19.none.none.wav,ja,bo,po,sil,nu,pe,re,sil1,ci,ña,sil2,['-'],,,none,none,,,,zi,1,testWhatL1Uns//r2.s1.0.wav,2.0,what,unsyncopated,b,s1,rule,rule,L1,z,3.2198,7.0,1.0,0.7211,3.0,2.0,Castellano,0.0,Catalan,0.0,Inglés,6.0,3.0,3.0,yes,no,no,flauta,11,,,Nada,63.0,yes
25,2024-04-11_13h38.23.410,Experiment4_uns,s170,22.0,feminino,right,España,Castellano y Catalan,Upper secondary,no,no,B,1,conjunction_un,L4,unsyncopated,s1,r1,25,Online_conjL4_un//a.zi.lo16.0.888.wav,zi,ci,ru,sil,lo,bu,de,sil1,da,po,sil2,['catch'],[0.7940000000000964],[0.7940000000000964],0.0,beat,0.7940000000000964,0.7940000000000964,"[""space""]",zi,1,testWhatL1Uns//r2.s2.0.wav,2.0,what,unsyncopated,b,s2,rule,rule,L1,z,0.6011,6.0,1.0,0.8369,3.0,2.0,Castellano,0.0,Catalan,0.0,Inglés,6.0,3.0,3.0,yes,no,no,flauta,11,,,Nada,63.0,yes
26,2024-04-11_13h38.23.410,Experiment4_uns,s170,22.0,feminino,right,España,Castellano y Catalan,Upper secondary,no,no,B,1,conjunction_un,L4,unsyncopated,s2,r2,26,Online_conjL4_un//a.zi.lo17.none.none.wav,re,pe,ru,sil,ja,bu,ña,sil1,nu,po,sil2,['-'],,,none,none,,,,zi,1,testWhatL1Uns//r2.s1.2.wav,2.0,what,unsyncopated,b,s1,rule,rule,L1,z,0.4037,7.0,1.0,0.2837,3.0,2.0,Castellano,0.0,Catalan,0.0,Inglés,6.0,3.0,3.0,yes,no,no,flauta,11,,,Nada,63.0,yes
27,2024-04-11_13h38.23.410,Experiment4_uns,s170,22.0,feminino,right,España,Castellano y Catalan,Upper secondary,no,no,B,1,conjunction_un,L4,unsyncopated,s2,r1,27,Online_conjL4_un//a.zi.lo18.888.1776.wav,po,da,ña,sil,zi,re,ci,sil1,lo,de,sil2,['catch'],[1.7253999999910548],[1.7253999999910548],0.888,beat,0.8373999999910547,0.8373999999910547,"[""space""]",zi,1,testWhatL1Uns//r2.s2.1.wav,2.0,what,unsyncopated,b,s2,rule,rule,L1,m,1.223,5.0,0.0,0.3303,3.0,2.0,Castellano,0.0,Catalan,0.0,Inglés,6.0,3.0,3.0,yes,no,no,flauta,11,,,Nada,63.0,yes
28,2024-04-11_13h38.23.410,Experiment4_uns,s170,22.0,feminino,right,España,Castellano y Catalan,Upper secondary,no,no,B,1,conjunction_un,L4,unsyncopated,s1,r2,28,Online_conjL4_un//c.bu.da12.1776.444.wav,ja,po,da,sil,nu,ñi,re,sil1,bu,de,sil2,['catch'],[1.2005999999939831],[1.2005999999939831],0.444,no_beat,0.7565999999939832,0.7565999999939832,"[""space""]",da,3,testWhatL1Uns//r1.s1.1.wav,2.0,what,unsyncopated,a,s1,rule,rule,L1,z,0.5646,6.0,1.0,0.2204,3.0,2.0,Castellano,0.0,Catalan,0.0,Inglés,6.0,3.0,3.0,yes,no,no,flauta,11,,,Nada,63.0,yes
29,2024-04-11_13h38.23.410,Experiment4_uns,s170,22.0,feminino,right,España,Castellano y Catalan,Upper secondary,no,no,B,1,conjunction_un,L4,unsyncopated,s2,r2,29,Online_conjL4_un//c.bu.da13.none.none.wav,pe,ru,de,sil,ja,re,bo,sil1,nu,ña,sil2,['-'],,,none,none,,,,da,3,testWhatL1Uns//r2.s2.2.wav,2.0,what,unsyncopated,b,s2,rule,rule,L1,m,0.7856,2.0,0.0,0.2181,3.0,2.0,Castellano,0.0,Catalan,0.0,Inglés,6.0,3.0,3.0,yes,no,no,flauta,11,,,Nada,63.0,yes
30,2024-04-11_13h38.23.410,Experiment4_uns,s170,22.0,feminino,right,España,Castellano y Catalan,Upper secondary,no,no,B,1,conjunction_un,L4,unsyncopated,s2,r1,30,Online_conjL4_un//c.bu.da14.none.none.wav,po,ru,pe,sil,zi,ñi,de,sil1,lo,ña,sil2,['-'],,,none,none,,,,da,3,testWhatL1Uns//r1.s1.0.wav,2.0,what,unsyncopated,a,s1,rule,rule,L1,z,0.7001,6.0,1.0,0.2805,3.0,2.0,Castellano,0.0,Catalan,0.0,Inglés,6.0,3.0,3.0,yes,no,no,flauta,11,,,Nada,63.0,yes
31,2024-04-11_13h38.23.410,Experiment4_uns,s170,22.0,feminino,right,España,Castellano y Catalan,Upper secondary,no,no,B,1,conjunction_un,L4,unsyncopated,s2,r2,31,Online_conjL4_un//c.bu.da15.222.1110.wav,ñi,bu,po,sil,ja,da,re,sil1,nu,pe,sil2,['catch'],[1.9312000000030594],[1.9312000000030594],1.11,no_beat,0.8212000000030593,0.8212000000030593,"[""space""]",da,3,testWhatL1Uns//cat_viol.r1.s2.0.wav,2.0,what,unsyncopated,a,s2,no_rule,cat,L1,m,5.021,3.0,1.0,2.0465,3.0,2.0,Castellano,0.0,Catalan,0.0,Inglés,6.0,3.0,3.0,yes,no,no,flauta,11,,,Nada,63.0,yes
32,2024-04-11_13h38.23.410,Experiment4_uns,s170,22.0,feminino,right,España,Castellano y Catalan,Upper secondary,no,no,B,1,conjunction_un,L4,unsyncopated,s2,r1,32,Online_conjL4_un//b.ja.nu0.none.none.wav,de,ru,da,sil,zi,re,pe,sil1,lo,bu,sil2,['-'],,,none,none,,,,nu,2,testWhatL1Uns//cat_viol.r1.s1.0.wav,2.0,what,unsyncopated,a,s1,no_rule,cat,L1,z,0.405,2.0,0.0,0.3359,3.0,2.0,Castellano,0.0,Catalan,0.0,Inglés,6.0,3.0,3.0,yes,no,no,flauta,11,,,Nada,63.0,yes
33,2024-04-11_13h38.23.410,Experiment4_uns,s170,22.0,feminino,right,España,Castellano y Catalan,Upper secondary,no,no,B,1,conjunction_un,L4,unsyncopated,s2,r2,33,Online_conjL4_un//b.ja.nu2.888.1776.wav,po,ci,bu,sil,ja,pe,ru,sil1,nu,de,sil2,['catch'],[2.548599999994053],[2.548599999994053],1.776,beat,0.7725999999940532,0.7725999999940532,"[""space""]",nu,2,testWhatL1Uns//cat_viol.r2.s2.0.wav,2.0,what,unsyncopated,b,s2,no_rule,cat,L1,m,1.9047,4.0,1.0,0.1332,3.0,2.0,Castellano,0.0,Catalan,0.0,Inglés,6.0,3.0,3.0,yes,no,no,flauta,11,,,Nada,63.0,yes
34,2024-04-11_13h38.23.410,Experiment4_uns,s170,22.0,feminino,right,España,Castellano y Catalan,Upper secondary,no,no,B,1,conjunction_un,L4,unsyncopated,s1,r2,34,Online_conjL4_un//b.ja.nu3.0.888.wav,ja,ña,re,sil,nu,bo,po,sil1,ci,ñi,sil2,['catch'],[1.856199999988121],[1.856199999988121],0.888,beat,0.9681999999881208,0.9681999999881208,"[""space""]",nu,2,testWhatL1Uns//dep_viol.r2.s2.0.wav,2.0,what,unsyncopated,b,s2,no_rule,dep,L1,m,1.0049,2.0,1.0,0.0866,3.0,2.0,Castellano,0.0,Catalan,0.0,Inglés,6.0,3.0,3.0,yes,no,no,flauta,11,,,Nada,63.0,yes
35,2024-04-11_13h38.23.410,Experiment4_uns,s170,22.0,feminino,right,España,Castellano y Catalan,Upper secondary,no,no,B,1,conjunction_un,L4,unsyncopated,s2,r1,35,Online_conjL4_un//b.ja.nu1.none.none.wav,bo,ci,ru,sil,zi,re,da,sil1,lo,de,sil2,['-'],,,none,none,,,,nu,2,testWhatL1Uns//r1.s2.0.wav,2.0,what,unsyncopated,a,s2,rule,rule,L1,z,0.7221,5.0,1.0,0.8228,3.0,2.0,Castellano,0.0,Catalan,0.0,Inglés,6.0,3.0,3.0,yes,no,no,flauta,11,,,Nada,63.0,yes
36,2024-04-11_13h38.23.410,Experiment4_uns,s170,22.0,feminino,right,España,Castellano y Catalan,Upper secondary,no,no,B,1,conjunction_un,L4,unsyncopated,s1,r2,36,Online_conjL4_un//a.zi.lo29.none.none.wav,ja,ci,pe,sil,nu,ru,po,sil1,ñi,da,sil2,['-'],,,none,none,,,,zi,1,testWhatL1Uns//dep_viol.r1.s2.0.wav,2.0,what,unsyncopated,a,s2,no_rule,dep,L1,m,3.1147,4.0,1.0,0.1513,3.0,2.0,Castellano,0.0,Catalan,0.0,Inglés,6.0,3.0,3.0,yes,no,no,flauta,11,,,Nada,63.0,yes
37,2024-04-11_13h38.23.410,Experiment4_uns,s170,22.0,feminino,right,España,Castellano y Catalan,Upper secondary,no,no,B,1,conjunction_un,L4,unsyncopated,s1,r1,37,Online_conjL4_un//a.zi.lo28.0.888.wav,zi,da,bo,sil,lo,ña,po,sil1,de,pe,sil2,['catch'],[0.710599999993974],[0.710599999993974],0.0,beat,0.710599999993974,0.710599999993974,"[""space""]",zi,1,testWhatL1Uns//r1.s1.2.wav,2.0,what,unsyncopated,a,s1,rule,rule,L1,m,0.8679,3.0,0.0,0.2513,3.0,2.0,Castellano,0.0,Catalan,0.0,Inglés,6.0,3.0,3.0,yes,no,no,flauta,11,,,Nada,63.0,yes
38,2024-04-11_13h38.23.410,Experiment4_uns,s170,22.0,feminino,right,España,Castellano y Catalan,Upper secondary,no,no,B,1,conjunction_un,L4,unsyncopated,s1,r2,38,Online_conjL4_un//a.zi.lo31.none.none.wav,ja,ru,da,sil,nu,bu,ci,sil1,pe,re,sil2,['false alarm'],[1.6139000000059696],[1.6139000000059696],none,none,,,"[""space""]",zi,1,testWhatL1Uns//time_viol.r1.s1.0.wav,2.0,what,unsyncopated,a,s1,no_rule,time,L1,m,0.6836,3.0,1.0,0.2385,3.0,2.0,Castellano,0.0,Catalan,0.0,Inglés,6.0,3.0,3.0,yes,no,no,flauta,11,,,Nada,63.0,yes
39,2024-04-11_13h38.23.410,Experiment4_uns,s170,22.0,feminino,right,España,Castellano y Catalan,Upper secondary,no,no,B,1,conjunction_un,L4,unsyncopated,s1,r1,39,Online_conjL4_un//a.zi.lo30.0.888.wav,zi,ci,bu,sil,lo,ru,da,sil1,ñi,de,sil2,['miss'],,,0.0,beat,,,,zi,1,testWhatL1Uns//dep_viol.r2.s1.0.wav,2.0,what,unsyncopated,b,s1,no_rule,dep,L1,m,0.4009,5.0,1.0,0.1392,3.0,2.0,Castellano,0.0,Catalan,0.0,Inglés,6.0,3.0,3.0,yes,no,no,flauta,11,,,Nada,63.0,yes
40,2024-04-11_13h38.23.410,Experiment4_uns,s170,22.0,feminino,right,España,Castellano y Catalan,Upper secondary,no,no,B,1,conjunction_un,L4,unsyncopated,s1,r2,40,Online_conjL4_un//a.zi.lo4.none.none.wav,ja,da,ñi,sil,nu,pe,re,sil1,bu,bo,sil2,['-'],,,none,none,,,,zi,1,testWhatL1Uns//cat_viol.r2.s1.0.wav,2.0,what,unsyncopated,b,s1,no_rule,cat,L1,z,0.7827,2.0,0.0,0.6001,3.0,2.0,Castellano,0.0,Catalan,0.0,Inglés,6.0,3.0,3.0,yes,no,no,flauta,11,,,Nada,63.0,yes
41,2024-04-11_13h38.23.410,Experiment4_uns,s170,22.0,feminino,right,España,Castellano y Catalan,Upper secondary,no,no,B,1,conjunction_un,L4,unsyncopated,s2,r2,41,Online_conjL4_un//a.zi.lo5.none.none.wav,ñi,re,pe,sil,ja,da,ña,sil1,nu,bu,sil2,['-'],,,none,none,,,,zi,1,testWhatL1Uns//dep_viol.r1.s1.0.wav,2.0,what,unsyncopated,a,s1,no_rule,dep,L1,z,0.8484,1.0,0.0,0.2777,3.0,2.0,Castellano,0.0,Catalan,0.0,Inglés,6.0,3.0,3.0,yes,no,no,flauta,11,,,Nada,63.0,yes
42,2024-04-11_13h38.23.410,Experiment4_uns,s170,22.0,feminino,right,España,Castellano y Catalan,Upper secondary,no,no,B,1,conjunction_un,L4,unsyncopated,s1,r1,42,Online_conjL4_un//a.zi.lo6.0.888.wav,zi,da,po,sil,lo,de,ci,sil1,re,bo,sil2,['catch'],[0.9302000000029693],[0.9302000000029693],0.0,beat,0.9302000000029692,0.9302000000029692,"[""space""]",zi,1,testWhatL1Uns//r1.s2.2.wav,2.0,what,unsyncopated,a,s2,rule,rule,L1,m,0.717,4.0,0.0,0.1376,3.0,2.0,Castellano,0.0,Catalan,0.0,Inglés,6.0,3.0,3.0,yes,no,no,flauta,11,,,Nada,63.0,yes
43,2024-04-11_13h38.23.410,Experiment4_uns,s170,22.0,feminino,right,España,Castellano y Catalan,Upper secondary,no,no,B,1,conjunction_un,L4,unsyncopated,s1,r1,43,Online_conjL4_un//a.zi.lo7.0.888.wav,zi,ci,da,sil,lo,ñi,de,sil1,ru,po,sil2,['catch'],[0.92349999999999],[0.92349999999999],0.0,beat,0.92349999999999,0.92349999999999,"[""space""]",zi,1,testWhatL1Uns//r2.s1.1.wav,2.0,what,unsyncopated,b,s1,rule,rule,L1,m,1.2353,3.0,0.0,0.6839,3.0,2.0,Castellano,0.0,Catalan,0.0,Inglés,6.0,3.0,3.0,yes,no,no,flauta,11,,,Nada,63.0,yes
44,2024-04-11_13h38.23.410,Experiment4_uns,s170,22.0,feminino,right,España,Castellano y Catalan,Upper secondary,no,no,B,1,conjunction_un,L4,unsyncopated,s1,r1,44,Online_conjL4_un//b.ja.nu28.none.none.wav,zi,po,pe,sil,lo,bo,ñi,sil1,re,ci,sil2,['-'],,,none,none,,,,nu,2,testWhatL1Uns//r1.s2.1.wav,2.0,what,unsyncopated,a,s2,rule,rule,L1,m,1.7095,2.0,0.0,0.8371,3.0,2.0,Castellano,0.0,Catalan,0.0,Inglés,6.0,3.0,3.0,yes,no,no,flauta,11,,,Nada,63.0,yes
45,2024-04-11_13h38.23.410,Experiment4_uns,s170,22.0,feminino,right,España,Castellano y Catalan,Upper secondary,no,no,B,1,conjunction_un,L4,unsyncopated,s2,r1,45,Online_conjL4_un//b.ja.nu29.none.none.wav,ci,da,po,sil,zi,bu,de,sil1,lo,ña,sil2,['-'],,,none,none,,,,nu,2,testWhatL1Uns//time_viol.r2.s2.0.wav,2.0,what,unsyncopated,b,s2,no_rule,time,L1,m,0.8697,5.0,1.0,0.1996,3.0,2.0,Castellano,0.0,Catalan,0.0,Inglés,6.0,3.0,3.0,yes,no,no,flauta,11,,,Nada,63.0,yes
46,2024-04-11_13h38.23.410,Experiment4_uns,s170,22.0,feminino,right,España,Castellano y Catalan,Upper secondary,no,no,B,1,conjunction_un,L4,unsyncopated,s2,r2,46,Online_conjL4_un//b.ja.nu30.888.1776.wav,pe,re,ña,sil,ja,po,de,sil1,nu,da,sil2,['catch_delay'],[0.9190000000000629],[0.9190000000000629],1.776,beat,0.9190000000000628,0.9190000000000628,,nu,2,testWhatL1Uns//time_viol.r1.s2.0.wav,2.0,what,unsyncopated,a,s2,no_rule,time,L1,m,0.7999,7.0,1.0,1.2038,3.0,2.0,Castellano,0.0,Catalan,0.0,Inglés,6.0,3.0,3.0,yes,no,no,flauta,11,,,Nada,63.0,yes
47,2024-04-11_13h38.23.410,Experiment4_uns,s170,22.0,feminino,right,España,Castellano y Catalan,Upper secondary,no,no,B,1,conjunction_un,L4,unsyncopated,s2,r1,47,Online_conjL4_un//b.ja.nu31.none.none.wav,ru,pe,ñi,sil,zi,ña,da,sil1,lo,ci,sil2,['-'],[0.031000000000062755],[0.031000000000062755],none,none,,,"[""space""]",nu,2,testWhatL1Uns//time_viol.r2.s1.0.wav,2.0,what,unsyncopated,b,s1,no_rule,time,L1,m,0.4357,6.0,1.0,0.1607,3.0,2.0,Castellano,0.0,Catalan,0.0,Inglés,6.0,3.0,3.0,yes,no,no,flauta,11,,,Nada,63.0,yes
48,2024-04-11_13h38.23.410,Experiment4_uns,s170,22.0,feminino,right,España,Castellano y Catalan,Upper secondary,no,no,B,1,conjunction_un,L4,unsyncopated,s2,r2,48,Online_conjL4_un//c.bu.da8.1332.444.wav,ña,ñi,da,sil,ja,ru,bu,sil1,nu,ci,sil2,['catch'],[1.1861999999880481],[1.1861999999880481],0.444,no_beat,0.7421999999880482,0.7421999999880482,"[""space""]",da,3,testWhenL2Uns//r1.s2.1.wav,3.0,when,unsyncopated,a,s2,rule,rule,L2,z,1.4812,6.0,1.0,1.2808,3.0,2.0,Castellano,0.0,Catalan,0.0,Inglés,6.0,3.0,3.0,yes,no,no,flauta,11,,,Nada,63.0,yes
49,2024-04-11_13h38.23.410,Experiment4_uns,s170,22.0,feminino,right,España,Castellano y Catalan,Upper secondary,no,no,B,1,conjunction_un,L4,unsyncopated,s1,r2,49,Online_conjL4_un//c.bu.da9.none.none.wav,ja,re,ñi,sil,nu,ña,de,sil1,bo,po,sil2,['-'],,,none,none,,,,da,3,testWhenL2Uns//r1.s1.1.wav,3.0,when,unsyncopated,a,s1,rule,rule,L2,m,2.0088,2.0,0.0,0.3349,3.0,2.0,Castellano,0.0,Catalan,0.0,Inglés,6.0,3.0,3.0,yes,no,no,flauta,11,,,Nada,63.0,yes
50,2024-04-11_13h38.23.410,Experiment4_uns,s170,22.0,feminino,right,España,Castellano y Catalan,Upper secondary,no,no,B,1,conjunction_un,L4,unsyncopated,s1,r2,50,Online_conjL4_un//c.bu.da11.none.none.wav,ja,bo,ñi,sil,nu,pe,re,sil1,ci,ña,sil2,['-'],,,none,none,,,,da,3,testWhenL2Uns//r2.s2.2.wav,3.0,when,unsyncopated,b,s2,rule,rule,L2,m,1.189,2.0,0.0,0.3398,3.0,2.0,Castellano,0.0,Catalan,0.0,Inglés,6.0,3.0,3.0,yes,no,no,flauta,11,,,Nada,63.0,yes
51,2024-04-11_13h38.23.410,Experiment4_uns,s170,22.0,feminino,right,España,Castellano y Catalan,Upper secondary,no,no,B,1,conjunction_un,L4,unsyncopated,s2,r2,51,Online_conjL4_un//c.bu.da10.0.1110.wav,bu,po,ña,sil,ja,da,ru,sil1,nu,ñi,sil2,['catch'],[1.99899999999991],[1.99899999999991],1.11,no_beat,0.8889999999999099,0.8889999999999099,"[""space""]",da,3,testWhenL2Uns//time_viol.r2.s1.0.wav,3.0,when,unsyncopated,b,s1,no_rule,time,L2,z,0.9043,5.0,1.0,0.9817,3.0,2.0,Castellano,0.0,Catalan,0.0,Inglés,6.0,3.0,3.0,yes,no,no,flauta,11,,,Nada,63.0,yes
52,2024-04-11_13h38.23.410,Experiment4_uns,s170,22.0,feminino,right,España,Castellano y Catalan,Upper secondary,no,no,B,1,conjunction_un,L4,unsyncopated,s2,r1,52,Online_conjL4_un//d.pe.po22.none.none.wav,ñi,bu,de,sil,zi,bo,ña,sil1,lo,ci,sil2,['-'],,,none,none,,,,po,4,testWhenL2Uns//dep_viol.r1.s2.0.wav,3.0,when,unsyncopated,a,s2,no_rule,dep,L2,m,0.4339,1.0,0.0,0.2841,3.0,2.0,Castellano,0.0,Catalan,0.0,Inglés,6.0,3.0,3.0,yes,no,no,flauta,11,,,Nada,63.0,yes
53,2024-04-11_13h38.23.410,Experiment4_uns,s170,22.0,feminino,right,España,Castellano y Catalan,Upper secondary,no,no,B,1,conjunction_un,L4,unsyncopated,s2,r2,53,Online_conjL4_un//d.pe.po20.444.0.wav,po,bu,pe,sil,ja,ñi,ru,sil1,nu,bo,sil2,['catch'],[0.6905999999939922],[0.6905999999939922],0.0,beat,0.6905999999939922,0.6905999999939922,"[""space""]",po,4,testWhenL2Uns//r2.s1.2.wav,3.0,when,unsyncopated,b,s1,rule,rule,L2,m,1.4122,4.0,0.0,1.0867,3.0,2.0,Castellano,0.0,Catalan,0.0,Inglés,6.0,3.0,3.0,yes,no,no,flauta,11,,,Nada,63.0,yes
54,2024-04-11_13h38.23.410,Experiment4_uns,s170,22.0,feminino,right,España,Castellano y Catalan,Upper secondary,no,no,B,1,conjunction_un,L4,unsyncopated,s2,r2,54,Online_conjL4_un//d.pe.po23.none.none.wav,ru,ñi,re,sil,ja,de,bu,sil1,nu,ci,sil2,['-'],,,none,none,,,,po,4,testWhenL2Uns//dep_viol.r1.s1.0.wav,3.0,when,unsyncopated,a,s1,no_rule,dep,L2,m,0.8501,5.0,0.0,0.4791,3.0,2.0,Castellano,0.0,Catalan,0.0,Inglés,6.0,3.0,3.0,yes,no,no,flauta,11,,,Nada,63.0,yes
55,2024-04-11_13h38.23.410,Experiment4_uns,s170,22.0,feminino,right,España,Castellano y Catalan,Upper secondary,no,no,B,1,conjunction_un,L4,unsyncopated,s2,r1,55,Online_conjL4_un//d.pe.po21.1110.0.wav,po,da,ña,sil,zi,pe,ci,sil1,lo,bu,sil2,['catch'],[0.78269999998804],[0.78269999998804],0.0,beat,0.78269999998804,0.78269999998804,"[""space""]",po,4,testWhenL2Uns//r1.s2.2.wav,3.0,when,unsyncopated,a,s2,rule,rule,L2,m,0.7999,3.0,0.0,0.2182,3.0,2.0,Castellano,0.0,Catalan,0.0,Inglés,6.0,3.0,3.0,yes,no,no,flauta,11,,,Nada,63.0,yes
56,2024-04-11_13h38.23.410,Experiment4_uns,s170,22.0,feminino,right,España,Castellano y Catalan,Upper secondary,no,no,B,1,conjunction_un,L4,unsyncopated,s1,r1,56,Online_conjL4_un//d.pe.po19.none.none.wav,zi,da,ña,sil,lo,bo,bu,sil1,ñi,re,sil2,['-'],,,none,none,,,,po,4,testWhenL2Uns//time_viol.r2.s2.0.wav,3.0,when,unsyncopated,b,s2,no_rule,time,L2,z,1.7021,3.0,1.0,0.9747,3.0,2.0,Castellano,0.0,Catalan,0.0,Inglés,6.0,3.0,3.0,yes,no,no,flauta,11,,,Nada,63.0,yes
57,2024-04-11_13h38.23.410,Experiment4_uns,s170,22.0,feminino,right,España,Castellano y Catalan,Upper secondary,no,no,B,1,conjunction_un,L4,unsyncopated,s1,r2,57,Online_conjL4_un//d.pe.po18.none.none.wav,ja,ña,ñi,sil,nu,de,ru,sil1,da,bo,sil2,['-'],,,none,none,,,,po,4,testWhenL2Uns//time_viol.r1.s1.0.wav,3.0,when,unsyncopated,a,s1,no_rule,time,L2,m,1.0866,2.0,0.0,0.3548,3.0,2.0,Castellano,0.0,Catalan,0.0,Inglés,6.0,3.0,3.0,yes,no,no,flauta,11,,,Nada,63.0,yes
58,2024-04-11_13h38.23.410,Experiment4_uns,s170,22.0,feminino,right,España,Castellano y Catalan,Upper secondary,no,no,B,1,conjunction_un,L4,unsyncopated,s1,r2,58,Online_conjL4_un//d.pe.po16.1776.444.wav,ja,re,po,sil,nu,da,bu,sil1,pe,bo,sil2,"['false alarm', 'catch']","[0.0657000000029484, 1.2768999999909738]",[1.2768999999909738],0.444,no_beat,0.8328999999909739,0.8328999999909739,"[""space"",""space""]",po,4,testWhenL2Uns//r2.s1.0.wav,3.0,when,unsyncopated,b,s1,rule,rule,L2,z,0.205,4.0,1.0,0.6832,3.0,2.0,Castellano,0.0,Catalan,0.0,Inglés,6.0,3.0,3.0,yes,no,no,flauta,11,,,Nada,63.0,yes
59,2024-04-11_13h38.23.410,Experiment4_uns,s170,22.0,feminino,right,España,Castellano y Catalan,Upper secondary,no,no,B,1,conjunction_un,L4,unsyncopated,s2,r2,59,Online_conjL4_un//d.pe.po17.222.444.wav,re,pe,po,sil,ja,ci,ña,sil1,nu,bo,sil2,['catch'],[1.6002000000029284],[1.6002000000029284],0.444,no_beat,1.1562000000029284,1.1562000000029284,"[""space""]",po,4,testWhenL2Uns//r1.s1.0.wav,3.0,when,unsyncopated,a,s1,rule,rule,L2,m,1.2843,2.0,0.0,0.7204,3.0,2.0,Castellano,0.0,Catalan,0.0,Inglés,6.0,3.0,3.0,yes,no,no,flauta,11,,,Nada,63.0,yes
60,2024-04-11_13h38.23.410,Experiment4_uns,s170,22.0,feminino,right,España,Castellano y Catalan,Upper secondary,no,no,B,1,conjunction_un,L4,unsyncopated,s1,r2,60,Online_conjL4_un//b.ja.nu20.0.888.wav,ja,de,ñi,sil,nu,re,bo,sil1,da,po,sil2,['catch'],[1.7942999999970652],[1.7942999999970652],0.888,beat,0.9062999999970652,0.9062999999970652,"[""space""]",nu,2,testWhenL2Uns//r1.s2.0.wav,3.0,when,unsyncopated,a,s2,rule,rule,L2,z,0.9725,3.0,1.0,0.3841,3.0,2.0,Castellano,0.0,Catalan,0.0,Inglés,6.0,3.0,3.0,yes,no,no,flauta,11,,,Nada,63.0,yes
61,2024-04-11_13h38.23.410,Experiment4_uns,s170,22.0,feminino,right,España,Castellano y Catalan,Upper secondary,no,no,B,1,conjunction_un,L4,unsyncopated,s1,r1,61,Online_conjL4_un//b.ja.nu22.none.none.wav,zi,ña,ci,sil,lo,bu,da,sil1,de,po,sil2,['-'],,,none,none,,,,nu,2,testWhenL2Uns//cat_viol.r2.s2.0.wav,3.0,when,unsyncopated,b,s2,no_rule,cat,L2,m,2.4826,1.0,0.0,0.3334,3.0,2.0,Castellano,0.0,Catalan,0.0,Inglés,6.0,3.0,3.0,yes,no,no,flauta,11,,,Nada,63.0,yes
62,2024-04-11_13h38.23.410,Experiment4_uns,s170,22.0,feminino,right,España,Castellano y Catalan,Upper secondary,no,no,B,1,conjunction_un,L4,unsyncopated,s2,r2,62,Online_conjL4_un//b.ja.nu23.888.1776.wav,ci,ña,po,sil,ja,bu,ñi,sil1,nu,pe,sil2,['catch'],[2.4831000000089034],[2.4831000000089034],1.776,beat,0.7071000000089034,0.7071000000089034,"[""space""]",nu,2,testWhenL2Uns//cat_viol.r1.s1.0.wav,3.0,when,unsyncopated,a,s1,no_rule,cat,L2,z,0.6821,5.0,1.0,0.5403,3.0,2.0,Castellano,0.0,Catalan,0.0,Inglés,6.0,3.0,3.0,yes,no,no,flauta,11,,,Nada,63.0,yes
63,2024-04-11_13h38.23.410,Experiment4_uns,s170,22.0,feminino,right,España,Castellano y Catalan,Upper secondary,no,no,B,1,conjunction_un,L4,unsyncopated,s1,r2,63,Online_conjL4_un//b.ja.nu21.0.888.wav,ja,re,ru,sil,nu,bo,pe,sil1,bu,ña,sil2,['catch'],[1.9344999999999573],[1.9344999999999573],0.888,beat,1.0464999999999574,1.0464999999999574,"[""space""]",nu,2,testWhenL2Uns//dep_viol.r2.s2.0.wav,3.0,when,unsyncopated,b,s2,no_rule,dep,L2,z,0.5687,4.0,1.0,0.4832,3.0,2.0,Castellano,0.0,Catalan,0.0,Inglés,6.0,3.0,3.0,yes,no,no,flauta,11,,,Nada,63.0,yes
64,2024-04-11_13h38.23.410,Experiment4_uns,s170,22.0,feminino,right,España,Castellano y Catalan,Upper secondary,no,no,B,1,conjunction_un,L4,unsyncopated,s1,r1,64,Online_conjL4_un//b.ja.nu6.none.none.wav,zi,de,bo,sil,lo,ñi,da,sil1,ña,bu,sil2,['-'],,,none,none,,,,nu,2,testWhenL2Uns//r2.s2.1.wav,3.0,when,unsyncopated,b,s2,rule,rule,L2,z,0.4487,3.0,1.0,0.2859,3.0,2.0,Castellano,0.0,Catalan,0.0,Inglés,6.0,3.0,3.0,yes,no,no,flauta,11,,,Nada,63.0,yes
65,2024-04-11_13h38.23.410,Experiment4_uns,s170,22.0,feminino,right,España,Castellano y Catalan,Upper secondary,no,no,B,1,conjunction_un,L4,unsyncopated,s2,r2,65,Online_conjL4_un//b.ja.nu7.888.1776.wav,pe,bu,bo,sil,ja,de,da,sil1,nu,ña,sil2,['catch'],[2.4990000000000236],[2.4990000000000236],1.776,beat,0.7230000000000236,0.7230000000000236,"[""space""]",nu,2,testWhenL2Uns//cat_viol.r1.s2.0.wav,3.0,when,unsyncopated,a,s2,no_rule,cat,L2,z,1.8767,6.0,1.0,0.4099,3.0,2.0,Castellano,0.0,Catalan,0.0,Inglés,6.0,3.0,3.0,yes,no,no,flauta,11,,,Nada,63.0,yes
66,2024-04-11_13h38.23.410,Experiment4_uns,s170,22.0,feminino,right,España,Castellano y Catalan,Upper secondary,no,no,B,1,conjunction_un,L4,unsyncopated,s2,r1,66,Online_conjL4_un//b.ja.nu4.none.none.wav,ru,pe,bo,sil,zi,ña,ci,sil1,lo,da,sil2,['-'],,,none,none,,,,nu,2,testWhenL2Uns//cat_viol.r2.s1.0.wav,3.0,when,unsyncopated,b,s1,no_rule,cat,L2,m,0.5188,3.0,0.0,0.5055,3.0,2.0,Castellano,0.0,Catalan,0.0,Inglés,6.0,3.0,3.0,yes,no,no,flauta,11,,,Nada,63.0,yes
67,2024-04-11_13h38.23.410,Experiment4_uns,s170,22.0,feminino,right,España,Castellano y Catalan,Upper secondary,no,no,B,1,conjunction_un,L4,unsyncopated,s1,r1,67,Online_conjL4_un//b.ja.nu5.none.none.wav,zi,ci,ñi,sil,lo,bo,da,sil1,po,ña,sil2,['-'],,,none,none,,,,nu,2,testWhenL2Uns//r2.s2.0.wav,3.0,when,unsyncopated,b,s2,rule,rule,L2,m,0.7171,4.0,0.0,1.5717,3.0,2.0,Castellano,0.0,Catalan,0.0,Inglés,6.0,3.0,3.0,yes,no,no,flauta,11,,,Nada,63.0,yes
68,2024-04-11_13h38.23.410,Experiment4_uns,s170,22.0,feminino,right,España,Castellano y Catalan,Upper secondary,no,no,B,1,conjunction_un,L4,unsyncopated,s1,r1,68,Online_conjL4_un//c.bu.da2.none.none.wav,zi,pe,ci,sil,lo,de,ña,sil1,ñi,re,sil2,['-'],,,none,none,,,,da,3,testWhenL2Uns//dep_viol.r2.s1.0.wav,3.0,when,unsyncopated,b,s1,no_rule,dep,L2,m,2.7092,1.0,0.0,0.1111,3.0,2.0,Castellano,0.0,Catalan,0.0,Inglés,6.0,3.0,3.0,yes,no,no,flauta,11,,,Nada,63.0,yes
69,2024-04-11_13h38.23.410,Experiment4_uns,s170,22.0,feminino,right,España,Castellano y Catalan,Upper secondary,no,no,B,1,conjunction_un,L4,unsyncopated,s1,r1,69,Online_conjL4_un//c.bu.da1.none.none.wav,zi,bo,po,sil,lo,re,ci,sil1,ñi,pe,sil2,['-'],,,none,none,,,,da,3,testWhenL2Uns//r2.s1.1.wav,3.0,when,unsyncopated,b,s1,rule,rule,L2,z,0.6926,3.0,1.0,0.2676,3.0,2.0,Castellano,0.0,Catalan,0.0,Inglés,6.0,3.0,3.0,yes,no,no,flauta,11,,,Nada,63.0,yes
70,2024-04-11_13h38.23.410,Experiment4_uns,s170,22.0,feminino,right,España,Castellano y Catalan,Upper secondary,no,no,B,1,conjunction_un,L4,unsyncopated,s2,r2,70,Online_conjL4_un//c.bu.da3.444.1110.wav,po,pe,bu,sil,ja,da,ci,sil1,nu,de,sil2,['catch'],[1.9473999999910347],[1.9473999999910347],1.11,no_beat,0.8373999999910346,0.8373999999910346,"[""space""]",da,3,testWhenL2Uns//time_viol.r1.s2.0.wav,3.0,when,unsyncopated,a,s2,no_rule,time,L2,m,2.0647,2.0,0.0,0.3638,3.0,2.0,Castellano,0.0,Catalan,0.0,Inglés,6.0,3.0,3.0,yes,no,no,flauta,11,,,Nada,63.0,yes
71,2024-04-11_13h38.23.410,Experiment4_uns,s170,22.0,feminino,right,España,Castellano y Catalan,Upper secondary,no,no,B,1,conjunction_un,L4,unsyncopated,s1,r1,71,Online_conjL4_un//c.bu.da0.none.none.wav,zi,ña,ru,sil,lo,re,ñi,sil1,bo,ci,sil2,['-'],,,none,none,,,,da,3,testWhenL2Uns//r1.s1.2.wav,3.0,when,unsyncopated,a,s1,rule,rule,L2,z,1.107,4.0,1.0,0.9907,3.0,2.0,Castellano,0.0,Catalan,0.0,Inglés,6.0,3.0,3.0,yes,no,no,flauta,11,,,Nada,63.0,yes
72,2024-04-11_13h38.23.410,Experiment4_uns,s170,22.0,feminino,right,España,Castellano y Catalan,Upper secondary,no,no,B,1,conjunction_un,L4,unsyncopated,s2,r2,72,Online_conjL4_un//a.zi.lo12.none.none.wav,re,bo,pe,sil,ja,bu,ru,sil1,nu,de,sil2,['-'],,,none,none,,,,zi,1,testConjL3Syn//cat_viol.r1.s2.0.wav,4.0,conjunction_syn,syncopated,a,s2,no_rule,cat,L3,z,1.7659,5.0,0.0,0.6955,3.0,2.0,Castellano,0.0,Catalan,0.0,Inglés,6.0,3.0,3.0,yes,no,no,flauta,11,,,Nada,63.0,yes
73,2024-04-11_13h38.23.410,Experiment4_uns,s170,22.0,feminino,right,España,Castellano y Catalan,Upper secondary,no,no,B,1,conjunction_un,L4,unsyncopated,s2,r2,73,Online_conjL4_un//a.zi.lo13.none.none.wav,re,ña,bo,sil,ja,bu,ñi,sil1,nu,da,sil2,['-'],,,none,none,,,,zi,1,testConjL3Syn//r2.s2.1.wav,4.0,conjunction_syn,syncopated,b,s2,rule,rule,L3,z,1.3878,4.0,1.0,0.4331,3.0,2.0,Castellano,0.0,Catalan,0.0,Inglés,6.0,3.0,3.0,yes,no,no,flauta,11,,,Nada,63.0,yes
74,2024-04-11_13h38.23.410,Experiment4_uns,s170,22.0,feminino,right,España,Castellano y Catalan,Upper secondary,no,no,B,1,conjunction_un,L4,unsyncopated,s1,r1,74,Online_conjL4_un//a.zi.lo14.0.888.wav,zi,po,ñi,sil,lo,bo,da,sil1,pe,bu,sil2,['catch'],[1.030999999999949],[1.030999999999949],0.0,beat,1.030999999999949,1.030999999999949,"[""space""]",zi,1,testConjL3Syn//r2.s2.2.wav,4.0,conjunction_syn,syncopated,b,s2,rule,rule,L3,m,0.7697,3.0,0.0,0.1715,3.0,2.0,Castellano,0.0,Catalan,0.0,Inglés,6.0,3.0,3.0,yes,no,no,flauta,11,,,Nada,63.0,yes
75,2024-04-11_13h38.23.410,Experiment4_uns,s170,22.0,feminino,right,España,Castellano y Catalan,Upper secondary,no,no,B,1,conjunction_un,L4,unsyncopated,s2,r2,75,Online_conjL4_un//a.zi.lo15.none.none.wav,po,ñi,pe,sil,ja,da,bo,sil1,nu,de,sil2,['-'],,,none,none,,,,zi,1,testConjL3Syn//r2.s1.1.wav,4.0,conjunction_syn,syncopated,b,s1,rule,rule,L3,z,0.3045,6.0,1.0,0.4561,3.0,2.0,Castellano,0.0,Catalan,0.0,Inglés,6.0,3.0,3.0,yes,no,no,flauta,11,,,Nada,63.0,yes
76,2024-04-11_13h38.23.410,Experiment4_uns,s170,22.0,feminino,right,España,Castellano y Catalan,Upper secondary,no,no,B,1,conjunction_un,L4,unsyncopated,s1,r1,76,Online_conjL4_un//b.ja.nu25.none.none.wav,zi,da,ru,sil,lo,de,ñi,sil1,re,ña,sil2,['-'],,,none,none,,,,nu,2,testConjL3Syn//time_viol.r1.s2.0.wav,4.0,conjunction_syn,syncopated,a,s2,no_rule,time,L3,m,0.3628,5.0,1.0,0.2205,3.0,2.0,Castellano,0.0,Catalan,0.0,Inglés,6.0,3.0,3.0,yes,no,no,flauta,11,,,Nada,63.0,yes
77,2024-04-11_13h38.23.410,Experiment4_uns,s170,22.0,feminino,right,España,Castellano y Catalan,Upper secondary,no,no,B,1,conjunction_un,L4,unsyncopated,s2,r2,77,Online_conjL4_un//b.ja.nu26.888.1776.wav,bo,bu,ru,sil,ja,de,ñi,sil1,nu,da,sil2,['catch'],[2.54849999999999],[2.54849999999999],1.776,beat,0.77249999999999,0.77249999999999,"[""space""]",nu,2,testConjL3Syn//r1.s1.0.wav,4.0,conjunction_syn,syncopated,a,s1,rule,rule,L3,m,2.5839,3.0,0.0,0.1834,3.0,2.0,Castellano,0.0,Catalan,0.0,Inglés,6.0,3.0,3.0,yes,no,no,flauta,11,,,Nada,63.0,yes
78,2024-04-11_13h38.23.410,Experiment4_uns,s170,22.0,feminino,right,España,Castellano y Catalan,Upper secondary,no,no,B,1,conjunction_un,L4,unsyncopated,s1,r2,78,Online_conjL4_un//b.ja.nu27.0.888.wav,ja,ñi,bu,sil,nu,ña,ci,sil1,da,po,sil2,['catch'],[1.817800000011971],[1.817800000011971],0.888,beat,0.9298000000119708,0.9298000000119708,"[""space""]",nu,2,testConjL3Syn//time_viol.r1.s1.0.wav,4.0,conjunction_syn,syncopated,a,s1,no_rule,time,L3,m,0.6601,5.0,1.0,0.5139,3.0,2.0,Castellano,0.0,Catalan,0.0,Inglés,6.0,3.0,3.0,yes,no,no,flauta,11,,,Nada,63.0,yes
79,2024-04-11_13h38.23.410,Experiment4_uns,s170,22.0,feminino,right,España,Castellano y Catalan,Upper secondary,no,no,B,1,conjunction_un,L4,unsyncopated,s2,r2,79,Online_conjL4_un//b.ja.nu24.888.1776.wav,pe,re,po,sil,ja,ñi,de,sil1,nu,bo,sil2,['catch'],[2.523700000003032],[2.523700000003032],1.776,beat,0.747700000003032,0.747700000003032,"[""space""]",nu,2,testConjL3Syn//r1.s2.1.wav,4.0,conjunction_syn,syncopated,a,s2,rule,rule,L3,z,0.4498,5.0,1.0,0.7719,3.0,2.0,Castellano,0.0,Catalan,0.0,Inglés,6.0,3.0,3.0,yes,no,no,flauta,11,,,Nada,63.0,yes
80,2024-04-11_13h38.23.410,Experiment4_uns,s170,22.0,feminino,right,España,Castellano y Catalan,Upper secondary,no,no,B,1,conjunction_un,L4,unsyncopated,s2,r1,80,Online_conjL4_un//d.pe.po24.444.1110.wav,de,da,pe,sil,zi,po,re,sil1,lo,bu,sil2,['catch'],[1.7872000000029402],[1.7872000000029402],1.11,no_beat,0.6772000000029401,0.6772000000029401,"[""space""]",po,4,testConjL3Syn//time_viol.r2.s1.0.wav,4.0,conjunction_syn,syncopated,b,s1,no_rule,time,L3,m,0.9657,1.0,1.0,0.1067,3.0,2.0,Castellano,0.0,Catalan,0.0,Inglés,6.0,3.0,3.0,yes,no,no,flauta,11,,,Nada,63.0,yes
81,2024-04-11_13h38.23.410,Experiment4_uns,s170,22.0,feminino,right,España,Castellano y Catalan,Upper secondary,no,no,B,1,conjunction_un,L4,unsyncopated,s2,r2,81,Online_conjL4_un//d.pe.po27.none.none.wav,ru,ci,bo,sil,ja,de,ñi,sil1,nu,ña,sil2,['-'],,,none,none,,,,po,4,testConjL3Syn//cat_viol.r2.s1.0.wav,4.0,conjunction_syn,syncopated,b,s1,no_rule,cat,L3,m,0.4109,2.0,1.0,0.1341,3.0,2.0,Castellano,0.0,Catalan,0.0,Inglés,6.0,3.0,3.0,yes,no,no,flauta,11,,,Nada,63.0,yes
82,2024-04-11_13h38.23.410,Experiment4_uns,s170,22.0,feminino,right,España,Castellano y Catalan,Upper secondary,no,no,B,1,conjunction_un,L4,unsyncopated,s2,r2,82,Online_conjL4_un//d.pe.po25.none.none.wav,re,bu,ña,sil,ja,bo,de,sil1,nu,da,sil2,['-'],,,none,none,,,,po,4,testConjL3Syn//dep_viol.r2.s2.0.wav,4.0,conjunction_syn,syncopated,b,s2,no_rule,dep,L3,m,0.5072,5.0,1.0,0.1091,3.0,2.0,Castellano,0.0,Catalan,0.0,Inglés,6.0,3.0,3.0,yes,no,no,flauta,11,,,Nada,63.0,yes
83,2024-04-11_13h38.23.410,Experiment4_uns,s170,22.0,feminino,right,España,Castellano y Catalan,Upper secondary,no,no,B,1,conjunction_un,L4,unsyncopated,s2,r1,83,Online_conjL4_un//d.pe.po26.none.none.wav,ci,bo,bu,sil,zi,re,ru,sil1,lo,ñi,sil2,['-'],,,none,none,,,,po,4,testConjL3Syn//dep_viol.r1.s2.0.wav,4.0,conjunction_syn,syncopated,a,s2,no_rule,dep,L3,m,0.3267,4.0,1.0,0.1288,3.0,2.0,Castellano,0.0,Catalan,0.0,Inglés,6.0,3.0,3.0,yes,no,no,flauta,11,,,Nada,63.0,yes
84,2024-04-11_13h38.23.410,Experiment4_uns,s170,22.0,feminino,right,España,Castellano y Catalan,Upper secondary,no,no,B,1,conjunction_un,L4,unsyncopated,s1,r2,84,Online_conjL4_un//d.pe.po0.none.none.wav,ja,ci,ñi,sil,nu,ru,da,sil1,de,ña,sil2,['-'],,,none,none,,,,po,4,testConjL3Syn//r1.s1.2.wav,4.0,conjunction_syn,syncopated,a,s1,rule,rule,L3,m,0.7,2.0,0.0,0.3455,3.0,2.0,Castellano,0.0,Catalan,0.0,Inglés,6.0,3.0,3.0,yes,no,no,flauta,11,,,Nada,63.0,yes
85,2024-04-11_13h38.23.410,Experiment4_uns,s170,22.0,feminino,right,España,Castellano y Catalan,Upper secondary,no,no,B,1,conjunction_un,L4,unsyncopated,s2,r2,85,Online_conjL4_un//d.pe.po1.444.0.wav,po,bu,pe,sil,ja,ñi,ña,sil1,nu,ru,sil2,['catch'],[0.8224000000060414],[0.8224000000060414],0.0,beat,0.8224000000060414,0.8224000000060414,"[""space""]",po,4,testConjL3Syn//cat_viol.r2.s2.0.wav,4.0,conjunction_syn,syncopated,b,s2,no_rule,cat,L3,m,0.7894,3.0,1.0,0.1426,3.0,2.0,Castellano,0.0,Catalan,0.0,Inglés,6.0,3.0,3.0,yes,no,no,flauta,11,,,Nada,63.0,yes
86,2024-04-11_13h38.23.410,Experiment4_uns,s170,22.0,feminino,right,España,Castellano y Catalan,Upper secondary,no,no,B,1,conjunction_un,L4,unsyncopated,s1,r2,86,Online_conjL4_un//d.pe.po2.none.none.wav,ja,ña,ru,sil,nu,bu,de,sil1,ci,re,sil2,['-'],,,none,none,,,,po,4,testConjL3Syn//r1.s2.2.wav,4.0,conjunction_syn,syncopated,a,s2,rule,rule,L3,m,0.8,5.0,0.0,0.2016,3.0,2.0,Castellano,0.0,Catalan,0.0,Inglés,6.0,3.0,3.0,yes,no,no,flauta,11,,,Nada,63.0,yes
87,2024-04-11_13h38.23.410,Experiment4_uns,s170,22.0,feminino,right,España,Castellano y Catalan,Upper secondary,no,no,B,1,conjunction_un,L4,unsyncopated,s1,r1,87,Online_conjL4_un//d.pe.po3.none.none.wav,zi,ci,ñi,sil,lo,re,ru,sil1,bu,da,sil2,['-'],,,none,none,,,,po,4,testConjL3Syn//cat_viol.r1.s1.0.wav,4.0,conjunction_syn,syncopated,a,s1,no_rule,cat,L3,m,1.4095,6.0,1.0,0.704,3.0,2.0,Castellano,0.0,Catalan,0.0,Inglés,6.0,3.0,3.0,yes,no,no,flauta,11,,,Nada,63.0,yes
88,2024-04-11_13h38.23.410,Experiment4_uns,s170,22.0,feminino,right,España,Castellano y Catalan,Upper secondary,no,no,B,1,conjunction_un,L4,unsyncopated,s2,r1,88,Online_conjL4_un//c.bu.da23.none.none.wav,po,ru,pe,sil,zi,re,ña,sil1,lo,ci,sil2,['-'],,,none,none,,,,da,3,testConjL3Syn//r1.s1.1.wav,4.0,conjunction_syn,syncopated,a,s1,rule,rule,L3,z,0.4998,5.0,1.0,0.8847,3.0,2.0,Castellano,0.0,Catalan,0.0,Inglés,6.0,3.0,3.0,yes,no,no,flauta,11,,,Nada,63.0,yes
89,2024-04-11_13h38.23.410,Experiment4_uns,s170,22.0,feminino,right,España,Castellano y Catalan,Upper secondary,no,no,B,1,conjunction_un,L4,unsyncopated,s1,r1,89,Online_conjL4_un//c.bu.da20.1332.222.wav,zi,da,pe,sil,lo,ñi,bu,sil1,po,de,sil2,['catch'],[1.1187999999970089],[1.1187999999970089],0.222,no_beat,0.8967999999970089,0.8967999999970089,"[""space""]",da,3,testConjL3Syn//r2.s2.0.wav,4.0,conjunction_syn,syncopated,b,s2,rule,rule,L3,z,0.6999,3.0,1.0,0.8747,3.0,2.0,Castellano,0.0,Catalan,0.0,Inglés,6.0,3.0,3.0,yes,no,no,flauta,11,,,Nada,63.0,yes
90,2024-04-11_13h38.23.410,Experiment4_uns,s170,22.0,feminino,right,España,Castellano y Catalan,Upper secondary,no,no,B,1,conjunction_un,L4,unsyncopated,s2,r2,90,Online_conjL4_un//c.bu.da21.none.none.wav,de,bo,ñi,sil,ja,ci,po,sil1,nu,re,sil2,['-'],,,none,none,,,,da,3,testConjL3Syn//dep_viol.r2.s1.0.wav,4.0,conjunction_syn,syncopated,b,s1,no_rule,dep,L3,z,0.6971,5.0,0.0,0.7592,3.0,2.0,Castellano,0.0,Catalan,0.0,Inglés,6.0,3.0,3.0,yes,no,no,flauta,11,,,Nada,63.0,yes
91,2024-04-11_13h38.23.410,Experiment4_uns,s170,22.0,feminino,right,España,Castellano y Catalan,Upper secondary,no,no,B,1,conjunction_un,L4,unsyncopated,s2,r1,91,Online_conjL4_un//c.bu.da22.1110.0.wav,da,ci,bo,sil,zi,bu,ru,sil1,lo,pe,sil2,['catch'],[0.810700000002953],[0.810700000002953],0.0,beat,0.810700000002953,0.810700000002953,"[""space""]",da,3,testConjL3Syn//r1.s2.0.wav,4.0,conjunction_syn,syncopated,a,s2,rule,rule,L3,m,5.5346,2.0,0.0,0.1093,3.0,2.0,Castellano,0.0,Catalan,0.0,Inglés,6.0,3.0,3.0,yes,no,no,flauta,11,,,Nada,63.0,yes
92,2024-04-11_13h38.23.410,Experiment4_uns,s170,22.0,feminino,right,España,Castellano y Catalan,Upper secondary,no,no,B,1,conjunction_un,L4,unsyncopated,s1,r2,92,Online_conjL4_un//d.pe.po30.1776.1110.wav,ja,ñi,ru,sil,nu,po,ña,sil1,pe,da,sil2,['catch'],[1.8145999999940159],[1.8145999999940159],1.11,no_beat,0.7045999999940158,0.7045999999940158,"[""space""]",po,4,testConjL3Syn//time_viol.r2.s2.0.wav,4.0,conjunction_syn,syncopated,b,s2,no_rule,time,L3,m,0.4349,3.0,1.0,0.1509,3.0,2.0,Castellano,0.0,Catalan,0.0,Inglés,6.0,3.0,3.0,yes,no,no,flauta,11,,,Nada,63.0,yes
93,2024-04-11_13h38.23.410,Experiment4_uns,s170,22.0,feminino,right,España,Castellano y Catalan,Upper secondary,no,no,B,1,conjunction_un,L4,unsyncopated,s1,r2,93,Online_conjL4_un//d.pe.po31.none.none.wav,ja,re,ña,sil,nu,bo,ci,sil1,bu,de,sil2,['false alarm'],[2.094899999991071],[2.094899999991071],none,none,,,"[""space""]",po,4,testConjL3Syn//r2.s1.2.wav,4.0,conjunction_syn,syncopated,b,s1,rule,rule,L3,z,0.1649,7.0,1.0,0.84,3.0,2.0,Castellano,0.0,Catalan,0.0,Inglés,6.0,3.0,3.0,yes,no,no,flauta,11,,,Nada,63.0,yes
94,2024-04-11_13h38.23.410,Experiment4_uns,s170,22.0,feminino,right,España,Castellano y Catalan,Upper secondary,no,no,B,1,conjunction_un,L4,unsyncopated,s2,r1,94,Online_conjL4_un//d.pe.po29.none.none.wav,bo,ña,bu,sil,zi,ru,ci,sil1,lo,de,sil2,['-'],,,none,none,,,,po,4,testConjL3Syn//r2.s1.0.wav,4.0,conjunction_syn,syncopated,b,s1,rule,rule,L3,z,0.2594,6.0,1.0,0.4097,3.0,2.0,Castellano,0.0,Catalan,0.0,Inglés,6.0,3.0,3.0,yes,no,no,flauta,11,,,Nada,63.0,yes
95,2024-04-11_13h38.23.410,Experiment4_uns,s170,22.0,feminino,right,España,Castellano y Catalan,Upper secondary,no,no,B,1,conjunction_un,L4,unsyncopated,s1,r1,95,Online_conjL4_un//d.pe.po28.444.1332.wav,zi,ci,pe,sil,lo,ñi,po,sil1,ña,da,sil2,['catch'],[2.3035999999940486],[2.3035999999940486],1.332,no_beat,0.9715999999940486,0.9715999999940486,"[""space""]",po,4,testConjL3Syn//dep_viol.r1.s1.0.wav,4.0,conjunction_syn,syncopated,a,s1,no_rule,dep,L3,m,0.6168,5.0,1.0,0.2223,3.0,2.0,Castellano,0.0,Catalan,0.0,Inglés,6.0,3.0,3.0,yes,no,no,flauta,11,,,Nada,63.0,yes
96,2024-04-11_13h38.23.410,Experiment4_uns,s170,22.0,feminino,right,España,Castellano y Catalan,Upper secondary,no,no,B,1,conjunction_un,L4,unsyncopated,s2,r1,96,Online_conjL4_un//d.pe.po4.0.1110.wav,pe,ru,da,sil,zi,po,ñi,sil1,lo,bu,sil2,['catch'],[1.8275999999940495],[1.8275999999940495],1.11,no_beat,0.7175999999940494,0.7175999999940494,"[""space""]",po,4,,,,,,,,,,,,,,,3.0,2.0,Castellano,0.0,Catalan,0.0,Inglés,6.0,3.0,3.0,yes,no,no,flauta,11,,,Nada,63.0,yes
97,2024-04-11_13h38.23.410,Experiment4_uns,s170,22.0,feminino,right,España,Castellano y Catalan,Upper secondary,no,no,B,1,conjunction_un,L4,unsyncopated,s1,r1,97,Online_conjL4_un//d.pe.po5.none.none.wav,zi,de,re,sil,lo,ru,ci,sil1,bo,bu,sil2,['-'],,,none,none,,,,po,4,,,,,,,,,,,,,,,3.0,2.0,Castellano,0.0,Catalan,0.0,Inglés,6.0,3.0,3.0,yes,no,no,flauta,11,,,Nada,63.0,yes
98,2024-04-11_13h38.23.410,Experiment4_uns,s170,22.0,feminino,right,España,Castellano y Catalan,Upper secondary,no,no,B,1,conjunction_un,L4,unsyncopated,s1,r2,98,Online_conjL4_un//d.pe.po6.1110.222.wav,ja,po,de,sil,nu,pe,da,sil1,ru,bo,sil2,['miss'],,,0.222,no_beat,,,,po,4,,,,,,,,,,,,,,,3.0,2.0,Castellano,0.0,Catalan,0.0,Inglés,6.0,3.0,3.0,yes,no,no,flauta,11,,,Nada,63.0,yes
99,2024-04-11_13h38.23.410,Experiment4_uns,s170,22.0,feminino,right,España,Castellano y Catalan,Upper secondary,no,no,B,1,conjunction_un,L4,unsyncopated,s1,r1,99,Online_conjL4_un//d.pe.po7.1110.222.wav,zi,po,ña,sil,lo,pe,ru,sil1,da,re,sil2,['catch'],[1.107799999996928],[1.107799999996928],0.222,no_beat,0.8857999999969279,0.8857999999969279,"[""space""]",po,4,,,,,,,,,,,,,,,3.0,2.0,Castellano,0.0,Catalan,0.0,Inglés,6.0,3.0,3.0,yes,no,no,flauta,11,,,Nada,63.0,yes
100,2024-04-11_13h38.23.410,Experiment4_uns,s170,22.0,feminino,right,España,Castellano y Catalan,Upper secondary,no,no,B,1,conjunction_un,L4,unsyncopated,s2,r1,100,Online_conjL4_un//c.bu.da17.none.none.wav,ru,de,re,sil,zi,ci,po,sil1,lo,pe,sil2,['-'],,,none,none,,,,da,3,,,,,,,,,,,,,,,3.0,2.0,Castellano,0.0,Catalan,0.0,Inglés,6.0,3.0,3.0,yes,no,no,flauta,11,,,Nada,63.0,yes
101,2024-04-11_13h38.23.410,Experiment4_uns,s170,22.0,feminino,right,España,Castellano y Catalan,Upper secondary,no,no,B,1,conjunction_un,L4,unsyncopated,s1,r2,101,Online_conjL4_un//c.bu.da18.1110.222.wav,ja,da,re,sil,nu,bu,ru,sil1,bo,pe,sil2,['catch'],[0.9961000000089371],[0.9961000000089371],0.222,no_beat,0.7741000000089371,0.7741000000089371,"[""space""]",da,3,,,,,,,,,,,,,,,3.0,2.0,Castellano,0.0,Catalan,0.0,Inglés,6.0,3.0,3.0,yes,no,no,flauta,11,,,Nada,63.0,yes
102,2024-04-11_13h38.23.410,Experiment4_uns,s170,22.0,feminino,right,España,Castellano y Catalan,Upper secondary,no,no,B,1,conjunction_un,L4,unsyncopated,s2,r1,102,Online_conjL4_un//c.bu.da19.none.none.wav,ña,ru,pe,sil,zi,re,ñi,sil1,lo,de,sil2,['-'],,,none,none,,,,da,3,,,,,,,,,,,,,,,3.0,2.0,Castellano,0.0,Catalan,0.0,Inglés,6.0,3.0,3.0,yes,no,no,flauta,11,,,Nada,63.0,yes
103,2024-04-11_13h38.23.410,Experiment4_uns,s170,22.0,feminino,right,España,Castellano y Catalan,Upper secondary,no,no,B,1,conjunction_un,L4,unsyncopated,s1,r2,103,Online_conjL4_un//c.bu.da16.none.none.wav,ja,de,ñi,sil,nu,pe,ru,sil1,re,ci,sil2,['-'],,,none,none,,,,da,3,,,,,,,,,,,,,,,3.0,2.0,Castellano,0.0,Catalan,0.0,Inglés,6.0,3.0,3.0,yes,no,no,flauta,11,,,Nada,63.0,yes
104,2024-04-11_13h38.23.410,Experiment4_uns,s170,22.0,feminino,right,España,Castellano y Catalan,Upper secondary,no,no,B,1,conjunction_un,L4,unsyncopated,s1,r1,104,Online_conjL4_un//a.zi.lo2.0.888.wav,zi,ña,re,sil,lo,de,pe,sil1,bu,po,sil2,['catch'],[1.0238999999910448],[1.0238999999910448],0.0,beat,1.0238999999910448,1.0238999999910448,"[""space""]",zi,1,,,,,,,,,,,,,,,3.0,2.0,Castellano,0.0,Catalan,0.0,Inglés,6.0,3.0,3.0,yes,no,no,flauta,11,,,Nada,63.0,yes
105,2024-04-11_13h38.23.410,Experiment4_uns,s170,22.0,feminino,right,España,Castellano y Catalan,Upper secondary,no,no,B,1,conjunction_un,L4,unsyncopated,s1,r2,105,Online_conjL4_un//a.zi.lo3.none.none.wav,ja,bu,re,sil,nu,pe,ñi,sil1,ru,ci,sil2,['-'],,,none,none,,,,zi,1,,,,,,,,,,,,,,,3.0,2.0,Castellano,0.0,Catalan,0.0,Inglés,6.0,3.0,3.0,yes,no,no,flauta,11,,,Nada,63.0,yes
106,2024-04-11_13h38.23.410,Experiment4_uns,s170,22.0,feminino,right,España,Castellano y Catalan,Upper secondary,no,no,B,1,conjunction_un,L4,unsyncopated,s2,r1,106,Online_conjL4_un//a.zi.lo0.888.1776.wav,ñi,bu,ci,sil,zi,da,pe,sil1,lo,re,sil2,['catch'],[1.6585999999940668],[1.6585999999940668],0.888,beat,0.7705999999940668,0.7705999999940668,"[""space""]",zi,1,,,,,,,,,,,,,,,3.0,2.0,Castellano,0.0,Catalan,0.0,Inglés,6.0,3.0,3.0,yes,no,no,flauta,11,,,Nada,63.0,yes
107,2024-04-11_13h38.23.410,Experiment4_uns,s170,22.0,feminino,right,España,Castellano y Catalan,Upper secondary,no,no,B,1,conjunction_un,L4,unsyncopated,s1,r1,107,Online_conjL4_un//a.zi.lo1.0.888.wav,zi,ña,ci,sil,lo,po,pe,sil1,bo,da,sil2,['catch'],[0.886399999991113],[0.886399999991113],0.0,beat,0.886399999991113,0.886399999991113,"[""space""]",zi,1,,,,,,,,,,,,,,,3.0,2.0,Castellano,0.0,Catalan,0.0,Inglés,6.0,3.0,3.0,yes,no,no,flauta,11,,,Nada,63.0,yes
108,2024-04-11_13h38.23.410,Experiment4_uns,s170,22.0,feminino,right,España,Castellano y Catalan,Upper secondary,no,no,B,1,conjunction_un,L4,unsyncopated,s2,r1,108,Online_conjL4_un//a.zi.lo8.888.1776.wav,re,pe,da,sil,zi,de,ña,sil1,lo,ru,sil2,['catch'],[1.6100999999939631],[1.6100999999939631],0.888,beat,0.7220999999939631,0.7220999999939631,"[""space""]",zi,1,,,,,,,,,,,,,,,3.0,2.0,Castellano,0.0,Catalan,0.0,Inglés,6.0,3.0,3.0,yes,no,no,flauta,11,,,Nada,63.0,yes
109,2024-04-11_13h38.23.410,Experiment4_uns,s170,22.0,feminino,right,España,Castellano y Catalan,Upper secondary,no,no,B,1,conjunction_un,L4,unsyncopated,s2,r2,109,Online_conjL4_un//a.zi.lo11.none.none.wav,po,re,ña,sil,ja,bo,ru,sil1,nu,pe,sil2,['-'],,,none,none,,,,zi,1,,,,,,,,,,,,,,,3.0,2.0,Castellano,0.0,Catalan,0.0,Inglés,6.0,3.0,3.0,yes,no,no,flauta,11,,,Nada,63.0,yes
110,2024-04-11_13h38.23.410,Experiment4_uns,s170,22.0,feminino,right,España,Castellano y Catalan,Upper secondary,no,no,B,1,conjunction_un,L4,unsyncopated,s2,r2,110,Online_conjL4_un//a.zi.lo9.none.none.wav,de,po,ña,sil,ja,bu,da,sil1,nu,ñi,sil2,['-'],,,none,none,,,,zi,1,,,,,,,,,,,,,,,3.0,2.0,Castellano,0.0,Catalan,0.0,Inglés,6.0,3.0,3.0,yes,no,no,flauta,11,,,Nada,63.0,yes
111,2024-04-11_13h38.23.410,Experiment4_uns,s170,22.0,feminino,right,España,Castellano y Catalan,Upper secondary,no,no,B,1,conjunction_un,L4,unsyncopated,s1,r2,111,Online_conjL4_un//a.zi.lo10.none.none.wav,ja,ña,da,sil,nu,re,de,sil1,bu,bo,sil2,['-'],,,none,none,,,,zi,1,,,,,,,,,,,,,,,3.0,2.0,Castellano,0.0,Catalan,0.0,Inglés,6.0,3.0,3.0,yes,no,no,flauta,11,,,Nada,63.0,yes
112,2024-04-11_13h38.23.410,Experiment4_uns,s170,22.0,feminino,right,España,Castellano y Catalan,Upper secondary,no,no,B,1,conjunction_un,L4,unsyncopated,s1,r2,112,Online_conjL4_un//b.ja.nu12.0.888.wav,ja,ñi,ci,sil,nu,ña,pe,sil1,da,bu,sil2,['catch'],[1.6290999999939686],[1.6290999999939686],0.888,beat,0.7410999999939686,0.7410999999939686,"[""space""]",nu,2,,,,,,,,,,,,,,,3.0,2.0,Castellano,0.0,Catalan,0.0,Inglés,6.0,3.0,3.0,yes,no,no,flauta,11,,,Nada,63.0,yes
113,2024-04-11_13h38.23.410,Experiment4_uns,s170,22.0,feminino,right,España,Castellano y Catalan,Upper secondary,no,no,B,1,conjunction_un,L4,unsyncopated,s1,r1,113,Online_conjL4_un//b.ja.nu13.none.none.wav,zi,pe,de,sil,lo,bu,ru,sil1,ñi,ña,sil2,['-'],,,none,none,,,,nu,2,,,,,,,,,,,,,,,3.0,2.0,Castellano,0.0,Catalan,0.0,Inglés,6.0,3.0,3.0,yes,no,no,flauta,11,,,Nada,63.0,yes
114,2024-04-11_13h38.23.410,Experiment4_uns,s170,22.0,feminino,right,España,Castellano y Catalan,Upper secondary,no,no,B,1,conjunction_un,L4,unsyncopated,s2,r2,114,Online_conjL4_un//b.ja.nu14.888.1776.wav,ru,ñi,re,sil,ja,pe,po,sil1,nu,da,sil2,['miss'],,,1.776,beat,,,,nu,2,,,,,,,,,,,,,,,3.0,2.0,Castellano,0.0,Catalan,0.0,Inglés,6.0,3.0,3.0,yes,no,no,flauta,11,,,Nada,63.0,yes
115,2024-04-11_13h38.23.410,Experiment4_uns,s170,22.0,feminino,right,España,Castellano y Catalan,Upper secondary,no,no,B,1,conjunction_un,L4,unsyncopated,s1,r2,115,Online_conjL4_un//b.ja.nu15.0.888.wav,ja,bu,re,sil,nu,pe,bo,sil1,ñi,ci,sil2,"['false alarm', 'catch']","[0.5062000000029911, 1.848799999997027]",[1.848799999997027],0.888,beat,0.960799999997027,0.960799999997027,"[""space"",""space""]",nu,2,,,,,,,,,,,,,,,3.0,2.0,Castellano,0.0,Catalan,0.0,Inglés,6.0,3.0,3.0,yes,no,no,flauta,11,,,Nada,63.0,yes
116,2024-04-11_13h38.23.410,Experiment4_uns,s170,22.0,feminino,right,España,Castellano y Catalan,Upper secondary,no,no,B,1,conjunction_un,L4,unsyncopated,s1,r1,116,Online_conjL4_un//c.bu.da28.1776.1110.wav,zi,re,ru,sil,lo,da,pe,sil1,bu,ña,sil2,['catch'],[1.9857999999969707],[1.9857999999969707],1.11,no_beat,0.8757999999969706,0.8757999999969706,"[""space""]",da,3,,,,,,,,,,,,,,,3.0,2.0,Castellano,0.0,Catalan,0.0,Inglés,6.0,3.0,3.0,yes,no,no,flauta,11,,,Nada,63.0,yes
117,2024-04-11_13h38.23.410,Experiment4_uns,s170,22.0,feminino,right,España,Castellano y Catalan,Upper secondary,no,no,B,1,conjunction_un,L4,unsyncopated,s1,r2,117,Online_conjL4_un//c.bu.da30.222.444.wav,ja,bu,da,sil,nu,pe,bo,sil1,ña,de,sil2,['catch'],[1.2972000000029311],[1.2972000000029311],0.444,no_beat,0.8532000000029312,0.8532000000029312,"[""space""]",da,3,,,,,,,,,,,,,,,3.0,2.0,Castellano,0.0,Catalan,0.0,Inglés,6.0,3.0,3.0,yes,no,no,flauta,11,,,Nada,63.0,yes
118,2024-04-11_13h38.23.410,Experiment4_uns,s170,22.0,feminino,right,España,Castellano y Catalan,Upper secondary,no,no,B,1,conjunction_un,L4,unsyncopated,s2,r2,118,Online_conjL4_un//c.bu.da29.none.none.wav,bo,ña,re,sil,ja,ci,ru,sil1,nu,ñi,sil2,['-'],,,none,none,,,,da,3,,,,,,,,,,,,,,,3.0,2.0,Castellano,0.0,Catalan,0.0,Inglés,6.0,3.0,3.0,yes,no,no,flauta,11,,,Nada,63.0,yes
119,2024-04-11_13h38.23.410,Experiment4_uns,s170,22.0,feminino,right,España,Castellano y Catalan,Upper secondary,no,no,B,1,conjunction_un,L4,unsyncopated,s2,r2,119,Online_conjL4_un//c.bu.da31.none.none.wav,po,re,bo,sil,ja,ña,ñi,sil1,nu,pe,sil2,['-'],,,none,none,,,,da,3,,,,,,,,,,,,,,,3.0,2.0,Castellano,0.0,Catalan,0.0,Inglés,6.0,3.0,3.0,yes,no,no,flauta,11,,,Nada,63.0,yes
120,2024-04-11_13h38.23.410,Experiment4_uns,s170,22.0,feminino,right,España,Castellano y Catalan,Upper secondary,no,no,B,1,conjunction_un,L4,unsyncopated,s2,r1,120,Online_conjL4_un//a.zi.lo21.888.1776.wav,ci,da,de,sil,zi,bu,po,sil1,lo,re,sil2,['catch'],[1.6432000000029348],[1.6432000000029348],0.888,beat,0.7552000000029347,0.7552000000029347,"[""space""]",zi,1,,,,,,,,,,,,,,,3.0,2.0,Castellano,0.0,Catalan,0.0,Inglés,6.0,3.0,3.0,yes,no,no,flauta,11,,,Nada,63.0,yes
121,2024-04-11_13h38.23.410,Experiment4_uns,s170,22.0,feminino,right,España,Castellano y Catalan,Upper secondary,no,no,B,1,conjunction_un,L4,unsyncopated,s2,r2,121,Online_conjL4_un//a.zi.lo23.none.none.wav,ñi,bo,po,sil,ja,da,ña,sil1,nu,re,sil2,['-'],,,none,none,,,,zi,1,,,,,,,,,,,,,,,3.0,2.0,Castellano,0.0,Catalan,0.0,Inglés,6.0,3.0,3.0,yes,no,no,flauta,11,,,Nada,63.0,yes
122,2024-04-11_13h38.23.410,Experiment4_uns,s170,22.0,feminino,right,España,Castellano y Catalan,Upper secondary,no,no,B,1,conjunction_un,L4,unsyncopated,s2,r1,122,Online_conjL4_un//a.zi.lo22.888.1776.wav,bu,ñi,pe,sil,zi,bo,ci,sil1,lo,ru,sil2,['catch'],[1.7224000000057913],[1.7224000000057913],0.888,beat,0.8344000000057913,0.8344000000057913,"[""space""]",zi,1,,,,,,,,,,,,,,,3.0,2.0,Castellano,0.0,Catalan,0.0,Inglés,6.0,3.0,3.0,yes,no,no,flauta,11,,,Nada,63.0,yes
123,2024-04-11_13h38.23.410,Experiment4_uns,s170,22.0,feminino,right,España,Castellano y Catalan,Upper secondary,no,no,B,1,conjunction_un,L4,unsyncopated,s1,r2,123,Online_conjL4_un//a.zi.lo20.none.none.wav,ja,da,ñi,sil,nu,ña,ci,sil1,re,ru,sil2,['-'],,,none,none,,,,zi,1,,,,,,,,,,,,,,,3.0,2.0,Castellano,0.0,Catalan,0.0,Inglés,6.0,3.0,3.0,yes,no,no,flauta,11,,,Nada,63.0,yes
124,2024-04-11_13h38.23.410,Experiment4_uns,s170,22.0,feminino,right,España,Castellano y Catalan,Upper secondary,no,no,B,1,conjunction_un,L4,unsyncopated,s2,r1,124,Online_conjL4_un//d.pe.po11.1110.222.wav,bo,po,da,sil,zi,pe,de,sil1,lo,ñi,sil2,['catch'],[1.2395000000001346],[1.2395000000001346],0.222,no_beat,1.0175000000001346,1.0175000000001346,"[""space""]",po,4,,,,,,,,,,,,,,,3.0,2.0,Castellano,0.0,Catalan,0.0,Inglés,6.0,3.0,3.0,yes,no,no,flauta,11,,,Nada,63.0,yes
125,2024-04-11_13h38.23.410,Experiment4_uns,s170,22.0,feminino,right,España,Castellano y Catalan,Upper secondary,no,no,B,1,conjunction_un,L4,unsyncopated,s2,r1,125,Online_conjL4_un//d.pe.po8.none.none.wav,ña,re,ci,sil,zi,ru,ñi,sil1,lo,de,sil2,['-'],,,none,none,,,,po,4,,,,,,,,,,,,,,,3.0,2.0,Castellano,0.0,Catalan,0.0,Inglés,6.0,3.0,3.0,yes,no,no,flauta,11,,,Nada,63.0,yes
126,2024-04-11_13h38.23.410,Experiment4_uns,s170,22.0,feminino,right,España,Castellano y Catalan,Upper secondary,no,no,B,1,conjunction_un,L4,unsyncopated,s2,r2,126,Online_conjL4_un//d.pe.po10.1332.444.wav,re,ñi,po,sil,ja,bu,pe,sil1,nu,ru,sil2,['catch'],[1.2560000000000855],[1.2560000000000855],0.444,no_beat,0.8120000000000855,0.8120000000000855,"[""space""]",po,4,,,,,,,,,,,,,,,3.0,2.0,Castellano,0.0,Catalan,0.0,Inglés,6.0,3.0,3.0,yes,no,no,flauta,11,,,Nada,63.0,yes
127,2024-04-11_13h38.23.410,Experiment4_uns,s170,22.0,feminino,right,España,Castellano y Catalan,Upper secondary,no,no,B,1,conjunction_un,L4,unsyncopated,s1,r1,127,Online_conjL4_un//d.pe.po9.222.1110.wav,zi,pe,bo,sil,lo,po,de,sil1,ru,re,sil2,['catch'],[1.5864999999998872],[1.5864999999998872],1.11,no_beat,0.4764999999998871,0.4764999999998871,"[""space""]",po,4,,,,,,,,,,,,,,,3.0,2.0,Castellano,0.0,Catalan,0.0,Inglés,6.0,3.0,3.0,yes,no,no,flauta,11,,,Nada,63.0,yes
128,2024-04-11_13h38.23.410,Experiment4_uns,s170,22.0,feminino,right,España,Castellano y Catalan,Upper secondary,no,no,B,2,what,L1,unsyncopated,s1,r2,0,Online_whatL1//b.ta.be12.0.888.wav,ta,fo,lu,sil,be,zu,fa,sil2,cho,ne,sil1,['catch'],[1.9140999999940504],[1.9140999999940504],0.888,beat,1.0260999999940503,1.0260999999940503,"[""space""]",be,2,,,,,,,,,,,,,,,3.0,2.0,Castellano,0.0,Catalan,0.0,Inglés,6.0,3.0,3.0,yes,no,no,flauta,11,,,Nada,63.0,yes
129,2024-04-11_13h38.23.410,Experiment4_uns,s170,22.0,feminino,right,España,Castellano y Catalan,Upper secondary,no,no,B,2,what,L1,unsyncopated,s1,r1,1,Online_whatL1//b.ta.be15.none.none.wav,pu,ne,lu,sil2,ki,fo,la,sil,fa,ze,sil1,['-'],,,none,none,,,,be,2,,,,,,,,,,,,,,,3.0,2.0,Castellano,0.0,Catalan,0.0,Inglés,6.0,3.0,3.0,yes,no,no,flauta,11,,,Nada,63.0,yes
130,2024-04-11_13h38.23.410,Experiment4_uns,s170,22.0,feminino,right,España,Castellano y Catalan,Upper secondary,no,no,B,2,what,L1,unsyncopated,s2,r2,2,Online_whatL1//b.ta.be13.888.1998.wav,cho,fa,ro,sil,ta,lu,zu,sil2,be,fo,sil1,['catch_delay'],[0.7083999999911759],[0.7083999999911759],1.998,no_beat,0.7083999999911759,0.7083999999911759,,be,2,,,,,,,,,,,,,,,3.0,2.0,Castellano,0.0,Catalan,0.0,Inglés,6.0,3.0,3.0,yes,no,no,flauta,11,,,Nada,63.0,yes
131,2024-04-11_13h38.23.410,Experiment4_uns,s170,22.0,feminino,right,España,Castellano y Catalan,Upper secondary,no,no,B,2,what,L1,unsyncopated,s2,r1,3,Online_whatL1//b.ta.be14.none.none.wav,cho,zu,fo,sil2,pu,ne,ri,sil,ki,ni,sil1,['-'],[0.04239999999117572],[0.04239999999117572],none,none,,,"[""space""]",be,2,,,,,,,,,,,,,,,3.0,2.0,Castellano,0.0,Catalan,0.0,Inglés,6.0,3.0,3.0,yes,no,no,flauta,11,,,Nada,63.0,yes
132,2024-04-11_13h38.23.410,Experiment4_uns,s170,22.0,feminino,right,España,Castellano y Catalan,Upper secondary,no,no,B,2,what,L1,unsyncopated,s1,r2,4,Online_whatL1//a.pu.ki3.none.none.wav,ta,la,ne,sil,be,cho,ni,sil2,fo,ri,sil1,['false alarm'],[1.6057000000030257],[1.6057000000030257],none,none,,,"[""space""]",pu,1,,,,,,,,,,,,,,,3.0,2.0,Castellano,0.0,Catalan,0.0,Inglés,6.0,3.0,3.0,yes,no,no,flauta,11,,,Nada,63.0,yes
133,2024-04-11_13h38.23.410,Experiment4_uns,s170,22.0,feminino,right,España,Castellano y Catalan,Upper secondary,no,no,B,2,what,L1,unsyncopated,s1,r1,5,Online_whatL1//a.pu.ki1.0.888.wav,pu,ni,ne,sil,ki,ri,la,sil2,ro,cho,sil1,['miss'],,,0.0,beat,,,,pu,1,,,,,,,,,,,,,,,3.0,2.0,Castellano,0.0,Catalan,0.0,Inglés,6.0,3.0,3.0,yes,no,no,flauta,11,,,Nada,63.0,yes
134,2024-04-11_13h38.23.410,Experiment4_uns,s170,22.0,feminino,right,España,Castellano y Catalan,Upper secondary,no,no,B,2,what,L1,unsyncopated,s1,r2,6,Online_whatL1//a.pu.ki2.none.none.wav,ta,zu,lu,sil2,be,ni,ze,sil,ne,fa,sil1,['-'],,,none,none,,,,pu,1,,,,,,,,,,,,,,,3.0,2.0,Castellano,0.0,Catalan,0.0,Inglés,6.0,3.0,3.0,yes,no,no,flauta,11,,,Nada,63.0,yes
135,2024-04-11_13h38.23.410,Experiment4_uns,s170,22.0,feminino,right,España,Castellano y Catalan,Upper secondary,no,no,B,2,what,L1,unsyncopated,s1,r1,7,Online_whatL1//a.pu.ki0.0.888.wav,pu,la,ne,sil,ki,lu,fa,sil1,ni,fo,sil2,['catch'],[0.7572999999970307],[0.7572999999970307],0.0,beat,0.7572999999970307,0.7572999999970307,"[""space""]",pu,1,,,,,,,,,,,,,,,3.0,2.0,Castellano,0.0,Catalan,0.0,Inglés,6.0,3.0,3.0,yes,no,no,flauta,11,,,Nada,63.0,yes
136,2024-04-11_13h38.23.410,Experiment4_uns,s170,22.0,feminino,right,España,Castellano y Catalan,Upper secondary,no,no,B,2,what,L1,unsyncopated,s1,r2,8,Online_whatL1//c.ro.fo14.1332.222.wav,ta,fo,cho,sil,be,fa,ro,sil1,lu,ni,sil2,['miss'],,,0.222,no_beat,,,,fo,3,,,,,,,,,,,,,,,3.0,2.0,Castellano,0.0,Catalan,0.0,Inglés,6.0,3.0,3.0,yes,no,no,flauta,11,,,Nada,63.0,yes
137,2024-04-11_13h38.23.410,Experiment4_uns,s170,22.0,feminino,right,España,Castellano y Catalan,Upper secondary,no,no,B,2,what,L1,unsyncopated,s1,r2,9,Online_whatL1//c.ro.fo15.none.none.wav,ta,ri,lu,sil,be,ze,zu,sil1,cho,ni,sil2,['-'],,,none,none,,,,fo,3,,,,,,,,,,,,,,,3.0,2.0,Castellano,0.0,Catalan,0.0,Inglés,6.0,3.0,3.0,yes,no,no,flauta,11,,,Nada,63.0,yes
138,2024-04-11_13h38.23.410,Experiment4_uns,s170,22.0,feminino,right,España,Castellano y Catalan,Upper secondary,no,no,B,2,what,L1,unsyncopated,s2,r1,10,Online_whatL1//c.ro.fo13.1332.444.wav,ni,fa,fo,sil,pu,la,ro,sil1,ki,cho,sil2,['catch'],[1.1027999999971598],[1.1027999999971598],0.444,no_beat,0.6587999999971599,0.6587999999971599,"[""space""]",fo,3,,,,,,,,,,,,,,,3.0,2.0,Castellano,0.0,Catalan,0.0,Inglés,6.0,3.0,3.0,yes,no,no,flauta,11,,,Nada,63.0,yes
139,2024-04-11_13h38.23.410,Experiment4_uns,s170,22.0,feminino,right,España,Castellano y Catalan,Upper secondary,no,no,B,2,what,L1,unsyncopated,s2,r2,11,Online_whatL1//c.ro.fo12.1332.222.wav,ri,fo,zu,sil,ta,fa,ro,sil2,be,ni,sil1,['miss'],,,0.222,no_beat,,,,fo,3,,,,,,,,,,,,,,,3.0,2.0,Castellano,0.0,Catalan,0.0,Inglés,6.0,3.0,3.0,yes,no,no,flauta,11,,,Nada,63.0,yes
140,2024-04-11_13h38.23.410,Experiment4_uns,s170,22.0,feminino,right,España,Castellano y Catalan,Upper secondary,no,no,B,2,what,L1,unsyncopated,s2,r2,12,Online_whatL1//a.pu.ki18.none.none.wav,zu,ne,cho,sil,ta,fo,ri,sil1,be,fa,sil2,['-'],,,none,none,,,,pu,1,,,,,,,,,,,,,,,3.0,2.0,Castellano,0.0,Catalan,0.0,Inglés,6.0,3.0,3.0,yes,no,no,flauta,11,,,Nada,63.0,yes
141,2024-04-11_13h38.23.410,Experiment4_uns,s170,22.0,feminino,right,España,Castellano y Catalan,Upper secondary,no,no,B,2,what,L1,unsyncopated,s1,r1,13,Online_whatL1//a.pu.ki17.0.1110.wav,pu,ro,ni,sil2,ki,zu,la,sil,cho,ri,sil1,['catch'],[0.8082999999969616],[0.8082999999969616],0.0,beat,0.8082999999969616,0.8082999999969616,"[""space""]",pu,1,,,,,,,,,,,,,,,3.0,2.0,Castellano,0.0,Catalan,0.0,Inglés,6.0,3.0,3.0,yes,no,no,flauta,11,,,Nada,63.0,yes
142,2024-04-11_13h38.23.410,Experiment4_uns,s170,22.0,feminino,right,España,Castellano y Catalan,Upper secondary,no,no,B,2,what,L1,unsyncopated,s2,r1,14,Online_whatL1//a.pu.ki19.1110.1998.wav,ne,ze,la,sil2,pu,fo,zu,sil,ki,cho,sil1,['catch'],[2.150600000008808],[2.150600000008808],1.11,no_beat,1.0406000000088078,1.0406000000088078,"[""space""]",pu,1,,,,,,,,,,,,,,,3.0,2.0,Castellano,0.0,Catalan,0.0,Inglés,6.0,3.0,3.0,yes,no,no,flauta,11,,,Nada,63.0,yes
143,2024-04-11_13h38.23.410,Experiment4_uns,s170,22.0,feminino,right,España,Castellano y Catalan,Upper secondary,no,no,B,2,what,L1,unsyncopated,s1,r1,15,Online_whatL1//a.pu.ki16.0.888.wav,pu,cho,ze,sil,ki,ri,ni,sil1,lu,fa,sil2,['catch'],[0.8650000000000091],[0.8650000000000091],0.0,beat,0.8650000000000091,0.8650000000000091,"[""space""]",pu,1,,,,,,,,,,,,,,,3.0,2.0,Castellano,0.0,Catalan,0.0,Inglés,6.0,3.0,3.0,yes,no,no,flauta,11,,,Nada,63.0,yes
144,2024-04-11_13h38.23.410,Experiment4_uns,s170,22.0,feminino,right,España,Castellano y Catalan,Upper secondary,no,no,B,2,what,L1,unsyncopated,s2,r1,16,Online_whatL1//c.ro.fo16.222.444.wav,zu,ro,fo,sil,pu,lu,fa,sil2,ki,la,sil1,['catch'],[1.1275999999941178],[1.1275999999941178],0.444,no_beat,0.6835999999941178,0.6835999999941178,"[""space""]",fo,3,,,,,,,,,,,,,,,3.0,2.0,Castellano,0.0,Catalan,0.0,Inglés,6.0,3.0,3.0,yes,no,no,flauta,11,,,Nada,63.0,yes
145,2024-04-11_13h38.23.410,Experiment4_uns,s170,22.0,feminino,right,España,Castellano y Catalan,Upper secondary,no,no,B,2,what,L1,unsyncopated,s2,r1,17,Online_whatL1//c.ro.fo17.444.0.wav,fo,lu,ro,sil,pu,zu,ne,sil1,ki,fa,sil2,['catch'],[0.7537999999969998],[0.7537999999969998],0.0,beat,0.7537999999969998,0.7537999999969998,"[""space""]",fo,3,,,,,,,,,,,,,,,3.0,2.0,Castellano,0.0,Catalan,0.0,Inglés,6.0,3.0,3.0,yes,no,no,flauta,11,,,Nada,63.0,yes
146,2024-04-11_13h38.23.410,Experiment4_uns,s170,22.0,feminino,right,España,Castellano y Catalan,Upper secondary,no,no,B,2,what,L1,unsyncopated,s2,r1,18,Online_whatL1//c.ro.fo18.none.none.wav,ne,zu,la,sil2,pu,fa,ni,sil,ki,lu,sil1,['-'],,,none,none,,,,fo,3,,,,,,,,,,,,,,,3.0,2.0,Castellano,0.0,Catalan,0.0,Inglés,6.0,3.0,3.0,yes,no,no,flauta,11,,,Nada,63.0,yes
147,2024-04-11_13h38.23.410,Experiment4_uns,s170,22.0,feminino,right,España,Castellano y Catalan,Upper secondary,no,no,B,2,what,L1,unsyncopated,s2,r1,19,Online_whatL1//c.ro.fo19.none.none.wav,fa,ri,zu,sil,pu,ze,cho,sil2,ki,ni,sil1,['-'],,,none,none,,,,fo,3,,,,,,,,,,,,,,,3.0,2.0,Castellano,0.0,Catalan,0.0,Inglés,6.0,3.0,3.0,yes,no,no,flauta,11,,,Nada,63.0,yes
148,2024-04-11_13h38.23.410,Experiment4_uns,s170,22.0,feminino,right,España,Castellano y Catalan,Upper secondary,no,no,B,2,what,L1,unsyncopated,s1,r1,20,Online_whatL1//a.pu.ki20.0.888.wav,pu,ze,ni,sil,ki,la,ne,sil2,zu,ro,sil1,['catch'],[0.7452999999970871],[0.7452999999970871],0.0,beat,0.7452999999970871,0.7452999999970871,"[""space""]",pu,1,,,,,,,,,,,,,,,3.0,2.0,Castellano,0.0,Catalan,0.0,Inglés,6.0,3.0,3.0,yes,no,no,flauta,11,,,Nada,63.0,yes
149,2024-04-11_13h38.23.410,Experiment4_uns,s170,22.0,feminino,right,España,Castellano y Catalan,Upper secondary,no,no,B,2,what,L1,unsyncopated,s2,r2,21,Online_whatL1//a.pu.ki21.none.none.wav,ze,fo,ri,sil,ta,lu,cho,sil2,be,la,sil1,['-'],,,none,none,,,,pu,1,,,,,,,,,,,,,,,3.0,2.0,Castellano,0.0,Catalan,0.0,Inglés,6.0,3.0,3.0,yes,no,no,flauta,11,,,Nada,63.0,yes
150,2024-04-11_13h38.23.410,Experiment4_uns,s170,22.0,feminino,right,España,Castellano y Catalan,Upper secondary,no,no,B,2,what,L1,unsyncopated,s1,r2,22,Online_whatL1//a.pu.ki22.none.none.wav,ta,ne,cho,sil2,be,ro,lu,sil,fa,fo,sil1,['-'],,,none,none,,,,pu,1,,,,,,,,,,,,,,,3.0,2.0,Castellano,0.0,Catalan,0.0,Inglés,6.0,3.0,3.0,yes,no,no,flauta,11,,,Nada,63.0,yes
151,2024-04-11_13h38.23.410,Experiment4_uns,s170,22.0,feminino,right,España,Castellano y Catalan,Upper secondary,no,no,B,2,what,L1,unsyncopated,s1,r2,23,Online_whatL1//a.pu.ki23.none.none.wav,ta,ne,la,sil2,be,fo,lu,sil,cho,ze,sil1,['-'],,,none,none,,,,pu,1,,,,,,,,,,,,,,,3.0,2.0,Castellano,0.0,Catalan,0.0,Inglés,6.0,3.0,3.0,yes,no,no,flauta,11,,,Nada,63.0,yes
152,2024-04-11_13h38.23.410,Experiment4_uns,s170,22.0,feminino,right,España,Castellano y Catalan,Upper secondary,no,no,B,2,what,L1,unsyncopated,s1,r2,24,Online_whatL1//d.ne.ni20.none.none.wav,ta,fa,ro,sil2,be,ze,cho,sil,la,zu,sil1,['-'],,,none,none,,,,ni,4,,,,,,,,,,,,,,,3.0,2.0,Castellano,0.0,Catalan,0.0,Inglés,6.0,3.0,3.0,yes,no,no,flauta,11,,,Nada,63.0,yes
153,2024-04-11_13h38.23.410,Experiment4_uns,s170,22.0,feminino,right,España,Castellano y Catalan,Upper secondary,no,no,B,2,what,L1,unsyncopated,s2,r1,25,Online_whatL1//d.ne.ni21.none.none.wav,zu,fo,la,sil,pu,ze,cho,sil2,ki,lu,sil1,['-'],,,none,none,,,,ni,4,,,,,,,,,,,,,,,3.0,2.0,Castellano,0.0,Catalan,0.0,Inglés,6.0,3.0,3.0,yes,no,no,flauta,11,,,Nada,63.0,yes
154,2024-04-11_13h38.23.410,Experiment4_uns,s170,22.0,feminino,right,España,Castellano y Catalan,Upper secondary,no,no,B,2,what,L1,unsyncopated,s1,r1,26,Online_whatL1//d.ne.ni23.none.none.wav,pu,fo,zu,sil,ki,cho,ro,sil1,ri,la,sil2,['-'],,,none,none,,,,ni,4,,,,,,,,,,,,,,,3.0,2.0,Castellano,0.0,Catalan,0.0,Inglés,6.0,3.0,3.0,yes,no,no,flauta,11,,,Nada,63.0,yes
155,2024-04-11_13h38.23.410,Experiment4_uns,s170,22.0,feminino,right,España,Castellano y Catalan,Upper secondary,no,no,B,2,what,L1,unsyncopated,s1,r1,27,Online_whatL1//d.ne.ni22.none.none.wav,pu,ro,cho,sil2,ki,lu,ze,sil,zu,ri,sil1,['-'],,,none,none,,,,ni,4,,,,,,,,,,,,,,,3.0,2.0,Castellano,0.0,Catalan,0.0,Inglés,6.0,3.0,3.0,yes,no,no,flauta,11,,,Nada,63.0,yes
156,2024-04-11_13h38.23.410,Experiment4_uns,s170,22.0,feminino,right,España,Castellano y Catalan,Upper secondary,no,no,B,2,what,L1,unsyncopated,s2,r2,28,Online_whatL1//b.ta.be2.1110.1998.wav,ze,fa,lu,sil2,ta,ne,cho,sil,be,ri,sil1,['catch_delay'],[0.7487999999971782],[0.7487999999971782],1.998,no_beat,0.7487999999971782,0.7487999999971782,,be,2,,,,,,,,,,,,,,,3.0,2.0,Castellano,0.0,Catalan,0.0,Inglés,6.0,3.0,3.0,yes,no,no,flauta,11,,,Nada,63.0,yes
157,2024-04-11_13h38.23.410,Experiment4_uns,s170,22.0,feminino,right,España,Castellano y Catalan,Upper secondary,no,no,B,2,what,L1,unsyncopated,s1,r1,29,Online_whatL1//b.ta.be1.none.none.wav,pu,fa,fo,sil2,ki,la,zu,sil,ze,ri,sil1,['-'],[0.08279999999717802],[0.08279999999717802],none,none,,,"[""space""]",be,2,,,,,,,,,,,,,,,3.0,2.0,Castellano,0.0,Catalan,0.0,Inglés,6.0,3.0,3.0,yes,no,no,flauta,11,,,Nada,63.0,yes
158,2024-04-11_13h38.23.410,Experiment4_uns,s170,22.0,feminino,right,España,Castellano y Catalan,Upper secondary,no,no,B,2,what,L1,unsyncopated,s2,r1,30,Online_whatL1//b.ta.be3.none.none.wav,ze,ri,la,sil,pu,ni,fo,sil1,ki,cho,sil2,['-'],,,none,none,,,,be,2,,,,,,,,,,,,,,,3.0,2.0,Castellano,0.0,Catalan,0.0,Inglés,6.0,3.0,3.0,yes,no,no,flauta,11,,,Nada,63.0,yes
159,2024-04-11_13h38.23.410,Experiment4_uns,s170,22.0,feminino,right,España,Castellano y Catalan,Upper secondary,no,no,B,2,what,L1,unsyncopated,s2,r2,31,Online_whatL1//b.ta.be0.888.1776.wav,ni,lu,ne,sil,ta,ze,zu,sil1,be,la,sil2,['catch'],[2.632000000000062],[2.632000000000062],1.776,beat,0.8560000000000618,0.8560000000000618,"[""space""]",be,2,,,,,,,,,,,,,,,3.0,2.0,Castellano,0.0,Catalan,0.0,Inglés,6.0,3.0,3.0,yes,no,no,flauta,11,,,Nada,63.0,yes
160,2024-04-11_13h38.23.410,Experiment4_uns,s170,22.0,feminino,right,España,Castellano y Catalan,Upper secondary,no,no,B,2,what,L1,unsyncopated,s1,r2,32,Online_whatL1//c.ro.fo8.222.444.wav,ta,ro,fo,sil,be,ri,fa,sil2,cho,lu,sil1,['catch'],[1.266400000006115],[1.266400000006115],0.444,no_beat,0.8224000000061151,0.8224000000061151,"[""space""]",fo,3,,,,,,,,,,,,,,,3.0,2.0,Castellano,0.0,Catalan,0.0,Inglés,6.0,3.0,3.0,yes,no,no,flauta,11,,,Nada,63.0,yes
161,2024-04-11_13h38.23.410,Experiment4_uns,s170,22.0,feminino,right,España,Castellano y Catalan,Upper secondary,no,no,B,2,what,L1,unsyncopated,s1,r1,33,Online_whatL1//c.ro.fo11.none.none.wav,pu,la,fa,sil2,ki,ri,zu,sil,ni,ne,sil1,['-'],,,none,none,,,,fo,3,,,,,,,,,,,,,,,3.0,2.0,Castellano,0.0,Catalan,0.0,Inglés,6.0,3.0,3.0,yes,no,no,flauta,11,,,Nada,63.0,yes
162,2024-04-11_13h38.23.410,Experiment4_uns,s170,22.0,feminino,right,España,Castellano y Catalan,Upper secondary,no,no,B,2,what,L1,unsyncopated,s2,r2,34,Online_whatL1//c.ro.fo9.0.1110.wav,ro,lu,zu,sil,ta,fo,cho,sil2,be,ze,sil1,['miss'],,,1.11,no_beat,,,,fo,3,,,,,,,,,,,,,,,3.0,2.0,Castellano,0.0,Catalan,0.0,Inglés,6.0,3.0,3.0,yes,no,no,flauta,11,,,Nada,63.0,yes
163,2024-04-11_13h38.23.410,Experiment4_uns,s170,22.0,feminino,right,España,Castellano y Catalan,Upper secondary,no,no,B,2,what,L1,unsyncopated,s1,r1,35,Online_whatL1//c.ro.fo10.1332.444.wav,pu,fa,fo,sil,ki,ne,ro,sil1,ni,cho,sil2,['catch'],[1.1444000000058168],[1.1444000000058168],0.444,no_beat,0.7004000000058168,0.7004000000058168,"[""space""]",fo,3,,,,,,,,,,,,,,,3.0,2.0,Castellano,0.0,Catalan,0.0,Inglés,6.0,3.0,3.0,yes,no,no,flauta,11,,,Nada,63.0,yes
164,2024-04-11_13h38.23.410,Experiment4_uns,s170,22.0,feminino,right,España,Castellano y Catalan,Upper secondary,no,no,B,2,what,L1,unsyncopated,s2,r1,36,Online_whatL1//d.ne.ni8.none.none.wav,lu,fa,la,sil,pu,cho,ze,sil2,ki,fo,sil1,['-'],,,none,none,,,,ni,4,,,,,,,,,,,,,,,3.0,2.0,Castellano,0.0,Catalan,0.0,Inglés,6.0,3.0,3.0,yes,no,no,flauta,11,,,Nada,63.0,yes
165,2024-04-11_13h38.23.410,Experiment4_uns,s170,22.0,feminino,right,España,Castellano y Catalan,Upper secondary,no,no,B,2,what,L1,unsyncopated,s1,r1,37,Online_whatL1//d.ne.ni9.222.444.wav,pu,ne,ni,sil,ki,fa,zu,sil2,fo,ro,sil1,['catch'],[1.238599999993994],[1.238599999993994],0.444,no_beat,0.7945999999939941,0.7945999999939941,"[""space""]",ni,4,,,,,,,,,,,,,,,3.0,2.0,Castellano,0.0,Catalan,0.0,Inglés,6.0,3.0,3.0,yes,no,no,flauta,11,,,Nada,63.0,yes
166,2024-04-11_13h38.23.410,Experiment4_uns,s170,22.0,feminino,right,España,Castellano y Catalan,Upper secondary,no,no,B,2,what,L1,unsyncopated,s2,r2,38,Online_whatL1//d.ne.ni11.none.none.wav,lu,fa,ze,sil,ta,ri,la,sil1,be,fo,sil2,['-'],,,none,none,,,,ni,4,,,,,,,,,,,,,,,3.0,2.0,Castellano,0.0,Catalan,0.0,Inglés,6.0,3.0,3.0,yes,no,no,flauta,11,,,Nada,63.0,yes
167,2024-04-11_13h38.23.410,Experiment4_uns,s170,22.0,feminino,right,España,Castellano y Catalan,Upper secondary,no,no,B,2,what,L1,unsyncopated,s2,r1,39,Online_whatL1//d.ne.ni10.none.none.wav,ri,fa,ro,sil2,pu,zu,ze,sil,ki,la,sil1,['-'],,,none,none,,,,ni,4,,,,,,,,,,,,,,,3.0,2.0,Castellano,0.0,Catalan,0.0,Inglés,6.0,3.0,3.0,yes,no,no,flauta,11,,,Nada,63.0,yes
168,2024-04-11_13h38.23.410,Experiment4_uns,s170,22.0,feminino,right,España,Castellano y Catalan,Upper secondary,no,no,B,2,what,L1,unsyncopated,s1,r1,40,Online_whatL1//c.ro.fo3.1998.444.wav,pu,lu,fo,sil,ki,cho,fa,sil2,ro,ni,sil1,['catch'],[1.0981000000087988],[1.0981000000087988],0.444,no_beat,0.6541000000087989,0.6541000000087989,"[""space""]",fo,3,,,,,,,,,,,,,,,3.0,2.0,Castellano,0.0,Catalan,0.0,Inglés,6.0,3.0,3.0,yes,no,no,flauta,11,,,Nada,63.0,yes
169,2024-04-11_13h38.23.410,Experiment4_uns,s170,22.0,feminino,right,España,Castellano y Catalan,Upper secondary,no,no,B,2,what,L1,unsyncopated,s2,r2,41,Online_whatL1//c.ro.fo1.0.444.wav,ro,zu,fo,sil2,ta,ri,ne,sil,be,fa,sil1,['catch'],[1.3205000000000382],[1.3205000000000382],0.444,no_beat,0.8765000000000382,0.8765000000000382,"[""space""]",fo,3,,,,,,,,,,,,,,,3.0,2.0,Castellano,0.0,Catalan,0.0,Inglés,6.0,3.0,3.0,yes,no,no,flauta,11,,,Nada,63.0,yes
170,2024-04-11_13h38.23.410,Experiment4_uns,s170,22.0,feminino,right,España,Castellano y Catalan,Upper secondary,no,no,B,2,what,L1,unsyncopated,s1,r2,42,Online_whatL1//c.ro.fo2.none.none.wav,ta,fa,ze,sil,be,ri,lu,sil1,ni,la,sil2,['-'],,,none,none,,,,fo,3,,,,,,,,,,,,,,,3.0,2.0,Castellano,0.0,Catalan,0.0,Inglés,6.0,3.0,3.0,yes,no,no,flauta,11,,,Nada,63.0,yes
171,2024-04-11_13h38.23.410,Experiment4_uns,s170,22.0,feminino,right,España,Castellano y Catalan,Upper secondary,no,no,B,2,what,L1,unsyncopated,s1,r2,43,Online_whatL1//c.ro.fo0.none.none.wav,ta,lu,ri,sil,be,ze,zu,sil2,ni,la,sil1,['-'],,,none,none,,,,fo,3,,,,,,,,,,,,,,,3.0,2.0,Castellano,0.0,Catalan,0.0,Inglés,6.0,3.0,3.0,yes,no,no,flauta,11,,,Nada,63.0,yes
172,2024-04-11_13h38.23.410,Experiment4_uns,s170,22.0,feminino,right,España,Castellano y Catalan,Upper secondary,no,no,B,2,what,L1,unsyncopated,s1,r2,44,Online_whatL1//b.ta.be18.0.1110.wav,ta,zu,lu,sil2,be,ni,ne,sil,ze,la,sil1,['catch'],[2.2327999999970416],[2.2327999999970416],1.11,no_beat,1.1227999999970415,1.1227999999970415,"[""space""]",be,2,,,,,,,,,,,,,,,3.0,2.0,Castellano,0.0,Catalan,0.0,Inglés,6.0,3.0,3.0,yes,no,no,flauta,11,,,Nada,63.0,yes
173,2024-04-11_13h38.23.410,Experiment4_uns,s170,22.0,feminino,right,España,Castellano y Catalan,Upper secondary,no,no,B,2,what,L1,unsyncopated,s1,r2,45,Online_whatL1//b.ta.be19.0.888.wav,ta,lu,ze,sil,be,la,ro,sil2,cho,fo,sil1,['catch'],[1.6774999999997817],[1.6774999999997817],0.888,beat,0.7894999999997817,0.7894999999997817,"[""space""]",be,2,,,,,,,,,,,,,,,3.0,2.0,Castellano,0.0,Catalan,0.0,Inglés,6.0,3.0,3.0,yes,no,no,flauta,11,,,Nada,63.0,yes
174,2024-04-11_13h38.23.410,Experiment4_uns,s170,22.0,feminino,right,España,Castellano y Catalan,Upper secondary,no,no,B,2,what,L1,unsyncopated,s1,r2,46,Online_whatL1//b.ta.be17.0.888.wav,ta,fa,zu,sil,be,ze,la,sil1,ni,ro,sil2,['catch'],[1.6449999999999818],[1.6449999999999818],0.888,beat,0.7569999999999818,0.7569999999999818,"[""space""]",be,2,,,,,,,,,,,,,,,3.0,2.0,Castellano,0.0,Catalan,0.0,Inglés,6.0,3.0,3.0,yes,no,no,flauta,11,,,Nada,63.0,yes
175,2024-04-11_13h38.23.410,Experiment4_uns,s170,22.0,feminino,right,España,Castellano y Catalan,Upper secondary,no,no,B,2,what,L1,unsyncopated,s2,r2,47,Online_whatL1//b.ta.be16.1110.1998.wav,zu,fa,cho,sil2,ta,ri,ro,sil,be,ze,sil1,['miss'],,,1.998,no_beat,,,,be,2,,,,,,,,,,,,,,,3.0,2.0,Castellano,0.0,Catalan,0.0,Inglés,6.0,3.0,3.0,yes,no,no,flauta,11,,,Nada,63.0,yes
176,2024-04-11_13h38.23.410,Experiment4_uns,s170,22.0,feminino,right,España,Castellano y Catalan,Upper secondary,no,no,B,2,what,L1,unsyncopated,s1,r1,48,Online_whatL1//c.ro.fo28.222.1332.wav,pu,ro,ni,sil2,ki,fo,cho,sil,zu,lu,sil1,['catch'],[2.131899999990992],[2.131899999990992],1.332,no_beat,0.7998999999909919,0.7998999999909919,"[""space""]",fo,3,,,,,,,,,,,,,,,3.0,2.0,Castellano,0.0,Catalan,0.0,Inglés,6.0,3.0,3.0,yes,no,no,flauta,11,,,Nada,63.0,yes
177,2024-04-11_13h38.23.410,Experiment4_uns,s170,22.0,feminino,right,España,Castellano y Catalan,Upper secondary,no,no,B,2,what,L1,unsyncopated,s2,r2,49,Online_whatL1//c.ro.fo30.none.none.wav,ri,cho,ze,sil,ta,lu,zu,sil2,be,la,sil1,['false alarm'],[0.69319999998811],[0.69319999998811],none,none,,,"[""space""]",fo,3,,,,,,,,,,,,,,,3.0,2.0,Castellano,0.0,Catalan,0.0,Inglés,6.0,3.0,3.0,yes,no,no,flauta,11,,,Nada,63.0,yes
178,2024-04-11_13h38.23.410,Experiment4_uns,s170,22.0,feminino,right,España,Castellano y Catalan,Upper secondary,no,no,B,2,what,L1,unsyncopated,s2,r2,50,Online_whatL1//c.ro.fo31.none.none.wav,ze,zu,ne,sil,ta,la,ri,sil1,be,cho,sil2,['-'],,,none,none,,,,fo,3,,,,,,,,,,,,,,,3.0,2.0,Castellano,0.0,Catalan,0.0,Inglés,6.0,3.0,3.0,yes,no,no,flauta,11,,,Nada,63.0,yes
179,2024-04-11_13h38.23.410,Experiment4_uns,s170,22.0,feminino,right,España,Castellano y Catalan,Upper secondary,no,no,B,2,what,L1,unsyncopated,s2,r1,51,Online_whatL1//c.ro.fo29.1332.222.wav,lu,fo,ni,sil2,pu,ro,la,sil,ki,ze,sil1,['catch'],[0.958600000009028],[0.958600000009028],0.222,no_beat,0.736600000009028,0.736600000009028,"[""space""]",fo,3,,,,,,,,,,,,,,,3.0,2.0,Castellano,0.0,Catalan,0.0,Inglés,6.0,3.0,3.0,yes,no,no,flauta,11,,,Nada,63.0,yes
180,2024-04-11_13h38.23.410,Experiment4_uns,s170,22.0,feminino,right,España,Castellano y Catalan,Upper secondary,no,no,B,2,what,L1,unsyncopated,s2,r2,52,Online_whatL1//a.pu.ki15.none.none.wav,fo,ne,ro,sil2,ta,cho,lu,sil,be,ze,sil1,['-'],,,none,none,,,,pu,1,,,,,,,,,,,,,,,3.0,2.0,Castellano,0.0,Catalan,0.0,Inglés,6.0,3.0,3.0,yes,no,no,flauta,11,,,Nada,63.0,yes
181,2024-04-11_13h38.23.410,Experiment4_uns,s170,22.0,feminino,right,España,Castellano y Catalan,Upper secondary,no,no,B,2,what,L1,unsyncopated,s2,r2,53,Online_whatL1//a.pu.ki14.none.none.wav,ni,ne,ze,sil2,ta,fa,ri,sil,be,ro,sil1,['-'],,,none,none,,,,pu,1,,,,,,,,,,,,,,,3.0,2.0,Castellano,0.0,Catalan,0.0,Inglés,6.0,3.0,3.0,yes,no,no,flauta,11,,,Nada,63.0,yes
182,2024-04-11_13h38.23.410,Experiment4_uns,s170,22.0,feminino,right,España,Castellano y Catalan,Upper secondary,no,no,B,2,what,L1,unsyncopated,s2,r2,54,Online_whatL1//a.pu.ki13.none.none.wav,la,fa,ri,sil,ta,cho,ni,sil1,be,fo,sil2,['-'],,,none,none,,,,pu,1,,,,,,,,,,,,,,,3.0,2.0,Castellano,0.0,Catalan,0.0,Inglés,6.0,3.0,3.0,yes,no,no,flauta,11,,,Nada,63.0,yes
183,2024-04-11_13h38.23.410,Experiment4_uns,s170,22.0,feminino,right,España,Castellano y Catalan,Upper secondary,no,no,B,2,what,L1,unsyncopated,s2,r1,55,Online_whatL1//a.pu.ki12.1110.1998.wav,ni,zu,ro,sil2,pu,lu,ze,sil,ki,fa,sil1,['catch'],[1.7742000000030203],[1.7742000000030203],1.11,no_beat,0.6642000000030202,0.6642000000030202,"[""space""]",pu,1,,,,,,,,,,,,,,,3.0,2.0,Castellano,0.0,Catalan,0.0,Inglés,6.0,3.0,3.0,yes,no,no,flauta,11,,,Nada,63.0,yes
184,2024-04-11_13h38.23.410,Experiment4_uns,s170,22.0,feminino,right,España,Castellano y Catalan,Upper secondary,no,no,B,2,what,L1,unsyncopated,s1,r2,56,Online_whatL1//a.pu.ki11.none.none.wav,ta,lu,ri,sil,be,la,fa,sil1,ne,ze,sil2,['-'],,,none,none,,,,pu,1,,,,,,,,,,,,,,,3.0,2.0,Castellano,0.0,Catalan,0.0,Inglés,6.0,3.0,3.0,yes,no,no,flauta,11,,,Nada,63.0,yes
185,2024-04-11_13h38.23.410,Experiment4_uns,s170,22.0,feminino,right,España,Castellano y Catalan,Upper secondary,no,no,B,2,what,L1,unsyncopated,s1,r2,57,Online_whatL1//a.pu.ki9.none.none.wav,ta,ne,la,sil2,be,zu,ze,sil,fo,lu,sil1,['-'],,,none,none,,,,pu,1,,,,,,,,,,,,,,,3.0,2.0,Castellano,0.0,Catalan,0.0,Inglés,6.0,3.0,3.0,yes,no,no,flauta,11,,,Nada,63.0,yes
186,2024-04-11_13h38.23.410,Experiment4_uns,s170,22.0,feminino,right,España,Castellano y Catalan,Upper secondary,no,no,B,2,what,L1,unsyncopated,s2,r1,58,Online_whatL1//a.pu.ki10.888.1776.wav,ni,la,lu,sil,pu,zu,ze,sil1,ki,ne,sil2,['catch'],[1.9725000000000819],[1.9725000000000819],0.888,beat,1.084500000000082,1.084500000000082,"[""space""]",pu,1,,,,,,,,,,,,,,,3.0,2.0,Castellano,0.0,Catalan,0.0,Inglés,6.0,3.0,3.0,yes,no,no,flauta,11,,,Nada,63.0,yes
187,2024-04-11_13h38.23.410,Experiment4_uns,s170,22.0,feminino,right,España,Castellano y Catalan,Upper secondary,no,no,B,2,what,L1,unsyncopated,s2,r1,59,Online_whatL1//a.pu.ki8.1110.1998.wav,ri,ro,cho,sil2,pu,zu,ne,sil,ki,lu,sil1,['catch'],[2.0292999999971926],[2.0292999999971926],1.11,no_beat,0.9192999999971924,0.9192999999971924,"[""space""]",pu,1,,,,,,,,,,,,,,,3.0,2.0,Castellano,0.0,Catalan,0.0,Inglés,6.0,3.0,3.0,yes,no,no,flauta,11,,,Nada,63.0,yes
188,2024-04-11_13h38.23.410,Experiment4_uns,s170,22.0,feminino,right,España,Castellano y Catalan,Upper secondary,no,no,B,2,what,L1,unsyncopated,s2,r2,60,Online_whatL1//b.ta.be4.888.1998.wav,zu,ne,fa,sil,ta,lu,ni,sil2,be,ri,sil1,['catch_delay'],[0.7878000000119447],[0.7878000000119447],1.998,no_beat,0.7878000000119447,0.7878000000119447,,be,2,,,,,,,,,,,,,,,3.0,2.0,Castellano,0.0,Catalan,0.0,Inglés,6.0,3.0,3.0,yes,no,no,flauta,11,,,Nada,63.0,yes
189,2024-04-11_13h38.23.410,Experiment4_uns,s170,22.0,feminino,right,España,Castellano y Catalan,Upper secondary,no,no,B,2,what,L1,unsyncopated,s2,r1,61,Online_whatL1//b.ta.be6.none.none.wav,cho,fa,fo,sil,pu,ne,ri,sil2,ki,ni,sil1,['-'],[0.12180000001194458],[0.12180000001194458],none,none,,,"[""space""]",be,2,,,,,,,,,,,,,,,3.0,2.0,Castellano,0.0,Catalan,0.0,Inglés,6.0,3.0,3.0,yes,no,no,flauta,11,,,Nada,63.0,yes
190,2024-04-11_13h38.23.410,Experiment4_uns,s170,22.0,feminino,right,España,Castellano y Catalan,Upper secondary,no,no,B,2,what,L1,unsyncopated,s2,r1,62,Online_whatL1//b.ta.be5.none.none.wav,ni,fa,ro,sil2,pu,ze,la,sil,ki,ne,sil1,['-'],,,none,none,,,,be,2,,,,,,,,,,,,,,,3.0,2.0,Castellano,0.0,Catalan,0.0,Inglés,6.0,3.0,3.0,yes,no,no,flauta,11,,,Nada,63.0,yes
191,2024-04-11_13h38.23.410,Experiment4_uns,s170,22.0,feminino,right,España,Castellano y Catalan,Upper secondary,no,no,B,2,what,L1,unsyncopated,s1,r1,63,Online_whatL1//b.ta.be7.none.none.wav,pu,ro,fa,sil,ki,fo,ni,sil2,la,ze,sil1,['-'],,,none,none,,,,be,2,,,,,,,,,,,,,,,3.0,2.0,Castellano,0.0,Catalan,0.0,Inglés,6.0,3.0,3.0,yes,no,no,flauta,11,,,Nada,63.0,yes
192,2024-04-11_13h38.23.410,Experiment4_uns,s170,22.0,feminino,right,España,Castellano y Catalan,Upper secondary,no,no,B,2,what,L1,unsyncopated,s1,r2,64,Online_whatL1//d.ne.ni27.none.none.wav,ta,ri,fa,sil2,be,cho,ro,sil,lu,la,sil1,['-'],,,none,none,,,,ni,4,,,,,,,,,,,,,,,3.0,2.0,Castellano,0.0,Catalan,0.0,Inglés,6.0,3.0,3.0,yes,no,no,flauta,11,,,Nada,63.0,yes
193,2024-04-11_13h38.23.410,Experiment4_uns,s170,22.0,feminino,right,España,Castellano y Catalan,Upper secondary,no,no,B,2,what,L1,unsyncopated,s2,r1,65,Online_whatL1//d.ne.ni26.0.444.wav,ne,lu,ni,sil,pu,ze,fa,sil1,ki,ro,sil2,['catch'],[1.1570999999939886],[1.1570999999939886],0.444,no_beat,0.7130999999939887,0.7130999999939887,"[""space""]",ni,4,,,,,,,,,,,,,,,3.0,2.0,Castellano,0.0,Catalan,0.0,Inglés,6.0,3.0,3.0,yes,no,no,flauta,11,,,Nada,63.0,yes
194,2024-04-11_13h38.23.410,Experiment4_uns,s170,22.0,feminino,right,España,Castellano y Catalan,Upper secondary,no,no,B,2,what,L1,unsyncopated,s2,r2,66,Online_whatL1//d.ne.ni24.1332.444.wav,zu,la,ni,sil,ta,ri,ne,sil2,be,fo,sil1,['catch'],[1.3412000000028002],[1.3412000000028002],0.444,no_beat,0.8972000000028002,0.8972000000028002,"[""space""]",ni,4,,,,,,,,,,,,,,,3.0,2.0,Castellano,0.0,Catalan,0.0,Inglés,6.0,3.0,3.0,yes,no,no,flauta,11,,,Nada,63.0,yes
195,2024-04-11_13h38.23.410,Experiment4_uns,s170,22.0,feminino,right,España,Castellano y Catalan,Upper secondary,no,no,B,2,what,L1,unsyncopated,s1,r2,67,Online_whatL1//d.ne.ni25.1332.222.wav,ta,ni,ri,sil2,be,ne,cho,sil,lu,zu,sil1,['miss'],,,0.222,no_beat,,,,ni,4,,,,,,,,,,,,,,,3.0,2.0,Castellano,0.0,Catalan,0.0,Inglés,6.0,3.0,3.0,yes,no,no,flauta,11,,,Nada,63.0,yes
196,2024-04-11_13h38.23.410,Experiment4_uns,s170,22.0,feminino,right,España,Castellano y Catalan,Upper secondary,no,no,B,2,what,L1,unsyncopated,s2,r2,68,Online_whatL1//a.pu.ki29.none.none.wav,zu,lu,ne,sil,ta,ze,ni,sil1,be,ro,sil2,['-'],,,none,none,,,,pu,1,,,,,,,,,,,,,,,3.0,2.0,Castellano,0.0,Catalan,0.0,Inglés,6.0,3.0,3.0,yes,no,no,flauta,11,,,Nada,63.0,yes
197,2024-04-11_13h38.23.410,Experiment4_uns,s170,22.0,feminino,right,España,Castellano y Catalan,Upper secondary,no,no,B,2,what,L1,unsyncopated,s1,r2,69,Online_whatL1//a.pu.ki30.none.none.wav,ta,zu,cho,sil,be,ri,ni,sil2,ne,la,sil1,['-'],,,none,none,,,,pu,1,,,,,,,,,,,,,,,3.0,2.0,Castellano,0.0,Catalan,0.0,Inglés,6.0,3.0,3.0,yes,no,no,flauta,11,,,Nada,63.0,yes
198,2024-04-11_13h38.23.410,Experiment4_uns,s170,22.0,feminino,right,España,Castellano y Catalan,Upper secondary,no,no,B,2,what,L1,unsyncopated,s1,r1,70,Online_whatL1//a.pu.ki31.0.888.wav,pu,la,lu,sil,ki,ro,zu,sil2,ne,cho,sil1,['catch'],[0.7410999999940486],[0.7410999999940486],0.0,beat,0.7410999999940486,0.7410999999940486,"[""space""]",pu,1,,,,,,,,,,,,,,,3.0,2.0,Castellano,0.0,Catalan,0.0,Inglés,6.0,3.0,3.0,yes,no,no,flauta,11,,,Nada,63.0,yes
199,2024-04-11_13h38.23.410,Experiment4_uns,s170,22.0,feminino,right,España,Castellano y Catalan,Upper secondary,no,no,B,2,what,L1,unsyncopated,s2,r1,71,Online_whatL1//a.pu.ki28.888.1776.wav,fo,ro,fa,sil,pu,ze,zu,sil1,ki,ni,sil2,['catch'],[1.64650000000006],[1.64650000000006],0.888,beat,0.75850000000006,0.75850000000006,"[""space""]",pu,1,,,,,,,,,,,,,,,3.0,2.0,Castellano,0.0,Catalan,0.0,Inglés,6.0,3.0,3.0,yes,no,no,flauta,11,,,Nada,63.0,yes
200,2024-04-11_13h38.23.410,Experiment4_uns,s170,22.0,feminino,right,España,Castellano y Catalan,Upper secondary,no,no,B,2,what,L1,unsyncopated,s2,r1,72,Online_whatL1//b.ta.be29.none.none.wav,fa,ro,ni,sil,pu,ne,ri,sil1,ki,ze,sil2,['-'],,,none,none,,,,be,2,,,,,,,,,,,,,,,3.0,2.0,Castellano,0.0,Catalan,0.0,Inglés,6.0,3.0,3.0,yes,no,no,flauta,11,,,Nada,63.0,yes
201,2024-04-11_13h38.23.410,Experiment4_uns,s170,22.0,feminino,right,España,Castellano y Catalan,Upper secondary,no,no,B,2,what,L1,unsyncopated,s2,r1,73,Online_whatL1//b.ta.be28.none.none.wav,zu,fo,ni,sil,pu,ri,lu,sil1,ki,ne,sil2,['-'],,,none,none,,,,be,2,,,,,,,,,,,,,,,3.0,2.0,Castellano,0.0,Catalan,0.0,Inglés,6.0,3.0,3.0,yes,no,no,flauta,11,,,Nada,63.0,yes
202,2024-04-11_13h38.23.410,Experiment4_uns,s170,22.0,feminino,right,España,Castellano y Catalan,Upper secondary,no,no,B,2,what,L1,unsyncopated,s2,r2,74,Online_whatL1//b.ta.be31.1110.1998.wav,fo,ze,ri,sil2,ta,ne,zu,sil,be,lu,sil1,['catch_delay'],[0.7922000000031095],[0.7922000000031095],1.998,no_beat,0.7922000000031095,0.7922000000031095,,be,2,,,,,,,,,,,,,,,3.0,2.0,Castellano,0.0,Catalan,0.0,Inglés,6.0,3.0,3.0,yes,no,no,flauta,11,,,Nada,63.0,yes
203,2024-04-11_13h38.23.410,Experiment4_uns,s170,22.0,feminino,right,España,Castellano y Catalan,Upper secondary,no,no,B,2,what,L1,unsyncopated,s2,r2,75,Online_whatL1//b.ta.be30.1110.1998.wav,ze,lu,fa,sil2,ta,ro,ni,sil,be,la,sil1,['catch_delay'],[0.7393999999911249],[0.7393999999911249],1.998,no_beat,0.7393999999911249,0.7393999999911249,"[""space""]",be,2,,,,,,,,,,,,,,,3.0,2.0,Castellano,0.0,Catalan,0.0,Inglés,6.0,3.0,3.0,yes,no,no,flauta,11,,,Nada,63.0,yes
204,2024-04-11_13h38.23.410,Experiment4_uns,s170,22.0,feminino,right,España,Castellano y Catalan,Upper secondary,no,no,B,2,what,L1,unsyncopated,s1,r2,76,Online_whatL1//d.ne.ni17.222.1332.wav,ta,ne,fo,sil,be,ri,ni,sil2,lu,fa,sil1,['catch'],"[0.07339999999112479, 2.1030999999941287]",[2.1030999999941287],1.332,no_beat,0.7710999999941286,0.7710999999941286,"[""space"",""space""]",ni,4,,,,,,,,,,,,,,,3.0,2.0,Castellano,0.0,Catalan,0.0,Inglés,6.0,3.0,3.0,yes,no,no,flauta,11,,,Nada,63.0,yes
205,2024-04-11_13h38.23.410,Experiment4_uns,s170,22.0,feminino,right,España,Castellano y Catalan,Upper secondary,no,no,B,2,what,L1,unsyncopated,s2,r1,77,Online_whatL1//d.ne.ni16.0.444.wav,ne,la,ni,sil,pu,ri,zu,sil1,ki,fa,sil2,['miss'],,,0.444,no_beat,,,,ni,4,,,,,,,,,,,,,,,3.0,2.0,Castellano,0.0,Catalan,0.0,Inglés,6.0,3.0,3.0,yes,no,no,flauta,11,,,Nada,63.0,yes
206,2024-04-11_13h38.23.410,Experiment4_uns,s170,22.0,feminino,right,España,Castellano y Catalan,Upper secondary,no,no,B,2,what,L1,unsyncopated,s1,r1,78,Online_whatL1//d.ne.ni18.none.none.wav,pu,ro,fo,sil,ki,ze,zu,sil2,cho,fa,sil1,['-'],,,none,none,,,,ni,4,,,,,,,,,,,,,,,3.0,2.0,Castellano,0.0,Catalan,0.0,Inglés,6.0,3.0,3.0,yes,no,no,flauta,11,,,Nada,63.0,yes
207,2024-04-11_13h38.23.410,Experiment4_uns,s170,22.0,feminino,right,España,Castellano y Catalan,Upper secondary,no,no,B,2,what,L1,unsyncopated,s2,r2,79,Online_whatL1//d.ne.ni19.1554.444.wav,la,fa,ni,sil2,ta,cho,ne,sil,be,ri,sil1,['catch'],[1.2047999999970216],[1.2047999999970216],0.444,no_beat,0.7607999999970216,0.7607999999970216,"[""space""]",ni,4,,,,,,,,,,,,,,,3.0,2.0,Castellano,0.0,Catalan,0.0,Inglés,6.0,3.0,3.0,yes,no,no,flauta,11,,,Nada,63.0,yes
208,2024-04-11_13h38.23.410,Experiment4_uns,s170,22.0,feminino,right,España,Castellano y Catalan,Upper secondary,no,no,B,2,what,L1,unsyncopated,s2,r1,80,Online_whatL1//c.ro.fo6.none.none.wav,la,ri,cho,sil,pu,ne,ni,sil1,ki,fa,sil2,['-'],,,none,none,,,,fo,3,,,,,,,,,,,,,,,3.0,2.0,Castellano,0.0,Catalan,0.0,Inglés,6.0,3.0,3.0,yes,no,no,flauta,11,,,Nada,63.0,yes
209,2024-04-11_13h38.23.410,Experiment4_uns,s170,22.0,feminino,right,España,Castellano y Catalan,Upper secondary,no,no,B,2,what,L1,unsyncopated,s1,r2,81,Online_whatL1//c.ro.fo5.none.none.wav,ta,ze,lu,sil,be,ne,zu,sil2,ri,ni,sil1,['-'],,,none,none,,,,fo,3,,,,,,,,,,,,,,,3.0,2.0,Castellano,0.0,Catalan,0.0,Inglés,6.0,3.0,3.0,yes,no,no,flauta,11,,,Nada,63.0,yes
210,2024-04-11_13h38.23.410,Experiment4_uns,s170,22.0,feminino,right,España,Castellano y Catalan,Upper secondary,no,no,B,2,what,L1,unsyncopated,s1,r1,82,Online_whatL1//c.ro.fo4.none.none.wav,pu,lu,fa,sil2,ki,la,zu,sil,cho,ze,sil1,['-'],,,none,none,,,,fo,3,,,,,,,,,,,,,,,3.0,2.0,Castellano,0.0,Catalan,0.0,Inglés,6.0,3.0,3.0,yes,no,no,flauta,11,,,Nada,63.0,yes
211,2024-04-11_13h38.23.410,Experiment4_uns,s170,22.0,feminino,right,España,Castellano y Catalan,Upper secondary,no,no,B,2,what,L1,unsyncopated,s2,r2,83,Online_whatL1//c.ro.fo7.none.none.wav,ri,lu,ni,sil2,ta,la,ne,sil,be,ze,sil1,['-'],,,none,none,,,,fo,3,,,,,,,,,,,,,,,3.0,2.0,Castellano,0.0,Catalan,0.0,Inglés,6.0,3.0,3.0,yes,no,no,flauta,11,,,Nada,63.0,yes
212,2024-04-11_13h38.23.410,Experiment4_uns,s170,22.0,feminino,right,España,Castellano y Catalan,Upper secondary,no,no,B,2,what,L1,unsyncopated,s1,r2,84,Online_whatL1//b.ta.be8.0.1110.wav,ta,la,zu,sil2,be,fo,ri,sil,ne,ze,sil1,['catch'],[1.9337000000030002],[1.9337000000030002],1.11,no_beat,0.8237000000030001,0.8237000000030001,"[""space""]",be,2,,,,,,,,,,,,,,,3.0,2.0,Castellano,0.0,Catalan,0.0,Inglés,6.0,3.0,3.0,yes,no,no,flauta,11,,,Nada,63.0,yes
213,2024-04-11_13h38.23.410,Experiment4_uns,s170,22.0,feminino,right,España,Castellano y Catalan,Upper secondary,no,no,B,2,what,L1,unsyncopated,s1,r2,85,Online_whatL1//b.ta.be11.0.888.wav,ta,ne,fa,sil,be,ri,fo,sil2,cho,ni,sil1,['catch'],[1.6872999999970943],[1.6872999999970943],0.888,beat,0.7992999999970943,0.7992999999970943,"[""space""]",be,2,,,,,,,,,,,,,,,3.0,2.0,Castellano,0.0,Catalan,0.0,Inglés,6.0,3.0,3.0,yes,no,no,flauta,11,,,Nada,63.0,yes
214,2024-04-11_13h38.23.410,Experiment4_uns,s170,22.0,feminino,right,España,Castellano y Catalan,Upper secondary,no,no,B,2,what,L1,unsyncopated,s1,r1,86,Online_whatL1//b.ta.be10.none.none.wav,pu,fo,fa,sil,ki,zu,cho,sil1,la,ri,sil2,['-'],,,none,none,,,,be,2,,,,,,,,,,,,,,,3.0,2.0,Castellano,0.0,Catalan,0.0,Inglés,6.0,3.0,3.0,yes,no,no,flauta,11,,,Nada,63.0,yes
215,2024-04-11_13h38.23.410,Experiment4_uns,s170,22.0,feminino,right,España,Castellano y Catalan,Upper secondary,no,no,B,2,what,L1,unsyncopated,s2,r1,87,Online_whatL1//b.ta.be9.none.none.wav,ze,zu,ni,sil,pu,fa,ne,sil1,ki,fo,sil2,['false alarm'],[1.7900999999940268],[1.7900999999940268],none,none,,,"[""space""]",be,2,,,,,,,,,,,,,,,3.0,2.0,Castellano,0.0,Catalan,0.0,Inglés,6.0,3.0,3.0,yes,no,no,flauta,11,,,Nada,63.0,yes
216,2024-04-11_13h38.23.410,Experiment4_uns,s170,22.0,feminino,right,España,Castellano y Catalan,Upper secondary,no,no,B,2,what,L1,unsyncopated,s1,r1,88,Online_whatL1//b.ta.be26.none.none.wav,pu,lu,cho,sil,ki,ne,ro,sil2,fa,la,sil1,['-'],,,none,none,,,,be,2,,,,,,,,,,,,,,,3.0,2.0,Castellano,0.0,Catalan,0.0,Inglés,6.0,3.0,3.0,yes,no,no,flauta,11,,,Nada,63.0,yes
217,2024-04-11_13h38.23.410,Experiment4_uns,s170,22.0,feminino,right,España,Castellano y Catalan,Upper secondary,no,no,B,2,what,L1,unsyncopated,s1,r1,89,Online_whatL1//b.ta.be27.none.none.wav,pu,lu,zu,sil,ki,la,ro,sil2,ni,fa,sil1,['-'],,,none,none,,,,be,2,,,,,,,,,,,,,,,3.0,2.0,Castellano,0.0,Catalan,0.0,Inglés,6.0,3.0,3.0,yes,no,no,flauta,11,,,Nada,63.0,yes
