Unnamed: 0,date,expName,participant,age,sex,hand,residence,native_lang,education_level,lang_deficit,aud_deficit,group,block,condition,language,rhythm,rule structure online,rule type online,order_trial_on,trial_online,s1,s2,s3,s4,s5,s6,s7,s8,s9,s10,s11,catch_syll_resp,rts_syll_catch,clean_rts,time_syll,beat_no_beat,catch_rtsTR,catch_rts,syllable_catch.keys,cond_syll,syll_to_catch,test_offline,block_off,condition_off,rhythm_off,rule,rule_str_off,rule_norule,conds_offline,language_off,Partz_no_partm.keys,Partz_no_partm.rt,security_1_7.keys,accuracy,security_1_7.rt,n_lang,n_lang_used,lang_1,age_l1,lang_2,age_l2,lang_3,age_l3,ability_learn_l2,tendence_mix_lan,music_experience,muisc_use,partiture,instr_1,age_M1,preguntas_musica1,BMRQ_answer.response,final comment,BMRQ_Score,bilingual
0,2024-05-06_15h18.40.260,Experiment4_uns,s172,23.0,feminino,right,españa,"catalán y castellano
",Master degree,no,no,B,1,when,L2,unsyncopated,when,when,0,Online_whenL2//a.du31.222.wav,ba,du,go,sil,to,si,cha,sil1,mi,bi,sil2,['catch'],[1.3449999999999704],[1.3449999999999704],0.222,no_beat,1.1229999999999705,1.1229999999999705,"[""space""]",du,1,testWhenL2Uns//r2.s1.2.wav,1.0,when,unsyncopated,b,s1,rule,rule,L2,z,2.236,7.0,1.0,7.996,3.0,2.0,catalán,0.0,castellano,0.0,inglés,5.0,4.0,5.0,yes,no,yes,canto,12,1. Cuando comparto música con alguien siento una complicidad especial con aquella persona.,4.0,"ningun problema ni distracción, todo bien y siguiendo las instrucciones",73.0,yes
1,2024-05-06_15h18.40.260,Experiment4_uns,s172,23.0,feminino,right,españa,"catalán y castellano
",Master degree,no,no,B,1,when,L2,unsyncopated,when,when,1,Online_whenL2//a.du29.1998.wav,ra,ño,su,sil,bi,si,mi,sil1,me,du,sil2,['catch'],[2.518000000000029],[2.518000000000029],1.998,no_beat,0.5200000000000291,0.5200000000000291,"[""space""]",du,1,testWhenL2Uns//r1.s2.2.wav,1.0,when,unsyncopated,a,s2,rule,rule,L2,z,1.391,5.0,1.0,2.652,3.0,2.0,catalán,0.0,castellano,0.0,inglés,5.0,4.0,5.0,yes,no,yes,canto,12,2. En mi tiempo libre apenas escucho música.,5.0,"ningun problema ni distracción, todo bien y siguiendo las instrucciones",73.0,yes
2,2024-05-06_15h18.40.260,Experiment4_uns,s172,23.0,feminino,right,españa,"catalán y castellano
",Master degree,no,no,B,1,when,L2,unsyncopated,when,when,2,Online_whenL2//a.du28.none.wav,ño,te,to,sil,go,ba,ra,sil1,su,bi,sil2,['-'],,,none,none,,,,du,1,testWhenL2Uns//dep_viol.r2.s1.0.wav,1.0,when,unsyncopated,b,s1,no_rule,dep,L2,z,1.684,6.0,1.0,2.702,3.0,2.0,catalán,0.0,castellano,0.0,inglés,5.0,4.0,5.0,yes,no,yes,canto,12,3. Algunas canciones me ponen los pelos de punta,4.0,"ningun problema ni distracción, todo bien y siguiendo las instrucciones",73.0,yes
3,2024-05-06_15h18.40.260,Experiment4_uns,s172,23.0,feminino,right,españa,"catalán y castellano
",Master degree,no,no,B,1,when,L2,unsyncopated,when,when,3,Online_whenL2//a.du30.none.wav,fe,bi,to,sil,cha,su,ra,sil1,ño,ba,sil2,['false alarm'],[2.217999999999961],[2.217999999999961],none,none,,,"[""space""]",du,1,testWhenL2Uns//time_viol.r2.s1.0.wav,1.0,when,unsyncopated,b,s1,no_rule,time,L2,z,1.076,6.0,1.0,1.918,3.0,2.0,catalán,0.0,castellano,0.0,inglés,5.0,4.0,5.0,yes,no,yes,canto,12,4. La música me hace compañía cuando estoy solo,4.0,"ningun problema ni distracción, todo bien y siguiendo las instrucciones",73.0,yes
4,2024-05-06_15h18.40.260,Experiment4_uns,s172,23.0,feminino,right,españa,"catalán y castellano
",Master degree,no,no,B,1,when,L2,unsyncopated,when,when,4,Online_whenL2//c.cha22.none.wav,ra,to,mi,sil,bi,te,ba,sil1,fe,ñu,sil2,['-'],,,none,none,,,,cha,3,testWhenL2Uns//time_viol.r1.s1.0.wav,1.0,when,unsyncopated,a,s1,no_rule,time,L2,m,2.141,7.0,0.0,1.194,3.0,2.0,catalán,0.0,castellano,0.0,inglés,5.0,4.0,5.0,yes,no,yes,canto,12,5. No me apetece bailar ni con la música que más me gusta,5.0,"ningun problema ni distracción, todo bien y siguiendo las instrucciones",73.0,yes
5,2024-05-06_15h18.40.260,Experiment4_uns,s172,23.0,feminino,right,españa,"catalán y castellano
",Master degree,no,no,B,1,when,L2,unsyncopated,when,when,5,Online_whenL2//c.cha23.none.wav,me,ba,fe,sil,ño,ñu,mi,sil1,go,te,sil2,['-'],,,none,none,,,,cha,3,testWhenL2Uns//r1.s2.0.wav,1.0,when,unsyncopated,a,s2,rule,rule,L2,m,3.017,4.0,0.0,1.551,3.0,2.0,catalán,0.0,castellano,0.0,inglés,5.0,4.0,5.0,yes,no,yes,canto,12,6. La música me hace conectar con la gente,4.0,"ningun problema ni distracción, todo bien y siguiendo las instrucciones",73.0,yes
6,2024-05-06_15h18.40.260,Experiment4_uns,s172,23.0,feminino,right,españa,"catalán y castellano
",Master degree,no,no,B,1,when,L2,unsyncopated,when,when,6,Online_whenL2//c.cha21.1998.wav,si,du,ñu,sil,mi,go,to,sil1,ño,cha,sil2,['catch'],[2.350999999999999],[2.350999999999999],1.998,no_beat,0.3529999999999991,0.3529999999999991,"[""space""]",cha,3,testWhenL2Uns//r2.s2.1.wav,1.0,when,unsyncopated,b,s2,rule,rule,L2,m,3.288,6.0,0.0,2.084,3.0,2.0,catalán,0.0,castellano,0.0,inglés,5.0,4.0,5.0,yes,no,yes,canto,12,7. Me informo sobre la música que me gusta.,4.0,"ningun problema ni distracción, todo bien y siguiendo las instrucciones",73.0,yes
7,2024-05-06_15h18.40.260,Experiment4_uns,s172,23.0,feminino,right,españa,"catalán y castellano
",Master degree,no,no,B,1,when,L2,unsyncopated,when,when,7,Online_whenL2//c.cha20.none.wav,fe,ño,mi,sil,ra,su,ba,sil1,ñu,to,sil2,['-'],,,none,none,,,,cha,3,testWhenL2Uns//cat_viol.r2.s2.0.wav,1.0,when,unsyncopated,b,s2,no_rule,cat,L2,m,1.566,5.0,0.0,1.361,3.0,2.0,catalán,0.0,castellano,0.0,inglés,5.0,4.0,5.0,yes,no,yes,canto,12,8.Me emociono escuchando ciertas canciones.,4.0,"ningun problema ni distracción, todo bien y siguiendo las instrucciones",73.0,yes
8,2024-05-06_15h18.40.260,Experiment4_uns,s172,23.0,feminino,right,españa,"catalán y castellano
",Master degree,no,no,B,1,when,L2,unsyncopated,when,when,8,Online_whenL2//c.cha7.none.wav,ba,to,bi,sil,ño,du,si,sil1,mi,fe,sil2,['-'],,,none,none,,,,cha,3,testWhenL2Uns//time_viol.r1.s2.0.wav,1.0,when,unsyncopated,a,s2,no_rule,time,L2,m,5.394,5.0,0.0,1.606,3.0,2.0,catalán,0.0,castellano,0.0,inglés,5.0,4.0,5.0,yes,no,yes,canto,12,9.La música me tranquiliza y me relaja.,4.0,"ningun problema ni distracción, todo bien y siguiendo las instrucciones",73.0,yes
9,2024-05-06_15h18.40.260,Experiment4_uns,s172,23.0,feminino,right,españa,"catalán y castellano
",Master degree,no,no,B,1,when,L2,unsyncopated,when,when,9,Online_whenL2//c.cha5.none.wav,bi,mi,to,sil,su,fe,te,sil1,du,si,sil2,['-'],,,none,none,,,,cha,3,testWhenL2Uns//r1.s1.2.wav,1.0,when,unsyncopated,a,s1,rule,rule,L2,m,2.394,6.0,0.0,1.37,3.0,2.0,catalán,0.0,castellano,0.0,inglés,5.0,4.0,5.0,yes,no,yes,canto,12,10.La música me hace bailar,4.0,"ningun problema ni distracción, todo bien y siguiendo las instrucciones",73.0,yes
10,2024-05-06_15h18.40.260,Experiment4_uns,s172,23.0,feminino,right,españa,"catalán y castellano
",Master degree,no,no,B,1,when,L2,unsyncopated,when,when,10,Online_whenL2//c.cha4.222.wav,bi,cha,ñu,sil,su,mi,du,sil1,si,fe,sil2,['catch'],[0.6669999999999163],[0.6669999999999163],0.222,no_beat,0.4449999999999163,0.4449999999999163,"[""space""]",cha,3,testWhenL2Uns//r2.s1.0.wav,1.0,when,unsyncopated,b,s1,rule,rule,L2,m,1.236,7.0,0.0,0.985,3.0,2.0,catalán,0.0,castellano,0.0,inglés,5.0,4.0,5.0,yes,no,yes,canto,12,11.Busco novedades musicales continuamente,3.0,"ningun problema ni distracción, todo bien y siguiendo las instrucciones",73.0,yes
11,2024-05-06_15h18.40.260,Experiment4_uns,s172,23.0,feminino,right,españa,"catalán y castellano
",Master degree,no,no,B,1,when,L2,unsyncopated,when,when,11,Online_whenL2//c.cha6.none.wav,ño,bi,su,sil,ñu,to,si,sil1,du,go,sil2,['-'],,,none,none,,,,cha,3,testWhenL2Uns//r1.s2.1.wav,1.0,when,unsyncopated,a,s2,rule,rule,L2,z,1.136,5.0,1.0,1.693,3.0,2.0,catalán,0.0,castellano,0.0,inglés,5.0,4.0,5.0,yes,no,yes,canto,12,12. Puedo llorar cuando escucho algunas melodías que me gustan mucho.,3.0,"ningun problema ni distracción, todo bien y siguiendo las instrucciones",73.0,yes
12,2024-05-06_15h18.40.260,Experiment4_uns,s172,23.0,feminino,right,españa,"catalán y castellano
",Master degree,no,no,B,1,when,L2,unsyncopated,when,when,12,Online_whenL2//a.du33.1110.wav,te,su,si,sil,to,du,fe,sil1,mi,me,sil2,['miss'],,,1.11,no_beat,,,,du,1,testWhenL2Uns//cat_viol.r1.s1.0.wav,1.0,when,unsyncopated,a,s1,no_rule,cat,L2,z,0.478,7.0,1.0,1.637,3.0,2.0,catalán,0.0,castellano,0.0,inglés,5.0,4.0,5.0,yes,no,yes,canto,12,13. Me gusta cantar o tocar un instrumento con más gente,3.0,"ningun problema ni distracción, todo bien y siguiendo las instrucciones",73.0,yes
13,2024-05-06_15h18.40.260,Experiment4_uns,s172,23.0,feminino,right,españa,"catalán y castellano
",Master degree,no,no,B,1,when,L2,unsyncopated,when,when,13,Online_whenL2//a.du34.1110.wav,ba,ñu,fe,sil,si,du,ño,sil1,te,su,sil2,['catch'],[1.7530000000000427],[1.7530000000000427],1.11,no_beat,0.6430000000000426,0.6430000000000426,"[""space""]",du,1,testWhenL2Uns//time_viol.r2.s2.0.wav,1.0,when,unsyncopated,b,s2,no_rule,time,L2,z,0.841,5.0,1.0,1.322,3.0,2.0,catalán,0.0,castellano,0.0,inglés,5.0,4.0,5.0,yes,no,yes,canto,12,14. La música me ayuda a desconectar.,4.0,"ningun problema ni distracción, todo bien y siguiendo las instrucciones",73.0,yes
14,2024-05-06_15h18.40.260,Experiment4_uns,s172,23.0,feminino,right,españa,"catalán y castellano
",Master degree,no,no,B,1,when,L2,unsyncopated,when,when,14,Online_whenL2//a.du32.none.wav,to,fe,ñu,sil,cha,te,go,sil1,ño,si,sil2,['-'],,,none,none,,,,du,1,testWhenL2Uns//r2.s2.2.wav,1.0,when,unsyncopated,b,s2,rule,rule,L2,m,2.435,5.0,0.0,1.917,3.0,2.0,catalán,0.0,castellano,0.0,inglés,5.0,4.0,5.0,yes,no,yes,canto,12,15. No puedo evitar tararear las canciones que me gustan cuando las escucho.,4.0,"ningun problema ni distracción, todo bien y siguiendo las instrucciones",73.0,yes
15,2024-05-06_15h18.40.260,Experiment4_uns,s172,23.0,feminino,right,españa,"catalán y castellano
",Master degree,no,no,B,1,when,L2,unsyncopated,when,when,15,Online_whenL2//a.du35.none.wav,to,ñu,su,sil,ba,cha,fe,sil1,ño,go,sil2,['-'],,,none,none,,,,du,1,testWhenL2Uns//r2.s1.1.wav,1.0,when,unsyncopated,b,s1,rule,rule,L2,m,1.659,7.0,0.0,2.369,3.0,2.0,catalán,0.0,castellano,0.0,inglés,5.0,4.0,5.0,yes,no,yes,canto,12,16. En los conciertos me siento en sintonía con los artistas y el público.,4.0,"ningun problema ni distracción, todo bien y siguiendo las instrucciones",73.0,yes
16,2024-05-06_15h18.40.260,Experiment4_uns,s172,23.0,feminino,right,españa,"catalán y castellano
",Master degree,no,no,B,1,when,L2,unsyncopated,when,when,16,Online_whenL2//c.cha9.none.wav,go,ba,ñu,sil,bi,fe,to,sil1,mi,ño,sil2,['-'],,,none,none,,,,cha,3,testWhenL2Uns//cat_viol.r1.s2.0.wav,1.0,when,unsyncopated,a,s2,no_rule,cat,L2,m,1.368,7.0,0.0,0.853,3.0,2.0,catalán,0.0,castellano,0.0,inglés,5.0,4.0,5.0,yes,no,yes,canto,12,17. Me gasto bastante dinero en música y cosas relacionadas con la música.,1.0,"ningun problema ni distracción, todo bien y siguiendo las instrucciones",73.0,yes
17,2024-05-06_15h18.40.260,Experiment4_uns,s172,23.0,feminino,right,españa,"catalán y castellano
",Master degree,no,no,B,1,when,L2,unsyncopated,when,when,17,Online_whenL2//c.cha11.1998.wav,bi,te,ra,sil,si,su,ñu,sil1,go,cha,sil2,['catch'],[2.3560000000001082],[2.3560000000001082],1.998,no_beat,0.3580000000001082,0.3580000000001082,"[""space""]",cha,3,testWhenL2Uns//dep_viol.r2.s2.0.wav,1.0,when,unsyncopated,b,s2,no_rule,dep,L2,z,2.285,5.0,1.0,2.074,3.0,2.0,catalán,0.0,castellano,0.0,inglés,5.0,4.0,5.0,yes,no,yes,canto,12,18. Siento escalofríos cuando escucho una melodía que me gusta.,3.0,"ningun problema ni distracción, todo bien y siguiendo las instrucciones",73.0,yes
18,2024-05-06_15h18.40.260,Experiment4_uns,s172,23.0,feminino,right,españa,"catalán y castellano
",Master degree,no,no,B,1,when,L2,unsyncopated,when,when,18,Online_whenL2//c.cha8.none.wav,mi,si,to,sil,ra,ba,ño,sil1,du,su,sil2,['-'],,,none,none,,,,cha,3,testWhenL2Uns//cat_viol.r2.s1.0.wav,1.0,when,unsyncopated,b,s1,no_rule,cat,L2,m,0.473,6.0,0.0,1.039,3.0,2.0,catalán,0.0,castellano,0.0,inglés,5.0,4.0,5.0,yes,no,yes,canto,12,19. Con la música me puedo desahogar.,2.0,"ningun problema ni distracción, todo bien y siguiendo las instrucciones",73.0,yes
19,2024-05-06_15h18.40.260,Experiment4_uns,s172,23.0,feminino,right,españa,"catalán y castellano
",Master degree,no,no,B,1,when,L2,unsyncopated,when,when,19,Online_whenL2//c.cha10.444.wav,mi,su,cha,sil,si,me,go,sil1,ra,ñu,sil2,['catch'],[1.2860000000000582],[1.2860000000000582],0.444,no_beat,0.8420000000000583,0.8420000000000583,"[""space""]",cha,3,testWhenL2Uns//dep_viol.r1.s1.0.wav,1.0,when,unsyncopated,a,s1,no_rule,dep,L2,z,0.289,7.0,1.0,1.852,3.0,2.0,catalán,0.0,castellano,0.0,inglés,5.0,4.0,5.0,yes,no,yes,canto,12,20. Cuando escucho una melodía que me gusta mucho no puedo evitar mover el cuerpo.,4.0,"ningun problema ni distracción, todo bien y siguiendo las instrucciones",73.0,yes
20,2024-05-06_15h18.40.260,Experiment4_uns,s172,23.0,feminino,right,españa,"catalán y castellano
",Master degree,no,no,B,1,when,L2,unsyncopated,when,when,20,Online_whenL2//d.si31.none.wav,su,ba,te,sil,ra,ño,to,sil1,mi,go,sil2,['-'],,,none,none,,,,si,4,testWhenL2Uns//r1.s1.0.wav,1.0,when,unsyncopated,a,s1,rule,rule,L2,m,0.735,6.0,0.0,1.435,3.0,2.0,catalán,0.0,castellano,0.0,inglés,5.0,4.0,5.0,yes,no,yes,canto,12,,,"ningun problema ni distracción, todo bien y siguiendo las instrucciones",73.0,yes
21,2024-05-06_15h18.40.260,Experiment4_uns,s172,23.0,feminino,right,españa,"catalán y castellano
",Master degree,no,no,B,1,when,L2,unsyncopated,when,when,21,Online_whenL2//d.si29.888.wav,cha,me,su,sil,si,mi,te,sil1,ra,go,sil2,['catch'],[1.3960000000000719],[1.3960000000000719],0.888,beat,0.5080000000000718,0.5080000000000718,"[""space""]",si,4,testWhenL2Uns//r1.s1.1.wav,1.0,when,unsyncopated,a,s1,rule,rule,L2,z,1.185,7.0,1.0,1.327,3.0,2.0,catalán,0.0,castellano,0.0,inglés,5.0,4.0,5.0,yes,no,yes,canto,12,,,"ningun problema ni distracción, todo bien y siguiendo las instrucciones",73.0,yes
22,2024-05-06_15h18.40.260,Experiment4_uns,s172,23.0,feminino,right,españa,"catalán y castellano
",Master degree,no,no,B,1,when,L2,unsyncopated,when,when,22,Online_whenL2//d.si30.none.wav,me,ba,cha,sil,ño,te,bi,sil1,du,go,sil2,['-'],,,none,none,,,,si,4,testWhenL2Uns//dep_viol.r1.s2.0.wav,1.0,when,unsyncopated,a,s2,no_rule,dep,L2,m,0.419,7.0,0.0,1.126,3.0,2.0,catalán,0.0,castellano,0.0,inglés,5.0,4.0,5.0,yes,no,yes,canto,12,,,"ningun problema ni distracción, todo bien y siguiendo las instrucciones",73.0,yes
23,2024-05-06_15h18.40.260,Experiment4_uns,s172,23.0,feminino,right,españa,"catalán y castellano
",Master degree,no,no,B,1,when,L2,unsyncopated,when,when,23,Online_whenL2//d.si28.888.wav,ñu,fe,bi,sil,si,cha,to,sil1,du,ba,sil2,['catch'],[1.4260000000000446],[1.4260000000000446],0.888,beat,0.5380000000000446,0.5380000000000446,"[""space""]",si,4,testWhenL2Uns//r2.s2.0.wav,1.0,when,unsyncopated,b,s2,rule,rule,L2,m,1.7,5.0,0.0,1.535,3.0,2.0,catalán,0.0,castellano,0.0,inglés,5.0,4.0,5.0,yes,no,yes,canto,12,,,"ningun problema ni distracción, todo bien y siguiendo las instrucciones",73.0,yes
24,2024-05-06_15h18.40.260,Experiment4_uns,s172,23.0,feminino,right,españa,"catalán y castellano
",Master degree,no,no,B,1,when,L2,unsyncopated,when,when,24,Online_whenL2//b.fe1.none.wav,du,te,ba,sil,ra,mi,cha,sil1,ñu,to,sil2,['-'],,,none,none,,,,fe,2,testConjL4Uns//cat_viol.r2.s1.0.wav,2.0,conjunction_un,unsyncopated,b,s1,no_rule,cat,L4,z,0.833,7.0,0.0,1.253,3.0,2.0,catalán,0.0,castellano,0.0,inglés,5.0,4.0,5.0,yes,no,yes,canto,12,,,"ningun problema ni distracción, todo bien y siguiendo las instrucciones",73.0,yes
25,2024-05-06_15h18.40.260,Experiment4_uns,s172,23.0,feminino,right,españa,"catalán y castellano
",Master degree,no,no,B,1,when,L2,unsyncopated,when,when,25,Online_whenL2//b.fe3.1110.wav,me,mi,ñu,sil,bi,fe,si,sil1,to,go,sil2,['catch'],[1.641999999999939],[1.641999999999939],1.11,no_beat,0.531999999999939,0.531999999999939,"[""space""]",fe,2,testConjL4Uns//r1.s1.1.wav,2.0,conjunction_un,unsyncopated,a,s1,rule,rule,L4,m,0.918,6.0,0.0,0.918,3.0,2.0,catalán,0.0,castellano,0.0,inglés,5.0,4.0,5.0,yes,no,yes,canto,12,,,"ningun problema ni distracción, todo bien y siguiendo las instrucciones",73.0,yes
26,2024-05-06_15h18.40.260,Experiment4_uns,s172,23.0,feminino,right,españa,"catalán y castellano
",Master degree,no,no,B,1,when,L2,unsyncopated,when,when,26,Online_whenL2//b.fe0.none.wav,te,go,to,sil,si,ra,ño,sil1,cha,su,sil2,['-'],,,none,none,,,,fe,2,testConjL4Uns//cat_viol.r1.s2.0.wav,2.0,conjunction_un,unsyncopated,a,s2,no_rule,cat,L4,m,2.017,4.0,1.0,0.375,3.0,2.0,catalán,0.0,castellano,0.0,inglés,5.0,4.0,5.0,yes,no,yes,canto,12,,,"ningun problema ni distracción, todo bien y siguiendo las instrucciones",73.0,yes
27,2024-05-06_15h18.40.260,Experiment4_uns,s172,23.0,feminino,right,españa,"catalán y castellano
",Master degree,no,no,B,1,when,L2,unsyncopated,when,when,27,Online_whenL2//b.fe2.1332.wav,ñu,bi,mi,sil,ra,cha,fe,sil1,ba,si,sil2,['catch'],[1.7210000000000036],[1.7210000000000036],1.332,no_beat,0.3890000000000035,0.3890000000000035,"[""space""]",fe,2,testConjL4Uns//cat_viol.r2.s2.0.wav,2.0,conjunction_un,unsyncopated,b,s2,no_rule,cat,L4,m,0.885,7.0,1.0,1.374,3.0,2.0,catalán,0.0,castellano,0.0,inglés,5.0,4.0,5.0,yes,no,yes,canto,12,,,"ningun problema ni distracción, todo bien y siguiendo las instrucciones",73.0,yes
28,2024-05-06_15h18.40.260,Experiment4_uns,s172,23.0,feminino,right,españa,"catalán y castellano
",Master degree,no,no,B,1,when,L2,unsyncopated,when,when,28,Online_whenL2//a.du26.none.wav,bi,ra,te,sil,ba,si,ño,sil1,go,to,sil2,['-'],,,none,none,,,,du,1,testConjL4Uns//cat_viol.r1.s1.0.wav,2.0,conjunction_un,unsyncopated,a,s1,no_rule,cat,L4,z,0.609,6.0,0.0,1.19,3.0,2.0,catalán,0.0,castellano,0.0,inglés,5.0,4.0,5.0,yes,no,yes,canto,12,,,"ningun problema ni distracción, todo bien y siguiendo las instrucciones",73.0,yes
29,2024-05-06_15h18.40.260,Experiment4_uns,s172,23.0,feminino,right,españa,"catalán y castellano
",Master degree,no,no,B,1,when,L2,unsyncopated,when,when,29,Online_whenL2//a.du25.444.wav,ñu,cha,du,sil,mi,su,si,sil1,go,me,sil2,['catch'],[1.0539999999999736],[1.0539999999999736],0.444,no_beat,0.6099999999999737,0.6099999999999737,"[""space""]",du,1,testConjL4Uns//r2.s1.2.wav,2.0,conjunction_un,unsyncopated,b,s1,rule,rule,L4,m,1.651,4.0,0.0,1.186,3.0,2.0,catalán,0.0,castellano,0.0,inglés,5.0,4.0,5.0,yes,no,yes,canto,12,,,"ningun problema ni distracción, todo bien y siguiendo las instrucciones",73.0,yes
30,2024-05-06_15h18.40.260,Experiment4_uns,s172,23.0,feminino,right,españa,"catalán y castellano
",Master degree,no,no,B,1,when,L2,unsyncopated,when,when,30,Online_whenL2//a.du27.none.wav,su,go,bi,sil,fe,to,ño,sil1,si,te,sil2,['-'],,,none,none,,,,du,1,testConjL4Uns//r1.s2.0.wav,2.0,conjunction_un,unsyncopated,a,s2,rule,rule,L4,m,0.549,7.0,0.0,0.752,3.0,2.0,catalán,0.0,castellano,0.0,inglés,5.0,4.0,5.0,yes,no,yes,canto,12,,,"ningun problema ni distracción, todo bien y siguiendo las instrucciones",73.0,yes
31,2024-05-06_15h18.40.260,Experiment4_uns,s172,23.0,feminino,right,españa,"catalán y castellano
",Master degree,no,no,B,1,when,L2,unsyncopated,when,when,31,Online_whenL2//a.du24.222.wav,me,du,to,sil,su,te,ra,sil1,bi,ñu,sil2,['catch'],[0.8209999999999127],[0.8209999999999127],0.222,no_beat,0.5989999999999127,0.5989999999999127,"[""space""]",du,1,testConjL4Uns//dep_viol.r2.s1.0.wav,2.0,conjunction_un,unsyncopated,b,s1,no_rule,dep,L4,m,0.591,6.0,1.0,0.972,3.0,2.0,catalán,0.0,castellano,0.0,inglés,5.0,4.0,5.0,yes,no,yes,canto,12,,,"ningun problema ni distracción, todo bien y siguiendo las instrucciones",73.0,yes
32,2024-05-06_15h18.40.260,Experiment4_uns,s172,23.0,feminino,right,españa,"catalán y castellano
",Master degree,no,no,B,1,when,L2,unsyncopated,when,when,32,Online_whenL2//d.si14.1332.wav,ba,te,bi,sil,go,su,si,sil1,du,ñu,sil2,['catch'],[1.6499999999999773],[1.6499999999999773],1.332,no_beat,0.3179999999999772,0.3179999999999772,"[""space""]",si,4,testConjL4Uns//r2.s2.2.wav,2.0,conjunction_un,unsyncopated,b,s2,rule,rule,L4,m,0.789,7.0,0.0,0.335,3.0,2.0,catalán,0.0,castellano,0.0,inglés,5.0,4.0,5.0,yes,no,yes,canto,12,,,"ningun problema ni distracción, todo bien y siguiendo las instrucciones",73.0,yes
33,2024-05-06_15h18.40.260,Experiment4_uns,s172,23.0,feminino,right,españa,"catalán y castellano
",Master degree,no,no,B,1,when,L2,unsyncopated,when,when,33,Online_whenL2//d.si13.444.wav,go,ñu,si,sil,bi,to,ño,sil1,fe,mi,sil2,['catch'],[0.9020000000000437],[0.9020000000000437],0.444,no_beat,0.4580000000000436,0.4580000000000436,"[""space""]",si,4,testConjL4Uns//time_viol.r1.s1.0.wav,2.0,conjunction_un,unsyncopated,a,s1,no_rule,time,L4,z,0.853,5.0,0.0,1.136,3.0,2.0,catalán,0.0,castellano,0.0,inglés,5.0,4.0,5.0,yes,no,yes,canto,12,,,"ningun problema ni distracción, todo bien y siguiendo las instrucciones",73.0,yes
34,2024-05-06_15h18.40.260,Experiment4_uns,s172,23.0,feminino,right,españa,"catalán y castellano
",Master degree,no,no,B,1,when,L2,unsyncopated,when,when,34,Online_whenL2//d.si12.1776.wav,mi,du,to,sil,go,ño,bi,sil1,si,cha,sil2,['catch'],[2.177000000000021],[2.177000000000021],1.776,beat,0.4010000000000209,0.4010000000000209,"[""space""]",si,4,testConjL4Uns//dep_viol.r1.s1.0.wav,2.0,conjunction_un,unsyncopated,a,s1,no_rule,dep,L4,m,0.684,7.0,1.0,1.051,3.0,2.0,catalán,0.0,castellano,0.0,inglés,5.0,4.0,5.0,yes,no,yes,canto,12,,,"ningun problema ni distracción, todo bien y siguiendo las instrucciones",73.0,yes
35,2024-05-06_15h18.40.260,Experiment4_uns,s172,23.0,feminino,right,españa,"catalán y castellano
",Master degree,no,no,B,1,when,L2,unsyncopated,when,when,35,Online_whenL2//d.si15.1332.wav,mi,ño,ba,sil,ra,fe,si,sil1,ñu,me,sil2,['catch'],[1.6339999999999009],[1.6339999999999009],1.332,no_beat,0.3019999999999008,0.3019999999999008,"[""space""]",si,4,testConjL4Uns//r2.s1.1.wav,2.0,conjunction_un,unsyncopated,b,s1,rule,rule,L4,z,2.29,6.0,1.0,1.285,3.0,2.0,catalán,0.0,castellano,0.0,inglés,5.0,4.0,5.0,yes,no,yes,canto,12,,,"ningun problema ni distracción, todo bien y siguiendo las instrucciones",73.0,yes
36,2024-05-06_15h18.40.260,Experiment4_uns,s172,23.0,feminino,right,españa,"catalán y castellano
",Master degree,no,no,B,1,when,L2,unsyncopated,when,when,36,Online_whenL2//b.fe33.none.wav,to,du,mi,sil,go,te,ñu,sil1,bi,me,sil2,['-'],,,none,none,,,,fe,2,testConjL4Uns//r1.s2.1.wav,2.0,conjunction_un,unsyncopated,a,s2,rule,rule,L4,z,0.7,7.0,1.0,0.637,3.0,2.0,catalán,0.0,castellano,0.0,inglés,5.0,4.0,5.0,yes,no,yes,canto,12,,,"ningun problema ni distracción, todo bien y siguiendo las instrucciones",73.0,yes
37,2024-05-06_15h18.40.260,Experiment4_uns,s172,23.0,feminino,right,españa,"catalán y castellano
",Master degree,no,no,B,1,when,L2,unsyncopated,when,when,37,Online_whenL2//b.fe35.1998.wav,ra,su,si,sil,to,ba,bi,sil1,me,fe,sil2,['catch'],[2.519999999999982],[2.519999999999982],1.998,no_beat,0.5219999999999818,0.5219999999999818,"[""space""]",fe,2,testConjL4Uns//dep_viol.r2.s2.0.wav,2.0,conjunction_un,unsyncopated,b,s2,no_rule,dep,L4,m,0.932,7.0,1.0,0.403,3.0,2.0,catalán,0.0,castellano,0.0,inglés,5.0,4.0,5.0,yes,no,yes,canto,12,,,"ningun problema ni distracción, todo bien y siguiendo las instrucciones",73.0,yes
38,2024-05-06_15h18.40.260,Experiment4_uns,s172,23.0,feminino,right,españa,"catalán y castellano
",Master degree,no,no,B,1,when,L2,unsyncopated,when,when,38,Online_whenL2//b.fe32.222.wav,ño,fe,te,sil,ñu,bi,su,sil1,mi,go,sil2,['catch'],[1.2069999999999936],[1.2069999999999936],0.222,no_beat,0.9849999999999935,0.9849999999999935,"[""space""]",fe,2,testConjL4Uns//r2.s2.1.wav,2.0,conjunction_un,unsyncopated,b,s2,rule,rule,L4,m,1.533,5.0,0.0,0.82,3.0,2.0,catalán,0.0,castellano,0.0,inglés,5.0,4.0,5.0,yes,no,yes,canto,12,,,"ningun problema ni distracción, todo bien y siguiendo las instrucciones",73.0,yes
39,2024-05-06_15h18.40.260,Experiment4_uns,s172,23.0,feminino,right,españa,"catalán y castellano
",Master degree,no,no,B,1,when,L2,unsyncopated,when,when,39,Online_whenL2//b.fe34.1776.wav,si,go,mi,sil,ba,ñu,me,sil1,fe,ño,sil2,['catch'],[2.29200000000003],[2.29200000000003],1.776,beat,0.51600000000003,0.51600000000003,"[""space""]",fe,2,testConjL4Uns//r1.s2.2.wav,2.0,conjunction_un,unsyncopated,a,s2,rule,rule,L4,m,1.285,5.0,0.0,0.303,3.0,2.0,catalán,0.0,castellano,0.0,inglés,5.0,4.0,5.0,yes,no,yes,canto,12,,,"ningun problema ni distracción, todo bien y siguiendo las instrucciones",73.0,yes
40,2024-05-06_15h18.40.260,Experiment4_uns,s172,23.0,feminino,right,españa,"catalán y castellano
",Master degree,no,no,B,1,when,L2,unsyncopated,when,when,40,Online_whenL2//b.fe24.888.wav,to,te,ñu,sil,fe,su,bi,sil1,du,mi,sil2,['catch'],[1.5],[1.5],0.888,beat,0.612,0.612,"[""space""]",fe,2,testConjL4Uns//time_viol.r2.s1.0.wav,2.0,conjunction_un,unsyncopated,b,s1,no_rule,time,L4,m,1.492,5.0,1.0,0.625,3.0,2.0,catalán,0.0,castellano,0.0,inglés,5.0,4.0,5.0,yes,no,yes,canto,12,,,"ningun problema ni distracción, todo bien y siguiendo las instrucciones",73.0,yes
41,2024-05-06_15h18.40.260,Experiment4_uns,s172,23.0,feminino,right,españa,"catalán y castellano
",Master degree,no,no,B,1,when,L2,unsyncopated,when,when,41,Online_whenL2//b.fe27.888.wav,to,cha,su,sil,fe,me,go,sil1,ñu,ño,sil2,['catch'],[1.384999999999991],[1.384999999999991],0.888,beat,0.4969999999999909,0.4969999999999909,"[""space""]",fe,2,testConjL4Uns//dep_viol.r1.s2.0.wav,2.0,conjunction_un,unsyncopated,a,s2,no_rule,dep,L4,m,1.91,7.0,1.0,0.454,3.0,2.0,catalán,0.0,castellano,0.0,inglés,5.0,4.0,5.0,yes,no,yes,canto,12,,,"ningun problema ni distracción, todo bien y siguiendo las instrucciones",73.0,yes
42,2024-05-06_15h18.40.260,Experiment4_uns,s172,23.0,feminino,right,españa,"catalán y castellano
",Master degree,no,no,B,1,when,L2,unsyncopated,when,when,42,Online_whenL2//b.fe26.none.wav,ñu,te,ño,sil,go,mi,me,sil1,du,ba,sil2,['-'],,,none,none,,,,fe,2,testConjL4Uns//time_viol.r1.s2.0.wav,2.0,conjunction_un,unsyncopated,a,s2,no_rule,time,L4,m,1.15,7.0,1.0,0.289,3.0,2.0,catalán,0.0,castellano,0.0,inglés,5.0,4.0,5.0,yes,no,yes,canto,12,,,"ningun problema ni distracción, todo bien y siguiendo las instrucciones",73.0,yes
43,2024-05-06_15h18.40.260,Experiment4_uns,s172,23.0,feminino,right,españa,"catalán y castellano
",Master degree,no,no,B,1,when,L2,unsyncopated,when,when,43,Online_whenL2//b.fe25.888.wav,ba,me,mi,sil,fe,to,bi,sil1,ñu,du,sil2,['catch'],[1.4710000000000036],[1.4710000000000036],0.888,beat,0.5830000000000036,0.5830000000000036,"[""space""]",fe,2,testConjL4Uns//r1.s1.2.wav,2.0,conjunction_un,unsyncopated,a,s1,rule,rule,L4,z,1.028,5.0,1.0,1.266,3.0,2.0,catalán,0.0,castellano,0.0,inglés,5.0,4.0,5.0,yes,no,yes,canto,12,,,"ningun problema ni distracción, todo bien y siguiendo las instrucciones",73.0,yes
44,2024-05-06_15h18.40.260,Experiment4_uns,s172,23.0,feminino,right,españa,"catalán y castellano
",Master degree,no,no,B,1,when,L2,unsyncopated,when,when,44,Online_whenL2//b.fe16.1998.wav,cha,ba,te,sil,ra,ño,si,sil1,me,fe,sil2,['catch'],[2.4549999999999272],[2.4549999999999272],1.998,no_beat,0.4569999999999272,0.4569999999999272,"[""space""]",fe,2,testConjL4Uns//r1.s1.0.wav,2.0,conjunction_un,unsyncopated,a,s1,rule,rule,L4,z,1.075,6.0,1.0,0.992,3.0,2.0,catalán,0.0,castellano,0.0,inglés,5.0,4.0,5.0,yes,no,yes,canto,12,,,"ningun problema ni distracción, todo bien y siguiendo las instrucciones",73.0,yes
45,2024-05-06_15h18.40.260,Experiment4_uns,s172,23.0,feminino,right,españa,"catalán y castellano
",Master degree,no,no,B,1,when,L2,unsyncopated,when,when,45,Online_whenL2//b.fe18.none.wav,mi,go,su,sil,ba,ra,si,sil1,cha,bi,sil2,['-'],,,none,none,,,,fe,2,testConjL4Uns//time_viol.r2.s2.0.wav,2.0,conjunction_un,unsyncopated,b,s2,no_rule,time,L4,m,0.622,7.0,1.0,0.717,3.0,2.0,catalán,0.0,castellano,0.0,inglés,5.0,4.0,5.0,yes,no,yes,canto,12,,,"ningun problema ni distracción, todo bien y siguiendo las instrucciones",73.0,yes
46,2024-05-06_15h18.40.260,Experiment4_uns,s172,23.0,feminino,right,españa,"catalán y castellano
",Master degree,no,no,B,1,when,L2,unsyncopated,when,when,46,Online_whenL2//b.fe17.222.wav,te,fe,ño,sil,su,mi,ra,sil1,si,ñu,sil2,['catch'],[0.5849999999999227],[0.5849999999999227],0.222,no_beat,0.3629999999999227,0.3629999999999227,"[""space""]",fe,2,testConjL4Uns//r2.s1.0.wav,2.0,conjunction_un,unsyncopated,b,s1,rule,rule,L4,m,1.966,4.0,0.0,0.561,3.0,2.0,catalán,0.0,castellano,0.0,inglés,5.0,4.0,5.0,yes,no,yes,canto,12,,,"ningun problema ni distracción, todo bien y siguiendo las instrucciones",73.0,yes
47,2024-05-06_15h18.40.260,Experiment4_uns,s172,23.0,feminino,right,españa,"catalán y castellano
",Master degree,no,no,B,1,when,L2,unsyncopated,when,when,47,Online_whenL2//b.fe19.none.wav,ño,ra,su,sil,cha,du,to,sil1,si,me,sil2,['-'],,,none,none,,,,fe,2,testConjL4Uns//r2.s2.0.wav,2.0,conjunction_un,unsyncopated,b,s2,rule,rule,L4,z,1.792,7.0,1.0,0.651,3.0,2.0,catalán,0.0,castellano,0.0,inglés,5.0,4.0,5.0,yes,no,yes,canto,12,,,"ningun problema ni distracción, todo bien y siguiendo las instrucciones",73.0,yes
48,2024-05-06_15h18.40.260,Experiment4_uns,s172,23.0,feminino,right,españa,"catalán y castellano
",Master degree,no,no,B,1,when,L2,unsyncopated,when,when,48,Online_whenL2//d.si25.none.wav,ño,ra,me,sil,to,go,te,sil1,su,mi,sil2,['-'],,,none,none,,,,si,4,testWhatL1Uns//r1.s2.0.wav,3.0,what,unsyncopated,a,s2,rule,rule,L1,z,1.282,7.0,1.0,2.081,3.0,2.0,catalán,0.0,castellano,0.0,inglés,5.0,4.0,5.0,yes,no,yes,canto,12,,,"ningun problema ni distracción, todo bien y siguiendo las instrucciones",73.0,yes
49,2024-05-06_15h18.40.260,Experiment4_uns,s172,23.0,feminino,right,españa,"catalán y castellano
",Master degree,no,no,B,1,when,L2,unsyncopated,when,when,49,Online_whenL2//d.si26.none.wav,ra,ño,cha,sil,to,su,bi,sil1,ñu,fe,sil2,['-'],,,none,none,,,,si,4,testWhatL1Uns//r1.s2.1.wav,3.0,what,unsyncopated,a,s2,rule,rule,L1,m,0.828,5.0,0.0,0.818,3.0,2.0,catalán,0.0,castellano,0.0,inglés,5.0,4.0,5.0,yes,no,yes,canto,12,,,"ningun problema ni distracción, todo bien y siguiendo las instrucciones",73.0,yes
50,2024-05-06_15h18.40.260,Experiment4_uns,s172,23.0,feminino,right,españa,"catalán y castellano
",Master degree,no,no,B,1,when,L2,unsyncopated,when,when,50,Online_whenL2//d.si27.1110.wav,fe,te,ñu,sil,ño,si,mi,sil1,me,go,sil2,['catch'],[1.677000000000021],[1.677000000000021],1.11,no_beat,0.5670000000000208,0.5670000000000208,"[""space""]",si,4,testWhatL1Uns//time_viol.r2.s2.0.wav,3.0,what,unsyncopated,b,s2,no_rule,time,L1,m,2.609,5.0,1.0,1.122,3.0,2.0,catalán,0.0,castellano,0.0,inglés,5.0,4.0,5.0,yes,no,yes,canto,12,,,"ningun problema ni distracción, todo bien y siguiendo las instrucciones",73.0,yes
51,2024-05-06_15h18.40.260,Experiment4_uns,s172,23.0,feminino,right,españa,"catalán y castellano
",Master degree,no,no,B,1,when,L2,unsyncopated,when,when,51,Online_whenL2//d.si24.1332.wav,me,du,bi,sil,ñu,cha,si,sil1,ra,su,sil2,['catch'],[2.0120000000000573],[2.0120000000000573],1.332,no_beat,0.6800000000000572,0.6800000000000572,"[""space""]",si,4,testWhatL1Uns//r1.s1.0.wav,3.0,what,unsyncopated,a,s1,rule,rule,L1,z,0.573,7.0,1.0,1.009,3.0,2.0,catalán,0.0,castellano,0.0,inglés,5.0,4.0,5.0,yes,no,yes,canto,12,,,"ningun problema ni distracción, todo bien y siguiendo las instrucciones",73.0,yes
52,2024-05-06_15h18.40.260,Experiment4_uns,s172,23.0,feminino,right,españa,"catalán y castellano
",Master degree,no,no,B,1,when,L2,unsyncopated,when,when,52,Online_whenL2//b.fe4.0.wav,fe,ra,ño,sil,to,ba,cha,sil1,si,te,sil2,['catch'],[0.8470000000000937],[0.8470000000000937],0.0,beat,0.8470000000000937,0.8470000000000937,"[""space""]",fe,2,testWhatL1Uns//cat_viol.r2.s1.0.wav,3.0,what,unsyncopated,b,s1,no_rule,cat,L1,z,0.592,3.0,0.0,1.152,3.0,2.0,catalán,0.0,castellano,0.0,inglés,5.0,4.0,5.0,yes,no,yes,canto,12,,,"ningun problema ni distracción, todo bien y siguiendo las instrucciones",73.0,yes
53,2024-05-06_15h18.40.260,Experiment4_uns,s172,23.0,feminino,right,españa,"catalán y castellano
",Master degree,no,no,B,1,when,L2,unsyncopated,when,when,53,Online_whenL2//b.fe7.1998.wav,ba,si,du,sil,cha,ño,bi,sil1,mi,fe,sil2,['catch'],[2.5539999999999736],[2.5539999999999736],1.998,no_beat,0.5559999999999736,0.5559999999999736,"[""space""]",fe,2,testWhatL1Uns//cat_viol.r2.s2.0.wav,3.0,what,unsyncopated,b,s2,no_rule,cat,L1,m,1.204,5.0,1.0,1.935,3.0,2.0,catalán,0.0,castellano,0.0,inglés,5.0,4.0,5.0,yes,no,yes,canto,12,,,"ningun problema ni distracción, todo bien y siguiendo las instrucciones",73.0,yes
54,2024-05-06_15h18.40.260,Experiment4_uns,s172,23.0,feminino,right,españa,"catalán y castellano
",Master degree,no,no,B,1,when,L2,unsyncopated,when,when,54,Online_whenL2//b.fe6.1998.wav,du,su,ñu,sil,cha,ba,to,sil1,te,fe,sil2,['catch'],[2.521000000000072],[2.521000000000072],1.998,no_beat,0.5230000000000719,0.5230000000000719,"[""space""]",fe,2,testWhatL1Uns//time_viol.r2.s1.0.wav,3.0,what,unsyncopated,b,s1,no_rule,time,L1,z,2.485,5.0,0.0,1.117,3.0,2.0,catalán,0.0,castellano,0.0,inglés,5.0,4.0,5.0,yes,no,yes,canto,12,,,"ningun problema ni distracción, todo bien y siguiendo las instrucciones",73.0,yes
55,2024-05-06_15h18.40.260,Experiment4_uns,s172,23.0,feminino,right,españa,"catalán y castellano
",Master degree,no,no,B,1,when,L2,unsyncopated,when,when,55,Online_whenL2//b.fe5.1332.wav,si,cha,bi,sil,ñu,su,fe,sil1,ra,te,sil2,['miss'],,,1.332,no_beat,,,,fe,2,testWhatL1Uns//dep_viol.r2.s2.0.wav,3.0,what,unsyncopated,b,s2,no_rule,dep,L1,z,1.123,6.0,0.0,0.759,3.0,2.0,catalán,0.0,castellano,0.0,inglés,5.0,4.0,5.0,yes,no,yes,canto,12,,,"ningun problema ni distracción, todo bien y siguiendo las instrucciones",73.0,yes
56,2024-05-06_15h18.40.260,Experiment4_uns,s172,23.0,feminino,right,españa,"catalán y castellano
",Master degree,no,no,B,1,when,L2,unsyncopated,when,when,56,Online_whenL2//c.cha0.1332.wav,mi,ñu,bi,sil,fe,to,cha,sil1,ra,su,sil2,['catch'],[1.6709999999999354],[1.6709999999999354],1.332,no_beat,0.3389999999999353,0.3389999999999353,"[""space""]",cha,3,testWhatL1Uns//cat_viol.r1.s2.0.wav,3.0,what,unsyncopated,a,s2,no_rule,cat,L1,z,0.604,6.0,0.0,1.138,3.0,2.0,catalán,0.0,castellano,0.0,inglés,5.0,4.0,5.0,yes,no,yes,canto,12,,,"ningun problema ni distracción, todo bien y siguiendo las instrucciones",73.0,yes
57,2024-05-06_15h18.40.260,Experiment4_uns,s172,23.0,feminino,right,españa,"catalán y castellano
",Master degree,no,no,B,1,when,L2,unsyncopated,when,when,57,Online_whenL2//c.cha2.none.wav,si,me,ra,sil,bi,te,ño,sil1,go,to,sil2,['-'],,,none,none,,,,cha,3,testWhatL1Uns//r1.s1.2.wav,3.0,what,unsyncopated,a,s1,rule,rule,L1,z,0.405,5.0,1.0,0.634,3.0,2.0,catalán,0.0,castellano,0.0,inglés,5.0,4.0,5.0,yes,no,yes,canto,12,,,"ningun problema ni distracción, todo bien y siguiendo las instrucciones",73.0,yes
58,2024-05-06_15h18.40.260,Experiment4_uns,s172,23.0,feminino,right,españa,"catalán y castellano
",Master degree,no,no,B,1,when,L2,unsyncopated,when,when,58,Online_whenL2//c.cha1.1332.wav,bi,ba,te,sil,me,ñu,cha,sil1,go,fe,sil2,['catch'],[1.7859999999999445],[1.7859999999999445],1.332,no_beat,0.4539999999999444,0.4539999999999444,"[""space""]",cha,3,testWhatL1Uns//r2.s1.1.wav,3.0,what,unsyncopated,b,s1,rule,rule,L1,m,0.366,5.0,0.0,0.785,3.0,2.0,catalán,0.0,castellano,0.0,inglés,5.0,4.0,5.0,yes,no,yes,canto,12,,,"ningun problema ni distracción, todo bien y siguiendo las instrucciones",73.0,yes
59,2024-05-06_15h18.40.260,Experiment4_uns,s172,23.0,feminino,right,españa,"catalán y castellano
",Master degree,no,no,B,1,when,L2,unsyncopated,when,when,59,Online_whenL2//c.cha3.1998.wav,te,to,bi,sil,du,ra,ño,sil1,su,cha,sil2,['catch_delay'],[0.7320000000000311],[0.7320000000000311],1.998,no_beat,0.7320000000000311,0.7320000000000311,,cha,3,testWhatL1Uns//dep_viol.r1.s2.0.wav,3.0,what,unsyncopated,a,s2,no_rule,dep,L1,m,0.752,7.0,1.0,0.316,3.0,2.0,catalán,0.0,castellano,0.0,inglés,5.0,4.0,5.0,yes,no,yes,canto,12,,,"ningun problema ni distracción, todo bien y siguiendo las instrucciones",73.0,yes
60,2024-05-06_15h18.40.260,Experiment4_uns,s172,23.0,feminino,right,españa,"catalán y castellano
",Master degree,no,no,B,1,when,L2,unsyncopated,when,when,60,Online_whenL2//c.cha14.none.wav,go,te,ñu,sil,mi,bi,ba,sil1,ño,du,sil2,['-'],[0.06600000000003092],[0.06600000000003092],none,none,,,"[""space""]",cha,3,testWhatL1Uns//dep_viol.r2.s1.0.wav,3.0,what,unsyncopated,b,s1,no_rule,dep,L1,z,1.353,6.0,0.0,0.884,3.0,2.0,catalán,0.0,castellano,0.0,inglés,5.0,4.0,5.0,yes,no,yes,canto,12,,,"ningun problema ni distracción, todo bien y siguiendo las instrucciones",73.0,yes
61,2024-05-06_15h18.40.260,Experiment4_uns,s172,23.0,feminino,right,españa,"catalán y castellano
",Master degree,no,no,B,1,when,L2,unsyncopated,when,when,61,Online_whenL2//c.cha15.none.wav,si,su,ñu,sil,mi,ba,ra,sil1,to,go,sil2,['-'],,,none,none,,,,cha,3,testWhatL1Uns//time_viol.r1.s1.0.wav,3.0,what,unsyncopated,a,s1,no_rule,time,L1,m,0.92,4.0,1.0,0.353,3.0,2.0,catalán,0.0,castellano,0.0,inglés,5.0,4.0,5.0,yes,no,yes,canto,12,,,"ningun problema ni distracción, todo bien y siguiendo las instrucciones",73.0,yes
62,2024-05-06_15h18.40.260,Experiment4_uns,s172,23.0,feminino,right,españa,"catalán y castellano
",Master degree,no,no,B,1,when,L2,unsyncopated,when,when,62,Online_whenL2//c.cha13.888.wav,te,me,ba,sil,cha,bi,si,sil1,fe,du,sil2,['catch'],[1.4780000000000655],[1.4780000000000655],0.888,beat,0.5900000000000655,0.5900000000000655,"[""space""]",cha,3,testWhatL1Uns//r1.s1.1.wav,3.0,what,unsyncopated,a,s1,rule,rule,L1,z,1.274,7.0,1.0,1.069,3.0,2.0,catalán,0.0,castellano,0.0,inglés,5.0,4.0,5.0,yes,no,yes,canto,12,,,"ningun problema ni distracción, todo bien y siguiendo las instrucciones",73.0,yes
63,2024-05-06_15h18.40.260,Experiment4_uns,s172,23.0,feminino,right,españa,"catalán y castellano
",Master degree,no,no,B,1,when,L2,unsyncopated,when,when,63,Online_whenL2//c.cha12.444.wav,du,ba,cha,sil,te,bi,ño,sil1,ñu,fe,sil2,['catch'],[0.9529999999999745],[0.9529999999999745],0.444,no_beat,0.5089999999999746,0.5089999999999746,"[""space""]",cha,3,testWhatL1Uns//r1.s2.2.wav,3.0,what,unsyncopated,a,s2,rule,rule,L1,z,1.424,5.0,1.0,0.426,3.0,2.0,catalán,0.0,castellano,0.0,inglés,5.0,4.0,5.0,yes,no,yes,canto,12,,,"ningun problema ni distracción, todo bien y siguiendo las instrucciones",73.0,yes
64,2024-05-06_15h18.40.260,Experiment4_uns,s172,23.0,feminino,right,españa,"catalán y castellano
",Master degree,no,no,B,1,when,L2,unsyncopated,when,when,64,Online_whenL2//a.du3.none.wav,me,mi,te,sil,cha,go,ñu,sil1,fe,si,sil2,['-'],,,none,none,,,,du,1,testWhatL1Uns//time_viol.r1.s2.0.wav,3.0,what,unsyncopated,a,s2,no_rule,time,L1,m,0.723,7.0,1.0,0.327,3.0,2.0,catalán,0.0,castellano,0.0,inglés,5.0,4.0,5.0,yes,no,yes,canto,12,,,"ningun problema ni distracción, todo bien y siguiendo las instrucciones",73.0,yes
65,2024-05-06_15h18.40.260,Experiment4_uns,s172,23.0,feminino,right,españa,"catalán y castellano
",Master degree,no,no,B,1,when,L2,unsyncopated,when,when,65,Online_whenL2//a.du2.0.wav,du,me,si,sil,mi,to,go,sil1,cha,bi,sil2,['catch'],[0.6209999999999809],[0.6209999999999809],0.0,beat,0.6209999999999809,0.6209999999999809,"[""space""]",du,1,testWhatL1Uns//r2.s2.0.wav,3.0,what,unsyncopated,b,s2,rule,rule,L1,z,1.5,4.0,1.0,0.668,3.0,2.0,catalán,0.0,castellano,0.0,inglés,5.0,4.0,5.0,yes,no,yes,canto,12,,,"ningun problema ni distracción, todo bien y siguiendo las instrucciones",73.0,yes
66,2024-05-06_15h18.40.260,Experiment4_uns,s172,23.0,feminino,right,españa,"catalán y castellano
",Master degree,no,no,B,1,when,L2,unsyncopated,when,when,66,Online_whenL2//a.du0.888.wav,ñu,ba,ra,sil,du,su,ño,sil1,cha,te,sil2,['catch'],[1.4390000000000782],[1.4390000000000782],0.888,beat,0.5510000000000782,0.5510000000000782,"[""space""]",du,1,testWhatL1Uns//r2.s1.0.wav,3.0,what,unsyncopated,b,s1,rule,rule,L1,z,0.983,6.0,1.0,0.526,3.0,2.0,catalán,0.0,castellano,0.0,inglés,5.0,4.0,5.0,yes,no,yes,canto,12,,,"ningun problema ni distracción, todo bien y siguiendo las instrucciones",73.0,yes
67,2024-05-06_15h18.40.260,Experiment4_uns,s172,23.0,feminino,right,españa,"catalán y castellano
",Master degree,no,no,B,1,when,L2,unsyncopated,when,when,67,Online_whenL2//a.du1.none.wav,bi,si,fe,sil,mi,ra,ba,sil1,su,me,sil2,['-'],,,none,none,,,,du,1,testWhatL1Uns//cat_viol.r1.s1.0.wav,3.0,what,unsyncopated,a,s1,no_rule,cat,L1,m,0.894,6.0,1.0,1.125,3.0,2.0,catalán,0.0,castellano,0.0,inglés,5.0,4.0,5.0,yes,no,yes,canto,12,,,"ningun problema ni distracción, todo bien y siguiendo las instrucciones",73.0,yes
68,2024-05-06_15h18.40.260,Experiment4_uns,s172,23.0,feminino,right,españa,"catalán y castellano
",Master degree,no,no,B,1,when,L2,unsyncopated,when,when,68,Online_whenL2//b.fe31.none.wav,me,si,ñu,sil,su,go,du,sil1,bi,ba,sil2,['-'],,,none,none,,,,fe,2,testWhatL1Uns//r2.s1.2.wav,3.0,what,unsyncopated,b,s1,rule,rule,L1,m,1.217,5.0,0.0,2.134,3.0,2.0,catalán,0.0,castellano,0.0,inglés,5.0,4.0,5.0,yes,no,yes,canto,12,,,"ningun problema ni distracción, todo bien y siguiendo las instrucciones",73.0,yes
69,2024-05-06_15h18.40.260,Experiment4_uns,s172,23.0,feminino,right,españa,"catalán y castellano
",Master degree,no,no,B,1,when,L2,unsyncopated,when,when,69,Online_whenL2//b.fe29.none.wav,ra,ñu,du,sil,ño,bi,to,sil1,mi,su,sil2,['-'],,,none,none,,,,fe,2,testWhatL1Uns//dep_viol.r1.s1.0.wav,3.0,what,unsyncopated,a,s1,no_rule,dep,L1,m,1.401,7.0,1.0,0.536,3.0,2.0,catalán,0.0,castellano,0.0,inglés,5.0,4.0,5.0,yes,no,yes,canto,12,,,"ningun problema ni distracción, todo bien y siguiendo las instrucciones",73.0,yes
70,2024-05-06_15h18.40.260,Experiment4_uns,s172,23.0,feminino,right,españa,"catalán y castellano
",Master degree,no,no,B,1,when,L2,unsyncopated,when,when,70,Online_whenL2//b.fe28.1776.wav,me,su,ba,sil,bi,ño,te,sil1,fe,du,sil2,['catch'],[2.2549999999999955],[2.2549999999999955],1.776,beat,0.4789999999999954,0.4789999999999954,"[""space""]",fe,2,testWhatL1Uns//r2.s2.2.wav,3.0,what,unsyncopated,b,s2,rule,rule,L1,z,1.134,7.0,1.0,0.488,3.0,2.0,catalán,0.0,castellano,0.0,inglés,5.0,4.0,5.0,yes,no,yes,canto,12,,,"ningun problema ni distracción, todo bien y siguiendo las instrucciones",73.0,yes
71,2024-05-06_15h18.40.260,Experiment4_uns,s172,23.0,feminino,right,españa,"catalán y castellano
",Master degree,no,no,B,1,when,L2,unsyncopated,when,when,71,Online_whenL2//b.fe30.none.wav,ra,si,su,sil,ñu,go,te,sil1,to,ño,sil2,['-'],,,none,none,,,,fe,2,testWhatL1Uns//r2.s2.1.wav,3.0,what,unsyncopated,b,s2,rule,rule,L1,m,0.691,6.0,0.0,0.404,3.0,2.0,catalán,0.0,castellano,0.0,inglés,5.0,4.0,5.0,yes,no,yes,canto,12,,,"ningun problema ni distracción, todo bien y siguiendo las instrucciones",73.0,yes
72,2024-05-06_15h18.40.260,Experiment4_uns,s172,23.0,feminino,right,españa,"catalán y castellano
",Master degree,no,no,B,1,when,L2,unsyncopated,when,when,72,Online_whenL2//a.du12.none.wav,si,bi,fe,sil,ño,mi,su,sil1,ra,me,sil2,['-'],,,none,none,,,,du,1,testConjL3Syn//time_viol.r1.s2.0.wav,4.0,conjunction_syn,syncopated,a,s2,no_rule,time,L3,m,1.417,5.0,1.0,0.918,3.0,2.0,catalán,0.0,castellano,0.0,inglés,5.0,4.0,5.0,yes,no,yes,canto,12,,,"ningun problema ni distracción, todo bien y siguiendo las instrucciones",73.0,yes
73,2024-05-06_15h18.40.260,Experiment4_uns,s172,23.0,feminino,right,españa,"catalán y castellano
",Master degree,no,no,B,1,when,L2,unsyncopated,when,when,73,Online_whenL2//a.du15.1998.wav,su,si,me,sil,ño,te,mi,sil1,go,du,sil2,['catch'],[2.5299999999999727],[2.5299999999999727],1.998,no_beat,0.5319999999999727,0.5319999999999727,"[""space""]",du,1,testConjL3Syn//dep_viol.r1.s2.0.wav,4.0,conjunction_syn,syncopated,a,s2,no_rule,dep,L3,z,1.319,4.0,0.0,0.787,3.0,2.0,catalán,0.0,castellano,0.0,inglés,5.0,4.0,5.0,yes,no,yes,canto,12,,,"ningun problema ni distracción, todo bien y siguiendo las instrucciones",73.0,yes
74,2024-05-06_15h18.40.260,Experiment4_uns,s172,23.0,feminino,right,españa,"catalán y castellano
",Master degree,no,no,B,1,when,L2,unsyncopated,when,when,74,Online_whenL2//a.du13.0.wav,du,ño,to,sil,me,ra,mi,sil1,bi,ba,sil2,['catch'],[0.8509999999999991],[0.8509999999999991],0.0,beat,0.8509999999999991,0.8509999999999991,"[""space""]",du,1,testConjL3Syn//dep_viol.r2.s1.0.wav,4.0,conjunction_syn,syncopated,b,s1,no_rule,dep,L3,m,1.835,6.0,1.0,0.386,3.0,2.0,catalán,0.0,castellano,0.0,inglés,5.0,4.0,5.0,yes,no,yes,canto,12,,,"ningun problema ni distracción, todo bien y siguiendo las instrucciones",73.0,yes
75,2024-05-06_15h18.40.260,Experiment4_uns,s172,23.0,feminino,right,españa,"catalán y castellano
",Master degree,no,no,B,1,when,L2,unsyncopated,when,when,75,Online_whenL2//a.du14.none.wav,ño,to,bi,sil,ra,mi,me,sil1,ba,fe,sil2,['-'],,,none,none,,,,du,1,testConjL3Syn//cat_viol.r2.s1.0.wav,4.0,conjunction_syn,syncopated,b,s1,no_rule,cat,L3,z,2.659,5.0,0.0,0.786,3.0,2.0,catalán,0.0,castellano,0.0,inglés,5.0,4.0,5.0,yes,no,yes,canto,12,,,"ningun problema ni distracción, todo bien y siguiendo las instrucciones",73.0,yes
76,2024-05-06_15h18.40.260,Experiment4_uns,s172,23.0,feminino,right,españa,"catalán y castellano
",Master degree,no,no,B,1,when,L2,unsyncopated,when,when,76,Online_whenL2//a.du22.444.wav,me,fe,du,sil,to,ba,te,sil1,su,ñu,sil2,['catch'],[1.2180000000000746],[1.2180000000000746],0.444,no_beat,0.7740000000000746,0.7740000000000746,"[""space""]",du,1,testConjL3Syn//r1.s1.2.wav,4.0,conjunction_syn,syncopated,a,s1,rule,rule,L3,m,0.934,4.0,0.0,2.058,3.0,2.0,catalán,0.0,castellano,0.0,inglés,5.0,4.0,5.0,yes,no,yes,canto,12,,,"ningun problema ni distracción, todo bien y siguiendo las instrucciones",73.0,yes
77,2024-05-06_15h18.40.260,Experiment4_uns,s172,23.0,feminino,right,españa,"catalán y castellano
",Master degree,no,no,B,1,when,L2,unsyncopated,when,when,77,Online_whenL2//a.du21.none.wav,cha,si,bi,sil,ñu,ra,ño,sil1,ba,go,sil2,['-'],,,none,none,,,,du,1,testConjL3Syn//r2.s1.0.wav,4.0,conjunction_syn,syncopated,b,s1,rule,rule,L3,z,2.217,7.0,1.0,0.367,3.0,2.0,catalán,0.0,castellano,0.0,inglés,5.0,4.0,5.0,yes,no,yes,canto,12,,,"ningun problema ni distracción, todo bien y siguiendo las instrucciones",73.0,yes
78,2024-05-06_15h18.40.260,Experiment4_uns,s172,23.0,feminino,right,españa,"catalán y castellano
",Master degree,no,no,B,1,when,L2,unsyncopated,when,when,78,Online_whenL2//a.du20.none.wav,su,go,te,sil,ra,si,bi,sil1,ñu,cha,sil2,['-'],,,none,none,,,,du,1,testConjL3Syn//r2.s2.2.wav,4.0,conjunction_syn,syncopated,b,s2,rule,rule,L3,m,3.459,7.0,0.0,1.734,3.0,2.0,catalán,0.0,castellano,0.0,inglés,5.0,4.0,5.0,yes,no,yes,canto,12,,,"ningun problema ni distracción, todo bien y siguiendo las instrucciones",73.0,yes
79,2024-05-06_15h18.40.260,Experiment4_uns,s172,23.0,feminino,right,españa,"catalán y castellano
",Master degree,no,no,B,1,when,L2,unsyncopated,when,when,79,Online_whenL2//a.du23.888.wav,si,fe,to,sil,du,su,ño,sil1,me,ba,sil2,['catch'],[1.5179999999999154],[1.5179999999999154],0.888,beat,0.6299999999999154,0.6299999999999154,"[""space""]",du,1,testConjL3Syn//r1.s1.0.wav,4.0,conjunction_syn,syncopated,a,s1,rule,rule,L3,m,1.791,6.0,0.0,0.571,3.0,2.0,catalán,0.0,castellano,0.0,inglés,5.0,4.0,5.0,yes,no,yes,canto,12,,,"ningun problema ni distracción, todo bien y siguiendo las instrucciones",73.0,yes
80,2024-05-06_15h18.40.260,Experiment4_uns,s172,23.0,feminino,right,españa,"catalán y castellano
",Master degree,no,no,B,1,when,L2,unsyncopated,when,when,80,Online_whenL2//c.cha30.none.wav,te,mi,to,sil,me,go,si,sil1,ño,du,sil2,['-'],,,none,none,,,,cha,3,testConjL3Syn//time_viol.r2.s1.0.wav,4.0,conjunction_syn,syncopated,b,s1,no_rule,time,L3,z,1.533,6.0,0.0,0.5,3.0,2.0,catalán,0.0,castellano,0.0,inglés,5.0,4.0,5.0,yes,no,yes,canto,12,,,"ningun problema ni distracción, todo bien y siguiendo las instrucciones",73.0,yes
81,2024-05-06_15h18.40.260,Experiment4_uns,s172,23.0,feminino,right,españa,"catalán y castellano
",Master degree,no,no,B,1,when,L2,unsyncopated,when,when,81,Online_whenL2//c.cha31.none.wav,to,te,ñu,sil,bi,du,su,sil1,fe,me,sil2,['-'],,,none,none,,,,cha,3,testConjL3Syn//r1.s2.2.wav,4.0,conjunction_syn,syncopated,a,s2,rule,rule,L3,z,1.526,7.0,1.0,0.51,3.0,2.0,catalán,0.0,castellano,0.0,inglés,5.0,4.0,5.0,yes,no,yes,canto,12,,,"ningun problema ni distracción, todo bien y siguiendo las instrucciones",73.0,yes
82,2024-05-06_15h18.40.260,Experiment4_uns,s172,23.0,feminino,right,españa,"catalán y castellano
",Master degree,no,no,B,1,when,L2,unsyncopated,when,when,82,Online_whenL2//c.cha29.444.wav,go,du,cha,sil,me,ba,su,sil1,ñu,bi,sil2,['catch'],[0.8700000000000045],[0.8700000000000045],0.444,no_beat,0.4260000000000045,0.4260000000000045,"[""space""]",cha,3,testConjL3Syn//r1.s2.1.wav,4.0,conjunction_syn,syncopated,a,s2,rule,rule,L3,z,1.453,7.0,1.0,0.454,3.0,2.0,catalán,0.0,castellano,0.0,inglés,5.0,4.0,5.0,yes,no,yes,canto,12,,,"ningun problema ni distracción, todo bien y siguiendo las instrucciones",73.0,yes
83,2024-05-06_15h18.40.260,Experiment4_uns,s172,23.0,feminino,right,españa,"catalán y castellano
",Master degree,no,no,B,1,when,L2,unsyncopated,when,when,83,Online_whenL2//c.cha28.0.wav,cha,fe,to,sil,ba,ñu,me,sil1,go,te,sil2,['catch'],[0.6050000000000182],[0.6050000000000182],0.0,beat,0.6050000000000182,0.6050000000000182,"[""space""]",cha,3,testConjL3Syn//r1.s1.1.wav,4.0,conjunction_syn,syncopated,a,s1,rule,rule,L3,m,2.504,5.0,0.0,0.892,3.0,2.0,catalán,0.0,castellano,0.0,inglés,5.0,4.0,5.0,yes,no,yes,canto,12,,,"ningun problema ni distracción, todo bien y siguiendo las instrucciones",73.0,yes
84,2024-05-06_15h18.40.260,Experiment4_uns,s172,23.0,feminino,right,españa,"catalán y castellano
",Master degree,no,no,B,1,when,L2,unsyncopated,when,when,84,Online_whenL2//b.fe23.none.wav,me,ba,du,sil,ra,to,bi,sil1,si,ñu,sil2,['-'],,,none,none,,,,fe,2,testConjL3Syn//time_viol.r2.s2.0.wav,4.0,conjunction_syn,syncopated,b,s2,no_rule,time,L3,m,5.699,6.0,1.0,1.487,3.0,2.0,catalán,0.0,castellano,0.0,inglés,5.0,4.0,5.0,yes,no,yes,canto,12,,,"ningun problema ni distracción, todo bien y siguiendo las instrucciones",73.0,yes
85,2024-05-06_15h18.40.260,Experiment4_uns,s172,23.0,feminino,right,españa,"catalán y castellano
",Master degree,no,no,B,1,when,L2,unsyncopated,when,when,85,Online_whenL2//b.fe22.none.wav,ño,ra,go,sil,ñu,bi,su,sil1,to,te,sil2,['-'],,,none,none,,,,fe,2,testConjL3Syn//r2.s2.1.wav,4.0,conjunction_syn,syncopated,b,s2,rule,rule,L3,m,1.367,5.0,0.0,0.84,3.0,2.0,catalán,0.0,castellano,0.0,inglés,5.0,4.0,5.0,yes,no,yes,canto,12,,,"ningun problema ni distracción, todo bien y siguiendo las instrucciones",73.0,yes
86,2024-05-06_15h18.40.260,Experiment4_uns,s172,23.0,feminino,right,españa,"catalán y castellano
",Master degree,no,no,B,1,when,L2,unsyncopated,when,when,86,Online_whenL2//b.fe21.1332.wav,ñu,mi,go,sil,te,su,fe,sil1,me,cha,sil2,['catch'],[1.8740000000000236],[1.8740000000000236],1.332,no_beat,0.5420000000000236,0.5420000000000236,"[""space""]",fe,2,testConjL3Syn//dep_viol.r2.s2.0.wav,4.0,conjunction_syn,syncopated,b,s2,no_rule,dep,L3,z,1.151,6.0,0.0,1.772,3.0,2.0,catalán,0.0,castellano,0.0,inglés,5.0,4.0,5.0,yes,no,yes,canto,12,,,"ningun problema ni distracción, todo bien y siguiendo las instrucciones",73.0,yes
87,2024-05-06_15h18.40.260,Experiment4_uns,s172,23.0,feminino,right,españa,"catalán y castellano
",Master degree,no,no,B,1,when,L2,unsyncopated,when,when,87,Online_whenL2//b.fe20.1332.wav,cha,ño,du,sil,si,me,fe,sil1,te,mi,sil2,['catch'],[1.870999999999981],[1.870999999999981],1.332,no_beat,0.5389999999999808,0.5389999999999808,"[""space""]",fe,2,testConjL3Syn//dep_viol.r1.s1.0.wav,4.0,conjunction_syn,syncopated,a,s1,no_rule,dep,L3,z,0.885,6.0,0.0,0.403,3.0,2.0,catalán,0.0,castellano,0.0,inglés,5.0,4.0,5.0,yes,no,yes,canto,12,,,"ningun problema ni distracción, todo bien y siguiendo las instrucciones",73.0,yes
88,2024-05-06_15h18.40.260,Experiment4_uns,s172,23.0,feminino,right,españa,"catalán y castellano
",Master degree,no,no,B,1,when,L2,unsyncopated,when,when,88,Online_whenL2//a.du11.1998.wav,me,te,go,sil,mi,ñu,si,sil1,bi,du,sil2,['catch'],[2.4569999999999936],[2.4569999999999936],1.998,no_beat,0.4589999999999936,0.4589999999999936,"[""space""]",du,1,testConjL3Syn//cat_viol.r2.s2.0.wav,4.0,conjunction_syn,syncopated,b,s2,no_rule,cat,L3,z,0.816,5.0,0.0,0.967,3.0,2.0,catalán,0.0,castellano,0.0,inglés,5.0,4.0,5.0,yes,no,yes,canto,12,,,"ningun problema ni distracción, todo bien y siguiendo las instrucciones",73.0,yes
89,2024-05-06_15h18.40.260,Experiment4_uns,s172,23.0,feminino,right,españa,"catalán y castellano
",Master degree,no,no,B,1,when,L2,unsyncopated,when,when,89,Online_whenL2//a.du10.none.wav,cha,ño,to,sil,ra,bi,fe,sil1,ba,mi,sil2,['-'],,,none,none,,,,du,1,testConjL3Syn//cat_viol.r1.s2.0.wav,4.0,conjunction_syn,syncopated,a,s2,no_rule,cat,L3,z,0.803,7.0,0.0,0.99,3.0,2.0,catalán,0.0,castellano,0.0,inglés,5.0,4.0,5.0,yes,no,yes,canto,12,,,"ningun problema ni distracción, todo bien y siguiendo las instrucciones",73.0,yes
90,2024-05-06_15h18.40.260,Experiment4_uns,s172,23.0,feminino,right,españa,"catalán y castellano
",Master degree,no,no,B,1,when,L2,unsyncopated,when,when,90,Online_whenL2//a.du8.none.wav,ño,su,to,sil,go,te,bi,sil1,ra,si,sil2,['-'],,,none,none,,,,du,1,testConjL3Syn//r1.s2.0.wav,4.0,conjunction_syn,syncopated,a,s2,rule,rule,L3,m,3.024,6.0,0.0,0.378,3.0,2.0,catalán,0.0,castellano,0.0,inglés,5.0,4.0,5.0,yes,no,yes,canto,12,,,"ningun problema ni distracción, todo bien y siguiendo las instrucciones",73.0,yes
91,2024-05-06_15h18.40.260,Experiment4_uns,s172,23.0,feminino,right,españa,"catalán y castellano
",Master degree,no,no,B,1,when,L2,unsyncopated,when,when,91,Online_whenL2//a.du9.1332.wav,bi,cha,su,sil,ñu,ba,du,sil1,ra,me,sil2,['catch'],[1.8549999999999045],[1.8549999999999045],1.332,no_beat,0.5229999999999044,0.5229999999999044,"[""space""]",du,1,testConjL3Syn//cat_viol.r1.s1.0.wav,4.0,conjunction_syn,syncopated,a,s1,no_rule,cat,L3,z,3.238,7.0,0.0,1.053,3.0,2.0,catalán,0.0,castellano,0.0,inglés,5.0,4.0,5.0,yes,no,yes,canto,12,,,"ningun problema ni distracción, todo bien y siguiendo las instrucciones",73.0,yes
92,2024-05-06_15h18.40.260,Experiment4_uns,s172,23.0,feminino,right,españa,"catalán y castellano
",Master degree,no,no,B,1,when,L2,unsyncopated,when,when,92,Online_whenL2//b.fe12.none.wav,su,si,te,sil,cha,go,ñu,sil1,to,du,sil2,['-'],,,none,none,,,,fe,2,testConjL3Syn//r2.s2.0.wav,4.0,conjunction_syn,syncopated,b,s2,rule,rule,L3,z,1.059,6.0,1.0,0.307,3.0,2.0,catalán,0.0,castellano,0.0,inglés,5.0,4.0,5.0,yes,no,yes,canto,12,,,"ningun problema ni distracción, todo bien y siguiendo las instrucciones",73.0,yes
93,2024-05-06_15h18.40.260,Experiment4_uns,s172,23.0,feminino,right,españa,"catalán y castellano
",Master degree,no,no,B,1,when,L2,unsyncopated,when,when,93,Online_whenL2//b.fe13.none.wav,te,su,ra,sil,si,go,ba,sil1,me,mi,sil2,['-'],,,none,none,,,,fe,2,testConjL3Syn//r2.s1.1.wav,4.0,conjunction_syn,syncopated,b,s1,rule,rule,L3,m,1.841,5.0,0.0,0.343,3.0,2.0,catalán,0.0,castellano,0.0,inglés,5.0,4.0,5.0,yes,no,yes,canto,12,,,"ningun problema ni distracción, todo bien y siguiendo las instrucciones",73.0,yes
94,2024-05-06_15h18.40.260,Experiment4_uns,s172,23.0,feminino,right,españa,"catalán y castellano
",Master degree,no,no,B,1,when,L2,unsyncopated,when,when,94,Online_whenL2//b.fe15.none.wav,ño,su,to,sil,du,me,go,sil1,cha,mi,sil2,['-'],,,none,none,,,,fe,2,testConjL3Syn//r2.s1.2.wav,4.0,conjunction_syn,syncopated,b,s1,rule,rule,L3,z,0.985,7.0,1.0,1.735,3.0,2.0,catalán,0.0,castellano,0.0,inglés,5.0,4.0,5.0,yes,no,yes,canto,12,,,"ningun problema ni distracción, todo bien y siguiendo las instrucciones",73.0,yes
95,2024-05-06_15h18.40.260,Experiment4_uns,s172,23.0,feminino,right,españa,"catalán y castellano
",Master degree,no,no,B,1,when,L2,unsyncopated,when,when,95,Online_whenL2//b.fe14.none.wav,ra,du,ba,sil,to,bi,su,sil1,te,ñu,sil2,['-'],,,none,none,,,,fe,2,testConjL3Syn//time_viol.r1.s1.0.wav,4.0,conjunction_syn,syncopated,a,s1,no_rule,time,L3,m,1.752,4.0,1.0,0.702,3.0,2.0,catalán,0.0,castellano,0.0,inglés,5.0,4.0,5.0,yes,no,yes,canto,12,,,"ningun problema ni distracción, todo bien y siguiendo las instrucciones",73.0,yes
96,2024-05-06_15h18.40.260,Experiment4_uns,s172,23.0,feminino,right,españa,"catalán y castellano
",Master degree,no,no,B,1,when,L2,unsyncopated,when,when,96,Online_whenL2//d.si7.none.wav,go,cha,te,sil,fe,ñu,ba,sil1,mi,to,sil2,['-'],,,none,none,,,,si,4,,,,,,,,,,,,,,,3.0,2.0,catalán,0.0,castellano,0.0,inglés,5.0,4.0,5.0,yes,no,yes,canto,12,,,"ningun problema ni distracción, todo bien y siguiendo las instrucciones",73.0,yes
97,2024-05-06_15h18.40.260,Experiment4_uns,s172,23.0,feminino,right,españa,"catalán y castellano
",Master degree,no,no,B,1,when,L2,unsyncopated,when,when,97,Online_whenL2//d.si5.1332.wav,to,fe,ra,sil,me,cha,si,sil1,su,te,sil2,['catch'],[1.955000000000041],[1.955000000000041],1.332,no_beat,0.6230000000000409,0.6230000000000409,"[""space""]",si,4,,,,,,,,,,,,,,,3.0,2.0,catalán,0.0,castellano,0.0,inglés,5.0,4.0,5.0,yes,no,yes,canto,12,,,"ningun problema ni distracción, todo bien y siguiendo las instrucciones",73.0,yes
98,2024-05-06_15h18.40.260,Experiment4_uns,s172,23.0,feminino,right,españa,"catalán y castellano
",Master degree,no,no,B,1,when,L2,unsyncopated,when,when,98,Online_whenL2//d.si4.444.wav,to,ra,si,sil,me,ñu,go,sil1,ño,mi,sil2,['catch'],[1.02699999999993],[1.02699999999993],0.444,no_beat,0.58299999999993,0.58299999999993,"[""space""]",si,4,,,,,,,,,,,,,,,3.0,2.0,catalán,0.0,castellano,0.0,inglés,5.0,4.0,5.0,yes,no,yes,canto,12,,,"ningun problema ni distracción, todo bien y siguiendo las instrucciones",73.0,yes
99,2024-05-06_15h18.40.260,Experiment4_uns,s172,23.0,feminino,right,españa,"catalán y castellano
",Master degree,no,no,B,1,when,L2,unsyncopated,when,when,99,Online_whenL2//d.si6.1776.wav,te,cha,du,sil,fe,ño,me,sil1,si,bi,sil2,['catch'],[2.2549999999999955],[2.2549999999999955],1.776,beat,0.4789999999999954,0.4789999999999954,"[""space""]",si,4,,,,,,,,,,,,,,,3.0,2.0,catalán,0.0,castellano,0.0,inglés,5.0,4.0,5.0,yes,no,yes,canto,12,,,"ningun problema ni distracción, todo bien y siguiendo las instrucciones",73.0,yes
100,2024-05-06_15h18.40.260,Experiment4_uns,s172,23.0,feminino,right,españa,"catalán y castellano
",Master degree,no,no,B,1,when,L2,unsyncopated,when,when,100,Online_whenL2//d.si8.none.wav,ñu,su,fe,sil,ra,ño,me,sil1,cha,mi,sil2,['-'],,,none,none,,,,si,4,,,,,,,,,,,,,,,3.0,2.0,catalán,0.0,castellano,0.0,inglés,5.0,4.0,5.0,yes,no,yes,canto,12,,,"ningun problema ni distracción, todo bien y siguiendo las instrucciones",73.0,yes
101,2024-05-06_15h18.40.260,Experiment4_uns,s172,23.0,feminino,right,españa,"catalán y castellano
",Master degree,no,no,B,1,when,L2,unsyncopated,when,when,101,Online_whenL2//d.si11.none.wav,to,mi,me,sil,ra,ñu,cha,sil1,su,du,sil2,['-'],,,none,none,,,,si,4,,,,,,,,,,,,,,,3.0,2.0,catalán,0.0,castellano,0.0,inglés,5.0,4.0,5.0,yes,no,yes,canto,12,,,"ningun problema ni distracción, todo bien y siguiendo las instrucciones",73.0,yes
102,2024-05-06_15h18.40.260,Experiment4_uns,s172,23.0,feminino,right,españa,"catalán y castellano
",Master degree,no,no,B,1,when,L2,unsyncopated,when,when,102,Online_whenL2//d.si9.none.wav,du,su,to,sil,ba,ra,mi,sil1,te,ño,sil2,['-'],,,none,none,,,,si,4,,,,,,,,,,,,,,,3.0,2.0,catalán,0.0,castellano,0.0,inglés,5.0,4.0,5.0,yes,no,yes,canto,12,,,"ningun problema ni distracción, todo bien y siguiendo las instrucciones",73.0,yes
103,2024-05-06_15h18.40.260,Experiment4_uns,s172,23.0,feminino,right,españa,"catalán y castellano
",Master degree,no,no,B,1,when,L2,unsyncopated,when,when,103,Online_whenL2//d.si10.none.wav,to,bi,fe,sil,me,mi,ra,sil1,ba,cha,sil2,['-'],,,none,none,,,,si,4,,,,,,,,,,,,,,,3.0,2.0,catalán,0.0,castellano,0.0,inglés,5.0,4.0,5.0,yes,no,yes,canto,12,,,"ningun problema ni distracción, todo bien y siguiendo las instrucciones",73.0,yes
104,2024-05-06_15h18.40.260,Experiment4_uns,s172,23.0,feminino,right,españa,"catalán y castellano
",Master degree,no,no,B,1,when,L2,unsyncopated,when,when,104,Online_whenL2//b.fe11.1332.wav,ba,bi,go,sil,su,mi,fe,sil1,si,me,sil2,['catch'],[2.033999999999992],[2.033999999999992],1.332,no_beat,0.7019999999999917,0.7019999999999917,"[""space""]",fe,2,,,,,,,,,,,,,,,3.0,2.0,catalán,0.0,castellano,0.0,inglés,5.0,4.0,5.0,yes,no,yes,canto,12,,,"ningun problema ni distracción, todo bien y siguiendo las instrucciones",73.0,yes
105,2024-05-06_15h18.40.260,Experiment4_uns,s172,23.0,feminino,right,españa,"catalán y castellano
",Master degree,no,no,B,1,when,L2,unsyncopated,when,when,105,Online_whenL2//b.fe10.none.wav,to,du,su,sil,mi,ño,ba,sil1,bi,ra,sil2,['-'],,,none,none,,,,fe,2,,,,,,,,,,,,,,,3.0,2.0,catalán,0.0,castellano,0.0,inglés,5.0,4.0,5.0,yes,no,yes,canto,12,,,"ningun problema ni distracción, todo bien y siguiendo las instrucciones",73.0,yes
106,2024-05-06_15h18.40.260,Experiment4_uns,s172,23.0,feminino,right,españa,"catalán y castellano
",Master degree,no,no,B,1,when,L2,unsyncopated,when,when,106,Online_whenL2//b.fe8.none.wav,su,to,go,sil,mi,ra,si,sil1,ba,ñu,sil2,['-'],,,none,none,,,,fe,2,,,,,,,,,,,,,,,3.0,2.0,catalán,0.0,castellano,0.0,inglés,5.0,4.0,5.0,yes,no,yes,canto,12,,,"ningun problema ni distracción, todo bien y siguiendo las instrucciones",73.0,yes
107,2024-05-06_15h18.40.260,Experiment4_uns,s172,23.0,feminino,right,españa,"catalán y castellano
",Master degree,no,no,B,1,when,L2,unsyncopated,when,when,107,Online_whenL2//b.fe9.none.wav,du,ñu,su,sil,te,to,go,sil1,ño,me,sil2,['-'],,,none,none,,,,fe,2,,,,,,,,,,,,,,,3.0,2.0,catalán,0.0,castellano,0.0,inglés,5.0,4.0,5.0,yes,no,yes,canto,12,,,"ningun problema ni distracción, todo bien y siguiendo las instrucciones",73.0,yes
108,2024-05-06_15h18.40.260,Experiment4_uns,s172,23.0,feminino,right,españa,"catalán y castellano
",Master degree,no,no,B,1,when,L2,unsyncopated,when,when,108,Online_whenL2//a.du18.none.wav,go,fe,te,sil,si,cha,ba,sil1,ño,to,sil2,['-'],,,none,none,,,,du,1,,,,,,,,,,,,,,,3.0,2.0,catalán,0.0,castellano,0.0,inglés,5.0,4.0,5.0,yes,no,yes,canto,12,,,"ningun problema ni distracción, todo bien y siguiendo las instrucciones",73.0,yes
109,2024-05-06_15h18.40.260,Experiment4_uns,s172,23.0,feminino,right,españa,"catalán y castellano
",Master degree,no,no,B,1,when,L2,unsyncopated,when,when,109,Online_whenL2//a.du17.none.wav,ra,go,su,sil,me,si,cha,sil1,bi,te,sil2,['-'],,,none,none,,,,du,1,,,,,,,,,,,,,,,3.0,2.0,catalán,0.0,castellano,0.0,inglés,5.0,4.0,5.0,yes,no,yes,canto,12,,,"ningun problema ni distracción, todo bien y siguiendo las instrucciones",73.0,yes
110,2024-05-06_15h18.40.260,Experiment4_uns,s172,23.0,feminino,right,españa,"catalán y castellano
",Master degree,no,no,B,1,when,L2,unsyncopated,when,when,110,Online_whenL2//a.du19.none.wav,su,ñu,to,sil,bi,fe,me,sil1,ño,go,sil2,['-'],,,none,none,,,,du,1,,,,,,,,,,,,,,,3.0,2.0,catalán,0.0,castellano,0.0,inglés,5.0,4.0,5.0,yes,no,yes,canto,12,,,"ningun problema ni distracción, todo bien y siguiendo las instrucciones",73.0,yes
111,2024-05-06_15h18.40.260,Experiment4_uns,s172,23.0,feminino,right,españa,"catalán y castellano
",Master degree,no,no,B,1,when,L2,unsyncopated,when,when,111,Online_whenL2//a.du16.none.wav,ñu,te,to,sil,su,me,si,sil1,ra,fe,sil2,['-'],,,none,none,,,,du,1,,,,,,,,,,,,,,,3.0,2.0,catalán,0.0,castellano,0.0,inglés,5.0,4.0,5.0,yes,no,yes,canto,12,,,"ningun problema ni distracción, todo bien y siguiendo las instrucciones",73.0,yes
112,2024-05-06_15h18.40.260,Experiment4_uns,s172,23.0,feminino,right,españa,"catalán y castellano
",Master degree,no,no,B,1,when,L2,unsyncopated,when,when,112,Online_whenL2//d.si20.1998.wav,ba,mi,ñu,sil,cha,to,go,sil1,ra,si,sil2,['catch'],[2.5149999999999864],[2.5149999999999864],1.998,no_beat,0.5169999999999864,0.5169999999999864,"[""space""]",si,4,,,,,,,,,,,,,,,3.0,2.0,catalán,0.0,castellano,0.0,inglés,5.0,4.0,5.0,yes,no,yes,canto,12,,,"ningun problema ni distracción, todo bien y siguiendo las instrucciones",73.0,yes
113,2024-05-06_15h18.40.260,Experiment4_uns,s172,23.0,feminino,right,españa,"catalán y castellano
",Master degree,no,no,B,1,when,L2,unsyncopated,when,when,113,Online_whenL2//d.si21.none.wav,te,me,bi,sil,go,ñu,to,sil1,ra,ño,sil2,['-'],,,none,none,,,,si,4,,,,,,,,,,,,,,,3.0,2.0,catalán,0.0,castellano,0.0,inglés,5.0,4.0,5.0,yes,no,yes,canto,12,,,"ningun problema ni distracción, todo bien y siguiendo las instrucciones",73.0,yes
114,2024-05-06_15h18.40.260,Experiment4_uns,s172,23.0,feminino,right,españa,"catalán y castellano
",Master degree,no,no,B,1,when,L2,unsyncopated,when,when,114,Online_whenL2//d.si23.none.wav,to,mi,ba,sil,go,du,ñu,sil1,te,ño,sil2,['-'],,,none,none,,,,si,4,,,,,,,,,,,,,,,3.0,2.0,catalán,0.0,castellano,0.0,inglés,5.0,4.0,5.0,yes,no,yes,canto,12,,,"ningun problema ni distracción, todo bien y siguiendo las instrucciones",73.0,yes
115,2024-05-06_15h18.40.260,Experiment4_uns,s172,23.0,feminino,right,españa,"catalán y castellano
",Master degree,no,no,B,1,when,L2,unsyncopated,when,when,115,Online_whenL2//d.si22.none.wav,te,du,fe,sil,cha,su,ñu,sil1,me,ba,sil2,['-'],,,none,none,,,,si,4,,,,,,,,,,,,,,,3.0,2.0,catalán,0.0,castellano,0.0,inglés,5.0,4.0,5.0,yes,no,yes,canto,12,,,"ningun problema ni distracción, todo bien y siguiendo las instrucciones",73.0,yes
116,2024-05-06_15h18.40.260,Experiment4_uns,s172,23.0,feminino,right,españa,"catalán y castellano
",Master degree,no,no,B,1,when,L2,unsyncopated,when,when,116,Online_whenL2//c.cha17.none.wav,te,ñu,su,sil,mi,go,me,sil1,ra,si,sil2,['-'],,,none,none,,,,cha,3,,,,,,,,,,,,,,,3.0,2.0,catalán,0.0,castellano,0.0,inglés,5.0,4.0,5.0,yes,no,yes,canto,12,,,"ningun problema ni distracción, todo bien y siguiendo las instrucciones",73.0,yes
117,2024-05-06_15h18.40.260,Experiment4_uns,s172,23.0,feminino,right,españa,"catalán y castellano
",Master degree,no,no,B,1,when,L2,unsyncopated,when,when,117,Online_whenL2//c.cha16.none.wav,te,su,to,sil,du,ra,me,sil1,si,mi,sil2,['-'],,,none,none,,,,cha,3,,,,,,,,,,,,,,,3.0,2.0,catalán,0.0,castellano,0.0,inglés,5.0,4.0,5.0,yes,no,yes,canto,12,,,"ningun problema ni distracción, todo bien y siguiendo las instrucciones",73.0,yes
118,2024-05-06_15h18.40.260,Experiment4_uns,s172,23.0,feminino,right,españa,"catalán y castellano
",Master degree,no,no,B,1,when,L2,unsyncopated,when,when,118,Online_whenL2//c.cha19.1998.wav,go,si,du,sil,ñu,to,ba,sil1,te,cha,sil2,['catch'],[2.5049999999999955],[2.5049999999999955],1.998,no_beat,0.5069999999999955,0.5069999999999955,"[""space""]",cha,3,,,,,,,,,,,,,,,3.0,2.0,catalán,0.0,castellano,0.0,inglés,5.0,4.0,5.0,yes,no,yes,canto,12,,,"ningun problema ni distracción, todo bien y siguiendo las instrucciones",73.0,yes
119,2024-05-06_15h18.40.260,Experiment4_uns,s172,23.0,feminino,right,españa,"catalán y castellano
",Master degree,no,no,B,1,when,L2,unsyncopated,when,when,119,Online_whenL2//c.cha18.1776.wav,ra,ñu,ño,sil,si,to,te,sil1,cha,du,sil2,['catch'],[2.3110000000000355],[2.3110000000000355],1.776,beat,0.5350000000000354,0.5350000000000354,"[""space""]",cha,3,,,,,,,,,,,,,,,3.0,2.0,catalán,0.0,castellano,0.0,inglés,5.0,4.0,5.0,yes,no,yes,canto,12,,,"ningun problema ni distracción, todo bien y siguiendo las instrucciones",73.0,yes
120,2024-05-06_15h18.40.260,Experiment4_uns,s172,23.0,feminino,right,españa,"catalán y castellano
",Master degree,no,no,B,1,when,L2,unsyncopated,when,when,120,Online_whenL2//a.du6.888.wav,me,si,bi,sil,du,mi,cha,sil1,te,fe,sil2,['catch'],[1.8039999999999736],[1.8039999999999736],0.888,beat,0.9159999999999736,0.9159999999999736,"[""space""]",du,1,,,,,,,,,,,,,,,3.0,2.0,catalán,0.0,castellano,0.0,inglés,5.0,4.0,5.0,yes,no,yes,canto,12,,,"ningun problema ni distracción, todo bien y siguiendo las instrucciones",73.0,yes
121,2024-05-06_15h18.40.260,Experiment4_uns,s172,23.0,feminino,right,españa,"catalán y castellano
",Master degree,no,no,B,1,when,L2,unsyncopated,when,when,121,Online_whenL2//a.du7.0.wav,du,ño,te,sil,ñu,to,mi,sil1,su,fe,sil2,['catch'],[0.6309999999999718],[0.6309999999999718],0.0,beat,0.6309999999999718,0.6309999999999718,"[""space""]",du,1,,,,,,,,,,,,,,,3.0,2.0,catalán,0.0,castellano,0.0,inglés,5.0,4.0,5.0,yes,no,yes,canto,12,,,"ningun problema ni distracción, todo bien y siguiendo las instrucciones",73.0,yes
122,2024-05-06_15h18.40.260,Experiment4_uns,s172,23.0,feminino,right,españa,"catalán y castellano
",Master degree,no,no,B,1,when,L2,unsyncopated,when,when,122,Online_whenL2//a.du5.1110.wav,bi,ño,ra,sil,ba,du,mi,sil1,to,ñu,sil2,['catch'],[1.6920000000000073],[1.6920000000000073],1.11,no_beat,0.5820000000000072,0.5820000000000072,"[""space""]",du,1,,,,,,,,,,,,,,,3.0,2.0,catalán,0.0,castellano,0.0,inglés,5.0,4.0,5.0,yes,no,yes,canto,12,,,"ningun problema ni distracción, todo bien y siguiendo las instrucciones",73.0,yes
123,2024-05-06_15h18.40.260,Experiment4_uns,s172,23.0,feminino,right,españa,"catalán y castellano
",Master degree,no,no,B,1,when,L2,unsyncopated,when,when,123,Online_whenL2//a.du4.1998.wav,cha,si,go,sil,mi,ñu,me,sil1,su,du,sil2,"['false alarm', 'catch']","[0.15299999999990632, 2.56899999999996]",[2.56899999999996],1.998,no_beat,0.57099999999996,0.57099999999996,"[""space"",""space""]",du,1,,,,,,,,,,,,,,,3.0,2.0,catalán,0.0,castellano,0.0,inglés,5.0,4.0,5.0,yes,no,yes,canto,12,,,"ningun problema ni distracción, todo bien y siguiendo las instrucciones",73.0,yes
124,2024-05-06_15h18.40.260,Experiment4_uns,s172,23.0,feminino,right,españa,"catalán y castellano
",Master degree,no,no,B,1,when,L2,unsyncopated,when,when,124,Online_whenL2//d.si17.none.wav,mi,su,to,sil,go,ño,du,sil1,cha,ñu,sil2,['-'],,,none,none,,,,si,4,,,,,,,,,,,,,,,3.0,2.0,catalán,0.0,castellano,0.0,inglés,5.0,4.0,5.0,yes,no,yes,canto,12,,,"ningun problema ni distracción, todo bien y siguiendo las instrucciones",73.0,yes
125,2024-05-06_15h18.40.260,Experiment4_uns,s172,23.0,feminino,right,españa,"catalán y castellano
",Master degree,no,no,B,1,when,L2,unsyncopated,when,when,125,Online_whenL2//d.si18.222.wav,ñu,si,bi,sil,cha,du,me,sil1,fe,ño,sil2,['catch'],[0.6209999999999809],[0.6209999999999809],0.222,no_beat,0.3989999999999809,0.3989999999999809,"[""space""]",si,4,,,,,,,,,,,,,,,3.0,2.0,catalán,0.0,castellano,0.0,inglés,5.0,4.0,5.0,yes,no,yes,canto,12,,,"ningun problema ni distracción, todo bien y siguiendo las instrucciones",73.0,yes
126,2024-05-06_15h18.40.260,Experiment4_uns,s172,23.0,feminino,right,españa,"catalán y castellano
",Master degree,no,no,B,1,when,L2,unsyncopated,when,when,126,Online_whenL2//d.si16.none.wav,su,fe,mi,sil,ño,te,me,sil1,du,ba,sil2,['-'],,,none,none,,,,si,4,,,,,,,,,,,,,,,3.0,2.0,catalán,0.0,castellano,0.0,inglés,5.0,4.0,5.0,yes,no,yes,canto,12,,,"ningun problema ni distracción, todo bien y siguiendo las instrucciones",73.0,yes
127,2024-05-06_15h18.40.260,Experiment4_uns,s172,23.0,feminino,right,españa,"catalán y castellano
",Master degree,no,no,B,1,when,L2,unsyncopated,when,when,127,Online_whenL2//d.si19.none.wav,bi,mi,su,sil,me,cha,du,sil1,fe,te,sil2,['-'],,,none,none,,,,si,4,,,,,,,,,,,,,,,3.0,2.0,catalán,0.0,castellano,0.0,inglés,5.0,4.0,5.0,yes,no,yes,canto,12,,,"ningun problema ni distracción, todo bien y siguiendo las instrucciones",73.0,yes
128,2024-05-06_15h18.40.260,Experiment4_uns,s172,23.0,feminino,right,españa,"catalán y castellano
",Master degree,no,no,B,1,when,L2,unsyncopated,when,when,128,Online_whenL2//c.cha24.444.wav,me,bi,cha,sil,su,ra,ño,sil1,to,fe,sil2,['catch'],[0.9720000000000937],[0.9720000000000937],0.444,no_beat,0.5280000000000937,0.5280000000000937,"[""space""]",cha,3,,,,,,,,,,,,,,,3.0,2.0,catalán,0.0,castellano,0.0,inglés,5.0,4.0,5.0,yes,no,yes,canto,12,,,"ningun problema ni distracción, todo bien y siguiendo las instrucciones",73.0,yes
129,2024-05-06_15h18.40.260,Experiment4_uns,s172,23.0,feminino,right,españa,"catalán y castellano
",Master degree,no,no,B,1,when,L2,unsyncopated,when,when,129,Online_whenL2//c.cha26.0.wav,cha,to,ra,sil,go,ñu,ba,sil1,bi,te,sil2,['catch'],[0.6430000000000291],[0.6430000000000291],0.0,beat,0.6430000000000291,0.6430000000000291,"[""space""]",cha,3,,,,,,,,,,,,,,,3.0,2.0,catalán,0.0,castellano,0.0,inglés,5.0,4.0,5.0,yes,no,yes,canto,12,,,"ningun problema ni distracción, todo bien y siguiendo las instrucciones",73.0,yes
130,2024-05-06_15h18.40.260,Experiment4_uns,s172,23.0,feminino,right,españa,"catalán y castellano
",Master degree,no,no,B,1,when,L2,unsyncopated,when,when,130,Online_whenL2//c.cha27.none.wav,bi,fe,mi,sil,te,ra,ño,sil1,to,ñu,sil2,['-'],,,none,none,,,,cha,3,,,,,,,,,,,,,,,3.0,2.0,catalán,0.0,castellano,0.0,inglés,5.0,4.0,5.0,yes,no,yes,canto,12,,,"ningun problema ni distracción, todo bien y siguiendo las instrucciones",73.0,yes
131,2024-05-06_15h18.40.260,Experiment4_uns,s172,23.0,feminino,right,españa,"catalán y castellano
",Master degree,no,no,B,1,when,L2,unsyncopated,when,when,131,Online_whenL2//c.cha25.888.wav,fe,ño,su,sil,cha,te,bi,sil1,me,ra,sil2,['miss'],,,0.888,beat,,,,cha,3,,,,,,,,,,,,,,,3.0,2.0,catalán,0.0,castellano,0.0,inglés,5.0,4.0,5.0,yes,no,yes,canto,12,,,"ningun problema ni distracción, todo bien y siguiendo las instrucciones",73.0,yes
132,2024-05-06_15h18.40.260,Experiment4_uns,s172,23.0,feminino,right,españa,"catalán y castellano
",Master degree,no,no,B,1,when,L2,unsyncopated,when,when,132,Online_whenL2//d.si3.444.wav,bi,su,si,sil,go,mi,ba,sil1,ñu,du,sil2,['catch'],[0.8729999999999336],[0.8729999999999336],0.444,no_beat,0.4289999999999336,0.4289999999999336,"[""space""]",si,4,,,,,,,,,,,,,,,3.0,2.0,catalán,0.0,castellano,0.0,inglés,5.0,4.0,5.0,yes,no,yes,canto,12,,,"ningun problema ni distracción, todo bien y siguiendo las instrucciones",73.0,yes
133,2024-05-06_15h18.40.260,Experiment4_uns,s172,23.0,feminino,right,españa,"catalán y castellano
",Master degree,no,no,B,1,when,L2,unsyncopated,when,when,133,Online_whenL2//d.si0.none.wav,ño,fe,go,sil,bi,te,cha,sil1,mi,to,sil2,['-'],,,none,none,,,,si,4,,,,,,,,,,,,,,,3.0,2.0,catalán,0.0,castellano,0.0,inglés,5.0,4.0,5.0,yes,no,yes,canto,12,,,"ningun problema ni distracción, todo bien y siguiendo las instrucciones",73.0,yes
134,2024-05-06_15h18.40.260,Experiment4_uns,s172,23.0,feminino,right,españa,"catalán y castellano
",Master degree,no,no,B,1,when,L2,unsyncopated,when,when,134,Online_whenL2//d.si1.444.wav,ra,cha,si,sil,te,du,mi,sil1,su,bi,sil2,['catch'],[0.9549999999999272],[0.9549999999999272],0.444,no_beat,0.5109999999999273,0.5109999999999273,"[""space""]",si,4,,,,,,,,,,,,,,,3.0,2.0,catalán,0.0,castellano,0.0,inglés,5.0,4.0,5.0,yes,no,yes,canto,12,,,"ningun problema ni distracción, todo bien y siguiendo las instrucciones",73.0,yes
135,2024-05-06_15h18.40.260,Experiment4_uns,s172,23.0,feminino,right,españa,"catalán y castellano
",Master degree,no,no,B,1,when,L2,unsyncopated,when,when,135,Online_whenL2//d.si2.0.wav,si,me,fe,sil,to,ba,ñu,sil1,su,ra,sil2,['catch'],[0.6169999999999618],[0.6169999999999618],0.0,beat,0.6169999999999618,0.6169999999999618,"[""space""]",si,4,,,,,,,,,,,,,,,3.0,2.0,catalán,0.0,castellano,0.0,inglés,5.0,4.0,5.0,yes,no,yes,canto,12,,,"ningun problema ni distracción, todo bien y siguiendo las instrucciones",73.0,yes
136,2024-05-06_15h18.40.260,Experiment4_uns,s172,23.0,feminino,right,españa,"catalán y castellano
",Master degree,no,no,B,2,conjunction_un,L4,unsyncopated,s2,r1,0,Online_conjL4_un//c.bu.da17.none.none.wav,ru,de,re,sil,zi,ci,po,sil1,lo,pe,sil2,['-'],,,none,none,,,,da,3,,,,,,,,,,,,,,,3.0,2.0,catalán,0.0,castellano,0.0,inglés,5.0,4.0,5.0,yes,no,yes,canto,12,,,"ningun problema ni distracción, todo bien y siguiendo las instrucciones",73.0,yes
137,2024-05-06_15h18.40.260,Experiment4_uns,s172,23.0,feminino,right,españa,"catalán y castellano
",Master degree,no,no,B,2,conjunction_un,L4,unsyncopated,s2,r1,1,Online_conjL4_un//c.bu.da19.none.none.wav,ña,ru,pe,sil,zi,re,ñi,sil1,lo,de,sil2,['-'],,,none,none,,,,da,3,,,,,,,,,,,,,,,3.0,2.0,catalán,0.0,castellano,0.0,inglés,5.0,4.0,5.0,yes,no,yes,canto,12,,,"ningun problema ni distracción, todo bien y siguiendo las instrucciones",73.0,yes
138,2024-05-06_15h18.40.260,Experiment4_uns,s172,23.0,feminino,right,españa,"catalán y castellano
",Master degree,no,no,B,2,conjunction_un,L4,unsyncopated,s1,r2,2,Online_conjL4_un//c.bu.da18.1110.222.wav,ja,da,re,sil,nu,bu,ru,sil1,bo,pe,sil2,['miss'],,,0.222,no_beat,,,,da,3,,,,,,,,,,,,,,,3.0,2.0,catalán,0.0,castellano,0.0,inglés,5.0,4.0,5.0,yes,no,yes,canto,12,,,"ningun problema ni distracción, todo bien y siguiendo las instrucciones",73.0,yes
139,2024-05-06_15h18.40.260,Experiment4_uns,s172,23.0,feminino,right,españa,"catalán y castellano
",Master degree,no,no,B,2,conjunction_un,L4,unsyncopated,s1,r2,3,Online_conjL4_un//c.bu.da16.none.none.wav,ja,de,ñi,sil,nu,pe,ru,sil1,re,ci,sil2,['-'],,,none,none,,,,da,3,,,,,,,,,,,,,,,3.0,2.0,catalán,0.0,castellano,0.0,inglés,5.0,4.0,5.0,yes,no,yes,canto,12,,,"ningun problema ni distracción, todo bien y siguiendo las instrucciones",73.0,yes
140,2024-05-06_15h18.40.260,Experiment4_uns,s172,23.0,feminino,right,españa,"catalán y castellano
",Master degree,no,no,B,2,conjunction_un,L4,unsyncopated,s1,r2,4,Online_conjL4_un//d.pe.po30.1776.1110.wav,ja,ñi,ru,sil,nu,po,ña,sil1,pe,da,sil2,['catch'],[1.887000000000171],[1.887000000000171],1.11,no_beat,0.7770000000001709,0.7770000000001709,"[""space""]",po,4,,,,,,,,,,,,,,,3.0,2.0,catalán,0.0,castellano,0.0,inglés,5.0,4.0,5.0,yes,no,yes,canto,12,,,"ningun problema ni distracción, todo bien y siguiendo las instrucciones",73.0,yes
141,2024-05-06_15h18.40.260,Experiment4_uns,s172,23.0,feminino,right,españa,"catalán y castellano
",Master degree,no,no,B,2,conjunction_un,L4,unsyncopated,s1,r1,5,Online_conjL4_un//d.pe.po28.444.1332.wav,zi,ci,pe,sil,lo,ñi,po,sil1,ña,da,sil2,['catch'],[1.9729999999999563],[1.9729999999999563],1.332,no_beat,0.6409999999999563,0.6409999999999563,"[""space""]",po,4,,,,,,,,,,,,,,,3.0,2.0,catalán,0.0,castellano,0.0,inglés,5.0,4.0,5.0,yes,no,yes,canto,12,,,"ningun problema ni distracción, todo bien y siguiendo las instrucciones",73.0,yes
142,2024-05-06_15h18.40.260,Experiment4_uns,s172,23.0,feminino,right,españa,"catalán y castellano
",Master degree,no,no,B,2,conjunction_un,L4,unsyncopated,s2,r1,6,Online_conjL4_un//d.pe.po29.none.none.wav,bo,ña,bu,sil,zi,ru,ci,sil1,lo,de,sil2,['-'],,,none,none,,,,po,4,,,,,,,,,,,,,,,3.0,2.0,catalán,0.0,castellano,0.0,inglés,5.0,4.0,5.0,yes,no,yes,canto,12,,,"ningun problema ni distracción, todo bien y siguiendo las instrucciones",73.0,yes
143,2024-05-06_15h18.40.260,Experiment4_uns,s172,23.0,feminino,right,españa,"catalán y castellano
",Master degree,no,no,B,2,conjunction_un,L4,unsyncopated,s1,r2,7,Online_conjL4_un//d.pe.po31.none.none.wav,ja,re,ña,sil,nu,bo,ci,sil1,bu,de,sil2,['-'],,,none,none,,,,po,4,,,,,,,,,,,,,,,3.0,2.0,catalán,0.0,castellano,0.0,inglés,5.0,4.0,5.0,yes,no,yes,canto,12,,,"ningun problema ni distracción, todo bien y siguiendo las instrucciones",73.0,yes
144,2024-05-06_15h18.40.260,Experiment4_uns,s172,23.0,feminino,right,españa,"catalán y castellano
",Master degree,no,no,B,2,conjunction_un,L4,unsyncopated,s2,r1,8,Online_conjL4_un//d.pe.po4.0.1110.wav,pe,ru,da,sil,zi,po,ñi,sil1,lo,bu,sil2,['catch'],[2.0179999999998017],[2.0179999999998017],1.11,no_beat,0.9079999999998016,0.9079999999998016,"[""space""]",po,4,,,,,,,,,,,,,,,3.0,2.0,catalán,0.0,castellano,0.0,inglés,5.0,4.0,5.0,yes,no,yes,canto,12,,,"ningun problema ni distracción, todo bien y siguiendo las instrucciones",73.0,yes
145,2024-05-06_15h18.40.260,Experiment4_uns,s172,23.0,feminino,right,españa,"catalán y castellano
",Master degree,no,no,B,2,conjunction_un,L4,unsyncopated,s1,r1,9,Online_conjL4_un//d.pe.po5.none.none.wav,zi,de,re,sil,lo,ru,ci,sil1,bo,bu,sil2,['-'],,,none,none,,,,po,4,,,,,,,,,,,,,,,3.0,2.0,catalán,0.0,castellano,0.0,inglés,5.0,4.0,5.0,yes,no,yes,canto,12,,,"ningun problema ni distracción, todo bien y siguiendo las instrucciones",73.0,yes
146,2024-05-06_15h18.40.260,Experiment4_uns,s172,23.0,feminino,right,españa,"catalán y castellano
",Master degree,no,no,B,2,conjunction_un,L4,unsyncopated,s1,r1,10,Online_conjL4_un//d.pe.po7.1110.222.wav,zi,po,ña,sil,lo,pe,ru,sil1,da,re,sil2,['catch'],[0.6549999999999727],[0.6549999999999727],0.222,no_beat,0.4329999999999727,0.4329999999999727,"[""space""]",po,4,,,,,,,,,,,,,,,3.0,2.0,catalán,0.0,castellano,0.0,inglés,5.0,4.0,5.0,yes,no,yes,canto,12,,,"ningun problema ni distracción, todo bien y siguiendo las instrucciones",73.0,yes
147,2024-05-06_15h18.40.260,Experiment4_uns,s172,23.0,feminino,right,españa,"catalán y castellano
",Master degree,no,no,B,2,conjunction_un,L4,unsyncopated,s1,r2,11,Online_conjL4_un//d.pe.po6.1110.222.wav,ja,po,de,sil,nu,pe,da,sil1,ru,bo,sil2,['catch'],[0.9039999999999964],[0.9039999999999964],0.222,no_beat,0.6819999999999964,0.6819999999999964,"[""space""]",po,4,,,,,,,,,,,,,,,3.0,2.0,catalán,0.0,castellano,0.0,inglés,5.0,4.0,5.0,yes,no,yes,canto,12,,,"ningun problema ni distracción, todo bien y siguiendo las instrucciones",73.0,yes
148,2024-05-06_15h18.40.260,Experiment4_uns,s172,23.0,feminino,right,españa,"catalán y castellano
",Master degree,no,no,B,2,conjunction_un,L4,unsyncopated,s2,r1,12,Online_conjL4_un//c.bu.da5.222.444.wav,po,bu,da,sil,zi,de,ci,sil1,lo,re,sil2,['catch'],[0.8150000000000546],[0.8150000000000546],0.444,no_beat,0.3710000000000545,0.3710000000000545,"[""space""]",da,3,,,,,,,,,,,,,,,3.0,2.0,catalán,0.0,castellano,0.0,inglés,5.0,4.0,5.0,yes,no,yes,canto,12,,,"ningun problema ni distracción, todo bien y siguiendo las instrucciones",73.0,yes
149,2024-05-06_15h18.40.260,Experiment4_uns,s172,23.0,feminino,right,españa,"catalán y castellano
",Master degree,no,no,B,2,conjunction_un,L4,unsyncopated,s1,r1,13,Online_conjL4_un//c.bu.da4.1776.1110.wav,zi,re,bo,sil,lo,da,ru,sil1,bu,de,sil2,['catch'],[1.79099999999994],[1.79099999999994],1.11,no_beat,0.6809999999999399,0.6809999999999399,"[""space""]",da,3,,,,,,,,,,,,,,,3.0,2.0,catalán,0.0,castellano,0.0,inglés,5.0,4.0,5.0,yes,no,yes,canto,12,,,"ningun problema ni distracción, todo bien y siguiendo las instrucciones",73.0,yes
150,2024-05-06_15h18.40.260,Experiment4_uns,s172,23.0,feminino,right,españa,"catalán y castellano
",Master degree,no,no,B,2,conjunction_un,L4,unsyncopated,s1,r2,14,Online_conjL4_un//c.bu.da6.1776.444.wav,ja,ru,da,sil,nu,ñi,ña,sil1,bu,re,sil2,['catch'],[0.9679999999998472],[0.9679999999998472],0.444,no_beat,0.5239999999998473,0.5239999999998473,"[""space""]",da,3,,,,,,,,,,,,,,,3.0,2.0,catalán,0.0,castellano,0.0,inglés,5.0,4.0,5.0,yes,no,yes,canto,12,,,"ningun problema ni distracción, todo bien y siguiendo las instrucciones",73.0,yes
151,2024-05-06_15h18.40.260,Experiment4_uns,s172,23.0,feminino,right,españa,"catalán y castellano
",Master degree,no,no,B,2,conjunction_un,L4,unsyncopated,s1,r1,15,Online_conjL4_un//c.bu.da7.none.none.wav,zi,re,po,sil,lo,bo,ci,sil1,ña,de,sil2,['-'],,,none,none,,,,da,3,,,,,,,,,,,,,,,3.0,2.0,catalán,0.0,castellano,0.0,inglés,5.0,4.0,5.0,yes,no,yes,canto,12,,,"ningun problema ni distracción, todo bien y siguiendo las instrucciones",73.0,yes
152,2024-05-06_15h18.40.260,Experiment4_uns,s172,23.0,feminino,right,españa,"catalán y castellano
",Master degree,no,no,B,2,conjunction_un,L4,unsyncopated,s1,r2,16,Online_conjL4_un//b.ja.nu21.0.888.wav,ja,re,ru,sil,nu,bo,pe,sil1,bu,ña,sil2,['miss'],,,0.888,beat,,,,nu,2,,,,,,,,,,,,,,,3.0,2.0,catalán,0.0,castellano,0.0,inglés,5.0,4.0,5.0,yes,no,yes,canto,12,,,"ningun problema ni distracción, todo bien y siguiendo las instrucciones",73.0,yes
153,2024-05-06_15h18.40.260,Experiment4_uns,s172,23.0,feminino,right,españa,"catalán y castellano
",Master degree,no,no,B,2,conjunction_un,L4,unsyncopated,s1,r1,17,Online_conjL4_un//b.ja.nu22.none.none.wav,zi,ña,ci,sil,lo,bu,da,sil1,de,po,sil2,['-'],,,none,none,,,,nu,2,,,,,,,,,,,,,,,3.0,2.0,catalán,0.0,castellano,0.0,inglés,5.0,4.0,5.0,yes,no,yes,canto,12,,,"ningun problema ni distracción, todo bien y siguiendo las instrucciones",73.0,yes
154,2024-05-06_15h18.40.260,Experiment4_uns,s172,23.0,feminino,right,españa,"catalán y castellano
",Master degree,no,no,B,2,conjunction_un,L4,unsyncopated,s2,r2,18,Online_conjL4_un//b.ja.nu23.888.1776.wav,ci,ña,po,sil,ja,bu,ñi,sil1,nu,pe,sil2,['catch'],[2.405999999999949],[2.405999999999949],1.776,beat,0.629999999999949,0.629999999999949,"[""space""]",nu,2,,,,,,,,,,,,,,,3.0,2.0,catalán,0.0,castellano,0.0,inglés,5.0,4.0,5.0,yes,no,yes,canto,12,,,"ningun problema ni distracción, todo bien y siguiendo las instrucciones",73.0,yes
155,2024-05-06_15h18.40.260,Experiment4_uns,s172,23.0,feminino,right,españa,"catalán y castellano
",Master degree,no,no,B,2,conjunction_un,L4,unsyncopated,s1,r2,19,Online_conjL4_un//b.ja.nu20.0.888.wav,ja,de,ñi,sil,nu,re,bo,sil1,da,po,sil2,['catch'],[1.3940000000000055],[1.3940000000000055],0.888,beat,0.5060000000000054,0.5060000000000054,"[""space""]",nu,2,,,,,,,,,,,,,,,3.0,2.0,catalán,0.0,castellano,0.0,inglés,5.0,4.0,5.0,yes,no,yes,canto,12,,,"ningun problema ni distracción, todo bien y siguiendo las instrucciones",73.0,yes
156,2024-05-06_15h18.40.260,Experiment4_uns,s172,23.0,feminino,right,españa,"catalán y castellano
",Master degree,no,no,B,2,conjunction_un,L4,unsyncopated,s2,r1,20,Online_conjL4_un//c.bu.da25.444.1110.wav,ru,de,bu,sil,zi,da,ñi,sil1,lo,ña,sil2,['miss'],,,1.11,no_beat,,,,da,3,,,,,,,,,,,,,,,3.0,2.0,catalán,0.0,castellano,0.0,inglés,5.0,4.0,5.0,yes,no,yes,canto,12,,,"ningun problema ni distracción, todo bien y siguiendo las instrucciones",73.0,yes
157,2024-05-06_15h18.40.260,Experiment4_uns,s172,23.0,feminino,right,españa,"catalán y castellano
",Master degree,no,no,B,2,conjunction_un,L4,unsyncopated,s1,r2,21,Online_conjL4_un//c.bu.da24.none.none.wav,ja,po,ci,sil,nu,ña,ru,sil1,re,bo,sil2,['-'],,,none,none,,,,da,3,,,,,,,,,,,,,,,3.0,2.0,catalán,0.0,castellano,0.0,inglés,5.0,4.0,5.0,yes,no,yes,canto,12,,,"ningun problema ni distracción, todo bien y siguiendo las instrucciones",73.0,yes
158,2024-05-06_15h18.40.260,Experiment4_uns,s172,23.0,feminino,right,españa,"catalán y castellano
",Master degree,no,no,B,2,conjunction_un,L4,unsyncopated,s1,r1,22,Online_conjL4_un//c.bu.da26.444.1110.wav,zi,po,bu,sil,lo,da,ci,sil1,de,ñi,sil2,['catch'],[1.6210000000000946],[1.6210000000000946],1.11,no_beat,0.5110000000000945,0.5110000000000945,"[""space""]",da,3,,,,,,,,,,,,,,,3.0,2.0,catalán,0.0,castellano,0.0,inglés,5.0,4.0,5.0,yes,no,yes,canto,12,,,"ningun problema ni distracción, todo bien y siguiendo las instrucciones",73.0,yes
159,2024-05-06_15h18.40.260,Experiment4_uns,s172,23.0,feminino,right,españa,"catalán y castellano
",Master degree,no,no,B,2,conjunction_un,L4,unsyncopated,s2,r1,23,Online_conjL4_un//c.bu.da27.0.444.wav,bu,po,da,sil,zi,re,pe,sil1,lo,bo,sil2,['catch'],[0.9539999999999509],[0.9539999999999509],0.444,no_beat,0.5099999999999509,0.5099999999999509,"[""space""]",da,3,,,,,,,,,,,,,,,3.0,2.0,catalán,0.0,castellano,0.0,inglés,5.0,4.0,5.0,yes,no,yes,canto,12,,,"ningun problema ni distracción, todo bien y siguiendo las instrucciones",73.0,yes
160,2024-05-06_15h18.40.260,Experiment4_uns,s172,23.0,feminino,right,españa,"catalán y castellano
",Master degree,no,no,B,2,conjunction_un,L4,unsyncopated,s1,r2,24,Online_conjL4_un//a.zi.lo4.none.none.wav,ja,da,ñi,sil,nu,pe,re,sil1,bu,bo,sil2,['-'],,,none,none,,,,zi,1,,,,,,,,,,,,,,,3.0,2.0,catalán,0.0,castellano,0.0,inglés,5.0,4.0,5.0,yes,no,yes,canto,12,,,"ningun problema ni distracción, todo bien y siguiendo las instrucciones",73.0,yes
161,2024-05-06_15h18.40.260,Experiment4_uns,s172,23.0,feminino,right,españa,"catalán y castellano
",Master degree,no,no,B,2,conjunction_un,L4,unsyncopated,s1,r1,25,Online_conjL4_un//a.zi.lo7.0.888.wav,zi,ci,da,sil,lo,ñi,de,sil1,ru,po,sil2,['catch'],[0.6369999999999436],[0.6369999999999436],0.0,beat,0.6369999999999436,0.6369999999999436,"[""space""]",zi,1,,,,,,,,,,,,,,,3.0,2.0,catalán,0.0,castellano,0.0,inglés,5.0,4.0,5.0,yes,no,yes,canto,12,,,"ningun problema ni distracción, todo bien y siguiendo las instrucciones",73.0,yes
162,2024-05-06_15h18.40.260,Experiment4_uns,s172,23.0,feminino,right,españa,"catalán y castellano
",Master degree,no,no,B,2,conjunction_un,L4,unsyncopated,s2,r2,26,Online_conjL4_un//a.zi.lo5.none.none.wav,ñi,re,pe,sil,ja,da,ña,sil1,nu,bu,sil2,['-'],,,none,none,,,,zi,1,,,,,,,,,,,,,,,3.0,2.0,catalán,0.0,castellano,0.0,inglés,5.0,4.0,5.0,yes,no,yes,canto,12,,,"ningun problema ni distracción, todo bien y siguiendo las instrucciones",73.0,yes
163,2024-05-06_15h18.40.260,Experiment4_uns,s172,23.0,feminino,right,españa,"catalán y castellano
",Master degree,no,no,B,2,conjunction_un,L4,unsyncopated,s1,r1,27,Online_conjL4_un//a.zi.lo6.0.888.wav,zi,da,po,sil,lo,de,ci,sil1,re,bo,sil2,['catch'],[0.6399999999998727],[0.6399999999998727],0.0,beat,0.6399999999998727,0.6399999999998727,"[""space""]",zi,1,,,,,,,,,,,,,,,3.0,2.0,catalán,0.0,castellano,0.0,inglés,5.0,4.0,5.0,yes,no,yes,canto,12,,,"ningun problema ni distracción, todo bien y siguiendo las instrucciones",73.0,yes
164,2024-05-06_15h18.40.260,Experiment4_uns,s172,23.0,feminino,right,españa,"catalán y castellano
",Master degree,no,no,B,2,conjunction_un,L4,unsyncopated,s2,r2,28,Online_conjL4_un//c.bu.da8.1332.444.wav,ña,ñi,da,sil,ja,ru,bu,sil1,nu,ci,sil2,['catch'],[1],[1],0.444,no_beat,0.556,0.556,"[""space""]",da,3,,,,,,,,,,,,,,,3.0,2.0,catalán,0.0,castellano,0.0,inglés,5.0,4.0,5.0,yes,no,yes,canto,12,,,"ningun problema ni distracción, todo bien y siguiendo las instrucciones",73.0,yes
165,2024-05-06_15h18.40.260,Experiment4_uns,s172,23.0,feminino,right,españa,"catalán y castellano
",Master degree,no,no,B,2,conjunction_un,L4,unsyncopated,s1,r2,29,Online_conjL4_un//c.bu.da9.none.none.wav,ja,re,ñi,sil,nu,ña,de,sil1,bo,po,sil2,['-'],,,none,none,,,,da,3,,,,,,,,,,,,,,,3.0,2.0,catalán,0.0,castellano,0.0,inglés,5.0,4.0,5.0,yes,no,yes,canto,12,,,"ningun problema ni distracción, todo bien y siguiendo las instrucciones",73.0,yes
166,2024-05-06_15h18.40.260,Experiment4_uns,s172,23.0,feminino,right,españa,"catalán y castellano
",Master degree,no,no,B,2,conjunction_un,L4,unsyncopated,s2,r2,30,Online_conjL4_un//c.bu.da10.0.1110.wav,bu,po,ña,sil,ja,da,ru,sil1,nu,ñi,sil2,['catch'],[1.224999999999909],[1.224999999999909],1.11,no_beat,0.1149999999999089,0.1149999999999089,"[""space""]",da,3,,,,,,,,,,,,,,,3.0,2.0,catalán,0.0,castellano,0.0,inglés,5.0,4.0,5.0,yes,no,yes,canto,12,,,"ningun problema ni distracción, todo bien y siguiendo las instrucciones",73.0,yes
167,2024-05-06_15h18.40.260,Experiment4_uns,s172,23.0,feminino,right,españa,"catalán y castellano
",Master degree,no,no,B,2,conjunction_un,L4,unsyncopated,s1,r2,31,Online_conjL4_un//c.bu.da11.none.none.wav,ja,bo,ñi,sil,nu,pe,re,sil1,ci,ña,sil2,['-'],,,none,none,,,,da,3,,,,,,,,,,,,,,,3.0,2.0,catalán,0.0,castellano,0.0,inglés,5.0,4.0,5.0,yes,no,yes,canto,12,,,"ningun problema ni distracción, todo bien y siguiendo las instrucciones",73.0,yes
168,2024-05-06_15h18.40.260,Experiment4_uns,s172,23.0,feminino,right,españa,"catalán y castellano
",Master degree,no,no,B,2,conjunction_un,L4,unsyncopated,s2,r2,32,Online_conjL4_un//a.zi.lo15.none.none.wav,po,ñi,pe,sil,ja,da,bo,sil1,nu,de,sil2,['-'],,,none,none,,,,zi,1,,,,,,,,,,,,,,,3.0,2.0,catalán,0.0,castellano,0.0,inglés,5.0,4.0,5.0,yes,no,yes,canto,12,,,"ningun problema ni distracción, todo bien y siguiendo las instrucciones",73.0,yes
169,2024-05-06_15h18.40.260,Experiment4_uns,s172,23.0,feminino,right,españa,"catalán y castellano
",Master degree,no,no,B,2,conjunction_un,L4,unsyncopated,s2,r2,33,Online_conjL4_un//a.zi.lo13.none.none.wav,re,ña,bo,sil,ja,bu,ñi,sil1,nu,da,sil2,['-'],,,none,none,,,,zi,1,,,,,,,,,,,,,,,3.0,2.0,catalán,0.0,castellano,0.0,inglés,5.0,4.0,5.0,yes,no,yes,canto,12,,,"ningun problema ni distracción, todo bien y siguiendo las instrucciones",73.0,yes
170,2024-05-06_15h18.40.260,Experiment4_uns,s172,23.0,feminino,right,españa,"catalán y castellano
",Master degree,no,no,B,2,conjunction_un,L4,unsyncopated,s2,r2,34,Online_conjL4_un//a.zi.lo12.none.none.wav,re,bo,pe,sil,ja,bu,ru,sil1,nu,de,sil2,['-'],,,none,none,,,,zi,1,,,,,,,,,,,,,,,3.0,2.0,catalán,0.0,castellano,0.0,inglés,5.0,4.0,5.0,yes,no,yes,canto,12,,,"ningun problema ni distracción, todo bien y siguiendo las instrucciones",73.0,yes
171,2024-05-06_15h18.40.260,Experiment4_uns,s172,23.0,feminino,right,españa,"catalán y castellano
",Master degree,no,no,B,2,conjunction_un,L4,unsyncopated,s1,r1,35,Online_conjL4_un//a.zi.lo14.0.888.wav,zi,po,ñi,sil,lo,bo,da,sil1,pe,bu,sil2,['catch'],[0.7700000000002092],[0.7700000000002092],0.0,beat,0.7700000000002092,0.7700000000002092,"[""space""]",zi,1,,,,,,,,,,,,,,,3.0,2.0,catalán,0.0,castellano,0.0,inglés,5.0,4.0,5.0,yes,no,yes,canto,12,,,"ningun problema ni distracción, todo bien y siguiendo las instrucciones",73.0,yes
172,2024-05-06_15h18.40.260,Experiment4_uns,s172,23.0,feminino,right,españa,"catalán y castellano
",Master degree,no,no,B,2,conjunction_un,L4,unsyncopated,s1,r2,36,Online_conjL4_un//c.bu.da12.1776.444.wav,ja,po,da,sil,nu,ñi,re,sil1,bu,de,sil2,['catch'],[1.0320000000001528],[1.0320000000001528],0.444,no_beat,0.5880000000001528,0.5880000000001528,"[""space""]",da,3,,,,,,,,,,,,,,,3.0,2.0,catalán,0.0,castellano,0.0,inglés,5.0,4.0,5.0,yes,no,yes,canto,12,,,"ningun problema ni distracción, todo bien y siguiendo las instrucciones",73.0,yes
173,2024-05-06_15h18.40.260,Experiment4_uns,s172,23.0,feminino,right,españa,"catalán y castellano
",Master degree,no,no,B,2,conjunction_un,L4,unsyncopated,s2,r1,37,Online_conjL4_un//c.bu.da14.none.none.wav,po,ru,pe,sil,zi,ñi,de,sil1,lo,ña,sil2,['-'],,,none,none,,,,da,3,,,,,,,,,,,,,,,3.0,2.0,catalán,0.0,castellano,0.0,inglés,5.0,4.0,5.0,yes,no,yes,canto,12,,,"ningun problema ni distracción, todo bien y siguiendo las instrucciones",73.0,yes
174,2024-05-06_15h18.40.260,Experiment4_uns,s172,23.0,feminino,right,españa,"catalán y castellano
",Master degree,no,no,B,2,conjunction_un,L4,unsyncopated,s2,r2,38,Online_conjL4_un//c.bu.da15.222.1110.wav,ñi,bu,po,sil,ja,da,re,sil1,nu,pe,sil2,['miss'],,,1.11,no_beat,,,,da,3,,,,,,,,,,,,,,,3.0,2.0,catalán,0.0,castellano,0.0,inglés,5.0,4.0,5.0,yes,no,yes,canto,12,,,"ningun problema ni distracción, todo bien y siguiendo las instrucciones",73.0,yes
175,2024-05-06_15h18.40.260,Experiment4_uns,s172,23.0,feminino,right,españa,"catalán y castellano
",Master degree,no,no,B,2,conjunction_un,L4,unsyncopated,s2,r2,39,Online_conjL4_un//c.bu.da13.none.none.wav,pe,ru,de,sil,ja,re,bo,sil1,nu,ña,sil2,['-'],,,none,none,,,,da,3,,,,,,,,,,,,,,,3.0,2.0,catalán,0.0,castellano,0.0,inglés,5.0,4.0,5.0,yes,no,yes,canto,12,,,"ningun problema ni distracción, todo bien y siguiendo las instrucciones",73.0,yes
176,2024-05-06_15h18.40.260,Experiment4_uns,s172,23.0,feminino,right,españa,"catalán y castellano
",Master degree,no,no,B,2,conjunction_un,L4,unsyncopated,s1,r1,40,Online_conjL4_un//d.pe.po14.none.none.wav,zi,bo,da,sil,lo,ña,ci,sil1,de,re,sil2,['-'],,,none,none,,,,po,4,,,,,,,,,,,,,,,3.0,2.0,catalán,0.0,castellano,0.0,inglés,5.0,4.0,5.0,yes,no,yes,canto,12,,,"ningun problema ni distracción, todo bien y siguiendo las instrucciones",73.0,yes
177,2024-05-06_15h18.40.260,Experiment4_uns,s172,23.0,feminino,right,españa,"catalán y castellano
",Master degree,no,no,B,2,conjunction_un,L4,unsyncopated,s2,r2,41,Online_conjL4_un//d.pe.po12.none.none.wav,da,ñi,bo,sil,ja,ña,ru,sil1,nu,bu,sil2,['false alarm'],[0.9970000000000709],[0.9970000000000709],none,none,,,"[""space""]",po,4,,,,,,,,,,,,,,,3.0,2.0,catalán,0.0,castellano,0.0,inglés,5.0,4.0,5.0,yes,no,yes,canto,12,,,"ningun problema ni distracción, todo bien y siguiendo las instrucciones",73.0,yes
178,2024-05-06_15h18.40.260,Experiment4_uns,s172,23.0,feminino,right,españa,"catalán y castellano
",Master degree,no,no,B,2,conjunction_un,L4,unsyncopated,s1,r2,42,Online_conjL4_un//d.pe.po15.444.1332.wav,ja,bu,pe,sil,nu,ru,po,sil1,de,da,sil2,['miss'],,,1.332,no_beat,,,,po,4,,,,,,,,,,,,,,,3.0,2.0,catalán,0.0,castellano,0.0,inglés,5.0,4.0,5.0,yes,no,yes,canto,12,,,"ningun problema ni distracción, todo bien y siguiendo las instrucciones",73.0,yes
179,2024-05-06_15h18.40.260,Experiment4_uns,s172,23.0,feminino,right,españa,"catalán y castellano
",Master degree,no,no,B,2,conjunction_un,L4,unsyncopated,s1,r1,43,Online_conjL4_un//d.pe.po13.1776.1110.wav,zi,ña,ñi,sil,lo,po,bu,sil1,pe,de,sil2,['catch'],[1.7460000000000946],[1.7460000000000946],1.11,no_beat,0.6360000000000945,0.6360000000000945,"[""space""]",po,4,,,,,,,,,,,,,,,3.0,2.0,catalán,0.0,castellano,0.0,inglés,5.0,4.0,5.0,yes,no,yes,canto,12,,,"ningun problema ni distracción, todo bien y siguiendo las instrucciones",73.0,yes
180,2024-05-06_15h18.40.260,Experiment4_uns,s172,23.0,feminino,right,españa,"catalán y castellano
",Master degree,no,no,B,2,conjunction_un,L4,unsyncopated,s2,r2,44,Online_conjL4_un//b.ja.nu30.888.1776.wav,pe,re,ña,sil,ja,po,de,sil1,nu,da,sil2,['catch'],[2.555000000000291],[2.555000000000291],1.776,beat,0.779000000000291,0.779000000000291,"[""space""]",nu,2,,,,,,,,,,,,,,,3.0,2.0,catalán,0.0,castellano,0.0,inglés,5.0,4.0,5.0,yes,no,yes,canto,12,,,"ningun problema ni distracción, todo bien y siguiendo las instrucciones",73.0,yes
181,2024-05-06_15h18.40.260,Experiment4_uns,s172,23.0,feminino,right,españa,"catalán y castellano
",Master degree,no,no,B,2,conjunction_un,L4,unsyncopated,s2,r1,45,Online_conjL4_un//b.ja.nu31.none.none.wav,ru,pe,ñi,sil,zi,ña,da,sil1,lo,ci,sil2,['-'],,,none,none,,,,nu,2,,,,,,,,,,,,,,,3.0,2.0,catalán,0.0,castellano,0.0,inglés,5.0,4.0,5.0,yes,no,yes,canto,12,,,"ningun problema ni distracción, todo bien y siguiendo las instrucciones",73.0,yes
182,2024-05-06_15h18.40.260,Experiment4_uns,s172,23.0,feminino,right,españa,"catalán y castellano
",Master degree,no,no,B,2,conjunction_un,L4,unsyncopated,s2,r1,46,Online_conjL4_un//b.ja.nu29.none.none.wav,ci,da,po,sil,zi,bu,de,sil1,lo,ña,sil2,['-'],,,none,none,,,,nu,2,,,,,,,,,,,,,,,3.0,2.0,catalán,0.0,castellano,0.0,inglés,5.0,4.0,5.0,yes,no,yes,canto,12,,,"ningun problema ni distracción, todo bien y siguiendo las instrucciones",73.0,yes
183,2024-05-06_15h18.40.260,Experiment4_uns,s172,23.0,feminino,right,españa,"catalán y castellano
",Master degree,no,no,B,2,conjunction_un,L4,unsyncopated,s1,r1,47,Online_conjL4_un//b.ja.nu28.none.none.wav,zi,po,pe,sil,lo,bo,ñi,sil1,re,ci,sil2,['-'],,,none,none,,,,nu,2,,,,,,,,,,,,,,,3.0,2.0,catalán,0.0,castellano,0.0,inglés,5.0,4.0,5.0,yes,no,yes,canto,12,,,"ningun problema ni distracción, todo bien y siguiendo las instrucciones",73.0,yes
184,2024-05-06_15h18.40.260,Experiment4_uns,s172,23.0,feminino,right,españa,"catalán y castellano
",Master degree,no,no,B,2,conjunction_un,L4,unsyncopated,s2,r2,48,Online_conjL4_un//d.pe.po10.1332.444.wav,re,ñi,po,sil,ja,bu,pe,sil1,nu,ru,sil2,['catch'],[0.9729999999999563],[0.9729999999999563],0.444,no_beat,0.5289999999999564,0.5289999999999564,"[""space""]",po,4,,,,,,,,,,,,,,,3.0,2.0,catalán,0.0,castellano,0.0,inglés,5.0,4.0,5.0,yes,no,yes,canto,12,,,"ningun problema ni distracción, todo bien y siguiendo las instrucciones",73.0,yes
185,2024-05-06_15h18.40.260,Experiment4_uns,s172,23.0,feminino,right,españa,"catalán y castellano
",Master degree,no,no,B,2,conjunction_un,L4,unsyncopated,s2,r1,49,Online_conjL4_un//d.pe.po8.none.none.wav,ña,re,ci,sil,zi,ru,ñi,sil1,lo,de,sil2,['-'],,,none,none,,,,po,4,,,,,,,,,,,,,,,3.0,2.0,catalán,0.0,castellano,0.0,inglés,5.0,4.0,5.0,yes,no,yes,canto,12,,,"ningun problema ni distracción, todo bien y siguiendo las instrucciones",73.0,yes
186,2024-05-06_15h18.40.260,Experiment4_uns,s172,23.0,feminino,right,españa,"catalán y castellano
",Master degree,no,no,B,2,conjunction_un,L4,unsyncopated,s2,r1,50,Online_conjL4_un//d.pe.po11.1110.222.wav,bo,po,da,sil,zi,pe,de,sil1,lo,ñi,sil2,['catch'],[0.7570000000000618],[0.7570000000000618],0.222,no_beat,0.5350000000000619,0.5350000000000619,"[""space""]",po,4,,,,,,,,,,,,,,,3.0,2.0,catalán,0.0,castellano,0.0,inglés,5.0,4.0,5.0,yes,no,yes,canto,12,,,"ningun problema ni distracción, todo bien y siguiendo las instrucciones",73.0,yes
187,2024-05-06_15h18.40.260,Experiment4_uns,s172,23.0,feminino,right,españa,"catalán y castellano
",Master degree,no,no,B,2,conjunction_un,L4,unsyncopated,s1,r1,51,Online_conjL4_un//d.pe.po9.222.1110.wav,zi,pe,bo,sil,lo,po,de,sil1,ru,re,sil2,['catch'],[1.7039999999999509],[1.7039999999999509],1.11,no_beat,0.5939999999999508,0.5939999999999508,"[""space""]",po,4,,,,,,,,,,,,,,,3.0,2.0,catalán,0.0,castellano,0.0,inglés,5.0,4.0,5.0,yes,no,yes,canto,12,,,"ningun problema ni distracción, todo bien y siguiendo las instrucciones",73.0,yes
188,2024-05-06_15h18.40.260,Experiment4_uns,s172,23.0,feminino,right,españa,"catalán y castellano
