Unnamed: 0,date,expName,participant,age,sex,hand,residence,native_lang,education_level,lang_deficit,aud_deficit,group,block,condition,language,rhythm,rule structure online,rule type online,order_trial_on,trial_online,s1,s2,s3,s4,s5,s6,s7,s8,s9,s10,s11,catch_syll_resp,rts_syll_catch,clean_rts,time_syll,beat_no_beat,catch_rtsTR,catch_rts,syllable_catch.keys,cond_syll,syll_to_catch,test_offline,block_off,condition_off,rhythm_off,rule,rule_str_off,rule_norule,conds_offline,language_off,Partz_no_partm.keys,Partz_no_partm.rt,security_1_7.keys,accuracy,security_1_7.rt,n_lang,n_lang_used,lang_1,age_l1,lang_2,age_l2,lang_3,age_l3,ability_learn_l2,tendence_mix_lan,music_experience,muisc_use,partiture,instr_1,age_M1,preguntas_musica1,BMRQ_answer.response,final comment,BMRQ_Score,bilingual
0,2024-02-27_10h47.21.286,Unsyncopated_study3,s120,21.0,feminino,right,España,Castellano,Bachelor degree,no,no,A,1,conjunction_syn,L2,syncopated,s1,r2,0,Online_conjL2_syn//c.cha.me17.1110.222.wav,fe,me,ñu,ra,sil,cha,ba,mi,sil1,te,sil2,['catch'],[1.8680999999050982],[1.8680999999050982],1.11,no_beat,0.7580999999050981,0.7580999999050981,"[""space""]",cha,3,testConjL2Syn//r2.s2.2.wav,1.0,conjunction_syn,syncopated,b,s2,rule,rule,L2,z,0.6366,5.0,1.0,5.1795,3.0,2.0,Castellano,0.0,Inglés,2.0,Francés,6.0,5.0,3.0,yes,yes,no,Bajo,16,1. Cuando comparto música con alguien siento una complicidad especial con aquella persona.,4.0,nada ,68.0,yes
1,2024-02-27_10h47.21.286,Unsyncopated_study3,s120,21.0,feminino,right,España,Castellano,Bachelor degree,no,no,A,1,conjunction_syn,L2,syncopated,s1,r1,1,Online_conjL2_syn//c.cha.me18.1332.222.wav,go,me,to,du,sil,te,cha,mi,sil1,si,sil2,['catch'],[2.0067999999737367],[2.0067999999737367],1.332,no_beat,0.6747999999737366,0.6747999999737366,"[""space""]",cha,3,testConjL2Syn//dep_viol.r1.s1.0.wav,1.0,conjunction_syn,syncopated,a,s1,no_rule,dep,L2,z,0.1185,6.0,0.0,4.9189,3.0,2.0,Castellano,0.0,Inglés,2.0,Francés,6.0,5.0,3.0,yes,yes,no,Bajo,16,2. En mi tiempo libre apenas escucho música.,5.0,nada ,68.0,yes
2,2024-02-27_10h47.21.286,Unsyncopated_study3,s120,21.0,feminino,right,España,Castellano,Bachelor degree,no,no,A,1,conjunction_syn,L2,syncopated,s2,r1,2,Online_conjL2_syn//c.cha.me19.none.none.wav,te,ño,ba,go,sil,ñu,si,du,sil1,bi,sil2,['-'],,,none,none,,,,cha,3,testConjL2Syn//r2.s2.0.wav,1.0,conjunction_syn,syncopated,b,s2,rule,rule,L2,z,3.3678,4.0,1.0,1.6351,3.0,2.0,Castellano,0.0,Inglés,2.0,Francés,6.0,5.0,3.0,yes,yes,no,Bajo,16,3. Algunas canciones me ponen los pelos de punta,2.0,nada ,68.0,yes
3,2024-02-27_10h47.21.286,Unsyncopated_study3,s120,21.0,feminino,right,España,Castellano,Bachelor degree,no,no,A,1,conjunction_syn,L2,syncopated,s2,r1,3,Online_conjL2_syn//c.cha.me16.none.none.wav,mi,ñu,ba,go,sil,to,ño,du,sil1,si,sil2,['-'],,,none,none,,,,cha,3,testConjL2Syn//r1.s2.2.wav,1.0,conjunction_syn,syncopated,a,s2,rule,rule,L2,z,0.6598,7.0,1.0,1.887,3.0,2.0,Castellano,0.0,Inglés,2.0,Francés,6.0,5.0,3.0,yes,yes,no,Bajo,16,4. La música me hace compañía cuando estoy solo,4.0,nada ,68.0,yes
4,2024-02-27_10h47.21.286,Unsyncopated_study3,s120,21.0,feminino,right,España,Castellano,Bachelor degree,no,no,A,1,conjunction_syn,L2,syncopated,s2,r2,4,Online_conjL2_syn//c.cha.me9.none.none.wav,ño,mi,to,fe,sil,si,te,ra,sil1,ñu,sil2,['-'],,,none,none,,,,cha,3,testConjL2Syn//dep_viol.r1.s2.0.wav,1.0,conjunction_syn,syncopated,a,s2,no_rule,dep,L2,z,3.0222,5.0,0.0,1.5648,3.0,2.0,Castellano,0.0,Inglés,2.0,Francés,6.0,5.0,3.0,yes,yes,no,Bajo,16,5. No me apetece bailar ni con la música que más me gusta,5.0,nada ,68.0,yes
5,2024-02-27_10h47.21.286,Unsyncopated_study3,s120,21.0,feminino,right,España,Castellano,Bachelor degree,no,no,A,1,conjunction_syn,L2,syncopated,s1,r2,5,Online_conjL2_syn//c.cha.me11.1554.1110.wav,fe,mi,ñu,ra,sil,me,si,cha,sil1,ba,sil2,['catch'],[2.309599999920465],[2.309599999920465],1.554,no_beat,0.755599999920465,0.755599999920465,"[""space""]",cha,3,testConjL2Syn//r2.s1.0.wav,1.0,conjunction_syn,syncopated,b,s1,rule,rule,L2,m,0.534,5.0,0.0,2.1354,3.0,2.0,Castellano,0.0,Inglés,2.0,Francés,6.0,5.0,3.0,yes,yes,no,Bajo,16,6. La música me hace conectar con la gente,3.0,nada ,68.0,yes
6,2024-02-27_10h47.21.286,Unsyncopated_study3,s120,21.0,feminino,right,España,Castellano,Bachelor degree,no,no,A,1,conjunction_syn,L2,syncopated,s1,r1,6,Online_conjL2_syn//c.cha.me10.none.none.wav,go,te,bi,du,sil,si,ño,ba,sil1,to,sil2,['-'],,,none,none,,,,cha,3,testConjL2Syn//time_viol.r1.s2.0.wav,1.0,conjunction_syn,syncopated,a,s2,no_rule,time,L2,m,1.0337,6.0,1.0,1.9988,3.0,2.0,Castellano,0.0,Inglés,2.0,Francés,6.0,5.0,3.0,yes,yes,no,Bajo,16,7. Me informo sobre la música que me gusta.,2.0,nada ,68.0,yes
7,2024-02-27_10h47.21.286,Unsyncopated_study3,s120,21.0,feminino,right,España,Castellano,Bachelor degree,no,no,A,1,conjunction_syn,L2,syncopated,s2,r2,7,Online_conjL2_syn//c.cha.me8.222.1110.wav,si,cha,to,fe,sil,me,ba,ra,sil1,ñu,sil2,['catch'],[1.0234000000637025],[1.0234000000637025],0.222,no_beat,0.8014000000637025,0.8014000000637025,"[""space""]",cha,3,testConjL2Syn//r1.s1.0.wav,1.0,conjunction_syn,syncopated,a,s1,rule,rule,L2,m,2.1352,4.0,0.0,0.9011,3.0,2.0,Castellano,0.0,Inglés,2.0,Francés,6.0,5.0,3.0,yes,yes,no,Bajo,16,8.Me emociono escuchando ciertas canciones.,4.0,nada ,68.0,yes
8,2024-02-27_10h47.21.286,Unsyncopated_study3,s120,21.0,feminino,right,España,Castellano,Bachelor degree,no,no,A,1,conjunction_syn,L2,syncopated,s2,r1,8,Online_conjL2_syn//b.fe.ra12.none.none.wav,ba,to,mi,go,sil,bi,si,du,sil1,me,sil2,['-'],,,none,none,,,,fe,1,testConjL2Syn//r2.s1.1.wav,1.0,conjunction_syn,syncopated,b,s1,rule,rule,L2,z,0.4016,5.0,1.0,1.8353,3.0,2.0,Castellano,0.0,Inglés,2.0,Francés,6.0,5.0,3.0,yes,yes,no,Bajo,16,9.La música me tranquiliza y me relaja.,4.0,nada ,68.0,yes
9,2024-02-27_10h47.21.286,Unsyncopated_study3,s120,21.0,feminino,right,España,Castellano,Bachelor degree,no,no,A,1,conjunction_syn,L2,syncopated,s1,r2,9,Online_conjL2_syn//b.fe.ra14.0.666.wav,fe,te,ño,ra,sil,su,cha,bi,sil1,to,sil2,['miss'],,,0.0,beat,,,,fe,1,testConjL2Syn//cat_viol.r1.s2.0.wav,1.0,conjunction_syn,syncopated,a,s2,no_rule,cat,L2,m,3.1013,3.0,1.0,2.0006,3.0,2.0,Castellano,0.0,Inglés,2.0,Francés,6.0,5.0,3.0,yes,yes,no,Bajo,16,10.La música me hace bailar,4.0,nada ,68.0,yes
10,2024-02-27_10h47.21.286,Unsyncopated_study3,s120,21.0,feminino,right,España,Castellano,Bachelor degree,no,no,A,1,conjunction_syn,L2,syncopated,s1,r1,10,Online_conjL2_syn//b.fe.ra15.none.none.wav,go,ñu,to,du,sil,bi,cha,ño,sil1,ba,sil2,['false alarm'],[2.0194999999948777],[2.0194999999948777],none,none,,,"[""space""]",fe,1,testConjL2Syn//dep_viol.r2.s1.0.wav,1.0,conjunction_syn,syncopated,b,s1,no_rule,dep,L2,m,1.4523,2.0,1.0,1.935,3.0,2.0,Castellano,0.0,Inglés,2.0,Francés,6.0,5.0,3.0,yes,yes,no,Bajo,16,11.Busco novedades musicales continuamente,3.0,nada ,68.0,yes
11,2024-02-27_10h47.21.286,Unsyncopated_study3,s120,21.0,feminino,right,España,Castellano,Bachelor degree,no,no,A,1,conjunction_syn,L2,syncopated,s1,r2,11,Online_conjL2_syn//b.fe.ra13.0.666.wav,fe,si,ba,ra,sil,bi,su,ñu,sil1,ño,sil2,['miss'],,,0.0,beat,,,,fe,1,testConjL2Syn//cat_viol.r2.s2.0.wav,1.0,conjunction_syn,syncopated,b,s2,no_rule,cat,L2,z,1.8535,6.0,0.0,1.9359,3.0,2.0,Castellano,0.0,Inglés,2.0,Francés,6.0,5.0,3.0,yes,yes,no,Bajo,16,12. Puedo llorar cuando escucho algunas melodías que me gustan mucho.,3.0,nada ,68.0,yes
12,2024-02-27_10h47.21.286,Unsyncopated_study3,s120,21.0,feminino,right,España,Castellano,Bachelor degree,no,no,A,1,conjunction_syn,L2,syncopated,s1,r1,12,Online_conjL2_syn//c.cha.me26.1332.222.wav,go,me,si,du,sil,ño,cha,su,sil1,ba,sil2,['catch'],[2.1532000000588596],[2.1532000000588596],1.332,no_beat,0.8212000000588595,0.8212000000588595,"[""space""]",cha,3,testConjL2Syn//r2.s1.2.wav,1.0,conjunction_syn,syncopated,b,s1,rule,rule,L2,z,0.6859,7.0,1.0,0.5189,3.0,2.0,Castellano,0.0,Inglés,2.0,Francés,6.0,5.0,3.0,yes,yes,no,Bajo,16,13. Me gusta cantar o tocar un instrumento con más gente,3.0,nada ,68.0,yes
13,2024-02-27_10h47.21.286,Unsyncopated_study3,s120,21.0,feminino,right,España,Castellano,Bachelor degree,no,no,A,1,conjunction_syn,L2,syncopated,s2,r1,13,Online_conjL2_syn//c.cha.me25.222.1110.wav,mi,cha,ñu,go,sil,me,ño,du,sil1,bi,sil2,['catch'],[1.1037000000360422],[1.1037000000360422],0.222,no_beat,0.8817000000360422,0.8817000000360422,"[""space""]",cha,3,testConjL2Syn//dep_viol.r2.s2.0.wav,1.0,conjunction_syn,syncopated,b,s2,no_rule,dep,L2,z,2.8925,4.0,0.0,0.7333,3.0,2.0,Castellano,0.0,Inglés,2.0,Francés,6.0,5.0,3.0,yes,yes,no,Bajo,16,14. La música me ayuda a desconectar.,3.0,nada ,68.0,yes
14,2024-02-27_10h47.21.286,Unsyncopated_study3,s120,21.0,feminino,right,España,Castellano,Bachelor degree,no,no,A,1,conjunction_syn,L2,syncopated,s1,r2,14,Online_conjL2_syn//c.cha.me27.none.none.wav,fe,si,su,ra,sil,ño,to,ñu,sil1,ba,sil2,['-'],,,none,none,,,,cha,3,testConjL2Syn//r1.s2.0.wav,1.0,conjunction_syn,syncopated,a,s2,rule,rule,L2,m,0.8341,4.0,0.0,1.8522,3.0,2.0,Castellano,0.0,Inglés,2.0,Francés,6.0,5.0,3.0,yes,yes,no,Bajo,16,15. No puedo evitar tararear las canciones que me gustan cuando las escucho.,3.0,nada ,68.0,yes
15,2024-02-27_10h47.21.286,Unsyncopated_study3,s120,21.0,feminino,right,España,Castellano,Bachelor degree,no,no,A,1,conjunction_syn,L2,syncopated,s1,r2,15,Online_conjL2_syn//c.cha.me24.none.none.wav,fe,ba,su,ra,sil,ñu,to,ño,sil1,si,sil2,['-'],,,none,none,,,,cha,3,testConjL2Syn//r1.s1.1.wav,1.0,conjunction_syn,syncopated,a,s1,rule,rule,L2,m,1.301,6.0,0.0,1.9667,3.0,2.0,Castellano,0.0,Inglés,2.0,Francés,6.0,5.0,3.0,yes,yes,no,Bajo,16,16. En los conciertos me siento en sintonía con los artistas y el público.,4.0,nada ,68.0,yes
16,2024-02-27_10h47.21.286,Unsyncopated_study3,s120,21.0,feminino,right,España,Castellano,Bachelor degree,no,no,A,1,conjunction_syn,L2,syncopated,s2,r1,16,Online_conjL2_syn//d.si.ñu27.none.none.wav,cha,ño,ba,go,sil,mi,to,du,sil1,bi,sil2,['false alarm'],[0.43279999995138496],[0.43279999995138496],none,none,,,"[""space""]",si,4,testConjL2Syn//time_viol.r2.s2.0.wav,1.0,conjunction_syn,syncopated,b,s2,no_rule,time,L2,z,1.1153,6.0,0.0,0.8233,3.0,2.0,Castellano,0.0,Inglés,2.0,Francés,6.0,5.0,3.0,yes,yes,no,Bajo,16,17. Me gasto bastante dinero en música y cosas relacionadas con la música.,0.0,nada ,68.0,yes
17,2024-02-27_10h47.21.286,Unsyncopated_study3,s120,21.0,feminino,right,España,Castellano,Bachelor degree,no,no,A,1,conjunction_syn,L2,syncopated,s2,r2,17,Online_conjL2_syn//d.si.ñu24.222.1110.wav,ba,si,cha,fe,sil,ñu,su,ra,sil1,ño,sil2,['catch'],[2.2305999999516644],[2.2305999999516644],0.222,no_beat,,2.0085999999516644,"[""space""]",si,4,testConjL2Syn//r1.s2.1.wav,1.0,conjunction_syn,syncopated,a,s2,rule,rule,L2,z,0.7989,6.0,1.0,1.57,3.0,2.0,Castellano,0.0,Inglés,2.0,Francés,6.0,5.0,3.0,yes,yes,no,Bajo,16,18. Siento escalofríos cuando escucho una melodía que me gusta.,4.0,nada ,68.0,yes
18,2024-02-27_10h47.21.286,Unsyncopated_study3,s120,21.0,feminino,right,España,Castellano,Bachelor degree,no,no,A,1,conjunction_syn,L2,syncopated,s2,r2,18,Online_conjL2_syn//d.si.ñu26.none.none.wav,ba,su,cha,fe,sil,mi,me,ra,sil1,to,sil2,['-'],,,none,none,,,,si,4,testConjL2Syn//r2.s2.1.wav,1.0,conjunction_syn,syncopated,b,s2,rule,rule,L2,m,0.7346,5.0,0.0,3.476,3.0,2.0,Castellano,0.0,Inglés,2.0,Francés,6.0,5.0,3.0,yes,yes,no,Bajo,16,19. Con la música me puedo desahogar.,4.0,nada ,68.0,yes
19,2024-02-27_10h47.21.286,Unsyncopated_study3,s120,21.0,feminino,right,España,Castellano,Bachelor degree,no,no,A,1,conjunction_syn,L2,syncopated,s2,r2,19,Online_conjL2_syn//d.si.ñu25.none.none.wav,mi,to,ño,fe,sil,bi,ba,ra,sil1,su,sil2,['-'],,,none,none,,,,si,4,testConjL2Syn//cat_viol.r2.s1.0.wav,1.0,conjunction_syn,syncopated,b,s1,no_rule,cat,L2,m,1.6216,4.0,1.0,0.7303,3.0,2.0,Castellano,0.0,Inglés,2.0,Francés,6.0,5.0,3.0,yes,yes,no,Bajo,16,20. Cuando escucho una melodía que me gusta mucho no puedo evitar mover el cuerpo.,4.0,nada ,68.0,yes
20,2024-02-27_10h47.21.286,Unsyncopated_study3,s120,21.0,feminino,right,España,Castellano,Bachelor degree,no,no,A,1,conjunction_syn,L2,syncopated,s2,r1,20,Online_conjL2_syn//c.cha.me1.222.444.wav,bi,cha,me,go,sil,ño,ñu,du,sil1,su,sil2,['catch'],[1.1978999998536892],[1.1978999998536892],0.222,no_beat,0.9758999998536892,0.9758999998536892,"[""space""]",cha,3,testConjL2Syn//time_viol.r1.s1.0.wav,1.0,conjunction_syn,syncopated,a,s1,no_rule,time,L2,m,2.043,7.0,1.0,0.9095,3.0,2.0,Castellano,0.0,Inglés,2.0,Francés,6.0,5.0,3.0,yes,yes,no,Bajo,16,,,nada ,68.0,yes
21,2024-02-27_10h47.21.286,Unsyncopated_study3,s120,21.0,feminino,right,España,Castellano,Bachelor degree,no,no,A,1,conjunction_syn,L2,syncopated,s2,r1,21,Online_conjL2_syn//c.cha.me3.444.0.wav,me,ba,cha,go,sil,te,mi,du,sil1,ñu,sil2,['catch'],[1.3145999999251217],[1.3145999999251217],0.444,no_beat,0.8705999999251217,0.8705999999251217,"[""space""]",cha,3,testConjL2Syn//r1.s1.2.wav,1.0,conjunction_syn,syncopated,a,s1,rule,rule,L2,z,0.8849,4.0,1.0,1.8621,3.0,2.0,Castellano,0.0,Inglés,2.0,Francés,6.0,5.0,3.0,yes,yes,no,Bajo,16,,,nada ,68.0,yes
22,2024-02-27_10h47.21.286,Unsyncopated_study3,s120,21.0,feminino,right,España,Castellano,Bachelor degree,no,no,A,1,conjunction_syn,L2,syncopated,s2,r2,22,Online_conjL2_syn//c.cha.me0.444.1110.wav,te,su,cha,fe,sil,me,si,ra,sil1,ba,sil2,['catch'],[1.1894999999785796],[1.1894999999785796],0.444,no_beat,0.7454999999785796,0.7454999999785796,"[""space""]",cha,3,testConjL2Syn//cat_viol.r1.s1.0.wav,1.0,conjunction_syn,syncopated,a,s1,no_rule,cat,L2,m,0.9013,7.0,1.0,0.785,3.0,2.0,Castellano,0.0,Inglés,2.0,Francés,6.0,5.0,3.0,yes,yes,no,Bajo,16,,,nada ,68.0,yes
23,2024-02-27_10h47.21.286,Unsyncopated_study3,s120,21.0,feminino,right,España,Castellano,Bachelor degree,no,no,A,1,conjunction_syn,L2,syncopated,s2,r1,23,Online_conjL2_syn//c.cha.me2.444.0.wav,me,te,cha,go,sil,mi,su,du,sil1,ño,sil2,['catch'],[1.3036000001011416],[1.3036000001011416],0.444,no_beat,0.8596000001011417,0.8596000001011417,"[""space""]",cha,3,testConjL2Syn//time_viol.r2.s1.0.wav,1.0,conjunction_syn,syncopated,b,s1,no_rule,time,L2,z,0.7353,6.0,0.0,0.95,3.0,2.0,Castellano,0.0,Inglés,2.0,Francés,6.0,5.0,3.0,yes,yes,no,Bajo,16,,,nada ,68.0,yes
24,2024-02-27_10h47.21.286,Unsyncopated_study3,s120,21.0,feminino,right,España,Castellano,Bachelor degree,no,no,A,1,conjunction_syn,L2,syncopated,s1,r1,24,Online_conjL2_syn//b.fe.ra29.none.none.wav,go,cha,si,du,sil,bi,to,ñu,sil1,ba,sil2,['false alarm'],[1.0711000001174398],[1.0711000001174398],none,none,,,"[""space""]",fe,1,testConjL3Uns//r1.s2.2.wav,2.0,conjunction_un,unsyncopated,a,s2,rule,rule,L3,z,0.5876,5.0,1.0,1.3917,3.0,2.0,Castellano,0.0,Inglés,2.0,Francés,6.0,5.0,3.0,yes,yes,no,Bajo,16,,,nada ,68.0,yes
25,2024-02-27_10h47.21.286,Unsyncopated_study3,s120,21.0,feminino,right,España,Castellano,Bachelor degree,no,no,A,1,conjunction_syn,L2,syncopated,s2,r2,25,Online_conjL2_syn//b.fe.ra31.666.1554.wav,bi,cha,te,fe,sil,me,ñu,ra,sil1,si,sil2,['catch'],[1.337900000042282],[1.337900000042282],0.666,no_beat,0.671900000042282,0.671900000042282,"[""space""]",fe,1,testConjL3Uns//r1.s1.0.wav,2.0,conjunction_un,unsyncopated,a,s1,rule,rule,L3,m,0.8542,6.0,0.0,1.6059,3.0,2.0,Castellano,0.0,Inglés,2.0,Francés,6.0,5.0,3.0,yes,yes,no,Bajo,16,,,nada ,68.0,yes
26,2024-02-27_10h47.21.286,Unsyncopated_study3,s120,21.0,feminino,right,España,Castellano,Bachelor degree,no,no,A,1,conjunction_syn,L2,syncopated,s1,r2,26,Online_conjL2_syn//b.fe.ra30.0.666.wav,fe,ba,ñu,ra,sil,su,ño,mi,sil1,cha,sil2,['catch'],[0.9476000001304783],[0.9476000001304783],0.0,beat,0.9476000001304784,0.9476000001304784,"[""space""]",fe,1,testConjL3Uns//r1.s2.0.wav,2.0,conjunction_un,unsyncopated,a,s2,rule,rule,L3,z,0.9382,7.0,1.0,0.5801,3.0,2.0,Castellano,0.0,Inglés,2.0,Francés,6.0,5.0,3.0,yes,yes,no,Bajo,16,,,nada ,68.0,yes
27,2024-02-27_10h47.21.286,Unsyncopated_study3,s120,21.0,feminino,right,España,Castellano,Bachelor degree,no,no,A,1,conjunction_syn,L2,syncopated,s1,r1,27,Online_conjL2_syn//b.fe.ra28.none.none.wav,go,te,ñu,du,sil,ba,mi,me,sil1,ño,sil2,['-'],,,none,none,,,,fe,1,testConjL3Uns//r2.s2.1.wav,2.0,conjunction_un,unsyncopated,b,s2,rule,rule,L3,m,0.9669,4.0,0.0,0.5845,3.0,2.0,Castellano,0.0,Inglés,2.0,Francés,6.0,5.0,3.0,yes,yes,no,Bajo,16,,,nada ,68.0,yes
28,2024-02-27_10h47.21.286,Unsyncopated_study3,s120,21.0,feminino,right,España,Castellano,Bachelor degree,no,no,A,1,conjunction_syn,L2,syncopated,s1,r2,28,Online_conjL2_syn//d.si.ñu9.1110.1332.wav,fe,te,ño,ra,sil,si,ñu,bi,sil1,cha,sil2,['catch'],[1.7302000000490807],[1.7302000000490807],1.11,no_beat,0.6202000000490806,0.6202000000490806,"[""space""]",si,4,testConjL3Uns//r2.s2.0.wav,2.0,conjunction_un,unsyncopated,b,s2,rule,rule,L3,z,0.4699,6.0,1.0,0.8898,3.0,2.0,Castellano,0.0,Inglés,2.0,Francés,6.0,5.0,3.0,yes,yes,no,Bajo,16,,,nada ,68.0,yes
29,2024-02-27_10h47.21.286,Unsyncopated_study3,s120,21.0,feminino,right,España,Castellano,Bachelor degree,no,no,A,1,conjunction_syn,L2,syncopated,s1,r2,29,Online_conjL2_syn//d.si.ñu11.none.none.wav,fe,me,ño,ra,sil,su,to,cha,sil1,bi,sil2,['-'],,,none,none,,,,si,4,testConjL3Uns//cat_viol.r2.s1.0.wav,2.0,conjunction_un,unsyncopated,b,s1,no_rule,cat,L3,z,0.8883,6.0,0.0,0.7082,3.0,2.0,Castellano,0.0,Inglés,2.0,Francés,6.0,5.0,3.0,yes,yes,no,Bajo,16,,,nada ,68.0,yes
30,2024-02-27_10h47.21.286,Unsyncopated_study3,s120,21.0,feminino,right,España,Castellano,Bachelor degree,no,no,A,1,conjunction_syn,L2,syncopated,s2,r1,30,Online_conjL2_syn//d.si.ñu10.none.none.wav,ño,te,me,go,sil,su,to,du,sil1,ba,sil2,['-'],,,none,none,,,,si,4,testConjL3Uns//time_viol.r1.s1.0.wav,2.0,conjunction_un,unsyncopated,a,s1,no_rule,time,L3,m,0.3045,6.0,1.0,1.6468,3.0,2.0,Castellano,0.0,Inglés,2.0,Francés,6.0,5.0,3.0,yes,yes,no,Bajo,16,,,nada ,68.0,yes
31,2024-02-27_10h47.21.286,Unsyncopated_study3,s120,21.0,feminino,right,España,Castellano,Bachelor degree,no,no,A,1,conjunction_syn,L2,syncopated,s1,r2,31,Online_conjL2_syn//d.si.ñu8.none.none.wav,fe,ba,bi,ra,sil,cha,ño,te,sil1,mi,sil2,['-'],,,none,none,,,,si,4,testConjL3Uns//r2.s1.0.wav,2.0,conjunction_un,unsyncopated,b,s1,rule,rule,L3,m,1.6354,5.0,0.0,2.1861,3.0,2.0,Castellano,0.0,Inglés,2.0,Francés,6.0,5.0,3.0,yes,yes,no,Bajo,16,,,nada ,68.0,yes
32,2024-02-27_10h47.21.286,Unsyncopated_study3,s120,21.0,feminino,right,España,Castellano,Bachelor degree,no,no,A,1,conjunction_syn,L2,syncopated,s2,r2,32,Online_conjL2_syn//a.go.du22.none.none.wav,to,cha,mi,fe,sil,bi,ba,ra,sil1,si,sil2,['-'],,,none,none,,,,du,2,testConjL3Uns//dep_viol.r2.s2.0.wav,2.0,conjunction_un,unsyncopated,b,s2,no_rule,dep,L3,m,1.7522,4.0,1.0,0.8685,3.0,2.0,Castellano,0.0,Inglés,2.0,Francés,6.0,5.0,3.0,yes,yes,no,Bajo,16,,,nada ,68.0,yes
33,2024-02-27_10h47.21.286,Unsyncopated_study3,s120,21.0,feminino,right,España,Castellano,Bachelor degree,no,no,A,1,conjunction_syn,L2,syncopated,s2,r2,33,Online_conjL2_syn//a.go.du20.none.none.wav,to,ba,me,fe,sil,su,te,ra,sil1,ñu,sil2,['false alarm'],[1.2252999999909662],[1.2252999999909662],none,none,,,"[""space""]",du,2,testConjL3Uns//dep_viol.r2.s1.0.wav,2.0,conjunction_un,unsyncopated,b,s1,no_rule,dep,L3,m,1.5399,5.0,1.0,0.4748,3.0,2.0,Castellano,0.0,Inglés,2.0,Francés,6.0,5.0,3.0,yes,yes,no,Bajo,16,,,nada ,68.0,yes
34,2024-02-27_10h47.21.286,Unsyncopated_study3,s120,21.0,feminino,right,España,Castellano,Bachelor degree,no,no,A,1,conjunction_syn,L2,syncopated,s2,r2,34,Online_conjL2_syn//a.go.du21.none.none.wav,cha,te,to,fe,sil,si,ba,ra,sil1,bi,sil2,['-'],,,none,none,,,,du,2,testConjL3Uns//r2.s1.2.wav,2.0,conjunction_un,unsyncopated,b,s1,rule,rule,L3,m,1.0191,5.0,0.0,0.5455,3.0,2.0,Castellano,0.0,Inglés,2.0,Francés,6.0,5.0,3.0,yes,yes,no,Bajo,16,,,nada ,68.0,yes
35,2024-02-27_10h47.21.286,Unsyncopated_study3,s120,21.0,feminino,right,España,Castellano,Bachelor degree,no,no,A,1,conjunction_syn,L2,syncopated,s1,r1,35,Online_conjL2_syn//a.go.du23.0.666.wav,go,te,ba,du,sil,bi,si,su,sil1,ñu,sil2,['catch'],[1.4450999998953193],[1.4450999998953193],0.666,no_beat,0.7790999998953193,0.7790999998953193,"[""space""]",du,2,testConjL3Uns//r2.s1.1.wav,2.0,conjunction_un,unsyncopated,b,s1,rule,rule,L3,z,0.1899,7.0,1.0,0.6348,3.0,2.0,Castellano,0.0,Inglés,2.0,Francés,6.0,5.0,3.0,yes,yes,no,Bajo,16,,,nada ,68.0,yes
36,2024-02-27_10h47.21.286,Unsyncopated_study3,s120,21.0,feminino,right,España,Castellano,Bachelor degree,no,no,A,1,conjunction_syn,L2,syncopated,s2,r2,36,Online_conjL2_syn//b.fe.ra5.666.1554.wav,ñu,te,to,fe,sil,ba,su,ra,sil1,mi,sil2,['catch'],[1.3489999999874271],[1.3489999999874271],0.666,no_beat,0.6829999999874271,0.6829999999874271,"[""space""]",fe,1,testConjL3Uns//r2.s2.2.wav,2.0,conjunction_un,unsyncopated,b,s2,rule,rule,L3,m,1.2262,6.0,0.0,0.4517,3.0,2.0,Castellano,0.0,Inglés,2.0,Francés,6.0,5.0,3.0,yes,yes,no,Bajo,16,,,nada ,68.0,yes
37,2024-02-27_10h47.21.286,Unsyncopated_study3,s120,21.0,feminino,right,España,Castellano,Bachelor degree,no,no,A,1,conjunction_syn,L2,syncopated,s2,r1,37,Online_conjL2_syn//b.fe.ra7.none.none.wav,ba,cha,me,go,sil,su,si,du,sil1,mi,sil2,['-'],,,none,none,,,,fe,1,testConjL3Uns//cat_viol.r1.s2.0.wav,2.0,conjunction_un,unsyncopated,a,s2,no_rule,cat,L3,m,1.0275,5.0,1.0,0.4143,3.0,2.0,Castellano,0.0,Inglés,2.0,Francés,6.0,5.0,3.0,yes,yes,no,Bajo,16,,,nada ,68.0,yes
38,2024-02-27_10h47.21.286,Unsyncopated_study3,s120,21.0,feminino,right,España,Castellano,Bachelor degree,no,no,A,1,conjunction_syn,L2,syncopated,s2,r1,38,Online_conjL2_syn//b.fe.ra4.none.none.wav,me,bi,ño,go,sil,ñu,to,du,sil1,te,sil2,['-'],,,none,none,,,,fe,1,testConjL3Uns//cat_viol.r2.s2.0.wav,2.0,conjunction_un,unsyncopated,b,s2,no_rule,cat,L3,z,0.4175,7.0,0.0,0.3841,3.0,2.0,Castellano,0.0,Inglés,2.0,Francés,6.0,5.0,3.0,yes,yes,no,Bajo,16,,,nada ,68.0,yes
39,2024-02-27_10h47.21.286,Unsyncopated_study3,s120,21.0,feminino,right,España,Castellano,Bachelor degree,no,no,A,1,conjunction_syn,L2,syncopated,s2,r1,39,Online_conjL2_syn//b.fe.ra6.none.none.wav,te,ño,ba,go,sil,ñu,cha,du,sil1,su,sil2,['-'],,,none,none,,,,fe,1,testConjL3Uns//r1.s2.1.wav,2.0,conjunction_un,unsyncopated,a,s2,rule,rule,L3,m,0.5173,5.0,0.0,0.7692,3.0,2.0,Castellano,0.0,Inglés,2.0,Francés,6.0,5.0,3.0,yes,yes,no,Bajo,16,,,nada ,68.0,yes
40,2024-02-27_10h47.21.286,Unsyncopated_study3,s120,21.0,feminino,right,España,Castellano,Bachelor degree,no,no,A,1,conjunction_syn,L2,syncopated,s1,r2,40,Online_conjL2_syn//b.fe.ra10.0.666.wav,fe,bi,cha,ra,sil,si,te,su,sil1,ba,sil2,['catch'],[0.7497999999322928],[0.7497999999322928],0.0,beat,0.7497999999322928,0.7497999999322928,"[""space""]",fe,1,testConjL3Uns//r1.s1.1.wav,2.0,conjunction_un,unsyncopated,a,s1,rule,rule,L3,m,0.6068,4.0,0.0,0.7939,3.0,2.0,Castellano,0.0,Inglés,2.0,Francés,6.0,5.0,3.0,yes,yes,no,Bajo,16,,,nada ,68.0,yes
41,2024-02-27_10h47.21.286,Unsyncopated_study3,s120,21.0,feminino,right,España,Castellano,Bachelor degree,no,no,A,1,conjunction_syn,L2,syncopated,s2,r2,41,Online_conjL2_syn//b.fe.ra8.666.1554.wav,to,mi,ño,fe,sil,cha,te,ra,sil1,me,sil2,['catch'],[1.4667999999364838],[1.4667999999364838],0.666,no_beat,0.8007999999364838,0.8007999999364838,"[""space""]",fe,1,testConjL3Uns//dep_viol.r1.s1.0.wav,2.0,conjunction_un,unsyncopated,a,s1,no_rule,dep,L3,m,0.6479,6.0,1.0,2.4394,3.0,2.0,Castellano,0.0,Inglés,2.0,Francés,6.0,5.0,3.0,yes,yes,no,Bajo,16,,,nada ,68.0,yes
42,2024-02-27_10h47.21.286,Unsyncopated_study3,s120,21.0,feminino,right,España,Castellano,Bachelor degree,no,no,A,1,conjunction_syn,L2,syncopated,s2,r2,42,Online_conjL2_syn//b.fe.ra9.666.1554.wav,cha,to,bi,fe,sil,ñu,me,ra,sil1,ño,sil2,['catch'],[1.4289000001153909],[1.4289000001153909],0.666,no_beat,0.7629000001153908,0.7629000001153908,"[""space""]",fe,1,testConjL3Uns//dep_viol.r1.s2.0.wav,2.0,conjunction_un,unsyncopated,a,s2,no_rule,dep,L3,z,1.858,3.0,0.0,1.0106,3.0,2.0,Castellano,0.0,Inglés,2.0,Francés,6.0,5.0,3.0,yes,yes,no,Bajo,16,,,nada ,68.0,yes
43,2024-02-27_10h47.21.286,Unsyncopated_study3,s120,21.0,feminino,right,España,Castellano,Bachelor degree,no,no,A,1,conjunction_syn,L2,syncopated,s1,r2,43,Online_conjL2_syn//b.fe.ra11.0.666.wav,fe,to,bi,ra,sil,mi,me,ñu,sil1,ba,sil2,['catch'],[0.8211000001174398],[0.8211000001174398],0.0,beat,0.8211000001174398,0.8211000001174398,"[""space""]",fe,1,testConjL3Uns//r1.s1.2.wav,2.0,conjunction_un,unsyncopated,a,s1,rule,rule,L3,z,0.6351,4.0,1.0,0.5179,3.0,2.0,Castellano,0.0,Inglés,2.0,Francés,6.0,5.0,3.0,yes,yes,no,Bajo,16,,,nada ,68.0,yes
44,2024-02-27_10h47.21.286,Unsyncopated_study3,s120,21.0,feminino,right,España,Castellano,Bachelor degree,no,no,A,1,conjunction_syn,L2,syncopated,s2,r1,44,Online_conjL2_syn//d.si.ñu22.1332.222.wav,ba,ñu,me,go,sil,ño,si,du,sil1,te,sil2,['catch'],[2.014299999922514],[2.014299999922514],1.332,no_beat,0.6822999999225139,0.6822999999225139,"[""space""]",si,4,testConjL3Uns//time_viol.r2.s2.0.wav,2.0,conjunction_un,unsyncopated,b,s2,no_rule,time,L3,z,0.3047,7.0,0.0,0.5954,3.0,2.0,Castellano,0.0,Inglés,2.0,Francés,6.0,5.0,3.0,yes,yes,no,Bajo,16,,,nada ,68.0,yes
45,2024-02-27_10h47.21.286,Unsyncopated_study3,s120,21.0,feminino,right,España,Castellano,Bachelor degree,no,no,A,1,conjunction_syn,L2,syncopated,s2,r2,45,Online_conjL2_syn//d.si.ñu23.0.444.wav,si,su,ñu,fe,sil,mi,ño,ra,sil1,cha,sil2,['catch'],[0.7784999999566935],[0.7784999999566935],0.0,beat,0.7784999999566935,0.7784999999566935,"[""space""]",si,4,testConjL3Uns//cat_viol.r1.s1.0.wav,2.0,conjunction_un,unsyncopated,a,s1,no_rule,cat,L3,z,0.8214,5.0,0.0,0.7875,3.0,2.0,Castellano,0.0,Inglés,2.0,Francés,6.0,5.0,3.0,yes,yes,no,Bajo,16,,,nada ,68.0,yes
46,2024-02-27_10h47.21.286,Unsyncopated_study3,s120,21.0,feminino,right,España,Castellano,Bachelor degree,no,no,A,1,conjunction_syn,L2,syncopated,s2,r1,46,Online_conjL2_syn//d.si.ñu20.1110.0.wav,ñu,ño,mi,go,sil,si,to,du,sil1,me,sil2,['catch'],[1.812899999844376],[1.812899999844376],1.11,no_beat,0.7028999998443759,0.7028999998443759,"[""space""]",si,4,testConjL3Uns//time_viol.r2.s1.0.wav,2.0,conjunction_un,unsyncopated,b,s1,no_rule,time,L3,m,0.902,5.0,1.0,1.2938,3.0,2.0,Castellano,0.0,Inglés,2.0,Francés,6.0,5.0,3.0,yes,yes,no,Bajo,16,,,nada ,68.0,yes
47,2024-02-27_10h47.21.286,Unsyncopated_study3,s120,21.0,feminino,right,España,Castellano,Bachelor degree,no,no,A,1,conjunction_syn,L2,syncopated,s2,r1,47,Online_conjL2_syn//d.si.ñu21.0.1110.wav,si,su,bi,go,sil,ñu,me,du,sil1,mi,sil2,['catch'],[1.1748999998671934],[1.1748999998671934],0.0,beat,1.1748999998671934,1.1748999998671934,"[""space""]",si,4,testConjL3Uns//time_viol.r1.s2.0.wav,2.0,conjunction_un,unsyncopated,a,s2,no_rule,time,L3,m,2.0692,6.0,1.0,0.654,3.0,2.0,Castellano,0.0,Inglés,2.0,Francés,6.0,5.0,3.0,yes,yes,no,Bajo,16,,,nada ,68.0,yes
48,2024-02-27_10h47.21.286,Unsyncopated_study3,s120,21.0,feminino,right,España,Castellano,Bachelor degree,no,no,A,1,conjunction_syn,L2,syncopated,s1,r1,48,Online_conjL2_syn//c.cha.me20.none.none.wav,go,mi,si,du,sil,bi,ba,ño,sil1,su,sil2,['-'],,,none,none,,,,cha,3,testWhenL1Uns//r2.s2.1.wav,3.0,when,unsyncopated,b,s2,rule,rule,L1,m,0.883,5.0,0.0,0.8392,3.0,2.0,Castellano,0.0,Inglés,2.0,Francés,6.0,5.0,3.0,yes,yes,no,Bajo,16,,,nada ,68.0,yes
49,2024-02-27_10h47.21.286,Unsyncopated_study3,s120,21.0,feminino,right,España,Castellano,Bachelor degree,no,no,A,1,conjunction_syn,L2,syncopated,s1,r2,49,Online_conjL2_syn//c.cha.me23.none.none.wav,fe,bi,ñu,ra,sil,ba,su,to,sil1,te,sil2,['false alarm'],[1.4063999998616055],[1.4063999998616055],none,none,,,"[""space""]",cha,3,testWhenL1Uns//r1.s2.1.wav,3.0,when,unsyncopated,a,s2,rule,rule,L1,z,0.8008,6.0,1.0,0.8188,3.0,2.0,Castellano,0.0,Inglés,2.0,Francés,6.0,5.0,3.0,yes,yes,no,Bajo,16,,,nada ,68.0,yes
50,2024-02-27_10h47.21.286,Unsyncopated_study3,s120,21.0,feminino,right,España,Castellano,Bachelor degree,no,no,A,1,conjunction_syn,L2,syncopated,s1,r1,50,Online_conjL2_syn//c.cha.me22.1554.444.wav,go,bi,me,du,sil,to,ba,cha,sil1,ño,sil2,['catch'],[2.3296000001137145],[2.3296000001137145],1.554,no_beat,0.7756000001137144,0.7756000001137144,"[""space""]",cha,3,testWhenL1Uns//r1.s1.0.wav,3.0,when,unsyncopated,a,s1,rule,rule,L1,z,3.1546,4.0,1.0,1.5551,3.0,2.0,Castellano,0.0,Inglés,2.0,Francés,6.0,5.0,3.0,yes,yes,no,Bajo,16,,,nada ,68.0,yes
51,2024-02-27_10h47.21.286,Unsyncopated_study3,s120,21.0,feminino,right,España,Castellano,Bachelor degree,no,no,A,1,conjunction_syn,L2,syncopated,s1,r2,51,Online_conjL2_syn//c.cha.me21.222.444.wav,fe,cha,me,ra,sil,su,ñu,to,sil1,mi,sil2,['catch'],[1.0709999999962747],[1.0709999999962747],0.222,no_beat,0.8489999999962747,0.8489999999962747,"[""space""]",cha,3,testWhenL1Uns//cat_viol.r1.s1.0.wav,3.0,when,unsyncopated,a,s1,no_rule,cat,L1,m,1.0508,4.0,0.0,1.1117,3.0,2.0,Castellano,0.0,Inglés,2.0,Francés,6.0,5.0,3.0,yes,yes,no,Bajo,16,,,nada ,68.0,yes
52,2024-02-27_10h47.21.286,Unsyncopated_study3,s120,21.0,feminino,right,España,Castellano,Bachelor degree,no,no,A,1,conjunction_syn,L2,syncopated,s1,r2,52,Online_conjL2_syn//a.go.du2.none.none.wav,fe,me,to,ra,sil,mi,te,ñu,sil1,ño,sil2,['-'],,,none,none,,,,du,2,testWhenL1Uns//r2.s2.2.wav,3.0,when,unsyncopated,b,s2,rule,rule,L1,m,2.4924,3.0,0.0,0.7326,3.0,2.0,Castellano,0.0,Inglés,2.0,Francés,6.0,5.0,3.0,yes,yes,no,Bajo,16,,,nada ,68.0,yes
53,2024-02-27_10h47.21.286,Unsyncopated_study3,s120,21.0,feminino,right,España,Castellano,Bachelor degree,no,no,A,1,conjunction_syn,L2,syncopated,s1,r1,53,Online_conjL2_syn//a.go.du0.0.666.wav,go,me,bi,du,sil,te,su,ba,sil1,cha,sil2,['catch'],[1.5083000002196059],[1.5083000002196059],0.666,no_beat,0.8423000002196058,0.8423000002196058,"[""space""]",du,2,testWhenL1Uns//dep_viol.r2.s1.0.wav,3.0,when,unsyncopated,b,s1,no_rule,dep,L1,z,0.4873,5.0,1.0,0.5191,3.0,2.0,Castellano,0.0,Inglés,2.0,Francés,6.0,5.0,3.0,yes,yes,no,Bajo,16,,,nada ,68.0,yes
54,2024-02-27_10h47.21.286,Unsyncopated_study3,s120,21.0,feminino,right,España,Castellano,Bachelor degree,no,no,A,1,conjunction_syn,L2,syncopated,s2,r1,54,Online_conjL2_syn//a.go.du3.666.1554.wav,su,bi,te,go,sil,ñu,mi,du,sil1,si,sil2,['catch'],[2.3567999999504536],[2.3567999999504536],1.554,no_beat,0.8027999999504536,0.8027999999504536,"[""space""]",du,2,testWhenL1Uns//dep_viol.r2.s2.0.wav,3.0,when,unsyncopated,b,s2,no_rule,dep,L1,z,0.4013,4.0,1.0,0.4362,3.0,2.0,Castellano,0.0,Inglés,2.0,Francés,6.0,5.0,3.0,yes,yes,no,Bajo,16,,,nada ,68.0,yes
55,2024-02-27_10h47.21.286,Unsyncopated_study3,s120,21.0,feminino,right,España,Castellano,Bachelor degree,no,no,A,1,conjunction_syn,L2,syncopated,s2,r1,55,Online_conjL2_syn//a.go.du1.666.1554.wav,su,me,mi,go,sil,ño,cha,du,sil1,te,sil2,['catch'],[2.5727000000188127],[2.5727000000188127],1.554,no_beat,1.018700000018813,1.018700000018813,"[""space""]",du,2,testWhenL1Uns//r1.s1.1.wav,3.0,when,unsyncopated,a,s1,rule,rule,L1,z,0.5848,7.0,1.0,1.0107,3.0,2.0,Castellano,0.0,Inglés,2.0,Francés,6.0,5.0,3.0,yes,yes,no,Bajo,16,,,nada ,68.0,yes
56,2024-02-27_10h47.21.286,Unsyncopated_study3,s120,21.0,feminino,right,España,Castellano,Bachelor degree,no,no,A,1,conjunction_syn,L2,syncopated,s2,r1,56,Online_conjL2_syn//a.go.du24.666.1554.wav,ño,ñu,si,go,sil,me,su,du,sil1,te,sil2,['catch'],[2.380699999805074],[2.380699999805074],1.554,no_beat,0.8266999998050741,0.8266999998050741,"[""space""]",du,2,testWhenL1Uns//r2.s1.0.wav,3.0,when,unsyncopated,b,s1,rule,rule,L1,z,0.7885,6.0,1.0,0.6052,3.0,2.0,Castellano,0.0,Inglés,2.0,Francés,6.0,5.0,3.0,yes,yes,no,Bajo,16,,,nada ,68.0,yes
57,2024-02-27_10h47.21.286,Unsyncopated_study3,s120,21.0,feminino,right,España,Castellano,Bachelor degree,no,no,A,1,conjunction_syn,L2,syncopated,s1,r2,57,Online_conjL2_syn//a.go.du26.none.none.wav,fe,ba,su,ra,sil,bi,me,ñu,sil1,cha,sil2,['-'],,,none,none,,,,du,2,testWhenL1Uns//r1.s2.0.wav,3.0,when,unsyncopated,a,s2,rule,rule,L1,m,0.5602,3.0,0.0,0.9061,3.0,2.0,Castellano,0.0,Inglés,2.0,Francés,6.0,5.0,3.0,yes,yes,no,Bajo,16,,,nada ,68.0,yes
58,2024-02-27_10h47.21.286,Unsyncopated_study3,s120,21.0,feminino,right,España,Castellano,Bachelor degree,no,no,A,1,conjunction_syn,L2,syncopated,s1,r1,58,Online_conjL2_syn//a.go.du27.0.666.wav,go,te,ñu,du,sil,bi,ño,su,sil1,me,sil2,['miss'],,,0.666,no_beat,,,,du,2,testWhenL1Uns//r1.s2.2.wav,3.0,when,unsyncopated,a,s2,rule,rule,L1,z,1.0524,5.0,1.0,1.1904,3.0,2.0,Castellano,0.0,Inglés,2.0,Francés,6.0,5.0,3.0,yes,yes,no,Bajo,16,,,nada ,68.0,yes
59,2024-02-27_10h47.21.286,Unsyncopated_study3,s120,21.0,feminino,right,España,Castellano,Bachelor degree,no,no,A,1,conjunction_syn,L2,syncopated,s1,r2,59,Online_conjL2_syn//a.go.du25.none.none.wav,fe,ba,to,ra,sil,me,cha,si,sil1,ño,sil2,['-'],,,none,none,,,,du,2,testWhenL1Uns//cat_viol.r2.s2.0.wav,3.0,when,unsyncopated,b,s2,no_rule,cat,L1,m,2.6347,5.0,0.0,1.07,3.0,2.0,Castellano,0.0,Inglés,2.0,Francés,6.0,5.0,3.0,yes,yes,no,Bajo,16,,,nada ,68.0,yes
60,2024-02-27_10h47.21.286,Unsyncopated_study3,s120,21.0,feminino,right,España,Castellano,Bachelor degree,no,no,A,1,conjunction_syn,L2,syncopated,s2,r1,60,Online_conjL2_syn//b.fe.ra24.none.none.wav,ñu,me,cha,go,sil,ba,to,du,sil1,si,sil2,['-'],,,none,none,,,,fe,1,testWhenL1Uns//dep_viol.r1.s2.0.wav,3.0,when,unsyncopated,a,s2,no_rule,dep,L1,m,7.1347,5.0,0.0,0.6016,3.0,2.0,Castellano,0.0,Inglés,2.0,Francés,6.0,5.0,3.0,yes,yes,no,Bajo,16,,,nada ,68.0,yes
61,2024-02-27_10h47.21.286,Unsyncopated_study3,s120,21.0,feminino,right,España,Castellano,Bachelor degree,no,no,A,1,conjunction_syn,L2,syncopated,s1,r1,61,Online_conjL2_syn//b.fe.ra25.none.none.wav,go,to,mi,du,sil,me,ba,si,sil1,su,sil2,['-'],,,none,none,,,,fe,1,testWhenL1Uns//cat_viol.r2.s1.0.wav,3.0,when,unsyncopated,b,s1,no_rule,cat,L1,m,0.652,7.0,0.0,1.1506,3.0,2.0,Castellano,0.0,Inglés,2.0,Francés,6.0,5.0,3.0,yes,yes,no,Bajo,16,,,nada ,68.0,yes
62,2024-02-27_10h47.21.286,Unsyncopated_study3,s120,21.0,feminino,right,España,Castellano,Bachelor degree,no,no,A,1,conjunction_syn,L2,syncopated,s1,r2,62,Online_conjL2_syn//b.fe.ra27.0.666.wav,fe,ñu,si,ra,sil,ño,to,te,sil1,su,sil2,['catch'],[0.805700000084471],[0.805700000084471],0.0,beat,0.805700000084471,0.805700000084471,"[""space""]",fe,1,testWhenL1Uns//r1.s1.2.wav,3.0,when,unsyncopated,a,s1,rule,rule,L1,z,1.7514,7.0,1.0,0.9353,3.0,2.0,Castellano,0.0,Inglés,2.0,Francés,6.0,5.0,3.0,yes,yes,no,Bajo,16,,,nada ,68.0,yes
63,2024-02-27_10h47.21.286,Unsyncopated_study3,s120,21.0,feminino,right,España,Castellano,Bachelor degree,no,no,A,1,conjunction_syn,L2,syncopated,s1,r1,63,Online_conjL2_syn//b.fe.ra26.none.none.wav,go,ño,mi,du,sil,me,si,bi,sil1,ba,sil2,['-'],,,none,none,,,,fe,1,testWhenL1Uns//time_viol.r2.s1.0.wav,3.0,when,unsyncopated,b,s1,no_rule,time,L1,m,0.6357,3.0,0.0,2.2798,3.0,2.0,Castellano,0.0,Inglés,2.0,Francés,6.0,5.0,3.0,yes,yes,no,Bajo,16,,,nada ,68.0,yes
64,2024-02-27_10h47.21.286,Unsyncopated_study3,s120,21.0,feminino,right,España,Castellano,Bachelor degree,no,no,A,1,conjunction_syn,L2,syncopated,s2,r1,64,Online_conjL2_syn//a.go.du14.666.1554.wav,si,ba,me,go,sil,ño,su,du,sil1,to,sil2,['catch'],[2.3664999999455176],[2.3664999999455176],1.554,no_beat,0.8124999999455176,0.8124999999455176,"[""space""]",du,2,testWhenL1Uns//dep_viol.r1.s1.0.wav,3.0,when,unsyncopated,a,s1,no_rule,dep,L1,z,2.5331,2.0,1.0,1.0058,3.0,2.0,Castellano,0.0,Inglés,2.0,Francés,6.0,5.0,3.0,yes,yes,no,Bajo,16,,,nada ,68.0,yes
65,2024-02-27_10h47.21.286,Unsyncopated_study3,s120,21.0,feminino,right,España,Castellano,Bachelor degree,no,no,A,1,conjunction_syn,L2,syncopated,s2,r1,65,Online_conjL2_syn//a.go.du12.666.1554.wav,cha,bi,te,go,sil,ba,ñu,du,sil1,si,sil2,['catch'],[2.4237999999313615],[2.4237999999313615],1.554,no_beat,0.8697999999313615,0.8697999999313615,"[""space""]",du,2,testWhenL1Uns//r2.s1.1.wav,3.0,when,unsyncopated,b,s1,rule,rule,L1,z,1.7918,6.0,1.0,1.6196,3.0,2.0,Castellano,0.0,Inglés,2.0,Francés,6.0,5.0,3.0,yes,yes,no,Bajo,16,,,nada ,68.0,yes
66,2024-02-27_10h47.21.286,Unsyncopated_study3,s120,21.0,feminino,right,España,Castellano,Bachelor degree,no,no,A,1,conjunction_syn,L2,syncopated,s1,r1,66,Online_conjL2_syn//a.go.du15.0.666.wav,go,bi,cha,du,sil,su,si,ño,sil1,me,sil2,['miss'],,,0.666,no_beat,,,,du,2,testWhenL1Uns//cat_viol.r1.s2.0.wav,3.0,when,unsyncopated,a,s2,no_rule,cat,L1,m,1.9068,1.0,0.0,1.3889,3.0,2.0,Castellano,0.0,Inglés,2.0,Francés,6.0,5.0,3.0,yes,yes,no,Bajo,16,,,nada ,68.0,yes
67,2024-02-27_10h47.21.286,Unsyncopated_study3,s120,21.0,feminino,right,España,Castellano,Bachelor degree,no,no,A,1,conjunction_syn,L2,syncopated,s2,r1,67,Online_conjL2_syn//a.go.du13.666.1554.wav,su,bi,ba,go,sil,ño,to,du,sil1,te,sil2,['catch'],[2.5039000000688247],[2.5039000000688247],1.554,no_beat,0.9499000000688248,0.9499000000688248,"[""space""]",du,2,testWhenL1Uns//r2.s2.0.wav,3.0,when,unsyncopated,b,s2,rule,rule,L1,m,1.2517,4.0,0.0,0.9858,3.0,2.0,Castellano,0.0,Inglés,2.0,Francés,6.0,5.0,3.0,yes,yes,no,Bajo,16,,,nada ,68.0,yes
68,2024-02-27_10h47.21.286,Unsyncopated_study3,s120,21.0,feminino,right,España,Castellano,Bachelor degree,no,no,A,1,conjunction_syn,L2,syncopated,s1,r2,68,Online_conjL2_syn//a.go.du7.none.none.wav,fe,mi,ñu,ra,sil,ño,ba,me,sil1,su,sil2,['-'],,,none,none,,,,du,2,testWhenL1Uns//r2.s1.2.wav,3.0,when,unsyncopated,b,s1,rule,rule,L1,m,1.2699,2.0,0.0,0.5197,3.0,2.0,Castellano,0.0,Inglés,2.0,Francés,6.0,5.0,3.0,yes,yes,no,Bajo,16,,,nada ,68.0,yes
69,2024-02-27_10h47.21.286,Unsyncopated_study3,s120,21.0,feminino,right,España,Castellano,Bachelor degree,no,no,A,1,conjunction_syn,L2,syncopated,s2,r1,69,Online_conjL2_syn//a.go.du4.666.1554.wav,mi,si,te,go,sil,ño,to,du,sil1,ñu,sil2,['catch'],[2.4070999998948537],[2.4070999998948537],1.554,no_beat,0.8530999998948536,0.8530999998948536,"[""space""]",du,2,testWhenL1Uns//time_viol.r1.s2.0.wav,3.0,when,unsyncopated,a,s2,no_rule,time,L1,m,3.2522,5.0,0.0,0.7867,3.0,2.0,Castellano,0.0,Inglés,2.0,Francés,6.0,5.0,3.0,yes,yes,no,Bajo,16,,,nada ,68.0,yes
70,2024-02-27_10h47.21.286,Unsyncopated_study3,s120,21.0,feminino,right,España,Castellano,Bachelor degree,no,no,A,1,conjunction_syn,L2,syncopated,s1,r2,70,Online_conjL2_syn//a.go.du5.none.none.wav,fe,ñu,cha,ra,sil,te,ño,ba,sil1,si,sil2,['-'],,,none,none,,,,du,2,testWhenL1Uns//time_viol.r1.s1.0.wav,3.0,when,unsyncopated,a,s1,no_rule,time,L1,m,1.8545,6.0,0.0,0.9505,3.0,2.0,Castellano,0.0,Inglés,2.0,Francés,6.0,5.0,3.0,yes,yes,no,Bajo,16,,,nada ,68.0,yes
71,2024-02-27_10h47.21.286,Unsyncopated_study3,s120,21.0,feminino,right,España,Castellano,Bachelor degree,no,no,A,1,conjunction_syn,L2,syncopated,s1,r1,71,Online_conjL2_syn//a.go.du6.0.666.wav,go,bi,to,du,sil,me,su,ba,sil1,te,sil2,['catch'],[1.5750000000116415],[1.5750000000116415],0.666,no_beat,0.9090000000116416,0.9090000000116416,"[""space""]",du,2,testWhenL1Uns//time_viol.r2.s2.0.wav,3.0,when,unsyncopated,b,s2,no_rule,time,L1,m,2.0194,6.0,0.0,0.7013,3.0,2.0,Castellano,0.0,Inglés,2.0,Francés,6.0,5.0,3.0,yes,yes,no,Bajo,16,,,nada ,68.0,yes
72,2024-02-27_10h47.21.286,Unsyncopated_study3,s120,21.0,feminino,right,España,Castellano,Bachelor degree,no,no,A,1,conjunction_syn,L2,syncopated,s2,r2,72,Online_conjL2_syn//c.cha.me31.0.1110.wav,cha,ño,si,fe,sil,me,ba,ra,sil1,su,sil2,['catch'],[0.8513999998685904],[0.8513999998685904],0.0,beat,0.8513999998685904,0.8513999998685904,"[""space""]",cha,3,testWhatL4Uns//r2.s2.0.wav,4.0,what,unsyncopated,b,s2,rule,rule,L4,z,0.816,6.0,1.0,1.162,3.0,2.0,Castellano,0.0,Inglés,2.0,Francés,6.0,5.0,3.0,yes,yes,no,Bajo,16,,,nada ,68.0,yes
73,2024-02-27_10h47.21.286,Unsyncopated_study3,s120,21.0,feminino,right,España,Castellano,Bachelor degree,no,no,A,1,conjunction_syn,L2,syncopated,s2,r2,73,Online_conjL2_syn//c.cha.me30.none.none.wav,to,ño,su,fe,sil,te,bi,ra,sil1,ñu,sil2,['-'],,,none,none,,,,cha,3,testWhatL4Uns//r2.s2.1.wav,4.0,what,unsyncopated,b,s2,rule,rule,L4,z,0.7691,5.0,1.0,0.565,3.0,2.0,Castellano,0.0,Inglés,2.0,Francés,6.0,5.0,3.0,yes,yes,no,Bajo,16,,,nada ,68.0,yes
74,2024-02-27_10h47.21.286,Unsyncopated_study3,s120,21.0,feminino,right,España,Castellano,Bachelor degree,no,no,A,1,conjunction_syn,L2,syncopated,s2,r1,74,Online_conjL2_syn//c.cha.me28.none.none.wav,su,te,ba,go,sil,mi,to,du,sil1,ño,sil2,['-'],,,none,none,,,,cha,3,testWhatL4Uns//time_viol.r2.s1.0.wav,4.0,what,unsyncopated,b,s1,no_rule,time,L4,m,0.7024,6.0,1.0,1.6353,3.0,2.0,Castellano,0.0,Inglés,2.0,Francés,6.0,5.0,3.0,yes,yes,no,Bajo,16,,,nada ,68.0,yes
75,2024-02-27_10h47.21.286,Unsyncopated_study3,s120,21.0,feminino,right,España,Castellano,Bachelor degree,no,no,A,1,conjunction_syn,L2,syncopated,s2,r2,75,Online_conjL2_syn//c.cha.me29.none.none.wav,te,bi,to,fe,sil,ño,si,ra,sil1,mi,sil2,['-'],,,none,none,,,,cha,3,testWhatL4Uns//r1.s1.0.wav,4.0,what,unsyncopated,a,s1,rule,rule,L4,m,0.6204,2.0,0.0,0.5513,3.0,2.0,Castellano,0.0,Inglés,2.0,Francés,6.0,5.0,3.0,yes,yes,no,Bajo,16,,,nada ,68.0,yes
76,2024-02-27_10h47.21.286,Unsyncopated_study3,s120,21.0,feminino,right,España,Castellano,Bachelor degree,no,no,A,1,conjunction_syn,L2,syncopated,s1,r1,76,Online_conjL2_syn//d.si.ñu3.none.none.wav,go,to,cha,du,sil,bi,te,mi,sil1,ño,sil2,['-'],,,none,none,,,,si,4,testWhatL4Uns//dep_viol.r2.s2.0.wav,4.0,what,unsyncopated,b,s2,no_rule,dep,L4,m,0.656,3.0,1.0,0.6377,3.0,2.0,Castellano,0.0,Inglés,2.0,Francés,6.0,5.0,3.0,yes,yes,no,Bajo,16,,,nada ,68.0,yes
77,2024-02-27_10h47.21.286,Unsyncopated_study3,s120,21.0,feminino,right,España,Castellano,Bachelor degree,no,no,A,1,conjunction_syn,L2,syncopated,s1,r2,77,Online_conjL2_syn//d.si.ñu2.none.none.wav,fe,bi,me,ra,sil,te,mi,to,sil1,cha,sil2,['-'],,,none,none,,,,si,4,testWhatL4Uns//r1.s1.2.wav,4.0,what,unsyncopated,a,s1,rule,rule,L4,z,0.8337,7.0,1.0,0.4694,3.0,2.0,Castellano,0.0,Inglés,2.0,Francés,6.0,5.0,3.0,yes,yes,no,Bajo,16,,,nada ,68.0,yes
78,2024-02-27_10h47.21.286,Unsyncopated_study3,s120,21.0,feminino,right,España,Castellano,Bachelor degree,no,no,A,1,conjunction_syn,L2,syncopated,s1,r1,78,Online_conjL2_syn//d.si.ñu1.none.none.wav,go,te,ba,du,sil,bi,mi,me,sil1,to,sil2,['-'],,,none,none,,,,si,4,testWhatL4Uns//r2.s1.2.wav,4.0,what,unsyncopated,b,s1,rule,rule,L4,m,0.9359,1.0,0.0,3.3127,3.0,2.0,Castellano,0.0,Inglés,2.0,Francés,6.0,5.0,3.0,yes,yes,no,Bajo,16,,,nada ,68.0,yes
79,2024-02-27_10h47.21.286,Unsyncopated_study3,s120,21.0,feminino,right,España,Castellano,Bachelor degree,no,no,A,1,conjunction_syn,L2,syncopated,s1,r1,79,Online_conjL2_syn//d.si.ñu0.1554.1110.wav,go,su,bi,du,sil,ñu,ba,si,sil1,ño,sil2,['miss'],,,1.554,no_beat,,,,si,4,testWhatL4Uns//r1.s2.0.wav,4.0,what,unsyncopated,a,s2,rule,rule,L4,z,1.9733,3.0,1.0,1.5375,3.0,2.0,Castellano,0.0,Inglés,2.0,Francés,6.0,5.0,3.0,yes,yes,no,Bajo,16,,,nada ,68.0,yes
80,2024-02-27_10h47.21.286,Unsyncopated_study3,s120,21.0,feminino,right,España,Castellano,Bachelor degree,no,no,A,1,conjunction_syn,L2,syncopated,s1,r1,80,Online_conjL2_syn//c.cha.me13.222.1110.wav,go,cha,su,du,sil,me,ño,ñu,sil1,mi,sil2,['miss'],,,0.222,no_beat,,,,cha,3,testWhatL4Uns//cat_viol.r1.s1.0.wav,4.0,what,unsyncopated,a,s1,no_rule,cat,L4,z,0.8206,6.0,0.0,0.5409,3.0,2.0,Castellano,0.0,Inglés,2.0,Francés,6.0,5.0,3.0,yes,yes,no,Bajo,16,,,nada ,68.0,yes
81,2024-02-27_10h47.21.286,Unsyncopated_study3,s120,21.0,feminino,right,España,Castellano,Bachelor degree,no,no,A,1,conjunction_syn,L2,syncopated,s1,r1,81,Online_conjL2_syn//c.cha.me12.none.none.wav,go,te,ño,du,sil,bi,ñu,to,sil1,mi,sil2,['-'],,,none,none,,,,cha,3,testWhatL4Uns//r2.s1.0.wav,4.0,what,unsyncopated,b,s1,rule,rule,L4,z,4.5489,7.0,1.0,0.5187,3.0,2.0,Castellano,0.0,Inglés,2.0,Francés,6.0,5.0,3.0,yes,yes,no,Bajo,16,,,nada ,68.0,yes
82,2024-02-27_10h47.21.286,Unsyncopated_study3,s120,21.0,feminino,right,España,Castellano,Bachelor degree,no,no,A,1,conjunction_syn,L2,syncopated,s1,r2,82,Online_conjL2_syn//c.cha.me14.none.none.wav,fe,to,su,ra,sil,si,te,mi,sil1,bi,sil2,['-'],,,none,none,,,,cha,3,testWhatL4Uns//time_viol.r1.s2.0.wav,4.0,what,unsyncopated,a,s2,no_rule,time,L4,z,0.8844,4.0,0.0,1.0845,3.0,2.0,Castellano,0.0,Inglés,2.0,Francés,6.0,5.0,3.0,yes,yes,no,Bajo,16,,,nada ,68.0,yes
83,2024-02-27_10h47.21.286,Unsyncopated_study3,s120,21.0,feminino,right,España,Castellano,Bachelor degree,no,no,A,1,conjunction_syn,L2,syncopated,s1,r2,83,Online_conjL2_syn//c.cha.me15.222.1110.wav,fe,cha,si,ra,sil,me,su,ba,sil1,ñu,sil2,['catch'],[0.9745000000111759],[0.9745000000111759],0.222,no_beat,0.7525000000111759,0.7525000000111759,"[""space""]",cha,3,testWhatL4Uns//time_viol.r1.s1.0.wav,4.0,what,unsyncopated,a,s1,no_rule,time,L4,m,0.8342,6.0,1.0,0.8991,3.0,2.0,Castellano,0.0,Inglés,2.0,Francés,6.0,5.0,3.0,yes,yes,no,Bajo,16,,,nada ,68.0,yes
84,2024-02-27_10h47.21.286,Unsyncopated_study3,s120,21.0,feminino,right,España,Castellano,Bachelor degree,no,no,A,1,conjunction_syn,L2,syncopated,s1,r1,84,Online_conjL2_syn//d.si.ñu31.none.none.wav,go,me,ño,du,sil,ba,te,mi,sil1,cha,sil2,['-'],,,none,none,,,,si,4,testWhatL4Uns//cat_viol.r2.s1.0.wav,4.0,what,unsyncopated,b,s1,no_rule,cat,L4,z,0.5932,7.0,0.0,0.5661,3.0,2.0,Castellano,0.0,Inglés,2.0,Francés,6.0,5.0,3.0,yes,yes,no,Bajo,16,,,nada ,68.0,yes
85,2024-02-27_10h47.21.286,Unsyncopated_study3,s120,21.0,feminino,right,España,Castellano,Bachelor degree,no,no,A,1,conjunction_syn,L2,syncopated,s1,r1,85,Online_conjL2_syn//d.si.ñu30.222.1332.wav,go,si,te,du,sil,ño,ñu,mi,sil1,bi,sil2,['catch'],[1.022399999841582],[1.022399999841582],0.222,no_beat,0.800399999841582,0.800399999841582,"[""space""]",si,4,testWhatL4Uns//dep_viol.r2.s1.0.wav,4.0,what,unsyncopated,b,s1,no_rule,dep,L4,m,1.3177,7.0,1.0,0.769,3.0,2.0,Castellano,0.0,Inglés,2.0,Francés,6.0,5.0,3.0,yes,yes,no,Bajo,16,,,nada ,68.0,yes
86,2024-02-27_10h47.21.286,Unsyncopated_study3,s120,21.0,feminino,right,España,Castellano,Bachelor degree,no,no,A,1,conjunction_syn,L2,syncopated,s1,r2,86,Online_conjL2_syn//d.si.ñu28.1554.1110.wav,fe,te,su,ra,sil,ñu,bi,si,sil1,mi,sil2,['miss'],,,1.554,no_beat,,,,si,4,testWhatL4Uns//r1.s2.1.wav,4.0,what,unsyncopated,a,s2,rule,rule,L4,z,1.0165,7.0,1.0,0.5683,3.0,2.0,Castellano,0.0,Inglés,2.0,Francés,6.0,5.0,3.0,yes,yes,no,Bajo,16,,,nada ,68.0,yes
87,2024-02-27_10h47.21.286,Unsyncopated_study3,s120,21.0,feminino,right,España,Castellano,Bachelor degree,no,no,A,1,conjunction_syn,L2,syncopated,s1,r1,87,Online_conjL2_syn//d.si.ñu29.1554.222.wav,go,ñu,me,du,sil,ño,mi,si,sil1,to,sil2,['catch'],[2.358799999987241],[2.358799999987241],1.554,no_beat,0.8047999999872408,0.8047999999872408,"[""space""]",si,4,testWhatL4Uns//r2.s1.1.wav,4.0,what,unsyncopated,b,s1,rule,rule,L4,z,1.1482,6.0,1.0,0.5596,3.0,2.0,Castellano,0.0,Inglés,2.0,Francés,6.0,5.0,3.0,yes,yes,no,Bajo,16,,,nada ,68.0,yes
88,2024-02-27_10h47.21.286,Unsyncopated_study3,s120,21.0,feminino,right,España,Castellano,Bachelor degree,no,no,A,1,conjunction_syn,L2,syncopated,s2,r1,88,Online_conjL2_syn//b.fe.ra2.none.none.wav,te,to,bi,go,sil,cha,ñu,du,sil1,su,sil2,['-'],,,none,none,,,,fe,1,testWhatL4Uns//r2.s2.2.wav,4.0,what,unsyncopated,b,s2,rule,rule,L4,z,1.8604,6.0,1.0,0.7054,3.0,2.0,Castellano,0.0,Inglés,2.0,Francés,6.0,5.0,3.0,yes,yes,no,Bajo,16,,,nada ,68.0,yes
89,2024-02-27_10h47.21.286,Unsyncopated_study3,s120,21.0,feminino,right,España,Castellano,Bachelor degree,no,no,A,1,conjunction_syn,L2,syncopated,s2,r2,89,Online_conjL2_syn//b.fe.ra0.666.1554.wav,te,si,ba,fe,sil,mi,ño,ra,sil1,cha,sil2,['catch'],[0.9940000000060536],[0.9940000000060536],0.666,no_beat,0.3280000000060535,0.3280000000060535,"[""space""]",fe,1,testWhatL4Uns//r1.s1.1.wav,4.0,what,unsyncopated,a,s1,rule,rule,L4,m,0.6836,4.0,0.0,0.3519,3.0,2.0,Castellano,0.0,Inglés,2.0,Francés,6.0,5.0,3.0,yes,yes,no,Bajo,16,,,nada ,68.0,yes
90,2024-02-27_10h47.21.286,Unsyncopated_study3,s120,21.0,feminino,right,España,Castellano,Bachelor degree,no,no,A,1,conjunction_syn,L2,syncopated,s1,r2,90,Online_conjL2_syn//b.fe.ra1.0.666.wav,fe,to,bi,ra,sil,me,te,su,sil1,ño,sil2,['catch'],[0.8870999999344349],[0.8870999999344349],0.0,beat,0.8870999999344349,0.8870999999344349,"[""space""]",fe,1,testWhatL4Uns//cat_viol.r2.s2.0.wav,4.0,what,unsyncopated,b,s2,no_rule,cat,L4,m,1.3244,4.0,1.0,0.403,3.0,2.0,Castellano,0.0,Inglés,2.0,Francés,6.0,5.0,3.0,yes,yes,no,Bajo,16,,,nada ,68.0,yes
91,2024-02-27_10h47.21.286,Unsyncopated_study3,s120,21.0,feminino,right,España,Castellano,Bachelor degree,no,no,A,1,conjunction_syn,L2,syncopated,s2,r2,91,Online_conjL2_syn//b.fe.ra3.666.1554.wav,cha,ba,ñu,fe,sil,me,ño,ra,sil1,bi,sil2,['catch'],[1.0912999999709427],[1.0912999999709427],0.666,no_beat,0.4252999999709427,0.4252999999709427,"[""space""]",fe,1,testWhatL4Uns//cat_viol.r1.s2.0.wav,4.0,what,unsyncopated,a,s2,no_rule,cat,L4,m,4.7858,3.0,1.0,0.9191,3.0,2.0,Castellano,0.0,Inglés,2.0,Francés,6.0,5.0,3.0,yes,yes,no,Bajo,16,,,nada ,68.0,yes
92,2024-02-27_10h47.21.286,Unsyncopated_study3,s120,21.0,feminino,right,España,Castellano,Bachelor degree,no,no,A,1,conjunction_syn,L2,syncopated,s1,r1,92,Online_conjL2_syn//d.si.ñu4.none.none.wav,go,su,to,du,sil,bi,me,cha,sil1,mi,sil2,['-'],,,none,none,,,,si,4,testWhatL4Uns//time_viol.r2.s2.0.wav,4.0,what,unsyncopated,b,s2,no_rule,time,L4,z,1.2677,2.0,0.0,1.5197,3.0,2.0,Castellano,0.0,Inglés,2.0,Francés,6.0,5.0,3.0,yes,yes,no,Bajo,16,,,nada ,68.0,yes
93,2024-02-27_10h47.21.286,Unsyncopated_study3,s120,21.0,feminino,right,España,Castellano,Bachelor degree,no,no,A,1,conjunction_syn,L2,syncopated,s1,r2,93,Online_conjL2_syn//d.si.ñu6.1110.1332.wav,fe,ño,bi,ra,sil,si,ñu,te,sil1,me,sil2,['catch'],[1.8231999998097308],[1.8231999998097308],1.11,no_beat,0.7131999998097307,0.7131999998097307,"[""space""]",si,4,testWhatL4Uns//dep_viol.r1.s2.0.wav,4.0,what,unsyncopated,a,s2,no_rule,dep,L4,m,3.8841,4.0,1.0,1.036,3.0,2.0,Castellano,0.0,Inglés,2.0,Francés,6.0,5.0,3.0,yes,yes,no,Bajo,16,,,nada ,68.0,yes
94,2024-02-27_10h47.21.286,Unsyncopated_study3,s120,21.0,feminino,right,España,Castellano,Bachelor degree,no,no,A,1,conjunction_syn,L2,syncopated,s1,r1,94,Online_conjL2_syn//d.si.ñu7.444.1110.wav,go,to,si,du,sil,ñu,te,mi,sil1,su,sil2,['catch'],[1.4103999998769723],[1.4103999998769723],0.444,no_beat,0.9663999998769724,0.9663999998769724,"[""space""]",si,4,testWhatL4Uns//r1.s2.2.wav,4.0,what,unsyncopated,a,s2,rule,rule,L4,z,1.8881,6.0,1.0,0.3381,3.0,2.0,Castellano,0.0,Inglés,2.0,Francés,6.0,5.0,3.0,yes,yes,no,Bajo,16,,,nada ,68.0,yes
95,2024-02-27_10h47.21.286,Unsyncopated_study3,s120,21.0,feminino,right,España,Castellano,Bachelor degree,no,no,A,1,conjunction_syn,L2,syncopated,s2,r2,95,Online_conjL2_syn//d.si.ñu5.1332.444.wav,cha,ño,ñu,fe,sil,bi,si,ra,sil1,to,sil2,['miss'],,,1.332,no_beat,,,,si,4,testWhatL4Uns//dep_viol.r1.s1.0.wav,4.0,what,unsyncopated,a,s1,no_rule,dep,L4,z,0.992,6.0,0.0,0.5874,3.0,2.0,Castellano,0.0,Inglés,2.0,Francés,6.0,5.0,3.0,yes,yes,no,Bajo,16,,,nada ,68.0,yes
96,2024-02-27_10h47.21.286,Unsyncopated_study3,s120,21.0,feminino,right,España,Castellano,Bachelor degree,no,no,A,1,conjunction_syn,L2,syncopated,s2,r2,96,Online_conjL2_syn//b.fe.ra20.666.1554.wav,si,ño,cha,fe,sil,to,me,ra,sil1,su,sil2,['catch'],[1.2694999999948777],[1.2694999999948777],0.666,no_beat,0.6034999999948777,0.6034999999948777,"[""space""]",fe,1,,,,,,,,,,,,,,,3.0,2.0,Castellano,0.0,Inglés,2.0,Francés,6.0,5.0,3.0,yes,yes,no,Bajo,16,,,nada ,68.0,yes
97,2024-02-27_10h47.21.286,Unsyncopated_study3,s120,21.0,feminino,right,España,Castellano,Bachelor degree,no,no,A,1,conjunction_syn,L2,syncopated,s2,r1,97,Online_conjL2_syn//b.fe.ra23.none.none.wav,me,su,bi,go,sil,ñu,mi,du,sil1,si,sil2,['-'],,,none,none,,,,fe,1,,,,,,,,,,,,,,,3.0,2.0,Castellano,0.0,Inglés,2.0,Francés,6.0,5.0,3.0,yes,yes,no,Bajo,16,,,nada ,68.0,yes
98,2024-02-27_10h47.21.286,Unsyncopated_study3,s120,21.0,feminino,right,España,Castellano,Bachelor degree,no,no,A,1,conjunction_syn,L2,syncopated,s1,r1,98,Online_conjL2_syn//b.fe.ra21.none.none.wav,go,bi,cha,du,sil,te,me,mi,sil1,ba,sil2,['-'],,,none,none,,,,fe,1,,,,,,,,,,,,,,,3.0,2.0,Castellano,0.0,Inglés,2.0,Francés,6.0,5.0,3.0,yes,yes,no,Bajo,16,,,nada ,68.0,yes
99,2024-02-27_10h47.21.286,Unsyncopated_study3,s120,21.0,feminino,right,España,Castellano,Bachelor degree,no,no,A,1,conjunction_syn,L2,syncopated,s2,r1,99,Online_conjL2_syn//b.fe.ra22.none.none.wav,cha,ño,me,go,sil,ñu,to,du,sil1,mi,sil2,['-'],,,none,none,,,,fe,1,,,,,,,,,,,,,,,3.0,2.0,Castellano,0.0,Inglés,2.0,Francés,6.0,5.0,3.0,yes,yes,no,Bajo,16,,,nada ,68.0,yes
100,2024-02-27_10h47.21.286,Unsyncopated_study3,s120,21.0,feminino,right,España,Castellano,Bachelor degree,no,no,A,1,conjunction_syn,L2,syncopated,s2,r1,100,Online_conjL2_syn//d.si.ñu17.0.222.wav,si,ñu,te,go,sil,to,ba,du,sil1,bi,sil2,['catch'],[0.9482000000425614],[0.9482000000425614],0.0,beat,0.9482000000425614,0.9482000000425614,"[""space""]",si,4,,,,,,,,,,,,,,,3.0,2.0,Castellano,0.0,Inglés,2.0,Francés,6.0,5.0,3.0,yes,yes,no,Bajo,16,,,nada ,68.0,yes
101,2024-02-27_10h47.21.286,Unsyncopated_study3,s120,21.0,feminino,right,España,Castellano,Bachelor degree,no,no,A,1,conjunction_syn,L2,syncopated,s2,r2,101,Online_conjL2_syn//d.si.ñu16.none.none.wav,te,to,bi,fe,sil,me,mi,ra,sil1,cha,sil2,['-'],,,none,none,,,,si,4,,,,,,,,,,,,,,,3.0,2.0,Castellano,0.0,Inglés,2.0,Francés,6.0,5.0,3.0,yes,yes,no,Bajo,16,,,nada ,68.0,yes
102,2024-02-27_10h47.21.286,Unsyncopated_study3,s120,21.0,feminino,right,España,Castellano,Bachelor degree,no,no,A,1,conjunction_syn,L2,syncopated,s2,r2,102,Online_conjL2_syn//d.si.ñu18.none.none.wav,te,su,to,fe,sil,me,cha,ra,sil1,ba,sil2,['-'],,,none,none,,,,si,4,,,,,,,,,,,,,,,3.0,2.0,Castellano,0.0,Inglés,2.0,Francés,6.0,5.0,3.0,yes,yes,no,Bajo,16,,,nada ,68.0,yes
103,2024-02-27_10h47.21.286,Unsyncopated_study3,s120,21.0,feminino,right,España,Castellano,Bachelor degree,no,no,A,1,conjunction_syn,L2,syncopated,s1,r2,103,Online_conjL2_syn//d.si.ñu19.444.1110.wav,fe,bi,si,ra,sil,ñu,te,to,sil1,ño,sil2,['catch'],[1.3917999999248423],[1.3917999999248423],0.444,no_beat,0.9477999999248424,0.9477999999248424,"[""space""]",si,4,,,,,,,,,,,,,,,3.0,2.0,Castellano,0.0,Inglés,2.0,Francés,6.0,5.0,3.0,yes,yes,no,Bajo,16,,,nada ,68.0,yes
104,2024-02-27_10h47.21.286,Unsyncopated_study3,s120,21.0,feminino,right,España,Castellano,Bachelor degree,no,no,A,1,conjunction_syn,L2,syncopated,s2,r1,104,Online_conjL2_syn//a.go.du19.666.1554.wav,ba,ño,mi,go,sil,me,te,du,sil1,to,sil2,['miss'],,,1.554,no_beat,,,,du,2,,,,,,,,,,,,,,,3.0,2.0,Castellano,0.0,Inglés,2.0,Francés,6.0,5.0,3.0,yes,yes,no,Bajo,16,,,nada ,68.0,yes
105,2024-02-27_10h47.21.286,Unsyncopated_study3,s120,21.0,feminino,right,España,Castellano,Bachelor degree,no,no,A,1,conjunction_syn,L2,syncopated,s1,r2,105,Online_conjL2_syn//a.go.du18.none.none.wav,fe,ba,su,ra,sil,cha,mi,to,sil1,ño,sil2,['-'],,,none,none,,,,du,2,,,,,,,,,,,,,,,3.0,2.0,Castellano,0.0,Inglés,2.0,Francés,6.0,5.0,3.0,yes,yes,no,Bajo,16,,,nada ,68.0,yes
106,2024-02-27_10h47.21.286,Unsyncopated_study3,s120,21.0,feminino,right,España,Castellano,Bachelor degree,no,no,A,1,conjunction_syn,L2,syncopated,s1,r1,106,Online_conjL2_syn//a.go.du17.0.666.wav,go,ba,ño,du,sil,to,si,te,sil1,cha,sil2,['miss'],,,0.666,no_beat,,,,du,2,,,,,,,,,,,,,,,3.0,2.0,Castellano,0.0,Inglés,2.0,Francés,6.0,5.0,3.0,yes,yes,no,Bajo,16,,,nada ,68.0,yes
107,2024-02-27_10h47.21.286,Unsyncopated_study3,s120,21.0,feminino,right,España,Castellano,Bachelor degree,no,no,A,1,conjunction_syn,L2,syncopated,s2,r2,107,Online_conjL2_syn//a.go.du16.none.none.wav,ño,te,ñu,fe,sil,me,si,ra,sil1,cha,sil2,['-'],,,none,none,,,,du,2,,,,,,,,,,,,,,,3.0,2.0,Castellano,0.0,Inglés,2.0,Francés,6.0,5.0,3.0,yes,yes,no,Bajo,16,,,nada ,68.0,yes
108,2024-02-27_10h47.21.286,Unsyncopated_study3,s120,21.0,feminino,right,España,Castellano,Bachelor degree,no,no,A,1,conjunction_syn,L2,syncopated,s2,r2,108,Online_conjL2_syn//b.fe.ra16.666.1554.wav,to,ñu,mi,fe,sil,ño,cha,ra,sil1,me,sil2,['catch'],[1.3125],[1.3125],0.666,no_beat,0.6465,0.6465,"[""space""]",fe,1,,,,,,,,,,,,,,,3.0,2.0,Castellano,0.0,Inglés,2.0,Francés,6.0,5.0,3.0,yes,yes,no,Bajo,16,,,nada ,68.0,yes
109,2024-02-27_10h47.21.286,Unsyncopated_study3,s120,21.0,feminino,right,España,Castellano,Bachelor degree,no,no,A,1,conjunction_syn,L2,syncopated,s1,r1,109,Online_conjL2_syn//b.fe.ra18.none.none.wav,go,ba,mi,du,sil,su,ñu,me,sil1,ño,sil2,['-'],,,none,none,,,,fe,1,,,,,,,,,,,,,,,3.0,2.0,Castellano,0.0,Inglés,2.0,Francés,6.0,5.0,3.0,yes,yes,no,Bajo,16,,,nada ,68.0,yes
110,2024-02-27_10h47.21.286,Unsyncopated_study3,s120,21.0,feminino,right,España,Castellano,Bachelor degree,no,no,A,1,conjunction_syn,L2,syncopated,s1,r2,110,Online_conjL2_syn//b.fe.ra17.0.666.wav,fe,ño,ba,ra,sil,me,to,su,sil1,bi,sil2,['miss'],,,0.0,beat,,,,fe,1,,,,,,,,,,,,,,,3.0,2.0,Castellano,0.0,Inglés,2.0,Francés,6.0,5.0,3.0,yes,yes,no,Bajo,16,,,nada ,68.0,yes
111,2024-02-27_10h47.21.286,Unsyncopated_study3,s120,21.0,feminino,right,España,Castellano,Bachelor degree,no,no,A,1,conjunction_syn,L2,syncopated,s1,r1,111,Online_conjL2_syn//b.fe.ra19.none.none.wav,go,bi,ño,du,sil,si,mi,me,sil1,cha,sil2,['-'],,,none,none,,,,fe,1,,,,,,,,,,,,,,,3.0,2.0,Castellano,0.0,Inglés,2.0,Francés,6.0,5.0,3.0,yes,yes,no,Bajo,16,,,nada ,68.0,yes
112,2024-02-27_10h47.21.286,Unsyncopated_study3,s120,21.0,feminino,right,España,Castellano,Bachelor degree,no,no,A,1,conjunction_syn,L2,syncopated,s1,r2,112,Online_conjL2_syn//d.si.ñu14.none.none.wav,fe,cha,bi,ra,sil,to,mi,me,sil1,ba,sil2,['-'],,,none,none,,,,si,4,,,,,,,,,,,,,,,3.0,2.0,Castellano,0.0,Inglés,2.0,Francés,6.0,5.0,3.0,yes,yes,no,Bajo,16,,,nada ,68.0,yes
113,2024-02-27_10h47.21.286,Unsyncopated_study3,s120,21.0,feminino,right,España,Castellano,Bachelor degree,no,no,A,1,conjunction_syn,L2,syncopated,s2,r2,113,Online_conjL2_syn//d.si.ñu12.0.222.wav,si,ñu,cha,fe,sil,te,me,ra,sil1,to,sil2,['catch'],[0.8387000000220723],[0.8387000000220723],0.0,beat,0.8387000000220723,0.8387000000220723,"[""space""]",si,4,,,,,,,,,,,,,,,3.0,2.0,Castellano,0.0,Inglés,2.0,Francés,6.0,5.0,3.0,yes,yes,no,Bajo,16,,,nada ,68.0,yes
114,2024-02-27_10h47.21.286,Unsyncopated_study3,s120,21.0,feminino,right,España,Castellano,Bachelor degree,no,no,A,1,conjunction_syn,L2,syncopated,s2,r1,114,Online_conjL2_syn//d.si.ñu13.none.none.wav,bi,te,to,go,sil,ño,cha,du,sil1,me,sil2,['-'],,,none,none,,,,si,4,,,,,,,,,,,,,,,3.0,2.0,Castellano,0.0,Inglés,2.0,Francés,6.0,5.0,3.0,yes,yes,no,Bajo,16,,,nada ,68.0,yes
115,2024-02-27_10h47.21.286,Unsyncopated_study3,s120,21.0,feminino,right,España,Castellano,Bachelor degree,no,no,A,1,conjunction_syn,L2,syncopated,s2,r1,115,Online_conjL2_syn//d.si.ñu15.none.none.wav,su,ño,ba,go,sil,bi,mi,du,sil1,to,sil2,['-'],,,none,none,,,,si,4,,,,,,,,,,,,,,,3.0,2.0,Castellano,0.0,Inglés,2.0,Francés,6.0,5.0,3.0,yes,yes,no,Bajo,16,,,nada ,68.0,yes
116,2024-02-27_10h47.21.286,Unsyncopated_study3,s120,21.0,feminino,right,España,Castellano,Bachelor degree,no,no,A,1,conjunction_syn,L2,syncopated,s2,r2,116,Online_conjL2_syn//a.go.du30.none.none.wav,to,ñu,me,fe,sil,bi,ño,ra,sil1,su,sil2,['-'],,,none,none,,,,du,2,,,,,,,,,,,,,,,3.0,2.0,Castellano,0.0,Inglés,2.0,Francés,6.0,5.0,3.0,yes,yes,no,Bajo,16,,,nada ,68.0,yes
117,2024-02-27_10h47.21.286,Unsyncopated_study3,s120,21.0,feminino,right,España,Castellano,Bachelor degree,no,no,A,1,conjunction_syn,L2,syncopated,s2,r2,117,Online_conjL2_syn//a.go.du28.none.none.wav,me,su,ba,fe,sil,mi,to,ra,sil1,cha,sil2,['-'],,,none,none,,,,du,2,,,,,,,,,,,,,,,3.0,2.0,Castellano,0.0,Inglés,2.0,Francés,6.0,5.0,3.0,yes,yes,no,Bajo,16,,,nada ,68.0,yes
118,2024-02-27_10h47.21.286,Unsyncopated_study3,s120,21.0,feminino,right,España,Castellano,Bachelor degree,no,no,A,1,conjunction_syn,L2,syncopated,s1,r1,118,Online_conjL2_syn//a.go.du31.0.666.wav,go,ba,su,du,sil,ñu,si,bi,sil1,me,sil2,['miss'],,,0.666,no_beat,,,,du,2,,,,,,,,,,,,,,,3.0,2.0,Castellano,0.0,Inglés,2.0,Francés,6.0,5.0,3.0,yes,yes,no,Bajo,16,,,nada ,68.0,yes
119,2024-02-27_10h47.21.286,Unsyncopated_study3,s120,21.0,feminino,right,España,Castellano,Bachelor degree,no,no,A,1,conjunction_syn,L2,syncopated,s1,r1,119,Online_conjL2_syn//a.go.du29.0.666.wav,go,ñu,su,du,sil,si,me,to,sil1,bi,sil2,['miss'],,,0.666,no_beat,,,,du,2,,,,,,,,,,,,,,,3.0,2.0,Castellano,0.0,Inglés,2.0,Francés,6.0,5.0,3.0,yes,yes,no,Bajo,16,,,nada ,68.0,yes
120,2024-02-27_10h47.21.286,Unsyncopated_study3,s120,21.0,feminino,right,España,Castellano,Bachelor degree,no,no,A,1,conjunction_syn,L2,syncopated,s1,r2,120,Online_conjL2_syn//a.go.du10.none.none.wav,fe,cha,ba,ra,sil,ño,si,me,sil1,mi,sil2,['-'],,,none,none,,,,du,2,,,,,,,,,,,,,,,3.0,2.0,Castellano,0.0,Inglés,2.0,Francés,6.0,5.0,3.0,yes,yes,no,Bajo,16,,,nada ,68.0,yes
121,2024-02-27_10h47.21.286,Unsyncopated_study3,s120,21.0,feminino,right,España,Castellano,Bachelor degree,no,no,A,1,conjunction_syn,L2,syncopated,s1,r2,121,Online_conjL2_syn//a.go.du9.none.none.wav,fe,ñu,bi,ra,sil,to,te,si,sil1,su,sil2,['-'],,,none,none,,,,du,2,,,,,,,,,,,,,,,3.0,2.0,Castellano,0.0,Inglés,2.0,Francés,6.0,5.0,3.0,yes,yes,no,Bajo,16,,,nada ,68.0,yes
122,2024-02-27_10h47.21.286,Unsyncopated_study3,s120,21.0,feminino,right,España,Castellano,Bachelor degree,no,no,A,1,conjunction_syn,L2,syncopated,s2,r2,122,Online_conjL2_syn//a.go.du11.none.none.wav,to,te,ba,fe,sil,cha,me,ra,sil1,bi,sil2,['-'],,,none,none,,,,du,2,,,,,,,,,,,,,,,3.0,2.0,Castellano,0.0,Inglés,2.0,Francés,6.0,5.0,3.0,yes,yes,no,Bajo,16,,,nada ,68.0,yes
123,2024-02-27_10h47.21.286,Unsyncopated_study3,s120,21.0,feminino,right,España,Castellano,Bachelor degree,no,no,A,1,conjunction_syn,L2,syncopated,s2,r2,123,Online_conjL2_syn//a.go.du8.none.none.wav,to,bi,te,fe,sil,ñu,mi,ra,sil1,si,sil2,['-'],,,none,none,,,,du,2,,,,,,,,,,,,,,,3.0,2.0,Castellano,0.0,Inglés,2.0,Francés,6.0,5.0,3.0,yes,yes,no,Bajo,16,,,nada ,68.0,yes
124,2024-02-27_10h47.21.286,Unsyncopated_study3,s120,21.0,feminino,right,España,Castellano,Bachelor degree,no,no,A,1,conjunction_syn,L2,syncopated,s2,r2,124,Online_conjL2_syn//c.cha.me4.1110.0.wav,me,si,bi,fe,sil,cha,to,ra,sil1,su,sil2,['catch'],[1.7677000000840053],[1.7677000000840053],1.11,no_beat,0.6577000000840052,0.6577000000840052,"[""space""]",cha,3,,,,,,,,,,,,,,,3.0,2.0,Castellano,0.0,Inglés,2.0,Francés,6.0,5.0,3.0,yes,yes,no,Bajo,16,,,nada ,68.0,yes
125,2024-02-27_10h47.21.286,Unsyncopated_study3,s120,21.0,feminino,right,España,Castellano,Bachelor degree,no,no,A,1,conjunction_syn,L2,syncopated,s2,r1,125,Online_conjL2_syn//c.cha.me5.none.none.wav,ño,mi,ñu,go,sil,ba,te,du,sil1,su,sil2,['-'],,,none,none,,,,cha,3,,,,,,,,,,,,,,,3.0,2.0,Castellano,0.0,Inglés,2.0,Francés,6.0,5.0,3.0,yes,yes,no,Bajo,16,,,nada ,68.0,yes
126,2024-02-27_10h47.21.286,Unsyncopated_study3,s120,21.0,feminino,right,España,Castellano,Bachelor degree,no,no,A,1,conjunction_syn,L2,syncopated,s1,r1,126,Online_conjL2_syn//c.cha.me6.none.none.wav,go,to,si,du,sil,ñu,ño,mi,sil1,ba,sil2,['-'],,,none,none,,,,cha,3,,,,,,,,,,,,,,,3.0,2.0,Castellano,0.0,Inglés,2.0,Francés,6.0,5.0,3.0,yes,yes,no,Bajo,16,,,nada ,68.0,yes
127,2024-02-27_10h47.21.286,Unsyncopated_study3,s120,21.0,feminino,right,España,Castellano,Bachelor degree,no,no,A,1,conjunction_syn,L2,syncopated,s2,r2,127,Online_conjL2_syn//c.cha.me7.none.none.wav,te,mi,ba,fe,sil,ñu,su,ra,sil1,to,sil2,['-'],,,none,none,,,,cha,3,,,,,,,,,,,,,,,3.0,2.0,Castellano,0.0,Inglés,2.0,Francés,6.0,5.0,3.0,yes,yes,no,Bajo,16,,,nada ,68.0,yes
128,2024-02-27_10h47.21.286,Unsyncopated_study3,s120,21.0,feminino,right,España,Castellano,Bachelor degree,no,no,A,2,conjunction_un,L3,unsyncopated,s2,r2,0,Online_conjL3_un//b.ñe.sa9.888.1776.wav,le,ji,ga,sil,ñe,do,ka,sil1,sa,li,sil2,['catch'],[2.3518000000040047],[2.3518000000040047],0.888,beat,,1.4638000000040048,"[""space""]",ñe,1,,,,,,,,,,,,,,,3.0,2.0,Castellano,0.0,Inglés,2.0,Francés,6.0,5.0,3.0,yes,yes,no,Bajo,16,,,nada ,68.0,yes
129,2024-02-27_10h47.21.286,Unsyncopated_study3,s120,21.0,feminino,right,España,Castellano,Bachelor degree,no,no,A,2,conjunction_un,L3,unsyncopated,s2,r1,1,Online_conjL3_un//b.ñe.sa10.none.none.wav,do,je,le,sil,chu,di,fu,sil1,mo,ji,sil2,['-'],,,none,none,,,,ñe,1,,,,,,,,,,,,,,,3.0,2.0,Castellano,0.0,Inglés,2.0,Francés,6.0,5.0,3.0,yes,yes,no,Bajo,16,,,nada ,68.0,yes
130,2024-02-27_10h47.21.286,Unsyncopated_study3,s120,21.0,feminino,right,España,Castellano,Bachelor degree,no,no,A,2,conjunction_un,L3,unsyncopated,s1,r2,2,Online_conjL3_un//b.ñe.sa8.0.888.wav,ñe,li,je,sil,sa,ka,ga,sil1,fu,do,sil2,['catch'],[0.7653999998583458],[0.7653999998583458],0.0,beat,0.7653999998583458,0.7653999998583458,"[""space""]",ñe,1,,,,,,,,,,,,,,,3.0,2.0,Castellano,0.0,Inglés,2.0,Francés,6.0,5.0,3.0,yes,yes,no,Bajo,16,,,nada ,68.0,yes
131,2024-02-27_10h47.21.286,Unsyncopated_study3,s120,21.0,feminino,right,España,Castellano,Bachelor degree,no,no,A,2,conjunction_un,L3,unsyncopated,s1,r1,3,Online_conjL3_un//b.ñe.sa11.none.none.wav,chu,ka,fu,sil,mo,ga,ji,sil1,je,le,sil2,['-'],,,none,none,,,,ñe,1,,,,,,,,,,,,,,,3.0,2.0,Castellano,0.0,Inglés,2.0,Francés,6.0,5.0,3.0,yes,yes,no,Bajo,16,,,nada ,68.0,yes
132,2024-02-27_10h47.21.286,Unsyncopated_study3,s120,21.0,feminino,right,España,Castellano,Bachelor degree,no,no,A,2,conjunction_un,L3,unsyncopated,s2,r2,4,Online_conjL3_un//c.gu.je4.444.0.wav,je,ji,gu,sil,ñe,ka,li,sil1,sa,fu,sil2,['catch'],[1.5097999999998137],[1.5097999999998137],0.444,no_beat,1.0657999999998138,1.0657999999998138,"[""space""]",gu,3,,,,,,,,,,,,,,,3.0,2.0,Castellano,0.0,Inglés,2.0,Francés,6.0,5.0,3.0,yes,yes,no,Bajo,16,,,nada ,68.0,yes
133,2024-02-27_10h47.21.286,Unsyncopated_study3,s120,21.0,feminino,right,España,Castellano,Bachelor degree,no,no,A,2,conjunction_un,L3,unsyncopated,s1,r2,5,Online_conjL3_un//c.gu.je7.none.none.wav,ñe,ka,ji,sil,sa,do,le,sil1,di,fu,sil2,['-'],,,none,none,,,,gu,3,,,,,,,,,,,,,,,3.0,2.0,Castellano,0.0,Inglés,2.0,Francés,6.0,5.0,3.0,yes,yes,no,Bajo,16,,,nada ,68.0,yes
134,2024-02-27_10h47.21.286,Unsyncopated_study3,s120,21.0,feminino,right,España,Castellano,Bachelor degree,no,no,A,2,conjunction_un,L3,unsyncopated,s1,r2,6,Online_conjL3_un//c.gu.je6.1110.222.wav,ñe,je,ko,sil,sa,gu,di,sil1,do,fu,sil2,"['false alarm', 'catch']","[0.17499999998835847, 2.022999999986496]",[2.022999999986496],1.11,no_beat,0.9129999999864956,0.9129999999864956,"[""space"",""space""]",gu,3,,,,,,,,,,,,,,,3.0,2.0,Castellano,0.0,Inglés,2.0,Francés,6.0,5.0,3.0,yes,yes,no,Bajo,16,,,nada ,68.0,yes
135,2024-02-27_10h47.21.286,Unsyncopated_study3,s120,21.0,feminino,right,España,Castellano,Bachelor degree,no,no,A,2,conjunction_un,L3,unsyncopated,s2,r1,7,Online_conjL3_un//c.gu.je5.1332.222.wav,do,je,ka,sil,chu,di,gu,sil1,mo,ji,sil2,['miss'],,,1.332,no_beat,,,,gu,3,,,,,,,,,,,,,,,3.0,2.0,Castellano,0.0,Inglés,2.0,Francés,6.0,5.0,3.0,yes,yes,no,Bajo,16,,,nada ,68.0,yes
136,2024-02-27_10h47.21.286,Unsyncopated_study3,s120,21.0,feminino,right,España,Castellano,Bachelor degree,no,no,A,2,conjunction_un,L3,unsyncopated,s1,r1,8,Online_conjL3_un//d.ji.li14.1332.444.wav,chu,ko,li,sil,mo,do,ji,sil1,di,gu,sil2,['catch'],[2.1357000000425614],[2.1357000000425614],1.332,no_beat,0.8037000000425614,0.8037000000425614,"[""space""]",ji,4,,,,,,,,,,,,,,,3.0,2.0,Castellano,0.0,Inglés,2.0,Francés,6.0,5.0,3.0,yes,yes,no,Bajo,16,,,nada ,68.0,yes
137,2024-02-27_10h47.21.286,Unsyncopated_study3,s120,21.0,feminino,right,España,Castellano,Bachelor degree,no,no,A,2,conjunction_un,L3,unsyncopated,s1,r2,9,Online_conjL3_un//d.ji.li12.1332.222.wav,ñe,li,le,sil,sa,je,ji,sil1,di,ga,sil2,['miss'],,,1.332,no_beat,,,,ji,4,,,,,,,,,,,,,,,3.0,2.0,Castellano,0.0,Inglés,2.0,Francés,6.0,5.0,3.0,yes,yes,no,Bajo,16,,,nada ,68.0,yes
138,2024-02-27_10h47.21.286,Unsyncopated_study3,s120,21.0,feminino,right,España,Castellano,Bachelor degree,no,no,A,2,conjunction_un,L3,unsyncopated,s1,r1,10,Online_conjL3_un//d.ji.li15.none.none.wav,chu,fu,ga,sil,mo,je,gu,sil1,do,di,sil2,['false alarm'],[0.05439999984810129],[0.05439999984810129],none,none,,,"[""space""]",ji,4,,,,,,,,,,,,,,,3.0,2.0,Castellano,0.0,Inglés,2.0,Francés,6.0,5.0,3.0,yes,yes,no,Bajo,16,,,nada ,68.0,yes
139,2024-02-27_10h47.21.286,Unsyncopated_study3,s120,21.0,feminino,right,España,Castellano,Bachelor degree,no,no,A,2,conjunction_un,L3,unsyncopated,s2,r1,11,Online_conjL3_un//d.ji.li13.0.1110.wav,ji,ko,gu,sil,chu,li,je,sil1,mo,ka,sil2,['miss'],,,0.0,beat,,,,ji,4,,,,,,,,,,,,,,,3.0,2.0,Castellano,0.0,Inglés,2.0,Francés,6.0,5.0,3.0,yes,yes,no,Bajo,16,,,nada ,68.0,yes
140,2024-02-27_10h47.21.286,Unsyncopated_study3,s120,21.0,feminino,right,España,Castellano,Bachelor degree,no,no,A,2,conjunction_un,L3,unsyncopated,s1,r2,12,Online_conjL3_un//a.chu.mo17.none.none.wav,ñe,li,do,sil,sa,je,gu,sil1,fu,ko,sil2,['-'],,,none,none,,,,mo,2,,,,,,,,,,,,,,,3.0,2.0,Castellano,0.0,Inglés,2.0,Francés,6.0,5.0,3.0,yes,yes,no,Bajo,16,,,nada ,68.0,yes
141,2024-02-27_10h47.21.286,Unsyncopated_study3,s120,21.0,feminino,right,España,Castellano,Bachelor degree,no,no,A,2,conjunction_un,L3,unsyncopated,s2,r1,13,Online_conjL3_un//a.chu.mo18.888.1776.wav,do,fu,ka,sil,chu,ko,ga,sil1,mo,ji,sil2,['catch'],[2.6252999999560416],[2.6252999999560416],1.776,beat,0.8492999999560416,0.8492999999560416,"[""space""]",mo,2,,,,,,,,,,,,,,,3.0,2.0,Castellano,0.0,Inglés,2.0,Francés,6.0,5.0,3.0,yes,yes,no,Bajo,16,,,nada ,68.0,yes
142,2024-02-27_10h47.21.286,Unsyncopated_study3,s120,21.0,feminino,right,España,Castellano,Bachelor degree,no,no,A,2,conjunction_un,L3,unsyncopated,s1,r2,14,Online_conjL3_un//a.chu.mo19.none.none.wav,ñe,ji,je,sil,sa,fu,di,sil1,li,ko,sil2,['-'],,,none,none,,,,mo,2,,,,,,,,,,,,,,,3.0,2.0,Castellano,0.0,Inglés,2.0,Francés,6.0,5.0,3.0,yes,yes,no,Bajo,16,,,nada ,68.0,yes
143,2024-02-27_10h47.21.286,Unsyncopated_study3,s120,21.0,feminino,right,España,Castellano,Bachelor degree,no,no,A,2,conjunction_un,L3,unsyncopated,s1,r2,15,Online_conjL3_un//a.chu.mo16.none.none.wav,ñe,ga,je,sil,sa,li,ko,sil1,fu,gu,sil2,['-'],,,none,none,,,,mo,2,,,,,,,,,,,,,,,3.0,2.0,Castellano,0.0,Inglés,2.0,Francés,6.0,5.0,3.0,yes,yes,no,Bajo,16,,,nada ,68.0,yes
144,2024-02-27_10h47.21.286,Unsyncopated_study3,s120,21.0,feminino,right,España,Castellano,Bachelor degree,no,no,A,2,conjunction_un,L3,unsyncopated,s2,r2,16,Online_conjL3_un//c.gu.je27.222.1110.wav,li,gu,ji,sil,ñe,je,ka,sil1,sa,ga,sil2,['miss'],,,0.222,no_beat,,,,gu,3,,,,,,,,,,,,,,,3.0,2.0,Castellano,0.0,Inglés,2.0,Francés,6.0,5.0,3.0,yes,yes,no,Bajo,16,,,nada ,68.0,yes
145,2024-02-27_10h47.21.286,Unsyncopated_study3,s120,21.0,feminino,right,España,Castellano,Bachelor degree,no,no,A,2,conjunction_un,L3,unsyncopated,s2,r2,17,Online_conjL3_un//c.gu.je25.none.none.wav,le,li,ji,sil,ñe,ka,fu,sil1,sa,di,sil2,['-'],,,none,none,,,,gu,3,,,,,,,,,,,,,,,3.0,2.0,Castellano,0.0,Inglés,2.0,Francés,6.0,5.0,3.0,yes,yes,no,Bajo,16,,,nada ,68.0,yes
146,2024-02-27_10h47.21.286,Unsyncopated_study3,s120,21.0,feminino,right,España,Castellano,Bachelor degree,no,no,A,2,conjunction_un,L3,unsyncopated,s2,r1,18,Online_conjL3_un//c.gu.je24.none.none.wav,di,ji,le,sil,chu,li,fu,sil1,mo,do,sil2,['-'],,,none,none,,,,gu,3,,,,,,,,,,,,,,,3.0,2.0,Castellano,0.0,Inglés,2.0,Francés,6.0,5.0,3.0,yes,yes,no,Bajo,16,,,nada ,68.0,yes
147,2024-02-27_10h47.21.286,Unsyncopated_study3,s120,21.0,feminino,right,España,Castellano,Bachelor degree,no,no,A,2,conjunction_un,L3,unsyncopated,s2,r2,19,Online_conjL3_un//c.gu.je26.222.444.wav,do,gu,je,sil,ñe,le,ko,sil1,sa,ka,sil2,['miss'],,,0.222,no_beat,,,,gu,3,,,,,,,,,,,,,,,3.0,2.0,Castellano,0.0,Inglés,2.0,Francés,6.0,5.0,3.0,yes,yes,no,Bajo,16,,,nada ,68.0,yes
148,2024-02-27_10h47.21.286,Unsyncopated_study3,s120,21.0,feminino,right,España,Castellano,Bachelor degree,no,no,A,2,conjunction_un,L3,unsyncopated,s2,r1,20,Online_conjL3_un//d.ji.li30.none.none.wav,di,je,ga,sil,chu,ko,gu,sil1,mo,do,sil2,['-'],,,none,none,,,,ji,4,,,,,,,,,,,,,,,3.0,2.0,Castellano,0.0,Inglés,2.0,Francés,6.0,5.0,3.0,yes,yes,no,Bajo,16,,,nada ,68.0,yes
149,2024-02-27_10h47.21.286,Unsyncopated_study3,s120,21.0,feminino,right,España,Castellano,Bachelor degree,no,no,A,2,conjunction_un,L3,unsyncopated,s1,r1,21,Online_conjL3_un//d.ji.li28.none.none.wav,chu,ko,di,sil,mo,do,ga,sil1,le,ka,sil2,['-'],,,none,none,,,,ji,4,,,,,,,,,,,,,,,3.0,2.0,Castellano,0.0,Inglés,2.0,Francés,6.0,5.0,3.0,yes,yes,no,Bajo,16,,,nada ,68.0,yes
150,2024-02-27_10h47.21.286,Unsyncopated_study3,s120,21.0,feminino,right,España,Castellano,Bachelor degree,no,no,A,2,conjunction_un,L3,unsyncopated,s2,r1,22,Online_conjL3_un//d.ji.li31.none.none.wav,do,je,ka,sil,chu,di,le,sil1,mo,ko,sil2,['-'],,,none,none,,,,ji,4,,,,,,,,,,,,,,,3.0,2.0,Castellano,0.0,Inglés,2.0,Francés,6.0,5.0,3.0,yes,yes,no,Bajo,16,,,nada ,68.0,yes
151,2024-02-27_10h47.21.286,Unsyncopated_study3,s120,21.0,feminino,right,España,Castellano,Bachelor degree,no,no,A,2,conjunction_un,L3,unsyncopated,s1,r1,23,Online_conjL3_un//d.ji.li29.1776.222.wav,chu,li,ka,sil,mo,je,fu,sil1,ji,ko,sil2,['catch'],[2.5257999999448657],[2.5257999999448657],1.776,beat,0.7497999999448657,0.7497999999448657,"[""space""]",ji,4,,,,,,,,,,,,,,,3.0,2.0,Castellano,0.0,Inglés,2.0,Francés,6.0,5.0,3.0,yes,yes,no,Bajo,16,,,nada ,68.0,yes
152,2024-02-27_10h47.21.286,Unsyncopated_study3,s120,21.0,feminino,right,España,Castellano,Bachelor degree,no,no,A,2,conjunction_un,L3,unsyncopated,s1,r1,24,Online_conjL3_un//a.chu.mo3.0.888.wav,chu,fu,ko,sil,mo,je,gu,sil1,do,li,sil2,['catch'],[1.748699999996461],[1.748699999996461],0.888,beat,0.860699999996461,0.860699999996461,"[""space""]",mo,2,,,,,,,,,,,,,,,3.0,2.0,Castellano,0.0,Inglés,2.0,Francés,6.0,5.0,3.0,yes,yes,no,Bajo,16,,,nada ,68.0,yes
153,2024-02-27_10h47.21.286,Unsyncopated_study3,s120,21.0,feminino,right,España,Castellano,Bachelor degree,no,no,A,2,conjunction_un,L3,unsyncopated,s2,r1,25,Online_conjL3_un//a.chu.mo0.888.1776.wav,li,gu,fu,sil,chu,ga,ji,sil1,mo,do,sil2,['catch'],[2.525499999988824],[2.525499999988824],1.776,beat,0.7494999999888241,0.7494999999888241,"[""space""]",mo,2,,,,,,,,,,,,,,,3.0,2.0,Castellano,0.0,Inglés,2.0,Francés,6.0,5.0,3.0,yes,yes,no,Bajo,16,,,nada ,68.0,yes
154,2024-02-27_10h47.21.286,Unsyncopated_study3,s120,21.0,feminino,right,España,Castellano,Bachelor degree,no,no,A,2,conjunction_un,L3,unsyncopated,s1,r2,26,Online_conjL3_un//a.chu.mo2.none.none.wav,ñe,do,ji,sil,sa,li,fu,sil1,je,ko,sil2,['-'],,,none,none,,,,mo,2,,,,,,,,,,,,,,,3.0,2.0,Castellano,0.0,Inglés,2.0,Francés,6.0,5.0,3.0,yes,yes,no,Bajo,16,,,nada ,68.0,yes
155,2024-02-27_10h47.21.286,Unsyncopated_study3,s120,21.0,feminino,right,España,Castellano,Bachelor degree,no,no,A,2,conjunction_un,L3,unsyncopated,s2,r2,27,Online_conjL3_un//a.chu.mo1.none.none.wav,di,je,gu,sil,ñe,ko,ji,sil1,sa,ka,sil2,['-'],,,none,none,,,,mo,2,,,,,,,,,,,,,,,3.0,2.0,Castellano,0.0,Inglés,2.0,Francés,6.0,5.0,3.0,yes,yes,no,Bajo,16,,,nada ,68.0,yes
156,2024-02-27_10h47.21.286,Unsyncopated_study3,s120,21.0,feminino,right,España,Castellano,Bachelor degree,no,no,A,2,conjunction_un,L3,unsyncopated,s2,r2,28,Online_conjL3_un//a.chu.mo30.none.none.wav,ji,ga,ka,sil,ñe,fu,li,sil1,sa,do,sil2,['-'],,,none,none,,,,mo,2,,,,,,,,,,,,,,,3.0,2.0,Castellano,0.0,Inglés,2.0,Francés,6.0,5.0,3.0,yes,yes,no,Bajo,16,,,nada ,68.0,yes
157,2024-02-27_10h47.21.286,Unsyncopated_study3,s120,21.0,feminino,right,España,Castellano,Bachelor degree,no,no,A,2,conjunction_un,L3,unsyncopated,s1,r1,29,Online_conjL3_un//a.chu.mo28.0.888.wav,chu,fu,di,sil,mo,do,li,sil1,ji,ka,sil2,['miss'],,,0.888,beat,,,,mo,2,,,,,,,,,,,,,,,3.0,2.0,Castellano,0.0,Inglés,2.0,Francés,6.0,5.0,3.0,yes,yes,no,Bajo,16,,,nada ,68.0,yes
158,2024-02-27_10h47.21.286,Unsyncopated_study3,s120,21.0,feminino,right,España,Castellano,Bachelor degree,no,no,A,2,conjunction_un,L3,unsyncopated,s2,r1,30,Online_conjL3_un//a.chu.mo31.888.1776.wav,fu,je,ji,sil,chu,le,ko,sil1,mo,gu,sil2,['catch_delay'],[1.0284000000911766],[1.0284000000911766],1.776,beat,1.0284000000911766,1.0284000000911766,,mo,2,,,,,,,,,,,,,,,3.0,2.0,Castellano,0.0,Inglés,2.0,Francés,6.0,5.0,3.0,yes,yes,no,Bajo,16,,,nada ,68.0,yes
159,2024-02-27_10h47.21.286,Unsyncopated_study3,s120,21.0,feminino,right,España,Castellano,Bachelor degree,no,no,A,2,conjunction_un,L3,unsyncopated,s2,r1,31,Online_conjL3_un//a.chu.mo29.888.1776.wav,li,ji,ko,sil,chu,gu,do,sil1,mo,je,sil2,['miss'],[0.14040000009117648],[0.14040000009117648],1.776,beat,,,"[""space""]",mo,2,,,,,,,,,,,,,,,3.0,2.0,Castellano,0.0,Inglés,2.0,Francés,6.0,5.0,3.0,yes,yes,no,Bajo,16,,,nada ,68.0,yes
160,2024-02-27_10h47.21.286,Unsyncopated_study3,s120,21.0,feminino,right,España,Castellano,Bachelor degree,no,no,A,2,conjunction_un,L3,unsyncopated,s2,r2,32,Online_conjL3_un//c.gu.je28.none.none.wav,ga,do,le,sil,ñe,ji,ka,sil1,sa,ko,sil2,['-'],,,none,none,,,,gu,3,,,,,,,,,,,,,,,3.0,2.0,Castellano,0.0,Inglés,2.0,Francés,6.0,5.0,3.0,yes,yes,no,Bajo,16,,,nada ,68.0,yes
161,2024-02-27_10h47.21.286,Unsyncopated_study3,s120,21.0,feminino,right,España,Castellano,Bachelor degree,no,no,A,2,conjunction_un,L3,unsyncopated,s1,r2,33,Online_conjL3_un//c.gu.je30.none.none.wav,ñe,ka,ko,sil,sa,ga,do,sil1,di,ji,sil2,['-'],,,none,none,,,,gu,3,,,,,,,,,,,,,,,3.0,2.0,Castellano,0.0,Inglés,2.0,Francés,6.0,5.0,3.0,yes,yes,no,Bajo,16,,,nada ,68.0,yes
162,2024-02-27_10h47.21.286,Unsyncopated_study3,s120,21.0,feminino,right,España,Castellano,Bachelor degree,no,no,A,2,conjunction_un,L3,unsyncopated,s1,r1,34,Online_conjL3_un//c.gu.je29.none.none.wav,chu,di,fu,sil,mo,li,ji,sil1,do,ga,sil2,['false alarm'],[2.023599999898579],[2.023599999898579],none,none,,,"[""space""]",gu,3,,,,,,,,,,,,,,,3.0,2.0,Castellano,0.0,Inglés,2.0,Francés,6.0,5.0,3.0,yes,yes,no,Bajo,16,,,nada ,68.0,yes
163,2024-02-27_10h47.21.286,Unsyncopated_study3,s120,21.0,feminino,right,España,Castellano,Bachelor degree,no,no,A,2,conjunction_un,L3,unsyncopated,s1,r1,35,Online_conjL3_un//c.gu.je31.none.none.wav,chu,ga,di,sil,mo,ji,li,sil1,ka,le,sil2,['-'],,,none,none,,,,gu,3,,,,,,,,,,,,,,,3.0,2.0,Castellano,0.0,Inglés,2.0,Francés,6.0,5.0,3.0,yes,yes,no,Bajo,16,,,nada ,68.0,yes
164,2024-02-27_10h47.21.286,Unsyncopated_study3,s120,21.0,feminino,right,España,Castellano,Bachelor degree,no,no,A,2,conjunction_un,L3,unsyncopated,s1,r1,36,Online_conjL3_un//a.chu.mo10.0.888.wav,chu,do,fu,sil,mo,le,ga,sil1,di,ji,sil2,['miss'],,,0.888,beat,,,,mo,2,,,,,,,,,,,,,,,3.0,2.0,Castellano,0.0,Inglés,2.0,Francés,6.0,5.0,3.0,yes,yes,no,Bajo,16,,,nada ,68.0,yes
165,2024-02-27_10h47.21.286,Unsyncopated_study3,s120,21.0,feminino,right,España,Castellano,Bachelor degree,no,no,A,2,conjunction_un,L3,unsyncopated,s1,r1,37,Online_conjL3_un//a.chu.mo8.0.888.wav,chu,gu,ji,sil,mo,di,le,sil1,li,fu,sil2,['catch'],[1.7132000000565313],[1.7132000000565313],0.888,beat,0.8252000000565313,0.8252000000565313,"[""space""]",mo,2,,,,,,,,,,,,,,,3.0,2.0,Castellano,0.0,Inglés,2.0,Francés,6.0,5.0,3.0,yes,yes,no,Bajo,16,,,nada ,68.0,yes
166,2024-02-27_10h47.21.286,Unsyncopated_study3,s120,21.0,feminino,right,España,Castellano,Bachelor degree,no,no,A,2,conjunction_un,L3,unsyncopated,s1,r2,38,Online_conjL3_un//a.chu.mo11.none.none.wav,ñe,fu,ko,sil,sa,li,ka,sil1,le,ji,sil2,['-'],,,none,none,,,,mo,2,,,,,,,,,,,,,,,3.0,2.0,Castellano,0.0,Inglés,2.0,Francés,6.0,5.0,3.0,yes,yes,no,Bajo,16,,,nada ,68.0,yes
167,2024-02-27_10h47.21.286,Unsyncopated_study3,s120,21.0,feminino,right,España,Castellano,Bachelor degree,no,no,A,2,conjunction_un,L3,unsyncopated,s1,r2,39,Online_conjL3_un//a.chu.mo9.none.none.wav,ñe,di,gu,sil,sa,ka,ga,sil1,je,do,sil2,['-'],,,none,none,,,,mo,2,,,,,,,,,,,,,,,3.0,2.0,Castellano,0.0,Inglés,2.0,Francés,6.0,5.0,3.0,yes,yes,no,Bajo,16,,,nada ,68.0,yes
168,2024-02-27_10h47.21.286,Unsyncopated_study3,s120,21.0,feminino,right,España,Castellano,Bachelor degree,no,no,A,2,conjunction_un,L3,unsyncopated,s1,r1,40,Online_conjL3_un//d.ji.li17.none.none.wav,chu,je,gu,sil,mo,do,ko,sil1,ga,le,sil2,['-'],,,none,none,,,,ji,4,,,,,,,,,,,,,,,3.0,2.0,Castellano,0.0,Inglés,2.0,Francés,6.0,5.0,3.0,yes,yes,no,Bajo,16,,,nada ,68.0,yes
169,2024-02-27_10h47.21.286,Unsyncopated_study3,s120,21.0,feminino,right,España,Castellano,Bachelor degree,no,no,A,2,conjunction_un,L3,unsyncopated,s2,r2,41,Online_conjL3_un//d.ji.li19.none.none.wav,gu,ga,di,sil,ñe,do,ka,sil1,sa,ko,sil2,['-'],,,none,none,,,,ji,4,,,,,,,,,,,,,,,3.0,2.0,Castellano,0.0,Inglés,2.0,Francés,6.0,5.0,3.0,yes,yes,no,Bajo,16,,,nada ,68.0,yes
170,2024-02-27_10h47.21.286,Unsyncopated_study3,s120,21.0,feminino,right,España,Castellano,Bachelor degree,no,no,A,2,conjunction_un,L3,unsyncopated,s2,r2,42,Online_conjL3_un//d.ji.li16.none.none.wav,di,gu,je,sil,ñe,ga,ko,sil1,sa,ka,sil2,['-'],,,none,none,,,,ji,4,,,,,,,,,,,,,,,3.0,2.0,Castellano,0.0,Inglés,2.0,Francés,6.0,5.0,3.0,yes,yes,no,Bajo,16,,,nada ,68.0,yes
171,2024-02-27_10h47.21.286,Unsyncopated_study3,s120,21.0,feminino,right,España,Castellano,Bachelor degree,no,no,A,2,conjunction_un,L3,unsyncopated,s2,r2,43,Online_conjL3_un//d.ji.li18.1332.444.wav,ka,le,li,sil,ñe,gu,ji,sil1,sa,ko,sil2,['catch'],[2.056599999894388],[2.056599999894388],1.332,no_beat,0.724599999894388,0.724599999894388,"[""space""]",ji,4,,,,,,,,,,,,,,,3.0,2.0,Castellano,0.0,Inglés,2.0,Francés,6.0,5.0,3.0,yes,yes,no,Bajo,16,,,nada ,68.0,yes
172,2024-02-27_10h47.21.286,Unsyncopated_study3,s120,21.0,feminino,right,España,Castellano,Bachelor degree,no,no,A,2,conjunction_un,L3,unsyncopated,s1,r1,44,Online_conjL3_un//b.ñe.sa21.none.none.wav,chu,gu,ji,sil,mo,di,ko,sil1,do,ga,sil2,['-'],,,none,none,,,,ñe,1,,,,,,,,,,,,,,,3.0,2.0,Castellano,0.0,Inglés,2.0,Francés,6.0,5.0,3.0,yes,yes,no,Bajo,16,,,nada ,68.0,yes
173,2024-02-27_10h47.21.286,Unsyncopated_study3,s120,21.0,feminino,right,España,Castellano,Bachelor degree,no,no,A,2,conjunction_un,L3,unsyncopated,s1,r2,45,Online_conjL3_un//b.ñe.sa20.0.888.wav,ñe,ga,di,sil,sa,li,le,sil1,fu,do,sil2,['miss'],,,0.0,beat,,,,ñe,1,,,,,,,,,,,,,,,3.0,2.0,Castellano,0.0,Inglés,2.0,Francés,6.0,5.0,3.0,yes,yes,no,Bajo,16,,,nada ,68.0,yes
174,2024-02-27_10h47.21.286,Unsyncopated_study3,s120,21.0,feminino,right,España,Castellano,Bachelor degree,no,no,A,2,conjunction_un,L3,unsyncopated,s1,r2,46,Online_conjL3_un//b.ñe.sa22.0.888.wav,ñe,fu,do,sil,sa,ji,li,sil1,di,je,sil2,['catch'],[1.590799999947194],[1.590799999947194],0.0,beat,,1.590799999947194,"[""space""]",ñe,1,,,,,,,,,,,,,,,3.0,2.0,Castellano,0.0,Inglés,2.0,Francés,6.0,5.0,3.0,yes,yes,no,Bajo,16,,,nada ,68.0,yes
175,2024-02-27_10h47.21.286,Unsyncopated_study3,s120,21.0,feminino,right,España,Castellano,Bachelor degree,no,no,A,2,conjunction_un,L3,unsyncopated,s2,r1,47,Online_conjL3_un//b.ñe.sa23.none.none.wav,je,ko,le,sil,chu,ji,fu,sil1,mo,ga,sil2,['-'],,,none,none,,,,ñe,1,,,,,,,,,,,,,,,3.0,2.0,Castellano,0.0,Inglés,2.0,Francés,6.0,5.0,3.0,yes,yes,no,Bajo,16,,,nada ,68.0,yes
176,2024-02-27_10h47.21.286,Unsyncopated_study3,s120,21.0,feminino,right,España,Castellano,Bachelor degree,no,no,A,2,conjunction_un,L3,unsyncopated,s1,r2,48,Online_conjL3_un//b.ñe.sa19.0.888.wav,ñe,je,ji,sil,sa,le,li,sil1,ko,ga,sil2,['miss'],,,0.0,beat,,,,ñe,1,,,,,,,,,,,,,,,3.0,2.0,Castellano,0.0,Inglés,2.0,Francés,6.0,5.0,3.0,yes,yes,no,Bajo,16,,,nada ,68.0,yes
177,2024-02-27_10h47.21.286,Unsyncopated_study3,s120,21.0,feminino,right,España,Castellano,Bachelor degree,no,no,A,2,conjunction_un,L3,unsyncopated,s1,r2,49,Online_conjL3_un//b.ñe.sa17.0.888.wav,ñe,li,je,sil,sa,di,fu,sil1,le,ga,sil2,['miss'],,,0.0,beat,,,,ñe,1,,,,,,,,,,,,,,,3.0,2.0,Castellano,0.0,Inglés,2.0,Francés,6.0,5.0,3.0,yes,yes,no,Bajo,16,,,nada ,68.0,yes
178,2024-02-27_10h47.21.286,Unsyncopated_study3,s120,21.0,feminino,right,España,Castellano,Bachelor degree,no,no,A,2,conjunction_un,L3,unsyncopated,s1,r1,50,Online_conjL3_un//b.ñe.sa18.none.none.wav,chu,do,ga,sil,mo,ka,di,sil1,le,je,sil2,['-'],,,none,none,,,,ñe,1,,,,,,,,,,,,,,,3.0,2.0,Castellano,0.0,Inglés,2.0,Francés,6.0,5.0,3.0,yes,yes,no,Bajo,16,,,nada ,68.0,yes
179,2024-02-27_10h47.21.286,Unsyncopated_study3,s120,21.0,feminino,right,España,Castellano,Bachelor degree,no,no,A,2,conjunction_un,L3,unsyncopated,s2,r1,51,Online_conjL3_un//b.ñe.sa16.none.none.wav,li,ga,ko,sil,chu,le,ji,sil1,mo,ka,sil2,['-'],,,none,none,,,,ñe,1,,,,,,,,,,,,,,,3.0,2.0,Castellano,0.0,Inglés,2.0,Francés,6.0,5.0,3.0,yes,yes,no,Bajo,16,,,nada ,68.0,yes
180,2024-02-27_10h47.21.286,Unsyncopated_study3,s120,21.0,feminino,right,España,Castellano,Bachelor degree,no,no,A,2,conjunction_un,L3,unsyncopated,s2,r1,52,Online_conjL3_un//b.ñe.sa0.none.none.wav,le,li,do,sil,chu,ko,je,sil1,mo,ga,sil2,['-'],,,none,none,,,,ñe,1,,,,,,,,,,,,,,,3.0,2.0,Castellano,0.0,Inglés,2.0,Francés,6.0,5.0,3.0,yes,yes,no,Bajo,16,,,nada ,68.0,yes
181,2024-02-27_10h47.21.286,Unsyncopated_study3,s120,21.0,feminino,right,España,Castellano,Bachelor degree,no,no,A,2,conjunction_un,L3,unsyncopated,s1,r1,53,Online_conjL3_un//b.ñe.sa2.none.none.wav,chu,ka,ga,sil,mo,le,gu,sil1,li,di,sil2,['-'],,,none,none,,,,ñe,1,,,,,,,,,,,,,,,3.0,2.0,Castellano,0.0,Inglés,2.0,Francés,6.0,5.0,3.0,yes,yes,no,Bajo,16,,,nada ,68.0,yes
182,2024-02-27_10h47.21.286,Unsyncopated_study3,s120,21.0,feminino,right,España,Castellano,Bachelor degree,no,no,A,2,conjunction_un,L3,unsyncopated,s2,r2,54,Online_conjL3_un//b.ñe.sa3.888.1776.wav,ko,ji,le,sil,ñe,ga,ka,sil1,sa,do,sil2,['miss'],,,0.888,beat,,,,ñe,1,,,,,,,,,,,,,,,3.0,2.0,Castellano,0.0,Inglés,2.0,Francés,6.0,5.0,3.0,yes,yes,no,Bajo,16,,,nada ,68.0,yes
183,2024-02-27_10h47.21.286,Unsyncopated_study3,s120,21.0,feminino,right,España,Castellano,Bachelor degree,no,no,A,2,conjunction_un,L3,unsyncopated,s2,r2,55,Online_conjL3_un//b.ñe.sa1.888.1776.wav,do,gu,je,sil,ñe,di,fu,sil1,sa,ji,sil2,['miss'],,,0.888,beat,,,,ñe,1,,,,,,,,,,,,,,,3.0,2.0,Castellano,0.0,Inglés,2.0,Francés,6.0,5.0,3.0,yes,yes,no,Bajo,16,,,nada ,68.0,yes
184,2024-02-27_10h47.21.286,Unsyncopated_study3,s120,21.0,feminino,right,España,Castellano,Bachelor degree,no,no,A,2,conjunction_un,L3,unsyncopated,s1,r1,56,Online_conjL3_un//a.chu.mo25.0.888.wav,chu,li,ka,sil,mo,ga,ko,sil1,je,ji,sil2,['miss'],,,0.888,beat,,,,mo,2,,,,,,,,,,,,,,,3.0,2.0,Castellano,0.0,Inglés,2.0,Francés,6.0,5.0,3.0,yes,yes,no,Bajo,16,,,nada ,68.0,yes
185,2024-02-27_10h47.21.286,Unsyncopated_study3,s120,21.0,feminino,right,España,Castellano,Bachelor degree,no,no,A,2,conjunction_un,L3,unsyncopated,s2,r1,57,Online_conjL3_un//a.chu.mo26.888.1776.wav,le,ko,fu,sil,chu,di,li,sil1,mo,ga,sil2,['miss'],,,1.776,beat,,,,mo,2,,,,,,,,,,,,,,,3.0,2.0,Castellano,0.0,Inglés,2.0,Francés,6.0,5.0,3.0,yes,yes,no,Bajo,16,,,nada ,68.0,yes
186,2024-02-27_10h47.21.286,Unsyncopated_study3,s120,21.0,feminino,right,España,Castellano,Bachelor degree,no,no,A,2,conjunction_un,L3,unsyncopated,s2,r2,58,Online_conjL3_un//a.chu.mo24.none.none.wav,je,ka,ga,sil,ñe,do,fu,sil1,sa,gu,sil2,['-'],,,none,none,,,,mo,2,,,,,,,,,,,,,,,3.0,2.0,Castellano,0.0,Inglés,2.0,Francés,6.0,5.0,3.0,yes,yes,no,Bajo,16,,,nada ,68.0,yes
187,2024-02-27_10h47.21.286,Unsyncopated_study3,s120,21.0,feminino,right,España,Castellano,Bachelor degree,no,no,A,2,conjunction_un,L3,unsyncopated,s2,r1,59,Online_conjL3_un//a.chu.mo27.888.1776.wav,ji,le,ga,sil,chu,je,ko,sil1,mo,li,sil2,['catch_delay'],[0.9531000001817012],[0.9531000001817012],1.776,beat,0.9531000001817012,0.9531000001817012,,mo,2,,,,,,,,,,,,,,,3.0,2.0,Castellano,0.0,Inglés,2.0,Francés,6.0,5.0,3.0,yes,yes,no,Bajo,16,,,nada ,68.0,yes
188,2024-02-27_10h47.21.286,Unsyncopated_study3,s120,21.0,feminino,right,España,Castellano,Bachelor degree,no,no,A,2,conjunction_un,L3,unsyncopated,s2,r1,60,Online_conjL3_un//d.ji.li0.none.none.wav,je,fu,do,sil,chu,ga,ka,sil1,mo,gu,sil2,['-'],[0.06510000018170103],[0.06510000018170103],none,none,,,"[""space""]",ji,4,,,,,,,,,,,,,,,3.0,2.0,Castellano,0.0,Inglés,2.0,Francés,6.0,5.0,3.0,yes,yes,no,Bajo,16,,,nada ,68.0,yes
189,2024-02-27_10h47.21.286,Unsyncopated_study3,s120,21.0,feminino,right,España,Castellano,Bachelor degree,no,no,A,2,conjunction_un,L3,unsyncopated,s2,r2,61,Online_conjL3_un//d.ji.li3.444.1110.wav,gu,je,ji,sil,ñe,li,fu,sil1,sa,do,sil2,['catch'],[1.1652999999350868],[1.1652999999350868],0.444,no_beat,0.7212999999350869,0.7212999999350869,"[""space""]",ji,4,,,,,,,,,,,,,,,3.0,2.0,Castellano,0.0,Inglés,2.0,Francés,6.0,5.0,3.0,yes,yes,no,Bajo,16,,,nada ,68.0,yes
190,2024-02-27_10h47.21.286,Unsyncopated_study3,s120,21.0,feminino,right,España,Castellano,Bachelor degree,no,no,A,2,conjunction_un,L3,unsyncopated,s2,r2,62,Online_conjL3_un//d.ji.li1.0.1110.wav,ji,ko,gu,sil,ñe,li,fu,sil1,sa,di,sil2,['catch'],[0.9985999999335036],[0.9985999999335036],0.0,beat,0.9985999999335036,0.9985999999335036,"[""space""]",ji,4,,,,,,,,,,,,,,,3.0,2.0,Castellano,0.0,Inglés,2.0,Francés,6.0,5.0,3.0,yes,yes,no,Bajo,16,,,nada ,68.0,yes
191,2024-02-27_10h47.21.286,Unsyncopated_study3,s120,21.0,feminino,right,España,Castellano,Bachelor degree,no,no,A,2,conjunction_un,L3,unsyncopated,s1,r1,63,Online_conjL3_un//d.ji.li2.222.444.wav,chu,ji,li,sil,mo,je,ko,sil1,fu,ga,sil2,['miss'],,,0.222,no_beat,,,,ji,4,,,,,,,,,,,,,,,3.0,2.0,Castellano,0.0,Inglés,2.0,Francés,6.0,5.0,3.0,yes,yes,no,Bajo,16,,,nada ,68.0,yes
192,2024-02-27_10h47.21.286,Unsyncopated_study3,s120,21.0,feminino,right,España,Castellano,Bachelor degree,no,no,A,2,conjunction_un,L3,unsyncopated,s1,r2,64,Online_conjL3_un//d.ji.li6.none.none.wav,ñe,do,di,sil,sa,je,ga,sil1,gu,ka,sil2,['-'],,,none,none,,,,ji,4,,,,,,,,,,,,,,,3.0,2.0,Castellano,0.0,Inglés,2.0,Francés,6.0,5.0,3.0,yes,yes,no,Bajo,16,,,nada ,68.0,yes
193,2024-02-27_10h47.21.286,Unsyncopated_study3,s120,21.0,feminino,right,España,Castellano,Bachelor degree,no,no,A,2,conjunction_un,L3,unsyncopated,s1,r2,65,Online_conjL3_un//d.ji.li5.none.none.wav,ñe,fu,je,sil,sa,gu,le,sil1,ga,di,sil2,['-'],,,none,none,,,,ji,4,,,,,,,,,,,,,,,3.0,2.0,Castellano,0.0,Inglés,2.0,Francés,6.0,5.0,3.0,yes,yes,no,Bajo,16,,,nada ,68.0,yes
194,2024-02-27_10h47.21.286,Unsyncopated_study3,s120,21.0,feminino,right,España,Castellano,Bachelor degree,no,no,A,2,conjunction_un,L3,unsyncopated,s2,r1,66,Online_conjL3_un//d.ji.li7.1332.222.wav,le,li,ka,sil,chu,do,ji,sil1,mo,di,sil2,['miss'],,,1.332,no_beat,,,,ji,4,,,,,,,,,,,,,,,3.0,2.0,Castellano,0.0,Inglés,2.0,Francés,6.0,5.0,3.0,yes,yes,no,Bajo,16,,,nada ,68.0,yes
195,2024-02-27_10h47.21.286,Unsyncopated_study3,s120,21.0,feminino,right,España,Castellano,Bachelor degree,no,no,A,2,conjunction_un,L3,unsyncopated,s2,r2,67,Online_conjL3_un//d.ji.li4.none.none.wav,je,ga,di,sil,ñe,ko,do,sil1,sa,le,sil2,['-'],,,none,none,,,,ji,4,,,,,,,,,,,,,,,3.0,2.0,Castellano,0.0,Inglés,2.0,Francés,6.0,5.0,3.0,yes,yes,no,Bajo,16,,,nada ,68.0,yes
196,2024-02-27_10h47.21.286,Unsyncopated_study3,s120,21.0,feminino,right,España,Castellano,Bachelor degree,no,no,A,2,conjunction_un,L3,unsyncopated,s1,r1,68,Online_conjL3_un//c.gu.je22.222.1332.wav,chu,gu,di,sil,mo,ga,je,sil1,do,le,sil2,['miss'],,,0.222,no_beat,,,,gu,3,,,,,,,,,,,,,,,3.0,2.0,Castellano,0.0,Inglés,2.0,Francés,6.0,5.0,3.0,yes,yes,no,Bajo,16,,,nada ,68.0,yes
197,2024-02-27_10h47.21.286,Unsyncopated_study3,s120,21.0,feminino,right,España,Castellano,Bachelor degree,no,no,A,2,conjunction_un,L3,unsyncopated,s2,r1,69,Online_conjL3_un//c.gu.je20.none.none.wav,li,fu,ji,sil,chu,ga,di,sil1,mo,ko,sil2,['-'],,,none,none,,,,gu,3,,,,,,,,,,,,,,,3.0,2.0,Castellano,0.0,Inglés,2.0,Francés,6.0,5.0,3.0,yes,yes,no,Bajo,16,,,nada ,68.0,yes
198,2024-02-27_10h47.21.286,Unsyncopated_study3,s120,21.0,feminino,right,España,Castellano,Bachelor degree,no,no,A,2,conjunction_un,L3,unsyncopated,s2,r2,70,Online_conjL3_un//c.gu.je23.1332.444.wav,fu,ji,je,sil,ñe,ka,gu,sil1,sa,li,sil2,['false alarm'],[1.2875000000349246],[1.2875000000349246],1.332,no_beat,,,"[""space""]",gu,3,,,,,,,,,,,,,,,3.0,2.0,Castellano,0.0,Inglés,2.0,Francés,6.0,5.0,3.0,yes,yes,no,Bajo,16,,,nada ,68.0,yes
199,2024-02-27_10h47.21.286,Unsyncopated_study3,s120,21.0,feminino,right,España,Castellano,Bachelor degree,no,no,A,2,conjunction_un,L3,unsyncopated,s1,r1,71,Online_conjL3_un//c.gu.je21.1110.1332.wav,chu,do,fu,sil,mo,gu,je,sil1,di,ga,sil2,['miss'],,,1.11,no_beat,,,,gu,3,,,,,,,,,,,,,,,3.0,2.0,Castellano,0.0,Inglés,2.0,Francés,6.0,5.0,3.0,yes,yes,no,Bajo,16,,,nada ,68.0,yes
200,2024-02-27_10h47.21.286,Unsyncopated_study3,s120,21.0,feminino,right,España,Castellano,Bachelor degree,no,no,A,2,conjunction_un,L3,unsyncopated,s1,r2,72,Online_conjL3_un//b.ñe.sa24.0.888.wav,ñe,fu,le,sil,sa,ko,ji,sil1,ka,do,sil2,['miss'],,,0.0,beat,,,,ñe,1,,,,,,,,,,,,,,,3.0,2.0,Castellano,0.0,Inglés,2.0,Francés,6.0,5.0,3.0,yes,yes,no,Bajo,16,,,nada ,68.0,yes
201,2024-02-27_10h47.21.286,Unsyncopated_study3,s120,21.0,feminino,right,España,Castellano,Bachelor degree,no,no,A,2,conjunction_un,L3,unsyncopated,s2,r2,73,Online_conjL3_un//b.ñe.sa25.888.1776.wav,le,ji,gu,sil,ñe,di,fu,sil1,sa,ko,sil2,['miss'],,,0.888,beat,,,,ñe,1,,,,,,,,,,,,,,,3.0,2.0,Castellano,0.0,Inglés,2.0,Francés,6.0,5.0,3.0,yes,yes,no,Bajo,16,,,nada ,68.0,yes
202,2024-02-27_10h47.21.286,Unsyncopated_study3,s120,21.0,feminino,right,España,Castellano,Bachelor degree,no,no,A,2,conjunction_un,L3,unsyncopated,s2,r1,74,Online_conjL3_un//b.ñe.sa26.none.none.wav,do,je,gu,sil,chu,ga,ko,sil1,mo,ka,sil2,['-'],,,none,none,,,,ñe,1,,,,,,,,,,,,,,,3.0,2.0,Castellano,0.0,Inglés,2.0,Francés,6.0,5.0,3.0,yes,yes,no,Bajo,16,,,nada ,68.0,yes
203,2024-02-27_10h47.21.286,Unsyncopated_study3,s120,21.0,feminino,right,España,Castellano,Bachelor degree,no,no,A,2,conjunction_un,L3,unsyncopated,s2,r2,75,Online_conjL3_un//b.ñe.sa27.888.1776.wav,ji,do,ka,sil,ñe,je,ko,sil1,sa,gu,sil2,['miss'],,,0.888,beat,,,,ñe,1,,,,,,,,,,,,,,,3.0,2.0,Castellano,0.0,Inglés,2.0,Francés,6.0,5.0,3.0,yes,yes,no,Bajo,16,,,nada ,68.0,yes
204,2024-02-27_10h47.21.286,Unsyncopated_study3,s120,21.0,feminino,right,España,Castellano,Bachelor degree,no,no,A,2,conjunction_un,L3,unsyncopated,s2,r2,76,Online_conjL3_un//b.ñe.sa4.888.1776.wav,fu,ji,ga,sil,ñe,gu,ko,sil1,sa,ka,sil2,['miss'],,,0.888,beat,,,,ñe,1,,,,,,,,,,,,,,,3.0,2.0,Castellano,0.0,Inglés,2.0,Francés,6.0,5.0,3.0,yes,yes,no,Bajo,16,,,nada ,68.0,yes
205,2024-02-27_10h47.21.286,Unsyncopated_study3,s120,21.0,feminino,right,España,Castellano,Bachelor degree,no,no,A,2,conjunction_un,L3,unsyncopated,s2,r1,77,Online_conjL3_un//b.ñe.sa5.none.none.wav,li,je,le,sil,chu,di,fu,sil1,mo,ji,sil2,['-'],,,none,none,,,,ñe,1,,,,,,,,,,,,,,,3.0,2.0,Castellano,0.0,Inglés,2.0,Francés,6.0,5.0,3.0,yes,yes,no,Bajo,16,,,nada ,68.0,yes
206,2024-02-27_10h47.21.286,Unsyncopated_study3,s120,21.0,feminino,right,España,Castellano,Bachelor degree,no,no,A,2,conjunction_un,L3,unsyncopated,s1,r1,78,Online_conjL3_un//b.ñe.sa6.none.none.wav,chu,fu,di,sil,mo,li,do,sil1,ji,le,sil2,['-'],,,none,none,,,,ñe,1,,,,,,,,,,,,,,,3.0,2.0,Castellano,0.0,Inglés,2.0,Francés,6.0,5.0,3.0,yes,yes,no,Bajo,16,,,nada ,68.0,yes
207,2024-02-27_10h47.21.286,Unsyncopated_study3,s120,21.0,feminino,right,España,Castellano,Bachelor degree,no,no,A,2,conjunction_un,L3,unsyncopated,s1,r1,79,Online_conjL3_un//b.ñe.sa7.none.none.wav,chu,gu,ka,sil,mo,di,li,sil1,do,je,sil2,['-'],,,none,none,,,,ñe,1,,,,,,,,,,,,,,,3.0,2.0,Castellano,0.0,Inglés,2.0,Francés,6.0,5.0,3.0,yes,yes,no,Bajo,16,,,nada ,68.0,yes
208,2024-02-27_10h47.21.286,Unsyncopated_study3,s120,21.0,feminino,right,España,Castellano,Bachelor degree,no,no,A,2,conjunction_un,L3,unsyncopated,s2,r1,80,Online_conjL3_un//a.chu.mo14.888.1776.wav,je,ka,li,sil,chu,di,fu,sil1,mo,le,sil2,['catch'],[2.460899999830872],[2.460899999830872],1.776,beat,0.6848999998308718,0.6848999998308718,"[""space""]",mo,2,,,,,,,,,,,,,,,3.0,2.0,Castellano,0.0,Inglés,2.0,Francés,6.0,5.0,3.0,yes,yes,no,Bajo,16,,,nada ,68.0,yes
209,2024-02-27_10h47.21.286,Unsyncopated_study3,s120,21.0,feminino,right,España,Castellano,Bachelor degree,no,no,A,2,conjunction_un,L3,unsyncopated,s1,r1,81,Online_conjL3_un//a.chu.mo13.0.888.wav,chu,gu,ji,sil,mo,li,ko,sil1,ga,le,sil2,['catch'],[1.76400000002468],[1.76400000002468],0.888,beat,0.87600000002468,0.87600000002468,"[""space""]",mo,2,,,,,,,,,,,,,,,3.0,2.0,Castellano,0.0,Inglés,2.0,Francés,6.0,5.0,3.0,yes,yes,no,Bajo,16,,,nada ,68.0,yes
210,2024-02-27_10h47.21.286,Unsyncopated_study3,s120,21.0,feminino,right,España,Castellano,Bachelor degree,no,no,A,2,conjunction_un,L3,unsyncopated,s2,r2,82,Online_conjL3_un//a.chu.mo12.none.none.wav,di,fu,gu,sil,ñe,ji,ko,sil1,sa,li,sil2,['-'],,,none,none,,,,mo,2,,,,,,,,,,,,,,,3.0,2.0,Castellano,0.0,Inglés,2.0,Francés,6.0,5.0,3.0,yes,yes,no,Bajo,16,,,nada ,68.0,yes
211,2024-02-27_10h47.21.286,Unsyncopated_study3,s120,21.0,feminino,right,España,Castellano,Bachelor degree,no,no,A,2,conjunction_un,L3,unsyncopated,s2,r2,83,Online_conjL3_un//a.chu.mo15.none.none.wav,fu,ko,di,sil,ñe,gu,je,sil1,sa,le,sil2,['-'],,,none,none,,,,mo,2,,,,,,,,,,,,,,,3.0,2.0,Castellano,0.0,Inglés,2.0,Francés,6.0,5.0,3.0,yes,yes,no,Bajo,16,,,nada ,68.0,yes
212,2024-02-27_10h47.21.286,Unsyncopated_study3,s120,21.0,feminino,right,España,Castellano,Bachelor degree,no,no,A,2,conjunction_un,L3,unsyncopated,s2,r2,84,Online_conjL3_un//c.gu.je19.none.none.wav,le,li,do,sil,ñe,fu,di,sil1,sa,ko,sil2,['-'],,,none,none,,,,gu,3,,,,,,,,,,,,,,,3.0,2.0,Castellano,0.0,Inglés,2.0,Francés,6.0,5.0,3.0,yes,yes,no,Bajo,16,,,nada ,68.0,yes
213,2024-02-27_10h47.21.286,Unsyncopated_study3,s120,21.0,feminino,right,España,Castellano,Bachelor degree,no,no,A,2,conjunction_un,L3,unsyncopated,s1,r2,85,Online_conjL3_un//c.gu.je16.222.1332.wav,ñe,gu,fu,sil,sa,do,je,sil1,li,le,sil2,['miss'],,,0.222,no_beat,,,,gu,3,,,,,,,,,,,,,,,3.0,2.0,Castellano,0.0,Inglés,2.0,Francés,6.0,5.0,3.0,yes,yes,no,Bajo,16,,,nada ,68.0,yes
214,2024-02-27_10h47.21.286,Unsyncopated_study3,s120,21.0,feminino,right,España,Castellano,Bachelor degree,no,no,A,2,conjunction_un,L3,unsyncopated,s1,r1,86,Online_conjL3_un//c.gu.je18.1110.222.wav,chu,je,ga,sil,mo,gu,di,sil1,ko,li,sil2,['miss'],,,1.11,no_beat,,,,gu,3,,,,,,,,,,,,,,,3.0,2.0,Castellano,0.0,Inglés,2.0,Francés,6.0,5.0,3.0,yes,yes,no,Bajo,16,,,nada ,68.0,yes
215,2024-02-27_10h47.21.286,Unsyncopated_study3,s120,21.0,feminino,right,España,Castellano,Bachelor degree,no,no,A,2,conjunction_un,L3,unsyncopated,s2,r1,87,Online_conjL3_un//c.gu.je17.0.1110.wav,gu,ka,ko,sil,chu,je,ji,sil1,mo,di,sil2,['miss'],,,0.0,beat,,,,gu,3,,,,,,,,,,,,,,,3.0,2.0,Castellano,0.0,Inglés,2.0,Francés,6.0,5.0,3.0,yes,yes,no,Bajo,16,,,nada ,68.0,yes
216,2024-02-27_10h47.21.286,Unsyncopated_study3,s120,21.0,feminino,right,España,Castellano,Bachelor degree,no,no,A,2,conjunction_un,L3,unsyncopated,s1,r1,88,Online_conjL3_un//b.ñe.sa12.none.none.wav,chu,je,li,sil,mo,ka,ga,sil1,ko,di,sil2,['-'],,,none,none,,,,ñe,1,,,,,,,,,,,,,,,3.0,2.0,Castellano,0.0,Inglés,2.0,Francés,6.0,5.0,3.0,yes,yes,no,Bajo,16,,,nada ,68.0,yes
217,2024-02-27_10h47.21.286,Unsyncopated_study3,s120,21.0,feminino,right,España,Castellano,Bachelor degree,no,no,A,2,conjunction_un,L3,unsyncopated,s2,r2,89,Online_conjL3_un//b.ñe.sa14.888.1776.wav,gu,ko,le,sil,ñe,ka,fu,sil1,sa,di,sil2,['miss'],,,0.888,beat,,,,ñe,1,,,,,,,,,,,,,,,3.0,2.0,Castellano,0.0,Inglés,2.0,Francés,6.0,5.0,3.0,yes,yes,no,Bajo,16,,,nada ,68.0,yes
218,2024-02-27_10h47.21.286,Unsyncopated_study3,s120,21.0,feminino,right,España,Castellano,Bachelor degree,no,no,A,2,conjunction_un,L3,unsyncopated,s2,r1,90,Online_conjL3_un//b.ñe.sa13.none.none.wav,ji,je,gu,sil,chu,ko,do,sil1,mo,di,sil2,['-'],,,none,none,,,,ñe,1,,,,,,,,,,,,,,,3.0,2.0,Castellano,0.0,Inglés,2.0,Francés,6.0,5.0,3.0,yes,yes,no,Bajo,16,,,nada ,68.0,yes
219,2024-02-27_10h47.21.286,Unsyncopated_study3,s120,21.0,feminino,right,España,Castellano,Bachelor degree,no,no,A,2,conjunction_un,L3,unsyncopated,s1,r2,91,Online_conjL3_un//b.ñe.sa15.0.888.wav,ñe,le,di,sil,sa,je,ji,sil1,fu,gu,sil2,['catch'],[0.8365999999223277],[0.8365999999223277],0.0,beat,0.8365999999223277,0.8365999999223277,"[""space""]",ñe,1,,,,,,,,,,,,,,,3.0,2.0,Castellano,0.0,Inglés,2.0,Francés,6.0,5.0,3.0,yes,yes,no,Bajo,16,,,nada ,68.0,yes
220,2024-02-27_10h47.21.286,Unsyncopated_study3,s120,21.0,feminino,right,España,Castellano,Bachelor degree,no,no,A,2,conjunction_un,L3,unsyncopated,s1,r1,92,Online_conjL3_un//a.chu.mo6.0.888.wav,chu,fu,do,sil,mo,ga,li,sil1,di,gu,sil2,['miss'],,,0.888,beat,,,,mo,2,,,,,,,,,,,,,,,3.0,2.0,Castellano,0.0,Inglés,2.0,Francés,6.0,5.0,3.0,yes,yes,no,Bajo,16,,,nada ,68.0,yes
221,2024-02-27_10h47.21.286,Unsyncopated_study3,s120,21.0,feminino,right,España,Castellano,Bachelor degree,no,no,A,2,conjunction_un,L3,unsyncopated,s1,r2,93,Online_conjL3_un//a.chu.mo4.none.none.wav,ñe,je,do,sil,sa,le,fu,sil1,li,ko,sil2,['-'],,,none,none,,,,mo,2,,,,,,,,,,,,,,,3.0,2.0,Castellano,0.0,Inglés,2.0,Francés,6.0,5.0,3.0,yes,yes,no,Bajo,16,,,nada ,68.0,yes
222,2024-02-27_10h47.21.286,Unsyncopated_study3,s120,21.0,feminino,right,España,Castellano,Bachelor degree,no,no,A,2,conjunction_un,L3,unsyncopated,s2,r2,94,Online_conjL3_un//a.chu.mo5.none.none.wav,fu,di,ga,sil,ñe,gu,do,sil1,sa,li,sil2,['-'],,,none,none,,,,mo,2,,,,,,,,,,,,,,,3.0,2.0,Castellano,0.0,Inglés,2.0,Francés,6.0,5.0,3.0,yes,yes,no,Bajo,16,,,nada ,68.0,yes
223,2024-02-27_10h47.21.286,Unsyncopated_study3,s120,21.0,feminino,right,España,Castellano,Bachelor degree,no,no,A,2,conjunction_un,L3,unsyncopated,s2,r1,95,Online_conjL3_un//a.chu.mo7.888.1776.wav,ka,ji,ko,sil,chu,ga,le,sil1,mo,gu,sil2,['miss'],,,1.776,beat,,,,mo,2,,,,,,,,,,,,,,,3.0,2.0,Castellano,0.0,Inglés,2.0,Francés,6.0,5.0,3.0,yes,yes,no,Bajo,16,,,nada ,68.0,yes
