Unnamed: 0,date,expName,participant,age,sex,hand,residence,native_lang,education_level,lang_deficit,aud_deficit,group,block,condition,language,rhythm,rule structure online,rule type online,order_trial_on,trial_online,s1,s2,s3,s4,s5,s6,s7,s8,s9,s10,s11,catch_syll_resp,rts_syll_catch,clean_rts,time_syll,beat_no_beat,catch_rtsTR,catch_rts,syllable_catch.keys,cond_syll,syll_to_catch,test_offline,block_off,condition_off,rhythm_off,rule,rule_str_off,rule_norule,conds_offline,language_off,Partz_no_partm.keys,Partz_no_partm.rt,security_1_7.keys,accuracy,security_1_7.rt,n_lang,n_lang_used,lang_1,age_l1,lang_2,age_l2,lang_3,age_l3,ability_learn_l2,tendence_mix_lan,music_experience,muisc_use,partiture,instr_1,age_M1,instr_2,age_M2,preguntas_musica1,BMRQ_answer.response,final comment,BMRQ_Score,bilingual
0,2024-03-17_18h21.30.304,Unsyncopated_study3,s134,19,feminino,right,España,Español,Upper secondary,no,no,B,1,conjunction_un,L3,unsyncopated,s2,r2,0,Online_conjL3_un//a.chu.mo24.none.none.wav,je,ka,ga,sil,ñe,do,fu,sil1,sa,gu,sil2,['-'],,,none,none,,,,chu,1,testConjL3Uns//r2.s1.2.wav,1.0,conjunction_un,unsyncopated,b,s1,rule,rule,L3,z,1.6471,5.0,1.0,29.5274,3,2,Español,0,Inglés,3,Alemán,8,5,2,yes,yes,yes,Flauta travesera,6,Piano,6,1. Cuando comparto música con alguien siento una complicidad especial con aquella persona.,3.0,"Hola! Realicé las primeras preguntas previas al experimento un día antes del experimento, lo demás en orden",73.0,yes
1,2024-03-17_18h21.30.304,Unsyncopated_study3,s134,19,feminino,right,España,Español,Upper secondary,no,no,B,1,conjunction_un,L3,unsyncopated,s2,r1,1,Online_conjL3_un//a.chu.mo27.888.1776.wav,ji,le,ga,sil,chu,je,ko,sil1,mo,li,sil2,['catch'],[1.5616000000236454],[1.5616000000236454],0.888,beat,0.6736000000236454,0.6736000000236454,"[""space""]",chu,1,testConjL3Uns//r1.s2.2.wav,1.0,conjunction_un,unsyncopated,a,s2,rule,rule,L3,z,1.3851,7.0,1.0,2.2031,3,2,Español,0,Inglés,3,Alemán,8,5,2,yes,yes,yes,Flauta travesera,6,Piano,6,2. En mi tiempo libre apenas escucho música.,5.0,"Hola! Realicé las primeras preguntas previas al experimento un día antes del experimento, lo demás en orden",73.0,yes
2,2024-03-17_18h21.30.304,Unsyncopated_study3,s134,19,feminino,right,España,Español,Upper secondary,no,no,B,1,conjunction_un,L3,unsyncopated,s1,r1,2,Online_conjL3_un//a.chu.mo25.0.888.wav,chu,li,ka,sil,mo,ga,ko,sil1,je,ji,sil2,['catch'],[0.5933999999760999],[0.5933999999760999],0,beat,0.5933999999760999,0.5933999999760999,"[""space""]",chu,1,testConjL3Uns//r2.s1.1.wav,1.0,conjunction_un,unsyncopated,b,s1,rule,rule,L3,z,1.7535,5.0,1.0,2.3395,3,2,Español,0,Inglés,3,Alemán,8,5,2,yes,yes,yes,Flauta travesera,6,Piano,6,3. Algunas canciones me ponen los pelos de punta,4.0,"Hola! Realicé las primeras preguntas previas al experimento un día antes del experimento, lo demás en orden",73.0,yes
3,2024-03-17_18h21.30.304,Unsyncopated_study3,s134,19,feminino,right,España,Español,Upper secondary,no,no,B,1,conjunction_un,L3,unsyncopated,s2,r1,3,Online_conjL3_un//a.chu.mo26.888.1776.wav,le,ko,fu,sil,chu,di,li,sil1,mo,ga,sil2,['catch'],[1.2632999999523236],[1.2632999999523236],0.888,beat,0.3752999999523235,0.3752999999523235,"[""space""]",chu,1,testConjL3Uns//r2.s2.2.wav,1.0,conjunction_un,unsyncopated,b,s2,rule,rule,L3,z,1.3686,7.0,1.0,1.919,3,2,Español,0,Inglés,3,Alemán,8,5,2,yes,yes,yes,Flauta travesera,6,Piano,6,4. La música me hace compañía cuando estoy solo,4.0,"Hola! Realicé las primeras preguntas previas al experimento un día antes del experimento, lo demás en orden",73.0,yes
4,2024-03-17_18h21.30.304,Unsyncopated_study3,s134,19,feminino,right,España,Español,Upper secondary,no,no,B,1,conjunction_un,L3,unsyncopated,s2,r2,4,Online_conjL3_un//a.chu.mo12.none.none.wav,di,fu,gu,sil,ñe,ji,ko,sil1,sa,li,sil2,['-'],,,none,none,,,,chu,1,testConjL3Uns//r1.s1.1.wav,1.0,conjunction_un,unsyncopated,a,s1,rule,rule,L3,z,1.1511,4.0,1.0,1.3355,3,2,Español,0,Inglés,3,Alemán,8,5,2,yes,yes,yes,Flauta travesera,6,Piano,6,5. No me apetece bailar ni con la música que más me gusta,4.0,"Hola! Realicé las primeras preguntas previas al experimento un día antes del experimento, lo demás en orden",73.0,yes
5,2024-03-17_18h21.30.304,Unsyncopated_study3,s134,19,feminino,right,España,Español,Upper secondary,no,no,B,1,conjunction_un,L3,unsyncopated,s1,r1,5,Online_conjL3_un//a.chu.mo13.0.888.wav,chu,gu,ji,sil,mo,li,ko,sil1,ga,le,sil2,['catch'],[0.4622999999523927],[0.4622999999523927],0,beat,0.4622999999523927,0.4622999999523927,"[""space""]",chu,1,testConjL3Uns//r1.s1.0.wav,1.0,conjunction_un,unsyncopated,a,s1,rule,rule,L3,m,6.921,4.0,0.0,2.4349,3,2,Español,0,Inglés,3,Alemán,8,5,2,yes,yes,yes,Flauta travesera,6,Piano,6,6. La música me hace conectar con la gente,3.0,"Hola! Realicé las primeras preguntas previas al experimento un día antes del experimento, lo demás en orden",73.0,yes
6,2024-03-17_18h21.30.304,Unsyncopated_study3,s134,19,feminino,right,España,Español,Upper secondary,no,no,B,1,conjunction_un,L3,unsyncopated,s2,r1,6,Online_conjL3_un//a.chu.mo14.888.1776.wav,je,ka,li,sil,chu,di,fu,sil1,mo,le,sil2,['catch'],[1.279899999976351],[1.279899999976351],0.888,beat,0.3918999999763509,0.3918999999763509,"[""space""]",chu,1,testConjL3Uns//dep_viol.r2.s1.0.wav,1.0,conjunction_un,unsyncopated,b,s1,no_rule,dep,L3,z,256.9382,4.0,0.0,3.6714,3,2,Español,0,Inglés,3,Alemán,8,5,2,yes,yes,yes,Flauta travesera,6,Piano,6,7. Me informo sobre la música que me gusta.,3.0,"Hola! Realicé las primeras preguntas previas al experimento un día antes del experimento, lo demás en orden",73.0,yes
7,2024-03-17_18h21.30.304,Unsyncopated_study3,s134,19,feminino,right,España,Español,Upper secondary,no,no,B,1,conjunction_un,L3,unsyncopated,s2,r2,7,Online_conjL3_un//a.chu.mo15.none.none.wav,fu,ko,di,sil,ñe,gu,je,sil1,sa,le,sil2,['-'],,,none,none,,,,chu,1,testConjL3Uns//r1.s2.1.wav,1.0,conjunction_un,unsyncopated,a,s2,rule,rule,L3,z,2.1301,7.0,1.0,1.9145,3,2,Español,0,Inglés,3,Alemán,8,5,2,yes,yes,yes,Flauta travesera,6,Piano,6,8.Me emociono escuchando ciertas canciones.,4.0,"Hola! Realicé las primeras preguntas previas al experimento un día antes del experimento, lo demás en orden",73.0,yes
8,2024-03-17_18h21.30.304,Unsyncopated_study3,s134,19,feminino,right,España,Español,Upper secondary,no,no,B,1,conjunction_un,L3,unsyncopated,s1,r1,8,Online_conjL3_un//c.gu.je22.222.1332.wav,chu,gu,di,sil,mo,ga,je,sil1,do,le,sil2,"['false alarm', 'catch']","[0.5561000000238892, 1.7573999999758598]",[1.7573999999758598],1.332,no_beat,0.4253999999758597,0.4253999999758597,"[""space"",""space""]",je,3,testConjL3Uns//cat_viol.r1.s2.0.wav,1.0,conjunction_un,unsyncopated,a,s2,no_rule,cat,L3,z,2.0654,4.0,0.0,1.4349,3,2,Español,0,Inglés,3,Alemán,8,5,2,yes,yes,yes,Flauta travesera,6,Piano,6,9.La música me tranquiliza y me relaja.,4.0,"Hola! Realicé las primeras preguntas previas al experimento un día antes del experimento, lo demás en orden",73.0,yes
9,2024-03-17_18h21.30.304,Unsyncopated_study3,s134,19,feminino,right,España,Español,Upper secondary,no,no,B,1,conjunction_un,L3,unsyncopated,s2,r1,9,Online_conjL3_un//c.gu.je20.none.none.wav,li,fu,ji,sil,chu,ga,di,sil1,mo,ko,sil2,['-'],,,none,none,,,,je,3,testConjL3Uns//time_viol.r1.s2.0.wav,1.0,conjunction_un,unsyncopated,a,s2,no_rule,time,L3,m,3.1734,5.0,1.0,2.0743,3,2,Español,0,Inglés,3,Alemán,8,5,2,yes,yes,yes,Flauta travesera,6,Piano,6,10.La música me hace bailar,3.0,"Hola! Realicé las primeras preguntas previas al experimento un día antes del experimento, lo demás en orden",73.0,yes
10,2024-03-17_18h21.30.304,Unsyncopated_study3,s134,19,feminino,right,España,Español,Upper secondary,no,no,B,1,conjunction_un,L3,unsyncopated,s1,r1,10,Online_conjL3_un//c.gu.je21.1110.1332.wav,chu,do,fu,sil,mo,gu,je,sil1,di,ga,sil2,['catch'],[1.9108999999757543],[1.9108999999757543],1.332,no_beat,0.5788999999757543,0.5788999999757543,"[""space""]",je,3,testConjL3Uns//cat_viol.r2.s2.0.wav,1.0,conjunction_un,unsyncopated,b,s2,no_rule,cat,L3,z,0.9703,7.0,0.0,1.054,3,2,Español,0,Inglés,3,Alemán,8,5,2,yes,yes,yes,Flauta travesera,6,Piano,6,11.Busco novedades musicales continuamente,3.0,"Hola! Realicé las primeras preguntas previas al experimento un día antes del experimento, lo demás en orden",73.0,yes
11,2024-03-17_18h21.30.304,Unsyncopated_study3,s134,19,feminino,right,España,Español,Upper secondary,no,no,B,1,conjunction_un,L3,unsyncopated,s2,r2,11,Online_conjL3_un//c.gu.je23.1332.444.wav,fu,ji,je,sil,ñe,ka,gu,sil1,sa,li,sil2,['catch'],[1.04719999992858],[1.04719999992858],0.444,no_beat,0.6032,0.6032,"[""space""]",je,3,testConjL3Uns//dep_viol.r1.s2.0.wav,1.0,conjunction_un,unsyncopated,a,s2,no_rule,dep,L3,z,2.8197,4.0,0.0,1.5081,3,2,Español,0,Inglés,3,Alemán,8,5,2,yes,yes,yes,Flauta travesera,6,Piano,6,12. Puedo llorar cuando escucho algunas melodías que me gustan mucho.,4.0,"Hola! Realicé las primeras preguntas previas al experimento un día antes del experimento, lo demás en orden",73.0,yes
12,2024-03-17_18h21.30.304,Unsyncopated_study3,s134,19,feminino,right,España,Español,Upper secondary,no,no,B,1,conjunction_un,L3,unsyncopated,s1,r2,12,Online_conjL3_un//b.ñe.sa17.0.888.wav,ñe,li,je,sil,sa,di,fu,sil1,le,ga,sil2,['catch'],[1.7176999999282998],[1.7176999999282998],0.888,beat,0.8296999999282998,0.8296999999282998,"[""space""]",sa,2,testConjL3Uns//dep_viol.r1.s1.0.wav,1.0,conjunction_un,unsyncopated,a,s1,no_rule,dep,L3,z,0.8236,7.0,0.0,0.6804,3,2,Español,0,Inglés,3,Alemán,8,5,2,yes,yes,yes,Flauta travesera,6,Piano,6,13. Me gusta cantar o tocar un instrumento con más gente,3.0,"Hola! Realicé las primeras preguntas previas al experimento un día antes del experimento, lo demás en orden",73.0,yes
13,2024-03-17_18h21.30.304,Unsyncopated_study3,s134,19,feminino,right,España,Español,Upper secondary,no,no,B,1,conjunction_un,L3,unsyncopated,s1,r2,13,Online_conjL3_un//b.ñe.sa19.0.888.wav,ñe,je,ji,sil,sa,le,li,sil1,ko,ga,sil2,['catch'],[1.2643999999763764],[1.2643999999763764],0.888,beat,0.3763999999763764,0.3763999999763764,"[""space""]",sa,2,testConjL3Uns//cat_viol.r2.s1.0.wav,1.0,conjunction_un,unsyncopated,b,s1,no_rule,cat,L3,z,2.2613,3.0,0.0,1.1738,3,2,Español,0,Inglés,3,Alemán,8,5,2,yes,yes,yes,Flauta travesera,6,Piano,6,14. La música me ayuda a desconectar.,4.0,"Hola! Realicé las primeras preguntas previas al experimento un día antes del experimento, lo demás en orden",73.0,yes
14,2024-03-17_18h21.30.304,Unsyncopated_study3,s134,19,feminino,right,España,Español,Upper secondary,no,no,B,1,conjunction_un,L3,unsyncopated,s2,r1,14,Online_conjL3_un//b.ñe.sa16.none.none.wav,li,ga,ko,sil,chu,le,ji,sil1,mo,ka,sil2,['-'],,,none,none,,,,sa,2,testConjL3Uns//r2.s1.0.wav,1.0,conjunction_un,unsyncopated,b,s1,rule,rule,L3,z,1.0561,4.0,1.0,0.9735,3,2,Español,0,Inglés,3,Alemán,8,5,2,yes,yes,yes,Flauta travesera,6,Piano,6,15. No puedo evitar tararear las canciones que me gustan cuando las escucho.,4.0,"Hola! Realicé las primeras preguntas previas al experimento un día antes del experimento, lo demás en orden",73.0,yes
15,2024-03-17_18h21.30.304,Unsyncopated_study3,s134,19,feminino,right,España,Español,Upper secondary,no,no,B,1,conjunction_un,L3,unsyncopated,s1,r1,15,Online_conjL3_un//b.ñe.sa18.none.none.wav,chu,do,ga,sil,mo,ka,di,sil1,le,je,sil2,['-'],,,none,none,,,,sa,2,testConjL3Uns//time_viol.r2.s1.0.wav,1.0,conjunction_un,unsyncopated,b,s1,no_rule,time,L3,m,1.2551,3.0,1.0,1.1085,3,2,Español,0,Inglés,3,Alemán,8,5,2,yes,yes,yes,Flauta travesera,6,Piano,6,16. En los conciertos me siento en sintonía con los artistas y el público.,4.0,"Hola! Realicé las primeras preguntas previas al experimento un día antes del experimento, lo demás en orden",73.0,yes
16,2024-03-17_18h21.30.304,Unsyncopated_study3,s134,19,feminino,right,España,Español,Upper secondary,no,no,B,1,conjunction_un,L3,unsyncopated,s1,r2,16,Online_conjL3_un//c.gu.je11.none.none.wav,ñe,li,ji,sil,sa,fu,di,sil1,ko,do,sil2,['false alarm'],[0.8851000000240674],[0.8851000000240674],none,none,,,"[""space""]",je,3,testConjL3Uns//r1.s2.0.wav,1.0,conjunction_un,unsyncopated,a,s2,rule,rule,L3,m,1.8175,5.0,0.0,2.7351,3,2,Español,0,Inglés,3,Alemán,8,5,2,yes,yes,yes,Flauta travesera,6,Piano,6,17. Me gasto bastante dinero en música y cosas relacionadas con la música.,3.0,"Hola! Realicé las primeras preguntas previas al experimento un día antes del experimento, lo demás en orden",73.0,yes
17,2024-03-17_18h21.30.304,Unsyncopated_study3,s134,19,feminino,right,España,Español,Upper secondary,no,no,B,1,conjunction_un,L3,unsyncopated,s2,r1,17,Online_conjL3_un//c.gu.je8.0.1110.wav,gu,fu,le,sil,chu,je,li,sil1,mo,ko,sil2,['miss'],,,1.11,no_beat,,,,je,3,testConjL3Uns//r1.s1.2.wav,1.0,conjunction_un,unsyncopated,a,s1,rule,rule,L3,z,1.0126,4.0,1.0,1.7324,3,2,Español,0,Inglés,3,Alemán,8,5,2,yes,yes,yes,Flauta travesera,6,Piano,6,18. Siento escalofríos cuando escucho una melodía que me gusta.,4.0,"Hola! Realicé las primeras preguntas previas al experimento un día antes del experimento, lo demás en orden",73.0,yes
18,2024-03-17_18h21.30.304,Unsyncopated_study3,s134,19,feminino,right,España,Español,Upper secondary,no,no,B,1,conjunction_un,L3,unsyncopated,s1,r2,18,Online_conjL3_un//c.gu.je10.none.none.wav,ñe,ga,ko,sil,sa,fu,di,sil1,ka,do,sil2,['-'],,,none,none,,,,je,3,testConjL3Uns//dep_viol.r2.s2.0.wav,1.0,conjunction_un,unsyncopated,b,s2,no_rule,dep,L3,z,1.7674,4.0,0.0,1.3075,3,2,Español,0,Inglés,3,Alemán,8,5,2,yes,yes,yes,Flauta travesera,6,Piano,6,19. Con la música me puedo desahogar.,4.0,"Hola! Realicé las primeras preguntas previas al experimento un día antes del experimento, lo demás en orden",73.0,yes
19,2024-03-17_18h21.30.304,Unsyncopated_study3,s134,19,feminino,right,España,Español,Upper secondary,no,no,B,1,conjunction_un,L3,unsyncopated,s2,r1,19,Online_conjL3_un//c.gu.je9.none.none.wav,ji,le,ga,sil,chu,ka,li,sil1,mo,do,sil2,['-'],,,none,none,,,,je,3,testConjL3Uns//r2.s2.0.wav,1.0,conjunction_un,unsyncopated,b,s2,rule,rule,L3,z,2.2917,3.0,1.0,1.2565,3,2,Español,0,Inglés,3,Alemán,8,5,2,yes,yes,yes,Flauta travesera,6,Piano,6,20. Cuando escucho una melodía que me gusta mucho no puedo evitar mover el cuerpo.,3.0,"Hola! Realicé las primeras preguntas previas al experimento un día antes del experimento, lo demás en orden",73.0,yes
20,2024-03-17_18h21.30.304,Unsyncopated_study3,s134,19,feminino,right,España,Español,Upper secondary,no,no,B,1,conjunction_un,L3,unsyncopated,s1,r2,20,Online_conjL3_un//d.ji.li6.none.none.wav,ñe,do,di,sil,sa,je,ga,sil1,gu,ka,sil2,['-'],,,none,none,,,,li,4,testConjL3Uns//cat_viol.r1.s1.0.wav,1.0,conjunction_un,unsyncopated,a,s1,no_rule,cat,L3,z,1.8208,3.0,0.0,1.0381,3,2,Español,0,Inglés,3,Alemán,8,5,2,yes,yes,yes,Flauta travesera,6,Piano,6,,,"Hola! Realicé las primeras preguntas previas al experimento un día antes del experimento, lo demás en orden",73.0,yes
21,2024-03-17_18h21.30.304,Unsyncopated_study3,s134,19,feminino,right,España,Español,Upper secondary,no,no,B,1,conjunction_un,L3,unsyncopated,s2,r2,21,Online_conjL3_un//d.ji.li4.none.none.wav,je,ga,di,sil,ñe,ko,do,sil1,sa,le,sil2,['-'],,,none,none,,,,li,4,testConjL3Uns//time_viol.r2.s2.0.wav,1.0,conjunction_un,unsyncopated,b,s2,no_rule,time,L3,m,1.0345,6.0,1.0,1.761,3,2,Español,0,Inglés,3,Alemán,8,5,2,yes,yes,yes,Flauta travesera,6,Piano,6,,,"Hola! Realicé las primeras preguntas previas al experimento un día antes del experimento, lo demás en orden",73.0,yes
22,2024-03-17_18h21.30.304,Unsyncopated_study3,s134,19,feminino,right,España,Español,Upper secondary,no,no,B,1,conjunction_un,L3,unsyncopated,s2,r1,22,Online_conjL3_un//d.ji.li7.1332.222.wav,le,li,ka,sil,chu,do,ji,sil1,mo,di,sil2,['catch'],[0.8653999999760345],[0.8653999999760345],0.222,no_beat,0.6433999999760345,0.6433999999760345,"[""space""]",li,4,testConjL3Uns//time_viol.r1.s1.0.wav,1.0,conjunction_un,unsyncopated,a,s1,no_rule,time,L3,m,0.8581,5.0,1.0,1.3104,3,2,Español,0,Inglés,3,Alemán,8,5,2,yes,yes,yes,Flauta travesera,6,Piano,6,,,"Hola! Realicé las primeras preguntas previas al experimento un día antes del experimento, lo demás en orden",73.0,yes
23,2024-03-17_18h21.30.304,Unsyncopated_study3,s134,19,feminino,right,España,Español,Upper secondary,no,no,B,1,conjunction_un,L3,unsyncopated,s1,r2,23,Online_conjL3_un//d.ji.li5.none.none.wav,ñe,fu,je,sil,sa,gu,le,sil1,ga,di,sil2,['-'],,,none,none,,,,li,4,testConjL3Uns//r2.s2.1.wav,1.0,conjunction_un,unsyncopated,b,s2,rule,rule,L3,m,1.4257,5.0,0.0,1.5031,3,2,Español,0,Inglés,3,Alemán,8,5,2,yes,yes,yes,Flauta travesera,6,Piano,6,,,"Hola! Realicé las primeras preguntas previas al experimento un día antes del experimento, lo demás en orden",73.0,yes
24,2024-03-17_18h21.30.304,Unsyncopated_study3,s134,19,feminino,right,España,Español,Upper secondary,no,no,B,1,conjunction_un,L3,unsyncopated,s1,r2,24,Online_conjL3_un//c.gu.je7.none.none.wav,ñe,ka,ji,sil,sa,do,le,sil1,di,fu,sil2,['-'],,,none,none,,,,je,3,testWhenL1Uns//cat_viol.r2.s1.0.wav,2.0,when,unsyncopated,b,s1,no_rule,cat,L1,z,2.3107,5.0,1.0,2.0952,3,2,Español,0,Inglés,3,Alemán,8,5,2,yes,yes,yes,Flauta travesera,6,Piano,6,,,"Hola! Realicé las primeras preguntas previas al experimento un día antes del experimento, lo demás en orden",73.0,yes
25,2024-03-17_18h21.30.304,Unsyncopated_study3,s134,19,feminino,right,España,Español,Upper secondary,no,no,B,1,conjunction_un,L3,unsyncopated,s2,r1,25,Online_conjL3_un//c.gu.je5.1332.222.wav,do,je,ka,sil,chu,di,gu,sil1,mo,ji,sil2,['catch'],[0.8967999999522362],[0.8967999999522362],0.222,no_beat,0.6747999999522363,0.6747999999522363,"[""space""]",je,3,testWhenL1Uns//dep_viol.r2.s2.0.wav,2.0,when,unsyncopated,b,s2,no_rule,dep,L1,z,2.0454,4.0,1.0,1.1252,3,2,Español,0,Inglés,3,Alemán,8,5,2,yes,yes,yes,Flauta travesera,6,Piano,6,,,"Hola! Realicé las primeras preguntas previas al experimento un día antes del experimento, lo demás en orden",73.0,yes
26,2024-03-17_18h21.30.304,Unsyncopated_study3,s134,19,feminino,right,España,Español,Upper secondary,no,no,B,1,conjunction_un,L3,unsyncopated,s1,r2,26,Online_conjL3_un//c.gu.je6.1110.222.wav,ñe,je,ko,sil,sa,gu,di,sil1,do,fu,sil2,['catch'],[0.9136000000239619],[0.9136000000239619],0.222,no_beat,0.6916000000239619,0.6916000000239619,"[""space""]",je,3,testWhenL1Uns//cat_viol.r1.s2.0.wav,2.0,when,unsyncopated,a,s2,no_rule,cat,L1,m,73.7944,4.0,0.0,295.8558,3,2,Español,0,Inglés,3,Alemán,8,5,2,yes,yes,yes,Flauta travesera,6,Piano,6,,,"Hola! Realicé las primeras preguntas previas al experimento un día antes del experimento, lo demás en orden",73.0,yes
27,2024-03-17_18h21.30.304,Unsyncopated_study3,s134,19,feminino,right,España,Español,Upper secondary,no,no,B,1,conjunction_un,L3,unsyncopated,s2,r2,27,Online_conjL3_un//c.gu.je4.444.0.wav,je,ji,gu,sil,ñe,ka,li,sil1,sa,fu,sil2,['catch'],[0.4801000000238673],[0.4801000000238673],0,beat,0.4801000000238673,0.4801000000238673,"[""space""]",je,3,testWhenL1Uns//cat_viol.r1.s1.0.wav,2.0,when,unsyncopated,a,s1,no_rule,cat,L1,z,1.381,4.0,1.0,1.0152,3,2,Español,0,Inglés,3,Alemán,8,5,2,yes,yes,yes,Flauta travesera,6,Piano,6,,,"Hola! Realicé las primeras preguntas previas al experimento un día antes del experimento, lo demás en orden",73.0,yes
28,2024-03-17_18h21.30.304,Unsyncopated_study3,s134,19,feminino,right,España,Español,Upper secondary,no,no,B,1,conjunction_un,L3,unsyncopated,s1,r1,28,Online_conjL3_un//b.ñe.sa11.none.none.wav,chu,ka,fu,sil,mo,ga,ji,sil1,je,le,sil2,['-'],,,none,none,,,,sa,2,testWhenL1Uns//r1.s1.1.wav,2.0,when,unsyncopated,a,s1,rule,rule,L1,z,0.9477,4.0,1.0,0.4178,3,2,Español,0,Inglés,3,Alemán,8,5,2,yes,yes,yes,Flauta travesera,6,Piano,6,,,"Hola! Realicé las primeras preguntas previas al experimento un día antes del experimento, lo demás en orden",73.0,yes
29,2024-03-17_18h21.30.304,Unsyncopated_study3,s134,19,feminino,right,España,Español,Upper secondary,no,no,B,1,conjunction_un,L3,unsyncopated,s1,r2,29,Online_conjL3_un//b.ñe.sa8.0.888.wav,ñe,li,je,sil,sa,ka,ga,sil1,fu,do,sil2,['catch'],[1.4447000000477601],[1.4447000000477601],0.888,beat,0.5567000000477601,0.5567000000477601,"[""space""]",sa,2,testWhenL1Uns//r2.s2.2.wav,2.0,when,unsyncopated,b,s2,rule,rule,L1,m,2.1695,5.0,0.0,1.1181,3,2,Español,0,Inglés,3,Alemán,8,5,2,yes,yes,yes,Flauta travesera,6,Piano,6,,,"Hola! Realicé las primeras preguntas previas al experimento un día antes del experimento, lo demás en orden",73.0,yes
30,2024-03-17_18h21.30.304,Unsyncopated_study3,s134,19,feminino,right,España,Español,Upper secondary,no,no,B,1,conjunction_un,L3,unsyncopated,s2,r1,30,Online_conjL3_un//b.ñe.sa10.none.none.wav,do,je,le,sil,chu,di,fu,sil1,mo,ji,sil2,['-'],,,none,none,,,,sa,2,testWhenL1Uns//r1.s2.0.wav,2.0,when,unsyncopated,a,s2,rule,rule,L1,m,0.7858,5.0,0.0,0.5798,3,2,Español,0,Inglés,3,Alemán,8,5,2,yes,yes,yes,Flauta travesera,6,Piano,6,,,"Hola! Realicé las primeras preguntas previas al experimento un día antes del experimento, lo demás en orden",73.0,yes
31,2024-03-17_18h21.30.304,Unsyncopated_study3,s134,19,feminino,right,España,Español,Upper secondary,no,no,B,1,conjunction_un,L3,unsyncopated,s2,r2,31,Online_conjL3_un//b.ñe.sa9.888.1776.wav,le,ji,ga,sil,ñe,do,ka,sil1,sa,li,sil2,['catch'],[2.2294999999999163],[2.2294999999999163],1.776,beat,0.4534999999999163,0.4534999999999163,"[""space""]",sa,2,testWhenL1Uns//time_viol.r2.s1.0.wav,2.0,when,unsyncopated,b,s1,no_rule,time,L1,m,0.7447,6.0,0.0,0.5986,3,2,Español,0,Inglés,3,Alemán,8,5,2,yes,yes,yes,Flauta travesera,6,Piano,6,,,"Hola! Realicé las primeras preguntas previas al experimento un día antes del experimento, lo demás en orden",73.0,yes
32,2024-03-17_18h21.30.304,Unsyncopated_study3,s134,19,feminino,right,España,Español,Upper secondary,no,no,B,1,conjunction_un,L3,unsyncopated,s2,r2,32,Online_conjL3_un//d.ji.li1.0.1110.wav,ji,ko,gu,sil,ñe,li,fu,sil1,sa,di,sil2,['catch'],[2.0043000000719076],[2.0043000000719076],1.11,no_beat,0.8943000000719075,0.8943000000719075,"[""space""]",li,4,testWhenL1Uns//time_viol.r1.s1.0.wav,2.0,when,unsyncopated,a,s1,no_rule,time,L1,z,1.6191,4.0,1.0,0.7024,3,2,Español,0,Inglés,3,Alemán,8,5,2,yes,yes,yes,Flauta travesera,6,Piano,6,,,"Hola! Realicé las primeras preguntas previas al experimento un día antes del experimento, lo demás en orden",73.0,yes
33,2024-03-17_18h21.30.304,Unsyncopated_study3,s134,19,feminino,right,España,Español,Upper secondary,no,no,B,1,conjunction_un,L3,unsyncopated,s2,r2,33,Online_conjL3_un//d.ji.li3.444.1110.wav,gu,je,ji,sil,ñe,li,fu,sil1,sa,do,sil2,['catch'],[1.5696999999286163],[1.5696999999286163],1.11,no_beat,0.4596999999286162,0.4596999999286162,"[""space""]",li,4,testWhenL1Uns//dep_viol.r1.s2.0.wav,2.0,when,unsyncopated,a,s2,no_rule,dep,L1,z,0.5398,4.0,1.0,0.3892,3,2,Español,0,Inglés,3,Alemán,8,5,2,yes,yes,yes,Flauta travesera,6,Piano,6,,,"Hola! Realicé las primeras preguntas previas al experimento un día antes del experimento, lo demás en orden",73.0,yes
34,2024-03-17_18h21.30.304,Unsyncopated_study3,s134,19,feminino,right,España,Español,Upper secondary,no,no,B,1,conjunction_un,L3,unsyncopated,s2,r1,34,Online_conjL3_un//d.ji.li0.none.none.wav,je,fu,do,sil,chu,ga,ka,sil1,mo,gu,sil2,['-'],,,none,none,,,,li,4,testWhenL1Uns//dep_viol.r2.s1.0.wav,2.0,when,unsyncopated,b,s1,no_rule,dep,L1,z,0.6352,6.0,1.0,1.0341,3,2,Español,0,Inglés,3,Alemán,8,5,2,yes,yes,yes,Flauta travesera,6,Piano,6,,,"Hola! Realicé las primeras preguntas previas al experimento un día antes del experimento, lo demás en orden",73.0,yes
35,2024-03-17_18h21.30.304,Unsyncopated_study3,s134,19,feminino,right,España,Español,Upper secondary,no,no,B,1,conjunction_un,L3,unsyncopated,s1,r1,35,Online_conjL3_un//d.ji.li2.222.444.wav,chu,ji,li,sil,mo,je,ko,sil1,fu,ga,sil2,['catch'],[1.328800000071169],[1.328800000071169],0.444,no_beat,0.8848000000711691,0.8848000000711691,"[""space""]",li,4,testWhenL1Uns//r1.s2.2.wav,2.0,when,unsyncopated,a,s2,rule,rule,L1,m,1.418,4.0,0.0,0.4305,3,2,Español,0,Inglés,3,Alemán,8,5,2,yes,yes,yes,Flauta travesera,6,Piano,6,,,"Hola! Realicé las primeras preguntas previas al experimento un día antes del experimento, lo demás en orden",73.0,yes
36,2024-03-17_18h21.30.304,Unsyncopated_study3,s134,19,feminino,right,España,Español,Upper secondary,no,no,B,1,conjunction_un,L3,unsyncopated,s2,r2,36,Online_conjL3_un//a.chu.mo30.none.none.wav,ji,ga,ka,sil,ñe,fu,li,sil1,sa,do,sil2,['-'],,,none,none,,,,chu,1,testWhenL1Uns//cat_viol.r2.s2.0.wav,2.0,when,unsyncopated,b,s2,no_rule,cat,L1,m,11.8562,4.0,0.0,1.0555,3,2,Español,0,Inglés,3,Alemán,8,5,2,yes,yes,yes,Flauta travesera,6,Piano,6,,,"Hola! Realicé las primeras preguntas previas al experimento un día antes del experimento, lo demás en orden",73.0,yes
37,2024-03-17_18h21.30.304,Unsyncopated_study3,s134,19,feminino,right,España,Español,Upper secondary,no,no,B,1,conjunction_un,L3,unsyncopated,s2,r1,37,Online_conjL3_un//a.chu.mo29.888.1776.wav,li,ji,ko,sil,chu,gu,do,sil1,mo,je,sil2,['catch'],[1.231999999999971],[1.231999999999971],0.888,beat,0.3439999999999709,0.3439999999999709,"[""space""]",chu,1,testWhenL1Uns//time_viol.r2.s2.0.wav,2.0,when,unsyncopated,b,s2,no_rule,time,L1,z,1.6874,6.0,1.0,0.8749,3,2,Español,0,Inglés,3,Alemán,8,5,2,yes,yes,yes,Flauta travesera,6,Piano,6,,,"Hola! Realicé las primeras preguntas previas al experimento un día antes del experimento, lo demás en orden",73.0,yes
38,2024-03-17_18h21.30.304,Unsyncopated_study3,s134,19,feminino,right,España,Español,Upper secondary,no,no,B,1,conjunction_un,L3,unsyncopated,s1,r1,38,Online_conjL3_un//a.chu.mo28.0.888.wav,chu,fu,di,sil,mo,do,li,sil1,ji,ka,sil2,['catch'],[0.6633000000715583],[0.6633000000715583],0,beat,0.6633000000715583,0.6633000000715583,"[""space""]",chu,1,testWhenL1Uns//r1.s1.2.wav,2.0,when,unsyncopated,a,s1,rule,rule,L1,m,2.5633,7.0,0.0,0.6581,3,2,Español,0,Inglés,3,Alemán,8,5,2,yes,yes,yes,Flauta travesera,6,Piano,6,,,"Hola! Realicé las primeras preguntas previas al experimento un día antes del experimento, lo demás en orden",73.0,yes
39,2024-03-17_18h21.30.304,Unsyncopated_study3,s134,19,feminino,right,España,Español,Upper secondary,no,no,B,1,conjunction_un,L3,unsyncopated,s2,r1,39,Online_conjL3_un//a.chu.mo31.888.1776.wav,fu,je,ji,sil,chu,le,ko,sil1,mo,gu,sil2,['catch'],[1.2408000000718857],[1.2408000000718857],0.888,beat,0.3528000000718857,0.3528000000718857,"[""space""]",chu,1,testWhenL1Uns//r2.s1.0.wav,2.0,when,unsyncopated,b,s1,rule,rule,L1,z,0.7751,6.0,1.0,0.5548,3,2,Español,0,Inglés,3,Alemán,8,5,2,yes,yes,yes,Flauta travesera,6,Piano,6,,,"Hola! Realicé las primeras preguntas previas al experimento un día antes del experimento, lo demás en orden",73.0,yes
40,2024-03-17_18h21.30.304,Unsyncopated_study3,s134,19,feminino,right,España,Español,Upper secondary,no,no,B,1,conjunction_un,L3,unsyncopated,s1,r1,40,Online_conjL3_un//a.chu.mo6.0.888.wav,chu,fu,do,sil,mo,ga,li,sil1,di,gu,sil2,['catch'],[0.5223999999761872],[0.5223999999761872],0,beat,0.5223999999761872,0.5223999999761872,"[""space""]",chu,1,testWhenL1Uns//r2.s1.1.wav,2.0,when,unsyncopated,b,s1,rule,rule,L1,z,0.7494,3.0,1.0,0.8651,3,2,Español,0,Inglés,3,Alemán,8,5,2,yes,yes,yes,Flauta travesera,6,Piano,6,,,"Hola! Realicé las primeras preguntas previas al experimento un día antes del experimento, lo demás en orden",73.0,yes
41,2024-03-17_18h21.30.304,Unsyncopated_study3,s134,19,feminino,right,España,Español,Upper secondary,no,no,B,1,conjunction_un,L3,unsyncopated,s1,r2,41,Online_conjL3_un//a.chu.mo4.none.none.wav,ñe,je,do,sil,sa,le,fu,sil1,li,ko,sil2,['-'],,,none,none,,,,chu,1,testWhenL1Uns//dep_viol.r1.s1.0.wav,2.0,when,unsyncopated,a,s1,no_rule,dep,L1,z,0.6782,6.0,1.0,0.5767,3,2,Español,0,Inglés,3,Alemán,8,5,2,yes,yes,yes,Flauta travesera,6,Piano,6,,,"Hola! Realicé las primeras preguntas previas al experimento un día antes del experimento, lo demás en orden",73.0,yes
42,2024-03-17_18h21.30.304,Unsyncopated_study3,s134,19,feminino,right,España,Español,Upper secondary,no,no,B,1,conjunction_un,L3,unsyncopated,s2,r1,42,Online_conjL3_un//a.chu.mo7.888.1776.wav,ka,ji,ko,sil,chu,ga,le,sil1,mo,gu,sil2,['catch'],[1.2494999999998981],[1.2494999999998981],0.888,beat,0.3614999999998981,0.3614999999998981,"[""space""]",chu,1,testWhenL1Uns//r1.s2.1.wav,2.0,when,unsyncopated,a,s2,rule,rule,L1,z,0.6538,5.0,1.0,0.4704,3,2,Español,0,Inglés,3,Alemán,8,5,2,yes,yes,yes,Flauta travesera,6,Piano,6,,,"Hola! Realicé las primeras preguntas previas al experimento un día antes del experimento, lo demás en orden",73.0,yes
43,2024-03-17_18h21.30.304,Unsyncopated_study3,s134,19,feminino,right,España,Español,Upper secondary,no,no,B,1,conjunction_un,L3,unsyncopated,s2,r2,43,Online_conjL3_un//a.chu.mo5.none.none.wav,fu,di,ga,sil,ñe,gu,do,sil1,sa,li,sil2,['-'],,,none,none,,,,chu,1,testWhenL1Uns//r2.s2.1.wav,2.0,when,unsyncopated,b,s2,rule,rule,L1,z,0.5763,3.0,1.0,0.9819,3,2,Español,0,Inglés,3,Alemán,8,5,2,yes,yes,yes,Flauta travesera,6,Piano,6,,,"Hola! Realicé las primeras preguntas previas al experimento un día antes del experimento, lo demás en orden",73.0,yes
44,2024-03-17_18h21.30.304,Unsyncopated_study3,s134,19,feminino,right,España,Español,Upper secondary,no,no,B,1,conjunction_un,L3,unsyncopated,s1,r1,44,Online_conjL3_un//a.chu.mo20.0.888.wav,chu,gu,di,sil,mo,ka,li,sil1,le,ji,sil2,['catch'],[0.504299999952309],[0.504299999952309],0,beat,0.5043,0.5043,"[""space""]",chu,1,testWhenL1Uns//r2.s1.2.wav,2.0,when,unsyncopated,b,s1,rule,rule,L1,m,1.7023,5.0,0.0,0.7369,3,2,Español,0,Inglés,3,Alemán,8,5,2,yes,yes,yes,Flauta travesera,6,Piano,6,,,"Hola! Realicé las primeras preguntas previas al experimento un día antes del experimento, lo demás en orden",73.0,yes
45,2024-03-17_18h21.30.304,Unsyncopated_study3,s134,19,feminino,right,España,Español,Upper secondary,no,no,B,1,conjunction_un,L3,unsyncopated,s2,r2,45,Online_conjL3_un//a.chu.mo21.none.none.wav,ko,di,li,sil,ñe,ka,ji,sil1,sa,do,sil2,['-'],,,none,none,,,,chu,1,testWhenL1Uns//time_viol.r1.s2.0.wav,2.0,when,unsyncopated,a,s2,no_rule,time,L1,m,2.5655,5.0,0.0,2.117,3,2,Español,0,Inglés,3,Alemán,8,5,2,yes,yes,yes,Flauta travesera,6,Piano,6,,,"Hola! Realicé las primeras preguntas previas al experimento un día antes del experimento, lo demás en orden",73.0,yes
46,2024-03-17_18h21.30.304,Unsyncopated_study3,s134,19,feminino,right,España,Español,Upper secondary,no,no,B,1,conjunction_un,L3,unsyncopated,s2,r2,46,Online_conjL3_un//a.chu.mo22.none.none.wav,ko,le,ga,sil,ñe,ji,di,sil1,sa,ka,sil2,['-'],,,none,none,,,,chu,1,testWhenL1Uns//r2.s2.0.wav,2.0,when,unsyncopated,b,s2,rule,rule,L1,m,1.0732,5.0,0.0,0.453,3,2,Español,0,Inglés,3,Alemán,8,5,2,yes,yes,yes,Flauta travesera,6,Piano,6,,,"Hola! Realicé las primeras preguntas previas al experimento un día antes del experimento, lo demás en orden",73.0,yes
47,2024-03-17_18h21.30.304,Unsyncopated_study3,s134,19,feminino,right,España,Español,Upper secondary,no,no,B,1,conjunction_un,L3,unsyncopated,s1,r2,47,Online_conjL3_un//a.chu.mo23.none.none.wav,ñe,li,le,sil,sa,do,ji,sil1,je,gu,sil2,['-'],,,none,none,,,,chu,1,testWhenL1Uns//r1.s1.0.wav,2.0,when,unsyncopated,a,s1,rule,rule,L1,m,0.4888,5.0,0.0,0.4717,3,2,Español,0,Inglés,3,Alemán,8,5,2,yes,yes,yes,Flauta travesera,6,Piano,6,,,"Hola! Realicé las primeras preguntas previas al experimento un día antes del experimento, lo demás en orden",73.0,yes
48,2024-03-17_18h21.30.304,Unsyncopated_study3,s134,19,feminino,right,España,Español,Upper secondary,no,no,B,1,conjunction_un,L3,unsyncopated,s2,r2,48,Online_conjL3_un//d.ji.li19.none.none.wav,gu,ga,di,sil,ñe,do,ka,sil1,sa,ko,sil2,['-'],,,none,none,,,,li,4,testWhatL4Uns//r1.s1.2.wav,3.0,what,unsyncopated,a,s1,rule,rule,L4,z,3.3288,4.0,1.0,0.8484,3,2,Español,0,Inglés,3,Alemán,8,5,2,yes,yes,yes,Flauta travesera,6,Piano,6,,,"Hola! Realicé las primeras preguntas previas al experimento un día antes del experimento, lo demás en orden",73.0,yes
49,2024-03-17_18h21.30.304,Unsyncopated_study3,s134,19,feminino,right,España,Español,Upper secondary,no,no,B,1,conjunction_un,L3,unsyncopated,s1,r1,49,Online_conjL3_un//d.ji.li17.none.none.wav,chu,je,gu,sil,mo,do,ko,sil1,ga,le,sil2,"['false alarm', 'false alarm']","[0.7328999999763255, 0.8445000000001528]",0.8445000000001528,none,none,,,"[""space"",""space""]",li,4,testWhatL4Uns//time_viol.r2.s2.0.wav,3.0,what,unsyncopated,b,s2,no_rule,time,L4,z,1.3452,5.0,0.0,1.3055,3,2,Español,0,Inglés,3,Alemán,8,5,2,yes,yes,yes,Flauta travesera,6,Piano,6,,,"Hola! Realicé las primeras preguntas previas al experimento un día antes del experimento, lo demás en orden",73.0,yes
50,2024-03-17_18h21.30.304,Unsyncopated_study3,s134,19,feminino,right,España,Español,Upper secondary,no,no,B,1,conjunction_un,L3,unsyncopated,s2,r2,50,Online_conjL3_un//d.ji.li18.1332.444.wav,ka,le,li,sil,ñe,gu,ji,sil1,sa,ko,sil2,['catch'],[0.8786000000241074],[0.8786000000241074],0.444,no_beat,0.4346000000241074,0.4346000000241074,"[""space""]",li,4,testWhatL4Uns//r1.s2.2.wav,3.0,what,unsyncopated,a,s2,rule,rule,L4,m,1.6179,4.0,0.0,0.8084,3,2,Español,0,Inglés,3,Alemán,8,5,2,yes,yes,yes,Flauta travesera,6,Piano,6,,,"Hola! Realicé las primeras preguntas previas al experimento un día antes del experimento, lo demás en orden",73.0,yes
51,2024-03-17_18h21.30.304,Unsyncopated_study3,s134,19,feminino,right,España,Español,Upper secondary,no,no,B,1,conjunction_un,L3,unsyncopated,s2,r2,51,Online_conjL3_un//d.ji.li16.none.none.wav,di,gu,je,sil,ñe,ga,ko,sil1,sa,ka,sil2,['-'],,,none,none,,,,li,4,testWhatL4Uns//r2.s1.1.wav,3.0,what,unsyncopated,b,s1,rule,rule,L4,m,2.1099,4.0,0.0,1.1424,3,2,Español,0,Inglés,3,Alemán,8,5,2,yes,yes,yes,Flauta travesera,6,Piano,6,,,"Hola! Realicé las primeras preguntas previas al experimento un día antes del experimento, lo demás en orden",73.0,yes
52,2024-03-17_18h21.30.304,Unsyncopated_study3,s134,19,feminino,right,España,Español,Upper secondary,no,no,B,1,conjunction_un,L3,unsyncopated,s2,r2,52,Online_conjL3_un//b.ñe.sa30.888.1776.wav,le,ji,di,sil,ñe,ko,fu,sil1,sa,li,sil2,"['catch', 'false alarm']","[2.223899999976311, 2.272199999928489]",[2.223899999976311],1.776,beat,0.4478999999763109,0.4478999999763109,"[""space"",""space""]",sa,2,testWhatL4Uns//dep_viol.r2.s2.0.wav,3.0,what,unsyncopated,b,s2,no_rule,dep,L4,m,2.6305,4.0,1.0,0.5249,3,2,Español,0,Inglés,3,Alemán,8,5,2,yes,yes,yes,Flauta travesera,6,Piano,6,,,"Hola! Realicé las primeras preguntas previas al experimento un día antes del experimento, lo demás en orden",73.0,yes
53,2024-03-17_18h21.30.304,Unsyncopated_study3,s134,19,feminino,right,España,Español,Upper secondary,no,no,B,1,conjunction_un,L3,unsyncopated,s1,r2,53,Online_conjL3_un//b.ñe.sa29.0.888.wav,ñe,ka,di,sil,sa,ji,je,sil1,ga,fu,sil2,['catch'],[1.5303999999764528],[1.5303999999764528],0.888,beat,0.6423999999764528,0.6423999999764528,"[""space""]",sa,2,testWhatL4Uns//r2.s1.2.wav,3.0,what,unsyncopated,b,s1,rule,rule,L4,z,1.9338,5.0,1.0,0.6986,3,2,Español,0,Inglés,3,Alemán,8,5,2,yes,yes,yes,Flauta travesera,6,Piano,6,,,"Hola! Realicé las primeras preguntas previas al experimento un día antes del experimento, lo demás en orden",73.0,yes
54,2024-03-17_18h21.30.304,Unsyncopated_study3,s134,19,feminino,right,España,Español,Upper secondary,no,no,B,1,conjunction_un,L3,unsyncopated,s2,r1,54,Online_conjL3_un//b.ñe.sa31.none.none.wav,li,ji,je,sil,chu,fu,le,sil1,mo,di,sil2,['-'],,,none,none,,,,sa,2,testWhatL4Uns//r1.s2.0.wav,3.0,what,unsyncopated,a,s2,rule,rule,L4,m,1.3716,5.0,0.0,0.785,3,2,Español,0,Inglés,3,Alemán,8,5,2,yes,yes,yes,Flauta travesera,6,Piano,6,,,"Hola! Realicé las primeras preguntas previas al experimento un día antes del experimento, lo demás en orden",73.0,yes
55,2024-03-17_18h21.30.304,Unsyncopated_study3,s134,19,feminino,right,España,Español,Upper secondary,no,no,B,1,conjunction_un,L3,unsyncopated,s1,r1,55,Online_conjL3_un//b.ñe.sa28.none.none.wav,chu,je,ko,sil,mo,fu,di,sil1,li,do,sil2,['-'],,,none,none,,,,sa,2,testWhatL4Uns//time_viol.r2.s1.0.wav,3.0,what,unsyncopated,b,s1,no_rule,time,L4,z,1.2037,5.0,0.0,0.9671,3,2,Español,0,Inglés,3,Alemán,8,5,2,yes,yes,yes,Flauta travesera,6,Piano,6,,,"Hola! Realicé las primeras preguntas previas al experimento un día antes del experimento, lo demás en orden",73.0,yes
56,2024-03-17_18h21.30.304,Unsyncopated_study3,s134,19,feminino,right,España,Español,Upper secondary,no,no,B,1,conjunction_un,L3,unsyncopated,s1,r2,56,Online_conjL3_un//a.chu.mo17.none.none.wav,ñe,li,do,sil,sa,je,gu,sil1,fu,ko,sil2,['-'],,,none,none,,,,chu,1,testWhatL4Uns//r2.s2.2.wav,3.0,what,unsyncopated,b,s2,rule,rule,L4,z,2.7611,3.0,1.0,1.478,3,2,Español,0,Inglés,3,Alemán,8,5,2,yes,yes,yes,Flauta travesera,6,Piano,6,,,"Hola! Realicé las primeras preguntas previas al experimento un día antes del experimento, lo demás en orden",73.0,yes
57,2024-03-17_18h21.30.304,Unsyncopated_study3,s134,19,feminino,right,España,Español,Upper secondary,no,no,B,1,conjunction_un,L3,unsyncopated,s1,r2,57,Online_conjL3_un//a.chu.mo16.none.none.wav,ñe,ga,je,sil,sa,li,ko,sil1,fu,gu,sil2,['-'],,,none,none,,,,chu,1,testWhatL4Uns//time_viol.r1.s2.0.wav,3.0,what,unsyncopated,a,s2,no_rule,time,L4,m,1.3685,4.0,1.0,0.7573,3,2,Español,0,Inglés,3,Alemán,8,5,2,yes,yes,yes,Flauta travesera,6,Piano,6,,,"Hola! Realicé las primeras preguntas previas al experimento un día antes del experimento, lo demás en orden",73.0,yes
58,2024-03-17_18h21.30.304,Unsyncopated_study3,s134,19,feminino,right,España,Español,Upper secondary,no,no,B,1,conjunction_un,L3,unsyncopated,s2,r1,58,Online_conjL3_un//a.chu.mo18.888.1776.wav,do,fu,ka,sil,chu,ko,ga,sil1,mo,ji,sil2,['catch'],[1.4998999999761509],[1.4998999999761509],0.888,beat,0.6118999999761509,0.6118999999761509,"[""space""]",chu,1,testWhatL4Uns//cat_viol.r2.s2.0.wav,3.0,what,unsyncopated,b,s2,no_rule,cat,L4,m,1.2063,4.0,1.0,0.6672,3,2,Español,0,Inglés,3,Alemán,8,5,2,yes,yes,yes,Flauta travesera,6,Piano,6,,,"Hola! Realicé las primeras preguntas previas al experimento un día antes del experimento, lo demás en orden",73.0,yes
59,2024-03-17_18h21.30.304,Unsyncopated_study3,s134,19,feminino,right,España,Español,Upper secondary,no,no,B,1,conjunction_un,L3,unsyncopated,s1,r2,59,Online_conjL3_un//a.chu.mo19.none.none.wav,ñe,ji,je,sil,sa,fu,di,sil1,li,ko,sil2,['-'],,,none,none,,,,chu,1,testWhatL4Uns//r1.s2.1.wav,3.0,what,unsyncopated,a,s2,rule,rule,L4,m,4.1268,5.0,0.0,0.6526,3,2,Español,0,Inglés,3,Alemán,8,5,2,yes,yes,yes,Flauta travesera,6,Piano,6,,,"Hola! Realicé las primeras preguntas previas al experimento un día antes del experimento, lo demás en orden",73.0,yes
60,2024-03-17_18h21.30.304,Unsyncopated_study3,s134,19,feminino,right,España,Español,Upper secondary,no,no,B,1,conjunction_un,L3,unsyncopated,s1,r2,60,Online_conjL3_un//c.gu.je30.none.none.wav,ñe,ka,ko,sil,sa,ga,do,sil1,di,ji,sil2,['-'],,,none,none,,,,je,3,testWhatL4Uns//time_viol.r1.s1.0.wav,3.0,what,unsyncopated,a,s1,no_rule,time,L4,m,1.8249,4.0,1.0,1.0168,3,2,Español,0,Inglés,3,Alemán,8,5,2,yes,yes,yes,Flauta travesera,6,Piano,6,,,"Hola! Realicé las primeras preguntas previas al experimento un día antes del experimento, lo demás en orden",73.0,yes
61,2024-03-17_18h21.30.304,Unsyncopated_study3,s134,19,feminino,right,España,Español,Upper secondary,no,no,B,1,conjunction_un,L3,unsyncopated,s2,r2,61,Online_conjL3_un//c.gu.je28.none.none.wav,ga,do,le,sil,ñe,ji,ka,sil1,sa,ko,sil2,['-'],,,none,none,,,,je,3,testWhatL4Uns//r1.s1.1.wav,3.0,what,unsyncopated,a,s1,rule,rule,L4,m,0.7532,3.0,0.0,0.6585,3,2,Español,0,Inglés,3,Alemán,8,5,2,yes,yes,yes,Flauta travesera,6,Piano,6,,,"Hola! Realicé las primeras preguntas previas al experimento un día antes del experimento, lo demás en orden",73.0,yes
62,2024-03-17_18h21.30.304,Unsyncopated_study3,s134,19,feminino,right,España,Español,Upper secondary,no,no,B,1,conjunction_un,L3,unsyncopated,s1,r1,62,Online_conjL3_un//c.gu.je29.none.none.wav,chu,di,fu,sil,mo,li,ji,sil1,do,ga,sil2,['false alarm'],[1.7015000000001237],[1.7015000000001237],none,none,,,"[""space""]",je,3,testWhatL4Uns//cat_viol.r1.s2.0.wav,3.0,what,unsyncopated,a,s2,no_rule,cat,L4,m,0.8369,3.0,1.0,0.8237,3,2,Español,0,Inglés,3,Alemán,8,5,2,yes,yes,yes,Flauta travesera,6,Piano,6,,,"Hola! Realicé las primeras preguntas previas al experimento un día antes del experimento, lo demás en orden",73.0,yes
63,2024-03-17_18h21.30.304,Unsyncopated_study3,s134,19,feminino,right,España,Español,Upper secondary,no,no,B,1,conjunction_un,L3,unsyncopated,s1,r1,63,Online_conjL3_un//c.gu.je31.none.none.wav,chu,ga,di,sil,mo,ji,li,sil1,ka,le,sil2,['-'],,,none,none,,,,je,3,testWhatL4Uns//r2.s1.0.wav,3.0,what,unsyncopated,b,s1,rule,rule,L4,m,8.1581,6.0,0.0,0.868,3,2,Español,0,Inglés,3,Alemán,8,5,2,yes,yes,yes,Flauta travesera,6,Piano,6,,,"Hola! Realicé las primeras preguntas previas al experimento un día antes del experimento, lo demás en orden",73.0,yes
64,2024-03-17_18h21.30.304,Unsyncopated_study3,s134,19,feminino,right,España,Español,Upper secondary,no,no,B,1,conjunction_un,L3,unsyncopated,s2,r2,64,Online_conjL3_un//b.ñe.sa27.888.1776.wav,ji,do,ka,sil,ñe,je,ko,sil1,sa,gu,sil2,['catch'],[2.255299999952058],[2.255299999952058],1.776,beat,0.4792999999520579,0.4792999999520579,"[""space""]",sa,2,testWhatL4Uns//r2.s2.0.wav,3.0,what,unsyncopated,b,s2,rule,rule,L4,z,1.1435,6.0,1.0,1.0992,3,2,Español,0,Inglés,3,Alemán,8,5,2,yes,yes,yes,Flauta travesera,6,Piano,6,,,"Hola! Realicé las primeras preguntas previas al experimento un día antes del experimento, lo demás en orden",73.0,yes
65,2024-03-17_18h21.30.304,Unsyncopated_study3,s134,19,feminino,right,España,Español,Upper secondary,no,no,B,1,conjunction_un,L3,unsyncopated,s2,r1,65,Online_conjL3_un//b.ñe.sa26.none.none.wav,do,je,gu,sil,chu,ga,ko,sil1,mo,ka,sil2,['-'],,,none,none,,,,sa,2,testWhatL4Uns//dep_viol.r1.s1.0.wav,3.0,what,unsyncopated,a,s1,no_rule,dep,L4,m,1.1198,5.0,1.0,0.5577,3,2,Español,0,Inglés,3,Alemán,8,5,2,yes,yes,yes,Flauta travesera,6,Piano,6,,,"Hola! Realicé las primeras preguntas previas al experimento un día antes del experimento, lo demás en orden",73.0,yes
66,2024-03-17_18h21.30.304,Unsyncopated_study3,s134,19,feminino,right,España,Español,Upper secondary,no,no,B,1,conjunction_un,L3,unsyncopated,s1,r2,66,Online_conjL3_un//b.ñe.sa24.0.888.wav,ñe,fu,le,sil,sa,ko,ji,sil1,ka,do,sil2,['catch'],[1.408800000071551],[1.408800000071551],0.888,beat,0.5208,0.5208,"[""space""]",sa,2,testWhatL4Uns//r2.s2.1.wav,3.0,what,unsyncopated,b,s2,rule,rule,L4,z,1.0168,4.0,1.0,0.5453,3,2,Español,0,Inglés,3,Alemán,8,5,2,yes,yes,yes,Flauta travesera,6,Piano,6,,,"Hola! Realicé las primeras preguntas previas al experimento un día antes del experimento, lo demás en orden",73.0,yes
67,2024-03-17_18h21.30.304,Unsyncopated_study3,s134,19,feminino,right,España,Español,Upper secondary,no,no,B,1,conjunction_un,L3,unsyncopated,s2,r2,67,Online_conjL3_un//b.ñe.sa25.888.1776.wav,le,ji,gu,sil,ñe,di,fu,sil1,sa,ko,sil2,['catch'],[2.32870000004732],[2.32870000004732],1.776,beat,0.5527000000473199,0.5527000000473199,"[""space""]",sa,2,testWhatL4Uns//dep_viol.r1.s2.0.wav,3.0,what,unsyncopated,a,s2,no_rule,dep,L4,z,0.8886,3.0,0.0,0.4689,3,2,Español,0,Inglés,3,Alemán,8,5,2,yes,yes,yes,Flauta travesera,6,Piano,6,,,"Hola! Realicé las primeras preguntas previas al experimento un día antes del experimento, lo demás en orden",73.0,yes
68,2024-03-17_18h21.30.304,Unsyncopated_study3,s134,19,feminino,right,España,Español,Upper secondary,no,no,B,1,conjunction_un,L3,unsyncopated,s2,r2,68,Online_conjL3_un//b.ñe.sa14.888.1776.wav,gu,ko,le,sil,ñe,ka,fu,sil1,sa,di,sil2,['catch'],[2.2409999999999854],[2.2409999999999854],1.776,beat,0.4649999999999854,0.4649999999999854,"[""space""]",sa,2,testWhatL4Uns//cat_viol.r2.s1.0.wav,3.0,what,unsyncopated,b,s1,no_rule,cat,L4,z,1.1205,3.0,0.0,0.4903,3,2,Español,0,Inglés,3,Alemán,8,5,2,yes,yes,yes,Flauta travesera,6,Piano,6,,,"Hola! Realicé las primeras preguntas previas al experimento un día antes del experimento, lo demás en orden",73.0,yes
69,2024-03-17_18h21.30.304,Unsyncopated_study3,s134,19,feminino,right,España,Español,Upper secondary,no,no,B,1,conjunction_un,L3,unsyncopated,s1,r2,69,Online_conjL3_un//b.ñe.sa15.0.888.wav,ñe,le,di,sil,sa,je,ji,sil1,fu,gu,sil2,['catch'],[1.5279999999997926],[1.5279999999997926],0.888,beat,0.6399999999997926,0.6399999999997926,"[""space""]",sa,2,testWhatL4Uns//cat_viol.r1.s1.0.wav,3.0,what,unsyncopated,a,s1,no_rule,cat,L4,m,0.6359,7.0,1.0,0.5518,3,2,Español,0,Inglés,3,Alemán,8,5,2,yes,yes,yes,Flauta travesera,6,Piano,6,,,"Hola! Realicé las primeras preguntas previas al experimento un día antes del experimento, lo demás en orden",73.0,yes
70,2024-03-17_18h21.30.304,Unsyncopated_study3,s134,19,feminino,right,España,Español,Upper secondary,no,no,B,1,conjunction_un,L3,unsyncopated,s2,r1,70,Online_conjL3_un//b.ñe.sa13.none.none.wav,ji,je,gu,sil,chu,ko,do,sil1,mo,di,sil2,['-'],,,none,none,,,,sa,2,testWhatL4Uns//dep_viol.r2.s1.0.wav,3.0,what,unsyncopated,b,s1,no_rule,dep,L4,m,0.9631,4.0,1.0,0.486,3,2,Español,0,Inglés,3,Alemán,8,5,2,yes,yes,yes,Flauta travesera,6,Piano,6,,,"Hola! Realicé las primeras preguntas previas al experimento un día antes del experimento, lo demás en orden",73.0,yes
71,2024-03-17_18h21.30.304,Unsyncopated_study3,s134,19,feminino,right,España,Español,Upper secondary,no,no,B,1,conjunction_un,L3,unsyncopated,s1,r1,71,Online_conjL3_un//b.ñe.sa12.none.none.wav,chu,je,li,sil,mo,ka,ga,sil1,ko,di,sil2,['-'],,,none,none,,,,sa,2,testWhatL4Uns//r1.s1.0.wav,3.0,what,unsyncopated,a,s1,rule,rule,L4,m,0.747,3.0,0.0,0.5545,3,2,Español,0,Inglés,3,Alemán,8,5,2,yes,yes,yes,Flauta travesera,6,Piano,6,,,"Hola! Realicé las primeras preguntas previas al experimento un día antes del experimento, lo demás en orden",73.0,yes
72,2024-03-17_18h21.30.304,Unsyncopated_study3,s134,19,feminino,right,España,Español,Upper secondary,no,no,B,1,conjunction_un,L3,unsyncopated,s1,r2,72,Online_conjL3_un//c.gu.je14.444.1332.wav,ñe,ka,gu,sil,sa,li,je,sil1,le,di,sil2,['catch'],[1.7889000000955093],[1.7889000000955093],1.332,no_beat,0.4569000000955092,0.4569000000955092,"[""space""]",je,3,testConjL2Syn//r2.s1.1.wav,4.0,conjunction_syn,syncopated,b,s1,rule,rule,L2,z,2.6386,7.0,1.0,1.126,3,2,Español,0,Inglés,3,Alemán,8,5,2,yes,yes,yes,Flauta travesera,6,Piano,6,,,"Hola! Realicé las primeras preguntas previas al experimento un día antes del experimento, lo demás en orden",73.0,yes
73,2024-03-17_18h21.30.304,Unsyncopated_study3,s134,19,feminino,right,España,Español,Upper secondary,no,no,B,1,conjunction_un,L3,unsyncopated,s1,r1,73,Online_conjL3_un//c.gu.je12.none.none.wav,chu,ga,le,sil,mo,do,li,sil1,ji,fu,sil2,['-'],,,none,none,,,,je,3,testConjL2Syn//r1.s2.2.wav,4.0,conjunction_syn,syncopated,a,s2,rule,rule,L2,z,0.4317,6.0,1.0,1.3559,3,2,Español,0,Inglés,3,Alemán,8,5,2,yes,yes,yes,Flauta travesera,6,Piano,6,,,"Hola! Realicé las primeras preguntas previas al experimento un día antes del experimento, lo demás en orden",73.0,yes
74,2024-03-17_18h21.30.304,Unsyncopated_study3,s134,19,feminino,right,España,Español,Upper secondary,no,no,B,1,conjunction_un,L3,unsyncopated,s2,r2,74,Online_conjL3_un//c.gu.je15.none.none.wav,fu,ko,li,sil,ñe,ka,le,sil1,sa,di,sil2,['-'],,,none,none,,,,je,3,testConjL2Syn//r1.s2.1.wav,4.0,conjunction_syn,syncopated,a,s2,rule,rule,L2,m,1.0985,5.0,0.0,1.1562,3,2,Español,0,Inglés,3,Alemán,8,5,2,yes,yes,yes,Flauta travesera,6,Piano,6,,,"Hola! Realicé las primeras preguntas previas al experimento un día antes del experimento, lo demás en orden",73.0,yes
75,2024-03-17_18h21.30.304,Unsyncopated_study3,s134,19,feminino,right,España,Español,Upper secondary,no,no,B,1,conjunction_un,L3,unsyncopated,s1,r1,75,Online_conjL3_un//c.gu.je13.none.none.wav,chu,di,ko,sil,mo,ji,le,sil1,fu,li,sil2,['-'],,,none,none,,,,je,3,testConjL2Syn//r2.s2.1.wav,4.0,conjunction_syn,syncopated,b,s2,rule,rule,L2,z,0.9001,6.0,1.0,0.4501,3,2,Español,0,Inglés,3,Alemán,8,5,2,yes,yes,yes,Flauta travesera,6,Piano,6,,,"Hola! Realicé las primeras preguntas previas al experimento un día antes del experimento, lo demás en orden",73.0,yes
76,2024-03-17_18h21.30.304,Unsyncopated_study3,s134,19,feminino,right,España,Español,Upper secondary,no,no,B,1,conjunction_un,L3,unsyncopated,s2,r2,76,Online_conjL3_un//d.ji.li9.1332.222.wav,fu,li,je,sil,ñe,ko,ji,sil1,sa,do,sil2,['catch'],[1.0030999999048618],[1.0030999999048618],0.222,no_beat,0.7810999999048618,0.7810999999048618,"[""space""]",li,4,testConjL2Syn//cat_viol.r2.s2.0.wav,4.0,conjunction_syn,syncopated,b,s2,no_rule,cat,L2,z,0.3658,5.0,0.0,0.4683,3,2,Español,0,Inglés,3,Alemán,8,5,2,yes,yes,yes,Flauta travesera,6,Piano,6,,,"Hola! Realicé las primeras preguntas previas al experimento un día antes del experimento, lo demás en orden",73.0,yes
77,2024-03-17_18h21.30.304,Unsyncopated_study3,s134,19,feminino,right,España,Español,Upper secondary,no,no,B,1,conjunction_un,L3,unsyncopated,s1,r2,77,Online_conjL3_un//d.ji.li11.1776.222.wav,ñe,li,ga,sil,sa,je,le,sil1,ji,ko,sil2,['miss'],,,0.222,no_beat,,,,li,4,testConjL2Syn//dep_viol.r1.s2.0.wav,4.0,conjunction_syn,syncopated,a,s2,no_rule,dep,L2,m,1.3027,3.0,1.0,0.5191,3,2,Español,0,Inglés,3,Alemán,8,5,2,yes,yes,yes,Flauta travesera,6,Piano,6,,,"Hola! Realicé las primeras preguntas previas al experimento un día antes del experimento, lo demás en orden",73.0,yes
78,2024-03-17_18h21.30.304,Unsyncopated_study3,s134,19,feminino,right,España,Español,Upper secondary,no,no,B,1,conjunction_un,L3,unsyncopated,s2,r1,78,Online_conjL3_un//d.ji.li10.222.444.wav,le,ji,li,sil,chu,fu,do,sil1,mo,gu,sil2,['catch'],[0.86360000002378],[0.86360000002378],0.444,no_beat,0.4196,0.4196,"[""space""]",li,4,testConjL2Syn//r2.s1.2.wav,4.0,conjunction_syn,syncopated,b,s1,rule,rule,L2,m,0.8375,6.0,0.0,0.5678,3,2,Español,0,Inglés,3,Alemán,8,5,2,yes,yes,yes,Flauta travesera,6,Piano,6,,,"Hola! Realicé las primeras preguntas previas al experimento un día antes del experimento, lo demás en orden",73.0,yes
79,2024-03-17_18h21.30.304,Unsyncopated_study3,s134,19,feminino,right,España,Español,Upper secondary,no,no,B,1,conjunction_un,L3,unsyncopated,s2,r2,79,Online_conjL3_un//d.ji.li8.none.none.wav,fu,ko,le,sil,ñe,do,gu,sil1,sa,di,sil2,['-'],,,none,none,,,,li,4,testConjL2Syn//r1.s2.0.wav,4.0,conjunction_syn,syncopated,a,s2,rule,rule,L2,z,0.482,3.0,1.0,0.6418,3,2,Español,0,Inglés,3,Alemán,8,5,2,yes,yes,yes,Flauta travesera,6,Piano,6,,,"Hola! Realicé las primeras preguntas previas al experimento un día antes del experimento, lo demás en orden",73.0,yes
80,2024-03-17_18h21.30.304,Unsyncopated_study3,s134,19,feminino,right,España,Español,Upper secondary,no,no,B,1,conjunction_un,L3,unsyncopated,s1,r1,80,Online_conjL3_un//b.ñe.sa6.none.none.wav,chu,fu,di,sil,mo,li,do,sil1,ji,le,sil2,['-'],,,none,none,,,,sa,2,testConjL2Syn//dep_viol.r2.s1.0.wav,4.0,conjunction_syn,syncopated,b,s1,no_rule,dep,L2,z,1.4622,3.0,0.0,3.6192,3,2,Español,0,Inglés,3,Alemán,8,5,2,yes,yes,yes,Flauta travesera,6,Piano,6,,,"Hola! Realicé las primeras preguntas previas al experimento un día antes del experimento, lo demás en orden",73.0,yes
81,2024-03-17_18h21.30.304,Unsyncopated_study3,s134,19,feminino,right,España,Español,Upper secondary,no,no,B,1,conjunction_un,L3,unsyncopated,s2,r1,81,Online_conjL3_un//b.ñe.sa5.none.none.wav,li,je,le,sil,chu,di,fu,sil1,mo,ji,sil2,['-'],,,none,none,,,,sa,2,testConjL2Syn//dep_viol.r1.s1.0.wav,4.0,conjunction_syn,syncopated,a,s1,no_rule,dep,L2,z,0.4214,5.0,0.0,0.5524,3,2,Español,0,Inglés,3,Alemán,8,5,2,yes,yes,yes,Flauta travesera,6,Piano,6,,,"Hola! Realicé las primeras preguntas previas al experimento un día antes del experimento, lo demás en orden",73.0,yes
82,2024-03-17_18h21.30.304,Unsyncopated_study3,s134,19,feminino,right,España,Español,Upper secondary,no,no,B,1,conjunction_un,L3,unsyncopated,s2,r2,82,Online_conjL3_un//b.ñe.sa4.888.1776.wav,fu,ji,ga,sil,ñe,gu,ko,sil1,sa,ka,sil2,['catch'],[2.15029999995204],[2.15029999995204],1.776,beat,0.3742999999520398,0.3742999999520398,"[""space""]",sa,2,testConjL2Syn//cat_viol.r1.s2.0.wav,4.0,conjunction_syn,syncopated,a,s2,no_rule,cat,L2,z,0.6296,5.0,0.0,0.4009,3,2,Español,0,Inglés,3,Alemán,8,5,2,yes,yes,yes,Flauta travesera,6,Piano,6,,,"Hola! Realicé las primeras preguntas previas al experimento un día antes del experimento, lo demás en orden",73.0,yes
83,2024-03-17_18h21.30.304,Unsyncopated_study3,s134,19,feminino,right,España,Español,Upper secondary,no,no,B,1,conjunction_un,L3,unsyncopated,s1,r1,83,Online_conjL3_un//b.ñe.sa7.none.none.wav,chu,gu,ka,sil,mo,di,li,sil1,do,je,sil2,['-'],,,none,none,,,,sa,2,testConjL2Syn//r1.s1.1.wav,4.0,conjunction_syn,syncopated,a,s1,rule,rule,L2,m,0.403,4.0,0.0,0.6019,3,2,Español,0,Inglés,3,Alemán,8,5,2,yes,yes,yes,Flauta travesera,6,Piano,6,,,"Hola! Realicé las primeras preguntas previas al experimento un día antes del experimento, lo demás en orden",73.0,yes
84,2024-03-17_18h21.30.304,Unsyncopated_study3,s134,19,feminino,right,España,Español,Upper secondary,no,no,B,1,conjunction_un,L3,unsyncopated,s1,r1,84,Online_conjL3_un//d.ji.li26.1776.1110.wav,chu,do,ga,sil,mo,li,je,sil1,ji,fu,sil2,['miss'],,,1.11,no_beat,,,,li,4,testConjL2Syn//cat_viol.r2.s1.0.wav,4.0,conjunction_syn,syncopated,b,s1,no_rule,cat,L2,m,0.0152,7.0,1.0,0.3158,3,2,Español,0,Inglés,3,Alemán,8,5,2,yes,yes,yes,Flauta travesera,6,Piano,6,,,"Hola! Realicé las primeras preguntas previas al experimento un día antes del experimento, lo demás en orden",73.0,yes
85,2024-03-17_18h21.30.304,Unsyncopated_study3,s134,19,feminino,right,España,Español,Upper secondary,no,no,B,1,conjunction_un,L3,unsyncopated,s2,r1,85,Online_conjL3_un//d.ji.li27.none.none.wav,ga,le,ko,sil,chu,gu,ka,sil1,mo,fu,sil2,['-'],,,none,none,,,,li,4,testConjL2Syn//r1.s1.2.wav,4.0,conjunction_syn,syncopated,a,s1,rule,rule,L2,m,0.2891,5.0,0.0,0.3137,3,2,Español,0,Inglés,3,Alemán,8,5,2,yes,yes,yes,Flauta travesera,6,Piano,6,,,"Hola! Realicé las primeras preguntas previas al experimento un día antes del experimento, lo demás en orden",73.0,yes
86,2024-03-17_18h21.30.304,Unsyncopated_study3,s134,19,feminino,right,España,Español,Upper secondary,no,no,B,1,conjunction_un,L3,unsyncopated,s1,r1,86,Online_conjL3_un//d.ji.li24.none.none.wav,chu,le,do,sil,mo,fu,ko,sil1,di,ga,sil2,['-'],,,none,none,,,,li,4,testConjL2Syn//r2.s1.0.wav,4.0,conjunction_syn,syncopated,b,s1,rule,rule,L2,z,0.0167,5.0,1.0,0.3779,3,2,Español,0,Inglés,3,Alemán,8,5,2,yes,yes,yes,Flauta travesera,6,Piano,6,,,"Hola! Realicé las primeras preguntas previas al experimento un día antes del experimento, lo demás en orden",73.0,yes
87,2024-03-17_18h21.30.304,Unsyncopated_study3,s134,19,feminino,right,España,Español,Upper secondary,no,no,B,1,conjunction_un,L3,unsyncopated,s2,r1,87,Online_conjL3_un//d.ji.li25.1332.444.wav,di,je,li,sil,chu,le,ji,sil1,mo,ko,sil2,['catch'],[1.012499999999818],[1.012499999999818],0.444,no_beat,0.5684999999998182,0.5684999999998182,"[""space""]",li,4,testConjL2Syn//r1.s1.0.wav,4.0,conjunction_syn,syncopated,a,s1,rule,rule,L2,z,0.3974,6.0,1.0,0.5579,3,2,Español,0,Inglés,3,Alemán,8,5,2,yes,yes,yes,Flauta travesera,6,Piano,6,,,"Hola! Realicé las primeras preguntas previas al experimento un día antes del experimento, lo demás en orden",73.0,yes
88,2024-03-17_18h21.30.304,Unsyncopated_study3,s134,19,feminino,right,España,Español,Upper secondary,no,no,B,1,conjunction_un,L3,unsyncopated,s1,r1,88,Online_conjL3_un//a.chu.mo3.0.888.wav,chu,fu,ko,sil,mo,je,gu,sil1,do,li,sil2,['catch'],[0.8409999999998945],[0.8409999999998945],0,beat,0.8409999999998945,0.8409999999998945,"[""space""]",chu,1,testConjL2Syn//dep_viol.r2.s2.0.wav,4.0,conjunction_syn,syncopated,b,s2,no_rule,dep,L2,z,0.9861,6.0,0.0,0.4178,3,2,Español,0,Inglés,3,Alemán,8,5,2,yes,yes,yes,Flauta travesera,6,Piano,6,,,"Hola! Realicé las primeras preguntas previas al experimento un día antes del experimento, lo demás en orden",73.0,yes
89,2024-03-17_18h21.30.304,Unsyncopated_study3,s134,19,feminino,right,España,Español,Upper secondary,no,no,B,1,conjunction_un,L3,unsyncopated,s1,r2,89,Online_conjL3_un//a.chu.mo2.none.none.wav,ñe,do,ji,sil,sa,li,fu,sil1,je,ko,sil2,['-'],,,none,none,,,,chu,1,testConjL2Syn//time_viol.r2.s2.0.wav,4.0,conjunction_syn,syncopated,b,s2,no_rule,time,L2,z,1.2585,4.0,0.0,0.5207,3,2,Español,0,Inglés,3,Alemán,8,5,2,yes,yes,yes,Flauta travesera,6,Piano,6,,,"Hola! Realicé las primeras preguntas previas al experimento un día antes del experimento, lo demás en orden",73.0,yes
90,2024-03-17_18h21.30.304,Unsyncopated_study3,s134,19,feminino,right,España,Español,Upper secondary,no,no,B,1,conjunction_un,L3,unsyncopated,s2,r2,90,Online_conjL3_un//a.chu.mo1.none.none.wav,di,je,gu,sil,ñe,ko,ji,sil1,sa,ka,sil2,['-'],,,none,none,,,,chu,1,testConjL2Syn//time_viol.r1.s1.0.wav,4.0,conjunction_syn,syncopated,a,s1,no_rule,time,L2,z,0.1454,7.0,0.0,0.3713,3,2,Español,0,Inglés,3,Alemán,8,5,2,yes,yes,yes,Flauta travesera,6,Piano,6,,,"Hola! Realicé las primeras preguntas previas al experimento un día antes del experimento, lo demás en orden",73.0,yes
91,2024-03-17_18h21.30.304,Unsyncopated_study3,s134,19,feminino,right,España,Español,Upper secondary,no,no,B,1,conjunction_un,L3,unsyncopated,s2,r1,91,Online_conjL3_un//a.chu.mo0.888.1776.wav,li,gu,fu,sil,chu,ga,ji,sil1,mo,do,sil2,['catch'],[1.4442999999519088],[1.4442999999519088],0.888,beat,0.5562999999519088,0.5562999999519088,"[""space""]",chu,1,testConjL2Syn//r2.s2.0.wav,4.0,conjunction_syn,syncopated,b,s2,rule,rule,L2,z,0.7343,3.0,1.0,0.3253,3,2,Español,0,Inglés,3,Alemán,8,5,2,yes,yes,yes,Flauta travesera,6,Piano,6,,,"Hola! Realicé las primeras preguntas previas al experimento un día antes del experimento, lo demás en orden",73.0,yes
92,2024-03-17_18h21.30.304,Unsyncopated_study3,s134,19,feminino,right,España,Español,Upper secondary,no,no,B,1,conjunction_un,L3,unsyncopated,s2,r1,92,Online_conjL3_un//d.ji.li30.none.none.wav,di,je,ga,sil,chu,ko,gu,sil1,mo,do,sil2,['-'],,,none,none,,,,li,4,testConjL2Syn//cat_viol.r1.s1.0.wav,4.0,conjunction_syn,syncopated,a,s1,no_rule,cat,L2,m,1.0516,3.0,1.0,0.8173,3,2,Español,0,Inglés,3,Alemán,8,5,2,yes,yes,yes,Flauta travesera,6,Piano,6,,,"Hola! Realicé las primeras preguntas previas al experimento un día antes del experimento, lo demás en orden",73.0,yes
93,2024-03-17_18h21.30.304,Unsyncopated_study3,s134,19,feminino,right,España,Español,Upper secondary,no,no,B,1,conjunction_un,L3,unsyncopated,s1,r1,93,Online_conjL3_un//d.ji.li28.none.none.wav,chu,ko,di,sil,mo,do,ga,sil1,le,ka,sil2,['-'],,,none,none,,,,li,4,testConjL2Syn//r2.s2.2.wav,4.0,conjunction_syn,syncopated,b,s2,rule,rule,L2,m,0.4794,3.0,0.0,0.7267,3,2,Español,0,Inglés,3,Alemán,8,5,2,yes,yes,yes,Flauta travesera,6,Piano,6,,,"Hola! Realicé las primeras preguntas previas al experimento un día antes del experimento, lo demás en orden",73.0,yes
94,2024-03-17_18h21.30.304,Unsyncopated_study3,s134,19,feminino,right,España,Español,Upper secondary,no,no,B,1,conjunction_un,L3,unsyncopated,s2,r1,94,Online_conjL3_un//d.ji.li31.none.none.wav,do,je,ka,sil,chu,di,le,sil1,mo,ko,sil2,['-'],,,none,none,,,,li,4,testConjL2Syn//time_viol.r2.s1.0.wav,4.0,conjunction_syn,syncopated,b,s1,no_rule,time,L2,m,1.0365,3.0,1.0,0.531,3,2,Español,0,Inglés,3,Alemán,8,5,2,yes,yes,yes,Flauta travesera,6,Piano,6,,,"Hola! Realicé las primeras preguntas previas al experimento un día antes del experimento, lo demás en orden",73.0,yes
95,2024-03-17_18h21.30.304,Unsyncopated_study3,s134,19,feminino,right,España,Español,Upper secondary,no,no,B,1,conjunction_un,L3,unsyncopated,s1,r1,95,Online_conjL3_un//d.ji.li29.1776.222.wav,chu,li,ka,sil,mo,je,fu,sil1,ji,ko,sil2,['miss'],,,0.222,no_beat,,,,li,4,testConjL2Syn//time_viol.r1.s2.0.wav,4.0,conjunction_syn,syncopated,a,s2,no_rule,time,L2,m,0.0009,6.0,1.0,0.7009,3,2,Español,0,Inglés,3,Alemán,8,5,2,yes,yes,yes,Flauta travesera,6,Piano,6,,,"Hola! Realicé las primeras preguntas previas al experimento un día antes del experimento, lo demás en orden",73.0,yes
96,2024-03-17_18h21.30.304,Unsyncopated_study3,s134,19,feminino,right,España,Español,Upper secondary,no,no,B,1,conjunction_un,L3,unsyncopated,s1,r1,96,Online_conjL3_un//b.ñe.sa21.none.none.wav,chu,gu,ji,sil,mo,di,ko,sil1,do,ga,sil2,['-'],,,none,none,,,,sa,2,,,,,,,,,,,,,,,3,2,Español,0,Inglés,3,Alemán,8,5,2,yes,yes,yes,Flauta travesera,6,Piano,6,,,"Hola! Realicé las primeras preguntas previas al experimento un día antes del experimento, lo demás en orden",73.0,yes
97,2024-03-17_18h21.30.304,Unsyncopated_study3,s134,19,feminino,right,España,Español,Upper secondary,no,no,B,1,conjunction_un,L3,unsyncopated,s2,r1,97,Online_conjL3_un//b.ñe.sa23.none.none.wav,je,ko,le,sil,chu,ji,fu,sil1,mo,ga,sil2,['-'],,,none,none,,,,sa,2,,,,,,,,,,,,,,,3,2,Español,0,Inglés,3,Alemán,8,5,2,yes,yes,yes,Flauta travesera,6,Piano,6,,,"Hola! Realicé las primeras preguntas previas al experimento un día antes del experimento, lo demás en orden",73.0,yes
98,2024-03-17_18h21.30.304,Unsyncopated_study3,s134,19,feminino,right,España,Español,Upper secondary,no,no,B,1,conjunction_un,L3,unsyncopated,s1,r2,98,Online_conjL3_un//b.ñe.sa20.0.888.wav,ñe,ga,di,sil,sa,li,le,sil1,fu,do,sil2,['catch'],[1.582600000023831],[1.582600000023831],0.888,beat,0.6946000000238309,0.6946000000238309,"[""space""]",sa,2,,,,,,,,,,,,,,,3,2,Español,0,Inglés,3,Alemán,8,5,2,yes,yes,yes,Flauta travesera,6,Piano,6,,,"Hola! Realicé las primeras preguntas previas al experimento un día antes del experimento, lo demás en orden",73.0,yes
99,2024-03-17_18h21.30.304,Unsyncopated_study3,s134,19,feminino,right,España,Español,Upper secondary,no,no,B,1,conjunction_un,L3,unsyncopated,s1,r2,99,Online_conjL3_un//b.ñe.sa22.0.888.wav,ñe,fu,do,sil,sa,ji,li,sil1,di,je,sil2,['miss'],,,0.888,beat,,,,sa,2,,,,,,,,,,,,,,,3,2,Español,0,Inglés,3,Alemán,8,5,2,yes,yes,yes,Flauta travesera,6,Piano,6,,,"Hola! Realicé las primeras preguntas previas al experimento un día antes del experimento, lo demás en orden",73.0,yes
100,2024-03-17_18h21.30.304,Unsyncopated_study3,s134,19,feminino,right,España,Español,Upper secondary,no,no,B,1,conjunction_un,L3,unsyncopated,s1,r1,100,Online_conjL3_un//c.gu.je3.1110.1332.wav,chu,li,le,sil,mo,gu,je,sil1,do,ka,sil2,['catch'],[1.8847000000478147],[1.8847000000478147],1.332,no_beat,0.5527000000478146,0.5527000000478146,"[""space""]",je,3,,,,,,,,,,,,,,,3,2,Español,0,Inglés,3,Alemán,8,5,2,yes,yes,yes,Flauta travesera,6,Piano,6,,,"Hola! Realicé las primeras preguntas previas al experimento un día antes del experimento, lo demás en orden",73.0,yes
101,2024-03-17_18h21.30.304,Unsyncopated_study3,s134,19,feminino,right,España,Español,Upper secondary,no,no,B,1,conjunction_un,L3,unsyncopated,s1,r2,101,Online_conjL3_un//c.gu.je1.444.1110.wav,ñe,fu,gu,sil,sa,je,ka,sil1,li,ji,sil2,['miss'],,,1.11,no_beat,,,,je,3,,,,,,,,,,,,,,,3,2,Español,0,Inglés,3,Alemán,8,5,2,yes,yes,yes,Flauta travesera,6,Piano,6,,,"Hola! Realicé las primeras preguntas previas al experimento un día antes del experimento, lo demás en orden",73.0,yes
102,2024-03-17_18h21.30.304,Unsyncopated_study3,s134,19,feminino,right,España,Español,Upper secondary,no,no,B,1,conjunction_un,L3,unsyncopated,s2,r1,102,Online_conjL3_un//c.gu.je0.1110.0.wav,je,ji,le,sil,chu,gu,ga,sil1,mo,li,sil2,['catch'],[0.9659999999998945],[0.9659999999998945],0,beat,0.9659999999998944,0.9659999999998944,"[""space""]",je,3,,,,,,,,,,,,,,,3,2,Español,0,Inglés,3,Alemán,8,5,2,yes,yes,yes,Flauta travesera,6,Piano,6,,,"Hola! Realicé las primeras preguntas previas al experimento un día antes del experimento, lo demás en orden",73.0,yes
103,2024-03-17_18h21.30.304,Unsyncopated_study3,s134,19,feminino,right,España,Español,Upper secondary,no,no,B,1,conjunction_un,L3,unsyncopated,s2,r1,103,Online_conjL3_un//c.gu.je2.none.none.wav,ga,ko,li,sil,chu,ka,le,sil1,mo,ji,sil2,['-'],,,none,none,,,,je,3,,,,,,,,,,,,,,,3,2,Español,0,Inglés,3,Alemán,8,5,2,yes,yes,yes,Flauta travesera,6,Piano,6,,,"Hola! Realicé las primeras preguntas previas al experimento un día antes del experimento, lo demás en orden",73.0,yes
104,2024-03-17_18h21.30.304,Unsyncopated_study3,s134,19,feminino,right,España,Español,Upper secondary,no,no,B,1,conjunction_un,L3,unsyncopated,s2,r2,104,Online_conjL3_un//c.gu.je27.222.1110.wav,li,gu,ji,sil,ñe,je,ka,sil1,sa,ga,sil2,['miss'],,,1.11,no_beat,,,,je,3,,,,,,,,,,,,,,,3,2,Español,0,Inglés,3,Alemán,8,5,2,yes,yes,yes,Flauta travesera,6,Piano,6,,,"Hola! Realicé las primeras preguntas previas al experimento un día antes del experimento, lo demás en orden",73.0,yes
105,2024-03-17_18h21.30.304,Unsyncopated_study3,s134,19,feminino,right,España,Español,Upper secondary,no,no,B,1,conjunction_un,L3,unsyncopated,s2,r2,105,Online_conjL3_un//c.gu.je25.none.none.wav,le,li,ji,sil,ñe,ka,fu,sil1,sa,di,sil2,['-'],,,none,none,,,,je,3,,,,,,,,,,,,,,,3,2,Español,0,Inglés,3,Alemán,8,5,2,yes,yes,yes,Flauta travesera,6,Piano,6,,,"Hola! Realicé las primeras preguntas previas al experimento un día antes del experimento, lo demás en orden",73.0,yes
106,2024-03-17_18h21.30.304,Unsyncopated_study3,s134,19,feminino,right,España,Español,Upper secondary,no,no,B,1,conjunction_un,L3,unsyncopated,s2,r1,106,Online_conjL3_un//c.gu.je24.none.none.wav,di,ji,le,sil,chu,li,fu,sil1,mo,do,sil2,['-'],,,none,none,,,,je,3,,,,,,,,,,,,,,,3,2,Español,0,Inglés,3,Alemán,8,5,2,yes,yes,yes,Flauta travesera,6,Piano,6,,,"Hola! Realicé las primeras preguntas previas al experimento un día antes del experimento, lo demás en orden",73.0,yes
107,2024-03-17_18h21.30.304,Unsyncopated_study3,s134,19,feminino,right,España,Español,Upper secondary,no,no,B,1,conjunction_un,L3,unsyncopated,s2,r2,107,Online_conjL3_un//c.gu.je26.222.444.wav,do,gu,je,sil,ñe,le,ko,sil1,sa,ka,sil2,['catch'],[1.2276000000238128],[1.2276000000238128],0.444,no_beat,0.7836000000238128,0.7836000000238128,"[""space""]",je,3,,,,,,,,,,,,,,,3,2,Español,0,Inglés,3,Alemán,8,5,2,yes,yes,yes,Flauta travesera,6,Piano,6,,,"Hola! Realicé las primeras preguntas previas al experimento un día antes del experimento, lo demás en orden",73.0,yes
108,2024-03-17_18h21.30.304,Unsyncopated_study3,s134,19,feminino,right,España,Español,Upper secondary,no,no,B,1,conjunction_un,L3,unsyncopated,s1,r1,108,Online_conjL3_un//a.chu.mo10.0.888.wav,chu,do,fu,sil,mo,le,ga,sil1,di,ji,sil2,['catch'],[0.6365000000000691],[0.6365000000000691],0,beat,0.6365000000000691,0.6365000000000691,"[""space""]",chu,1,,,,,,,,,,,,,,,3,2,Español,0,Inglés,3,Alemán,8,5,2,yes,yes,yes,Flauta travesera,6,Piano,6,,,"Hola! Realicé las primeras preguntas previas al experimento un día antes del experimento, lo demás en orden",73.0,yes
109,2024-03-17_18h21.30.304,Unsyncopated_study3,s134,19,feminino,right,España,Español,Upper secondary,no,no,B,1,conjunction_un,L3,unsyncopated,s1,r2,109,Online_conjL3_un//a.chu.mo9.none.none.wav,ñe,di,gu,sil,sa,ka,ga,sil1,je,do,sil2,['-'],,,none,none,,,,chu,1,,,,,,,,,,,,,,,3,2,Español,0,Inglés,3,Alemán,8,5,2,yes,yes,yes,Flauta travesera,6,Piano,6,,,"Hola! Realicé las primeras preguntas previas al experimento un día antes del experimento, lo demás en orden",73.0,yes
110,2024-03-17_18h21.30.304,Unsyncopated_study3,s134,19,feminino,right,España,Español,Upper secondary,no,no,B,1,conjunction_un,L3,unsyncopated,s1,r2,110,Online_conjL3_un//a.chu.mo11.none.none.wav,ñe,fu,ko,sil,sa,li,ka,sil1,le,ji,sil2,['-'],,,none,none,,,,chu,1,,,,,,,,,,,,,,,3,2,Español,0,Inglés,3,Alemán,8,5,2,yes,yes,yes,Flauta travesera,6,Piano,6,,,"Hola! Realicé las primeras preguntas previas al experimento un día antes del experimento, lo demás en orden",73.0,yes
111,2024-03-17_18h21.30.304,Unsyncopated_study3,s134,19,feminino,right,España,Español,Upper secondary,no,no,B,1,conjunction_un,L3,unsyncopated,s1,r1,111,Online_conjL3_un//a.chu.mo8.0.888.wav,chu,gu,ji,sil,mo,di,le,sil1,li,fu,sil2,['catch'],[0.5443999999761218],[0.5443999999761218],0,beat,0.5443999999761218,0.5443999999761218,"[""space""]",chu,1,,,,,,,,,,,,,,,3,2,Español,0,Inglés,3,Alemán,8,5,2,yes,yes,yes,Flauta travesera,6,Piano,6,,,"Hola! Realicé las primeras preguntas previas al experimento un día antes del experimento, lo demás en orden",73.0,yes
112,2024-03-17_18h21.30.304,Unsyncopated_study3,s134,19,feminino,right,España,Español,Upper secondary,no,no,B,1,conjunction_un,L3,unsyncopated,s1,r1,112,Online_conjL3_un//d.ji.li15.none.none.wav,chu,fu,ga,sil,mo,je,gu,sil1,do,di,sil2,['-'],,,none,none,,,,li,4,,,,,,,,,,,,,,,3,2,Español,0,Inglés,3,Alemán,8,5,2,yes,yes,yes,Flauta travesera,6,Piano,6,,,"Hola! Realicé las primeras preguntas previas al experimento un día antes del experimento, lo demás en orden",73.0,yes
113,2024-03-17_18h21.30.304,Unsyncopated_study3,s134,19,feminino,right,España,Español,Upper secondary,no,no,B,1,conjunction_un,L3,unsyncopated,s2,r1,113,Online_conjL3_un//d.ji.li13.0.1110.wav,ji,ko,gu,sil,chu,li,je,sil1,mo,ka,sil2,['miss'],,,1.11,no_beat,,,,li,4,,,,,,,,,,,,,,,3,2,Español,0,Inglés,3,Alemán,8,5,2,yes,yes,yes,Flauta travesera,6,Piano,6,,,"Hola! Realicé las primeras preguntas previas al experimento un día antes del experimento, lo demás en orden",73.0,yes
114,2024-03-17_18h21.30.304,Unsyncopated_study3,s134,19,feminino,right,España,Español,Upper secondary,no,no,B,1,conjunction_un,L3,unsyncopated,s1,r2,114,Online_conjL3_un//d.ji.li12.1332.222.wav,ñe,li,le,sil,sa,je,ji,sil1,di,ga,sil2,['miss'],,,0.222,no_beat,,,,li,4,,,,,,,,,,,,,,,3,2,Español,0,Inglés,3,Alemán,8,5,2,yes,yes,yes,Flauta travesera,6,Piano,6,,,"Hola! Realicé las primeras preguntas previas al experimento un día antes del experimento, lo demás en orden",73.0,yes
115,2024-03-17_18h21.30.304,Unsyncopated_study3,s134,19,feminino,right,España,Español,Upper secondary,no,no,B,1,conjunction_un,L3,unsyncopated,s1,r1,115,Online_conjL3_un//d.ji.li14.1332.444.wav,chu,ko,li,sil,mo,do,ji,sil1,di,gu,sil2,['catch'],[0.9342999999521453],[0.9342999999521453],0.444,no_beat,0.4902999999521453,0.4902999999521453,"[""space""]",li,4,,,,,,,,,,,,,,,3,2,Español,0,Inglés,3,Alemán,8,5,2,yes,yes,yes,Flauta travesera,6,Piano,6,,,"Hola! Realicé las primeras preguntas previas al experimento un día antes del experimento, lo demás en orden",73.0,yes
116,2024-03-17_18h21.30.304,Unsyncopated_study3,s134,19,feminino,right,España,Español,Upper secondary,no,no,B,1,conjunction_un,L3,unsyncopated,s1,r2,116,Online_conjL3_un//d.ji.li23.1332.222.wav,ñe,li,fu,sil,sa,le,ji,sil1,di,ka,sil2,['miss'],,,0.222,no_beat,,,,li,4,,,,,,,,,,,,,,,3,2,Español,0,Inglés,3,Alemán,8,5,2,yes,yes,yes,Flauta travesera,6,Piano,6,,,"Hola! Realicé las primeras preguntas previas al experimento un día antes del experimento, lo demás en orden",73.0,yes
117,2024-03-17_18h21.30.304,Unsyncopated_study3,s134,19,feminino,right,España,Español,Upper secondary,no,no,B,1,conjunction_un,L3,unsyncopated,s1,r2,117,Online_conjL3_un//d.ji.li22.none.none.wav,ñe,ga,le,sil,sa,do,ka,sil1,gu,di,sil2,['-'],,,none,none,,,,li,4,,,,,,,,,,,,,,,3,2,Español,0,Inglés,3,Alemán,8,5,2,yes,yes,yes,Flauta travesera,6,Piano,6,,,"Hola! Realicé las primeras preguntas previas al experimento un día antes del experimento, lo demás en orden",73.0,yes
118,2024-03-17_18h21.30.304,Unsyncopated_study3,s134,19,feminino,right,España,Español,Upper secondary,no,no,B,1,conjunction_un,L3,unsyncopated,s1,r2,118,Online_conjL3_un//d.ji.li21.none.none.wav,ñe,le,ko,sil,sa,do,ka,sil1,di,ga,sil2,['-'],,,none,none,,,,li,4,,,,,,,,,,,,,,,3,2,Español,0,Inglés,3,Alemán,8,5,2,yes,yes,yes,Flauta travesera,6,Piano,6,,,"Hola! Realicé las primeras preguntas previas al experimento un día antes del experimento, lo demás en orden",73.0,yes
119,2024-03-17_18h21.30.304,Unsyncopated_study3,s134,19,feminino,right,España,Español,Upper secondary,no,no,B,1,conjunction_un,L3,unsyncopated,s1,r2,119,Online_conjL3_un//d.ji.li20.1776.444.wav,ñe,ka,li,sil,sa,di,ko,sil1,ji,le,sil2,['catch'],[0.8649999999997817],[0.8649999999997817],0.444,no_beat,0.4209999999997817,0.4209999999997817,"[""space""]",li,4,,,,,,,,,,,,,,,3,2,Español,0,Inglés,3,Alemán,8,5,2,yes,yes,yes,Flauta travesera,6,Piano,6,,,"Hola! Realicé las primeras preguntas previas al experimento un día antes del experimento, lo demás en orden",73.0,yes
120,2024-03-17_18h21.30.304,Unsyncopated_study3,s134,19,feminino,right,España,Español,Upper secondary,no,no,B,1,conjunction_un,L3,unsyncopated,s2,r2,120,Online_conjL3_un//b.ñe.sa1.888.1776.wav,do,gu,je,sil,ñe,di,fu,sil1,sa,ji,sil2,['catch'],[2.3388999999760927],[2.3388999999760927],1.776,beat,0.5628999999760926,0.5628999999760926,"[""space""]",sa,2,,,,,,,,,,,,,,,3,2,Español,0,Inglés,3,Alemán,8,5,2,yes,yes,yes,Flauta travesera,6,Piano,6,,,"Hola! Realicé las primeras preguntas previas al experimento un día antes del experimento, lo demás en orden",73.0,yes
121,2024-03-17_18h21.30.304,Unsyncopated_study3,s134,19,feminino,right,España,Español,Upper secondary,no,no,B,1,conjunction_un,L3,unsyncopated,s1,r1,121,Online_conjL3_un//b.ñe.sa2.none.none.wav,chu,ka,ga,sil,mo,le,gu,sil1,li,di,sil2,['-'],,,none,none,,,,sa,2,,,,,,,,,,,,,,,3,2,Español,0,Inglés,3,Alemán,8,5,2,yes,yes,yes,Flauta travesera,6,Piano,6,,,"Hola! Realicé las primeras preguntas previas al experimento un día antes del experimento, lo demás en orden",73.0,yes
122,2024-03-17_18h21.30.304,Unsyncopated_study3,s134,19,feminino,right,España,Español,Upper secondary,no,no,B,1,conjunction_un,L3,unsyncopated,s2,r1,122,Online_conjL3_un//b.ñe.sa0.none.none.wav,le,li,do,sil,chu,ko,je,sil1,mo,ga,sil2,['-'],,,none,none,,,,sa,2,,,,,,,,,,,,,,,3,2,Español,0,Inglés,3,Alemán,8,5,2,yes,yes,yes,Flauta travesera,6,Piano,6,,,"Hola! Realicé las primeras preguntas previas al experimento un día antes del experimento, lo demás en orden",73.0,yes
123,2024-03-17_18h21.30.304,Unsyncopated_study3,s134,19,feminino,right,España,Español,Upper secondary,no,no,B,1,conjunction_un,L3,unsyncopated,s2,r2,123,Online_conjL3_un//b.ñe.sa3.888.1776.wav,ko,ji,le,sil,ñe,ga,ka,sil1,sa,do,sil2,['catch'],[2.565900000095553],[2.565900000095553],1.776,beat,0.7899,0.7899,"[""space""]",sa,2,,,,,,,,,,,,,,,3,2,Español,0,Inglés,3,Alemán,8,5,2,yes,yes,yes,Flauta travesera,6,Piano,6,,,"Hola! Realicé las primeras preguntas previas al experimento un día antes del experimento, lo demás en orden",73.0,yes
124,2024-03-17_18h21.30.304,Unsyncopated_study3,s134,19,feminino,right,España,Español,Upper secondary,no,no,B,1,conjunction_un,L3,unsyncopated,s2,r2,124,Online_conjL3_un//c.gu.je19.none.none.wav,le,li,do,sil,ñe,fu,di,sil1,sa,ko,sil2,['-'],,,none,none,,,,je,3,,,,,,,,,,,,,,,3,2,Español,0,Inglés,3,Alemán,8,5,2,yes,yes,yes,Flauta travesera,6,Piano,6,,,"Hola! Realicé las primeras preguntas previas al experimento un día antes del experimento, lo demás en orden",73.0,yes
125,2024-03-17_18h21.30.304,Unsyncopated_study3,s134,19,feminino,right,España,Español,Upper secondary,no,no,B,1,conjunction_un,L3,unsyncopated,s1,r1,125,Online_conjL3_un//c.gu.je18.1110.222.wav,chu,je,ga,sil,mo,gu,di,sil1,ko,li,sil2,['miss'],,,0.222,no_beat,,,,je,3,,,,,,,,,,,,,,,3,2,Español,0,Inglés,3,Alemán,8,5,2,yes,yes,yes,Flauta travesera,6,Piano,6,,,"Hola! Realicé las primeras preguntas previas al experimento un día antes del experimento, lo demás en orden",73.0,yes
126,2024-03-17_18h21.30.304,Unsyncopated_study3,s134,19,feminino,right,España,Español,Upper secondary,no,no,B,1,conjunction_un,L3,unsyncopated,s1,r2,126,Online_conjL3_un//c.gu.je16.222.1332.wav,ñe,gu,fu,sil,sa,do,je,sil1,li,le,sil2,['miss'],,,1.332,no_beat,,,,je,3,,,,,,,,,,,,,,,3,2,Español,0,Inglés,3,Alemán,8,5,2,yes,yes,yes,Flauta travesera,6,Piano,6,,,"Hola! Realicé las primeras preguntas previas al experimento un día antes del experimento, lo demás en orden",73.0,yes
127,2024-03-17_18h21.30.304,Unsyncopated_study3,s134,19,feminino,right,España,Español,Upper secondary,no,no,B,1,conjunction_un,L3,unsyncopated,s2,r1,127,Online_conjL3_un//c.gu.je17.0.1110.wav,gu,ka,ko,sil,chu,je,ji,sil1,mo,di,sil2,['catch'],[2.0616999999283507],[2.0616999999283507],1.11,no_beat,0.9516999999283506,0.9516999999283506,"[""space""]",je,3,,,,,,,,,,,,,,,3,2,Español,0,Inglés,3,Alemán,8,5,2,yes,yes,yes,Flauta travesera,6,Piano,6,,,"Hola! Realicé las primeras preguntas previas al experimento un día antes del experimento, lo demás en orden",73.0,yes
128,2024-03-17_18h21.30.304,Unsyncopated_study3,s134,19,feminino,right,España,Español,Upper secondary,no,no,B,2,when,L1,unsyncopated,when,when,0,Online_whenL1//b.ta28.222.wav,la,ta,lu,sil,fo,ni,ro,sil1,ki,cho,sil2,['catch'],[1.0616000000236454],[1.0616000000236454],0.222,no_beat,0.8396000000236454,0.8396000000236454,"[""space""]",ta,2,,,,,,,,,,,,,,,3,2,Español,0,Inglés,3,Alemán,8,5,2,yes,yes,yes,Flauta travesera,6,Piano,6,,,"Hola! Realicé las primeras preguntas previas al experimento un día antes del experimento, lo demás en orden",73.0,yes
129,2024-03-17_18h21.30.304,Unsyncopated_study3,s134,19,feminino,right,España,Español,Upper secondary,no,no,B,2,when,L1,unsyncopated,when,when,1,Online_whenL1//b.ta31.none.wav,pu,lu,zu,sil,cho,la,ki,sil1,fa,ro,sil2,['-'],,,none,none,,,,ta,2,,,,,,,,,,,,,,,3,2,Español,0,Inglés,3,Alemán,8,5,2,yes,yes,yes,Flauta travesera,6,Piano,6,,,"Hola! Realicé las primeras preguntas previas al experimento un día antes del experimento, lo demás en orden",73.0,yes
130,2024-03-17_18h21.30.304,Unsyncopated_study3,s134,19,feminino,right,España,Español,Upper secondary,no,no,B,2,when,L1,unsyncopated,when,when,2,Online_whenL1//b.ta29.none.wav,ri,ki,cho,sil,lu,zu,ze,sil1,fo,pu,sil2,['-'],,,none,none,,,,ta,2,,,,,,,,,,,,,,,3,2,Español,0,Inglés,3,Alemán,8,5,2,yes,yes,yes,Flauta travesera,6,Piano,6,,,"Hola! Realicé las primeras preguntas previas al experimento un día antes del experimento, lo demás en orden",73.0,yes
131,2024-03-17_18h21.30.304,Unsyncopated_study3,s134,19,feminino,right,España,Español,Upper secondary,no,no,B,2,when,L1,unsyncopated,when,when,3,Online_whenL1//b.ta30.444.wav,lu,ze,ta,sil,ne,ni,fo,sil1,la,be,sil2,['catch'],[1.1142999999519816],[1.1142999999519816],0.444,no_beat,0.6702999999519816,0.6702999999519816,"[""space""]",ta,2,,,,,,,,,,,,,,,3,2,Español,0,Inglés,3,Alemán,8,5,2,yes,yes,yes,Flauta travesera,6,Piano,6,,,"Hola! Realicé las primeras preguntas previas al experimento un día antes del experimento, lo demás en orden",73.0,yes
132,2024-03-17_18h21.30.304,Unsyncopated_study3,s134,19,feminino,right,España,Español,Upper secondary,no,no,B,2,when,L1,unsyncopated,when,when,4,Online_whenL1//c.ro29.none.wav,fa,ne,cho,sil,fo,ki,ta,sil1,ze,la,sil2,['false alarm'],[1.78579999995236],[1.78579999995236],none,none,,,"[""space""]",ro,3,,,,,,,,,,,,,,,3,2,Español,0,Inglés,3,Alemán,8,5,2,yes,yes,yes,Flauta travesera,6,Piano,6,,,"Hola! Realicé las primeras preguntas previas al experimento un día antes del experimento, lo demás en orden",73.0,yes
133,2024-03-17_18h21.30.304,Unsyncopated_study3,s134,19,feminino,right,España,Español,Upper secondary,no,no,B,2,when,L1,unsyncopated,when,when,5,Online_whenL1//c.ro31.none.wav,ni,ze,fo,sil,ne,zu,pu,sil1,ta,la,sil2,['false alarm'],[2.42450000000008],[2.42450000000008],none,none,,,"[""space""]",ro,3,,,,,,,,,,,,,,,3,2,Español,0,Inglés,3,Alemán,8,5,2,yes,yes,yes,Flauta travesera,6,Piano,6,,,"Hola! Realicé las primeras preguntas previas al experimento un día antes del experimento, lo demás en orden",73.0,yes
134,2024-03-17_18h21.30.304,Unsyncopated_study3,s134,19,feminino,right,España,Español,Upper secondary,no,no,B,2,when,L1,unsyncopated,when,when,6,Online_whenL1//c.ro28.none.wav,fo,fa,ki,sil,ri,ze,zu,sil1,be,ne,sil2,['-'],,,none,none,,,,ro,3,,,,,,,,,,,,,,,3,2,Español,0,Inglés,3,Alemán,8,5,2,yes,yes,yes,Flauta travesera,6,Piano,6,,,"Hola! Realicé las primeras preguntas previas al experimento un día antes del experimento, lo demás en orden",73.0,yes
135,2024-03-17_18h21.30.304,Unsyncopated_study3,s134,19,feminino,right,España,Español,Upper secondary,no,no,B,2,when,L1,unsyncopated,when,when,7,Online_whenL1//c.ro30.0.wav,ro,ze,zu,sil,ki,be,lu,sil1,fo,ni,sil2,['catch'],[0.5720000000001164],[0.5720000000001164],0,beat,0.5720000000001164,0.5720000000001164,"[""space""]",ro,3,,,,,,,,,,,,,,,3,2,Español,0,Inglés,3,Alemán,8,5,2,yes,yes,yes,Flauta travesera,6,Piano,6,,,"Hola! Realicé las primeras preguntas previas al experimento un día antes del experimento, lo demás en orden",73.0,yes
136,2024-03-17_18h21.30.304,Unsyncopated_study3,s134,19,feminino,right,España,Español,Upper secondary,no,no,B,2,when,L1,unsyncopated,when,when,8,Online_whenL1//c.ro5.none.wav,ni,zu,ze,sil,pu,be,fa,sil1,cho,fo,sil2,['-'],,,none,none,,,,ro,3,,,,,,,,,,,,,,,3,2,Español,0,Inglés,3,Alemán,8,5,2,yes,yes,yes,Flauta travesera,6,Piano,6,,,"Hola! Realicé las primeras preguntas previas al experimento un día antes del experimento, lo demás en orden",73.0,yes
137,2024-03-17_18h21.30.304,Unsyncopated_study3,s134,19,feminino,right,España,Español,Upper secondary,no,no,B,2,when,L1,unsyncopated,when,when,9,Online_whenL1//c.ro6.none.wav,ri,ze,ta,sil,ne,zu,lu,sil1,be,fo,sil2,['-'],,,none,none,,,,ro,3,,,,,,,,,,,,,,,3,2,Español,0,Inglés,3,Alemán,8,5,2,yes,yes,yes,Flauta travesera,6,Piano,6,,,"Hola! Realicé las primeras preguntas previas al experimento un día antes del experimento, lo demás en orden",73.0,yes
138,2024-03-17_18h21.30.304,Unsyncopated_study3,s134,19,feminino,right,España,Español,Upper secondary,no,no,B,2,when,L1,unsyncopated,when,when,10,Online_whenL1//c.ro7.0.wav,ro,ta,pu,sil,fa,lu,fo,sil1,cho,ri,sil2,['miss'],,,0,beat,,,,ro,3,,,,,,,,,,,,,,,3,2,Español,0,Inglés,3,Alemán,8,5,2,yes,yes,yes,Flauta travesera,6,Piano,6,,,"Hola! Realicé las primeras preguntas previas al experimento un día antes del experimento, lo demás en orden",73.0,yes
139,2024-03-17_18h21.30.304,Unsyncopated_study3,s134,19,feminino,right,España,Español,Upper secondary,no,no,B,2,when,L1,unsyncopated,when,when,11,Online_whenL1//c.ro4.0.wav,ro,ri,ni,sil,pu,be,la,sil1,fa,ze,sil2,['catch'],[0.7211000000243075],[0.7211000000243075],0,beat,0.7211000000243075,0.7211000000243075,"[""space""]",ro,3,,,,,,,,,,,,,,,3,2,Español,0,Inglés,3,Alemán,8,5,2,yes,yes,yes,Flauta travesera,6,Piano,6,,,"Hola! Realicé las primeras preguntas previas al experimento un día antes del experimento, lo demás en orden",73.0,yes
140,2024-03-17_18h21.30.304,Unsyncopated_study3,s134,19,feminino,right,España,Español,Upper secondary,no,no,B,2,when,L1,unsyncopated,when,when,12,Online_whenL1//c.ro0.222.wav,zu,ro,ze,sil,ri,fo,pu,sil1,ki,lu,sil2,['catch'],[2.2442999999530002],[2.2442999999530002],0.222,no_beat,,2.022299999953,"[""space""]",ro,3,,,,,,,,,,,,,,,3,2,Español,0,Inglés,3,Alemán,8,5,2,yes,yes,yes,Flauta travesera,6,Piano,6,,,"Hola! Realicé las primeras preguntas previas al experimento un día antes del experimento, lo demás en orden",73.0,yes
141,2024-03-17_18h21.30.304,Unsyncopated_study3,s134,19,feminino,right,España,Español,Upper secondary,no,no,B,2,when,L1,unsyncopated,when,when,13,Online_whenL1//c.ro2.1110.wav,fo,be,ri,sil,ni,ro,ta,sil1,la,zu,sil2,['catch'],[1.7648000000708635],[1.7648000000708635],1.11,no_beat,0.6548000000708634,0.6548000000708634,"[""space""]",ro,3,,,,,,,,,,,,,,,3,2,Español,0,Inglés,3,Alemán,8,5,2,yes,yes,yes,Flauta travesera,6,Piano,6,,,"Hola! Realicé las primeras preguntas previas al experimento un día antes del experimento, lo demás en orden",73.0,yes
142,2024-03-17_18h21.30.304,Unsyncopated_study3,s134,19,feminino,right,España,Español,Upper secondary,no,no,B,2,when,L1,unsyncopated,when,when,14,Online_whenL1//c.ro3.444.wav,ze,be,ro,sil,ri,pu,cho,sil1,lu,fa,sil2,['catch'],[1.3334999999997308],[1.3334999999997308],0.444,no_beat,0.8894999999997308,0.8894999999997308,"[""space""]",ro,3,,,,,,,,,,,,,,,3,2,Español,0,Inglés,3,Alemán,8,5,2,yes,yes,yes,Flauta travesera,6,Piano,6,,,"Hola! Realicé las primeras preguntas previas al experimento un día antes del experimento, lo demás en orden",73.0,yes
143,2024-03-17_18h21.30.304,Unsyncopated_study3,s134,19,feminino,right,España,Español,Upper secondary,no,no,B,2,when,L1,unsyncopated,when,when,15,Online_whenL1//c.ro1.none.wav,fo,be,cho,sil,lu,ze,ni,sil1,pu,la,sil2,['-'],,,none,none,,,,ro,3,,,,,,,,,,,,,,,3,2,Español,0,Inglés,3,Alemán,8,5,2,yes,yes,yes,Flauta travesera,6,Piano,6,,,"Hola! Realicé las primeras preguntas previas al experimento un día antes del experimento, lo demás en orden",73.0,yes
144,2024-03-17_18h21.30.304,Unsyncopated_study3,s134,19,feminino,right,España,Español,Upper secondary,no,no,B,2,when,L1,unsyncopated,when,when,16,Online_whenL1//a.ki9.none.wav,la,ro,ze,sil,cho,fa,pu,sil1,ne,ta,sil2,['-'],,,none,none,,,,ki,1,,,,,,,,,,,,,,,3,2,Español,0,Inglés,3,Alemán,8,5,2,yes,yes,yes,Flauta travesera,6,Piano,6,,,"Hola! Realicé las primeras preguntas previas al experimento un día antes del experimento, lo demás en orden",73.0,yes
145,2024-03-17_18h21.30.304,Unsyncopated_study3,s134,19,feminino,right,España,Español,Upper secondary,no,no,B,2,when,L1,unsyncopated,when,when,17,Online_whenL1//a.ki11.none.wav,cho,la,pu,sil,zu,ta,ro,sil1,ni,ri,sil2,['-'],,,none,none,,,,ki,1,,,,,,,,,,,,,,,3,2,Español,0,Inglés,3,Alemán,8,5,2,yes,yes,yes,Flauta travesera,6,Piano,6,,,"Hola! Realicé las primeras preguntas previas al experimento un día antes del experimento, lo demás en orden",73.0,yes
146,2024-03-17_18h21.30.304,Unsyncopated_study3,s134,19,feminino,right,España,Español,Upper secondary,no,no,B,2,when,L1,unsyncopated,when,when,18,Online_whenL1//a.ki8.none.wav,ne,fo,zu,sil,pu,be,ni,sil1,ze,la,sil2,['-'],,,none,none,,,,ki,1,,,,,,,,,,,,,,,3,2,Español,0,Inglés,3,Alemán,8,5,2,yes,yes,yes,Flauta travesera,6,Piano,6,,,"Hola! Realicé las primeras preguntas previas al experimento un día antes del experimento, lo demás en orden",73.0,yes
147,2024-03-17_18h21.30.304,Unsyncopated_study3,s134,19,feminino,right,España,Español,Upper secondary,no,no,B,2,when,L1,unsyncopated,when,when,19,Online_whenL1//a.ki10.222.wav,ro,ki,be,sil,la,ri,lu,sil1,fo,fa,sil2,['miss'],,,0.222,no_beat,,,,ki,1,,,,,,,,,,,,,,,3,2,Español,0,Inglés,3,Alemán,8,5,2,yes,yes,yes,Flauta travesera,6,Piano,6,,,"Hola! Realicé las primeras preguntas previas al experimento un día antes del experimento, lo demás en orden",73.0,yes
148,2024-03-17_18h21.30.304,Unsyncopated_study3,s134,19,feminino,right,España,Español,Upper secondary,no,no,B,2,when,L1,unsyncopated,when,when,20,Online_whenL1//b.ta32.none.wav,ki,ni,fo,sil,lu,zu,cho,sil1,be,ri,sil2,['false alarm'],[0.7127999999520398],[0.7127999999520398],none,none,,,"[""space""]",ta,2,,,,,,,,,,,,,,,3,2,Español,0,Inglés,3,Alemán,8,5,2,yes,yes,yes,Flauta travesera,6,Piano,6,,,"Hola! Realicé las primeras preguntas previas al experimento un día antes del experimento, lo demás en orden",73.0,yes
149,2024-03-17_18h21.30.304,Unsyncopated_study3,s134,19,feminino,right,España,Español,Upper secondary,no,no,B,2,when,L1,unsyncopated,when,when,21,Online_whenL1//b.ta33.none.wav,ro,cho,be,sil,la,pu,ri,sil1,lu,zu,sil2,['-'],,,none,none,,,,ta,2,,,,,,,,,,,,,,,3,2,Español,0,Inglés,3,Alemán,8,5,2,yes,yes,yes,Flauta travesera,6,Piano,6,,,"Hola! Realicé las primeras preguntas previas al experimento un día antes del experimento, lo demás en orden",73.0,yes
150,2024-03-17_18h21.30.304,Unsyncopated_study3,s134,19,feminino,right,España,Español,Upper secondary,no,no,B,2,when,L1,unsyncopated,when,when,22,Online_whenL1//b.ta35.222.wav,fa,ta,ze,sil,fo,lu,ro,sil1,ni,be,sil2,['catch'],[0.6791999999277323],[0.6791999999277323],0.222,no_beat,0.4571999999277323,0.4571999999277323,"[""space""]",ta,2,,,,,,,,,,,,,,,3,2,Español,0,Inglés,3,Alemán,8,5,2,yes,yes,yes,Flauta travesera,6,Piano,6,,,"Hola! Realicé las primeras preguntas previas al experimento un día antes del experimento, lo demás en orden",73.0,yes
151,2024-03-17_18h21.30.304,Unsyncopated_study3,s134,19,feminino,right,España,Español,Upper secondary,no,no,B,2,when,L1,unsyncopated,when,when,23,Online_whenL1//b.ta34.1110.wav,be,cho,la,sil,ro,ta,fo,sil1,lu,ni,sil2,['catch'],[2.173899999976129],[2.173899999976129],1.11,no_beat,1.063899999976129,1.063899999976129,"[""space""]",ta,2,,,,,,,,,,,,,,,3,2,Español,0,Inglés,3,Alemán,8,5,2,yes,yes,yes,Flauta travesera,6,Piano,6,,,"Hola! Realicé las primeras preguntas previas al experimento un día antes del experimento, lo demás en orden",73.0,yes
152,2024-03-17_18h21.30.304,Unsyncopated_study3,s134,19,feminino,right,España,Español,Upper secondary,no,no,B,2,when,L1,unsyncopated,when,when,24,Online_whenL1//b.ta0.none.wav,ri,lu,ze,sil,zu,la,pu,sil1,cho,be,sil2,['-'],,,none,none,,,,ta,2,,,,,,,,,,,,,,,3,2,Español,0,Inglés,3,Alemán,8,5,2,yes,yes,yes,Flauta travesera,6,Piano,6,,,"Hola! Realicé las primeras preguntas previas al experimento un día antes del experimento, lo demás en orden",73.0,yes
153,2024-03-17_18h21.30.304,Unsyncopated_study3,s134,19,feminino,right,España,Español,Upper secondary,no,no,B,2,when,L1,unsyncopated,when,when,25,Online_whenL1//b.ta2.1332.wav,zu,ni,pu,sil,ri,ne,ta,sil1,ze,fa,sil2,['catch'],[1.7160000000003492],[1.7160000000003492],1.332,no_beat,0.3840000000003492,0.3840000000003492,"[""space""]",ta,2,,,,,,,,,,,,,,,3,2,Español,0,Inglés,3,Alemán,8,5,2,yes,yes,yes,Flauta travesera,6,Piano,6,,,"Hola! Realicé las primeras preguntas previas al experimento un día antes del experimento, lo demás en orden",73.0,yes
154,2024-03-17_18h21.30.304,Unsyncopated_study3,s134,19,feminino,right,España,Español,Upper secondary,no,no,B,2,when,L1,unsyncopated,when,when,26,Online_whenL1//b.ta1.none.wav,ki,cho,fa,sil,ne,ze,ri,sil1,be,la,sil2,['-'],,,none,none,,,,ta,2,,,,,,,,,,,,,,,3,2,Español,0,Inglés,3,Alemán,8,5,2,yes,yes,yes,Flauta travesera,6,Piano,6,,,"Hola! Realicé las primeras preguntas previas al experimento un día antes del experimento, lo demás en orden",73.0,yes
155,2024-03-17_18h21.30.304,Unsyncopated_study3,s134,19,feminino,right,España,Español,Upper secondary,no,no,B,2,when,L1,unsyncopated,when,when,27,Online_whenL1//b.ta3.222.wav,ri,ta,fo,sil,ro,ni,pu,sil1,zu,ne,sil2,['catch'],[0.6712000000470653],[0.6712000000470653],0.222,no_beat,0.4492000000470653,0.4492000000470653,"[""space""]",ta,2,,,,,,,,,,,,,,,3,2,Español,0,Inglés,3,Alemán,8,5,2,yes,yes,yes,Flauta travesera,6,Piano,6,,,"Hola! Realicé las primeras preguntas previas al experimento un día antes del experimento, lo demás en orden",73.0,yes
156,2024-03-17_18h21.30.304,Unsyncopated_study3,s134,19,feminino,right,España,Español,Upper secondary,no,no,B,2,when,L1,unsyncopated,when,when,28,Online_whenL1//b.ta5.1332.wav,pu,ro,cho,sil,zu,fa,ta,sil1,ri,ne,sil2,['catch'],[2.197799999952622],[2.197799999952622],1.332,no_beat,0.8657999999526218,0.8657999999526218,"[""space""]",ta,2,,,,,,,,,,,,,,,3,2,Español,0,Inglés,3,Alemán,8,5,2,yes,yes,yes,Flauta travesera,6,Piano,6,,,"Hola! Realicé las primeras preguntas previas al experimento un día antes del experimento, lo demás en orden",73.0,yes
157,2024-03-17_18h21.30.304,Unsyncopated_study3,s134,19,feminino,right,España,Español,Upper secondary,no,no,B,2,when,L1,unsyncopated,when,when,29,Online_whenL1//b.ta6.none.wav,ze,zu,la,sil,ni,ri,ki,sil1,ro,pu,sil2,['-'],,,none,none,,,,ta,2,,,,,,,,,,,,,,,3,2,Español,0,Inglés,3,Alemán,8,5,2,yes,yes,yes,Flauta travesera,6,Piano,6,,,"Hola! Realicé las primeras preguntas previas al experimento un día antes del experimento, lo demás en orden",73.0,yes
158,2024-03-17_18h21.30.304,Unsyncopated_study3,s134,19,feminino,right,España,Español,Upper secondary,no,no,B,2,when,L1,unsyncopated,when,when,30,Online_whenL1//b.ta7.888.wav,lu,fa,fo,sil,ta,pu,ri,sil1,ni,ne,sil2,['catch'],[1.4822000000476692],[1.4822000000476692],0.888,beat,0.5942000000476692,0.5942000000476692,"[""space""]",ta,2,,,,,,,,,,,,,,,3,2,Español,0,Inglés,3,Alemán,8,5,2,yes,yes,yes,Flauta travesera,6,Piano,6,,,"Hola! Realicé las primeras preguntas previas al experimento un día antes del experimento, lo demás en orden",73.0,yes
159,2024-03-17_18h21.30.304,Unsyncopated_study3,s134,19,feminino,right,España,Español,Upper secondary,no,no,B,2,when,L1,unsyncopated,when,when,31,Online_whenL1//b.ta4.1776.wav,ni,pu,ze,sil,fo,ro,ne,sil1,ta,zu,sil2,['catch'],[2.2116000000232816],[2.2116000000232816],1.776,beat,0.4356000000232816,0.4356000000232816,"[""space""]",ta,2,,,,,,,,,,,,,,,3,2,Español,0,Inglés,3,Alemán,8,5,2,yes,yes,yes,Flauta travesera,6,Piano,6,,,"Hola! Realicé las primeras preguntas previas al experimento un día antes del experimento, lo demás en orden",73.0,yes
160,2024-03-17_18h21.30.304,Unsyncopated_study3,s134,19,feminino,right,España,Español,Upper secondary,no,no,B,2,when,L1,unsyncopated,when,when,32,Online_whenL1//a.ki31.0.wav,ki,ze,cho,sil,ri,lu,ta,sil1,ro,fa,sil2,['catch'],[1.141500000000633],[1.141500000000633],0,beat,1.141500000000633,1.141500000000633,"[""space""]",ki,1,,,,,,,,,,,,,,,3,2,Español,0,Inglés,3,Alemán,8,5,2,yes,yes,yes,Flauta travesera,6,Piano,6,,,"Hola! Realicé las primeras preguntas previas al experimento un día antes del experimento, lo demás en orden",73.0,yes
161,2024-03-17_18h21.30.304,Unsyncopated_study3,s134,19,feminino,right,España,Español,Upper secondary,no,no,B,2,when,L1,unsyncopated,when,when,33,Online_whenL1//a.ki28.1998.wav,la,fa,ze,sil,zu,ta,ri,sil1,ni,ki,sil2,['miss'],,,1.998,no_beat,,,,ki,1,,,,,,,,,,,,,,,3,2,Español,0,Inglés,3,Alemán,8,5,2,yes,yes,yes,Flauta travesera,6,Piano,6,,,"Hola! Realicé las primeras preguntas previas al experimento un día antes del experimento, lo demás en orden",73.0,yes
162,2024-03-17_18h21.30.304,Unsyncopated_study3,s134,19,feminino,right,España,Español,Upper secondary,no,no,B,2,when,L1,unsyncopated,when,when,34,Online_whenL1//a.ki30.none.wav,ta,fa,ze,sil,pu,ne,fo,sil1,ni,zu,sil2,['-'],,,none,none,,,,ki,1,,,,,,,,,,,,,,,3,2,Español,0,Inglés,3,Alemán,8,5,2,yes,yes,yes,Flauta travesera,6,Piano,6,,,"Hola! Realicé las primeras preguntas previas al experimento un día antes del experimento, lo demás en orden",73.0,yes
163,2024-03-17_18h21.30.304,Unsyncopated_study3,s134,19,feminino,right,España,Español,Upper secondary,no,no,B,2,when,L1,unsyncopated,when,when,35,Online_whenL1//a.ki29.none.wav,be,fa,ta,sil,zu,lu,ze,sil1,ri,ro,sil2,['-'],,,none,none,,,,ki,1,,,,,,,,,,,,,,,3,2,Español,0,Inglés,3,Alemán,8,5,2,yes,yes,yes,Flauta travesera,6,Piano,6,,,"Hola! Realicé las primeras preguntas previas al experimento un día antes del experimento, lo demás en orden",73.0,yes
164,2024-03-17_18h21.30.304,Unsyncopated_study3,s134,19,feminino,right,España,Español,Upper secondary,no,no,B,2,when,L1,unsyncopated,when,when,36,Online_whenL1//c.ro11.888.wav,ni,fa,ze,sil,ro,ta,ri,sil1,la,be,sil2,['catch'],[1.425100000024031],[1.425100000024031],0.888,beat,0.5371,0.5371,"[""space""]",ro,3,,,,,,,,,,,,,,,3,2,Español,0,Inglés,3,Alemán,8,5,2,yes,yes,yes,Flauta travesera,6,Piano,6,,,"Hola! Realicé las primeras preguntas previas al experimento un día antes del experimento, lo demás en orden",73.0,yes
165,2024-03-17_18h21.30.304,Unsyncopated_study3,s134,19,feminino,right,España,Español,Upper secondary,no,no,B,2,when,L1,unsyncopated,when,when,37,Online_whenL1//c.ro8.222.wav,ne,ro,ze,sil,ki,fo,zu,sil1,cho,pu,sil2,['miss'],,,0.222,no_beat,,,,ro,3,,,,,,,,,,,,,,,3,2,Español,0,Inglés,3,Alemán,8,5,2,yes,yes,yes,Flauta travesera,6,Piano,6,,,"Hola! Realicé las primeras preguntas previas al experimento un día antes del experimento, lo demás en orden",73.0,yes
166,2024-03-17_18h21.30.304,Unsyncopated_study3,s134,19,feminino,right,España,Español,Upper secondary,no,no,B,2,when,L1,unsyncopated,when,when,38,Online_whenL1//c.ro10.1110.wav,ne,ta,ni,sil,ri,ro,lu,sil1,ki,cho,sil2,['catch'],[1.6691000000237182],[1.6691000000237182],1.11,no_beat,0.5591000000237181,0.5591000000237181,"[""space""]",ro,3,,,,,,,,,,,,,,,3,2,Español,0,Inglés,3,Alemán,8,5,2,yes,yes,yes,Flauta travesera,6,Piano,6,,,"Hola! Realicé las primeras preguntas previas al experimento un día antes del experimento, lo demás en orden",73.0,yes
167,2024-03-17_18h21.30.304,Unsyncopated_study3,s134,19,feminino,right,España,Español,Upper secondary,no,no,B,2,when,L1,unsyncopated,when,when,39,Online_whenL1//c.ro9.none.wav,ze,zu,ta,sil,la,lu,fo,sil1,pu,ri,sil2,['-'],,,none,none,,,,ro,3,,,,,,,,,,,,,,,3,2,Español,0,Inglés,3,Alemán,8,5,2,yes,yes,yes,Flauta travesera,6,Piano,6,,,"Hola! Realicé las primeras preguntas previas al experimento un día antes del experimento, lo demás en orden",73.0,yes
168,2024-03-17_18h21.30.304,Unsyncopated_study3,s134,19,feminino,right,España,Español,Upper secondary,no,no,B,2,when,L1,unsyncopated,when,when,40,Online_whenL1//d.ne2.none.wav,lu,ze,ni,sil,pu,la,ri,sil1,ki,zu,sil2,['-'],,,none,none,,,,ne,4,,,,,,,,,,,,,,,3,2,Español,0,Inglés,3,Alemán,8,5,2,yes,yes,yes,Flauta travesera,6,Piano,6,,,"Hola! Realicé las primeras preguntas previas al experimento un día antes del experimento, lo demás en orden",73.0,yes
169,2024-03-17_18h21.30.304,Unsyncopated_study3,s134,19,feminino,right,España,Español,Upper secondary,no,no,B,2,when,L1,unsyncopated,when,when,41,Online_whenL1//d.ne1.none.wav,pu,zu,fo,sil,ze,fa,ni,sil1,ta,lu,sil2,['-'],,,none,none,,,,ne,4,,,,,,,,,,,,,,,3,2,Español,0,Inglés,3,Alemán,8,5,2,yes,yes,yes,Flauta travesera,6,Piano,6,,,"Hola! Realicé las primeras preguntas previas al experimento un día antes del experimento, lo demás en orden",73.0,yes
170,2024-03-17_18h21.30.304,Unsyncopated_study3,s134,19,feminino,right,España,Español,Upper secondary,no,no,B,2,when,L1,unsyncopated,when,when,42,Online_whenL1//d.ne0.1110.wav,ze,fa,fo,sil,pu,ne,ta,sil1,la,ni,sil2,['catch'],[1.954899999976078],[1.954899999976078],1.11,no_beat,0.8449,0.8449,"[""space""]",ne,4,,,,,,,,,,,,,,,3,2,Español,0,Inglés,3,Alemán,8,5,2,yes,yes,yes,Flauta travesera,6,Piano,6,,,"Hola! Realicé las primeras preguntas previas al experimento un día antes del experimento, lo demás en orden",73.0,yes
171,2024-03-17_18h21.30.304,Unsyncopated_study3,s134,19,feminino,right,España,Español,Upper secondary,no,no,B,2,when,L1,unsyncopated,when,when,43,Online_whenL1//d.ne3.none.wav,fo,la,be,sil,pu,fa,ni,sil1,lu,cho,sil2,['-'],,,none,none,,,,ne,4,,,,,,,,,,,,,,,3,2,Español,0,Inglés,3,Alemán,8,5,2,yes,yes,yes,Flauta travesera,6,Piano,6,,,"Hola! Realicé las primeras preguntas previas al experimento un día antes del experimento, lo demás en orden",73.0,yes
172,2024-03-17_18h21.30.304,Unsyncopated_study3,s134,19,feminino,right,España,Español,Upper secondary,no,no,B,2,when,L1,unsyncopated,when,when,44,Online_whenL1//d.ne13.none.wav,ro,cho,fa,sil,lu,ki,ze,sil1,be,fo,sil2,['-'],,,none,none,,,,ne,4,,,,,,,,,,,,,,,3,2,Español,0,Inglés,3,Alemán,8,5,2,yes,yes,yes,Flauta travesera,6,Piano,6,,,"Hola! Realicé las primeras preguntas previas al experimento un día antes del experimento, lo demás en orden",73.0,yes
173,2024-03-17_18h21.30.304,Unsyncopated_study3,s134,19,feminino,right,España,Español,Upper secondary,no,no,B,2,when,L1,unsyncopated,when,when,45,Online_whenL1//d.ne14.none.wav,ro,lu,cho,sil,ni,pu,ri,sil1,be,zu,sil2,['-'],,,none,none,,,,ne,4,,,,,,,,,,,,,,,3,2,Español,0,Inglés,3,Alemán,8,5,2,yes,yes,yes,Flauta travesera,6,Piano,6,,,"Hola! Realicé las primeras preguntas previas al experimento un día antes del experimento, lo demás en orden",73.0,yes
174,2024-03-17_18h21.30.304,Unsyncopated_study3,s134,19,feminino,right,España,Español,Upper secondary,no,no,B,2,when,L1,unsyncopated,when,when,46,Online_whenL1//d.ne12.888.wav,fo,be,zu,sil,ne,ro,ze,sil1,ni,ta,sil2,['catch'],[1.6978000000708562],[1.6978000000708562],0.888,beat,0.8098000000708562,0.8098000000708562,"[""space""]",ne,4,,,,,,,,,,,,,,,3,2,Español,0,Inglés,3,Alemán,8,5,2,yes,yes,yes,Flauta travesera,6,Piano,6,,,"Hola! Realicé las primeras preguntas previas al experimento un día antes del experimento, lo demás en orden",73.0,yes
175,2024-03-17_18h21.30.304,Unsyncopated_study3,s134,19,feminino,right,España,Español,Upper secondary,no,no,B,2,when,L1,unsyncopated,when,when,47,Online_whenL1//d.ne15.444.wav,be,la,ne,sil,fo,pu,ro,sil1,fa,lu,sil2,['catch'],[1.3159999999998035],[1.3159999999998035],0.444,no_beat,0.8719999999998036,0.8719999999998036,"[""space""]",ne,4,,,,,,,,,,,,,,,3,2,Español,0,Inglés,3,Alemán,8,5,2,yes,yes,yes,Flauta travesera,6,Piano,6,,,"Hola! Realicé las primeras preguntas previas al experimento un día antes del experimento, lo demás en orden",73.0,yes
176,2024-03-17_18h21.30.304,Unsyncopated_study3,s134,19,feminino,right,España,Español,Upper secondary,no,no,B,2,when,L1,unsyncopated,when,when,48,Online_whenL1//b.ta21.1998.wav,fa,be,la,sil,zu,cho,fo,sil1,ni,ta,sil2,['catch_delay'],[0.7555000000000438],[0.7555000000000438],1.998,no_beat,0.7555000000000438,0.7555000000000438,,ta,2,,,,,,,,,,,,,,,3,2,Español,0,Inglés,3,Alemán,8,5,2,yes,yes,yes,Flauta travesera,6,Piano,6,,,"Hola! Realicé las primeras preguntas previas al experimento un día antes del experimento, lo demás en orden",73.0,yes
177,2024-03-17_18h21.30.304,Unsyncopated_study3,s134,19,feminino,right,España,Español,Upper secondary,no,no,B,2,when,L1,unsyncopated,when,when,49,Online_whenL1//b.ta22.none.wav,be,ri,fo,sil,ne,ki,zu,sil1,fa,lu,sil2,['-'],[0.08950000000004366],[0.08950000000004366],none,none,,,"[""space""]",ta,2,,,,,,,,,,,,,,,3,2,Español,0,Inglés,3,Alemán,8,5,2,yes,yes,yes,Flauta travesera,6,Piano,6,,,"Hola! Realicé las primeras preguntas previas al experimento un día antes del experimento, lo demás en orden",73.0,yes
