Unnamed: 0,date,expName,participant,age,sex,hand,residence,native_lang,education_level,lang_deficit,aud_deficit,group,block,condition,language,rhythm,rule structure online,rule type online,order_trial_on,trial_online,s1,s2,s3,s4,s5,s6,s7,s8,s9,s10,s11,catch_syll_resp,rts_syll_catch,clean_rts,time_syll,beat_no_beat,catch_rtsTR,catch_rts,syllable_catch.keys,cond_syll,syll_to_catch,test_offline,block_off,condition_off,rhythm_off,rule,rule_str_off,rule_norule,conds_offline,language_off,Partz_no_partm.keys,Partz_no_partm.rt,security_1_7.keys,accuracy,security_1_7.rt,n_lang,n_lang_used,lang_1,age_l1,lang_2,age_l2,ability_learn_l2,tendence_mix_lan,music_experience,muisc_use,partiture,instr_1,age_M1,preguntas_musica1,BMRQ_answer.response,final comment,BMRQ_Score,bilingual
0,2024-02-04_19h09.49.921,Unsyncopated_study2,s101,23.0,feminino,right,España,Castellano,Master degree,no,no,B,1,conjunction_un,L2,unsyncopated,s2,r1,0,Online_conjL2_un//a.go.du21.888.1776.wav,ba,cha,si,sil,go,to,ñi,sil1,du,te,sil2,['catch'],[1.551400000095441],[1.551400000095441],0.888,beat,0.6634000000954411,0.6634000000954411,"[""space""]",go,1,testConjL2Uns//time_viol.r1.s2.0.wav,1.0,conjunction_un,unsyncopated,a,s2,no_rule,time,L2,m,4.0912,4.0,1.0,3.8886,2.0,2.0,Castellano,0.0,Inglés,6.0,2.0,2.0,yes,no,yes,Flauta dulce,6,1. Cuando comparto música con alguien siento una complicidad especial con aquella persona.,3.0,"En el ejercicio de detectar la sílabas del primer lenguaje he tenido dificultades al comienzo porque pensaba que era únicamente de una sílaba todo el tiempo y me he centrado en escuchar esa, por tanto, no me he dado cuenta pasado un rato que las sílabas ha identificar cambiaban cada cierto tiempo. A pesar de eso al comienzo el resto del experimento ha ido bien.",61.0,yes
1,2024-02-04_19h09.49.921,Unsyncopated_study2,s101,23.0,feminino,right,España,Castellano,Master degree,no,no,B,1,conjunction_un,L2,unsyncopated,s2,r1,1,Online_conjL2_un//a.go.du23.888.1776.wav,su,te,mi,sil,go,ñu,bi,sil1,du,me,sil2,['catch'],[1.4745000000000346],[1.4745000000000346],0.888,beat,0.5865000000000345,0.5865000000000345,"[""space""]",go,1,testConjL2Uns//time_viol.r1.s1.0.wav,1.0,conjunction_un,unsyncopated,a,s1,no_rule,time,L2,m,1.2992,7.0,1.0,1.6047,2.0,2.0,Castellano,0.0,Inglés,6.0,2.0,2.0,yes,no,yes,Flauta dulce,6,2. En mi tiempo libre apenas escucho música.,3.0,"En el ejercicio de detectar la sílabas del primer lenguaje he tenido dificultades al comienzo porque pensaba que era únicamente de una sílaba todo el tiempo y me he centrado en escuchar esa, por tanto, no me he dado cuenta pasado un rato que las sílabas ha identificar cambiaban cada cierto tiempo. A pesar de eso al comienzo el resto del experimento ha ido bien.",61.0,yes
2,2024-02-04_19h09.49.921,Unsyncopated_study2,s101,23.0,feminino,right,España,Castellano,Master degree,no,no,B,1,conjunction_un,L2,unsyncopated,s1,r2,2,Online_conjL2_un//a.go.du22.none.none.wav,fe,bi,ñi,sil,ra,mi,me,sil1,su,ñu,sil2,['-'],,,none,none,,,,go,1,testConjL2Uns//cat_viol.r1.s2.0.wav,1.0,conjunction_un,unsyncopated,a,s2,no_rule,cat,L2,z,1.6008,6.0,0.0,1.6932,2.0,2.0,Castellano,0.0,Inglés,6.0,2.0,2.0,yes,no,yes,Flauta dulce,6,3. Algunas canciones me ponen los pelos de punta,4.0,"En el ejercicio de detectar la sílabas del primer lenguaje he tenido dificultades al comienzo porque pensaba que era únicamente de una sílaba todo el tiempo y me he centrado en escuchar esa, por tanto, no me he dado cuenta pasado un rato que las sílabas ha identificar cambiaban cada cierto tiempo. A pesar de eso al comienzo el resto del experimento ha ido bien.",61.0,yes
3,2024-02-04_19h09.49.921,Unsyncopated_study2,s101,23.0,feminino,right,España,Castellano,Master degree,no,no,B,1,conjunction_un,L2,unsyncopated,s1,r1,3,Online_conjL2_un//a.go.du20.0.888.wav,go,ñi,si,sil,du,mi,me,sil1,bi,te,sil2,['catch'],[0.8088999998568625],[0.8088999998568625],0.0,beat,0.8088999998568625,0.8088999998568625,"[""space""]",go,1,testConjL2Uns//r2.s1.2.wav,1.0,conjunction_un,unsyncopated,b,s1,rule,rule,L2,m,1.7742,5.0,0.0,3.9655,2.0,2.0,Castellano,0.0,Inglés,6.0,2.0,2.0,yes,no,yes,Flauta dulce,6,4. La música me hace compañía cuando estoy solo,3.0,"En el ejercicio de detectar la sílabas del primer lenguaje he tenido dificultades al comienzo porque pensaba que era únicamente de una sílaba todo el tiempo y me he centrado en escuchar esa, por tanto, no me he dado cuenta pasado un rato que las sílabas ha identificar cambiaban cada cierto tiempo. A pesar de eso al comienzo el resto del experimento ha ido bien.",61.0,yes
4,2024-02-04_19h09.49.921,Unsyncopated_study2,s101,23.0,feminino,right,España,Castellano,Master degree,no,no,B,1,conjunction_un,L2,unsyncopated,s2,r1,4,Online_conjL2_un//a.go.du13.888.1776.wav,mi,bi,ba,sil,go,ñu,to,sil1,du,te,sil2,['catch'],[1.5537000000476837],[1.5537000000476837],0.888,beat,0.6657000000476837,0.6657000000476837,"[""space""]",go,1,testConjL2Uns//r2.s2.0.wav,1.0,conjunction_un,unsyncopated,b,s2,rule,rule,L2,z,1.265,4.0,1.0,2.5724,2.0,2.0,Castellano,0.0,Inglés,6.0,2.0,2.0,yes,no,yes,Flauta dulce,6,5. No me apetece bailar ni con la música que más me gusta,5.0,"En el ejercicio de detectar la sílabas del primer lenguaje he tenido dificultades al comienzo porque pensaba que era únicamente de una sílaba todo el tiempo y me he centrado en escuchar esa, por tanto, no me he dado cuenta pasado un rato que las sílabas ha identificar cambiaban cada cierto tiempo. A pesar de eso al comienzo el resto del experimento ha ido bien.",61.0,yes
5,2024-02-04_19h09.49.921,Unsyncopated_study2,s101,23.0,feminino,right,España,Castellano,Master degree,no,no,B,1,conjunction_un,L2,unsyncopated,s2,r2,5,Online_conjL2_un//a.go.du15.none.none.wav,me,mi,ñu,sil,fe,si,ñi,sil1,ra,su,sil2,['-'],,,none,none,,,,go,1,testConjL2Uns//dep_viol.r1.s2.0.wav,1.0,conjunction_un,unsyncopated,a,s2,no_rule,dep,L2,z,1.0992,6.0,0.0,1.5327,2.0,2.0,Castellano,0.0,Inglés,6.0,2.0,2.0,yes,no,yes,Flauta dulce,6,6. La música me hace conectar con la gente,3.0,"En el ejercicio de detectar la sílabas del primer lenguaje he tenido dificultades al comienzo porque pensaba que era únicamente de una sílaba todo el tiempo y me he centrado en escuchar esa, por tanto, no me he dado cuenta pasado un rato que las sílabas ha identificar cambiaban cada cierto tiempo. A pesar de eso al comienzo el resto del experimento ha ido bien.",61.0,yes
6,2024-02-04_19h09.49.921,Unsyncopated_study2,s101,23.0,feminino,right,España,Castellano,Master degree,no,no,B,1,conjunction_un,L2,unsyncopated,s2,r2,6,Online_conjL2_un//a.go.du12.none.none.wav,bi,su,mi,sil,fe,ñi,te,sil1,ra,si,sil2,['-'],,,none,none,,,,go,1,testConjL2Uns//r1.s2.0.wav,1.0,conjunction_un,unsyncopated,a,s2,rule,rule,L2,m,1.7904,6.0,0.0,1.715,2.0,2.0,Castellano,0.0,Inglés,6.0,2.0,2.0,yes,no,yes,Flauta dulce,6,7. Me informo sobre la música que me gusta.,1.0,"En el ejercicio de detectar la sílabas del primer lenguaje he tenido dificultades al comienzo porque pensaba que era únicamente de una sílaba todo el tiempo y me he centrado en escuchar esa, por tanto, no me he dado cuenta pasado un rato que las sílabas ha identificar cambiaban cada cierto tiempo. A pesar de eso al comienzo el resto del experimento ha ido bien.",61.0,yes
7,2024-02-04_19h09.49.921,Unsyncopated_study2,s101,23.0,feminino,right,España,Castellano,Master degree,no,no,B,1,conjunction_un,L2,unsyncopated,s1,r1,7,Online_conjL2_un//a.go.du14.0.888.wav,go,su,to,sil,du,te,ba,sil1,ñi,me,sil2,['catch'],[0.7542000000477174],[0.7542000000477174],0.0,beat,0.7542000000477174,0.7542000000477174,"[""space""]",go,1,testConjL2Uns//r1.s1.2.wav,1.0,conjunction_un,unsyncopated,a,s1,rule,rule,L2,m,1.3,3.0,0.0,2.1472,2.0,2.0,Castellano,0.0,Inglés,6.0,2.0,2.0,yes,no,yes,Flauta dulce,6,8.Me emociono escuchando ciertas canciones.,4.0,"En el ejercicio de detectar la sílabas del primer lenguaje he tenido dificultades al comienzo porque pensaba que era únicamente de una sílaba todo el tiempo y me he centrado en escuchar esa, por tanto, no me he dado cuenta pasado un rato que las sílabas ha identificar cambiaban cada cierto tiempo. A pesar de eso al comienzo el resto del experimento ha ido bien.",61.0,yes
8,2024-02-04_19h09.49.921,Unsyncopated_study2,s101,23.0,feminino,right,España,Castellano,Master degree,no,no,B,1,conjunction_un,L2,unsyncopated,s2,r1,8,Online_conjL2_un//a.go.du9.888.1776.wav,mi,bi,cha,sil,go,ñu,si,sil1,du,to,sil2,['catch'],[1.6385000000000218],[1.6385000000000218],0.888,beat,0.7505000000000218,0.7505000000000218,"[""space""]",go,1,testConjL2Uns//r2.s1.0.wav,1.0,conjunction_un,unsyncopated,b,s1,rule,rule,L2,z,5.2817,2.0,1.0,1.924,2.0,2.0,Castellano,0.0,Inglés,6.0,2.0,2.0,yes,no,yes,Flauta dulce,6,9.La música me tranquiliza y me relaja.,4.0,"En el ejercicio de detectar la sílabas del primer lenguaje he tenido dificultades al comienzo porque pensaba que era únicamente de una sílaba todo el tiempo y me he centrado en escuchar esa, por tanto, no me he dado cuenta pasado un rato que las sílabas ha identificar cambiaban cada cierto tiempo. A pesar de eso al comienzo el resto del experimento ha ido bien.",61.0,yes
9,2024-02-04_19h09.49.921,Unsyncopated_study2,s101,23.0,feminino,right,España,Castellano,Master degree,no,no,B,1,conjunction_un,L2,unsyncopated,s1,r1,9,Online_conjL2_un//a.go.du10.0.888.wav,go,bi,ñi,sil,du,si,te,sil1,ñu,su,sil2,['catch'],[0.8933000001907203],[0.8933000001907203],0.0,beat,0.8933000001907203,0.8933000001907203,"[""space""]",go,1,testConjL2Uns//r1.s1.0.wav,1.0,conjunction_un,unsyncopated,a,s1,rule,rule,L2,z,3.4365,4.0,1.0,1.7889,2.0,2.0,Castellano,0.0,Inglés,6.0,2.0,2.0,yes,no,yes,Flauta dulce,6,10.La música me hace bailar,4.0,"En el ejercicio de detectar la sílabas del primer lenguaje he tenido dificultades al comienzo porque pensaba que era únicamente de una sílaba todo el tiempo y me he centrado en escuchar esa, por tanto, no me he dado cuenta pasado un rato que las sílabas ha identificar cambiaban cada cierto tiempo. A pesar de eso al comienzo el resto del experimento ha ido bien.",61.0,yes
10,2024-02-04_19h09.49.921,Unsyncopated_study2,s101,23.0,feminino,right,España,Castellano,Master degree,no,no,B,1,conjunction_un,L2,unsyncopated,s2,r1,10,Online_conjL2_un//a.go.du11.888.1776.wav,si,ba,ñu,sil,go,ñi,mi,sil1,du,te,sil2,['catch'],[1.3705000000001064],[1.3705000000001064],0.888,beat,0.4825000000001064,0.4825000000001064,"[""space""]",go,1,testConjL2Uns//cat_viol.r2.s1.0.wav,1.0,conjunction_un,unsyncopated,b,s1,no_rule,cat,L2,m,1.0319,5.0,1.0,1.0237,2.0,2.0,Castellano,0.0,Inglés,6.0,2.0,2.0,yes,no,yes,Flauta dulce,6,11.Busco novedades musicales continuamente,0.0,"En el ejercicio de detectar la sílabas del primer lenguaje he tenido dificultades al comienzo porque pensaba que era únicamente de una sílaba todo el tiempo y me he centrado en escuchar esa, por tanto, no me he dado cuenta pasado un rato que las sílabas ha identificar cambiaban cada cierto tiempo. A pesar de eso al comienzo el resto del experimento ha ido bien.",61.0,yes
11,2024-02-04_19h09.49.921,Unsyncopated_study2,s101,23.0,feminino,right,España,Castellano,Master degree,no,no,B,1,conjunction_un,L2,unsyncopated,s1,r2,11,Online_conjL2_un//a.go.du8.none.none.wav,fe,to,ñi,sil,ra,ba,cha,sil1,ñu,bi,sil2,['false alarm'],[2.5539999999999736],[2.5539999999999736],none,none,,,"[""space""]",go,1,testConjL2Uns//cat_viol.r1.s1.0.wav,1.0,conjunction_un,unsyncopated,a,s1,no_rule,cat,L2,m,1.3658,5.0,1.0,1.644,2.0,2.0,Castellano,0.0,Inglés,6.0,2.0,2.0,yes,no,yes,Flauta dulce,6,12. Puedo llorar cuando escucho algunas melodías que me gustan mucho.,3.0,"En el ejercicio de detectar la sílabas del primer lenguaje he tenido dificultades al comienzo porque pensaba que era únicamente de una sílaba todo el tiempo y me he centrado en escuchar esa, por tanto, no me he dado cuenta pasado un rato que las sílabas ha identificar cambiaban cada cierto tiempo. A pesar de eso al comienzo el resto del experimento ha ido bien.",61.0,yes
12,2024-02-04_19h09.49.921,Unsyncopated_study2,s101,23.0,feminino,right,España,Castellano,Master degree,no,no,B,1,conjunction_un,L2,unsyncopated,s2,r1,12,Online_conjL2_un//b.fe.ra21.none.none.wav,bi,ba,to,sil,go,te,si,sil1,du,me,sil2,['false alarm'],[1.703700000047661],[1.703700000047661],none,none,,,"[""space""]",ra,2,testConjL2Uns//r2.s2.2.wav,1.0,conjunction_un,unsyncopated,b,s2,rule,rule,L2,m,2.6502,4.0,0.0,1.3717,2.0,2.0,Castellano,0.0,Inglés,6.0,2.0,2.0,yes,no,yes,Flauta dulce,6,13. Me gusta cantar o tocar un instrumento con más gente,2.0,"En el ejercicio de detectar la sílabas del primer lenguaje he tenido dificultades al comienzo porque pensaba que era únicamente de una sílaba todo el tiempo y me he centrado en escuchar esa, por tanto, no me he dado cuenta pasado un rato que las sílabas ha identificar cambiaban cada cierto tiempo. A pesar de eso al comienzo el resto del experimento ha ido bien.",61.0,yes
13,2024-02-04_19h09.49.921,Unsyncopated_study2,s101,23.0,feminino,right,España,Castellano,Master degree,no,no,B,1,conjunction_un,L2,unsyncopated,s2,r1,13,Online_conjL2_un//b.fe.ra23.none.none.wav,ñu,ba,mi,sil,go,to,ñi,sil1,du,bi,sil2,['false alarm'],[1.60450000000003],[1.60450000000003],none,none,,,"[""space""]",ra,2,testConjL2Uns//time_viol.r2.s1.0.wav,1.0,conjunction_un,unsyncopated,b,s1,no_rule,time,L2,m,1.3226,7.0,1.0,0.881,2.0,2.0,Castellano,0.0,Inglés,6.0,2.0,2.0,yes,no,yes,Flauta dulce,6,14. La música me ayuda a desconectar.,3.0,"En el ejercicio de detectar la sílabas del primer lenguaje he tenido dificultades al comienzo porque pensaba que era únicamente de una sílaba todo el tiempo y me he centrado en escuchar esa, por tanto, no me he dado cuenta pasado un rato que las sílabas ha identificar cambiaban cada cierto tiempo. A pesar de eso al comienzo el resto del experimento ha ido bien.",61.0,yes
14,2024-02-04_19h09.49.921,Unsyncopated_study2,s101,23.0,feminino,right,España,Castellano,Master degree,no,no,B,1,conjunction_un,L2,unsyncopated,s1,r1,14,Online_conjL2_un//b.fe.ra22.none.none.wav,go,te,to,sil,du,me,ñu,sil1,ñi,si,sil2,['false alarm'],[0.7884999999999991],[0.7884999999999991],none,none,,,"[""space""]",ra,2,testConjL2Uns//time_viol.r2.s2.0.wav,1.0,conjunction_un,unsyncopated,b,s2,no_rule,time,L2,m,0.9226,4.0,1.0,1.1537,2.0,2.0,Castellano,0.0,Inglés,6.0,2.0,2.0,yes,no,yes,Flauta dulce,6,15. No puedo evitar tararear las canciones que me gustan cuando las escucho.,4.0,"En el ejercicio de detectar la sílabas del primer lenguaje he tenido dificultades al comienzo porque pensaba que era únicamente de una sílaba todo el tiempo y me he centrado en escuchar esa, por tanto, no me he dado cuenta pasado un rato que las sílabas ha identificar cambiaban cada cierto tiempo. A pesar de eso al comienzo el resto del experimento ha ido bien.",61.0,yes
15,2024-02-04_19h09.49.921,Unsyncopated_study2,s101,23.0,feminino,right,España,Castellano,Master degree,no,no,B,1,conjunction_un,L2,unsyncopated,s2,r2,15,Online_conjL2_un//b.fe.ra20.888.1776.wav,bi,ñi,me,sil,fe,cha,si,sil1,ra,su,sil2,['miss'],,,1.776,beat,,,,ra,2,testConjL2Uns//cat_viol.r2.s2.0.wav,1.0,conjunction_un,unsyncopated,b,s2,no_rule,cat,L2,z,0.6097,3.0,0.0,1.9129,2.0,2.0,Castellano,0.0,Inglés,6.0,2.0,2.0,yes,no,yes,Flauta dulce,6,16. En los conciertos me siento en sintonía con los artistas y el público.,3.0,"En el ejercicio de detectar la sílabas del primer lenguaje he tenido dificultades al comienzo porque pensaba que era únicamente de una sílaba todo el tiempo y me he centrado en escuchar esa, por tanto, no me he dado cuenta pasado un rato que las sílabas ha identificar cambiaban cada cierto tiempo. A pesar de eso al comienzo el resto del experimento ha ido bien.",61.0,yes
16,2024-02-04_19h09.49.921,Unsyncopated_study2,s101,23.0,feminino,right,España,Castellano,Master degree,no,no,B,1,conjunction_un,L2,unsyncopated,s2,r1,16,Online_conjL2_un//c.cha.me17.1332.444.wav,bi,ba,me,sil,go,ñi,cha,sil1,du,si,sil2,['catch'],[1.4888999998569261],[1.4888999998569261],0.444,no_beat,1.0448999998569262,1.0448999998569262,"[""space""]",me,3,testConjL2Uns//dep_viol.r1.s1.0.wav,1.0,conjunction_un,unsyncopated,a,s1,no_rule,dep,L2,m,0.8073,5.0,1.0,1.5452,2.0,2.0,Castellano,0.0,Inglés,6.0,2.0,2.0,yes,no,yes,Flauta dulce,6,17. Me gasto bastante dinero en música y cosas relacionadas con la música.,1.0,"En el ejercicio de detectar la sílabas del primer lenguaje he tenido dificultades al comienzo porque pensaba que era únicamente de una sílaba todo el tiempo y me he centrado en escuchar esa, por tanto, no me he dado cuenta pasado un rato que las sílabas ha identificar cambiaban cada cierto tiempo. A pesar de eso al comienzo el resto del experimento ha ido bien.",61.0,yes
17,2024-02-04_19h09.49.921,Unsyncopated_study2,s101,23.0,feminino,right,España,Castellano,Master degree,no,no,B,1,conjunction_un,L2,unsyncopated,s2,r1,17,Online_conjL2_un//c.cha.me19.none.none.wav,bi,mi,to,sil,go,ñu,si,sil1,du,ñi,sil2,['false alarm'],[1.505100000143102],[1.505100000143102],none,none,,,"[""space""]",me,3,testConjL2Uns//dep_viol.r2.s1.0.wav,1.0,conjunction_un,unsyncopated,b,s1,no_rule,dep,L2,z,0.9146,4.0,0.0,1.377,2.0,2.0,Castellano,0.0,Inglés,6.0,2.0,2.0,yes,no,yes,Flauta dulce,6,18. Siento escalofríos cuando escucho una melodía que me gusta.,3.0,"En el ejercicio de detectar la sílabas del primer lenguaje he tenido dificultades al comienzo porque pensaba que era únicamente de una sílaba todo el tiempo y me he centrado en escuchar esa, por tanto, no me he dado cuenta pasado un rato que las sílabas ha identificar cambiaban cada cierto tiempo. A pesar de eso al comienzo el resto del experimento ha ido bien.",61.0,yes
18,2024-02-04_19h09.49.921,Unsyncopated_study2,s101,23.0,feminino,right,España,Castellano,Master degree,no,no,B,1,conjunction_un,L2,unsyncopated,s2,r2,18,Online_conjL2_un//c.cha.me16.none.none.wav,te,mi,si,sil,fe,ñi,bi,sil1,ra,ñu,sil2,['-'],,,none,none,,,,me,3,testConjL2Uns//dep_viol.r2.s2.0.wav,1.0,conjunction_un,unsyncopated,b,s2,no_rule,dep,L2,m,1.2016,4.0,1.0,1.5728,2.0,2.0,Castellano,0.0,Inglés,6.0,2.0,2.0,yes,no,yes,Flauta dulce,6,19. Con la música me puedo desahogar.,4.0,"En el ejercicio de detectar la sílabas del primer lenguaje he tenido dificultades al comienzo porque pensaba que era únicamente de una sílaba todo el tiempo y me he centrado en escuchar esa, por tanto, no me he dado cuenta pasado un rato que las sílabas ha identificar cambiaban cada cierto tiempo. A pesar de eso al comienzo el resto del experimento ha ido bien.",61.0,yes
19,2024-02-04_19h09.49.921,Unsyncopated_study2,s101,23.0,feminino,right,España,Castellano,Master degree,no,no,B,1,conjunction_un,L2,unsyncopated,s2,r1,19,Online_conjL2_un//c.cha.me18.none.none.wav,ba,su,mi,sil,go,ñu,te,sil1,du,ñi,sil2,['false alarm'],[1.6214000000953774],[1.6214000000953774],none,none,,,"[""space""]",me,3,testConjL2Uns//r1.s2.1.wav,1.0,conjunction_un,unsyncopated,a,s2,rule,rule,L2,z,1.3225,6.0,1.0,1.8434,2.0,2.0,Castellano,0.0,Inglés,6.0,2.0,2.0,yes,no,yes,Flauta dulce,6,20. Cuando escucho una melodía que me gusta mucho no puedo evitar mover el cuerpo.,4.0,"En el ejercicio de detectar la sílabas del primer lenguaje he tenido dificultades al comienzo porque pensaba que era únicamente de una sílaba todo el tiempo y me he centrado en escuchar esa, por tanto, no me he dado cuenta pasado un rato que las sílabas ha identificar cambiaban cada cierto tiempo. A pesar de eso al comienzo el resto del experimento ha ido bien.",61.0,yes
20,2024-02-04_19h09.49.921,Unsyncopated_study2,s101,23.0,feminino,right,España,Castellano,Master degree,no,no,B,1,conjunction_un,L2,unsyncopated,s1,r2,20,Online_conjL2_un//d.si.ñu20.1776.222.wav,fe,ñu,cha,sil,ra,bi,te,sil1,si,ñi,sil2,['miss'],,,0.222,no_beat,,,,ñu,4,testConjL2Uns//r2.s1.1.wav,1.0,conjunction_un,unsyncopated,b,s1,rule,rule,L2,m,0.4015,7.0,0.0,0.9244,2.0,2.0,Castellano,0.0,Inglés,6.0,2.0,2.0,yes,no,yes,Flauta dulce,6,,,"En el ejercicio de detectar la sílabas del primer lenguaje he tenido dificultades al comienzo porque pensaba que era únicamente de una sílaba todo el tiempo y me he centrado en escuchar esa, por tanto, no me he dado cuenta pasado un rato que las sílabas ha identificar cambiaban cada cierto tiempo. A pesar de eso al comienzo el resto del experimento ha ido bien.",61.0,yes
21,2024-02-04_19h09.49.921,Unsyncopated_study2,s101,23.0,feminino,right,España,Castellano,Master degree,no,no,B,1,conjunction_un,L2,unsyncopated,s1,r1,21,Online_conjL2_un//d.si.ñu22.none.none.wav,go,su,to,sil,du,ñi,me,sil1,bi,mi,sil2,['false alarm'],[0.7055000000000291],[0.7055000000000291],none,none,,,"[""space""]",ñu,4,testConjL2Uns//r2.s2.1.wav,1.0,conjunction_un,unsyncopated,b,s2,rule,rule,L2,m,0.3823,5.0,0.0,0.7687,2.0,2.0,Castellano,0.0,Inglés,6.0,2.0,2.0,yes,no,yes,Flauta dulce,6,,,"En el ejercicio de detectar la sílabas del primer lenguaje he tenido dificultades al comienzo porque pensaba que era únicamente de una sílaba todo el tiempo y me he centrado en escuchar esa, por tanto, no me he dado cuenta pasado un rato que las sílabas ha identificar cambiaban cada cierto tiempo. A pesar de eso al comienzo el resto del experimento ha ido bien.",61.0,yes
22,2024-02-04_19h09.49.921,Unsyncopated_study2,s101,23.0,feminino,right,España,Castellano,Master degree,no,no,B,1,conjunction_un,L2,unsyncopated,s2,r1,22,Online_conjL2_un//d.si.ñu23.none.none.wav,su,to,ñi,sil,go,mi,cha,sil1,du,ba,sil2,['false alarm'],[1.8213999998570216],[1.8213999998570216],none,none,,,"[""space""]",ñu,4,testConjL2Uns//r1.s1.1.wav,1.0,conjunction_un,unsyncopated,a,s1,rule,rule,L2,m,0.3594,4.0,0.0,1.3111,2.0,2.0,Castellano,0.0,Inglés,6.0,2.0,2.0,yes,no,yes,Flauta dulce,6,,,"En el ejercicio de detectar la sílabas del primer lenguaje he tenido dificultades al comienzo porque pensaba que era únicamente de una sílaba todo el tiempo y me he centrado en escuchar esa, por tanto, no me he dado cuenta pasado un rato que las sílabas ha identificar cambiaban cada cierto tiempo. A pesar de eso al comienzo el resto del experimento ha ido bien.",61.0,yes
23,2024-02-04_19h09.49.921,Unsyncopated_study2,s101,23.0,feminino,right,España,Castellano,Master degree,no,no,B,1,conjunction_un,L2,unsyncopated,s1,r2,23,Online_conjL2_un//d.si.ñu21.none.none.wav,fe,ba,mi,sil,ra,cha,su,sil1,to,me,sil2,['false alarm'],[2.3558999998570016],[2.3558999998570016],none,none,,,"[""space""]",ñu,4,testConjL2Uns//r1.s2.2.wav,1.0,conjunction_un,unsyncopated,a,s2,rule,rule,L2,m,1.4848,6.0,0.0,1.6009,2.0,2.0,Castellano,0.0,Inglés,6.0,2.0,2.0,yes,no,yes,Flauta dulce,6,,,"En el ejercicio de detectar la sílabas del primer lenguaje he tenido dificultades al comienzo porque pensaba que era únicamente de una sílaba todo el tiempo y me he centrado en escuchar esa, por tanto, no me he dado cuenta pasado un rato que las sílabas ha identificar cambiaban cada cierto tiempo. A pesar de eso al comienzo el resto del experimento ha ido bien.",61.0,yes
24,2024-02-04_19h09.49.921,Unsyncopated_study2,s101,23.0,feminino,right,España,Castellano,Master degree,no,no,B,1,conjunction_un,L2,unsyncopated,s1,r1,24,Online_conjL2_un//d.si.ñu6.444.1110.wav,go,cha,si,sil,du,ñu,ba,sil1,me,to,sil2,['catch'],[1.391999999999939],[1.391999999999939],1.11,no_beat,0.2819999999999389,0.2819999999999389,"[""space""]",ñu,4,testWhatL3Uns//cat_viol.r1.s2.0.wav,2.0,what,unsyncopated,a,s2,no_rule,cat,L3,z,1.863,6.0,0.0,1.5752,2.0,2.0,Castellano,0.0,Inglés,6.0,2.0,2.0,yes,no,yes,Flauta dulce,6,,,"En el ejercicio de detectar la sílabas del primer lenguaje he tenido dificultades al comienzo porque pensaba que era únicamente de una sílaba todo el tiempo y me he centrado en escuchar esa, por tanto, no me he dado cuenta pasado un rato que las sílabas ha identificar cambiaban cada cierto tiempo. A pesar de eso al comienzo el resto del experimento ha ido bien.",61.0,yes
25,2024-02-04_19h09.49.921,Unsyncopated_study2,s101,23.0,feminino,right,España,Castellano,Master degree,no,no,B,1,conjunction_un,L2,unsyncopated,s2,r2,25,Online_conjL2_un//d.si.ñu5.none.none.wav,bi,ñi,mi,sil,fe,te,ba,sil1,ra,to,sil2,['-'],,,none,none,,,,ñu,4,testWhatL3Uns//r2.s1.2.wav,2.0,what,unsyncopated,b,s1,rule,rule,L3,m,1.9365,4.0,0.0,1.2435,2.0,2.0,Castellano,0.0,Inglés,6.0,2.0,2.0,yes,no,yes,Flauta dulce,6,,,"En el ejercicio de detectar la sílabas del primer lenguaje he tenido dificultades al comienzo porque pensaba que era únicamente de una sílaba todo el tiempo y me he centrado en escuchar esa, por tanto, no me he dado cuenta pasado un rato que las sílabas ha identificar cambiaban cada cierto tiempo. A pesar de eso al comienzo el resto del experimento ha ido bien.",61.0,yes
26,2024-02-04_19h09.49.921,Unsyncopated_study2,s101,23.0,feminino,right,España,Castellano,Master degree,no,no,B,1,conjunction_un,L2,unsyncopated,s1,r1,26,Online_conjL2_un//d.si.ñu7.none.none.wav,go,ñi,mi,sil,du,te,ba,sil1,su,to,sil2,['false alarm'],[0.6083999998569425],[0.6083999998569425],none,none,,,"[""space""]",ñu,4,testWhatL3Uns//r1.s1.1.wav,2.0,what,unsyncopated,a,s1,rule,rule,L3,m,1.3792,5.0,0.0,1.9192,2.0,2.0,Castellano,0.0,Inglés,6.0,2.0,2.0,yes,no,yes,Flauta dulce,6,,,"En el ejercicio de detectar la sílabas del primer lenguaje he tenido dificultades al comienzo porque pensaba que era únicamente de una sílaba todo el tiempo y me he centrado en escuchar esa, por tanto, no me he dado cuenta pasado un rato que las sílabas ha identificar cambiaban cada cierto tiempo. A pesar de eso al comienzo el resto del experimento ha ido bien.",61.0,yes
27,2024-02-04_19h09.49.921,Unsyncopated_study2,s101,23.0,feminino,right,España,Castellano,Master degree,no,no,B,1,conjunction_un,L2,unsyncopated,s1,r1,27,Online_conjL2_un//d.si.ñu4.1332.444.wav,go,me,ñu,sil,du,cha,si,sil1,bi,to,sil2,['catch'],[0.6219000000953656],[0.6219000000953656],0.444,no_beat,0.1779000000953656,0.1779000000953656,"[""space""]",ñu,4,testWhatL3Uns//r1.s1.2.wav,2.0,what,unsyncopated,a,s1,rule,rule,L3,m,0.3783,4.0,0.0,2.5979,2.0,2.0,Castellano,0.0,Inglés,6.0,2.0,2.0,yes,no,yes,Flauta dulce,6,,,"En el ejercicio de detectar la sílabas del primer lenguaje he tenido dificultades al comienzo porque pensaba que era únicamente de una sílaba todo el tiempo y me he centrado en escuchar esa, por tanto, no me he dado cuenta pasado un rato que las sílabas ha identificar cambiaban cada cierto tiempo. A pesar de eso al comienzo el resto del experimento ha ido bien.",61.0,yes
28,2024-02-04_19h09.49.921,Unsyncopated_study2,s101,23.0,feminino,right,España,Castellano,Master degree,no,no,B,1,conjunction_un,L2,unsyncopated,s1,r2,28,Online_conjL2_un//b.fe.ra10.0.888.wav,fe,ñu,cha,sil,ra,mi,bi,sil1,me,si,sil2,['miss'],,,0.888,beat,,,,ra,2,testWhatL3Uns//time_viol.r1.s2.0.wav,2.0,what,unsyncopated,a,s2,no_rule,time,L3,m,0.9765,3.0,1.0,1.0692,2.0,2.0,Castellano,0.0,Inglés,6.0,2.0,2.0,yes,no,yes,Flauta dulce,6,,,"En el ejercicio de detectar la sílabas del primer lenguaje he tenido dificultades al comienzo porque pensaba que era únicamente de una sílaba todo el tiempo y me he centrado en escuchar esa, por tanto, no me he dado cuenta pasado un rato que las sílabas ha identificar cambiaban cada cierto tiempo. A pesar de eso al comienzo el resto del experimento ha ido bien.",61.0,yes
29,2024-02-04_19h09.49.921,Unsyncopated_study2,s101,23.0,feminino,right,España,Castellano,Master degree,no,no,B,1,conjunction_un,L2,unsyncopated,s1,r2,29,Online_conjL2_un//b.fe.ra9.0.888.wav,fe,ñu,cha,sil,ra,to,bi,sil1,te,ba,sil2,['miss'],,,0.888,beat,,,,ra,2,testWhatL3Uns//r1.s2.1.wav,2.0,what,unsyncopated,a,s2,rule,rule,L3,z,1.1546,5.0,1.0,1.6101,2.0,2.0,Castellano,0.0,Inglés,6.0,2.0,2.0,yes,no,yes,Flauta dulce,6,,,"En el ejercicio de detectar la sílabas del primer lenguaje he tenido dificultades al comienzo porque pensaba que era únicamente de una sílaba todo el tiempo y me he centrado en escuchar esa, por tanto, no me he dado cuenta pasado un rato que las sílabas ha identificar cambiaban cada cierto tiempo. A pesar de eso al comienzo el resto del experimento ha ido bien.",61.0,yes
30,2024-02-04_19h09.49.921,Unsyncopated_study2,s101,23.0,feminino,right,España,Castellano,Master degree,no,no,B,1,conjunction_un,L2,unsyncopated,s2,r1,30,Online_conjL2_un//b.fe.ra8.none.none.wav,si,to,mi,sil,go,cha,me,sil1,du,bi,sil2,['false alarm'],[1.5300999999045644],[1.5300999999045644],none,none,,,"[""space""]",ra,2,testWhatL3Uns//dep_viol.r1.s2.0.wav,2.0,what,unsyncopated,a,s2,no_rule,dep,L3,m,0.9099,3.0,1.0,2.1173,2.0,2.0,Castellano,0.0,Inglés,6.0,2.0,2.0,yes,no,yes,Flauta dulce,6,,,"En el ejercicio de detectar la sílabas del primer lenguaje he tenido dificultades al comienzo porque pensaba que era únicamente de una sílaba todo el tiempo y me he centrado en escuchar esa, por tanto, no me he dado cuenta pasado un rato que las sílabas ha identificar cambiaban cada cierto tiempo. A pesar de eso al comienzo el resto del experimento ha ido bien.",61.0,yes
31,2024-02-04_19h09.49.921,Unsyncopated_study2,s101,23.0,feminino,right,España,Castellano,Master degree,no,no,B,1,conjunction_un,L2,unsyncopated,s1,r2,31,Online_conjL2_un//b.fe.ra11.0.888.wav,fe,bi,mi,sil,ra,te,su,sil1,cha,ba,sil2,['miss'],,,0.888,beat,,,,ra,2,testWhatL3Uns//r2.s2.1.wav,2.0,what,unsyncopated,b,s2,rule,rule,L3,z,1.815,2.0,1.0,0.8996,2.0,2.0,Castellano,0.0,Inglés,6.0,2.0,2.0,yes,no,yes,Flauta dulce,6,,,"En el ejercicio de detectar la sílabas del primer lenguaje he tenido dificultades al comienzo porque pensaba que era únicamente de una sílaba todo el tiempo y me he centrado en escuchar esa, por tanto, no me he dado cuenta pasado un rato que las sílabas ha identificar cambiaban cada cierto tiempo. A pesar de eso al comienzo el resto del experimento ha ido bien.",61.0,yes
32,2024-02-04_19h09.49.921,Unsyncopated_study2,s101,23.0,feminino,right,España,Castellano,Master degree,no,no,B,1,conjunction_un,L2,unsyncopated,s2,r2,32,Online_conjL2_un//c.cha.me6.0.222.wav,cha,me,si,sil,fe,ba,te,sil1,ra,to,sil2,['catch'],[0.9685999999046544],[0.9685999999046544],0.222,no_beat,0.7465999999046544,0.7465999999046544,"[""space""]",me,3,testWhatL3Uns//time_viol.r2.s1.0.wav,2.0,what,unsyncopated,b,s1,no_rule,time,L3,m,1.7665,4.0,1.0,0.5505,2.0,2.0,Castellano,0.0,Inglés,6.0,2.0,2.0,yes,no,yes,Flauta dulce,6,,,"En el ejercicio de detectar la sílabas del primer lenguaje he tenido dificultades al comienzo porque pensaba que era únicamente de una sílaba todo el tiempo y me he centrado en escuchar esa, por tanto, no me he dado cuenta pasado un rato que las sílabas ha identificar cambiaban cada cierto tiempo. A pesar de eso al comienzo el resto del experimento ha ido bien.",61.0,yes
33,2024-02-04_19h09.49.921,Unsyncopated_study2,s101,23.0,feminino,right,España,Castellano,Master degree,no,no,B,1,conjunction_un,L2,unsyncopated,s2,r1,33,Online_conjL2_un//c.cha.me5.1332.0.wav,me,ñi,mi,sil,go,to,cha,sil1,du,su,sil2,['catch'],[0.9752999999523126],[0.9752999999523126],0.0,beat,0.9752999999523126,0.9752999999523126,"[""space""]",me,3,testWhatL3Uns//cat_viol.r2.s2.0.wav,2.0,what,unsyncopated,b,s2,no_rule,cat,L3,m,1.302,5.0,1.0,0.7206,2.0,2.0,Castellano,0.0,Inglés,6.0,2.0,2.0,yes,no,yes,Flauta dulce,6,,,"En el ejercicio de detectar la sílabas del primer lenguaje he tenido dificultades al comienzo porque pensaba que era únicamente de una sílaba todo el tiempo y me he centrado en escuchar esa, por tanto, no me he dado cuenta pasado un rato que las sílabas ha identificar cambiaban cada cierto tiempo. A pesar de eso al comienzo el resto del experimento ha ido bien.",61.0,yes
34,2024-02-04_19h09.49.921,Unsyncopated_study2,s101,23.0,feminino,right,España,Castellano,Master degree,no,no,B,1,conjunction_un,L2,unsyncopated,s1,r2,34,Online_conjL2_un//c.cha.me7.none.none.wav,fe,su,si,sil,ra,te,mi,sil1,ba,to,sil2,['-'],,,none,none,,,,me,3,testWhatL3Uns//cat_viol.r1.s1.0.wav,2.0,what,unsyncopated,a,s1,no_rule,cat,L3,m,1.2213,7.0,1.0,0.6643,2.0,2.0,Castellano,0.0,Inglés,6.0,2.0,2.0,yes,no,yes,Flauta dulce,6,,,"En el ejercicio de detectar la sílabas del primer lenguaje he tenido dificultades al comienzo porque pensaba que era únicamente de una sílaba todo el tiempo y me he centrado en escuchar esa, por tanto, no me he dado cuenta pasado un rato que las sílabas ha identificar cambiaban cada cierto tiempo. A pesar de eso al comienzo el resto del experimento ha ido bien.",61.0,yes
35,2024-02-04_19h09.49.921,Unsyncopated_study2,s101,23.0,feminino,right,España,Castellano,Master degree,no,no,B,1,conjunction_un,L2,unsyncopated,s2,r2,35,Online_conjL2_un//c.cha.me4.none.none.wav,mi,ñu,su,sil,fe,bi,to,sil1,ra,ñi,sil2,['-'],,,none,none,,,,me,3,testWhatL3Uns//dep_viol.r2.s1.0.wav,2.0,what,unsyncopated,b,s1,no_rule,dep,L3,m,0.9028,4.0,1.0,0.3833,2.0,2.0,Castellano,0.0,Inglés,6.0,2.0,2.0,yes,no,yes,Flauta dulce,6,,,"En el ejercicio de detectar la sílabas del primer lenguaje he tenido dificultades al comienzo porque pensaba que era únicamente de una sílaba todo el tiempo y me he centrado en escuchar esa, por tanto, no me he dado cuenta pasado un rato que las sílabas ha identificar cambiaban cada cierto tiempo. A pesar de eso al comienzo el resto del experimento ha ido bien.",61.0,yes
36,2024-02-04_19h09.49.921,Unsyncopated_study2,s101,23.0,feminino,right,España,Castellano,Master degree,no,no,B,1,conjunction_un,L2,unsyncopated,s2,r1,36,Online_conjL2_un//d.si.ñu16.1110.222.wav,te,ñu,mi,sil,go,si,to,sil1,du,me,sil2,['catch'],[1.099400000095443],[1.099400000095443],0.222,no_beat,0.877400000095443,0.877400000095443,"[""space""]",ñu,4,testWhatL3Uns//r1.s2.2.wav,2.0,what,unsyncopated,a,s2,rule,rule,L3,m,3.3771,3.0,0.0,0.817,2.0,2.0,Castellano,0.0,Inglés,6.0,2.0,2.0,yes,no,yes,Flauta dulce,6,,,"En el ejercicio de detectar la sílabas del primer lenguaje he tenido dificultades al comienzo porque pensaba que era únicamente de una sílaba todo el tiempo y me he centrado en escuchar esa, por tanto, no me he dado cuenta pasado un rato que las sílabas ha identificar cambiaban cada cierto tiempo. A pesar de eso al comienzo el resto del experimento ha ido bien.",61.0,yes
37,2024-02-04_19h09.49.921,Unsyncopated_study2,s101,23.0,feminino,right,España,Castellano,Master degree,no,no,B,1,conjunction_un,L2,unsyncopated,s2,r1,37,Online_conjL2_un//d.si.ñu18.1332.222.wav,bi,ñu,me,sil,go,cha,si,sil1,du,ba,sil2,['miss'],,,0.222,no_beat,,,,ñu,4,testWhatL3Uns//dep_viol.r2.s2.0.wav,2.0,what,unsyncopated,b,s2,no_rule,dep,L3,z,1.6643,6.0,0.0,1.2383,2.0,2.0,Castellano,0.0,Inglés,6.0,2.0,2.0,yes,no,yes,Flauta dulce,6,,,"En el ejercicio de detectar la sílabas del primer lenguaje he tenido dificultades al comienzo porque pensaba que era únicamente de una sílaba todo el tiempo y me he centrado en escuchar esa, por tanto, no me he dado cuenta pasado un rato que las sílabas ha identificar cambiaban cada cierto tiempo. A pesar de eso al comienzo el resto del experimento ha ido bien.",61.0,yes
38,2024-02-04_19h09.49.921,Unsyncopated_study2,s101,23.0,feminino,right,España,Castellano,Master degree,no,no,B,1,conjunction_un,L2,unsyncopated,s1,r1,38,Online_conjL2_un//d.si.ñu19.444.1332.wav,go,su,si,sil,du,to,ñu,sil1,te,me,sil2,['catch'],[2.0086000001430193],[2.0086000001430193],1.332,no_beat,0.6766000001430192,0.6766000001430192,"[""space""]",ñu,4,testWhatL3Uns//r2.s2.0.wav,2.0,what,unsyncopated,b,s2,rule,rule,L3,m,1.436,4.0,0.0,0.4344,2.0,2.0,Castellano,0.0,Inglés,6.0,2.0,2.0,yes,no,yes,Flauta dulce,6,,,"En el ejercicio de detectar la sílabas del primer lenguaje he tenido dificultades al comienzo porque pensaba que era únicamente de una sílaba todo el tiempo y me he centrado en escuchar esa, por tanto, no me he dado cuenta pasado un rato que las sílabas ha identificar cambiaban cada cierto tiempo. A pesar de eso al comienzo el resto del experimento ha ido bien.",61.0,yes
39,2024-02-04_19h09.49.921,Unsyncopated_study2,s101,23.0,feminino,right,España,Castellano,Master degree,no,no,B,1,conjunction_un,L2,unsyncopated,s2,r2,39,Online_conjL2_un//d.si.ñu17.1110.0.wav,ñu,bi,te,sil,fe,si,me,sil1,ra,ba,sil2,['catch'],[0.8374000000953856],[0.8374000000953856],0.0,beat,0.8374000000953856,0.8374000000953856,"[""space""]",ñu,4,testWhatL3Uns//r1.s1.0.wav,2.0,what,unsyncopated,a,s1,rule,rule,L3,m,1.8244,5.0,0.0,0.9108,2.0,2.0,Castellano,0.0,Inglés,6.0,2.0,2.0,yes,no,yes,Flauta dulce,6,,,"En el ejercicio de detectar la sílabas del primer lenguaje he tenido dificultades al comienzo porque pensaba que era únicamente de una sílaba todo el tiempo y me he centrado en escuchar esa, por tanto, no me he dado cuenta pasado un rato que las sílabas ha identificar cambiaban cada cierto tiempo. A pesar de eso al comienzo el resto del experimento ha ido bien.",61.0,yes
40,2024-02-04_19h09.49.921,Unsyncopated_study2,s101,23.0,feminino,right,España,Castellano,Master degree,no,no,B,1,conjunction_un,L2,unsyncopated,s2,r2,40,Online_conjL2_un//a.go.du4.none.none.wav,ñi,ba,cha,sil,fe,bi,ñu,sil1,ra,mi,sil2,['-'],,,none,none,,,,go,1,testWhatL3Uns//time_viol.r2.s2.0.wav,2.0,what,unsyncopated,b,s2,no_rule,time,L3,m,1.4664,6.0,1.0,1.6781,2.0,2.0,Castellano,0.0,Inglés,6.0,2.0,2.0,yes,no,yes,Flauta dulce,6,,,"En el ejercicio de detectar la sílabas del primer lenguaje he tenido dificultades al comienzo porque pensaba que era únicamente de una sílaba todo el tiempo y me he centrado en escuchar esa, por tanto, no me he dado cuenta pasado un rato que las sílabas ha identificar cambiaban cada cierto tiempo. A pesar de eso al comienzo el resto del experimento ha ido bien.",61.0,yes
41,2024-02-04_19h09.49.921,Unsyncopated_study2,s101,23.0,feminino,right,España,Castellano,Master degree,no,no,B,1,conjunction_un,L2,unsyncopated,s2,r2,41,Online_conjL2_un//a.go.du6.none.none.wav,ñu,ba,bi,sil,fe,me,su,sil1,ra,to,sil2,['-'],,,none,none,,,,go,1,testWhatL3Uns//r2.s2.2.wav,2.0,what,unsyncopated,b,s2,rule,rule,L3,m,1.3224,5.0,0.0,0.6916,2.0,2.0,Castellano,0.0,Inglés,6.0,2.0,2.0,yes,no,yes,Flauta dulce,6,,,"En el ejercicio de detectar la sílabas del primer lenguaje he tenido dificultades al comienzo porque pensaba que era únicamente de una sílaba todo el tiempo y me he centrado en escuchar esa, por tanto, no me he dado cuenta pasado un rato que las sílabas ha identificar cambiaban cada cierto tiempo. A pesar de eso al comienzo el resto del experimento ha ido bien.",61.0,yes
42,2024-02-04_19h09.49.921,Unsyncopated_study2,s101,23.0,feminino,right,España,Castellano,Master degree,no,no,B,1,conjunction_un,L2,unsyncopated,s2,r2,42,Online_conjL2_un//a.go.du7.none.none.wav,to,ñi,su,sil,fe,si,ñu,sil1,ra,cha,sil2,['-'],,,none,none,,,,go,1,testWhatL3Uns//dep_viol.r1.s1.0.wav,2.0,what,unsyncopated,a,s1,no_rule,dep,L3,m,1.2477,3.0,1.0,2.2892,2.0,2.0,Castellano,0.0,Inglés,6.0,2.0,2.0,yes,no,yes,Flauta dulce,6,,,"En el ejercicio de detectar la sílabas del primer lenguaje he tenido dificultades al comienzo porque pensaba que era únicamente de una sílaba todo el tiempo y me he centrado en escuchar esa, por tanto, no me he dado cuenta pasado un rato que las sílabas ha identificar cambiaban cada cierto tiempo. A pesar de eso al comienzo el resto del experimento ha ido bien.",61.0,yes
43,2024-02-04_19h09.49.921,Unsyncopated_study2,s101,23.0,feminino,right,España,Castellano,Master degree,no,no,B,1,conjunction_un,L2,unsyncopated,s1,r2,43,Online_conjL2_un//a.go.du5.none.none.wav,fe,bi,me,sil,ra,to,si,sil1,ñi,ñu,sil2,['false alarm'],[2.4046000001429775],[2.4046000001429775],none,none,,,"[""space""]",go,1,testWhatL3Uns//r2.s1.0.wav,2.0,what,unsyncopated,b,s1,rule,rule,L3,z,0.6321,5.0,1.0,1.3392,2.0,2.0,Castellano,0.0,Inglés,6.0,2.0,2.0,yes,no,yes,Flauta dulce,6,,,"En el ejercicio de detectar la sílabas del primer lenguaje he tenido dificultades al comienzo porque pensaba que era únicamente de una sílaba todo el tiempo y me he centrado en escuchar esa, por tanto, no me he dado cuenta pasado un rato que las sílabas ha identificar cambiaban cada cierto tiempo. A pesar de eso al comienzo el resto del experimento ha ido bien.",61.0,yes
44,2024-02-04_19h09.49.921,Unsyncopated_study2,s101,23.0,feminino,right,España,Castellano,Master degree,no,no,B,1,conjunction_un,L2,unsyncopated,s1,r2,44,Online_conjL2_un//b.fe.ra14.0.888.wav,fe,si,ñu,sil,ra,mi,to,sil1,me,bi,sil2,['catch'],[1.5230999999046162],[1.5230999999046162],0.888,beat,0.6350999999046162,0.6350999999046162,"[""space""]",ra,2,testWhatL3Uns//r2.s1.1.wav,2.0,what,unsyncopated,b,s1,rule,rule,L3,z,1.0139,3.0,1.0,0.8326,2.0,2.0,Castellano,0.0,Inglés,6.0,2.0,2.0,yes,no,yes,Flauta dulce,6,,,"En el ejercicio de detectar la sílabas del primer lenguaje he tenido dificultades al comienzo porque pensaba que era únicamente de una sílaba todo el tiempo y me he centrado en escuchar esa, por tanto, no me he dado cuenta pasado un rato que las sílabas ha identificar cambiaban cada cierto tiempo. A pesar de eso al comienzo el resto del experimento ha ido bien.",61.0,yes
45,2024-02-04_19h09.49.921,Unsyncopated_study2,s101,23.0,feminino,right,España,Castellano,Master degree,no,no,B,1,conjunction_un,L2,unsyncopated,s1,r1,45,Online_conjL2_un//b.fe.ra12.none.none.wav,go,ñi,ba,sil,du,me,si,sil1,cha,to,sil2,['-'],,,none,none,,,,ra,2,testWhatL3Uns//time_viol.r1.s1.0.wav,2.0,what,unsyncopated,a,s1,no_rule,time,L3,m,0.3395,7.0,1.0,0.4167,2.0,2.0,Castellano,0.0,Inglés,6.0,2.0,2.0,yes,no,yes,Flauta dulce,6,,,"En el ejercicio de detectar la sílabas del primer lenguaje he tenido dificultades al comienzo porque pensaba que era únicamente de una sílaba todo el tiempo y me he centrado en escuchar esa, por tanto, no me he dado cuenta pasado un rato que las sílabas ha identificar cambiaban cada cierto tiempo. A pesar de eso al comienzo el resto del experimento ha ido bien.",61.0,yes
46,2024-02-04_19h09.49.921,Unsyncopated_study2,s101,23.0,feminino,right,España,Castellano,Master degree,no,no,B,1,conjunction_un,L2,unsyncopated,s2,r2,46,Online_conjL2_un//b.fe.ra15.888.1776.wav,si,me,to,sil,fe,su,ba,sil1,ra,bi,sil2,['catch'],[2.6382999999523236],[2.6382999999523236],1.776,beat,0.8622999999523235,0.8622999999523235,"[""space""]",ra,2,testWhatL3Uns//r1.s2.0.wav,2.0,what,unsyncopated,a,s2,rule,rule,L3,m,0.5558,6.0,0.0,0.5186,2.0,2.0,Castellano,0.0,Inglés,6.0,2.0,2.0,yes,no,yes,Flauta dulce,6,,,"En el ejercicio de detectar la sílabas del primer lenguaje he tenido dificultades al comienzo porque pensaba que era únicamente de una sílaba todo el tiempo y me he centrado en escuchar esa, por tanto, no me he dado cuenta pasado un rato que las sílabas ha identificar cambiaban cada cierto tiempo. A pesar de eso al comienzo el resto del experimento ha ido bien.",61.0,yes
47,2024-02-04_19h09.49.921,Unsyncopated_study2,s101,23.0,feminino,right,España,Castellano,Master degree,no,no,B,1,conjunction_un,L2,unsyncopated,s2,r1,47,Online_conjL2_un//b.fe.ra13.none.none.wav,ñu,bi,su,sil,go,mi,ba,sil1,du,cha,sil2,['-'],,,none,none,,,,ra,2,testWhatL3Uns//cat_viol.r2.s1.0.wav,2.0,what,unsyncopated,b,s1,no_rule,cat,L3,m,0.6736,7.0,1.0,0.4683,2.0,2.0,Castellano,0.0,Inglés,6.0,2.0,2.0,yes,no,yes,Flauta dulce,6,,,"En el ejercicio de detectar la sílabas del primer lenguaje he tenido dificultades al comienzo porque pensaba que era únicamente de una sílaba todo el tiempo y me he centrado en escuchar esa, por tanto, no me he dado cuenta pasado un rato que las sílabas ha identificar cambiaban cada cierto tiempo. A pesar de eso al comienzo el resto del experimento ha ido bien.",61.0,yes
48,2024-02-04_19h09.49.921,Unsyncopated_study2,s101,23.0,feminino,right,España,Castellano,Master degree,no,no,B,1,conjunction_un,L2,unsyncopated,s1,r1,48,Online_conjL2_un//b.fe.ra7.none.none.wav,go,ñu,si,sil,du,me,ñi,sil1,te,ba,sil2,['-'],,,none,none,,,,ra,2,testWhenL4Uns//time_viol.r2.s1.0.wav,3.0,when,unsyncopated,b,s1,no_rule,time,L4,z,1.6151,7.0,1.0,0.598,2.0,2.0,Castellano,0.0,Inglés,6.0,2.0,2.0,yes,no,yes,Flauta dulce,6,,,"En el ejercicio de detectar la sílabas del primer lenguaje he tenido dificultades al comienzo porque pensaba que era únicamente de una sílaba todo el tiempo y me he centrado en escuchar esa, por tanto, no me he dado cuenta pasado un rato que las sílabas ha identificar cambiaban cada cierto tiempo. A pesar de eso al comienzo el resto del experimento ha ido bien.",61.0,yes
49,2024-02-04_19h09.49.921,Unsyncopated_study2,s101,23.0,feminino,right,España,Castellano,Master degree,no,no,B,1,conjunction_un,L2,unsyncopated,s2,r2,49,Online_conjL2_un//b.fe.ra4.888.1776.wav,bi,ñi,to,sil,fe,me,ba,sil1,ra,cha,sil2,['catch'],[2.3545999999046217],[2.3545999999046217],1.776,beat,0.5785999999046216,0.5785999999046216,"[""space""]",ra,2,testWhenL4Uns//dep_viol.r1.s1.0.wav,3.0,when,unsyncopated,a,s1,no_rule,dep,L4,m,3.3978,3.0,0.0,0.5854,2.0,2.0,Castellano,0.0,Inglés,6.0,2.0,2.0,yes,no,yes,Flauta dulce,6,,,"En el ejercicio de detectar la sílabas del primer lenguaje he tenido dificultades al comienzo porque pensaba que era únicamente de una sílaba todo el tiempo y me he centrado en escuchar esa, por tanto, no me he dado cuenta pasado un rato que las sílabas ha identificar cambiaban cada cierto tiempo. A pesar de eso al comienzo el resto del experimento ha ido bien.",61.0,yes
50,2024-02-04_19h09.49.921,Unsyncopated_study2,s101,23.0,feminino,right,España,Castellano,Master degree,no,no,B,1,conjunction_un,L2,unsyncopated,s1,r2,50,Online_conjL2_un//b.fe.ra6.0.888.wav,fe,me,ñu,sil,ra,ñi,mi,sil1,to,bi,sil2,['catch'],[1.776099999904659],[1.776099999904659],0.888,beat,0.8880999999046589,0.8880999999046589,"[""space""]",ra,2,testWhenL4Uns//cat_viol.r2.s1.0.wav,3.0,when,unsyncopated,b,s1,no_rule,cat,L4,m,0.6319,6.0,0.0,0.7574,2.0,2.0,Castellano,0.0,Inglés,6.0,2.0,2.0,yes,no,yes,Flauta dulce,6,,,"En el ejercicio de detectar la sílabas del primer lenguaje he tenido dificultades al comienzo porque pensaba que era únicamente de una sílaba todo el tiempo y me he centrado en escuchar esa, por tanto, no me he dado cuenta pasado un rato que las sílabas ha identificar cambiaban cada cierto tiempo. A pesar de eso al comienzo el resto del experimento ha ido bien.",61.0,yes
51,2024-02-04_19h09.49.921,Unsyncopated_study2,s101,23.0,feminino,right,España,Castellano,Master degree,no,no,B,1,conjunction_un,L2,unsyncopated,s2,r1,51,Online_conjL2_un//b.fe.ra5.none.none.wav,cha,si,su,sil,go,bi,mi,sil1,du,ñu,sil2,['-'],,,none,none,,,,ra,2,testWhenL4Uns//r2.s2.0.wav,3.0,when,unsyncopated,b,s2,rule,rule,L4,m,1.2363,5.0,0.0,0.9156,2.0,2.0,Castellano,0.0,Inglés,6.0,2.0,2.0,yes,no,yes,Flauta dulce,6,,,"En el ejercicio de detectar la sílabas del primer lenguaje he tenido dificultades al comienzo porque pensaba que era únicamente de una sílaba todo el tiempo y me he centrado en escuchar esa, por tanto, no me he dado cuenta pasado un rato que las sílabas ha identificar cambiaban cada cierto tiempo. A pesar de eso al comienzo el resto del experimento ha ido bien.",61.0,yes
52,2024-02-04_19h09.49.921,Unsyncopated_study2,s101,23.0,feminino,right,España,Castellano,Master degree,no,no,B,1,conjunction_un,L2,unsyncopated,s2,r2,52,Online_conjL2_un//d.si.ñu3.none.none.wav,to,ba,te,sil,fe,cha,bi,sil1,ra,me,sil2,['-'],,,none,none,,,,ñu,4,testWhenL4Uns//dep_viol.r2.s2.0.wav,3.0,when,unsyncopated,b,s2,no_rule,dep,L4,z,1.9401,5.0,1.0,0.8821,2.0,2.0,Castellano,0.0,Inglés,6.0,2.0,2.0,yes,no,yes,Flauta dulce,6,,,"En el ejercicio de detectar la sílabas del primer lenguaje he tenido dificultades al comienzo porque pensaba que era únicamente de una sílaba todo el tiempo y me he centrado en escuchar esa, por tanto, no me he dado cuenta pasado un rato que las sílabas ha identificar cambiaban cada cierto tiempo. A pesar de eso al comienzo el resto del experimento ha ido bien.",61.0,yes
53,2024-02-04_19h09.49.921,Unsyncopated_study2,s101,23.0,feminino,right,España,Castellano,Master degree,no,no,B,1,conjunction_un,L2,unsyncopated,s1,r2,53,Online_conjL2_un//d.si.ñu1.222.1332.wav,fe,si,ba,sil,ra,su,ñu,sil1,ñi,me,sil2,['catch'],[2.1053000001907094],[2.1053000001907094],1.332,no_beat,0.7733000001907093,0.7733000001907093,"[""space""]",ñu,4,testWhenL4Uns//r2.s1.0.wav,3.0,when,unsyncopated,b,s1,rule,rule,L4,m,0.7252,7.0,0.0,0.9422,2.0,2.0,Castellano,0.0,Inglés,6.0,2.0,2.0,yes,no,yes,Flauta dulce,6,,,"En el ejercicio de detectar la sílabas del primer lenguaje he tenido dificultades al comienzo porque pensaba que era únicamente de una sílaba todo el tiempo y me he centrado en escuchar esa, por tanto, no me he dado cuenta pasado un rato que las sílabas ha identificar cambiaban cada cierto tiempo. A pesar de eso al comienzo el resto del experimento ha ido bien.",61.0,yes
54,2024-02-04_19h09.49.921,Unsyncopated_study2,s101,23.0,feminino,right,España,Castellano,Master degree,no,no,B,1,conjunction_un,L2,unsyncopated,s1,r1,54,Online_conjL2_un//d.si.ñu2.1776.444.wav,go,ba,ñu,sil,du,to,su,sil1,si,ñi,sil2,['catch'],[1.0935000000000628],[1.0935000000000628],0.444,no_beat,0.6495000000000628,0.6495000000000628,"[""space""]",ñu,4,testWhenL4Uns//dep_viol.r1.s2.0.wav,3.0,when,unsyncopated,a,s2,no_rule,dep,L4,m,0.4403,7.0,0.0,0.5174,2.0,2.0,Castellano,0.0,Inglés,6.0,2.0,2.0,yes,no,yes,Flauta dulce,6,,,"En el ejercicio de detectar la sílabas del primer lenguaje he tenido dificultades al comienzo porque pensaba que era únicamente de una sílaba todo el tiempo y me he centrado en escuchar esa, por tanto, no me he dado cuenta pasado un rato que las sílabas ha identificar cambiaban cada cierto tiempo. A pesar de eso al comienzo el resto del experimento ha ido bien.",61.0,yes
55,2024-02-04_19h09.49.921,Unsyncopated_study2,s101,23.0,feminino,right,España,Castellano,Master degree,no,no,B,1,conjunction_un,L2,unsyncopated,s1,r1,55,Online_conjL2_un//d.si.ñu0.none.none.wav,go,cha,ba,sil,du,ñi,bi,sil1,su,to,sil2,['-'],,,none,none,,,,ñu,4,testWhenL4Uns//r2.s2.1.wav,3.0,when,unsyncopated,b,s2,rule,rule,L4,z,0.3502,3.0,1.0,1.1317,2.0,2.0,Castellano,0.0,Inglés,6.0,2.0,2.0,yes,no,yes,Flauta dulce,6,,,"En el ejercicio de detectar la sílabas del primer lenguaje he tenido dificultades al comienzo porque pensaba que era únicamente de una sílaba todo el tiempo y me he centrado en escuchar esa, por tanto, no me he dado cuenta pasado un rato que las sílabas ha identificar cambiaban cada cierto tiempo. A pesar de eso al comienzo el resto del experimento ha ido bien.",61.0,yes
56,2024-02-04_19h09.49.921,Unsyncopated_study2,s101,23.0,feminino,right,España,Castellano,Master degree,no,no,B,1,conjunction_un,L2,unsyncopated,s1,r1,56,Online_conjL2_un//b.fe.ra1.none.none.wav,go,te,su,sil,du,mi,ba,sil1,si,me,sil2,['-'],,,none,none,,,,ra,2,testWhenL4Uns//dep_viol.r2.s1.0.wav,3.0,when,unsyncopated,b,s1,no_rule,dep,L4,m,0.3584,6.0,0.0,0.5358,2.0,2.0,Castellano,0.0,Inglés,6.0,2.0,2.0,yes,no,yes,Flauta dulce,6,,,"En el ejercicio de detectar la sílabas del primer lenguaje he tenido dificultades al comienzo porque pensaba que era únicamente de una sílaba todo el tiempo y me he centrado en escuchar esa, por tanto, no me he dado cuenta pasado un rato que las sílabas ha identificar cambiaban cada cierto tiempo. A pesar de eso al comienzo el resto del experimento ha ido bien.",61.0,yes
57,2024-02-04_19h09.49.921,Unsyncopated_study2,s101,23.0,feminino,right,España,Castellano,Master degree,no,no,B,1,conjunction_un,L2,unsyncopated,s2,r2,57,Online_conjL2_un//b.fe.ra2.888.1776.wav,bi,te,mi,sil,fe,ñu,si,sil1,ra,ba,sil2,['catch'],[2.4181000001429993],[2.4181000001429993],1.776,beat,0.6421000001429993,0.6421000001429993,"[""space""]",ra,2,testWhenL4Uns//cat_viol.r1.s2.0.wav,3.0,when,unsyncopated,a,s2,no_rule,cat,L4,m,0.7088,6.0,0.0,0.9071,2.0,2.0,Castellano,0.0,Inglés,6.0,2.0,2.0,yes,no,yes,Flauta dulce,6,,,"En el ejercicio de detectar la sílabas del primer lenguaje he tenido dificultades al comienzo porque pensaba que era únicamente de una sílaba todo el tiempo y me he centrado en escuchar esa, por tanto, no me he dado cuenta pasado un rato que las sílabas ha identificar cambiaban cada cierto tiempo. A pesar de eso al comienzo el resto del experimento ha ido bien.",61.0,yes
58,2024-02-04_19h09.49.921,Unsyncopated_study2,s101,23.0,feminino,right,España,Castellano,Master degree,no,no,B,1,conjunction_un,L2,unsyncopated,s2,r2,58,Online_conjL2_un//b.fe.ra0.888.1776.wav,ñi,mi,si,sil,fe,to,ñu,sil1,ra,ba,sil2,['catch'],[2.4085000000000036],[2.4085000000000036],1.776,beat,0.6325000000000036,0.6325000000000036,"[""space""]",ra,2,testWhenL4Uns//time_viol.r1.s2.0.wav,3.0,when,unsyncopated,a,s2,no_rule,time,L4,m,1.4651,5.0,0.0,0.5486,2.0,2.0,Castellano,0.0,Inglés,6.0,2.0,2.0,yes,no,yes,Flauta dulce,6,,,"En el ejercicio de detectar la sílabas del primer lenguaje he tenido dificultades al comienzo porque pensaba que era únicamente de una sílaba todo el tiempo y me he centrado en escuchar esa, por tanto, no me he dado cuenta pasado un rato que las sílabas ha identificar cambiaban cada cierto tiempo. A pesar de eso al comienzo el resto del experimento ha ido bien.",61.0,yes
59,2024-02-04_19h09.49.921,Unsyncopated_study2,s101,23.0,feminino,right,España,Castellano,Master degree,no,no,B,1,conjunction_un,L2,unsyncopated,s1,r1,59,Online_conjL2_un//b.fe.ra3.none.none.wav,go,bi,to,sil,du,me,ba,sil1,su,ñi,sil2,['-'],,,none,none,,,,ra,2,testWhenL4Uns//time_viol.r2.s2.0.wav,3.0,when,unsyncopated,b,s2,no_rule,time,L4,m,0.9005,5.0,0.0,0.7683,2.0,2.0,Castellano,0.0,Inglés,6.0,2.0,2.0,yes,no,yes,Flauta dulce,6,,,"En el ejercicio de detectar la sílabas del primer lenguaje he tenido dificultades al comienzo porque pensaba que era únicamente de una sílaba todo el tiempo y me he centrado en escuchar esa, por tanto, no me he dado cuenta pasado un rato que las sílabas ha identificar cambiaban cada cierto tiempo. A pesar de eso al comienzo el resto del experimento ha ido bien.",61.0,yes
60,2024-02-04_19h09.49.921,Unsyncopated_study2,s101,23.0,feminino,right,España,Castellano,Master degree,no,no,B,1,conjunction_un,L2,unsyncopated,s2,r1,60,Online_conjL2_un//a.go.du27.888.1776.wav,ñu,ba,bi,sil,go,si,mi,sil1,du,te,sil2,['catch'],[1.6287000000476155],[1.6287000000476155],0.888,beat,0.7407000000476155,0.7407000000476155,"[""space""]",go,1,testWhenL4Uns//r2.s1.2.wav,3.0,when,unsyncopated,b,s1,rule,rule,L4,m,0.5653,5.0,0.0,0.3749,2.0,2.0,Castellano,0.0,Inglés,6.0,2.0,2.0,yes,no,yes,Flauta dulce,6,,,"En el ejercicio de detectar la sílabas del primer lenguaje he tenido dificultades al comienzo porque pensaba que era únicamente de una sílaba todo el tiempo y me he centrado en escuchar esa, por tanto, no me he dado cuenta pasado un rato que las sílabas ha identificar cambiaban cada cierto tiempo. A pesar de eso al comienzo el resto del experimento ha ido bien.",61.0,yes
61,2024-02-04_19h09.49.921,Unsyncopated_study2,s101,23.0,feminino,right,España,Castellano,Master degree,no,no,B,1,conjunction_un,L2,unsyncopated,s2,r2,61,Online_conjL2_un//a.go.du25.none.none.wav,mi,ñu,ba,sil,fe,bi,to,sil1,ra,si,sil2,['-'],,,none,none,,,,go,1,testWhenL4Uns//r2.s1.1.wav,3.0,when,unsyncopated,b,s1,rule,rule,L4,z,0.9041,6.0,1.0,1.2481,2.0,2.0,Castellano,0.0,Inglés,6.0,2.0,2.0,yes,no,yes,Flauta dulce,6,,,"En el ejercicio de detectar la sílabas del primer lenguaje he tenido dificultades al comienzo porque pensaba que era únicamente de una sílaba todo el tiempo y me he centrado en escuchar esa, por tanto, no me he dado cuenta pasado un rato que las sílabas ha identificar cambiaban cada cierto tiempo. A pesar de eso al comienzo el resto del experimento ha ido bien.",61.0,yes
62,2024-02-04_19h09.49.921,Unsyncopated_study2,s101,23.0,feminino,right,España,Castellano,Master degree,no,no,B,1,conjunction_un,L2,unsyncopated,s2,r2,62,Online_conjL2_un//a.go.du26.none.none.wav,mi,bi,ñi,sil,fe,cha,te,sil1,ra,su,sil2,['-'],,,none,none,,,,go,1,testWhenL4Uns//cat_viol.r1.s1.0.wav,3.0,when,unsyncopated,a,s1,no_rule,cat,L4,m,0.5187,4.0,0.0,1.1763,2.0,2.0,Castellano,0.0,Inglés,6.0,2.0,2.0,yes,no,yes,Flauta dulce,6,,,"En el ejercicio de detectar la sílabas del primer lenguaje he tenido dificultades al comienzo porque pensaba que era únicamente de una sílaba todo el tiempo y me he centrado en escuchar esa, por tanto, no me he dado cuenta pasado un rato que las sílabas ha identificar cambiaban cada cierto tiempo. A pesar de eso al comienzo el resto del experimento ha ido bien.",61.0,yes
63,2024-02-04_19h09.49.921,Unsyncopated_study2,s101,23.0,feminino,right,España,Castellano,Master degree,no,no,B,1,conjunction_un,L2,unsyncopated,s1,r1,63,Online_conjL2_un//a.go.du24.0.888.wav,go,si,bi,sil,du,to,me,sil1,ñi,ba,sil2,['catch'],[0.8620999999046717],[0.8620999999046717],0.0,beat,0.8620999999046717,0.8620999999046717,"[""space""]",go,1,testWhenL4Uns//r1.s1.2.wav,3.0,when,unsyncopated,a,s1,rule,rule,L4,m,0.382,6.0,0.0,1.2066,2.0,2.0,Castellano,0.0,Inglés,6.0,2.0,2.0,yes,no,yes,Flauta dulce,6,,,"En el ejercicio de detectar la sílabas del primer lenguaje he tenido dificultades al comienzo porque pensaba que era únicamente de una sílaba todo el tiempo y me he centrado en escuchar esa, por tanto, no me he dado cuenta pasado un rato que las sílabas ha identificar cambiaban cada cierto tiempo. A pesar de eso al comienzo el resto del experimento ha ido bien.",61.0,yes
64,2024-02-04_19h09.49.921,Unsyncopated_study2,s101,23.0,feminino,right,España,Castellano,Master degree,no,no,B,1,conjunction_un,L2,unsyncopated,s1,r1,64,Online_conjL2_un//c.cha.me13.none.none.wav,go,bi,su,sil,du,si,te,sil1,mi,ñu,sil2,['false alarm'],[2.332499999999982],[2.332499999999982],none,none,,,"[""space""]",me,3,testWhenL4Uns//r1.s1.1.wav,3.0,when,unsyncopated,a,s1,rule,rule,L4,m,0.2915,6.0,0.0,0.7651,2.0,2.0,Castellano,0.0,Inglés,6.0,2.0,2.0,yes,no,yes,Flauta dulce,6,,,"En el ejercicio de detectar la sílabas del primer lenguaje he tenido dificultades al comienzo porque pensaba que era únicamente de una sílaba todo el tiempo y me he centrado en escuchar esa, por tanto, no me he dado cuenta pasado un rato que las sílabas ha identificar cambiaban cada cierto tiempo. A pesar de eso al comienzo el resto del experimento ha ido bien.",61.0,yes
65,2024-02-04_19h09.49.921,Unsyncopated_study2,s101,23.0,feminino,right,España,Castellano,Master degree,no,no,B,1,conjunction_un,L2,unsyncopated,s1,r1,65,Online_conjL2_un//c.cha.me12.1332.222.wav,go,me,si,sil,du,ñu,cha,sil1,ñi,bi,sil2,['catch'],[1.2042000000476492],[1.2042000000476492],0.222,no_beat,0.9822000000476492,0.9822000000476492,"[""space""]",me,3,testWhenL4Uns//r1.s2.2.wav,3.0,when,unsyncopated,a,s2,rule,rule,L4,m,0.6893,6.0,0.0,0.5013,2.0,2.0,Castellano,0.0,Inglés,6.0,2.0,2.0,yes,no,yes,Flauta dulce,6,,,"En el ejercicio de detectar la sílabas del primer lenguaje he tenido dificultades al comienzo porque pensaba que era únicamente de una sílaba todo el tiempo y me he centrado en escuchar esa, por tanto, no me he dado cuenta pasado un rato que las sílabas ha identificar cambiaban cada cierto tiempo. A pesar de eso al comienzo el resto del experimento ha ido bien.",61.0,yes
66,2024-02-04_19h09.49.921,Unsyncopated_study2,s101,23.0,feminino,right,España,Castellano,Master degree,no,no,B,1,conjunction_un,L2,unsyncopated,s2,r1,66,Online_conjL2_un//c.cha.me15.444.1110.wav,mi,ba,cha,sil,go,me,si,sil1,du,te,sil2,['catch'],[1.7430999999046435],[1.7430999999046435],1.11,no_beat,0.6330999999046434,0.6330999999046434,"[""space""]",me,3,testWhenL4Uns//r1.s2.1.wav,3.0,when,unsyncopated,a,s2,rule,rule,L4,m,0.619,3.0,0.0,1.0506,2.0,2.0,Castellano,0.0,Inglés,6.0,2.0,2.0,yes,no,yes,Flauta dulce,6,,,"En el ejercicio de detectar la sílabas del primer lenguaje he tenido dificultades al comienzo porque pensaba que era únicamente de una sílaba todo el tiempo y me he centrado en escuchar esa, por tanto, no me he dado cuenta pasado un rato que las sílabas ha identificar cambiaban cada cierto tiempo. A pesar de eso al comienzo el resto del experimento ha ido bien.",61.0,yes
67,2024-02-04_19h09.49.921,Unsyncopated_study2,s101,23.0,feminino,right,España,Castellano,Master degree,no,no,B,1,conjunction_un,L2,unsyncopated,s1,r2,67,Online_conjL2_un//c.cha.me14.none.none.wav,fe,mi,su,sil,ra,si,ba,sil1,te,ñi,sil2,['-'],,,none,none,,,,me,3,testWhenL4Uns//r1.s1.0.wav,3.0,when,unsyncopated,a,s1,rule,rule,L4,m,0.4328,6.0,0.0,1.4063,2.0,2.0,Castellano,0.0,Inglés,6.0,2.0,2.0,yes,no,yes,Flauta dulce,6,,,"En el ejercicio de detectar la sílabas del primer lenguaje he tenido dificultades al comienzo porque pensaba que era únicamente de una sílaba todo el tiempo y me he centrado en escuchar esa, por tanto, no me he dado cuenta pasado un rato que las sílabas ha identificar cambiaban cada cierto tiempo. A pesar de eso al comienzo el resto del experimento ha ido bien.",61.0,yes
68,2024-02-04_19h09.49.921,Unsyncopated_study2,s101,23.0,feminino,right,España,Castellano,Master degree,no,no,B,1,conjunction_un,L2,unsyncopated,s1,r1,68,Online_conjL2_un//a.go.du29.0.888.wav,go,mi,me,sil,du,to,bi,sil1,cha,ñu,sil2,['catch'],[0.7425000000000637],[0.7425000000000637],0.0,beat,0.7425000000000637,0.7425000000000637,"[""space""]",go,1,testWhenL4Uns//cat_viol.r2.s2.0.wav,3.0,when,unsyncopated,b,s2,no_rule,cat,L4,z,0.5859,4.0,1.0,0.8092,2.0,2.0,Castellano,0.0,Inglés,6.0,2.0,2.0,yes,no,yes,Flauta dulce,6,,,"En el ejercicio de detectar la sílabas del primer lenguaje he tenido dificultades al comienzo porque pensaba que era únicamente de una sílaba todo el tiempo y me he centrado en escuchar esa, por tanto, no me he dado cuenta pasado un rato que las sílabas ha identificar cambiaban cada cierto tiempo. A pesar de eso al comienzo el resto del experimento ha ido bien.",61.0,yes
69,2024-02-04_19h09.49.921,Unsyncopated_study2,s101,23.0,feminino,right,España,Castellano,Master degree,no,no,B,1,conjunction_un,L2,unsyncopated,s1,r2,69,Online_conjL2_un//a.go.du31.none.none.wav,fe,to,ñi,sil,ra,bi,ñu,sil1,su,si,sil2,['-'],,,none,none,,,,go,1,testWhenL4Uns//r1.s2.0.wav,3.0,when,unsyncopated,a,s2,rule,rule,L4,m,1.1431,4.0,0.0,1.0919,2.0,2.0,Castellano,0.0,Inglés,6.0,2.0,2.0,yes,no,yes,Flauta dulce,6,,,"En el ejercicio de detectar la sílabas del primer lenguaje he tenido dificultades al comienzo porque pensaba que era únicamente de una sílaba todo el tiempo y me he centrado en escuchar esa, por tanto, no me he dado cuenta pasado un rato que las sílabas ha identificar cambiaban cada cierto tiempo. A pesar de eso al comienzo el resto del experimento ha ido bien.",61.0,yes
70,2024-02-04_19h09.49.921,Unsyncopated_study2,s101,23.0,feminino,right,España,Castellano,Master degree,no,no,B,1,conjunction_un,L2,unsyncopated,s1,r2,70,Online_conjL2_un//a.go.du30.none.none.wav,fe,cha,si,sil,ra,su,te,sil1,ba,bi,sil2,['-'],,,none,none,,,,go,1,testWhenL4Uns//time_viol.r1.s1.0.wav,3.0,when,unsyncopated,a,s1,no_rule,time,L4,m,0.3524,5.0,0.0,0.65,2.0,2.0,Castellano,0.0,Inglés,6.0,2.0,2.0,yes,no,yes,Flauta dulce,6,,,"En el ejercicio de detectar la sílabas del primer lenguaje he tenido dificultades al comienzo porque pensaba que era únicamente de una sílaba todo el tiempo y me he centrado en escuchar esa, por tanto, no me he dado cuenta pasado un rato que las sílabas ha identificar cambiaban cada cierto tiempo. A pesar de eso al comienzo el resto del experimento ha ido bien.",61.0,yes
71,2024-02-04_19h09.49.921,Unsyncopated_study2,s101,23.0,feminino,right,España,Castellano,Master degree,no,no,B,1,conjunction_un,L2,unsyncopated,s1,r2,71,Online_conjL2_un//a.go.du28.none.none.wav,fe,cha,ba,sil,ra,mi,me,sil1,bi,te,sil2,['-'],,,none,none,,,,go,1,testWhenL4Uns//r2.s2.2.wav,3.0,when,unsyncopated,b,s2,rule,rule,L4,z,0.3153,5.0,1.0,0.7986,2.0,2.0,Castellano,0.0,Inglés,6.0,2.0,2.0,yes,no,yes,Flauta dulce,6,,,"En el ejercicio de detectar la sílabas del primer lenguaje he tenido dificultades al comienzo porque pensaba que era únicamente de una sílaba todo el tiempo y me he centrado en escuchar esa, por tanto, no me he dado cuenta pasado un rato que las sílabas ha identificar cambiaban cada cierto tiempo. A pesar de eso al comienzo el resto del experimento ha ido bien.",61.0,yes
72,2024-02-04_19h09.49.921,Unsyncopated_study2,s101,23.0,feminino,right,España,Castellano,Master degree,no,no,B,1,conjunction_un,L2,unsyncopated,s2,r1,72,Online_conjL2_un//d.si.ñu8.0.222.wav,si,ñu,bi,sil,go,me,to,sil1,du,ba,sil2,['catch'],[0.9044000000953929],[0.9044000000953929],0.222,no_beat,0.6824000000953929,0.6824000000953929,"[""space""]",ñu,4,testConjL1Syn//r2.s2.2.wav,4.0,conjunction_syn,syncopated,b,s2,rule,rule,L1,z,1.8825,5.0,1.0,1.2157,2.0,2.0,Castellano,0.0,Inglés,6.0,2.0,2.0,yes,no,yes,Flauta dulce,6,,,"En el ejercicio de detectar la sílabas del primer lenguaje he tenido dificultades al comienzo porque pensaba que era únicamente de una sílaba todo el tiempo y me he centrado en escuchar esa, por tanto, no me he dado cuenta pasado un rato que las sílabas ha identificar cambiaban cada cierto tiempo. A pesar de eso al comienzo el resto del experimento ha ido bien.",61.0,yes
73,2024-02-04_19h09.49.921,Unsyncopated_study2,s101,23.0,feminino,right,España,Castellano,Master degree,no,no,B,1,conjunction_un,L2,unsyncopated,s2,r2,73,Online_conjL2_un//d.si.ñu9.none.none.wav,bi,cha,to,sil,fe,te,ba,sil1,ra,me,sil2,['-'],,,none,none,,,,ñu,4,testConjL1Syn//cat_viol.r1.s2.0.wav,4.0,conjunction_syn,syncopated,a,s2,no_rule,cat,L1,m,0.351,7.0,1.0,1.265,2.0,2.0,Castellano,0.0,Inglés,6.0,2.0,2.0,yes,no,yes,Flauta dulce,6,,,"En el ejercicio de detectar la sílabas del primer lenguaje he tenido dificultades al comienzo porque pensaba que era únicamente de una sílaba todo el tiempo y me he centrado en escuchar esa, por tanto, no me he dado cuenta pasado un rato que las sílabas ha identificar cambiaban cada cierto tiempo. A pesar de eso al comienzo el resto del experimento ha ido bien.",61.0,yes
74,2024-02-04_19h09.49.921,Unsyncopated_study2,s101,23.0,feminino,right,España,Castellano,Master degree,no,no,B,1,conjunction_un,L2,unsyncopated,s2,r1,74,Online_conjL2_un//d.si.ñu11.none.none.wav,ba,to,bi,sil,go,mi,te,sil1,du,su,sil2,['false alarm'],[2.4723999998568615],[2.4723999998568615],none,none,,,"[""space""]",ñu,4,testConjL1Syn//cat_viol.r2.s2.0.wav,4.0,conjunction_syn,syncopated,b,s2,no_rule,cat,L1,m,0.4405,7.0,1.0,0.3157,2.0,2.0,Castellano,0.0,Inglés,6.0,2.0,2.0,yes,no,yes,Flauta dulce,6,,,"En el ejercicio de detectar la sílabas del primer lenguaje he tenido dificultades al comienzo porque pensaba que era únicamente de una sílaba todo el tiempo y me he centrado en escuchar esa, por tanto, no me he dado cuenta pasado un rato que las sílabas ha identificar cambiaban cada cierto tiempo. A pesar de eso al comienzo el resto del experimento ha ido bien.",61.0,yes
75,2024-02-04_19h09.49.921,Unsyncopated_study2,s101,23.0,feminino,right,España,Castellano,Master degree,no,no,B,1,conjunction_un,L2,unsyncopated,s1,r2,75,Online_conjL2_un//d.si.ñu10.none.none.wav,fe,ba,bi,sil,ra,te,mi,sil1,me,to,sil2,['-'],,,none,none,,,,ñu,4,testConjL1Syn//r1.s1.1.wav,4.0,conjunction_syn,syncopated,a,s1,rule,rule,L1,m,3.0358,2.0,0.0,1.3317,2.0,2.0,Castellano,0.0,Inglés,6.0,2.0,2.0,yes,no,yes,Flauta dulce,6,,,"En el ejercicio de detectar la sílabas del primer lenguaje he tenido dificultades al comienzo porque pensaba que era únicamente de una sílaba todo el tiempo y me he centrado en escuchar esa, por tanto, no me he dado cuenta pasado un rato que las sílabas ha identificar cambiaban cada cierto tiempo. A pesar de eso al comienzo el resto del experimento ha ido bien.",61.0,yes
76,2024-02-04_19h09.49.921,Unsyncopated_study2,s101,23.0,feminino,right,España,Castellano,Master degree,no,no,B,1,conjunction_un,L2,unsyncopated,s1,r1,76,Online_conjL2_un//a.go.du1.0.888.wav,go,bi,si,sil,du,ñu,ba,sil1,mi,cha,sil2,['catch'],[0.6707999999523508],[0.6707999999523508],0.0,beat,0.6707999999523508,0.6707999999523508,"[""space""]",go,1,testConjL1Syn//r2.s2.0.wav,4.0,conjunction_syn,syncopated,b,s2,rule,rule,L1,m,0.6684,6.0,0.0,0.4429,2.0,2.0,Castellano,0.0,Inglés,6.0,2.0,2.0,yes,no,yes,Flauta dulce,6,,,"En el ejercicio de detectar la sílabas del primer lenguaje he tenido dificultades al comienzo porque pensaba que era únicamente de una sílaba todo el tiempo y me he centrado en escuchar esa, por tanto, no me he dado cuenta pasado un rato que las sílabas ha identificar cambiaban cada cierto tiempo. A pesar de eso al comienzo el resto del experimento ha ido bien.",61.0,yes
77,2024-02-04_19h09.49.921,Unsyncopated_study2,s101,23.0,feminino,right,España,Castellano,Master degree,no,no,B,1,conjunction_un,L2,unsyncopated,s2,r1,77,Online_conjL2_un//a.go.du2.888.1776.wav,si,me,to,sil,go,bi,te,sil1,du,cha,sil2,['catch'],[1.512099999904649],[1.512099999904649],0.888,beat,0.6240999999046489,0.6240999999046489,"[""space""]",go,1,testConjL1Syn//r1.s2.0.wav,4.0,conjunction_syn,syncopated,a,s2,rule,rule,L1,z,0.4488,5.0,1.0,1.5717,2.0,2.0,Castellano,0.0,Inglés,6.0,2.0,2.0,yes,no,yes,Flauta dulce,6,,,"En el ejercicio de detectar la sílabas del primer lenguaje he tenido dificultades al comienzo porque pensaba que era únicamente de una sílaba todo el tiempo y me he centrado en escuchar esa, por tanto, no me he dado cuenta pasado un rato que las sílabas ha identificar cambiaban cada cierto tiempo. A pesar de eso al comienzo el resto del experimento ha ido bien.",61.0,yes
78,2024-02-04_19h09.49.921,Unsyncopated_study2,s101,23.0,feminino,right,España,Castellano,Master degree,no,no,B,1,conjunction_un,L2,unsyncopated,s1,r2,78,Online_conjL2_un//a.go.du0.none.none.wav,fe,ñu,ba,sil,ra,mi,cha,sil1,bi,si,sil2,['-'],,,none,none,,,,go,1,testConjL1Syn//dep_viol.r2.s1.0.wav,4.0,conjunction_syn,syncopated,b,s1,no_rule,dep,L1,m,0.4153,5.0,1.0,1.4026,2.0,2.0,Castellano,0.0,Inglés,6.0,2.0,2.0,yes,no,yes,Flauta dulce,6,,,"En el ejercicio de detectar la sílabas del primer lenguaje he tenido dificultades al comienzo porque pensaba que era únicamente de una sílaba todo el tiempo y me he centrado en escuchar esa, por tanto, no me he dado cuenta pasado un rato que las sílabas ha identificar cambiaban cada cierto tiempo. A pesar de eso al comienzo el resto del experimento ha ido bien.",61.0,yes
79,2024-02-04_19h09.49.921,Unsyncopated_study2,s101,23.0,feminino,right,España,Castellano,Master degree,no,no,B,1,conjunction_un,L2,unsyncopated,s2,r2,79,Online_conjL2_un//a.go.du3.none.none.wav,te,bi,su,sil,fe,me,ñi,sil1,ra,si,sil2,['-'],,,none,none,,,,go,1,testConjL1Syn//dep_viol.r1.s2.0.wav,4.0,conjunction_syn,syncopated,a,s2,no_rule,dep,L1,m,1.0148,5.0,1.0,1.3934,2.0,2.0,Castellano,0.0,Inglés,6.0,2.0,2.0,yes,no,yes,Flauta dulce,6,,,"En el ejercicio de detectar la sílabas del primer lenguaje he tenido dificultades al comienzo porque pensaba que era únicamente de una sílaba todo el tiempo y me he centrado en escuchar esa, por tanto, no me he dado cuenta pasado un rato que las sílabas ha identificar cambiaban cada cierto tiempo. A pesar de eso al comienzo el resto del experimento ha ido bien.",61.0,yes
80,2024-02-04_19h09.49.921,Unsyncopated_study2,s101,23.0,feminino,right,España,Castellano,Master degree,no,no,B,1,conjunction_un,L2,unsyncopated,s2,r2,80,Online_conjL2_un//c.cha.me23.222.444.wav,su,cha,me,sil,fe,mi,to,sil1,ra,ñu,sil2,['catch'],[1.19529999995234],[1.19529999995234],0.444,no_beat,0.75129999995234,0.75129999995234,"[""space""]",me,3,testConjL1Syn//cat_viol.r2.s1.0.wav,4.0,conjunction_syn,syncopated,b,s1,no_rule,cat,L1,m,3.121,4.0,1.0,0.7823,2.0,2.0,Castellano,0.0,Inglés,6.0,2.0,2.0,yes,no,yes,Flauta dulce,6,,,"En el ejercicio de detectar la sílabas del primer lenguaje he tenido dificultades al comienzo porque pensaba que era únicamente de una sílaba todo el tiempo y me he centrado en escuchar esa, por tanto, no me he dado cuenta pasado un rato que las sílabas ha identificar cambiaban cada cierto tiempo. A pesar de eso al comienzo el resto del experimento ha ido bien.",61.0,yes
81,2024-02-04_19h09.49.921,Unsyncopated_study2,s101,23.0,feminino,right,España,Castellano,Master degree,no,no,B,1,conjunction_un,L2,unsyncopated,s1,r2,81,Online_conjL2_un//c.cha.me21.1332.444.wav,fe,su,me,sil,ra,si,cha,sil1,ñi,ba,sil2,['catch'],[1.3519000000953838],[1.3519000000953838],0.444,no_beat,0.907900000095384,0.907900000095384,"[""space""]",me,3,testConjL1Syn//r2.s1.2.wav,4.0,conjunction_syn,syncopated,b,s1,rule,rule,L1,z,0.7743,6.0,1.0,0.8819,2.0,2.0,Castellano,0.0,Inglés,6.0,2.0,2.0,yes,no,yes,Flauta dulce,6,,,"En el ejercicio de detectar la sílabas del primer lenguaje he tenido dificultades al comienzo porque pensaba que era únicamente de una sílaba todo el tiempo y me he centrado en escuchar esa, por tanto, no me he dado cuenta pasado un rato que las sílabas ha identificar cambiaban cada cierto tiempo. A pesar de eso al comienzo el resto del experimento ha ido bien.",61.0,yes
82,2024-02-04_19h09.49.921,Unsyncopated_study2,s101,23.0,feminino,right,España,Castellano,Master degree,no,no,B,1,conjunction_un,L2,unsyncopated,s2,r1,82,Online_conjL2_un//c.cha.me20.none.none.wav,ñu,su,ñi,sil,go,to,si,sil1,du,ba,sil2,['-'],,,none,none,,,,me,3,testConjL1Syn//r2.s1.0.wav,4.0,conjunction_syn,syncopated,b,s1,rule,rule,L1,z,1.5158,4.0,1.0,0.6651,2.0,2.0,Castellano,0.0,Inglés,6.0,2.0,2.0,yes,no,yes,Flauta dulce,6,,,"En el ejercicio de detectar la sílabas del primer lenguaje he tenido dificultades al comienzo porque pensaba que era únicamente de una sílaba todo el tiempo y me he centrado en escuchar esa, por tanto, no me he dado cuenta pasado un rato que las sílabas ha identificar cambiaban cada cierto tiempo. A pesar de eso al comienzo el resto del experimento ha ido bien.",61.0,yes
83,2024-02-04_19h09.49.921,Unsyncopated_study2,s101,23.0,feminino,right,España,Castellano,Master degree,no,no,B,1,conjunction_un,L2,unsyncopated,s1,r1,83,Online_conjL2_un//c.cha.me22.222.444.wav,go,cha,me,sil,du,ñu,to,sil1,te,su,sil2,['catch'],[1.1272000000477647],[1.1272000000477647],0.444,no_beat,0.6832000000477647,0.6832000000477647,"[""space""]",me,3,testConjL1Syn//time_viol.r1.s1.0.wav,4.0,conjunction_syn,syncopated,a,s1,no_rule,time,L1,m,0.5485,6.0,1.0,0.7366,2.0,2.0,Castellano,0.0,Inglés,6.0,2.0,2.0,yes,no,yes,Flauta dulce,6,,,"En el ejercicio de detectar la sílabas del primer lenguaje he tenido dificultades al comienzo porque pensaba que era únicamente de una sílaba todo el tiempo y me he centrado en escuchar esa, por tanto, no me he dado cuenta pasado un rato que las sílabas ha identificar cambiaban cada cierto tiempo. A pesar de eso al comienzo el resto del experimento ha ido bien.",61.0,yes
84,2024-02-04_19h09.49.921,Unsyncopated_study2,s101,23.0,feminino,right,España,Castellano,Master degree,no,no,B,1,conjunction_un,L2,unsyncopated,s1,r2,84,Online_conjL2_un//d.si.ñu25.none.none.wav,fe,me,ñi,sil,ra,to,mi,sil1,bi,cha,sil2,['false alarm'],[1.0191000001429984],[1.0191000001429984],none,none,,,"[""space""]",ñu,4,testConjL1Syn//r1.s1.0.wav,4.0,conjunction_syn,syncopated,a,s1,rule,rule,L1,z,0.6322,7.0,1.0,0.4497,2.0,2.0,Castellano,0.0,Inglés,6.0,2.0,2.0,yes,no,yes,Flauta dulce,6,,,"En el ejercicio de detectar la sílabas del primer lenguaje he tenido dificultades al comienzo porque pensaba que era únicamente de una sílaba todo el tiempo y me he centrado en escuchar esa, por tanto, no me he dado cuenta pasado un rato que las sílabas ha identificar cambiaban cada cierto tiempo. A pesar de eso al comienzo el resto del experimento ha ido bien.",61.0,yes
85,2024-02-04_19h09.49.921,Unsyncopated_study2,s101,23.0,feminino,right,España,Castellano,Master degree,no,no,B,1,conjunction_un,L2,unsyncopated,s2,r2,85,Online_conjL2_un//d.si.ñu27.1332.0.wav,ñu,bi,to,sil,fe,ba,si,sil1,ra,te,sil2,['catch'],[0.7727999999523263],[0.7727999999523263],0.0,beat,0.7727999999523263,0.7727999999523263,"[""space""]",ñu,4,testConjL1Syn//dep_viol.r1.s1.0.wav,4.0,conjunction_syn,syncopated,a,s1,no_rule,dep,L1,m,0.8819,2.0,1.0,2.898,2.0,2.0,Castellano,0.0,Inglés,6.0,2.0,2.0,yes,no,yes,Flauta dulce,6,,,"En el ejercicio de detectar la sílabas del primer lenguaje he tenido dificultades al comienzo porque pensaba que era únicamente de una sílaba todo el tiempo y me he centrado en escuchar esa, por tanto, no me he dado cuenta pasado un rato que las sílabas ha identificar cambiaban cada cierto tiempo. A pesar de eso al comienzo el resto del experimento ha ido bien.",61.0,yes
86,2024-02-04_19h09.49.921,Unsyncopated_study2,s101,23.0,feminino,right,España,Castellano,Master degree,no,no,B,1,conjunction_un,L2,unsyncopated,s2,r2,86,Online_conjL2_un//d.si.ñu24.0.1110.wav,si,bi,to,sil,fe,ñu,te,sil1,ra,ñi,sil2,['catch'],[2.0130000000000337],[2.0130000000000337],1.11,no_beat,0.9030000000000336,0.9030000000000336,"[""space""]",ñu,4,testConjL1Syn//r1.s2.1.wav,4.0,conjunction_syn,syncopated,a,s2,rule,rule,L1,m,1.9004,3.0,0.0,1.0055,2.0,2.0,Castellano,0.0,Inglés,6.0,2.0,2.0,yes,no,yes,Flauta dulce,6,,,"En el ejercicio de detectar la sílabas del primer lenguaje he tenido dificultades al comienzo porque pensaba que era únicamente de una sílaba todo el tiempo y me he centrado en escuchar esa, por tanto, no me he dado cuenta pasado un rato que las sílabas ha identificar cambiaban cada cierto tiempo. A pesar de eso al comienzo el resto del experimento ha ido bien.",61.0,yes
87,2024-02-04_19h09.49.921,Unsyncopated_study2,s101,23.0,feminino,right,España,Castellano,Master degree,no,no,B,1,conjunction_un,L2,unsyncopated,s1,r2,87,Online_conjL2_un//d.si.ñu26.none.none.wav,fe,bi,to,sil,ra,mi,me,sil1,te,ba,sil2,['-'],,,none,none,,,,ñu,4,testConjL1Syn//r2.s2.1.wav,4.0,conjunction_syn,syncopated,b,s2,rule,rule,L1,m,0.5321,6.0,0.0,0.7022,2.0,2.0,Castellano,0.0,Inglés,6.0,2.0,2.0,yes,no,yes,Flauta dulce,6,,,"En el ejercicio de detectar la sílabas del primer lenguaje he tenido dificultades al comienzo porque pensaba que era únicamente de una sílaba todo el tiempo y me he centrado en escuchar esa, por tanto, no me he dado cuenta pasado un rato que las sílabas ha identificar cambiaban cada cierto tiempo. A pesar de eso al comienzo el resto del experimento ha ido bien.",61.0,yes
88,2024-02-04_19h09.49.921,Unsyncopated_study2,s101,23.0,feminino,right,España,Castellano,Master degree,no,no,B,1,conjunction_un,L2,unsyncopated,s1,r1,88,Online_conjL2_un//d.si.ñu28.none.none.wav,go,me,su,sil,du,te,to,sil1,bi,ba,sil2,['-'],,,none,none,,,,ñu,4,testConjL1Syn//cat_viol.r1.s1.0.wav,4.0,conjunction_syn,syncopated,a,s1,no_rule,cat,L1,z,0.5596,7.0,0.0,0.4413,2.0,2.0,Castellano,0.0,Inglés,6.0,2.0,2.0,yes,no,yes,Flauta dulce,6,,,"En el ejercicio de detectar la sílabas del primer lenguaje he tenido dificultades al comienzo porque pensaba que era únicamente de una sílaba todo el tiempo y me he centrado en escuchar esa, por tanto, no me he dado cuenta pasado un rato que las sílabas ha identificar cambiaban cada cierto tiempo. A pesar de eso al comienzo el resto del experimento ha ido bien.",61.0,yes
89,2024-02-04_19h09.49.921,Unsyncopated_study2,s101,23.0,feminino,right,España,Castellano,Master degree,no,no,B,1,conjunction_un,L2,unsyncopated,s2,r2,89,Online_conjL2_un//d.si.ñu31.none.none.wav,su,ñi,to,sil,fe,me,ba,sil1,ra,te,sil2,['false alarm'],[1.7385999999046362],[1.7385999999046362],none,none,,,"[""space""]",ñu,4,testConjL1Syn//time_viol.r1.s2.0.wav,4.0,conjunction_syn,syncopated,a,s2,no_rule,time,L1,m,0.3489,6.0,1.0,1.1181,2.0,2.0,Castellano,0.0,Inglés,6.0,2.0,2.0,yes,no,yes,Flauta dulce,6,,,"En el ejercicio de detectar la sílabas del primer lenguaje he tenido dificultades al comienzo porque pensaba que era únicamente de una sílaba todo el tiempo y me he centrado en escuchar esa, por tanto, no me he dado cuenta pasado un rato que las sílabas ha identificar cambiaban cada cierto tiempo. A pesar de eso al comienzo el resto del experimento ha ido bien.",61.0,yes
90,2024-02-04_19h09.49.921,Unsyncopated_study2,s101,23.0,feminino,right,España,Castellano,Master degree,no,no,B,1,conjunction_un,L2,unsyncopated,s1,r2,90,Online_conjL2_un//d.si.ñu29.1332.444.wav,fe,mi,ñu,sil,ra,su,si,sil1,ñi,cha,sil2,['catch'],[1.1287000000476155],[1.1287000000476155],0.444,no_beat,0.6847000000476156,0.6847000000476156,"[""space""]",ñu,4,testConjL1Syn//dep_viol.r2.s2.0.wav,4.0,conjunction_syn,syncopated,b,s2,no_rule,dep,L1,m,0.2985,6.0,1.0,1.1889,2.0,2.0,Castellano,0.0,Inglés,6.0,2.0,2.0,yes,no,yes,Flauta dulce,6,,,"En el ejercicio de detectar la sílabas del primer lenguaje he tenido dificultades al comienzo porque pensaba que era únicamente de una sílaba todo el tiempo y me he centrado en escuchar esa, por tanto, no me he dado cuenta pasado un rato que las sílabas ha identificar cambiaban cada cierto tiempo. A pesar de eso al comienzo el resto del experimento ha ido bien.",61.0,yes
91,2024-02-04_19h09.49.921,Unsyncopated_study2,s101,23.0,feminino,right,España,Castellano,Master degree,no,no,B,1,conjunction_un,L2,unsyncopated,s2,r1,91,Online_conjL2_un//d.si.ñu30.1332.222.wav,ba,ñu,ñi,sil,go,mi,si,sil1,du,cha,sil2,['catch'],[1.077599999904578],[1.077599999904578],0.222,no_beat,0.855599999904578,0.855599999904578,"[""space""]",ñu,4,testConjL1Syn//r1.s2.2.wav,4.0,conjunction_syn,syncopated,a,s2,rule,rule,L1,m,0.3013,4.0,0.0,0.6653,2.0,2.0,Castellano,0.0,Inglés,6.0,2.0,2.0,yes,no,yes,Flauta dulce,6,,,"En el ejercicio de detectar la sílabas del primer lenguaje he tenido dificultades al comienzo porque pensaba que era únicamente de una sílaba todo el tiempo y me he centrado en escuchar esa, por tanto, no me he dado cuenta pasado un rato que las sílabas ha identificar cambiaban cada cierto tiempo. A pesar de eso al comienzo el resto del experimento ha ido bien.",61.0,yes
92,2024-02-04_19h09.49.921,Unsyncopated_study2,s101,23.0,feminino,right,España,Castellano,Master degree,no,no,B,1,conjunction_un,L2,unsyncopated,s1,r1,92,Online_conjL2_un//b.fe.ra18.none.none.wav,go,su,bi,sil,du,te,si,sil1,ñu,to,sil2,['-'],,,none,none,,,,ra,2,testConjL1Syn//r1.s1.2.wav,4.0,conjunction_syn,syncopated,a,s1,rule,rule,L1,z,0.6322,6.0,1.0,0.5985,2.0,2.0,Castellano,0.0,Inglés,6.0,2.0,2.0,yes,no,yes,Flauta dulce,6,,,"En el ejercicio de detectar la sílabas del primer lenguaje he tenido dificultades al comienzo porque pensaba que era únicamente de una sílaba todo el tiempo y me he centrado en escuchar esa, por tanto, no me he dado cuenta pasado un rato que las sílabas ha identificar cambiaban cada cierto tiempo. A pesar de eso al comienzo el resto del experimento ha ido bien.",61.0,yes
93,2024-02-04_19h09.49.921,Unsyncopated_study2,s101,23.0,feminino,right,España,Castellano,Master degree,no,no,B,1,conjunction_un,L2,unsyncopated,s1,r2,93,Online_conjL2_un//b.fe.ra16.0.888.wav,fe,ñi,mi,sil,ra,bi,su,sil1,ñu,me,sil2,['miss'],,,0.888,beat,,,,ra,2,testConjL1Syn//r2.s1.1.wav,4.0,conjunction_syn,syncopated,b,s1,rule,rule,L1,z,0.8983,4.0,1.0,0.9093,2.0,2.0,Castellano,0.0,Inglés,6.0,2.0,2.0,yes,no,yes,Flauta dulce,6,,,"En el ejercicio de detectar la sílabas del primer lenguaje he tenido dificultades al comienzo porque pensaba que era únicamente de una sílaba todo el tiempo y me he centrado en escuchar esa, por tanto, no me he dado cuenta pasado un rato que las sílabas ha identificar cambiaban cada cierto tiempo. A pesar de eso al comienzo el resto del experimento ha ido bien.",61.0,yes
94,2024-02-04_19h09.49.921,Unsyncopated_study2,s101,23.0,feminino,right,España,Castellano,Master degree,no,no,B,1,conjunction_un,L2,unsyncopated,s2,r1,94,Online_conjL2_un//b.fe.ra19.none.none.wav,me,mi,to,sil,go,ñu,ñi,sil1,du,ba,sil2,['-'],,,none,none,,,,ra,2,testConjL1Syn//time_viol.r2.s1.0.wav,4.0,conjunction_syn,syncopated,b,s1,no_rule,time,L1,m,0.2881,7.0,1.0,0.3686,2.0,2.0,Castellano,0.0,Inglés,6.0,2.0,2.0,yes,no,yes,Flauta dulce,6,,,"En el ejercicio de detectar la sílabas del primer lenguaje he tenido dificultades al comienzo porque pensaba que era únicamente de una sílaba todo el tiempo y me he centrado en escuchar esa, por tanto, no me he dado cuenta pasado un rato que las sílabas ha identificar cambiaban cada cierto tiempo. A pesar de eso al comienzo el resto del experimento ha ido bien.",61.0,yes
95,2024-02-04_19h09.49.921,Unsyncopated_study2,s101,23.0,feminino,right,España,Castellano,Master degree,no,no,B,1,conjunction_un,L2,unsyncopated,s1,r2,95,Online_conjL2_un//b.fe.ra17.0.888.wav,fe,cha,mi,sil,ra,si,su,sil1,ba,ñi,sil2,['miss'],,,0.888,beat,,,,ra,2,testConjL1Syn//time_viol.r2.s2.0.wav,4.0,conjunction_syn,syncopated,b,s2,no_rule,time,L1,m,0.2884,7.0,1.0,0.3545,2.0,2.0,Castellano,0.0,Inglés,6.0,2.0,2.0,yes,no,yes,Flauta dulce,6,,,"En el ejercicio de detectar la sílabas del primer lenguaje he tenido dificultades al comienzo porque pensaba que era únicamente de una sílaba todo el tiempo y me he centrado en escuchar esa, por tanto, no me he dado cuenta pasado un rato que las sílabas ha identificar cambiaban cada cierto tiempo. A pesar de eso al comienzo el resto del experimento ha ido bien.",61.0,yes
96,2024-02-04_19h09.49.921,Unsyncopated_study2,s101,23.0,feminino,right,España,Castellano,Master degree,no,no,B,1,conjunction_un,L2,unsyncopated,s2,r2,96,Online_conjL2_un//c.cha.me30.0.1110.wav,cha,mi,ba,sil,fe,me,si,sil1,ra,ñi,sil2,['catch'],[1.9497000000476419],[1.9497000000476419],1.11,no_beat,0.8397000000476418,0.8397000000476418,"[""space""]",me,3,,,,,,,,,,,,,,,2.0,2.0,Castellano,0.0,Inglés,6.0,2.0,2.0,yes,no,yes,Flauta dulce,6,,,"En el ejercicio de detectar la sílabas del primer lenguaje he tenido dificultades al comienzo porque pensaba que era únicamente de una sílaba todo el tiempo y me he centrado en escuchar esa, por tanto, no me he dado cuenta pasado un rato que las sílabas ha identificar cambiaban cada cierto tiempo. A pesar de eso al comienzo el resto del experimento ha ido bien.",61.0,yes
97,2024-02-04_19h09.49.921,Unsyncopated_study2,s101,23.0,feminino,right,España,Castellano,Master degree,no,no,B,1,conjunction_un,L2,unsyncopated,s1,r2,97,Online_conjL2_un//c.cha.me31.none.none.wav,fe,ñi,ba,sil,ra,si,te,sil1,ñu,mi,sil2,['-'],,,none,none,,,,me,3,,,,,,,,,,,,,,,2.0,2.0,Castellano,0.0,Inglés,6.0,2.0,2.0,yes,no,yes,Flauta dulce,6,,,"En el ejercicio de detectar la sílabas del primer lenguaje he tenido dificultades al comienzo porque pensaba que era únicamente de una sílaba todo el tiempo y me he centrado en escuchar esa, por tanto, no me he dado cuenta pasado un rato que las sílabas ha identificar cambiaban cada cierto tiempo. A pesar de eso al comienzo el resto del experimento ha ido bien.",61.0,yes
98,2024-02-04_19h09.49.921,Unsyncopated_study2,s101,23.0,feminino,right,España,Castellano,Master degree,no,no,B,1,conjunction_un,L2,unsyncopated,s1,r1,98,Online_conjL2_un//c.cha.me28.222.444.wav,go,cha,me,sil,du,mi,ba,sil1,bi,to,sil2,['catch'],[1.1727999999523036],[1.1727999999523036],0.444,no_beat,0.7287999999523036,0.7287999999523036,"[""space""]",me,3,,,,,,,,,,,,,,,2.0,2.0,Castellano,0.0,Inglés,6.0,2.0,2.0,yes,no,yes,Flauta dulce,6,,,"En el ejercicio de detectar la sílabas del primer lenguaje he tenido dificultades al comienzo porque pensaba que era únicamente de una sílaba todo el tiempo y me he centrado en escuchar esa, por tanto, no me he dado cuenta pasado un rato que las sílabas ha identificar cambiaban cada cierto tiempo. A pesar de eso al comienzo el resto del experimento ha ido bien.",61.0,yes
99,2024-02-04_19h09.49.921,Unsyncopated_study2,s101,23.0,feminino,right,España,Castellano,Master degree,no,no,B,1,conjunction_un,L2,unsyncopated,s2,r2,99,Online_conjL2_un//c.cha.me29.none.none.wav,ba,ñu,mi,sil,fe,te,si,sil1,ra,ñi,sil2,['-'],,,none,none,,,,me,3,,,,,,,,,,,,,,,2.0,2.0,Castellano,0.0,Inglés,6.0,2.0,2.0,yes,no,yes,Flauta dulce,6,,,"En el ejercicio de detectar la sílabas del primer lenguaje he tenido dificultades al comienzo porque pensaba que era únicamente de una sílaba todo el tiempo y me he centrado en escuchar esa, por tanto, no me he dado cuenta pasado un rato que las sílabas ha identificar cambiaban cada cierto tiempo. A pesar de eso al comienzo el resto del experimento ha ido bien.",61.0,yes
100,2024-02-04_19h09.49.921,Unsyncopated_study2,s101,23.0,feminino,right,España,Castellano,Master degree,no,no,B,1,conjunction_un,L2,unsyncopated,s1,r2,100,Online_conjL2_un//c.cha.me8.444.1332.wav,fe,bi,cha,sil,ra,ñi,me,sil1,te,si,sil2,['miss'],,,1.332,no_beat,,,,me,3,,,,,,,,,,,,,,,2.0,2.0,Castellano,0.0,Inglés,6.0,2.0,2.0,yes,no,yes,Flauta dulce,6,,,"En el ejercicio de detectar la sílabas del primer lenguaje he tenido dificultades al comienzo porque pensaba que era únicamente de una sílaba todo el tiempo y me he centrado en escuchar esa, por tanto, no me he dado cuenta pasado un rato que las sílabas ha identificar cambiaban cada cierto tiempo. A pesar de eso al comienzo el resto del experimento ha ido bien.",61.0,yes
101,2024-02-04_19h09.49.921,Unsyncopated_study2,s101,23.0,feminino,right,España,Castellano,Master degree,no,no,B,1,conjunction_un,L2,unsyncopated,s1,r1,101,Online_conjL2_un//c.cha.me9.none.none.wav,go,to,ñi,sil,du,mi,ñu,sil1,bi,su,sil2,['-'],,,none,none,,,,me,3,,,,,,,,,,,,,,,2.0,2.0,Castellano,0.0,Inglés,6.0,2.0,2.0,yes,no,yes,Flauta dulce,6,,,"En el ejercicio de detectar la sílabas del primer lenguaje he tenido dificultades al comienzo porque pensaba que era únicamente de una sílaba todo el tiempo y me he centrado en escuchar esa, por tanto, no me he dado cuenta pasado un rato que las sílabas ha identificar cambiaban cada cierto tiempo. A pesar de eso al comienzo el resto del experimento ha ido bien.",61.0,yes
102,2024-02-04_19h09.49.921,Unsyncopated_study2,s101,23.0,feminino,right,España,Castellano,Master degree,no,no,B,1,conjunction_un,L2,unsyncopated,s2,r2,102,Online_conjL2_un//c.cha.me10.0.222.wav,cha,me,mi,sil,fe,su,si,sil1,ra,ba,sil2,['miss'],,,0.222,no_beat,,,,me,3,,,,,,,,,,,,,,,2.0,2.0,Castellano,0.0,Inglés,6.0,2.0,2.0,yes,no,yes,Flauta dulce,6,,,"En el ejercicio de detectar la sílabas del primer lenguaje he tenido dificultades al comienzo porque pensaba que era únicamente de una sílaba todo el tiempo y me he centrado en escuchar esa, por tanto, no me he dado cuenta pasado un rato que las sílabas ha identificar cambiaban cada cierto tiempo. A pesar de eso al comienzo el resto del experimento ha ido bien.",61.0,yes
103,2024-02-04_19h09.49.921,Unsyncopated_study2,s101,23.0,feminino,right,España,Castellano,Master degree,no,no,B,1,conjunction_un,L2,unsyncopated,s1,r1,103,Online_conjL2_un//c.cha.me11.none.none.wav,go,su,ñu,sil,du,ñi,mi,sil1,ba,to,sil2,['-'],,,none,none,,,,me,3,,,,,,,,,,,,,,,2.0,2.0,Castellano,0.0,Inglés,6.0,2.0,2.0,yes,no,yes,Flauta dulce,6,,,"En el ejercicio de detectar la sílabas del primer lenguaje he tenido dificultades al comienzo porque pensaba que era únicamente de una sílaba todo el tiempo y me he centrado en escuchar esa, por tanto, no me he dado cuenta pasado un rato que las sílabas ha identificar cambiaban cada cierto tiempo. A pesar de eso al comienzo el resto del experimento ha ido bien.",61.0,yes
104,2024-02-04_19h09.49.921,Unsyncopated_study2,s101,23.0,feminino,right,España,Castellano,Master degree,no,no,B,1,conjunction_un,L2,unsyncopated,s2,r1,104,Online_conjL2_un//d.si.ñu12.none.none.wav,ba,bi,mi,sil,go,to,cha,sil1,du,te,sil2,['-'],,,none,none,,,,ñu,4,,,,,,,,,,,,,,,2.0,2.0,Castellano,0.0,Inglés,6.0,2.0,2.0,yes,no,yes,Flauta dulce,6,,,"En el ejercicio de detectar la sílabas del primer lenguaje he tenido dificultades al comienzo porque pensaba que era únicamente de una sílaba todo el tiempo y me he centrado en escuchar esa, por tanto, no me he dado cuenta pasado un rato que las sílabas ha identificar cambiaban cada cierto tiempo. A pesar de eso al comienzo el resto del experimento ha ido bien.",61.0,yes
105,2024-02-04_19h09.49.921,Unsyncopated_study2,s101,23.0,feminino,right,España,Castellano,Master degree,no,no,B,1,conjunction_un,L2,unsyncopated,s2,r1,105,Online_conjL2_un//d.si.ñu15.none.none.wav,su,mi,bi,sil,go,me,ba,sil1,du,te,sil2,['-'],,,none,none,,,,ñu,4,,,,,,,,,,,,,,,2.0,2.0,Castellano,0.0,Inglés,6.0,2.0,2.0,yes,no,yes,Flauta dulce,6,,,"En el ejercicio de detectar la sílabas del primer lenguaje he tenido dificultades al comienzo porque pensaba que era únicamente de una sílaba todo el tiempo y me he centrado en escuchar esa, por tanto, no me he dado cuenta pasado un rato que las sílabas ha identificar cambiaban cada cierto tiempo. A pesar de eso al comienzo el resto del experimento ha ido bien.",61.0,yes
106,2024-02-04_19h09.49.921,Unsyncopated_study2,s101,23.0,feminino,right,España,Castellano,Master degree,no,no,B,1,conjunction_un,L2,unsyncopated,s2,r2,106,Online_conjL2_un//d.si.ñu13.0.1110.wav,si,su,ba,sil,fe,ñu,ñi,sil1,ra,mi,sil2,['catch'],[1.8065000000001419],[1.8065000000001419],1.11,no_beat,0.6965000000001418,0.6965000000001418,"[""space""]",ñu,4,,,,,,,,,,,,,,,2.0,2.0,Castellano,0.0,Inglés,6.0,2.0,2.0,yes,no,yes,Flauta dulce,6,,,"En el ejercicio de detectar la sílabas del primer lenguaje he tenido dificultades al comienzo porque pensaba que era únicamente de una sílaba todo el tiempo y me he centrado en escuchar esa, por tanto, no me he dado cuenta pasado un rato que las sílabas ha identificar cambiaban cada cierto tiempo. A pesar de eso al comienzo el resto del experimento ha ido bien.",61.0,yes
107,2024-02-04_19h09.49.921,Unsyncopated_study2,s101,23.0,feminino,right,España,Castellano,Master degree,no,no,B,1,conjunction_un,L2,unsyncopated,s1,r2,107,Online_conjL2_un//d.si.ñu14.1110.222.wav,fe,ñu,ñi,sil,ra,si,ba,sil1,te,su,sil2,['catch'],[0.9580000000000837],[0.9580000000000837],0.222,no_beat,0.7360000000000837,0.7360000000000837,"[""space""]",ñu,4,,,,,,,,,,,,,,,2.0,2.0,Castellano,0.0,Inglés,6.0,2.0,2.0,yes,no,yes,Flauta dulce,6,,,"En el ejercicio de detectar la sílabas del primer lenguaje he tenido dificultades al comienzo porque pensaba que era únicamente de una sílaba todo el tiempo y me he centrado en escuchar esa, por tanto, no me he dado cuenta pasado un rato que las sílabas ha identificar cambiaban cada cierto tiempo. A pesar de eso al comienzo el resto del experimento ha ido bien.",61.0,yes
108,2024-02-04_19h09.49.921,Unsyncopated_study2,s101,23.0,feminino,right,España,Castellano,Master degree,no,no,B,1,conjunction_un,L2,unsyncopated,s2,r2,108,Online_conjL2_un//b.fe.ra25.888.1776.wav,me,bi,si,sil,fe,su,te,sil1,ra,cha,sil2,['miss'],,,1.776,beat,,,,ra,2,,,,,,,,,,,,,,,2.0,2.0,Castellano,0.0,Inglés,6.0,2.0,2.0,yes,no,yes,Flauta dulce,6,,,"En el ejercicio de detectar la sílabas del primer lenguaje he tenido dificultades al comienzo porque pensaba que era únicamente de una sílaba todo el tiempo y me he centrado en escuchar esa, por tanto, no me he dado cuenta pasado un rato que las sílabas ha identificar cambiaban cada cierto tiempo. A pesar de eso al comienzo el resto del experimento ha ido bien.",61.0,yes
109,2024-02-04_19h09.49.921,Unsyncopated_study2,s101,23.0,feminino,right,España,Castellano,Master degree,no,no,B,1,conjunction_un,L2,unsyncopated,s2,r2,109,Online_conjL2_un//b.fe.ra26.888.1776.wav,ba,su,si,sil,fe,ñu,mi,sil1,ra,ñi,sil2,['miss'],,,1.776,beat,,,,ra,2,,,,,,,,,,,,,,,2.0,2.0,Castellano,0.0,Inglés,6.0,2.0,2.0,yes,no,yes,Flauta dulce,6,,,"En el ejercicio de detectar la sílabas del primer lenguaje he tenido dificultades al comienzo porque pensaba que era únicamente de una sílaba todo el tiempo y me he centrado en escuchar esa, por tanto, no me he dado cuenta pasado un rato que las sílabas ha identificar cambiaban cada cierto tiempo. A pesar de eso al comienzo el resto del experimento ha ido bien.",61.0,yes
110,2024-02-04_19h09.49.921,Unsyncopated_study2,s101,23.0,feminino,right,España,Castellano,Master degree,no,no,B,1,conjunction_un,L2,unsyncopated,s1,r1,110,Online_conjL2_un//b.fe.ra24.none.none.wav,go,su,bi,sil,du,me,ñi,sil1,mi,cha,sil2,['-'],,,none,none,,,,ra,2,,,,,,,,,,,,,,,2.0,2.0,Castellano,0.0,Inglés,6.0,2.0,2.0,yes,no,yes,Flauta dulce,6,,,"En el ejercicio de detectar la sílabas del primer lenguaje he tenido dificultades al comienzo porque pensaba que era únicamente de una sílaba todo el tiempo y me he centrado en escuchar esa, por tanto, no me he dado cuenta pasado un rato que las sílabas ha identificar cambiaban cada cierto tiempo. A pesar de eso al comienzo el resto del experimento ha ido bien.",61.0,yes
111,2024-02-04_19h09.49.921,Unsyncopated_study2,s101,23.0,feminino,right,España,Castellano,Master degree,no,no,B,1,conjunction_un,L2,unsyncopated,s2,r1,111,Online_conjL2_un//b.fe.ra27.none.none.wav,mi,si,me,sil,go,ñu,to,sil1,du,te,sil2,['-'],,,none,none,,,,ra,2,,,,,,,,,,,,,,,2.0,2.0,Castellano,0.0,Inglés,6.0,2.0,2.0,yes,no,yes,Flauta dulce,6,,,"En el ejercicio de detectar la sílabas del primer lenguaje he tenido dificultades al comienzo porque pensaba que era únicamente de una sílaba todo el tiempo y me he centrado en escuchar esa, por tanto, no me he dado cuenta pasado un rato que las sílabas ha identificar cambiaban cada cierto tiempo. A pesar de eso al comienzo el resto del experimento ha ido bien.",61.0,yes
112,2024-02-04_19h09.49.921,Unsyncopated_study2,s101,23.0,feminino,right,España,Castellano,Master degree,no,no,B,1,conjunction_un,L2,unsyncopated,s1,r1,112,Online_conjL2_un//b.fe.ra30.none.none.wav,go,si,cha,sil,du,ba,te,sil1,ñu,ñi,sil2,['-'],,,none,none,,,,ra,2,,,,,,,,,,,,,,,2.0,2.0,Castellano,0.0,Inglés,6.0,2.0,2.0,yes,no,yes,Flauta dulce,6,,,"En el ejercicio de detectar la sílabas del primer lenguaje he tenido dificultades al comienzo porque pensaba que era únicamente de una sílaba todo el tiempo y me he centrado en escuchar esa, por tanto, no me he dado cuenta pasado un rato que las sílabas ha identificar cambiaban cada cierto tiempo. A pesar de eso al comienzo el resto del experimento ha ido bien.",61.0,yes
113,2024-02-04_19h09.49.921,Unsyncopated_study2,s101,23.0,feminino,right,España,Castellano,Master degree,no,no,B,1,conjunction_un,L2,unsyncopated,s2,r2,113,Online_conjL2_un//b.fe.ra31.888.1776.wav,ñu,to,me,sil,fe,cha,mi,sil1,ra,ba,sil2,['miss'],,,1.776,beat,,,,ra,2,,,,,,,,,,,,,,,2.0,2.0,Castellano,0.0,Inglés,6.0,2.0,2.0,yes,no,yes,Flauta dulce,6,,,"En el ejercicio de detectar la sílabas del primer lenguaje he tenido dificultades al comienzo porque pensaba que era únicamente de una sílaba todo el tiempo y me he centrado en escuchar esa, por tanto, no me he dado cuenta pasado un rato que las sílabas ha identificar cambiaban cada cierto tiempo. A pesar de eso al comienzo el resto del experimento ha ido bien.",61.0,yes
114,2024-02-04_19h09.49.921,Unsyncopated_study2,s101,23.0,feminino,right,España,Castellano,Master degree,no,no,B,1,conjunction_un,L2,unsyncopated,s1,r2,114,Online_conjL2_un//b.fe.ra29.0.888.wav,fe,ba,si,sil,ra,bi,cha,sil1,mi,ñu,sil2,['miss'],,,0.888,beat,,,,ra,2,,,,,,,,,,,,,,,2.0,2.0,Castellano,0.0,Inglés,6.0,2.0,2.0,yes,no,yes,Flauta dulce,6,,,"En el ejercicio de detectar la sílabas del primer lenguaje he tenido dificultades al comienzo porque pensaba que era únicamente de una sílaba todo el tiempo y me he centrado en escuchar esa, por tanto, no me he dado cuenta pasado un rato que las sílabas ha identificar cambiaban cada cierto tiempo. A pesar de eso al comienzo el resto del experimento ha ido bien.",61.0,yes
115,2024-02-04_19h09.49.921,Unsyncopated_study2,s101,23.0,feminino,right,España,Castellano,Master degree,no,no,B,1,conjunction_un,L2,unsyncopated,s2,r1,115,Online_conjL2_un//b.fe.ra28.none.none.wav,me,cha,mi,sil,go,si,ñi,sil1,du,to,sil2,['-'],,,none,none,,,,ra,2,,,,,,,,,,,,,,,2.0,2.0,Castellano,0.0,Inglés,6.0,2.0,2.0,yes,no,yes,Flauta dulce,6,,,"En el ejercicio de detectar la sílabas del primer lenguaje he tenido dificultades al comienzo porque pensaba que era únicamente de una sílaba todo el tiempo y me he centrado en escuchar esa, por tanto, no me he dado cuenta pasado un rato que las sílabas ha identificar cambiaban cada cierto tiempo. A pesar de eso al comienzo el resto del experimento ha ido bien.",61.0,yes
116,2024-02-04_19h09.49.921,Unsyncopated_study2,s101,23.0,feminino,right,España,Castellano,Master degree,no,no,B,1,conjunction_un,L2,unsyncopated,s1,r1,116,Online_conjL2_un//a.go.du19.0.888.wav,go,ba,si,sil,du,su,mi,sil1,ñi,cha,sil2,['catch'],[0.6514999999999418],[0.6514999999999418],0.0,beat,0.6514999999999418,0.6514999999999418,"[""space""]",go,1,,,,,,,,,,,,,,,2.0,2.0,Castellano,0.0,Inglés,6.0,2.0,2.0,yes,no,yes,Flauta dulce,6,,,"En el ejercicio de detectar la sílabas del primer lenguaje he tenido dificultades al comienzo porque pensaba que era únicamente de una sílaba todo el tiempo y me he centrado en escuchar esa, por tanto, no me he dado cuenta pasado un rato que las sílabas ha identificar cambiaban cada cierto tiempo. A pesar de eso al comienzo el resto del experimento ha ido bien.",61.0,yes
