Unnamed: 0,date,expName,participant,age,sex,hand,residence,native_lang,education_level,lang_deficit,aud_deficit,group,block,condition,language,rhythm,rule structure online,rule type online,order_trial_on,trial_online,s1,s2,s3,s4,s5,s6,s7,s8,s9,s10,s11,catch_syll_resp,rts_syll_catch,clean_rts,time_syll,beat_no_beat,catch_rtsTR,catch_rts,syllable_catch.keys,cond_syll,syll_to_catch,test_offline,block_off,condition_off,rhythm_off,rule,rule_str_off,rule_norule,conds_offline,language_off,Partz_no_partm.keys,Partz_no_partm.rt,security_1_7.keys,accuracy,security_1_7.rt,n_lang,n_lang_used,lang_1,age_l1,lang_2,age_l2,lang_3,age_l3,lang_4,age_l4,ability_learn_l2,tendence_mix_lan,music_experience,muisc_use,partiture,instr_1,age_M1,instr_2,age_M2,instr_3,age_M3,preguntas_musica1,BMRQ_answer.response,final comment,BMRQ_Score,bilingual
0,2024-02-04_09h03.30.783,Unsyncopated_study2,s109,21.0,masculino,right,España,CastellanoCatalán,Bachelor degree,no,no,B,1,when,L4,unsyncopated,when,when,0,Online_whenL4//c.bu6.none.wav,nu,de,ci,sil,ru,zi,ña,sil1,po,ñi,sil2,['-'],,,none,none,,,,bu,3,testWhenL4Uns//r1.s1.0.wav,1.0,when,unsyncopated,a,s1,rule,rule,L4,z,5.6103,6.0,1.0,7.8801,4 ,3.0,catalán,0.0,castellano,0.0,inglés,5.0,francés,10.0,4.0,1.0,yes,no,no,flauta,9,canto,9,guitarra,9,1. Cuando comparto música con alguien siento una complicidad especial con aquella persona.,2.0,"En la fase 1 del experimento 1, creía que todo el rato iba a ser la misma sílaba, así que cerraba los ojos para concentrarme mejor, creyendo que la sílaba de la pantalla no iba a cambiar. En poco tiempo los he abierto y visto que cambiaba.",17.0,yes
1,2024-02-04_09h03.30.783,Unsyncopated_study2,s109,21.0,masculino,right,España,CastellanoCatalán,Bachelor degree,no,no,B,1,when,L4,unsyncopated,when,when,1,Online_whenL4//c.bu5.444.wav,ci,ñi,bu,sil,po,nu,ña,sil1,pe,zi,sil2,['catch'],[1.292900000095301],[1.292900000095301],0.444,no_beat,0.8489000000953011,0.8489000000953011,"[""space""]",bu,3,testWhenL4Uns//cat_viol.r2.s2.0.wav,1.0,when,unsyncopated,b,s2,no_rule,cat,L4,z,3.1913,5.0,1.0,4.5324,4 ,3.0,catalán,0.0,castellano,0.0,inglés,5.0,francés,10.0,4.0,1.0,yes,no,no,flauta,9,canto,9,guitarra,9,2. En mi tiempo libre apenas escucho música.,2.0,"En la fase 1 del experimento 1, creía que todo el rato iba a ser la misma sílaba, así que cerraba los ojos para concentrarme mejor, creyendo que la sílaba de la pantalla no iba a cambiar. En poco tiempo los he abierto y visto que cambiaba.",17.0,yes
2,2024-02-04_09h03.30.783,Unsyncopated_study2,s109,21.0,masculino,right,España,CastellanoCatalán,Bachelor degree,no,no,B,1,when,L4,unsyncopated,when,when,2,Online_whenL4//c.bu4.none.wav,ru,ña,ja,sil,ñi,de,ci,sil1,po,zi,sil2,['-'],,,none,none,,,,bu,3,testWhenL4Uns//time_viol.r2.s1.0.wav,1.0,when,unsyncopated,b,s1,no_rule,time,L4,z,1.3168,5.0,1.0,4.7334,4 ,3.0,catalán,0.0,castellano,0.0,inglés,5.0,francés,10.0,4.0,1.0,yes,no,no,flauta,9,canto,9,guitarra,9,3. Algunas canciones me ponen los pelos de punta,1.0,"En la fase 1 del experimento 1, creía que todo el rato iba a ser la misma sílaba, así que cerraba los ojos para concentrarme mejor, creyendo que la sílaba de la pantalla no iba a cambiar. En poco tiempo los he abierto y visto que cambiaba.",17.0,yes
3,2024-02-04_09h03.30.783,Unsyncopated_study2,s109,21.0,masculino,right,España,CastellanoCatalán,Bachelor degree,no,no,B,1,when,L4,unsyncopated,when,when,3,Online_whenL4//c.bu7.none.wav,lo,ci,ja,sil,pe,ñi,da,sil1,re,ru,sil2,['-'],,,none,none,,,,bu,3,testWhenL4Uns//dep_viol.r1.s1.0.wav,1.0,when,unsyncopated,a,s1,no_rule,dep,L4,z,2.4177,4.0,1.0,2.1387,4 ,3.0,catalán,0.0,castellano,0.0,inglés,5.0,francés,10.0,4.0,1.0,yes,no,no,flauta,9,canto,9,guitarra,9,4. La música me hace compañía cuando estoy solo,0.0,"En la fase 1 del experimento 1, creía que todo el rato iba a ser la misma sílaba, así que cerraba los ojos para concentrarme mejor, creyendo que la sílaba de la pantalla no iba a cambiar. En poco tiempo los he abierto y visto que cambiaba.",17.0,yes
4,2024-02-04_09h03.30.783,Unsyncopated_study2,s109,21.0,masculino,right,España,CastellanoCatalán,Bachelor degree,no,no,B,1,when,L4,unsyncopated,when,when,4,Online_whenL4//a.lo33.888.wav,ñi,bu,nu,sil,lo,de,ña,sil1,ci,po,sil2,['miss'],,,0.888,beat,,,,lo,1,testWhenL4Uns//r1.s1.1.wav,1.0,when,unsyncopated,a,s1,rule,rule,L4,z,1.5021,3.0,1.0,4.0676,4 ,3.0,catalán,0.0,castellano,0.0,inglés,5.0,francés,10.0,4.0,1.0,yes,no,no,flauta,9,canto,9,guitarra,9,5. No me apetece bailar ni con la música que más me gusta,3.0,"En la fase 1 del experimento 1, creía que todo el rato iba a ser la misma sílaba, así que cerraba los ojos para concentrarme mejor, creyendo que la sílaba de la pantalla no iba a cambiar. En poco tiempo los he abierto y visto que cambiaba.",17.0,yes
5,2024-02-04_09h03.30.783,Unsyncopated_study2,s109,21.0,masculino,right,España,CastellanoCatalán,Bachelor degree,no,no,B,1,when,L4,unsyncopated,when,when,5,Online_whenL4//a.lo32.1776.wav,bu,pe,ru,sil,ñi,po,ci,sil1,lo,ja,sil2,['false alarm'],[0.8937000000476019],[0.8937000000476019],1.776,beat,,,"[""space""]",lo,1,testWhenL4Uns//time_viol.r2.s2.0.wav,1.0,when,unsyncopated,b,s2,no_rule,time,L4,z,0.9869,6.0,1.0,0.803,4 ,3.0,catalán,0.0,castellano,0.0,inglés,5.0,francés,10.0,4.0,1.0,yes,no,no,flauta,9,canto,9,guitarra,9,6. La música me hace conectar con la gente,0.0,"En la fase 1 del experimento 1, creía que todo el rato iba a ser la misma sílaba, así que cerraba los ojos para concentrarme mejor, creyendo que la sílaba de la pantalla no iba a cambiar. En poco tiempo los he abierto y visto que cambiaba.",17.0,yes
6,2024-02-04_09h03.30.783,Unsyncopated_study2,s109,21.0,masculino,right,España,CastellanoCatalán,Bachelor degree,no,no,B,1,when,L4,unsyncopated,when,when,6,Online_whenL4//a.lo34.0.wav,lo,po,ña,sil,de,ci,pe,sil1,ñi,nu,sil2,['miss'],,,0.0,beat,,,,lo,1,testWhenL4Uns//r2.s1.1.wav,1.0,when,unsyncopated,b,s1,rule,rule,L4,z,1.9558,2.0,1.0,2.0336,4 ,3.0,catalán,0.0,castellano,0.0,inglés,5.0,francés,10.0,4.0,1.0,yes,no,no,flauta,9,canto,9,guitarra,9,7. Me informo sobre la música que me gusta.,3.0,"En la fase 1 del experimento 1, creía que todo el rato iba a ser la misma sílaba, así que cerraba los ojos para concentrarme mejor, creyendo que la sílaba de la pantalla no iba a cambiar. En poco tiempo los he abierto y visto que cambiaba.",17.0,yes
7,2024-02-04_09h03.30.783,Unsyncopated_study2,s109,21.0,masculino,right,España,CastellanoCatalán,Bachelor degree,no,no,B,1,when,L4,unsyncopated,when,when,7,Online_whenL4//a.lo35.none.wav,zi,pe,ru,sil,bu,ñi,ja,sil1,ña,po,sil2,['false alarm'],[1.7736999998093097],[1.7736999998093097],none,none,,,"[""space""]",lo,1,testWhenL4Uns//dep_viol.r1.s2.0.wav,1.0,when,unsyncopated,a,s2,no_rule,dep,L4,z,0.8499,5.0,1.0,1.6338,4 ,3.0,catalán,0.0,castellano,0.0,inglés,5.0,francés,10.0,4.0,1.0,yes,no,no,flauta,9,canto,9,guitarra,9,8.Me emociono escuchando ciertas canciones.,0.0,"En la fase 1 del experimento 1, creía que todo el rato iba a ser la misma sílaba, así que cerraba los ojos para concentrarme mejor, creyendo que la sílaba de la pantalla no iba a cambiar. En poco tiempo los he abierto y visto que cambiaba.",17.0,yes
8,2024-02-04_09h03.30.783,Unsyncopated_study2,s109,21.0,masculino,right,España,CastellanoCatalán,Bachelor degree,no,no,B,1,when,L4,unsyncopated,when,when,8,Online_whenL4//a.lo6.none.wav,ñi,ja,ña,sil,de,re,po,sil1,nu,bo,sil2,['-'],,,none,none,,,,lo,1,testWhenL4Uns//r1.s2.1.wav,1.0,when,unsyncopated,a,s2,rule,rule,L4,z,0.8492,3.0,1.0,1.2499,4 ,3.0,catalán,0.0,castellano,0.0,inglés,5.0,francés,10.0,4.0,1.0,yes,no,no,flauta,9,canto,9,guitarra,9,9.La música me tranquiliza y me relaja.,0.0,"En la fase 1 del experimento 1, creía que todo el rato iba a ser la misma sílaba, así que cerraba los ojos para concentrarme mejor, creyendo que la sílaba de la pantalla no iba a cambiar. En poco tiempo los he abierto y visto que cambiaba.",17.0,yes
9,2024-02-04_09h03.30.783,Unsyncopated_study2,s109,21.0,masculino,right,España,CastellanoCatalán,Bachelor degree,no,no,B,1,when,L4,unsyncopated,when,when,9,Online_whenL4//a.lo5.1998.wav,ci,bu,zi,sil,ru,bo,pe,sil1,de,lo,sil2,['false alarm'],[1.5644999999999527],[1.5644999999999527],1.998,no_beat,,,"[""space""]",lo,1,testWhenL4Uns//r1.s2.2.wav,1.0,when,unsyncopated,a,s2,rule,rule,L4,z,1.1873,6.0,1.0,1.4083,4 ,3.0,catalán,0.0,castellano,0.0,inglés,5.0,francés,10.0,4.0,1.0,yes,no,no,flauta,9,canto,9,guitarra,9,10.La música me hace bailar,1.0,"En la fase 1 del experimento 1, creía que todo el rato iba a ser la misma sílaba, así que cerraba los ojos para concentrarme mejor, creyendo que la sílaba de la pantalla no iba a cambiar. En poco tiempo los he abierto y visto que cambiaba.",17.0,yes
10,2024-02-04_09h03.30.783,Unsyncopated_study2,s109,21.0,masculino,right,España,CastellanoCatalán,Bachelor degree,no,no,B,1,when,L4,unsyncopated,when,when,10,Online_whenL4//a.lo4.none.wav,bo,ñi,pe,sil,ja,re,ru,sil1,nu,da,sil2,['-'],,,none,none,,,,lo,1,testWhenL4Uns//r2.s1.0.wav,1.0,when,unsyncopated,b,s1,rule,rule,L4,m,2.4229,2.0,0.0,4.9256,4 ,3.0,catalán,0.0,castellano,0.0,inglés,5.0,francés,10.0,4.0,1.0,yes,no,no,flauta,9,canto,9,guitarra,9,11.Busco novedades musicales continuamente,2.0,"En la fase 1 del experimento 1, creía que todo el rato iba a ser la misma sílaba, así que cerraba los ojos para concentrarme mejor, creyendo que la sílaba de la pantalla no iba a cambiar. En poco tiempo los he abierto y visto que cambiaba.",17.0,yes
11,2024-02-04_09h03.30.783,Unsyncopated_study2,s109,21.0,masculino,right,España,CastellanoCatalán,Bachelor degree,no,no,B,1,when,L4,unsyncopated,when,when,11,Online_whenL4//a.lo7.1776.wav,de,po,da,sil,ru,zi,ñi,sil1,lo,pe,sil2,['miss'],,,1.776,beat,,,,lo,1,testWhenL4Uns//cat_viol.r1.s1.0.wav,1.0,when,unsyncopated,a,s1,no_rule,cat,L4,z,0.838,3.0,1.0,2.4847,4 ,3.0,catalán,0.0,castellano,0.0,inglés,5.0,francés,10.0,4.0,1.0,yes,no,no,flauta,9,canto,9,guitarra,9,12. Puedo llorar cuando escucho algunas melodías que me gustan mucho.,0.0,"En la fase 1 del experimento 1, creía que todo el rato iba a ser la misma sílaba, así que cerraba los ojos para concentrarme mejor, creyendo que la sílaba de la pantalla no iba a cambiar. En poco tiempo los he abierto y visto que cambiaba.",17.0,yes
12,2024-02-04_09h03.30.783,Unsyncopated_study2,s109,21.0,masculino,right,España,CastellanoCatalán,Bachelor degree,no,no,B,1,when,L4,unsyncopated,when,when,12,Online_whenL4//a.lo15.1776.wav,de,pe,da,sil,ñi,po,re,sil1,lo,ja,sil2,['miss'],,,1.776,beat,,,,lo,1,testWhenL4Uns//r1.s2.0.wav,1.0,when,unsyncopated,a,s2,rule,rule,L4,z,3.0328,2.0,1.0,1.1537,4 ,3.0,catalán,0.0,castellano,0.0,inglés,5.0,francés,10.0,4.0,1.0,yes,no,no,flauta,9,canto,9,guitarra,9,13. Me gusta cantar o tocar un instrumento con más gente,0.0,"En la fase 1 del experimento 1, creía que todo el rato iba a ser la misma sílaba, así que cerraba los ojos para concentrarme mejor, creyendo que la sílaba de la pantalla no iba a cambiar. En poco tiempo los he abierto y visto que cambiaba.",17.0,yes
13,2024-02-04_09h03.30.783,Unsyncopated_study2,s109,21.0,masculino,right,España,CastellanoCatalán,Bachelor degree,no,no,B,1,when,L4,unsyncopated,when,when,13,Online_whenL4//a.lo12.none.wav,nu,bu,zi,sil,ñi,bo,ci,sil1,ru,ña,sil2,['false alarm'],[0.7584999999999127],[0.7584999999999127],none,none,,,"[""space""]",lo,1,testWhenL4Uns//cat_viol.r2.s1.0.wav,1.0,when,unsyncopated,b,s1,no_rule,cat,L4,z,2.4166,1.0,1.0,0.8038,4 ,3.0,catalán,0.0,castellano,0.0,inglés,5.0,francés,10.0,4.0,1.0,yes,no,no,flauta,9,canto,9,guitarra,9,14. La música me ayuda a desconectar.,3.0,"En la fase 1 del experimento 1, creía que todo el rato iba a ser la misma sílaba, así que cerraba los ojos para concentrarme mejor, creyendo que la sílaba de la pantalla no iba a cambiar. En poco tiempo los he abierto y visto que cambiaba.",17.0,yes
14,2024-02-04_09h03.30.783,Unsyncopated_study2,s109,21.0,masculino,right,España,CastellanoCatalán,Bachelor degree,no,no,B,1,when,L4,unsyncopated,when,when,14,Online_whenL4//a.lo13.1776.wav,re,ña,ru,sil,ci,ja,ñi,sil1,lo,pe,sil2,['miss'],,,1.776,beat,,,,lo,1,testWhenL4Uns//r2.s2.1.wav,1.0,when,unsyncopated,b,s2,rule,rule,L4,z,0.7341,2.0,1.0,1.6395,4 ,3.0,catalán,0.0,castellano,0.0,inglés,5.0,francés,10.0,4.0,1.0,yes,no,no,flauta,9,canto,9,guitarra,9,15. No puedo evitar tararear las canciones que me gustan cuando las escucho.,0.0,"En la fase 1 del experimento 1, creía que todo el rato iba a ser la misma sílaba, así que cerraba los ojos para concentrarme mejor, creyendo que la sílaba de la pantalla no iba a cambiar. En poco tiempo los he abierto y visto que cambiaba.",17.0,yes
15,2024-02-04_09h03.30.783,Unsyncopated_study2,s109,21.0,masculino,right,España,CastellanoCatalán,Bachelor degree,no,no,B,1,when,L4,unsyncopated,when,when,15,Online_whenL4//a.lo14.none.wav,bu,ru,nu,sil,zi,bo,pe,sil1,da,ñi,sil2,['false alarm'],[0.762899999856927],[0.762899999856927],none,none,,,"[""space""]",lo,1,testWhenL4Uns//r2.s2.0.wav,1.0,when,unsyncopated,b,s2,rule,rule,L4,z,2.7235,2.0,1.0,6.2207,4 ,3.0,catalán,0.0,castellano,0.0,inglés,5.0,francés,10.0,4.0,1.0,yes,no,no,flauta,9,canto,9,guitarra,9,16. En los conciertos me siento en sintonía con los artistas y el público.,0.0,"En la fase 1 del experimento 1, creía que todo el rato iba a ser la misma sílaba, así que cerraba los ojos para concentrarme mejor, creyendo que la sílaba de la pantalla no iba a cambiar. En poco tiempo los he abierto y visto que cambiaba.",17.0,yes
16,2024-02-04_09h03.30.783,Unsyncopated_study2,s109,21.0,masculino,right,España,CastellanoCatalán,Bachelor degree,no,no,B,1,when,L4,unsyncopated,when,when,16,Online_whenL4//b.ja22.1776.wav,da,ci,zi,sil,ña,ru,bo,sil1,ja,bu,sil2,['miss'],,,1.776,beat,,,,ja,2,testWhenL4Uns//dep_viol.r2.s1.0.wav,1.0,when,unsyncopated,b,s1,no_rule,dep,L4,z,1.3012,2.0,1.0,1.865,4 ,3.0,catalán,0.0,castellano,0.0,inglés,5.0,francés,10.0,4.0,1.0,yes,no,no,flauta,9,canto,9,guitarra,9,17. Me gasto bastante dinero en música y cosas relacionadas con la música.,0.0,"En la fase 1 del experimento 1, creía que todo el rato iba a ser la misma sílaba, así que cerraba los ojos para concentrarme mejor, creyendo que la sílaba de la pantalla no iba a cambiar. En poco tiempo los he abierto y visto que cambiaba.",17.0,yes
17,2024-02-04_09h03.30.783,Unsyncopated_study2,s109,21.0,masculino,right,España,CastellanoCatalán,Bachelor degree,no,no,B,1,when,L4,unsyncopated,when,when,17,Online_whenL4//b.ja21.none.wav,bu,da,ci,sil,ru,nu,zi,sil1,de,po,sil2,['false alarm'],[0.7578999998569316],[0.7578999998569316],none,none,,,"[""space""]",ja,2,testWhenL4Uns//time_viol.r1.s2.0.wav,1.0,when,unsyncopated,a,s2,no_rule,time,L4,m,2.9859,5.0,0.0,4.1907,4 ,3.0,catalán,0.0,castellano,0.0,inglés,5.0,francés,10.0,4.0,1.0,yes,no,no,flauta,9,canto,9,guitarra,9,18. Siento escalofríos cuando escucho una melodía que me gusta.,0.0,"En la fase 1 del experimento 1, creía que todo el rato iba a ser la misma sílaba, así que cerraba los ojos para concentrarme mejor, creyendo que la sílaba de la pantalla no iba a cambiar. En poco tiempo los he abierto y visto que cambiaba.",17.0,yes
18,2024-02-04_09h03.30.783,Unsyncopated_study2,s109,21.0,masculino,right,España,CastellanoCatalán,Bachelor degree,no,no,B,1,when,L4,unsyncopated,when,when,18,Online_whenL4//b.ja20.0.wav,ja,bu,ñi,sil,bo,de,lo,sil1,ru,da,sil2,['catch'],[0.9108999998568379],[0.9108999998568379],0.0,beat,0.910899999856838,0.910899999856838,"[""space""]",ja,2,testWhenL4Uns//dep_viol.r2.s2.0.wav,1.0,when,unsyncopated,b,s2,no_rule,dep,L4,m,2.6183,3.0,0.0,1.3419,4 ,3.0,catalán,0.0,castellano,0.0,inglés,5.0,francés,10.0,4.0,1.0,yes,no,no,flauta,9,canto,9,guitarra,9,19. Con la música me puedo desahogar.,0.0,"En la fase 1 del experimento 1, creía que todo el rato iba a ser la misma sílaba, así que cerraba los ojos para concentrarme mejor, creyendo que la sílaba de la pantalla no iba a cambiar. En poco tiempo los he abierto y visto que cambiaba.",17.0,yes
19,2024-02-04_09h03.30.783,Unsyncopated_study2,s109,21.0,masculino,right,España,CastellanoCatalán,Bachelor degree,no,no,B,1,when,L4,unsyncopated,when,when,19,Online_whenL4//b.ja23.444.wav,bu,da,ja,sil,ña,de,nu,sil1,ñi,po,sil2,['catch'],[0.6277999999522308],[0.6277999999522308],0.444,no_beat,0.1837999999522307,0.1837999999522307,"[""space""]",ja,2,testWhenL4Uns//r2.s1.2.wav,1.0,when,unsyncopated,b,s1,rule,rule,L4,m,8.1235,3.0,0.0,3.8706,4 ,3.0,catalán,0.0,castellano,0.0,inglés,5.0,francés,10.0,4.0,1.0,yes,no,no,flauta,9,canto,9,guitarra,9,20. Cuando escucho una melodía que me gusta mucho no puedo evitar mover el cuerpo.,0.0,"En la fase 1 del experimento 1, creía que todo el rato iba a ser la misma sílaba, así que cerraba los ojos para concentrarme mejor, creyendo que la sílaba de la pantalla no iba a cambiar. En poco tiempo los he abierto y visto que cambiaba.",17.0,yes
20,2024-02-04_09h03.30.783,Unsyncopated_study2,s109,21.0,masculino,right,España,CastellanoCatalán,Bachelor degree,no,no,B,1,when,L4,unsyncopated,when,when,20,Online_whenL4//b.ja5.none.wav,re,pe,ña,sil,bu,po,ci,sil1,lo,nu,sil2,['false alarm'],[1.495999999999981],[1.495999999999981],none,none,,,"[""space""]",ja,2,testWhenL4Uns//time_viol.r1.s1.0.wav,1.0,when,unsyncopated,a,s1,no_rule,time,L4,z,0.383,3.0,1.0,1.1737,4 ,3.0,catalán,0.0,castellano,0.0,inglés,5.0,francés,10.0,4.0,1.0,yes,no,no,flauta,9,canto,9,guitarra,9,,,"En la fase 1 del experimento 1, creía que todo el rato iba a ser la misma sílaba, así que cerraba los ojos para concentrarme mejor, creyendo que la sílaba de la pantalla no iba a cambiar. En poco tiempo los he abierto y visto que cambiaba.",17.0,yes
21,2024-02-04_09h03.30.783,Unsyncopated_study2,s109,21.0,masculino,right,España,CastellanoCatalán,Bachelor degree,no,no,B,1,when,L4,unsyncopated,when,when,21,Online_whenL4//b.ja6.1332.wav,pe,ña,de,sil,bo,ci,ja,sil1,lo,po,sil2,['miss'],,,1.332,no_beat,,,,ja,2,testWhenL4Uns//cat_viol.r1.s2.0.wav,1.0,when,unsyncopated,a,s2,no_rule,cat,L4,m,5.2672,3.0,0.0,2.415,4 ,3.0,catalán,0.0,castellano,0.0,inglés,5.0,francés,10.0,4.0,1.0,yes,no,no,flauta,9,canto,9,guitarra,9,,,"En la fase 1 del experimento 1, creía que todo el rato iba a ser la misma sílaba, así que cerraba los ojos para concentrarme mejor, creyendo que la sílaba de la pantalla no iba a cambiar. En poco tiempo los he abierto y visto que cambiaba.",17.0,yes
22,2024-02-04_09h03.30.783,Unsyncopated_study2,s109,21.0,masculino,right,España,CastellanoCatalán,Bachelor degree,no,no,B,1,when,L4,unsyncopated,when,when,22,Online_whenL4//b.ja7.none.wav,de,bo,zi,sil,ru,pe,da,sil1,po,nu,sil2,['-'],,,none,none,,,,ja,2,testWhenL4Uns//r2.s2.2.wav,1.0,when,unsyncopated,b,s2,rule,rule,L4,m,1.1247,2.0,0.0,0.935,4 ,3.0,catalán,0.0,castellano,0.0,inglés,5.0,francés,10.0,4.0,1.0,yes,no,no,flauta,9,canto,9,guitarra,9,,,"En la fase 1 del experimento 1, creía que todo el rato iba a ser la misma sílaba, así que cerraba los ojos para concentrarme mejor, creyendo que la sílaba de la pantalla no iba a cambiar. En poco tiempo los he abierto y visto que cambiaba.",17.0,yes
23,2024-02-04_09h03.30.783,Unsyncopated_study2,s109,21.0,masculino,right,España,CastellanoCatalán,Bachelor degree,no,no,B,1,when,L4,unsyncopated,when,when,23,Online_whenL4//b.ja4.none.wav,ñi,nu,ru,sil,po,de,da,sil1,re,lo,sil2,['false alarm'],[1.0249000000953856],[1.0249000000953856],none,none,,,"[""space""]",ja,2,testWhenL4Uns//r1.s1.2.wav,1.0,when,unsyncopated,a,s1,rule,rule,L4,m,1.2832,3.0,0.0,2.0753,4 ,3.0,catalán,0.0,castellano,0.0,inglés,5.0,francés,10.0,4.0,1.0,yes,no,no,flauta,9,canto,9,guitarra,9,,,"En la fase 1 del experimento 1, creía que todo el rato iba a ser la misma sílaba, así que cerraba los ojos para concentrarme mejor, creyendo que la sílaba de la pantalla no iba a cambiar. En poco tiempo los he abierto y visto que cambiaba.",17.0,yes
24,2024-02-04_09h03.30.783,Unsyncopated_study2,s109,21.0,masculino,right,España,CastellanoCatalán,Bachelor degree,no,no,B,1,when,L4,unsyncopated,when,when,24,Online_whenL4//c.bu17.none.wav,bo,zi,de,sil,ña,nu,ci,sil1,ru,po,sil2,['-'],,,none,none,,,,bu,3,testWhatL3Uns//dep_viol.r1.s1.0.wav,2.0,what,unsyncopated,a,s1,no_rule,dep,L3,z,4.6183,2.0,0.0,2.1278,4 ,3.0,catalán,0.0,castellano,0.0,inglés,5.0,francés,10.0,4.0,1.0,yes,no,no,flauta,9,canto,9,guitarra,9,,,"En la fase 1 del experimento 1, creía que todo el rato iba a ser la misma sílaba, así que cerraba los ojos para concentrarme mejor, creyendo que la sílaba de la pantalla no iba a cambiar. En poco tiempo los he abierto y visto que cambiaba.",17.0,yes
25,2024-02-04_09h03.30.783,Unsyncopated_study2,s109,21.0,masculino,right,España,CastellanoCatalán,Bachelor degree,no,no,B,1,when,L4,unsyncopated,when,when,25,Online_whenL4//c.bu19.0.wav,bu,de,nu,sil,ja,ru,bo,sil1,ñi,pe,sil2,['catch'],[0.9474999999999909],[0.9474999999999909],0.0,beat,0.9474999999999908,0.9474999999999908,"[""space""]",bu,3,testWhatL3Uns//cat_viol.r1.s1.0.wav,2.0,what,unsyncopated,a,s1,no_rule,cat,L3,m,2.1508,3.0,1.0,1.1929,4 ,3.0,catalán,0.0,castellano,0.0,inglés,5.0,francés,10.0,4.0,1.0,yes,no,no,flauta,9,canto,9,guitarra,9,,,"En la fase 1 del experimento 1, creía que todo el rato iba a ser la misma sílaba, así que cerraba los ojos para concentrarme mejor, creyendo que la sílaba de la pantalla no iba a cambiar. En poco tiempo los he abierto y visto que cambiaba.",17.0,yes
26,2024-02-04_09h03.30.783,Unsyncopated_study2,s109,21.0,masculino,right,España,CastellanoCatalán,Bachelor degree,no,no,B,1,when,L4,unsyncopated,when,when,26,Online_whenL4//c.bu16.0.wav,bu,ñi,pe,sil,ru,zi,bo,sil1,de,lo,sil2,['catch'],[0.740299999952299],[0.740299999952299],0.0,beat,0.740299999952299,0.740299999952299,"[""space""]",bu,3,testWhatL3Uns//r1.s2.0.wav,2.0,what,unsyncopated,a,s2,rule,rule,L3,z,1.5671,6.0,1.0,0.9819,4 ,3.0,catalán,0.0,castellano,0.0,inglés,5.0,francés,10.0,4.0,1.0,yes,no,no,flauta,9,canto,9,guitarra,9,,,"En la fase 1 del experimento 1, creía que todo el rato iba a ser la misma sílaba, así que cerraba los ojos para concentrarme mejor, creyendo que la sílaba de la pantalla no iba a cambiar. En poco tiempo los he abierto y visto que cambiaba.",17.0,yes
27,2024-02-04_09h03.30.783,Unsyncopated_study2,s109,21.0,masculino,right,España,CastellanoCatalán,Bachelor degree,no,no,B,1,when,L4,unsyncopated,when,when,27,Online_whenL4//c.bu18.none.wav,da,re,zi,sil,pe,po,lo,sil1,ci,ña,sil2,['-'],,,none,none,,,,bu,3,testWhatL3Uns//dep_viol.r2.s1.0.wav,2.0,what,unsyncopated,b,s1,no_rule,dep,L3,z,1.9212,3.0,0.0,0.8252,4 ,3.0,catalán,0.0,castellano,0.0,inglés,5.0,francés,10.0,4.0,1.0,yes,no,no,flauta,9,canto,9,guitarra,9,,,"En la fase 1 del experimento 1, creía que todo el rato iba a ser la misma sílaba, así que cerraba los ojos para concentrarme mejor, creyendo que la sílaba de la pantalla no iba a cambiar. En poco tiempo los he abierto y visto que cambiaba.",17.0,yes
28,2024-02-04_09h03.30.783,Unsyncopated_study2,s109,21.0,masculino,right,España,CastellanoCatalán,Bachelor degree,no,no,B,1,when,L4,unsyncopated,when,when,28,Online_whenL4//c.bu8.444.wav,nu,bo,bu,sil,ñi,re,zi,sil1,pe,ci,sil2,['catch'],[0.8884000000954302],[0.8884000000954302],0.444,no_beat,0.4444000000954302,0.4444000000954302,"[""space""]",bu,3,testWhatL3Uns//r2.s1.1.wav,2.0,what,unsyncopated,b,s1,rule,rule,L3,z,0.7843,5.0,1.0,0.886,4 ,3.0,catalán,0.0,castellano,0.0,inglés,5.0,francés,10.0,4.0,1.0,yes,no,no,flauta,9,canto,9,guitarra,9,,,"En la fase 1 del experimento 1, creía que todo el rato iba a ser la misma sílaba, así que cerraba los ojos para concentrarme mejor, creyendo que la sílaba de la pantalla no iba a cambiar. En poco tiempo los he abierto y visto que cambiaba.",17.0,yes
29,2024-02-04_09h03.30.783,Unsyncopated_study2,s109,21.0,masculino,right,España,CastellanoCatalán,Bachelor degree,no,no,B,1,when,L4,unsyncopated,when,when,29,Online_whenL4//c.bu11.none.wav,ña,pe,re,sil,nu,bo,lo,sil1,ci,de,sil2,['-'],,,none,none,,,,bu,3,testWhatL3Uns//cat_viol.r2.s1.0.wav,2.0,what,unsyncopated,b,s1,no_rule,cat,L3,z,1.4838,6.0,0.0,1.5042,4 ,3.0,catalán,0.0,castellano,0.0,inglés,5.0,francés,10.0,4.0,1.0,yes,no,no,flauta,9,canto,9,guitarra,9,,,"En la fase 1 del experimento 1, creía que todo el rato iba a ser la misma sílaba, así que cerraba los ojos para concentrarme mejor, creyendo que la sílaba de la pantalla no iba a cambiar. En poco tiempo los he abierto y visto que cambiaba.",17.0,yes
30,2024-02-04_09h03.30.783,Unsyncopated_study2,s109,21.0,masculino,right,España,CastellanoCatalán,Bachelor degree,no,no,B,1,when,L4,unsyncopated,when,when,30,Online_whenL4//c.bu10.0.wav,bu,ñi,da,sil,ña,ja,re,sil1,nu,ci,sil2,['catch'],[1.0560999999046317],[1.0560999999046317],0.0,beat,1.0560999999046317,1.0560999999046317,"[""space""]",bu,3,testWhatL3Uns//time_viol.r2.s2.0.wav,2.0,what,unsyncopated,b,s2,no_rule,time,L3,m,2.4012,1.0,1.0,1.9366,4 ,3.0,catalán,0.0,castellano,0.0,inglés,5.0,francés,10.0,4.0,1.0,yes,no,no,flauta,9,canto,9,guitarra,9,,,"En la fase 1 del experimento 1, creía que todo el rato iba a ser la misma sílaba, así que cerraba los ojos para concentrarme mejor, creyendo que la sílaba de la pantalla no iba a cambiar. En poco tiempo los he abierto y visto que cambiaba.",17.0,yes
31,2024-02-04_09h03.30.783,Unsyncopated_study2,s109,21.0,masculino,right,España,CastellanoCatalán,Bachelor degree,no,no,B,1,when,L4,unsyncopated,when,when,31,Online_whenL4//c.bu9.444.wav,bo,ja,bu,sil,lo,re,pe,sil1,ci,po,sil2,['catch'],[1.4109000000953529],[1.4109000000953529],0.444,no_beat,0.9669000000953528,0.9669000000953528,"[""space""]",bu,3,testWhatL3Uns//r2.s1.0.wav,2.0,what,unsyncopated,b,s1,rule,rule,L3,m,4.6487,1.0,0.0,1.2896,4 ,3.0,catalán,0.0,castellano,0.0,inglés,5.0,francés,10.0,4.0,1.0,yes,no,no,flauta,9,canto,9,guitarra,9,,,"En la fase 1 del experimento 1, creía que todo el rato iba a ser la misma sílaba, así que cerraba los ojos para concentrarme mejor, creyendo que la sílaba de la pantalla no iba a cambiar. En poco tiempo los he abierto y visto que cambiaba.",17.0,yes
32,2024-02-04_09h03.30.783,Unsyncopated_study2,s109,21.0,masculino,right,España,CastellanoCatalán,Bachelor degree,no,no,B,1,when,L4,unsyncopated,when,when,32,Online_whenL4//c.bu13.none.wav,bo,po,pe,sil,ja,ña,da,sil1,lo,de,sil2,['-'],,,none,none,,,,bu,3,testWhatL3Uns//r2.s2.2.wav,2.0,what,unsyncopated,b,s2,rule,rule,L3,z,1.0871,4.0,1.0,1.3835,4 ,3.0,catalán,0.0,castellano,0.0,inglés,5.0,francés,10.0,4.0,1.0,yes,no,no,flauta,9,canto,9,guitarra,9,,,"En la fase 1 del experimento 1, creía que todo el rato iba a ser la misma sílaba, así que cerraba los ojos para concentrarme mejor, creyendo que la sílaba de la pantalla no iba a cambiar. En poco tiempo los he abierto y visto que cambiaba.",17.0,yes
33,2024-02-04_09h03.30.783,Unsyncopated_study2,s109,21.0,masculino,right,España,CastellanoCatalán,Bachelor degree,no,no,B,1,when,L4,unsyncopated,when,when,33,Online_whenL4//c.bu15.1776.wav,zi,re,po,sil,pe,ña,lo,sil1,bu,bo,sil2,['catch'],[2.376599999904556],[2.376599999904556],1.776,beat,0.6005999999045561,0.6005999999045561,"[""space""]",bu,3,testWhatL3Uns//time_viol.r1.s1.0.wav,2.0,what,unsyncopated,a,s1,no_rule,time,L3,z,0.6177,5.0,0.0,1.7174,4 ,3.0,catalán,0.0,castellano,0.0,inglés,5.0,francés,10.0,4.0,1.0,yes,no,no,flauta,9,canto,9,guitarra,9,,,"En la fase 1 del experimento 1, creía que todo el rato iba a ser la misma sílaba, así que cerraba los ojos para concentrarme mejor, creyendo que la sílaba de la pantalla no iba a cambiar. En poco tiempo los he abierto y visto que cambiaba.",17.0,yes
34,2024-02-04_09h03.30.783,Unsyncopated_study2,s109,21.0,masculino,right,España,CastellanoCatalán,Bachelor degree,no,no,B,1,when,L4,unsyncopated,when,when,34,Online_whenL4//c.bu14.none.wav,zi,ñi,ja,sil,re,da,de,sil1,ru,bo,sil2,['-'],,,none,none,,,,bu,3,testWhatL3Uns//cat_viol.r1.s2.0.wav,2.0,what,unsyncopated,a,s2,no_rule,cat,L3,z,1.2559,2.0,0.0,1.0248,4 ,3.0,catalán,0.0,castellano,0.0,inglés,5.0,francés,10.0,4.0,1.0,yes,no,no,flauta,9,canto,9,guitarra,9,,,"En la fase 1 del experimento 1, creía que todo el rato iba a ser la misma sílaba, así que cerraba los ojos para concentrarme mejor, creyendo que la sílaba de la pantalla no iba a cambiar. En poco tiempo los he abierto y visto que cambiaba.",17.0,yes
35,2024-02-04_09h03.30.783,Unsyncopated_study2,s109,21.0,masculino,right,España,CastellanoCatalán,Bachelor degree,no,no,B,1,when,L4,unsyncopated,when,when,35,Online_whenL4//c.bu12.444.wav,ña,nu,bu,sil,bo,ñi,da,sil1,ru,lo,sil2,['catch'],[1.1588999998568852],[1.1588999998568852],0.444,no_beat,0.7148999998568852,0.7148999998568852,"[""space""]",bu,3,testWhatL3Uns//r2.s2.0.wav,2.0,what,unsyncopated,b,s2,rule,rule,L3,z,1.1757,5.0,1.0,1.1178,4 ,3.0,catalán,0.0,castellano,0.0,inglés,5.0,francés,10.0,4.0,1.0,yes,no,no,flauta,9,canto,9,guitarra,9,,,"En la fase 1 del experimento 1, creía que todo el rato iba a ser la misma sílaba, así que cerraba los ojos para concentrarme mejor, creyendo que la sílaba de la pantalla no iba a cambiar. En poco tiempo los he abierto y visto que cambiaba.",17.0,yes
36,2024-02-04_09h03.30.783,Unsyncopated_study2,s109,21.0,masculino,right,España,CastellanoCatalán,Bachelor degree,no,no,B,1,when,L4,unsyncopated,when,when,36,Online_whenL4//d.pe15.888.wav,po,lo,de,sil,pe,ja,bo,sil1,ña,bu,sil2,['miss'],,,0.888,beat,,,,pe,4,testWhatL3Uns//dep_viol.r1.s2.0.wav,2.0,what,unsyncopated,a,s2,no_rule,dep,L3,z,1.1374,1.0,0.0,0.4701,4 ,3.0,catalán,0.0,castellano,0.0,inglés,5.0,francés,10.0,4.0,1.0,yes,no,no,flauta,9,canto,9,guitarra,9,,,"En la fase 1 del experimento 1, creía que todo el rato iba a ser la misma sílaba, así que cerraba los ojos para concentrarme mejor, creyendo que la sílaba de la pantalla no iba a cambiar. En poco tiempo los he abierto y visto que cambiaba.",17.0,yes
37,2024-02-04_09h03.30.783,Unsyncopated_study2,s109,21.0,masculino,right,España,CastellanoCatalán,Bachelor degree,no,no,B,1,when,L4,unsyncopated,when,when,37,Online_whenL4//d.pe12.none.wav,ru,zi,ñi,sil,bu,de,ña,sil1,lo,re,sil2,['false alarm'],[0.3067999999523181],[0.3067999999523181],none,none,,,"[""space""]",pe,4,testWhatL3Uns//r1.s1.1.wav,2.0,what,unsyncopated,a,s1,rule,rule,L3,m,1.7346,1.0,0.0,0.7911,4 ,3.0,catalán,0.0,castellano,0.0,inglés,5.0,francés,10.0,4.0,1.0,yes,no,no,flauta,9,canto,9,guitarra,9,,,"En la fase 1 del experimento 1, creía que todo el rato iba a ser la misma sílaba, así que cerraba los ojos para concentrarme mejor, creyendo que la sílaba de la pantalla no iba a cambiar. En poco tiempo los he abierto y visto que cambiaba.",17.0,yes
38,2024-02-04_09h03.30.783,Unsyncopated_study2,s109,21.0,masculino,right,España,CastellanoCatalán,Bachelor degree,no,no,B,1,when,L4,unsyncopated,when,when,38,Online_whenL4//d.pe14.none.wav,po,ña,bu,sil,de,ru,nu,sil1,ci,zi,sil2,['false alarm'],[1.1421000001430457],[1.1421000001430457],none,none,,,"[""space""]",pe,4,testWhatL3Uns//r1.s2.1.wav,2.0,what,unsyncopated,a,s2,rule,rule,L3,z,0.7182,5.0,1.0,1.4348,4 ,3.0,catalán,0.0,castellano,0.0,inglés,5.0,francés,10.0,4.0,1.0,yes,no,no,flauta,9,canto,9,guitarra,9,,,"En la fase 1 del experimento 1, creía que todo el rato iba a ser la misma sílaba, así que cerraba los ojos para concentrarme mejor, creyendo que la sílaba de la pantalla no iba a cambiar. En poco tiempo los he abierto y visto que cambiaba.",17.0,yes
39,2024-02-04_09h03.30.783,Unsyncopated_study2,s109,21.0,masculino,right,España,CastellanoCatalán,Bachelor degree,no,no,B,1,when,L4,unsyncopated,when,when,39,Online_whenL4//d.pe13.none.wav,da,ja,nu,sil,ru,ci,ñi,sil1,bu,po,sil2,['false alarm'],[1.0247000000476874],[1.0247000000476874],none,none,,,"[""space""]",pe,4,testWhatL3Uns//r1.s1.0.wav,2.0,what,unsyncopated,a,s1,rule,rule,L3,m,1.8158,1.0,0.0,1.4862,4 ,3.0,catalán,0.0,castellano,0.0,inglés,5.0,francés,10.0,4.0,1.0,yes,no,no,flauta,9,canto,9,guitarra,9,,,"En la fase 1 del experimento 1, creía que todo el rato iba a ser la misma sílaba, así que cerraba los ojos para concentrarme mejor, creyendo que la sílaba de la pantalla no iba a cambiar. En poco tiempo los he abierto y visto que cambiaba.",17.0,yes
40,2024-02-04_09h03.30.783,Unsyncopated_study2,s109,21.0,masculino,right,España,CastellanoCatalán,Bachelor degree,no,no,B,1,when,L4,unsyncopated,when,when,40,Online_whenL4//d.pe5.444.wav,bu,nu,pe,sil,ci,da,re,sil1,de,lo,sil2,['catch'],[1.1665000000000418],[1.1665000000000418],0.444,no_beat,0.7225000000000419,0.7225000000000419,"[""space""]",pe,4,testWhatL3Uns//r2.s1.2.wav,2.0,what,unsyncopated,b,s1,rule,rule,L3,m,1.0762,4.0,0.0,1.4212,4 ,3.0,catalán,0.0,castellano,0.0,inglés,5.0,francés,10.0,4.0,1.0,yes,no,no,flauta,9,canto,9,guitarra,9,,,"En la fase 1 del experimento 1, creía que todo el rato iba a ser la misma sílaba, así que cerraba los ojos para concentrarme mejor, creyendo que la sílaba de la pantalla no iba a cambiar. En poco tiempo los he abierto y visto que cambiaba.",17.0,yes
41,2024-02-04_09h03.30.783,Unsyncopated_study2,s109,21.0,masculino,right,España,CastellanoCatalán,Bachelor degree,no,no,B,1,when,L4,unsyncopated,when,when,41,Online_whenL4//d.pe7.1998.wav,da,lo,ña,sil,bu,ñi,ru,sil1,ja,pe,sil2,['false alarm'],[1.7242000000478583],[1.7242000000478583],1.998,no_beat,,,"[""space""]",pe,4,testWhatL3Uns//cat_viol.r2.s2.0.wav,2.0,what,unsyncopated,b,s2,no_rule,cat,L3,z,0.84,4.0,0.0,1.259,4 ,3.0,catalán,0.0,castellano,0.0,inglés,5.0,francés,10.0,4.0,1.0,yes,no,no,flauta,9,canto,9,guitarra,9,,,"En la fase 1 del experimento 1, creía que todo el rato iba a ser la misma sílaba, así que cerraba los ojos para concentrarme mejor, creyendo que la sílaba de la pantalla no iba a cambiar. En poco tiempo los he abierto y visto que cambiaba.",17.0,yes
42,2024-02-04_09h03.30.783,Unsyncopated_study2,s109,21.0,masculino,right,España,CastellanoCatalán,Bachelor degree,no,no,B,1,when,L4,unsyncopated,when,when,42,Online_whenL4//d.pe4.1110.wav,da,ru,ja,sil,nu,pe,ña,sil1,ñi,de,sil2,['miss'],,,1.11,no_beat,,,,pe,4,testWhatL3Uns//r1.s1.2.wav,2.0,what,unsyncopated,a,s1,rule,rule,L3,m,0.5849,3.0,0.0,0.6508,4 ,3.0,catalán,0.0,castellano,0.0,inglés,5.0,francés,10.0,4.0,1.0,yes,no,no,flauta,9,canto,9,guitarra,9,,,"En la fase 1 del experimento 1, creía que todo el rato iba a ser la misma sílaba, así que cerraba los ojos para concentrarme mejor, creyendo que la sílaba de la pantalla no iba a cambiar. En poco tiempo los he abierto y visto que cambiaba.",17.0,yes
43,2024-02-04_09h03.30.783,Unsyncopated_study2,s109,21.0,masculino,right,España,CastellanoCatalán,Bachelor degree,no,no,B,1,when,L4,unsyncopated,when,when,43,Online_whenL4//d.pe6.1110.wav,da,lo,nu,sil,po,pe,ci,sil1,bo,ña,sil2,['miss'],,,1.11,no_beat,,,,pe,4,testWhatL3Uns//dep_viol.r2.s2.0.wav,2.0,what,unsyncopated,b,s2,no_rule,dep,L3,z,1.5691,1.0,0.0,0.6512,4 ,3.0,catalán,0.0,castellano,0.0,inglés,5.0,francés,10.0,4.0,1.0,yes,no,no,flauta,9,canto,9,guitarra,9,,,"En la fase 1 del experimento 1, creía que todo el rato iba a ser la misma sílaba, así que cerraba los ojos para concentrarme mejor, creyendo que la sílaba de la pantalla no iba a cambiar. En poco tiempo los he abierto y visto que cambiaba.",17.0,yes
44,2024-02-04_09h03.30.783,Unsyncopated_study2,s109,21.0,masculino,right,España,CastellanoCatalán,Bachelor degree,no,no,B,1,when,L4,unsyncopated,when,when,44,Online_whenL4//d.pe8.1998.wav,bo,ru,ña,sil,nu,ñi,ja,sil1,po,pe,sil2,['false alarm'],[0.8219000000954111],[0.8219000000954111],1.998,no_beat,,,"[""space""]",pe,4,testWhatL3Uns//time_viol.r1.s2.0.wav,2.0,what,unsyncopated,a,s2,no_rule,time,L3,m,0.5224,6.0,1.0,4.0237,4 ,3.0,catalán,0.0,castellano,0.0,inglés,5.0,francés,10.0,4.0,1.0,yes,no,no,flauta,9,canto,9,guitarra,9,,,"En la fase 1 del experimento 1, creía que todo el rato iba a ser la misma sílaba, así que cerraba los ojos para concentrarme mejor, creyendo que la sílaba de la pantalla no iba a cambiar. En poco tiempo los he abierto y visto que cambiaba.",17.0,yes
45,2024-02-04_09h03.30.783,Unsyncopated_study2,s109,21.0,masculino,right,España,CastellanoCatalán,Bachelor degree,no,no,B,1,when,L4,unsyncopated,when,when,45,Online_whenL4//d.pe10.888.wav,da,zi,po,sil,pe,lo,ru,sil1,ci,re,sil2,['miss'],,,0.888,beat,,,,pe,4,testWhatL3Uns//r1.s2.2.wav,2.0,what,unsyncopated,a,s2,rule,rule,L3,z,1.1511,3.0,1.0,0.9937,4 ,3.0,catalán,0.0,castellano,0.0,inglés,5.0,francés,10.0,4.0,1.0,yes,no,no,flauta,9,canto,9,guitarra,9,,,"En la fase 1 del experimento 1, creía que todo el rato iba a ser la misma sílaba, así que cerraba los ojos para concentrarme mejor, creyendo que la sílaba de la pantalla no iba a cambiar. En poco tiempo los he abierto y visto que cambiaba.",17.0,yes
46,2024-02-04_09h03.30.783,Unsyncopated_study2,s109,21.0,masculino,right,España,CastellanoCatalán,Bachelor degree,no,no,B,1,when,L4,unsyncopated,when,when,46,Online_whenL4//d.pe9.none.wav,de,bu,da,sil,zi,ña,nu,sil1,ci,re,sil2,['-'],,,none,none,,,,pe,4,testWhatL3Uns//r2.s2.1.wav,2.0,what,unsyncopated,b,s2,rule,rule,L3,z,1.0944,2.0,1.0,0.484,4 ,3.0,catalán,0.0,castellano,0.0,inglés,5.0,francés,10.0,4.0,1.0,yes,no,no,flauta,9,canto,9,guitarra,9,,,"En la fase 1 del experimento 1, creía que todo el rato iba a ser la misma sílaba, así que cerraba los ojos para concentrarme mejor, creyendo que la sílaba de la pantalla no iba a cambiar. En poco tiempo los he abierto y visto que cambiaba.",17.0,yes
47,2024-02-04_09h03.30.783,Unsyncopated_study2,s109,21.0,masculino,right,España,CastellanoCatalán,Bachelor degree,no,no,B,1,when,L4,unsyncopated,when,when,47,Online_whenL4//d.pe11.none.wav,re,da,zi,sil,bu,lo,ña,sil1,ci,po,sil2,['false alarm'],[1.6783999998569925],[1.6783999998569925],none,none,,,"[""space""]",pe,4,testWhatL3Uns//time_viol.r2.s1.0.wav,2.0,what,unsyncopated,b,s1,no_rule,time,L3,m,0.5746,2.0,1.0,0.8655,4 ,3.0,catalán,0.0,castellano,0.0,inglés,5.0,francés,10.0,4.0,1.0,yes,no,no,flauta,9,canto,9,guitarra,9,,,"En la fase 1 del experimento 1, creía que todo el rato iba a ser la misma sílaba, así que cerraba los ojos para concentrarme mejor, creyendo que la sílaba de la pantalla no iba a cambiar. En poco tiempo los he abierto y visto que cambiaba.",17.0,yes
48,2024-02-04_09h03.30.783,Unsyncopated_study2,s109,21.0,masculino,right,España,CastellanoCatalán,Bachelor degree,no,no,B,1,when,L4,unsyncopated,when,when,48,Online_whenL4//d.pe1.222.wav,bo,pe,bu,sil,ja,ña,ru,sil1,ñi,nu,sil2,['miss'],,,0.222,no_beat,,,,pe,4,testConjL1Syn//cat_viol.r1.s1.0.wav,3.0,conjunction_syn,syncopated,a,s1,no_rule,cat,L1,z,2.2325,2.0,0.0,0.4736,4 ,3.0,catalán,0.0,castellano,0.0,inglés,5.0,francés,10.0,4.0,1.0,yes,no,no,flauta,9,canto,9,guitarra,9,,,"En la fase 1 del experimento 1, creía que todo el rato iba a ser la misma sílaba, así que cerraba los ojos para concentrarme mejor, creyendo que la sílaba de la pantalla no iba a cambiar. En poco tiempo los he abierto y visto que cambiaba.",17.0,yes
49,2024-02-04_09h03.30.783,Unsyncopated_study2,s109,21.0,masculino,right,España,CastellanoCatalán,Bachelor degree,no,no,B,1,when,L4,unsyncopated,when,when,49,Online_whenL4//d.pe0.none.wav,ja,zi,ñi,sil,ru,ci,ña,sil1,da,bu,sil2,['-'],,,none,none,,,,pe,4,testConjL1Syn//r2.s2.1.wav,3.0,conjunction_syn,syncopated,b,s2,rule,rule,L1,z,0.3022,5.0,1.0,1.2849,4 ,3.0,catalán,0.0,castellano,0.0,inglés,5.0,francés,10.0,4.0,1.0,yes,no,no,flauta,9,canto,9,guitarra,9,,,"En la fase 1 del experimento 1, creía que todo el rato iba a ser la misma sílaba, así que cerraba los ojos para concentrarme mejor, creyendo que la sílaba de la pantalla no iba a cambiar. En poco tiempo los he abierto y visto que cambiaba.",17.0,yes
50,2024-02-04_09h03.30.783,Unsyncopated_study2,s109,21.0,masculino,right,España,CastellanoCatalán,Bachelor degree,no,no,B,1,when,L4,unsyncopated,when,when,50,Online_whenL4//d.pe3.888.wav,nu,bo,de,sil,pe,bu,po,sil1,da,zi,sil2,"['false alarm', 'catch']","[0.6983999998569743, 1.940899999857038]",[1.940899999857038],0.888,beat,1.052899999857038,1.052899999857038,"[""space"",""space""]",pe,4,testConjL1Syn//r1.s2.1.wav,3.0,conjunction_syn,syncopated,a,s2,rule,rule,L1,m,1.1559,1.0,0.0,0.4832,4 ,3.0,catalán,0.0,castellano,0.0,inglés,5.0,francés,10.0,4.0,1.0,yes,no,no,flauta,9,canto,9,guitarra,9,,,"En la fase 1 del experimento 1, creía que todo el rato iba a ser la misma sílaba, así que cerraba los ojos para concentrarme mejor, creyendo que la sílaba de la pantalla no iba a cambiar. En poco tiempo los he abierto y visto que cambiaba.",17.0,yes
51,2024-02-04_09h03.30.783,Unsyncopated_study2,s109,21.0,masculino,right,España,CastellanoCatalán,Bachelor degree,no,no,B,1,when,L4,unsyncopated,when,when,51,Online_whenL4//d.pe2.none.wav,ñi,ña,ru,sil,nu,da,po,sil1,de,ja,sil2,['-'],,,none,none,,,,pe,4,testConjL1Syn//r2.s2.0.wav,3.0,conjunction_syn,syncopated,b,s2,rule,rule,L1,z,2.8232,1.0,1.0,0.6721,4 ,3.0,catalán,0.0,castellano,0.0,inglés,5.0,francés,10.0,4.0,1.0,yes,no,no,flauta,9,canto,9,guitarra,9,,,"En la fase 1 del experimento 1, creía que todo el rato iba a ser la misma sílaba, así que cerraba los ojos para concentrarme mejor, creyendo que la sílaba de la pantalla no iba a cambiar. En poco tiempo los he abierto y visto que cambiaba.",17.0,yes
52,2024-02-04_09h03.30.783,Unsyncopated_study2,s109,21.0,masculino,right,España,CastellanoCatalán,Bachelor degree,no,no,B,1,when,L4,unsyncopated,when,when,52,Online_whenL4//b.ja15.444.wav,da,ci,ja,sil,bo,ru,pe,sil1,zi,bu,sil2,['false alarm'],[0.009499999999889042],[0.009499999999889042],0.444,no_beat,,,"[""space""]",ja,2,testConjL1Syn//cat_viol.r2.s2.0.wav,3.0,conjunction_syn,syncopated,b,s2,no_rule,cat,L1,z,0.5504,2.0,0.0,0.5555,4 ,3.0,catalán,0.0,castellano,0.0,inglés,5.0,francés,10.0,4.0,1.0,yes,no,no,flauta,9,canto,9,guitarra,9,,,"En la fase 1 del experimento 1, creía que todo el rato iba a ser la misma sílaba, así que cerraba los ojos para concentrarme mejor, creyendo que la sílaba de la pantalla no iba a cambiar. En poco tiempo los he abierto y visto que cambiaba.",17.0,yes
53,2024-02-04_09h03.30.783,Unsyncopated_study2,s109,21.0,masculino,right,España,CastellanoCatalán,Bachelor degree,no,no,B,1,when,L4,unsyncopated,when,when,53,Online_whenL4//b.ja13.none.wav,bo,de,ña,sil,re,bu,lo,sil1,pe,zi,sil2,['false alarm'],[0.640999999999849],[0.640999999999849],none,none,,,"[""space""]",ja,2,testConjL1Syn//dep_viol.r2.s2.0.wav,3.0,conjunction_syn,syncopated,b,s2,no_rule,dep,L1,z,0.2342,2.0,0.0,0.8344,4 ,3.0,catalán,0.0,castellano,0.0,inglés,5.0,francés,10.0,4.0,1.0,yes,no,no,flauta,9,canto,9,guitarra,9,,,"En la fase 1 del experimento 1, creía que todo el rato iba a ser la misma sílaba, así que cerraba los ojos para concentrarme mejor, creyendo que la sílaba de la pantalla no iba a cambiar. En poco tiempo los he abierto y visto que cambiaba.",17.0,yes
54,2024-02-04_09h03.30.783,Unsyncopated_study2,s109,21.0,masculino,right,España,CastellanoCatalán,Bachelor degree,no,no,B,1,when,L4,unsyncopated,when,when,54,Online_whenL4//b.ja14.888.wav,zi,ña,po,sil,ja,bu,de,sil1,bo,ru,sil2,['catch'],[2.0248999998568706],[2.0248999998568706],0.888,beat,1.1368999998568707,1.1368999998568707,"[""space""]",ja,2,testConjL1Syn//r2.s1.1.wav,3.0,conjunction_syn,syncopated,b,s1,rule,rule,L1,z,1.1675,3.0,1.0,0.6892,4 ,3.0,catalán,0.0,castellano,0.0,inglés,5.0,francés,10.0,4.0,1.0,yes,no,no,flauta,9,canto,9,guitarra,9,,,"En la fase 1 del experimento 1, creía que todo el rato iba a ser la misma sílaba, así que cerraba los ojos para concentrarme mejor, creyendo que la sílaba de la pantalla no iba a cambiar. En poco tiempo los he abierto y visto que cambiaba.",17.0,yes
55,2024-02-04_09h03.30.783,Unsyncopated_study2,s109,21.0,masculino,right,España,CastellanoCatalán,Bachelor degree,no,no,B,1,when,L4,unsyncopated,when,when,55,Online_whenL4//b.ja12.444.wav,nu,ñi,ja,sil,pe,da,ña,sil1,re,ru,sil2,['miss'],,,0.444,no_beat,,,,ja,2,testConjL1Syn//dep_viol.r2.s1.0.wav,3.0,conjunction_syn,syncopated,b,s1,no_rule,dep,L1,m,0.3583,4.0,1.0,10.5176,4 ,3.0,catalán,0.0,castellano,0.0,inglés,5.0,francés,10.0,4.0,1.0,yes,no,no,flauta,9,canto,9,guitarra,9,,,"En la fase 1 del experimento 1, creía que todo el rato iba a ser la misma sílaba, así que cerraba los ojos para concentrarme mejor, creyendo que la sílaba de la pantalla no iba a cambiar. En poco tiempo los he abierto y visto que cambiaba.",17.0,yes
56,2024-02-04_09h03.30.783,Unsyncopated_study2,s109,21.0,masculino,right,España,CastellanoCatalán,Bachelor degree,no,no,B,1,when,L4,unsyncopated,when,when,56,Online_whenL4//a.lo30.none.wav,de,re,ru,sil,pe,ñi,zi,sil1,bo,nu,sil2,['-'],,,none,none,,,,lo,1,testConjL1Syn//cat_viol.r1.s2.0.wav,3.0,conjunction_syn,syncopated,a,s2,no_rule,cat,L1,m,1.3665,2.0,1.0,0.4837,4 ,3.0,catalán,0.0,castellano,0.0,inglés,5.0,francés,10.0,4.0,1.0,yes,no,no,flauta,9,canto,9,guitarra,9,,,"En la fase 1 del experimento 1, creía que todo el rato iba a ser la misma sílaba, así que cerraba los ojos para concentrarme mejor, creyendo que la sílaba de la pantalla no iba a cambiar. En poco tiempo los he abierto y visto que cambiaba.",17.0,yes
57,2024-02-04_09h03.30.783,Unsyncopated_study2,s109,21.0,masculino,right,España,CastellanoCatalán,Bachelor degree,no,no,B,1,when,L4,unsyncopated,when,when,57,Online_whenL4//a.lo31.none.wav,re,de,zi,sil,ru,pe,da,sil1,ci,nu,sil2,['-'],,,none,none,,,,lo,1,testConjL1Syn//r1.s1.1.wav,3.0,conjunction_syn,syncopated,a,s1,rule,rule,L1,m,0.1561,3.0,0.0,0.2754,4 ,3.0,catalán,0.0,castellano,0.0,inglés,5.0,francés,10.0,4.0,1.0,yes,no,no,flauta,9,canto,9,guitarra,9,,,"En la fase 1 del experimento 1, creía que todo el rato iba a ser la misma sílaba, así que cerraba los ojos para concentrarme mejor, creyendo que la sílaba de la pantalla no iba a cambiar. En poco tiempo los he abierto y visto que cambiaba.",17.0,yes
58,2024-02-04_09h03.30.783,Unsyncopated_study2,s109,21.0,masculino,right,España,CastellanoCatalán,Bachelor degree,no,no,B,1,when,L4,unsyncopated,when,when,58,Online_whenL4//a.lo28.1110.wav,ña,nu,da,sil,ci,lo,po,sil1,re,pe,sil2,['miss'],,,1.11,no_beat,,,,lo,1,testConjL1Syn//time_viol.r1.s2.0.wav,3.0,conjunction_syn,syncopated,a,s2,no_rule,time,L1,m,1.0367,5.0,1.0,0.3695,4 ,3.0,catalán,0.0,castellano,0.0,inglés,5.0,francés,10.0,4.0,1.0,yes,no,no,flauta,9,canto,9,guitarra,9,,,"En la fase 1 del experimento 1, creía que todo el rato iba a ser la misma sílaba, así que cerraba los ojos para concentrarme mejor, creyendo que la sílaba de la pantalla no iba a cambiar. En poco tiempo los he abierto y visto que cambiaba.",17.0,yes
59,2024-02-04_09h03.30.783,Unsyncopated_study2,s109,21.0,masculino,right,España,CastellanoCatalán,Bachelor degree,no,no,B,1,when,L4,unsyncopated,when,when,59,Online_whenL4//a.lo29.none.wav,pe,ña,ru,sil,de,zi,ñi,sil1,nu,re,sil2,['-'],,,none,none,,,,lo,1,testConjL1Syn//r1.s1.0.wav,3.0,conjunction_syn,syncopated,a,s1,rule,rule,L1,z,0.3319,2.0,1.0,0.8822,4 ,3.0,catalán,0.0,castellano,0.0,inglés,5.0,francés,10.0,4.0,1.0,yes,no,no,flauta,9,canto,9,guitarra,9,,,"En la fase 1 del experimento 1, creía que todo el rato iba a ser la misma sílaba, así que cerraba los ojos para concentrarme mejor, creyendo que la sílaba de la pantalla no iba a cambiar. En poco tiempo los he abierto y visto que cambiaba.",17.0,yes
60,2024-02-04_09h03.30.783,Unsyncopated_study2,s109,21.0,masculino,right,España,CastellanoCatalán,Bachelor degree,no,no,B,1,when,L4,unsyncopated,when,when,60,Online_whenL4//a.lo27.none.wav,ci,nu,ñi,sil,da,ru,ja,sil1,po,bu,sil2,['-'],,,none,none,,,,lo,1,testConjL1Syn//time_viol.r2.s1.0.wav,3.0,conjunction_syn,syncopated,b,s1,no_rule,time,L1,m,0.1709,1.0,1.0,0.3057,4 ,3.0,catalán,0.0,castellano,0.0,inglés,5.0,francés,10.0,4.0,1.0,yes,no,no,flauta,9,canto,9,guitarra,9,,,"En la fase 1 del experimento 1, creía que todo el rato iba a ser la misma sílaba, así que cerraba los ojos para concentrarme mejor, creyendo que la sílaba de la pantalla no iba a cambiar. En poco tiempo los he abierto y visto que cambiaba.",17.0,yes
61,2024-02-04_09h03.30.783,Unsyncopated_study2,s109,21.0,masculino,right,España,CastellanoCatalán,Bachelor degree,no,no,B,1,when,L4,unsyncopated,when,when,61,Online_whenL4//a.lo26.1998.wav,po,ja,bu,sil,ci,pe,ru,sil1,ñi,lo,sil2,['false alarm'],[0.1892000000475491],[0.1892000000475491],1.998,no_beat,,,"[""space""]",lo,1,testConjL1Syn//cat_viol.r2.s1.0.wav,3.0,conjunction_syn,syncopated,b,s1,no_rule,cat,L1,m,2.0405,3.0,1.0,0.589,4 ,3.0,catalán,0.0,castellano,0.0,inglés,5.0,francés,10.0,4.0,1.0,yes,no,no,flauta,9,canto,9,guitarra,9,,,"En la fase 1 del experimento 1, creía que todo el rato iba a ser la misma sílaba, así que cerraba los ojos para concentrarme mejor, creyendo que la sílaba de la pantalla no iba a cambiar. En poco tiempo los he abierto y visto que cambiaba.",17.0,yes
62,2024-02-04_09h03.30.783,Unsyncopated_study2,s109,21.0,masculino,right,España,CastellanoCatalán,Bachelor degree,no,no,B,1,when,L4,unsyncopated,when,when,62,Online_whenL4//a.lo24.1776.wav,de,ja,ci,sil,re,ña,po,sil1,lo,bu,sil2,['catch_delay'],[1.0439999999999492],[1.0439999999999492],1.776,beat,1.0439999999999492,1.0439999999999492,,lo,1,testConjL1Syn//r2.s1.0.wav,3.0,conjunction_syn,syncopated,b,s1,rule,rule,L1,m,0.1871,4.0,0.0,1.1913,4 ,3.0,catalán,0.0,castellano,0.0,inglés,5.0,francés,10.0,4.0,1.0,yes,no,no,flauta,9,canto,9,guitarra,9,,,"En la fase 1 del experimento 1, creía que todo el rato iba a ser la misma sílaba, así que cerraba los ojos para concentrarme mejor, creyendo que la sílaba de la pantalla no iba a cambiar. En poco tiempo los he abierto y visto que cambiaba.",17.0,yes
63,2024-02-04_09h03.30.783,Unsyncopated_study2,s109,21.0,masculino,right,España,CastellanoCatalán,Bachelor degree,no,no,B,1,when,L4,unsyncopated,when,when,63,Online_whenL4//a.lo25.none.wav,ñi,ja,ru,sil,bo,ci,ña,sil1,de,zi,sil2,['-'],[0.15599999999994907],[0.15599999999994907],none,none,,,"[""space""]",lo,1,testConjL1Syn//dep_viol.r1.s1.0.wav,3.0,conjunction_syn,syncopated,a,s1,no_rule,dep,L1,m,0.5358,6.0,1.0,1.753,4 ,3.0,catalán,0.0,castellano,0.0,inglés,5.0,francés,10.0,4.0,1.0,yes,no,no,flauta,9,canto,9,guitarra,9,,,"En la fase 1 del experimento 1, creía que todo el rato iba a ser la misma sílaba, así que cerraba los ojos para concentrarme mejor, creyendo que la sílaba de la pantalla no iba a cambiar. En poco tiempo los he abierto y visto que cambiaba.",17.0,yes
64,2024-02-04_09h03.30.783,Unsyncopated_study2,s109,21.0,masculino,right,España,CastellanoCatalán,Bachelor degree,no,no,B,1,when,L4,unsyncopated,when,when,64,Online_whenL4//c.bu27.0.wav,bu,de,zi,sil,ja,da,ru,sil1,bo,po,sil2,['catch'],[1.0195999999045853],[1.0195999999045853],0.0,beat,1.0195999999045853,1.0195999999045853,"[""space""]",bu,3,testConjL1Syn//r1.s2.0.wav,3.0,conjunction_syn,syncopated,a,s2,rule,rule,L1,z,1.3168,3.0,1.0,2.3409,4 ,3.0,catalán,0.0,castellano,0.0,inglés,5.0,francés,10.0,4.0,1.0,yes,no,no,flauta,9,canto,9,guitarra,9,,,"En la fase 1 del experimento 1, creía que todo el rato iba a ser la misma sílaba, así que cerraba los ojos para concentrarme mejor, creyendo que la sílaba de la pantalla no iba a cambiar. En poco tiempo los he abierto y visto que cambiaba.",17.0,yes
65,2024-02-04_09h03.30.783,Unsyncopated_study2,s109,21.0,masculino,right,España,CastellanoCatalán,Bachelor degree,no,no,B,1,when,L4,unsyncopated,when,when,65,Online_whenL4//c.bu24.1998.wav,lo,po,ci,sil,nu,re,ñi,sil1,pe,bu,sil2,['miss'],,,1.998,no_beat,,,,bu,3,testConjL1Syn//r1.s1.2.wav,3.0,conjunction_syn,syncopated,a,s1,rule,rule,L1,z,0.3845,2.0,1.0,0.854,4 ,3.0,catalán,0.0,castellano,0.0,inglés,5.0,francés,10.0,4.0,1.0,yes,no,no,flauta,9,canto,9,guitarra,9,,,"En la fase 1 del experimento 1, creía que todo el rato iba a ser la misma sílaba, así que cerraba los ojos para concentrarme mejor, creyendo que la sílaba de la pantalla no iba a cambiar. En poco tiempo los he abierto y visto que cambiaba.",17.0,yes
66,2024-02-04_09h03.30.783,Unsyncopated_study2,s109,21.0,masculino,right,España,CastellanoCatalán,Bachelor degree,no,no,B,1,when,L4,unsyncopated,when,when,66,Online_whenL4//c.bu26.none.wav,po,da,ña,sil,zi,ru,lo,sil1,ci,re,sil2,['-'],,,none,none,,,,bu,3,testConjL1Syn//dep_viol.r1.s2.0.wav,3.0,conjunction_syn,syncopated,a,s2,no_rule,dep,L1,z,0.1081,4.0,0.0,0.9388,4 ,3.0,catalán,0.0,castellano,0.0,inglés,5.0,francés,10.0,4.0,1.0,yes,no,no,flauta,9,canto,9,guitarra,9,,,"En la fase 1 del experimento 1, creía que todo el rato iba a ser la misma sílaba, así que cerraba los ojos para concentrarme mejor, creyendo que la sílaba de la pantalla no iba a cambiar. En poco tiempo los he abierto y visto que cambiaba.",17.0,yes
67,2024-02-04_09h03.30.783,Unsyncopated_study2,s109,21.0,masculino,right,España,CastellanoCatalán,Bachelor degree,no,no,B,1,when,L4,unsyncopated,when,when,67,Online_whenL4//c.bu25.222.wav,ña,bu,de,sil,da,po,lo,sil1,ja,pe,sil2,['miss'],,,0.222,no_beat,,,,bu,3,testConjL1Syn//r1.s2.2.wav,3.0,conjunction_syn,syncopated,a,s2,rule,rule,L1,m,0.1831,4.0,0.0,4.1337,4 ,3.0,catalán,0.0,castellano,0.0,inglés,5.0,francés,10.0,4.0,1.0,yes,no,no,flauta,9,canto,9,guitarra,9,,,"En la fase 1 del experimento 1, creía que todo el rato iba a ser la misma sílaba, así que cerraba los ojos para concentrarme mejor, creyendo que la sílaba de la pantalla no iba a cambiar. En poco tiempo los he abierto y visto que cambiaba.",17.0,yes
68,2024-02-04_09h03.30.783,Unsyncopated_study2,s109,21.0,masculino,right,España,CastellanoCatalán,Bachelor degree,no,no,B,1,when,L4,unsyncopated,when,when,68,Online_whenL4//b.ja27.444.wav,bu,ñi,ja,sil,ci,ru,ña,sil1,bo,zi,sil2,['catch'],[1.1454000000953783],[1.1454000000953783],0.444,no_beat,0.7014000000953784,0.7014000000953784,"[""space""]",ja,2,testConjL1Syn//time_viol.r2.s2.0.wav,3.0,conjunction_syn,syncopated,b,s2,no_rule,time,L1,z,2.1622,2.0,0.0,1.1869,4 ,3.0,catalán,0.0,castellano,0.0,inglés,5.0,francés,10.0,4.0,1.0,yes,no,no,flauta,9,canto,9,guitarra,9,,,"En la fase 1 del experimento 1, creía que todo el rato iba a ser la misma sílaba, así que cerraba los ojos para concentrarme mejor, creyendo que la sílaba de la pantalla no iba a cambiar. En poco tiempo los he abierto y visto que cambiaba.",17.0,yes
69,2024-02-04_09h03.30.783,Unsyncopated_study2,s109,21.0,masculino,right,España,CastellanoCatalán,Bachelor degree,no,no,B,1,when,L4,unsyncopated,when,when,69,Online_whenL4//b.ja25.none.wav,ru,zi,bo,sil,bu,nu,po,sil1,ñi,re,sil2,['-'],,,none,none,,,,ja,2,testConjL1Syn//r2.s1.2.wav,3.0,conjunction_syn,syncopated,b,s1,rule,rule,L1,m,0.6348,1.0,0.0,1.9016,4 ,3.0,catalán,0.0,castellano,0.0,inglés,5.0,francés,10.0,4.0,1.0,yes,no,no,flauta,9,canto,9,guitarra,9,,,"En la fase 1 del experimento 1, creía que todo el rato iba a ser la misma sílaba, así que cerraba los ojos para concentrarme mejor, creyendo que la sílaba de la pantalla no iba a cambiar. En poco tiempo los he abierto y visto que cambiaba.",17.0,yes
70,2024-02-04_09h03.30.783,Unsyncopated_study2,s109,21.0,masculino,right,España,CastellanoCatalán,Bachelor degree,no,no,B,1,when,L4,unsyncopated,when,when,70,Online_whenL4//b.ja26.none.wav,bu,ru,de,sil,zi,bo,re,sil1,ci,nu,sil2,['-'],,,none,none,,,,ja,2,testConjL1Syn//time_viol.r1.s1.0.wav,3.0,conjunction_syn,syncopated,a,s1,no_rule,time,L1,z,0.5596,5.0,0.0,2.0163,4 ,3.0,catalán,0.0,castellano,0.0,inglés,5.0,francés,10.0,4.0,1.0,yes,no,no,flauta,9,canto,9,guitarra,9,,,"En la fase 1 del experimento 1, creía que todo el rato iba a ser la misma sílaba, así que cerraba los ojos para concentrarme mejor, creyendo que la sílaba de la pantalla no iba a cambiar. En poco tiempo los he abierto y visto que cambiaba.",17.0,yes
71,2024-02-04_09h03.30.783,Unsyncopated_study2,s109,21.0,masculino,right,España,CastellanoCatalán,Bachelor degree,no,no,B,1,when,L4,unsyncopated,when,when,71,Online_whenL4//b.ja24.444.wav,bu,nu,ja,sil,ci,pe,de,sil1,po,ña,sil2,['catch'],[1.0565000000001419],[1.0565000000001419],0.444,no_beat,0.6125000000001419,0.6125000000001419,"[""space""]",ja,2,testConjL1Syn//r2.s2.2.wav,3.0,conjunction_syn,syncopated,b,s2,rule,rule,L1,m,2.4528,4.0,0.0,1.4163,4 ,3.0,catalán,0.0,castellano,0.0,inglés,5.0,francés,10.0,4.0,1.0,yes,no,no,flauta,9,canto,9,guitarra,9,,,"En la fase 1 del experimento 1, creía que todo el rato iba a ser la misma sílaba, así que cerraba los ojos para concentrarme mejor, creyendo que la sílaba de la pantalla no iba a cambiar. En poco tiempo los he abierto y visto que cambiaba.",17.0,yes
72,2024-02-04_09h03.30.783,Unsyncopated_study2,s109,21.0,masculino,right,España,CastellanoCatalán,Bachelor degree,no,no,B,1,when,L4,unsyncopated,when,when,72,Online_whenL4//d.pe30.none.wav,ru,lo,po,sil,nu,de,da,sil1,ña,ñi,sil2,['-'],,,none,none,,,,pe,4,testConjL2Uns//time_viol.r1.s2.0.wav,4.0,conjunction_un,unsyncopated,a,s2,no_rule,time,L2,z,3.1036,1.0,0.0,0.3255,4 ,3.0,catalán,0.0,castellano,0.0,inglés,5.0,francés,10.0,4.0,1.0,yes,no,no,flauta,9,canto,9,guitarra,9,,,"En la fase 1 del experimento 1, creía que todo el rato iba a ser la misma sílaba, así que cerraba los ojos para concentrarme mejor, creyendo que la sílaba de la pantalla no iba a cambiar. En poco tiempo los he abierto y visto que cambiaba.",17.0,yes
73,2024-02-04_09h03.30.783,Unsyncopated_study2,s109,21.0,masculino,right,España,CastellanoCatalán,Bachelor degree,no,no,B,1,when,L4,unsyncopated,when,when,73,Online_whenL4//d.pe29.none.wav,da,po,ja,sil,bu,bo,lo,sil1,ña,de,sil2,['-'],,,none,none,,,,pe,4,testConjL2Uns//dep_viol.r2.s1.0.wav,4.0,conjunction_un,unsyncopated,b,s1,no_rule,dep,L2,z,1.4849,3.0,0.0,0.401,4 ,3.0,catalán,0.0,castellano,0.0,inglés,5.0,francés,10.0,4.0,1.0,yes,no,no,flauta,9,canto,9,guitarra,9,,,"En la fase 1 del experimento 1, creía que todo el rato iba a ser la misma sílaba, así que cerraba los ojos para concentrarme mejor, creyendo que la sílaba de la pantalla no iba a cambiar. En poco tiempo los he abierto y visto que cambiaba.",17.0,yes
74,2024-02-04_09h03.30.783,Unsyncopated_study2,s109,21.0,masculino,right,España,CastellanoCatalán,Bachelor degree,no,no,B,1,when,L4,unsyncopated,when,when,74,Online_whenL4//d.pe28.none.wav,bo,nu,lo,sil,ru,re,bu,sil1,po,da,sil2,['-'],,,none,none,,,,pe,4,testConjL2Uns//r2.s1.2.wav,4.0,conjunction_un,unsyncopated,b,s1,rule,rule,L2,m,1.3189,1.0,0.0,0.7782,4 ,3.0,catalán,0.0,castellano,0.0,inglés,5.0,francés,10.0,4.0,1.0,yes,no,no,flauta,9,canto,9,guitarra,9,,,"En la fase 1 del experimento 1, creía que todo el rato iba a ser la misma sílaba, así que cerraba los ojos para concentrarme mejor, creyendo que la sílaba de la pantalla no iba a cambiar. En poco tiempo los he abierto y visto que cambiaba.",17.0,yes
75,2024-02-04_09h03.30.783,Unsyncopated_study2,s109,21.0,masculino,right,España,CastellanoCatalán,Bachelor degree,no,no,B,1,when,L4,unsyncopated,when,when,75,Online_whenL4//d.pe31.1332.wav,bu,re,ru,sil,ja,de,pe,sil1,ci,zi,sil2,['miss'],,,1.332,no_beat,,,,pe,4,testConjL2Uns//r2.s2.0.wav,4.0,conjunction_un,unsyncopated,b,s2,rule,rule,L2,z,2.1916,1.0,1.0,0.5514,4 ,3.0,catalán,0.0,castellano,0.0,inglés,5.0,francés,10.0,4.0,1.0,yes,no,no,flauta,9,canto,9,guitarra,9,,,"En la fase 1 del experimento 1, creía que todo el rato iba a ser la misma sílaba, así que cerraba los ojos para concentrarme mejor, creyendo que la sílaba de la pantalla no iba a cambiar. En poco tiempo los he abierto y visto que cambiaba.",17.0,yes
76,2024-02-04_09h03.30.783,Unsyncopated_study2,s109,21.0,masculino,right,España,CastellanoCatalán,Bachelor degree,no,no,B,1,when,L4,unsyncopated,when,when,76,Online_whenL4//a.lo21.1998.wav,ñi,zi,bu,sil,de,ru,po,sil1,ña,lo,sil2,['miss'],,,1.998,no_beat,,,,lo,1,testConjL2Uns//r1.s1.0.wav,4.0,conjunction_un,unsyncopated,a,s1,rule,rule,L2,m,1.983,3.0,0.0,1.3267,4 ,3.0,catalán,0.0,castellano,0.0,inglés,5.0,francés,10.0,4.0,1.0,yes,no,no,flauta,9,canto,9,guitarra,9,,,"En la fase 1 del experimento 1, creía que todo el rato iba a ser la misma sílaba, así que cerraba los ojos para concentrarme mejor, creyendo que la sílaba de la pantalla no iba a cambiar. En poco tiempo los he abierto y visto que cambiaba.",17.0,yes
77,2024-02-04_09h03.30.783,Unsyncopated_study2,s109,21.0,masculino,right,España,CastellanoCatalán,Bachelor degree,no,no,B,1,when,L4,unsyncopated,when,when,77,Online_whenL4//a.lo20.none.wav,re,po,ja,sil,de,ña,nu,sil1,pe,ru,sil2,['-'],,,none,none,,,,lo,1,testConjL2Uns//r1.s1.2.wav,4.0,conjunction_un,unsyncopated,a,s1,rule,rule,L2,z,4.7176,2.0,1.0,0.7695,4 ,3.0,catalán,0.0,castellano,0.0,inglés,5.0,francés,10.0,4.0,1.0,yes,no,no,flauta,9,canto,9,guitarra,9,,,"En la fase 1 del experimento 1, creía que todo el rato iba a ser la misma sílaba, así que cerraba los ojos para concentrarme mejor, creyendo que la sílaba de la pantalla no iba a cambiar. En poco tiempo los he abierto y visto que cambiaba.",17.0,yes
78,2024-02-04_09h03.30.783,Unsyncopated_study2,s109,21.0,masculino,right,España,CastellanoCatalán,Bachelor degree,no,no,B,1,when,L4,unsyncopated,when,when,78,Online_whenL4//a.lo23.1332.wav,nu,ña,ci,sil,re,ñi,lo,sil1,pe,bu,sil2,['catch'],[1.9261999998091142],[1.9261999998091142],1.332,no_beat,0.5941999998091141,0.5941999998091141,"[""space""]",lo,1,testConjL2Uns//dep_viol.r1.s2.0.wav,4.0,conjunction_un,unsyncopated,a,s2,no_rule,dep,L2,m,1.311,6.0,1.0,1.9871,4 ,3.0,catalán,0.0,castellano,0.0,inglés,5.0,francés,10.0,4.0,1.0,yes,no,no,flauta,9,canto,9,guitarra,9,,,"En la fase 1 del experimento 1, creía que todo el rato iba a ser la misma sílaba, así que cerraba los ojos para concentrarme mejor, creyendo que la sílaba de la pantalla no iba a cambiar. En poco tiempo los he abierto y visto que cambiaba.",17.0,yes
79,2024-02-04_09h03.30.783,Unsyncopated_study2,s109,21.0,masculino,right,España,CastellanoCatalán,Bachelor degree,no,no,B,1,when,L4,unsyncopated,when,when,79,Online_whenL4//a.lo22.444.wav,pe,ña,lo,sil,re,ñi,bo,sil1,ru,ja,sil2,['catch'],[1.8395000000000437],[1.8395000000000437],0.444,no_beat,,1.3955000000000437,"[""space""]",lo,1,testConjL2Uns//r2.s1.0.wav,4.0,conjunction_un,unsyncopated,b,s1,rule,rule,L2,m,1.7694,4.0,0.0,2.3534,4 ,3.0,catalán,0.0,castellano,0.0,inglés,5.0,francés,10.0,4.0,1.0,yes,no,no,flauta,9,canto,9,guitarra,9,,,"En la fase 1 del experimento 1, creía que todo el rato iba a ser la misma sílaba, así que cerraba los ojos para concentrarme mejor, creyendo que la sílaba de la pantalla no iba a cambiar. En poco tiempo los he abierto y visto que cambiaba.",17.0,yes
80,2024-02-04_09h03.30.783,Unsyncopated_study2,s109,21.0,masculino,right,España,CastellanoCatalán,Bachelor degree,no,no,B,1,when,L4,unsyncopated,when,when,80,Online_whenL4//d.pe18.none.wav,zi,re,po,sil,bo,ja,ci,sil1,ru,da,sil2,['false alarm'],[1.011599999904547],[1.011599999904547],none,none,,,"[""space""]",pe,4,testConjL2Uns//time_viol.r1.s1.0.wav,4.0,conjunction_un,unsyncopated,a,s1,no_rule,time,L2,m,3.1842,3.0,1.0,0.9422,4 ,3.0,catalán,0.0,castellano,0.0,inglés,5.0,francés,10.0,4.0,1.0,yes,no,no,flauta,9,canto,9,guitarra,9,,,"En la fase 1 del experimento 1, creía que todo el rato iba a ser la misma sílaba, así que cerraba los ojos para concentrarme mejor, creyendo que la sílaba de la pantalla no iba a cambiar. En poco tiempo los he abierto y visto que cambiaba.",17.0,yes
81,2024-02-04_09h03.30.783,Unsyncopated_study2,s109,21.0,masculino,right,España,CastellanoCatalán,Bachelor degree,no,no,B,1,when,L4,unsyncopated,when,when,81,Online_whenL4//d.pe16.888.wav,lo,bu,zi,sil,pe,ñi,da,sil1,ci,ña,sil2,['catch'],[1.5716999998091978],[1.5716999998091978],0.888,beat,0.6836999998091978,0.6836999998091978,"[""space""]",pe,4,testConjL2Uns//r1.s2.1.wav,4.0,conjunction_un,unsyncopated,a,s2,rule,rule,L2,z,0.953,7.0,1.0,2.275,4 ,3.0,catalán,0.0,castellano,0.0,inglés,5.0,francés,10.0,4.0,1.0,yes,no,no,flauta,9,canto,9,guitarra,9,,,"En la fase 1 del experimento 1, creía que todo el rato iba a ser la misma sílaba, así que cerraba los ojos para concentrarme mejor, creyendo que la sílaba de la pantalla no iba a cambiar. En poco tiempo los he abierto y visto que cambiaba.",17.0,yes
82,2024-02-04_09h03.30.783,Unsyncopated_study2,s109,21.0,masculino,right,España,CastellanoCatalán,Bachelor degree,no,no,B,1,when,L4,unsyncopated,when,when,82,Online_whenL4//d.pe19.none.wav,nu,ci,ñi,sil,de,po,ru,sil1,ña,zi,sil2,['-'],,,none,none,,,,pe,4,testConjL2Uns//cat_viol.r1.s1.0.wav,4.0,conjunction_un,unsyncopated,a,s1,no_rule,cat,L2,z,2.7265,1.0,0.0,0.3261,4 ,3.0,catalán,0.0,castellano,0.0,inglés,5.0,francés,10.0,4.0,1.0,yes,no,no,flauta,9,canto,9,guitarra,9,,,"En la fase 1 del experimento 1, creía que todo el rato iba a ser la misma sílaba, así que cerraba los ojos para concentrarme mejor, creyendo que la sílaba de la pantalla no iba a cambiar. En poco tiempo los he abierto y visto que cambiaba.",17.0,yes
83,2024-02-04_09h03.30.783,Unsyncopated_study2,s109,21.0,masculino,right,España,CastellanoCatalán,Bachelor degree,no,no,B,1,when,L4,unsyncopated,when,when,83,Online_whenL4//d.pe17.444.wav,ci,ru,pe,sil,ña,bu,zi,sil1,ñi,nu,sil2,['catch'],[0.978399999856947],[0.978399999856947],0.444,no_beat,0.5343999998569471,0.5343999998569471,"[""space""]",pe,4,testConjL2Uns//cat_viol.r2.s2.0.wav,4.0,conjunction_un,unsyncopated,b,s2,no_rule,cat,L2,z,2.3211,3.0,0.0,0.8842,4 ,3.0,catalán,0.0,castellano,0.0,inglés,5.0,francés,10.0,4.0,1.0,yes,no,no,flauta,9,canto,9,guitarra,9,,,"En la fase 1 del experimento 1, creía que todo el rato iba a ser la misma sílaba, así que cerraba los ojos para concentrarme mejor, creyendo que la sílaba de la pantalla no iba a cambiar. En poco tiempo los he abierto y visto que cambiaba.",17.0,yes
84,2024-02-04_09h03.30.783,Unsyncopated_study2,s109,21.0,masculino,right,España,CastellanoCatalán,Bachelor degree,no,no,B,1,when,L4,unsyncopated,when,when,84,Online_whenL4//b.ja35.1998.wav,ru,re,da,sil,lo,bo,ña,sil1,po,ja,sil2,['miss'],,,1.998,no_beat,,,,ja,2,testConjL2Uns//r1.s1.1.wav,4.0,conjunction_un,unsyncopated,a,s1,rule,rule,L2,z,1.5928,2.0,1.0,0.3695,4 ,3.0,catalán,0.0,castellano,0.0,inglés,5.0,francés,10.0,4.0,1.0,yes,no,no,flauta,9,canto,9,guitarra,9,,,"En la fase 1 del experimento 1, creía que todo el rato iba a ser la misma sílaba, así que cerraba los ojos para concentrarme mejor, creyendo que la sílaba de la pantalla no iba a cambiar. En poco tiempo los he abierto y visto que cambiaba.",17.0,yes
85,2024-02-04_09h03.30.783,Unsyncopated_study2,s109,21.0,masculino,right,España,CastellanoCatalán,Bachelor degree,no,no,B,1,when,L4,unsyncopated,when,when,85,Online_whenL4//b.ja33.none.wav,ci,po,nu,sil,ñi,zi,pe,sil1,re,bu,sil2,['-'],,,none,none,,,,ja,2,testConjL2Uns//time_viol.r2.s2.0.wav,4.0,conjunction_un,unsyncopated,b,s2,no_rule,time,L2,m,1.8498,4.0,1.0,1.3836,4 ,3.0,catalán,0.0,castellano,0.0,inglés,5.0,francés,10.0,4.0,1.0,yes,no,no,flauta,9,canto,9,guitarra,9,,,"En la fase 1 del experimento 1, creía que todo el rato iba a ser la misma sílaba, así que cerraba los ojos para concentrarme mejor, creyendo que la sílaba de la pantalla no iba a cambiar. En poco tiempo los he abierto y visto que cambiaba.",17.0,yes
86,2024-02-04_09h03.30.783,Unsyncopated_study2,s109,21.0,masculino,right,España,CastellanoCatalán,Bachelor degree,no,no,B,1,when,L4,unsyncopated,when,when,86,Online_whenL4//b.ja34.1776.wav,re,bo,da,sil,zi,bu,ña,sil1,ja,ci,sil2,['catch'],[2.4232000000477],[2.4232000000477],1.776,beat,0.6472000000477001,0.6472000000477001,"[""space""]",ja,2,testConjL2Uns//r1.s2.2.wav,4.0,conjunction_un,unsyncopated,a,s2,rule,rule,L2,z,0.8596,3.0,1.0,0.8414,4 ,3.0,catalán,0.0,castellano,0.0,inglés,5.0,francés,10.0,4.0,1.0,yes,no,no,flauta,9,canto,9,guitarra,9,,,"En la fase 1 del experimento 1, creía que todo el rato iba a ser la misma sílaba, así que cerraba los ojos para concentrarme mejor, creyendo que la sílaba de la pantalla no iba a cambiar. En poco tiempo los he abierto y visto que cambiaba.",17.0,yes
87,2024-02-04_09h03.30.783,Unsyncopated_study2,s109,21.0,masculino,right,España,CastellanoCatalán,Bachelor degree,no,no,B,1,when,L4,unsyncopated,when,when,87,Online_whenL4//b.ja32.none.wav,ru,bu,de,sil,ña,lo,nu,sil1,re,ci,sil2,['-'],,,none,none,,,,ja,2,testConjL2Uns//time_viol.r2.s1.0.wav,4.0,conjunction_un,unsyncopated,b,s1,no_rule,time,L2,m,1.2512,3.0,1.0,0.9697,4 ,3.0,catalán,0.0,castellano,0.0,inglés,5.0,francés,10.0,4.0,1.0,yes,no,no,flauta,9,canto,9,guitarra,9,,,"En la fase 1 del experimento 1, creía que todo el rato iba a ser la misma sílaba, así que cerraba los ojos para concentrarme mejor, creyendo que la sílaba de la pantalla no iba a cambiar. En poco tiempo los he abierto y visto que cambiaba.",17.0,yes
88,2024-02-04_09h03.30.783,Unsyncopated_study2,s109,21.0,masculino,right,España,CastellanoCatalán,Bachelor degree,no,no,B,1,when,L4,unsyncopated,when,when,88,Online_whenL4//d.pe21.none.wav,ci,lo,bu,sil,ña,po,ja,sil1,bo,ru,sil2,['-'],,,none,none,,,,pe,4,testConjL2Uns//r2.s2.2.wav,4.0,conjunction_un,unsyncopated,b,s2,rule,rule,L2,m,0.0037,2.0,0.0,1.0843,4 ,3.0,catalán,0.0,castellano,0.0,inglés,5.0,francés,10.0,4.0,1.0,yes,no,no,flauta,9,canto,9,guitarra,9,,,"En la fase 1 del experimento 1, creía que todo el rato iba a ser la misma sílaba, así que cerraba los ojos para concentrarme mejor, creyendo que la sílaba de la pantalla no iba a cambiar. En poco tiempo los he abierto y visto que cambiaba.",17.0,yes
89,2024-02-04_09h03.30.783,Unsyncopated_study2,s109,21.0,masculino,right,España,CastellanoCatalán,Bachelor degree,no,no,B,1,when,L4,unsyncopated,when,when,89,Online_whenL4//d.pe20.none.wav,bu,lo,po,sil,ru,ñi,ja,sil1,ña,de,sil2,['-'],,,none,none,,,,pe,4,testConjL2Uns//cat_viol.r2.s1.0.wav,4.0,conjunction_un,unsyncopated,b,s1,no_rule,cat,L2,z,1.6198,5.0,0.0,1.3527,4 ,3.0,catalán,0.0,castellano,0.0,inglés,5.0,francés,10.0,4.0,1.0,yes,no,no,flauta,9,canto,9,guitarra,9,,,"En la fase 1 del experimento 1, creía que todo el rato iba a ser la misma sílaba, así que cerraba los ojos para concentrarme mejor, creyendo que la sílaba de la pantalla no iba a cambiar. En poco tiempo los he abierto y visto que cambiaba.",17.0,yes
90,2024-02-04_09h03.30.783,Unsyncopated_study2,s109,21.0,masculino,right,España,CastellanoCatalán,Bachelor degree,no,no,B,1,when,L4,unsyncopated,when,when,90,Online_whenL4//d.pe23.444.wav,po,ja,pe,sil,de,ru,re,sil1,lo,bo,sil2,"['catch', 'false alarm']","[1.2071999998092906, 2.1228999998570544]",[1.2071999998092906],0.444,no_beat,0.7631999998092907,0.7631999998092907,"[""space"",""space""]",pe,4,testConjL2Uns//r2.s2.1.wav,4.0,conjunction_un,unsyncopated,b,s2,rule,rule,L2,m,0.234,3.0,0.0,1.0044,4 ,3.0,catalán,0.0,castellano,0.0,inglés,5.0,francés,10.0,4.0,1.0,yes,no,no,flauta,9,canto,9,guitarra,9,,,"En la fase 1 del experimento 1, creía que todo el rato iba a ser la misma sílaba, así que cerraba los ojos para concentrarme mejor, creyendo que la sílaba de la pantalla no iba a cambiar. En poco tiempo los he abierto y visto que cambiaba.",17.0,yes
91,2024-02-04_09h03.30.783,Unsyncopated_study2,s109,21.0,masculino,right,España,CastellanoCatalán,Bachelor degree,no,no,B,1,when,L4,unsyncopated,when,when,91,Online_whenL4//d.pe22.0.wav,pe,zi,ña,sil,lo,ci,ñi,sil1,re,da,sil2,['miss'],,,0.0,beat,,,,pe,4,testConjL2Uns//dep_viol.r1.s1.0.wav,4.0,conjunction_un,unsyncopated,a,s1,no_rule,dep,L2,m,1.0925,2.0,1.0,0.6011,4 ,3.0,catalán,0.0,castellano,0.0,inglés,5.0,francés,10.0,4.0,1.0,yes,no,no,flauta,9,canto,9,guitarra,9,,,"En la fase 1 del experimento 1, creía que todo el rato iba a ser la misma sílaba, así que cerraba los ojos para concentrarme mejor, creyendo que la sílaba de la pantalla no iba a cambiar. En poco tiempo los he abierto y visto que cambiaba.",17.0,yes
92,2024-02-04_09h03.30.783,Unsyncopated_study2,s109,21.0,masculino,right,España,CastellanoCatalán,Bachelor degree,no,no,B,1,when,L4,unsyncopated,when,when,92,Online_whenL4//b.ja16.1110.wav,re,ci,bu,sil,de,ja,ru,sil1,pe,nu,sil2,['catch'],[1.8678999998569452],[1.8678999998569452],1.11,no_beat,0.7578999998569451,0.7578999998569451,"[""space""]",ja,2,testConjL2Uns//r1.s2.0.wav,4.0,conjunction_un,unsyncopated,a,s2,rule,rule,L2,m,2.8714,2.0,0.0,0.9709,4 ,3.0,catalán,0.0,castellano,0.0,inglés,5.0,francés,10.0,4.0,1.0,yes,no,no,flauta,9,canto,9,guitarra,9,,,"En la fase 1 del experimento 1, creía que todo el rato iba a ser la misma sílaba, así que cerraba los ojos para concentrarme mejor, creyendo que la sílaba de la pantalla no iba a cambiar. En poco tiempo los he abierto y visto que cambiaba.",17.0,yes
93,2024-02-04_09h03.30.783,Unsyncopated_study2,s109,21.0,masculino,right,España,CastellanoCatalán,Bachelor degree,no,no,B,1,when,L4,unsyncopated,when,when,93,Online_whenL4//b.ja18.none.wav,bo,re,ru,sil,de,lo,zi,sil1,ci,ña,sil2,['-'],,,none,none,,,,ja,2,testConjL2Uns//cat_viol.r1.s2.0.wav,4.0,conjunction_un,unsyncopated,a,s2,no_rule,cat,L2,z,1.1006,1.0,0.0,0.6925,4 ,3.0,catalán,0.0,castellano,0.0,inglés,5.0,francés,10.0,4.0,1.0,yes,no,no,flauta,9,canto,9,guitarra,9,,,"En la fase 1 del experimento 1, creía que todo el rato iba a ser la misma sílaba, así que cerraba los ojos para concentrarme mejor, creyendo que la sílaba de la pantalla no iba a cambiar. En poco tiempo los he abierto y visto que cambiaba.",17.0,yes
94,2024-02-04_09h03.30.783,Unsyncopated_study2,s109,21.0,masculino,right,España,CastellanoCatalán,Bachelor degree,no,no,B,1,when,L4,unsyncopated,when,when,94,Online_whenL4//b.ja19.none.wav,ñi,da,nu,sil,ña,bo,de,sil1,po,lo,sil2,['-'],,,none,none,,,,ja,2,testConjL2Uns//r2.s1.1.wav,4.0,conjunction_un,unsyncopated,b,s1,rule,rule,L2,z,1.0237,2.0,1.0,1.0078,4 ,3.0,catalán,0.0,castellano,0.0,inglés,5.0,francés,10.0,4.0,1.0,yes,no,no,flauta,9,canto,9,guitarra,9,,,"En la fase 1 del experimento 1, creía que todo el rato iba a ser la misma sílaba, así que cerraba los ojos para concentrarme mejor, creyendo que la sílaba de la pantalla no iba a cambiar. En poco tiempo los he abierto y visto que cambiaba.",17.0,yes
95,2024-02-04_09h03.30.783,Unsyncopated_study2,s109,21.0,masculino,right,España,CastellanoCatalán,Bachelor degree,no,no,B,1,when,L4,unsyncopated,when,when,95,Online_whenL4//b.ja17.none.wav,pe,ru,ñi,sil,zi,lo,re,sil1,de,bu,sil2,['-'],,,none,none,,,,ja,2,testConjL2Uns//dep_viol.r2.s2.0.wav,4.0,conjunction_un,unsyncopated,b,s2,no_rule,dep,L2,z,1.0208,2.0,0.0,1.1427,4 ,3.0,catalán,0.0,castellano,0.0,inglés,5.0,francés,10.0,4.0,1.0,yes,no,no,flauta,9,canto,9,guitarra,9,,,"En la fase 1 del experimento 1, creía que todo el rato iba a ser la misma sílaba, así que cerraba los ojos para concentrarme mejor, creyendo que la sílaba de la pantalla no iba a cambiar. En poco tiempo los he abierto y visto que cambiaba.",17.0,yes
96,2024-02-04_09h03.30.783,Unsyncopated_study2,s109,21.0,masculino,right,España,CastellanoCatalán,Bachelor degree,no,no,B,1,when,L4,unsyncopated,when,when,96,Online_whenL4//a.lo11.0.wav,lo,ci,pe,sil,ñi,de,zi,sil1,ru,da,sil2,['catch'],[1.2769000000953383],[1.2769000000953383],0.0,beat,,1.2769000000953383,"[""space""]",lo,1,,,,,,,,,,,,,,,4 ,3.0,catalán,0.0,castellano,0.0,inglés,5.0,francés,10.0,4.0,1.0,yes,no,no,flauta,9,canto,9,guitarra,9,,,"En la fase 1 del experimento 1, creía que todo el rato iba a ser la misma sílaba, así que cerraba los ojos para concentrarme mejor, creyendo que la sílaba de la pantalla no iba a cambiar. En poco tiempo los he abierto y visto que cambiaba.",17.0,yes
97,2024-02-04_09h03.30.783,Unsyncopated_study2,s109,21.0,masculino,right,España,CastellanoCatalán,Bachelor degree,no,no,B,1,when,L4,unsyncopated,when,when,97,Online_whenL4//a.lo10.none.wav,pe,da,re,sil,de,ja,zi,sil1,bu,po,sil2,['-'],,,none,none,,,,lo,1,,,,,,,,,,,,,,,4 ,3.0,catalán,0.0,castellano,0.0,inglés,5.0,francés,10.0,4.0,1.0,yes,no,no,flauta,9,canto,9,guitarra,9,,,"En la fase 1 del experimento 1, creía que todo el rato iba a ser la misma sílaba, así que cerraba los ojos para concentrarme mejor, creyendo que la sílaba de la pantalla no iba a cambiar. En poco tiempo los he abierto y visto que cambiaba.",17.0,yes
98,2024-02-04_09h03.30.783,Unsyncopated_study2,s109,21.0,masculino,right,España,CastellanoCatalán,Bachelor degree,no,no,B,1,when,L4,unsyncopated,when,when,98,Online_whenL4//a.lo8.0.wav,lo,ñi,nu,sil,de,bo,pe,sil1,da,bu,sil2,['miss'],,,0.0,beat,,,,lo,1,,,,,,,,,,,,,,,4 ,3.0,catalán,0.0,castellano,0.0,inglés,5.0,francés,10.0,4.0,1.0,yes,no,no,flauta,9,canto,9,guitarra,9,,,"En la fase 1 del experimento 1, creía que todo el rato iba a ser la misma sílaba, así que cerraba los ojos para concentrarme mejor, creyendo que la sílaba de la pantalla no iba a cambiar. En poco tiempo los he abierto y visto que cambiaba.",17.0,yes
99,2024-02-04_09h03.30.783,Unsyncopated_study2,s109,21.0,masculino,right,España,CastellanoCatalán,Bachelor degree,no,no,B,1,when,L4,unsyncopated,when,when,99,Online_whenL4//a.lo9.none.wav,bo,ci,po,sil,de,zi,ñi,sil1,ja,ña,sil2,['-'],,,none,none,,,,lo,1,,,,,,,,,,,,,,,4 ,3.0,catalán,0.0,castellano,0.0,inglés,5.0,francés,10.0,4.0,1.0,yes,no,no,flauta,9,canto,9,guitarra,9,,,"En la fase 1 del experimento 1, creía que todo el rato iba a ser la misma sílaba, así que cerraba los ojos para concentrarme mejor, creyendo que la sílaba de la pantalla no iba a cambiar. En poco tiempo los he abierto y visto que cambiaba.",17.0,yes
100,2024-02-04_09h03.30.783,Unsyncopated_study2,s109,21.0,masculino,right,España,CastellanoCatalán,Bachelor degree,no,no,B,1,when,L4,unsyncopated,when,when,100,Online_whenL4//a.lo1.none.wav,nu,ja,ci,sil,bo,ña,de,sil1,po,re,sil2,['-'],,,none,none,,,,lo,1,,,,,,,,,,,,,,,4 ,3.0,catalán,0.0,castellano,0.0,inglés,5.0,francés,10.0,4.0,1.0,yes,no,no,flauta,9,canto,9,guitarra,9,,,"En la fase 1 del experimento 1, creía que todo el rato iba a ser la misma sílaba, así que cerraba los ojos para concentrarme mejor, creyendo que la sílaba de la pantalla no iba a cambiar. En poco tiempo los he abierto y visto que cambiaba.",17.0,yes
101,2024-02-04_09h03.30.783,Unsyncopated_study2,s109,21.0,masculino,right,España,CastellanoCatalán,Bachelor degree,no,no,B,1,when,L4,unsyncopated,when,when,101,Online_whenL4//a.lo2.444.wav,ñi,bu,lo,sil,da,pe,ña,sil1,zi,bo,sil2,['catch'],[1.0743999998569507],[1.0743999998569507],0.444,no_beat,0.6303999998569507,0.6303999998569507,"[""space""]",lo,1,,,,,,,,,,,,,,,4 ,3.0,catalán,0.0,castellano,0.0,inglés,5.0,francés,10.0,4.0,1.0,yes,no,no,flauta,9,canto,9,guitarra,9,,,"En la fase 1 del experimento 1, creía que todo el rato iba a ser la misma sílaba, así que cerraba los ojos para concentrarme mejor, creyendo que la sílaba de la pantalla no iba a cambiar. En poco tiempo los he abierto y visto que cambiaba.",17.0,yes
102,2024-02-04_09h03.30.783,Unsyncopated_study2,s109,21.0,masculino,right,España,CastellanoCatalán,Bachelor degree,no,no,B,1,when,L4,unsyncopated,when,when,102,Online_whenL4//a.lo3.none.wav,ci,nu,ja,sil,re,ña,ru,sil1,po,bo,sil2,['-'],,,none,none,,,,lo,1,,,,,,,,,,,,,,,4 ,3.0,catalán,0.0,castellano,0.0,inglés,5.0,francés,10.0,4.0,1.0,yes,no,no,flauta,9,canto,9,guitarra,9,,,"En la fase 1 del experimento 1, creía que todo el rato iba a ser la misma sílaba, así que cerraba los ojos para concentrarme mejor, creyendo que la sílaba de la pantalla no iba a cambiar. En poco tiempo los he abierto y visto que cambiaba.",17.0,yes
103,2024-02-04_09h03.30.783,Unsyncopated_study2,s109,21.0,masculino,right,España,CastellanoCatalán,Bachelor degree,no,no,B,1,when,L4,unsyncopated,when,when,103,Online_whenL4//a.lo0.none.wav,ru,pe,ci,sil,zi,ja,da,sil1,ñi,ña,sil2,['-'],,,none,none,,,,lo,1,,,,,,,,,,,,,,,4 ,3.0,catalán,0.0,castellano,0.0,inglés,5.0,francés,10.0,4.0,1.0,yes,no,no,flauta,9,canto,9,guitarra,9,,,"En la fase 1 del experimento 1, creía que todo el rato iba a ser la misma sílaba, así que cerraba los ojos para concentrarme mejor, creyendo que la sílaba de la pantalla no iba a cambiar. En poco tiempo los he abierto y visto que cambiaba.",17.0,yes
104,2024-02-04_09h03.30.783,Unsyncopated_study2,s109,21.0,masculino,right,España,CastellanoCatalán,Bachelor degree,no,no,B,1,when,L4,unsyncopated,when,when,104,Online_whenL4//c.bu29.none.wav,ja,nu,po,sil,da,re,de,sil1,ru,ci,sil2,['-'],,,none,none,,,,bu,3,,,,,,,,,,,,,,,4 ,3.0,catalán,0.0,castellano,0.0,inglés,5.0,francés,10.0,4.0,1.0,yes,no,no,flauta,9,canto,9,guitarra,9,,,"En la fase 1 del experimento 1, creía que todo el rato iba a ser la misma sílaba, así que cerraba los ojos para concentrarme mejor, creyendo que la sílaba de la pantalla no iba a cambiar. En poco tiempo los he abierto y visto que cambiaba.",17.0,yes
105,2024-02-04_09h03.30.783,Unsyncopated_study2,s109,21.0,masculino,right,España,CastellanoCatalán,Bachelor degree,no,no,B,1,when,L4,unsyncopated,when,when,105,Online_whenL4//c.bu30.none.wav,ña,ru,lo,sil,bo,ci,ñi,sil1,nu,po,sil2,['-'],,,none,none,,,,bu,3,,,,,,,,,,,,,,,4 ,3.0,catalán,0.0,castellano,0.0,inglés,5.0,francés,10.0,4.0,1.0,yes,no,no,flauta,9,canto,9,guitarra,9,,,"En la fase 1 del experimento 1, creía que todo el rato iba a ser la misma sílaba, así que cerraba los ojos para concentrarme mejor, creyendo que la sílaba de la pantalla no iba a cambiar. En poco tiempo los he abierto y visto que cambiaba.",17.0,yes
106,2024-02-04_09h03.30.783,Unsyncopated_study2,s109,21.0,masculino,right,España,CastellanoCatalán,Bachelor degree,no,no,B,1,when,L4,unsyncopated,when,when,106,Online_whenL4//c.bu31.none.wav,ru,bo,ci,sil,lo,po,pe,sil1,zi,ña,sil2,['-'],,,none,none,,,,bu,3,,,,,,,,,,,,,,,4 ,3.0,catalán,0.0,castellano,0.0,inglés,5.0,francés,10.0,4.0,1.0,yes,no,no,flauta,9,canto,9,guitarra,9,,,"En la fase 1 del experimento 1, creía que todo el rato iba a ser la misma sílaba, así que cerraba los ojos para concentrarme mejor, creyendo que la sílaba de la pantalla no iba a cambiar. En poco tiempo los he abierto y visto que cambiaba.",17.0,yes
107,2024-02-04_09h03.30.783,Unsyncopated_study2,s109,21.0,masculino,right,España,CastellanoCatalán,Bachelor degree,no,no,B,1,when,L4,unsyncopated,when,when,107,Online_whenL4//c.bu28.1998.wav,ñi,re,ru,sil,ja,zi,ña,sil1,pe,bu,sil2,['catch_delay'],[0.8154999999999892],[0.8154999999999892],1.998,no_beat,0.8154999999999892,0.8154999999999892,,bu,3,,,,,,,,,,,,,,,4 ,3.0,catalán,0.0,castellano,0.0,inglés,5.0,francés,10.0,4.0,1.0,yes,no,no,flauta,9,canto,9,guitarra,9,,,"En la fase 1 del experimento 1, creía que todo el rato iba a ser la misma sílaba, así que cerraba los ojos para concentrarme mejor, creyendo que la sílaba de la pantalla no iba a cambiar. En poco tiempo los he abierto y visto que cambiaba.",17.0,yes
108,2024-02-04_09h03.30.783,Unsyncopated_study2,s109,21.0,masculino,right,España,CastellanoCatalán,Bachelor degree,no,no,B,1,when,L4,unsyncopated,when,when,108,Online_whenL4//b.ja3.none.wav,nu,da,po,sil,ru,zi,bu,sil1,re,ña,sil2,['-'],[0.14949999999998909],[0.14949999999998909],none,none,,,"[""space""]",ja,2,,,,,,,,,,,,,,,4 ,3.0,catalán,0.0,castellano,0.0,inglés,5.0,francés,10.0,4.0,1.0,yes,no,no,flauta,9,canto,9,guitarra,9,,,"En la fase 1 del experimento 1, creía que todo el rato iba a ser la misma sílaba, así que cerraba los ojos para concentrarme mejor, creyendo que la sílaba de la pantalla no iba a cambiar. En poco tiempo los he abierto y visto que cambiaba.",17.0,yes
109,2024-02-04_09h03.30.783,Unsyncopated_study2,s109,21.0,masculino,right,España,CastellanoCatalán,Bachelor degree,no,no,B,1,when,L4,unsyncopated,when,when,109,Online_whenL4//b.ja2.none.wav,ci,ru,zi,sil,da,de,pe,sil1,re,lo,sil2,['-'],,,none,none,,,,ja,2,,,,,,,,,,,,,,,4 ,3.0,catalán,0.0,castellano,0.0,inglés,5.0,francés,10.0,4.0,1.0,yes,no,no,flauta,9,canto,9,guitarra,9,,,"En la fase 1 del experimento 1, creía que todo el rato iba a ser la misma sílaba, así que cerraba los ojos para concentrarme mejor, creyendo que la sílaba de la pantalla no iba a cambiar. En poco tiempo los he abierto y visto que cambiaba.",17.0,yes
110,2024-02-04_09h03.30.783,Unsyncopated_study2,s109,21.0,masculino,right,España,CastellanoCatalán,Bachelor degree,no,no,B,1,when,L4,unsyncopated,when,when,110,Online_whenL4//b.ja0.222.wav,re,ja,da,sil,ci,ru,bo,sil1,bu,lo,sil2,['catch'],[0.8257000000478456],[0.8257000000478456],0.222,no_beat,0.6037000000478456,0.6037000000478456,"[""space""]",ja,2,,,,,,,,,,,,,,,4 ,3.0,catalán,0.0,castellano,0.0,inglés,5.0,francés,10.0,4.0,1.0,yes,no,no,flauta,9,canto,9,guitarra,9,,,"En la fase 1 del experimento 1, creía que todo el rato iba a ser la misma sílaba, así que cerraba los ojos para concentrarme mejor, creyendo que la sílaba de la pantalla no iba a cambiar. En poco tiempo los he abierto y visto que cambiaba.",17.0,yes
111,2024-02-04_09h03.30.783,Unsyncopated_study2,s109,21.0,masculino,right,España,CastellanoCatalán,Bachelor degree,no,no,B,1,when,L4,unsyncopated,when,when,111,Online_whenL4//b.ja1.none.wav,lo,re,po,sil,bu,de,ña,sil1,da,nu,sil2,['-'],,,none,none,,,,ja,2,,,,,,,,,,,,,,,4 ,3.0,catalán,0.0,castellano,0.0,inglés,5.0,francés,10.0,4.0,1.0,yes,no,no,flauta,9,canto,9,guitarra,9,,,"En la fase 1 del experimento 1, creía que todo el rato iba a ser la misma sílaba, así que cerraba los ojos para concentrarme mejor, creyendo que la sílaba de la pantalla no iba a cambiar. En poco tiempo los he abierto y visto que cambiaba.",17.0,yes
112,2024-02-04_09h03.30.783,Unsyncopated_study2,s109,21.0,masculino,right,España,CastellanoCatalán,Bachelor degree,no,no,B,1,when,L4,unsyncopated,when,when,112,Online_whenL4//a.lo16.none.wav,po,bu,re,sil,ja,pe,zi,sil1,da,ña,sil2,['-'],,,none,none,,,,lo,1,,,,,,,,,,,,,,,4 ,3.0,catalán,0.0,castellano,0.0,inglés,5.0,francés,10.0,4.0,1.0,yes,no,no,flauta,9,canto,9,guitarra,9,,,"En la fase 1 del experimento 1, creía que todo el rato iba a ser la misma sílaba, así que cerraba los ojos para concentrarme mejor, creyendo que la sílaba de la pantalla no iba a cambiar. En poco tiempo los he abierto y visto que cambiaba.",17.0,yes
113,2024-02-04_09h03.30.783,Unsyncopated_study2,s109,21.0,masculino,right,España,CastellanoCatalán,Bachelor degree,no,no,B,1,when,L4,unsyncopated,when,when,113,Online_whenL4//a.lo17.888.wav,ci,de,re,sil,lo,ru,da,sil1,ñi,zi,sil2,['catch'],[1.7929999999998927],[1.7929999999998927],0.888,beat,0.9049999999998928,0.9049999999998928,"[""space""]",lo,1,,,,,,,,,,,,,,,4 ,3.0,catalán,0.0,castellano,0.0,inglés,5.0,francés,10.0,4.0,1.0,yes,no,no,flauta,9,canto,9,guitarra,9,,,"En la fase 1 del experimento 1, creía que todo el rato iba a ser la misma sílaba, así que cerraba los ojos para concentrarme mejor, creyendo que la sílaba de la pantalla no iba a cambiar. En poco tiempo los he abierto y visto que cambiaba.",17.0,yes
114,2024-02-04_09h03.30.783,Unsyncopated_study2,s109,21.0,masculino,right,España,CastellanoCatalán,Bachelor degree,no,no,B,1,when,L4,unsyncopated,when,when,114,Online_whenL4//a.lo19.0.wav,lo,ru,po,sil,pe,bu,re,sil1,nu,bo,sil2,['miss'],,,0.0,beat,,,,lo,1,,,,,,,,,,,,,,,4 ,3.0,catalán,0.0,castellano,0.0,inglés,5.0,francés,10.0,4.0,1.0,yes,no,no,flauta,9,canto,9,guitarra,9,,,"En la fase 1 del experimento 1, creía que todo el rato iba a ser la misma sílaba, así que cerraba los ojos para concentrarme mejor, creyendo que la sílaba de la pantalla no iba a cambiar. En poco tiempo los he abierto y visto que cambiaba.",17.0,yes
115,2024-02-04_09h03.30.783,Unsyncopated_study2,s109,21.0,masculino,right,España,CastellanoCatalán,Bachelor degree,no,no,B,1,when,L4,unsyncopated,when,when,115,Online_whenL4//a.lo18.none.wav,re,ñi,de,sil,nu,bo,ña,sil1,ru,zi,sil2,['-'],,,none,none,,,,lo,1,,,,,,,,,,,,,,,4 ,3.0,catalán,0.0,castellano,0.0,inglés,5.0,francés,10.0,4.0,1.0,yes,no,no,flauta,9,canto,9,guitarra,9,,,"En la fase 1 del experimento 1, creía que todo el rato iba a ser la misma sílaba, así que cerraba los ojos para concentrarme mejor, creyendo que la sílaba de la pantalla no iba a cambiar. En poco tiempo los he abierto y visto que cambiaba.",17.0,yes
116,2024-02-04_09h03.30.783,Unsyncopated_study2,s109,21.0,masculino,right,España,CastellanoCatalán,Bachelor degree,no,no,B,1,when,L4,unsyncopated,when,when,116,Online_whenL4//c.bu20.1332.wav,lo,re,ru,sil,ña,de,bu,sil1,zi,ci,sil2,['catch'],[2.0533999998569925],[2.0533999998569925],1.332,no_beat,0.7213999998569924,0.7213999998569924,"[""space""]",bu,3,,,,,,,,,,,,,,,4 ,3.0,catalán,0.0,castellano,0.0,inglés,5.0,francés,10.0,4.0,1.0,yes,no,no,flauta,9,canto,9,guitarra,9,,,"En la fase 1 del experimento 1, creía que todo el rato iba a ser la misma sílaba, así que cerraba los ojos para concentrarme mejor, creyendo que la sílaba de la pantalla no iba a cambiar. En poco tiempo los he abierto y visto que cambiaba.",17.0,yes
117,2024-02-04_09h03.30.783,Unsyncopated_study2,s109,21.0,masculino,right,España,CastellanoCatalán,Bachelor degree,no,no,B,1,when,L4,unsyncopated,when,when,117,Online_whenL4//c.bu22.none.wav,nu,ci,ña,sil,re,ñi,ru,sil1,zi,pe,sil2,['-'],,,none,none,,,,bu,3,,,,,,,,,,,,,,,4 ,3.0,catalán,0.0,castellano,0.0,inglés,5.0,francés,10.0,4.0,1.0,yes,no,no,flauta,9,canto,9,guitarra,9,,,"En la fase 1 del experimento 1, creía que todo el rato iba a ser la misma sílaba, así que cerraba los ojos para concentrarme mejor, creyendo que la sílaba de la pantalla no iba a cambiar. En poco tiempo los he abierto y visto que cambiaba.",17.0,yes
118,2024-02-04_09h03.30.783,Unsyncopated_study2,s109,21.0,masculino,right,España,CastellanoCatalán,Bachelor degree,no,no,B,1,when,L4,unsyncopated,when,when,118,Online_whenL4//c.bu23.none.wav,ña,nu,pe,sil,ru,ja,bo,sil1,re,ñi,sil2,['-'],,,none,none,,,,bu,3,,,,,,,,,,,,,,,4 ,3.0,catalán,0.0,castellano,0.0,inglés,5.0,francés,10.0,4.0,1.0,yes,no,no,flauta,9,canto,9,guitarra,9,,,"En la fase 1 del experimento 1, creía que todo el rato iba a ser la misma sílaba, así que cerraba los ojos para concentrarme mejor, creyendo que la sílaba de la pantalla no iba a cambiar. En poco tiempo los he abierto y visto que cambiaba.",17.0,yes
119,2024-02-04_09h03.30.783,Unsyncopated_study2,s109,21.0,masculino,right,España,CastellanoCatalán,Bachelor degree,no,no,B,1,when,L4,unsyncopated,when,when,119,Online_whenL4//c.bu21.1332.wav,zi,pe,ci,sil,ña,nu,bu,sil1,bo,ru,sil2,['catch'],[2.0919000000951655],[2.0919000000951655],1.332,no_beat,0.7599000000951655,0.7599000000951655,"[""space""]",bu,3,,,,,,,,,,,,,,,4 ,3.0,catalán,0.0,castellano,0.0,inglés,5.0,francés,10.0,4.0,1.0,yes,no,no,flauta,9,canto,9,guitarra,9,,,"En la fase 1 del experimento 1, creía que todo el rato iba a ser la misma sílaba, así que cerraba los ojos para concentrarme mejor, creyendo que la sílaba de la pantalla no iba a cambiar. En poco tiempo los he abierto y visto que cambiaba.",17.0,yes
120,2024-02-04_09h03.30.783,Unsyncopated_study2,s109,21.0,masculino,right,España,CastellanoCatalán,Bachelor degree,no,no,B,1,when,L4,unsyncopated,when,when,120,Online_whenL4//d.pe27.222.wav,ru,pe,nu,sil,zi,ña,ci,sil1,ñi,bu,sil2,['miss'],,,0.222,no_beat,,,,pe,4,,,,,,,,,,,,,,,4 ,3.0,catalán,0.0,castellano,0.0,inglés,5.0,francés,10.0,4.0,1.0,yes,no,no,flauta,9,canto,9,guitarra,9,,,"En la fase 1 del experimento 1, creía que todo el rato iba a ser la misma sílaba, así que cerraba los ojos para concentrarme mejor, creyendo que la sílaba de la pantalla no iba a cambiar. En poco tiempo los he abierto y visto que cambiaba.",17.0,yes
121,2024-02-04_09h03.30.783,Unsyncopated_study2,s109,21.0,masculino,right,España,CastellanoCatalán,Bachelor degree,no,no,B,1,when,L4,unsyncopated,when,when,121,Online_whenL4//d.pe25.none.wav,re,bu,ja,sil,da,bo,ci,sil1,nu,ru,sil2,['false alarm'],[0.9277000000477074],[0.9277000000477074],none,none,,,"[""space""]",pe,4,,,,,,,,,,,,,,,4 ,3.0,catalán,0.0,castellano,0.0,inglés,5.0,francés,10.0,4.0,1.0,yes,no,no,flauta,9,canto,9,guitarra,9,,,"En la fase 1 del experimento 1, creía que todo el rato iba a ser la misma sílaba, así que cerraba los ojos para concentrarme mejor, creyendo que la sílaba de la pantalla no iba a cambiar. En poco tiempo los he abierto y visto que cambiaba.",17.0,yes
122,2024-02-04_09h03.30.783,Unsyncopated_study2,s109,21.0,masculino,right,España,CastellanoCatalán,Bachelor degree,no,no,B,1,when,L4,unsyncopated,when,when,122,Online_whenL4//d.pe24.0.wav,pe,de,re,sil,zi,ña,bo,sil1,ja,ñi,sil2,['miss'],,,0.0,beat,,,,pe,4,,,,,,,,,,,,,,,4 ,3.0,catalán,0.0,castellano,0.0,inglés,5.0,francés,10.0,4.0,1.0,yes,no,no,flauta,9,canto,9,guitarra,9,,,"En la fase 1 del experimento 1, creía que todo el rato iba a ser la misma sílaba, así que cerraba los ojos para concentrarme mejor, creyendo que la sílaba de la pantalla no iba a cambiar. En poco tiempo los he abierto y visto que cambiaba.",17.0,yes
123,2024-02-04_09h03.30.783,Unsyncopated_study2,s109,21.0,masculino,right,España,CastellanoCatalán,Bachelor degree,no,no,B,1,when,L4,unsyncopated,when,when,123,Online_whenL4//d.pe26.none.wav,lo,re,ña,sil,bo,po,ñi,sil1,zi,da,sil2,['-'],,,none,none,,,,pe,4,,,,,,,,,,,,,,,4 ,3.0,catalán,0.0,castellano,0.0,inglés,5.0,francés,10.0,4.0,1.0,yes,no,no,flauta,9,canto,9,guitarra,9,,,"En la fase 1 del experimento 1, creía que todo el rato iba a ser la misma sílaba, así que cerraba los ojos para concentrarme mejor, creyendo que la sílaba de la pantalla no iba a cambiar. En poco tiempo los he abierto y visto que cambiaba.",17.0,yes
124,2024-02-04_09h03.30.783,Unsyncopated_study2,s109,21.0,masculino,right,España,CastellanoCatalán,Bachelor degree,no,no,B,1,when,L4,unsyncopated,when,when,124,Online_whenL4//b.ja31.1332.wav,ci,re,da,sil,lo,pe,ja,sil1,de,ñi,sil2,['catch'],[2.3649000000953038],[2.3649000000953038],1.332,no_beat,1.0329000000953037,1.0329000000953037,"[""space""]",ja,2,,,,,,,,,,,,,,,4 ,3.0,catalán,0.0,castellano,0.0,inglés,5.0,francés,10.0,4.0,1.0,yes,no,no,flauta,9,canto,9,guitarra,9,,,"En la fase 1 del experimento 1, creía que todo el rato iba a ser la misma sílaba, así que cerraba los ojos para concentrarme mejor, creyendo que la sílaba de la pantalla no iba a cambiar. En poco tiempo los he abierto y visto que cambiaba.",17.0,yes
125,2024-02-04_09h03.30.783,Unsyncopated_study2,s109,21.0,masculino,right,España,CastellanoCatalán,Bachelor degree,no,no,B,1,when,L4,unsyncopated,when,when,125,Online_whenL4//b.ja30.none.wav,zi,ci,de,sil,bo,da,lo,sil1,re,bu,sil2,['-'],,,none,none,,,,ja,2,,,,,,,,,,,,,,,4 ,3.0,catalán,0.0,castellano,0.0,inglés,5.0,francés,10.0,4.0,1.0,yes,no,no,flauta,9,canto,9,guitarra,9,,,"En la fase 1 del experimento 1, creía que todo el rato iba a ser la misma sílaba, así que cerraba los ojos para concentrarme mejor, creyendo que la sílaba de la pantalla no iba a cambiar. En poco tiempo los he abierto y visto que cambiaba.",17.0,yes
126,2024-02-04_09h03.30.783,Unsyncopated_study2,s109,21.0,masculino,right,España,CastellanoCatalán,Bachelor degree,no,no,B,1,when,L4,unsyncopated,when,when,126,Online_whenL4//b.ja28.1776.wav,ru,po,bu,sil,bo,da,lo,sil1,ja,pe,sil2,['miss'],,,1.776,beat,,,,ja,2,,,,,,,,,,,,,,,4 ,3.0,catalán,0.0,castellano,0.0,inglés,5.0,francés,10.0,4.0,1.0,yes,no,no,flauta,9,canto,9,guitarra,9,,,"En la fase 1 del experimento 1, creía que todo el rato iba a ser la misma sílaba, así que cerraba los ojos para concentrarme mejor, creyendo que la sílaba de la pantalla no iba a cambiar. En poco tiempo los he abierto y visto que cambiaba.",17.0,yes
127,2024-02-04_09h03.30.783,Unsyncopated_study2,s109,21.0,masculino,right,España,CastellanoCatalán,Bachelor degree,no,no,B,1,when,L4,unsyncopated,when,when,127,Online_whenL4//b.ja29.none.wav,bu,da,nu,sil,ci,ru,ña,sil1,lo,bo,sil2,['false alarm'],[0.456900000095402],[0.456900000095402],none,none,,,"[""space""]",ja,2,,,,,,,,,,,,,,,4 ,3.0,catalán,0.0,castellano,0.0,inglés,5.0,francés,10.0,4.0,1.0,yes,no,no,flauta,9,canto,9,guitarra,9,,,"En la fase 1 del experimento 1, creía que todo el rato iba a ser la misma sílaba, así que cerraba los ojos para concentrarme mejor, creyendo que la sílaba de la pantalla no iba a cambiar. En poco tiempo los he abierto y visto que cambiaba.",17.0,yes
128,2024-02-04_09h03.30.783,Unsyncopated_study2,s109,21.0,masculino,right,España,CastellanoCatalán,Bachelor degree,no,no,B,1,when,L4,unsyncopated,when,when,128,Online_whenL4//c.bu1.none.wav,lo,pe,po,sil,ci,ja,de,sil1,bo,ru,sil2,['-'],,,none,none,,,,bu,3,,,,,,,,,,,,,,,4 ,3.0,catalán,0.0,castellano,0.0,inglés,5.0,francés,10.0,4.0,1.0,yes,no,no,flauta,9,canto,9,guitarra,9,,,"En la fase 1 del experimento 1, creía que todo el rato iba a ser la misma sílaba, así que cerraba los ojos para concentrarme mejor, creyendo que la sílaba de la pantalla no iba a cambiar. En poco tiempo los he abierto y visto que cambiaba.",17.0,yes
129,2024-02-04_09h03.30.783,Unsyncopated_study2,s109,21.0,masculino,right,España,CastellanoCatalán,Bachelor degree,no,no,B,1,when,L4,unsyncopated,when,when,129,Online_whenL4//c.bu3.none.wav,ja,de,pe,sil,ña,ñi,bo,sil1,nu,po,sil2,['false alarm'],[2.6397000000476964],[2.6397000000476964],none,none,,,"[""space""]",bu,3,,,,,,,,,,,,,,,4 ,3.0,catalán,0.0,castellano,0.0,inglés,5.0,francés,10.0,4.0,1.0,yes,no,no,flauta,9,canto,9,guitarra,9,,,"En la fase 1 del experimento 1, creía que todo el rato iba a ser la misma sílaba, así que cerraba los ojos para concentrarme mejor, creyendo que la sílaba de la pantalla no iba a cambiar. En poco tiempo los he abierto y visto que cambiaba.",17.0,yes
130,2024-02-04_09h03.30.783,Unsyncopated_study2,s109,21.0,masculino,right,España,CastellanoCatalán,Bachelor degree,no,no,B,1,when,L4,unsyncopated,when,when,130,Online_whenL4//c.bu2.1110.wav,lo,bo,ci,sil,da,bu,ñi,sil1,ja,de,sil2,['miss'],,,1.11,no_beat,,,,bu,3,,,,,,,,,,,,,,,4 ,3.0,catalán,0.0,castellano,0.0,inglés,5.0,francés,10.0,4.0,1.0,yes,no,no,flauta,9,canto,9,guitarra,9,,,"En la fase 1 del experimento 1, creía que todo el rato iba a ser la misma sílaba, así que cerraba los ojos para concentrarme mejor, creyendo que la sílaba de la pantalla no iba a cambiar. En poco tiempo los he abierto y visto que cambiaba.",17.0,yes
131,2024-02-04_09h03.30.783,Unsyncopated_study2,s109,21.0,masculino,right,España,CastellanoCatalán,Bachelor degree,no,no,B,1,when,L4,unsyncopated,when,when,131,Online_whenL4//c.bu0.888.wav,ci,ñi,ja,sil,bu,da,ru,sil1,po,nu,sil2,['catch'],[2.0624000000952947],[2.0624000000952947],0.888,beat,1.1744000000952948,1.1744000000952948,"[""space""]",bu,3,,,,,,,,,,,,,,,4 ,3.0,catalán,0.0,castellano,0.0,inglés,5.0,francés,10.0,4.0,1.0,yes,no,no,flauta,9,canto,9,guitarra,9,,,"En la fase 1 del experimento 1, creía que todo el rato iba a ser la misma sílaba, así que cerraba los ojos para concentrarme mejor, creyendo que la sílaba de la pantalla no iba a cambiar. En poco tiempo los he abierto y visto que cambiaba.",17.0,yes
132,2024-02-04_09h03.30.783,Unsyncopated_study2,s109,21.0,masculino,right,España,CastellanoCatalán,Bachelor degree,no,no,B,1,when,L4,unsyncopated,when,when,132,Online_whenL4//b.ja8.1998.wav,nu,de,da,sil,re,pe,ña,sil1,bu,ja,sil2,['catch'],[2.5455999999046526],[2.5455999999046526],1.998,no_beat,0.5475999999046526,0.5475999999046526,"[""space""]",ja,2,,,,,,,,,,,,,,,4 ,3.0,catalán,0.0,castellano,0.0,inglés,5.0,francés,10.0,4.0,1.0,yes,no,no,flauta,9,canto,9,guitarra,9,,,"En la fase 1 del experimento 1, creía que todo el rato iba a ser la misma sílaba, así que cerraba los ojos para concentrarme mejor, creyendo que la sílaba de la pantalla no iba a cambiar. En poco tiempo los he abierto y visto que cambiaba.",17.0,yes
133,2024-02-04_09h03.30.783,Unsyncopated_study2,s109,21.0,masculino,right,España,CastellanoCatalán,Bachelor degree,no,no,B,1,when,L4,unsyncopated,when,when,133,Online_whenL4//b.ja11.444.wav,po,da,ja,sil,nu,ru,bo,sil1,pe,de,sil2,['miss'],,,0.444,no_beat,,,,ja,2,,,,,,,,,,,,,,,4 ,3.0,catalán,0.0,castellano,0.0,inglés,5.0,francés,10.0,4.0,1.0,yes,no,no,flauta,9,canto,9,guitarra,9,,,"En la fase 1 del experimento 1, creía que todo el rato iba a ser la misma sílaba, así que cerraba los ojos para concentrarme mejor, creyendo que la sílaba de la pantalla no iba a cambiar. En poco tiempo los he abierto y visto que cambiaba.",17.0,yes
134,2024-02-04_09h03.30.783,Unsyncopated_study2,s109,21.0,masculino,right,España,CastellanoCatalán,Bachelor degree,no,no,B,1,when,L4,unsyncopated,when,when,134,Online_whenL4//b.ja10.none.wav,bu,lo,pe,sil,zi,po,ru,sil1,ci,de,sil2,['-'],,,none,none,,,,ja,2,,,,,,,,,,,,,,,4 ,3.0,catalán,0.0,castellano,0.0,inglés,5.0,francés,10.0,4.0,1.0,yes,no,no,flauta,9,canto,9,guitarra,9,,,"En la fase 1 del experimento 1, creía que todo el rato iba a ser la misma sílaba, así que cerraba los ojos para concentrarme mejor, creyendo que la sílaba de la pantalla no iba a cambiar. En poco tiempo los he abierto y visto que cambiaba.",17.0,yes
