Unnamed: 0,date,expName,participant,age,sex,hand,residence,native_lang,education_level,lang_deficit,aud_deficit,group,block,condition,language,rhythm,rule structure online,rule type online,order_trial_on,trial_online,s1,s2,s3,s4,s5,s6,s7,s8,s9,s10,s11,catch_syll_resp,rts_syll_catch,clean_rts,time_syll,beat_no_beat,catch_rtsTR,catch_rts,syllable_catch.keys,cond_syll,syll_to_catch,test_offline,block_off,condition_off,rhythm_off,rule,rule_str_off,rule_norule,conds_offline,language_off,Partz_no_partm.keys,Partz_no_partm.rt,security_1_7.keys,accuracy,security_1_7.rt,n_lang,n_lang_used,lang_1,age_l1,lang_2,age_l2,lang_3,age_l3,lang_4,age_l4,ability_learn_l2,tendence_mix_lan,music_experience,muisc_use,partiture,instr_1,age_M1,preguntas_musica1,BMRQ_answer.response,final comment,BMRQ_Score,bilingual
0,2023-07-16_10h20.02.632,Unsyncopated1,s8,18.0,masculino,left,España,"Español, catalán",Upper secondary,no,no,A,1,conjunction_un,L1,unsyncopated,s1,r1,0,Online_conjL1_un//c.ro.fo15.none.none.wav,pu,la,ri,sil,ki,lu,zu,sil1,cho,ni,sil2,['-'],,,none,none,,,,ro,3,testConjL1Uns//cat_viol.r2.s1.0.wav,1.0,conjunction_un,unsyncopated,b,s1,no_rule,cat,L1,z,6.9233,5.0,0.0,3.4506,4 ,3.0,Español,1.0,Catalán,1.0,Inglés,10.0,Francés,14.0,3.0,2.0,yes,no,yes,Piano,10,1. Cuando comparto música con alguien siento una complicidad especial con aquella persona.,1.0,Me han interrumpido y distraído una vez durante el experimento. ,47.0,yes
1,2023-07-16_10h20.02.632,Unsyncopated1,s8,18.0,masculino,left,España,"Español, catalán",Upper secondary,no,no,A,1,conjunction_un,L1,unsyncopated,s1,r2,1,Online_conjL1_un//c.ro.fo13.1332.222.wav,ta,fo,fa,sil,be,ri,ro,sil1,ne,cho,sil2,['catch'],[1.7969999999999118],[1.7969999999999118],1.332,no_beat,0.4649999999999117,0.4649999999999117,"[""space""]",ro,3,testConjL1Uns//r2.s2.2.wav,1.0,conjunction_un,unsyncopated,b,s2,rule,rule,L1,m,1.7346,5.0,0.0,2.1008,4 ,3.0,Español,1.0,Catalán,1.0,Inglés,10.0,Francés,14.0,3.0,2.0,yes,no,yes,Piano,10,2. En mi tiempo libre apenas escucho música.,4.0,Me han interrumpido y distraído una vez durante el experimento. ,47.0,yes
2,2023-07-16_10h20.02.632,Unsyncopated1,s8,18.0,masculino,left,España,"Español, catalán",Upper secondary,no,no,A,1,conjunction_un,L1,unsyncopated,s2,r2,2,Online_conjL1_un//c.ro.fo14.none.none.wav,ne,ze,ri,sil,ta,ni,lu,sil1,be,fa,sil2,['-'],,,none,none,,,,ro,3,testConjL1Uns//r1.s2.1.wav,1.0,conjunction_un,unsyncopated,a,s2,rule,rule,L1,z,0.9843,6.0,1.0,1.367,4 ,3.0,Español,1.0,Catalán,1.0,Inglés,10.0,Francés,14.0,3.0,2.0,yes,no,yes,Piano,10,3. Algunas canciones me ponen los pelos de punta,3.0,Me han interrumpido y distraído una vez durante el experimento. ,47.0,yes
3,2023-07-16_10h20.02.632,Unsyncopated1,s8,18.0,masculino,left,España,"Español, catalán",Upper secondary,no,no,A,1,conjunction_un,L1,unsyncopated,s2,r1,3,Online_conjL1_un//c.ro.fo12.222.1110.wav,lu,ro,cho,sil,pu,fo,ze,sil1,ki,la,sil2,"['catch', 'false alarm']","[0.7816000000237864, 1.2818000000714846]",[0.7816000000237864],0.222,no_beat,0.5596000000237864,0.5596000000237864,"[""space"",""space""]",ro,3,testConjL1Uns//dep_viol.r1.s2.0.wav,1.0,conjunction_un,unsyncopated,a,s2,no_rule,dep,L1,z,2.3342,4.0,0.0,1.2015,4 ,3.0,Español,1.0,Catalán,1.0,Inglés,10.0,Francés,14.0,3.0,2.0,yes,no,yes,Piano,10,4. La música me hace compañía cuando estoy solo,4.0,Me han interrumpido y distraído una vez durante el experimento. ,47.0,yes
4,2023-07-16_10h20.02.632,Unsyncopated1,s8,18.0,masculino,left,España,"Español, catalán",Upper secondary,no,no,A,1,conjunction_un,L1,unsyncopated,s2,r2,4,Online_conjL1_un//b.ta.be24.888.1776.wav,ze,ne,ri,sil,ta,fa,la,sil1,be,fo,sil2,['miss'],,,0.888,beat,,,,ta,1,testConjL1Uns//time_viol.r2.s1.0.wav,1.0,conjunction_un,unsyncopated,b,s1,no_rule,time,L1,m,0.9508,4.0,1.0,0.752,4 ,3.0,Español,1.0,Catalán,1.0,Inglés,10.0,Francés,14.0,3.0,2.0,yes,no,yes,Piano,10,5. No me apetece bailar ni con la música que más me gusta,2.0,Me han interrumpido y distraído una vez durante el experimento. ,47.0,yes
5,2023-07-16_10h20.02.632,Unsyncopated1,s8,18.0,masculino,left,España,"Español, catalán",Upper secondary,no,no,A,1,conjunction_un,L1,unsyncopated,s2,r2,5,Online_conjL1_un//b.ta.be26.888.1776.wav,ni,ri,fa,sil,ta,zu,lu,sil1,be,ze,sil2,['catch'],[1.2313999999762473],[1.2313999999762473],0.888,beat,0.3433999999762472,0.3433999999762472,"[""space""]",ta,1,testConjL1Uns//r1.s2.0.wav,1.0,conjunction_un,unsyncopated,a,s2,rule,rule,L1,z,1.8004,4.0,1.0,1.1012,4 ,3.0,Español,1.0,Catalán,1.0,Inglés,10.0,Francés,14.0,3.0,2.0,yes,no,yes,Piano,10,6. La música me hace conectar con la gente,1.0,Me han interrumpido y distraído una vez durante el experimento. ,47.0,yes
6,2023-07-16_10h20.02.632,Unsyncopated1,s8,18.0,masculino,left,España,"Español, catalán",Upper secondary,no,no,A,1,conjunction_un,L1,unsyncopated,s2,r2,6,Online_conjL1_un//b.ta.be27.888.1776.wav,fo,ni,lu,sil,ta,ne,ro,sil1,be,fa,sil2,['catch'],[1.1797999999522517],[1.1797999999522517],0.888,beat,0.2917999999522517,0.2917999999522517,"[""space""]",ta,1,testConjL1Uns//r1.s2.2.wav,1.0,conjunction_un,unsyncopated,a,s2,rule,rule,L1,z,4.5841,3.0,1.0,3.2506,4 ,3.0,Español,1.0,Catalán,1.0,Inglés,10.0,Francés,14.0,3.0,2.0,yes,no,yes,Piano,10,7. Me informo sobre la música que me gusta.,2.0,Me han interrumpido y distraído una vez durante el experimento. ,47.0,yes
7,2023-07-16_10h20.02.632,Unsyncopated1,s8,18.0,masculino,left,España,"Español, catalán",Upper secondary,no,no,A,1,conjunction_un,L1,unsyncopated,s1,r2,7,Online_conjL1_un//b.ta.be25.0.888.wav,ta,la,lu,sil,be,cho,zu,sil1,ne,ro,sil2,['catch'],[0.3983999999761636],[0.3983999999761636],0.0,beat,0.3983999999761636,0.3983999999761636,"[""space""]",ta,1,testConjL1Uns//time_viol.r2.s2.0.wav,1.0,conjunction_un,unsyncopated,b,s2,no_rule,time,L1,z,0.7349,6.0,0.0,0.8348,4 ,3.0,Español,1.0,Catalán,1.0,Inglés,10.0,Francés,14.0,3.0,2.0,yes,no,yes,Piano,10,8.Me emociono escuchando ciertas canciones.,4.0,Me han interrumpido y distraído una vez durante el experimento. ,47.0,yes
8,2023-07-16_10h20.02.632,Unsyncopated1,s8,18.0,masculino,left,España,"Español, catalán",Upper secondary,no,no,A,1,conjunction_un,L1,unsyncopated,s1,r2,8,Online_conjL1_un//b.ta.be12.0.888.wav,ta,lu,fa,sil,be,ri,la,sil1,fo,zu,sil2,['miss'],,,0.0,beat,,,,ta,1,testConjL1Uns//time_viol.r1.s2.0.wav,1.0,conjunction_un,unsyncopated,a,s2,no_rule,time,L1,m,0.9684,3.0,1.0,0.901,4 ,3.0,Español,1.0,Catalán,1.0,Inglés,10.0,Francés,14.0,3.0,2.0,yes,no,yes,Piano,10,9.La música me tranquiliza y me relaja.,4.0,Me han interrumpido y distraído una vez durante el experimento. ,47.0,yes
9,2023-07-16_10h20.02.632,Unsyncopated1,s8,18.0,masculino,left,España,"Español, catalán",Upper secondary,no,no,A,1,conjunction_un,L1,unsyncopated,s1,r1,9,Online_conjL1_un//b.ta.be14.none.none.wav,pu,ri,la,sil,ki,cho,fo,sil1,lu,ze,sil2,['false alarm'],[0.5815000000000055],[0.5815000000000055],none,none,,,"[""space""]",ta,1,testConjL1Uns//cat_viol.r2.s2.0.wav,1.0,conjunction_un,unsyncopated,b,s2,no_rule,cat,L1,m,1.485,4.0,1.0,0.9009,4 ,3.0,Español,1.0,Catalán,1.0,Inglés,10.0,Francés,14.0,3.0,2.0,yes,no,yes,Piano,10,10.La música me hace bailar,1.0,Me han interrumpido y distraído una vez durante el experimento. ,47.0,yes
10,2023-07-16_10h20.02.632,Unsyncopated1,s8,18.0,masculino,left,España,"Español, catalán",Upper secondary,no,no,A,1,conjunction_un,L1,unsyncopated,s1,r1,10,Online_conjL1_un//b.ta.be13.none.none.wav,pu,zu,fo,sil,ki,fa,ri,sil1,ro,ne,sil2,['false alarm'],[1.5638999999761154],[1.5638999999761154],none,none,,,"[""space""]",ta,1,testConjL1Uns//r2.s1.0.wav,1.0,conjunction_un,unsyncopated,b,s1,rule,rule,L1,z,1.1668,6.0,1.0,0.9008,4 ,3.0,Español,1.0,Catalán,1.0,Inglés,10.0,Francés,14.0,3.0,2.0,yes,no,yes,Piano,10,11.Busco novedades musicales continuamente,2.0,Me han interrumpido y distraído una vez durante el experimento. ,47.0,yes
11,2023-07-16_10h20.02.632,Unsyncopated1,s8,18.0,masculino,left,España,"Español, catalán",Upper secondary,no,no,A,1,conjunction_un,L1,unsyncopated,s2,r1,11,Online_conjL1_un//b.ta.be15.none.none.wav,fa,ri,cho,sil,pu,ne,la,sil1,ki,zu,sil2,['-'],,,none,none,,,,ta,1,testConjL1Uns//r1.s1.0.wav,1.0,conjunction_un,unsyncopated,a,s1,rule,rule,L1,m,0.2837,5.0,0.0,0.6337,4 ,3.0,Español,1.0,Catalán,1.0,Inglés,10.0,Francés,14.0,3.0,2.0,yes,no,yes,Piano,10,12. Puedo llorar cuando escucho algunas melodías que me gustan mucho.,2.0,Me han interrumpido y distraído una vez durante el experimento. ,47.0,yes
12,2023-07-16_10h20.02.632,Unsyncopated1,s8,18.0,masculino,left,España,"Español, catalán",Upper secondary,no,no,A,1,conjunction_un,L1,unsyncopated,s2,r2,12,Online_conjL1_un//d.ne.ni27.1110.0.wav,ni,fa,ri,sil,ta,ne,zu,sil1,be,la,sil2,['catch'],[1.55860000002383],[1.55860000002383],1.11,no_beat,0.4486000000238299,0.4486000000238299,"[""space""]",ne,4,testConjL1Uns//cat_viol.r1.s1.0.wav,1.0,conjunction_un,unsyncopated,a,s1,no_rule,cat,L1,m,1.2168,4.0,1.0,0.3514,4 ,3.0,Español,1.0,Catalán,1.0,Inglés,10.0,Francés,14.0,3.0,2.0,yes,no,yes,Piano,10,13. Me gusta cantar o tocar un instrumento con más gente,1.0,Me han interrumpido y distraído una vez durante el experimento. ,47.0,yes
13,2023-07-16_10h20.02.632,Unsyncopated1,s8,18.0,masculino,left,España,"Español, catalán",Upper secondary,no,no,A,1,conjunction_un,L1,unsyncopated,s2,r1,13,Online_conjL1_un//d.ne.ni24.1110.222.wav,ri,ni,fa,sil,pu,ne,ro,sil1,ki,fo,sil2,['catch'],[1.632100000023911],[1.632100000023911],1.11,no_beat,0.5221000000239109,0.5221000000239109,"[""space""]",ne,4,testConjL1Uns//time_viol.r1.s1.0.wav,1.0,conjunction_un,unsyncopated,a,s1,no_rule,time,L1,z,0.8508,5.0,0.0,0.6681,4 ,3.0,Español,1.0,Catalán,1.0,Inglés,10.0,Francés,14.0,3.0,2.0,yes,no,yes,Piano,10,14. La música me ayuda a desconectar.,4.0,Me han interrumpido y distraído una vez durante el experimento. ,47.0,yes
14,2023-07-16_10h20.02.632,Unsyncopated1,s8,18.0,masculino,left,España,"Español, catalán",Upper secondary,no,no,A,1,conjunction_un,L1,unsyncopated,s1,r2,14,Online_conjL1_un//d.ne.ni25.none.none.wav,ta,fa,ze,sil,be,ro,lu,sil1,la,fo,sil2,['false alarm'],[0.5486000000238391],[0.5486000000238391],none,none,,,"[""space""]",ne,4,testConjL1Uns//r2.s1.2.wav,1.0,conjunction_un,unsyncopated,b,s1,rule,rule,L1,z,0.4013,5.0,1.0,0.9508,4 ,3.0,Español,1.0,Catalán,1.0,Inglés,10.0,Francés,14.0,3.0,2.0,yes,no,yes,Piano,10,15. No puedo evitar tararear las canciones que me gustan cuando las escucho.,3.0,Me han interrumpido y distraído una vez durante el experimento. ,47.0,yes
15,2023-07-16_10h20.02.632,Unsyncopated1,s8,18.0,masculino,left,España,"Español, catalán",Upper secondary,no,no,A,1,conjunction_un,L1,unsyncopated,s2,r1,15,Online_conjL1_un//d.ne.ni26.none.none.wav,lu,ri,ro,sil,pu,cho,fa,sil1,ki,ze,sil2,['-'],,,none,none,,,,ne,4,testConjL1Uns//r1.s1.2.wav,1.0,conjunction_un,unsyncopated,a,s1,rule,rule,L1,z,0.8849,6.0,1.0,0.901,4 ,3.0,Español,1.0,Catalán,1.0,Inglés,10.0,Francés,14.0,3.0,2.0,yes,no,yes,Piano,10,16. En los conciertos me siento en sintonía con los artistas y el público.,2.0,Me han interrumpido y distraído una vez durante el experimento. ,47.0,yes
16,2023-07-16_10h20.02.632,Unsyncopated1,s8,18.0,masculino,left,España,"Español, catalán",Upper secondary,no,no,A,1,conjunction_un,L1,unsyncopated,s2,r1,16,Online_conjL1_un//b.ta.be6.none.none.wav,la,fo,cho,sil,pu,fa,ro,sil1,ki,ze,sil2,['false alarm'],[0.37110000002383003],[0.37110000002383003],none,none,,,"[""space""]",ta,1,testConjL1Uns//r2.s2.0.wav,1.0,conjunction_un,unsyncopated,b,s2,rule,rule,L1,m,0.2919,4.0,0.0,0.3682,4 ,3.0,Español,1.0,Catalán,1.0,Inglés,10.0,Francés,14.0,3.0,2.0,yes,no,yes,Piano,10,17. Me gasto bastante dinero en música y cosas relacionadas con la música.,2.0,Me han interrumpido y distraído una vez durante el experimento. ,47.0,yes
17,2023-07-16_10h20.02.632,Unsyncopated1,s8,18.0,masculino,left,España,"Español, catalán",Upper secondary,no,no,A,1,conjunction_un,L1,unsyncopated,s2,r1,17,Online_conjL1_un//b.ta.be5.none.none.wav,ri,ni,fo,sil,pu,la,ze,sil1,ki,zu,sil2,['-'],,,none,none,,,,ta,1,testConjL1Uns//r2.s1.1.wav,1.0,conjunction_un,unsyncopated,b,s1,rule,rule,L1,m,0.4015,5.0,0.0,0.4343,4 ,3.0,Español,1.0,Catalán,1.0,Inglés,10.0,Francés,14.0,3.0,2.0,yes,no,yes,Piano,10,18. Siento escalofríos cuando escucho una melodía que me gusta.,1.0,Me han interrumpido y distraído una vez durante el experimento. ,47.0,yes
18,2023-07-16_10h20.02.632,Unsyncopated1,s8,18.0,masculino,left,España,"Español, catalán",Upper secondary,no,no,A,1,conjunction_un,L1,unsyncopated,s2,r2,18,Online_conjL1_un//b.ta.be4.888.1776.wav,fa,ri,cho,sil,ta,ni,ze,sil1,be,ro,sil2,['miss'],,,0.888,beat,,,,ta,1,testConjL1Uns//cat_viol.r1.s2.0.wav,1.0,conjunction_un,unsyncopated,a,s2,no_rule,cat,L1,m,1.1008,5.0,1.0,0.4509,4 ,3.0,Español,1.0,Catalán,1.0,Inglés,10.0,Francés,14.0,3.0,2.0,yes,no,yes,Piano,10,19. Con la música me puedo desahogar.,3.0,Me han interrumpido y distraído una vez durante el experimento. ,47.0,yes
19,2023-07-16_10h20.02.632,Unsyncopated1,s8,18.0,masculino,left,España,"Español, catalán",Upper secondary,no,no,A,1,conjunction_un,L1,unsyncopated,s2,r1,19,Online_conjL1_un//b.ta.be7.none.none.wav,zu,fa,lu,sil,pu,fo,ri,sil1,ki,ne,sil2,['-'],,,none,none,,,,ta,1,testConjL1Uns//dep_viol.r2.s1.0.wav,1.0,conjunction_un,unsyncopated,b,s1,no_rule,dep,L1,z,0.4846,5.0,0.0,0.5506,4 ,3.0,Español,1.0,Catalán,1.0,Inglés,10.0,Francés,14.0,3.0,2.0,yes,no,yes,Piano,10,20. Cuando escucho una melodía que me gusta mucho no puedo evitar mover el cuerpo.,1.0,Me han interrumpido y distraído una vez durante el experimento. ,47.0,yes
20,2023-07-16_10h20.02.632,Unsyncopated1,s8,18.0,masculino,left,España,"Español, catalán",Upper secondary,no,no,A,1,conjunction_un,L1,unsyncopated,s2,r2,20,Online_conjL1_un//d.ne.ni29.0.444.wav,ne,ro,ni,sil,ta,fa,cho,sil1,be,ri,sil2,['catch'],[2.223399999976209],[2.223399999976209],0.0,beat,,2.223399999976209,"[""space""]",ne,4,testConjL1Uns//r1.s1.1.wav,1.0,conjunction_un,unsyncopated,a,s1,rule,rule,L1,z,1.6016,4.0,1.0,0.6851,4 ,3.0,Español,1.0,Catalán,1.0,Inglés,10.0,Francés,14.0,3.0,2.0,yes,no,yes,Piano,10,,,Me han interrumpido y distraído una vez durante el experimento. ,47.0,yes
21,2023-07-16_10h20.02.632,Unsyncopated1,s8,18.0,masculino,left,España,"Español, catalán",Upper secondary,no,no,A,1,conjunction_un,L1,unsyncopated,s1,r1,21,Online_conjL1_un//d.ne.ni30.none.none.wav,pu,la,ro,sil,ki,ze,fa,sil1,ri,lu,sil2,['false alarm'],[0.36589999997625],[0.36589999997625],none,none,,,"[""space""]",ne,4,testConjL1Uns//r2.s2.1.wav,1.0,conjunction_un,unsyncopated,b,s2,rule,rule,L1,z,0.4175,4.0,1.0,0.8511,4 ,3.0,Español,1.0,Catalán,1.0,Inglés,10.0,Francés,14.0,3.0,2.0,yes,no,yes,Piano,10,,,Me han interrumpido y distraído una vez durante el experimento. ,47.0,yes
22,2023-07-16_10h20.02.632,Unsyncopated1,s8,18.0,masculino,left,España,"Español, catalán",Upper secondary,no,no,A,1,conjunction_un,L1,unsyncopated,s1,r1,22,Online_conjL1_un//d.ne.ni28.none.none.wav,pu,ro,ri,sil,ki,la,zu,sil1,lu,cho,sil2,['-'],,,none,none,,,,ne,4,testConjL1Uns//dep_viol.r1.s1.0.wav,1.0,conjunction_un,unsyncopated,a,s1,no_rule,dep,L1,m,0.451,4.0,1.0,1.7013,4 ,3.0,Español,1.0,Catalán,1.0,Inglés,10.0,Francés,14.0,3.0,2.0,yes,no,yes,Piano,10,,,Me han interrumpido y distraído una vez durante el experimento. ,47.0,yes
23,2023-07-16_10h20.02.632,Unsyncopated1,s8,18.0,masculino,left,España,"Español, catalán",Upper secondary,no,no,A,1,conjunction_un,L1,unsyncopated,s1,r2,23,Online_conjL1_un//d.ne.ni31.none.none.wav,ta,ro,cho,sil,be,ri,lu,sil1,fo,fa,sil2,['false alarm'],[1.609199999928478],[1.609199999928478],none,none,,,"[""space""]",ne,4,testConjL1Uns//dep_viol.r2.s2.0.wav,1.0,conjunction_un,unsyncopated,b,s2,no_rule,dep,L1,m,1.6762,4.0,1.0,0.3338,4 ,3.0,Español,1.0,Catalán,1.0,Inglés,10.0,Francés,14.0,3.0,2.0,yes,no,yes,Piano,10,,,Me han interrumpido y distraído una vez durante el experimento. ,47.0,yes
24,2023-07-16_10h20.02.632,Unsyncopated1,s8,18.0,masculino,left,España,"Español, catalán",Upper secondary,no,no,A,1,conjunction_un,L1,unsyncopated,s2,r1,24,Online_conjL1_un//a.pu.ki26.888.1776.wav,zu,ze,cho,sil,pu,ni,ne,sil1,ki,fo,sil2,['catch'],[2.1102999999523036],[2.1102999999523036],1.776,beat,0.3342999999523035,0.3342999999523035,"[""space""]",ki,2,testConjL4Syn//time_viol.r1.s2.0.wav,2.0,conjunction_syn,syncopated,a,s2,no_rule,time,L4,z,1.3343,4.0,0.0,0.5951,4 ,3.0,Español,1.0,Catalán,1.0,Inglés,10.0,Francés,14.0,3.0,2.0,yes,no,yes,Piano,10,,,Me han interrumpido y distraído una vez durante el experimento. ,47.0,yes
25,2023-07-16_10h20.02.632,Unsyncopated1,s8,18.0,masculino,left,España,"Español, catalán",Upper secondary,no,no,A,1,conjunction_un,L1,unsyncopated,s1,r2,25,Online_conjL1_un//a.pu.ki24.none.none.wav,ta,lu,ri,sil,be,la,zu,sil1,fa,ze,sil2,['-'],,,none,none,,,,ki,2,testConjL4Syn//cat_viol.r1.s2.0.wav,2.0,conjunction_syn,syncopated,a,s2,no_rule,cat,L4,m,0.4175,4.0,1.0,1.0509,4 ,3.0,Español,1.0,Catalán,1.0,Inglés,10.0,Francés,14.0,3.0,2.0,yes,no,yes,Piano,10,,,Me han interrumpido y distraído una vez durante el experimento. ,47.0,yes
26,2023-07-16_10h20.02.632,Unsyncopated1,s8,18.0,masculino,left,España,"Español, catalán",Upper secondary,no,no,A,1,conjunction_un,L1,unsyncopated,s1,r2,26,Online_conjL1_un//a.pu.ki27.none.none.wav,ta,fa,ro,sil,be,ze,ni,sil1,lu,fo,sil2,['-'],,,none,none,,,,ki,2,testConjL4Syn//r1.s1.0.wav,2.0,conjunction_syn,syncopated,a,s1,rule,rule,L4,m,1.3509,5.0,0.0,1.3517,4 ,3.0,Español,1.0,Catalán,1.0,Inglés,10.0,Francés,14.0,3.0,2.0,yes,no,yes,Piano,10,,,Me han interrumpido y distraído una vez durante el experimento. ,47.0,yes
27,2023-07-16_10h20.02.632,Unsyncopated1,s8,18.0,masculino,left,España,"Español, catalán",Upper secondary,no,no,A,1,conjunction_un,L1,unsyncopated,s1,r2,27,Online_conjL1_un//a.pu.ki25.none.none.wav,ta,lu,la,sil,be,cho,ro,sil1,ni,zu,sil2,['-'],,,none,none,,,,ki,2,testConjL4Syn//time_viol.r2.s1.0.wav,2.0,conjunction_syn,syncopated,b,s1,no_rule,time,L4,z,0.5337,4.0,0.0,0.5338,4 ,3.0,Español,1.0,Catalán,1.0,Inglés,10.0,Francés,14.0,3.0,2.0,yes,no,yes,Piano,10,,,Me han interrumpido y distraído una vez durante el experimento. ,47.0,yes
28,2023-07-16_10h20.02.632,Unsyncopated1,s8,18.0,masculino,left,España,"Español, catalán",Upper secondary,no,no,A,1,conjunction_un,L1,unsyncopated,s2,r2,28,Online_conjL1_un//c.ro.fo19.none.none.wav,cho,ne,zu,sil,ta,fa,lu,sil1,be,ze,sil2,['-'],,,none,none,,,,ro,3,testConjL4Syn//r2.s2.0.wav,2.0,conjunction_syn,syncopated,b,s2,rule,rule,L4,m,0.8176,4.0,0.0,0.2672,4 ,3.0,Español,1.0,Catalán,1.0,Inglés,10.0,Francés,14.0,3.0,2.0,yes,no,yes,Piano,10,,,Me han interrumpido y distraído una vez durante el experimento. ,47.0,yes
29,2023-07-16_10h20.02.632,Unsyncopated1,s8,18.0,masculino,left,España,"Español, catalán",Upper secondary,no,no,A,1,conjunction_un,L1,unsyncopated,s1,r2,29,Online_conjL1_un//c.ro.fo18.1776.222.wav,ta,fo,ni,sil,be,cho,zu,sil1,ro,ne,sil2,"['false alarm', 'catch']","[1.4823000000715183, 2.331900000095402]",[2.331900000095402],1.776,beat,0.555900000095402,0.555900000095402,"[""space"",""space""]",ro,3,testConjL4Syn//dep_viol.r1.s1.0.wav,2.0,conjunction_syn,syncopated,a,s1,no_rule,dep,L4,m,1.801,5.0,1.0,0.8852,4 ,3.0,Español,1.0,Catalán,1.0,Inglés,10.0,Francés,14.0,3.0,2.0,yes,no,yes,Piano,10,,,Me han interrumpido y distraído una vez durante el experimento. ,47.0,yes
30,2023-07-16_10h20.02.632,Unsyncopated1,s8,18.0,masculino,left,España,"Español, catalán",Upper secondary,no,no,A,1,conjunction_un,L1,unsyncopated,s1,r2,30,Online_conjL1_un//c.ro.fo16.none.none.wav,ta,lu,fa,sil,be,zu,ze,sil1,ne,cho,sil2,['-'],,,none,none,,,,ro,3,testConjL4Syn//dep_viol.r2.s1.0.wav,2.0,conjunction_syn,syncopated,b,s1,no_rule,dep,L4,z,0.6785,5.0,0.0,0.7846,4 ,3.0,Español,1.0,Catalán,1.0,Inglés,10.0,Francés,14.0,3.0,2.0,yes,no,yes,Piano,10,,,Me han interrumpido y distraído una vez durante el experimento. ,47.0,yes
31,2023-07-16_10h20.02.632,Unsyncopated1,s8,18.0,masculino,left,España,"Español, catalán",Upper secondary,no,no,A,1,conjunction_un,L1,unsyncopated,s2,r1,31,Online_conjL1_un//c.ro.fo17.none.none.wav,cho,lu,zu,sil,pu,ze,ni,sil1,ki,la,sil2,['-'],,,none,none,,,,ro,3,testConjL4Syn//r2.s1.2.wav,2.0,conjunction_syn,syncopated,b,s1,rule,rule,L4,m,0.7505,3.0,0.0,2.4177,4 ,3.0,Español,1.0,Catalán,1.0,Inglés,10.0,Francés,14.0,3.0,2.0,yes,no,yes,Piano,10,,,Me han interrumpido y distraído una vez durante el experimento. ,47.0,yes
32,2023-07-16_10h20.02.632,Unsyncopated1,s8,18.0,masculino,left,España,"Español, catalán",Upper secondary,no,no,A,1,conjunction_un,L1,unsyncopated,s1,r2,32,Online_conjL1_un//b.ta.be21.0.888.wav,ta,fo,ri,sil,be,lu,ni,sil1,zu,la,sil2,['catch'],[0.6970000000000027],[0.6970000000000027],0.0,beat,0.6970000000000027,0.6970000000000027,"[""space""]",ta,1,testConjL4Syn//r2.s1.1.wav,2.0,conjunction_syn,syncopated,b,s1,rule,rule,L4,z,0.3345,5.0,1.0,0.5417,4 ,3.0,Español,1.0,Catalán,1.0,Inglés,10.0,Francés,14.0,3.0,2.0,yes,no,yes,Piano,10,,,Me han interrumpido y distraído una vez durante el experimento. ,47.0,yes
33,2023-07-16_10h20.02.632,Unsyncopated1,s8,18.0,masculino,left,España,"Español, catalán",Upper secondary,no,no,A,1,conjunction_un,L1,unsyncopated,s1,r1,33,Online_conjL1_un//b.ta.be23.none.none.wav,pu,ro,zu,sil,ki,ze,ni,sil1,fo,ri,sil2,['-'],,,none,none,,,,ta,1,testConjL4Syn//cat_viol.r1.s1.0.wav,2.0,conjunction_syn,syncopated,a,s1,no_rule,cat,L4,m,1.3512,5.0,1.0,1.751,4 ,3.0,Español,1.0,Catalán,1.0,Inglés,10.0,Francés,14.0,3.0,2.0,yes,no,yes,Piano,10,,,Me han interrumpido y distraído una vez durante el experimento. ,47.0,yes
34,2023-07-16_10h20.02.632,Unsyncopated1,s8,18.0,masculino,left,España,"Español, catalán",Upper secondary,no,no,A,1,conjunction_un,L1,unsyncopated,s1,r1,34,Online_conjL1_un//b.ta.be20.none.none.wav,pu,ri,ro,sil,ki,ze,ne,sil1,zu,fa,sil2,['-'],,,none,none,,,,ta,1,testConjL4Syn//r1.s1.1.wav,2.0,conjunction_syn,syncopated,a,s1,rule,rule,L4,z,1.2839,3.0,1.0,0.7339,4 ,3.0,Español,1.0,Catalán,1.0,Inglés,10.0,Francés,14.0,3.0,2.0,yes,no,yes,Piano,10,,,Me han interrumpido y distraído una vez durante el experimento. ,47.0,yes
35,2023-07-16_10h20.02.632,Unsyncopated1,s8,18.0,masculino,left,España,"Español, catalán",Upper secondary,no,no,A,1,conjunction_un,L1,unsyncopated,s1,r1,35,Online_conjL1_un//b.ta.be22.none.none.wav,pu,ze,fa,sil,ki,zu,cho,sil1,ro,la,sil2,['-'],,,none,none,,,,ta,1,testConjL4Syn//r1.s1.2.wav,2.0,conjunction_syn,syncopated,a,s1,rule,rule,L4,z,1.4354,5.0,1.0,1.035,4 ,3.0,Español,1.0,Catalán,1.0,Inglés,10.0,Francés,14.0,3.0,2.0,yes,no,yes,Piano,10,,,Me han interrumpido y distraído una vez durante el experimento. ,47.0,yes
36,2023-07-16_10h20.02.632,Unsyncopated1,s8,18.0,masculino,left,España,"Español, catalán",Upper secondary,no,no,A,1,conjunction_un,L1,unsyncopated,s1,r2,36,Online_conjL1_un//b.ta.be11.0.888.wav,ta,fa,lu,sil,be,ni,ze,sil1,ri,ro,sil2,['catch'],[0.7101000000238855],[0.7101000000238855],0.0,beat,0.7101000000238855,0.7101000000238855,"[""space""]",ta,1,testConjL4Syn//dep_viol.r1.s2.0.wav,2.0,conjunction_syn,syncopated,a,s2,no_rule,dep,L4,m,0.6843,4.0,1.0,0.3344,4 ,3.0,Español,1.0,Catalán,1.0,Inglés,10.0,Francés,14.0,3.0,2.0,yes,no,yes,Piano,10,,,Me han interrumpido y distraído una vez durante el experimento. ,47.0,yes
37,2023-07-16_10h20.02.632,Unsyncopated1,s8,18.0,masculino,left,España,"Español, catalán",Upper secondary,no,no,A,1,conjunction_un,L1,unsyncopated,s2,r1,37,Online_conjL1_un//b.ta.be9.none.none.wav,fa,ne,lu,sil,pu,ri,la,sil1,ki,ni,sil2,['-'],,,none,none,,,,ta,1,testConjL4Syn//cat_viol.r2.s2.0.wav,2.0,conjunction_syn,syncopated,b,s2,no_rule,cat,L4,m,1.3176,4.0,1.0,0.4842,4 ,3.0,Español,1.0,Catalán,1.0,Inglés,10.0,Francés,14.0,3.0,2.0,yes,no,yes,Piano,10,,,Me han interrumpido y distraído una vez durante el experimento. ,47.0,yes
38,2023-07-16_10h20.02.632,Unsyncopated1,s8,18.0,masculino,left,España,"Español, catalán",Upper secondary,no,no,A,1,conjunction_un,L1,unsyncopated,s2,r1,38,Online_conjL1_un//b.ta.be10.none.none.wav,ni,lu,cho,sil,pu,fa,zu,sil1,ki,fo,sil2,['-'],,,none,none,,,,ta,1,testConjL4Syn//r1.s2.0.wav,2.0,conjunction_syn,syncopated,a,s2,rule,rule,L4,m,1.6849,3.0,0.0,0.2673,4 ,3.0,Español,1.0,Catalán,1.0,Inglés,10.0,Francés,14.0,3.0,2.0,yes,no,yes,Piano,10,,,Me han interrumpido y distraído una vez durante el experimento. ,47.0,yes
39,2023-07-16_10h20.02.632,Unsyncopated1,s8,18.0,masculino,left,España,"Español, catalán",Upper secondary,no,no,A,1,conjunction_un,L1,unsyncopated,s1,r2,39,Online_conjL1_un//b.ta.be8.0.888.wav,ta,la,ne,sil,be,lu,ni,sil1,ro,fa,sil2,['catch'],[0.41970000004766916],[0.41970000004766916],0.0,beat,0.4197000000476691,0.4197000000476691,"[""space""]",ta,1,testConjL4Syn//r2.s2.1.wav,2.0,conjunction_syn,syncopated,b,s2,rule,rule,L4,z,0.501,4.0,1.0,0.6344,4 ,3.0,Español,1.0,Catalán,1.0,Inglés,10.0,Francés,14.0,3.0,2.0,yes,no,yes,Piano,10,,,Me han interrumpido y distraído una vez durante el experimento. ,47.0,yes
40,2023-07-16_10h20.02.632,Unsyncopated1,s8,18.0,masculino,left,España,"Español, catalán",Upper secondary,no,no,A,1,conjunction_un,L1,unsyncopated,s1,r2,40,Online_conjL1_un//d.ne.ni9.none.none.wav,ta,ro,fo,sil,be,zu,cho,sil1,lu,ze,sil2,['false alarm'],[1.1421000000237882],[1.1421000000237882],none,none,,,"[""space""]",ne,4,testConjL4Syn//r2.s2.2.wav,2.0,conjunction_syn,syncopated,b,s2,rule,rule,L4,m,1.249,3.0,0.0,0.2842,4 ,3.0,Español,1.0,Catalán,1.0,Inglés,10.0,Francés,14.0,3.0,2.0,yes,no,yes,Piano,10,,,Me han interrumpido y distraído una vez durante el experimento. ,47.0,yes
41,2023-07-16_10h20.02.632,Unsyncopated1,s8,18.0,masculino,left,España,"Español, catalán",Upper secondary,no,no,A,1,conjunction_un,L1,unsyncopated,s1,r2,41,Online_conjL1_un//d.ne.ni8.1776.222.wav,ta,ni,ri,sil,be,zu,lu,sil1,ne,fa,sil2,['catch_delay'],[1.1534999999999747],[1.1534999999999747],1.776,beat,1.1534999999999749,1.1534999999999749,,ne,4,testConjL4Syn//cat_viol.r2.s1.0.wav,2.0,conjunction_syn,syncopated,b,s1,no_rule,cat,L4,m,3.4166,6.0,1.0,0.8205,4 ,3.0,Español,1.0,Catalán,1.0,Inglés,10.0,Francés,14.0,3.0,2.0,yes,no,yes,Piano,10,,,Me han interrumpido y distraído una vez durante el experimento. ,47.0,yes
42,2023-07-16_10h20.02.632,Unsyncopated1,s8,18.0,masculino,left,España,"Español, catalán",Upper secondary,no,no,A,1,conjunction_un,L1,unsyncopated,s2,r2,42,Online_conjL1_un//d.ne.ni11.none.none.wav,ro,zu,la,sil,ta,ze,cho,sil1,be,fa,sil2,['-'],[0.26549999999997453],[0.26549999999997453],none,none,,,"[""space""]",ne,4,testConjL4Syn//time_viol.r2.s2.0.wav,2.0,conjunction_syn,syncopated,b,s2,no_rule,time,L4,m,0.7004,6.0,1.0,0.4847,4 ,3.0,Español,1.0,Catalán,1.0,Inglés,10.0,Francés,14.0,3.0,2.0,yes,no,yes,Piano,10,,,Me han interrumpido y distraído una vez durante el experimento. ,47.0,yes
43,2023-07-16_10h20.02.632,Unsyncopated1,s8,18.0,masculino,left,España,"Español, catalán",Upper secondary,no,no,A,1,conjunction_un,L1,unsyncopated,s2,r1,43,Online_conjL1_un//d.ne.ni10.1110.222.wav,la,ni,cho,sil,pu,ne,lu,sil1,ki,zu,sil2,['catch'],[1.9142999999522772],[1.9142999999522772],1.11,no_beat,0.8042999999522771,0.8042999999522771,"[""space""]",ne,4,testConjL4Syn//r2.s1.0.wav,2.0,conjunction_syn,syncopated,b,s1,rule,rule,L4,m,0.6342,5.0,0.0,0.501,4 ,3.0,Español,1.0,Catalán,1.0,Inglés,10.0,Francés,14.0,3.0,2.0,yes,no,yes,Piano,10,,,Me han interrumpido y distraído una vez durante el experimento. ,47.0,yes
44,2023-07-16_10h20.02.632,Unsyncopated1,s8,18.0,masculino,left,España,"Español, catalán",Upper secondary,no,no,A,1,conjunction_un,L1,unsyncopated,s1,r2,44,Online_conjL1_un//a.pu.ki2.none.none.wav,ta,ro,ne,sil,be,lu,fo,sil1,la,ri,sil2,['-'],,,none,none,,,,ki,2,testConjL4Syn//r1.s2.1.wav,2.0,conjunction_syn,syncopated,a,s2,rule,rule,L4,m,0.8512,3.0,0.0,0.2508,4 ,3.0,Español,1.0,Catalán,1.0,Inglés,10.0,Francés,14.0,3.0,2.0,yes,no,yes,Piano,10,,,Me han interrumpido y distraído una vez durante el experimento. ,47.0,yes
45,2023-07-16_10h20.02.632,Unsyncopated1,s8,18.0,masculino,left,España,"Español, catalán",Upper secondary,no,no,A,1,conjunction_un,L1,unsyncopated,s2,r1,45,Online_conjL1_un//a.pu.ki0.888.1776.wav,ni,zu,ne,sil,pu,fa,ze,sil1,ki,ri,sil2,"['false alarm', 'catch']","[0.9144999999999754, 2.1146999999284617]",[2.1146999999284617],1.776,beat,0.3386999999284616,0.3386999999284616,"[""space"",""space""]",ki,2,testConjL4Syn//dep_viol.r2.s2.0.wav,2.0,conjunction_syn,syncopated,b,s2,no_rule,dep,L4,z,0.3181,4.0,0.0,0.2675,4 ,3.0,Español,1.0,Catalán,1.0,Inglés,10.0,Francés,14.0,3.0,2.0,yes,no,yes,Piano,10,,,Me han interrumpido y distraído una vez durante el experimento. ,47.0,yes
46,2023-07-16_10h20.02.632,Unsyncopated1,s8,18.0,masculino,left,España,"Español, catalán",Upper secondary,no,no,A,1,conjunction_un,L1,unsyncopated,s2,r1,46,Online_conjL1_un//a.pu.ki1.888.1776.wav,ro,fa,ne,sil,pu,lu,cho,sil1,ki,ri,sil2,['catch'],[2.1987000000476655],[2.1987000000476655],1.776,beat,0.4227000000476655,0.4227000000476655,"[""space""]",ki,2,testConjL4Syn//time_viol.r1.s1.0.wav,2.0,conjunction_syn,syncopated,a,s1,no_rule,time,L4,m,0.4009,4.0,1.0,0.2507,4 ,3.0,Español,1.0,Catalán,1.0,Inglés,10.0,Francés,14.0,3.0,2.0,yes,no,yes,Piano,10,,,Me han interrumpido y distraído una vez durante el experimento. ,47.0,yes
47,2023-07-16_10h20.02.632,Unsyncopated1,s8,18.0,masculino,left,España,"Español, catalán",Upper secondary,no,no,A,1,conjunction_un,L1,unsyncopated,s1,r2,47,Online_conjL1_un//a.pu.ki3.none.none.wav,ta,fo,lu,sil,be,ze,cho,sil1,ri,la,sil2,['-'],,,none,none,,,,ki,2,testConjL4Syn//r1.s2.2.wav,2.0,conjunction_syn,syncopated,a,s2,rule,rule,L4,m,0.7675,3.0,0.0,0.7179,4 ,3.0,Español,1.0,Catalán,1.0,Inglés,10.0,Francés,14.0,3.0,2.0,yes,no,yes,Piano,10,,,Me han interrumpido y distraído una vez durante el experimento. ,47.0,yes
48,2023-07-16_10h20.02.632,Unsyncopated1,s8,18.0,masculino,left,España,"Español, catalán",Upper secondary,no,no,A,1,conjunction_un,L1,unsyncopated,s2,r1,48,Online_conjL1_un//b.ta.be18.none.none.wav,ne,ze,ro,sil,pu,la,cho,sil1,ki,lu,sil2,['false alarm'],[1.03060000002381],[1.03060000002381],none,none,,,"[""space""]",ta,1,testWhenL3Uns//time_viol.r2.s1.0.wav,3.0,when,unsyncopated,b,s1,no_rule,time,L3,m,1.0347,3.0,0.0,0.9295,4 ,3.0,Español,1.0,Catalán,1.0,Inglés,10.0,Francés,14.0,3.0,2.0,yes,no,yes,Piano,10,,,Me han interrumpido y distraído una vez durante el experimento. ,47.0,yes
49,2023-07-16_10h20.02.632,Unsyncopated1,s8,18.0,masculino,left,España,"Español, catalán",Upper secondary,no,no,A,1,conjunction_un,L1,unsyncopated,s2,r2,49,Online_conjL1_un//b.ta.be16.888.1776.wav,ze,cho,fo,sil,ta,ne,zu,sil1,be,lu,sil2,['catch'],[1.3483000000715037],[1.3483000000715037],0.888,beat,0.4603000000715037,0.4603000000715037,"[""space""]",ta,1,testWhenL3Uns//time_viol.r1.s1.0.wav,3.0,when,unsyncopated,a,s1,no_rule,time,L3,m,0.6689,3.0,0.0,0.668,4 ,3.0,Español,1.0,Catalán,1.0,Inglés,10.0,Francés,14.0,3.0,2.0,yes,no,yes,Piano,10,,,Me han interrumpido y distraído una vez durante el experimento. ,47.0,yes
50,2023-07-16_10h20.02.632,Unsyncopated1,s8,18.0,masculino,left,España,"Español, catalán",Upper secondary,no,no,A,1,conjunction_un,L1,unsyncopated,s2,r2,50,Online_conjL1_un//b.ta.be17.888.1776.wav,ro,zu,ne,sil,ta,ze,fo,sil1,be,ri,sil2,['catch'],[1.4536000000238118],[1.4536000000238118],0.888,beat,0.5656000000238118,0.5656000000238118,"[""space""]",ta,1,testWhenL3Uns//cat_viol.r2.s2.0.wav,3.0,when,unsyncopated,b,s2,no_rule,cat,L3,z,1.1335,4.0,1.0,0.7684,4 ,3.0,Español,1.0,Catalán,1.0,Inglés,10.0,Francés,14.0,3.0,2.0,yes,no,yes,Piano,10,,,Me han interrumpido y distraído una vez durante el experimento. ,47.0,yes
51,2023-07-16_10h20.02.632,Unsyncopated1,s8,18.0,masculino,left,España,"Español, catalán",Upper secondary,no,no,A,1,conjunction_un,L1,unsyncopated,s2,r2,51,Online_conjL1_un//b.ta.be19.888.1776.wav,zu,ni,lu,sil,ta,ri,la,sil1,be,ze,sil2,"['catch', 'false alarm']","[1.8148999999762054, 2.1487999999523026]",[1.8148999999762054],0.888,beat,0.9268999999762054,0.9268999999762054,"[""space"",""space""]",ta,1,testWhenL3Uns//cat_viol.r1.s2.0.wav,3.0,when,unsyncopated,a,s2,no_rule,cat,L3,m,11.5511,2.0,0.0,1.6089,4 ,3.0,Español,1.0,Catalán,1.0,Inglés,10.0,Francés,14.0,3.0,2.0,yes,no,yes,Piano,10,,,Me han interrumpido y distraído una vez durante el experimento. ,47.0,yes
52,2023-07-16_10h20.02.632,Unsyncopated1,s8,18.0,masculino,left,España,"Español, catalán",Upper secondary,no,no,A,1,conjunction_un,L1,unsyncopated,s1,r1,52,Online_conjL1_un//c.ro.fo22.444.1332.wav,pu,la,ro,sil,ki,ri,fo,sil1,cho,ni,sil2,['catch'],[1.3540000000000418],[1.3540000000000418],0.444,no_beat,0.910000000000042,0.910000000000042,"[""space""]",ro,3,testWhenL3Uns//r2.s2.2.wav,3.0,when,unsyncopated,b,s2,rule,rule,L3,z,0.5502,4.0,1.0,0.6342,4 ,3.0,Español,1.0,Catalán,1.0,Inglés,10.0,Francés,14.0,3.0,2.0,yes,no,yes,Piano,10,,,Me han interrumpido y distraído una vez durante el experimento. ,47.0,yes
53,2023-07-16_10h20.02.632,Unsyncopated1,s8,18.0,masculino,left,España,"Español, catalán",Upper secondary,no,no,A,1,conjunction_un,L1,unsyncopated,s2,r1,53,Online_conjL1_un//c.ro.fo21.none.none.wav,zu,lu,cho,sil,pu,la,ne,sil1,ki,fa,sil2,['-'],,,none,none,,,,ro,3,testWhenL3Uns//r2.s2.0.wav,3.0,when,unsyncopated,b,s2,rule,rule,L3,m,3.9042,5.0,0.0,0.5558,4 ,3.0,Español,1.0,Catalán,1.0,Inglés,10.0,Francés,14.0,3.0,2.0,yes,no,yes,Piano,10,,,Me han interrumpido y distraído una vez durante el experimento. ,47.0,yes
54,2023-07-16_10h20.02.632,Unsyncopated1,s8,18.0,masculino,left,España,"Español, catalán",Upper secondary,no,no,A,1,conjunction_un,L1,unsyncopated,s1,r2,54,Online_conjL1_un//c.ro.fo20.none.none.wav,ta,ri,ni,sil,be,ze,cho,sil1,la,fa,sil2,['-'],,,none,none,,,,ro,3,testWhenL3Uns//dep_viol.r2.s2.0.wav,3.0,when,unsyncopated,b,s2,no_rule,dep,L3,z,4.2673,5.0,1.0,4.7091,4 ,3.0,Español,1.0,Catalán,1.0,Inglés,10.0,Francés,14.0,3.0,2.0,yes,no,yes,Piano,10,,,Me han interrumpido y distraído una vez durante el experimento. ,47.0,yes
55,2023-07-16_10h20.02.632,Unsyncopated1,s8,18.0,masculino,left,España,"Español, catalán",Upper secondary,no,no,A,1,conjunction_un,L1,unsyncopated,s1,r1,55,Online_conjL1_un//c.ro.fo23.444.1332.wav,pu,ri,ro,sil,ki,ne,fo,sil1,cho,ze,sil2,['catch'],[0.7357999999522917],[0.7357999999522917],0.444,no_beat,0.2917999999522917,0.2917999999522917,"[""space""]",ro,3,testWhenL3Uns//r1.s2.1.wav,3.0,when,unsyncopated,a,s2,rule,rule,L3,z,2.7771,4.0,1.0,0.8028,4 ,3.0,Español,1.0,Catalán,1.0,Inglés,10.0,Francés,14.0,3.0,2.0,yes,no,yes,Piano,10,,,Me han interrumpido y distraído una vez durante el experimento. ,47.0,yes
56,2023-07-16_10h20.02.632,Unsyncopated1,s8,18.0,masculino,left,España,"Español, catalán",Upper secondary,no,no,A,1,conjunction_un,L1,unsyncopated,s1,r2,56,Online_conjL1_un//c.ro.fo28.444.1110.wav,ta,lu,ro,sil,be,fo,ri,sil1,cho,fa,sil2,['catch'],[0.9429999999999836],[0.9429999999999836],0.444,no_beat,0.4989999999999836,0.4989999999999836,"[""space""]",ro,3,testWhenL3Uns//r1.s1.1.wav,3.0,when,unsyncopated,a,s1,rule,rule,L3,m,0.8841,4.0,0.0,0.7255,4 ,3.0,Español,1.0,Catalán,1.0,Inglés,10.0,Francés,14.0,3.0,2.0,yes,no,yes,Piano,10,,,Me han interrumpido y distraído una vez durante el experimento. ,47.0,yes
57,2023-07-16_10h20.02.632,Unsyncopated1,s8,18.0,masculino,left,España,"Español, catalán",Upper secondary,no,no,A,1,conjunction_un,L1,unsyncopated,s1,r1,57,Online_conjL1_un//c.ro.fo29.1110.1332.wav,pu,fa,ni,sil,ki,ro,fo,sil1,zu,cho,sil2,['catch'],[1.766200000047661],[1.766200000047661],1.11,no_beat,0.6562000000476609,0.6562000000476609,"[""space""]",ro,3,testWhenL3Uns//cat_viol.r1.s1.0.wav,3.0,when,unsyncopated,a,s1,no_rule,cat,L3,z,0.6692,5.0,1.0,1.4509,4 ,3.0,Español,1.0,Catalán,1.0,Inglés,10.0,Francés,14.0,3.0,2.0,yes,no,yes,Piano,10,,,Me han interrumpido y distraído una vez durante el experimento. ,47.0,yes
58,2023-07-16_10h20.02.632,Unsyncopated1,s8,18.0,masculino,left,España,"Español, catalán",Upper secondary,no,no,A,1,conjunction_un,L1,unsyncopated,s2,r2,58,Online_conjL1_un//c.ro.fo31.0.1110.wav,ro,ne,zu,sil,ta,fo,cho,sil1,be,ri,sil2,['catch'],[2.56510000002379],[2.56510000002379],0.0,beat,,2.56510000002379,"[""space""]",ro,3,testWhenL3Uns//cat_viol.r2.s1.0.wav,3.0,when,unsyncopated,b,s1,no_rule,cat,L3,z,1.1163,5.0,1.0,0.4879,4 ,3.0,Español,1.0,Catalán,1.0,Inglés,10.0,Francés,14.0,3.0,2.0,yes,no,yes,Piano,10,,,Me han interrumpido y distraído una vez durante el experimento. ,47.0,yes
59,2023-07-16_10h20.02.632,Unsyncopated1,s8,18.0,masculino,left,España,"Español, catalán",Upper secondary,no,no,A,1,conjunction_un,L1,unsyncopated,s1,r1,59,Online_conjL1_un//c.ro.fo30.none.none.wav,pu,ni,cho,sil,ki,la,lu,sil1,ne,fa,sil2,['-'],,,none,none,,,,ro,3,testWhenL3Uns//r1.s2.2.wav,3.0,when,unsyncopated,a,s2,rule,rule,L3,m,47.6846,5.0,0.0,1.1901,4 ,3.0,Español,1.0,Catalán,1.0,Inglés,10.0,Francés,14.0,3.0,2.0,yes,no,yes,Piano,10,,,Me han interrumpido y distraído una vez durante el experimento. ,47.0,yes
60,2023-07-16_10h20.02.632,Unsyncopated1,s8,18.0,masculino,left,España,"Español, catalán",Upper secondary,no,no,A,1,conjunction_un,L1,unsyncopated,s2,r2,60,Online_conjL1_un//b.ta.be31.888.1776.wav,la,cho,zu,sil,ta,ne,ri,sil1,be,ze,sil2,['catch'],[1.2593999999761536],[1.2593999999761536],0.888,beat,0.3713999999761536,0.3713999999761536,"[""space""]",ta,1,testWhenL3Uns//dep_viol.r2.s1.0.wav,3.0,when,unsyncopated,b,s1,no_rule,dep,L3,z,1.2674,5.0,1.0,0.5177,4 ,3.0,Español,1.0,Catalán,1.0,Inglés,10.0,Francés,14.0,3.0,2.0,yes,no,yes,Piano,10,,,Me han interrumpido y distraído una vez durante el experimento. ,47.0,yes
61,2023-07-16_10h20.02.632,Unsyncopated1,s8,18.0,masculino,left,España,"Español, catalán",Upper secondary,no,no,A,1,conjunction_un,L1,unsyncopated,s1,r1,61,Online_conjL1_un//b.ta.be30.none.none.wav,pu,fa,lu,sil,ki,ni,ne,sil1,ri,ro,sil2,['-'],,,none,none,,,,ta,1,testWhenL3Uns//r2.s1.1.wav,3.0,when,unsyncopated,b,s1,rule,rule,L3,z,1.0173,6.0,1.0,0.7507,4 ,3.0,Español,1.0,Catalán,1.0,Inglés,10.0,Francés,14.0,3.0,2.0,yes,no,yes,Piano,10,,,Me han interrumpido y distraído una vez durante el experimento. ,47.0,yes
62,2023-07-16_10h20.02.632,Unsyncopated1,s8,18.0,masculino,left,España,"Español, catalán",Upper secondary,no,no,A,1,conjunction_un,L1,unsyncopated,s1,r2,62,Online_conjL1_un//b.ta.be29.0.888.wav,ta,ze,lu,sil,be,la,zu,sil1,fo,fa,sil2,['catch'],[0.3992999999522908],[0.3992999999522908],0.0,beat,0.3992999999522908,0.3992999999522908,"[""space""]",ta,1,testWhenL3Uns//r1.s1.2.wav,3.0,when,unsyncopated,a,s1,rule,rule,L3,m,0.9235,4.0,0.0,1.3887,4 ,3.0,Español,1.0,Catalán,1.0,Inglés,10.0,Francés,14.0,3.0,2.0,yes,no,yes,Piano,10,,,Me han interrumpido y distraído una vez durante el experimento. ,47.0,yes
63,2023-07-16_10h20.02.632,Unsyncopated1,s8,18.0,masculino,left,España,"Español, catalán",Upper secondary,no,no,A,1,conjunction_un,L1,unsyncopated,s1,r2,63,Online_conjL1_un//b.ta.be28.0.888.wav,ta,fo,ni,sil,be,ze,ne,sil1,fa,ri,sil2,['catch'],[0.4653999999761709],[0.4653999999761709],0.0,beat,0.4653999999761709,0.4653999999761709,"[""space""]",ta,1,testWhenL3Uns//r2.s1.2.wav,3.0,when,unsyncopated,b,s1,rule,rule,L3,m,0.7608,4.0,0.0,0.6843,4 ,3.0,Español,1.0,Catalán,1.0,Inglés,10.0,Francés,14.0,3.0,2.0,yes,no,yes,Piano,10,,,Me han interrumpido y distraído una vez durante el experimento. ,47.0,yes
64,2023-07-16_10h20.02.632,Unsyncopated1,s8,18.0,masculino,left,España,"Español, catalán",Upper secondary,no,no,A,1,conjunction_un,L1,unsyncopated,s1,r1,64,Online_conjL1_un//c.ro.fo27.1332.222.wav,pu,fo,lu,sil,ki,la,ro,sil1,ze,zu,sil2,['catch'],[1.3421999999284253],[1.3421999999284253],1.332,no_beat,0.0101999999284252,0.0101999999284252,"[""space""]",ro,3,testWhenL3Uns//r2.s2.1.wav,3.0,when,unsyncopated,b,s2,rule,rule,L3,m,0.4011,4.0,0.0,0.3331,4 ,3.0,Español,1.0,Catalán,1.0,Inglés,10.0,Francés,14.0,3.0,2.0,yes,no,yes,Piano,10,,,Me han interrumpido y distraído una vez durante el experimento. ,47.0,yes
65,2023-07-16_10h20.02.632,Unsyncopated1,s8,18.0,masculino,left,España,"Español, catalán",Upper secondary,no,no,A,1,conjunction_un,L1,unsyncopated,s2,r1,65,Online_conjL1_un//c.ro.fo26.1332.0.wav,fo,lu,ne,sil,pu,ri,ro,sil1,ki,ze,sil2,['catch'],[1.748099999904639],[1.748099999904639],1.332,no_beat,0.4160999999046388,0.4160999999046388,"[""space""]",ro,3,testWhenL3Uns//time_viol.r1.s2.0.wav,3.0,when,unsyncopated,a,s2,no_rule,time,L3,z,0.3323,3.0,1.0,0.6103,4 ,3.0,Español,1.0,Catalán,1.0,Inglés,10.0,Francés,14.0,3.0,2.0,yes,no,yes,Piano,10,,,Me han interrumpido y distraído una vez durante el experimento. ,47.0,yes
66,2023-07-16_10h20.02.632,Unsyncopated1,s8,18.0,masculino,left,España,"Español, catalán",Upper secondary,no,no,A,1,conjunction_un,L1,unsyncopated,s2,r2,66,Online_conjL1_un//c.ro.fo25.none.none.wav,ni,cho,fa,sil,ta,zu,la,sil1,be,lu,sil2,['-'],,,none,none,,,,ro,3,testWhenL3Uns//r1.s1.0.wav,3.0,when,unsyncopated,a,s1,rule,rule,L3,m,2.4923,5.0,0.0,0.3555,4 ,3.0,Español,1.0,Catalán,1.0,Inglés,10.0,Francés,14.0,3.0,2.0,yes,no,yes,Piano,10,,,Me han interrumpido y distraído una vez durante el experimento. ,47.0,yes
67,2023-07-16_10h20.02.632,Unsyncopated1,s8,18.0,masculino,left,España,"Español, catalán",Upper secondary,no,no,A,1,conjunction_un,L1,unsyncopated,s2,r1,67,Online_conjL1_un//c.ro.fo24.none.none.wav,la,lu,cho,sil,pu,fa,ri,sil1,ki,ze,sil2,['-'],,,none,none,,,,ro,3,testWhenL3Uns//r1.s2.0.wav,3.0,when,unsyncopated,a,s2,rule,rule,L3,z,1.1905,5.0,1.0,0.6175,4 ,3.0,Español,1.0,Catalán,1.0,Inglés,10.0,Francés,14.0,3.0,2.0,yes,no,yes,Piano,10,,,Me han interrumpido y distraído una vez durante el experimento. ,47.0,yes
68,2023-07-16_10h20.02.632,Unsyncopated1,s8,18.0,masculino,left,España,"Español, catalán",Upper secondary,no,no,A,1,conjunction_un,L1,unsyncopated,s2,r1,68,Online_conjL1_un//d.ne.ni6.0.1110.wav,ne,ro,ze,sil,pu,ni,ri,sil1,ki,zu,sil2,['catch'],[0.7967000000476219],[0.7967000000476219],0.0,beat,0.7967000000476219,0.7967000000476219,"[""space""]",ne,4,testWhenL3Uns//time_viol.r2.s2.0.wav,3.0,when,unsyncopated,b,s2,no_rule,time,L3,m,2.3675,3.0,0.0,0.7014,4 ,3.0,Español,1.0,Catalán,1.0,Inglés,10.0,Francés,14.0,3.0,2.0,yes,no,yes,Piano,10,,,Me han interrumpido y distraído una vez durante el experimento. ,47.0,yes
69,2023-07-16_10h20.02.632,Unsyncopated1,s8,18.0,masculino,left,España,"Español, catalán",Upper secondary,no,no,A,1,conjunction_un,L1,unsyncopated,s1,r2,69,Online_conjL1_un//d.ne.ni4.1110.1332.wav,ta,lu,la,sil,be,ne,ni,sil1,fa,fo,sil2,['catch'],[2.0984999999999445],[2.0984999999999445],1.11,no_beat,0.9884999999999444,0.9884999999999444,"[""space""]",ne,4,testWhenL3Uns//dep_viol.r1.s2.0.wav,3.0,when,unsyncopated,a,s2,no_rule,dep,L3,z,0.8187,6.0,1.0,0.7512,4 ,3.0,Español,1.0,Catalán,1.0,Inglés,10.0,Francés,14.0,3.0,2.0,yes,no,yes,Piano,10,,,Me han interrumpido y distraído una vez durante el experimento. ,47.0,yes
70,2023-07-16_10h20.02.632,Unsyncopated1,s8,18.0,masculino,left,España,"Español, catalán",Upper secondary,no,no,A,1,conjunction_un,L1,unsyncopated,s1,r2,70,Online_conjL1_un//d.ne.ni5.1332.444.wav,ta,fa,ni,sil,be,cho,ne,sil1,ri,lu,sil2,['catch'],[1.814300000071512],[1.814300000071512],1.332,no_beat,0.4823000000715118,0.4823000000715118,"[""space""]",ne,4,testWhenL3Uns//dep_viol.r1.s1.0.wav,3.0,when,unsyncopated,a,s1,no_rule,dep,L3,z,0.5178,5.0,1.0,0.4507,4 ,3.0,Español,1.0,Catalán,1.0,Inglés,10.0,Francés,14.0,3.0,2.0,yes,no,yes,Piano,10,,,Me han interrumpido y distraído una vez durante el experimento. ,47.0,yes
71,2023-07-16_10h20.02.632,Unsyncopated1,s8,18.0,masculino,left,España,"Español, catalán",Upper secondary,no,no,A,1,conjunction_un,L1,unsyncopated,s2,r2,71,Online_conjL1_un//d.ne.ni7.none.none.wav,cho,ro,la,sil,ta,ze,fa,sil1,be,lu,sil2,['-'],,,none,none,,,,ne,4,testWhenL3Uns//r2.s1.0.wav,3.0,when,unsyncopated,b,s1,rule,rule,L3,z,0.4013,4.0,1.0,0.4999,4 ,3.0,Español,1.0,Catalán,1.0,Inglés,10.0,Francés,14.0,3.0,2.0,yes,no,yes,Piano,10,,,Me han interrumpido y distraído una vez durante el experimento. ,47.0,yes
72,2023-07-16_10h20.02.632,Unsyncopated1,s8,18.0,masculino,left,España,"Español, catalán",Upper secondary,no,no,A,1,conjunction_un,L1,unsyncopated,s2,r1,72,Online_conjL1_un//c.ro.fo9.1332.444.wav,ri,ze,fo,sil,pu,fa,ro,sil1,ki,ne,sil2,['false alarm'],[0.965899999976159],[0.965899999976159],1.332,no_beat,,,"[""space""]",ro,3,testWhatL2Uns//cat_viol.r2.s1.0.wav,4.0,what,unsyncopated,b,s1,no_rule,cat,L2,z,0.6512,5.0,0.0,1.5587,4 ,3.0,Español,1.0,Catalán,1.0,Inglés,10.0,Francés,14.0,3.0,2.0,yes,no,yes,Piano,10,,,Me han interrumpido y distraído una vez durante el experimento. ,47.0,yes
73,2023-07-16_10h20.02.632,Unsyncopated1,s8,18.0,masculino,left,España,"Español, catalán",Upper secondary,no,no,A,1,conjunction_un,L1,unsyncopated,s1,r2,73,Online_conjL1_un//c.ro.fo10.none.none.wav,ta,zu,cho,sil,be,ze,la,sil1,ne,lu,sil2,['-'],,,none,none,,,,ro,3,testWhatL2Uns//r1.s2.0.wav,4.0,what,unsyncopated,a,s2,rule,rule,L2,z,1.0562,5.0,1.0,0.3836,4 ,3.0,Español,1.0,Catalán,1.0,Inglés,10.0,Francés,14.0,3.0,2.0,yes,no,yes,Piano,10,,,Me han interrumpido y distraído una vez durante el experimento. ,47.0,yes
74,2023-07-16_10h20.02.632,Unsyncopated1,s8,18.0,masculino,left,España,"Español, catalán",Upper secondary,no,no,A,1,conjunction_un,L1,unsyncopated,s2,r2,74,Online_conjL1_un//c.ro.fo8.none.none.wav,ni,cho,ri,sil,ta,la,ze,sil1,be,zu,sil2,['-'],,,none,none,,,,ro,3,testWhatL2Uns//r2.s2.2.wav,4.0,what,unsyncopated,b,s2,rule,rule,L2,z,0.287,5.0,1.0,0.3705,4 ,3.0,Español,1.0,Catalán,1.0,Inglés,10.0,Francés,14.0,3.0,2.0,yes,no,yes,Piano,10,,,Me han interrumpido y distraído una vez durante el experimento. ,47.0,yes
75,2023-07-16_10h20.02.632,Unsyncopated1,s8,18.0,masculino,left,España,"Español, catalán",Upper secondary,no,no,A,1,conjunction_un,L1,unsyncopated,s1,r2,75,Online_conjL1_un//c.ro.fo11.none.none.wav,ta,lu,la,sil,be,fa,ne,sil1,ze,ni,sil2,['false alarm'],[2.064700000047651],[2.064700000047651],none,none,,,"[""space""]",ro,3,testWhatL2Uns//dep_viol.r1.s2.0.wav,4.0,what,unsyncopated,a,s2,no_rule,dep,L2,m,0.3854,3.0,1.0,0.2038,4 ,3.0,Español,1.0,Catalán,1.0,Inglés,10.0,Francés,14.0,3.0,2.0,yes,no,yes,Piano,10,,,Me han interrumpido y distraído una vez durante el experimento. ,47.0,yes
76,2023-07-16_10h20.02.632,Unsyncopated1,s8,18.0,masculino,left,España,"Español, catalán",Upper secondary,no,no,A,1,conjunction_un,L1,unsyncopated,s2,r2,76,Online_conjL1_un//a.pu.ki28.none.none.wav,ne,zu,ze,sil,ta,ni,fa,sil1,be,lu,sil2,['-'],,,none,none,,,,ki,2,testWhatL2Uns//r2.s1.0.wav,4.0,what,unsyncopated,b,s1,rule,rule,L2,z,0.338,4.0,1.0,0.3425,4 ,3.0,Español,1.0,Catalán,1.0,Inglés,10.0,Francés,14.0,3.0,2.0,yes,no,yes,Piano,10,,,Me han interrumpido y distraído una vez durante el experimento. ,47.0,yes
77,2023-07-16_10h20.02.632,Unsyncopated1,s8,18.0,masculino,left,España,"Español, catalán",Upper secondary,no,no,A,1,conjunction_un,L1,unsyncopated,s2,r2,77,Online_conjL1_un//a.pu.ki31.none.none.wav,ze,la,ni,sil,ta,ne,lu,sil1,be,cho,sil2,['-'],,,none,none,,,,ki,2,testWhatL2Uns//r1.s1.0.wav,4.0,what,unsyncopated,a,s1,rule,rule,L2,z,0.3844,4.0,1.0,0.4687,4 ,3.0,Español,1.0,Catalán,1.0,Inglés,10.0,Francés,14.0,3.0,2.0,yes,no,yes,Piano,10,,,Me han interrumpido y distraído una vez durante el experimento. ,47.0,yes
78,2023-07-16_10h20.02.632,Unsyncopated1,s8,18.0,masculino,left,España,"Español, catalán",Upper secondary,no,no,A,1,conjunction_un,L1,unsyncopated,s2,r2,78,Online_conjL1_un//a.pu.ki30.none.none.wav,ri,lu,ze,sil,ta,zu,fa,sil1,be,ne,sil2,['-'],,,none,none,,,,ki,2,testWhatL2Uns//time_viol.r2.s2.0.wav,4.0,what,unsyncopated,b,s2,no_rule,time,L2,z,0.434,5.0,0.0,0.5529,4 ,3.0,Español,1.0,Catalán,1.0,Inglés,10.0,Francés,14.0,3.0,2.0,yes,no,yes,Piano,10,,,Me han interrumpido y distraído una vez durante el experimento. ,47.0,yes
79,2023-07-16_10h20.02.632,Unsyncopated1,s8,18.0,masculino,left,España,"Español, catalán",Upper secondary,no,no,A,1,conjunction_un,L1,unsyncopated,s1,r1,79,Online_conjL1_un//a.pu.ki29.0.888.wav,pu,fa,ze,sil,ki,la,cho,sil1,ro,ni,sil2,['catch'],[1.4653999999761709],[1.4653999999761709],0.888,beat,0.5773999999761709,0.5773999999761709,"[""space""]",ki,2,testWhatL2Uns//cat_viol.r1.s1.0.wav,4.0,what,unsyncopated,a,s1,no_rule,cat,L2,z,0.867,3.0,0.0,0.1937,4 ,3.0,Español,1.0,Catalán,1.0,Inglés,10.0,Francés,14.0,3.0,2.0,yes,no,yes,Piano,10,,,Me han interrumpido y distraído una vez durante el experimento. ,47.0,yes
80,2023-07-16_10h20.02.632,Unsyncopated1,s8,18.0,masculino,left,España,"Español, catalán",Upper secondary,no,no,A,1,conjunction_un,L1,unsyncopated,s2,r2,80,Online_conjL1_un//a.pu.ki19.none.none.wav,ze,fo,cho,sil,ta,fa,lu,sil1,be,ne,sil2,['-'],,,none,none,,,,ki,2,testWhatL2Uns//r1.s1.2.wav,4.0,what,unsyncopated,a,s1,rule,rule,L2,m,0.3679,4.0,0.0,1.3843,4 ,3.0,Español,1.0,Catalán,1.0,Inglés,10.0,Francés,14.0,3.0,2.0,yes,no,yes,Piano,10,,,Me han interrumpido y distraído una vez durante el experimento. ,47.0,yes
81,2023-07-16_10h20.02.632,Unsyncopated1,s8,18.0,masculino,left,España,"Español, catalán",Upper secondary,no,no,A,1,conjunction_un,L1,unsyncopated,s2,r2,81,Online_conjL1_un//a.pu.ki16.none.none.wav,ze,zu,ni,sil,ta,lu,ne,sil1,be,ri,sil2,['-'],,,none,none,,,,ki,2,testWhatL2Uns//r2.s1.2.wav,4.0,what,unsyncopated,b,s1,rule,rule,L2,m,0.3505,3.0,0.0,0.1226,4 ,3.0,Español,1.0,Catalán,1.0,Inglés,10.0,Francés,14.0,3.0,2.0,yes,no,yes,Piano,10,,,Me han interrumpido y distraído una vez durante el experimento. ,47.0,yes
82,2023-07-16_10h20.02.632,Unsyncopated1,s8,18.0,masculino,left,España,"Español, catalán",Upper secondary,no,no,A,1,conjunction_un,L1,unsyncopated,s2,r2,82,Online_conjL1_un//a.pu.ki18.none.none.wav,zu,ro,ze,sil,ta,fa,cho,sil1,be,ne,sil2,['false alarm'],[1.7642999999523],[1.7642999999523],none,none,,,"[""space""]",ki,2,testWhatL2Uns//time_viol.r2.s1.0.wav,4.0,what,unsyncopated,b,s1,no_rule,time,L2,m,0.3834,4.0,1.0,0.2697,4 ,3.0,Español,1.0,Catalán,1.0,Inglés,10.0,Francés,14.0,3.0,2.0,yes,no,yes,Piano,10,,,Me han interrumpido y distraído una vez durante el experimento. ,47.0,yes
83,2023-07-16_10h20.02.632,Unsyncopated1,s8,18.0,masculino,left,España,"Español, catalán",Upper secondary,no,no,A,1,conjunction_un,L1,unsyncopated,s2,r1,83,Online_conjL1_un//a.pu.ki17.888.1776.wav,ne,ro,ze,sil,pu,fo,lu,sil1,ki,zu,sil2,['catch'],[2.114700000047719],[2.114700000047719],1.776,beat,0.3387000000477191,0.3387000000477191,"[""space""]",ki,2,testWhatL2Uns//time_viol.r1.s2.0.wav,4.0,what,unsyncopated,a,s2,no_rule,time,L2,m,0.4703,3.0,1.0,0.2194,4 ,3.0,Español,1.0,Catalán,1.0,Inglés,10.0,Francés,14.0,3.0,2.0,yes,no,yes,Piano,10,,,Me han interrumpido y distraído una vez durante el experimento. ,47.0,yes
84,2023-07-16_10h20.02.632,Unsyncopated1,s8,18.0,masculino,left,España,"Español, catalán",Upper secondary,no,no,A,1,conjunction_un,L1,unsyncopated,s1,r1,84,Online_conjL1_un//a.pu.ki11.0.888.wav,pu,fa,fo,sil,ki,ze,lu,sil1,ri,ni,sil2,['catch'],[1.7413000000715328],[1.7413000000715328],0.888,beat,0.8533000000715328,0.8533000000715328,"[""space""]",ki,2,testWhatL2Uns//time_viol.r1.s1.0.wav,4.0,what,unsyncopated,a,s1,no_rule,time,L2,z,0.349,5.0,0.0,0.2673,4 ,3.0,Español,1.0,Catalán,1.0,Inglés,10.0,Francés,14.0,3.0,2.0,yes,no,yes,Piano,10,,,Me han interrumpido y distraído una vez durante el experimento. ,47.0,yes
85,2023-07-16_10h20.02.632,Unsyncopated1,s8,18.0,masculino,left,España,"Español, catalán",Upper secondary,no,no,A,1,conjunction_un,L1,unsyncopated,s1,r1,85,Online_conjL1_un//a.pu.ki9.0.888.wav,pu,ne,fo,sil,ki,fa,ni,sil1,ze,ri,sil2,['catch'],[1.4193999999761218],[1.4193999999761218],0.888,beat,0.5313999999761218,0.5313999999761218,"[""space""]",ki,2,testWhatL2Uns//r1.s1.1.wav,4.0,what,unsyncopated,a,s1,rule,rule,L2,m,0.283,5.0,0.0,0.9066,4 ,3.0,Español,1.0,Catalán,1.0,Inglés,10.0,Francés,14.0,3.0,2.0,yes,no,yes,Piano,10,,,Me han interrumpido y distraído una vez durante el experimento. ,47.0,yes
86,2023-07-16_10h20.02.632,Unsyncopated1,s8,18.0,masculino,left,España,"Español, catalán",Upper secondary,no,no,A,1,conjunction_un,L1,unsyncopated,s1,r2,86,Online_conjL1_un//a.pu.ki10.none.none.wav,ta,ze,ni,sil,be,zu,fa,sil1,ro,fo,sil2,['-'],,,none,none,,,,ki,2,testWhatL2Uns//cat_viol.r2.s2.0.wav,4.0,what,unsyncopated,b,s2,no_rule,cat,L2,m,1.6424,4.0,1.0,0.2722,4 ,3.0,Español,1.0,Catalán,1.0,Inglés,10.0,Francés,14.0,3.0,2.0,yes,no,yes,Piano,10,,,Me han interrumpido y distraído una vez durante el experimento. ,47.0,yes
87,2023-07-16_10h20.02.632,Unsyncopated1,s8,18.0,masculino,left,España,"Español, catalán",Upper secondary,no,no,A,1,conjunction_un,L1,unsyncopated,s1,r1,87,Online_conjL1_un//a.pu.ki8.0.888.wav,pu,ne,ro,sil,ki,ze,zu,sil1,la,ni,sil2,['catch'],[1.32000000000005],[1.32000000000005],0.888,beat,0.43200000000005,0.43200000000005,"[""space""]",ki,2,testWhatL2Uns//cat_viol.r1.s2.0.wav,4.0,what,unsyncopated,a,s2,no_rule,cat,L2,m,0.7683,3.0,1.0,0.2409,4 ,3.0,Español,1.0,Catalán,1.0,Inglés,10.0,Francés,14.0,3.0,2.0,yes,no,yes,Piano,10,,,Me han interrumpido y distraído una vez durante el experimento. ,47.0,yes
88,2023-07-16_10h20.02.632,Unsyncopated1,s8,18.0,masculino,left,España,"Español, catalán",Upper secondary,no,no,A,1,conjunction_un,L1,unsyncopated,s2,r2,88,Online_conjL1_un//c.ro.fo4.0.1110.wav,ro,lu,fa,sil,ta,fo,ne,sil1,be,ni,sil2,['catch'],[0.6757999999523463],[0.6757999999523463],0.0,beat,0.6757999999523463,0.6757999999523463,"[""space""]",ro,3,testWhatL2Uns//dep_viol.r2.s2.0.wav,4.0,what,unsyncopated,b,s2,no_rule,dep,L2,z,0.273,4.0,0.0,0.3066,4 ,3.0,Español,1.0,Catalán,1.0,Inglés,10.0,Francés,14.0,3.0,2.0,yes,no,yes,Piano,10,,,Me han interrumpido y distraído una vez durante el experimento. ,47.0,yes
89,2023-07-16_10h20.02.632,Unsyncopated1,s8,18.0,masculino,left,España,"Español, catalán",Upper secondary,no,no,A,1,conjunction_un,L1,unsyncopated,s2,r1,89,Online_conjL1_un//c.ro.fo5.1110.222.wav,ze,fo,lu,sil,pu,ro,zu,sil1,ki,la,sil2,['catch'],[1.5816000000238546],[1.5816000000238546],1.11,no_beat,0.4716000000238545,0.4716000000238545,"[""space""]",ro,3,testWhatL2Uns//r1.s2.2.wav,4.0,what,unsyncopated,a,s2,rule,rule,L2,z,0.7746,3.0,1.0,0.185,4 ,3.0,Español,1.0,Catalán,1.0,Inglés,10.0,Francés,14.0,3.0,2.0,yes,no,yes,Piano,10,,,Me han interrumpido y distraído una vez durante el experimento. ,47.0,yes
90,2023-07-16_10h20.02.632,Unsyncopated1,s8,18.0,masculino,left,España,"Español, catalán",Upper secondary,no,no,A,1,conjunction_un,L1,unsyncopated,s2,r2,90,Online_conjL1_un//c.ro.fo7.444.1110.wav,ni,lu,ro,sil,ta,fo,fa,sil1,be,la,sil2,['catch'],[1.39839999997605],[1.39839999997605],0.444,no_beat,0.95439999997605,0.95439999997605,"[""space""]",ro,3,testWhatL2Uns//dep_viol.r1.s1.0.wav,4.0,what,unsyncopated,a,s1,no_rule,dep,L2,z,0.2925,5.0,0.0,0.2342,4 ,3.0,Español,1.0,Catalán,1.0,Inglés,10.0,Francés,14.0,3.0,2.0,yes,no,yes,Piano,10,,,Me han interrumpido y distraído una vez durante el experimento. ,47.0,yes
91,2023-07-16_10h20.02.632,Unsyncopated1,s8,18.0,masculino,left,España,"Español, catalán",Upper secondary,no,no,A,1,conjunction_un,L1,unsyncopated,s1,r1,91,Online_conjL1_un//c.ro.fo6.none.none.wav,pu,ne,la,sil,ki,ze,ni,sil1,zu,ri,sil2,['-'],,,none,none,,,,ro,3,testWhatL2Uns//r2.s2.0.wav,4.0,what,unsyncopated,b,s2,rule,rule,L2,z,1.233,3.0,1.0,0.2601,4 ,3.0,Español,1.0,Catalán,1.0,Inglés,10.0,Francés,14.0,3.0,2.0,yes,no,yes,Piano,10,,,Me han interrumpido y distraído una vez durante el experimento. ,47.0,yes
92,2023-07-16_10h20.02.632,Unsyncopated1,s8,18.0,masculino,left,España,"Español, catalán",Upper secondary,no,no,A,1,conjunction_un,L1,unsyncopated,s2,r1,92,Online_conjL1_un//a.pu.ki15.888.1776.wav,cho,ri,ne,sil,pu,ze,ni,sil1,ki,zu,sil2,"['false alarm', 'catch']","[0.3252999999523354, 2.2251999999284635]",[2.2251999999284635],1.776,beat,0.4491999999284635,0.4491999999284635,"[""space"",""space""]",ki,2,testWhatL2Uns//dep_viol.r2.s1.0.wav,4.0,what,unsyncopated,b,s1,no_rule,dep,L2,z,3.6693,3.0,0.0,0.5512,4 ,3.0,Español,1.0,Catalán,1.0,Inglés,10.0,Francés,14.0,3.0,2.0,yes,no,yes,Piano,10,,,Me han interrumpido y distraído una vez durante el experimento. ,47.0,yes
93,2023-07-16_10h20.02.632,Unsyncopated1,s8,18.0,masculino,left,España,"Español, catalán",Upper secondary,no,no,A,1,conjunction_un,L1,unsyncopated,s2,r2,93,Online_conjL1_un//a.pu.ki12.none.none.wav,ri,ze,fo,sil,ta,lu,ro,sil1,be,ne,sil2,['-'],,,none,none,,,,ki,2,testWhatL2Uns//r2.s1.1.wav,4.0,what,unsyncopated,b,s1,rule,rule,L2,m,0.6188,4.0,0.0,0.1853,4 ,3.0,Español,1.0,Catalán,1.0,Inglés,10.0,Francés,14.0,3.0,2.0,yes,no,yes,Piano,10,,,Me han interrumpido y distraído una vez durante el experimento. ,47.0,yes
94,2023-07-16_10h20.02.632,Unsyncopated1,s8,18.0,masculino,left,España,"Español, catalán",Upper secondary,no,no,A,1,conjunction_un,L1,unsyncopated,s1,r2,94,Online_conjL1_un//a.pu.ki13.none.none.wav,ta,ne,ro,sil,be,lu,fa,sil1,zu,la,sil2,['-'],,,none,none,,,,ki,2,testWhatL2Uns//r2.s2.1.wav,4.0,what,unsyncopated,b,s2,rule,rule,L2,m,0.5823,5.0,0.0,0.2678,4 ,3.0,Español,1.0,Catalán,1.0,Inglés,10.0,Francés,14.0,3.0,2.0,yes,no,yes,Piano,10,,,Me han interrumpido y distraído una vez durante el experimento. ,47.0,yes
95,2023-07-16_10h20.02.632,Unsyncopated1,s8,18.0,masculino,left,España,"Español, catalán",Upper secondary,no,no,A,1,conjunction_un,L1,unsyncopated,s2,r2,95,Online_conjL1_un//a.pu.ki14.none.none.wav,ne,ze,ni,sil,ta,zu,fo,sil1,be,lu,sil2,['-'],,,none,none,,,,ki,2,testWhatL2Uns//r1.s2.1.wav,4.0,what,unsyncopated,a,s2,rule,rule,L2,m,0.3004,4.0,0.0,0.217,4 ,3.0,Español,1.0,Catalán,1.0,Inglés,10.0,Francés,14.0,3.0,2.0,yes,no,yes,Piano,10,,,Me han interrumpido y distraído una vez durante el experimento. ,47.0,yes
96,2023-07-16_10h20.02.632,Unsyncopated1,s8,18.0,masculino,left,España,"Español, catalán",Upper secondary,no,no,A,1,conjunction_un,L1,unsyncopated,s2,r1,96,Online_conjL1_un//d.ne.ni1.222.444.wav,ro,ne,ni,sil,pu,ze,fo,sil1,ki,cho,sil2,['catch'],[0.8583000000714947],[0.8583000000714947],0.222,no_beat,0.6363000000714947,0.6363000000714947,"[""space""]",ne,4,,,,,,,,,,,,,,,4 ,3.0,Español,1.0,Catalán,1.0,Inglés,10.0,Francés,14.0,3.0,2.0,yes,no,yes,Piano,10,,,Me han interrumpido y distraído una vez durante el experimento. ,47.0,yes
97,2023-07-16_10h20.02.632,Unsyncopated1,s8,18.0,masculino,left,España,"Español, catalán",Upper secondary,no,no,A,1,conjunction_un,L1,unsyncopated,s2,r1,97,Online_conjL1_un//d.ne.ni3.none.none.wav,cho,lu,zu,sil,pu,ro,la,sil1,ki,ri,sil2,['false alarm'],[2.4987000000477337],[2.4987000000477337],none,none,,,"[""space""]",ne,4,,,,,,,,,,,,,,,4 ,3.0,Español,1.0,Catalán,1.0,Inglés,10.0,Francés,14.0,3.0,2.0,yes,no,yes,Piano,10,,,Me han interrumpido y distraído una vez durante el experimento. ,47.0,yes
98,2023-07-16_10h20.02.632,Unsyncopated1,s8,18.0,masculino,left,España,"Español, catalán",Upper secondary,no,no,A,1,conjunction_un,L1,unsyncopated,s1,r1,98,Online_conjL1_un//d.ne.ni2.none.none.wav,pu,ze,fa,sil,ki,ro,cho,sil1,lu,zu,sil2,['false alarm'],[2.2651000000238355],[2.2651000000238355],none,none,,,"[""space""]",ne,4,,,,,,,,,,,,,,,4 ,3.0,Español,1.0,Catalán,1.0,Inglés,10.0,Francés,14.0,3.0,2.0,yes,no,yes,Piano,10,,,Me han interrumpido y distraído una vez durante el experimento. ,47.0,yes
99,2023-07-16_10h20.02.632,Unsyncopated1,s8,18.0,masculino,left,España,"Español, catalán",Upper secondary,no,no,A,1,conjunction_un,L1,unsyncopated,s2,r1,99,Online_conjL1_un//d.ne.ni0.none.none.wav,ro,lu,fa,sil,pu,fo,ri,sil1,ki,ze,sil2,['false alarm'],[1.8982999999523145],[1.8982999999523145],none,none,,,"[""space""]",ne,4,,,,,,,,,,,,,,,4 ,3.0,Español,1.0,Catalán,1.0,Inglés,10.0,Francés,14.0,3.0,2.0,yes,no,yes,Piano,10,,,Me han interrumpido y distraído una vez durante el experimento. ,47.0,yes
100,2023-07-16_10h20.02.632,Unsyncopated1,s8,18.0,masculino,left,España,"Español, catalán",Upper secondary,no,no,A,1,conjunction_un,L1,unsyncopated,s1,r1,100,Online_conjL1_un//a.pu.ki7.0.888.wav,pu,la,fa,sil,ki,ri,ze,sil1,lu,ro,sil2,['catch'],[1.29329999995241],[1.29329999995241],0.888,beat,0.4052999999524099,0.4052999999524099,"[""space""]",ki,2,,,,,,,,,,,,,,,4 ,3.0,Español,1.0,Catalán,1.0,Inglés,10.0,Francés,14.0,3.0,2.0,yes,no,yes,Piano,10,,,Me han interrumpido y distraído una vez durante el experimento. ,47.0,yes
101,2023-07-16_10h20.02.632,Unsyncopated1,s8,18.0,masculino,left,España,"Español, catalán",Upper secondary,no,no,A,1,conjunction_un,L1,unsyncopated,s1,r1,101,Online_conjL1_un//a.pu.ki5.0.888.wav,pu,lu,zu,sil,ki,fo,la,sil1,cho,ze,sil2,['catch'],[1.4503999999761845],[1.4503999999761845],0.888,beat,0.5623999999761845,0.5623999999761845,"[""space""]",ki,2,,,,,,,,,,,,,,,4 ,3.0,Español,1.0,Catalán,1.0,Inglés,10.0,Francés,14.0,3.0,2.0,yes,no,yes,Piano,10,,,Me han interrumpido y distraído una vez durante el experimento. ,47.0,yes
102,2023-07-16_10h20.02.632,Unsyncopated1,s8,18.0,masculino,left,España,"Español, catalán",Upper secondary,no,no,A,1,conjunction_un,L1,unsyncopated,s1,r1,102,Online_conjL1_un//a.pu.ki6.0.888.wav,pu,cho,fa,sil,ki,zu,ni,sil1,ne,ro,sil2,['catch'],[1.4321999999285708],[1.4321999999285708],0.888,beat,0.5441999999285708,0.5441999999285708,"[""space""]",ki,2,,,,,,,,,,,,,,,4 ,3.0,Español,1.0,Catalán,1.0,Inglés,10.0,Francés,14.0,3.0,2.0,yes,no,yes,Piano,10,,,Me han interrumpido y distraído una vez durante el experimento. ,47.0,yes
103,2023-07-16_10h20.02.632,Unsyncopated1,s8,18.0,masculino,left,España,"Español, catalán",Upper secondary,no,no,A,1,conjunction_un,L1,unsyncopated,s2,r1,103,Online_conjL1_un//a.pu.ki4.888.1776.wav,ni,cho,fa,sil,pu,fo,ne,sil1,ki,la,sil2,['catch'],[2.118699999928481],[2.118699999928481],1.776,beat,0.3426999999284807,0.3426999999284807,"[""space""]",ki,2,,,,,,,,,,,,,,,4 ,3.0,Español,1.0,Catalán,1.0,Inglés,10.0,Francés,14.0,3.0,2.0,yes,no,yes,Piano,10,,,Me han interrumpido y distraído una vez durante el experimento. ,47.0,yes
104,2023-07-16_10h20.02.632,Unsyncopated1,s8,18.0,masculino,left,España,"Español, catalán",Upper secondary,no,no,A,1,conjunction_un,L1,unsyncopated,s1,r1,104,Online_conjL1_un//d.ne.ni15.222.1110.wav,pu,ne,ze,sil,ki,ni,cho,sil1,lu,zu,sil2,['catch'],[1.3747000000475964],[1.3747000000475964],0.222,no_beat,1.1527000000475964,1.1527000000475964,"[""space""]",ne,4,,,,,,,,,,,,,,,4 ,3.0,Español,1.0,Catalán,1.0,Inglés,10.0,Francés,14.0,3.0,2.0,yes,no,yes,Piano,10,,,Me han interrumpido y distraído una vez durante el experimento. ,47.0,yes
105,2023-07-16_10h20.02.632,Unsyncopated1,s8,18.0,masculino,left,España,"Español, catalán",Upper secondary,no,no,A,1,conjunction_un,L1,unsyncopated,s1,r2,105,Online_conjL1_un//d.ne.ni14.222.1332.wav,ta,ne,ri,sil,be,fa,ni,sil1,cho,ro,sil2,['catch'],[0.8330000000000837],[0.8330000000000837],0.222,no_beat,0.6110000000000837,0.6110000000000837,"[""space""]",ne,4,,,,,,,,,,,,,,,4 ,3.0,Español,1.0,Catalán,1.0,Inglés,10.0,Francés,14.0,3.0,2.0,yes,no,yes,Piano,10,,,Me han interrumpido y distraído una vez durante el experimento. ,47.0,yes
106,2023-07-16_10h20.02.632,Unsyncopated1,s8,18.0,masculino,left,España,"Español, catalán",Upper secondary,no,no,A,1,conjunction_un,L1,unsyncopated,s1,r1,106,Online_conjL1_un//d.ne.ni12.1332.444.wav,pu,fo,ni,sil,ki,ri,ne,sil1,fa,zu,sil2,['catch'],[1.9361000000238846],[1.9361000000238846],1.332,no_beat,0.6041000000238845,0.6041000000238845,"[""space""]",ne,4,,,,,,,,,,,,,,,4 ,3.0,Español,1.0,Catalán,1.0,Inglés,10.0,Francés,14.0,3.0,2.0,yes,no,yes,Piano,10,,,Me han interrumpido y distraído una vez durante el experimento. ,47.0,yes
107,2023-07-16_10h20.02.632,Unsyncopated1,s8,18.0,masculino,left,España,"Español, catalán",Upper secondary,no,no,A,1,conjunction_un,L1,unsyncopated,s1,r2,107,Online_conjL1_un//d.ne.ni13.none.none.wav,ta,ri,fa,sil,be,fo,ze,sil1,ro,zu,sil2,['-'],,,none,none,,,,ne,4,,,,,,,,,,,,,,,4 ,3.0,Español,1.0,Catalán,1.0,Inglés,10.0,Francés,14.0,3.0,2.0,yes,no,yes,Piano,10,,,Me han interrumpido y distraído una vez durante el experimento. ,47.0,yes
108,2023-07-16_10h20.02.632,Unsyncopated1,s8,18.0,masculino,left,España,"Español, catalán",Upper secondary,no,no,A,1,conjunction_un,L1,unsyncopated,s2,r2,108,Online_conjL1_un//d.ne.ni16.444.1110.wav,ze,zu,ne,sil,ta,ni,fo,sil1,be,cho,sil2,['catch'],[1.8980000000000246],[1.8980000000000246],0.444,no_beat,,1.4540000000000246,"[""space""]",ne,4,,,,,,,,,,,,,,,4 ,3.0,Español,1.0,Catalán,1.0,Inglés,10.0,Francés,14.0,3.0,2.0,yes,no,yes,Piano,10,,,Me han interrumpido y distraído una vez durante el experimento. ,47.0,yes
109,2023-07-16_10h20.02.632,Unsyncopated1,s8,18.0,masculino,left,España,"Español, catalán",Upper secondary,no,no,A,1,conjunction_un,L1,unsyncopated,s2,r1,109,Online_conjL1_un//d.ne.ni19.none.none.wav,zu,fa,ri,sil,pu,lu,la,sil1,ki,ze,sil2,['-'],,,none,none,,,,ne,4,,,,,,,,,,,,,,,4 ,3.0,Español,1.0,Catalán,1.0,Inglés,10.0,Francés,14.0,3.0,2.0,yes,no,yes,Piano,10,,,Me han interrumpido y distraído una vez durante el experimento. ,47.0,yes
110,2023-07-16_10h20.02.632,Unsyncopated1,s8,18.0,masculino,left,España,"Español, catalán",Upper secondary,no,no,A,1,conjunction_un,L1,unsyncopated,s2,r2,110,Online_conjL1_un//d.ne.ni18.none.none.wav,fa,ro,fo,sil,ta,ri,lu,sil1,be,la,sil2,['-'],,,none,none,,,,ne,4,,,,,,,,,,,,,,,4 ,3.0,Español,1.0,Catalán,1.0,Inglés,10.0,Francés,14.0,3.0,2.0,yes,no,yes,Piano,10,,,Me han interrumpido y distraído una vez durante el experimento. ,47.0,yes
111,2023-07-16_10h20.02.632,Unsyncopated1,s8,18.0,masculino,left,España,"Español, catalán",Upper secondary,no,no,A,1,conjunction_un,L1,unsyncopated,s2,r2,111,Online_conjL1_un//d.ne.ni17.0.1110.wav,ne,la,ro,sil,ta,ni,ri,sil1,be,cho,sil2,['miss'],,,0.0,beat,,,,ne,4,,,,,,,,,,,,,,,4 ,3.0,Español,1.0,Catalán,1.0,Inglés,10.0,Francés,14.0,3.0,2.0,yes,no,yes,Piano,10,,,Me han interrumpido y distraído una vez durante el experimento. ,47.0,yes
112,2023-07-16_10h20.02.632,Unsyncopated1,s8,18.0,masculino,left,España,"Español, catalán",Upper secondary,no,no,A,1,conjunction_un,L1,unsyncopated,s1,r2,112,Online_conjL1_un//a.pu.ki20.none.none.wav,ta,ni,ze,sil,be,ri,ne,sil1,cho,fo,sil2,['-'],,,none,none,,,,ki,2,,,,,,,,,,,,,,,4 ,3.0,Español,1.0,Catalán,1.0,Inglés,10.0,Francés,14.0,3.0,2.0,yes,no,yes,Piano,10,,,Me han interrumpido y distraído una vez durante el experimento. ,47.0,yes
113,2023-07-16_10h20.02.632,Unsyncopated1,s8,18.0,masculino,left,España,"Español, catalán",Upper secondary,no,no,A,1,conjunction_un,L1,unsyncopated,s2,r1,113,Online_conjL1_un//a.pu.ki22.888.1776.wav,la,ze,zu,sil,pu,ne,cho,sil1,ki,ri,sil2,['miss'],,,1.776,beat,,,,ki,2,,,,,,,,,,,,,,,4 ,3.0,Español,1.0,Catalán,1.0,Inglés,10.0,Francés,14.0,3.0,2.0,yes,no,yes,Piano,10,,,Me han interrumpido y distraído una vez durante el experimento. ,47.0,yes
114,2023-07-16_10h20.02.632,Unsyncopated1,s8,18.0,masculino,left,España,"Español, catalán",Upper secondary,no,no,A,1,conjunction_un,L1,unsyncopated,s2,r1,114,Online_conjL1_un//a.pu.ki21.888.1776.wav,zu,ri,ni,sil,pu,lu,fa,sil1,ki,ro,sil2,['catch'],[2.215600000023869],[2.215600000023869],1.776,beat,0.4396000000238691,0.4396000000238691,"[""space""]",ki,2,,,,,,,,,,,,,,,4 ,3.0,Español,1.0,Catalán,1.0,Inglés,10.0,Francés,14.0,3.0,2.0,yes,no,yes,Piano,10,,,Me han interrumpido y distraído una vez durante el experimento. ,47.0,yes
115,2023-07-16_10h20.02.632,Unsyncopated1,s8,18.0,masculino,left,España,"Español, catalán",Upper secondary,no,no,A,1,conjunction_un,L1,unsyncopated,s1,r1,115,Online_conjL1_un//a.pu.ki23.0.888.wav,pu,la,ze,sil,ki,cho,fo,sil1,ne,zu,sil2,['catch'],[1.8496000000238837],[1.8496000000238837],0.888,beat,0.9616000000238836,0.9616000000238836,"[""space""]",ki,2,,,,,,,,,,,,,,,4 ,3.0,Español,1.0,Catalán,1.0,Inglés,10.0,Francés,14.0,3.0,2.0,yes,no,yes,Piano,10,,,Me han interrumpido y distraído una vez durante el experimento. ,47.0,yes
116,2023-07-16_10h20.02.632,Unsyncopated1,s8,18.0,masculino,left,España,"Español, catalán",Upper secondary,no,no,A,1,conjunction_un,L1,unsyncopated,s1,r1,116,Online_conjL1_un//c.ro.fo2.none.none.wav,pu,ni,ne,sil,ki,la,ri,sil1,cho,zu,sil2,['false alarm'],[2.3417999999524],[2.3417999999524],none,none,,,"[""space""]",ro,3,,,,,,,,,,,,,,,4 ,3.0,Español,1.0,Catalán,1.0,Inglés,10.0,Francés,14.0,3.0,2.0,yes,no,yes,Piano,10,,,Me han interrumpido y distraído una vez durante el experimento. ,47.0,yes
117,2023-07-16_10h20.02.632,Unsyncopated1,s8,18.0,masculino,left,España,"Español, catalán",Upper secondary,no,no,A,1,conjunction_un,L1,unsyncopated,s1,r2,117,Online_conjL1_un//c.ro.fo3.222.1110.wav,ta,ro,ne,sil,be,fo,fa,sil1,cho,ze,sil2,['miss'],,,0.222,no_beat,,,,ro,3,,,,,,,,,,,,,,,4 ,3.0,Español,1.0,Catalán,1.0,Inglés,10.0,Francés,14.0,3.0,2.0,yes,no,yes,Piano,10,,,Me han interrumpido y distraído una vez durante el experimento. ,47.0,yes
118,2023-07-16_10h20.02.632,Unsyncopated1,s8,18.0,masculino,left,España,"Español, catalán",Upper secondary,no,no,A,1,conjunction_un,L1,unsyncopated,s2,r2,118,Online_conjL1_un//c.ro.fo0.0.222.wav,ro,fo,ri,sil,ta,fa,zu,sil1,be,ze,sil2,['catch'],[0.5643999999761036],[0.5643999999761036],0.0,beat,0.5643999999761036,0.5643999999761036,"[""space""]",ro,3,,,,,,,,,,,,,,,4 ,3.0,Español,1.0,Catalán,1.0,Inglés,10.0,Francés,14.0,3.0,2.0,yes,no,yes,Piano,10,,,Me han interrumpido y distraído una vez durante el experimento. ,47.0,yes
119,2023-07-16_10h20.02.632,Unsyncopated1,s8,18.0,masculino,left,España,"Español, catalán",Upper secondary,no,no,A,1,conjunction_un,L1,unsyncopated,s2,r1,119,Online_conjL1_un//c.ro.fo1.none.none.wav,cho,zu,fa,sil,pu,lu,ni,sil1,ki,ze,sil2,['-'],,,none,none,,,,ro,3,,,,,,,,,,,,,,,4 ,3.0,Español,1.0,Catalán,1.0,Inglés,10.0,Francés,14.0,3.0,2.0,yes,no,yes,Piano,10,,,Me han interrumpido y distraído una vez durante el experimento. ,47.0,yes
120,2023-07-16_10h20.02.632,Unsyncopated1,s8,18.0,masculino,left,España,"Español, catalán",Upper secondary,no,no,A,1,conjunction_un,L1,unsyncopated,s1,r2,120,Online_conjL1_un//b.ta.be3.0.888.wav,ta,fa,ri,sil,be,lu,ro,sil1,zu,la,sil2,['catch'],[0.7437000000477383],[0.7437000000477383],0.0,beat,0.7437000000477383,0.7437000000477383,"[""space""]",ta,1,,,,,,,,,,,,,,,4 ,3.0,Español,1.0,Catalán,1.0,Inglés,10.0,Francés,14.0,3.0,2.0,yes,no,yes,Piano,10,,,Me han interrumpido y distraído una vez durante el experimento. ,47.0,yes
121,2023-07-16_10h20.02.632,Unsyncopated1,s8,18.0,masculino,left,España,"Español, catalán",Upper secondary,no,no,A,1,conjunction_un,L1,unsyncopated,s2,r1,121,Online_conjL1_un//b.ta.be0.none.none.wav,fa,fo,ze,sil,pu,ri,zu,sil1,ki,ne,sil2,['-'],,,none,none,,,,ta,1,,,,,,,,,,,,,,,4 ,3.0,Español,1.0,Catalán,1.0,Inglés,10.0,Francés,14.0,3.0,2.0,yes,no,yes,Piano,10,,,Me han interrumpido y distraído una vez durante el experimento. ,47.0,yes
122,2023-07-16_10h20.02.632,Unsyncopated1,s8,18.0,masculino,left,España,"Español, catalán",Upper secondary,no,no,A,1,conjunction_un,L1,unsyncopated,s1,r1,122,Online_conjL1_un//b.ta.be2.none.none.wav,pu,ro,ri,sil,ki,fa,la,sil1,ze,zu,sil2,"['false alarm', 'false alarm']","[1.3801000000238446, 1.8496999999284753]",1.8496999999284753,none,none,,,"[""space"",""space""]",ta,1,,,,,,,,,,,,,,,4 ,3.0,Español,1.0,Catalán,1.0,Inglés,10.0,Francés,14.0,3.0,2.0,yes,no,yes,Piano,10,,,Me han interrumpido y distraído una vez durante el experimento. ,47.0,yes
123,2023-07-16_10h20.02.632,Unsyncopated1,s8,18.0,masculino,left,España,"Español, catalán",Upper secondary,no,no,A,1,conjunction_un,L1,unsyncopated,s1,r1,123,Online_conjL1_un//b.ta.be1.none.none.wav,pu,fa,ne,sil,ki,fo,lu,sil1,cho,la,sil2,['-'],,,none,none,,,,ta,1,,,,,,,,,,,,,,,4 ,3.0,Español,1.0,Catalán,1.0,Inglés,10.0,Francés,14.0,3.0,2.0,yes,no,yes,Piano,10,,,Me han interrumpido y distraído una vez durante el experimento. ,47.0,yes
124,2023-07-16_10h20.02.632,Unsyncopated1,s8,18.0,masculino,left,España,"Español, catalán",Upper secondary,no,no,A,1,conjunction_un,L1,unsyncopated,s2,r2,124,Online_conjL1_un//d.ne.ni21.none.none.wav,lu,ro,ze,sil,ta,fo,cho,sil1,be,zu,sil2,['-'],,,none,none,,,,ne,4,,,,,,,,,,,,,,,4 ,3.0,Español,1.0,Catalán,1.0,Inglés,10.0,Francés,14.0,3.0,2.0,yes,no,yes,Piano,10,,,Me han interrumpido y distraído una vez durante el experimento. ,47.0,yes
125,2023-07-16_10h20.02.632,Unsyncopated1,s8,18.0,masculino,left,España,"Español, catalán",Upper secondary,no,no,A,1,conjunction_un,L1,unsyncopated,s1,r1,125,Online_conjL1_un//d.ne.ni22.none.none.wav,pu,cho,la,sil,ki,ro,ze,sil1,ri,lu,sil2,['-'],,,none,none,,,,ne,4,,,,,,,,,,,,,,,4 ,3.0,Español,1.0,Catalán,1.0,Inglés,10.0,Francés,14.0,3.0,2.0,yes,no,yes,Piano,10,,,Me han interrumpido y distraído una vez durante el experimento. ,47.0,yes
126,2023-07-16_10h20.02.632,Unsyncopated1,s8,18.0,masculino,left,España,"Español, catalán",Upper secondary,no,no,A,1,conjunction_un,L1,unsyncopated,s1,r1,126,Online_conjL1_un//d.ne.ni20.1110.1332.wav,pu,ro,fa,sil,ki,ne,ni,sil1,cho,fo,sil2,['catch'],[1.498600000023771],[1.498600000023771],1.11,no_beat,0.3886000000237708,0.3886000000237708,"[""space""]",ne,4,,,,,,,,,,,,,,,4 ,3.0,Español,1.0,Catalán,1.0,Inglés,10.0,Francés,14.0,3.0,2.0,yes,no,yes,Piano,10,,,Me han interrumpido y distraído una vez durante el experimento. ,47.0,yes
127,2023-07-16_10h20.02.632,Unsyncopated1,s8,18.0,masculino,left,España,"Español, catalán",Upper secondary,no,no,A,1,conjunction_un,L1,unsyncopated,s1,r1,127,Online_conjL1_un//d.ne.ni23.1110.222.wav,pu,ni,ro,sil,ki,ne,lu,sil1,zu,fa,sil2,['catch'],[1.64780000007147],[1.64780000007147],1.11,no_beat,0.53780000007147,0.53780000007147,"[""space""]",ne,4,,,,,,,,,,,,,,,4 ,3.0,Español,1.0,Catalán,1.0,Inglés,10.0,Francés,14.0,3.0,2.0,yes,no,yes,Piano,10,,,Me han interrumpido y distraído una vez durante el experimento. ,47.0,yes
128,2023-07-16_10h20.02.632,Unsyncopated1,s8,18.0,masculino,left,España,"Español, catalán",Upper secondary,no,no,A,2,conjunction_syn,L4,syncopated,s1,r1,0,Online_conjL4_syn//b.ja.nu2.none.none.wav,zi,da,ru,lo,sil,bo,ci,ñi,sil1,de,sil2,['-'],,,none,none,,,,ja,1,,,,,,,,,,,,,,,4 ,3.0,Español,1.0,Catalán,1.0,Inglés,10.0,Francés,14.0,3.0,2.0,yes,no,yes,Piano,10,,,Me han interrumpido y distraído una vez durante el experimento. ,47.0,yes
129,2023-07-16_10h20.02.632,Unsyncopated1,s8,18.0,masculino,left,España,"Español, catalán",Upper secondary,no,no,A,2,conjunction_syn,L4,syncopated,s1,r2,1,Online_conjL4_syn//b.ja.nu3.0.666.wav,ja,bu,bo,nu,sil,pe,ru,re,sil1,ñi,sil2,['catch'],[0.5787999999522526],[0.5787999999522526],0.0,beat,0.5787999999522526,0.5787999999522526,"[""space""]",ja,1,,,,,,,,,,,,,,,4 ,3.0,Español,1.0,Catalán,1.0,Inglés,10.0,Francés,14.0,3.0,2.0,yes,no,yes,Piano,10,,,Me han interrumpido y distraído una vez durante el experimento. ,47.0,yes
130,2023-07-16_10h20.02.632,Unsyncopated1,s8,18.0,masculino,left,España,"Español, catalán",Upper secondary,no,no,A,2,conjunction_syn,L4,syncopated,s1,r1,2,Online_conjL4_syn//b.ja.nu1.none.none.wav,zi,de,ru,lo,sil,po,ña,bu,sil1,da,sil2,['-'],,,none,none,,,,ja,1,,,,,,,,,,,,,,,4 ,3.0,Español,1.0,Catalán,1.0,Inglés,10.0,Francés,14.0,3.0,2.0,yes,no,yes,Piano,10,,,Me han interrumpido y distraído una vez durante el experimento. ,47.0,yes
131,2023-07-16_10h20.02.632,Unsyncopated1,s8,18.0,masculino,left,España,"Español, catalán",Upper secondary,no,no,A,2,conjunction_syn,L4,syncopated,s2,r2,3,Online_conjL4_syn//b.ja.nu0.666.1554.wav,ña,bu,ci,ja,sil,ñi,re,nu,sil1,po,sil2,['miss'],,,0.666,no_beat,,,,ja,1,,,,,,,,,,,,,,,4 ,3.0,Español,1.0,Catalán,1.0,Inglés,10.0,Francés,14.0,3.0,2.0,yes,no,yes,Piano,10,,,Me han interrumpido y distraído una vez durante el experimento. ,47.0,yes
132,2023-07-16_10h20.02.632,Unsyncopated1,s8,18.0,masculino,left,España,"Español, catalán",Upper secondary,no,no,A,2,conjunction_syn,L4,syncopated,s2,r1,4,Online_conjL4_syn//b.ja.nu17.none.none.wav,ci,ru,de,zi,sil,bo,po,lo,sil1,bu,sil2,['-'],,,none,none,,,,ja,1,,,,,,,,,,,,,,,4 ,3.0,Español,1.0,Catalán,1.0,Inglés,10.0,Francés,14.0,3.0,2.0,yes,no,yes,Piano,10,,,Me han interrumpido y distraído una vez durante el experimento. ,47.0,yes
133,2023-07-16_10h20.02.632,Unsyncopated1,s8,18.0,masculino,left,España,"Español, catalán",Upper secondary,no,no,A,2,conjunction_syn,L4,syncopated,s2,r1,5,Online_conjL4_syn//b.ja.nu16.none.none.wav,da,ru,bo,zi,sil,re,pe,lo,sil1,bu,sil2,['-'],,,none,none,,,,ja,1,,,,,,,,,,,,,,,4 ,3.0,Español,1.0,Catalán,1.0,Inglés,10.0,Francés,14.0,3.0,2.0,yes,no,yes,Piano,10,,,Me han interrumpido y distraído una vez durante el experimento. ,47.0,yes
134,2023-07-16_10h20.02.632,Unsyncopated1,s8,18.0,masculino,left,España,"Español, catalán",Upper secondary,no,no,A,2,conjunction_syn,L4,syncopated,s1,r2,6,Online_conjL4_syn//b.ja.nu19.0.666.wav,ja,ña,po,nu,sil,ñi,ru,re,sil1,da,sil2,['catch'],[0.6245000000001255],[0.6245000000001255],0.0,beat,0.6245000000001255,0.6245000000001255,"[""space""]",ja,1,,,,,,,,,,,,,,,4 ,3.0,Español,1.0,Catalán,1.0,Inglés,10.0,Francés,14.0,3.0,2.0,yes,no,yes,Piano,10,,,Me han interrumpido y distraído una vez durante el experimento. ,47.0,yes
135,2023-07-16_10h20.02.632,Unsyncopated1,s8,18.0,masculino,left,España,"Español, catalán",Upper secondary,no,no,A,2,conjunction_syn,L4,syncopated,s2,r2,7,Online_conjL4_syn//b.ja.nu18.666.1554.wav,ru,pe,po,ja,sil,bu,bo,nu,sil1,da,sil2,['catch'],[1.3959000000954802],[1.3959000000954802],0.666,no_beat,0.7299000000954802,0.7299000000954802,"[""space""]",ja,1,,,,,,,,,,,,,,,4 ,3.0,Español,1.0,Catalán,1.0,Inglés,10.0,Francés,14.0,3.0,2.0,yes,no,yes,Piano,10,,,Me han interrumpido y distraído una vez durante el experimento. ,47.0,yes
136,2023-07-16_10h20.02.632,Unsyncopated1,s8,18.0,masculino,left,España,"Español, catalán",Upper secondary,no,no,A,2,conjunction_syn,L4,syncopated,s1,r2,8,Online_conjL4_syn//c.bu.da25.1110.222.wav,ja,da,re,nu,sil,bu,ru,po,sil1,bo,sil2,['catch'],[1.5349000000953765],[1.5349000000953765],1.11,no_beat,0.4249000000953764,0.4249000000953764,"[""space""]",bu,3,,,,,,,,,,,,,,,4 ,3.0,Español,1.0,Catalán,1.0,Inglés,10.0,Francés,14.0,3.0,2.0,yes,no,yes,Piano,10,,,Me han interrumpido y distraído una vez durante el experimento. ,47.0,yes
137,2023-07-16_10h20.02.632,Unsyncopated1,s8,18.0,masculino,left,España,"Español, catalán",Upper secondary,no,no,A,2,conjunction_syn,L4,syncopated,s2,r1,9,Online_conjL4_syn//c.bu.da26.1110.222.wav,ñi,da,de,zi,sil,bu,pe,lo,sil1,bo,sil2,['catch'],[1.5261000000239164],[1.5261000000239164],1.11,no_beat,0.4161000000239163,0.4161000000239163,"[""space""]",bu,3,,,,,,,,,,,,,,,4 ,3.0,Español,1.0,Catalán,1.0,Inglés,10.0,Francés,14.0,3.0,2.0,yes,no,yes,Piano,10,,,Me han interrumpido y distraído una vez durante el experimento. ,47.0,yes
138,2023-07-16_10h20.02.632,Unsyncopated1,s8,18.0,masculino,left,España,"Español, catalán",Upper secondary,no,no,A,2,conjunction_syn,L4,syncopated,s1,r2,10,Online_conjL4_syn//c.bu.da27.222.1110.wav,ja,bu,re,nu,sil,da,bo,ru,sil1,ci,sil2,['catch'],[2.158700000047702],[2.158700000047702],0.222,no_beat,,1.936700000047702,"[""space""]",bu,3,,,,,,,,,,,,,,,4 ,3.0,Español,1.0,Catalán,1.0,Inglés,10.0,Francés,14.0,3.0,2.0,yes,no,yes,Piano,10,,,Me han interrumpido y distraído una vez durante el experimento. ,47.0,yes
139,2023-07-16_10h20.02.632,Unsyncopated1,s8,18.0,masculino,left,España,"Español, catalán",Upper secondary,no,no,A,2,conjunction_syn,L4,syncopated,s1,r1,11,Online_conjL4_syn//c.bu.da24.none.none.wav,zi,po,pe,lo,sil,ñi,ci,ru,sil1,re,sil2,['-'],,,none,none,,,,bu,3,,,,,,,,,,,,,,,4 ,3.0,Español,1.0,Catalán,1.0,Inglés,10.0,Francés,14.0,3.0,2.0,yes,no,yes,Piano,10,,,Me han interrumpido y distraído una vez durante el experimento. ,47.0,yes
140,2023-07-16_10h20.02.632,Unsyncopated1,s8,18.0,masculino,left,España,"Español, catalán",Upper secondary,no,no,A,2,conjunction_syn,L4,syncopated,s1,r1,12,Online_conjL4_syn//c.bu.da18.1110.1332.wav,zi,bo,ñi,lo,sil,bu,da,de,sil1,po,sil2,['catch'],[1.605200000047489],[1.605200000047489],1.11,no_beat,0.495200000047489,0.495200000047489,"[""space""]",bu,3,,,,,,,,,,,,,,,4 ,3.0,Español,1.0,Catalán,1.0,Inglés,10.0,Francés,14.0,3.0,2.0,yes,no,yes,Piano,10,,,Me han interrumpido y distraído una vez durante el experimento. ,47.0,yes
141,2023-07-16_10h20.02.632,Unsyncopated1,s8,18.0,masculino,left,España,"Español, catalán",Upper secondary,no,no,A,2,conjunction_syn,L4,syncopated,s2,r1,13,Online_conjL4_syn//c.bu.da19.none.none.wav,po,ña,ru,zi,sil,de,pe,lo,sil1,ci,sil2,['-'],,,none,none,,,,bu,3,,,,,,,,,,,,,,,4 ,3.0,Español,1.0,Catalán,1.0,Inglés,10.0,Francés,14.0,3.0,2.0,yes,no,yes,Piano,10,,,Me han interrumpido y distraído una vez durante el experimento. ,47.0,yes
142,2023-07-16_10h20.02.632,Unsyncopated1,s8,18.0,masculino,left,España,"Español, catalán",Upper secondary,no,no,A,2,conjunction_syn,L4,syncopated,s1,r1,14,Online_conjL4_syn//c.bu.da17.none.none.wav,zi,bo,de,lo,sil,po,ña,re,sil1,ci,sil2,['-'],,,none,none,,,,bu,3,,,,,,,,,,,,,,,4 ,3.0,Español,1.0,Catalán,1.0,Inglés,10.0,Francés,14.0,3.0,2.0,yes,no,yes,Piano,10,,,Me han interrumpido y distraído una vez durante el experimento. ,47.0,yes
143,2023-07-16_10h20.02.632,Unsyncopated1,s8,18.0,masculino,left,España,"Español, catalán",Upper secondary,no,no,A,2,conjunction_syn,L4,syncopated,s2,r2,15,Online_conjL4_syn//c.bu.da16.none.none.wav,po,ci,re,ja,sil,pe,de,nu,sil1,ru,sil2,['-'],,,none,none,,,,bu,3,,,,,,,,,,,,,,,4 ,3.0,Español,1.0,Catalán,1.0,Inglés,10.0,Francés,14.0,3.0,2.0,yes,no,yes,Piano,10,,,Me han interrumpido y distraído una vez durante el experimento. ,47.0,yes
144,2023-07-16_10h20.02.632,Unsyncopated1,s8,18.0,masculino,left,España,"Español, catalán",Upper secondary,no,no,A,2,conjunction_syn,L4,syncopated,s2,r2,16,Online_conjL4_syn//c.bu.da23.444.1110.wav,ña,re,bu,ja,sil,da,de,nu,sil1,ci,sil2,['catch'],[1.0012000000476746],[1.0012000000476746],0.444,no_beat,0.5572000000476747,0.5572000000476747,"[""space""]",bu,3,,,,,,,,,,,,,,,4 ,3.0,Español,1.0,Catalán,1.0,Inglés,10.0,Francés,14.0,3.0,2.0,yes,no,yes,Piano,10,,,Me han interrumpido y distraído una vez durante el experimento. ,47.0,yes
145,2023-07-16_10h20.02.632,Unsyncopated1,s8,18.0,masculino,left,España,"Español, catalán",Upper secondary,no,no,A,2,conjunction_syn,L4,syncopated,s2,r1,17,Online_conjL4_syn//c.bu.da22.0.222.wav,bu,da,bo,zi,sil,re,ru,lo,sil1,ñi,sil2,['catch'],[0.6570999999046307],[0.6570999999046307],0.0,beat,0.6570999999046307,0.6570999999046307,"[""space""]",bu,3,,,,,,,,,,,,,,,4 ,3.0,Español,1.0,Catalán,1.0,Inglés,10.0,Francés,14.0,3.0,2.0,yes,no,yes,Piano,10,,,Me han interrumpido y distraído una vez durante el experimento. ,47.0,yes
146,2023-07-16_10h20.02.632,Unsyncopated1,s8,18.0,masculino,left,España,"Español, catalán",Upper secondary,no,no,A,2,conjunction_syn,L4,syncopated,s1,r2,18,Online_conjL4_syn//c.bu.da20.444.1332.wav,ja,pe,bu,nu,sil,ci,da,re,sil1,ru,sil2,['catch'],[1.5634999999999764],[1.5634999999999764],0.444,no_beat,1.1194999999999764,1.1194999999999764,"[""space""]",bu,3,,,,,,,,,,,,,,,4 ,3.0,Español,1.0,Catalán,1.0,Inglés,10.0,Francés,14.0,3.0,2.0,yes,no,yes,Piano,10,,,Me han interrumpido y distraído una vez durante el experimento. ,47.0,yes
147,2023-07-16_10h20.02.632,Unsyncopated1,s8,18.0,masculino,left,España,"Español, catalán",Upper secondary,no,no,A,2,conjunction_syn,L4,syncopated,s2,r2,19,Online_conjL4_syn//c.bu.da21.none.none.wav,ña,re,po,ja,sil,de,ñi,nu,sil1,ru,sil2,['-'],,,none,none,,,,bu,3,,,,,,,,,,,,,,,4 ,3.0,Español,1.0,Catalán,1.0,Inglés,10.0,Francés,14.0,3.0,2.0,yes,no,yes,Piano,10,,,Me han interrumpido y distraído una vez durante el experimento. ,47.0,yes
148,2023-07-16_10h20.02.632,Unsyncopated1,s8,18.0,masculino,left,España,"Español, catalán",Upper secondary,no,no,A,2,conjunction_syn,L4,syncopated,s2,r1,20,Online_conjL4_syn//a.zi.lo16.666.1554.wav,ña,po,ci,zi,sil,pe,de,lo,sil1,ru,sil2,['catch'],[1.953300000071522],[1.953300000071522],1.554,no_beat,0.3993000000715219,0.3993000000715219,"[""space""]",lo,2,,,,,,,,,,,,,,,4 ,3.0,Español,1.0,Catalán,1.0,Inglés,10.0,Francés,14.0,3.0,2.0,yes,no,yes,Piano,10,,,Me han interrumpido y distraído una vez durante el experimento. ,47.0,yes
149,2023-07-16_10h20.02.632,Unsyncopated1,s8,18.0,masculino,left,España,"Español, catalán",Upper secondary,no,no,A,2,conjunction_syn,L4,syncopated,s2,r1,21,Online_conjL4_syn//a.zi.lo19.666.1554.wav,da,bo,po,zi,sil,ru,ci,lo,sil1,bu,sil2,['false alarm'],[1.52639999997632],[1.52639999997632],1.554,no_beat,,,"[""space""]",lo,2,,,,,,,,,,,,,,,4 ,3.0,Español,1.0,Catalán,1.0,Inglés,10.0,Francés,14.0,3.0,2.0,yes,no,yes,Piano,10,,,Me han interrumpido y distraído una vez durante el experimento. ,47.0,yes
150,2023-07-16_10h20.02.632,Unsyncopated1,s8,18.0,masculino,left,España,"Español, catalán",Upper secondary,no,no,A,2,conjunction_syn,L4,syncopated,s1,r2,22,Online_conjL4_syn//a.zi.lo17.none.none.wav,ja,po,bu,nu,sil,de,ru,ñi,sil1,ci,sil2,['-'],,,none,none,,,,lo,2,,,,,,,,,,,,,,,4 ,3.0,Español,1.0,Catalán,1.0,Inglés,10.0,Francés,14.0,3.0,2.0,yes,no,yes,Piano,10,,,Me han interrumpido y distraído una vez durante el experimento. ,47.0,yes
151,2023-07-16_10h20.02.632,Unsyncopated1,s8,18.0,masculino,left,España,"Español, catalán",Upper secondary,no,no,A,2,conjunction_syn,L4,syncopated,s1,r2,23,Online_conjL4_syn//a.zi.lo18.none.none.wav,ja,pe,ru,nu,sil,de,ñi,bu,sil1,re,sil2,['false alarm'],[2.176099999904636],[2.176099999904636],none,none,,,"[""space""]",lo,2,,,,,,,,,,,,,,,4 ,3.0,Español,1.0,Catalán,1.0,Inglés,10.0,Francés,14.0,3.0,2.0,yes,no,yes,Piano,10,,,Me han interrumpido y distraído una vez durante el experimento. ,47.0,yes
152,2023-07-16_10h20.02.632,Unsyncopated1,s8,18.0,masculino,left,España,"Español, catalán",Upper secondary,no,no,A,2,conjunction_syn,L4,syncopated,s2,r1,24,Online_conjL4_syn//b.ja.nu29.none.none.wav,da,po,ña,zi,sil,pe,re,lo,sil1,bo,sil2,['-'],,,none,none,,,,ja,1,,,,,,,,,,,,,,,4 ,3.0,Español,1.0,Catalán,1.0,Inglés,10.0,Francés,14.0,3.0,2.0,yes,no,yes,Piano,10,,,Me han interrumpido y distraído una vez durante el experimento. ,47.0,yes
153,2023-07-16_10h20.02.632,Unsyncopated1,s8,18.0,masculino,left,España,"Español, catalán",Upper secondary,no,no,A,2,conjunction_syn,L4,syncopated,s1,r1,25,Online_conjL4_syn//b.ja.nu28.none.none.wav,zi,ña,bu,lo,sil,re,de,ci,sil1,pe,sil2,['-'],,,none,none,,,,ja,1,,,,,,,,,,,,,,,4 ,3.0,Español,1.0,Catalán,1.0,Inglés,10.0,Francés,14.0,3.0,2.0,yes,no,yes,Piano,10,,,Me han interrumpido y distraído una vez durante el experimento. ,47.0,yes
154,2023-07-16_10h20.02.632,Unsyncopated1,s8,18.0,masculino,left,España,"Español, catalán",Upper secondary,no,no,A,2,conjunction_syn,L4,syncopated,s2,r1,26,Online_conjL4_syn//b.ja.nu30.none.none.wav,ci,ña,ru,zi,sil,bo,pe,lo,sil1,bu,sil2,['-'],,,none,none,,,,ja,1,,,,,,,,,,,,,,,4 ,3.0,Español,1.0,Catalán,1.0,Inglés,10.0,Francés,14.0,3.0,2.0,yes,no,yes,Piano,10,,,Me han interrumpido y distraído una vez durante el experimento. ,47.0,yes
155,2023-07-16_10h20.02.632,Unsyncopated1,s8,18.0,masculino,left,España,"Español, catalán",Upper secondary,no,no,A,2,conjunction_syn,L4,syncopated,s2,r2,27,Online_conjL4_syn//b.ja.nu31.666.1554.wav,po,ru,ña,ja,sil,da,ci,nu,sil1,re,sil2,['catch'],[1.1951000000240128],[1.1951000000240128],0.666,no_beat,0.5291000000240128,0.5291000000240128,"[""space""]",ja,1,,,,,,,,,,,,,,,4 ,3.0,Español,1.0,Catalán,1.0,Inglés,10.0,Francés,14.0,3.0,2.0,yes,no,yes,Piano,10,,,Me han interrumpido y distraído una vez durante el experimento. ,47.0,yes
156,2023-07-16_10h20.02.632,Unsyncopated1,s8,18.0,masculino,left,España,"Español, catalán",Upper secondary,no,no,A,2,conjunction_syn,L4,syncopated,s2,r1,28,Online_conjL4_syn//d.pe.po19.none.none.wav,da,de,ña,zi,sil,bo,ru,lo,sil1,ñi,sil2,['-'],,,none,none,,,,pe,4,,,,,,,,,,,,,,,4 ,3.0,Español,1.0,Catalán,1.0,Inglés,10.0,Francés,14.0,3.0,2.0,yes,no,yes,Piano,10,,,Me han interrumpido y distraído una vez durante el experimento. ,47.0,yes
157,2023-07-16_10h20.02.632,Unsyncopated1,s8,18.0,masculino,left,España,"Español, catalán",Upper secondary,no,no,A,2,conjunction_syn,L4,syncopated,s1,r2,29,Online_conjL4_syn//d.pe.po16.none.none.wav,ja,bo,ci,nu,sil,da,ru,re,sil1,de,sil2,['-'],,,none,none,,,,pe,4,,,,,,,,,,,,,,,4 ,3.0,Español,1.0,Catalán,1.0,Inglés,10.0,Francés,14.0,3.0,2.0,yes,no,yes,Piano,10,,,Me han interrumpido y distraído una vez durante el experimento. ,47.0,yes
158,2023-07-16_10h20.02.632,Unsyncopated1,s8,18.0,masculino,left,España,"Español, catalán",Upper secondary,no,no,A,2,conjunction_syn,L4,syncopated,s2,r2,30,Online_conjL4_syn//d.pe.po17.222.444.wav,bo,pe,po,ja,sil,re,ci,nu,sil1,ru,sil2,['miss'],,,0.222,no_beat,,,,pe,4,,,,,,,,,,,,,,,4 ,3.0,Español,1.0,Catalán,1.0,Inglés,10.0,Francés,14.0,3.0,2.0,yes,no,yes,Piano,10,,,Me han interrumpido y distraído una vez durante el experimento. ,47.0,yes
159,2023-07-16_10h20.02.632,Unsyncopated1,s8,18.0,masculino,left,España,"Español, catalán",Upper secondary,no,no,A,2,conjunction_syn,L4,syncopated,s1,r1,31,Online_conjL4_syn//d.pe.po18.1554.1110.wav,zi,ña,da,lo,sil,po,bo,pe,sil1,ru,sil2,['miss'],,,1.554,no_beat,,,,pe,4,,,,,,,,,,,,,,,4 ,3.0,Español,1.0,Catalán,1.0,Inglés,10.0,Francés,14.0,3.0,2.0,yes,no,yes,Piano,10,,,Me han interrumpido y distraído una vez durante el experimento. ,47.0,yes
160,2023-07-16_10h20.02.632,Unsyncopated1,s8,18.0,masculino,left,España,"Español, catalán",Upper secondary,no,no,A,2,conjunction_syn,L4,syncopated,s2,r2,32,Online_conjL4_syn//a.zi.lo23.none.none.wav,da,ci,po,ja,sil,ñi,pe,nu,sil1,bo,sil2,['-'],,,none,none,,,,lo,2,,,,,,,,,,,,,,,4 ,3.0,Español,1.0,Catalán,1.0,Inglés,10.0,Francés,14.0,3.0,2.0,yes,no,yes,Piano,10,,,Me han interrumpido y distraído una vez durante el experimento. ,47.0,yes
161,2023-07-16_10h20.02.632,Unsyncopated1,s8,18.0,masculino,left,España,"Español, catalán",Upper secondary,no,no,A,2,conjunction_syn,L4,syncopated,s2,r1,33,Online_conjL4_syn//a.zi.lo21.666.1554.wav,ñi,bo,ru,zi,sil,pe,ña,lo,sil1,de,sil2,['catch'],[2.554600000023811],[2.554600000023811],1.554,no_beat,1.0006000000238109,1.0006000000238109,"[""space""]",lo,2,,,,,,,,,,,,,,,4 ,3.0,Español,1.0,Catalán,1.0,Inglés,10.0,Francés,14.0,3.0,2.0,yes,no,yes,Piano,10,,,Me han interrumpido y distraído una vez durante el experimento. ,47.0,yes
162,2023-07-16_10h20.02.632,Unsyncopated1,s8,18.0,masculino,left,España,"Español, catalán",Upper secondary,no,no,A,2,conjunction_syn,L4,syncopated,s1,r2,34,Online_conjL4_syn//a.zi.lo20.none.none.wav,ja,ru,po,nu,sil,ña,re,da,sil1,de,sil2,['-'],,,none,none,,,,lo,2,,,,,,,,,,,,,,,4 ,3.0,Español,1.0,Catalán,1.0,Inglés,10.0,Francés,14.0,3.0,2.0,yes,no,yes,Piano,10,,,Me han interrumpido y distraído una vez durante el experimento. ,47.0,yes
163,2023-07-16_10h20.02.632,Unsyncopated1,s8,18.0,masculino,left,España,"Español, catalán",Upper secondary,no,no,A,2,conjunction_syn,L4,syncopated,s2,r1,35,Online_conjL4_syn//a.zi.lo22.666.1554.wav,po,bo,pe,zi,sil,re,bu,lo,sil1,da,sil2,['catch'],[2.0872999999523927],[2.0872999999523927],1.554,no_beat,0.5332999999523926,0.5332999999523926,"[""space""]",lo,2,,,,,,,,,,,,,,,4 ,3.0,Español,1.0,Catalán,1.0,Inglés,10.0,Francés,14.0,3.0,2.0,yes,no,yes,Piano,10,,,Me han interrumpido y distraído una vez durante el experimento. ,47.0,yes
164,2023-07-16_10h20.02.632,Unsyncopated1,s8,18.0,masculino,left,España,"Español, catalán",Upper secondary,no,no,A,2,conjunction_syn,L4,syncopated,s2,r2,36,Online_conjL4_syn//c.bu.da15.222.444.wav,de,bu,da,ja,sil,ci,bo,nu,sil1,re,sil2,['miss'],,,0.222,no_beat,,,,bu,3,,,,,,,,,,,,,,,4 ,3.0,Español,1.0,Catalán,1.0,Inglés,10.0,Francés,14.0,3.0,2.0,yes,no,yes,Piano,10,,,Me han interrumpido y distraído una vez durante el experimento. ,47.0,yes
165,2023-07-16_10h20.02.632,Unsyncopated1,s8,18.0,masculino,left,España,"Español, catalán",Upper secondary,no,no,A,2,conjunction_syn,L4,syncopated,s2,r1,37,Online_conjL4_syn//c.bu.da13.none.none.wav,ci,ñi,ña,zi,sil,ru,re,lo,sil1,po,sil2,['-'],,,none,none,,,,bu,3,,,,,,,,,,,,,,,4 ,3.0,Español,1.0,Catalán,1.0,Inglés,10.0,Francés,14.0,3.0,2.0,yes,no,yes,Piano,10,,,Me han interrumpido y distraído una vez durante el experimento. ,47.0,yes
166,2023-07-16_10h20.02.632,Unsyncopated1,s8,18.0,masculino,left,España,"Español, catalán",Upper secondary,no,no,A,2,conjunction_syn,L4,syncopated,s1,r1,38,Online_conjL4_syn//c.bu.da12.1110.1332.wav,zi,ci,ña,lo,sil,bu,da,pe,sil1,po,sil2,['catch'],[1.5542000000477856],[1.5542000000477856],1.11,no_beat,0.4442000000477855,0.4442000000477855,"[""space""]",bu,3,,,,,,,,,,,,,,,4 ,3.0,Español,1.0,Catalán,1.0,Inglés,10.0,Francés,14.0,3.0,2.0,yes,no,yes,Piano,10,,,Me han interrumpido y distraído una vez durante el experimento. ,47.0,yes
167,2023-07-16_10h20.02.632,Unsyncopated1,s8,18.0,masculino,left,España,"Español, catalán",Upper secondary,no,no,A,2,conjunction_syn,L4,syncopated,s2,r2,39,Online_conjL4_syn//c.bu.da14.none.none.wav,ci,ñi,pe,ja,sil,ru,re,nu,sil1,ña,sil2,['-'],,,none,none,,,,bu,3,,,,,,,,,,,,,,,4 ,3.0,Español,1.0,Catalán,1.0,Inglés,10.0,Francés,14.0,3.0,2.0,yes,no,yes,Piano,10,,,Me han interrumpido y distraído una vez durante el experimento. ,47.0,yes
168,2023-07-16_10h20.02.632,Unsyncopated1,s8,18.0,masculino,left,España,"Español, catalán",Upper secondary,no,no,A,2,conjunction_syn,L4,syncopated,s2,r2,40,Online_conjL4_syn//d.pe.po29.none.none.wav,da,ña,ru,ja,sil,ñi,de,nu,sil1,ci,sil2,['-'],,,none,none,,,,pe,4,,,,,,,,,,,,,,,4 ,3.0,Español,1.0,Catalán,1.0,Inglés,10.0,Francés,14.0,3.0,2.0,yes,no,yes,Piano,10,,,Me han interrumpido y distraído una vez durante el experimento. ,47.0,yes
169,2023-07-16_10h20.02.632,Unsyncopated1,s8,18.0,masculino,left,España,"Español, catalán",Upper secondary,no,no,A,2,conjunction_syn,L4,syncopated,s1,r2,41,Online_conjL4_syn//d.pe.po28.none.none.wav,ja,ru,ña,nu,sil,re,bu,da,sil1,ci,sil2,['-'],,,none,none,,,,pe,4,,,,,,,,,,,,,,,4 ,3.0,Español,1.0,Catalán,1.0,Inglés,10.0,Francés,14.0,3.0,2.0,yes,no,yes,Piano,10,,,Me han interrumpido y distraído una vez durante el experimento. ,47.0,yes
170,2023-07-16_10h20.02.632,Unsyncopated1,s8,18.0,masculino,left,España,"Español, catalán",Upper secondary,no,no,A,2,conjunction_syn,L4,syncopated,s2,r1,42,Online_conjL4_syn//d.pe.po30.444.0.wav,po,ru,pe,zi,sil,bu,ci,lo,sil1,re,sil2,['catch'],[0.6040000000000418],[0.6040000000000418],0.444,no_beat,0.1600000000000418,0.1600000000000418,"[""space""]",pe,4,,,,,,,,,,,,,,,4 ,3.0,Español,1.0,Catalán,1.0,Inglés,10.0,Francés,14.0,3.0,2.0,yes,no,yes,Piano,10,,,Me han interrumpido y distraído una vez durante el experimento. ,47.0,yes
171,2023-07-16_10h20.02.632,Unsyncopated1,s8,18.0,masculino,left,España,"Español, catalán",Upper secondary,no,no,A,2,conjunction_syn,L4,syncopated,s1,r2,43,Online_conjL4_syn//d.pe.po31.444.1332.wav,ja,re,pe,nu,sil,de,po,ci,sil1,bo,sil2,['catch'],[1.0282000000477183],[1.0282000000477183],0.444,no_beat,0.5842000000477183,0.5842000000477183,"[""space""]",pe,4,,,,,,,,,,,,,,,4 ,3.0,Español,1.0,Catalán,1.0,Inglés,10.0,Francés,14.0,3.0,2.0,yes,no,yes,Piano,10,,,Me han interrumpido y distraído una vez durante el experimento. ,47.0,yes
172,2023-07-16_10h20.02.632,Unsyncopated1,s8,18.0,masculino,left,España,"Español, catalán",Upper secondary,no,no,A,2,conjunction_syn,L4,syncopated,s1,r1,44,Online_conjL4_syn//b.ja.nu5.none.none.wav,zi,bo,pe,lo,sil,po,re,da,sil1,ñi,sil2,['-'],,,none,none,,,,ja,1,,,,,,,,,,,,,,,4 ,3.0,Español,1.0,Catalán,1.0,Inglés,10.0,Francés,14.0,3.0,2.0,yes,no,yes,Piano,10,,,Me han interrumpido y distraído una vez durante el experimento. ,47.0,yes
173,2023-07-16_10h20.02.632,Unsyncopated1,s8,18.0,masculino,left,España,"Español, catalán",Upper secondary,no,no,A,2,conjunction_syn,L4,syncopated,s1,r1,45,Online_conjL4_syn//b.ja.nu7.none.none.wav,zi,po,pe,lo,sil,ci,bu,ñi,sil1,ru,sil2,['-'],,,none,none,,,,ja,1,,,,,,,,,,,,,,,4 ,3.0,Español,1.0,Catalán,1.0,Inglés,10.0,Francés,14.0,3.0,2.0,yes,no,yes,Piano,10,,,Me han interrumpido y distraído una vez durante el experimento. ,47.0,yes
174,2023-07-16_10h20.02.632,Unsyncopated1,s8,18.0,masculino,left,España,"Español, catalán",Upper secondary,no,no,A,2,conjunction_syn,L4,syncopated,s2,r1,46,Online_conjL4_syn//b.ja.nu6.none.none.wav,ña,po,ru,zi,sil,ñi,re,lo,sil1,bo,sil2,['-'],,,none,none,,,,ja,1,,,,,,,,,,,,,,,4 ,3.0,Español,1.0,Catalán,1.0,Inglés,10.0,Francés,14.0,3.0,2.0,yes,no,yes,Piano,10,,,Me han interrumpido y distraído una vez durante el experimento. ,47.0,yes
175,2023-07-16_10h20.02.632,Unsyncopated1,s8,18.0,masculino,left,España,"Español, catalán",Upper secondary,no,no,A,2,conjunction_syn,L4,syncopated,s1,r2,47,Online_conjL4_syn//b.ja.nu4.0.666.wav,ja,re,ru,nu,sil,po,pe,da,sil1,ñi,sil2,['catch'],[0.44450000000006185],[0.44450000000006185],0.0,beat,0.4445000000000618,0.4445000000000618,"[""space""]",ja,1,,,,,,,,,,,,,,,4 ,3.0,Español,1.0,Catalán,1.0,Inglés,10.0,Francés,14.0,3.0,2.0,yes,no,yes,Piano,10,,,Me han interrumpido y distraído una vez durante el experimento. ,47.0,yes
176,2023-07-16_10h20.02.632,Unsyncopated1,s8,18.0,masculino,left,España,"Español, catalán",Upper secondary,no,no,A,2,conjunction_syn,L4,syncopated,s2,r2,48,Online_conjL4_syn//a.zi.lo29.none.none.wav,ña,da,re,ja,sil,ci,po,nu,sil1,ru,sil2,['-'],,,none,none,,,,lo,2,,,,,,,,,,,,,,,4 ,3.0,Español,1.0,Catalán,1.0,Inglés,10.0,Francés,14.0,3.0,2.0,yes,no,yes,Piano,10,,,Me han interrumpido y distraído una vez durante el experimento. ,47.0,yes
177,2023-07-16_10h20.02.632,Unsyncopated1,s8,18.0,masculino,left,España,"Español, catalán",Upper secondary,no,no,A,2,conjunction_syn,L4,syncopated,s2,r2,49,Online_conjL4_syn//a.zi.lo31.none.none.wav,bo,ru,ci,ja,sil,po,da,nu,sil1,bu,sil2,['-'],,,none,none,,,,lo,2,,,,,,,,,,,,,,,4 ,3.0,Español,1.0,Catalán,1.0,Inglés,10.0,Francés,14.0,3.0,2.0,yes,no,yes,Piano,10,,,Me han interrumpido y distraído una vez durante el experimento. ,47.0,yes
178,2023-07-16_10h20.02.632,Unsyncopated1,s8,18.0,masculino,left,España,"Español, catalán",Upper secondary,no,no,A,2,conjunction_syn,L4,syncopated,s1,r2,50,Online_conjL4_syn//a.zi.lo28.none.none.wav,ja,pe,bu,nu,sil,ña,ñi,bo,sil1,ru,sil2,['false alarm'],[0.8240000000000691],[0.8240000000000691],none,none,,,"[""space""]",lo,2,,,,,,,,,,,,,,,4 ,3.0,Español,1.0,Catalán,1.0,Inglés,10.0,Francés,14.0,3.0,2.0,yes,no,yes,Piano,10,,,Me han interrumpido y distraído una vez durante el experimento. ,47.0,yes
179,2023-07-16_10h20.02.632,Unsyncopated1,s8,18.0,masculino,left,España,"Español, catalán",Upper secondary,no,no,A,2,conjunction_syn,L4,syncopated,s1,r1,51,Online_conjL4_syn//a.zi.lo30.0.666.wav,zi,ñi,ru,lo,sil,bu,bo,ña,sil1,de,sil2,['catch'],[1.1879999999998745],[1.1879999999998745],0.666,no_beat,0.5219999999998745,0.5219999999998745,"[""space""]",lo,2,,,,,,,,,,,,,,,4 ,3.0,Español,1.0,Catalán,1.0,Inglés,10.0,Francés,14.0,3.0,2.0,yes,no,yes,Piano,10,,,Me han interrumpido y distraído una vez durante el experimento. ,47.0,yes
180,2023-07-16_10h20.02.632,Unsyncopated1,s8,18.0,masculino,left,España,"Español, catalán",Upper secondary,no,no,A,2,conjunction_syn,L4,syncopated,s2,r1,52,Online_conjL4_syn//a.zi.lo11.666.1554.wav,bu,ru,ci,zi,sil,po,de,lo,sil1,da,sil2,['miss'],,,1.554,no_beat,,,,lo,2,,,,,,,,,,,,,,,4 ,3.0,Español,1.0,Catalán,1.0,Inglés,10.0,Francés,14.0,3.0,2.0,yes,no,yes,Piano,10,,,Me han interrumpido y distraído una vez durante el experimento. ,47.0,yes
181,2023-07-16_10h20.02.632,Unsyncopated1,s8,18.0,masculino,left,España,"Español, catalán",Upper secondary,no,no,A,2,conjunction_syn,L4,syncopated,s2,r1,53,Online_conjL4_syn//a.zi.lo9.666.1554.wav,po,ci,bu,zi,sil,de,ña,lo,sil1,ñi,sil2,['miss'],,,1.554,no_beat,,,,lo,2,,,,,,,,,,,,,,,4 ,3.0,Español,1.0,Catalán,1.0,Inglés,10.0,Francés,14.0,3.0,2.0,yes,no,yes,Piano,10,,,Me han interrumpido y distraído una vez durante el experimento. ,47.0,yes
182,2023-07-16_10h20.02.632,Unsyncopated1,s8,18.0,masculino,left,España,"Español, catalán",Upper secondary,no,no,A,2,conjunction_syn,L4,syncopated,s1,r1,54,Online_conjL4_syn//a.zi.lo8.0.666.wav,zi,pe,re,lo,sil,ña,bo,bu,sil1,de,sil2,['catch'],[1.2046999999286072],[1.2046999999286072],0.666,no_beat,0.5386999999286072,0.5386999999286072,"[""space""]",lo,2,,,,,,,,,,,,,,,4 ,3.0,Español,1.0,Catalán,1.0,Inglés,10.0,Francés,14.0,3.0,2.0,yes,no,yes,Piano,10,,,Me han interrumpido y distraído una vez durante el experimento. ,47.0,yes
183,2023-07-16_10h20.02.632,Unsyncopated1,s8,18.0,masculino,left,España,"Español, catalán",Upper secondary,no,no,A,2,conjunction_syn,L4,syncopated,s1,r2,55,Online_conjL4_syn//a.zi.lo10.none.none.wav,ja,bu,de,nu,sil,re,ci,bo,sil1,ña,sil2,['-'],,,none,none,,,,lo,2,,,,,,,,,,,,,,,4 ,3.0,Español,1.0,Catalán,1.0,Inglés,10.0,Francés,14.0,3.0,2.0,yes,no,yes,Piano,10,,,Me han interrumpido y distraído una vez durante el experimento. ,47.0,yes
184,2023-07-16_10h20.02.632,Unsyncopated1,s8,18.0,masculino,left,España,"Español, catalán",Upper secondary,no,no,A,2,conjunction_syn,L4,syncopated,s1,r1,56,Online_conjL4_syn//a.zi.lo2.0.666.wav,zi,ñi,re,lo,sil,bu,ci,bo,sil1,ña,sil2,['catch'],[1.0240999999045926],[1.0240999999045926],0.666,no_beat,0.3580999999045925,0.3580999999045925,"[""space""]",lo,2,,,,,,,,,,,,,,,4 ,3.0,Español,1.0,Catalán,1.0,Inglés,10.0,Francés,14.0,3.0,2.0,yes,no,yes,Piano,10,,,Me han interrumpido y distraído una vez durante el experimento. ,47.0,yes
