Unnamed: 0,date,expName,participant,age,sex,hand,residence,native_lang,education_level,lang_deficit,aud_deficit,group,block,condition,language,rhythm,rule structure online,rule type online,order_trial_on,trial_online,s1,s2,s3,s4,s5,s6,s7,s8,s9,s10,s11,catch_syll_resp,rts_syll_catch,clean_rts,time_syll,beat_no_beat,catch_rtsTR,catch_rts,syllable_catch.keys,cond_syll,syll_to_catch,test_offline,block_off,condition_off,rhythm_off,rule,rule_str_off,rule_norule,conds_offline,language_off,Partz_no_partm.keys,Partz_no_partm.rt,security_1_7.keys,accuracy,security_1_7.rt,n_lang,n_lang_used,lang_1,age_l1,lang_2,age_l2,ability_learn_l2,tendence_mix_lan,music_experience,muisc_use,partiture,instr_1,age_M1,preguntas_musica1,BMRQ_answer.response,final comment,BMRQ_Score,bilingual
0,2024-02-04_19h07.14.698,Unsyncopated_study2,102,23.0,feminino,right,España,castellano,Master degree,no,no,B,1,when,L4,unsyncopated,when,when,0,Online_whenL4//a.lo14.none.wav,bu,ru,nu,sil,zi,bo,pe,sil1,da,ñi,sil2,['-'],,,none,none,,,,lo,1,testWhenL4Uns//r1.s2.2.wav,1.0,when,unsyncopated,a,s2,rule,rule,L4,z,4.308,6.0,1.0,2.489,2.0,2.0,castellano,0.0,inglés,6.0,3.0,4.0,no,no,no,nada,,1. Cuando comparto música con alguien siento una complicidad especial con aquella persona.,3.0,nada,58.0,yes
1,2024-02-04_19h07.14.698,Unsyncopated_study2,102,23.0,feminino,right,España,castellano,Master degree,no,no,B,1,when,L4,unsyncopated,when,when,1,Online_whenL4//a.lo12.none.wav,nu,bu,zi,sil,ñi,bo,ci,sil1,ru,ña,sil2,['-'],,,none,none,,,,lo,1,testWhenL4Uns//time_viol.r2.s2.0.wav,1.0,when,unsyncopated,b,s2,no_rule,time,L4,z,1.249,6.0,1.0,2.366,2.0,2.0,castellano,0.0,inglés,6.0,3.0,4.0,no,no,no,nada,,2. En mi tiempo libre apenas escucho música.,3.0,nada,58.0,yes
2,2024-02-04_19h07.14.698,Unsyncopated_study2,102,23.0,feminino,right,España,castellano,Master degree,no,no,B,1,when,L4,unsyncopated,when,when,2,Online_whenL4//a.lo13.1776.wav,re,ña,ru,sil,ci,ja,ñi,sil1,lo,pe,sil2,['catch'],[2.3250000000000455],[2.3250000000000455],1.776,beat,0.5490000000000455,0.5490000000000455,"[""space""]",lo,1,testWhenL4Uns//cat_viol.r1.s2.0.wav,1.0,when,unsyncopated,a,s2,no_rule,cat,L4,m,4.228,4.0,0.0,3.497,2.0,2.0,castellano,0.0,inglés,6.0,3.0,4.0,no,no,no,nada,,3. Algunas canciones me ponen los pelos de punta,4.0,nada,58.0,yes
3,2024-02-04_19h07.14.698,Unsyncopated_study2,102,23.0,feminino,right,España,castellano,Master degree,no,no,B,1,when,L4,unsyncopated,when,when,3,Online_whenL4//a.lo15.1776.wav,de,pe,da,sil,ñi,po,re,sil1,lo,ja,sil2,['catch'],[2.2240000000000464],[2.2240000000000464],1.776,beat,0.4480000000000463,0.4480000000000463,"[""space""]",lo,1,testWhenL4Uns//r1.s1.0.wav,1.0,when,unsyncopated,a,s1,rule,rule,L4,z,1.25,6.0,1.0,2.0,2.0,2.0,castellano,0.0,inglés,6.0,3.0,4.0,no,no,no,nada,,4. La música me hace compañía cuando estoy solo,4.0,nada,58.0,yes
4,2024-02-04_19h07.14.698,Unsyncopated_study2,102,23.0,feminino,right,España,castellano,Master degree,no,no,B,1,when,L4,unsyncopated,when,when,4,Online_whenL4//c.bu27.0.wav,bu,de,zi,sil,ja,da,ru,sil1,bo,po,sil2,['miss'],,,0.0,beat,,,,bu,3,testWhenL4Uns//cat_viol.r1.s1.0.wav,1.0,when,unsyncopated,a,s1,no_rule,cat,L4,m,2.931,6.0,0.0,7.263,2.0,2.0,castellano,0.0,inglés,6.0,3.0,4.0,no,no,no,nada,,5. No me apetece bailar ni con la música que más me gusta,4.0,nada,58.0,yes
5,2024-02-04_19h07.14.698,Unsyncopated_study2,102,23.0,feminino,right,España,castellano,Master degree,no,no,B,1,when,L4,unsyncopated,when,when,5,Online_whenL4//c.bu25.222.wav,ña,bu,de,sil,da,po,lo,sil1,ja,pe,sil2,['catch'],[0.79200000000003],[0.79200000000003],0.222,no_beat,0.57000000000003,0.57000000000003,"[""space""]",bu,3,testWhenL4Uns//r2.s1.1.wav,1.0,when,unsyncopated,b,s1,rule,rule,L4,z,1.8,5.0,1.0,2.248,2.0,2.0,castellano,0.0,inglés,6.0,3.0,4.0,no,no,no,nada,,6. La música me hace conectar con la gente,3.0,nada,58.0,yes
6,2024-02-04_19h07.14.698,Unsyncopated_study2,102,23.0,feminino,right,España,castellano,Master degree,no,no,B,1,when,L4,unsyncopated,when,when,6,Online_whenL4//c.bu26.none.wav,po,da,ña,sil,zi,ru,lo,sil1,ci,re,sil2,['-'],,,none,none,,,,bu,3,testWhenL4Uns//cat_viol.r2.s2.0.wav,1.0,when,unsyncopated,b,s2,no_rule,cat,L4,m,2.233,5.0,0.0,1.983,2.0,2.0,castellano,0.0,inglés,6.0,3.0,4.0,no,no,no,nada,,7. Me informo sobre la música que me gusta.,2.0,nada,58.0,yes
7,2024-02-04_19h07.14.698,Unsyncopated_study2,102,23.0,feminino,right,España,castellano,Master degree,no,no,B,1,when,L4,unsyncopated,when,when,7,Online_whenL4//c.bu24.1998.wav,lo,po,ci,sil,nu,re,ñi,sil1,pe,bu,sil2,['catch'],[2.5579999999999927],[2.5579999999999927],1.998,no_beat,0.5599999999999927,0.5599999999999927,"[""space""]",bu,3,testWhenL4Uns//r1.s2.0.wav,1.0,when,unsyncopated,a,s2,rule,rule,L4,m,7.178,3.0,0.0,1.433,2.0,2.0,castellano,0.0,inglés,6.0,3.0,4.0,no,no,no,nada,,8.Me emociono escuchando ciertas canciones.,3.0,nada,58.0,yes
8,2024-02-04_19h07.14.698,Unsyncopated_study2,102,23.0,feminino,right,España,castellano,Master degree,no,no,B,1,when,L4,unsyncopated,when,when,8,Online_whenL4//d.pe30.none.wav,ru,lo,po,sil,nu,de,da,sil1,ña,ñi,sil2,['-'],,,none,none,,,,pe,4,testWhenL4Uns//time_viol.r2.s1.0.wav,1.0,when,unsyncopated,b,s1,no_rule,time,L4,z,3.914,3.0,1.0,0.999,2.0,2.0,castellano,0.0,inglés,6.0,3.0,4.0,no,no,no,nada,,9.La música me tranquiliza y me relaja.,4.0,nada,58.0,yes
9,2024-02-04_19h07.14.698,Unsyncopated_study2,102,23.0,feminino,right,España,castellano,Master degree,no,no,B,1,when,L4,unsyncopated,when,when,9,Online_whenL4//d.pe31.1332.wav,bu,re,ru,sil,ja,de,pe,sil1,ci,zi,sil2,['catch'],[1.808999999999969],[1.808999999999969],1.332,no_beat,0.476999999999969,0.476999999999969,"[""space""]",pe,4,testWhenL4Uns//time_viol.r1.s2.0.wav,1.0,when,unsyncopated,a,s2,no_rule,time,L4,z,2.63,3.0,1.0,2.781,2.0,2.0,castellano,0.0,inglés,6.0,3.0,4.0,no,no,no,nada,,10.La música me hace bailar,2.0,nada,58.0,yes
10,2024-02-04_19h07.14.698,Unsyncopated_study2,102,23.0,feminino,right,España,castellano,Master degree,no,no,B,1,when,L4,unsyncopated,when,when,10,Online_whenL4//d.pe29.none.wav,da,po,ja,sil,bu,bo,lo,sil1,ña,de,sil2,['-'],,,none,none,,,,pe,4,testWhenL4Uns//time_viol.r1.s1.0.wav,1.0,when,unsyncopated,a,s1,no_rule,time,L4,z,0.667,6.0,1.0,1.269,2.0,2.0,castellano,0.0,inglés,6.0,3.0,4.0,no,no,no,nada,,11.Busco novedades musicales continuamente,3.0,nada,58.0,yes
11,2024-02-04_19h07.14.698,Unsyncopated_study2,102,23.0,feminino,right,España,castellano,Master degree,no,no,B,1,when,L4,unsyncopated,when,when,11,Online_whenL4//d.pe28.none.wav,bo,nu,lo,sil,ru,re,bu,sil1,po,da,sil2,['false alarm'],[2.2730000000000246],[2.2730000000000246],none,none,,,"[""space""]",pe,4,testWhenL4Uns//r2.s2.1.wav,1.0,when,unsyncopated,b,s2,rule,rule,L4,z,1.803,4.0,1.0,1.083,2.0,2.0,castellano,0.0,inglés,6.0,3.0,4.0,no,no,no,nada,,12. Puedo llorar cuando escucho algunas melodías que me gustan mucho.,3.0,nada,58.0,yes
12,2024-02-04_19h07.14.698,Unsyncopated_study2,102,23.0,feminino,right,España,castellano,Master degree,no,no,B,1,when,L4,unsyncopated,when,when,12,Online_whenL4//b.ja27.444.wav,bu,ñi,ja,sil,ci,ru,ña,sil1,bo,zi,sil2,['catch'],[1.0990000000000464],[1.0990000000000464],0.444,no_beat,0.6550000000000464,0.6550000000000464,"[""space""]",ja,2,testWhenL4Uns//dep_viol.r2.s1.0.wav,1.0,when,unsyncopated,b,s1,no_rule,dep,L4,m,5.061,4.0,0.0,1.166,2.0,2.0,castellano,0.0,inglés,6.0,3.0,4.0,no,no,no,nada,,13. Me gusta cantar o tocar un instrumento con más gente,2.0,nada,58.0,yes
13,2024-02-04_19h07.14.698,Unsyncopated_study2,102,23.0,feminino,right,España,castellano,Master degree,no,no,B,1,when,L4,unsyncopated,when,when,13,Online_whenL4//b.ja26.none.wav,bu,ru,de,sil,zi,bo,re,sil1,ci,nu,sil2,['-'],,,none,none,,,,ja,2,testWhenL4Uns//r1.s1.1.wav,1.0,when,unsyncopated,a,s1,rule,rule,L4,m,1.582,2.0,0.0,0.9,2.0,2.0,castellano,0.0,inglés,6.0,3.0,4.0,no,no,no,nada,,14. La música me ayuda a desconectar.,3.0,nada,58.0,yes
14,2024-02-04_19h07.14.698,Unsyncopated_study2,102,23.0,feminino,right,España,castellano,Master degree,no,no,B,1,when,L4,unsyncopated,when,when,14,Online_whenL4//b.ja24.444.wav,bu,nu,ja,sil,ci,pe,de,sil1,po,ña,sil2,['catch'],[1.044999999999959],[1.044999999999959],0.444,no_beat,0.6009999999999591,0.6009999999999591,"[""space""]",ja,2,testWhenL4Uns//r2.s2.2.wav,1.0,when,unsyncopated,b,s2,rule,rule,L4,z,0.603,4.0,1.0,1.0,2.0,2.0,castellano,0.0,inglés,6.0,3.0,4.0,no,no,no,nada,,15. No puedo evitar tararear las canciones que me gustan cuando las escucho.,3.0,nada,58.0,yes
15,2024-02-04_19h07.14.698,Unsyncopated_study2,102,23.0,feminino,right,España,castellano,Master degree,no,no,B,1,when,L4,unsyncopated,when,when,15,Online_whenL4//b.ja25.none.wav,ru,zi,bo,sil,bu,nu,po,sil1,ñi,re,sil2,['-'],,,none,none,,,,ja,2,testWhenL4Uns//r1.s2.1.wav,1.0,when,unsyncopated,a,s2,rule,rule,L4,m,1.651,4.0,0.0,1.199,2.0,2.0,castellano,0.0,inglés,6.0,3.0,4.0,no,no,no,nada,,16. En los conciertos me siento en sintonía con los artistas y el público.,3.0,nada,58.0,yes
16,2024-02-04_19h07.14.698,Unsyncopated_study2,102,23.0,feminino,right,España,castellano,Master degree,no,no,B,1,when,L4,unsyncopated,when,when,16,Online_whenL4//a.lo19.0.wav,lo,ru,po,sil,pe,bu,re,sil1,nu,bo,sil2,['catch'],[0.5499999999999545],[0.5499999999999545],0.0,beat,0.5499999999999545,0.5499999999999545,"[""space""]",lo,1,testWhenL4Uns//r2.s1.2.wav,1.0,when,unsyncopated,b,s1,rule,rule,L4,m,3.632,3.0,0.0,0.932,2.0,2.0,castellano,0.0,inglés,6.0,3.0,4.0,no,no,no,nada,,17. Me gasto bastante dinero en música y cosas relacionadas con la música.,1.0,nada,58.0,yes
17,2024-02-04_19h07.14.698,Unsyncopated_study2,102,23.0,feminino,right,España,castellano,Master degree,no,no,B,1,when,L4,unsyncopated,when,when,17,Online_whenL4//a.lo17.888.wav,ci,de,re,sil,lo,ru,da,sil1,ñi,zi,sil2,['catch'],[1.42999999999995],[1.42999999999995],0.888,beat,0.54199999999995,0.54199999999995,"[""space""]",lo,1,testWhenL4Uns//r1.s1.2.wav,1.0,when,unsyncopated,a,s1,rule,rule,L4,m,0.635,3.0,0.0,0.866,2.0,2.0,castellano,0.0,inglés,6.0,3.0,4.0,no,no,no,nada,,18. Siento escalofríos cuando escucho una melodía que me gusta.,3.0,nada,58.0,yes
18,2024-02-04_19h07.14.698,Unsyncopated_study2,102,23.0,feminino,right,España,castellano,Master degree,no,no,B,1,when,L4,unsyncopated,when,when,18,Online_whenL4//a.lo18.none.wav,re,ñi,de,sil,nu,bo,ña,sil1,ru,zi,sil2,['-'],,,none,none,,,,lo,1,testWhenL4Uns//r2.s1.0.wav,1.0,when,unsyncopated,b,s1,rule,rule,L4,z,1.982,4.0,1.0,0.849,2.0,2.0,castellano,0.0,inglés,6.0,3.0,4.0,no,no,no,nada,,19. Con la música me puedo desahogar.,3.0,nada,58.0,yes
19,2024-02-04_19h07.14.698,Unsyncopated_study2,102,23.0,feminino,right,España,castellano,Master degree,no,no,B,1,when,L4,unsyncopated,when,when,19,Online_whenL4//a.lo16.none.wav,po,bu,re,sil,ja,pe,zi,sil1,da,ña,sil2,['-'],,,none,none,,,,lo,1,testWhenL4Uns//dep_viol.r1.s1.0.wav,1.0,when,unsyncopated,a,s1,no_rule,dep,L4,m,8.342,3.0,0.0,1.582,2.0,2.0,castellano,0.0,inglés,6.0,3.0,4.0,no,no,no,nada,,20. Cuando escucho una melodía que me gusta mucho no puedo evitar mover el cuerpo.,2.0,nada,58.0,yes
20,2024-02-04_19h07.14.698,Unsyncopated_study2,102,23.0,feminino,right,España,castellano,Master degree,no,no,B,1,when,L4,unsyncopated,when,when,20,Online_whenL4//b.ja21.none.wav,bu,da,ci,sil,ru,nu,zi,sil1,de,po,sil2,['-'],,,none,none,,,,ja,2,testWhenL4Uns//dep_viol.r2.s2.0.wav,1.0,when,unsyncopated,b,s2,no_rule,dep,L4,z,1.67,4.0,1.0,1.249,2.0,2.0,castellano,0.0,inglés,6.0,3.0,4.0,no,no,no,nada,,,,nada,58.0,yes
21,2024-02-04_19h07.14.698,Unsyncopated_study2,102,23.0,feminino,right,España,castellano,Master degree,no,no,B,1,when,L4,unsyncopated,when,when,21,Online_whenL4//b.ja22.1776.wav,da,ci,zi,sil,ña,ru,bo,sil1,ja,bu,sil2,['false alarm'],[1.3400000000000318],[1.3400000000000318],1.776,beat,,,"[""space""]",ja,2,testWhenL4Uns//r2.s2.0.wav,1.0,when,unsyncopated,b,s2,rule,rule,L4,z,1.234,6.0,1.0,0.817,2.0,2.0,castellano,0.0,inglés,6.0,3.0,4.0,no,no,no,nada,,,,nada,58.0,yes
22,2024-02-04_19h07.14.698,Unsyncopated_study2,102,23.0,feminino,right,España,castellano,Master degree,no,no,B,1,when,L4,unsyncopated,when,when,22,Online_whenL4//b.ja23.444.wav,bu,da,ja,sil,ña,de,nu,sil1,ñi,po,sil2,['false alarm'],[0.42799999999999727],[0.42799999999999727],0.444,no_beat,,,"[""space""]",ja,2,testWhenL4Uns//cat_viol.r2.s1.0.wav,1.0,when,unsyncopated,b,s1,no_rule,cat,L4,z,0.521,6.0,1.0,0.734,2.0,2.0,castellano,0.0,inglés,6.0,3.0,4.0,no,no,no,nada,,,,nada,58.0,yes
23,2024-02-04_19h07.14.698,Unsyncopated_study2,102,23.0,feminino,right,España,castellano,Master degree,no,no,B,1,when,L4,unsyncopated,when,when,23,Online_whenL4//b.ja20.0.wav,ja,bu,ñi,sil,bo,de,lo,sil1,ru,da,sil2,['catch'],[0.7400000000000091],[0.7400000000000091],0.0,beat,0.7400000000000091,0.7400000000000091,"[""space""]",ja,2,testWhenL4Uns//dep_viol.r1.s2.0.wav,1.0,when,unsyncopated,a,s2,no_rule,dep,L4,z,1.732,4.0,1.0,1.15,2.0,2.0,castellano,0.0,inglés,6.0,3.0,4.0,no,no,no,nada,,,,nada,58.0,yes
24,2024-02-04_19h07.14.698,Unsyncopated_study2,102,23.0,feminino,right,España,castellano,Master degree,no,no,B,1,when,L4,unsyncopated,when,when,24,Online_whenL4//d.pe18.none.wav,zi,re,po,sil,bo,ja,ci,sil1,ru,da,sil2,['-'],,,none,none,,,,pe,4,testConjL2Uns//r1.s2.2.wav,2.0,conjunction_un,unsyncopated,a,s2,rule,rule,L2,z,3.293,6.0,1.0,1.502,2.0,2.0,castellano,0.0,inglés,6.0,3.0,4.0,no,no,no,nada,,,,nada,58.0,yes
25,2024-02-04_19h07.14.698,Unsyncopated_study2,102,23.0,feminino,right,España,castellano,Master degree,no,no,B,1,when,L4,unsyncopated,when,when,25,Online_whenL4//d.pe17.444.wav,ci,ru,pe,sil,ña,bu,zi,sil1,ñi,nu,sil2,['catch'],[0.8930000000000291],[0.8930000000000291],0.444,no_beat,0.4490000000000291,0.4490000000000291,"[""space""]",pe,4,testConjL2Uns//time_viol.r2.s2.0.wav,2.0,conjunction_un,unsyncopated,b,s2,no_rule,time,L2,m,2.697,6.0,1.0,1.899,2.0,2.0,castellano,0.0,inglés,6.0,3.0,4.0,no,no,no,nada,,,,nada,58.0,yes
26,2024-02-04_19h07.14.698,Unsyncopated_study2,102,23.0,feminino,right,España,castellano,Master degree,no,no,B,1,when,L4,unsyncopated,when,when,26,Online_whenL4//d.pe19.none.wav,nu,ci,ñi,sil,de,po,ru,sil1,ña,zi,sil2,['-'],,,none,none,,,,pe,4,testConjL2Uns//r2.s2.1.wav,2.0,conjunction_un,unsyncopated,b,s2,rule,rule,L2,z,1.269,4.0,1.0,1.216,2.0,2.0,castellano,0.0,inglés,6.0,3.0,4.0,no,no,no,nada,,,,nada,58.0,yes
27,2024-02-04_19h07.14.698,Unsyncopated_study2,102,23.0,feminino,right,España,castellano,Master degree,no,no,B,1,when,L4,unsyncopated,when,when,27,Online_whenL4//d.pe16.888.wav,lo,bu,zi,sil,pe,ñi,da,sil1,ci,ña,sil2,['catch'],[1.3079999999999927],[1.3079999999999927],0.888,beat,0.4199999999999927,0.4199999999999927,"[""space""]",pe,4,testConjL2Uns//r1.s1.1.wav,2.0,conjunction_un,unsyncopated,a,s1,rule,rule,L2,m,1.167,6.0,0.0,0.951,2.0,2.0,castellano,0.0,inglés,6.0,3.0,4.0,no,no,no,nada,,,,nada,58.0,yes
28,2024-02-04_19h07.14.698,Unsyncopated_study2,102,23.0,feminino,right,España,castellano,Master degree,no,no,B,1,when,L4,unsyncopated,when,when,28,Online_whenL4//d.pe8.1998.wav,bo,ru,ña,sil,nu,ñi,ja,sil1,po,pe,sil2,['catch'],[2.5009999999999764],[2.5009999999999764],1.998,no_beat,0.5029999999999764,0.5029999999999764,"[""space""]",pe,4,testConjL2Uns//time_viol.r2.s1.0.wav,2.0,conjunction_un,unsyncopated,b,s1,no_rule,time,L2,m,1.335,6.0,1.0,0.866,2.0,2.0,castellano,0.0,inglés,6.0,3.0,4.0,no,no,no,nada,,,,nada,58.0,yes
29,2024-02-04_19h07.14.698,Unsyncopated_study2,102,23.0,feminino,right,España,castellano,Master degree,no,no,B,1,when,L4,unsyncopated,when,when,29,Online_whenL4//d.pe10.888.wav,da,zi,po,sil,pe,lo,ru,sil1,ci,re,sil2,['catch'],[1.3419999999999845],[1.3419999999999845],0.888,beat,0.4539999999999845,0.4539999999999845,"[""space""]",pe,4,testConjL2Uns//time_viol.r1.s1.0.wav,2.0,conjunction_un,unsyncopated,a,s1,no_rule,time,L2,m,1.216,5.0,1.0,1.552,2.0,2.0,castellano,0.0,inglés,6.0,3.0,4.0,no,no,no,nada,,,,nada,58.0,yes
30,2024-02-04_19h07.14.698,Unsyncopated_study2,102,23.0,feminino,right,España,castellano,Master degree,no,no,B,1,when,L4,unsyncopated,when,when,30,Online_whenL4//d.pe11.none.wav,re,da,zi,sil,bu,lo,ña,sil1,ci,po,sil2,['-'],,,none,none,,,,pe,4,testConjL2Uns//r1.s1.2.wav,2.0,conjunction_un,unsyncopated,a,s1,rule,rule,L2,z,3.514,3.0,1.0,1.087,2.0,2.0,castellano,0.0,inglés,6.0,3.0,4.0,no,no,no,nada,,,,nada,58.0,yes
31,2024-02-04_19h07.14.698,Unsyncopated_study2,102,23.0,feminino,right,España,castellano,Master degree,no,no,B,1,when,L4,unsyncopated,when,when,31,Online_whenL4//d.pe9.none.wav,de,bu,da,sil,zi,ña,nu,sil1,ci,re,sil2,['-'],,,none,none,,,,pe,4,testConjL2Uns//cat_viol.r2.s1.0.wav,2.0,conjunction_un,unsyncopated,b,s1,no_rule,cat,L2,z,0.804,5.0,0.0,0.967,2.0,2.0,castellano,0.0,inglés,6.0,3.0,4.0,no,no,no,nada,,,,nada,58.0,yes
32,2024-02-04_19h07.14.698,Unsyncopated_study2,102,23.0,feminino,right,España,castellano,Master degree,no,no,B,1,when,L4,unsyncopated,when,when,32,Online_whenL4//c.bu15.1776.wav,zi,re,po,sil,pe,ña,lo,sil1,bu,bo,sil2,['catch'],[2.2329999999999472],[2.2329999999999472],1.776,beat,0.4569999999999472,0.4569999999999472,"[""space""]",bu,3,testConjL2Uns//r2.s1.2.wav,2.0,conjunction_un,unsyncopated,b,s1,rule,rule,L2,z,1.237,3.0,1.0,1.182,2.0,2.0,castellano,0.0,inglés,6.0,3.0,4.0,no,no,no,nada,,,,nada,58.0,yes
33,2024-02-04_19h07.14.698,Unsyncopated_study2,102,23.0,feminino,right,España,castellano,Master degree,no,no,B,1,when,L4,unsyncopated,when,when,33,Online_whenL4//c.bu14.none.wav,zi,ñi,ja,sil,re,da,de,sil1,ru,bo,sil2,['-'],,,none,none,,,,bu,3,testConjL2Uns//r2.s1.0.wav,2.0,conjunction_un,unsyncopated,b,s1,rule,rule,L2,m,1.499,4.0,0.0,1.065,2.0,2.0,castellano,0.0,inglés,6.0,3.0,4.0,no,no,no,nada,,,,nada,58.0,yes
34,2024-02-04_19h07.14.698,Unsyncopated_study2,102,23.0,feminino,right,España,castellano,Master degree,no,no,B,1,when,L4,unsyncopated,when,when,34,Online_whenL4//c.bu13.none.wav,bo,po,pe,sil,ja,ña,da,sil1,lo,de,sil2,['-'],,,none,none,,,,bu,3,testConjL2Uns//dep_viol.r1.s2.0.wav,2.0,conjunction_un,unsyncopated,a,s2,no_rule,dep,L2,m,0.663,4.0,1.0,0.767,2.0,2.0,castellano,0.0,inglés,6.0,3.0,4.0,no,no,no,nada,,,,nada,58.0,yes
35,2024-02-04_19h07.14.698,Unsyncopated_study2,102,23.0,feminino,right,España,castellano,Master degree,no,no,B,1,when,L4,unsyncopated,when,when,35,Online_whenL4//c.bu12.444.wav,ña,nu,bu,sil,bo,ñi,da,sil1,ru,lo,sil2,['catch'],[0.9270000000000209],[0.9270000000000209],0.444,no_beat,0.4830000000000209,0.4830000000000209,"[""space""]",bu,3,testConjL2Uns//cat_viol.r1.s2.0.wav,2.0,conjunction_un,unsyncopated,a,s2,no_rule,cat,L2,z,0.8,6.0,0.0,0.87,2.0,2.0,castellano,0.0,inglés,6.0,3.0,4.0,no,no,no,nada,,,,nada,58.0,yes
36,2024-02-04_19h07.14.698,Unsyncopated_study2,102,23.0,feminino,right,España,castellano,Master degree,no,no,B,1,when,L4,unsyncopated,when,when,36,Online_whenL4//b.ja3.none.wav,nu,da,po,sil,ru,zi,bu,sil1,re,ña,sil2,['-'],,,none,none,,,,ja,2,testConjL2Uns//cat_viol.r2.s2.0.wav,2.0,conjunction_un,unsyncopated,b,s2,no_rule,cat,L2,m,0.735,3.0,1.0,1.366,2.0,2.0,castellano,0.0,inglés,6.0,3.0,4.0,no,no,no,nada,,,,nada,58.0,yes
37,2024-02-04_19h07.14.698,Unsyncopated_study2,102,23.0,feminino,right,España,castellano,Master degree,no,no,B,1,when,L4,unsyncopated,when,when,37,Online_whenL4//b.ja0.222.wav,re,ja,da,sil,ci,ru,bo,sil1,bu,lo,sil2,['catch'],[0.69399999999996],[0.69399999999996],0.222,no_beat,0.47199999999996,0.47199999999996,"[""space""]",ja,2,testConjL2Uns//r2.s2.2.wav,2.0,conjunction_un,unsyncopated,b,s2,rule,rule,L2,m,1.816,6.0,0.0,1.849,2.0,2.0,castellano,0.0,inglés,6.0,3.0,4.0,no,no,no,nada,,,,nada,58.0,yes
38,2024-02-04_19h07.14.698,Unsyncopated_study2,102,23.0,feminino,right,España,castellano,Master degree,no,no,B,1,when,L4,unsyncopated,when,when,38,Online_whenL4//b.ja1.none.wav,lo,re,po,sil,bu,de,ña,sil1,da,nu,sil2,['-'],,,none,none,,,,ja,2,testConjL2Uns//r2.s1.1.wav,2.0,conjunction_un,unsyncopated,b,s1,rule,rule,L2,m,0.6,5.0,0.0,0.866,2.0,2.0,castellano,0.0,inglés,6.0,3.0,4.0,no,no,no,nada,,,,nada,58.0,yes
39,2024-02-04_19h07.14.698,Unsyncopated_study2,102,23.0,feminino,right,España,castellano,Master degree,no,no,B,1,when,L4,unsyncopated,when,when,39,Online_whenL4//b.ja2.none.wav,ci,ru,zi,sil,da,de,pe,sil1,re,lo,sil2,['-'],,,none,none,,,,ja,2,testConjL2Uns//r1.s2.1.wav,2.0,conjunction_un,unsyncopated,a,s2,rule,rule,L2,z,2.033,6.0,1.0,2.4,2.0,2.0,castellano,0.0,inglés,6.0,3.0,4.0,no,no,no,nada,,,,nada,58.0,yes
40,2024-02-04_19h07.14.698,Unsyncopated_study2,102,23.0,feminino,right,España,castellano,Master degree,no,no,B,1,when,L4,unsyncopated,when,when,40,Online_whenL4//b.ja35.1998.wav,ru,re,da,sil,lo,bo,ña,sil1,po,ja,sil2,['catch'],[2.447999999999979],[2.447999999999979],1.998,no_beat,0.4499999999999791,0.4499999999999791,"[""space""]",ja,2,testConjL2Uns//dep_viol.r2.s1.0.wav,2.0,conjunction_un,unsyncopated,b,s1,no_rule,dep,L2,z,0.935,5.0,0.0,1.415,2.0,2.0,castellano,0.0,inglés,6.0,3.0,4.0,no,no,no,nada,,,,nada,58.0,yes
41,2024-02-04_19h07.14.698,Unsyncopated_study2,102,23.0,feminino,right,España,castellano,Master degree,no,no,B,1,when,L4,unsyncopated,when,when,41,Online_whenL4//b.ja34.1776.wav,re,bo,da,sil,zi,bu,ña,sil1,ja,ci,sil2,['catch'],[2.2690000000000055],[2.2690000000000055],1.776,beat,0.4930000000000054,0.4930000000000054,"[""space""]",ja,2,testConjL2Uns//r1.s1.0.wav,2.0,conjunction_un,unsyncopated,a,s1,rule,rule,L2,m,1.517,5.0,0.0,1.349,2.0,2.0,castellano,0.0,inglés,6.0,3.0,4.0,no,no,no,nada,,,,nada,58.0,yes
42,2024-02-04_19h07.14.698,Unsyncopated_study2,102,23.0,feminino,right,España,castellano,Master degree,no,no,B,1,when,L4,unsyncopated,when,when,42,Online_whenL4//b.ja32.none.wav,ru,bu,de,sil,ña,lo,nu,sil1,re,ci,sil2,['-'],,,none,none,,,,ja,2,testConjL2Uns//r2.s2.0.wav,2.0,conjunction_un,unsyncopated,b,s2,rule,rule,L2,z,2.514,4.0,1.0,0.816,2.0,2.0,castellano,0.0,inglés,6.0,3.0,4.0,no,no,no,nada,,,,nada,58.0,yes
43,2024-02-04_19h07.14.698,Unsyncopated_study2,102,23.0,feminino,right,España,castellano,Master degree,no,no,B,1,when,L4,unsyncopated,when,when,43,Online_whenL4//b.ja33.none.wav,ci,po,nu,sil,ñi,zi,pe,sil1,re,bu,sil2,['-'],,,none,none,,,,ja,2,testConjL2Uns//dep_viol.r2.s2.0.wav,2.0,conjunction_un,unsyncopated,b,s2,no_rule,dep,L2,m,1.949,3.0,1.0,0.805,2.0,2.0,castellano,0.0,inglés,6.0,3.0,4.0,no,no,no,nada,,,,nada,58.0,yes
44,2024-02-04_19h07.14.698,Unsyncopated_study2,102,23.0,feminino,right,España,castellano,Master degree,no,no,B,1,when,L4,unsyncopated,when,when,44,Online_whenL4//b.ja8.1998.wav,nu,de,da,sil,re,pe,ña,sil1,bu,ja,sil2,['catch'],[2.461999999999989],[2.461999999999989],1.998,no_beat,0.4639999999999891,0.4639999999999891,"[""space""]",ja,2,testConjL2Uns//r1.s2.0.wav,2.0,conjunction_un,unsyncopated,a,s2,rule,rule,L2,z,0.9,6.0,1.0,1.318,2.0,2.0,castellano,0.0,inglés,6.0,3.0,4.0,no,no,no,nada,,,,nada,58.0,yes
45,2024-02-04_19h07.14.698,Unsyncopated_study2,102,23.0,feminino,right,España,castellano,Master degree,no,no,B,1,when,L4,unsyncopated,when,when,45,Online_whenL4//b.ja9.0.wav,ja,ci,re,sil,de,zi,pe,sil1,po,bu,sil2,['catch'],[0.6270000000000664],[0.6270000000000664],0.0,beat,0.6270000000000664,0.6270000000000664,"[""space""]",ja,2,testConjL2Uns//time_viol.r1.s2.0.wav,2.0,conjunction_un,unsyncopated,a,s2,no_rule,time,L2,m,1.132,4.0,1.0,1.201,2.0,2.0,castellano,0.0,inglés,6.0,3.0,4.0,no,no,no,nada,,,,nada,58.0,yes
46,2024-02-04_19h07.14.698,Unsyncopated_study2,102,23.0,feminino,right,España,castellano,Master degree,no,no,B,1,when,L4,unsyncopated,when,when,46,Online_whenL4//b.ja11.444.wav,po,da,ja,sil,nu,ru,bo,sil1,pe,de,sil2,['catch'],[0.9629999999999654],[0.9629999999999654],0.444,no_beat,0.5189999999999655,0.5189999999999655,"[""space""]",ja,2,testConjL2Uns//dep_viol.r1.s1.0.wav,2.0,conjunction_un,unsyncopated,a,s1,no_rule,dep,L2,m,2.134,3.0,1.0,0.818,2.0,2.0,castellano,0.0,inglés,6.0,3.0,4.0,no,no,no,nada,,,,nada,58.0,yes
47,2024-02-04_19h07.14.698,Unsyncopated_study2,102,23.0,feminino,right,España,castellano,Master degree,no,no,B,1,when,L4,unsyncopated,when,when,47,Online_whenL4//b.ja10.none.wav,bu,lo,pe,sil,zi,po,ru,sil1,ci,de,sil2,['-'],,,none,none,,,,ja,2,testConjL2Uns//cat_viol.r1.s1.0.wav,2.0,conjunction_un,unsyncopated,a,s1,no_rule,cat,L2,m,1.117,3.0,1.0,0.75,2.0,2.0,castellano,0.0,inglés,6.0,3.0,4.0,no,no,no,nada,,,,nada,58.0,yes
48,2024-02-04_19h07.14.698,Unsyncopated_study2,102,23.0,feminino,right,España,castellano,Master degree,no,no,B,1,when,L4,unsyncopated,when,when,48,Online_whenL4//a.lo2.444.wav,ñi,bu,lo,sil,da,pe,ña,sil1,zi,bo,sil2,['catch'],[0.9239999999999782],[0.9239999999999782],0.444,no_beat,0.4799999999999781,0.4799999999999781,"[""space""]",lo,1,testConjL1Syn//r1.s1.1.wav,3.0,conjunction_syn,syncopated,a,s1,rule,rule,L1,m,0.978,4.0,0.0,1.027,2.0,2.0,castellano,0.0,inglés,6.0,3.0,4.0,no,no,no,nada,,,,nada,58.0,yes
49,2024-02-04_19h07.14.698,Unsyncopated_study2,102,23.0,feminino,right,España,castellano,Master degree,no,no,B,1,when,L4,unsyncopated,when,when,49,Online_whenL4//a.lo3.none.wav,ci,nu,ja,sil,re,ña,ru,sil1,po,bo,sil2,['-'],,,none,none,,,,lo,1,testConjL1Syn//r1.s2.0.wav,3.0,conjunction_syn,syncopated,a,s2,rule,rule,L1,z,0.902,6.0,1.0,0.765,2.0,2.0,castellano,0.0,inglés,6.0,3.0,4.0,no,no,no,nada,,,,nada,58.0,yes
50,2024-02-04_19h07.14.698,Unsyncopated_study2,102,23.0,feminino,right,España,castellano,Master degree,no,no,B,1,when,L4,unsyncopated,when,when,50,Online_whenL4//a.lo1.none.wav,nu,ja,ci,sil,bo,ña,de,sil1,po,re,sil2,['-'],,,none,none,,,,lo,1,testConjL1Syn//r1.s2.2.wav,3.0,conjunction_syn,syncopated,a,s2,rule,rule,L1,m,2.465,4.0,0.0,1.083,2.0,2.0,castellano,0.0,inglés,6.0,3.0,4.0,no,no,no,nada,,,,nada,58.0,yes
51,2024-02-04_19h07.14.698,Unsyncopated_study2,102,23.0,feminino,right,España,castellano,Master degree,no,no,B,1,when,L4,unsyncopated,when,when,51,Online_whenL4//a.lo0.none.wav,ru,pe,ci,sil,zi,ja,da,sil1,ñi,ña,sil2,['-'],,,none,none,,,,lo,1,testConjL1Syn//r1.s1.0.wav,3.0,conjunction_syn,syncopated,a,s1,rule,rule,L1,m,0.983,4.0,0.0,0.782,2.0,2.0,castellano,0.0,inglés,6.0,3.0,4.0,no,no,no,nada,,,,nada,58.0,yes
52,2024-02-04_19h07.14.698,Unsyncopated_study2,102,23.0,feminino,right,España,castellano,Master degree,no,no,B,1,when,L4,unsyncopated,when,when,52,Online_whenL4//d.pe27.222.wav,ru,pe,nu,sil,zi,ña,ci,sil1,ñi,bu,sil2,['catch'],[0.7490000000000236],[0.7490000000000236],0.222,no_beat,0.5270000000000237,0.5270000000000237,"[""space""]",pe,4,testConjL1Syn//dep_viol.r1.s2.0.wav,3.0,conjunction_syn,syncopated,a,s2,no_rule,dep,L1,z,1.066,6.0,0.0,0.804,2.0,2.0,castellano,0.0,inglés,6.0,3.0,4.0,no,no,no,nada,,,,nada,58.0,yes
53,2024-02-04_19h07.14.698,Unsyncopated_study2,102,23.0,feminino,right,España,castellano,Master degree,no,no,B,1,when,L4,unsyncopated,when,when,53,Online_whenL4//d.pe25.none.wav,re,bu,ja,sil,da,bo,ci,sil1,nu,ru,sil2,['-'],,,none,none,,,,pe,4,testConjL1Syn//r2.s1.2.wav,3.0,conjunction_syn,syncopated,b,s1,rule,rule,L1,z,0.92,6.0,1.0,0.453,2.0,2.0,castellano,0.0,inglés,6.0,3.0,4.0,no,no,no,nada,,,,nada,58.0,yes
54,2024-02-04_19h07.14.698,Unsyncopated_study2,102,23.0,feminino,right,España,castellano,Master degree,no,no,B,1,when,L4,unsyncopated,when,when,54,Online_whenL4//d.pe26.none.wav,lo,re,ña,sil,bo,po,ñi,sil1,zi,da,sil2,['-'],,,none,none,,,,pe,4,testConjL1Syn//dep_viol.r2.s1.0.wav,3.0,conjunction_syn,syncopated,b,s1,no_rule,dep,L1,m,1.032,3.0,1.0,0.8,2.0,2.0,castellano,0.0,inglés,6.0,3.0,4.0,no,no,no,nada,,,,nada,58.0,yes
55,2024-02-04_19h07.14.698,Unsyncopated_study2,102,23.0,feminino,right,España,castellano,Master degree,no,no,B,1,when,L4,unsyncopated,when,when,55,Online_whenL4//d.pe24.0.wav,pe,de,re,sil,zi,ña,bo,sil1,ja,ñi,sil2,['catch'],[0.42600000000004457],[0.42600000000004457],0.0,beat,0.4260000000000445,0.4260000000000445,"[""space""]",pe,4,testConjL1Syn//r2.s2.0.wav,3.0,conjunction_syn,syncopated,b,s2,rule,rule,L1,z,1.582,6.0,1.0,0.604,2.0,2.0,castellano,0.0,inglés,6.0,3.0,4.0,no,no,no,nada,,,,nada,58.0,yes
56,2024-02-04_19h07.14.698,Unsyncopated_study2,102,23.0,feminino,right,España,castellano,Master degree,no,no,B,1,when,L4,unsyncopated,when,when,56,Online_whenL4//d.pe3.888.wav,nu,bo,de,sil,pe,bu,po,sil1,da,zi,sil2,['catch'],[1.5470000000000255],[1.5470000000000255],0.888,beat,0.6590000000000255,0.6590000000000255,"[""space""]",pe,4,testConjL1Syn//r2.s2.1.wav,3.0,conjunction_syn,syncopated,b,s2,rule,rule,L1,m,1.687,4.0,0.0,0.784,2.0,2.0,castellano,0.0,inglés,6.0,3.0,4.0,no,no,no,nada,,,,nada,58.0,yes
57,2024-02-04_19h07.14.698,Unsyncopated_study2,102,23.0,feminino,right,España,castellano,Master degree,no,no,B,1,when,L4,unsyncopated,when,when,57,Online_whenL4//d.pe1.222.wav,bo,pe,bu,sil,ja,ña,ru,sil1,ñi,nu,sil2,['catch'],[0.8420000000000982],[0.8420000000000982],0.222,no_beat,0.6200000000000983,0.6200000000000983,"[""space""]",pe,4,testConjL1Syn//cat_viol.r1.s1.0.wav,3.0,conjunction_syn,syncopated,a,s1,no_rule,cat,L1,z,2.681,3.0,0.0,0.685,2.0,2.0,castellano,0.0,inglés,6.0,3.0,4.0,no,no,no,nada,,,,nada,58.0,yes
58,2024-02-04_19h07.14.698,Unsyncopated_study2,102,23.0,feminino,right,España,castellano,Master degree,no,no,B,1,when,L4,unsyncopated,when,when,58,Online_whenL4//d.pe0.none.wav,ja,zi,ñi,sil,ru,ci,ña,sil1,da,bu,sil2,['-'],,,none,none,,,,pe,4,testConjL1Syn//time_viol.r2.s1.0.wav,3.0,conjunction_syn,syncopated,b,s1,no_rule,time,L1,m,0.499,6.0,1.0,0.451,2.0,2.0,castellano,0.0,inglés,6.0,3.0,4.0,no,no,no,nada,,,,nada,58.0,yes
59,2024-02-04_19h07.14.698,Unsyncopated_study2,102,23.0,feminino,right,España,castellano,Master degree,no,no,B,1,when,L4,unsyncopated,when,when,59,Online_whenL4//d.pe2.none.wav,ñi,ña,ru,sil,nu,da,po,sil1,de,ja,sil2,['-'],,,none,none,,,,pe,4,testConjL1Syn//cat_viol.r1.s2.0.wav,3.0,conjunction_syn,syncopated,a,s2,no_rule,cat,L1,z,1.135,4.0,0.0,0.448,2.0,2.0,castellano,0.0,inglés,6.0,3.0,4.0,no,no,no,nada,,,,nada,58.0,yes
60,2024-02-04_19h07.14.698,Unsyncopated_study2,102,23.0,feminino,right,España,castellano,Master degree,no,no,B,1,when,L4,unsyncopated,when,when,60,Online_whenL4//c.bu10.0.wav,bu,ñi,da,sil,ña,ja,re,sil1,nu,ci,sil2,['catch'],[0.7959999999999354],[0.7959999999999354],0.0,beat,0.7959999999999354,0.7959999999999354,"[""space""]",bu,3,testConjL1Syn//dep_viol.r2.s2.0.wav,3.0,conjunction_syn,syncopated,b,s2,no_rule,dep,L1,z,1.121,4.0,0.0,0.471,2.0,2.0,castellano,0.0,inglés,6.0,3.0,4.0,no,no,no,nada,,,,nada,58.0,yes
61,2024-02-04_19h07.14.698,Unsyncopated_study2,102,23.0,feminino,right,España,castellano,Master degree,no,no,B,1,when,L4,unsyncopated,when,when,61,Online_whenL4//c.bu11.none.wav,ña,pe,re,sil,nu,bo,lo,sil1,ci,de,sil2,['false alarm'],[1.9979999999999336],[1.9979999999999336],none,none,,,"[""space""]",bu,3,testConjL1Syn//time_viol.r1.s1.0.wav,3.0,conjunction_syn,syncopated,a,s1,no_rule,time,L1,z,1.021,6.0,0.0,0.567,2.0,2.0,castellano,0.0,inglés,6.0,3.0,4.0,no,no,no,nada,,,,nada,58.0,yes
62,2024-02-04_19h07.14.698,Unsyncopated_study2,102,23.0,feminino,right,España,castellano,Master degree,no,no,B,1,when,L4,unsyncopated,when,when,62,Online_whenL4//c.bu8.444.wav,nu,bo,bu,sil,ñi,re,zi,sil1,pe,ci,sil2,['catch'],[1.1909999999999172],[1.1909999999999172],0.444,no_beat,0.7469999999999173,0.7469999999999173,"[""space""]",bu,3,testConjL1Syn//r1.s1.2.wav,3.0,conjunction_syn,syncopated,a,s1,rule,rule,L1,z,1.316,6.0,1.0,0.551,2.0,2.0,castellano,0.0,inglés,6.0,3.0,4.0,no,no,no,nada,,,,nada,58.0,yes
63,2024-02-04_19h07.14.698,Unsyncopated_study2,102,23.0,feminino,right,España,castellano,Master degree,no,no,B,1,when,L4,unsyncopated,when,when,63,Online_whenL4//c.bu9.444.wav,bo,ja,bu,sil,lo,re,pe,sil1,ci,po,sil2,['catch'],[0.9909999999999854],[0.9909999999999854],0.444,no_beat,0.5469999999999855,0.5469999999999855,"[""space""]",bu,3,testConjL1Syn//r1.s2.1.wav,3.0,conjunction_syn,syncopated,a,s2,rule,rule,L1,z,1.416,3.0,1.0,1.55,2.0,2.0,castellano,0.0,inglés,6.0,3.0,4.0,no,no,no,nada,,,,nada,58.0,yes
64,2024-02-04_19h07.14.698,Unsyncopated_study2,102,23.0,feminino,right,España,castellano,Master degree,no,no,B,1,when,L4,unsyncopated,when,when,64,Online_whenL4//a.lo9.none.wav,bo,ci,po,sil,de,zi,ñi,sil1,ja,ña,sil2,['-'],,,none,none,,,,lo,1,testConjL1Syn//r2.s1.0.wav,3.0,conjunction_syn,syncopated,b,s1,rule,rule,L1,z,0.449,6.0,1.0,1.083,2.0,2.0,castellano,0.0,inglés,6.0,3.0,4.0,no,no,no,nada,,,,nada,58.0,yes
65,2024-02-04_19h07.14.698,Unsyncopated_study2,102,23.0,feminino,right,España,castellano,Master degree,no,no,B,1,when,L4,unsyncopated,when,when,65,Online_whenL4//a.lo8.0.wav,lo,ñi,nu,sil,de,bo,pe,sil1,da,bu,sil2,['catch'],[0.5589999999999691],[0.5589999999999691],0.0,beat,0.5589999999999691,0.5589999999999691,"[""space""]",lo,1,testConjL1Syn//time_viol.r2.s2.0.wav,3.0,conjunction_syn,syncopated,b,s2,no_rule,time,L1,z,1.632,7.0,0.0,0.884,2.0,2.0,castellano,0.0,inglés,6.0,3.0,4.0,no,no,no,nada,,,,nada,58.0,yes
66,2024-02-04_19h07.14.698,Unsyncopated_study2,102,23.0,feminino,right,España,castellano,Master degree,no,no,B,1,when,L4,unsyncopated,when,when,66,Online_whenL4//a.lo10.none.wav,pe,da,re,sil,de,ja,zi,sil1,bu,po,sil2,['-'],,,none,none,,,,lo,1,testConjL1Syn//r2.s1.1.wav,3.0,conjunction_syn,syncopated,b,s1,rule,rule,L1,z,1.133,7.0,1.0,0.916,2.0,2.0,castellano,0.0,inglés,6.0,3.0,4.0,no,no,no,nada,,,,nada,58.0,yes
67,2024-02-04_19h07.14.698,Unsyncopated_study2,102,23.0,feminino,right,España,castellano,Master degree,no,no,B,1,when,L4,unsyncopated,when,when,67,Online_whenL4//a.lo11.0.wav,lo,ci,pe,sil,ñi,de,zi,sil1,ru,da,sil2,['catch'],[0.4800000000000182],[0.4800000000000182],0.0,beat,0.4800000000000182,0.4800000000000182,"[""space""]",lo,1,testConjL1Syn//r2.s2.2.wav,3.0,conjunction_syn,syncopated,b,s2,rule,rule,L1,z,1.633,6.0,1.0,1.15,2.0,2.0,castellano,0.0,inglés,6.0,3.0,4.0,no,no,no,nada,,,,nada,58.0,yes
68,2024-02-04_19h07.14.698,Unsyncopated_study2,102,23.0,feminino,right,España,castellano,Master degree,no,no,B,1,when,L4,unsyncopated,when,when,68,Online_whenL4//a.lo24.1776.wav,de,ja,ci,sil,re,ña,po,sil1,lo,bu,sil2,['catch'],[2.314000000000078],[2.314000000000078],1.776,beat,0.5380000000000782,0.5380000000000782,"[""space""]",lo,1,testConjL1Syn//cat_viol.r2.s2.0.wav,3.0,conjunction_syn,syncopated,b,s2,no_rule,cat,L1,z,0.982,6.0,0.0,0.734,2.0,2.0,castellano,0.0,inglés,6.0,3.0,4.0,no,no,no,nada,,,,nada,58.0,yes
69,2024-02-04_19h07.14.698,Unsyncopated_study2,102,23.0,feminino,right,España,castellano,Master degree,no,no,B,1,when,L4,unsyncopated,when,when,69,Online_whenL4//a.lo25.none.wav,ñi,ja,ru,sil,bo,ci,ña,sil1,de,zi,sil2,['-'],,,none,none,,,,lo,1,testConjL1Syn//dep_viol.r1.s1.0.wav,3.0,conjunction_syn,syncopated,a,s1,no_rule,dep,L1,m,1.583,4.0,1.0,0.899,2.0,2.0,castellano,0.0,inglés,6.0,3.0,4.0,no,no,no,nada,,,,nada,58.0,yes
70,2024-02-04_19h07.14.698,Unsyncopated_study2,102,23.0,feminino,right,España,castellano,Master degree,no,no,B,1,when,L4,unsyncopated,when,when,70,Online_whenL4//a.lo26.1998.wav,po,ja,bu,sil,ci,pe,ru,sil1,ñi,lo,sil2,['catch'],[2.6280000000001564],[2.6280000000001564],1.998,no_beat,0.6300000000001564,0.6300000000001564,"[""space""]",lo,1,testConjL1Syn//cat_viol.r2.s1.0.wav,3.0,conjunction_syn,syncopated,b,s1,no_rule,cat,L1,m,1.114,4.0,1.0,0.499,2.0,2.0,castellano,0.0,inglés,6.0,3.0,4.0,no,no,no,nada,,,,nada,58.0,yes
71,2024-02-04_19h07.14.698,Unsyncopated_study2,102,23.0,feminino,right,España,castellano,Master degree,no,no,B,1,when,L4,unsyncopated,when,when,71,Online_whenL4//a.lo27.none.wav,ci,nu,ñi,sil,da,ru,ja,sil1,po,bu,sil2,['-'],,,none,none,,,,lo,1,testConjL1Syn//time_viol.r1.s2.0.wav,3.0,conjunction_syn,syncopated,a,s2,no_rule,time,L1,m,0.769,4.0,1.0,0.866,2.0,2.0,castellano,0.0,inglés,6.0,3.0,4.0,no,no,no,nada,,,,nada,58.0,yes
72,2024-02-04_19h07.14.698,Unsyncopated_study2,102,23.0,feminino,right,España,castellano,Master degree,no,no,B,1,when,L4,unsyncopated,when,when,72,Online_whenL4//b.ja15.444.wav,da,ci,ja,sil,bo,ru,pe,sil1,zi,bu,sil2,['catch'],[0.8840000000000146],[0.8840000000000146],0.444,no_beat,0.4400000000000145,0.4400000000000145,"[""space""]",ja,2,testWhatL3Uns//dep_viol.r2.s2.0.wav,4.0,what,unsyncopated,b,s2,no_rule,dep,L3,z,1.661,4.0,0.0,1.068,2.0,2.0,castellano,0.0,inglés,6.0,3.0,4.0,no,no,no,nada,,,,nada,58.0,yes
73,2024-02-04_19h07.14.698,Unsyncopated_study2,102,23.0,feminino,right,España,castellano,Master degree,no,no,B,1,when,L4,unsyncopated,when,when,73,Online_whenL4//b.ja13.none.wav,bo,de,ña,sil,re,bu,lo,sil1,pe,zi,sil2,['-'],,,none,none,,,,ja,2,testWhatL3Uns//r1.s2.0.wav,4.0,what,unsyncopated,a,s2,rule,rule,L3,z,1.214,7.0,1.0,1.015,2.0,2.0,castellano,0.0,inglés,6.0,3.0,4.0,no,no,no,nada,,,,nada,58.0,yes
74,2024-02-04_19h07.14.698,Unsyncopated_study2,102,23.0,feminino,right,España,castellano,Master degree,no,no,B,1,when,L4,unsyncopated,when,when,74,Online_whenL4//b.ja14.888.wav,zi,ña,po,sil,ja,bu,de,sil1,bo,ru,sil2,['catch'],[1.375],[1.375],0.888,beat,0.487,0.487,"[""space""]",ja,2,testWhatL3Uns//time_viol.r2.s1.0.wav,4.0,what,unsyncopated,b,s1,no_rule,time,L3,z,0.668,6.0,0.0,0.734,2.0,2.0,castellano,0.0,inglés,6.0,3.0,4.0,no,no,no,nada,,,,nada,58.0,yes
75,2024-02-04_19h07.14.698,Unsyncopated_study2,102,23.0,feminino,right,España,castellano,Master degree,no,no,B,1,when,L4,unsyncopated,when,when,75,Online_whenL4//b.ja12.444.wav,nu,ñi,ja,sil,pe,da,ña,sil1,re,ru,sil2,['catch'],[0.9400000000000546],[0.9400000000000546],0.444,no_beat,0.4960000000000545,0.4960000000000545,"[""space""]",ja,2,testWhatL3Uns//r1.s1.2.wav,4.0,what,unsyncopated,a,s1,rule,rule,L3,m,0.453,4.0,0.0,0.551,2.0,2.0,castellano,0.0,inglés,6.0,3.0,4.0,no,no,no,nada,,,,nada,58.0,yes
76,2024-02-04_19h07.14.698,Unsyncopated_study2,102,23.0,feminino,right,España,castellano,Master degree,no,no,B,1,when,L4,unsyncopated,when,when,76,Online_whenL4//d.pe23.444.wav,po,ja,pe,sil,de,ru,re,sil1,lo,bo,sil2,['catch'],[0.9589999999998327],[0.9589999999998327],0.444,no_beat,0.5149999999998327,0.5149999999998327,"[""space""]",pe,4,testWhatL3Uns//r1.s2.1.wav,4.0,what,unsyncopated,a,s2,rule,rule,L3,m,1.251,4.0,0.0,0.936,2.0,2.0,castellano,0.0,inglés,6.0,3.0,4.0,no,no,no,nada,,,,nada,58.0,yes
77,2024-02-04_19h07.14.698,Unsyncopated_study2,102,23.0,feminino,right,España,castellano,Master degree,no,no,B,1,when,L4,unsyncopated,when,when,77,Online_whenL4//d.pe21.none.wav,ci,lo,bu,sil,ña,po,ja,sil1,bo,ru,sil2,['-'],,,none,none,,,,pe,4,testWhatL3Uns//cat_viol.r2.s1.0.wav,4.0,what,unsyncopated,b,s1,no_rule,cat,L3,m,0.6,4.0,1.0,0.701,2.0,2.0,castellano,0.0,inglés,6.0,3.0,4.0,no,no,no,nada,,,,nada,58.0,yes
78,2024-02-04_19h07.14.698,Unsyncopated_study2,102,23.0,feminino,right,España,castellano,Master degree,no,no,B,1,when,L4,unsyncopated,when,when,78,Online_whenL4//d.pe22.0.wav,pe,zi,ña,sil,lo,ci,ñi,sil1,re,da,sil2,['catch'],[0.4919999999999618],[0.4919999999999618],0.0,beat,0.4919999999999618,0.4919999999999618,"[""space""]",pe,4,testWhatL3Uns//cat_viol.r2.s2.0.wav,4.0,what,unsyncopated,b,s2,no_rule,cat,L3,z,1.049,4.0,0.0,1.303,2.0,2.0,castellano,0.0,inglés,6.0,3.0,4.0,no,no,no,nada,,,,nada,58.0,yes
79,2024-02-04_19h07.14.698,Unsyncopated_study2,102,23.0,feminino,right,España,castellano,Master degree,no,no,B,1,when,L4,unsyncopated,when,when,79,Online_whenL4//d.pe20.none.wav,bu,lo,po,sil,ru,ñi,ja,sil1,ña,de,sil2,['-'],,,none,none,,,,pe,4,testWhatL3Uns//r2.s1.2.wav,4.0,what,unsyncopated,b,s1,rule,rule,L3,m,1.784,4.0,0.0,0.553,2.0,2.0,castellano,0.0,inglés,6.0,3.0,4.0,no,no,no,nada,,,,nada,58.0,yes
80,2024-02-04_19h07.14.698,Unsyncopated_study2,102,23.0,feminino,right,España,castellano,Master degree,no,no,B,1,when,L4,unsyncopated,when,when,80,Online_whenL4//c.bu22.none.wav,nu,ci,ña,sil,re,ñi,ru,sil1,zi,pe,sil2,['-'],,,none,none,,,,bu,3,testWhatL3Uns//cat_viol.r1.s1.0.wav,4.0,what,unsyncopated,a,s1,no_rule,cat,L3,z,0.351,6.0,0.0,0.75,2.0,2.0,castellano,0.0,inglés,6.0,3.0,4.0,no,no,no,nada,,,,nada,58.0,yes
81,2024-02-04_19h07.14.698,Unsyncopated_study2,102,23.0,feminino,right,España,castellano,Master degree,no,no,B,1,when,L4,unsyncopated,when,when,81,Online_whenL4//c.bu20.1332.wav,lo,re,ru,sil,ña,de,bu,sil1,zi,ci,sil2,['catch'],[1.808999999999969],[1.808999999999969],1.332,no_beat,0.476999999999969,0.476999999999969,"[""space""]",bu,3,testWhatL3Uns//dep_viol.r2.s1.0.wav,4.0,what,unsyncopated,b,s1,no_rule,dep,L3,z,0.967,5.0,0.0,0.698,2.0,2.0,castellano,0.0,inglés,6.0,3.0,4.0,no,no,no,nada,,,,nada,58.0,yes
82,2024-02-04_19h07.14.698,Unsyncopated_study2,102,23.0,feminino,right,España,castellano,Master degree,no,no,B,1,when,L4,unsyncopated,when,when,82,Online_whenL4//c.bu21.1332.wav,zi,pe,ci,sil,ña,nu,bu,sil1,bo,ru,sil2,['catch'],[1.7749999999998636],[1.7749999999998636],1.332,no_beat,0.4429999999998635,0.4429999999998635,"[""space""]",bu,3,testWhatL3Uns//cat_viol.r1.s2.0.wav,4.0,what,unsyncopated,a,s2,no_rule,cat,L3,z,1.266,3.0,0.0,0.868,2.0,2.0,castellano,0.0,inglés,6.0,3.0,4.0,no,no,no,nada,,,,nada,58.0,yes
83,2024-02-04_19h07.14.698,Unsyncopated_study2,102,23.0,feminino,right,España,castellano,Master degree,no,no,B,1,when,L4,unsyncopated,when,when,83,Online_whenL4//c.bu23.none.wav,ña,nu,pe,sil,ru,ja,bo,sil1,re,ñi,sil2,['false alarm'],[1.8109999999999218],[1.8109999999999218],none,none,,,"[""space""]",bu,3,testWhatL3Uns//r1.s1.1.wav,4.0,what,unsyncopated,a,s1,rule,rule,L3,z,0.467,6.0,1.0,0.684,2.0,2.0,castellano,0.0,inglés,6.0,3.0,4.0,no,no,no,nada,,,,nada,58.0,yes
84,2024-02-04_19h07.14.698,Unsyncopated_study2,102,23.0,feminino,right,España,castellano,Master degree,no,no,B,1,when,L4,unsyncopated,when,when,84,Online_whenL4//a.lo31.none.wav,re,de,zi,sil,ru,pe,da,sil1,ci,nu,sil2,['-'],,,none,none,,,,lo,1,testWhatL3Uns//time_viol.r2.s2.0.wav,4.0,what,unsyncopated,b,s2,no_rule,time,L3,m,0.9,4.0,1.0,1.332,2.0,2.0,castellano,0.0,inglés,6.0,3.0,4.0,no,no,no,nada,,,,nada,58.0,yes
85,2024-02-04_19h07.14.698,Unsyncopated_study2,102,23.0,feminino,right,España,castellano,Master degree,no,no,B,1,when,L4,unsyncopated,when,when,85,Online_whenL4//a.lo29.none.wav,pe,ña,ru,sil,de,zi,ñi,sil1,nu,re,sil2,['-'],,,none,none,,,,lo,1,testWhatL3Uns//time_viol.r1.s2.0.wav,4.0,what,unsyncopated,a,s2,no_rule,time,L3,z,0.719,4.0,0.0,0.835,2.0,2.0,castellano,0.0,inglés,6.0,3.0,4.0,no,no,no,nada,,,,nada,58.0,yes
86,2024-02-04_19h07.14.698,Unsyncopated_study2,102,23.0,feminino,right,España,castellano,Master degree,no,no,B,1,when,L4,unsyncopated,when,when,86,Online_whenL4//a.lo30.none.wav,de,re,ru,sil,pe,ñi,zi,sil1,bo,nu,sil2,['-'],,,none,none,,,,lo,1,testWhatL3Uns//r2.s2.0.wav,4.0,what,unsyncopated,b,s2,rule,rule,L3,m,1.398,4.0,0.0,1.182,2.0,2.0,castellano,0.0,inglés,6.0,3.0,4.0,no,no,no,nada,,,,nada,58.0,yes
87,2024-02-04_19h07.14.698,Unsyncopated_study2,102,23.0,feminino,right,España,castellano,Master degree,no,no,B,1,when,L4,unsyncopated,when,when,87,Online_whenL4//a.lo28.1110.wav,ña,nu,da,sil,ci,lo,po,sil1,re,pe,sil2,['catch'],[1.6080000000001746],[1.6080000000001746],1.11,no_beat,0.4980000000001745,0.4980000000001745,"[""space""]",lo,1,testWhatL3Uns//r2.s1.1.wav,4.0,what,unsyncopated,b,s1,rule,rule,L3,z,0.583,6.0,1.0,0.801,2.0,2.0,castellano,0.0,inglés,6.0,3.0,4.0,no,no,no,nada,,,,nada,58.0,yes
88,2024-02-04_19h07.14.698,Unsyncopated_study2,102,23.0,feminino,right,España,castellano,Master degree,no,no,B,1,when,L4,unsyncopated,when,when,88,Online_whenL4//c.bu5.444.wav,ci,ñi,bu,sil,po,nu,ña,sil1,pe,zi,sil2,['catch'],[0.9269999999999072],[0.9269999999999072],0.444,no_beat,0.4829999999999072,0.4829999999999072,"[""space""]",bu,3,testWhatL3Uns//dep_viol.r1.s2.0.wav,4.0,what,unsyncopated,a,s2,no_rule,dep,L3,m,3.051,5.0,1.0,0.549,2.0,2.0,castellano,0.0,inglés,6.0,3.0,4.0,no,no,no,nada,,,,nada,58.0,yes
89,2024-02-04_19h07.14.698,Unsyncopated_study2,102,23.0,feminino,right,España,castellano,Master degree,no,no,B,1,when,L4,unsyncopated,when,when,89,Online_whenL4//c.bu7.none.wav,lo,ci,ja,sil,pe,ñi,da,sil1,re,ru,sil2,['-'],,,none,none,,,,bu,3,testWhatL3Uns//r2.s2.2.wav,4.0,what,unsyncopated,b,s2,rule,rule,L3,z,0.552,7.0,1.0,0.85,2.0,2.0,castellano,0.0,inglés,6.0,3.0,4.0,no,no,no,nada,,,,nada,58.0,yes
90,2024-02-04_19h07.14.698,Unsyncopated_study2,102,23.0,feminino,right,España,castellano,Master degree,no,no,B,1,when,L4,unsyncopated,when,when,90,Online_whenL4//c.bu6.none.wav,nu,de,ci,sil,ru,zi,ña,sil1,po,ñi,sil2,['-'],,,none,none,,,,bu,3,testWhatL3Uns//dep_viol.r1.s1.0.wav,4.0,what,unsyncopated,a,s1,no_rule,dep,L3,z,0.5,6.0,0.0,0.699,2.0,2.0,castellano,0.0,inglés,6.0,3.0,4.0,no,no,no,nada,,,,nada,58.0,yes
91,2024-02-04_19h07.14.698,Unsyncopated_study2,102,23.0,feminino,right,España,castellano,Master degree,no,no,B,1,when,L4,unsyncopated,when,when,91,Online_whenL4//c.bu4.none.wav,ru,ña,ja,sil,ñi,de,ci,sil1,po,zi,sil2,['-'],,,none,none,,,,bu,3,testWhatL3Uns//r2.s2.1.wav,4.0,what,unsyncopated,b,s2,rule,rule,L3,z,0.984,6.0,1.0,0.499,2.0,2.0,castellano,0.0,inglés,6.0,3.0,4.0,no,no,no,nada,,,,nada,58.0,yes
92,2024-02-04_19h07.14.698,Unsyncopated_study2,102,23.0,feminino,right,España,castellano,Master degree,no,no,B,1,when,L4,unsyncopated,when,when,92,Online_whenL4//a.lo32.1776.wav,bu,pe,ru,sil,ñi,po,ci,sil1,lo,ja,sil2,"['false alarm', 'catch']","[0.5149999999998727, 2.395999999999958]",[2.395999999999958],1.776,beat,0.6199999999999581,0.6199999999999581,"[""space"",""space""]",lo,1,testWhatL3Uns//r2.s1.0.wav,4.0,what,unsyncopated,b,s1,rule,rule,L3,m,0.651,3.0,0.0,0.7,2.0,2.0,castellano,0.0,inglés,6.0,3.0,4.0,no,no,no,nada,,,,nada,58.0,yes
93,2024-02-04_19h07.14.698,Unsyncopated_study2,102,23.0,feminino,right,España,castellano,Master degree,no,no,B,1,when,L4,unsyncopated,when,when,93,Online_whenL4//a.lo35.none.wav,zi,pe,ru,sil,bu,ñi,ja,sil1,ña,po,sil2,['-'],,,none,none,,,,lo,1,testWhatL3Uns//r1.s1.0.wav,4.0,what,unsyncopated,a,s1,rule,rule,L3,z,2.281,4.0,1.0,0.735,2.0,2.0,castellano,0.0,inglés,6.0,3.0,4.0,no,no,no,nada,,,,nada,58.0,yes
94,2024-02-04_19h07.14.698,Unsyncopated_study2,102,23.0,feminino,right,España,castellano,Master degree,no,no,B,1,when,L4,unsyncopated,when,when,94,Online_whenL4//a.lo34.0.wav,lo,po,ña,sil,de,ci,pe,sil1,ñi,nu,sil2,['catch'],[0.45900000000006],[0.45900000000006],0.0,beat,0.45900000000006,0.45900000000006,"[""space""]",lo,1,testWhatL3Uns//time_viol.r1.s1.0.wav,4.0,what,unsyncopated,a,s1,no_rule,time,L3,m,1.365,6.0,1.0,2.432,2.0,2.0,castellano,0.0,inglés,6.0,3.0,4.0,no,no,no,nada,,,,nada,58.0,yes
95,2024-02-04_19h07.14.698,Unsyncopated_study2,102,23.0,feminino,right,España,castellano,Master degree,no,no,B,1,when,L4,unsyncopated,when,when,95,Online_whenL4//a.lo33.888.wav,ñi,bu,nu,sil,lo,de,ña,sil1,ci,po,sil2,['catch'],[1.3910000000000764],[1.3910000000000764],0.888,beat,0.5030000000000764,0.5030000000000764,"[""space""]",lo,1,testWhatL3Uns//r1.s2.2.wav,4.0,what,unsyncopated,a,s2,rule,rule,L3,z,0.619,6.0,1.0,0.6,2.0,2.0,castellano,0.0,inglés,6.0,3.0,4.0,no,no,no,nada,,,,nada,58.0,yes
96,2024-02-04_19h07.14.698,Unsyncopated_study2,102,23.0,feminino,right,España,castellano,Master degree,no,no,B,1,when,L4,unsyncopated,when,when,96,Online_whenL4//b.ja16.1110.wav,re,ci,bu,sil,de,ja,ru,sil1,pe,nu,sil2,['catch'],[1.5619999999998981],[1.5619999999998981],1.11,no_beat,0.451999999999898,0.451999999999898,"[""space""]",ja,2,,,,,,,,,,,,,,,2.0,2.0,castellano,0.0,inglés,6.0,3.0,4.0,no,no,no,nada,,,,nada,58.0,yes
97,2024-02-04_19h07.14.698,Unsyncopated_study2,102,23.0,feminino,right,España,castellano,Master degree,no,no,B,1,when,L4,unsyncopated,when,when,97,Online_whenL4//b.ja18.none.wav,bo,re,ru,sil,de,lo,zi,sil1,ci,ña,sil2,['-'],,,none,none,,,,ja,2,,,,,,,,,,,,,,,2.0,2.0,castellano,0.0,inglés,6.0,3.0,4.0,no,no,no,nada,,,,nada,58.0,yes
98,2024-02-04_19h07.14.698,Unsyncopated_study2,102,23.0,feminino,right,España,castellano,Master degree,no,no,B,1,when,L4,unsyncopated,when,when,98,Online_whenL4//b.ja17.none.wav,pe,ru,ñi,sil,zi,lo,re,sil1,de,bu,sil2,['-'],,,none,none,,,,ja,2,,,,,,,,,,,,,,,2.0,2.0,castellano,0.0,inglés,6.0,3.0,4.0,no,no,no,nada,,,,nada,58.0,yes
99,2024-02-04_19h07.14.698,Unsyncopated_study2,102,23.0,feminino,right,España,castellano,Master degree,no,no,B,1,when,L4,unsyncopated,when,when,99,Online_whenL4//b.ja19.none.wav,ñi,da,nu,sil,ña,bo,de,sil1,po,lo,sil2,['-'],,,none,none,,,,ja,2,,,,,,,,,,,,,,,2.0,2.0,castellano,0.0,inglés,6.0,3.0,4.0,no,no,no,nada,,,,nada,58.0,yes
100,2024-02-04_19h07.14.698,Unsyncopated_study2,102,23.0,feminino,right,España,castellano,Master degree,no,no,B,1,when,L4,unsyncopated,when,when,100,Online_whenL4//c.bu19.0.wav,bu,de,nu,sil,ja,ru,bo,sil1,ñi,pe,sil2,['catch'],[0.6429999999998017],[0.6429999999998017],0.0,beat,0.6429999999998017,0.6429999999998017,"[""space""]",bu,3,,,,,,,,,,,,,,,2.0,2.0,castellano,0.0,inglés,6.0,3.0,4.0,no,no,no,nada,,,,nada,58.0,yes
101,2024-02-04_19h07.14.698,Unsyncopated_study2,102,23.0,feminino,right,España,castellano,Master degree,no,no,B,1,when,L4,unsyncopated,when,when,101,Online_whenL4//c.bu18.none.wav,da,re,zi,sil,pe,po,lo,sil1,ci,ña,sil2,['-'],,,none,none,,,,bu,3,,,,,,,,,,,,,,,2.0,2.0,castellano,0.0,inglés,6.0,3.0,4.0,no,no,no,nada,,,,nada,58.0,yes
102,2024-02-04_19h07.14.698,Unsyncopated_study2,102,23.0,feminino,right,España,castellano,Master degree,no,no,B,1,when,L4,unsyncopated,when,when,102,Online_whenL4//c.bu17.none.wav,bo,zi,de,sil,ña,nu,ci,sil1,ru,po,sil2,['false alarm'],[0.6730000000000018],[0.6730000000000018],none,none,,,"[""space""]",bu,3,,,,,,,,,,,,,,,2.0,2.0,castellano,0.0,inglés,6.0,3.0,4.0,no,no,no,nada,,,,nada,58.0,yes
103,2024-02-04_19h07.14.698,Unsyncopated_study2,102,23.0,feminino,right,España,castellano,Master degree,no,no,B,1,when,L4,unsyncopated,when,when,103,Online_whenL4//c.bu16.0.wav,bu,ñi,pe,sil,ru,zi,bo,sil1,de,lo,sil2,['catch'],[0.5470000000000255],[0.5470000000000255],0.0,beat,0.5470000000000255,0.5470000000000255,"[""space""]",bu,3,,,,,,,,,,,,,,,2.0,2.0,castellano,0.0,inglés,6.0,3.0,4.0,no,no,no,nada,,,,nada,58.0,yes
104,2024-02-04_19h07.14.698,Unsyncopated_study2,102,23.0,feminino,right,España,castellano,Master degree,no,no,B,1,when,L4,unsyncopated,when,when,104,Online_whenL4//d.pe15.888.wav,po,lo,de,sil,pe,ja,bo,sil1,ña,bu,sil2,['catch'],[1.3479999999999563],[1.3479999999999563],0.888,beat,0.4599999999999563,0.4599999999999563,"[""space""]",pe,4,,,,,,,,,,,,,,,2.0,2.0,castellano,0.0,inglés,6.0,3.0,4.0,no,no,no,nada,,,,nada,58.0,yes
105,2024-02-04_19h07.14.698,Unsyncopated_study2,102,23.0,feminino,right,España,castellano,Master degree,no,no,B,1,when,L4,unsyncopated,when,when,105,Online_whenL4//d.pe14.none.wav,po,ña,bu,sil,de,ru,nu,sil1,ci,zi,sil2,['-'],,,none,none,,,,pe,4,,,,,,,,,,,,,,,2.0,2.0,castellano,0.0,inglés,6.0,3.0,4.0,no,no,no,nada,,,,nada,58.0,yes
106,2024-02-04_19h07.14.698,Unsyncopated_study2,102,23.0,feminino,right,España,castellano,Master degree,no,no,B,1,when,L4,unsyncopated,when,when,106,Online_whenL4//d.pe13.none.wav,da,ja,nu,sil,ru,ci,ñi,sil1,bu,po,sil2,['-'],,,none,none,,,,pe,4,,,,,,,,,,,,,,,2.0,2.0,castellano,0.0,inglés,6.0,3.0,4.0,no,no,no,nada,,,,nada,58.0,yes
107,2024-02-04_19h07.14.698,Unsyncopated_study2,102,23.0,feminino,right,España,castellano,Master degree,no,no,B,1,when,L4,unsyncopated,when,when,107,Online_whenL4//d.pe12.none.wav,ru,zi,ñi,sil,bu,de,ña,sil1,lo,re,sil2,['-'],,,none,none,,,,pe,4,,,,,,,,,,,,,,,2.0,2.0,castellano,0.0,inglés,6.0,3.0,4.0,no,no,no,nada,,,,nada,58.0,yes
108,2024-02-04_19h07.14.698,Unsyncopated_study2,102,23.0,feminino,right,España,castellano,Master degree,no,no,B,1,when,L4,unsyncopated,when,when,108,Online_whenL4//c.bu1.none.wav,lo,pe,po,sil,ci,ja,de,sil1,bo,ru,sil2,['-'],,,none,none,,,,bu,3,,,,,,,,,,,,,,,2.0,2.0,castellano,0.0,inglés,6.0,3.0,4.0,no,no,no,nada,,,,nada,58.0,yes
109,2024-02-04_19h07.14.698,Unsyncopated_study2,102,23.0,feminino,right,España,castellano,Master degree,no,no,B,1,when,L4,unsyncopated,when,when,109,Online_whenL4//c.bu2.1110.wav,lo,bo,ci,sil,da,bu,ñi,sil1,ja,de,sil2,['catch'],[1.9069999999999254],[1.9069999999999254],1.11,no_beat,0.7969999999999253,0.7969999999999253,"[""space""]",bu,3,,,,,,,,,,,,,,,2.0,2.0,castellano,0.0,inglés,6.0,3.0,4.0,no,no,no,nada,,,,nada,58.0,yes
110,2024-02-04_19h07.14.698,Unsyncopated_study2,102,23.0,feminino,right,España,castellano,Master degree,no,no,B,1,when,L4,unsyncopated,when,when,110,Online_whenL4//c.bu3.none.wav,ja,de,pe,sil,ña,ñi,bo,sil1,nu,po,sil2,['-'],,,none,none,,,,bu,3,,,,,,,,,,,,,,,2.0,2.0,castellano,0.0,inglés,6.0,3.0,4.0,no,no,no,nada,,,,nada,58.0,yes
111,2024-02-04_19h07.14.698,Unsyncopated_study2,102,23.0,feminino,right,España,castellano,Master degree,no,no,B,1,when,L4,unsyncopated,when,when,111,Online_whenL4//c.bu0.888.wav,ci,ñi,ja,sil,bu,da,ru,sil1,po,nu,sil2,['catch'],[1.377999999999929],[1.377999999999929],0.888,beat,0.489999999999929,0.489999999999929,"[""space""]",bu,3,,,,,,,,,,,,,,,2.0,2.0,castellano,0.0,inglés,6.0,3.0,4.0,no,no,no,nada,,,,nada,58.0,yes
112,2024-02-04_19h07.14.698,Unsyncopated_study2,102,23.0,feminino,right,España,castellano,Master degree,no,no,B,1,when,L4,unsyncopated,when,when,112,Online_whenL4//d.pe5.444.wav,bu,nu,pe,sil,ci,da,re,sil1,de,lo,sil2,"['catch', 'false alarm']","[0.6309999999998581, 1.1649999999999636]",[0.6309999999998581],0.444,no_beat,0.1869999999998581,0.1869999999998581,"[""space"",""space""]",pe,4,,,,,,,,,,,,,,,2.0,2.0,castellano,0.0,inglés,6.0,3.0,4.0,no,no,no,nada,,,,nada,58.0,yes
113,2024-02-04_19h07.14.698,Unsyncopated_study2,102,23.0,feminino,right,España,castellano,Master degree,no,no,B,1,when,L4,unsyncopated,when,when,113,Online_whenL4//d.pe6.1110.wav,da,lo,nu,sil,po,pe,ci,sil1,bo,ña,sil2,['catch'],[1.8009999999999309],[1.8009999999999309],1.11,no_beat,0.6909999999999308,0.6909999999999308,"[""space""]",pe,4,,,,,,,,,,,,,,,2.0,2.0,castellano,0.0,inglés,6.0,3.0,4.0,no,no,no,nada,,,,nada,58.0,yes
114,2024-02-04_19h07.14.698,Unsyncopated_study2,102,23.0,feminino,right,España,castellano,Master degree,no,no,B,1,when,L4,unsyncopated,when,when,114,Online_whenL4//d.pe7.1998.wav,da,lo,ña,sil,bu,ñi,ru,sil1,ja,pe,sil2,['catch'],[2.574000000000069],[2.574000000000069],1.998,no_beat,0.5760000000000691,0.5760000000000691,"[""space""]",pe,4,,,,,,,,,,,,,,,2.0,2.0,castellano,0.0,inglés,6.0,3.0,4.0,no,no,no,nada,,,,nada,58.0,yes
115,2024-02-04_19h07.14.698,Unsyncopated_study2,102,23.0,feminino,right,España,castellano,Master degree,no,no,B,1,when,L4,unsyncopated,when,when,115,Online_whenL4//d.pe4.1110.wav,da,ru,ja,sil,nu,pe,ña,sil1,ñi,de,sil2,['miss'],,,1.11,no_beat,,,,pe,4,,,,,,,,,,,,,,,2.0,2.0,castellano,0.0,inglés,6.0,3.0,4.0,no,no,no,nada,,,,nada,58.0,yes
116,2024-02-04_19h07.14.698,Unsyncopated_study2,102,23.0,feminino,right,España,castellano,Master degree,no,no,B,1,when,L4,unsyncopated,when,when,116,Online_whenL4//c.bu30.none.wav,ña,ru,lo,sil,bo,ci,ñi,sil1,nu,po,sil2,['-'],,,none,none,,,,bu,3,,,,,,,,,,,,,,,2.0,2.0,castellano,0.0,inglés,6.0,3.0,4.0,no,no,no,nada,,,,nada,58.0,yes
117,2024-02-04_19h07.14.698,Unsyncopated_study2,102,23.0,feminino,right,España,castellano,Master degree,no,no,B,1,when,L4,unsyncopated,when,when,117,Online_whenL4//c.bu28.1998.wav,ñi,re,ru,sil,ja,zi,ña,sil1,pe,bu,sil2,['catch'],[2.507000000000062],[2.507000000000062],1.998,no_beat,0.5090000000000618,0.5090000000000618,"[""space""]",bu,3,,,,,,,,,,,,,,,2.0,2.0,castellano,0.0,inglés,6.0,3.0,4.0,no,no,no,nada,,,,nada,58.0,yes
118,2024-02-04_19h07.14.698,Unsyncopated_study2,102,23.0,feminino,right,España,castellano,Master degree,no,no,B,1,when,L4,unsyncopated,when,when,118,Online_whenL4//c.bu29.none.wav,ja,nu,po,sil,da,re,de,sil1,ru,ci,sil2,['-'],,,none,none,,,,bu,3,,,,,,,,,,,,,,,2.0,2.0,castellano,0.0,inglés,6.0,3.0,4.0,no,no,no,nada,,,,nada,58.0,yes
119,2024-02-04_19h07.14.698,Unsyncopated_study2,102,23.0,feminino,right,España,castellano,Master degree,no,no,B,1,when,L4,unsyncopated,when,when,119,Online_whenL4//c.bu31.none.wav,ru,bo,ci,sil,lo,po,pe,sil1,zi,ña,sil2,['-'],,,none,none,,,,bu,3,,,,,,,,,,,,,,,2.0,2.0,castellano,0.0,inglés,6.0,3.0,4.0,no,no,no,nada,,,,nada,58.0,yes
120,2024-02-04_19h07.14.698,Unsyncopated_study2,102,23.0,feminino,right,España,castellano,Master degree,no,no,B,1,when,L4,unsyncopated,when,when,120,Online_whenL4//b.ja6.1332.wav,pe,ña,de,sil,bo,ci,ja,sil1,lo,po,sil2,['catch'],[1.928000000000111],[1.928000000000111],1.332,no_beat,0.5960000000001109,0.5960000000001109,"[""space""]",ja,2,,,,,,,,,,,,,,,2.0,2.0,castellano,0.0,inglés,6.0,3.0,4.0,no,no,no,nada,,,,nada,58.0,yes
121,2024-02-04_19h07.14.698,Unsyncopated_study2,102,23.0,feminino,right,España,castellano,Master degree,no,no,B,1,when,L4,unsyncopated,when,when,121,Online_whenL4//b.ja4.none.wav,ñi,nu,ru,sil,po,de,da,sil1,re,lo,sil2,['-'],,,none,none,,,,ja,2,,,,,,,,,,,,,,,2.0,2.0,castellano,0.0,inglés,6.0,3.0,4.0,no,no,no,nada,,,,nada,58.0,yes
122,2024-02-04_19h07.14.698,Unsyncopated_study2,102,23.0,feminino,right,España,castellano,Master degree,no,no,B,1,when,L4,unsyncopated,when,when,122,Online_whenL4//b.ja7.none.wav,de,bo,zi,sil,ru,pe,da,sil1,po,nu,sil2,['-'],,,none,none,,,,ja,2,,,,,,,,,,,,,,,2.0,2.0,castellano,0.0,inglés,6.0,3.0,4.0,no,no,no,nada,,,,nada,58.0,yes
123,2024-02-04_19h07.14.698,Unsyncopated_study2,102,23.0,feminino,right,España,castellano,Master degree,no,no,B,1,when,L4,unsyncopated,when,when,123,Online_whenL4//b.ja5.none.wav,re,pe,ña,sil,bu,po,ci,sil1,lo,nu,sil2,['-'],,,none,none,,,,ja,2,,,,,,,,,,,,,,,2.0,2.0,castellano,0.0,inglés,6.0,3.0,4.0,no,no,no,nada,,,,nada,58.0,yes
124,2024-02-04_19h07.14.698,Unsyncopated_study2,102,23.0,feminino,right,España,castellano,Master degree,no,no,B,1,when,L4,unsyncopated,when,when,124,Online_whenL4//a.lo6.none.wav,ñi,ja,ña,sil,de,re,po,sil1,nu,bo,sil2,['-'],,,none,none,,,,lo,1,,,,,,,,,,,,,,,2.0,2.0,castellano,0.0,inglés,6.0,3.0,4.0,no,no,no,nada,,,,nada,58.0,yes
125,2024-02-04_19h07.14.698,Unsyncopated_study2,102,23.0,feminino,right,España,castellano,Master degree,no,no,B,1,when,L4,unsyncopated,when,when,125,Online_whenL4//a.lo5.1998.wav,ci,bu,zi,sil,ru,bo,pe,sil1,de,lo,sil2,['catch'],[2.5249999999998636],[2.5249999999998636],1.998,no_beat,0.5269999999998636,0.5269999999998636,"[""space""]",lo,1,,,,,,,,,,,,,,,2.0,2.0,castellano,0.0,inglés,6.0,3.0,4.0,no,no,no,nada,,,,nada,58.0,yes
126,2024-02-04_19h07.14.698,Unsyncopated_study2,102,23.0,feminino,right,España,castellano,Master degree,no,no,B,1,when,L4,unsyncopated,when,when,126,Online_whenL4//a.lo4.none.wav,bo,ñi,pe,sil,ja,re,ru,sil1,nu,da,sil2,['-'],,,none,none,,,,lo,1,,,,,,,,,,,,,,,2.0,2.0,castellano,0.0,inglés,6.0,3.0,4.0,no,no,no,nada,,,,nada,58.0,yes
127,2024-02-04_19h07.14.698,Unsyncopated_study2,102,23.0,feminino,right,España,castellano,Master degree,no,no,B,1,when,L4,unsyncopated,when,when,127,Online_whenL4//a.lo7.1776.wav,de,po,da,sil,ru,zi,ñi,sil1,lo,pe,sil2,['catch'],[2.2409999999999854],[2.2409999999999854],1.776,beat,0.4649999999999854,0.4649999999999854,"[""space""]",lo,1,,,,,,,,,,,,,,,2.0,2.0,castellano,0.0,inglés,6.0,3.0,4.0,no,no,no,nada,,,,nada,58.0,yes
128,2024-02-04_19h07.14.698,Unsyncopated_study2,102,23.0,feminino,right,España,castellano,Master degree,no,no,B,1,when,L4,unsyncopated,when,when,128,Online_whenL4//b.ja30.none.wav,zi,ci,de,sil,bo,da,lo,sil1,re,bu,sil2,['-'],,,none,none,,,,ja,2,,,,,,,,,,,,,,,2.0,2.0,castellano,0.0,inglés,6.0,3.0,4.0,no,no,no,nada,,,,nada,58.0,yes
129,2024-02-04_19h07.14.698,Unsyncopated_study2,102,23.0,feminino,right,España,castellano,Master degree,no,no,B,1,when,L4,unsyncopated,when,when,129,Online_whenL4//b.ja31.1332.wav,ci,re,da,sil,lo,pe,ja,sil1,de,ñi,sil2,['catch'],[1.8240000000000691],[1.8240000000000691],1.332,no_beat,0.492000000000069,0.492000000000069,"[""space""]",ja,2,,,,,,,,,,,,,,,2.0,2.0,castellano,0.0,inglés,6.0,3.0,4.0,no,no,no,nada,,,,nada,58.0,yes
130,2024-02-04_19h07.14.698,Unsyncopated_study2,102,23.0,feminino,right,España,castellano,Master degree,no,no,B,1,when,L4,unsyncopated,when,when,130,Online_whenL4//b.ja29.none.wav,bu,da,nu,sil,ci,ru,ña,sil1,lo,bo,sil2,['-'],,,none,none,,,,ja,2,,,,,,,,,,,,,,,2.0,2.0,castellano,0.0,inglés,6.0,3.0,4.0,no,no,no,nada,,,,nada,58.0,yes
131,2024-02-04_19h07.14.698,Unsyncopated_study2,102,23.0,feminino,right,España,castellano,Master degree,no,no,B,1,when,L4,unsyncopated,when,when,131,Online_whenL4//b.ja28.1776.wav,ru,po,bu,sil,bo,da,lo,sil1,ja,pe,sil2,['catch'],[2.311000000000149],[2.311000000000149],1.776,beat,0.5350000000001491,0.5350000000001491,"[""space""]",ja,2,,,,,,,,,,,,,,,2.0,2.0,castellano,0.0,inglés,6.0,3.0,4.0,no,no,no,nada,,,,nada,58.0,yes
132,2024-02-04_19h07.14.698,Unsyncopated_study2,102,23.0,feminino,right,España,castellano,Master degree,no,no,B,1,when,L4,unsyncopated,when,when,132,Online_whenL4//a.lo21.1998.wav,ñi,zi,bu,sil,de,ru,po,sil1,ña,lo,sil2,['catch'],[2.6010000000001128],[2.6010000000001128],1.998,no_beat,0.6030000000001128,0.6030000000001128,"[""space""]",lo,1,,,,,,,,,,,,,,,2.0,2.0,castellano,0.0,inglés,6.0,3.0,4.0,no,no,no,nada,,,,nada,58.0,yes
133,2024-02-04_19h07.14.698,Unsyncopated_study2,102,23.0,feminino,right,España,castellano,Master degree,no,no,B,1,when,L4,unsyncopated,when,when,133,Online_whenL4//a.lo22.444.wav,pe,ña,lo,sil,re,ñi,bo,sil1,ru,ja,sil2,['miss'],,,0.444,no_beat,,,,lo,1,,,,,,,,,,,,,,,2.0,2.0,castellano,0.0,inglés,6.0,3.0,4.0,no,no,no,nada,,,,nada,58.0,yes
134,2024-02-04_19h07.14.698,Unsyncopated_study2,102,23.0,feminino,right,España,castellano,Master degree,no,no,B,1,when,L4,unsyncopated,when,when,134,Online_whenL4//a.lo23.1332.wav,nu,ña,ci,sil,re,ñi,lo,sil1,pe,bu,sil2,['miss'],,,1.332,no_beat,,,,lo,1,,,,,,,,,,,,,,,2.0,2.0,castellano,0.0,inglés,6.0,3.0,4.0,no,no,no,nada,,,,nada,58.0,yes
135,2024-02-04_19h07.14.698,Unsyncopated_study2,102,23.0,feminino,right,España,castellano,Master degree,no,no,B,1,when,L4,unsyncopated,when,when,135,Online_whenL4//a.lo20.none.wav,re,po,ja,sil,de,ña,nu,sil1,pe,ru,sil2,['false alarm'],[0.1710000000000491],[0.1710000000000491],none,none,,,"[""space""]",lo,1,,,,,,,,,,,,,,,2.0,2.0,castellano,0.0,inglés,6.0,3.0,4.0,no,no,no,nada,,,,nada,58.0,yes
136,2024-02-04_19h07.14.698,Unsyncopated_study2,102,23.0,feminino,right,España,castellano,Master degree,no,no,B,2,conjunction_un,L2,unsyncopated,s1,r2,0,Online_conjL2_un//d.si.ñu10.none.none.wav,fe,ba,bi,sil,ra,te,mi,sil1,me,to,sil2,['-'],,,none,none,,,,ñu,4,,,,,,,,,,,,,,,2.0,2.0,castellano,0.0,inglés,6.0,3.0,4.0,no,no,no,nada,,,,nada,58.0,yes
137,2024-02-04_19h07.14.698,Unsyncopated_study2,102,23.0,feminino,right,España,castellano,Master degree,no,no,B,2,conjunction_un,L2,unsyncopated,s2,r1,1,Online_conjL2_un//d.si.ñu11.none.none.wav,ba,to,bi,sil,go,mi,te,sil1,du,su,sil2,['-'],,,none,none,,,,ñu,4,,,,,,,,,,,,,,,2.0,2.0,castellano,0.0,inglés,6.0,3.0,4.0,no,no,no,nada,,,,nada,58.0,yes
138,2024-02-04_19h07.14.698,Unsyncopated_study2,102,23.0,feminino,right,España,castellano,Master degree,no,no,B,2,conjunction_un,L2,unsyncopated,s2,r2,2,Online_conjL2_un//d.si.ñu9.none.none.wav,bi,cha,to,sil,fe,te,ba,sil1,ra,me,sil2,['-'],,,none,none,,,,ñu,4,,,,,,,,,,,,,,,2.0,2.0,castellano,0.0,inglés,6.0,3.0,4.0,no,no,no,nada,,,,nada,58.0,yes
139,2024-02-04_19h07.14.698,Unsyncopated_study2,102,23.0,feminino,right,España,castellano,Master degree,no,no,B,2,conjunction_un,L2,unsyncopated,s2,r1,3,Online_conjL2_un//d.si.ñu8.0.222.wav,si,ñu,bi,sil,go,me,to,sil1,du,ba,sil2,['catch'],[0.7760000000000673],[0.7760000000000673],0.222,no_beat,0.5540000000000673,0.5540000000000673,"[""space""]",ñu,4,,,,,,,,,,,,,,,2.0,2.0,castellano,0.0,inglés,6.0,3.0,4.0,no,no,no,nada,,,,nada,58.0,yes
140,2024-02-04_19h07.14.698,Unsyncopated_study2,102,23.0,feminino,right,España,castellano,Master degree,no,no,B,2,conjunction_un,L2,unsyncopated,s2,r1,4,Online_conjL2_un//a.go.du16.888.1776.wav,cha,me,ba,sil,go,to,si,sil1,du,ñi,sil2,['catch'],[1.41800000000012],[1.41800000000012],0.888,beat,0.53000000000012,0.53000000000012,"[""space""]",go,1,,,,,,,,,,,,,,,2.0,2.0,castellano,0.0,inglés,6.0,3.0,4.0,no,no,no,nada,,,,nada,58.0,yes
141,2024-02-04_19h07.14.698,Unsyncopated_study2,102,23.0,feminino,right,España,castellano,Master degree,no,no,B,2,conjunction_un,L2,unsyncopated,s1,r1,5,Online_conjL2_un//a.go.du19.0.888.wav,go,ba,si,sil,du,su,mi,sil1,ñi,cha,sil2,['catch'],[0.6420000000000528],[0.6420000000000528],0.0,beat,0.6420000000000528,0.6420000000000528,"[""space""]",go,1,,,,,,,,,,,,,,,2.0,2.0,castellano,0.0,inglés,6.0,3.0,4.0,no,no,no,nada,,,,nada,58.0,yes
142,2024-02-04_19h07.14.698,Unsyncopated_study2,102,23.0,feminino,right,España,castellano,Master degree,no,no,B,2,conjunction_un,L2,unsyncopated,s1,r2,6,Online_conjL2_un//a.go.du17.none.none.wav,fe,mi,su,sil,ra,me,bi,sil1,te,si,sil2,['-'],,,none,none,,,,go,1,,,,,,,,,,,,,,,2.0,2.0,castellano,0.0,inglés,6.0,3.0,4.0,no,no,no,nada,,,,nada,58.0,yes
143,2024-02-04_19h07.14.698,Unsyncopated_study2,102,23.0,feminino,right,España,castellano,Master degree,no,no,B,2,conjunction_un,L2,unsyncopated,s1,r1,7,Online_conjL2_un//a.go.du18.0.888.wav,go,me,si,sil,du,ñi,ba,sil1,su,to,sil2,['catch'],[0.4600000000000364],[0.4600000000000364],0.0,beat,0.4600000000000364,0.4600000000000364,"[""space""]",go,1,,,,,,,,,,,,,,,2.0,2.0,castellano,0.0,inglés,6.0,3.0,4.0,no,no,no,nada,,,,nada,58.0,yes
144,2024-02-04_19h07.14.698,Unsyncopated_study2,102,23.0,feminino,right,España,castellano,Master degree,no,no,B,2,conjunction_un,L2,unsyncopated,s2,r1,8,Online_conjL2_un//a.go.du2.888.1776.wav,si,me,to,sil,go,bi,te,sil1,du,cha,sil2,['catch'],[1.4160000000001673],[1.4160000000001673],0.888,beat,0.5280000000001673,0.5280000000001673,"[""space""]",go,1,,,,,,,,,,,,,,,2.0,2.0,castellano,0.0,inglés,6.0,3.0,4.0,no,no,no,nada,,,,nada,58.0,yes
145,2024-02-04_19h07.14.698,Unsyncopated_study2,102,23.0,feminino,right,España,castellano,Master degree,no,no,B,2,conjunction_un,L2,unsyncopated,s1,r2,9,Online_conjL2_un//a.go.du0.none.none.wav,fe,ñu,ba,sil,ra,mi,cha,sil1,bi,si,sil2,['-'],,,none,none,,,,go,1,,,,,,,,,,,,,,,2.0,2.0,castellano,0.0,inglés,6.0,3.0,4.0,no,no,no,nada,,,,nada,58.0,yes
146,2024-02-04_19h07.14.698,Unsyncopated_study2,102,23.0,feminino,right,España,castellano,Master degree,no,no,B,2,conjunction_un,L2,unsyncopated,s1,r1,10,Online_conjL2_un//a.go.du1.0.888.wav,go,bi,si,sil,du,ñu,ba,sil1,mi,cha,sil2,['catch'],[0.4760000000001128],[0.4760000000001128],0.0,beat,0.4760000000001128,0.4760000000001128,"[""space""]",go,1,,,,,,,,,,,,,,,2.0,2.0,castellano,0.0,inglés,6.0,3.0,4.0,no,no,no,nada,,,,nada,58.0,yes
147,2024-02-04_19h07.14.698,Unsyncopated_study2,102,23.0,feminino,right,España,castellano,Master degree,no,no,B,2,conjunction_un,L2,unsyncopated,s2,r2,11,Online_conjL2_un//a.go.du3.none.none.wav,te,bi,su,sil,fe,me,ñi,sil1,ra,si,sil2,['-'],,,none,none,,,,go,1,,,,,,,,,,,,,,,2.0,2.0,castellano,0.0,inglés,6.0,3.0,4.0,no,no,no,nada,,,,nada,58.0,yes
148,2024-02-04_19h07.14.698,Unsyncopated_study2,102,23.0,feminino,right,España,castellano,Master degree,no,no,B,2,conjunction_un,L2,unsyncopated,s2,r2,12,Online_conjL2_un//b.fe.ra4.888.1776.wav,bi,ñi,to,sil,fe,me,ba,sil1,ra,cha,sil2,['catch'],[2.286999999999807],[2.286999999999807],1.776,beat,0.5109999999998072,0.5109999999998072,"[""space""]",ra,2,,,,,,,,,,,,,,,2.0,2.0,castellano,0.0,inglés,6.0,3.0,4.0,no,no,no,nada,,,,nada,58.0,yes
149,2024-02-04_19h07.14.698,Unsyncopated_study2,102,23.0,feminino,right,España,castellano,Master degree,no,no,B,2,conjunction_un,L2,unsyncopated,s1,r2,13,Online_conjL2_un//b.fe.ra6.0.888.wav,fe,me,ñu,sil,ra,ñi,mi,sil1,to,bi,sil2,['catch'],[1.336999999999989],[1.336999999999989],0.888,beat,0.4489999999999891,0.4489999999999891,"[""space""]",ra,2,,,,,,,,,,,,,,,2.0,2.0,castellano,0.0,inglés,6.0,3.0,4.0,no,no,no,nada,,,,nada,58.0,yes
150,2024-02-04_19h07.14.698,Unsyncopated_study2,102,23.0,feminino,right,España,castellano,Master degree,no,no,B,2,conjunction_un,L2,unsyncopated,s1,r1,14,Online_conjL2_un//b.fe.ra7.none.none.wav,go,ñu,si,sil,du,me,ñi,sil1,te,ba,sil2,['-'],,,none,none,,,,ra,2,,,,,,,,,,,,,,,2.0,2.0,castellano,0.0,inglés,6.0,3.0,4.0,no,no,no,nada,,,,nada,58.0,yes
151,2024-02-04_19h07.14.698,Unsyncopated_study2,102,23.0,feminino,right,España,castellano,Master degree,no,no,B,2,conjunction_un,L2,unsyncopated,s2,r1,15,Online_conjL2_un//b.fe.ra5.none.none.wav,cha,si,su,sil,go,bi,mi,sil1,du,ñu,sil2,['-'],,,none,none,,,,ra,2,,,,,,,,,,,,,,,2.0,2.0,castellano,0.0,inglés,6.0,3.0,4.0,no,no,no,nada,,,,nada,58.0,yes
152,2024-02-04_19h07.14.698,Unsyncopated_study2,102,23.0,feminino,right,España,castellano,Master degree,no,no,B,2,conjunction_un,L2,unsyncopated,s2,r1,16,Online_conjL2_un//a.go.du23.888.1776.wav,su,te,mi,sil,go,ñu,bi,sil1,du,me,sil2,['catch'],[1.3599999999999],[1.3599999999999],0.888,beat,0.4719999999998999,0.4719999999998999,"[""space""]",go,1,,,,,,,,,,,,,,,2.0,2.0,castellano,0.0,inglés,6.0,3.0,4.0,no,no,no,nada,,,,nada,58.0,yes
153,2024-02-04_19h07.14.698,Unsyncopated_study2,102,23.0,feminino,right,España,castellano,Master degree,no,no,B,2,conjunction_un,L2,unsyncopated,s2,r1,17,Online_conjL2_un//a.go.du21.888.1776.wav,ba,cha,si,sil,go,to,ñi,sil1,du,te,sil2,['catch'],[1.4589999999998327],[1.4589999999998327],0.888,beat,0.5709999999998326,0.5709999999998326,"[""space""]",go,1,,,,,,,,,,,,,,,2.0,2.0,castellano,0.0,inglés,6.0,3.0,4.0,no,no,no,nada,,,,nada,58.0,yes
154,2024-02-04_19h07.14.698,Unsyncopated_study2,102,23.0,feminino,right,España,castellano,Master degree,no,no,B,2,conjunction_un,L2,unsyncopated,s1,r2,18,Online_conjL2_un//a.go.du22.none.none.wav,fe,bi,ñi,sil,ra,mi,me,sil1,su,ñu,sil2,['-'],,,none,none,,,,go,1,,,,,,,,,,,,,,,2.0,2.0,castellano,0.0,inglés,6.0,3.0,4.0,no,no,no,nada,,,,nada,58.0,yes
155,2024-02-04_19h07.14.698,Unsyncopated_study2,102,23.0,feminino,right,España,castellano,Master degree,no,no,B,2,conjunction_un,L2,unsyncopated,s1,r1,19,Online_conjL2_un//a.go.du20.0.888.wav,go,ñi,si,sil,du,mi,me,sil1,bi,te,sil2,['catch'],[0.6600000000000819],[0.6600000000000819],0.0,beat,0.6600000000000819,0.6600000000000819,"[""space""]",go,1,,,,,,,,,,,,,,,2.0,2.0,castellano,0.0,inglés,6.0,3.0,4.0,no,no,no,nada,,,,nada,58.0,yes
156,2024-02-04_19h07.14.698,Unsyncopated_study2,102,23.0,feminino,right,España,castellano,Master degree,no,no,B,2,conjunction_un,L2,unsyncopated,s1,r2,20,Online_conjL2_un//d.si.ñu20.1776.222.wav,fe,ñu,cha,sil,ra,bi,te,sil1,si,ñi,sil2,['catch'],[0.7029999999999745],[0.7029999999999745],0.222,no_beat,0.4809999999999745,0.4809999999999745,"[""space""]",ñu,4,,,,,,,,,,,,,,,2.0,2.0,castellano,0.0,inglés,6.0,3.0,4.0,no,no,no,nada,,,,nada,58.0,yes
157,2024-02-04_19h07.14.698,Unsyncopated_study2,102,23.0,feminino,right,España,castellano,Master degree,no,no,B,2,conjunction_un,L2,unsyncopated,s1,r1,21,Online_conjL2_un//d.si.ñu22.none.none.wav,go,su,to,sil,du,ñi,me,sil1,bi,mi,sil2,['-'],,,none,none,,,,ñu,4,,,,,,,,,,,,,,,2.0,2.0,castellano,0.0,inglés,6.0,3.0,4.0,no,no,no,nada,,,,nada,58.0,yes
158,2024-02-04_19h07.14.698,Unsyncopated_study2,102,23.0,feminino,right,España,castellano,Master degree,no,no,B,2,conjunction_un,L2,unsyncopated,s2,r1,22,Online_conjL2_un//d.si.ñu23.none.none.wav,su,to,ñi,sil,go,mi,cha,sil1,du,ba,sil2,['-'],,,none,none,,,,ñu,4,,,,,,,,,,,,,,,2.0,2.0,castellano,0.0,inglés,6.0,3.0,4.0,no,no,no,nada,,,,nada,58.0,yes
159,2024-02-04_19h07.14.698,Unsyncopated_study2,102,23.0,feminino,right,España,castellano,Master degree,no,no,B,2,conjunction_un,L2,unsyncopated,s1,r2,23,Online_conjL2_un//d.si.ñu21.none.none.wav,fe,ba,mi,sil,ra,cha,su,sil1,to,me,sil2,['-'],,,none,none,,,,ñu,4,,,,,,,,,,,,,,,2.0,2.0,castellano,0.0,inglés,6.0,3.0,4.0,no,no,no,nada,,,,nada,58.0,yes
160,2024-02-04_19h07.14.698,Unsyncopated_study2,102,23.0,feminino,right,España,castellano,Master degree,no,no,B,2,conjunction_un,L2,unsyncopated,s2,r1,24,Online_conjL2_un//c.cha.me18.none.none.wav,ba,su,mi,sil,go,ñu,te,sil1,du,ñi,sil2,['false alarm'],[0.6159999999999854],[0.6159999999999854],none,none,,,"[""space""]",me,3,,,,,,,,,,,,,,,2.0,2.0,castellano,0.0,inglés,6.0,3.0,4.0,no,no,no,nada,,,,nada,58.0,yes
161,2024-02-04_19h07.14.698,Unsyncopated_study2,102,23.0,feminino,right,España,castellano,Master degree,no,no,B,2,conjunction_un,L2,unsyncopated,s2,r1,25,Online_conjL2_un//c.cha.me19.none.none.wav,bi,mi,to,sil,go,ñu,si,sil1,du,ñi,sil2,['-'],,,none,none,,,,me,3,,,,,,,,,,,,,,,2.0,2.0,castellano,0.0,inglés,6.0,3.0,4.0,no,no,no,nada,,,,nada,58.0,yes
162,2024-02-04_19h07.14.698,Unsyncopated_study2,102,23.0,feminino,right,España,castellano,Master degree,no,no,B,2,conjunction_un,L2,unsyncopated,s2,r2,26,Online_conjL2_un//c.cha.me16.none.none.wav,te,mi,si,sil,fe,ñi,bi,sil1,ra,ñu,sil2,['-'],,,none,none,,,,me,3,,,,,,,,,,,,,,,2.0,2.0,castellano,0.0,inglés,6.0,3.0,4.0,no,no,no,nada,,,,nada,58.0,yes
163,2024-02-04_19h07.14.698,Unsyncopated_study2,102,23.0,feminino,right,España,castellano,Master degree,no,no,B,2,conjunction_un,L2,unsyncopated,s2,r1,27,Online_conjL2_un//c.cha.me17.1332.444.wav,bi,ba,me,sil,go,ñi,cha,sil1,du,si,sil2,['catch'],[1.0860000000000127],[1.0860000000000127],0.444,no_beat,0.6420000000000128,0.6420000000000128,"[""space""]",me,3,,,,,,,,,,,,,,,2.0,2.0,castellano,0.0,inglés,6.0,3.0,4.0,no,no,no,nada,,,,nada,58.0,yes
164,2024-02-04_19h07.14.698,Unsyncopated_study2,102,23.0,feminino,right,España,castellano,Master degree,no,no,B,2,conjunction_un,L2,unsyncopated,s2,r2,28,Online_conjL2_un//a.go.du6.none.none.wav,ñu,ba,bi,sil,fe,me,su,sil1,ra,to,sil2,['-'],,,none,none,,,,go,1,,,,,,,,,,,,,,,2.0,2.0,castellano,0.0,inglés,6.0,3.0,4.0,no,no,no,nada,,,,nada,58.0,yes
165,2024-02-04_19h07.14.698,Unsyncopated_study2,102,23.0,feminino,right,España,castellano,Master degree,no,no,B,2,conjunction_un,L2,unsyncopated,s2,r2,29,Online_conjL2_un//a.go.du4.none.none.wav,ñi,ba,cha,sil,fe,bi,ñu,sil1,ra,mi,sil2,['-'],,,none,none,,,,go,1,,,,,,,,,,,,,,,2.0,2.0,castellano,0.0,inglés,6.0,3.0,4.0,no,no,no,nada,,,,nada,58.0,yes
166,2024-02-04_19h07.14.698,Unsyncopated_study2,102,23.0,feminino,right,España,castellano,Master degree,no,no,B,2,conjunction_un,L2,unsyncopated,s2,r2,30,Online_conjL2_un//a.go.du7.none.none.wav,to,ñi,su,sil,fe,si,ñu,sil1,ra,cha,sil2,['-'],,,none,none,,,,go,1,,,,,,,,,,,,,,,2.0,2.0,castellano,0.0,inglés,6.0,3.0,4.0,no,no,no,nada,,,,nada,58.0,yes
167,2024-02-04_19h07.14.698,Unsyncopated_study2,102,23.0,feminino,right,España,castellano,Master degree,no,no,B,2,conjunction_un,L2,unsyncopated,s1,r2,31,Online_conjL2_un//a.go.du5.none.none.wav,fe,bi,me,sil,ra,to,si,sil1,ñi,ñu,sil2,['-'],,,none,none,,,,go,1,,,,,,,,,,,,,,,2.0,2.0,castellano,0.0,inglés,6.0,3.0,4.0,no,no,no,nada,,,,nada,58.0,yes
168,2024-02-04_19h07.14.698,Unsyncopated_study2,102,23.0,feminino,right,España,castellano,Master degree,no,no,B,2,conjunction_un,L2,unsyncopated,s2,r2,32,Online_conjL2_un//a.go.du26.none.none.wav,mi,bi,ñi,sil,fe,cha,te,sil1,ra,su,sil2,['-'],,,none,none,,,,go,1,,,,,,,,,,,,,,,2.0,2.0,castellano,0.0,inglés,6.0,3.0,4.0,no,no,no,nada,,,,nada,58.0,yes
169,2024-02-04_19h07.14.698,Unsyncopated_study2,102,23.0,feminino,right,España,castellano,Master degree,no,no,B,2,conjunction_un,L2,unsyncopated,s1,r1,33,Online_conjL2_un//a.go.du24.0.888.wav,go,si,bi,sil,du,to,me,sil1,ñi,ba,sil2,['catch'],[0.42899999999985994],[0.42899999999985994],0.0,beat,0.4289999999998599,0.4289999999998599,"[""space""]",go,1,,,,,,,,,,,,,,,2.0,2.0,castellano,0.0,inglés,6.0,3.0,4.0,no,no,no,nada,,,,nada,58.0,yes
170,2024-02-04_19h07.14.698,Unsyncopated_study2,102,23.0,feminino,right,España,castellano,Master degree,no,no,B,2,conjunction_un,L2,unsyncopated,s2,r1,34,Online_conjL2_un//a.go.du27.888.1776.wav,ñu,ba,bi,sil,go,si,mi,sil1,du,te,sil2,['catch'],[1.3579999999999472],[1.3579999999999472],0.888,beat,0.4699999999999472,0.4699999999999472,"[""space""]",go,1,,,,,,,,,,,,,,,2.0,2.0,castellano,0.0,inglés,6.0,3.0,4.0,no,no,no,nada,,,,nada,58.0,yes
171,2024-02-04_19h07.14.698,Unsyncopated_study2,102,23.0,feminino,right,España,castellano,Master degree,no,no,B,2,conjunction_un,L2,unsyncopated,s2,r2,35,Online_conjL2_un//a.go.du25.none.none.wav,mi,ñu,ba,sil,fe,bi,to,sil1,ra,si,sil2,['-'],,,none,none,,,,go,1,,,,,,,,,,,,,,,2.0,2.0,castellano,0.0,inglés,6.0,3.0,4.0,no,no,no,nada,,,,nada,58.0,yes
172,2024-02-04_19h07.14.698,Unsyncopated_study2,102,23.0,feminino,right,España,castellano,Master degree,no,no,B,2,conjunction_un,L2,unsyncopated,s2,r1,36,Online_conjL2_un//b.fe.ra27.none.none.wav,mi,si,me,sil,go,ñu,to,sil1,du,te,sil2,['-'],,,none,none,,,,ra,2,,,,,,,,,,,,,,,2.0,2.0,castellano,0.0,inglés,6.0,3.0,4.0,no,no,no,nada,,,,nada,58.0,yes
173,2024-02-04_19h07.14.698,Unsyncopated_study2,102,23.0,feminino,right,España,castellano,Master degree,no,no,B,2,conjunction_un,L2,unsyncopated,s2,r2,37,Online_conjL2_un//b.fe.ra25.888.1776.wav,me,bi,si,sil,fe,su,te,sil1,ra,cha,sil2,['catch_delay'],[0.9979999999999001],[0.9979999999999001],1.776,beat,0.9979999999999,0.9979999999999,,ra,2,,,,,,,,,,,,,,,2.0,2.0,castellano,0.0,inglés,6.0,3.0,4.0,no,no,no,nada,,,,nada,58.0,yes
174,2024-02-04_19h07.14.698,Unsyncopated_study2,102,23.0,feminino,right,España,castellano,Master degree,no,no,B,2,conjunction_un,L2,unsyncopated,s1,r1,38,Online_conjL2_un//b.fe.ra24.none.none.wav,go,su,bi,sil,du,me,ñi,sil1,mi,cha,sil2,['-'],[0.10999999999989996],[0.10999999999989996],none,none,,,"[""space""]",ra,2,,,,,,,,,,,,,,,2.0,2.0,castellano,0.0,inglés,6.0,3.0,4.0,no,no,no,nada,,,,nada,58.0,yes
175,2024-02-04_19h07.14.698,Unsyncopated_study2,102,23.0,feminino,right,España,castellano,Master degree,no,no,B,2,conjunction_un,L2,unsyncopated,s2,r2,39,Online_conjL2_un//b.fe.ra26.888.1776.wav,ba,su,si,sil,fe,ñu,mi,sil1,ra,ñi,sil2,['catch'],[2.3250000000000455],[2.3250000000000455],1.776,beat,0.5490000000000455,0.5490000000000455,"[""space""]",ra,2,,,,,,,,,,,,,,,2.0,2.0,castellano,0.0,inglés,6.0,3.0,4.0,no,no,no,nada,,,,nada,58.0,yes
176,2024-02-04_19h07.14.698,Unsyncopated_study2,102,23.0,feminino,right,España,castellano,Master degree,no,no,B,2,conjunction_un,L2,unsyncopated,s1,r1,40,Online_conjL2_un//d.si.ñu19.444.1332.wav,go,su,si,sil,du,to,ñu,sil1,te,me,sil2,['catch'],[2.060999999999922],[2.060999999999922],1.332,no_beat,0.7289999999999217,0.7289999999999217,"[""space""]",ñu,4,,,,,,,,,,,,,,,2.0,2.0,castellano,0.0,inglés,6.0,3.0,4.0,no,no,no,nada,,,,nada,58.0,yes
177,2024-02-04_19h07.14.698,Unsyncopated_study2,102,23.0,feminino,right,España,castellano,Master degree,no,no,B,2,conjunction_un,L2,unsyncopated,s2,r1,41,Online_conjL2_un//d.si.ñu18.1332.222.wav,bi,ñu,me,sil,go,cha,si,sil1,du,ba,sil2,['catch'],[0.8250000000000455],[0.8250000000000455],0.222,no_beat,0.6030000000000455,0.6030000000000455,"[""space""]",ñu,4,,,,,,,,,,,,,,,2.0,2.0,castellano,0.0,inglés,6.0,3.0,4.0,no,no,no,nada,,,,nada,58.0,yes
178,2024-02-04_19h07.14.698,Unsyncopated_study2,102,23.0,feminino,right,España,castellano,Master degree,no,no,B,2,conjunction_un,L2,unsyncopated,s2,r2,42,Online_conjL2_un//d.si.ñu17.1110.0.wav,ñu,bi,te,sil,fe,si,me,sil1,ra,ba,sil2,['catch'],[0.5589999999999691],[0.5589999999999691],0.0,beat,0.5589999999999691,0.5589999999999691,"[""space""]",ñu,4,,,,,,,,,,,,,,,2.0,2.0,castellano,0.0,inglés,6.0,3.0,4.0,no,no,no,nada,,,,nada,58.0,yes
179,2024-02-04_19h07.14.698,Unsyncopated_study2,102,23.0,feminino,right,España,castellano,Master degree,no,no,B,2,conjunction_un,L2,unsyncopated,s2,r1,43,Online_conjL2_un//d.si.ñu16.1110.222.wav,te,ñu,mi,sil,go,si,to,sil1,du,me,sil2,['catch'],[0.9580000000000837],[0.9580000000000837],0.222,no_beat,0.7360000000000837,0.7360000000000837,"[""space""]",ñu,4,,,,,,,,,,,,,,,2.0,2.0,castellano,0.0,inglés,6.0,3.0,4.0,no,no,no,nada,,,,nada,58.0,yes
180,2024-02-04_19h07.14.698,Unsyncopated_study2,102,23.0,feminino,right,España,castellano,Master degree,no,no,B,2,conjunction_un,L2,unsyncopated,s1,r2,44,Online_conjL2_un//c.cha.me8.444.1332.wav,fe,bi,cha,sil,ra,ñi,me,sil1,te,si,sil2,['catch'],[1.84699999999998],[1.84699999999998],1.332,no_beat,0.5149999999999799,0.5149999999999799,"[""space""]",me,3,,,,,,,,,,,,,,,2.0,2.0,castellano,0.0,inglés,6.0,3.0,4.0,no,no,no,nada,,,,nada,58.0,yes
181,2024-02-04_19h07.14.698,Unsyncopated_study2,102,23.0,feminino,right,España,castellano,Master degree,no,no,B,2,conjunction_un,L2,unsyncopated,s1,r1,45,Online_conjL2_un//c.cha.me11.none.none.wav,go,su,ñu,sil,du,ñi,mi,sil1,ba,to,sil2,['-'],,,none,none,,,,me,3,,,,,,,,,,,,,,,2.0,2.0,castellano,0.0,inglés,6.0,3.0,4.0,no,no,no,nada,,,,nada,58.0,yes
182,2024-02-04_19h07.14.698,Unsyncopated_study2,102,23.0,feminino,right,España,castellano,Master degree,no,no,B,2,conjunction_un,L2,unsyncopated,s2,r2,46,Online_conjL2_un//c.cha.me10.0.222.wav,cha,me,mi,sil,fe,su,si,sil1,ra,ba,sil2,['catch'],[0.7270000000000891],[0.7270000000000891],0.222,no_beat,0.5050000000000892,0.5050000000000892,"[""space""]",me,3,,,,,,,,,,,,,,,2.0,2.0,castellano,0.0,inglés,6.0,3.0,4.0,no,no,no,nada,,,,nada,58.0,yes
183,2024-02-04_19h07.14.698,Unsyncopated_study2,102,23.0,feminino,right,España,castellano,Master degree,no,no,B,2,conjunction_un,L2,unsyncopated,s1,r1,47,Online_conjL2_un//c.cha.me9.none.none.wav,go,to,ñi,sil,du,mi,ñu,sil1,bi,su,sil2,['-'],,,none,none,,,,me,3,,,,,,,,,,,,,,,2.0,2.0,castellano,0.0,inglés,6.0,3.0,4.0,no,no,no,nada,,,,nada,58.0,yes
184,2024-02-04_19h07.14.698,Unsyncopated_study2,102,23.0,feminino,right,España,castellano,Master degree,no,no,B,2,conjunction_un,L2,unsyncopated,s2,r1,48,Online_conjL2_un//d.si.ñu15.none.none.wav,su,mi,bi,sil,go,me,ba,sil1,du,te,sil2,['-'],,,none,none,,,,ñu,4,,,,,,,,,,,,,,,2.0,2.0,castellano,0.0,inglés,6.0,3.0,4.0,no,no,no,nada,,,,nada,58.0,yes
185,2024-02-04_19h07.14.698,Unsyncopated_study2,102,23.0,feminino,right,España,castellano,Master degree,no,no,B,2,conjunction_un,L2,unsyncopated,s2,r2,49,Online_conjL2_un//d.si.ñu13.0.1110.wav,si,su,ba,sil,fe,ñu,ñi,sil1,ra,mi,sil2,['catch'],[1.7419999999999618],[1.7419999999999618],1.11,no_beat,0.6319999999999617,0.6319999999999617,"[""space""]",ñu,4,,,,,,,,,,,,,,,2.0,2.0,castellano,0.0,inglés,6.0,3.0,4.0,no,no,no,nada,,,,nada,58.0,yes
186,2024-02-04_19h07.14.698,Unsyncopated_study2,102,23.0,feminino,right,España,castellano,Master degree,no,no,B,2,conjunction_un,L2,unsyncopated,s1,r2,50,Online_conjL2_un//d.si.ñu14.1110.222.wav,fe,ñu,ñi,sil,ra,si,ba,sil1,te,su,sil2,"['catch', 'false alarm']","[0.6759999999999309, 0.8930000000000291]",[0.6759999999999309],0.222,no_beat,0.4539999999999309,0.4539999999999309,"[""space"",""space""]",ñu,4,,,,,,,,,,,,,,,2.0,2.0,castellano,0.0,inglés,6.0,3.0,4.0,no,no,no,nada,,,,nada,58.0,yes
187,2024-02-04_19h07.14.698,Unsyncopated_study2,102,23.0,feminino,right,España,castellano,Master degree,no,no,B,2,conjunction_un,L2,unsyncopated,s2,r1,51,Online_conjL2_un//d.si.ñu12.none.none.wav,ba,bi,mi,sil,go,to,cha,sil1,du,te,sil2,['-'],,,none,none,,,,ñu,4,,,,,,,,,,,,,,,2.0,2.0,castellano,0.0,inglés,6.0,3.0,4.0,no,no,no,nada,,,,nada,58.0,yes
188,2024-02-04_19h07.14.698,Unsyncopated_study2,102,23.0,feminino,right,España,castellano,Master degree,no,no,B,2,conjunction_un,L2,unsyncopated,s1,r1,52,Online_conjL2_un//a.go.du10.0.888.wav,go,bi,ñi,sil,du,si,te,sil1,ñu,su,sil2,['catch'],[0.6649999999999636],[0.6649999999999636],0.0,beat,0.6649999999999636,0.6649999999999636,"[""space""]",go,1,,,,,,,,,,,,,,,2.0,2.0,castellano,0.0,inglés,6.0,3.0,4.0,no,no,no,nada,,,,nada,58.0,yes
189,2024-02-04_19h07.14.698,Unsyncopated_study2,102,23.0,feminino,right,España,castellano,Master degree,no,no,B,2,conjunction_un,L2,unsyncopated,s2,r1,53,Online_conjL2_un//a.go.du9.888.1776.wav,mi,bi,cha,sil,go,ñu,si,sil1,du,to,sil2,['catch'],[1.4069999999999254],[1.4069999999999254],0.888,beat,0.5189999999999254,0.5189999999999254,"[""space""]",go,1,,,,,,,,,,,,,,,2.0,2.0,castellano,0.0,inglés,6.0,3.0,4.0,no,no,no,nada,,,,nada,58.0,yes
190,2024-02-04_19h07.14.698,Unsyncopated_study2,102,23.0,feminino,right,España,castellano,Master degree,no,no,B,2,conjunction_un,L2,unsyncopated,s2,r1,54,Online_conjL2_un//a.go.du11.888.1776.wav,si,ba,ñu,sil,go,ñi,mi,sil1,du,te,sil2,['catch'],[1.4939999999999145],[1.4939999999999145],0.888,beat,0.6059999999999145,0.6059999999999145,"[""space""]",go,1,,,,,,,,,,,,,,,2.0,2.0,castellano,0.0,inglés,6.0,3.0,4.0,no,no,no,nada,,,,nada,58.0,yes
191,2024-02-04_19h07.14.698,Unsyncopated_study2,102,23.0,feminino,right,España,castellano,Master degree,no,no,B,2,conjunction_un,L2,unsyncopated,s1,r2,55,Online_conjL2_un//a.go.du8.none.none.wav,fe,to,ñi,sil,ra,ba,cha,sil1,ñu,bi,sil2,['-'],,,none,none,,,,go,1,,,,,,,,,,,,,,,2.0,2.0,castellano,0.0,inglés,6.0,3.0,4.0,no,no,no,nada,,,,nada,58.0,yes
192,2024-02-04_19h07.14.698,Unsyncopated_study2,102,23.0,feminino,right,España,castellano,Master degree,no,no,B,2,conjunction_un,L2,unsyncopated,s1,r2,56,Online_conjL2_un//c.cha.me27.1776.444.wav,fe,bi,me,sil,ra,mi,ba,sil1,cha,ñu,sil2,['catch'],[0.9670000000000982],[0.9670000000000982],0.444,no_beat,0.5230000000000983,0.5230000000000983,"[""space""]",me,3,,,,,,,,,,,,,,,2.0,2.0,castellano,0.0,inglés,6.0,3.0,4.0,no,no,no,nada,,,,nada,58.0,yes
193,2024-02-04_19h07.14.698,Unsyncopated_study2,102,23.0,feminino,right,España,castellano,Master degree,no,no,B,2,conjunction_un,L2,unsyncopated,s1,r2,57,Online_conjL2_un//c.cha.me25.none.none.wav,fe,ñu,ba,sil,ra,ñi,si,sil1,te,su,sil2,['-'],,,none,none,,,,me,3,,,,,,,,,,,,,,,2.0,2.0,castellano,0.0,inglés,6.0,3.0,4.0,no,no,no,nada,,,,nada,58.0,yes
194,2024-02-04_19h07.14.698,Unsyncopated_study2,102,23.0,feminino,right,España,castellano,Master degree,no,no,B,2,conjunction_un,L2,unsyncopated,s2,r1,58,Online_conjL2_un//c.cha.me24.444.0.wav,me,ba,cha,sil,go,su,bi,sil1,du,ñu,sil2,['catch'],[0.49700000000007094],[0.49700000000007094],0.0,beat,0.4970000000000709,0.4970000000000709,"[""space""]",me,3,,,,,,,,,,,,,,,2.0,2.0,castellano,0.0,inglés,6.0,3.0,4.0,no,no,no,nada,,,,nada,58.0,yes
195,2024-02-04_19h07.14.698,Unsyncopated_study2,102,23.0,feminino,right,España,castellano,Master degree,no,no,B,2,conjunction_un,L2,unsyncopated,s2,r1,59,Online_conjL2_un//c.cha.me26.none.none.wav,to,si,ba,sil,go,ñi,ñu,sil1,du,bi,sil2,['-'],,,none,none,,,,me,3,,,,,,,,,,,,,,,2.0,2.0,castellano,0.0,inglés,6.0,3.0,4.0,no,no,no,nada,,,,nada,58.0,yes
196,2024-02-04_19h07.14.698,Unsyncopated_study2,102,23.0,feminino,right,España,castellano,Master degree,no,no,B,2,conjunction_un,L2,unsyncopated,s2,r1,60,Online_conjL2_un//b.fe.ra13.none.none.wav,ñu,bi,su,sil,go,mi,ba,sil1,du,cha,sil2,['-'],,,none,none,,,,ra,2,,,,,,,,,,,,,,,2.0,2.0,castellano,0.0,inglés,6.0,3.0,4.0,no,no,no,nada,,,,nada,58.0,yes
197,2024-02-04_19h07.14.698,Unsyncopated_study2,102,23.0,feminino,right,España,castellano,Master degree,no,no,B,2,conjunction_un,L2,unsyncopated,s1,r2,61,Online_conjL2_un//b.fe.ra14.0.888.wav,fe,si,ñu,sil,ra,mi,to,sil1,me,bi,sil2,['catch'],[1.3599999999999],[1.3599999999999],0.888,beat,0.4719999999998999,0.4719999999998999,"[""space""]",ra,2,,,,,,,,,,,,,,,2.0,2.0,castellano,0.0,inglés,6.0,3.0,4.0,no,no,no,nada,,,,nada,58.0,yes
198,2024-02-04_19h07.14.698,Unsyncopated_study2,102,23.0,feminino,right,España,castellano,Master degree,no,no,B,2,conjunction_un,L2,unsyncopated,s1,r1,62,Online_conjL2_un//b.fe.ra12.none.none.wav,go,ñi,ba,sil,du,me,si,sil1,cha,to,sil2,['-'],,,none,none,,,,ra,2,,,,,,,,,,,,,,,2.0,2.0,castellano,0.0,inglés,6.0,3.0,4.0,no,no,no,nada,,,,nada,58.0,yes
199,2024-02-04_19h07.14.698,Unsyncopated_study2,102,23.0,feminino,right,España,castellano,Master degree,no,no,B,2,conjunction_un,L2,unsyncopated,s2,r2,63,Online_conjL2_un//b.fe.ra15.888.1776.wav,si,me,to,sil,fe,su,ba,sil1,ra,bi,sil2,['catch'],[2.3239999999998417],[2.3239999999998417],1.776,beat,0.5479999999998417,0.5479999999998417,"[""space""]",ra,2,,,,,,,,,,,,,,,2.0,2.0,castellano,0.0,inglés,6.0,3.0,4.0,no,no,no,nada,,,,nada,58.0,yes
200,2024-02-04_19h07.14.698,Unsyncopated_study2,102,23.0,feminino,right,España,castellano,Master degree,no,no,B,2,conjunction_un,L2,unsyncopated,s1,r2,64,Online_conjL2_un//d.si.ñu29.1332.444.wav,fe,mi,ñu,sil,ra,su,si,sil1,ñi,cha,sil2,['catch'],[1.0160000000000764],[1.0160000000000764],0.444,no_beat,0.5720000000000764,0.5720000000000764,"[""space""]",ñu,4,,,,,,,,,,,,,,,2.0,2.0,castellano,0.0,inglés,6.0,3.0,4.0,no,no,no,nada,,,,nada,58.0,yes
201,2024-02-04_19h07.14.698,Unsyncopated_study2,102,23.0,feminino,right,España,castellano,Master degree,no,no,B,2,conjunction_un,L2,unsyncopated,s2,r1,65,Online_conjL2_un//d.si.ñu30.1332.222.wav,ba,ñu,ñi,sil,go,mi,si,sil1,du,cha,sil2,['miss'],,,0.222,no_beat,,,,ñu,4,,,,,,,,,,,,,,,2.0,2.0,castellano,0.0,inglés,6.0,3.0,4.0,no,no,no,nada,,,,nada,58.0,yes
202,2024-02-04_19h07.14.698,Unsyncopated_study2,102,23.0,feminino,right,España,castellano,Master degree,no,no,B,2,conjunction_un,L2,unsyncopated,s1,r1,66,Online_conjL2_un//d.si.ñu28.none.none.wav,go,me,su,sil,du,te,to,sil1,bi,ba,sil2,['-'],,,none,none,,,,ñu,4,,,,,,,,,,,,,,,2.0,2.0,castellano,0.0,inglés,6.0,3.0,4.0,no,no,no,nada,,,,nada,58.0,yes
203,2024-02-04_19h07.14.698,Unsyncopated_study2,102,23.0,feminino,right,España,castellano,Master degree,no,no,B,2,conjunction_un,L2,unsyncopated,s2,r2,67,Online_conjL2_un//d.si.ñu31.none.none.wav,su,ñi,to,sil,fe,me,ba,sil1,ra,te,sil2,['false alarm'],[1.125],[1.125],none,none,,,"[""space""]",ñu,4,,,,,,,,,,,,,,,2.0,2.0,castellano,0.0,inglés,6.0,3.0,4.0,no,no,no,nada,,,,nada,58.0,yes
204,2024-02-04_19h07.14.698,Unsyncopated_study2,102,23.0,feminino,right,España,castellano,Master degree,no,no,B,2,conjunction_un,L2,unsyncopated,s1,r1,68,Online_conjL2_un//c.cha.me12.1332.222.wav,go,me,si,sil,du,ñu,cha,sil1,ñi,bi,sil2,['catch'],[0.8210000000001401],[0.8210000000001401],0.222,no_beat,0.5990000000001401,0.5990000000001401,"[""space""]",me,3,,,,,,,,,,,,,,,2.0,2.0,castellano,0.0,inglés,6.0,3.0,4.0,no,no,no,nada,,,,nada,58.0,yes
205,2024-02-04_19h07.14.698,Unsyncopated_study2,102,23.0,feminino,right,España,castellano,Master degree,no,no,B,2,conjunction_un,L2,unsyncopated,s2,r1,69,Online_conjL2_un//c.cha.me15.444.1110.wav,mi,ba,cha,sil,go,me,si,sil1,du,te,sil2,['catch'],[1.7429999999999382],[1.7429999999999382],1.11,no_beat,0.6329999999999381,0.6329999999999381,"[""space""]",me,3,,,,,,,,,,,,,,,2.0,2.0,castellano,0.0,inglés,6.0,3.0,4.0,no,no,no,nada,,,,nada,58.0,yes
206,2024-02-04_19h07.14.698,Unsyncopated_study2,102,23.0,feminino,right,España,castellano,Master degree,no,no,B,2,conjunction_un,L2,unsyncopated,s1,r2,70,Online_conjL2_un//c.cha.me14.none.none.wav,fe,mi,su,sil,ra,si,ba,sil1,te,ñi,sil2,['-'],,,none,none,,,,me,3,,,,,,,,,,,,,,,2.0,2.0,castellano,0.0,inglés,6.0,3.0,4.0,no,no,no,nada,,,,nada,58.0,yes
207,2024-02-04_19h07.14.698,Unsyncopated_study2,102,23.0,feminino,right,España,castellano,Master degree,no,no,B,2,conjunction_un,L2,unsyncopated,s1,r1,71,Online_conjL2_un//c.cha.me13.none.none.wav,go,bi,su,sil,du,si,te,sil1,mi,ñu,sil2,['-'],,,none,none,,,,me,3,,,,,,,,,,,,,,,2.0,2.0,castellano,0.0,inglés,6.0,3.0,4.0,no,no,no,nada,,,,nada,58.0,yes
208,2024-02-04_19h07.14.698,Unsyncopated_study2,102,23.0,feminino,right,España,castellano,Master degree,no,no,B,2,conjunction_un,L2,unsyncopated,s2,r2,72,Online_conjL2_un//c.cha.me6.0.222.wav,cha,me,si,sil,fe,ba,te,sil1,ra,to,sil2,['catch'],[0.7619999999999436],[0.7619999999999436],0.222,no_beat,0.5399999999999436,0.5399999999999436,"[""space""]",me,3,,,,,,,,,,,,,,,2.0,2.0,castellano,0.0,inglés,6.0,3.0,4.0,no,no,no,nada,,,,nada,58.0,yes
209,2024-02-04_19h07.14.698,Unsyncopated_study2,102,23.0,feminino,right,España,castellano,Master degree,no,no,B,2,conjunction_un,L2,unsyncopated,s2,r1,73,Online_conjL2_un//c.cha.me5.1332.0.wav,me,ñi,mi,sil,go,to,cha,sil1,du,su,sil2,['catch'],[1.3279999999999745],[1.3279999999999745],0.0,beat,,1.3279999999999743,"[""space""]",me,3,,,,,,,,,,,,,,,2.0,2.0,castellano,0.0,inglés,6.0,3.0,4.0,no,no,no,nada,,,,nada,58.0,yes
210,2024-02-04_19h07.14.698,Unsyncopated_study2,102,23.0,feminino,right,España,castellano,Master degree,no,no,B,2,conjunction_un,L2,unsyncopated,s1,r2,74,Online_conjL2_un//c.cha.me7.none.none.wav,fe,su,si,sil,ra,te,mi,sil1,ba,to,sil2,['-'],,,none,none,,,,me,3,,,,,,,,,,,,,,,2.0,2.0,castellano,0.0,inglés,6.0,3.0,4.0,no,no,no,nada,,,,nada,58.0,yes
211,2024-02-04_19h07.14.698,Unsyncopated_study2,102,23.0,feminino,right,España,castellano,Master degree,no,no,B,2,conjunction_un,L2,unsyncopated,s2,r2,75,Online_conjL2_un//c.cha.me4.none.none.wav,mi,ñu,su,sil,fe,bi,to,sil1,ra,ñi,sil2,['-'],,,none,none,,,,me,3,,,,,,,,,,,,,,,2.0,2.0,castellano,0.0,inglés,6.0,3.0,4.0,no,no,no,nada,,,,nada,58.0,yes
212,2024-02-04_19h07.14.698,Unsyncopated_study2,102,23.0,feminino,right,España,castellano,Master degree,no,no,B,2,conjunction_un,L2,unsyncopated,s2,r1,76,Online_conjL2_un//b.fe.ra8.none.none.wav,si,to,mi,sil,go,cha,me,sil1,du,bi,sil2,['-'],,,none,none,,,,ra,2,,,,,,,,,,,,,,,2.0,2.0,castellano,0.0,inglés,6.0,3.0,4.0,no,no,no,nada,,,,nada,58.0,yes
213,2024-02-04_19h07.14.698,Unsyncopated_study2,102,23.0,feminino,right,España,castellano,Master degree,no,no,B,2,conjunction_un,L2,unsyncopated,s1,r2,77,Online_conjL2_un//b.fe.ra11.0.888.wav,fe,bi,mi,sil,ra,te,su,sil1,cha,ba,sil2,['catch'],[1.4049999999999727],[1.4049999999999727],0.888,beat,0.5169999999999727,0.5169999999999727,"[""space""]",ra,2,,,,,,,,,,,,,,,2.0,2.0,castellano,0.0,inglés,6.0,3.0,4.0,no,no,no,nada,,,,nada,58.0,yes
214,2024-02-04_19h07.14.698,Unsyncopated_study2,102,23.0,feminino,right,España,castellano,Master degree,no,no,B,2,conjunction_un,L2,unsyncopated,s1,r2,78,Online_conjL2_un//b.fe.ra9.0.888.wav,fe,ñu,cha,sil,ra,to,bi,sil1,te,ba,sil2,['catch'],[2.0240000000001146],[2.0240000000001146],0.888,beat,1.1360000000001147,1.1360000000001147,"[""space""]",ra,2,,,,,,,,,,,,,,,2.0,2.0,castellano,0.0,inglés,6.0,3.0,4.0,no,no,no,nada,,,,nada,58.0,yes
215,2024-02-04_19h07.14.698,Unsyncopated_study2,102,23.0,feminino,right,España,castellano,Master degree,no,no,B,2,conjunction_un,L2,unsyncopated,s1,r2,79,Online_conjL2_un//b.fe.ra10.0.888.wav,fe,ñu,cha,sil,ra,mi,bi,sil1,me,si,sil2,['miss'],,,0.888,beat,,,,ra,2,,,,,,,,,,,,,,,2.0,2.0,castellano,0.0,inglés,6.0,3.0,4.0,no,no,no,nada,,,,nada,58.0,yes
216,2024-02-04_19h07.14.698,Unsyncopated_study2,102,23.0,feminino,right,España,castellano,Master degree,no,no,B,2,conjunction_un,L2,unsyncopated,s1,r1,80,Online_conjL2_un//d.si.ñu4.1332.444.wav,go,me,ñu,sil,du,cha,si,sil1,bi,to,sil2,['catch'],[0.9139999999999873],[0.9139999999999873],0.444,no_beat,0.4699999999999872,0.4699999999999872,"[""space""]",ñu,4,,,,,,,,,,,,,,,2.0,2.0,castellano,0.0,inglés,6.0,3.0,4.0,no,no,no,nada,,,,nada,58.0,yes
217,2024-02-04_19h07.14.698,Unsyncopated_study2,102,23.0,feminino,right,España,castellano,Master degree,no,no,B,2,conjunction_un,L2,unsyncopated,s2,r2,81,Online_conjL2_un//d.si.ñu5.none.none.wav,bi,ñi,mi,sil,fe,te,ba,sil1,ra,to,sil2,['-'],,,none,none,,,,ñu,4,,,,,,,,,,,,,,,2.0,2.0,castellano,0.0,inglés,6.0,3.0,4.0,no,no,no,nada,,,,nada,58.0,yes
218,2024-02-04_19h07.14.698,Unsyncopated_study2,102,23.0,feminino,right,España,castellano,Master degree,no,no,B,2,conjunction_un,L2,unsyncopated,s1,r1,82,Online_conjL2_un//d.si.ñu7.none.none.wav,go,ñi,mi,sil,du,te,ba,sil1,su,to,sil2,['-'],,,none,none,,,,ñu,4,,,,,,,,,,,,,,,2.0,2.0,castellano,0.0,inglés,6.0,3.0,4.0,no,no,no,nada,,,,nada,58.0,yes
219,2024-02-04_19h07.14.698,Unsyncopated_study2,102,23.0,feminino,right,España,castellano,Master degree,no,no,B,2,conjunction_un,L2,unsyncopated,s1,r1,83,Online_conjL2_un//d.si.ñu6.444.1110.wav,go,cha,si,sil,du,ñu,ba,sil1,me,to,sil2,['catch'],[1.6620000000000346],[1.6620000000000346],1.11,no_beat,0.5520000000000345,0.5520000000000345,"[""space""]",ñu,4,,,,,,,,,,,,,,,2.0,2.0,castellano,0.0,inglés,6.0,3.0,4.0,no,no,no,nada,,,,nada,58.0,yes
220,2024-02-04_19h07.14.698,Unsyncopated_study2,102,23.0,feminino,right,España,castellano,Master degree,no,no,B,2,conjunction_un,L2,unsyncopated,s1,r1,84,Online_conjL2_un//c.cha.me22.222.444.wav,go,cha,me,sil,du,ñu,to,sil1,te,su,sil2,['catch'],[0.8820000000000618],[0.8820000000000618],0.444,no_beat,0.4380000000000618,0.4380000000000618,"[""space""]",me,3,,,,,,,,,,,,,,,2.0,2.0,castellano,0.0,inglés,6.0,3.0,4.0,no,no,no,nada,,,,nada,58.0,yes
221,2024-02-04_19h07.14.698,Unsyncopated_study2,102,23.0,feminino,right,España,castellano,Master degree,no,no,B,2,conjunction_un,L2,unsyncopated,s1,r2,85,Online_conjL2_un//c.cha.me21.1332.444.wav,fe,su,me,sil,ra,si,cha,sil1,ñi,ba,sil2,['catch'],[0.875],[0.875],0.444,no_beat,0.431,0.431,"[""space""]",me,3,,,,,,,,,,,,,,,2.0,2.0,castellano,0.0,inglés,6.0,3.0,4.0,no,no,no,nada,,,,nada,58.0,yes
222,2024-02-04_19h07.14.698,Unsyncopated_study2,102,23.0,feminino,right,España,castellano,Master degree,no,no,B,2,conjunction_un,L2,unsyncopated,s2,r1,86,Online_conjL2_un//c.cha.me20.none.none.wav,ñu,su,ñi,sil,go,to,si,sil1,du,ba,sil2,['-'],,,none,none,,,,me,3,,,,,,,,,,,,,,,2.0,2.0,castellano,0.0,inglés,6.0,3.0,4.0,no,no,no,nada,,,,nada,58.0,yes
223,2024-02-04_19h07.14.698,Unsyncopated_study2,102,23.0,feminino,right,España,castellano,Master degree,no,no,B,2,conjunction_un,L2,unsyncopated,s2,r2,87,Online_conjL2_un//c.cha.me23.222.444.wav,su,cha,me,sil,fe,mi,to,sil1,ra,ñu,sil2,['catch'],[0.9110000000000582],[0.9110000000000582],0.444,no_beat,0.4670000000000582,0.4670000000000582,"[""space""]",me,3,,,,,,,,,,,,,,,2.0,2.0,castellano,0.0,inglés,6.0,3.0,4.0,no,no,no,nada,,,,nada,58.0,yes
224,2024-02-04_19h07.14.698,Unsyncopated_study2,102,23.0,feminino,right,España,castellano,Master degree,no,no,B,2,conjunction_un,L2,unsyncopated,s1,r1,88,Online_conjL2_un//a.go.du14.0.888.wav,go,su,to,sil,du,te,ba,sil1,ñi,me,sil2,['catch'],[0.8149999999998272],[0.8149999999998272],0.0,beat,0.8149999999998272,0.8149999999998272,"[""space""]",go,1,,,,,,,,,,,,,,,2.0,2.0,castellano,0.0,inglés,6.0,3.0,4.0,no,no,no,nada,,,,nada,58.0,yes
225,2024-02-04_19h07.14.698,Unsyncopated_study2,102,23.0,feminino,right,España,castellano,Master degree,no,no,B,2,conjunction_un,L2,unsyncopated,s2,r2,89,Online_conjL2_un//a.go.du12.none.none.wav,bi,su,mi,sil,fe,ñi,te,sil1,ra,si,sil2,['-'],,,none,none,,,,go,1,,,,,,,,,,,,,,,2.0,2.0,castellano,0.0,inglés,6.0,3.0,4.0,no,no,no,nada,,,,nada,58.0,yes
226,2024-02-04_19h07.14.698,Unsyncopated_study2,102,23.0,feminino,right,España,castellano,Master degree,no,no,B,2,conjunction_un,L2,unsyncopated,s2,r2,90,Online_conjL2_un//a.go.du15.none.none.wav,me,mi,ñu,sil,fe,si,ñi,sil1,ra,su,sil2,['-'],,,none,none,,,,go,1,,,,,,,,,,,,,,,2.0,2.0,castellano,0.0,inglés,6.0,3.0,4.0,no,no,no,nada,,,,nada,58.0,yes
227,2024-02-04_19h07.14.698,Unsyncopated_study2,102,23.0,feminino,right,España,castellano,Master degree,no,no,B,2,conjunction_un,L2,unsyncopated,s2,r1,91,Online_conjL2_un//a.go.du13.888.1776.wav,mi,bi,ba,sil,go,ñu,to,sil1,du,te,sil2,['catch'],[1.3619999999998527],[1.3619999999998527],0.888,beat,0.4739999999998526,0.4739999999998526,"[""space""]",go,1,,,,,,,,,,,,,,,2.0,2.0,castellano,0.0,inglés,6.0,3.0,4.0,no,no,no,nada,,,,nada,58.0,yes
228,2024-02-04_19h07.14.698,Unsyncopated_study2,102,23.0,feminino,right,España,castellano,Master degree,no,no,B,2,conjunction_un,L2,unsyncopated,s2,r2,92,Online_conjL2_un//b.fe.ra31.888.1776.wav,ñu,to,me,sil,fe,cha,mi,sil1,ra,ba,sil2,['catch'],[2.1879999999998745],[2.1879999999998745],1.776,beat,0.4119999999998744,0.4119999999998744,"[""space""]",ra,2,,,,,,,,,,,,,,,2.0,2.0,castellano,0.0,inglés,6.0,3.0,4.0,no,no,no,nada,,,,nada,58.0,yes
229,2024-02-04_19h07.14.698,Unsyncopated_study2,102,23.0,feminino,right,España,castellano,Master degree,no,no,B,2,conjunction_un,L2,unsyncopated,s2,r1,93,Online_conjL2_un//b.fe.ra28.none.none.wav,me,cha,mi,sil,go,si,ñi,sil1,du,to,sil2,['-'],,,none,none,,,,ra,2,,,,,,,,,,,,,,,2.0,2.0,castellano,0.0,inglés,6.0,3.0,4.0,no,no,no,nada,,,,nada,58.0,yes
230,2024-02-04_19h07.14.698,Unsyncopated_study2,102,23.0,feminino,right,España,castellano,Master degree,no,no,B,2,conjunction_un,L2,unsyncopated,s1,r1,94,Online_conjL2_un//b.fe.ra30.none.none.wav,go,si,cha,sil,du,ba,te,sil1,ñu,ñi,sil2,['-'],,,none,none,,,,ra,2,,,,,,,,,,,,,,,2.0,2.0,castellano,0.0,inglés,6.0,3.0,4.0,no,no,no,nada,,,,nada,58.0,yes
231,2024-02-04_19h07.14.698,Unsyncopated_study2,102,23.0,feminino,right,España,castellano,Master degree,no,no,B,2,conjunction_un,L2,unsyncopated,s1,r2,95,Online_conjL2_un//b.fe.ra29.0.888.wav,fe,ba,si,sil,ra,bi,cha,sil1,mi,ñu,sil2,['catch'],[1.3250000000000455],[1.3250000000000455],0.888,beat,0.4370000000000454,0.4370000000000454,"[""space""]",ra,2,,,,,,,,,,,,,,,2.0,2.0,castellano,0.0,inglés,6.0,3.0,4.0,no,no,no,nada,,,,nada,58.0,yes
232,2024-02-04_19h07.14.698,Unsyncopated_study2,102,23.0,feminino,right,España,castellano,Master degree,no,no,B,2,conjunction_un,L2,unsyncopated,s1,r2,96,Online_conjL2_un//b.fe.ra17.0.888.wav,fe,cha,mi,sil,ra,si,su,sil1,ba,ñi,sil2,['catch'],[1.3820000000000618],[1.3820000000000618],0.888,beat,0.4940000000000618,0.4940000000000618,"[""space""]",ra,2,,,,,,,,,,,,,,,2.0,2.0,castellano,0.0,inglés,6.0,3.0,4.0,no,no,no,nada,,,,nada,58.0,yes
233,2024-02-04_19h07.14.698,Unsyncopated_study2,102,23.0,feminino,right,España,castellano,Master degree,no,no,B,2,conjunction_un,L2,unsyncopated,s1,r2,97,Online_conjL2_un//b.fe.ra16.0.888.wav,fe,ñi,mi,sil,ra,bi,su,sil1,ñu,me,sil2,['catch'],[1.4079999999999018],[1.4079999999999018],0.888,beat,0.5199999999999018,0.5199999999999018,"[""space""]",ra,2,,,,,,,,,,,,,,,2.0,2.0,castellano,0.0,inglés,6.0,3.0,4.0,no,no,no,nada,,,,nada,58.0,yes
