Unnamed: 0,date,expName,participant,age,sex,hand,residence,native_lang,education_level,lang_deficit,aud_deficit,group,block,condition,language,rhythm,rule structure online,rule type online,order_trial_on,trial_online,s1,s2,s3,s4,s5,s6,s7,s8,s9,s10,s11,catch_syll_resp,rts_syll_catch,clean_rts,time_syll,beat_no_beat,catch_rtsTR,catch_rts,syllable_catch.keys,cond_syll,syll_to_catch,test_offline,block_off,condition_off,rhythm_off,rule,rule_str_off,rule_norule,conds_offline,language_off,Partz_no_partm.keys,Partz_no_partm.rt,security_1_7.keys,accuracy,security_1_7.rt,n_lang,n_lang_used,lang_1,age_l1,lang_2,age_l2,ability_learn_l2,tendence_mix_lan,music_experience,muisc_use,partiture,instr_1,age_M1,age_M5,preguntas_musica1,BMRQ_answer.response,final comment,BMRQ_Score,bilingual
0,2024-04-24_10h51.51.516,Experiment4_uns,s168,30.0,masculino,right,España,Español,Other,no,no,B,1,what,L1,unsyncopated,s1,r2,0,Online_whatL1//b.ta.be12.0.888.wav,ta,fo,lu,sil,be,zu,fa,sil2,cho,ne,sil1,['catch'],[1.38069999998811],[1.38069999998811],0.888,beat,0.49269999998811,0.49269999998811,"[""space""]",be,2,testWhatL1Uns//r2.s2.0.wav,1.0,what,unsyncopated,b,s2,rule,rule,L1,z,5.7565,4.0,1.0,8.4396,2.0,1.0,Catalán,7.0,Inglés,11.0,4.0,2.0,no,no,no,nada,, ,1. Cuando comparto música con alguien siento una complicidad especial con aquella persona.,3.0,nada,65.0,yes
1,2024-04-24_10h51.51.516,Experiment4_uns,s168,30.0,masculino,right,España,Español,Other,no,no,B,1,what,L1,unsyncopated,s2,r1,1,Online_whatL1//b.ta.be14.none.none.wav,cho,zu,fo,sil2,pu,ne,ri,sil,ki,ni,sil1,['-'],,,none,none,,,,be,2,testWhatL1Uns//r1.s1.1.wav,1.0,what,unsyncopated,a,s1,rule,rule,L1,z,2.6711,4.0,1.0,1.0508,2.0,1.0,Catalán,7.0,Inglés,11.0,4.0,2.0,no,no,no,nada,, ,2. En mi tiempo libre apenas escucho música.,5.0,nada,65.0,yes
2,2024-04-24_10h51.51.516,Experiment4_uns,s168,30.0,masculino,right,España,Español,Other,no,no,B,1,what,L1,unsyncopated,s1,r1,2,Online_whatL1//b.ta.be15.none.none.wav,pu,ne,lu,sil2,ki,fo,la,sil,fa,ze,sil1,['-'],,,none,none,,,,be,2,testWhatL1Uns//dep_viol.r1.s1.0.wav,1.0,what,unsyncopated,a,s1,no_rule,dep,L1,z,1.9091,7.0,0.0,3.2936,2.0,1.0,Catalán,7.0,Inglés,11.0,4.0,2.0,no,no,no,nada,, ,3. Algunas canciones me ponen los pelos de punta,3.0,nada,65.0,yes
3,2024-04-24_10h51.51.516,Experiment4_uns,s168,30.0,masculino,right,España,Español,Other,no,no,B,1,what,L1,unsyncopated,s2,r2,3,Online_whatL1//b.ta.be13.888.1998.wav,cho,fa,ro,sil,ta,lu,zu,sil2,be,fo,sil1,['catch_delay'],[0.6978000000119129],[0.6978000000119129],1.998,no_beat,0.6978000000119129,0.6978000000119129,,be,2,testWhatL1Uns//dep_viol.r1.s2.0.wav,1.0,what,unsyncopated,a,s2,no_rule,dep,L1,z,1.1332,7.0,0.0,0.5335,2.0,1.0,Catalán,7.0,Inglés,11.0,4.0,2.0,no,no,no,nada,, ,4. La música me hace compañía cuando estoy solo,4.0,nada,65.0,yes
4,2024-04-24_10h51.51.516,Experiment4_uns,s168,30.0,masculino,right,España,Español,Other,no,no,B,1,what,L1,unsyncopated,s2,r1,4,Online_whatL1//a.pu.ki10.888.1776.wav,ni,la,lu,sil,pu,zu,ze,sil1,ki,ne,sil2,['catch'],"[0.031800000011912744, 1.8159999999999172]",[1.8159999999999172],0.888,beat,0.9279999999999172,0.9279999999999172,"[""space"",""space""]",pu,1,testWhatL1Uns//r1.s2.2.wav,1.0,what,unsyncopated,a,s2,rule,rule,L1,m,6.466,2.0,0.0,2.6011,2.0,1.0,Catalán,7.0,Inglés,11.0,4.0,2.0,no,no,no,nada,, ,5. No me apetece bailar ni con la música que más me gusta,5.0,nada,65.0,yes
5,2024-04-24_10h51.51.516,Experiment4_uns,s168,30.0,masculino,right,España,Español,Other,no,no,B,1,what,L1,unsyncopated,s1,r2,5,Online_whatL1//a.pu.ki11.none.none.wav,ta,lu,ri,sil,be,la,fa,sil1,ne,ze,sil2,['-'],,,none,none,,,,pu,1,testWhatL1Uns//cat_viol.r1.s1.0.wav,1.0,what,unsyncopated,a,s1,no_rule,cat,L1,m,5.0506,2.0,1.0,0.4254,2.0,1.0,Catalán,7.0,Inglés,11.0,4.0,2.0,no,no,no,nada,, ,6. La música me hace conectar con la gente,4.0,nada,65.0,yes
6,2024-04-24_10h51.51.516,Experiment4_uns,s168,30.0,masculino,right,España,Español,Other,no,no,B,1,what,L1,unsyncopated,s1,r2,6,Online_whatL1//a.pu.ki9.none.none.wav,ta,ne,la,sil2,be,zu,ze,sil,fo,lu,sil1,['-'],,,none,none,,,,pu,1,testWhatL1Uns//r1.s1.2.wav,1.0,what,unsyncopated,a,s1,rule,rule,L1,z,1.0345,7.0,1.0,0.8842,2.0,1.0,Catalán,7.0,Inglés,11.0,4.0,2.0,no,no,no,nada,, ,7. Me informo sobre la música que me gusta.,4.0,nada,65.0,yes
7,2024-04-24_10h51.51.516,Experiment4_uns,s168,30.0,masculino,right,España,Español,Other,no,no,B,1,what,L1,unsyncopated,s2,r1,7,Online_whatL1//a.pu.ki8.1110.1998.wav,ri,ro,cho,sil2,pu,zu,ne,sil,ki,lu,sil1,['catch'],[1.687100000023861],[1.687100000023861],1.11,no_beat,0.5771000000238609,0.5771000000238609,"[""space""]",pu,1,testWhatL1Uns//cat_viol.r2.s1.0.wav,1.0,what,unsyncopated,b,s1,no_rule,cat,L1,z,1.3207,5.0,0.0,4.1496,2.0,1.0,Catalán,7.0,Inglés,11.0,4.0,2.0,no,no,no,nada,, ,8.Me emociono escuchando ciertas canciones.,4.0,nada,65.0,yes
8,2024-04-24_10h51.51.516,Experiment4_uns,s168,30.0,masculino,right,España,Español,Other,no,no,B,1,what,L1,unsyncopated,s2,r2,8,Online_whatL1//a.pu.ki18.none.none.wav,zu,ne,cho,sil,ta,fo,ri,sil1,be,fa,sil2,['-'],,,none,none,,,,pu,1,testWhatL1Uns//r1.s2.0.wav,1.0,what,unsyncopated,a,s2,rule,rule,L1,m,5.5995,2.0,0.0,1.8673,2.0,1.0,Catalán,7.0,Inglés,11.0,4.0,2.0,no,no,no,nada,, ,9.La música me tranquiliza y me relaja.,4.0,nada,65.0,yes
9,2024-04-24_10h51.51.516,Experiment4_uns,s168,30.0,masculino,right,España,Español,Other,no,no,B,1,what,L1,unsyncopated,s1,r1,9,Online_whatL1//a.pu.ki16.0.888.wav,pu,cho,ze,sil,ki,ri,ni,sil1,lu,fa,sil2,['catch'],[0.7323000000119464],[0.7323000000119464],0.0,beat,0.7323000000119464,0.7323000000119464,"[""space""]",pu,1,testWhatL1Uns//time_viol.r1.s2.0.wav,1.0,what,unsyncopated,a,s2,no_rule,time,L1,m,1.8504,2.0,1.0,1.1261,2.0,1.0,Catalán,7.0,Inglés,11.0,4.0,2.0,no,no,no,nada,, ,10.La música me hace bailar,4.0,nada,65.0,yes
10,2024-04-24_10h51.51.516,Experiment4_uns,s168,30.0,masculino,right,España,Español,Other,no,no,B,1,what,L1,unsyncopated,s2,r1,10,Online_whatL1//a.pu.ki19.1110.1998.wav,ne,ze,la,sil2,pu,fo,zu,sil,ki,cho,sil1,['catch'],[1.8971999999880609],[1.8971999999880609],1.11,no_beat,0.7871999999880608,0.7871999999880608,"[""space""]",pu,1,testWhatL1Uns//dep_viol.r2.s1.0.wav,1.0,what,unsyncopated,b,s1,no_rule,dep,L1,z,0.7676,6.0,0.0,2.0091,2.0,1.0,Catalán,7.0,Inglés,11.0,4.0,2.0,no,no,no,nada,, ,11.Busco novedades musicales continuamente,2.0,nada,65.0,yes
11,2024-04-24_10h51.51.516,Experiment4_uns,s168,30.0,masculino,right,España,Español,Other,no,no,B,1,what,L1,unsyncopated,s1,r1,11,Online_whatL1//a.pu.ki17.0.1110.wav,pu,ro,ni,sil2,ki,zu,la,sil,cho,ri,sil1,['miss'],,,0.0,beat,,,,pu,1,testWhatL1Uns//cat_viol.r1.s2.0.wav,1.0,what,unsyncopated,a,s2,no_rule,cat,L1,m,3.5658,2.0,1.0,1.1326,2.0,1.0,Catalán,7.0,Inglés,11.0,4.0,2.0,no,no,no,nada,, ,12. Puedo llorar cuando escucho algunas melodías que me gustan mucho.,1.0,nada,65.0,yes
12,2024-04-24_10h51.51.516,Experiment4_uns,s168,30.0,masculino,right,España,Español,Other,no,no,B,1,what,L1,unsyncopated,s1,r2,12,Online_whatL1//d.ne.ni25.1332.222.wav,ta,ni,ri,sil2,be,ne,cho,sil,lu,zu,sil1,['catch'],[1.4521000000238473],[1.4521000000238473],0.222,no_beat,,1.2301000000238471,"[""space""]",ni,4,testWhatL1Uns//r2.s1.0.wav,1.0,what,unsyncopated,b,s1,rule,rule,L1,m,3.6833,3.0,0.0,1.9893,2.0,1.0,Catalán,7.0,Inglés,11.0,4.0,2.0,no,no,no,nada,, ,13. Me gusta cantar o tocar un instrumento con más gente,2.0,nada,65.0,yes
13,2024-04-24_10h51.51.516,Experiment4_uns,s168,30.0,masculino,right,España,Español,Other,no,no,B,1,what,L1,unsyncopated,s2,r1,13,Online_whatL1//d.ne.ni26.0.444.wav,ne,lu,ni,sil,pu,ze,fa,sil1,ki,ro,sil2,['catch'],[1.10450000000003],[1.10450000000003],0.444,no_beat,0.6605000000000301,0.6605000000000301,"[""space""]",ni,4,testWhatL1Uns//r2.s1.2.wav,1.0,what,unsyncopated,b,s1,rule,rule,L1,z,0.9511,2.0,1.0,2.3678,2.0,1.0,Catalán,7.0,Inglés,11.0,4.0,2.0,no,no,no,nada,, ,14. La música me ayuda a desconectar.,4.0,nada,65.0,yes
14,2024-04-24_10h51.51.516,Experiment4_uns,s168,30.0,masculino,right,España,Español,Other,no,no,B,1,what,L1,unsyncopated,s1,r2,14,Online_whatL1//d.ne.ni27.none.none.wav,ta,ri,fa,sil2,be,cho,ro,sil,lu,la,sil1,['-'],,,none,none,,,,ni,4,testWhatL1Uns//dep_viol.r2.s2.0.wav,1.0,what,unsyncopated,b,s2,no_rule,dep,L1,z,3.5497,2.0,0.0,0.8504,2.0,1.0,Catalán,7.0,Inglés,11.0,4.0,2.0,no,no,no,nada,, ,15. No puedo evitar tararear las canciones que me gustan cuando las escucho.,4.0,nada,65.0,yes
15,2024-04-24_10h51.51.516,Experiment4_uns,s168,30.0,masculino,right,España,Español,Other,no,no,B,1,what,L1,unsyncopated,s2,r2,15,Online_whatL1//d.ne.ni24.1332.444.wav,zu,la,ni,sil,ta,ri,ne,sil2,be,fo,sil1,['catch'],[1.2919000000357528],[1.2919000000357528],0.444,no_beat,0.8479000000357528,0.8479000000357528,"[""space""]",ni,4,testWhatL1Uns//r2.s2.1.wav,1.0,what,unsyncopated,b,s2,rule,rule,L1,m,2.9505,1.0,0.0,0.2899,2.0,1.0,Catalán,7.0,Inglés,11.0,4.0,2.0,no,no,no,nada,, ,16. En los conciertos me siento en sintonía con los artistas y el público.,3.0,nada,65.0,yes
16,2024-04-24_10h51.51.516,Experiment4_uns,s168,30.0,masculino,right,España,Español,Other,no,no,B,1,what,L1,unsyncopated,s2,r1,16,Online_whatL1//d.ne.ni1.none.none.wav,ze,lu,zu,sil,pu,fa,ri,sil2,ki,la,sil1,['-'],,,none,none,,,,ni,4,testWhatL1Uns//r2.s1.1.wav,1.0,what,unsyncopated,b,s1,rule,rule,L1,z,6.649,1.0,1.0,1.1167,2.0,1.0,Catalán,7.0,Inglés,11.0,4.0,2.0,no,no,no,nada,, ,17. Me gasto bastante dinero en música y cosas relacionadas con la música.,1.0,nada,65.0,yes
17,2024-04-24_10h51.51.516,Experiment4_uns,s168,30.0,masculino,right,España,Español,Other,no,no,B,1,what,L1,unsyncopated,s2,r1,17,Online_whatL1//d.ne.ni0.0.1332.wav,ne,zu,fo,sil2,pu,ni,cho,sil,ki,ro,sil1,['catch'],[1.8571999999880973],[1.8571999999880973],1.332,no_beat,0.5251999999880972,0.5251999999880972,"[""space""]",ni,4,testWhatL1Uns//r2.s2.2.wav,1.0,what,unsyncopated,b,s2,rule,rule,L1,m,3.6337,1.0,0.0,0.8338,2.0,1.0,Catalán,7.0,Inglés,11.0,4.0,2.0,no,no,no,nada,, ,18. Siento escalofríos cuando escucho una melodía que me gusta.,2.0,nada,65.0,yes
18,2024-04-24_10h51.51.516,Experiment4_uns,s168,30.0,masculino,right,España,Español,Other,no,no,B,1,what,L1,unsyncopated,s2,r2,18,Online_whatL1//d.ne.ni3.none.none.wav,ro,lu,la,sil,ta,ri,fa,sil1,be,ze,sil2,['-'],,,none,none,,,,ni,4,testWhatL1Uns//r1.s2.1.wav,1.0,what,unsyncopated,a,s2,rule,rule,L1,z,0.6172,7.0,1.0,1.6066,2.0,1.0,Catalán,7.0,Inglés,11.0,4.0,2.0,no,no,no,nada,, ,19. Con la música me puedo desahogar.,3.0,nada,65.0,yes
19,2024-04-24_10h51.51.516,Experiment4_uns,s168,30.0,masculino,right,España,Español,Other,no,no,B,1,what,L1,unsyncopated,s2,r1,19,Online_whatL1//d.ne.ni2.444.0.wav,ni,fa,ne,sil,pu,la,ze,sil2,ki,fo,sil1,['catch'],[0.7093000000119218],[0.7093000000119218],0.0,beat,0.7093000000119218,0.7093000000119218,"[""space""]",ni,4,testWhatL1Uns//r1.s1.0.wav,1.0,what,unsyncopated,a,s1,rule,rule,L1,z,1.7504,4.0,1.0,1.4668,2.0,1.0,Catalán,7.0,Inglés,11.0,4.0,2.0,no,no,no,nada,, ,20. Cuando escucho una melodía que me gusta mucho no puedo evitar mover el cuerpo.,3.0,nada,65.0,yes
20,2024-04-24_10h51.51.516,Experiment4_uns,s168,30.0,masculino,right,España,Español,Other,no,no,B,1,what,L1,unsyncopated,s1,r1,20,Online_whatL1//d.ne.ni28.1332.222.wav,pu,ni,lu,sil2,ki,ne,cho,sil,fo,zu,sil1,['miss'],,,0.222,no_beat,,,,ni,4,testWhatL1Uns//time_viol.r1.s1.0.wav,1.0,what,unsyncopated,a,s1,no_rule,time,L1,z,2.8666,2.0,0.0,1.35,2.0,1.0,Catalán,7.0,Inglés,11.0,4.0,2.0,no,no,no,nada,, ,,,nada,65.0,yes
21,2024-04-24_10h51.51.516,Experiment4_uns,s168,30.0,masculino,right,España,Español,Other,no,no,B,1,what,L1,unsyncopated,s1,r1,21,Online_whatL1//d.ne.ni31.1998.1332.wav,pu,la,cho,sil2,ki,ni,lu,sil,ne,fa,sil1,['catch'],[2.210699999988151],[2.210699999988151],1.332,no_beat,0.8786999999881508,0.8786999999881508,"[""space""]",ni,4,testWhatL1Uns//time_viol.r2.s1.0.wav,1.0,what,unsyncopated,b,s1,no_rule,time,L1,z,2.3688,2.0,0.0,1.0439,2.0,1.0,Catalán,7.0,Inglés,11.0,4.0,2.0,no,no,no,nada,, ,,,nada,65.0,yes
22,2024-04-24_10h51.51.516,Experiment4_uns,s168,30.0,masculino,right,España,Español,Other,no,no,B,1,what,L1,unsyncopated,s1,r2,22,Online_whatL1//d.ne.ni29.none.none.wav,ta,la,zu,sil2,be,fo,ri,sil,fa,ro,sil1,['-'],,,none,none,,,,ni,4,testWhatL1Uns//cat_viol.r2.s2.0.wav,1.0,what,unsyncopated,b,s2,no_rule,cat,L1,m,1.5339,2.0,1.0,1.1072,2.0,1.0,Catalán,7.0,Inglés,11.0,4.0,2.0,no,no,no,nada,, ,,,nada,65.0,yes
23,2024-04-24_10h51.51.516,Experiment4_uns,s168,30.0,masculino,right,España,Español,Other,no,no,B,1,what,L1,unsyncopated,s1,r2,23,Online_whatL1//d.ne.ni30.444.1332.wav,ta,lu,ne,sil,be,fo,ni,sil2,ro,cho,sil1,['catch'],[2.2046999999880654],[2.2046999999880654],1.332,no_beat,0.8726999999880654,0.8726999999880654,"[""space""]",ni,4,testWhatL1Uns//time_viol.r2.s2.0.wav,1.0,what,unsyncopated,b,s2,no_rule,time,L1,z,3.95,4.0,0.0,1.5518,2.0,1.0,Catalán,7.0,Inglés,11.0,4.0,2.0,no,no,no,nada,, ,,,nada,65.0,yes
24,2024-04-24_10h51.51.516,Experiment4_uns,s168,30.0,masculino,right,España,Español,Other,no,no,B,1,what,L1,unsyncopated,s2,r1,24,Online_whatL1//b.ta.be9.none.none.wav,ze,zu,ni,sil,pu,fa,ne,sil1,ki,fo,sil2,['-'],,,none,none,,,,be,2,testWhenL2Uns//r1.s1.2.wav,2.0,when,unsyncopated,a,s1,rule,rule,L2,z,4.191,5.0,1.0,1.0636,2.0,1.0,Catalán,7.0,Inglés,11.0,4.0,2.0,no,no,no,nada,, ,,,nada,65.0,yes
25,2024-04-24_10h51.51.516,Experiment4_uns,s168,30.0,masculino,right,España,Español,Other,no,no,B,1,what,L1,unsyncopated,s1,r1,25,Online_whatL1//b.ta.be10.none.none.wav,pu,fo,fa,sil,ki,zu,cho,sil1,la,ri,sil2,['-'],,,none,none,,,,be,2,testWhenL2Uns//cat_viol.r1.s1.0.wav,2.0,when,unsyncopated,a,s1,no_rule,cat,L2,z,1.7501,4.0,1.0,0.7903,2.0,1.0,Catalán,7.0,Inglés,11.0,4.0,2.0,no,no,no,nada,, ,,,nada,65.0,yes
26,2024-04-24_10h51.51.516,Experiment4_uns,s168,30.0,masculino,right,España,Español,Other,no,no,B,1,what,L1,unsyncopated,s1,r2,26,Online_whatL1//b.ta.be8.0.1110.wav,ta,la,zu,sil2,be,fo,ri,sil,ne,ze,sil1,['catch'],[1.6868000000119991],[1.6868000000119991],1.11,no_beat,0.576800000011999,0.576800000011999,"[""space""]",be,2,testWhenL2Uns//dep_viol.r1.s2.0.wav,2.0,when,unsyncopated,a,s2,no_rule,dep,L2,z,0.7511,4.0,1.0,0.7608,2.0,1.0,Catalán,7.0,Inglés,11.0,4.0,2.0,no,no,no,nada,, ,,,nada,65.0,yes
27,2024-04-24_10h51.51.516,Experiment4_uns,s168,30.0,masculino,right,España,Español,Other,no,no,B,1,what,L1,unsyncopated,s1,r2,27,Online_whatL1//b.ta.be11.0.888.wav,ta,ne,fa,sil,be,ri,fo,sil2,cho,ni,sil1,['catch'],[1.5270000000000437],[1.5270000000000437],0.888,beat,0.6390000000000436,0.6390000000000436,"[""space""]",be,2,testWhenL2Uns//time_viol.r1.s1.0.wav,2.0,when,unsyncopated,a,s1,no_rule,time,L2,m,2.5173,3.0,0.0,2.9658,2.0,1.0,Catalán,7.0,Inglés,11.0,4.0,2.0,no,no,no,nada,, ,,,nada,65.0,yes
28,2024-04-24_10h51.51.516,Experiment4_uns,s168,30.0,masculino,right,España,Español,Other,no,no,B,1,what,L1,unsyncopated,s1,r1,28,Online_whatL1//c.ro.fo24.none.none.wav,pu,la,ri,sil,ki,fa,ne,sil1,ni,lu,sil2,['-'],,,none,none,,,,fo,3,testWhenL2Uns//time_viol.r2.s1.0.wav,2.0,when,unsyncopated,b,s1,no_rule,time,L2,m,0.1677,2.0,0.0,0.831,2.0,1.0,Catalán,7.0,Inglés,11.0,4.0,2.0,no,no,no,nada,, ,,,nada,65.0,yes
29,2024-04-24_10h51.51.516,Experiment4_uns,s168,30.0,masculino,right,España,Español,Other,no,no,B,1,what,L1,unsyncopated,s1,r2,29,Online_whatL1//c.ro.fo25.222.1110.wav,ta,ro,lu,sil,be,fo,ri,sil2,ni,zu,sil1,['catch'],[1.5059000000356946],[1.5059000000356946],1.11,no_beat,0.3959000000356945,0.3959000000356945,"[""space""]",fo,3,testWhenL2Uns//dep_viol.r2.s1.0.wav,2.0,when,unsyncopated,b,s1,no_rule,dep,L2,m,8.3823,3.0,0.0,0.1666,2.0,1.0,Catalán,7.0,Inglés,11.0,4.0,2.0,no,no,no,nada,, ,,,nada,65.0,yes
30,2024-04-24_10h51.51.516,Experiment4_uns,s168,30.0,masculino,right,España,Español,Other,no,no,B,1,what,L1,unsyncopated,s1,r2,30,Online_whatL1//c.ro.fo26.1332.1554.wav,ta,fa,ri,sil2,be,ro,fo,sil,ze,zu,sil1,"['false alarm', 'catch']","[0.2793999999762491, 2.2633999999761727]",[2.2633999999761727],1.554,no_beat,0.7093999999761726,0.7093999999761726,"[""space"",""space""]",fo,3,testWhenL2Uns//time_viol.r1.s2.0.wav,2.0,when,unsyncopated,a,s2,no_rule,time,L2,m,1.2488,3.0,0.0,0.3671,2.0,1.0,Catalán,7.0,Inglés,11.0,4.0,2.0,no,no,no,nada,, ,,,nada,65.0,yes
31,2024-04-24_10h51.51.516,Experiment4_uns,s168,30.0,masculino,right,España,Español,Other,no,no,B,1,what,L1,unsyncopated,s1,r1,31,Online_whatL1//c.ro.fo27.none.none.wav,pu,lu,ze,sil,ki,ne,fa,sil2,cho,zu,sil1,['-'],,,none,none,,,,fo,3,testWhenL2Uns//r1.s1.0.wav,2.0,when,unsyncopated,a,s1,rule,rule,L2,z,2.3524,1.0,1.0,2.5401,2.0,1.0,Catalán,7.0,Inglés,11.0,4.0,2.0,no,no,no,nada,, ,,,nada,65.0,yes
32,2024-04-24_10h51.51.516,Experiment4_uns,s168,30.0,masculino,right,España,Español,Other,no,no,B,1,what,L1,unsyncopated,s2,r2,32,Online_whatL1//d.ne.ni6.none.none.wav,fa,fo,ri,sil,ta,lu,zu,sil1,be,ro,sil2,['false alarm'],[1.115299999952299],[1.115299999952299],none,none,,,"[""space""]",ni,4,testWhenL2Uns//r1.s2.0.wav,2.0,when,unsyncopated,a,s2,rule,rule,L2,m,0.6175,2.0,0.0,0.4671,2.0,1.0,Catalán,7.0,Inglés,11.0,4.0,2.0,no,no,no,nada,, ,,,nada,65.0,yes
33,2024-04-24_10h51.51.516,Experiment4_uns,s168,30.0,masculino,right,España,Español,Other,no,no,B,1,what,L1,unsyncopated,s1,r2,33,Online_whatL1//d.ne.ni4.none.none.wav,ta,cho,lu,sil,be,fa,zu,sil1,ro,ze,sil2,['-'],,,none,none,,,,ni,4,testWhenL2Uns//r2.s1.2.wav,2.0,when,unsyncopated,b,s1,rule,rule,L2,z,0.3071,6.0,1.0,0.7341,2.0,1.0,Catalán,7.0,Inglés,11.0,4.0,2.0,no,no,no,nada,, ,,,nada,65.0,yes
34,2024-04-24_10h51.51.516,Experiment4_uns,s168,30.0,masculino,right,España,Español,Other,no,no,B,1,what,L1,unsyncopated,s2,r2,34,Online_whatL1//d.ne.ni7.none.none.wav,ze,lu,fa,sil,ta,cho,ri,sil1,be,ro,sil2,['-'],,,none,none,,,,ni,4,testWhenL2Uns//r1.s2.2.wav,2.0,when,unsyncopated,a,s2,rule,rule,L2,z,1.2336,5.0,1.0,0.5505,2.0,1.0,Catalán,7.0,Inglés,11.0,4.0,2.0,no,no,no,nada,, ,,,nada,65.0,yes
35,2024-04-24_10h51.51.516,Experiment4_uns,s168,30.0,masculino,right,España,Español,Other,no,no,B,1,what,L1,unsyncopated,s1,r1,35,Online_whatL1//d.ne.ni5.none.none.wav,pu,cho,fo,sil,ki,zu,ro,sil2,fa,la,sil1,['-'],,,none,none,,,,ni,4,testWhenL2Uns//time_viol.r2.s2.0.wav,2.0,when,unsyncopated,b,s2,no_rule,time,L2,z,1.2374,6.0,1.0,0.6169,2.0,1.0,Catalán,7.0,Inglés,11.0,4.0,2.0,no,no,no,nada,, ,,,nada,65.0,yes
36,2024-04-24_10h51.51.516,Experiment4_uns,s168,30.0,masculino,right,España,Español,Other,no,no,B,1,what,L1,unsyncopated,s2,r1,36,Online_whatL1//b.ta.be3.none.none.wav,ze,ri,la,sil,pu,ni,fo,sil1,ki,cho,sil2,['-'],,,none,none,,,,be,2,testWhenL2Uns//r2.s1.0.wav,2.0,when,unsyncopated,b,s1,rule,rule,L2,z,0.5973,5.0,1.0,0.451,2.0,1.0,Catalán,7.0,Inglés,11.0,4.0,2.0,no,no,no,nada,, ,,,nada,65.0,yes
37,2024-04-24_10h51.51.516,Experiment4_uns,s168,30.0,masculino,right,España,Español,Other,no,no,B,1,what,L1,unsyncopated,s1,r1,37,Online_whatL1//b.ta.be1.none.none.wav,pu,fa,fo,sil2,ki,la,zu,sil,ze,ri,sil1,['-'],,,none,none,,,,be,2,testWhenL2Uns//r2.s2.0.wav,2.0,when,unsyncopated,b,s2,rule,rule,L2,z,4.4657,3.0,1.0,1.122,2.0,1.0,Catalán,7.0,Inglés,11.0,4.0,2.0,no,no,no,nada,, ,,,nada,65.0,yes
38,2024-04-24_10h51.51.516,Experiment4_uns,s168,30.0,masculino,right,España,Español,Other,no,no,B,1,what,L1,unsyncopated,s2,r2,38,Online_whatL1//b.ta.be2.1110.1998.wav,ze,fa,lu,sil2,ta,ne,cho,sil,be,ri,sil1,['catch_delay'],[0.8368000000119229],[0.8368000000119229],1.998,no_beat,0.8368000000119229,0.8368000000119229,,be,2,testWhenL2Uns//cat_viol.r2.s2.0.wav,2.0,when,unsyncopated,b,s2,no_rule,cat,L2,z,0.7264,4.0,1.0,0.3673,2.0,1.0,Catalán,7.0,Inglés,11.0,4.0,2.0,no,no,no,nada,, ,,,nada,65.0,yes
39,2024-04-24_10h51.51.516,Experiment4_uns,s168,30.0,masculino,right,España,Español,Other,no,no,B,1,what,L1,unsyncopated,s2,r2,39,Online_whatL1//b.ta.be0.888.1776.wav,ni,lu,ne,sil,ta,ze,zu,sil1,be,la,sil2,['miss'],[0.17080000001192275],[0.17080000001192275],1.776,beat,,,"[""space""]",be,2,testWhenL2Uns//dep_viol.r2.s2.0.wav,2.0,when,unsyncopated,b,s2,no_rule,dep,L2,z,0.3338,4.0,1.0,1.1045,2.0,1.0,Catalán,7.0,Inglés,11.0,4.0,2.0,no,no,no,nada,, ,,,nada,65.0,yes
40,2024-04-24_10h51.51.516,Experiment4_uns,s168,30.0,masculino,right,España,Español,Other,no,no,B,1,what,L1,unsyncopated,s1,r1,40,Online_whatL1//d.ne.ni9.222.444.wav,pu,ne,ni,sil,ki,fa,zu,sil2,fo,ro,sil1,['catch'],[1.1414999999999509],[1.1414999999999509],0.444,no_beat,0.6974999999999509,0.6974999999999509,"[""space""]",ni,4,testWhenL2Uns//r1.s2.1.wav,2.0,when,unsyncopated,a,s2,rule,rule,L2,z,1.9174,4.0,1.0,0.1996,2.0,1.0,Catalán,7.0,Inglés,11.0,4.0,2.0,no,no,no,nada,, ,,,nada,65.0,yes
41,2024-04-24_10h51.51.516,Experiment4_uns,s168,30.0,masculino,right,España,Español,Other,no,no,B,1,what,L1,unsyncopated,s2,r2,41,Online_whatL1//d.ne.ni11.none.none.wav,lu,fa,ze,sil,ta,ri,la,sil1,be,fo,sil2,['-'],,,none,none,,,,ni,4,testWhenL2Uns//cat_viol.r2.s1.0.wav,2.0,when,unsyncopated,b,s1,no_rule,cat,L2,z,9.0212,3.0,1.0,1.3748,2.0,1.0,Catalán,7.0,Inglés,11.0,4.0,2.0,no,no,no,nada,, ,,,nada,65.0,yes
42,2024-04-24_10h51.51.516,Experiment4_uns,s168,30.0,masculino,right,España,Español,Other,no,no,B,1,what,L1,unsyncopated,s2,r1,42,Online_whatL1//d.ne.ni10.none.none.wav,ri,fa,ro,sil2,pu,zu,ze,sil,ki,la,sil1,['-'],,,none,none,,,,ni,4,testWhenL2Uns//r1.s1.1.wav,2.0,when,unsyncopated,a,s1,rule,rule,L2,m,0.3171,2.0,0.0,0.2012,2.0,1.0,Catalán,7.0,Inglés,11.0,4.0,2.0,no,no,no,nada,, ,,,nada,65.0,yes
43,2024-04-24_10h51.51.516,Experiment4_uns,s168,30.0,masculino,right,España,Español,Other,no,no,B,1,what,L1,unsyncopated,s2,r1,43,Online_whatL1//d.ne.ni8.none.none.wav,lu,fa,la,sil,pu,cho,ze,sil2,ki,fo,sil1,['-'],,,none,none,,,,ni,4,testWhenL2Uns//r2.s2.2.wav,2.0,when,unsyncopated,b,s2,rule,rule,L2,z,1.7332,4.0,1.0,0.5001,2.0,1.0,Catalán,7.0,Inglés,11.0,4.0,2.0,no,no,no,nada,, ,,,nada,65.0,yes
44,2024-04-24_10h51.51.516,Experiment4_uns,s168,30.0,masculino,right,España,Español,Other,no,no,B,1,what,L1,unsyncopated,s2,r2,44,Online_whatL1//c.ro.fo9.0.1110.wav,ro,lu,zu,sil,ta,fo,cho,sil2,be,ze,sil1,['false alarm'],[0.9731000000238055],[0.9731000000238055],1.11,no_beat,,,"[""space""]",fo,3,testWhenL2Uns//cat_viol.r1.s2.0.wav,2.0,when,unsyncopated,a,s2,no_rule,cat,L2,z,1.2943,4.0,1.0,0.4001,2.0,1.0,Catalán,7.0,Inglés,11.0,4.0,2.0,no,no,no,nada,, ,,,nada,65.0,yes
45,2024-04-24_10h51.51.516,Experiment4_uns,s168,30.0,masculino,right,España,Español,Other,no,no,B,1,what,L1,unsyncopated,s1,r1,45,Online_whatL1//c.ro.fo11.none.none.wav,pu,la,fa,sil2,ki,ri,zu,sil,ni,ne,sil1,['-'],,,none,none,,,,fo,3,testWhenL2Uns//r2.s1.1.wav,2.0,when,unsyncopated,b,s1,rule,rule,L2,z,0.2671,4.0,1.0,0.3008,2.0,1.0,Catalán,7.0,Inglés,11.0,4.0,2.0,no,no,no,nada,, ,,,nada,65.0,yes
46,2024-04-24_10h51.51.516,Experiment4_uns,s168,30.0,masculino,right,España,Español,Other,no,no,B,1,what,L1,unsyncopated,s1,r1,46,Online_whatL1//c.ro.fo10.1332.444.wav,pu,fa,fo,sil,ki,ne,ro,sil1,ni,cho,sil2,['catch'],[1.1388000000118836],[1.1388000000118836],0.444,no_beat,0.6948000000118837,0.6948000000118837,"[""space""]",fo,3,testWhenL2Uns//r2.s2.1.wav,2.0,when,unsyncopated,b,s2,rule,rule,L2,z,0.399,4.0,1.0,0.168,2.0,1.0,Catalán,7.0,Inglés,11.0,4.0,2.0,no,no,no,nada,, ,,,nada,65.0,yes
47,2024-04-24_10h51.51.516,Experiment4_uns,s168,30.0,masculino,right,España,Español,Other,no,no,B,1,what,L1,unsyncopated,s1,r2,47,Online_whatL1//c.ro.fo8.222.444.wav,ta,ro,fo,sil,be,ri,fa,sil2,cho,lu,sil1,['miss'],,,0.444,no_beat,,,,fo,3,testWhenL2Uns//dep_viol.r1.s1.0.wav,2.0,when,unsyncopated,a,s1,no_rule,dep,L2,z,0.5007,4.0,1.0,0.1507,2.0,1.0,Catalán,7.0,Inglés,11.0,4.0,2.0,no,no,no,nada,, ,,,nada,65.0,yes
48,2024-04-24_10h51.51.516,Experiment4_uns,s168,30.0,masculino,right,España,Español,Other,no,no,B,1,what,L1,unsyncopated,s1,r1,48,Online_whatL1//a.pu.ki24.0.888.wav,pu,fa,cho,sil,ki,zu,ne,sil2,fo,ni,sil1,['catch'],[0.7397000000477192],[0.7397000000477192],0.0,beat,0.7397000000477192,0.7397000000477192,"[""space""]",pu,1,testConjL4Uns//time_viol.r2.s1.0.wav,3.0,conjunction_un,unsyncopated,b,s1,no_rule,time,L4,z,1.3579,3.0,0.0,0.3912,2.0,1.0,Catalán,7.0,Inglés,11.0,4.0,2.0,no,no,no,nada,, ,,,nada,65.0,yes
49,2024-04-24_10h51.51.516,Experiment4_uns,s168,30.0,masculino,right,España,Español,Other,no,no,B,1,what,L1,unsyncopated,s2,r1,49,Online_whatL1//a.pu.ki25.888.1998.wav,la,cho,ne,sil,pu,zu,fa,sil2,ki,lu,sil1,['catch'],[1.4380999999641517],[1.4380999999641517],0.888,beat,0.5500999999641517,0.5500999999641517,"[""space""]",pu,1,testConjL4Uns//cat_viol.r2.s1.0.wav,3.0,conjunction_un,unsyncopated,b,s1,no_rule,cat,L4,z,0.3195,4.0,0.0,0.4348,2.0,1.0,Catalán,7.0,Inglés,11.0,4.0,2.0,no,no,no,nada,, ,,,nada,65.0,yes
50,2024-04-24_10h51.51.516,Experiment4_uns,s168,30.0,masculino,right,España,Español,Other,no,no,B,1,what,L1,unsyncopated,s1,r1,50,Online_whatL1//a.pu.ki27.0.888.wav,pu,ri,fa,sil,ki,la,ne,sil2,ze,cho,sil1,['miss'],,,0.0,beat,,,,pu,1,testConjL4Uns//dep_viol.r1.s2.0.wav,3.0,conjunction_un,unsyncopated,a,s2,no_rule,dep,L4,z,0.87,3.0,0.0,1.7273,2.0,1.0,Catalán,7.0,Inglés,11.0,4.0,2.0,no,no,no,nada,, ,,,nada,65.0,yes
51,2024-04-24_10h51.51.516,Experiment4_uns,s168,30.0,masculino,right,España,Español,Other,no,no,B,1,what,L1,unsyncopated,s1,r2,51,Online_whatL1//a.pu.ki26.none.none.wav,ta,zu,lu,sil,be,cho,ri,sil1,la,ze,sil2,['-'],,,none,none,,,,pu,1,testConjL4Uns//cat_viol.r1.s2.0.wav,3.0,conjunction_un,unsyncopated,a,s2,no_rule,cat,L4,z,0.5378,3.0,0.0,0.1772,2.0,1.0,Catalán,7.0,Inglés,11.0,4.0,2.0,no,no,no,nada,, ,,,nada,65.0,yes
52,2024-04-24_10h51.51.516,Experiment4_uns,s168,30.0,masculino,right,España,Español,Other,no,no,B,1,what,L1,unsyncopated,s2,r1,52,Online_whatL1//c.ro.fo21.none.none.wav,ze,cho,ne,sil2,pu,ri,zu,sil,ki,fa,sil1,['-'],,,none,none,,,,fo,3,testConjL4Uns//dep_viol.r2.s1.0.wav,3.0,conjunction_un,unsyncopated,b,s1,no_rule,dep,L4,z,2.6852,3.0,0.0,0.3347,2.0,1.0,Catalán,7.0,Inglés,11.0,4.0,2.0,no,no,no,nada,, ,,,nada,65.0,yes
53,2024-04-24_10h51.51.516,Experiment4_uns,s168,30.0,masculino,right,España,Español,Other,no,no,B,1,what,L1,unsyncopated,s1,r1,53,Online_whatL1//c.ro.fo20.222.1332.wav,pu,ro,la,sil,ki,fa,fo,sil2,ni,ne,sil1,['catch'],[1.9647999999523336],[1.9647999999523336],1.332,no_beat,0.6327999999523335,0.6327999999523335,"[""space""]",fo,3,testConjL4Uns//r1.s2.1.wav,3.0,conjunction_un,unsyncopated,a,s2,rule,rule,L4,z,0.1214,3.0,1.0,0.2719,2.0,1.0,Catalán,7.0,Inglés,11.0,4.0,2.0,no,no,no,nada,, ,,,nada,65.0,yes
54,2024-04-24_10h51.51.516,Experiment4_uns,s168,30.0,masculino,right,España,Español,Other,no,no,B,1,what,L1,unsyncopated,s2,r2,54,Online_whatL1//c.ro.fo23.none.none.wav,ne,ni,zu,sil,ta,lu,la,sil1,be,ri,sil2,['-'],,,none,none,,,,fo,3,testConjL4Uns//r2.s1.1.wav,3.0,conjunction_un,unsyncopated,b,s1,rule,rule,L4,z,1.5526,3.0,1.0,0.1514,2.0,1.0,Catalán,7.0,Inglés,11.0,4.0,2.0,no,no,no,nada,, ,,,nada,65.0,yes
55,2024-04-24_10h51.51.516,Experiment4_uns,s168,30.0,masculino,right,España,Español,Other,no,no,B,1,what,L1,unsyncopated,s2,r2,55,Online_whatL1//c.ro.fo22.0.1110.wav,ro,ne,zu,sil,ta,fo,cho,sil1,be,la,sil2,['miss'],,,1.11,no_beat,,,,fo,3,testConjL4Uns//dep_viol.r1.s1.0.wav,3.0,conjunction_un,unsyncopated,a,s1,no_rule,dep,L4,z,0.1178,3.0,0.0,0.1848,2.0,1.0,Catalán,7.0,Inglés,11.0,4.0,2.0,no,no,no,nada,, ,,,nada,65.0,yes
56,2024-04-24_10h51.51.516,Experiment4_uns,s168,30.0,masculino,right,España,Español,Other,no,no,B,1,what,L1,unsyncopated,s1,r2,56,Online_whatL1//a.pu.ki3.none.none.wav,ta,la,ne,sil,be,cho,ni,sil2,fo,ri,sil1,['-'],,,none,none,,,,pu,1,testConjL4Uns//time_viol.r2.s2.0.wav,3.0,conjunction_un,unsyncopated,b,s2,no_rule,time,L4,z,0.1842,3.0,0.0,0.2675,2.0,1.0,Catalán,7.0,Inglés,11.0,4.0,2.0,no,no,no,nada,, ,,,nada,65.0,yes
57,2024-04-24_10h51.51.516,Experiment4_uns,s168,30.0,masculino,right,España,Español,Other,no,no,B,1,what,L1,unsyncopated,s1,r2,57,Online_whatL1//a.pu.ki2.none.none.wav,ta,zu,lu,sil2,be,ni,ze,sil,ne,fa,sil1,['-'],,,none,none,,,,pu,1,testConjL4Uns//r2.s1.2.wav,3.0,conjunction_un,unsyncopated,b,s1,rule,rule,L4,m,0.2428,3.0,0.0,0.4048,2.0,1.0,Catalán,7.0,Inglés,11.0,4.0,2.0,no,no,no,nada,, ,,,nada,65.0,yes
58,2024-04-24_10h51.51.516,Experiment4_uns,s168,30.0,masculino,right,España,Español,Other,no,no,B,1,what,L1,unsyncopated,s1,r1,58,Online_whatL1//a.pu.ki0.0.888.wav,pu,la,ne,sil,ki,lu,fa,sil1,ni,fo,sil2,['catch'],[0.58689999997614],[0.58689999997614],0.0,beat,0.58689999997614,0.58689999997614,"[""space""]",pu,1,testConjL4Uns//r2.s1.0.wav,3.0,conjunction_un,unsyncopated,b,s1,rule,rule,L4,m,0.1413,3.0,0.0,0.2098,2.0,1.0,Catalán,7.0,Inglés,11.0,4.0,2.0,no,no,no,nada,, ,,,nada,65.0,yes
59,2024-04-24_10h51.51.516,Experiment4_uns,s168,30.0,masculino,right,España,Español,Other,no,no,B,1,what,L1,unsyncopated,s1,r1,59,Online_whatL1//a.pu.ki1.0.888.wav,pu,ni,ne,sil,ki,ri,la,sil2,ro,cho,sil1,['catch'],[0.90480000001196],[0.90480000001196],0.0,beat,0.90480000001196,0.90480000001196,"[""space""]",pu,1,testConjL4Uns//time_viol.r1.s2.0.wav,3.0,conjunction_un,unsyncopated,a,s2,no_rule,time,L4,z,0.2007,3.0,0.0,0.3197,2.0,1.0,Catalán,7.0,Inglés,11.0,4.0,2.0,no,no,no,nada,, ,,,nada,65.0,yes
60,2024-04-24_10h51.51.516,Experiment4_uns,s168,30.0,masculino,right,España,Español,Other,no,no,B,1,what,L1,unsyncopated,s1,r1,60,Online_whatL1//d.ne.ni12.1554.222.wav,pu,ni,fa,sil2,ki,lu,ne,sil,cho,ro,sil1,['catch'],[0.831799999952409],[0.831799999952409],0.222,no_beat,0.6097999999524091,0.6097999999524091,"[""space""]",ni,4,testConjL4Uns//cat_viol.r1.s1.0.wav,3.0,conjunction_un,unsyncopated,a,s1,no_rule,cat,L4,z,0.2006,3.0,0.0,0.3734,2.0,1.0,Catalán,7.0,Inglés,11.0,4.0,2.0,no,no,no,nada,, ,,,nada,65.0,yes
61,2024-04-24_10h51.51.516,Experiment4_uns,s168,30.0,masculino,right,España,Español,Other,no,no,B,1,what,L1,unsyncopated,s1,r2,61,Online_whatL1//d.ne.ni13.1998.222.wav,ta,ni,fa,sil2,be,ro,ze,sil,ne,fo,sil1,['catch'],[1.8551999999881446],[1.8551999999881446],0.222,no_beat,,1.6331999999881446,"[""space""]",ni,4,testConjL4Uns//r1.s1.0.wav,3.0,conjunction_un,unsyncopated,a,s1,rule,rule,L4,z,0.3065,3.0,1.0,0.2397,2.0,1.0,Catalán,7.0,Inglés,11.0,4.0,2.0,no,no,no,nada,, ,,,nada,65.0,yes
62,2024-04-24_10h51.51.516,Experiment4_uns,s168,30.0,masculino,right,España,Español,Other,no,no,B,1,what,L1,unsyncopated,s2,r2,62,Online_whatL1//d.ne.ni14.1332.0.wav,ni,cho,fo,sil,ta,zu,ne,sil2,be,lu,sil1,['catch'],[0.7731000000238737],[0.7731000000238737],0.0,beat,0.7731000000238737,0.7731000000238737,"[""space""]",ni,4,testConjL4Uns//r1.s1.2.wav,3.0,conjunction_un,unsyncopated,a,s1,rule,rule,L4,m,0.9077,2.0,0.0,0.2834,2.0,1.0,Catalán,7.0,Inglés,11.0,4.0,2.0,no,no,no,nada,, ,,,nada,65.0,yes
63,2024-04-24_10h51.51.516,Experiment4_uns,s168,30.0,masculino,right,España,Español,Other,no,no,B,1,what,L1,unsyncopated,s2,r2,63,Online_whatL1//d.ne.ni15.222.1110.wav,la,ne,ro,sil,ta,ni,cho,sil1,be,zu,sil2,['catch'],[1.8904999999999745],[1.8904999999999745],1.11,no_beat,0.7804999999999744,0.7804999999999744,"[""space""]",ni,4,testConjL4Uns//r2.s2.1.wav,3.0,conjunction_un,unsyncopated,b,s2,rule,rule,L4,z,0.8697,2.0,1.0,0.6179,2.0,1.0,Catalán,7.0,Inglés,11.0,4.0,2.0,no,no,no,nada,, ,,,nada,65.0,yes
64,2024-04-24_10h51.51.516,Experiment4_uns,s168,30.0,masculino,right,España,Español,Other,no,no,B,1,what,L1,unsyncopated,s2,r1,64,Online_whatL1//b.ta.be6.none.none.wav,cho,fa,fo,sil,pu,ne,ri,sil2,ki,ni,sil1,['-'],,,none,none,,,,be,2,testConjL4Uns//cat_viol.r2.s2.0.wav,3.0,conjunction_un,unsyncopated,b,s2,no_rule,cat,L4,m,0.0677,2.0,1.0,0.3167,2.0,1.0,Catalán,7.0,Inglés,11.0,4.0,2.0,no,no,no,nada,, ,,,nada,65.0,yes
65,2024-04-24_10h51.51.516,Experiment4_uns,s168,30.0,masculino,right,España,Español,Other,no,no,B,1,what,L1,unsyncopated,s2,r1,65,Online_whatL1//b.ta.be5.none.none.wav,ni,fa,ro,sil2,pu,ze,la,sil,ki,ne,sil1,['-'],,,none,none,,,,be,2,testConjL4Uns//r1.s1.1.wav,3.0,conjunction_un,unsyncopated,a,s1,rule,rule,L4,z,0.0675,2.0,1.0,0.3014,2.0,1.0,Catalán,7.0,Inglés,11.0,4.0,2.0,no,no,no,nada,, ,,,nada,65.0,yes
66,2024-04-24_10h51.51.516,Experiment4_uns,s168,30.0,masculino,right,España,Español,Other,no,no,B,1,what,L1,unsyncopated,s2,r2,66,Online_whatL1//b.ta.be4.888.1998.wav,zu,ne,fa,sil,ta,lu,ni,sil2,be,ri,sil1,['catch_delay'],[0.7976000000238093],[0.7976000000238093],1.998,no_beat,0.7976000000238093,0.7976000000238093,,be,2,testConjL4Uns//time_viol.r1.s1.0.wav,3.0,conjunction_un,unsyncopated,a,s1,no_rule,time,L4,z,1.1017,2.0,0.0,0.1599,2.0,1.0,Catalán,7.0,Inglés,11.0,4.0,2.0,no,no,no,nada,, ,,,nada,65.0,yes
67,2024-04-24_10h51.51.516,Experiment4_uns,s168,30.0,masculino,right,España,Español,Other,no,no,B,1,what,L1,unsyncopated,s1,r1,67,Online_whatL1//b.ta.be7.none.none.wav,pu,ro,fa,sil,ki,fo,ni,sil2,la,ze,sil1,['-'],[0.13160000002380912],[0.13160000002380912],none,none,,,"[""space""]",be,2,testConjL4Uns//r2.s2.0.wav,3.0,conjunction_un,unsyncopated,b,s2,rule,rule,L4,z,0.4544,2.0,1.0,0.2343,2.0,1.0,Catalán,7.0,Inglés,11.0,4.0,2.0,no,no,no,nada,, ,,,nada,65.0,yes
68,2024-04-24_10h51.51.516,Experiment4_uns,s168,30.0,masculino,right,España,Español,Other,no,no,B,1,what,L1,unsyncopated,s2,r2,68,Online_whatL1//c.ro.fo31.none.none.wav,ze,zu,ne,sil,ta,la,ri,sil1,be,cho,sil2,['-'],,,none,none,,,,fo,3,testConjL4Uns//dep_viol.r2.s2.0.wav,3.0,conjunction_un,unsyncopated,b,s2,no_rule,dep,L4,z,0.0552,2.0,0.0,0.3515,2.0,1.0,Catalán,7.0,Inglés,11.0,4.0,2.0,no,no,no,nada,, ,,,nada,65.0,yes
69,2024-04-24_10h51.51.516,Experiment4_uns,s168,30.0,masculino,right,España,Español,Other,no,no,B,1,what,L1,unsyncopated,s1,r1,69,Online_whatL1//c.ro.fo28.222.1332.wav,pu,ro,ni,sil2,ki,fo,cho,sil,zu,lu,sil1,['catch'],[2.1288999999762837],[2.1288999999762837],1.332,no_beat,0.7968999999762836,0.7968999999762836,"[""space""]",fo,3,testConjL4Uns//r2.s2.2.wav,3.0,conjunction_un,unsyncopated,b,s2,rule,rule,L4,z,0.7511,2.0,1.0,0.184,2.0,1.0,Catalán,7.0,Inglés,11.0,4.0,2.0,no,no,no,nada,, ,,,nada,65.0,yes
70,2024-04-24_10h51.51.516,Experiment4_uns,s168,30.0,masculino,right,España,Español,Other,no,no,B,1,what,L1,unsyncopated,s2,r2,70,Online_whatL1//c.ro.fo30.none.none.wav,ri,cho,ze,sil,ta,lu,zu,sil2,be,la,sil1,['-'],,,none,none,,,,fo,3,testConjL4Uns//r1.s2.2.wav,3.0,conjunction_un,unsyncopated,a,s2,rule,rule,L4,z,0.2508,2.0,1.0,0.1853,2.0,1.0,Catalán,7.0,Inglés,11.0,4.0,2.0,no,no,no,nada,, ,,,nada,65.0,yes
71,2024-04-24_10h51.51.516,Experiment4_uns,s168,30.0,masculino,right,España,Español,Other,no,no,B,1,what,L1,unsyncopated,s2,r1,71,Online_whatL1//c.ro.fo29.1332.222.wav,lu,fo,ni,sil2,pu,ro,la,sil,ki,ze,sil1,['catch'],[0.9045000000000982],[0.9045000000000982],0.222,no_beat,0.6825000000000983,0.6825000000000983,"[""space""]",fo,3,testConjL4Uns//r1.s2.0.wav,3.0,conjunction_un,unsyncopated,a,s2,rule,rule,L4,z,0.2543,2.0,1.0,0.1511,2.0,1.0,Catalán,7.0,Inglés,11.0,4.0,2.0,no,no,no,nada,, ,,,nada,65.0,yes
72,2024-04-24_10h51.51.516,Experiment4_uns,s168,30.0,masculino,right,España,Español,Other,no,no,B,1,what,L1,unsyncopated,s1,r2,72,Online_whatL1//a.pu.ki22.none.none.wav,ta,ne,cho,sil2,be,ro,lu,sil,fa,fo,sil1,['-'],,,none,none,,,,pu,1,testConjL3Syn//time_viol.r2.s1.0.wav,4.0,conjunction_syn,syncopated,b,s1,no_rule,time,L3,z,0.3168,2.0,0.0,0.1938,2.0,1.0,Catalán,7.0,Inglés,11.0,4.0,2.0,no,no,no,nada,, ,,,nada,65.0,yes
73,2024-04-24_10h51.51.516,Experiment4_uns,s168,30.0,masculino,right,España,Español,Other,no,no,B,1,what,L1,unsyncopated,s1,r1,73,Online_whatL1//a.pu.ki20.0.888.wav,pu,ze,ni,sil,ki,la,ne,sil2,zu,ro,sil1,['catch'],[0.7541999999880318],[0.7541999999880318],0.0,beat,0.7541999999880318,0.7541999999880318,"[""space""]",pu,1,testConjL3Syn//r2.s1.1.wav,4.0,conjunction_syn,syncopated,b,s1,rule,rule,L3,z,0.2348,2.0,1.0,0.1051,2.0,1.0,Catalán,7.0,Inglés,11.0,4.0,2.0,no,no,no,nada,, ,,,nada,65.0,yes
74,2024-04-24_10h51.51.516,Experiment4_uns,s168,30.0,masculino,right,España,Español,Other,no,no,B,1,what,L1,unsyncopated,s1,r2,74,Online_whatL1//a.pu.ki23.none.none.wav,ta,ne,la,sil2,be,fo,lu,sil,cho,ze,sil1,['-'],,,none,none,,,,pu,1,testConjL3Syn//dep_viol.r2.s2.0.wav,4.0,conjunction_syn,syncopated,b,s2,no_rule,dep,L3,z,0.1677,2.0,0.0,0.1517,2.0,1.0,Catalán,7.0,Inglés,11.0,4.0,2.0,no,no,no,nada,, ,,,nada,65.0,yes
75,2024-04-24_10h51.51.516,Experiment4_uns,s168,30.0,masculino,right,España,Español,Other,no,no,B,1,what,L1,unsyncopated,s2,r2,75,Online_whatL1//a.pu.ki21.none.none.wav,ze,fo,ri,sil,ta,lu,cho,sil2,be,la,sil1,['-'],,,none,none,,,,pu,1,testConjL3Syn//time_viol.r2.s2.0.wav,4.0,conjunction_syn,syncopated,b,s2,no_rule,time,L3,m,0.0681,2.0,1.0,0.217,2.0,1.0,Catalán,7.0,Inglés,11.0,4.0,2.0,no,no,no,nada,, ,,,nada,65.0,yes
76,2024-04-24_10h51.51.516,Experiment4_uns,s168,30.0,masculino,right,España,Español,Other,no,no,B,1,what,L1,unsyncopated,s2,r2,76,Online_whatL1//a.pu.ki5.none.none.wav,cho,ri,ne,sil2,ta,ro,ni,sil,be,lu,sil1,['-'],,,none,none,,,,pu,1,testConjL3Syn//r1.s1.1.wav,4.0,conjunction_syn,syncopated,a,s1,rule,rule,L3,z,0.0348,2.0,1.0,0.2393,2.0,1.0,Catalán,7.0,Inglés,11.0,4.0,2.0,no,no,no,nada,, ,,,nada,65.0,yes
77,2024-04-24_10h51.51.516,Experiment4_uns,s168,30.0,masculino,right,España,Español,Other,no,no,B,1,what,L1,unsyncopated,s2,r1,77,Online_whatL1//a.pu.ki6.888.1776.wav,fa,lu,ro,sil,pu,ni,ze,sil1,ki,ri,sil2,['catch'],[1.641300000012052],[1.641300000012052],0.888,beat,0.7533000000120519,0.7533000000120519,"[""space""]",pu,1,testConjL3Syn//r1.s2.2.wav,4.0,conjunction_syn,syncopated,a,s2,rule,rule,L3,m,0.0179,2.0,0.0,0.2509,2.0,1.0,Catalán,7.0,Inglés,11.0,4.0,2.0,no,no,no,nada,, ,,,nada,65.0,yes
78,2024-04-24_10h51.51.516,Experiment4_uns,s168,30.0,masculino,right,España,Español,Other,no,no,B,1,what,L1,unsyncopated,s2,r2,78,Online_whatL1//a.pu.ki7.none.none.wav,zu,ne,ri,sil,ta,ro,ze,sil1,be,fo,sil2,['-'],,,none,none,,,,pu,1,testConjL3Syn//time_viol.r1.s2.0.wav,4.0,conjunction_syn,syncopated,a,s2,no_rule,time,L3,z,0.0542,2.0,0.0,0.1673,2.0,1.0,Catalán,7.0,Inglés,11.0,4.0,2.0,no,no,no,nada,, ,,,nada,65.0,yes
79,2024-04-24_10h51.51.516,Experiment4_uns,s168,30.0,masculino,right,España,Español,Other,no,no,B,1,what,L1,unsyncopated,s2,r1,79,Online_whatL1//a.pu.ki4.888.1776.wav,cho,zu,fa,sil,pu,lu,fo,sil1,ki,ze,sil2,['miss'],,,0.888,beat,,,,pu,1,testConjL3Syn//cat_viol.r2.s2.0.wav,4.0,conjunction_syn,syncopated,b,s2,no_rule,cat,L3,z,0.1682,2.0,0.0,0.1739,2.0,1.0,Catalán,7.0,Inglés,11.0,4.0,2.0,no,no,no,nada,, ,,,nada,65.0,yes
80,2024-04-24_10h51.51.516,Experiment4_uns,s168,30.0,masculino,right,España,Español,Other,no,no,B,1,what,L1,unsyncopated,s2,r2,80,Online_whatL1//b.ta.be21.1110.1998.wav,fa,ri,zu,sil2,ta,lu,ne,sil,be,la,sil1,['catch_delay'],[0.9038000000119302],[0.9038000000119302],1.998,no_beat,0.9038000000119302,0.9038000000119302,,be,2,testConjL3Syn//r2.s2.1.wav,4.0,conjunction_syn,syncopated,b,s2,rule,rule,L3,z,0.0245,2.0,1.0,0.1174,2.0,1.0,Catalán,7.0,Inglés,11.0,4.0,2.0,no,no,no,nada,, ,,,nada,65.0,yes
81,2024-04-24_10h51.51.516,Experiment4_uns,s168,30.0,masculino,right,España,Español,Other,no,no,B,1,what,L1,unsyncopated,s1,r1,81,Online_whatL1//b.ta.be23.none.none.wav,pu,zu,ri,sil,ki,ni,fa,sil1,lu,cho,sil2,['-'],[0.23780000001193002],[0.23780000001193002],none,none,,,"[""space""]",be,2,testConjL3Syn//cat_viol.r2.s1.0.wav,4.0,conjunction_syn,syncopated,b,s1,no_rule,cat,L3,m,0.1754,2.0,1.0,0.1268,2.0,1.0,Catalán,7.0,Inglés,11.0,4.0,2.0,no,no,no,nada,, ,,,nada,65.0,yes
82,2024-04-24_10h51.51.516,Experiment4_uns,s168,30.0,masculino,right,España,Español,Other,no,no,B,1,what,L1,unsyncopated,s1,r2,82,Online_whatL1//b.ta.be22.0.888.wav,ta,ze,lu,sil,be,fo,la,sil2,cho,zu,sil1,['miss'],,,0.888,beat,,,,be,2,testConjL3Syn//r2.s1.0.wav,4.0,conjunction_syn,syncopated,b,s1,rule,rule,L3,m,0.034,2.0,0.0,0.2028,2.0,1.0,Catalán,7.0,Inglés,11.0,4.0,2.0,no,no,no,nada,, ,,,nada,65.0,yes
83,2024-04-24_10h51.51.516,Experiment4_uns,s168,30.0,masculino,right,España,Español,Other,no,no,B,1,what,L1,unsyncopated,s1,r2,83,Online_whatL1//b.ta.be20.0.888.wav,ta,ro,ne,sil,be,la,cho,sil1,lu,ri,sil2,['catch'],[1.5735999999642445],[1.5735999999642445],0.888,beat,0.6855999999642445,0.6855999999642445,"[""space""]",be,2,testConjL3Syn//time_viol.r1.s1.0.wav,4.0,conjunction_syn,syncopated,a,s1,no_rule,time,L3,z,0.1006,2.0,0.0,0.1761,2.0,1.0,Catalán,7.0,Inglés,11.0,4.0,2.0,no,no,no,nada,, ,,,nada,65.0,yes
84,2024-04-24_10h51.51.516,Experiment4_uns,s168,30.0,masculino,right,España,Español,Other,no,no,B,1,what,L1,unsyncopated,s2,r1,84,Online_whatL1//c.ro.fo19.none.none.wav,fa,ri,zu,sil,pu,ze,cho,sil2,ki,ni,sil1,['-'],,,none,none,,,,fo,3,testConjL3Syn//dep_viol.r1.s2.0.wav,4.0,conjunction_syn,syncopated,a,s2,no_rule,dep,L3,z,0.0897,2.0,0.0,0.1179,2.0,1.0,Catalán,7.0,Inglés,11.0,4.0,2.0,no,no,no,nada,, ,,,nada,65.0,yes
85,2024-04-24_10h51.51.516,Experiment4_uns,s168,30.0,masculino,right,España,Español,Other,no,no,B,1,what,L1,unsyncopated,s2,r1,85,Online_whatL1//c.ro.fo17.444.0.wav,fo,lu,ro,sil,pu,zu,ne,sil1,ki,fa,sil2,['catch'],[0.6543000000117445],[0.6543000000117445],0.0,beat,0.6543000000117445,0.6543000000117445,"[""space""]",fo,3,testConjL3Syn//r2.s2.2.wav,4.0,conjunction_syn,syncopated,b,s2,rule,rule,L3,m,0.0512,2.0,0.0,0.1211,2.0,1.0,Catalán,7.0,Inglés,11.0,4.0,2.0,no,no,no,nada,, ,,,nada,65.0,yes
86,2024-04-24_10h51.51.516,Experiment4_uns,s168,30.0,masculino,right,España,Español,Other,no,no,B,1,what,L1,unsyncopated,s2,r1,86,Online_whatL1//c.ro.fo16.222.444.wav,zu,ro,fo,sil,pu,lu,fa,sil2,ki,la,sil1,['catch'],[1.242100000023811],[1.242100000023811],0.444,no_beat,0.798100000023811,0.798100000023811,"[""space""]",fo,3,testConjL3Syn//dep_viol.r2.s1.0.wav,4.0,conjunction_syn,syncopated,b,s1,no_rule,dep,L3,z,0.1712,2.0,0.0,0.1178,2.0,1.0,Catalán,7.0,Inglés,11.0,4.0,2.0,no,no,no,nada,, ,,,nada,65.0,yes
87,2024-04-24_10h51.51.516,Experiment4_uns,s168,30.0,masculino,right,España,Español,Other,no,no,B,1,what,L1,unsyncopated,s2,r1,87,Online_whatL1//c.ro.fo18.none.none.wav,ne,zu,la,sil2,pu,fa,ni,sil,ki,lu,sil1,['-'],,,none,none,,,,fo,3,testConjL3Syn//dep_viol.r1.s1.0.wav,4.0,conjunction_syn,syncopated,a,s1,no_rule,dep,L3,m,0.118,2.0,1.0,0.1509,2.0,1.0,Catalán,7.0,Inglés,11.0,4.0,2.0,no,no,no,nada,, ,,,nada,65.0,yes
88,2024-04-24_10h51.51.516,Experiment4_uns,s168,30.0,masculino,right,España,Español,Other,no,no,B,1,what,L1,unsyncopated,s2,r2,88,Online_whatL1//b.ta.be31.1110.1998.wav,fo,ze,ri,sil2,ta,ne,zu,sil,be,lu,sil1,['catch'],[2.5682999999523872],[2.5682999999523872],1.998,no_beat,0.5702999999523872,0.5702999999523872,"[""space""]",be,2,testConjL3Syn//r1.s2.1.wav,4.0,conjunction_syn,syncopated,a,s2,rule,rule,L3,z,0.0332,2.0,1.0,0.1222,2.0,1.0,Catalán,7.0,Inglés,11.0,4.0,2.0,no,no,no,nada,, ,,,nada,65.0,yes
89,2024-04-24_10h51.51.516,Experiment4_uns,s168,30.0,masculino,right,España,Español,Other,no,no,B,1,what,L1,unsyncopated,s2,r2,89,Online_whatL1//b.ta.be30.1110.1998.wav,ze,lu,fa,sil2,ta,ro,ni,sil,be,la,sil1,['catch_delay'],[0.8546000000238256],[0.8546000000238256],1.998,no_beat,0.8546000000238256,0.8546000000238256,,be,2,testConjL3Syn//cat_viol.r1.s2.0.wav,4.0,conjunction_syn,syncopated,a,s2,no_rule,cat,L3,m,0.0008,2.0,1.0,0.1357,2.0,1.0,Catalán,7.0,Inglés,11.0,4.0,2.0,no,no,no,nada,, ,,,nada,65.0,yes
90,2024-04-24_10h51.51.516,Experiment4_uns,s168,30.0,masculino,right,España,Español,Other,no,no,B,1,what,L1,unsyncopated,s2,r1,90,Online_whatL1//b.ta.be28.none.none.wav,zu,fo,ni,sil,pu,ri,lu,sil1,ki,ne,sil2,['-'],[0.1886000000238255],[0.1886000000238255],none,none,,,"[""space""]",be,2,testConjL3Syn//r2.s1.2.wav,4.0,conjunction_syn,syncopated,b,s1,rule,rule,L3,m,0.1219,2.0,0.0,0.1374,2.0,1.0,Catalán,7.0,Inglés,11.0,4.0,2.0,no,no,no,nada,, ,,,nada,65.0,yes
91,2024-04-24_10h51.51.516,Experiment4_uns,s168,30.0,masculino,right,España,Español,Other,no,no,B,1,what,L1,unsyncopated,s2,r1,91,Online_whatL1//b.ta.be29.none.none.wav,fa,ro,ni,sil,pu,ne,ri,sil1,ki,ze,sil2,['-'],,,none,none,,,,be,2,testConjL3Syn//r1.s1.2.wav,4.0,conjunction_syn,syncopated,a,s1,rule,rule,L3,z,0.1902,2.0,1.0,0.1084,2.0,1.0,Catalán,7.0,Inglés,11.0,4.0,2.0,no,no,no,nada,, ,,,nada,65.0,yes
92,2024-04-24_10h51.51.516,Experiment4_uns,s168,30.0,masculino,right,España,Español,Other,no,no,B,1,what,L1,unsyncopated,s1,r1,92,Online_whatL1//d.ne.ni23.none.none.wav,pu,fo,zu,sil,ki,cho,ro,sil1,ri,la,sil2,['false alarm'],[0.6245999999641754],[0.6245999999641754],none,none,,,"[""space""]",ni,4,testConjL3Syn//r1.s1.0.wav,4.0,conjunction_syn,syncopated,a,s1,rule,rule,L3,m,0.1091,2.0,0.0,0.1212,2.0,1.0,Catalán,7.0,Inglés,11.0,4.0,2.0,no,no,no,nada,, ,,,nada,65.0,yes
93,2024-04-24_10h51.51.516,Experiment4_uns,s168,30.0,masculino,right,España,Español,Other,no,no,B,1,what,L1,unsyncopated,s1,r2,93,Online_whatL1//d.ne.ni20.none.none.wav,ta,fa,ro,sil2,be,ze,cho,sil,la,zu,sil1,['-'],,,none,none,,,,ni,4,testConjL3Syn//cat_viol.r1.s1.0.wav,4.0,conjunction_syn,syncopated,a,s1,no_rule,cat,L3,z,0.0695,2.0,0.0,0.1346,2.0,1.0,Catalán,7.0,Inglés,11.0,4.0,2.0,no,no,no,nada,, ,,,nada,65.0,yes
94,2024-04-24_10h51.51.516,Experiment4_uns,s168,30.0,masculino,right,España,Español,Other,no,no,B,1,what,L1,unsyncopated,s1,r1,94,Online_whatL1//d.ne.ni22.none.none.wav,pu,ro,cho,sil2,ki,lu,ze,sil,zu,ri,sil1,['-'],,,none,none,,,,ni,4,testConjL3Syn//r1.s2.0.wav,4.0,conjunction_syn,syncopated,a,s2,rule,rule,L3,z,0.0548,2.0,1.0,0.1344,2.0,1.0,Catalán,7.0,Inglés,11.0,4.0,2.0,no,no,no,nada,, ,,,nada,65.0,yes
95,2024-04-24_10h51.51.516,Experiment4_uns,s168,30.0,masculino,right,España,Español,Other,no,no,B,1,what,L1,unsyncopated,s2,r1,95,Online_whatL1//d.ne.ni21.none.none.wav,zu,fo,la,sil,pu,ze,cho,sil2,ki,lu,sil1,['-'],,,none,none,,,,ni,4,testConjL3Syn//r2.s2.0.wav,4.0,conjunction_syn,syncopated,b,s2,rule,rule,L3,z,0.0021,2.0,1.0,0.0848,2.0,1.0,Catalán,7.0,Inglés,11.0,4.0,2.0,no,no,no,nada,, ,,,nada,65.0,yes
96,2024-04-24_10h51.51.516,Experiment4_uns,s168,30.0,masculino,right,España,Español,Other,no,no,B,1,what,L1,unsyncopated,s2,r2,96,Online_whatL1//d.ne.ni19.1554.444.wav,la,fa,ni,sil2,ta,cho,ne,sil,be,ri,sil1,['catch'],[1.6023000000118373],[1.6023000000118373],0.444,no_beat,1.1583000000118373,1.1583000000118373,"[""space""]",ni,4,,,,,,,,,,,,,,,2.0,1.0,Catalán,7.0,Inglés,11.0,4.0,2.0,no,no,no,nada,, ,,,nada,65.0,yes
97,2024-04-24_10h51.51.516,Experiment4_uns,s168,30.0,masculino,right,España,Español,Other,no,no,B,1,what,L1,unsyncopated,s1,r2,97,Online_whatL1//d.ne.ni17.222.1332.wav,ta,ne,fo,sil,be,ri,ni,sil2,lu,fa,sil1,['miss'],,,1.332,no_beat,,,,ni,4,,,,,,,,,,,,,,,2.0,1.0,Catalán,7.0,Inglés,11.0,4.0,2.0,no,no,no,nada,, ,,,nada,65.0,yes
98,2024-04-24_10h51.51.516,Experiment4_uns,s168,30.0,masculino,right,España,Español,Other,no,no,B,1,what,L1,unsyncopated,s1,r1,98,Online_whatL1//d.ne.ni18.none.none.wav,pu,ro,fo,sil,ki,ze,zu,sil2,cho,fa,sil1,['-'],,,none,none,,,,ni,4,,,,,,,,,,,,,,,2.0,1.0,Catalán,7.0,Inglés,11.0,4.0,2.0,no,no,no,nada,, ,,,nada,65.0,yes
99,2024-04-24_10h51.51.516,Experiment4_uns,s168,30.0,masculino,right,España,Español,Other,no,no,B,1,what,L1,unsyncopated,s2,r1,99,Online_whatL1//d.ne.ni16.0.444.wav,ne,la,ni,sil,pu,ri,zu,sil1,ki,fa,sil2,['catch'],[1.4872000000477783],[1.4872000000477783],0.444,no_beat,1.0432000000477784,1.0432000000477784,"[""space""]",ni,4,,,,,,,,,,,,,,,2.0,1.0,Catalán,7.0,Inglés,11.0,4.0,2.0,no,no,no,nada,, ,,,nada,65.0,yes
100,2024-04-24_10h51.51.516,Experiment4_uns,s168,30.0,masculino,right,España,Español,Other,no,no,B,1,what,L1,unsyncopated,s2,r2,100,Online_whatL1//a.pu.ki14.none.none.wav,ni,ne,ze,sil2,ta,fa,ri,sil,be,ro,sil1,['-'],,,none,none,,,,pu,1,,,,,,,,,,,,,,,2.0,1.0,Catalán,7.0,Inglés,11.0,4.0,2.0,no,no,no,nada,, ,,,nada,65.0,yes
101,2024-04-24_10h51.51.516,Experiment4_uns,s168,30.0,masculino,right,España,Español,Other,no,no,B,1,what,L1,unsyncopated,s2,r1,101,Online_whatL1//a.pu.ki12.1110.1998.wav,ni,zu,ro,sil2,pu,lu,ze,sil,ki,fa,sil1,['catch'],[1.7540000000001328],[1.7540000000001328],1.11,no_beat,0.6440000000001327,0.6440000000001327,"[""space""]",pu,1,,,,,,,,,,,,,,,2.0,1.0,Catalán,7.0,Inglés,11.0,4.0,2.0,no,no,no,nada,, ,,,nada,65.0,yes
102,2024-04-24_10h51.51.516,Experiment4_uns,s168,30.0,masculino,right,España,Español,Other,no,no,B,1,what,L1,unsyncopated,s2,r2,102,Online_whatL1//a.pu.ki15.none.none.wav,fo,ne,ro,sil2,ta,cho,lu,sil,be,ze,sil1,['-'],,,none,none,,,,pu,1,,,,,,,,,,,,,,,2.0,1.0,Catalán,7.0,Inglés,11.0,4.0,2.0,no,no,no,nada,, ,,,nada,65.0,yes
103,2024-04-24_10h51.51.516,Experiment4_uns,s168,30.0,masculino,right,España,Español,Other,no,no,B,1,what,L1,unsyncopated,s2,r2,103,Online_whatL1//a.pu.ki13.none.none.wav,la,fa,ri,sil,ta,cho,ni,sil1,be,fo,sil2,['-'],,,none,none,,,,pu,1,,,,,,,,,,,,,,,2.0,1.0,Catalán,7.0,Inglés,11.0,4.0,2.0,no,no,no,nada,, ,,,nada,65.0,yes
104,2024-04-24_10h51.51.516,Experiment4_uns,s168,30.0,masculino,right,España,Español,Other,no,no,B,1,what,L1,unsyncopated,s2,r2,104,Online_whatL1//c.ro.fo12.1332.222.wav,ri,fo,zu,sil,ta,fa,ro,sil2,be,ni,sil1,"['catch', 'false alarm']","[1.0191999999879044, 2.221899999976131]",[1.0191999999879044],0.222,no_beat,0.7971999999879045,0.7971999999879045,"[""space"",""space""]",fo,3,,,,,,,,,,,,,,,2.0,1.0,Catalán,7.0,Inglés,11.0,4.0,2.0,no,no,no,nada,, ,,,nada,65.0,yes
105,2024-04-24_10h51.51.516,Experiment4_uns,s168,30.0,masculino,right,España,Español,Other,no,no,B,1,what,L1,unsyncopated,s2,r1,105,Online_whatL1//c.ro.fo13.1332.444.wav,ni,fa,fo,sil,pu,la,ro,sil1,ki,cho,sil2,['catch'],[1.2208999999761545],[1.2208999999761545],0.444,no_beat,0.7768999999761546,0.7768999999761546,"[""space""]",fo,3,,,,,,,,,,,,,,,2.0,1.0,Catalán,7.0,Inglés,11.0,4.0,2.0,no,no,no,nada,, ,,,nada,65.0,yes
106,2024-04-24_10h51.51.516,Experiment4_uns,s168,30.0,masculino,right,España,Español,Other,no,no,B,1,what,L1,unsyncopated,s1,r2,106,Online_whatL1//c.ro.fo14.1332.222.wav,ta,fo,cho,sil,be,fa,ro,sil1,lu,ni,sil2,['miss'],,,0.222,no_beat,,,,fo,3,,,,,,,,,,,,,,,2.0,1.0,Catalán,7.0,Inglés,11.0,4.0,2.0,no,no,no,nada,, ,,,nada,65.0,yes
107,2024-04-24_10h51.51.516,Experiment4_uns,s168,30.0,masculino,right,España,Español,Other,no,no,B,1,what,L1,unsyncopated,s1,r2,107,Online_whatL1//c.ro.fo15.none.none.wav,ta,ri,lu,sil,be,ze,zu,sil1,cho,ni,sil2,['-'],,,none,none,,,,fo,3,,,,,,,,,,,,,,,2.0,1.0,Catalán,7.0,Inglés,11.0,4.0,2.0,no,no,no,nada,, ,,,nada,65.0,yes
108,2024-04-24_10h51.51.516,Experiment4_uns,s168,30.0,masculino,right,España,Español,Other,no,no,B,1,what,L1,unsyncopated,s2,r2,108,Online_whatL1//a.pu.ki29.none.none.wav,zu,lu,ne,sil,ta,ze,ni,sil1,be,ro,sil2,['-'],,,none,none,,,,pu,1,,,,,,,,,,,,,,,2.0,1.0,Catalán,7.0,Inglés,11.0,4.0,2.0,no,no,no,nada,, ,,,nada,65.0,yes
109,2024-04-24_10h51.51.516,Experiment4_uns,s168,30.0,masculino,right,España,Español,Other,no,no,B,1,what,L1,unsyncopated,s1,r1,109,Online_whatL1//a.pu.ki31.0.888.wav,pu,la,lu,sil,ki,ro,zu,sil2,ne,cho,sil1,['catch'],[0.8041000000239364],[0.8041000000239364],0.0,beat,0.8041000000239364,0.8041000000239364,"[""space""]",pu,1,,,,,,,,,,,,,,,2.0,1.0,Catalán,7.0,Inglés,11.0,4.0,2.0,no,no,no,nada,, ,,,nada,65.0,yes
110,2024-04-24_10h51.51.516,Experiment4_uns,s168,30.0,masculino,right,España,Español,Other,no,no,B,1,what,L1,unsyncopated,s2,r1,110,Online_whatL1//a.pu.ki28.888.1776.wav,fo,ro,fa,sil,pu,ze,zu,sil1,ki,ni,sil2,['catch'],[1.73860000002378],[1.73860000002378],0.888,beat,0.85060000002378,0.85060000002378,"[""space""]",pu,1,,,,,,,,,,,,,,,2.0,1.0,Catalán,7.0,Inglés,11.0,4.0,2.0,no,no,no,nada,, ,,,nada,65.0,yes
111,2024-04-24_10h51.51.516,Experiment4_uns,s168,30.0,masculino,right,España,Español,Other,no,no,B,1,what,L1,unsyncopated,s1,r2,111,Online_whatL1//a.pu.ki30.none.none.wav,ta,zu,cho,sil,be,ri,ni,sil2,ne,la,sil1,['-'],,,none,none,,,,pu,1,,,,,,,,,,,,,,,2.0,1.0,Catalán,7.0,Inglés,11.0,4.0,2.0,no,no,no,nada,, ,,,nada,65.0,yes
112,2024-04-24_10h51.51.516,Experiment4_uns,s168,30.0,masculino,right,España,Español,Other,no,no,B,1,what,L1,unsyncopated,s2,r2,112,Online_whatL1//c.ro.fo7.none.none.wav,ri,lu,ni,sil2,ta,la,ne,sil,be,ze,sil1,['-'],,,none,none,,,,fo,3,,,,,,,,,,,,,,,2.0,1.0,Catalán,7.0,Inglés,11.0,4.0,2.0,no,no,no,nada,, ,,,nada,65.0,yes
113,2024-04-24_10h51.51.516,Experiment4_uns,s168,30.0,masculino,right,España,Español,Other,no,no,B,1,what,L1,unsyncopated,s2,r1,113,Online_whatL1//c.ro.fo6.none.none.wav,la,ri,cho,sil,pu,ne,ni,sil1,ki,fa,sil2,['-'],,,none,none,,,,fo,3,,,,,,,,,,,,,,,2.0,1.0,Catalán,7.0,Inglés,11.0,4.0,2.0,no,no,no,nada,, ,,,nada,65.0,yes
114,2024-04-24_10h51.51.516,Experiment4_uns,s168,30.0,masculino,right,España,Español,Other,no,no,B,1,what,L1,unsyncopated,s1,r1,114,Online_whatL1//c.ro.fo4.none.none.wav,pu,lu,fa,sil2,ki,la,zu,sil,cho,ze,sil1,['-'],,,none,none,,,,fo,3,,,,,,,,,,,,,,,2.0,1.0,Catalán,7.0,Inglés,11.0,4.0,2.0,no,no,no,nada,, ,,,nada,65.0,yes
115,2024-04-24_10h51.51.516,Experiment4_uns,s168,30.0,masculino,right,España,Español,Other,no,no,B,1,what,L1,unsyncopated,s1,r2,115,Online_whatL1//c.ro.fo5.none.none.wav,ta,ze,lu,sil,be,ne,zu,sil2,ri,ni,sil1,['-'],,,none,none,,,,fo,3,,,,,,,,,,,,,,,2.0,1.0,Catalán,7.0,Inglés,11.0,4.0,2.0,no,no,no,nada,, ,,,nada,65.0,yes
116,2024-04-24_10h51.51.516,Experiment4_uns,s168,30.0,masculino,right,España,Español,Other,no,no,B,1,what,L1,unsyncopated,s2,r2,116,Online_whatL1//b.ta.be16.1110.1998.wav,zu,fa,cho,sil2,ta,ri,ro,sil,be,ze,sil1,['catch_delay'],[0.708300000011892],[0.708300000011892],1.998,no_beat,0.708300000011892,0.708300000011892,,be,2,,,,,,,,,,,,,,,2.0,1.0,Catalán,7.0,Inglés,11.0,4.0,2.0,no,no,no,nada,, ,,,nada,65.0,yes
117,2024-04-24_10h51.51.516,Experiment4_uns,s168,30.0,masculino,right,España,Español,Other,no,no,B,1,what,L1,unsyncopated,s1,r2,117,Online_whatL1//b.ta.be18.0.1110.wav,ta,zu,lu,sil2,be,ni,ne,sil,ze,la,sil1,['catch'],"[0.042300000011891825, 1.823100000023942]",[1.823100000023942],1.11,no_beat,0.7131000000239418,0.7131000000239418,"[""space"",""space""]",be,2,,,,,,,,,,,,,,,2.0,1.0,Catalán,7.0,Inglés,11.0,4.0,2.0,no,no,no,nada,, ,,,nada,65.0,yes
118,2024-04-24_10h51.51.516,Experiment4_uns,s168,30.0,masculino,right,España,Español,Other,no,no,B,1,what,L1,unsyncopated,s1,r2,118,Online_whatL1//b.ta.be19.0.888.wav,ta,lu,ze,sil,be,la,ro,sil2,cho,fo,sil1,['miss'],,,0.888,beat,,,,be,2,,,,,,,,,,,,,,,2.0,1.0,Catalán,7.0,Inglés,11.0,4.0,2.0,no,no,no,nada,, ,,,nada,65.0,yes
119,2024-04-24_10h51.51.516,Experiment4_uns,s168,30.0,masculino,right,España,Español,Other,no,no,B,1,what,L1,unsyncopated,s1,r2,119,Online_whatL1//b.ta.be17.0.888.wav,ta,fa,zu,sil,be,ze,la,sil1,ni,ro,sil2,['catch'],[1.9892000000475036],[1.9892000000475036],0.888,beat,1.1012000000475035,1.1012000000475035,"[""space""]",be,2,,,,,,,,,,,,,,,2.0,1.0,Catalán,7.0,Inglés,11.0,4.0,2.0,no,no,no,nada,, ,,,nada,65.0,yes
120,2024-04-24_10h51.51.516,Experiment4_uns,s168,30.0,masculino,right,España,Español,Other,no,no,B,1,what,L1,unsyncopated,s1,r2,120,Online_whatL1//c.ro.fo2.none.none.wav,ta,fa,ze,sil,be,ri,lu,sil1,ni,la,sil2,['-'],,,none,none,,,,fo,3,,,,,,,,,,,,,,,2.0,1.0,Catalán,7.0,Inglés,11.0,4.0,2.0,no,no,no,nada,, ,,,nada,65.0,yes
121,2024-04-24_10h51.51.516,Experiment4_uns,s168,30.0,masculino,right,España,Español,Other,no,no,B,1,what,L1,unsyncopated,s2,r2,121,Online_whatL1//c.ro.fo1.0.444.wav,ro,zu,fo,sil2,ta,ri,ne,sil,be,fa,sil1,['catch'],[1.1871000000237473],[1.1871000000237473],0.444,no_beat,0.7431000000237473,0.7431000000237473,"[""space""]",fo,3,,,,,,,,,,,,,,,2.0,1.0,Catalán,7.0,Inglés,11.0,4.0,2.0,no,no,no,nada,, ,,,nada,65.0,yes
122,2024-04-24_10h51.51.516,Experiment4_uns,s168,30.0,masculino,right,España,Español,Other,no,no,B,1,what,L1,unsyncopated,s1,r1,122,Online_whatL1//c.ro.fo3.1998.444.wav,pu,lu,fo,sil,ki,cho,fa,sil2,ro,ni,sil1,['catch'],[1.4071999999880518],[1.4071999999880518],0.444,no_beat,0.9631999999880518,0.9631999999880518,"[""space""]",fo,3,,,,,,,,,,,,,,,2.0,1.0,Catalán,7.0,Inglés,11.0,4.0,2.0,no,no,no,nada,, ,,,nada,65.0,yes
123,2024-04-24_10h51.51.516,Experiment4_uns,s168,30.0,masculino,right,España,Español,Other,no,no,B,1,what,L1,unsyncopated,s1,r2,123,Online_whatL1//c.ro.fo0.none.none.wav,ta,lu,ri,sil,be,ze,zu,sil2,ni,la,sil1,['-'],,,none,none,,,,fo,3,,,,,,,,,,,,,,,2.0,1.0,Catalán,7.0,Inglés,11.0,4.0,2.0,no,no,no,nada,, ,,,nada,65.0,yes
124,2024-04-24_10h51.51.516,Experiment4_uns,s168,30.0,masculino,right,España,Español,Other,no,no,B,1,what,L1,unsyncopated,s1,r1,124,Online_whatL1//b.ta.be25.none.none.wav,pu,ze,cho,sil2,ki,fo,ro,sil,ni,ri,sil1,['-'],,,none,none,,,,be,2,,,,,,,,,,,,,,,2.0,1.0,Catalán,7.0,Inglés,11.0,4.0,2.0,no,no,no,nada,, ,,,nada,65.0,yes
125,2024-04-24_10h51.51.516,Experiment4_uns,s168,30.0,masculino,right,España,Español,Other,no,no,B,1,what,L1,unsyncopated,s1,r1,125,Online_whatL1//b.ta.be27.none.none.wav,pu,lu,zu,sil,ki,la,ro,sil2,ni,fa,sil1,['-'],,,none,none,,,,be,2,,,,,,,,,,,,,,,2.0,1.0,Catalán,7.0,Inglés,11.0,4.0,2.0,no,no,no,nada,, ,,,nada,65.0,yes
126,2024-04-24_10h51.51.516,Experiment4_uns,s168,30.0,masculino,right,España,Español,Other,no,no,B,1,what,L1,unsyncopated,s2,r1,126,Online_whatL1//b.ta.be24.none.none.wav,lu,zu,cho,sil,pu,ni,fa,sil2,ki,fo,sil1,['-'],,,none,none,,,,be,2,,,,,,,,,,,,,,,2.0,1.0,Catalán,7.0,Inglés,11.0,4.0,2.0,no,no,no,nada,, ,,,nada,65.0,yes
127,2024-04-24_10h51.51.516,Experiment4_uns,s168,30.0,masculino,right,España,Español,Other,no,no,B,1,what,L1,unsyncopated,s1,r1,127,Online_whatL1//b.ta.be26.none.none.wav,pu,lu,cho,sil,ki,ne,ro,sil2,fa,la,sil1,['-'],,,none,none,,,,be,2,,,,,,,,,,,,,,,2.0,1.0,Catalán,7.0,Inglés,11.0,4.0,2.0,no,no,no,nada,, ,,,nada,65.0,yes
128,2024-04-24_10h51.51.516,Experiment4_uns,s168,30.0,masculino,right,España,Español,Other,no,no,B,2,when,L2,unsyncopated,when,when,0,Online_whenL2//a.du3.none.wav,me,mi,te,sil,cha,go,ñu,sil1,fe,si,sil2,['-'],,,none,none,,,,du,1,,,,,,,,,,,,,,,2.0,1.0,Catalán,7.0,Inglés,11.0,4.0,2.0,no,no,no,nada,, ,,,nada,65.0,yes
129,2024-04-24_10h51.51.516,Experiment4_uns,s168,30.0,masculino,right,España,Español,Other,no,no,B,2,when,L2,unsyncopated,when,when,1,Online_whenL2//a.du2.0.wav,du,me,si,sil,mi,to,go,sil1,cha,bi,sil2,['catch'],[0.6483000000118864],[0.6483000000118864],0.0,beat,0.6483000000118864,0.6483000000118864,"[""space""]",du,1,,,,,,,,,,,,,,,2.0,1.0,Catalán,7.0,Inglés,11.0,4.0,2.0,no,no,no,nada,, ,,,nada,65.0,yes
130,2024-04-24_10h51.51.516,Experiment4_uns,s168,30.0,masculino,right,España,Español,Other,no,no,B,2,when,L2,unsyncopated,when,when,2,Online_whenL2//a.du0.888.wav,ñu,ba,ra,sil,du,su,ño,sil1,cha,te,sil2,['catch'],[1.8495999999643118],[1.8495999999643118],0.888,beat,0.9615999999643118,0.9615999999643118,"[""space""]",du,1,,,,,,,,,,,,,,,2.0,1.0,Catalán,7.0,Inglés,11.0,4.0,2.0,no,no,no,nada,, ,,,nada,65.0,yes
131,2024-04-24_10h51.51.516,Experiment4_uns,s168,30.0,masculino,right,España,Español,Other,no,no,B,2,when,L2,unsyncopated,when,when,3,Online_whenL2//a.du1.none.wav,bi,si,fe,sil,mi,ra,ba,sil1,su,me,sil2,['-'],,,none,none,,,,du,1,,,,,,,,,,,,,,,2.0,1.0,Catalán,7.0,Inglés,11.0,4.0,2.0,no,no,no,nada,, ,,,nada,65.0,yes
132,2024-04-24_10h51.51.516,Experiment4_uns,s168,30.0,masculino,right,España,Español,Other,no,no,B,2,when,L2,unsyncopated,when,when,4,Online_whenL2//a.du18.none.wav,go,fe,te,sil,si,cha,ba,sil1,ño,to,sil2,['-'],,,none,none,,,,du,1,,,,,,,,,,,,,,,2.0,1.0,Catalán,7.0,Inglés,11.0,4.0,2.0,no,no,no,nada,, ,,,nada,65.0,yes
133,2024-04-24_10h51.51.516,Experiment4_uns,s168,30.0,masculino,right,España,Español,Other,no,no,B,2,when,L2,unsyncopated,when,when,5,Online_whenL2//a.du17.none.wav,ra,go,su,sil,me,si,cha,sil1,bi,te,sil2,['-'],,,none,none,,,,du,1,,,,,,,,,,,,,,,2.0,1.0,Catalán,7.0,Inglés,11.0,4.0,2.0,no,no,no,nada,, ,,,nada,65.0,yes
134,2024-04-24_10h51.51.516,Experiment4_uns,s168,30.0,masculino,right,España,Español,Other,no,no,B,2,when,L2,unsyncopated,when,when,6,Online_whenL2//a.du16.none.wav,ñu,te,to,sil,su,me,si,sil1,ra,fe,sil2,['-'],,,none,none,,,,du,1,,,,,,,,,,,,,,,2.0,1.0,Catalán,7.0,Inglés,11.0,4.0,2.0,no,no,no,nada,, ,,,nada,65.0,yes
135,2024-04-24_10h51.51.516,Experiment4_uns,s168,30.0,masculino,right,España,Español,Other,no,no,B,2,when,L2,unsyncopated,when,when,7,Online_whenL2//a.du19.none.wav,su,ñu,to,sil,bi,fe,me,sil1,ño,go,sil2,['-'],,,none,none,,,,du,1,,,,,,,,,,,,,,,2.0,1.0,Catalán,7.0,Inglés,11.0,4.0,2.0,no,no,no,nada,, ,,,nada,65.0,yes
136,2024-04-24_10h51.51.516,Experiment4_uns,s168,30.0,masculino,right,España,Español,Other,no,no,B,2,when,L2,unsyncopated,when,when,8,Online_whenL2//b.fe8.none.wav,su,to,go,sil,mi,ra,si,sil1,ba,ñu,sil2,['-'],,,none,none,,,,fe,2,,,,,,,,,,,,,,,2.0,1.0,Catalán,7.0,Inglés,11.0,4.0,2.0,no,no,no,nada,, ,,,nada,65.0,yes
137,2024-04-24_10h51.51.516,Experiment4_uns,s168,30.0,masculino,right,España,Español,Other,no,no,B,2,when,L2,unsyncopated,when,when,9,Online_whenL2//b.fe9.none.wav,du,ñu,su,sil,te,to,go,sil1,ño,me,sil2,['-'],,,none,none,,,,fe,2,,,,,,,,,,,,,,,2.0,1.0,Catalán,7.0,Inglés,11.0,4.0,2.0,no,no,no,nada,, ,,,nada,65.0,yes
138,2024-04-24_10h51.51.516,Experiment4_uns,s168,30.0,masculino,right,España,Español,Other,no,no,B,2,when,L2,unsyncopated,when,when,10,Online_whenL2//b.fe10.none.wav,to,du,su,sil,mi,ño,ba,sil1,bi,ra,sil2,['-'],,,none,none,,,,fe,2,,,,,,,,,,,,,,,2.0,1.0,Catalán,7.0,Inglés,11.0,4.0,2.0,no,no,no,nada,, ,,,nada,65.0,yes
139,2024-04-24_10h51.51.516,Experiment4_uns,s168,30.0,masculino,right,España,Español,Other,no,no,B,2,when,L2,unsyncopated,when,when,11,Online_whenL2//b.fe11.1332.wav,ba,bi,go,sil,su,mi,fe,sil1,si,me,sil2,['catch'],[1.96340000003579],[1.96340000003579],1.332,no_beat,0.63140000003579,0.63140000003579,"[""space""]",fe,2,,,,,,,,,,,,,,,2.0,1.0,Catalán,7.0,Inglés,11.0,4.0,2.0,no,no,no,nada,, ,,,nada,65.0,yes
140,2024-04-24_10h51.51.516,Experiment4_uns,s168,30.0,masculino,right,España,Español,Other,no,no,B,2,when,L2,unsyncopated,when,when,12,Online_whenL2//d.si24.1332.wav,me,du,bi,sil,ñu,cha,si,sil1,ra,su,sil2,['miss'],,,1.332,no_beat,,,,si,4,,,,,,,,,,,,,,,2.0,1.0,Catalán,7.0,Inglés,11.0,4.0,2.0,no,no,no,nada,, ,,,nada,65.0,yes
141,2024-04-24_10h51.51.516,Experiment4_uns,s168,30.0,masculino,right,España,Español,Other,no,no,B,2,when,L2,unsyncopated,when,when,13,Online_whenL2//d.si27.1110.wav,fe,te,ñu,sil,ño,si,mi,sil1,me,go,sil2,"['false alarm', 'catch']","[0.03239999997617815, 2.048199999988128]",[2.048199999988128],1.11,no_beat,0.938199999988128,0.938199999988128,"[""space"",""space""]",si,4,,,,,,,,,,,,,,,2.0,1.0,Catalán,7.0,Inglés,11.0,4.0,2.0,no,no,no,nada,, ,,,nada,65.0,yes
142,2024-04-24_10h51.51.516,Experiment4_uns,s168,30.0,masculino,right,España,Español,Other,no,no,B,2,when,L2,unsyncopated,when,when,14,Online_whenL2//d.si26.none.wav,ra,ño,cha,sil,to,su,bi,sil1,ñu,fe,sil2,['false alarm'],[1.9648000000120192],[1.9648000000120192],none,none,,,"[""space""]",si,4,,,,,,,,,,,,,,,2.0,1.0,Catalán,7.0,Inglés,11.0,4.0,2.0,no,no,no,nada,, ,,,nada,65.0,yes
143,2024-04-24_10h51.51.516,Experiment4_uns,s168,30.0,masculino,right,España,Español,Other,no,no,B,2,when,L2,unsyncopated,when,when,15,Online_whenL2//d.si25.none.wav,ño,ra,me,sil,to,go,te,sil1,su,mi,sil2,['-'],,,none,none,,,,si,4,,,,,,,,,,,,,,,2.0,1.0,Catalán,7.0,Inglés,11.0,4.0,2.0,no,no,no,nada,, ,,,nada,65.0,yes
144,2024-04-24_10h51.51.516,Experiment4_uns,s168,30.0,masculino,right,España,Español,Other,no,no,B,2,when,L2,unsyncopated,when,when,16,Online_whenL2//d.si31.none.wav,su,ba,te,sil,ra,ño,to,sil1,mi,go,sil2,['-'],,,none,none,,,,si,4,,,,,,,,,,,,,,,2.0,1.0,Catalán,7.0,Inglés,11.0,4.0,2.0,no,no,no,nada,, ,,,nada,65.0,yes
145,2024-04-24_10h51.51.516,Experiment4_uns,s168,30.0,masculino,right,España,Español,Other,no,no,B,2,when,L2,unsyncopated,when,when,17,Online_whenL2//d.si28.888.wav,ñu,fe,bi,sil,si,cha,to,sil1,du,ba,sil2,['catch'],[1.92610000002378],[1.92610000002378],0.888,beat,1.03810000002378,1.03810000002378,"[""space""]",si,4,,,,,,,,,,,,,,,2.0,1.0,Catalán,7.0,Inglés,11.0,4.0,2.0,no,no,no,nada,, ,,,nada,65.0,yes
146,2024-04-24_10h51.51.516,Experiment4_uns,s168,30.0,masculino,right,España,Español,Other,no,no,B,2,when,L2,unsyncopated,when,when,18,Online_whenL2//d.si29.888.wav,cha,me,su,sil,si,mi,te,sil1,ra,go,sil2,['catch'],[2.2871000000236563],[2.2871000000236563],0.888,beat,,1.3991000000236564,"[""space""]",si,4,,,,,,,,,,,,,,,2.0,1.0,Catalán,7.0,Inglés,11.0,4.0,2.0,no,no,no,nada,, ,,,nada,65.0,yes
147,2024-04-24_10h51.51.516,Experiment4_uns,s168,30.0,masculino,right,España,Español,Other,no,no,B,2,when,L2,unsyncopated,when,when,19,Online_whenL2//d.si30.none.wav,me,ba,cha,sil,ño,te,bi,sil1,du,go,sil2,['-'],,,none,none,,,,si,4,,,,,,,,,,,,,,,2.0,1.0,Catalán,7.0,Inglés,11.0,4.0,2.0,no,no,no,nada,, ,,,nada,65.0,yes
148,2024-04-24_10h51.51.516,Experiment4_uns,s168,30.0,masculino,right,España,Español,Other,no,no,B,2,when,L2,unsyncopated,when,when,20,Online_whenL2//d.si22.none.wav,te,du,fe,sil,cha,su,ñu,sil1,me,ba,sil2,['-'],,,none,none,,,,si,4,,,,,,,,,,,,,,,2.0,1.0,Catalán,7.0,Inglés,11.0,4.0,2.0,no,no,no,nada,, ,,,nada,65.0,yes
149,2024-04-24_10h51.51.516,Experiment4_uns,s168,30.0,masculino,right,España,Español,Other,no,no,B,2,when,L2,unsyncopated,when,when,21,Online_whenL2//d.si23.none.wav,to,mi,ba,sil,go,du,ñu,sil1,te,ño,sil2,['-'],,,none,none,,,,si,4,,,,,,,,,,,,,,,2.0,1.0,Catalán,7.0,Inglés,11.0,4.0,2.0,no,no,no,nada,, ,,,nada,65.0,yes
150,2024-04-24_10h51.51.516,Experiment4_uns,s168,30.0,masculino,right,España,Español,Other,no,no,B,2,when,L2,unsyncopated,when,when,22,Online_whenL2//d.si21.none.wav,te,me,bi,sil,go,ñu,to,sil1,ra,ño,sil2,['-'],,,none,none,,,,si,4,,,,,,,,,,,,,,,2.0,1.0,Catalán,7.0,Inglés,11.0,4.0,2.0,no,no,no,nada,, ,,,nada,65.0,yes
151,2024-04-24_10h51.51.516,Experiment4_uns,s168,30.0,masculino,right,España,Español,Other,no,no,B,2,when,L2,unsyncopated,when,when,23,Online_whenL2//d.si20.1998.wav,ba,mi,ñu,sil,cha,to,go,sil1,ra,si,sil2,['catch_delay'],[0.7810999999642865],[0.7810999999642865],1.998,no_beat,0.7810999999642865,0.7810999999642865,,si,4,,,,,,,,,,,,,,,2.0,1.0,Catalán,7.0,Inglés,11.0,4.0,2.0,no,no,no,nada,, ,,,nada,65.0,yes
152,2024-04-24_10h51.51.516,Experiment4_uns,s168,30.0,masculino,right,España,Español,Other,no,no,B,2,when,L2,unsyncopated,when,when,24,Online_whenL2//d.si0.none.wav,ño,fe,go,sil,bi,te,cha,sil1,mi,to,sil2,['-'],[0.11509999996428633],[0.11509999996428633],none,none,,,"[""space""]",si,4,,,,,,,,,,,,,,,2.0,1.0,Catalán,7.0,Inglés,11.0,4.0,2.0,no,no,no,nada,, ,,,nada,65.0,yes
153,2024-04-24_10h51.51.516,Experiment4_uns,s168,30.0,masculino,right,España,Español,Other,no,no,B,2,when,L2,unsyncopated,when,when,25,Online_whenL2//d.si2.0.wav,si,me,fe,sil,to,ba,ñu,sil1,su,ra,sil2,['catch'],[0.7978000000118755],[0.7978000000118755],0.0,beat,0.7978000000118755,0.7978000000118755,"[""space""]",si,4,,,,,,,,,,,,,,,2.0,1.0,Catalán,7.0,Inglés,11.0,4.0,2.0,no,no,no,nada,, ,,,nada,65.0,yes
154,2024-04-24_10h51.51.516,Experiment4_uns,s168,30.0,masculino,right,España,Español,Other,no,no,B,2,when,L2,unsyncopated,when,when,26,Online_whenL2//d.si1.444.wav,ra,cha,si,sil,te,du,mi,sil1,su,bi,sil2,['catch'],[1.2148999999762964],[1.2148999999762964],0.444,no_beat,0.7708999999762964,0.7708999999762964,"[""space""]",si,4,,,,,,,,,,,,,,,2.0,1.0,Catalán,7.0,Inglés,11.0,4.0,2.0,no,no,no,nada,, ,,,nada,65.0,yes
155,2024-04-24_10h51.51.516,Experiment4_uns,s168,30.0,masculino,right,España,Español,Other,no,no,B,2,when,L2,unsyncopated,when,when,27,Online_whenL2//d.si3.444.wav,bi,su,si,sil,go,mi,ba,sil1,ñu,du,sil2,"['false alarm', 'catch']","[0.03439999997613086, 1.3228000000119664]",[1.3228000000119664],0.444,no_beat,0.8788000000119665,0.8788000000119665,"[""space"",""space""]",si,4,,,,,,,,,,,,,,,2.0,1.0,Catalán,7.0,Inglés,11.0,4.0,2.0,no,no,no,nada,, ,,,nada,65.0,yes
156,2024-04-24_10h51.51.516,Experiment4_uns,s168,30.0,masculino,right,España,Español,Other,no,no,B,2,when,L2,unsyncopated,when,when,28,Online_whenL2//c.cha9.none.wav,go,ba,ñu,sil,bi,fe,to,sil1,mi,ño,sil2,['-'],,,none,none,,,,cha,3,,,,,,,,,,,,,,,2.0,1.0,Catalán,7.0,Inglés,11.0,4.0,2.0,no,no,no,nada,, ,,,nada,65.0,yes
157,2024-04-24_10h51.51.516,Experiment4_uns,s168,30.0,masculino,right,España,Español,Other,no,no,B,2,when,L2,unsyncopated,when,when,29,Online_whenL2//c.cha10.444.wav,mi,su,cha,sil,si,me,go,sil1,ra,ñu,sil2,['catch'],[1.2214999999998781],[1.2214999999998781],0.444,no_beat,0.7774999999998782,0.7774999999998782,"[""space""]",cha,3,,,,,,,,,,,,,,,2.0,1.0,Catalán,7.0,Inglés,11.0,4.0,2.0,no,no,no,nada,, ,,,nada,65.0,yes
158,2024-04-24_10h51.51.516,Experiment4_uns,s168,30.0,masculino,right,España,Español,Other,no,no,B,2,when,L2,unsyncopated,when,when,30,Online_whenL2//c.cha8.none.wav,mi,si,to,sil,ra,ba,ño,sil1,du,su,sil2,['-'],,,none,none,,,,cha,3,,,,,,,,,,,,,,,2.0,1.0,Catalán,7.0,Inglés,11.0,4.0,2.0,no,no,no,nada,, ,,,nada,65.0,yes
159,2024-04-24_10h51.51.516,Experiment4_uns,s168,30.0,masculino,right,España,Español,Other,no,no,B,2,when,L2,unsyncopated,when,when,31,Online_whenL2//c.cha11.1998.wav,bi,te,ra,sil,si,su,ñu,sil1,go,cha,sil2,['miss'],,,1.998,no_beat,,,,cha,3,,,,,,,,,,,,,,,2.0,1.0,Catalán,7.0,Inglés,11.0,4.0,2.0,no,no,no,nada,, ,,,nada,65.0,yes
160,2024-04-24_10h51.51.516,Experiment4_uns,s168,30.0,masculino,right,España,Español,Other,no,no,B,2,when,L2,unsyncopated,when,when,32,Online_whenL2//a.du28.none.wav,ño,te,to,sil,go,ba,ra,sil1,su,bi,sil2,"['false alarm', 'false alarm']","[0.54669999998805, 2.2705000000000837]",2.2705000000000837,none,none,,,"[""space"",""space""]",du,1,,,,,,,,,,,,,,,2.0,1.0,Catalán,7.0,Inglés,11.0,4.0,2.0,no,no,no,nada,, ,,,nada,65.0,yes
161,2024-04-24_10h51.51.516,Experiment4_uns,s168,30.0,masculino,right,España,Español,Other,no,no,B,2,when,L2,unsyncopated,when,when,33,Online_whenL2//a.du31.222.wav,ba,du,go,sil,to,si,cha,sil1,mi,bi,sil2,['catch'],[1.3691999999880409],[1.3691999999880409],0.222,no_beat,1.147199999988041,1.147199999988041,"[""space""]",du,1,,,,,,,,,,,,,,,2.0,1.0,Catalán,7.0,Inglés,11.0,4.0,2.0,no,no,no,nada,, ,,,nada,65.0,yes
162,2024-04-24_10h51.51.516,Experiment4_uns,s168,30.0,masculino,right,España,Español,Other,no,no,B,2,when,L2,unsyncopated,when,when,34,Online_whenL2//a.du29.1998.wav,ra,ño,su,sil,bi,si,mi,sil1,me,du,sil2,['catch_delay'],[0.8183000000120193],[0.8183000000120193],1.998,no_beat,0.8183000000120193,0.8183000000120193,,du,1,,,,,,,,,,,,,,,2.0,1.0,Catalán,7.0,Inglés,11.0,4.0,2.0,no,no,no,nada,, ,,,nada,65.0,yes
163,2024-04-24_10h51.51.516,Experiment4_uns,s168,30.0,masculino,right,España,Español,Other,no,no,B,2,when,L2,unsyncopated,when,when,35,Online_whenL2//a.du30.none.wav,fe,bi,to,sil,cha,su,ra,sil1,ño,ba,sil2,['-'],[0.15230000001201915],[0.15230000001201915],none,none,,,"[""space""]",du,1,,,,,,,,,,,,,,,2.0,1.0,Catalán,7.0,Inglés,11.0,4.0,2.0,no,no,no,nada,, ,,,nada,65.0,yes
164,2024-04-24_10h51.51.516,Experiment4_uns,s168,30.0,masculino,right,España,Español,Other,no,no,B,2,when,L2,unsyncopated,when,when,36,Online_whenL2//a.du10.none.wav,cha,ño,to,sil,ra,bi,fe,sil1,ba,mi,sil2,['-'],,,none,none,,,,du,1,,,,,,,,,,,,,,,2.0,1.0,Catalán,7.0,Inglés,11.0,4.0,2.0,no,no,no,nada,, ,,,nada,65.0,yes
165,2024-04-24_10h51.51.516,Experiment4_uns,s168,30.0,masculino,right,España,Español,Other,no,no,B,2,when,L2,unsyncopated,when,when,37,Online_whenL2//a.du11.1998.wav,me,te,go,sil,mi,ñu,si,sil1,bi,du,sil2,['catch'],[2.632700000047862],[2.632700000047862],1.998,no_beat,0.634700000047862,0.634700000047862,"[""space""]",du,1,,,,,,,,,,,,,,,2.0,1.0,Catalán,7.0,Inglés,11.0,4.0,2.0,no,no,no,nada,, ,,,nada,65.0,yes
166,2024-04-24_10h51.51.516,Experiment4_uns,s168,30.0,masculino,right,España,Español,Other,no,no,B,2,when,L2,unsyncopated,when,when,38,Online_whenL2//a.du8.none.wav,ño,su,to,sil,go,te,bi,sil1,ra,si,sil2,['-'],,,none,none,,,,du,1,,,,,,,,,,,,,,,2.0,1.0,Catalán,7.0,Inglés,11.0,4.0,2.0,no,no,no,nada,, ,,,nada,65.0,yes
167,2024-04-24_10h51.51.516,Experiment4_uns,s168,30.0,masculino,right,España,Español,Other,no,no,B,2,when,L2,unsyncopated,when,when,39,Online_whenL2//a.du9.1332.wav,bi,cha,su,sil,ñu,ba,du,sil1,ra,me,sil2,['catch'],[2.565400000035879],[2.565400000035879],1.332,no_beat,,1.2334000000358791,"[""space""]",du,1,,,,,,,,,,,,,,,2.0,1.0,Catalán,7.0,Inglés,11.0,4.0,2.0,no,no,no,nada,, ,,,nada,65.0,yes
168,2024-04-24_10h51.51.516,Experiment4_uns,s168,30.0,masculino,right,España,Español,Other,no,no,B,2,when,L2,unsyncopated,when,when,40,Online_whenL2//b.fe16.1998.wav,cha,ba,te,sil,ra,ño,si,sil1,me,fe,sil2,['catch'],[2.6311000000237073],[2.6311000000237073],1.998,no_beat,0.6331000000237073,0.6331000000237073,"[""space""]",fe,2,,,,,,,,,,,,,,,2.0,1.0,Catalán,7.0,Inglés,11.0,4.0,2.0,no,no,no,nada,, ,,,nada,65.0,yes
169,2024-04-24_10h51.51.516,Experiment4_uns,s168,30.0,masculino,right,España,Español,Other,no,no,B,2,when,L2,unsyncopated,when,when,41,Online_whenL2//b.fe18.none.wav,mi,go,su,sil,ba,ra,si,sil1,cha,bi,sil2,['-'],,,none,none,,,,fe,2,,,,,,,,,,,,,,,2.0,1.0,Catalán,7.0,Inglés,11.0,4.0,2.0,no,no,no,nada,, ,,,nada,65.0,yes
170,2024-04-24_10h51.51.516,Experiment4_uns,s168,30.0,masculino,right,España,Español,Other,no,no,B,2,when,L2,unsyncopated,when,when,42,Online_whenL2//b.fe17.222.wav,te,fe,ño,sil,su,mi,ra,sil1,si,ñu,sil2,['catch'],[1.2584999999999127],[1.2584999999999127],0.222,no_beat,1.0364999999999127,1.0364999999999127,"[""space""]",fe,2,,,,,,,,,,,,,,,2.0,1.0,Catalán,7.0,Inglés,11.0,4.0,2.0,no,no,no,nada,, ,,,nada,65.0,yes
171,2024-04-24_10h51.51.516,Experiment4_uns,s168,30.0,masculino,right,España,Español,Other,no,no,B,2,when,L2,unsyncopated,when,when,43,Online_whenL2//b.fe19.none.wav,ño,ra,su,sil,cha,du,to,sil1,si,me,sil2,['-'],,,none,none,,,,fe,2,,,,,,,,,,,,,,,2.0,1.0,Catalán,7.0,Inglés,11.0,4.0,2.0,no,no,no,nada,, ,,,nada,65.0,yes
172,2024-04-24_10h51.51.516,Experiment4_uns,s168,30.0,masculino,right,España,Español,Other,no,no,B,2,when,L2,unsyncopated,when,when,44,Online_whenL2//c.cha30.none.wav,te,mi,to,sil,me,go,si,sil1,ño,du,sil2,['-'],,,none,none,,,,cha,3,,,,,,,,,,,,,,,2.0,1.0,Catalán,7.0,Inglés,11.0,4.0,2.0,no,no,no,nada,, ,,,nada,65.0,yes
173,2024-04-24_10h51.51.516,Experiment4_uns,s168,30.0,masculino,right,España,Español,Other,no,no,B,2,when,L2,unsyncopated,when,when,45,Online_whenL2//c.cha28.0.wav,cha,fe,to,sil,ba,ñu,me,sil1,go,te,sil2,['catch'],[0.6158000000118591],[0.6158000000118591],0.0,beat,0.6158000000118591,0.6158000000118591,"[""space""]",cha,3,,,,,,,,,,,,,,,2.0,1.0,Catalán,7.0,Inglés,11.0,4.0,2.0,no,no,no,nada,, ,,,nada,65.0,yes
174,2024-04-24_10h51.51.516,Experiment4_uns,s168,30.0,masculino,right,España,Español,Other,no,no,B,2,when,L2,unsyncopated,when,when,46,Online_whenL2//c.cha29.444.wav,go,du,cha,sil,me,ba,su,sil1,ñu,bi,sil2,['catch'],[1.5868000000118627],[1.5868000000118627],0.444,no_beat,1.1428000000118628,1.1428000000118628,"[""space""]",cha,3,,,,,,,,,,,,,,,2.0,1.0,Catalán,7.0,Inglés,11.0,4.0,2.0,no,no,no,nada,, ,,,nada,65.0,yes
175,2024-04-24_10h51.51.516,Experiment4_uns,s168,30.0,masculino,right,España,Español,Other,no,no,B,2,when,L2,unsyncopated,when,when,47,Online_whenL2//c.cha31.none.wav,to,te,ñu,sil,bi,du,su,sil1,fe,me,sil2,['-'],,,none,none,,,,cha,3,,,,,,,,,,,,,,,2.0,1.0,Catalán,7.0,Inglés,11.0,4.0,2.0,no,no,no,nada,, ,,,nada,65.0,yes
176,2024-04-24_10h51.51.516,Experiment4_uns,s168,30.0,masculino,right,España,Español,Other,no,no,B,2,when,L2,unsyncopated,when,when,48,Online_whenL2//a.du33.1110.wav,te,su,si,sil,to,du,fe,sil1,mi,me,sil2,['catch'],[1.4565000000000055],[1.4565000000000055],1.11,no_beat,0.3465000000000053,0.3465000000000053,"[""space""]",du,1,,,,,,,,,,,,,,,2.0,1.0,Catalán,7.0,Inglés,11.0,4.0,2.0,no,no,no,nada,, ,,,nada,65.0,yes
177,2024-04-24_10h51.51.516,Experiment4_uns,s168,30.0,masculino,right,España,Español,Other,no,no,B,2,when,L2,unsyncopated,when,when,49,Online_whenL2//a.du34.1110.wav,ba,ñu,fe,sil,si,du,ño,sil1,te,su,sil2,['miss'],,,1.11,no_beat,,,,du,1,,,,,,,,,,,,,,,2.0,1.0,Catalán,7.0,Inglés,11.0,4.0,2.0,no,no,no,nada,, ,,,nada,65.0,yes
178,2024-04-24_10h51.51.516,Experiment4_uns,s168,30.0,masculino,right,España,Español,Other,no,no,B,2,when,L2,unsyncopated,when,when,50,Online_whenL2//a.du35.none.wav,to,ñu,su,sil,ba,cha,fe,sil1,ño,go,sil2,['-'],,,none,none,,,,du,1,,,,,,,,,,,,,,,2.0,1.0,Catalán,7.0,Inglés,11.0,4.0,2.0,no,no,no,nada,, ,,,nada,65.0,yes
179,2024-04-24_10h51.51.516,Experiment4_uns,s168,30.0,masculino,right,España,Español,Other,no,no,B,2,when,L2,unsyncopated,when,when,51,Online_whenL2//a.du32.none.wav,to,fe,ñu,sil,cha,te,go,sil1,ño,si,sil2,['-'],,,none,none,,,,du,1,,,,,,,,,,,,,,,2.0,1.0,Catalán,7.0,Inglés,11.0,4.0,2.0,no,no,no,nada,, ,,,nada,65.0,yes
180,2024-04-24_10h51.51.516,Experiment4_uns,s168,30.0,masculino,right,España,Español,Other,no,no,B,2,when,L2,unsyncopated,when,when,52,Online_whenL2//c.cha18.1776.wav,ra,ñu,ño,sil,si,to,te,sil1,cha,du,sil2,['catch'],[2.3637999999523345],[2.3637999999523345],1.776,beat,0.5877999999523345,0.5877999999523345,"[""space""]",cha,3,,,,,,,,,,,,,,,2.0,1.0,Catalán,7.0,Inglés,11.0,4.0,2.0,no,no,no,nada,, ,,,nada,65.0,yes
181,2024-04-24_10h51.51.516,Experiment4_uns,s168,30.0,masculino,right,España,Español,Other,no,no,B,2,when,L2,unsyncopated,when,when,53,Online_whenL2//c.cha19.1998.wav,go,si,du,sil,ñu,to,ba,sil1,te,cha,sil2,['catch'],[2.646800000011808],[2.646800000011808],1.998,no_beat,0.6488000000118082,0.6488000000118082,"[""space""]",cha,3,,,,,,,,,,,,,,,2.0,1.0,Catalán,7.0,Inglés,11.0,4.0,2.0,no,no,no,nada,, ,,,nada,65.0,yes
182,2024-04-24_10h51.51.516,Experiment4_uns,s168,30.0,masculino,right,España,Español,Other,no,no,B,2,when,L2,unsyncopated,when,when,54,Online_whenL2//c.cha17.none.wav,te,ñu,su,sil,mi,go,me,sil1,ra,si,sil2,['-'],,,none,none,,,,cha,3,,,,,,,,,,,,,,,2.0,1.0,Catalán,7.0,Inglés,11.0,4.0,2.0,no,no,no,nada,, ,,,nada,65.0,yes
183,2024-04-24_10h51.51.516,Experiment4_uns,s168,30.0,masculino,right,España,Español,Other,no,no,B,2,when,L2,unsyncopated,when,when,55,Online_whenL2//c.cha16.none.wav,te,su,to,sil,du,ra,me,sil1,si,mi,sil2,['-'],,,none,none,,,,cha,3,,,,,,,,,,,,,,,2.0,1.0,Catalán,7.0,Inglés,11.0,4.0,2.0,no,no,no,nada,, ,,,nada,65.0,yes
184,2024-04-24_10h51.51.516,Experiment4_uns,s168,30.0,masculino,right,España,Español,Other,no,no,B,2,when,L2,unsyncopated,when,when,56,Online_whenL2//d.si13.444.wav,go,ñu,si,sil,bi,to,ño,sil1,fe,mi,sil2,['catch'],[0.9738000000120337],[0.9738000000120337],0.444,no_beat,0.5298000000120338,0.5298000000120338,"[""space""]",si,4,,,,,,,,,,,,,,,2.0,1.0,Catalán,7.0,Inglés,11.0,4.0,2.0,no,no,no,nada,, ,,,nada,65.0,yes
185,2024-04-24_10h51.51.516,Experiment4_uns,s168,30.0,masculino,right,España,Español,Other,no,no,B,2,when,L2,unsyncopated,when,when,57,Online_whenL2//d.si12.1776.wav,mi,du,to,sil,go,ño,bi,sil1,si,cha,sil2,['catch'],[2.5308999999761],[2.5308999999761],1.776,beat,0.7548999999760999,0.7548999999760999,"[""space""]",si,4,,,,,,,,,,,,,,,2.0,1.0,Catalán,7.0,Inglés,11.0,4.0,2.0,no,no,no,nada,, ,,,nada,65.0,yes
186,2024-04-24_10h51.51.516,Experiment4_uns,s168,30.0,masculino,right,España,Español,Other,no,no,B,2,when,L2,unsyncopated,when,when,58,Online_whenL2//d.si14.1332.wav,ba,te,bi,sil,go,su,si,sil1,du,ñu,sil2,['catch'],[1.9757000000477092],[1.9757000000477092],1.332,no_beat,0.6437000000477091,0.6437000000477091,"[""space""]",si,4,,,,,,,,,,,,,,,2.0,1.0,Catalán,7.0,Inglés,11.0,4.0,2.0,no,no,no,nada,, ,,,nada,65.0,yes
187,2024-04-24_10h51.51.516,Experiment4_uns,s168,30.0,masculino,right,España,Español,Other,no,no,B,2,when,L2,unsyncopated,when,when,59,Online_whenL2//d.si15.1332.wav,mi,ño,ba,sil,ra,fe,si,sil1,ñu,me,sil2,['catch'],[1.9183999999761454],[1.9183999999761454],1.332,no_beat,0.5863999999761453,0.5863999999761453,"[""space""]",si,4,,,,,,,,,,,,,,,2.0,1.0,Catalán,7.0,Inglés,11.0,4.0,2.0,no,no,no,nada,, ,,,nada,65.0,yes
188,2024-04-24_10h51.51.516,Experiment4_uns,s168,30.0,masculino,right,España,Español,Other,no,no,B,2,when,L2,unsyncopated,when,when,60,Online_whenL2//d.si4.444.wav,to,ra,si,sil,me,ñu,go,sil1,ño,mi,sil2,['catch'],[1.201700000047822],[1.201700000047822],0.444,no_beat,0.757700000047822,0.757700000047822,"[""space""]",si,4,,,,,,,,,,,,,,,2.0,1.0,Catalán,7.0,Inglés,11.0,4.0,2.0,no,no,no,nada,, ,,,nada,65.0,yes
189,2024-04-24_10h51.51.516,Experiment4_uns,s168,30.0,masculino,right,España,Español,Other,no,no,B,2,when,L2,unsyncopated,when,when,61,Online_whenL2//d.si7.none.wav,go,cha,te,sil,fe,ñu,ba,sil1,mi,to,sil2,['-'],,,none,none,,,,si,4,,,,,,,,,,,,,,,2.0,1.0,Catalán,7.0,Inglés,11.0,4.0,2.0,no,no,no,nada,, ,,,nada,65.0,yes
190,2024-04-24_10h51.51.516,Experiment4_uns,s168,30.0,masculino,right,España,Español,Other,no,no,B,2,when,L2,unsyncopated,when,when,62,Online_whenL2//d.si5.1332.wav,to,fe,ra,sil,me,cha,si,sil1,su,te,sil2,['catch'],[2.2783999999760454],[2.2783999999760454],1.332,no_beat,0.9463999999760452,0.9463999999760452,"[""space""]",si,4,,,,,,,,,,,,,,,2.0,1.0,Catalán,7.0,Inglés,11.0,4.0,2.0,no,no,no,nada,, ,,,nada,65.0,yes
191,2024-04-24_10h51.51.516,Experiment4_uns,s168,30.0,masculino,right,España,Español,Other,no,no,B,2,when,L2,unsyncopated,when,when,63,Online_whenL2//d.si6.1776.wav,te,cha,du,sil,fe,ño,me,sil1,si,bi,sil2,['miss'],,,1.776,beat,,,,si,4,,,,,,,,,,,,,,,2.0,1.0,Catalán,7.0,Inglés,11.0,4.0,2.0,no,no,no,nada,, ,,,nada,65.0,yes
192,2024-04-24_10h51.51.516,Experiment4_uns,s168,30.0,masculino,right,España,Español,Other,no,no,B,2,when,L2,unsyncopated,when,when,64,Online_whenL2//a.du7.0.wav,du,ño,te,sil,ñu,to,mi,sil1,su,fe,sil2,"['catch', 'false alarm']","[0.35199999999986176, 2.0261999999879663]",[0.35199999999986176],0.0,beat,0.3519999999998617,0.3519999999998617,"[""space"",""space""]",du,1,,,,,,,,,,,,,,,2.0,1.0,Catalán,7.0,Inglés,11.0,4.0,2.0,no,no,no,nada,, ,,,nada,65.0,yes
193,2024-04-24_10h51.51.516,Experiment4_uns,s168,30.0,masculino,right,España,Español,Other,no,no,B,2,when,L2,unsyncopated,when,when,65,Online_whenL2//a.du5.1110.wav,bi,ño,ra,sil,ba,du,mi,sil1,to,ñu,sil2,['catch'],[2.1356000000237145],[2.1356000000237145],1.11,no_beat,1.0256000000237144,1.0256000000237144,"[""space""]",du,1,,,,,,,,,,,,,,,2.0,1.0,Catalán,7.0,Inglés,11.0,4.0,2.0,no,no,no,nada,, ,,,nada,65.0,yes
194,2024-04-24_10h51.51.516,Experiment4_uns,s168,30.0,masculino,right,España,Español,Other,no,no,B,2,when,L2,unsyncopated,when,when,66,Online_whenL2//a.du6.888.wav,me,si,bi,sil,du,mi,cha,sil1,te,fe,sil2,['miss'],,,0.888,beat,,,,du,1,,,,,,,,,,,,,,,2.0,1.0,Catalán,7.0,Inglés,11.0,4.0,2.0,no,no,no,nada,, ,,,nada,65.0,yes
195,2024-04-24_10h51.51.516,Experiment4_uns,s168,30.0,masculino,right,España,Español,Other,no,no,B,2,when,L2,unsyncopated,when,when,67,Online_whenL2//a.du4.1998.wav,cha,si,go,sil,mi,ñu,me,sil1,su,du,sil2,['miss'],,,1.998,no_beat,,,,du,1,,,,,,,,,,,,,,,2.0,1.0,Catalán,7.0,Inglés,11.0,4.0,2.0,no,no,no,nada,, ,,,nada,65.0,yes
196,2024-04-24_10h51.51.516,Experiment4_uns,s168,30.0,masculino,right,España,Español,Other,no,no,B,2,when,L2,unsyncopated,when,when,68,Online_whenL2//b.fe7.1998.wav,ba,si,du,sil,cha,ño,bi,sil1,mi,fe,sil2,['catch'],[2.6078000000120483],[2.6078000000120483],1.998,no_beat,0.6098000000120483,0.6098000000120483,"[""space""]",fe,2,,,,,,,,,,,,,,,2.0,1.0,Catalán,7.0,Inglés,11.0,4.0,2.0,no,no,no,nada,, ,,,nada,65.0,yes
197,2024-04-24_10h51.51.516,Experiment4_uns,s168,30.0,masculino,right,España,Español,Other,no,no,B,2,when,L2,unsyncopated,when,when,69,Online_whenL2//b.fe5.1332.wav,si,cha,bi,sil,ñu,su,fe,sil1,ra,te,sil2,['miss'],,,1.332,no_beat,,,,fe,2,,,,,,,,,,,,,,,2.0,1.0,Catalán,7.0,Inglés,11.0,4.0,2.0,no,no,no,nada,, ,,,nada,65.0,yes
198,2024-04-24_10h51.51.516,Experiment4_uns,s168,30.0,masculino,right,España,Español,Other,no,no,B,2,when,L2,unsyncopated,when,when,70,Online_whenL2//b.fe6.1998.wav,du,su,ñu,sil,cha,ba,to,sil1,te,fe,sil2,['miss'],,,1.998,no_beat,,,,fe,2,,,,,,,,,,,,,,,2.0,1.0,Catalán,7.0,Inglés,11.0,4.0,2.0,no,no,no,nada,, ,,,nada,65.0,yes
199,2024-04-24_10h51.51.516,Experiment4_uns,s168,30.0,masculino,right,España,Español,Other,no,no,B,2,when,L2,unsyncopated,when,when,71,Online_whenL2//b.fe4.0.wav,fe,ra,ño,sil,to,ba,cha,sil1,si,te,sil2,"['catch', 'false alarm']","[0.20040000003564273, 1.4399000000357773]",[0.20040000003564273],0.0,beat,0.2004000000356427,0.2004000000356427,"[""space"",""space""]",fe,2,,,,,,,,,,,,,,,2.0,1.0,Catalán,7.0,Inglés,11.0,4.0,2.0,no,no,no,nada,, ,,,nada,65.0,yes
200,2024-04-24_10h51.51.516,Experiment4_uns,s168,30.0,masculino,right,España,Español,Other,no,no,B,2,when,L2,unsyncopated,when,when,72,Online_whenL2//c.cha12.444.wav,du,ba,cha,sil,te,bi,ño,sil1,ñu,fe,sil2,['catch'],[1.0636999999881027],[1.0636999999881027],0.444,no_beat,0.6196999999881028,0.6196999999881028,"[""space""]",cha,3,,,,,,,,,,,,,,,2.0,1.0,Catalán,7.0,Inglés,11.0,4.0,2.0,no,no,no,nada,, ,,,nada,65.0,yes
201,2024-04-24_10h51.51.516,Experiment4_uns,s168,30.0,masculino,right,España,Español,Other,no,no,B,2,when,L2,unsyncopated,when,when,73,Online_whenL2//c.cha13.888.wav,te,me,ba,sil,cha,bi,si,sil1,fe,du,sil2,['miss'],,,0.888,beat,,,,cha,3,,,,,,,,,,,,,,,2.0,1.0,Catalán,7.0,Inglés,11.0,4.0,2.0,no,no,no,nada,, ,,,nada,65.0,yes
202,2024-04-24_10h51.51.516,Experiment4_uns,s168,30.0,masculino,right,España,Español,Other,no,no,B,2,when,L2,unsyncopated,when,when,74,Online_whenL2//c.cha14.none.wav,go,te,ñu,sil,mi,bi,ba,sil1,ño,du,sil2,['-'],,,none,none,,,,cha,3,,,,,,,,,,,,,,,2.0,1.0,Catalán,7.0,Inglés,11.0,4.0,2.0,no,no,no,nada,, ,,,nada,65.0,yes
203,2024-04-24_10h51.51.516,Experiment4_uns,s168,30.0,masculino,right,España,Español,Other,no,no,B,2,when,L2,unsyncopated,when,when,75,Online_whenL2//c.cha15.none.wav,si,su,ñu,sil,mi,ba,ra,sil1,to,go,sil2,['-'],,,none,none,,,,cha,3,,,,,,,,,,,,,,,2.0,1.0,Catalán,7.0,Inglés,11.0,4.0,2.0,no,no,no,nada,, ,,,nada,65.0,yes
204,2024-04-24_10h51.51.516,Experiment4_uns,s168,30.0,masculino,right,España,Español,Other,no,no,B,2,when,L2,unsyncopated,when,when,76,Online_whenL2//b.fe2.1332.wav,ñu,bi,mi,sil,ra,cha,fe,sil1,ba,si,sil2,['catch'],[1.9058000000118227],[1.9058000000118227],1.332,no_beat,0.5738000000118226,0.5738000000118226,"[""space""]",fe,2,,,,,,,,,,,,,,,2.0,1.0,Catalán,7.0,Inglés,11.0,4.0,2.0,no,no,no,nada,, ,,,nada,65.0,yes
205,2024-04-24_10h51.51.516,Experiment4_uns,s168,30.0,masculino,right,España,Español,Other,no,no,B,2,when,L2,unsyncopated,when,when,77,Online_whenL2//b.fe1.none.wav,du,te,ba,sil,ra,mi,cha,sil1,ñu,to,sil2,['-'],,,none,none,,,,fe,2,,,,,,,,,,,,,,,2.0,1.0,Catalán,7.0,Inglés,11.0,4.0,2.0,no,no,no,nada,, ,,,nada,65.0,yes
206,2024-04-24_10h51.51.516,Experiment4_uns,s168,30.0,masculino,right,España,Español,Other,no,no,B,2,when,L2,unsyncopated,when,when,78,Online_whenL2//b.fe3.1110.wav,me,mi,ñu,sil,bi,fe,si,sil1,to,go,sil2,['catch'],[2.0313000000119246],[2.0313000000119246],1.11,no_beat,0.9213000000119244,0.9213000000119244,"[""space""]",fe,2,,,,,,,,,,,,,,,2.0,1.0,Catalán,7.0,Inglés,11.0,4.0,2.0,no,no,no,nada,, ,,,nada,65.0,yes
207,2024-04-24_10h51.51.516,Experiment4_uns,s168,30.0,masculino,right,España,Español,Other,no,no,B,2,when,L2,unsyncopated,when,when,79,Online_whenL2//b.fe0.none.wav,te,go,to,sil,si,ra,ño,sil1,cha,su,sil2,['-'],,,none,none,,,,fe,2,,,,,,,,,,,,,,,2.0,1.0,Catalán,7.0,Inglés,11.0,4.0,2.0,no,no,no,nada,, ,,,nada,65.0,yes
208,2024-04-24_10h51.51.516,Experiment4_uns,s168,30.0,masculino,right,España,Español,Other,no,no,B,2,when,L2,unsyncopated,when,when,80,Online_whenL2//b.fe28.1776.wav,me,su,ba,sil,bi,ño,te,sil1,fe,du,sil2,['catch'],[2.4266999999879317],[2.4266999999879317],1.776,beat,0.6506999999879317,0.6506999999879317,"[""space""]",fe,2,,,,,,,,,,,,,,,2.0,1.0,Catalán,7.0,Inglés,11.0,4.0,2.0,no,no,no,nada,, ,,,nada,65.0,yes
209,2024-04-24_10h51.51.516,Experiment4_uns,s168,30.0,masculino,right,España,Español,Other,no,no,B,2,when,L2,unsyncopated,when,when,81,Online_whenL2//b.fe30.none.wav,ra,si,su,sil,ñu,go,te,sil1,to,ño,sil2,['-'],,,none,none,,,,fe,2,,,,,,,,,,,,,,,2.0,1.0,Catalán,7.0,Inglés,11.0,4.0,2.0,no,no,no,nada,, ,,,nada,65.0,yes
210,2024-04-24_10h51.51.516,Experiment4_uns,s168,30.0,masculino,right,España,Español,Other,no,no,B,2,when,L2,unsyncopated,when,when,82,Online_whenL2//b.fe29.none.wav,ra,ñu,du,sil,ño,bi,to,sil1,mi,su,sil2,['-'],,,none,none,,,,fe,2,,,,,,,,,,,,,,,2.0,1.0,Catalán,7.0,Inglés,11.0,4.0,2.0,no,no,no,nada,, ,,,nada,65.0,yes
211,2024-04-24_10h51.51.516,Experiment4_uns,s168,30.0,masculino,right,España,Español,Other,no,no,B,2,when,L2,unsyncopated,when,when,83,Online_whenL2//b.fe31.none.wav,me,si,ñu,sil,su,go,du,sil1,bi,ba,sil2,['-'],,,none,none,,,,fe,2,,,,,,,,,,,,,,,2.0,1.0,Catalán,7.0,Inglés,11.0,4.0,2.0,no,no,no,nada,, ,,,nada,65.0,yes
212,2024-04-24_10h51.51.516,Experiment4_uns,s168,30.0,masculino,right,España,Español,Other,no,no,B,2,when,L2,unsyncopated,when,when,84,Online_whenL2//c.cha25.888.wav,fe,ño,su,sil,cha,te,bi,sil1,me,ra,sil2,"['catch', 'false alarm']","[0.931600000023991, 2.392100000023902]",[0.931600000023991],0.888,beat,0.043600000023991,0.043600000023991,"[""space"",""space""]",cha,3,,,,,,,,,,,,,,,2.0,1.0,Catalán,7.0,Inglés,11.0,4.0,2.0,no,no,no,nada,, ,,,nada,65.0,yes
213,2024-04-24_10h51.51.516,Experiment4_uns,s168,30.0,masculino,right,España,Español,Other,no,no,B,2,when,L2,unsyncopated,when,when,85,Online_whenL2//c.cha24.444.wav,me,bi,cha,sil,su,ra,ño,sil1,to,fe,sil2,['catch'],[1.1803999999763164],[1.1803999999763164],0.444,no_beat,0.7363999999763164,0.7363999999763164,"[""space""]",cha,3,,,,,,,,,,,,,,,2.0,1.0,Catalán,7.0,Inglés,11.0,4.0,2.0,no,no,no,nada,, ,,,nada,65.0,yes
214,2024-04-24_10h51.51.516,Experiment4_uns,s168,30.0,masculino,right,España,Español,Other,no,no,B,2,when,L2,unsyncopated,when,when,86,Online_whenL2//c.cha26.0.wav,cha,to,ra,sil,go,ñu,ba,sil1,bi,te,sil2,['catch'],[1.0294999999998709],[1.0294999999998709],0.0,beat,1.0294999999998709,1.0294999999998709,"[""space""]",cha,3,,,,,,,,,,,,,,,2.0,1.0,Catalán,7.0,Inglés,11.0,4.0,2.0,no,no,no,nada,, ,,,nada,65.0,yes
215,2024-04-24_10h51.51.516,Experiment4_uns,s168,30.0,masculino,right,España,Español,Other,no,no,B,2,when,L2,unsyncopated,when,when,87,Online_whenL2//c.cha27.none.wav,bi,fe,mi,sil,te,ra,ño,sil1,to,ñu,sil2,['-'],,,none,none,,,,cha,3,,,,,,,,,,,,,,,2.0,1.0,Catalán,7.0,Inglés,11.0,4.0,2.0,no,no,no,nada,, ,,,nada,65.0,yes
216,2024-04-24_10h51.51.516,Experiment4_uns,s168,30.0,masculino,right,España,Español,Other,no,no,B,2,when,L2,unsyncopated,when,when,88,Online_whenL2//a.du13.0.wav,du,ño,to,sil,me,ra,mi,sil1,bi,ba,sil2,['catch'],[0.6796000000238109],[0.6796000000238109],0.0,beat,0.6796000000238109,0.6796000000238109,"[""space""]",du,1,,,,,,,,,,,,,,,2.0,1.0,Catalán,7.0,Inglés,11.0,4.0,2.0,no,no,no,nada,, ,,,nada,65.0,yes
217,2024-04-24_10h51.51.516,Experiment4_uns,s168,30.0,masculino,right,España,Español,Other,no,no,B,2,when,L2,unsyncopated,when,when,89,Online_whenL2//a.du12.none.wav,si,bi,fe,sil,ño,mi,su,sil1,ra,me,sil2,['-'],,,none,none,,,,du,1,,,,,,,,,,,,,,,2.0,1.0,Catalán,7.0,Inglés,11.0,4.0,2.0,no,no,no,nada,, ,,,nada,65.0,yes
218,2024-04-24_10h51.51.516,Experiment4_uns,s168,30.0,masculino,right,España,Español,Other,no,no,B,2,when,L2,unsyncopated,when,when,90,Online_whenL2//a.du15.1998.wav,su,si,me,sil,ño,te,mi,sil1,go,du,sil2,['catch_delay'],[0.8148000000119884],[0.8148000000119884],1.998,no_beat,0.8148000000119884,0.8148000000119884,,du,1,,,,,,,,,,,,,,,2.0,1.0,Catalán,7.0,Inglés,11.0,4.0,2.0,no,no,no,nada,, ,,,nada,65.0,yes
219,2024-04-24_10h51.51.516,Experiment4_uns,s168,30.0,masculino,right,España,Español,Other,no,no,B,2,when,L2,unsyncopated,when,when,91,Online_whenL2//a.du14.none.wav,ño,to,bi,sil,ra,mi,me,sil1,ba,fe,sil2,['-'],[0.14880000001198823],[0.14880000001198823],none,none,,,"[""space""]",du,1,,,,,,,,,,,,,,,2.0,1.0,Catalán,7.0,Inglés,11.0,4.0,2.0,no,no,no,nada,, ,,,nada,65.0,yes
220,2024-04-24_10h51.51.516,Experiment4_uns,s168,30.0,masculino,right,España,Español,Other,no,no,B,2,when,L2,unsyncopated,when,when,92,Online_whenL2//d.si16.none.wav,su,fe,mi,sil,ño,te,me,sil1,du,ba,sil2,['-'],,,none,none,,,,si,4,,,,,,,,,,,,,,,2.0,1.0,Catalán,7.0,Inglés,11.0,4.0,2.0,no,no,no,nada,, ,,,nada,65.0,yes
221,2024-04-24_10h51.51.516,Experiment4_uns,s168,30.0,masculino,right,España,Español,Other,no,no,B,2,when,L2,unsyncopated,when,when,93,Online_whenL2//d.si19.none.wav,bi,mi,su,sil,me,cha,du,sil1,fe,te,sil2,['-'],,,none,none,,,,si,4,,,,,,,,,,,,,,,2.0,1.0,Catalán,7.0,Inglés,11.0,4.0,2.0,no,no,no,nada,, ,,,nada,65.0,yes
222,2024-04-24_10h51.51.516,Experiment4_uns,s168,30.0,masculino,right,España,Español,Other,no,no,B,2,when,L2,unsyncopated,when,when,94,Online_whenL2//d.si17.none.wav,mi,su,to,sil,go,ño,du,sil1,cha,ñu,sil2,['-'],,,none,none,,,,si,4,,,,,,,,,,,,,,,2.0,1.0,Catalán,7.0,Inglés,11.0,4.0,2.0,no,no,no,nada,, ,,,nada,65.0,yes
223,2024-04-24_10h51.51.516,Experiment4_uns,s168,30.0,masculino,right,España,Español,Other,no,no,B,2,when,L2,unsyncopated,when,when,95,Online_whenL2//d.si18.222.wav,ñu,si,bi,sil,cha,du,me,sil1,fe,ño,sil2,['catch'],[1.0193000000117536],[1.0193000000117536],0.222,no_beat,0.7973000000117536,0.7973000000117536,"[""space""]",si,4,,,,,,,,,,,,,,,2.0,1.0,Catalán,7.0,Inglés,11.0,4.0,2.0,no,no,no,nada,, ,,,nada,65.0,yes
224,2024-04-24_10h51.51.516,Experiment4_uns,s168,30.0,masculino,right,España,Español,Other,no,no,B,2,when,L2,unsyncopated,when,when,96,Online_whenL2//c.cha22.none.wav,ra,to,mi,sil,bi,te,ba,sil1,fe,ñu,sil2,['-'],,,none,none,,,,cha,3,,,,,,,,,,,,,,,2.0,1.0,Catalán,7.0,Inglés,11.0,4.0,2.0,no,no,no,nada,, ,,,nada,65.0,yes
225,2024-04-24_10h51.51.516,Experiment4_uns,s168,30.0,masculino,right,España,Español,Other,no,no,B,2,when,L2,unsyncopated,when,when,97,Online_whenL2//c.cha23.none.wav,me,ba,fe,sil,ño,ñu,mi,sil1,go,te,sil2,['-'],,,none,none,,,,cha,3,,,,,,,,,,,,,,,2.0,1.0,Catalán,7.0,Inglés,11.0,4.0,2.0,no,no,no,nada,, ,,,nada,65.0,yes
226,2024-04-24_10h51.51.516,Experiment4_uns,s168,30.0,masculino,right,España,Español,Other,no,no,B,2,when,L2,unsyncopated,when,when,98,Online_whenL2//c.cha20.none.wav,fe,ño,mi,sil,ra,su,ba,sil1,ñu,to,sil2,['-'],,,none,none,,,,cha,3,,,,,,,,,,,,,,,2.0,1.0,Catalán,7.0,Inglés,11.0,4.0,2.0,no,no,no,nada,, ,,,nada,65.0,yes
227,2024-04-24_10h51.51.516,Experiment4_uns,s168,30.0,masculino,right,España,Español,Other,no,no,B,2,when,L2,unsyncopated,when,when,99,Online_whenL2//c.cha21.1998.wav,si,du,ñu,sil,mi,go,to,sil1,ño,cha,sil2,['catch_delay'],[0.7949999999999056],[0.7949999999999056],1.998,no_beat,0.7949999999999056,0.7949999999999056,,cha,3,,,,,,,,,,,,,,,2.0,1.0,Catalán,7.0,Inglés,11.0,4.0,2.0,no,no,no,nada,, ,,,nada,65.0,yes
228,2024-04-24_10h51.51.516,Experiment4_uns,s168,30.0,masculino,right,España,Español,Other,no,no,B,2,when,L2,unsyncopated,when,when,100,Online_whenL2//b.fe22.none.wav,ño,ra,go,sil,ñu,bi,su,sil1,to,te,sil2,['-'],[0.1289999999999054],[0.1289999999999054],none,none,,,"[""space""]",fe,2,,,,,,,,,,,,,,,2.0,1.0,Catalán,7.0,Inglés,11.0,4.0,2.0,no,no,no,nada,, ,,,nada,65.0,yes
229,2024-04-24_10h51.51.516,Experiment4_uns,s168,30.0,masculino,right,España,Español,Other,no,no,B,2,when,L2,unsyncopated,when,when,101,Online_whenL2//b.fe21.1332.wav,ñu,mi,go,sil,te,su,fe,sil1,me,cha,sil2,['catch'],[2.0982000000476546],[2.0982000000476546],1.332,no_beat,0.7662000000476545,0.7662000000476545,"[""space""]",fe,2,,,,,,,,,,,,,,,2.0,1.0,Catalán,7.0,Inglés,11.0,4.0,2.0,no,no,no,nada,, ,,,nada,65.0,yes
230,2024-04-24_10h51.51.516,Experiment4_uns,s168,30.0,masculino,right,España,Español,Other,no,no,B,2,when,L2,unsyncopated,when,when,102,Online_whenL2//b.fe20.1332.wav,cha,ño,du,sil,si,me,fe,sil1,te,mi,sil2,['catch'],[2.3306999999881555],[2.3306999999881555],1.332,no_beat,0.9986999999881554,0.9986999999881554,"[""space""]",fe,2,,,,,,,,,,,,,,,2.0,1.0,Catalán,7.0,Inglés,11.0,4.0,2.0,no,no,no,nada,, ,,,nada,65.0,yes
231,2024-04-24_10h51.51.516,Experiment4_uns,s168,30.0,masculino,right,España,Español,Other,no,no,B,2,when,L2,unsyncopated,when,when,103,Online_whenL2//b.fe23.none.wav,me,ba,du,sil,ra,to,bi,sil1,si,ñu,sil2,['-'],,,none,none,,,,fe,2,,,,,,,,,,,,,,,2.0,1.0,Catalán,7.0,Inglés,11.0,4.0,2.0,no,no,no,nada,, ,,,nada,65.0,yes
232,2024-04-24_10h51.51.516,Experiment4_uns,s168,30.0,masculino,right,España,Español,Other,no,no,B,2,when,L2,unsyncopated,when,when,104,Online_whenL2//b.fe27.888.wav,to,cha,su,sil,fe,me,go,sil1,ñu,ño,sil2,['catch'],[1.7991999999881045],[1.7991999999881045],0.888,beat,0.9111999999881044,0.9111999999881044,"[""space""]",fe,2,,,,,,,,,,,,,,,2.0,1.0,Catalán,7.0,Inglés,11.0,4.0,2.0,no,no,no,nada,, ,,,nada,65.0,yes
233,2024-04-24_10h51.51.516,Experiment4_uns,s168,30.0,masculino,right,España,Español,Other,no,no,B,2,when,L2,unsyncopated,when,when,105,Online_whenL2//b.fe24.888.wav,to,te,ñu,sil,fe,su,bi,sil1,du,mi,sil2,['miss'],,,0.888,beat,,,,fe,2,,,,,,,,,,,,,,,2.0,1.0,Catalán,7.0,Inglés,11.0,4.0,2.0,no,no,no,nada,, ,,,nada,65.0,yes
234,2024-04-24_10h51.51.516,Experiment4_uns,s168,30.0,masculino,right,España,Español,Other,no,no,B,2,when,L2,unsyncopated,when,when,106,Online_whenL2//b.fe25.888.wav,ba,me,mi,sil,fe,to,bi,sil1,ñu,du,sil2,['catch'],[1.8436999999880754],[1.8436999999880754],0.888,beat,0.9556999999880754,0.9556999999880754,"[""space""]",fe,2,,,,,,,,,,,,,,,2.0,1.0,Catalán,7.0,Inglés,11.0,4.0,2.0,no,no,no,nada,, ,,,nada,65.0,yes
235,2024-04-24_10h51.51.516,Experiment4_uns,s168,30.0,masculino,right,España,Español,Other,no,no,B,2,when,L2,unsyncopated,when,when,107,Online_whenL2//b.fe26.none.wav,ñu,te,ño,sil,go,mi,me,sil1,du,ba,sil2,['-'],,,none,none,,,,fe,2,,,,,,,,,,,,,,,2.0,1.0,Catalán,7.0,Inglés,11.0,4.0,2.0,no,no,no,nada,, ,,,nada,65.0,yes
236,2024-04-24_10h51.51.516,Experiment4_uns,s168,30.0,masculino,right,España,Español,Other,no,no,B,2,when,L2,unsyncopated,when,when,108,Online_whenL2//c.cha5.none.wav,bi,mi,to,sil,su,fe,te,sil1,du,si,sil2,"['false alarm', 'false alarm']","[0.26259999996409533, 1.95699999999988]",1.95699999999988,none,none,,,"[""space"",""space""]",cha,3,,,,,,,,,,,,,,,2.0,1.0,Catalán,7.0,Inglés,11.0,4.0,2.0,no,no,no,nada,, ,,,nada,65.0,yes
237,2024-04-24_10h51.51.516,Experiment4_uns,s168,30.0,masculino,right,España,Español,Other,no,no,B,2,when,L2,unsyncopated,when,when,109,Online_whenL2//c.cha7.none.wav,ba,to,bi,sil,ño,du,si,sil1,mi,fe,sil2,['-'],,,none,none,,,,cha,3,,,,,,,,,,,,,,,2.0,1.0,Catalán,7.0,Inglés,11.0,4.0,2.0,no,no,no,nada,, ,,,nada,65.0,yes
238,2024-04-24_10h51.51.516,Experiment4_uns,s168,30.0,masculino,right,España,Español,Other,no,no,B,2,when,L2,unsyncopated,when,when,110,Online_whenL2//c.cha4.222.wav,bi,cha,ñu,sil,su,mi,du,sil1,si,fe,sil2,['catch'],[0.7426000000239128],[0.7426000000239128],0.222,no_beat,0.5206000000239128,0.5206000000239128,"[""space""]",cha,3,,,,,,,,,,,,,,,2.0,1.0,Catalán,7.0,Inglés,11.0,4.0,2.0,no,no,no,nada,, ,,,nada,65.0,yes
239,2024-04-24_10h51.51.516,Experiment4_uns,s168,30.0,masculino,right,España,Español,Other,no,no,B,2,when,L2,unsyncopated,when,when,111,Online_whenL2//c.cha6.none.wav,ño,bi,su,sil,ñu,to,si,sil1,du,go,sil2,['-'],,,none,none,,,,cha,3,,,,,,,,,,,,,,,2.0,1.0,Catalán,7.0,Inglés,11.0,4.0,2.0,no,no,no,nada,, ,,,nada,65.0,yes
240,2024-04-24_10h51.51.516,Experiment4_uns,s168,30.0,masculino,right,España,Español,Other,no,no,B,2,when,L2,unsyncopated,when,when,112,Online_whenL2//b.fe15.none.wav,ño,su,to,sil,du,me,go,sil1,cha,mi,sil2,['-'],,,none,none,,,,fe,2,,,,,,,,,,,,,,,2.0,1.0,Catalán,7.0,Inglés,11.0,4.0,2.0,no,no,no,nada,, ,,,nada,65.0,yes
241,2024-04-24_10h51.51.516,Experiment4_uns,s168,30.0,masculino,right,España,Español,Other,no,no,B,2,when,L2,unsyncopated,when,when,113,Online_whenL2//b.fe12.none.wav,su,si,te,sil,cha,go,ñu,sil1,to,du,sil2,['-'],,,none,none,,,,fe,2,,,,,,,,,,,,,,,2.0,1.0,Catalán,7.0,Inglés,11.0,4.0,2.0,no,no,no,nada,, ,,,nada,65.0,yes
242,2024-04-24_10h51.51.516,Experiment4_uns,s168,30.0,masculino,right,España,Español,Other,no,no,B,2,when,L2,unsyncopated,when,when,114,Online_whenL2//b.fe14.none.wav,ra,du,ba,sil,to,bi,su,sil1,te,ñu,sil2,['-'],,,none,none,,,,fe,2,,,,,,,,,,,,,,,2.0,1.0,Catalán,7.0,Inglés,11.0,4.0,2.0,no,no,no,nada,, ,,,nada,65.0,yes
243,2024-04-24_10h51.51.516,Experiment4_uns,s168,30.0,masculino,right,España,Español,Other,no,no,B,2,when,L2,unsyncopated,when,when,115,Online_whenL2//b.fe13.none.wav,te,su,ra,sil,si,go,ba,sil1,me,mi,sil2,['-'],,,none,none,,,,fe,2,,,,,,,,,,,,,,,2.0,1.0,Catalán,7.0,Inglés,11.0,4.0,2.0,no,no,no,nada,, ,,,nada,65.0,yes
244,2024-04-24_10h51.51.516,Experiment4_uns,s168,30.0,masculino,right,España,Español,Other,no,no,B,2,when,L2,unsyncopated,when,when,116,Online_whenL2//c.cha3.1998.wav,te,to,bi,sil,du,ra,ño,sil1,su,cha,sil2,['catch_delay'],[1.0694000000358448],[1.0694000000358448],1.998,no_beat,1.0694000000358448,1.0694000000358448,,cha,3,,,,,,,,,,,,,,,2.0,1.0,Catalán,7.0,Inglés,11.0,4.0,2.0,no,no,no,nada,, ,,,nada,65.0,yes
245,2024-04-24_10h51.51.516,Experiment4_uns,s168,30.0,masculino,right,España,Español,Other,no,no,B,2,when,L2,unsyncopated,when,when,117,Online_whenL2//c.cha2.none.wav,si,me,ra,sil,bi,te,ño,sil1,go,to,sil2,['-'],[0.40340000003584464],[0.40340000003584464],none,none,,,"[""space""]",cha,3,,,,,,,,,,,,,,,2.0,1.0,Catalán,7.0,Inglés,11.0,4.0,2.0,no,no,no,nada,, ,,,nada,65.0,yes
246,2024-04-24_10h51.51.516,Experiment4_uns,s168,30.0,masculino,right,España,Español,Other,no,no,B,2,when,L2,unsyncopated,when,when,118,Online_whenL2//c.cha0.1332.wav,mi,ñu,bi,sil,fe,to,cha,sil1,ra,su,sil2,['catch'],[1.96550000000002],[1.96550000000002],1.332,no_beat,0.6335000000000199,0.6335000000000199,"[""space""]",cha,3,,,,,,,,,,,,,,,2.0,1.0,Catalán,7.0,Inglés,11.0,4.0,2.0,no,no,no,nada,, ,,,nada,65.0,yes
