Unnamed: 0,date,expName,participant,age,sex,hand,residence,native_lang,education_level,lang_deficit,aud_deficit,group,block,condition,language,rhythm,rule structure online,rule type online,order_trial_on,trial_online,s1,s2,s3,s4,s5,s6,s7,s8,s9,s10,s11,catch_syll_resp,rts_syll_catch,clean_rts,time_syll,beat_no_beat,catch_rtsTR,catch_rts,syllable_catch.keys,cond_syll,syll_to_catch,test_offline,block_off,condition_off,rhythm_off,rule,rule_str_off,rule_norule,conds_offline,language_off,Partz_no_partm.keys,Partz_no_partm.rt,security_1_7.keys,accuracy,security_1_7.rt,n_lang,n_lang_used,lang_1,age_l1,lang_2,age_l2,lang_3,age_l3,ability_learn_l2,tendence_mix_lan,music_experience,muisc_use,partiture,instr_1,age_M1,preguntas_musica1,BMRQ_answer.response,final comment,BMRQ_Score,bilingual
0,2024-04-24_23h28.07.112,Unsyncopated_study2,s191,20.0,feminino,right,España,Catalan y castellano,Bachelor degree,no,no,A,1,what,L3,unsyncopated,s2,r1,0,Online_whatL3//b.ñe.sa0.none.none.wav,ko,le,ji,sil2,chu,do,gu,sil,mo,fu,sil1,['-'],,,none,none,,,,sa,1,testWhatL3Uns//r1.s2.1.wav,1.0,what,unsyncopated,a,s2,rule,rule,L3,z,1.7676,7.0,1.0,7.7338,3.0,2.0,Catalan,0.0,Castellano,3.0,Ingles,6.0,1.0,1.0,yes,no,no,Flauta,13,1. Cuando comparto música con alguien siento una complicidad especial con aquella persona.,1.0,Me ha costado mucho encontrar diferencias entre las lenguas y tambien la fase 2,34.0,yes
1,2024-04-24_23h28.07.112,Unsyncopated_study2,s191,20.0,feminino,right,España,Catalan y castellano,Bachelor degree,no,no,A,1,what,L3,unsyncopated,s2,r1,1,Online_whatL3//b.ñe.sa2.none.none.wav,fu,ko,di,sil,chu,le,gu,sil2,mo,je,sil1,['-'],,,none,none,,,,sa,1,testWhatL3Uns//r1.s1.1.wav,1.0,what,unsyncopated,a,s1,rule,rule,L3,z,0.668,7.0,1.0,2.0038,3.0,2.0,Catalan,0.0,Castellano,3.0,Ingles,6.0,1.0,1.0,yes,no,no,Flauta,13,2. En mi tiempo libre apenas escucho música.,4.0,Me ha costado mucho encontrar diferencias entre las lenguas y tambien la fase 2,34.0,yes
2,2024-04-24_23h28.07.112,Unsyncopated_study2,s191,20.0,feminino,right,España,Catalan y castellano,Bachelor degree,no,no,A,1,what,L3,unsyncopated,s1,r2,2,Online_whatL3//b.ñe.sa1.0.888.wav,ñe,le,je,sil,sa,ka,ko,sil2,do,gu,sil1,['miss'],,,0.0,beat,,,,sa,1,testWhatL3Uns//time_viol.r2.s2.0.wav,1.0,what,unsyncopated,b,s2,no_rule,time,L3,z,0.8332,7.0,0.0,1.7306,3.0,2.0,Catalan,0.0,Castellano,3.0,Ingles,6.0,1.0,1.0,yes,no,no,Flauta,13,3. Algunas canciones me ponen los pelos de punta,3.0,Me ha costado mucho encontrar diferencias entre las lenguas y tambien la fase 2,34.0,yes
3,2024-04-24_23h28.07.112,Unsyncopated_study2,s191,20.0,feminino,right,España,Catalan y castellano,Bachelor degree,no,no,A,1,what,L3,unsyncopated,s2,r2,3,Online_whatL3//b.ñe.sa3.888.1776.wav,le,di,gu,sil,ñe,li,je,sil1,sa,ko,sil2,['miss'],,,0.888,beat,,,,sa,1,testWhatL3Uns//cat_viol.r2.s1.0.wav,1.0,what,unsyncopated,b,s1,no_rule,cat,L3,z,0.9297,7.0,0.0,1.1492,3.0,2.0,Catalan,0.0,Castellano,3.0,Ingles,6.0,1.0,1.0,yes,no,no,Flauta,13,4. La música me hace compañía cuando estoy solo,1.0,Me ha costado mucho encontrar diferencias entre las lenguas y tambien la fase 2,34.0,yes
4,2024-04-24_23h28.07.112,Unsyncopated_study2,s191,20.0,feminino,right,España,Catalan y castellano,Bachelor degree,no,no,A,1,what,L3,unsyncopated,s2,r1,4,Online_whatL3//d.ji.li15.222.444.wav,fu,ji,li,sil2,chu,je,ga,sil,mo,di,sil1,['miss'],,,0.222,no_beat,,,,li,4,testWhatL3Uns//dep_viol.r1.s1.0.wav,1.0,what,unsyncopated,a,s1,no_rule,dep,L3,z,1.2989,7.0,0.0,1.539,3.0,2.0,Catalan,0.0,Castellano,3.0,Ingles,6.0,1.0,1.0,yes,no,no,Flauta,13,5. No me apetece bailar ni con la música que más me gusta,4.0,Me ha costado mucho encontrar diferencias entre las lenguas y tambien la fase 2,34.0,yes
5,2024-04-24_23h28.07.112,Unsyncopated_study2,s191,20.0,feminino,right,España,Catalan y castellano,Bachelor degree,no,no,A,1,what,L3,unsyncopated,s2,r1,5,Online_whatL3//d.ji.li13.none.none.wav,ga,do,le,sil,chu,ko,ka,sil1,mo,di,sil2,['-'],,,none,none,,,,li,4,testWhatL3Uns//r2.s1.2.wav,1.0,what,unsyncopated,b,s1,rule,rule,L3,m,0.7585,2.0,0.0,2.9561,3.0,2.0,Catalan,0.0,Castellano,3.0,Ingles,6.0,1.0,1.0,yes,no,no,Flauta,13,6. La música me hace conectar con la gente,1.0,Me ha costado mucho encontrar diferencias entre las lenguas y tambien la fase 2,34.0,yes
6,2024-04-24_23h28.07.112,Unsyncopated_study2,s191,20.0,feminino,right,España,Catalan y castellano,Bachelor degree,no,no,A,1,what,L3,unsyncopated,s1,r1,6,Online_whatL3//d.ji.li14.222.1110.wav,chu,ji,ko,sil,mo,li,ga,sil2,do,di,sil1,['catch'],[0.9176000001434659],[0.9176000001434659],0.222,no_beat,0.6956000001434659,0.6956000001434659,"[""space""]",li,4,testWhatL3Uns//dep_viol.r1.s2.0.wav,1.0,what,unsyncopated,a,s2,no_rule,dep,L3,m,0.584,2.0,1.0,1.2743,3.0,2.0,Catalan,0.0,Castellano,3.0,Ingles,6.0,1.0,1.0,yes,no,no,Flauta,13,7. Me informo sobre la música que me gusta.,0.0,Me ha costado mucho encontrar diferencias entre las lenguas y tambien la fase 2,34.0,yes
7,2024-04-24_23h28.07.112,Unsyncopated_study2,s191,20.0,feminino,right,España,Catalan y castellano,Bachelor degree,no,no,A,1,what,L3,unsyncopated,s1,r1,7,Online_whatL3//d.ji.li12.none.none.wav,chu,je,fu,sil,mo,ga,le,sil2,di,gu,sil1,['-'],,,none,none,,,,li,4,testWhatL3Uns//r2.s1.1.wav,1.0,what,unsyncopated,b,s1,rule,rule,L3,z,1.0511,4.0,1.0,1.7314,3.0,2.0,Catalan,0.0,Castellano,3.0,Ingles,6.0,1.0,1.0,yes,no,no,Flauta,13,8.Me emociono escuchando ciertas canciones.,1.0,Me ha costado mucho encontrar diferencias entre las lenguas y tambien la fase 2,34.0,yes
8,2024-04-24_23h28.07.112,Unsyncopated_study2,s191,20.0,feminino,right,España,Catalan y castellano,Bachelor degree,no,no,A,1,what,L3,unsyncopated,s1,r1,8,Online_whatL3//a.chu.mo16.0.1110.wav,chu,ga,gu,sil2,mo,li,fu,sil,do,ka,sil1,['catch'],[1.7219999999997526],[1.7219999999997526],1.11,no_beat,0.6119999999997525,0.6119999999997525,"[""space""]",chu,2,testWhatL3Uns//r2.s1.0.wav,1.0,what,unsyncopated,b,s1,rule,rule,L3,m,2.5833,2.0,0.0,1.4567,3.0,2.0,Catalan,0.0,Castellano,3.0,Ingles,6.0,1.0,1.0,yes,no,no,Flauta,13,9.La música me tranquiliza y me relaja.,2.0,Me ha costado mucho encontrar diferencias entre las lenguas y tambien la fase 2,34.0,yes
9,2024-04-24_23h28.07.112,Unsyncopated_study2,s191,20.0,feminino,right,España,Catalan y castellano,Bachelor degree,no,no,A,1,what,L3,unsyncopated,s1,r1,9,Online_whatL3//a.chu.mo18.0.888.wav,chu,le,ko,sil,mo,ka,li,sil1,gu,je,sil2,['catch'],[1.7472999999522472],[1.7472999999522472],0.888,beat,0.8592999999522472,0.8592999999522472,"[""space""]",chu,2,testWhatL3Uns//cat_viol.r1.s1.0.wav,1.0,what,unsyncopated,a,s1,no_rule,cat,L3,z,1.6917,4.0,0.0,0.9593,3.0,2.0,Catalan,0.0,Castellano,3.0,Ingles,6.0,1.0,1.0,yes,no,no,Flauta,13,10.La música me hace bailar,1.0,Me ha costado mucho encontrar diferencias entre las lenguas y tambien la fase 2,34.0,yes
10,2024-04-24_23h28.07.112,Unsyncopated_study2,s191,20.0,feminino,right,España,Catalan y castellano,Bachelor degree,no,no,A,1,what,L3,unsyncopated,s2,r2,10,Online_whatL3//a.chu.mo19.none.none.wav,ga,gu,ji,sil,ñe,ko,je,sil2,sa,li,sil1,['-'],,,none,none,,,,chu,2,testWhatL3Uns//cat_viol.r1.s2.0.wav,1.0,what,unsyncopated,a,s2,no_rule,cat,L3,z,1.235,6.0,0.0,1.104,3.0,2.0,Catalan,0.0,Castellano,3.0,Ingles,6.0,1.0,1.0,yes,no,no,Flauta,13,11.Busco novedades musicales continuamente,1.0,Me ha costado mucho encontrar diferencias entre las lenguas y tambien la fase 2,34.0,yes
11,2024-04-24_23h28.07.112,Unsyncopated_study2,s191,20.0,feminino,right,España,Catalan y castellano,Bachelor degree,no,no,A,1,what,L3,unsyncopated,s2,r1,11,Online_whatL3//a.chu.mo17.888.1998.wav,je,le,ji,sil,chu,do,fu,sil2,mo,li,sil1,['catch'],[2.415599999904771],[2.415599999904771],1.998,no_beat,0.4175999999047708,0.4175999999047708,"[""space""]",chu,2,testWhatL3Uns//time_viol.r1.s1.0.wav,1.0,what,unsyncopated,a,s1,no_rule,time,L3,z,1.4828,6.0,0.0,0.8432,3.0,2.0,Catalan,0.0,Castellano,3.0,Ingles,6.0,1.0,1.0,yes,no,no,Flauta,13,12. Puedo llorar cuando escucho algunas melodías que me gustan mucho.,0.0,Me ha costado mucho encontrar diferencias entre las lenguas y tambien la fase 2,34.0,yes
12,2024-04-24_23h28.07.112,Unsyncopated_study2,s191,20.0,feminino,right,España,Catalan y castellano,Bachelor degree,no,no,A,1,what,L3,unsyncopated,s2,r1,12,Online_whatL3//d.ji.li8.none.none.wav,di,ko,do,sil,chu,ga,le,sil2,mo,je,sil1,['-'],,,none,none,,,,li,4,testWhatL3Uns//dep_viol.r2.s2.0.wav,1.0,what,unsyncopated,b,s2,no_rule,dep,L3,z,1.523,6.0,0.0,0.234,3.0,2.0,Catalan,0.0,Castellano,3.0,Ingles,6.0,1.0,1.0,yes,no,no,Flauta,13,13. Me gusta cantar o tocar un instrumento con más gente,0.0,Me ha costado mucho encontrar diferencias entre las lenguas y tambien la fase 2,34.0,yes
13,2024-04-24_23h28.07.112,Unsyncopated_study2,s191,20.0,feminino,right,España,Catalan y castellano,Bachelor degree,no,no,A,1,what,L3,unsyncopated,s2,r1,13,Online_whatL3//d.ji.li9.1554.444.wav,fu,ga,li,sil2,chu,gu,ji,sil,mo,do,sil1,['catch'],[2.261699999809025],[2.261699999809025],1.554,no_beat,0.707699999809025,0.707699999809025,"[""space""]",li,4,testWhatL3Uns//r1.s2.0.wav,1.0,what,unsyncopated,a,s2,rule,rule,L3,z,0.4069,6.0,1.0,0.6373,3.0,2.0,Catalan,0.0,Castellano,3.0,Ingles,6.0,1.0,1.0,yes,no,no,Flauta,13,14. La música me ayuda a desconectar.,3.0,Me ha costado mucho encontrar diferencias entre las lenguas y tambien la fase 2,34.0,yes
14,2024-04-24_23h28.07.112,Unsyncopated_study2,s191,20.0,feminino,right,España,Catalan y castellano,Bachelor degree,no,no,A,1,what,L3,unsyncopated,s2,r2,14,Online_whatL3//d.ji.li10.444.0.wav,li,le,ji,sil,ñe,do,di,sil1,sa,ga,sil2,['catch'],[1.0500999999048872],[1.0500999999048872],0.444,no_beat,0.6060999999048873,0.6060999999048873,"[""space""]",li,4,testWhatL3Uns//time_viol.r2.s1.0.wav,1.0,what,unsyncopated,b,s1,no_rule,time,L3,z,1.4311,6.0,0.0,1.0603,3.0,2.0,Catalan,0.0,Castellano,3.0,Ingles,6.0,1.0,1.0,yes,no,no,Flauta,13,15. No puedo evitar tararear las canciones que me gustan cuando las escucho.,3.0,Me ha costado mucho encontrar diferencias entre las lenguas y tambien la fase 2,34.0,yes
15,2024-04-24_23h28.07.112,Unsyncopated_study2,s191,20.0,feminino,right,España,Catalan y castellano,Bachelor degree,no,no,A,1,what,L3,unsyncopated,s2,r1,15,Online_whatL3//d.ji.li11.none.none.wav,fu,di,ka,sil2,chu,do,je,sil,mo,le,sil1,['-'],,,none,none,,,,li,4,testWhatL3Uns//r2.s2.0.wav,1.0,what,unsyncopated,b,s2,rule,rule,L3,z,2.6152,4.0,1.0,0.8726,3.0,2.0,Catalan,0.0,Castellano,3.0,Ingles,6.0,1.0,1.0,yes,no,no,Flauta,13,16. En los conciertos me siento en sintonía con los artistas y el público.,2.0,Me ha costado mucho encontrar diferencias entre las lenguas y tambien la fase 2,34.0,yes
16,2024-04-24_23h28.07.112,Unsyncopated_study2,s191,20.0,feminino,right,España,Catalan y castellano,Bachelor degree,no,no,A,1,what,L3,unsyncopated,s2,r2,16,Online_whatL3//c.gu.je22.0.444.wav,gu,li,je,sil2,ñe,ji,ko,sil,sa,ga,sil1,['miss'],,,0.0,beat,,,,je,3,testWhatL3Uns//r2.s2.1.wav,1.0,what,unsyncopated,b,s2,rule,rule,L3,m,0.6147,2.0,0.0,0.2702,3.0,2.0,Catalan,0.0,Castellano,3.0,Ingles,6.0,1.0,1.0,yes,no,no,Flauta,13,17. Me gasto bastante dinero en música y cosas relacionadas con la música.,0.0,Me ha costado mucho encontrar diferencias entre las lenguas y tambien la fase 2,34.0,yes
17,2024-04-24_23h28.07.112,Unsyncopated_study2,s191,20.0,feminino,right,España,Catalan y castellano,Bachelor degree,no,no,A,1,what,L3,unsyncopated,s2,r1,17,Online_whatL3//c.gu.je20.0.1110.wav,gu,li,ko,sil,chu,je,ga,sil2,mo,le,sil1,['catch'],[0.8047000000478874],[0.8047000000478874],0.0,beat,0.8047000000478874,0.8047000000478874,"[""space""]",je,3,testWhatL3Uns//cat_viol.r2.s2.0.wav,1.0,what,unsyncopated,b,s2,no_rule,cat,L3,m,0.7863,3.0,1.0,0.3213,3.0,2.0,Catalan,0.0,Castellano,3.0,Ingles,6.0,1.0,1.0,yes,no,no,Flauta,13,18. Siento escalofríos cuando escucho una melodía que me gusta.,3.0,Me ha costado mucho encontrar diferencias entre las lenguas y tambien la fase 2,34.0,yes
18,2024-04-24_23h28.07.112,Unsyncopated_study2,s191,20.0,feminino,right,España,Catalan y castellano,Bachelor degree,no,no,A,1,what,L3,unsyncopated,s1,r1,18,Online_whatL3//c.gu.je21.1332.444.wav,chu,li,je,sil,mo,ka,gu,sil1,do,ga,sil2,['miss'],,,1.332,no_beat,,,,je,3,testWhatL3Uns//r1.s1.2.wav,1.0,what,unsyncopated,a,s1,rule,rule,L3,m,0.6242,3.0,0.0,0.2916,3.0,2.0,Catalan,0.0,Castellano,3.0,Ingles,6.0,1.0,1.0,yes,no,no,Flauta,13,19. Con la música me puedo desahogar.,1.0,Me ha costado mucho encontrar diferencias entre las lenguas y tambien la fase 2,34.0,yes
19,2024-04-24_23h28.07.112,Unsyncopated_study2,s191,20.0,feminino,right,España,Catalan y castellano,Bachelor degree,no,no,A,1,what,L3,unsyncopated,s1,r2,19,Online_whatL3//c.gu.je23.222.1110.wav,ñe,gu,li,sil,sa,je,do,sil2,ka,ko,sil1,['miss'],,,0.222,no_beat,,,,je,3,testWhatL3Uns//r1.s1.0.wav,1.0,what,unsyncopated,a,s1,rule,rule,L3,m,0.8338,3.0,0.0,0.3318,3.0,2.0,Catalan,0.0,Castellano,3.0,Ingles,6.0,1.0,1.0,yes,no,no,Flauta,13,20. Cuando escucho una melodía que me gusta mucho no puedo evitar mover el cuerpo.,3.0,Me ha costado mucho encontrar diferencias entre las lenguas y tambien la fase 2,34.0,yes
20,2024-04-24_23h28.07.112,Unsyncopated_study2,s191,20.0,feminino,right,España,Catalan y castellano,Bachelor degree,no,no,A,1,what,L3,unsyncopated,s1,r1,20,Online_whatL3//b.ñe.sa6.none.none.wav,chu,ji,gu,sil,mo,li,fu,sil2,ka,do,sil1,['-'],,,none,none,,,,sa,1,testWhatL3Uns//time_viol.r1.s2.0.wav,1.0,what,unsyncopated,a,s2,no_rule,time,L3,m,1.8805,2.0,1.0,0.4316,3.0,2.0,Catalan,0.0,Castellano,3.0,Ingles,6.0,1.0,1.0,yes,no,no,Flauta,13,,,Me ha costado mucho encontrar diferencias entre las lenguas y tambien la fase 2,34.0,yes
21,2024-04-24_23h28.07.112,Unsyncopated_study2,s191,20.0,feminino,right,España,Catalan y castellano,Bachelor degree,no,no,A,1,what,L3,unsyncopated,s2,r2,21,Online_whatL3//b.ñe.sa5.888.1998.wav,di,je,do,sil,ñe,gu,li,sil2,sa,le,sil1,['catch'],[1.6397999999521744],[1.6397999999521744],0.888,beat,0.7517999999521744,0.7517999999521744,"[""space""]",sa,1,testWhatL3Uns//r1.s2.2.wav,1.0,what,unsyncopated,a,s2,rule,rule,L3,z,1.0331,7.0,1.0,0.7021,3.0,2.0,Catalan,0.0,Castellano,3.0,Ingles,6.0,1.0,1.0,yes,no,no,Flauta,13,,,Me ha costado mucho encontrar diferencias entre las lenguas y tambien la fase 2,34.0,yes
22,2024-04-24_23h28.07.112,Unsyncopated_study2,s191,20.0,feminino,right,España,Catalan y castellano,Bachelor degree,no,no,A,1,what,L3,unsyncopated,s1,r1,22,Online_whatL3//b.ñe.sa4.none.none.wav,chu,ka,le,sil,mo,je,ga,sil1,do,ji,sil2,['-'],,,none,none,,,,sa,1,testWhatL3Uns//r2.s2.2.wav,1.0,what,unsyncopated,b,s2,rule,rule,L3,m,0.6535,1.0,0.0,0.6223,3.0,2.0,Catalan,0.0,Castellano,3.0,Ingles,6.0,1.0,1.0,yes,no,no,Flauta,13,,,Me ha costado mucho encontrar diferencias entre las lenguas y tambien la fase 2,34.0,yes
23,2024-04-24_23h28.07.112,Unsyncopated_study2,s191,20.0,feminino,right,España,Catalan y castellano,Bachelor degree,no,no,A,1,what,L3,unsyncopated,s2,r1,23,Online_whatL3//b.ñe.sa7.none.none.wav,gu,di,le,sil,chu,ga,ka,sil1,mo,ko,sil2,['-'],,,none,none,,,,sa,1,testWhatL3Uns//dep_viol.r2.s1.0.wav,1.0,what,unsyncopated,b,s1,no_rule,dep,L3,m,1.097,1.0,1.0,0.2672,3.0,2.0,Catalan,0.0,Castellano,3.0,Ingles,6.0,1.0,1.0,yes,no,no,Flauta,13,,,Me ha costado mucho encontrar diferencias entre las lenguas y tambien la fase 2,34.0,yes
24,2024-04-24_23h28.07.112,Unsyncopated_study2,s191,20.0,feminino,right,España,Catalan y castellano,Bachelor degree,no,no,A,1,what,L3,unsyncopated,s1,r2,24,Online_whatL3//a.chu.mo4.none.none.wav,ñe,le,gu,sil2,sa,ji,je,sil,ga,li,sil1,['-'],,,none,none,,,,chu,2,testConjL1Syn//time_viol.r1.s1.0.wav,2.0,conjunction_syn,syncopated,a,s1,no_rule,time,L1,z,1.4901,7.0,0.0,0.7543,3.0,2.0,Catalan,0.0,Castellano,3.0,Ingles,6.0,1.0,1.0,yes,no,no,Flauta,13,,,Me ha costado mucho encontrar diferencias entre las lenguas y tambien la fase 2,34.0,yes
25,2024-04-24_23h28.07.112,Unsyncopated_study2,s191,20.0,feminino,right,España,Catalan y castellano,Bachelor degree,no,no,A,1,what,L3,unsyncopated,s2,r2,25,Online_whatL3//a.chu.mo5.none.none.wav,ga,ka,li,sil2,ñe,gu,le,sil,sa,di,sil1,['-'],,,none,none,,,,chu,2,testConjL1Syn//r1.s1.0.wav,2.0,conjunction_syn,syncopated,a,s1,rule,rule,L1,z,0.2847,7.0,1.0,0.1927,3.0,2.0,Catalan,0.0,Castellano,3.0,Ingles,6.0,1.0,1.0,yes,no,no,Flauta,13,,,Me ha costado mucho encontrar diferencias entre las lenguas y tambien la fase 2,34.0,yes
26,2024-04-24_23h28.07.112,Unsyncopated_study2,s191,20.0,feminino,right,España,Catalan y castellano,Bachelor degree,no,no,A,1,what,L3,unsyncopated,s2,r1,26,Online_whatL3//a.chu.mo6.888.1776.wav,do,ko,ka,sil,chu,fu,gu,sil1,mo,ga,sil2,['catch'],[2.3831000001432585],[2.3831000001432585],1.776,beat,0.6071000001432585,0.6071000001432585,"[""space""]",chu,2,testConjL1Syn//dep_viol.r2.s1.0.wav,2.0,conjunction_syn,syncopated,b,s1,no_rule,dep,L1,z,0.2764,7.0,0.0,0.2318,3.0,2.0,Catalan,0.0,Castellano,3.0,Ingles,6.0,1.0,1.0,yes,no,no,Flauta,13,,,Me ha costado mucho encontrar diferencias entre las lenguas y tambien la fase 2,34.0,yes
27,2024-04-24_23h28.07.112,Unsyncopated_study2,s191,20.0,feminino,right,España,Catalan y castellano,Bachelor degree,no,no,A,1,what,L3,unsyncopated,s1,r1,27,Online_whatL3//a.chu.mo7.0.888.wav,chu,ka,do,sil,mo,le,je,sil1,li,fu,sil2,['catch'],[1.389900000095622],[1.389900000095622],0.888,beat,0.5019000000956221,0.5019000000956221,"[""space""]",chu,2,testConjL1Syn//time_viol.r2.s1.0.wav,2.0,conjunction_syn,syncopated,b,s1,no_rule,time,L1,z,0.2836,7.0,0.0,0.2189,3.0,2.0,Catalan,0.0,Castellano,3.0,Ingles,6.0,1.0,1.0,yes,no,no,Flauta,13,,,Me ha costado mucho encontrar diferencias entre las lenguas y tambien la fase 2,34.0,yes
28,2024-04-24_23h28.07.112,Unsyncopated_study2,s191,20.0,feminino,right,España,Catalan y castellano,Bachelor degree,no,no,A,1,what,L3,unsyncopated,s2,r1,28,Online_whatL3//a.chu.mo12.1110.1998.wav,gu,do,le,sil2,chu,ko,ji,sil,mo,li,sil1,['miss'],,,1.998,no_beat,,,,chu,2,testConjL1Syn//r2.s2.1.wav,2.0,conjunction_syn,syncopated,b,s2,rule,rule,L1,z,0.3507,7.0,1.0,0.4717,3.0,2.0,Catalan,0.0,Castellano,3.0,Ingles,6.0,1.0,1.0,yes,no,no,Flauta,13,,,Me ha costado mucho encontrar diferencias entre las lenguas y tambien la fase 2,34.0,yes
29,2024-04-24_23h28.07.112,Unsyncopated_study2,s191,20.0,feminino,right,España,Catalan y castellano,Bachelor degree,no,no,A,1,what,L3,unsyncopated,s2,r2,29,Online_whatL3//a.chu.mo13.none.none.wav,ko,ka,li,sil2,ñe,fu,gu,sil,sa,ji,sil1,['-'],,,none,none,,,,chu,2,testConjL1Syn//r2.s2.0.wav,2.0,conjunction_syn,syncopated,b,s2,rule,rule,L1,z,0.9859,7.0,1.0,0.2217,3.0,2.0,Catalan,0.0,Castellano,3.0,Ingles,6.0,1.0,1.0,yes,no,no,Flauta,13,,,Me ha costado mucho encontrar diferencias entre las lenguas y tambien la fase 2,34.0,yes
30,2024-04-24_23h28.07.112,Unsyncopated_study2,s191,20.0,feminino,right,España,Catalan y castellano,Bachelor degree,no,no,A,1,what,L3,unsyncopated,s1,r2,30,Online_whatL3//a.chu.mo15.none.none.wav,ñe,gu,li,sil,sa,ko,ji,sil2,je,ka,sil1,['-'],,,none,none,,,,chu,2,testConjL1Syn//r2.s2.2.wav,2.0,conjunction_syn,syncopated,b,s2,rule,rule,L1,z,0.3076,6.0,1.0,0.1537,3.0,2.0,Catalan,0.0,Castellano,3.0,Ingles,6.0,1.0,1.0,yes,no,no,Flauta,13,,,Me ha costado mucho encontrar diferencias entre las lenguas y tambien la fase 2,34.0,yes
31,2024-04-24_23h28.07.112,Unsyncopated_study2,s191,20.0,feminino,right,España,Catalan y castellano,Bachelor degree,no,no,A,1,what,L3,unsyncopated,s1,r1,31,Online_whatL3//a.chu.mo14.0.888.wav,chu,fu,do,sil,mo,ko,je,sil2,ga,ji,sil1,['catch'],[1.534299999952509],[1.534299999952509],0.888,beat,0.6462999999525091,0.6462999999525091,"[""space""]",chu,2,testConjL1Syn//time_viol.r2.s2.0.wav,2.0,conjunction_syn,syncopated,b,s2,no_rule,time,L1,z,0.3369,6.0,0.0,1.1824,3.0,2.0,Catalan,0.0,Castellano,3.0,Ingles,6.0,1.0,1.0,yes,no,no,Flauta,13,,,Me ha costado mucho encontrar diferencias entre las lenguas y tambien la fase 2,34.0,yes
32,2024-04-24_23h28.07.112,Unsyncopated_study2,s191,20.0,feminino,right,España,Catalan y castellano,Bachelor degree,no,no,A,1,what,L3,unsyncopated,s1,r2,32,Online_whatL3//b.ñe.sa9.0.1110.wav,ñe,fu,di,sil2,sa,ka,le,sil,li,je,sil1,['miss'],,,0.0,beat,,,,sa,1,testConjL1Syn//time_viol.r1.s2.0.wav,2.0,conjunction_syn,syncopated,a,s2,no_rule,time,L1,m,2.5318,2.0,1.0,0.5318,3.0,2.0,Catalan,0.0,Castellano,3.0,Ingles,6.0,1.0,1.0,yes,no,no,Flauta,13,,,Me ha costado mucho encontrar diferencias entre las lenguas y tambien la fase 2,34.0,yes
33,2024-04-24_23h28.07.112,Unsyncopated_study2,s191,20.0,feminino,right,España,Catalan y castellano,Bachelor degree,no,no,A,1,what,L3,unsyncopated,s2,r2,33,Online_whatL3//b.ñe.sa10.1110.1998.wav,ga,le,gu,sil2,ñe,di,li,sil,sa,ji,sil1,['catch'],[1.8168999998565596],[1.8168999998565596],1.11,no_beat,0.7068999998565595,0.7068999998565595,"[""space""]",sa,1,testConjL1Syn//dep_viol.r1.s1.0.wav,2.0,conjunction_syn,syncopated,a,s1,no_rule,dep,L1,z,1.6713,6.0,0.0,0.4026,3.0,2.0,Catalan,0.0,Castellano,3.0,Ingles,6.0,1.0,1.0,yes,no,no,Flauta,13,,,Me ha costado mucho encontrar diferencias entre las lenguas y tambien la fase 2,34.0,yes
34,2024-04-24_23h28.07.112,Unsyncopated_study2,s191,20.0,feminino,right,España,Catalan y castellano,Bachelor degree,no,no,A,1,what,L3,unsyncopated,s2,r2,34,Online_whatL3//b.ñe.sa11.1110.1998.wav,li,ko,ka,sil2,ñe,je,ji,sil,sa,fu,sil1,['catch'],[2.2242000000474036],[2.2242000000474036],1.11,no_beat,1.1142000000474035,1.1142000000474035,"[""space""]",sa,1,testConjL1Syn//r1.s2.2.wav,2.0,conjunction_syn,syncopated,a,s2,rule,rule,L1,z,1.3467,6.0,1.0,1.1361,3.0,2.0,Catalan,0.0,Castellano,3.0,Ingles,6.0,1.0,1.0,yes,no,no,Flauta,13,,,Me ha costado mucho encontrar diferencias entre las lenguas y tambien la fase 2,34.0,yes
35,2024-04-24_23h28.07.112,Unsyncopated_study2,s191,20.0,feminino,right,España,Catalan y castellano,Bachelor degree,no,no,A,1,what,L3,unsyncopated,s2,r2,35,Online_whatL3//b.ñe.sa8.1110.1998.wav,li,do,di,sil2,ñe,gu,ji,sil,sa,je,sil1,['miss'],,,1.11,no_beat,,,,sa,1,testConjL1Syn//r1.s1.2.wav,2.0,conjunction_syn,syncopated,a,s1,rule,rule,L1,z,0.9838,5.0,1.0,0.942,3.0,2.0,Catalan,0.0,Castellano,3.0,Ingles,6.0,1.0,1.0,yes,no,no,Flauta,13,,,Me ha costado mucho encontrar diferencias entre las lenguas y tambien la fase 2,34.0,yes
36,2024-04-24_23h28.07.112,Unsyncopated_study2,s191,20.0,feminino,right,España,Catalan y castellano,Bachelor degree,no,no,A,1,what,L3,unsyncopated,s2,r2,36,Online_whatL3//c.gu.je4.1110.222.wav,do,je,di,sil,ñe,gu,ji,sil1,sa,le,sil2,['miss'],,,1.11,no_beat,,,,je,3,testConjL1Syn//cat_viol.r1.s2.0.wav,2.0,conjunction_syn,syncopated,a,s2,no_rule,cat,L1,z,0.4266,5.0,0.0,0.1657,3.0,2.0,Catalan,0.0,Castellano,3.0,Ingles,6.0,1.0,1.0,yes,no,no,Flauta,13,,,Me ha costado mucho encontrar diferencias entre las lenguas y tambien la fase 2,34.0,yes
37,2024-04-24_23h28.07.112,Unsyncopated_study2,s191,20.0,feminino,right,España,Catalan y castellano,Bachelor degree,no,no,A,1,what,L3,unsyncopated,s2,r2,37,Online_whatL3//c.gu.je7.none.none.wav,ga,li,do,sil,ñe,ka,ko,sil1,sa,le,sil2,['-'],,,none,none,,,,je,3,testConjL1Syn//r2.s1.2.wav,2.0,conjunction_syn,syncopated,b,s1,rule,rule,L1,z,0.4023,6.0,1.0,0.1259,3.0,2.0,Catalan,0.0,Castellano,3.0,Ingles,6.0,1.0,1.0,yes,no,no,Flauta,13,,,Me ha costado mucho encontrar diferencias entre las lenguas y tambien la fase 2,34.0,yes
38,2024-04-24_23h28.07.112,Unsyncopated_study2,s191,20.0,feminino,right,España,Catalan y castellano,Bachelor degree,no,no,A,1,what,L3,unsyncopated,s2,r1,38,Online_whatL3//c.gu.je5.none.none.wav,do,di,ji,sil,chu,li,ka,sil1,mo,le,sil2,['-'],,,none,none,,,,je,3,testConjL1Syn//cat_viol.r2.s2.0.wav,2.0,conjunction_syn,syncopated,b,s2,no_rule,cat,L1,z,1.0994,6.0,0.0,0.1237,3.0,2.0,Catalan,0.0,Castellano,3.0,Ingles,6.0,1.0,1.0,yes,no,no,Flauta,13,,,Me ha costado mucho encontrar diferencias entre las lenguas y tambien la fase 2,34.0,yes
39,2024-04-24_23h28.07.112,Unsyncopated_study2,s191,20.0,feminino,right,España,Catalan y castellano,Bachelor degree,no,no,A,1,what,L3,unsyncopated,s1,r1,39,Online_whatL3//c.gu.je6.222.444.wav,chu,gu,je,sil2,mo,fu,ko,sil,ji,ka,sil1,['catch'],[2.3112000000478474],[2.3112000000478474],0.222,no_beat,,2.0892000000478474,"[""space""]",je,3,testConjL1Syn//r1.s2.1.wav,2.0,conjunction_syn,syncopated,a,s2,rule,rule,L1,m,0.3398,2.0,0.0,0.1347,3.0,2.0,Catalan,0.0,Castellano,3.0,Ingles,6.0,1.0,1.0,yes,no,no,Flauta,13,,,Me ha costado mucho encontrar diferencias entre las lenguas y tambien la fase 2,34.0,yes
40,2024-04-24_23h28.07.112,Unsyncopated_study2,s191,20.0,feminino,right,España,Catalan y castellano,Bachelor degree,no,no,A,1,what,L3,unsyncopated,s1,r1,40,Online_whatL3//a.chu.mo30.0.888.wav,chu,ko,li,sil,mo,gu,le,sil2,je,fu,sil1,['catch'],[1.359900000095422],[1.359900000095422],0.888,beat,0.471900000095422,0.471900000095422,"[""space""]",chu,2,testConjL1Syn//r2.s1.1.wav,2.0,conjunction_syn,syncopated,b,s1,rule,rule,L1,z,4.7305,6.0,1.0,0.5033,3.0,2.0,Catalan,0.0,Castellano,3.0,Ingles,6.0,1.0,1.0,yes,no,no,Flauta,13,,,Me ha costado mucho encontrar diferencias entre las lenguas y tambien la fase 2,34.0,yes
41,2024-04-24_23h28.07.112,Unsyncopated_study2,s191,20.0,feminino,right,España,Catalan y castellano,Bachelor degree,no,no,A,1,what,L3,unsyncopated,s2,r2,41,Online_whatL3//a.chu.mo31.none.none.wav,ka,di,ko,sil,ñe,ji,fu,sil1,sa,le,sil2,['-'],,,none,none,,,,chu,2,testConjL1Syn//r1.s2.0.wav,2.0,conjunction_syn,syncopated,a,s2,rule,rule,L1,m,1.3152,3.0,0.0,0.4593,3.0,2.0,Catalan,0.0,Castellano,3.0,Ingles,6.0,1.0,1.0,yes,no,no,Flauta,13,,,Me ha costado mucho encontrar diferencias entre las lenguas y tambien la fase 2,34.0,yes
42,2024-04-24_23h28.07.112,Unsyncopated_study2,s191,20.0,feminino,right,España,Catalan y castellano,Bachelor degree,no,no,A,1,what,L3,unsyncopated,s2,r2,42,Online_whatL3//a.chu.mo28.none.none.wav,di,do,ka,sil,ñe,ko,ji,sil1,sa,fu,sil2,['-'],,,none,none,,,,chu,2,testConjL1Syn//r1.s1.1.wav,2.0,conjunction_syn,syncopated,a,s1,rule,rule,L1,m,0.4041,4.0,0.0,0.0822,3.0,2.0,Catalan,0.0,Castellano,3.0,Ingles,6.0,1.0,1.0,yes,no,no,Flauta,13,,,Me ha costado mucho encontrar diferencias entre las lenguas y tambien la fase 2,34.0,yes
43,2024-04-24_23h28.07.112,Unsyncopated_study2,s191,20.0,feminino,right,España,Catalan y castellano,Bachelor degree,no,no,A,1,what,L3,unsyncopated,s1,r2,43,Online_whatL3//a.chu.mo29.none.none.wav,ñe,do,di,sil,sa,gu,ko,sil1,le,ka,sil2,['-'],,,none,none,,,,chu,2,testConjL1Syn//dep_viol.r2.s2.0.wav,2.0,conjunction_syn,syncopated,b,s2,no_rule,dep,L1,m,0.4034,4.0,1.0,0.1171,3.0,2.0,Catalan,0.0,Castellano,3.0,Ingles,6.0,1.0,1.0,yes,no,no,Flauta,13,,,Me ha costado mucho encontrar diferencias entre las lenguas y tambien la fase 2,34.0,yes
44,2024-04-24_23h28.07.112,Unsyncopated_study2,s191,20.0,feminino,right,España,Catalan y castellano,Bachelor degree,no,no,A,1,what,L3,unsyncopated,s2,r1,44,Online_whatL3//b.ñe.sa28.none.none.wav,do,gu,le,sil2,chu,ka,ga,sil,mo,je,sil1,['false alarm'],[0.5900999999048508],[0.5900999999048508],none,none,,,"[""space""]",sa,1,testConjL1Syn//dep_viol.r1.s2.0.wav,2.0,conjunction_syn,syncopated,a,s2,no_rule,dep,L1,z,1.4365,4.0,0.0,1.3829,3.0,2.0,Catalan,0.0,Castellano,3.0,Ingles,6.0,1.0,1.0,yes,no,no,Flauta,13,,,Me ha costado mucho encontrar diferencias entre las lenguas y tambien la fase 2,34.0,yes
45,2024-04-24_23h28.07.112,Unsyncopated_study2,s191,20.0,feminino,right,España,Catalan y castellano,Bachelor degree,no,no,A,1,what,L3,unsyncopated,s1,r1,45,Online_whatL3//b.ñe.sa29.none.none.wav,chu,le,ga,sil,mo,fu,di,sil2,ji,ko,sil1,['-'],,,none,none,,,,sa,1,testConjL1Syn//cat_viol.r1.s1.0.wav,2.0,conjunction_syn,syncopated,a,s1,no_rule,cat,L1,m,3.3812,3.0,1.0,0.8828,3.0,2.0,Catalan,0.0,Castellano,3.0,Ingles,6.0,1.0,1.0,yes,no,no,Flauta,13,,,Me ha costado mucho encontrar diferencias entre las lenguas y tambien la fase 2,34.0,yes
46,2024-04-24_23h28.07.112,Unsyncopated_study2,s191,20.0,feminino,right,España,Catalan y castellano,Bachelor degree,no,no,A,1,what,L3,unsyncopated,s2,r2,46,Online_whatL3//b.ñe.sa30.888.1998.wav,li,do,ko,sil,ñe,ka,ji,sil2,sa,fu,sil1,['miss'],,,0.888,beat,,,,sa,1,testConjL1Syn//cat_viol.r2.s1.0.wav,2.0,conjunction_syn,syncopated,b,s1,no_rule,cat,L1,m,0.8154,6.0,1.0,0.3912,3.0,2.0,Catalan,0.0,Castellano,3.0,Ingles,6.0,1.0,1.0,yes,no,no,Flauta,13,,,Me ha costado mucho encontrar diferencias entre las lenguas y tambien la fase 2,34.0,yes
47,2024-04-24_23h28.07.112,Unsyncopated_study2,s191,20.0,feminino,right,España,Catalan y castellano,Bachelor degree,no,no,A,1,what,L3,unsyncopated,s1,r1,47,Online_whatL3//b.ñe.sa31.none.none.wav,chu,ji,fu,sil,mo,li,le,sil1,ka,ko,sil2,['-'],,,none,none,,,,sa,1,testConjL1Syn//r2.s1.0.wav,2.0,conjunction_syn,syncopated,b,s1,rule,rule,L1,m,0.8848,5.0,0.0,0.6239,3.0,2.0,Catalan,0.0,Castellano,3.0,Ingles,6.0,1.0,1.0,yes,no,no,Flauta,13,,,Me ha costado mucho encontrar diferencias entre las lenguas y tambien la fase 2,34.0,yes
48,2024-04-24_23h28.07.112,Unsyncopated_study2,s191,20.0,feminino,right,España,Catalan y castellano,Bachelor degree,no,no,A,1,what,L3,unsyncopated,s1,r2,48,Online_whatL3//b.ñe.sa25.0.888.wav,ñe,di,do,sil,sa,ko,le,sil2,gu,ka,sil1,['catch'],[1.8682000000476364],[1.8682000000476364],0.0,beat,,1.8682000000476364,"[""space""]",sa,1,testWhenL4Uns//time_viol.r2.s1.0.wav,3.0,when,unsyncopated,b,s1,no_rule,time,L4,z,1.287,7.0,1.0,0.8409,3.0,2.0,Catalan,0.0,Castellano,3.0,Ingles,6.0,1.0,1.0,yes,no,no,Flauta,13,,,Me ha costado mucho encontrar diferencias entre las lenguas y tambien la fase 2,34.0,yes
49,2024-04-24_23h28.07.112,Unsyncopated_study2,s191,20.0,feminino,right,España,Catalan y castellano,Bachelor degree,no,no,A,1,what,L3,unsyncopated,s1,r1,49,Online_whatL3//b.ñe.sa26.none.none.wav,chu,di,ga,sil,mo,li,le,sil2,ka,ko,sil1,['-'],,,none,none,,,,sa,1,testWhenL4Uns//dep_viol.r2.s1.0.wav,3.0,when,unsyncopated,b,s1,no_rule,dep,L4,z,0.4152,7.0,1.0,0.2003,3.0,2.0,Catalan,0.0,Castellano,3.0,Ingles,6.0,1.0,1.0,yes,no,no,Flauta,13,,,Me ha costado mucho encontrar diferencias entre las lenguas y tambien la fase 2,34.0,yes
50,2024-04-24_23h28.07.112,Unsyncopated_study2,s191,20.0,feminino,right,España,Catalan y castellano,Bachelor degree,no,no,A,1,what,L3,unsyncopated,s2,r2,50,Online_whatL3//b.ñe.sa27.1110.1998.wav,ga,je,fu,sil2,ñe,li,gu,sil,sa,ka,sil1,['miss'],,,1.11,no_beat,,,,sa,1,testWhenL4Uns//r2.s1.2.wav,3.0,when,unsyncopated,b,s1,rule,rule,L4,z,0.7226,7.0,1.0,0.5533,3.0,2.0,Catalan,0.0,Castellano,3.0,Ingles,6.0,1.0,1.0,yes,no,no,Flauta,13,,,Me ha costado mucho encontrar diferencias entre las lenguas y tambien la fase 2,34.0,yes
51,2024-04-24_23h28.07.112,Unsyncopated_study2,s191,20.0,feminino,right,España,Catalan y castellano,Bachelor degree,no,no,A,1,what,L3,unsyncopated,s1,r2,51,Online_whatL3//b.ñe.sa24.0.888.wav,ñe,je,ga,sil,sa,di,ji,sil1,li,ka,sil2,['catch'],[0.4318000001908331],[0.4318000001908331],0.0,beat,0.4318000001908331,0.4318000001908331,"[""space""]",sa,1,testWhenL4Uns//dep_viol.r1.s1.0.wav,3.0,when,unsyncopated,a,s1,no_rule,dep,L4,z,0.6866,6.0,1.0,0.4268,3.0,2.0,Catalan,0.0,Castellano,3.0,Ingles,6.0,1.0,1.0,yes,no,no,Flauta,13,,,Me ha costado mucho encontrar diferencias entre las lenguas y tambien la fase 2,34.0,yes
52,2024-04-24_23h28.07.112,Unsyncopated_study2,s191,20.0,feminino,right,España,Catalan y castellano,Bachelor degree,no,no,A,1,what,L3,unsyncopated,s1,r1,52,Online_whatL3//d.ji.li26.none.none.wav,chu,gu,je,sil,mo,di,do,sil1,ka,ga,sil2,['-'],,,none,none,,,,li,4,testWhenL4Uns//time_viol.r2.s2.0.wav,3.0,when,unsyncopated,b,s2,no_rule,time,L4,z,0.3316,6.0,1.0,0.2167,3.0,2.0,Catalan,0.0,Castellano,3.0,Ingles,6.0,1.0,1.0,yes,no,no,Flauta,13,,,Me ha costado mucho encontrar diferencias entre las lenguas y tambien la fase 2,34.0,yes
53,2024-04-24_23h28.07.112,Unsyncopated_study2,s191,20.0,feminino,right,España,Catalan y castellano,Bachelor degree,no,no,A,1,what,L3,unsyncopated,s1,r1,53,Online_whatL3//d.ji.li24.1332.1554.wav,chu,di,ko,sil2,mo,ji,li,sil,do,gu,sil1,['miss'],,,1.332,no_beat,,,,li,4,testWhenL4Uns//r1.s2.1.wav,3.0,when,unsyncopated,a,s2,rule,rule,L4,m,2.1882,3.0,0.0,0.677,3.0,2.0,Catalan,0.0,Castellano,3.0,Ingles,6.0,1.0,1.0,yes,no,no,Flauta,13,,,Me ha costado mucho encontrar diferencias entre las lenguas y tambien la fase 2,34.0,yes
54,2024-04-24_23h28.07.112,Unsyncopated_study2,s191,20.0,feminino,right,España,Catalan y castellano,Bachelor degree,no,no,A,1,what,L3,unsyncopated,s2,r1,54,Online_whatL3//d.ji.li27.222.1110.wav,gu,ji,do,sil,chu,li,ga,sil1,mo,fu,sil2,['miss'],,,0.222,no_beat,,,,li,4,testWhenL4Uns//cat_viol.r1.s2.0.wav,3.0,when,unsyncopated,a,s2,no_rule,cat,L4,m,0.4531,3.0,0.0,0.4009,3.0,2.0,Catalan,0.0,Castellano,3.0,Ingles,6.0,1.0,1.0,yes,no,no,Flauta,13,,,Me ha costado mucho encontrar diferencias entre las lenguas y tambien la fase 2,34.0,yes
55,2024-04-24_23h28.07.112,Unsyncopated_study2,s191,20.0,feminino,right,España,Catalan y castellano,Bachelor degree,no,no,A,1,what,L3,unsyncopated,s1,r2,55,Online_whatL3//d.ji.li25.none.none.wav,ñe,gu,ko,sil2,sa,ka,le,sil,do,ga,sil1,['-'],,,none,none,,,,li,4,testWhenL4Uns//r2.s2.1.wav,3.0,when,unsyncopated,b,s2,rule,rule,L4,m,0.7335,5.0,0.0,0.175,3.0,2.0,Catalan,0.0,Castellano,3.0,Ingles,6.0,1.0,1.0,yes,no,no,Flauta,13,,,Me ha costado mucho encontrar diferencias entre las lenguas y tambien la fase 2,34.0,yes
56,2024-04-24_23h28.07.112,Unsyncopated_study2,s191,20.0,feminino,right,España,Catalan y castellano,Bachelor degree,no,no,A,1,what,L3,unsyncopated,s2,r1,56,Online_whatL3//d.ji.li19.1554.222.wav,le,li,do,sil2,chu,ka,ji,sil,mo,di,sil1,"['false alarm', 'catch']","[0.8298999998569343, 2.3778999998567087]",[2.3778999998567087],1.554,no_beat,0.8238999998567087,0.8238999998567087,"[""space"",""space""]",li,4,testWhenL4Uns//cat_viol.r2.s2.0.wav,3.0,when,unsyncopated,b,s2,no_rule,cat,L4,z,0.2836,7.0,1.0,0.1446,3.0,2.0,Catalan,0.0,Castellano,3.0,Ingles,6.0,1.0,1.0,yes,no,no,Flauta,13,,,Me ha costado mucho encontrar diferencias entre las lenguas y tambien la fase 2,34.0,yes
57,2024-04-24_23h28.07.112,Unsyncopated_study2,s191,20.0,feminino,right,España,Catalan y castellano,Bachelor degree,no,no,A,1,what,L3,unsyncopated,s1,r2,57,Online_whatL3//d.ji.li18.222.1332.wav,ñe,ji,di,sil2,sa,li,gu,sil,ko,fu,sil1,['catch'],[1.150700000047891],[1.150700000047891],0.222,no_beat,0.9287000000478912,0.9287000000478912,"[""space""]",li,4,testWhenL4Uns//time_viol.r1.s1.0.wav,3.0,when,unsyncopated,a,s1,no_rule,time,L4,z,0.2052,7.0,1.0,0.1349,3.0,2.0,Catalan,0.0,Castellano,3.0,Ingles,6.0,1.0,1.0,yes,no,no,Flauta,13,,,Me ha costado mucho encontrar diferencias entre las lenguas y tambien la fase 2,34.0,yes
58,2024-04-24_23h28.07.112,Unsyncopated_study2,s191,20.0,feminino,right,España,Catalan y castellano,Bachelor degree,no,no,A,1,what,L3,unsyncopated,s1,r2,58,Online_whatL3//d.ji.li16.1776.1110.wav,ñe,le,ko,sil,sa,li,je,sil1,ji,fu,sil2,['catch'],[2.082499999999982],[2.082499999999982],1.776,beat,0.3064999999999818,0.3064999999999818,"[""space""]",li,4,testWhenL4Uns//r2.s1.1.wav,3.0,when,unsyncopated,b,s1,rule,rule,L4,m,1.3038,3.0,0.0,0.2006,3.0,2.0,Catalan,0.0,Castellano,3.0,Ingles,6.0,1.0,1.0,yes,no,no,Flauta,13,,,Me ha costado mucho encontrar diferencias entre las lenguas y tambien la fase 2,34.0,yes
59,2024-04-24_23h28.07.112,Unsyncopated_study2,s191,20.0,feminino,right,España,Catalan y castellano,Bachelor degree,no,no,A,1,what,L3,unsyncopated,s1,r2,59,Online_whatL3//d.ji.li17.none.none.wav,ñe,ko,gu,sil,sa,le,do,sil2,je,ga,sil1,['-'],,,none,none,,,,li,4,testWhenL4Uns//r1.s1.1.wav,3.0,when,unsyncopated,a,s1,rule,rule,L4,z,0.2837,6.0,1.0,0.1712,3.0,2.0,Catalan,0.0,Castellano,3.0,Ingles,6.0,1.0,1.0,yes,no,no,Flauta,13,,,Me ha costado mucho encontrar diferencias entre las lenguas y tambien la fase 2,34.0,yes
60,2024-04-24_23h28.07.112,Unsyncopated_study2,s191,20.0,feminino,right,España,Catalan y castellano,Bachelor degree,no,no,A,1,what,L3,unsyncopated,s2,r1,60,Online_whatL3//b.ñe.sa19.none.none.wav,ji,fu,gu,sil2,chu,do,ka,sil,mo,ko,sil1,['-'],,,none,none,,,,sa,1,testWhenL4Uns//r1.s2.0.wav,3.0,when,unsyncopated,a,s2,rule,rule,L4,m,0.817,3.0,0.0,0.3818,3.0,2.0,Catalan,0.0,Castellano,3.0,Ingles,6.0,1.0,1.0,yes,no,no,Flauta,13,,,Me ha costado mucho encontrar diferencias entre las lenguas y tambien la fase 2,34.0,yes
61,2024-04-24_23h28.07.112,Unsyncopated_study2,s191,20.0,feminino,right,España,Catalan y castellano,Bachelor degree,no,no,A,1,what,L3,unsyncopated,s1,r1,61,Online_whatL3//b.ñe.sa16.none.none.wav,chu,fu,ko,sil,mo,li,je,sil1,ka,gu,sil2,['-'],,,none,none,,,,sa,1,testWhenL4Uns//r1.s1.0.wav,3.0,when,unsyncopated,a,s1,rule,rule,L4,z,0.6001,6.0,1.0,0.2166,3.0,2.0,Catalan,0.0,Castellano,3.0,Ingles,6.0,1.0,1.0,yes,no,no,Flauta,13,,,Me ha costado mucho encontrar diferencias entre las lenguas y tambien la fase 2,34.0,yes
62,2024-04-24_23h28.07.112,Unsyncopated_study2,s191,20.0,feminino,right,España,Catalan y castellano,Bachelor degree,no,no,A,1,what,L3,unsyncopated,s2,r1,62,Online_whatL3//b.ñe.sa17.none.none.wav,di,gu,do,sil,chu,li,le,sil1,mo,ji,sil2,['-'],,,none,none,,,,sa,1,testWhenL4Uns//time_viol.r1.s2.0.wav,3.0,when,unsyncopated,a,s2,no_rule,time,L4,m,0.871,5.0,0.0,0.3547,3.0,2.0,Catalan,0.0,Castellano,3.0,Ingles,6.0,1.0,1.0,yes,no,no,Flauta,13,,,Me ha costado mucho encontrar diferencias entre las lenguas y tambien la fase 2,34.0,yes
63,2024-04-24_23h28.07.112,Unsyncopated_study2,s191,20.0,feminino,right,España,Catalan y castellano,Bachelor degree,no,no,A,1,what,L3,unsyncopated,s2,r1,63,Online_whatL3//b.ñe.sa18.none.none.wav,ko,je,ga,sil2,chu,li,fu,sil,mo,gu,sil1,['-'],,,none,none,,,,sa,1,testWhenL4Uns//cat_viol.r2.s1.0.wav,3.0,when,unsyncopated,b,s1,no_rule,cat,L4,z,0.4836,5.0,1.0,0.2382,3.0,2.0,Catalan,0.0,Castellano,3.0,Ingles,6.0,1.0,1.0,yes,no,no,Flauta,13,,,Me ha costado mucho encontrar diferencias entre las lenguas y tambien la fase 2,34.0,yes
64,2024-04-24_23h28.07.112,Unsyncopated_study2,s191,20.0,feminino,right,España,Catalan y castellano,Bachelor degree,no,no,A,1,what,L3,unsyncopated,s2,r1,64,Online_whatL3//c.gu.je9.none.none.wav,ga,fu,ko,sil,chu,ji,ka,sil1,mo,di,sil2,['-'],,,none,none,,,,je,3,testWhenL4Uns//r2.s2.2.wav,3.0,when,unsyncopated,b,s2,rule,rule,L4,z,0.2071,5.0,1.0,0.2505,3.0,2.0,Catalan,0.0,Castellano,3.0,Ingles,6.0,1.0,1.0,yes,no,no,Flauta,13,,,Me ha costado mucho encontrar diferencias entre las lenguas y tambien la fase 2,34.0,yes
65,2024-04-24_23h28.07.112,Unsyncopated_study2,s191,20.0,feminino,right,España,Catalan y castellano,Bachelor degree,no,no,A,1,what,L3,unsyncopated,s1,r1,65,Online_whatL3//c.gu.je11.444.1332.wav,chu,li,gu,sil2,mo,je,ka,sil,ko,do,sil1,['catch'],[1.1147999999525382],[1.1147999999525382],0.444,no_beat,0.6707999999525383,0.6707999999525383,"[""space""]",je,3,testWhenL4Uns//dep_viol.r2.s2.0.wav,3.0,when,unsyncopated,b,s2,no_rule,dep,L4,m,4.4454,3.0,0.0,0.184,3.0,2.0,Catalan,0.0,Castellano,3.0,Ingles,6.0,1.0,1.0,yes,no,no,Flauta,13,,,Me ha costado mucho encontrar diferencias entre las lenguas y tambien la fase 2,34.0,yes
66,2024-04-24_23h28.07.112,Unsyncopated_study2,s191,20.0,feminino,right,España,Catalan y castellano,Bachelor degree,no,no,A,1,what,L3,unsyncopated,s1,r2,66,Online_whatL3//c.gu.je10.none.none.wav,ñe,li,le,sil,sa,ko,do,sil2,di,ji,sil1,['-'],,,none,none,,,,je,3,testWhenL4Uns//r2.s1.0.wav,3.0,when,unsyncopated,b,s1,rule,rule,L4,m,0.9782,1.0,0.0,0.717,3.0,2.0,Catalan,0.0,Castellano,3.0,Ingles,6.0,1.0,1.0,yes,no,no,Flauta,13,,,Me ha costado mucho encontrar diferencias entre las lenguas y tambien la fase 2,34.0,yes
67,2024-04-24_23h28.07.112,Unsyncopated_study2,s191,20.0,feminino,right,España,Catalan y castellano,Bachelor degree,no,no,A,1,what,L3,unsyncopated,s2,r2,67,Online_whatL3//c.gu.je8.none.none.wav,ko,ka,di,sil2,ñe,ji,li,sil,sa,ga,sil1,['-'],,,none,none,,,,je,3,testWhenL4Uns//r1.s2.2.wav,3.0,when,unsyncopated,a,s2,rule,rule,L4,z,0.9831,1.0,1.0,0.1672,3.0,2.0,Catalan,0.0,Castellano,3.0,Ingles,6.0,1.0,1.0,yes,no,no,Flauta,13,,,Me ha costado mucho encontrar diferencias entre las lenguas y tambien la fase 2,34.0,yes
68,2024-04-24_23h28.07.112,Unsyncopated_study2,s191,20.0,feminino,right,España,Catalan y castellano,Bachelor degree,no,no,A,1,what,L3,unsyncopated,s1,r2,68,Online_whatL3//d.ji.li0.1776.1110.wav,ñe,do,fu,sil,sa,li,gu,sil1,ji,ka,sil2,['catch'],[2.5354999999999563],[2.5354999999999563],1.776,beat,0.7594999999999563,0.7594999999999563,"[""space""]",li,4,testWhenL4Uns//r1.s1.2.wav,3.0,when,unsyncopated,a,s1,rule,rule,L4,z,0.6002,1.0,1.0,0.1676,3.0,2.0,Catalan,0.0,Castellano,3.0,Ingles,6.0,1.0,1.0,yes,no,no,Flauta,13,,,Me ha costado mucho encontrar diferencias entre las lenguas y tambien la fase 2,34.0,yes
69,2024-04-24_23h28.07.112,Unsyncopated_study2,s191,20.0,feminino,right,España,Catalan y castellano,Bachelor degree,no,no,A,1,what,L3,unsyncopated,s1,r2,69,Online_whatL3//d.ji.li3.none.none.wav,ñe,di,le,sil,sa,je,gu,sil2,do,ga,sil1,['-'],,,none,none,,,,li,4,testWhenL4Uns//dep_viol.r1.s2.0.wav,3.0,when,unsyncopated,a,s2,no_rule,dep,L4,m,2.264,1.0,0.0,0.1341,3.0,2.0,Catalan,0.0,Castellano,3.0,Ingles,6.0,1.0,1.0,yes,no,no,Flauta,13,,,Me ha costado mucho encontrar diferencias entre las lenguas y tambien la fase 2,34.0,yes
70,2024-04-24_23h28.07.112,Unsyncopated_study2,s191,20.0,feminino,right,España,Catalan y castellano,Bachelor degree,no,no,A,1,what,L3,unsyncopated,s1,r1,70,Online_whatL3//d.ji.li1.444.1110.wav,chu,je,ji,sil,mo,li,ko,sil1,le,do,sil2,['catch'],[1.0071999998094725],[1.0071999998094725],0.444,no_beat,0.5631999998094726,0.5631999998094726,"[""space""]",li,4,testWhenL4Uns//cat_viol.r1.s1.0.wav,3.0,when,unsyncopated,a,s1,no_rule,cat,L4,z,0.9166,7.0,1.0,0.3533,3.0,2.0,Catalan,0.0,Castellano,3.0,Ingles,6.0,1.0,1.0,yes,no,no,Flauta,13,,,Me ha costado mucho encontrar diferencias entre las lenguas y tambien la fase 2,34.0,yes
71,2024-04-24_23h28.07.112,Unsyncopated_study2,s191,20.0,feminino,right,España,Catalan y castellano,Bachelor degree,no,no,A,1,what,L3,unsyncopated,s2,r2,71,Online_whatL3//d.ji.li2.none.none.wav,ga,do,ka,sil2,ñe,fu,di,sil,sa,le,sil1,['-'],,,none,none,,,,li,4,testWhenL4Uns//r2.s2.0.wav,3.0,when,unsyncopated,b,s2,rule,rule,L4,m,0.8044,5.0,0.0,0.377,3.0,2.0,Catalan,0.0,Castellano,3.0,Ingles,6.0,1.0,1.0,yes,no,no,Flauta,13,,,Me ha costado mucho encontrar diferencias entre las lenguas y tambien la fase 2,34.0,yes
72,2024-04-24_23h28.07.112,Unsyncopated_study2,s191,20.0,feminino,right,España,Catalan y castellano,Bachelor degree,no,no,A,1,what,L3,unsyncopated,s1,r2,72,Online_whatL3//d.ji.li7.1332.1554.wav,ñe,ga,ka,sil2,sa,ji,li,sil,gu,do,sil1,['catch'],[1.9048999998567524],[1.9048999998567524],1.332,no_beat,0.5728999998567523,0.5728999998567523,"[""space""]",li,4,testConjL2Uns//r1.s1.2.wav,4.0,conjunction_un,unsyncopated,a,s1,rule,rule,L2,z,0.2724,4.0,1.0,0.7859,3.0,2.0,Catalan,0.0,Castellano,3.0,Ingles,6.0,1.0,1.0,yes,no,no,Flauta,13,,,Me ha costado mucho encontrar diferencias entre las lenguas y tambien la fase 2,34.0,yes
73,2024-04-24_23h28.07.112,Unsyncopated_study2,s191,20.0,feminino,right,España,Catalan y castellano,Bachelor degree,no,no,A,1,what,L3,unsyncopated,s2,r2,73,Online_whatL3//d.ji.li6.222.1110.wav,ko,ji,ka,sil,ñe,li,di,sil2,sa,ga,sil1,['miss'],,,0.222,no_beat,,,,li,4,testConjL2Uns//r2.s2.1.wav,4.0,conjunction_un,unsyncopated,b,s2,rule,rule,L2,z,0.3231,6.0,1.0,1.1388,3.0,2.0,Catalan,0.0,Castellano,3.0,Ingles,6.0,1.0,1.0,yes,no,no,Flauta,13,,,Me ha costado mucho encontrar diferencias entre las lenguas y tambien la fase 2,34.0,yes
74,2024-04-24_23h28.07.112,Unsyncopated_study2,s191,20.0,feminino,right,España,Catalan y castellano,Bachelor degree,no,no,A,1,what,L3,unsyncopated,s2,r1,74,Online_whatL3//d.ji.li5.none.none.wav,le,ka,di,sil,chu,fu,ko,sil2,mo,gu,sil1,['-'],,,none,none,,,,li,4,testConjL2Uns//dep_viol.r1.s1.0.wav,4.0,conjunction_un,unsyncopated,a,s1,no_rule,dep,L2,m,2.389,3.0,1.0,0.2835,3.0,2.0,Catalan,0.0,Castellano,3.0,Ingles,6.0,1.0,1.0,yes,no,no,Flauta,13,,,Me ha costado mucho encontrar diferencias entre las lenguas y tambien la fase 2,34.0,yes
75,2024-04-24_23h28.07.112,Unsyncopated_study2,s191,20.0,feminino,right,España,Catalan y castellano,Bachelor degree,no,no,A,1,what,L3,unsyncopated,s1,r1,75,Online_whatL3//d.ji.li4.none.none.wav,chu,je,ko,sil,mo,ga,le,sil2,do,di,sil1,['-'],,,none,none,,,,li,4,testConjL2Uns//dep_viol.r2.s1.0.wav,4.0,conjunction_un,unsyncopated,b,s1,no_rule,dep,L2,m,0.3559,3.0,1.0,0.2004,3.0,2.0,Catalan,0.0,Castellano,3.0,Ingles,6.0,1.0,1.0,yes,no,no,Flauta,13,,,Me ha costado mucho encontrar diferencias entre las lenguas y tambien la fase 2,34.0,yes
76,2024-04-24_23h28.07.112,Unsyncopated_study2,s191,20.0,feminino,right,España,Catalan y castellano,Bachelor degree,no,no,A,1,what,L3,unsyncopated,s2,r2,76,Online_whatL3//a.chu.mo25.none.none.wav,le,di,do,sil2,ñe,ga,li,sil,sa,je,sil1,['-'],,,none,none,,,,chu,2,testConjL2Uns//r1.s2.1.wav,4.0,conjunction_un,unsyncopated,a,s2,rule,rule,L2,m,0.3087,4.0,0.0,0.2655,3.0,2.0,Catalan,0.0,Castellano,3.0,Ingles,6.0,1.0,1.0,yes,no,no,Flauta,13,,,Me ha costado mucho encontrar diferencias entre las lenguas y tambien la fase 2,34.0,yes
77,2024-04-24_23h28.07.112,Unsyncopated_study2,s191,20.0,feminino,right,España,Catalan y castellano,Bachelor degree,no,no,A,1,what,L3,unsyncopated,s1,r1,77,Online_whatL3//a.chu.mo26.0.888.wav,chu,ji,li,sil,mo,ko,fu,sil2,di,gu,sil1,['catch'],[1.5147999999521744],[1.5147999999521744],0.888,beat,0.6267999999521744,0.6267999999521744,"[""space""]",chu,2,testConjL2Uns//time_viol.r2.s2.0.wav,4.0,conjunction_un,unsyncopated,b,s2,no_rule,time,L2,z,0.5501,6.0,0.0,0.37,3.0,2.0,Catalan,0.0,Castellano,3.0,Ingles,6.0,1.0,1.0,yes,no,no,Flauta,13,,,Me ha costado mucho encontrar diferencias entre las lenguas y tambien la fase 2,34.0,yes
78,2024-04-24_23h28.07.112,Unsyncopated_study2,s191,20.0,feminino,right,España,Catalan y castellano,Bachelor degree,no,no,A,1,what,L3,unsyncopated,s1,r1,78,Online_whatL3//a.chu.mo24.0.1110.wav,chu,gu,ka,sil2,mo,le,ji,sil,do,li,sil1,['catch'],[1.7291000001432622],[1.7291000001432622],1.11,no_beat,0.619100000143262,0.619100000143262,"[""space""]",chu,2,testConjL2Uns//r2.s2.0.wav,4.0,conjunction_un,unsyncopated,b,s2,rule,rule,L2,z,0.3318,5.0,1.0,0.4213,3.0,2.0,Catalan,0.0,Castellano,3.0,Ingles,6.0,1.0,1.0,yes,no,no,Flauta,13,,,Me ha costado mucho encontrar diferencias entre las lenguas y tambien la fase 2,34.0,yes
79,2024-04-24_23h28.07.112,Unsyncopated_study2,s191,20.0,feminino,right,España,Catalan y castellano,Bachelor degree,no,no,A,1,what,L3,unsyncopated,s2,r1,79,Online_whatL3//a.chu.mo27.888.1776.wav,ka,ga,ji,sil,chu,je,di,sil1,mo,gu,sil2,['catch_delay'],[0.8985000000003203],[0.8985000000003203],1.776,beat,0.8985000000003203,0.8985000000003203,,chu,2,testConjL2Uns//r1.s1.1.wav,4.0,conjunction_un,unsyncopated,a,s1,rule,rule,L2,z,0.4005,5.0,1.0,0.2838,3.0,2.0,Catalan,0.0,Castellano,3.0,Ingles,6.0,1.0,1.0,yes,no,no,Flauta,13,,,Me ha costado mucho encontrar diferencias entre las lenguas y tambien la fase 2,34.0,yes
80,2024-04-24_23h28.07.112,Unsyncopated_study2,s191,20.0,feminino,right,España,Catalan y castellano,Bachelor degree,no,no,A,1,what,L3,unsyncopated,s1,r1,80,Online_whatL3//c.gu.je16.1332.444.wav,chu,fu,je,sil,mo,di,gu,sil1,li,ko,sil2,['miss'],[0.010500000000320142],[0.010500000000320142],1.332,no_beat,,,"[""space""]",je,3,testConjL2Uns//r2.s1.2.wav,4.0,conjunction_un,unsyncopated,b,s1,rule,rule,L2,m,1.2503,3.0,0.0,0.0756,3.0,2.0,Catalan,0.0,Castellano,3.0,Ingles,6.0,1.0,1.0,yes,no,no,Flauta,13,,,Me ha costado mucho encontrar diferencias entre las lenguas y tambien la fase 2,34.0,yes
81,2024-04-24_23h28.07.112,Unsyncopated_study2,s191,20.0,feminino,right,España,Catalan y castellano,Bachelor degree,no,no,A,1,what,L3,unsyncopated,s1,r2,81,Online_whatL3//c.gu.je17.none.none.wav,ñe,ga,li,sil2,sa,ko,ji,sil,do,ka,sil1,['-'],,,none,none,,,,je,3,testConjL2Uns//cat_viol.r2.s1.0.wav,4.0,conjunction_un,unsyncopated,b,s1,no_rule,cat,L2,z,0.7166,5.0,0.0,0.3417,3.0,2.0,Catalan,0.0,Castellano,3.0,Ingles,6.0,1.0,1.0,yes,no,no,Flauta,13,,,Me ha costado mucho encontrar diferencias entre las lenguas y tambien la fase 2,34.0,yes
82,2024-04-24_23h28.07.112,Unsyncopated_study2,s191,20.0,feminino,right,España,Catalan y castellano,Bachelor degree,no,no,A,1,what,L3,unsyncopated,s2,r2,82,Online_whatL3//c.gu.je19.0.1110.wav,gu,do,li,sil,ñe,je,ji,sil2,sa,di,sil1,['miss'],,,0.0,beat,,,,je,3,testConjL2Uns//r2.s2.2.wav,4.0,conjunction_un,unsyncopated,b,s2,rule,rule,L2,z,0.1838,5.0,1.0,0.242,3.0,2.0,Catalan,0.0,Castellano,3.0,Ingles,6.0,1.0,1.0,yes,no,no,Flauta,13,,,Me ha costado mucho encontrar diferencias entre las lenguas y tambien la fase 2,34.0,yes
83,2024-04-24_23h28.07.112,Unsyncopated_study2,s191,20.0,feminino,right,España,Catalan y castellano,Bachelor degree,no,no,A,1,what,L3,unsyncopated,s2,r2,83,Online_whatL3//c.gu.je18.none.none.wav,ko,do,ji,sil,ñe,li,ga,sil2,sa,di,sil1,['-'],,,none,none,,,,je,3,testConjL2Uns//time_viol.r1.s2.0.wav,4.0,conjunction_un,unsyncopated,a,s2,no_rule,time,L2,z,0.9252,6.0,0.0,0.1669,3.0,2.0,Catalan,0.0,Castellano,3.0,Ingles,6.0,1.0,1.0,yes,no,no,Flauta,13,,,Me ha costado mucho encontrar diferencias entre las lenguas y tambien la fase 2,34.0,yes
84,2024-04-24_23h28.07.112,Unsyncopated_study2,s191,20.0,feminino,right,España,Catalan y castellano,Bachelor degree,no,no,A,1,what,L3,unsyncopated,s2,r2,84,Online_whatL3//d.ji.li21.none.none.wav,di,le,ko,sil,ñe,ka,je,sil1,sa,gu,sil2,['-'],,,none,none,,,,li,4,testConjL2Uns//time_viol.r1.s1.0.wav,4.0,conjunction_un,unsyncopated,a,s1,no_rule,time,L2,m,4.2382,2.0,1.0,0.1837,3.0,2.0,Catalan,0.0,Castellano,3.0,Ingles,6.0,1.0,1.0,yes,no,no,Flauta,13,,,Me ha costado mucho encontrar diferencias entre las lenguas y tambien la fase 2,34.0,yes
85,2024-04-24_23h28.07.112,Unsyncopated_study2,s191,20.0,feminino,right,España,Catalan y castellano,Bachelor degree,no,no,A,1,what,L3,unsyncopated,s2,r2,85,Online_whatL3//d.ji.li22.none.none.wav,gu,ka,di,sil,ñe,do,ga,sil2,sa,ko,sil1,['-'],,,none,none,,,,li,4,testConjL2Uns//cat_viol.r2.s2.0.wav,4.0,conjunction_un,unsyncopated,b,s2,no_rule,cat,L2,m,0.7336,3.0,1.0,0.3225,3.0,2.0,Catalan,0.0,Castellano,3.0,Ingles,6.0,1.0,1.0,yes,no,no,Flauta,13,,,Me ha costado mucho encontrar diferencias entre las lenguas y tambien la fase 2,34.0,yes
86,2024-04-24_23h28.07.112,Unsyncopated_study2,s191,20.0,feminino,right,España,Catalan y castellano,Bachelor degree,no,no,A,1,what,L3,unsyncopated,s2,r2,86,Online_whatL3//d.ji.li23.0.444.wav,ji,ko,li,sil,ñe,di,fu,sil2,sa,je,sil1,['catch'],[0.7749000000953856],[0.7749000000953856],0.0,beat,0.7749000000953856,0.7749000000953856,"[""space""]",li,4,testConjL2Uns//dep_viol.r2.s2.0.wav,4.0,conjunction_un,unsyncopated,b,s2,no_rule,dep,L2,m,0.95,1.0,1.0,0.1006,3.0,2.0,Catalan,0.0,Castellano,3.0,Ingles,6.0,1.0,1.0,yes,no,no,Flauta,13,,,Me ha costado mucho encontrar diferencias entre las lenguas y tambien la fase 2,34.0,yes
87,2024-04-24_23h28.07.112,Unsyncopated_study2,s191,20.0,feminino,right,España,Catalan y castellano,Bachelor degree,no,no,A,1,what,L3,unsyncopated,s1,r1,87,Online_whatL3//d.ji.li20.none.none.wav,chu,gu,fu,sil2,mo,ga,do,sil,ka,di,sil1,['-'],,,none,none,,,,li,4,testConjL2Uns//r1.s1.0.wav,4.0,conjunction_un,unsyncopated,a,s1,rule,rule,L2,m,0.5002,1.0,0.0,0.1345,3.0,2.0,Catalan,0.0,Castellano,3.0,Ingles,6.0,1.0,1.0,yes,no,no,Flauta,13,,,Me ha costado mucho encontrar diferencias entre las lenguas y tambien la fase 2,34.0,yes
88,2024-04-24_23h28.07.112,Unsyncopated_study2,s191,20.0,feminino,right,España,Catalan y castellano,Bachelor degree,no,no,A,1,what,L3,unsyncopated,s2,r2,88,Online_whatL3//c.gu.je30.none.none.wav,ka,li,do,sil2,ñe,fu,ga,sil,sa,di,sil1,['-'],,,none,none,,,,je,3,testConjL2Uns//r2.s1.0.wav,4.0,conjunction_un,unsyncopated,b,s1,rule,rule,L2,z,0.2943,1.0,1.0,1.5495,3.0,2.0,Catalan,0.0,Castellano,3.0,Ingles,6.0,1.0,1.0,yes,no,no,Flauta,13,,,Me ha costado mucho encontrar diferencias entre las lenguas y tambien la fase 2,34.0,yes
89,2024-04-24_23h28.07.112,Unsyncopated_study2,s191,20.0,feminino,right,España,Catalan y castellano,Bachelor degree,no,no,A,1,what,L3,unsyncopated,s1,r2,89,Online_whatL3//c.gu.je28.1332.444.wav,ñe,ko,je,sil,sa,fu,gu,sil1,le,ji,sil2,['catch'],[2.1500999999043415],[2.1500999999043415],1.332,no_beat,0.8180999999043415,0.8180999999043415,"[""space""]",je,3,testConjL2Uns//dep_viol.r1.s2.0.wav,4.0,conjunction_un,unsyncopated,a,s2,no_rule,dep,L2,z,1.0646,6.0,0.0,1.6499,3.0,2.0,Catalan,0.0,Castellano,3.0,Ingles,6.0,1.0,1.0,yes,no,no,Flauta,13,,,Me ha costado mucho encontrar diferencias entre las lenguas y tambien la fase 2,34.0,yes
90,2024-04-24_23h28.07.112,Unsyncopated_study2,s191,20.0,feminino,right,España,Catalan y castellano,Bachelor degree,no,no,A,1,what,L3,unsyncopated,s1,r1,90,Online_whatL3//c.gu.je31.none.none.wav,chu,fu,ko,sil,mo,li,di,sil2,ga,ka,sil1,['-'],,,none,none,,,,je,3,testConjL2Uns//time_viol.r2.s1.0.wav,4.0,conjunction_un,unsyncopated,b,s1,no_rule,time,L2,z,0.4729,1.0,0.0,1.2714,3.0,2.0,Catalan,0.0,Castellano,3.0,Ingles,6.0,1.0,1.0,yes,no,no,Flauta,13,,,Me ha costado mucho encontrar diferencias entre las lenguas y tambien la fase 2,34.0,yes
91,2024-04-24_23h28.07.112,Unsyncopated_study2,s191,20.0,feminino,right,España,Catalan y castellano,Bachelor degree,no,no,A,1,what,L3,unsyncopated,s2,r1,91,Online_whatL3//c.gu.je29.1332.222.wav,ko,je,le,sil2,chu,gu,do,sil,mo,ji,sil1,['miss'],,,1.332,no_beat,,,,je,3,testConjL2Uns//r1.s2.2.wav,4.0,conjunction_un,unsyncopated,a,s2,rule,rule,L2,m,1.7062,3.0,0.0,0.7696,3.0,2.0,Catalan,0.0,Castellano,3.0,Ingles,6.0,1.0,1.0,yes,no,no,Flauta,13,,,Me ha costado mucho encontrar diferencias entre las lenguas y tambien la fase 2,34.0,yes
92,2024-04-24_23h28.07.112,Unsyncopated_study2,s191,20.0,feminino,right,España,Catalan y castellano,Bachelor degree,no,no,A,1,what,L3,unsyncopated,s1,r1,92,Online_whatL3//a.chu.mo10.0.888.wav,chu,je,di,sil,mo,ka,ji,sil2,ko,le,sil1,['catch'],[1.5219000000952292],[1.5219000000952292],0.888,beat,0.6339000000952292,0.6339000000952292,"[""space""]",chu,2,testConjL2Uns//r1.s2.0.wav,4.0,conjunction_un,unsyncopated,a,s2,rule,rule,L2,m,0.7178,3.0,0.0,0.1837,3.0,2.0,Catalan,0.0,Castellano,3.0,Ingles,6.0,1.0,1.0,yes,no,no,Flauta,13,,,Me ha costado mucho encontrar diferencias entre las lenguas y tambien la fase 2,34.0,yes
93,2024-04-24_23h28.07.112,Unsyncopated_study2,s191,20.0,feminino,right,España,Catalan y castellano,Bachelor degree,no,no,A,1,what,L3,unsyncopated,s2,r2,93,Online_whatL3//a.chu.mo8.none.none.wav,je,ji,li,sil2,ñe,ga,do,sil,sa,ko,sil1,['-'],,,none,none,,,,chu,2,testConjL2Uns//r2.s1.1.wav,4.0,conjunction_un,unsyncopated,b,s1,rule,rule,L2,m,1.8664,2.0,0.0,0.3839,3.0,2.0,Catalan,0.0,Castellano,3.0,Ingles,6.0,1.0,1.0,yes,no,no,Flauta,13,,,Me ha costado mucho encontrar diferencias entre las lenguas y tambien la fase 2,34.0,yes
94,2024-04-24_23h28.07.112,Unsyncopated_study2,s191,20.0,feminino,right,España,Catalan y castellano,Bachelor degree,no,no,A,1,what,L3,unsyncopated,s1,r2,94,Online_whatL3//a.chu.mo9.none.none.wav,ñe,ga,gu,sil2,sa,je,ko,sil,le,ka,sil1,['-'],,,none,none,,,,chu,2,testConjL2Uns//cat_viol.r1.s1.0.wav,4.0,conjunction_un,unsyncopated,a,s1,no_rule,cat,L2,m,0.4841,2.0,1.0,0.0839,3.0,2.0,Catalan,0.0,Castellano,3.0,Ingles,6.0,1.0,1.0,yes,no,no,Flauta,13,,,Me ha costado mucho encontrar diferencias entre las lenguas y tambien la fase 2,34.0,yes
95,2024-04-24_23h28.07.112,Unsyncopated_study2,s191,20.0,feminino,right,España,Catalan y castellano,Bachelor degree,no,no,A,1,what,L3,unsyncopated,s2,r2,95,Online_whatL3//a.chu.mo11.none.none.wav,ka,gu,ko,sil,ñe,do,ga,sil1,sa,je,sil2,['-'],,,none,none,,,,chu,2,testConjL2Uns//cat_viol.r1.s2.0.wav,4.0,conjunction_un,unsyncopated,a,s2,no_rule,cat,L2,m,0.3432,2.0,1.0,0.1348,3.0,2.0,Catalan,0.0,Castellano,3.0,Ingles,6.0,1.0,1.0,yes,no,no,Flauta,13,,,Me ha costado mucho encontrar diferencias entre las lenguas y tambien la fase 2,34.0,yes
96,2024-04-24_23h28.07.112,Unsyncopated_study2,s191,20.0,feminino,right,España,Catalan y castellano,Bachelor degree,no,no,A,1,what,L3,unsyncopated,s1,r2,96,Online_whatL3//a.chu.mo21.none.none.wav,ñe,ko,do,sil,sa,li,ji,sil1,gu,ka,sil2,['-'],,,none,none,,,,chu,2,,,,,,,,,,,,,,,3.0,2.0,Catalan,0.0,Castellano,3.0,Ingles,6.0,1.0,1.0,yes,no,no,Flauta,13,,,Me ha costado mucho encontrar diferencias entre las lenguas y tambien la fase 2,34.0,yes
97,2024-04-24_23h28.07.112,Unsyncopated_study2,s191,20.0,feminino,right,España,Catalan y castellano,Bachelor degree,no,no,A,1,what,L3,unsyncopated,s2,r1,97,Online_whatL3//a.chu.mo23.888.1998.wav,fu,ko,li,sil,chu,ga,je,sil2,mo,ji,sil1,['catch_delay'],[0.6845000000001311],[0.6845000000001311],1.998,no_beat,0.6845000000001311,0.6845000000001311,,chu,2,,,,,,,,,,,,,,,3.0,2.0,Catalan,0.0,Castellano,3.0,Ingles,6.0,1.0,1.0,yes,no,no,Flauta,13,,,Me ha costado mucho encontrar diferencias entre las lenguas y tambien la fase 2,34.0,yes
98,2024-04-24_23h28.07.112,Unsyncopated_study2,s191,20.0,feminino,right,España,Catalan y castellano,Bachelor degree,no,no,A,1,what,L3,unsyncopated,s2,r1,98,Online_whatL3//a.chu.mo20.888.1776.wav,ko,fu,ka,sil,chu,le,do,sil1,mo,je,sil2,['catch_delay'],[1.08719999980948],[1.08719999980948],1.776,beat,1.08719999980948,1.08719999980948,"[""space"",""space""]",chu,2,,,,,,,,,,,,,,,3.0,2.0,Catalan,0.0,Castellano,3.0,Ingles,6.0,1.0,1.0,yes,no,no,Flauta,13,,,Me ha costado mucho encontrar diferencias entre las lenguas y tambien la fase 2,34.0,yes
99,2024-04-24_23h28.07.112,Unsyncopated_study2,s191,20.0,feminino,right,España,Catalan y castellano,Bachelor degree,no,no,A,1,what,L3,unsyncopated,s1,r2,99,Online_whatL3//a.chu.mo22.none.none.wav,ñe,gu,fu,sil,sa,di,li,sil1,do,ji,sil2,['-'],[0.19919999980947978],[0.19919999980947978],none,none,,,"[""space""]",chu,2,,,,,,,,,,,,,,,3.0,2.0,Catalan,0.0,Castellano,3.0,Ingles,6.0,1.0,1.0,yes,no,no,Flauta,13,,,Me ha costado mucho encontrar diferencias entre las lenguas y tambien la fase 2,34.0,yes
100,2024-04-24_23h28.07.112,Unsyncopated_study2,s191,20.0,feminino,right,España,Catalan y castellano,Bachelor degree,no,no,A,1,what,L3,unsyncopated,s2,r1,100,Online_whatL3//b.ñe.sa23.none.none.wav,le,je,do,sil,chu,ji,ka,sil2,mo,ko,sil1,['-'],,,none,none,,,,sa,1,,,,,,,,,,,,,,,3.0,2.0,Catalan,0.0,Castellano,3.0,Ingles,6.0,1.0,1.0,yes,no,no,Flauta,13,,,Me ha costado mucho encontrar diferencias entre las lenguas y tambien la fase 2,34.0,yes
101,2024-04-24_23h28.07.112,Unsyncopated_study2,s191,20.0,feminino,right,España,Catalan y castellano,Bachelor degree,no,no,A,1,what,L3,unsyncopated,s1,r2,101,Online_whatL3//b.ñe.sa22.0.1110.wav,ñe,gu,fu,sil2,sa,je,ga,sil,do,ko,sil1,['miss'],,,0.0,beat,,,,sa,1,,,,,,,,,,,,,,,3.0,2.0,Catalan,0.0,Castellano,3.0,Ingles,6.0,1.0,1.0,yes,no,no,Flauta,13,,,Me ha costado mucho encontrar diferencias entre las lenguas y tambien la fase 2,34.0,yes
102,2024-04-24_23h28.07.112,Unsyncopated_study2,s191,20.0,feminino,right,España,Catalan y castellano,Bachelor degree,no,no,A,1,what,L3,unsyncopated,s1,r2,102,Online_whatL3//b.ñe.sa21.0.1110.wav,ñe,do,li,sil2,sa,je,ko,sil,le,ga,sil1,['miss'],,,0.0,beat,,,,sa,1,,,,,,,,,,,,,,,3.0,2.0,Catalan,0.0,Castellano,3.0,Ingles,6.0,1.0,1.0,yes,no,no,Flauta,13,,,Me ha costado mucho encontrar diferencias entre las lenguas y tambien la fase 2,34.0,yes
103,2024-04-24_23h28.07.112,Unsyncopated_study2,s191,20.0,feminino,right,España,Catalan y castellano,Bachelor degree,no,no,A,1,what,L3,unsyncopated,s1,r1,103,Online_whatL3//b.ñe.sa20.none.none.wav,chu,li,do,sil,mo,je,gu,sil1,ga,le,sil2,['-'],,,none,none,,,,sa,1,,,,,,,,,,,,,,,3.0,2.0,Catalan,0.0,Castellano,3.0,Ingles,6.0,1.0,1.0,yes,no,no,Flauta,13,,,Me ha costado mucho encontrar diferencias entre las lenguas y tambien la fase 2,34.0,yes
104,2024-04-24_23h28.07.112,Unsyncopated_study2,s191,20.0,feminino,right,España,Catalan y castellano,Bachelor degree,no,no,A,1,what,L3,unsyncopated,s2,r1,104,Online_whatL3//a.chu.mo2.1110.1998.wav,fu,do,je,sil2,chu,gu,li,sil,mo,ka,sil1,['catch'],[2.600500000000011],[2.600500000000011],1.998,no_beat,0.6025000000000109,0.6025000000000109,"[""space""]",chu,2,,,,,,,,,,,,,,,3.0,2.0,Catalan,0.0,Castellano,3.0,Ingles,6.0,1.0,1.0,yes,no,no,Flauta,13,,,Me ha costado mucho encontrar diferencias entre las lenguas y tambien la fase 2,34.0,yes
105,2024-04-24_23h28.07.112,Unsyncopated_study2,s191,20.0,feminino,right,España,Catalan y castellano,Bachelor degree,no,no,A,1,what,L3,unsyncopated,s1,r2,105,Online_whatL3//a.chu.mo1.none.none.wav,ñe,gu,ji,sil,sa,di,ga,sil2,fu,ka,sil1,['-'],,,none,none,,,,chu,2,,,,,,,,,,,,,,,3.0,2.0,Catalan,0.0,Castellano,3.0,Ingles,6.0,1.0,1.0,yes,no,no,Flauta,13,,,Me ha costado mucho encontrar diferencias entre las lenguas y tambien la fase 2,34.0,yes
106,2024-04-24_23h28.07.112,Unsyncopated_study2,s191,20.0,feminino,right,España,Catalan y castellano,Bachelor degree,no,no,A,1,what,L3,unsyncopated,s2,r1,106,Online_whatL3//a.chu.mo0.1110.1998.wav,fu,di,li,sil2,chu,ga,ko,sil,mo,le,sil1,['miss'],,,1.998,no_beat,,,,chu,2,,,,,,,,,,,,,,,3.0,2.0,Catalan,0.0,Castellano,3.0,Ingles,6.0,1.0,1.0,yes,no,no,Flauta,13,,,Me ha costado mucho encontrar diferencias entre las lenguas y tambien la fase 2,34.0,yes
107,2024-04-24_23h28.07.112,Unsyncopated_study2,s191,20.0,feminino,right,España,Catalan y castellano,Bachelor degree,no,no,A,1,what,L3,unsyncopated,s1,r2,107,Online_whatL3//a.chu.mo3.none.none.wav,ñe,gu,li,sil,sa,je,do,sil1,ji,ka,sil2,['false alarm'],[0.5665000000003602],[0.5665000000003602],none,none,,,"[""space""]",chu,2,,,,,,,,,,,,,,,3.0,2.0,Catalan,0.0,Castellano,3.0,Ingles,6.0,1.0,1.0,yes,no,no,Flauta,13,,,Me ha costado mucho encontrar diferencias entre las lenguas y tambien la fase 2,34.0,yes
108,2024-04-24_23h28.07.112,Unsyncopated_study2,s191,20.0,feminino,right,España,Catalan y castellano,Bachelor degree,no,no,A,1,what,L3,unsyncopated,s2,r2,108,Online_whatL3//c.gu.je24.222.1110.wav,fu,gu,do,sil,ñe,je,di,sil1,sa,ga,sil2,['miss'],,,0.222,no_beat,,,,je,3,,,,,,,,,,,,,,,3.0,2.0,Catalan,0.0,Castellano,3.0,Ingles,6.0,1.0,1.0,yes,no,no,Flauta,13,,,Me ha costado mucho encontrar diferencias entre las lenguas y tambien la fase 2,34.0,yes
109,2024-04-24_23h28.07.112,Unsyncopated_study2,s191,20.0,feminino,right,España,Catalan y castellano,Bachelor degree,no,no,A,1,what,L3,unsyncopated,s1,r2,109,Online_whatL3//c.gu.je25.none.none.wav,ñe,ko,ka,sil,sa,do,li,sil2,di,ji,sil1,['-'],,,none,none,,,,je,3,,,,,,,,,,,,,,,3.0,2.0,Catalan,0.0,Castellano,3.0,Ingles,6.0,1.0,1.0,yes,no,no,Flauta,13,,,Me ha costado mucho encontrar diferencias entre las lenguas y tambien la fase 2,34.0,yes
110,2024-04-24_23h28.07.112,Unsyncopated_study2,s191,20.0,feminino,right,España,Catalan y castellano,Bachelor degree,no,no,A,1,what,L3,unsyncopated,s1,r2,110,Online_whatL3//c.gu.je27.1776.222.wav,ñe,je,li,sil,sa,ji,ga,sil1,gu,fu,sil2,['false alarm'],[1.562899999857109],[1.562899999857109],1.776,beat,,,"[""space""]",je,3,,,,,,,,,,,,,,,3.0,2.0,Catalan,0.0,Castellano,3.0,Ingles,6.0,1.0,1.0,yes,no,no,Flauta,13,,,Me ha costado mucho encontrar diferencias entre las lenguas y tambien la fase 2,34.0,yes
111,2024-04-24_23h28.07.112,Unsyncopated_study2,s191,20.0,feminino,right,España,Catalan y castellano,Bachelor degree,no,no,A,1,what,L3,unsyncopated,s1,r1,111,Online_whatL3//c.gu.je26.none.none.wav,chu,di,le,sil,mo,li,ko,sil2,ka,fu,sil1,['-'],,,none,none,,,,je,3,,,,,,,,,,,,,,,3.0,2.0,Catalan,0.0,Castellano,3.0,Ingles,6.0,1.0,1.0,yes,no,no,Flauta,13,,,Me ha costado mucho encontrar diferencias entre las lenguas y tambien la fase 2,34.0,yes
112,2024-04-24_23h28.07.112,Unsyncopated_study2,s191,20.0,feminino,right,España,Catalan y castellano,Bachelor degree,no,no,A,1,what,L3,unsyncopated,s1,r2,112,Online_whatL3//d.ji.li28.none.none.wav,ñe,ka,di,sil2,sa,le,ko,sil,je,ga,sil1,['-'],,,none,none,,,,li,4,,,,,,,,,,,,,,,3.0,2.0,Catalan,0.0,Castellano,3.0,Ingles,6.0,1.0,1.0,yes,no,no,Flauta,13,,,Me ha costado mucho encontrar diferencias entre las lenguas y tambien la fase 2,34.0,yes
113,2024-04-24_23h28.07.112,Unsyncopated_study2,s191,20.0,feminino,right,España,Catalan y castellano,Bachelor degree,no,no,A,1,what,L3,unsyncopated,s2,r2,113,Online_whatL3//d.ji.li29.1554.222.wav,je,li,ga,sil2,ñe,do,ji,sil,sa,gu,sil1,"['false alarm', 'catch']","[1.0917000000476946, 2.5800999999046326]",[2.5800999999046326],1.554,no_beat,1.0260999999046323,1.0260999999046323,"[""space"",""space""]",li,4,,,,,,,,,,,,,,,3.0,2.0,Catalan,0.0,Castellano,3.0,Ingles,6.0,1.0,1.0,yes,no,no,Flauta,13,,,Me ha costado mucho encontrar diferencias entre las lenguas y tambien la fase 2,34.0,yes
114,2024-04-24_23h28.07.112,Unsyncopated_study2,s191,20.0,feminino,right,España,Catalan y castellano,Bachelor degree,no,no,A,1,what,L3,unsyncopated,s1,r1,114,Online_whatL3//d.ji.li31.1332.444.wav,chu,gu,li,sil,mo,ka,ji,sil2,ga,je,sil1,['catch'],[2.074100000143062],[2.074100000143062],1.332,no_beat,0.742100000143062,0.742100000143062,"[""space""]",li,4,,,,,,,,,,,,,,,3.0,2.0,Catalan,0.0,Castellano,3.0,Ingles,6.0,1.0,1.0,yes,no,no,Flauta,13,,,Me ha costado mucho encontrar diferencias entre las lenguas y tambien la fase 2,34.0,yes
115,2024-04-24_23h28.07.112,Unsyncopated_study2,s191,20.0,feminino,right,España,Catalan y castellano,Bachelor degree,no,no,A,1,what,L3,unsyncopated,s2,r2,115,Online_whatL3//d.ji.li30.none.none.wav,gu,di,fu,sil,ñe,je,le,sil1,sa,ko,sil2,['-'],,,none,none,,,,li,4,,,,,,,,,,,,,,,3.0,2.0,Catalan,0.0,Castellano,3.0,Ingles,6.0,1.0,1.0,yes,no,no,Flauta,13,,,Me ha costado mucho encontrar diferencias entre las lenguas y tambien la fase 2,34.0,yes
116,2024-04-24_23h28.07.112,Unsyncopated_study2,s191,20.0,feminino,right,España,Catalan y castellano,Bachelor degree,no,no,A,1,what,L3,unsyncopated,s1,r2,116,Online_whatL3//b.ñe.sa14.0.888.wav,ñe,le,je,sil,sa,li,fu,sil2,ko,ji,sil1,['miss'],,,0.0,beat,,,,sa,1,,,,,,,,,,,,,,,3.0,2.0,Catalan,0.0,Castellano,3.0,Ingles,6.0,1.0,1.0,yes,no,no,Flauta,13,,,Me ha costado mucho encontrar diferencias entre las lenguas y tambien la fase 2,34.0,yes
117,2024-04-24_23h28.07.112,Unsyncopated_study2,s191,20.0,feminino,right,España,Catalan y castellano,Bachelor degree,no,no,A,1,what,L3,unsyncopated,s1,r1,117,Online_whatL3//b.ñe.sa12.none.none.wav,chu,ji,di,sil2,mo,ka,li,sil,do,ko,sil1,['-'],,,none,none,,,,sa,1,,,,,,,,,,,,,,,3.0,2.0,Catalan,0.0,Castellano,3.0,Ingles,6.0,1.0,1.0,yes,no,no,Flauta,13,,,Me ha costado mucho encontrar diferencias entre las lenguas y tambien la fase 2,34.0,yes
118,2024-04-24_23h28.07.112,Unsyncopated_study2,s191,20.0,feminino,right,España,Catalan y castellano,Bachelor degree,no,no,A,1,what,L3,unsyncopated,s1,r2,118,Online_whatL3//b.ñe.sa15.0.888.wav,ñe,li,ka,sil,sa,le,fu,sil2,je,do,sil1,['miss'],,,0.0,beat,,,,sa,1,,,,,,,,,,,,,,,3.0,2.0,Catalan,0.0,Castellano,3.0,Ingles,6.0,1.0,1.0,yes,no,no,Flauta,13,,,Me ha costado mucho encontrar diferencias entre las lenguas y tambien la fase 2,34.0,yes
119,2024-04-24_23h28.07.112,Unsyncopated_study2,s191,20.0,feminino,right,España,Catalan y castellano,Bachelor degree,no,no,A,1,what,L3,unsyncopated,s2,r2,119,Online_whatL3//b.ñe.sa13.888.1776.wav,di,ga,ji,sil,ñe,li,ko,sil1,sa,le,sil2,['miss'],,,0.888,beat,,,,sa,1,,,,,,,,,,,,,,,3.0,2.0,Catalan,0.0,Castellano,3.0,Ingles,6.0,1.0,1.0,yes,no,no,Flauta,13,,,Me ha costado mucho encontrar diferencias entre las lenguas y tambien la fase 2,34.0,yes
120,2024-04-24_23h28.07.112,Unsyncopated_study2,s191,20.0,feminino,right,España,Catalan y castellano,Bachelor degree,no,no,A,1,what,L3,unsyncopated,s2,r1,120,Online_whatL3//c.gu.je12.none.none.wav,ga,di,li,sil,chu,do,fu,sil2,mo,le,sil1,['-'],,,none,none,,,,je,3,,,,,,,,,,,,,,,3.0,2.0,Catalan,0.0,Castellano,3.0,Ingles,6.0,1.0,1.0,yes,no,no,Flauta,13,,,Me ha costado mucho encontrar diferencias entre las lenguas y tambien la fase 2,34.0,yes
121,2024-04-24_23h28.07.112,Unsyncopated_study2,s191,20.0,feminino,right,España,Catalan y castellano,Bachelor degree,no,no,A,1,what,L3,unsyncopated,s1,r2,121,Online_whatL3//c.gu.je13.1332.222.wav,ñe,je,fu,sil,sa,ko,gu,sil1,di,li,sil2,['miss'],,,1.332,no_beat,,,,je,3,,,,,,,,,,,,,,,3.0,2.0,Catalan,0.0,Castellano,3.0,Ingles,6.0,1.0,1.0,yes,no,no,Flauta,13,,,Me ha costado mucho encontrar diferencias entre las lenguas y tambien la fase 2,34.0,yes
122,2024-04-24_23h28.07.112,Unsyncopated_study2,s191,20.0,feminino,right,España,Catalan y castellano,Bachelor degree,no,no,A,1,what,L3,unsyncopated,s2,r1,122,Online_whatL3//c.gu.je14.none.none.wav,do,ga,fu,sil2,chu,li,ji,sil,mo,ka,sil1,['-'],,,none,none,,,,je,3,,,,,,,,,,,,,,,3.0,2.0,Catalan,0.0,Castellano,3.0,Ingles,6.0,1.0,1.0,yes,no,no,Flauta,13,,,Me ha costado mucho encontrar diferencias entre las lenguas y tambien la fase 2,34.0,yes
123,2024-04-24_23h28.07.112,Unsyncopated_study2,s191,20.0,feminino,right,España,Catalan y castellano,Bachelor degree,no,no,A,1,what,L3,unsyncopated,s2,r1,123,Online_whatL3//c.gu.je15.1332.0.wav,je,ji,ko,sil,chu,ka,gu,sil2,mo,ga,sil1,['catch'],[1.9715000000001055],[1.9715000000001055],1.332,no_beat,0.6395000000001054,0.6395000000001054,"[""space""]",je,3,,,,,,,,,,,,,,,3.0,2.0,Catalan,0.0,Castellano,3.0,Ingles,6.0,1.0,1.0,yes,no,no,Flauta,13,,,Me ha costado mucho encontrar diferencias entre las lenguas y tambien la fase 2,34.0,yes
124,2024-04-24_23h28.07.112,Unsyncopated_study2,s191,20.0,feminino,right,España,Catalan y castellano,Bachelor degree,no,no,A,1,what,L3,unsyncopated,s1,r2,124,Online_whatL3//c.gu.je2.none.none.wav,ñe,di,fu,sil,sa,ji,ga,sil1,ko,do,sil2,['-'],,,none,none,,,,je,3,,,,,,,,,,,,,,,3.0,2.0,Catalan,0.0,Castellano,3.0,Ingles,6.0,1.0,1.0,yes,no,no,Flauta,13,,,Me ha costado mucho encontrar diferencias entre las lenguas y tambien la fase 2,34.0,yes
125,2024-04-24_23h28.07.112,Unsyncopated_study2,s191,20.0,feminino,right,España,Catalan y castellano,Bachelor degree,no,no,A,1,what,L3,unsyncopated,s2,r1,125,Online_whatL3//c.gu.je1.222.1332.wav,di,gu,le,sil2,chu,je,ga,sil,mo,ka,sil1,['catch'],[0.797699999809538],[0.797699999809538],0.222,no_beat,0.575699999809538,0.575699999809538,"[""space""]",je,3,,,,,,,,,,,,,,,3.0,2.0,Catalan,0.0,Castellano,3.0,Ingles,6.0,1.0,1.0,yes,no,no,Flauta,13,,,Me ha costado mucho encontrar diferencias entre las lenguas y tambien la fase 2,34.0,yes
126,2024-04-24_23h28.07.112,Unsyncopated_study2,s191,20.0,feminino,right,España,Catalan y castellano,Bachelor degree,no,no,A,1,what,L3,unsyncopated,s1,r1,126,Online_whatL3//c.gu.je0.none.none.wav,chu,ko,li,sil,mo,ji,le,sil2,ga,di,sil1,['-'],,,none,none,,,,je,3,,,,,,,,,,,,,,,3.0,2.0,Catalan,0.0,Castellano,3.0,Ingles,6.0,1.0,1.0,yes,no,no,Flauta,13,,,Me ha costado mucho encontrar diferencias entre las lenguas y tambien la fase 2,34.0,yes
127,2024-04-24_23h28.07.112,Unsyncopated_study2,s191,20.0,feminino,right,España,Catalan y castellano,Bachelor degree,no,no,A,1,what,L3,unsyncopated,s1,r1,127,Online_whatL3//c.gu.je3.none.none.wav,chu,le,do,sil,mo,ji,ka,sil2,li,fu,sil1,['-'],,,none,none,,,,je,3,,,,,,,,,,,,,,,3.0,2.0,Catalan,0.0,Castellano,3.0,Ingles,6.0,1.0,1.0,yes,no,no,Flauta,13,,,Me ha costado mucho encontrar diferencias entre las lenguas y tambien la fase 2,34.0,yes
128,2024-04-24_23h28.07.112,Unsyncopated_study2,s191,20.0,feminino,right,España,Catalan y castellano,Bachelor degree,no,no,A,2,conjunction_syn,L1,syncopated,s1,r1,0,Online_conjL1_syn//d.ne.ni3.none.none.wav,pu,fo,la,ki,sil,ro,lu,ri,sil1,cho,sil2,['-'],,,none,none,,,,ni,4,,,,,,,,,,,,,,,3.0,2.0,Catalan,0.0,Castellano,3.0,Ingles,6.0,1.0,1.0,yes,no,no,Flauta,13,,,Me ha costado mucho encontrar diferencias entre las lenguas y tambien la fase 2,34.0,yes
129,2024-04-24_23h28.07.112,Unsyncopated_study2,s191,20.0,feminino,right,España,Catalan y castellano,Bachelor degree,no,no,A,2,conjunction_syn,L1,syncopated,s2,r1,1,Online_conjL1_syn//d.ne.ni0.none.none.wav,lu,ze,zu,pu,sil,ro,ri,ki,sil1,la,sil2,['-'],,,none,none,,,,ni,4,,,,,,,,,,,,,,,3.0,2.0,Catalan,0.0,Castellano,3.0,Ingles,6.0,1.0,1.0,yes,no,no,Flauta,13,,,Me ha costado mucho encontrar diferencias entre las lenguas y tambien la fase 2,34.0,yes
130,2024-04-24_23h28.07.112,Unsyncopated_study2,s191,20.0,feminino,right,España,Catalan y castellano,Bachelor degree,no,no,A,2,conjunction_syn,L1,syncopated,s1,r1,2,Online_conjL1_syn//d.ne.ni1.222.1110.wav,pu,ne,ri,ki,sil,ni,la,ze,sil1,lu,sil2,['miss'],,,0.222,no_beat,,,,ni,4,,,,,,,,,,,,,,,3.0,2.0,Catalan,0.0,Castellano,3.0,Ingles,6.0,1.0,1.0,yes,no,no,Flauta,13,,,Me ha costado mucho encontrar diferencias entre las lenguas y tambien la fase 2,34.0,yes
131,2024-04-24_23h28.07.112,Unsyncopated_study2,s191,20.0,feminino,right,España,Catalan y castellano,Bachelor degree,no,no,A,2,conjunction_syn,L1,syncopated,s1,r2,3,Online_conjL1_syn//d.ne.ni2.222.1332.wav,ta,ne,lu,be,sil,ri,ni,cho,sil1,ze,sil2,['miss'],,,0.222,no_beat,,,,ni,4,,,,,,,,,,,,,,,3.0,2.0,Catalan,0.0,Castellano,3.0,Ingles,6.0,1.0,1.0,yes,no,no,Flauta,13,,,Me ha costado mucho encontrar diferencias entre las lenguas y tambien la fase 2,34.0,yes
132,2024-04-24_23h28.07.112,Unsyncopated_study2,s191,20.0,feminino,right,España,Catalan y castellano,Bachelor degree,no,no,A,2,conjunction_syn,L1,syncopated,s2,r2,4,Online_conjL1_syn//a.pu.ki16.none.none.wav,la,ze,fo,ta,sil,zu,lu,be,sil1,ne,sil2,['-'],,,none,none,,,,pu,2,,,,,,,,,,,,,,,3.0,2.0,Catalan,0.0,Castellano,3.0,Ingles,6.0,1.0,1.0,yes,no,no,Flauta,13,,,Me ha costado mucho encontrar diferencias entre las lenguas y tambien la fase 2,34.0,yes
133,2024-04-24_23h28.07.112,Unsyncopated_study2,s191,20.0,feminino,right,España,Catalan y castellano,Bachelor degree,no,no,A,2,conjunction_syn,L1,syncopated,s2,r1,5,Online_conjL1_syn//a.pu.ki18.666.1554.wav,lu,ni,ri,pu,sil,ro,fo,ki,sil1,cho,sil2,['catch'],[2.226900000095611],[2.226900000095611],1.554,no_beat,0.6729000000956111,0.6729000000956111,"[""space""]",pu,2,,,,,,,,,,,,,,,3.0,2.0,Catalan,0.0,Castellano,3.0,Ingles,6.0,1.0,1.0,yes,no,no,Flauta,13,,,Me ha costado mucho encontrar diferencias entre las lenguas y tambien la fase 2,34.0,yes
134,2024-04-24_23h28.07.112,Unsyncopated_study2,s191,20.0,feminino,right,España,Catalan y castellano,Bachelor degree,no,no,A,2,conjunction_syn,L1,syncopated,s2,r2,6,Online_conjL1_syn//a.pu.ki17.none.none.wav,lu,fa,zu,ta,sil,la,ze,be,sil1,cho,sil2,['-'],,,none,none,,,,pu,2,,,,,,,,,,,,,,,3.0,2.0,Catalan,0.0,Castellano,3.0,Ingles,6.0,1.0,1.0,yes,no,no,Flauta,13,,,Me ha costado mucho encontrar diferencias entre las lenguas y tambien la fase 2,34.0,yes
135,2024-04-24_23h28.07.112,Unsyncopated_study2,s191,20.0,feminino,right,España,Catalan y castellano,Bachelor degree,no,no,A,2,conjunction_syn,L1,syncopated,s1,r2,7,Online_conjL1_syn//a.pu.ki19.none.none.wav,ta,fa,lu,be,sil,ne,fo,ri,sil1,ze,sil2,['-'],,,none,none,,,,pu,2,,,,,,,,,,,,,,,3.0,2.0,Catalan,0.0,Castellano,3.0,Ingles,6.0,1.0,1.0,yes,no,no,Flauta,13,,,Me ha costado mucho encontrar diferencias entre las lenguas y tambien la fase 2,34.0,yes
136,2024-04-24_23h28.07.112,Unsyncopated_study2,s191,20.0,feminino,right,España,Catalan y castellano,Bachelor degree,no,no,A,2,conjunction_syn,L1,syncopated,s2,r2,8,Online_conjL1_syn//b.ta.be0.666.1554.wav,cho,fa,fo,ta,sil,zu,la,be,sil1,ne,sil2,['miss'],,,0.666,no_beat,,,,be,1,,,,,,,,,,,,,,,3.0,2.0,Catalan,0.0,Castellano,3.0,Ingles,6.0,1.0,1.0,yes,no,no,Flauta,13,,,Me ha costado mucho encontrar diferencias entre las lenguas y tambien la fase 2,34.0,yes
137,2024-04-24_23h28.07.112,Unsyncopated_study2,s191,20.0,feminino,right,España,Catalan y castellano,Bachelor degree,no,no,A,2,conjunction_syn,L1,syncopated,s2,r2,9,Online_conjL1_syn//b.ta.be3.666.1554.wav,lu,ro,zu,ta,sil,ne,fo,be,sil1,ni,sil2,['catch'],[1.365099999904487],[1.365099999904487],0.666,no_beat,0.699099999904487,0.699099999904487,"[""space""]",be,1,,,,,,,,,,,,,,,3.0,2.0,Catalan,0.0,Castellano,3.0,Ingles,6.0,1.0,1.0,yes,no,no,Flauta,13,,,Me ha costado mucho encontrar diferencias entre las lenguas y tambien la fase 2,34.0,yes
138,2024-04-24_23h28.07.112,Unsyncopated_study2,s191,20.0,feminino,right,España,Catalan y castellano,Bachelor degree,no,no,A,2,conjunction_syn,L1,syncopated,s2,r1,10,Online_conjL1_syn//b.ta.be2.none.none.wav,ri,ne,fo,pu,sil,zu,la,ki,sil1,lu,sil2,['-'],,,none,none,,,,be,1,,,,,,,,,,,,,,,3.0,2.0,Catalan,0.0,Castellano,3.0,Ingles,6.0,1.0,1.0,yes,no,no,Flauta,13,,,Me ha costado mucho encontrar diferencias entre las lenguas y tambien la fase 2,34.0,yes
139,2024-04-24_23h28.07.112,Unsyncopated_study2,s191,20.0,feminino,right,España,Catalan y castellano,Bachelor degree,no,no,A,2,conjunction_syn,L1,syncopated,s2,r2,11,Online_conjL1_syn//b.ta.be1.666.1554.wav,ni,la,lu,ta,sil,cho,ro,be,sil1,ne,sil2,['catch'],[1.2545000000000073],[1.2545000000000073],0.666,no_beat,0.5885000000000072,0.5885000000000072,"[""space""]",be,1,,,,,,,,,,,,,,,3.0,2.0,Catalan,0.0,Castellano,3.0,Ingles,6.0,1.0,1.0,yes,no,no,Flauta,13,,,Me ha costado mucho encontrar diferencias entre las lenguas y tambien la fase 2,34.0,yes
140,2024-04-24_23h28.07.112,Unsyncopated_study2,s191,20.0,feminino,right,España,Catalan y castellano,Bachelor degree,no,no,A,2,conjunction_syn,L1,syncopated,s2,r1,12,Online_conjL1_syn//c.ro.fo26.444.0.wav,fo,ne,ro,pu,sil,ze,ni,ki,sil1,fa,sil2,['catch'],[1.1275000000000546],[1.1275000000000546],0.444,no_beat,0.6835000000000546,0.6835000000000546,"[""space""]",fo,3,,,,,,,,,,,,,,,3.0,2.0,Catalan,0.0,Castellano,3.0,Ingles,6.0,1.0,1.0,yes,no,no,Flauta,13,,,Me ha costado mucho encontrar diferencias entre las lenguas y tambien la fase 2,34.0,yes
141,2024-04-24_23h28.07.112,Unsyncopated_study2,s191,20.0,feminino,right,España,Catalan y castellano,Bachelor degree,no,no,A,2,conjunction_syn,L1,syncopated,s1,r1,13,Online_conjL1_syn//c.ro.fo24.1332.222.wav,pu,fo,ni,ki,sil,la,ro,ze,sil1,zu,sil2,['catch'],[1.9570999999045853],[1.9570999999045853],1.332,no_beat,0.6250999999045852,0.6250999999045852,"[""space""]",fo,3,,,,,,,,,,,,,,,3.0,2.0,Catalan,0.0,Castellano,3.0,Ingles,6.0,1.0,1.0,yes,no,no,Flauta,13,,,Me ha costado mucho encontrar diferencias entre las lenguas y tambien la fase 2,34.0,yes
142,2024-04-24_23h28.07.112,Unsyncopated_study2,s191,20.0,feminino,right,España,Catalan y castellano,Bachelor degree,no,no,A,2,conjunction_syn,L1,syncopated,s2,r2,14,Online_conjL1_syn//c.ro.fo27.444.1110.wav,la,fa,ro,ta,sil,fo,lu,be,sil1,ze,sil2,['catch'],[1.1912999999522071],[1.1912999999522071],0.444,no_beat,0.7472999999522072,0.7472999999522072,"[""space""]",fo,3,,,,,,,,,,,,,,,3.0,2.0,Catalan,0.0,Castellano,3.0,Ingles,6.0,1.0,1.0,yes,no,no,Flauta,13,,,Me ha costado mucho encontrar diferencias entre las lenguas y tambien la fase 2,34.0,yes
143,2024-04-24_23h28.07.112,Unsyncopated_study2,s191,20.0,feminino,right,España,Catalan y castellano,Bachelor degree,no,no,A,2,conjunction_syn,L1,syncopated,s2,r2,15,Online_conjL1_syn//c.ro.fo25.none.none.wav,lu,ri,fa,ta,sil,zu,cho,be,sil1,ze,sil2,['-'],,,none,none,,,,fo,3,,,,,,,,,,,,,,,3.0,2.0,Catalan,0.0,Castellano,3.0,Ingles,6.0,1.0,1.0,yes,no,no,Flauta,13,,,Me ha costado mucho encontrar diferencias entre las lenguas y tambien la fase 2,34.0,yes
144,2024-04-24_23h28.07.112,Unsyncopated_study2,s191,20.0,feminino,right,España,Catalan y castellano,Bachelor degree,no,no,A,2,conjunction_syn,L1,syncopated,s1,r2,16,Online_conjL1_syn//b.ta.be13.0.666.wav,ta,ni,fo,be,sil,ze,ne,fa,sil1,ri,sil2,['catch'],[0.8543999998569234],[0.8543999998569234],0.0,beat,0.8543999998569234,0.8543999998569234,"[""space""]",be,1,,,,,,,,,,,,,,,3.0,2.0,Catalan,0.0,Castellano,3.0,Ingles,6.0,1.0,1.0,yes,no,no,Flauta,13,,,Me ha costado mucho encontrar diferencias entre las lenguas y tambien la fase 2,34.0,yes
145,2024-04-24_23h28.07.112,Unsyncopated_study2,s191,20.0,feminino,right,España,Catalan y castellano,Bachelor degree,no,no,A,2,conjunction_syn,L1,syncopated,s1,r1,17,Online_conjL1_syn//b.ta.be12.none.none.wav,pu,ro,lu,ki,sil,ri,fa,ni,sil1,cho,sil2,['-'],,,none,none,,,,be,1,,,,,,,,,,,,,,,3.0,2.0,Catalan,0.0,Castellano,3.0,Ingles,6.0,1.0,1.0,yes,no,no,Flauta,13,,,Me ha costado mucho encontrar diferencias entre las lenguas y tambien la fase 2,34.0,yes
146,2024-04-24_23h28.07.112,Unsyncopated_study2,s191,20.0,feminino,right,España,Catalan y castellano,Bachelor degree,no,no,A,2,conjunction_syn,L1,syncopated,s2,r1,18,Online_conjL1_syn//b.ta.be15.none.none.wav,la,ni,lu,pu,sil,ri,cho,ki,sil1,fa,sil2,['-'],,,none,none,,,,be,1,,,,,,,,,,,,,,,3.0,2.0,Catalan,0.0,Castellano,3.0,Ingles,6.0,1.0,1.0,yes,no,no,Flauta,13,,,Me ha costado mucho encontrar diferencias entre las lenguas y tambien la fase 2,34.0,yes
147,2024-04-24_23h28.07.112,Unsyncopated_study2,s191,20.0,feminino,right,España,Catalan y castellano,Bachelor degree,no,no,A,2,conjunction_syn,L1,syncopated,s1,r2,19,Online_conjL1_syn//b.ta.be14.0.666.wav,ta,la,fa,be,sil,ni,fo,ro,sil1,lu,sil2,['catch'],[0.7784000000956439],[0.7784000000956439],0.0,beat,0.7784000000956439,0.7784000000956439,"[""space""]",be,1,,,,,,,,,,,,,,,3.0,2.0,Catalan,0.0,Castellano,3.0,Ingles,6.0,1.0,1.0,yes,no,no,Flauta,13,,,Me ha costado mucho encontrar diferencias entre las lenguas y tambien la fase 2,34.0,yes
148,2024-04-24_23h28.07.112,Unsyncopated_study2,s191,20.0,feminino,right,España,Catalan y castellano,Bachelor degree,no,no,A,2,conjunction_syn,L1,syncopated,s2,r1,20,Online_conjL1_syn//c.ro.fo11.none.none.wav,ze,zu,ni,pu,sil,la,cho,ki,sil1,ne,sil2,['-'],,,none,none,,,,fo,3,,,,,,,,,,,,,,,3.0,2.0,Catalan,0.0,Castellano,3.0,Ingles,6.0,1.0,1.0,yes,no,no,Flauta,13,,,Me ha costado mucho encontrar diferencias entre las lenguas y tambien la fase 2,34.0,yes
149,2024-04-24_23h28.07.112,Unsyncopated_study2,s191,20.0,feminino,right,España,Catalan y castellano,Bachelor degree,no,no,A,2,conjunction_syn,L1,syncopated,s1,r1,21,Online_conjL1_syn//c.ro.fo9.1554.1110.wav,pu,ni,lu,ki,sil,fo,fa,ro,sil1,ne,sil2,['catch'],[2.319500000000062],[2.319500000000062],1.554,no_beat,0.7655000000000618,0.7655000000000618,"[""space""]",fo,3,,,,,,,,,,,,,,,3.0,2.0,Catalan,0.0,Castellano,3.0,Ingles,6.0,1.0,1.0,yes,no,no,Flauta,13,,,Me ha costado mucho encontrar diferencias entre las lenguas y tambien la fase 2,34.0,yes
150,2024-04-24_23h28.07.112,Unsyncopated_study2,s191,20.0,feminino,right,España,Catalan y castellano,Bachelor degree,no,no,A,2,conjunction_syn,L1,syncopated,s1,r2,22,Online_conjL1_syn//c.ro.fo8.444.1332.wav,ta,lu,ro,be,sil,ni,fo,zu,sil1,fa,sil2,['miss'],,,0.444,no_beat,,,,fo,3,,,,,,,,,,,,,,,3.0,2.0,Catalan,0.0,Castellano,3.0,Ingles,6.0,1.0,1.0,yes,no,no,Flauta,13,,,Me ha costado mucho encontrar diferencias entre las lenguas y tambien la fase 2,34.0,yes
151,2024-04-24_23h28.07.112,Unsyncopated_study2,s191,20.0,feminino,right,España,Catalan y castellano,Bachelor degree,no,no,A,2,conjunction_syn,L1,syncopated,s2,r2,23,Online_conjL1_syn//c.ro.fo10.222.444.wav,zu,ro,fo,ta,sil,ni,cho,be,sil1,ze,sil2,['catch'],[0.985799999952178],[0.985799999952178],0.222,no_beat,0.7637999999521781,0.7637999999521781,"[""space""]",fo,3,,,,,,,,,,,,,,,3.0,2.0,Catalan,0.0,Castellano,3.0,Ingles,6.0,1.0,1.0,yes,no,no,Flauta,13,,,Me ha costado mucho encontrar diferencias entre las lenguas y tambien la fase 2,34.0,yes
152,2024-04-24_23h28.07.112,Unsyncopated_study2,s191,20.0,feminino,right,España,Catalan y castellano,Bachelor degree,no,no,A,2,conjunction_syn,L1,syncopated,s1,r2,24,Online_conjL1_syn//b.ta.be25.0.666.wav,ta,ri,ze,be,sil,ni,cho,lu,sil1,ne,sil2,['catch'],[0.7786999998093052],[0.7786999998093052],0.0,beat,0.7786999998093052,0.7786999998093052,"[""space""]",be,1,,,,,,,,,,,,,,,3.0,2.0,Catalan,0.0,Castellano,3.0,Ingles,6.0,1.0,1.0,yes,no,no,Flauta,13,,,Me ha costado mucho encontrar diferencias entre las lenguas y tambien la fase 2,34.0,yes
153,2024-04-24_23h28.07.112,Unsyncopated_study2,s191,20.0,feminino,right,España,Catalan y castellano,Bachelor degree,no,no,A,2,conjunction_syn,L1,syncopated,s1,r1,25,Online_conjL1_syn//b.ta.be27.none.none.wav,pu,ze,lu,ki,sil,ro,fo,ni,sil1,ri,sil2,['-'],,,none,none,,,,be,1,,,,,,,,,,,,,,,3.0,2.0,Catalan,0.0,Castellano,3.0,Ingles,6.0,1.0,1.0,yes,no,no,Flauta,13,,,Me ha costado mucho encontrar diferencias entre las lenguas y tambien la fase 2,34.0,yes
154,2024-04-24_23h28.07.112,Unsyncopated_study2,s191,20.0,feminino,right,España,Catalan y castellano,Bachelor degree,no,no,A,2,conjunction_syn,L1,syncopated,s2,r2,26,Online_conjL1_syn//b.ta.be24.666.1554.wav,fo,ni,ro,ta,sil,ri,cho,be,sil1,ne,sil2,['catch'],[1.3642999999519816],[1.3642999999519816],0.666,no_beat,0.6982999999519816,0.6982999999519816,"[""space""]",be,1,,,,,,,,,,,,,,,3.0,2.0,Catalan,0.0,Castellano,3.0,Ingles,6.0,1.0,1.0,yes,no,no,Flauta,13,,,Me ha costado mucho encontrar diferencias entre las lenguas y tambien la fase 2,34.0,yes
155,2024-04-24_23h28.07.112,Unsyncopated_study2,s191,20.0,feminino,right,España,Catalan y castellano,Bachelor degree,no,no,A,2,conjunction_syn,L1,syncopated,s2,r2,27,Online_conjL1_syn//b.ta.be26.666.1554.wav,cho,lu,la,ta,sil,fo,ro,be,sil1,zu,sil2,['miss'],,,0.666,no_beat,,,,be,1,,,,,,,,,,,,,,,3.0,2.0,Catalan,0.0,Castellano,3.0,Ingles,6.0,1.0,1.0,yes,no,no,Flauta,13,,,Me ha costado mucho encontrar diferencias entre las lenguas y tambien la fase 2,34.0,yes
156,2024-04-24_23h28.07.112,Unsyncopated_study2,s191,20.0,feminino,right,España,Catalan y castellano,Bachelor degree,no,no,A,2,conjunction_syn,L1,syncopated,s2,r1,28,Online_conjL1_syn//d.ne.ni5.none.none.wav,zu,ri,ze,pu,sil,cho,fa,ki,sil1,la,sil2,['-'],,,none,none,,,,ni,4,,,,,,,,,,,,,,,3.0,2.0,Catalan,0.0,Castellano,3.0,Ingles,6.0,1.0,1.0,yes,no,no,Flauta,13,,,Me ha costado mucho encontrar diferencias entre las lenguas y tambien la fase 2,34.0,yes
157,2024-04-24_23h28.07.112,Unsyncopated_study2,s191,20.0,feminino,right,España,Catalan y castellano,Bachelor degree,no,no,A,2,conjunction_syn,L1,syncopated,s1,r1,29,Online_conjL1_syn//d.ne.ni4.222.1332.wav,pu,ne,cho,ki,sil,ri,ni,ro,sil1,zu,sil2,['catch'],[1.2680999999042797],[1.2680999999042797],0.222,no_beat,1.0460999999042797,1.0460999999042797,"[""space""]",ni,4,,,,,,,,,,,,,,,3.0,2.0,Catalan,0.0,Castellano,3.0,Ingles,6.0,1.0,1.0,yes,no,no,Flauta,13,,,Me ha costado mucho encontrar diferencias entre las lenguas y tambien la fase 2,34.0,yes
158,2024-04-24_23h28.07.112,Unsyncopated_study2,s191,20.0,feminino,right,España,Catalan y castellano,Bachelor degree,no,no,A,2,conjunction_syn,L1,syncopated,s1,r1,30,Online_conjL1_syn//d.ne.ni7.444.1110.wav,pu,lu,ne,ki,sil,ni,ri,ze,sil1,zu,sil2,['miss'],,,0.444,no_beat,,,,ni,4,,,,,,,,,,,,,,,3.0,2.0,Catalan,0.0,Castellano,3.0,Ingles,6.0,1.0,1.0,yes,no,no,Flauta,13,,,Me ha costado mucho encontrar diferencias entre las lenguas y tambien la fase 2,34.0,yes
159,2024-04-24_23h28.07.112,Unsyncopated_study2,s191,20.0,feminino,right,España,Catalan y castellano,Bachelor degree,no,no,A,2,conjunction_syn,L1,syncopated,s1,r2,31,Online_conjL1_syn//d.ne.ni6.444.1110.wav,ta,zu,ne,be,sil,ni,ze,la,sil1,fa,sil2,['miss'],,,0.444,no_beat,,,,ni,4,,,,,,,,,,,,,,,3.0,2.0,Catalan,0.0,Castellano,3.0,Ingles,6.0,1.0,1.0,yes,no,no,Flauta,13,,,Me ha costado mucho encontrar diferencias entre las lenguas y tambien la fase 2,34.0,yes
160,2024-04-24_23h28.07.112,Unsyncopated_study2,s191,20.0,feminino,right,España,Catalan y castellano,Bachelor degree,no,no,A,2,conjunction_syn,L1,syncopated,s2,r2,32,Online_conjL1_syn//d.ne.ni22.1110.0.wav,ni,ze,lu,ta,sil,ne,cho,be,sil1,zu,sil2,['catch'],[1.8449999999998],[1.8449999999998],1.11,no_beat,0.7349999999997998,0.7349999999997998,"[""space""]",ni,4,,,,,,,,,,,,,,,3.0,2.0,Catalan,0.0,Castellano,3.0,Ingles,6.0,1.0,1.0,yes,no,no,Flauta,13,,,Me ha costado mucho encontrar diferencias entre las lenguas y tambien la fase 2,34.0,yes
161,2024-04-24_23h28.07.112,Unsyncopated_study2,s191,20.0,feminino,right,España,Catalan y castellano,Bachelor degree,no,no,A,2,conjunction_syn,L1,syncopated,s1,r1,33,Online_conjL1_syn//d.ne.ni21.none.none.wav,pu,lu,fo,ki,sil,ze,cho,ro,sil1,zu,sil2,['-'],,,none,none,,,,ni,4,,,,,,,,,,,,,,,3.0,2.0,Catalan,0.0,Castellano,3.0,Ingles,6.0,1.0,1.0,yes,no,no,Flauta,13,,,Me ha costado mucho encontrar diferencias entre las lenguas y tambien la fase 2,34.0,yes
162,2024-04-24_23h28.07.112,Unsyncopated_study2,s191,20.0,feminino,right,España,Catalan y castellano,Bachelor degree,no,no,A,2,conjunction_syn,L1,syncopated,s2,r1,34,Online_conjL1_syn//d.ne.ni23.0.444.wav,ne,fo,ni,pu,sil,ri,fa,ki,sil1,lu,sil2,['catch'],[1.2350000000001273],[1.2350000000001273],0.0,beat,,1.235000000000127,"[""space""]",ni,4,,,,,,,,,,,,,,,3.0,2.0,Catalan,0.0,Castellano,3.0,Ingles,6.0,1.0,1.0,yes,no,no,Flauta,13,,,Me ha costado mucho encontrar diferencias entre las lenguas y tambien la fase 2,34.0,yes
163,2024-04-24_23h28.07.112,Unsyncopated_study2,s191,20.0,feminino,right,España,Catalan y castellano,Bachelor degree,no,no,A,2,conjunction_syn,L1,syncopated,s2,r2,35,Online_conjL1_syn//d.ne.ni20.none.none.wav,ze,lu,ro,ta,sil,fa,ri,be,sil1,cho,sil2,['-'],,,none,none,,,,ni,4,,,,,,,,,,,,,,,3.0,2.0,Catalan,0.0,Castellano,3.0,Ingles,6.0,1.0,1.0,yes,no,no,Flauta,13,,,Me ha costado mucho encontrar diferencias entre las lenguas y tambien la fase 2,34.0,yes
164,2024-04-24_23h28.07.112,Unsyncopated_study2,s191,20.0,feminino,right,España,Catalan y castellano,Bachelor degree,no,no,A,2,conjunction_syn,L1,syncopated,s2,r1,36,Online_conjL1_syn//b.ta.be7.none.none.wav,fa,ne,lu,pu,sil,zu,fo,ki,sil1,cho,sil2,['false alarm'],[0.5793999998568324],[0.5793999998568324],none,none,,,"[""space""]",be,1,,,,,,,,,,,,,,,3.0,2.0,Catalan,0.0,Castellano,3.0,Ingles,6.0,1.0,1.0,yes,no,no,Flauta,13,,,Me ha costado mucho encontrar diferencias entre las lenguas y tambien la fase 2,34.0,yes
165,2024-04-24_23h28.07.112,Unsyncopated_study2,s191,20.0,feminino,right,España,Catalan y castellano,Bachelor degree,no,no,A,2,conjunction_syn,L1,syncopated,s2,r1,37,Online_conjL1_syn//b.ta.be5.none.none.wav,la,ro,cho,pu,sil,fa,ne,ki,sil1,ze,sil2,['-'],,,none,none,,,,be,1,,,,,,,,,,,,,,,3.0,2.0,Catalan,0.0,Castellano,3.0,Ingles,6.0,1.0,1.0,yes,no,no,Flauta,13,,,Me ha costado mucho encontrar diferencias entre las lenguas y tambien la fase 2,34.0,yes
166,2024-04-24_23h28.07.112,Unsyncopated_study2,s191,20.0,feminino,right,España,Catalan y castellano,Bachelor degree,no,no,A,2,conjunction_syn,L1,syncopated,s1,r1,38,Online_conjL1_syn//b.ta.be6.none.none.wav,pu,cho,fo,ki,sil,ni,ro,ri,sil1,lu,sil2,['-'],,,none,none,,,,be,1,,,,,,,,,,,,,,,3.0,2.0,Catalan,0.0,Castellano,3.0,Ingles,6.0,1.0,1.0,yes,no,no,Flauta,13,,,Me ha costado mucho encontrar diferencias entre las lenguas y tambien la fase 2,34.0,yes
167,2024-04-24_23h28.07.112,Unsyncopated_study2,s191,20.0,feminino,right,España,Catalan y castellano,Bachelor degree,no,no,A,2,conjunction_syn,L1,syncopated,s1,r1,39,Online_conjL1_syn//b.ta.be4.none.none.wav,pu,la,fo,ki,sil,cho,ze,lu,sil1,ri,sil2,['-'],,,none,none,,,,be,1,,,,,,,,,,,,,,,3.0,2.0,Catalan,0.0,Castellano,3.0,Ingles,6.0,1.0,1.0,yes,no,no,Flauta,13,,,Me ha costado mucho encontrar diferencias entre las lenguas y tambien la fase 2,34.0,yes
168,2024-04-24_23h28.07.112,Unsyncopated_study2,s191,20.0,feminino,right,España,Catalan y castellano,Bachelor degree,no,no,A,2,conjunction_syn,L1,syncopated,s1,r2,40,Online_conjL1_syn//b.ta.be11.0.666.wav,ta,zu,lu,be,sil,ni,ro,cho,sil1,fo,sil2,['catch'],[0.8959000000954802],[0.8959000000954802],0.0,beat,0.8959000000954802,0.8959000000954802,"[""space""]",be,1,,,,,,,,,,,,,,,3.0,2.0,Catalan,0.0,Castellano,3.0,Ingles,6.0,1.0,1.0,yes,no,no,Flauta,13,,,Me ha costado mucho encontrar diferencias entre las lenguas y tambien la fase 2,34.0,yes
169,2024-04-24_23h28.07.112,Unsyncopated_study2,s191,20.0,feminino,right,España,Catalan y castellano,Bachelor degree,no,no,A,2,conjunction_syn,L1,syncopated,s1,r2,41,Online_conjL1_syn//b.ta.be8.0.666.wav,ta,la,zu,be,sil,ro,cho,ze,sil1,lu,sil2,['miss'],,,0.0,beat,,,,be,1,,,,,,,,,,,,,,,3.0,2.0,Catalan,0.0,Castellano,3.0,Ingles,6.0,1.0,1.0,yes,no,no,Flauta,13,,,Me ha costado mucho encontrar diferencias entre las lenguas y tambien la fase 2,34.0,yes
170,2024-04-24_23h28.07.112,Unsyncopated_study2,s191,20.0,feminino,right,España,Catalan y castellano,Bachelor degree,no,no,A,2,conjunction_syn,L1,syncopated,s1,r2,42,Online_conjL1_syn//b.ta.be10.0.666.wav,ta,cho,ri,be,sil,ni,zu,ze,sil1,ne,sil2,['miss'],,,0.0,beat,,,,be,1,,,,,,,,,,,,,,,3.0,2.0,Catalan,0.0,Castellano,3.0,Ingles,6.0,1.0,1.0,yes,no,no,Flauta,13,,,Me ha costado mucho encontrar diferencias entre las lenguas y tambien la fase 2,34.0,yes
171,2024-04-24_23h28.07.112,Unsyncopated_study2,s191,20.0,feminino,right,España,Catalan y castellano,Bachelor degree,no,no,A,2,conjunction_syn,L1,syncopated,s2,r2,43,Online_conjL1_syn//b.ta.be9.666.1554.wav,la,lu,ne,ta,sil,ze,fo,be,sil1,zu,sil2,['miss'],,,0.666,no_beat,,,,be,1,,,,,,,,,,,,,,,3.0,2.0,Catalan,0.0,Castellano,3.0,Ingles,6.0,1.0,1.0,yes,no,no,Flauta,13,,,Me ha costado mucho encontrar diferencias entre las lenguas y tambien la fase 2,34.0,yes
172,2024-04-24_23h28.07.112,Unsyncopated_study2,s191,20.0,feminino,right,España,Catalan y castellano,Bachelor degree,no,no,A,2,conjunction_syn,L1,syncopated,s1,r2,44,Online_conjL1_syn//a.pu.ki30.none.none.wav,ta,fa,ro,be,sil,ni,zu,la,sil1,ze,sil2,['false alarm'],[1.0664999999999054],[1.0664999999999054],none,none,,,"[""space""]",pu,2,,,,,,,,,,,,,,,3.0,2.0,Catalan,0.0,Castellano,3.0,Ingles,6.0,1.0,1.0,yes,no,no,Flauta,13,,,Me ha costado mucho encontrar diferencias entre las lenguas y tambien la fase 2,34.0,yes
173,2024-04-24_23h28.07.112,Unsyncopated_study2,s191,20.0,feminino,right,España,Catalan y castellano,Bachelor degree,no,no,A,2,conjunction_syn,L1,syncopated,s2,r2,45,Online_conjL1_syn//a.pu.ki31.none.none.wav,lu,fo,fa,ta,sil,ro,ni,be,sil1,la,sil2,['-'],,,none,none,,,,pu,2,,,,,,,,,,,,,,,3.0,2.0,Catalan,0.0,Castellano,3.0,Ingles,6.0,1.0,1.0,yes,no,no,Flauta,13,,,Me ha costado mucho encontrar diferencias entre las lenguas y tambien la fase 2,34.0,yes
174,2024-04-24_23h28.07.112,Unsyncopated_study2,s191,20.0,feminino,right,España,Catalan y castellano,Bachelor degree,no,no,A,2,conjunction_syn,L1,syncopated,s2,r1,46,Online_conjL1_syn//a.pu.ki29.666.1554.wav,ze,ne,ro,pu,sil,lu,la,ki,sil1,fo,sil2,['miss'],,,1.554,no_beat,,,,pu,2,,,,,,,,,,,,,,,3.0,2.0,Catalan,0.0,Castellano,3.0,Ingles,6.0,1.0,1.0,yes,no,no,Flauta,13,,,Me ha costado mucho encontrar diferencias entre las lenguas y tambien la fase 2,34.0,yes
175,2024-04-24_23h28.07.112,Unsyncopated_study2,s191,20.0,feminino,right,España,Catalan y castellano,Bachelor degree,no,no,A,2,conjunction_syn,L1,syncopated,s2,r1,47,Online_conjL1_syn//a.pu.ki28.666.1554.wav,cho,ro,fo,pu,sil,ze,ni,ki,sil1,zu,sil2,['miss'],,,1.554,no_beat,,,,pu,2,,,,,,,,,,,,,,,3.0,2.0,Catalan,0.0,Castellano,3.0,Ingles,6.0,1.0,1.0,yes,no,no,Flauta,13,,,Me ha costado mucho encontrar diferencias entre las lenguas y tambien la fase 2,34.0,yes
176,2024-04-24_23h28.07.112,Unsyncopated_study2,s191,20.0,feminino,right,España,Catalan y castellano,Bachelor degree,no,no,A,2,conjunction_syn,L1,syncopated,s1,r1,48,Online_conjL1_syn//c.ro.fo18.1110.222.wav,pu,fo,zu,ki,sil,ro,cho,ze,sil1,ne,sil2,['catch'],[1.8054999999999382],[1.8054999999999382],1.11,no_beat,0.6954999999999381,0.6954999999999381,"[""space""]",fo,3,,,,,,,,,,,,,,,3.0,2.0,Catalan,0.0,Castellano,3.0,Ingles,6.0,1.0,1.0,yes,no,no,Flauta,13,,,Me ha costado mucho encontrar diferencias entre las lenguas y tambien la fase 2,34.0,yes
177,2024-04-24_23h28.07.112,Unsyncopated_study2,s191,20.0,feminino,right,España,Catalan y castellano,Bachelor degree,no,no,A,2,conjunction_syn,L1,syncopated,s1,r2,49,Online_conjL1_syn//c.ro.fo16.1332.222.wav,ta,fo,ni,be,sil,la,ro,lu,sil1,fa,sil2,['catch'],[2.306999999999789],[2.306999999999789],1.332,no_beat,0.9749999999997888,0.9749999999997888,"[""space""]",fo,3,,,,,,,,,,,,,,,3.0,2.0,Catalan,0.0,Castellano,3.0,Ingles,6.0,1.0,1.0,yes,no,no,Flauta,13,,,Me ha costado mucho encontrar diferencias entre las lenguas y tambien la fase 2,34.0,yes
178,2024-04-24_23h28.07.112,Unsyncopated_study2,s191,20.0,feminino,right,España,Catalan y castellano,Bachelor degree,no,no,A,2,conjunction_syn,L1,syncopated,s2,r1,50,Online_conjL1_syn//c.ro.fo17.444.0.wav,fo,fa,ro,pu,sil,lu,ze,ki,sil1,ni,sil2,['catch'],[1.1547000000477965],[1.1547000000477965],0.444,no_beat,0.7107000000477965,0.7107000000477965,"[""space""]",fo,3,,,,,,,,,,,,,,,3.0,2.0,Catalan,0.0,Castellano,3.0,Ingles,6.0,1.0,1.0,yes,no,no,Flauta,13,,,Me ha costado mucho encontrar diferencias entre las lenguas y tambien la fase 2,34.0,yes
179,2024-04-24_23h28.07.112,Unsyncopated_study2,s191,20.0,feminino,right,España,Catalan y castellano,Bachelor degree,no,no,A,2,conjunction_syn,L1,syncopated,s2,r1,51,Online_conjL1_syn//c.ro.fo19.none.none.wav,la,ni,zu,pu,sil,ne,ri,ki,sil1,lu,sil2,['-'],,,none,none,,,,fo,3,,,,,,,,,,,,,,,3.0,2.0,Catalan,0.0,Castellano,3.0,Ingles,6.0,1.0,1.0,yes,no,no,Flauta,13,,,Me ha costado mucho encontrar diferencias entre las lenguas y tambien la fase 2,34.0,yes
180,2024-04-24_23h28.07.112,Unsyncopated_study2,s191,20.0,feminino,right,España,Catalan y castellano,Bachelor degree,no,no,A,2,conjunction_syn,L1,syncopated,s2,r2,52,Online_conjL1_syn//d.ne.ni29.0.444.wav,ne,fa,ni,ta,sil,ri,zu,be,sil1,lu,sil2,['miss'],,,0.0,beat,,,,ni,4,,,,,,,,,,,,,,,3.0,2.0,Catalan,0.0,Castellano,3.0,Ingles,6.0,1.0,1.0,yes,no,no,Flauta,13,,,Me ha costado mucho encontrar diferencias entre las lenguas y tambien la fase 2,34.0,yes
181,2024-04-24_23h28.07.112,Unsyncopated_study2,s191,20.0,feminino,right,España,Catalan y castellano,Bachelor degree,no,no,A,2,conjunction_syn,L1,syncopated,s2,r2,53,Online_conjL1_syn//d.ne.ni30.222.1110.wav,fa,ne,lu,ta,sil,ni,ri,be,sil1,ze,sil2,['catch'],[1.1451999998093925],[1.1451999998093925],0.222,no_beat,0.9231999998093924,0.9231999998093924,"[""space""]",ni,4,,,,,,,,,,,,,,,3.0,2.0,Catalan,0.0,Castellano,3.0,Ingles,6.0,1.0,1.0,yes,no,no,Flauta,13,,,Me ha costado mucho encontrar diferencias entre las lenguas y tambien la fase 2,34.0,yes
182,2024-04-24_23h28.07.112,Unsyncopated_study2,s191,20.0,feminino,right,España,Catalan y castellano,Bachelor degree,no,no,A,2,conjunction_syn,L1,syncopated,s1,r2,54,Online_conjL1_syn//d.ne.ni28.none.none.wav,ta,lu,zu,be,sil,fa,la,ro,sil1,ri,sil2,['-'],,,none,none,,,,ni,4,,,,,,,,,,,,,,,3.0,2.0,Catalan,0.0,Castellano,3.0,Ingles,6.0,1.0,1.0,yes,no,no,Flauta,13,,,Me ha costado mucho encontrar diferencias entre las lenguas y tambien la fase 2,34.0,yes
183,2024-04-24_23h28.07.112,Unsyncopated_study2,s191,20.0,feminino,right,España,Catalan y castellano,Bachelor degree,no,no,A,2,conjunction_syn,L1,syncopated,s2,r1,55,Online_conjL1_syn//d.ne.ni31.0.1110.wav,ne,zu,fa,pu,sil,ni,lu,ki,sil1,ro,sil2,['catch'],[2.5026000001430475],[2.5026000001430475],0.0,beat,,2.5026000001430475,"[""space""]",ni,4,,,,,,,,,,,,,,,3.0,2.0,Catalan,0.0,Castellano,3.0,Ingles,6.0,1.0,1.0,yes,no,no,Flauta,13,,,Me ha costado mucho encontrar diferencias entre las lenguas y tambien la fase 2,34.0,yes
184,2024-04-24_23h28.07.112,Unsyncopated_study2,s191,20.0,feminino,right,España,Catalan y castellano,Bachelor degree,no,no,A,2,conjunction_syn,L1,syncopated,s2,r2,56,Online_conjL1_syn//d.ne.ni24.none.none.wav,lu,ro,la,ta,sil,fa,fo,be,sil1,zu,sil2,['-'],,,none,none,,,,ni,4,,,,,,,,,,,,,,,3.0,2.0,Catalan,0.0,Castellano,3.0,Ingles,6.0,1.0,1.0,yes,no,no,Flauta,13,,,Me ha costado mucho encontrar diferencias entre las lenguas y tambien la fase 2,34.0,yes
185,2024-04-24_23h28.07.112,Unsyncopated_study2,s191,20.0,feminino,right,España,Catalan y castellano,Bachelor degree,no,no,A,2,conjunction_syn,L1,syncopated,s1,r2,57,Online_conjL1_syn//d.ne.ni27.none.none.wav,ta,la,fo,be,sil,zu,cho,ze,sil1,ri,sil2,['-'],,,none,none,,,,ni,4,,,,,,,,,,,,,,,3.0,2.0,Catalan,0.0,Castellano,3.0,Ingles,6.0,1.0,1.0,yes,no,no,Flauta,13,,,Me ha costado mucho encontrar diferencias entre las lenguas y tambien la fase 2,34.0,yes
186,2024-04-24_23h28.07.112,Unsyncopated_study2,s191,20.0,feminino,right,España,Catalan y castellano,Bachelor degree,no,no,A,2,conjunction_syn,L1,syncopated,s1,r2,58,Online_conjL1_syn//d.ne.ni25.222.1110.wav,ta,ne,ze,be,sil,ni,cho,la,sil1,lu,sil2,['catch'],[1.1862999999525528],[1.1862999999525528],0.222,no_beat,0.9642999999525528,0.9642999999525528,"[""space""]",ni,4,,,,,,,,,,,,,,,3.0,2.0,Catalan,0.0,Castellano,3.0,Ingles,6.0,1.0,1.0,yes,no,no,Flauta,13,,,Me ha costado mucho encontrar diferencias entre las lenguas y tambien la fase 2,34.0,yes
187,2024-04-24_23h28.07.112,Unsyncopated_study2,s191,20.0,feminino,right,España,Catalan y castellano,Bachelor degree,no,no,A,2,conjunction_syn,L1,syncopated,s2,r1,59,Online_conjL1_syn//d.ne.ni26.none.none.wav,ze,zu,fa,pu,sil,cho,lu,ki,sil1,fo,sil2,['-'],,,none,none,,,,ni,4,,,,,,,,,,,,,,,3.0,2.0,Catalan,0.0,Castellano,3.0,Ingles,6.0,1.0,1.0,yes,no,no,Flauta,13,,,Me ha costado mucho encontrar diferencias entre las lenguas y tambien la fase 2,34.0,yes
