Unnamed: 0,date,expName,participant,age,sex,hand,residence,native_lang,education_level,lang_deficit,aud_deficit,group,block,condition,language,rhythm,rule structure online,rule type online,order_trial_on,trial_online,s1,s2,s3,s4,s5,s6,s7,s8,s9,s10,s11,catch_syll_resp,rts_syll_catch,clean_rts,time_syll,beat_no_beat,catch_rtsTR,catch_rts,syllable_catch.keys,cond_syll,syll_to_catch,test_offline,block_off,condition_off,rhythm_off,rule,rule_str_off,rule_norule,conds_offline,language_off,Partz_no_partm.keys,Partz_no_partm.rt,security_1_7.keys,accuracy,security_1_7.rt,n_lang,n_lang_used,lang_1,age_l1,lang_2,age_l2,lang_3,age_l3,ability_learn_l2,tendence_mix_lan,music_experience,muisc_use,partiture,instr_1,age_M1,instr_2,age_M2,preguntas_musica1,BMRQ_answer.response,final comment,BMRQ_Score,bilingual
0,2024-04-22_18h58.21.570,Experiment4_uns,s185,22.0,masculino,left,España,Catalán,Bachelor degree,no,no,B,1,conjunction_un,L4,unsyncopated,s2,r1,0,Online_conjL4_un//c.bu.da23.none.none.wav,po,ru,pe,sil,zi,re,ña,sil1,lo,ci,sil2,['-'],,,none,none,,,,da,3,testConjL4Uns//r1.s1.2.wav,1.0,conjunction_un,unsyncopated,a,s1,rule,rule,L4,z,2.3363,5.0,1.0,7.946,3.0,3.0,Catalán,0.0,Castellano,4.0,Inglés,6.0,4.0,2.0,yes,no,yes,Piano,6,Flauta,6,1. Cuando comparto música con alguien siento una complicidad especial con aquella persona.,3.0,Creo que ha sido en el lenguaje 3. He recibido una videollamada y se me han desconectado los auriculares durante unos instantes.,68.0,yes
1,2024-04-22_18h58.21.570,Experiment4_uns,s185,22.0,masculino,left,España,Catalán,Bachelor degree,no,no,B,1,conjunction_un,L4,unsyncopated,s2,r1,1,Online_conjL4_un//c.bu.da22.1110.0.wav,da,ci,bo,sil,zi,bu,ru,sil1,lo,pe,sil2,['catch'],[0.7916000001430348],[0.7916000001430348],0.0,beat,0.7916000001430348,0.7916000001430348,"[""space""]",da,3,testConjL4Uns//dep_viol.r1.s2.0.wav,1.0,conjunction_un,unsyncopated,a,s2,no_rule,dep,L4,m,2.702,3.0,1.0,6.255,3.0,3.0,Catalán,0.0,Castellano,4.0,Inglés,6.0,4.0,2.0,yes,no,yes,Piano,6,Flauta,6,2. En mi tiempo libre apenas escucho música.,4.0,Creo que ha sido en el lenguaje 3. He recibido una videollamada y se me han desconectado los auriculares durante unos instantes.,68.0,yes
2,2024-04-22_18h58.21.570,Experiment4_uns,s185,22.0,masculino,left,España,Catalán,Bachelor degree,no,no,B,1,conjunction_un,L4,unsyncopated,s1,r1,2,Online_conjL4_un//c.bu.da20.1332.222.wav,zi,da,pe,sil,lo,ñi,bu,sil1,po,de,sil2,['miss'],,,0.222,no_beat,,,,da,3,testConjL4Uns//dep_viol.r2.s2.0.wav,1.0,conjunction_un,unsyncopated,b,s2,no_rule,dep,L4,z,2.2333,4.0,0.0,7.6358,3.0,3.0,Catalán,0.0,Castellano,4.0,Inglés,6.0,4.0,2.0,yes,no,yes,Piano,6,Flauta,6,3. Algunas canciones me ponen los pelos de punta,4.0,Creo que ha sido en el lenguaje 3. He recibido una videollamada y se me han desconectado los auriculares durante unos instantes.,68.0,yes
3,2024-04-22_18h58.21.570,Experiment4_uns,s185,22.0,masculino,left,España,Catalán,Bachelor degree,no,no,B,1,conjunction_un,L4,unsyncopated,s2,r2,3,Online_conjL4_un//c.bu.da21.none.none.wav,de,bo,ñi,sil,ja,ci,po,sil1,nu,re,sil2,['-'],,,none,none,,,,da,3,testConjL4Uns//r2.s2.0.wav,1.0,conjunction_un,unsyncopated,b,s2,rule,rule,L4,z,1.5349,6.0,1.0,1.5915,3.0,3.0,Catalán,0.0,Castellano,4.0,Inglés,6.0,4.0,2.0,yes,no,yes,Piano,6,Flauta,6,4. La música me hace compañía cuando estoy solo,4.0,Creo que ha sido en el lenguaje 3. He recibido una videollamada y se me han desconectado los auriculares durante unos instantes.,68.0,yes
4,2024-04-22_18h58.21.570,Experiment4_uns,s185,22.0,masculino,left,España,Catalán,Bachelor degree,no,no,B,1,conjunction_un,L4,unsyncopated,s2,r2,4,Online_conjL4_un//a.zi.lo15.none.none.wav,po,ñi,pe,sil,ja,da,bo,sil1,nu,de,sil2,['-'],,,none,none,,,,zi,1,testConjL4Uns//r1.s2.2.wav,1.0,conjunction_un,unsyncopated,a,s2,rule,rule,L4,m,5.1533,3.0,0.0,2.7095,3.0,3.0,Catalán,0.0,Castellano,4.0,Inglés,6.0,4.0,2.0,yes,no,yes,Piano,6,Flauta,6,5. No me apetece bailar ni con la música que más me gusta,5.0,Creo que ha sido en el lenguaje 3. He recibido una videollamada y se me han desconectado los auriculares durante unos instantes.,68.0,yes
5,2024-04-22_18h58.21.570,Experiment4_uns,s185,22.0,masculino,left,España,Catalán,Bachelor degree,no,no,B,1,conjunction_un,L4,unsyncopated,s2,r2,5,Online_conjL4_un//a.zi.lo12.none.none.wav,re,bo,pe,sil,ja,bu,ru,sil1,nu,de,sil2,['-'],,,none,none,,,,zi,1,testConjL4Uns//r2.s2.1.wav,1.0,conjunction_un,unsyncopated,b,s2,rule,rule,L4,z,1.7008,3.0,1.0,2.0083,3.0,3.0,Catalán,0.0,Castellano,4.0,Inglés,6.0,4.0,2.0,yes,no,yes,Piano,6,Flauta,6,6. La música me hace conectar con la gente,3.0,Creo que ha sido en el lenguaje 3. He recibido una videollamada y se me han desconectado los auriculares durante unos instantes.,68.0,yes
6,2024-04-22_18h58.21.570,Experiment4_uns,s185,22.0,masculino,left,España,Catalán,Bachelor degree,no,no,B,1,conjunction_un,L4,unsyncopated,s1,r1,6,Online_conjL4_un//a.zi.lo14.0.888.wav,zi,po,ñi,sil,lo,bo,da,sil1,pe,bu,sil2,['catch'],[0.9956000001429857],[0.9956000001429857],0.0,beat,0.9956000001429856,0.9956000001429856,"[""space""]",zi,1,testConjL4Uns//time_viol.r1.s1.0.wav,1.0,conjunction_un,unsyncopated,a,s1,no_rule,time,L4,z,2.3396,3.0,0.0,1.6076,3.0,3.0,Catalán,0.0,Castellano,4.0,Inglés,6.0,4.0,2.0,yes,no,yes,Piano,6,Flauta,6,7. Me informo sobre la música que me gusta.,4.0,Creo que ha sido en el lenguaje 3. He recibido una videollamada y se me han desconectado los auriculares durante unos instantes.,68.0,yes
7,2024-04-22_18h58.21.570,Experiment4_uns,s185,22.0,masculino,left,España,Catalán,Bachelor degree,no,no,B,1,conjunction_un,L4,unsyncopated,s2,r2,7,Online_conjL4_un//a.zi.lo13.none.none.wav,re,ña,bo,sil,ja,bu,ñi,sil1,nu,da,sil2,['-'],,,none,none,,,,zi,1,testConjL4Uns//cat_viol.r1.s2.0.wav,1.0,conjunction_un,unsyncopated,a,s2,no_rule,cat,L4,z,1.5209,6.0,0.0,1.4568,3.0,3.0,Catalán,0.0,Castellano,4.0,Inglés,6.0,4.0,2.0,yes,no,yes,Piano,6,Flauta,6,8.Me emociono escuchando ciertas canciones.,4.0,Creo que ha sido en el lenguaje 3. He recibido una videollamada y se me han desconectado los auriculares durante unos instantes.,68.0,yes
8,2024-04-22_18h58.21.570,Experiment4_uns,s185,22.0,masculino,left,España,Catalán,Bachelor degree,no,no,B,1,conjunction_un,L4,unsyncopated,s1,r2,8,Online_conjL4_un//d.pe.po6.1110.222.wav,ja,po,de,sil,nu,pe,da,sil1,ru,bo,sil2,['catch'],[1.0336000001429966],[1.0336000001429966],0.222,no_beat,0.8116000001429966,0.8116000001429966,"[""space""]",po,4,testConjL4Uns//r2.s1.0.wav,1.0,conjunction_un,unsyncopated,b,s1,rule,rule,L4,z,1.3904,4.0,1.0,1.1876,3.0,3.0,Catalán,0.0,Castellano,4.0,Inglés,6.0,4.0,2.0,yes,no,yes,Piano,6,Flauta,6,9.La música me tranquiliza y me relaja.,4.0,Creo que ha sido en el lenguaje 3. He recibido una videollamada y se me han desconectado los auriculares durante unos instantes.,68.0,yes
9,2024-04-22_18h58.21.570,Experiment4_uns,s185,22.0,masculino,left,España,Catalán,Bachelor degree,no,no,B,1,conjunction_un,L4,unsyncopated,s1,r1,9,Online_conjL4_un//d.pe.po5.none.none.wav,zi,de,re,sil,lo,ru,ci,sil1,bo,bu,sil2,['-'],,,none,none,,,,po,4,testConjL4Uns//r1.s1.1.wav,1.0,conjunction_un,unsyncopated,a,s1,rule,rule,L4,z,2.3048,3.0,1.0,2.4065,3.0,3.0,Catalán,0.0,Castellano,4.0,Inglés,6.0,4.0,2.0,yes,no,yes,Piano,6,Flauta,6,10.La música me hace bailar,3.0,Creo que ha sido en el lenguaje 3. He recibido una videollamada y se me han desconectado los auriculares durante unos instantes.,68.0,yes
10,2024-04-22_18h58.21.570,Experiment4_uns,s185,22.0,masculino,left,España,Catalán,Bachelor degree,no,no,B,1,conjunction_un,L4,unsyncopated,s2,r1,10,Online_conjL4_un//d.pe.po4.0.1110.wav,pe,ru,da,sil,zi,po,ñi,sil1,lo,bu,sil2,['catch'],[1.9311999998092233],[1.9311999998092233],1.11,no_beat,0.8211999998092232,0.8211999998092232,"[""space""]",po,4,testConjL4Uns//cat_viol.r1.s1.0.wav,1.0,conjunction_un,unsyncopated,a,s1,no_rule,cat,L4,z,1.0016,7.0,0.0,1.6547,3.0,3.0,Catalán,0.0,Castellano,4.0,Inglés,6.0,4.0,2.0,yes,no,yes,Piano,6,Flauta,6,11.Busco novedades musicales continuamente,3.0,Creo que ha sido en el lenguaje 3. He recibido una videollamada y se me han desconectado los auriculares durante unos instantes.,68.0,yes
11,2024-04-22_18h58.21.570,Experiment4_uns,s185,22.0,masculino,left,España,Catalán,Bachelor degree,no,no,B,1,conjunction_un,L4,unsyncopated,s1,r1,11,Online_conjL4_un//d.pe.po7.1110.222.wav,zi,po,ña,sil,lo,pe,ru,sil1,da,re,sil2,['catch'],[1.229600000143023],[1.229600000143023],0.222,no_beat,1.007600000143023,1.007600000143023,"[""space""]",po,4,testConjL4Uns//dep_viol.r2.s1.0.wav,1.0,conjunction_un,unsyncopated,b,s1,no_rule,dep,L4,m,2.4347,4.0,1.0,2.5688,3.0,3.0,Catalán,0.0,Castellano,4.0,Inglés,6.0,4.0,2.0,yes,no,yes,Piano,6,Flauta,6,12. Puedo llorar cuando escucho algunas melodías que me gustan mucho.,3.0,Creo que ha sido en el lenguaje 3. He recibido una videollamada y se me han desconectado los auriculares durante unos instantes.,68.0,yes
12,2024-04-22_18h58.21.570,Experiment4_uns,s185,22.0,masculino,left,España,Catalán,Bachelor degree,no,no,B,1,conjunction_un,L4,unsyncopated,s2,r1,12,Online_conjL4_un//a.zi.lo8.888.1776.wav,re,pe,da,sil,zi,de,ña,sil1,lo,ru,sil2,['catch'],[1.6025000000000773],[1.6025000000000773],0.888,beat,0.7145000000000773,0.7145000000000773,"[""space""]",zi,1,testConjL4Uns//r1.s1.0.wav,1.0,conjunction_un,unsyncopated,a,s1,rule,rule,L4,m,5.5086,3.0,0.0,1.2833,3.0,3.0,Catalán,0.0,Castellano,4.0,Inglés,6.0,4.0,2.0,yes,no,yes,Piano,6,Flauta,6,13. Me gusta cantar o tocar un instrumento con más gente,2.0,Creo que ha sido en el lenguaje 3. He recibido una videollamada y se me han desconectado los auriculares durante unos instantes.,68.0,yes
13,2024-04-22_18h58.21.570,Experiment4_uns,s185,22.0,masculino,left,España,Catalán,Bachelor degree,no,no,B,1,conjunction_un,L4,unsyncopated,s1,r2,13,Online_conjL4_un//a.zi.lo10.none.none.wav,ja,ña,da,sil,nu,re,de,sil1,bu,bo,sil2,['-'],,,none,none,,,,zi,1,testConjL4Uns//r1.s2.1.wav,1.0,conjunction_un,unsyncopated,a,s2,rule,rule,L4,m,6.8569,3.0,0.0,1.4812,3.0,3.0,Catalán,0.0,Castellano,4.0,Inglés,6.0,4.0,2.0,yes,no,yes,Piano,6,Flauta,6,14. La música me ayuda a desconectar.,4.0,Creo que ha sido en el lenguaje 3. He recibido una videollamada y se me han desconectado los auriculares durante unos instantes.,68.0,yes
14,2024-04-22_18h58.21.570,Experiment4_uns,s185,22.0,masculino,left,España,Catalán,Bachelor degree,no,no,B,1,conjunction_un,L4,unsyncopated,s2,r2,14,Online_conjL4_un//a.zi.lo11.none.none.wav,po,re,ña,sil,ja,bo,ru,sil1,nu,pe,sil2,['-'],,,none,none,,,,zi,1,testConjL4Uns//time_viol.r1.s2.0.wav,1.0,conjunction_un,unsyncopated,a,s2,no_rule,time,L4,z,2.3847,4.0,0.0,1.6029,3.0,3.0,Catalán,0.0,Castellano,4.0,Inglés,6.0,4.0,2.0,yes,no,yes,Piano,6,Flauta,6,15. No puedo evitar tararear las canciones que me gustan cuando las escucho.,3.0,Creo que ha sido en el lenguaje 3. He recibido una videollamada y se me han desconectado los auriculares durante unos instantes.,68.0,yes
15,2024-04-22_18h58.21.570,Experiment4_uns,s185,22.0,masculino,left,España,Catalán,Bachelor degree,no,no,B,1,conjunction_un,L4,unsyncopated,s2,r2,15,Online_conjL4_un//a.zi.lo9.none.none.wav,de,po,ña,sil,ja,bu,da,sil1,nu,ñi,sil2,['-'],,,none,none,,,,zi,1,testConjL4Uns//cat_viol.r2.s2.0.wav,1.0,conjunction_un,unsyncopated,b,s2,no_rule,cat,L4,z,1.3353,5.0,0.0,1.102,3.0,3.0,Catalán,0.0,Castellano,4.0,Inglés,6.0,4.0,2.0,yes,no,yes,Piano,6,Flauta,6,16. En los conciertos me siento en sintonía con los artistas y el público.,3.0,Creo que ha sido en el lenguaje 3. He recibido una videollamada y se me han desconectado los auriculares durante unos instantes.,68.0,yes
16,2024-04-22_18h58.21.570,Experiment4_uns,s185,22.0,masculino,left,España,Catalán,Bachelor degree,no,no,B,1,conjunction_un,L4,unsyncopated,s1,r1,16,Online_conjL4_un//d.pe.po9.222.1110.wav,zi,pe,bo,sil,lo,po,de,sil1,ru,re,sil2,['catch'],[1.8177999999522854],[1.8177999999522854],1.11,no_beat,0.7077999999522853,0.7077999999522853,"[""space""]",po,4,testConjL4Uns//r2.s1.1.wav,1.0,conjunction_un,unsyncopated,b,s1,rule,rule,L4,z,1.1024,7.0,1.0,1.8246,3.0,3.0,Catalán,0.0,Castellano,4.0,Inglés,6.0,4.0,2.0,yes,no,yes,Piano,6,Flauta,6,17. Me gasto bastante dinero en música y cosas relacionadas con la música.,1.0,Creo que ha sido en el lenguaje 3. He recibido una videollamada y se me han desconectado los auriculares durante unos instantes.,68.0,yes
17,2024-04-22_18h58.21.570,Experiment4_uns,s185,22.0,masculino,left,España,Catalán,Bachelor degree,no,no,B,1,conjunction_un,L4,unsyncopated,s2,r1,17,Online_conjL4_un//d.pe.po11.1110.222.wav,bo,po,da,sil,zi,pe,de,sil1,lo,ñi,sil2,['catch'],[1.024000000000001],[1.024000000000001],0.222,no_beat,0.8020000000000009,0.8020000000000009,"[""space""]",po,4,testConjL4Uns//time_viol.r2.s2.0.wav,1.0,conjunction_un,unsyncopated,b,s2,no_rule,time,L4,m,2.3394,2.0,1.0,1.4406,3.0,3.0,Catalán,0.0,Castellano,4.0,Inglés,6.0,4.0,2.0,yes,no,yes,Piano,6,Flauta,6,18. Siento escalofríos cuando escucho una melodía que me gusta.,4.0,Creo que ha sido en el lenguaje 3. He recibido una videollamada y se me han desconectado los auriculares durante unos instantes.,68.0,yes
18,2024-04-22_18h58.21.570,Experiment4_uns,s185,22.0,masculino,left,España,Catalán,Bachelor degree,no,no,B,1,conjunction_un,L4,unsyncopated,s2,r1,18,Online_conjL4_un//d.pe.po8.none.none.wav,ña,re,ci,sil,zi,ru,ñi,sil1,lo,de,sil2,['-'],,,none,none,,,,po,4,testConjL4Uns//r1.s2.0.wav,1.0,conjunction_un,unsyncopated,a,s2,rule,rule,L4,z,1.8072,3.0,1.0,1.124,3.0,3.0,Catalán,0.0,Castellano,4.0,Inglés,6.0,4.0,2.0,yes,no,yes,Piano,6,Flauta,6,19. Con la música me puedo desahogar.,4.0,Creo que ha sido en el lenguaje 3. He recibido una videollamada y se me han desconectado los auriculares durante unos instantes.,68.0,yes
19,2024-04-22_18h58.21.570,Experiment4_uns,s185,22.0,masculino,left,España,Catalán,Bachelor degree,no,no,B,1,conjunction_un,L4,unsyncopated,s2,r2,19,Online_conjL4_un//d.pe.po10.1332.444.wav,re,ñi,po,sil,ja,bu,pe,sil1,nu,ru,sil2,['catch'],[1.1589999999999918],[1.1589999999999918],0.444,no_beat,0.7149999999999919,0.7149999999999919,"[""space""]",po,4,testConjL4Uns//dep_viol.r1.s1.0.wav,1.0,conjunction_un,unsyncopated,a,s1,no_rule,dep,L4,z,2.2383,3.0,0.0,1.2061,3.0,3.0,Catalán,0.0,Castellano,4.0,Inglés,6.0,4.0,2.0,yes,no,yes,Piano,6,Flauta,6,20. Cuando escucho una melodía que me gusta mucho no puedo evitar mover el cuerpo.,3.0,Creo que ha sido en el lenguaje 3. He recibido una videollamada y se me han desconectado los auriculares durante unos instantes.,68.0,yes
20,2024-04-22_18h58.21.570,Experiment4_uns,s185,22.0,masculino,left,España,Catalán,Bachelor degree,no,no,B,1,conjunction_un,L4,unsyncopated,s1,r1,20,Online_conjL4_un//c.bu.da1.none.none.wav,zi,bo,po,sil,lo,re,ci,sil1,ñi,pe,sil2,['-'],,,none,none,,,,da,3,testConjL4Uns//time_viol.r2.s1.0.wav,1.0,conjunction_un,unsyncopated,b,s1,no_rule,time,L4,m,2.2548,4.0,1.0,0.903,3.0,3.0,Catalán,0.0,Castellano,4.0,Inglés,6.0,4.0,2.0,yes,no,yes,Piano,6,Flauta,6,,,Creo que ha sido en el lenguaje 3. He recibido una videollamada y se me han desconectado los auriculares durante unos instantes.,68.0,yes
21,2024-04-22_18h58.21.570,Experiment4_uns,s185,22.0,masculino,left,España,Catalán,Bachelor degree,no,no,B,1,conjunction_un,L4,unsyncopated,s2,r2,21,Online_conjL4_un//c.bu.da3.444.1110.wav,po,pe,bu,sil,ja,da,ci,sil1,nu,de,sil2,['catch'],[1.9913999998569807],[1.9913999998569807],1.11,no_beat,0.8813999998569806,0.8813999998569806,"[""space""]",da,3,testConjL4Uns//cat_viol.r2.s1.0.wav,1.0,conjunction_un,unsyncopated,b,s1,no_rule,cat,L4,z,0.9186,6.0,0.0,2.0871,3.0,3.0,Catalán,0.0,Castellano,4.0,Inglés,6.0,4.0,2.0,yes,no,yes,Piano,6,Flauta,6,,,Creo que ha sido en el lenguaje 3. He recibido una videollamada y se me han desconectado los auriculares durante unos instantes.,68.0,yes
22,2024-04-22_18h58.21.570,Experiment4_uns,s185,22.0,masculino,left,España,Catalán,Bachelor degree,no,no,B,1,conjunction_un,L4,unsyncopated,s1,r1,22,Online_conjL4_un//c.bu.da2.none.none.wav,zi,pe,ci,sil,lo,de,ña,sil1,ñi,re,sil2,['-'],,,none,none,,,,da,3,testConjL4Uns//r2.s1.2.wav,1.0,conjunction_un,unsyncopated,b,s1,rule,rule,L4,m,2.1831,3.0,0.0,0.9206,3.0,3.0,Catalán,0.0,Castellano,4.0,Inglés,6.0,4.0,2.0,yes,no,yes,Piano,6,Flauta,6,,,Creo que ha sido en el lenguaje 3. He recibido una videollamada y se me han desconectado los auriculares durante unos instantes.,68.0,yes
23,2024-04-22_18h58.21.570,Experiment4_uns,s185,22.0,masculino,left,España,Catalán,Bachelor degree,no,no,B,1,conjunction_un,L4,unsyncopated,s1,r1,23,Online_conjL4_un//c.bu.da0.none.none.wav,zi,ña,ru,sil,lo,re,ñi,sil1,bo,ci,sil2,['-'],,,none,none,,,,da,3,testConjL4Uns//r2.s2.2.wav,1.0,conjunction_un,unsyncopated,b,s2,rule,rule,L4,z,1.0522,5.0,1.0,1.1679,3.0,3.0,Catalán,0.0,Castellano,4.0,Inglés,6.0,4.0,2.0,yes,no,yes,Piano,6,Flauta,6,,,Creo que ha sido en el lenguaje 3. He recibido una videollamada y se me han desconectado los auriculares durante unos instantes.,68.0,yes
24,2024-04-22_18h58.21.570,Experiment4_uns,s185,22.0,masculino,left,España,Catalán,Bachelor degree,no,no,B,1,conjunction_un,L4,unsyncopated,s1,r2,24,Online_conjL4_un//c.bu.da12.1776.444.wav,ja,po,da,sil,nu,ñi,re,sil1,bu,de,sil2,['catch'],[1.9294999999999618],[1.9294999999999618],0.444,no_beat,,1.485499999999962,"[""space""]",da,3,testWhenL2Uns//r1.s1.1.wav,2.0,when,unsyncopated,a,s1,rule,rule,L2,m,2.705,4.0,0.0,2.4165,3.0,3.0,Catalán,0.0,Castellano,4.0,Inglés,6.0,4.0,2.0,yes,no,yes,Piano,6,Flauta,6,,,Creo que ha sido en el lenguaje 3. He recibido una videollamada y se me han desconectado los auriculares durante unos instantes.,68.0,yes
25,2024-04-22_18h58.21.570,Experiment4_uns,s185,22.0,masculino,left,España,Catalán,Bachelor degree,no,no,B,1,conjunction_un,L4,unsyncopated,s2,r2,25,Online_conjL4_un//c.bu.da15.222.1110.wav,ñi,bu,po,sil,ja,da,re,sil1,nu,pe,sil2,['miss'],,,1.11,no_beat,,,,da,3,testWhenL2Uns//r2.s1.1.wav,2.0,when,unsyncopated,b,s1,rule,rule,L2,z,0.6228,5.0,1.0,1.7217,3.0,3.0,Catalán,0.0,Castellano,4.0,Inglés,6.0,4.0,2.0,yes,no,yes,Piano,6,Flauta,6,,,Creo que ha sido en el lenguaje 3. He recibido una videollamada y se me han desconectado los auriculares durante unos instantes.,68.0,yes
26,2024-04-22_18h58.21.570,Experiment4_uns,s185,22.0,masculino,left,España,Catalán,Bachelor degree,no,no,B,1,conjunction_un,L4,unsyncopated,s2,r1,26,Online_conjL4_un//c.bu.da14.none.none.wav,po,ru,pe,sil,zi,ñi,de,sil1,lo,ña,sil2,['-'],,,none,none,,,,da,3,testWhenL2Uns//r2.s2.2.wav,2.0,when,unsyncopated,b,s2,rule,rule,L2,z,0.8043,5.0,1.0,1.5908,3.0,3.0,Catalán,0.0,Castellano,4.0,Inglés,6.0,4.0,2.0,yes,no,yes,Piano,6,Flauta,6,,,Creo que ha sido en el lenguaje 3. He recibido una videollamada y se me han desconectado los auriculares durante unos instantes.,68.0,yes
27,2024-04-22_18h58.21.570,Experiment4_uns,s185,22.0,masculino,left,España,Catalán,Bachelor degree,no,no,B,1,conjunction_un,L4,unsyncopated,s2,r2,27,Online_conjL4_un//c.bu.da13.none.none.wav,pe,ru,de,sil,ja,re,bo,sil1,nu,ña,sil2,['-'],,,none,none,,,,da,3,testWhenL2Uns//r2.s1.2.wav,2.0,when,unsyncopated,b,s1,rule,rule,L2,z,0.7178,6.0,1.0,2.0372,3.0,3.0,Catalán,0.0,Castellano,4.0,Inglés,6.0,4.0,2.0,yes,no,yes,Piano,6,Flauta,6,,,Creo que ha sido en el lenguaje 3. He recibido una videollamada y se me han desconectado los auriculares durante unos instantes.,68.0,yes
28,2024-04-22_18h58.21.570,Experiment4_uns,s185,22.0,masculino,left,España,Catalán,Bachelor degree,no,no,B,1,conjunction_un,L4,unsyncopated,s1,r1,28,Online_conjL4_un//b.ja.nu6.none.none.wav,zi,de,bo,sil,lo,ñi,da,sil1,ña,bu,sil2,['-'],,,none,none,,,,nu,2,testWhenL2Uns//r1.s2.0.wav,2.0,when,unsyncopated,a,s2,rule,rule,L2,z,0.5853,4.0,1.0,1.6874,3.0,3.0,Catalán,0.0,Castellano,4.0,Inglés,6.0,4.0,2.0,yes,no,yes,Piano,6,Flauta,6,,,Creo que ha sido en el lenguaje 3. He recibido una videollamada y se me han desconectado los auriculares durante unos instantes.,68.0,yes
29,2024-04-22_18h58.21.570,Experiment4_uns,s185,22.0,masculino,left,España,Catalán,Bachelor degree,no,no,B,1,conjunction_un,L4,unsyncopated,s2,r2,29,Online_conjL4_un//b.ja.nu7.888.1776.wav,pe,bu,bo,sil,ja,de,da,sil1,nu,ña,sil2,['miss'],,,1.776,beat,,,,nu,2,testWhenL2Uns//dep_viol.r1.s2.0.wav,2.0,when,unsyncopated,a,s2,no_rule,dep,L2,z,0.7708,4.0,1.0,1.569,3.0,3.0,Catalán,0.0,Castellano,4.0,Inglés,6.0,4.0,2.0,yes,no,yes,Piano,6,Flauta,6,,,Creo que ha sido en el lenguaje 3. He recibido una videollamada y se me han desconectado los auriculares durante unos instantes.,68.0,yes
30,2024-04-22_18h58.21.570,Experiment4_uns,s185,22.0,masculino,left,España,Catalán,Bachelor degree,no,no,B,1,conjunction_un,L4,unsyncopated,s1,r1,30,Online_conjL4_un//b.ja.nu5.none.none.wav,zi,ci,ñi,sil,lo,bo,da,sil1,po,ña,sil2,['-'],,,none,none,,,,nu,2,testWhenL2Uns//cat_viol.r2.s2.0.wav,2.0,when,unsyncopated,b,s2,no_rule,cat,L2,m,2.5236,3.0,0.0,1.4266,3.0,3.0,Catalán,0.0,Castellano,4.0,Inglés,6.0,4.0,2.0,yes,no,yes,Piano,6,Flauta,6,,,Creo que ha sido en el lenguaje 3. He recibido una videollamada y se me han desconectado los auriculares durante unos instantes.,68.0,yes
31,2024-04-22_18h58.21.570,Experiment4_uns,s185,22.0,masculino,left,España,Catalán,Bachelor degree,no,no,B,1,conjunction_un,L4,unsyncopated,s2,r1,31,Online_conjL4_un//b.ja.nu4.none.none.wav,ru,pe,bo,sil,zi,ña,ci,sil1,lo,da,sil2,['-'],,,none,none,,,,nu,2,testWhenL2Uns//dep_viol.r2.s1.0.wav,2.0,when,unsyncopated,b,s1,no_rule,dep,L2,z,1.9501,3.0,1.0,1.7093,3.0,3.0,Catalán,0.0,Castellano,4.0,Inglés,6.0,4.0,2.0,yes,no,yes,Piano,6,Flauta,6,,,Creo que ha sido en el lenguaje 3. He recibido una videollamada y se me han desconectado los auriculares durante unos instantes.,68.0,yes
32,2024-04-22_18h58.21.570,Experiment4_uns,s185,22.0,masculino,left,España,Catalán,Bachelor degree,no,no,B,1,conjunction_un,L4,unsyncopated,s2,r1,32,Online_conjL4_un//d.pe.po26.none.none.wav,ci,bo,bu,sil,zi,re,ru,sil1,lo,ñi,sil2,['-'],,,none,none,,,,po,4,testWhenL2Uns//cat_viol.r2.s1.0.wav,2.0,when,unsyncopated,b,s1,no_rule,cat,L2,z,1.102,5.0,1.0,0.7996,3.0,3.0,Catalán,0.0,Castellano,4.0,Inglés,6.0,4.0,2.0,yes,no,yes,Piano,6,Flauta,6,,,Creo que ha sido en el lenguaje 3. He recibido una videollamada y se me han desconectado los auriculares durante unos instantes.,68.0,yes
33,2024-04-22_18h58.21.570,Experiment4_uns,s185,22.0,masculino,left,España,Catalán,Bachelor degree,no,no,B,1,conjunction_un,L4,unsyncopated,s2,r2,33,Online_conjL4_un//d.pe.po25.none.none.wav,re,bu,ña,sil,ja,bo,de,sil1,nu,da,sil2,['-'],,,none,none,,,,po,4,testWhenL2Uns//time_viol.r1.s2.0.wav,2.0,when,unsyncopated,a,s2,no_rule,time,L2,m,2.7843,2.0,0.0,3.038,3.0,3.0,Catalán,0.0,Castellano,4.0,Inglés,6.0,4.0,2.0,yes,no,yes,Piano,6,Flauta,6,,,Creo que ha sido en el lenguaje 3. He recibido una videollamada y se me han desconectado los auriculares durante unos instantes.,68.0,yes
34,2024-04-22_18h58.21.570,Experiment4_uns,s185,22.0,masculino,left,España,Catalán,Bachelor degree,no,no,B,1,conjunction_un,L4,unsyncopated,s2,r2,34,Online_conjL4_un//d.pe.po27.none.none.wav,ru,ci,bo,sil,ja,de,ñi,sil1,nu,ña,sil2,['-'],,,none,none,,,,po,4,testWhenL2Uns//r1.s2.2.wav,2.0,when,unsyncopated,a,s2,rule,rule,L2,z,0.9706,5.0,1.0,2.858,3.0,3.0,Catalán,0.0,Castellano,4.0,Inglés,6.0,4.0,2.0,yes,no,yes,Piano,6,Flauta,6,,,Creo que ha sido en el lenguaje 3. He recibido una videollamada y se me han desconectado los auriculares durante unos instantes.,68.0,yes
35,2024-04-22_18h58.21.570,Experiment4_uns,s185,22.0,masculino,left,España,Catalán,Bachelor degree,no,no,B,1,conjunction_un,L4,unsyncopated,s2,r1,35,Online_conjL4_un//d.pe.po24.444.1110.wav,de,da,pe,sil,zi,po,re,sil1,lo,bu,sil2,['catch'],[2.0754000000953283],[2.0754000000953283],1.11,no_beat,0.9654000000953282,0.9654000000953282,"[""space""]",po,4,testWhenL2Uns//r2.s2.0.wav,2.0,when,unsyncopated,b,s2,rule,rule,L2,z,2.8397,5.0,1.0,1.7834,3.0,3.0,Catalán,0.0,Castellano,4.0,Inglés,6.0,4.0,2.0,yes,no,yes,Piano,6,Flauta,6,,,Creo que ha sido en el lenguaje 3. He recibido una videollamada y se me han desconectado los auriculares durante unos instantes.,68.0,yes
36,2024-04-22_18h58.21.570,Experiment4_uns,s185,22.0,masculino,left,España,Catalán,Bachelor degree,no,no,B,1,conjunction_un,L4,unsyncopated,s1,r1,36,Online_conjL4_un//b.ja.nu9.none.none.wav,zi,de,bu,sil,lo,bo,po,sil1,da,ñi,sil2,['-'],,,none,none,,,,nu,2,testWhenL2Uns//r1.s2.1.wav,2.0,when,unsyncopated,a,s2,rule,rule,L2,z,2.2153,4.0,1.0,0.892,3.0,3.0,Catalán,0.0,Castellano,4.0,Inglés,6.0,4.0,2.0,yes,no,yes,Piano,6,Flauta,6,,,Creo que ha sido en el lenguaje 3. He recibido una videollamada y se me han desconectado los auriculares durante unos instantes.,68.0,yes
37,2024-04-22_18h58.21.570,Experiment4_uns,s185,22.0,masculino,left,España,Catalán,Bachelor degree,no,no,B,1,conjunction_un,L4,unsyncopated,s2,r2,37,Online_conjL4_un//b.ja.nu8.888.1776.wav,po,ñi,re,sil,ja,de,da,sil1,nu,pe,sil2,['catch_delay'],[0.9648000001907013],[0.9648000001907013],1.776,beat,0.9648000001907012,0.9648000001907012,,nu,2,testWhenL2Uns//dep_viol.r1.s1.0.wav,2.0,when,unsyncopated,a,s1,no_rule,dep,L2,m,1.2403,3.0,0.0,2.1196,3.0,3.0,Catalán,0.0,Castellano,4.0,Inglés,6.0,4.0,2.0,yes,no,yes,Piano,6,Flauta,6,,,Creo que ha sido en el lenguaje 3. He recibido una videollamada y se me han desconectado los auriculares durante unos instantes.,68.0,yes
38,2024-04-22_18h58.21.570,Experiment4_uns,s185,22.0,masculino,left,España,Catalán,Bachelor degree,no,no,B,1,conjunction_un,L4,unsyncopated,s2,r1,38,Online_conjL4_un//b.ja.nu10.none.none.wav,bu,da,de,sil,zi,ña,ñi,sil1,lo,ci,sil2,['-'],[0.07680000019070121],[0.07680000019070121],none,none,,,"[""space""]",nu,2,testWhenL2Uns//dep_viol.r2.s2.0.wav,2.0,when,unsyncopated,b,s2,no_rule,dep,L2,m,4.986,2.0,0.0,0.9998,3.0,3.0,Catalán,0.0,Castellano,4.0,Inglés,6.0,4.0,2.0,yes,no,yes,Piano,6,Flauta,6,,,Creo que ha sido en el lenguaje 3. He recibido una videollamada y se me han desconectado los auriculares durante unos instantes.,68.0,yes
39,2024-04-22_18h58.21.570,Experiment4_uns,s185,22.0,masculino,left,España,Catalán,Bachelor degree,no,no,B,1,conjunction_un,L4,unsyncopated,s2,r1,39,Online_conjL4_un//b.ja.nu11.none.none.wav,ci,re,bu,sil,zi,da,ña,sil1,lo,ru,sil2,['-'],,,none,none,,,,nu,2,testWhenL2Uns//r1.s1.2.wav,2.0,when,unsyncopated,a,s1,rule,rule,L2,z,0.9678,6.0,1.0,1.5769,3.0,3.0,Catalán,0.0,Castellano,4.0,Inglés,6.0,4.0,2.0,yes,no,yes,Piano,6,Flauta,6,,,Creo que ha sido en el lenguaje 3. He recibido una videollamada y se me han desconectado los auriculares durante unos instantes.,68.0,yes
40,2024-04-22_18h58.21.570,Experiment4_uns,s185,22.0,masculino,left,España,Catalán,Bachelor degree,no,no,B,1,conjunction_un,L4,unsyncopated,s2,r2,40,Online_conjL4_un//d.pe.po20.444.0.wav,po,bu,pe,sil,ja,ñi,ru,sil1,nu,bo,sil2,['catch'],[0.7237999999522344],[0.7237999999522344],0.0,beat,0.7237999999522344,0.7237999999522344,"[""space""]",po,4,testWhenL2Uns//cat_viol.r1.s2.0.wav,2.0,when,unsyncopated,a,s2,no_rule,cat,L2,z,1.0564,4.0,1.0,2.3882,3.0,3.0,Catalán,0.0,Castellano,4.0,Inglés,6.0,4.0,2.0,yes,no,yes,Piano,6,Flauta,6,,,Creo que ha sido en el lenguaje 3. He recibido una videollamada y se me han desconectado los auriculares durante unos instantes.,68.0,yes
41,2024-04-22_18h58.21.570,Experiment4_uns,s185,22.0,masculino,left,España,Catalán,Bachelor degree,no,no,B,1,conjunction_un,L4,unsyncopated,s2,r2,41,Online_conjL4_un//d.pe.po23.none.none.wav,ru,ñi,re,sil,ja,de,bu,sil1,nu,ci,sil2,['-'],,,none,none,,,,po,4,testWhenL2Uns//r1.s1.0.wav,2.0,when,unsyncopated,a,s1,rule,rule,L2,z,2.2534,3.0,1.0,0.9349,3.0,3.0,Catalán,0.0,Castellano,4.0,Inglés,6.0,4.0,2.0,yes,no,yes,Piano,6,Flauta,6,,,Creo que ha sido en el lenguaje 3. He recibido una videollamada y se me han desconectado los auriculares durante unos instantes.,68.0,yes
42,2024-04-22_18h58.21.570,Experiment4_uns,s185,22.0,masculino,left,España,Catalán,Bachelor degree,no,no,B,1,conjunction_un,L4,unsyncopated,s2,r1,42,Online_conjL4_un//d.pe.po21.1110.0.wav,po,da,ña,sil,zi,pe,ci,sil1,lo,bu,sil2,['catch'],[0.8110999999046271],[0.8110999999046271],0.0,beat,0.8110999999046271,0.8110999999046271,"[""space""]",po,4,testWhenL2Uns//time_viol.r2.s2.0.wav,2.0,when,unsyncopated,b,s2,no_rule,time,L2,z,1.9021,6.0,1.0,0.5908,3.0,3.0,Catalán,0.0,Castellano,4.0,Inglés,6.0,4.0,2.0,yes,no,yes,Piano,6,Flauta,6,,,Creo que ha sido en el lenguaje 3. He recibido una videollamada y se me han desconectado los auriculares durante unos instantes.,68.0,yes
43,2024-04-22_18h58.21.570,Experiment4_uns,s185,22.0,masculino,left,España,Catalán,Bachelor degree,no,no,B,1,conjunction_un,L4,unsyncopated,s2,r1,43,Online_conjL4_un//d.pe.po22.none.none.wav,ñi,bu,de,sil,zi,bo,ña,sil1,lo,ci,sil2,['-'],,,none,none,,,,po,4,testWhenL2Uns//r2.s2.1.wav,2.0,when,unsyncopated,b,s2,rule,rule,L2,z,0.8849,6.0,1.0,1.1366,3.0,3.0,Catalán,0.0,Castellano,4.0,Inglés,6.0,4.0,2.0,yes,no,yes,Piano,6,Flauta,6,,,Creo que ha sido en el lenguaje 3. He recibido una videollamada y se me han desconectado los auriculares durante unos instantes.,68.0,yes
44,2024-04-22_18h58.21.570,Experiment4_uns,s185,22.0,masculino,left,España,Catalán,Bachelor degree,no,no,B,1,conjunction_un,L4,unsyncopated,s2,r1,44,Online_conjL4_un//b.ja.nu18.none.none.wav,re,ci,bu,sil,zi,ñi,ña,sil1,lo,pe,sil2,['-'],,,none,none,,,,nu,2,testWhenL2Uns//time_viol.r1.s1.0.wav,2.0,when,unsyncopated,a,s1,no_rule,time,L2,z,2.9996,3.0,1.0,1.432,3.0,3.0,Catalán,0.0,Castellano,4.0,Inglés,6.0,4.0,2.0,yes,no,yes,Piano,6,Flauta,6,,,Creo que ha sido en el lenguaje 3. He recibido una videollamada y se me han desconectado los auriculares durante unos instantes.,68.0,yes
45,2024-04-22_18h58.21.570,Experiment4_uns,s185,22.0,masculino,left,España,Catalán,Bachelor degree,no,no,B,1,conjunction_un,L4,unsyncopated,s1,r2,45,Online_conjL4_un//b.ja.nu16.0.888.wav,ja,da,po,sil,nu,ru,bu,sil1,ci,de,sil2,['catch'],[1.966599999904588],[1.966599999904588],0.888,beat,1.078599999904588,1.078599999904588,"[""space""]",nu,2,testWhenL2Uns//time_viol.r2.s1.0.wav,2.0,when,unsyncopated,b,s1,no_rule,time,L2,m,3.7572,3.0,0.0,1.2169,3.0,3.0,Catalán,0.0,Castellano,4.0,Inglés,6.0,4.0,2.0,yes,no,yes,Piano,6,Flauta,6,,,Creo que ha sido en el lenguaje 3. He recibido una videollamada y se me han desconectado los auriculares durante unos instantes.,68.0,yes
46,2024-04-22_18h58.21.570,Experiment4_uns,s185,22.0,masculino,left,España,Catalán,Bachelor degree,no,no,B,1,conjunction_un,L4,unsyncopated,s1,r1,46,Online_conjL4_un//b.ja.nu19.none.none.wav,zi,ña,pe,sil,lo,bu,ñi,sil1,da,ru,sil2,['-'],,,none,none,,,,nu,2,testWhenL2Uns//cat_viol.r1.s1.0.wav,2.0,when,unsyncopated,a,s1,no_rule,cat,L2,z,3.0877,4.0,1.0,1.0748,3.0,3.0,Catalán,0.0,Castellano,4.0,Inglés,6.0,4.0,2.0,yes,no,yes,Piano,6,Flauta,6,,,Creo que ha sido en el lenguaje 3. He recibido una videollamada y se me han desconectado los auriculares durante unos instantes.,68.0,yes
47,2024-04-22_18h58.21.570,Experiment4_uns,s185,22.0,masculino,left,España,Catalán,Bachelor degree,no,no,B,1,conjunction_un,L4,unsyncopated,s1,r2,47,Online_conjL4_un//b.ja.nu17.0.888.wav,ja,da,ru,sil,nu,ña,ci,sil1,po,re,sil2,['catch'],[1.7271000001429684],[1.7271000001429684],0.888,beat,0.8391000001429684,0.8391000001429684,"[""space""]",nu,2,testWhenL2Uns//r2.s1.0.wav,2.0,when,unsyncopated,b,s1,rule,rule,L2,m,0.7562,5.0,0.0,1.3491,3.0,3.0,Catalán,0.0,Castellano,4.0,Inglés,6.0,4.0,2.0,yes,no,yes,Piano,6,Flauta,6,,,Creo que ha sido en el lenguaje 3. He recibido una videollamada y se me han desconectado los auriculares durante unos instantes.,68.0,yes
48,2024-04-22_18h58.21.570,Experiment4_uns,s185,22.0,masculino,left,España,Catalán,Bachelor degree,no,no,B,1,conjunction_un,L4,unsyncopated,s2,r1,48,Online_conjL4_un//d.pe.po29.none.none.wav,bo,ña,bu,sil,zi,ru,ci,sil1,lo,de,sil2,['-'],,,none,none,,,,po,4,testConjL3Syn//r1.s2.0.wav,3.0,conjunction_syn,syncopated,a,s2,rule,rule,L3,z,0.9994,4.0,1.0,1.1514,3.0,3.0,Catalán,0.0,Castellano,4.0,Inglés,6.0,4.0,2.0,yes,no,yes,Piano,6,Flauta,6,,,Creo que ha sido en el lenguaje 3. He recibido una videollamada y se me han desconectado los auriculares durante unos instantes.,68.0,yes
49,2024-04-22_18h58.21.570,Experiment4_uns,s185,22.0,masculino,left,España,Catalán,Bachelor degree,no,no,B,1,conjunction_un,L4,unsyncopated,s1,r2,49,Online_conjL4_un//d.pe.po31.none.none.wav,ja,re,ña,sil,nu,bo,ci,sil1,bu,de,sil2,['-'],,,none,none,,,,po,4,testConjL3Syn//r2.s2.0.wav,3.0,conjunction_syn,syncopated,b,s2,rule,rule,L3,z,1.5512,3.0,1.0,0.5357,3.0,3.0,Catalán,0.0,Castellano,4.0,Inglés,6.0,4.0,2.0,yes,no,yes,Piano,6,Flauta,6,,,Creo que ha sido en el lenguaje 3. He recibido una videollamada y se me han desconectado los auriculares durante unos instantes.,68.0,yes
50,2024-04-22_18h58.21.570,Experiment4_uns,s185,22.0,masculino,left,España,Catalán,Bachelor degree,no,no,B,1,conjunction_un,L4,unsyncopated,s1,r1,50,Online_conjL4_un//d.pe.po28.444.1332.wav,zi,ci,pe,sil,lo,ñi,po,sil1,ña,da,sil2,['catch'],[2.131699999809257],[2.131699999809257],1.332,no_beat,0.7996999998092569,0.7996999998092569,"[""space""]",po,4,testConjL3Syn//r1.s2.1.wav,3.0,conjunction_syn,syncopated,a,s2,rule,rule,L3,m,1.6694,4.0,0.0,1.4071,3.0,3.0,Catalán,0.0,Castellano,4.0,Inglés,6.0,4.0,2.0,yes,no,yes,Piano,6,Flauta,6,,,Creo que ha sido en el lenguaje 3. He recibido una videollamada y se me han desconectado los auriculares durante unos instantes.,68.0,yes
51,2024-04-22_18h58.21.570,Experiment4_uns,s185,22.0,masculino,left,España,Catalán,Bachelor degree,no,no,B,1,conjunction_un,L4,unsyncopated,s1,r2,51,Online_conjL4_un//d.pe.po30.1776.1110.wav,ja,ñi,ru,sil,nu,po,ña,sil1,pe,da,sil2,['catch'],[2.124500000000012],[2.124500000000012],1.11,no_beat,1.0145000000000115,1.0145000000000115,"[""space""]",po,4,testConjL3Syn//r2.s1.1.wav,3.0,conjunction_syn,syncopated,b,s1,rule,rule,L3,z,0.7676,6.0,1.0,1.1215,3.0,3.0,Catalán,0.0,Castellano,4.0,Inglés,6.0,4.0,2.0,yes,no,yes,Piano,6,Flauta,6,,,Creo que ha sido en el lenguaje 3. He recibido una videollamada y se me han desconectado los auriculares durante unos instantes.,68.0,yes
52,2024-04-22_18h58.21.570,Experiment4_uns,s185,22.0,masculino,left,España,Catalán,Bachelor degree,no,no,B,1,conjunction_un,L4,unsyncopated,s1,r2,52,Online_conjL4_un//a.zi.lo29.none.none.wav,ja,ci,pe,sil,nu,ru,po,sil1,ñi,da,sil2,['-'],,,none,none,,,,zi,1,testConjL3Syn//time_viol.r1.s2.0.wav,3.0,conjunction_syn,syncopated,a,s2,no_rule,time,L3,z,0.9745,4.0,0.0,1.3233,3.0,3.0,Catalán,0.0,Castellano,4.0,Inglés,6.0,4.0,2.0,yes,no,yes,Piano,6,Flauta,6,,,Creo que ha sido en el lenguaje 3. He recibido una videollamada y se me han desconectado los auriculares durante unos instantes.,68.0,yes
53,2024-04-22_18h58.21.570,Experiment4_uns,s185,22.0,masculino,left,España,Catalán,Bachelor degree,no,no,B,1,conjunction_un,L4,unsyncopated,s1,r1,53,Online_conjL4_un//a.zi.lo30.0.888.wav,zi,ci,bu,sil,lo,ru,da,sil1,ñi,de,sil2,['catch'],[0.7407000000476955],[0.7407000000476955],0.0,beat,0.7407000000476955,0.7407000000476955,"[""space""]",zi,1,testConjL3Syn//cat_viol.r2.s2.0.wav,3.0,conjunction_syn,syncopated,b,s2,no_rule,cat,L3,m,3.3999,3.0,1.0,1.0592,3.0,3.0,Catalán,0.0,Castellano,4.0,Inglés,6.0,4.0,2.0,yes,no,yes,Piano,6,Flauta,6,,,Creo que ha sido en el lenguaje 3. He recibido una videollamada y se me han desconectado los auriculares durante unos instantes.,68.0,yes
54,2024-04-22_18h58.21.570,Experiment4_uns,s185,22.0,masculino,left,España,Catalán,Bachelor degree,no,no,B,1,conjunction_un,L4,unsyncopated,s1,r2,54,Online_conjL4_un//a.zi.lo31.none.none.wav,ja,ru,da,sil,nu,bu,ci,sil1,pe,re,sil2,['-'],,,none,none,,,,zi,1,testConjL3Syn//r2.s2.1.wav,3.0,conjunction_syn,syncopated,b,s2,rule,rule,L3,m,2.0404,4.0,0.0,1.1517,3.0,3.0,Catalán,0.0,Castellano,4.0,Inglés,6.0,4.0,2.0,yes,no,yes,Piano,6,Flauta,6,,,Creo que ha sido en el lenguaje 3. He recibido una videollamada y se me han desconectado los auriculares durante unos instantes.,68.0,yes
55,2024-04-22_18h58.21.570,Experiment4_uns,s185,22.0,masculino,left,España,Catalán,Bachelor degree,no,no,B,1,conjunction_un,L4,unsyncopated,s1,r1,55,Online_conjL4_un//a.zi.lo28.0.888.wav,zi,da,bo,sil,lo,ña,po,sil1,de,pe,sil2,['catch'],[0.7742999999522908],[0.7742999999522908],0.0,beat,0.7742999999522908,0.7742999999522908,"[""space""]",zi,1,testConjL3Syn//dep_viol.r2.s2.0.wav,3.0,conjunction_syn,syncopated,b,s2,no_rule,dep,L3,z,4.9672,5.0,0.0,0.6858,3.0,3.0,Catalán,0.0,Castellano,4.0,Inglés,6.0,4.0,2.0,yes,no,yes,Piano,6,Flauta,6,,,Creo que ha sido en el lenguaje 3. He recibido una videollamada y se me han desconectado los auriculares durante unos instantes.,68.0,yes
56,2024-04-22_18h58.21.570,Experiment4_uns,s185,22.0,masculino,left,España,Catalán,Bachelor degree,no,no,B,1,conjunction_un,L4,unsyncopated,s1,r2,56,Online_conjL4_un//c.bu.da6.1776.444.wav,ja,ru,da,sil,nu,ñi,ña,sil1,bu,re,sil2,['catch'],[1.234900000095422],[1.234900000095422],0.444,no_beat,0.790900000095422,0.790900000095422,"[""space""]",da,3,testConjL3Syn//r1.s1.0.wav,3.0,conjunction_syn,syncopated,a,s1,rule,rule,L3,m,3.4342,2.0,0.0,0.3996,3.0,3.0,Catalán,0.0,Castellano,4.0,Inglés,6.0,4.0,2.0,yes,no,yes,Piano,6,Flauta,6,,,Creo que ha sido en el lenguaje 3. He recibido una videollamada y se me han desconectado los auriculares durante unos instantes.,68.0,yes
57,2024-04-22_18h58.21.570,Experiment4_uns,s185,22.0,masculino,left,España,Catalán,Bachelor degree,no,no,B,1,conjunction_un,L4,unsyncopated,s1,r1,57,Online_conjL4_un//c.bu.da4.1776.1110.wav,zi,re,bo,sil,lo,da,ru,sil1,bu,de,sil2,['catch'],[2.0432000000477046],[2.0432000000477046],1.11,no_beat,0.9332000000477044,0.9332000000477044,"[""space""]",da,3,testConjL3Syn//time_viol.r2.s1.0.wav,3.0,conjunction_syn,syncopated,b,s1,no_rule,time,L3,z,0.5427,3.0,0.0,1.7014,3.0,3.0,Catalán,0.0,Castellano,4.0,Inglés,6.0,4.0,2.0,yes,no,yes,Piano,6,Flauta,6,,,Creo que ha sido en el lenguaje 3. He recibido una videollamada y se me han desconectado los auriculares durante unos instantes.,68.0,yes
58,2024-04-22_18h58.21.570,Experiment4_uns,s185,22.0,masculino,left,España,Catalán,Bachelor degree,no,no,B,1,conjunction_un,L4,unsyncopated,s1,r1,58,Online_conjL4_un//c.bu.da7.none.none.wav,zi,re,po,sil,lo,bo,ci,sil1,ña,de,sil2,['-'],,,none,none,,,,da,3,testConjL3Syn//r2.s1.2.wav,3.0,conjunction_syn,syncopated,b,s1,rule,rule,L3,m,2.3539,3.0,0.0,0.2898,3.0,3.0,Catalán,0.0,Castellano,4.0,Inglés,6.0,4.0,2.0,yes,no,yes,Piano,6,Flauta,6,,,Creo que ha sido en el lenguaje 3. He recibido una videollamada y se me han desconectado los auriculares durante unos instantes.,68.0,yes
59,2024-04-22_18h58.21.570,Experiment4_uns,s185,22.0,masculino,left,España,Catalán,Bachelor degree,no,no,B,1,conjunction_un,L4,unsyncopated,s2,r1,59,Online_conjL4_un//c.bu.da5.222.444.wav,po,bu,da,sil,zi,de,ci,sil1,lo,re,sil2,"['false alarm', 'catch']","[0.10920000004773556, 2.1939000000953683]",[2.1939000000953683],0.444,no_beat,,1.7499000000953684,"[""space"",""space""]",da,3,testConjL3Syn//cat_viol.r1.s1.0.wav,3.0,conjunction_syn,syncopated,a,s1,no_rule,cat,L3,z,0.3234,5.0,0.0,1.2885,3.0,3.0,Catalán,0.0,Castellano,4.0,Inglés,6.0,4.0,2.0,yes,no,yes,Piano,6,Flauta,6,,,Creo que ha sido en el lenguaje 3. He recibido una videollamada y se me han desconectado los auriculares durante unos instantes.,68.0,yes
60,2024-04-22_18h58.21.570,Experiment4_uns,s185,22.0,masculino,left,España,Catalán,Bachelor degree,no,no,B,1,conjunction_un,L4,unsyncopated,s1,r1,60,Online_conjL4_un//d.pe.po19.none.none.wav,zi,da,ña,sil,lo,bo,bu,sil1,ñi,re,sil2,['-'],,,none,none,,,,po,4,testConjL3Syn//r2.s2.2.wav,3.0,conjunction_syn,syncopated,b,s2,rule,rule,L3,z,0.5709,3.0,1.0,2.4006,3.0,3.0,Catalán,0.0,Castellano,4.0,Inglés,6.0,4.0,2.0,yes,no,yes,Piano,6,Flauta,6,,,Creo que ha sido en el lenguaje 3. He recibido una videollamada y se me han desconectado los auriculares durante unos instantes.,68.0,yes
61,2024-04-22_18h58.21.570,Experiment4_uns,s185,22.0,masculino,left,España,Catalán,Bachelor degree,no,no,B,1,conjunction_un,L4,unsyncopated,s2,r2,61,Online_conjL4_un//d.pe.po17.222.444.wav,re,pe,po,sil,ja,ci,ña,sil1,nu,bo,sil2,['catch'],[1.259999999999991],[1.259999999999991],0.444,no_beat,0.815999999999991,0.815999999999991,"[""space""]",po,4,testConjL3Syn//r2.s1.0.wav,3.0,conjunction_syn,syncopated,b,s1,rule,rule,L3,m,1.8674,3.0,0.0,1.5356,3.0,3.0,Catalán,0.0,Castellano,4.0,Inglés,6.0,4.0,2.0,yes,no,yes,Piano,6,Flauta,6,,,Creo que ha sido en el lenguaje 3. He recibido una videollamada y se me han desconectado los auriculares durante unos instantes.,68.0,yes
62,2024-04-22_18h58.21.570,Experiment4_uns,s185,22.0,masculino,left,España,Catalán,Bachelor degree,no,no,B,1,conjunction_un,L4,unsyncopated,s1,r2,62,Online_conjL4_un//d.pe.po18.none.none.wav,ja,ña,ñi,sil,nu,de,ru,sil1,da,bo,sil2,['-'],,,none,none,,,,po,4,testConjL3Syn//dep_viol.r1.s1.0.wav,3.0,conjunction_syn,syncopated,a,s1,no_rule,dep,L3,m,2.2877,5.0,1.0,2.1497,3.0,3.0,Catalán,0.0,Castellano,4.0,Inglés,6.0,4.0,2.0,yes,no,yes,Piano,6,Flauta,6,,,Creo que ha sido en el lenguaje 3. He recibido una videollamada y se me han desconectado los auriculares durante unos instantes.,68.0,yes
63,2024-04-22_18h58.21.570,Experiment4_uns,s185,22.0,masculino,left,España,Catalán,Bachelor degree,no,no,B,1,conjunction_un,L4,unsyncopated,s1,r2,63,Online_conjL4_un//d.pe.po16.1776.444.wav,ja,re,po,sil,nu,da,bu,sil1,pe,bo,sil2,['catch'],[1.3594000000953201],[1.3594000000953201],0.444,no_beat,0.9154000000953202,0.9154000000953202,"[""space""]",po,4,testConjL3Syn//r1.s2.2.wav,3.0,conjunction_syn,syncopated,a,s2,rule,rule,L3,m,2.5828,4.0,0.0,1.5183,3.0,3.0,Catalán,0.0,Castellano,4.0,Inglés,6.0,4.0,2.0,yes,no,yes,Piano,6,Flauta,6,,,Creo que ha sido en el lenguaje 3. He recibido una videollamada y se me han desconectado los auriculares durante unos instantes.,68.0,yes
64,2024-04-22_18h58.21.570,Experiment4_uns,s185,22.0,masculino,left,España,Catalán,Bachelor degree,no,no,B,1,conjunction_un,L4,unsyncopated,s1,r2,64,Online_conjL4_un//c.bu.da24.none.none.wav,ja,po,ci,sil,nu,ña,ru,sil1,re,bo,sil2,['-'],,,none,none,,,,da,3,testConjL3Syn//dep_viol.r1.s2.0.wav,3.0,conjunction_syn,syncopated,a,s2,no_rule,dep,L3,z,1.1852,4.0,0.0,1.3682,3.0,3.0,Catalán,0.0,Castellano,4.0,Inglés,6.0,4.0,2.0,yes,no,yes,Piano,6,Flauta,6,,,Creo que ha sido en el lenguaje 3. He recibido una videollamada y se me han desconectado los auriculares durante unos instantes.,68.0,yes
65,2024-04-22_18h58.21.570,Experiment4_uns,s185,22.0,masculino,left,España,Catalán,Bachelor degree,no,no,B,1,conjunction_un,L4,unsyncopated,s2,r1,65,Online_conjL4_un//c.bu.da27.0.444.wav,bu,po,da,sil,zi,re,pe,sil1,lo,bo,sil2,['catch'],[1.2472999999523608],[1.2472999999523608],0.444,no_beat,0.8032999999523609,0.8032999999523609,"[""space""]",da,3,testConjL3Syn//r1.s1.1.wav,3.0,conjunction_syn,syncopated,a,s1,rule,rule,L3,z,2.3686,3.0,1.0,0.883,3.0,3.0,Catalán,0.0,Castellano,4.0,Inglés,6.0,4.0,2.0,yes,no,yes,Piano,6,Flauta,6,,,Creo que ha sido en el lenguaje 3. He recibido una videollamada y se me han desconectado los auriculares durante unos instantes.,68.0,yes
66,2024-04-22_18h58.21.570,Experiment4_uns,s185,22.0,masculino,left,España,Catalán,Bachelor degree,no,no,B,1,conjunction_un,L4,unsyncopated,s1,r1,66,Online_conjL4_un//c.bu.da26.444.1110.wav,zi,po,bu,sil,lo,da,ci,sil1,de,ñi,sil2,['catch'],[2.057700000047703],[2.057700000047703],1.11,no_beat,0.9477000000477028,0.9477000000477028,"[""space""]",da,3,testConjL3Syn//time_viol.r2.s2.0.wav,3.0,conjunction_syn,syncopated,b,s2,no_rule,time,L3,z,4.0517,4.0,0.0,0.9388,3.0,3.0,Catalán,0.0,Castellano,4.0,Inglés,6.0,4.0,2.0,yes,no,yes,Piano,6,Flauta,6,,,Creo que ha sido en el lenguaje 3. He recibido una videollamada y se me han desconectado los auriculares durante unos instantes.,68.0,yes
67,2024-04-22_18h58.21.570,Experiment4_uns,s185,22.0,masculino,left,España,Catalán,Bachelor degree,no,no,B,1,conjunction_un,L4,unsyncopated,s2,r1,67,Online_conjL4_un//c.bu.da25.444.1110.wav,ru,de,bu,sil,zi,da,ñi,sil1,lo,ña,sil2,['miss'],,,1.11,no_beat,,,,da,3,testConjL3Syn//time_viol.r1.s1.0.wav,3.0,conjunction_syn,syncopated,a,s1,no_rule,time,L3,m,1.5394,2.0,1.0,1.2509,3.0,3.0,Catalán,0.0,Castellano,4.0,Inglés,6.0,4.0,2.0,yes,no,yes,Piano,6,Flauta,6,,,Creo que ha sido en el lenguaje 3. He recibido una videollamada y se me han desconectado los auriculares durante unos instantes.,68.0,yes
68,2024-04-22_18h58.21.570,Experiment4_uns,s185,22.0,masculino,left,España,Catalán,Bachelor degree,no,no,B,1,conjunction_un,L4,unsyncopated,s1,r2,68,Online_conjL4_un//a.zi.lo3.none.none.wav,ja,bu,re,sil,nu,pe,ñi,sil1,ru,ci,sil2,['-'],,,none,none,,,,zi,1,testConjL3Syn//cat_viol.r2.s1.0.wav,3.0,conjunction_syn,syncopated,b,s1,no_rule,cat,L3,m,1.8999,6.0,1.0,1.567,3.0,3.0,Catalán,0.0,Castellano,4.0,Inglés,6.0,4.0,2.0,yes,no,yes,Piano,6,Flauta,6,,,Creo que ha sido en el lenguaje 3. He recibido una videollamada y se me han desconectado los auriculares durante unos instantes.,68.0,yes
69,2024-04-22_18h58.21.570,Experiment4_uns,s185,22.0,masculino,left,España,Catalán,Bachelor degree,no,no,B,1,conjunction_un,L4,unsyncopated,s2,r1,69,Online_conjL4_un//a.zi.lo0.888.1776.wav,ñi,bu,ci,sil,zi,da,pe,sil1,lo,re,sil2,['catch'],[1.6972999999522926],[1.6972999999522926],0.888,beat,0.8092999999522926,0.8092999999522926,"[""space""]",zi,1,testConjL3Syn//cat_viol.r1.s2.0.wav,3.0,conjunction_syn,syncopated,a,s2,no_rule,cat,L3,z,1.3166,4.0,0.0,0.4745,3.0,3.0,Catalán,0.0,Castellano,4.0,Inglés,6.0,4.0,2.0,yes,no,yes,Piano,6,Flauta,6,,,Creo que ha sido en el lenguaje 3. He recibido una videollamada y se me han desconectado los auriculares durante unos instantes.,68.0,yes
70,2024-04-22_18h58.21.570,Experiment4_uns,s185,22.0,masculino,left,España,Catalán,Bachelor degree,no,no,B,1,conjunction_un,L4,unsyncopated,s1,r1,70,Online_conjL4_un//a.zi.lo1.0.888.wav,zi,ña,ci,sil,lo,po,pe,sil1,bo,da,sil2,['catch'],[0.8812000000476701],[0.8812000000476701],0.0,beat,0.8812000000476701,0.8812000000476701,"[""space""]",zi,1,testConjL3Syn//dep_viol.r2.s1.0.wav,3.0,conjunction_syn,syncopated,b,s1,no_rule,dep,L3,m,3.322,4.0,1.0,0.9864,3.0,3.0,Catalán,0.0,Castellano,4.0,Inglés,6.0,4.0,2.0,yes,no,yes,Piano,6,Flauta,6,,,Creo que ha sido en el lenguaje 3. He recibido una videollamada y se me han desconectado los auriculares durante unos instantes.,68.0,yes
71,2024-04-22_18h58.21.570,Experiment4_uns,s185,22.0,masculino,left,España,Catalán,Bachelor degree,no,no,B,1,conjunction_un,L4,unsyncopated,s1,r1,71,Online_conjL4_un//a.zi.lo2.0.888.wav,zi,ña,re,sil,lo,de,pe,sil1,bu,po,sil2,['catch'],[0.8079999999999927],[0.8079999999999927],0.0,beat,0.8079999999999927,0.8079999999999927,"[""space""]",zi,1,testConjL3Syn//r1.s1.2.wav,3.0,conjunction_syn,syncopated,a,s1,rule,rule,L3,z,1.2838,5.0,1.0,0.9166,3.0,3.0,Catalán,0.0,Castellano,4.0,Inglés,6.0,4.0,2.0,yes,no,yes,Piano,6,Flauta,6,,,Creo que ha sido en el lenguaje 3. He recibido una videollamada y se me han desconectado los auriculares durante unos instantes.,68.0,yes
72,2024-04-22_18h58.21.570,Experiment4_uns,s185,22.0,masculino,left,España,Catalán,Bachelor degree,no,no,B,1,conjunction_un,L4,unsyncopated,s2,r1,72,Online_conjL4_un//a.zi.lo25.888.1776.wav,bu,ña,de,sil,zi,ci,pe,sil1,lo,po,sil2,['catch'],[1.7334999999999354],[1.7334999999999354],0.888,beat,0.8454999999999354,0.8454999999999354,"[""space""]",zi,1,testWhatL1Uns//dep_viol.r1.s2.0.wav,4.0,what,unsyncopated,a,s2,no_rule,dep,L1,m,0.9498,6.0,1.0,1.3018,3.0,3.0,Catalán,0.0,Castellano,4.0,Inglés,6.0,4.0,2.0,yes,no,yes,Piano,6,Flauta,6,,,Creo que ha sido en el lenguaje 3. He recibido una videollamada y se me han desconectado los auriculares durante unos instantes.,68.0,yes
73,2024-04-22_18h58.21.570,Experiment4_uns,s185,22.0,masculino,left,España,Catalán,Bachelor degree,no,no,B,1,conjunction_un,L4,unsyncopated,s2,r1,73,Online_conjL4_un//a.zi.lo24.888.1776.wav,re,bo,po,sil,zi,da,ñi,sil1,lo,pe,sil2,['catch'],[1.708800000190763],[1.708800000190763],0.888,beat,0.820800000190763,0.820800000190763,"[""space""]",zi,1,testWhatL1Uns//cat_viol.r2.s1.0.wav,4.0,what,unsyncopated,b,s1,no_rule,cat,L1,m,1.8514,4.0,1.0,2.3667,3.0,3.0,Catalán,0.0,Castellano,4.0,Inglés,6.0,4.0,2.0,yes,no,yes,Piano,6,Flauta,6,,,Creo que ha sido en el lenguaje 3. He recibido una videollamada y se me han desconectado los auriculares durante unos instantes.,68.0,yes
74,2024-04-22_18h58.21.570,Experiment4_uns,s185,22.0,masculino,left,España,Catalán,Bachelor degree,no,no,B,1,conjunction_un,L4,unsyncopated,s2,r1,74,Online_conjL4_un//a.zi.lo26.888.1776.wav,pe,bu,de,sil,zi,da,ñi,sil1,lo,bo,sil2,['catch'],[1.6470999999046398],[1.6470999999046398],0.888,beat,0.7590999999046398,0.7590999999046398,"[""space""]",zi,1,testWhatL1Uns//time_viol.r1.s2.0.wav,4.0,what,unsyncopated,a,s2,no_rule,time,L1,z,2.4521,5.0,0.0,1.6171,3.0,3.0,Catalán,0.0,Castellano,4.0,Inglés,6.0,4.0,2.0,yes,no,yes,Piano,6,Flauta,6,,,Creo que ha sido en el lenguaje 3. He recibido una videollamada y se me han desconectado los auriculares durante unos instantes.,68.0,yes
75,2024-04-22_18h58.21.570,Experiment4_uns,s185,22.0,masculino,left,España,Catalán,Bachelor degree,no,no,B,1,conjunction_un,L4,unsyncopated,s1,r2,75,Online_conjL4_un//a.zi.lo27.none.none.wav,ja,ña,bu,sil,nu,ñi,re,sil1,pe,po,sil2,['-'],,,none,none,,,,zi,1,testWhatL1Uns//dep_viol.r2.s1.0.wav,4.0,what,unsyncopated,b,s1,no_rule,dep,L1,z,0.9666,3.0,0.0,1.0365,3.0,3.0,Catalán,0.0,Castellano,4.0,Inglés,6.0,4.0,2.0,yes,no,yes,Piano,6,Flauta,6,,,Creo que ha sido en el lenguaje 3. He recibido una videollamada y se me han desconectado los auriculares durante unos instantes.,68.0,yes
76,2024-04-22_18h58.21.570,Experiment4_uns,s185,22.0,masculino,left,España,Catalán,Bachelor degree,no,no,B,1,conjunction_un,L4,unsyncopated,s1,r2,76,Online_conjL4_un//c.bu.da30.222.444.wav,ja,bu,da,sil,nu,pe,bo,sil1,ña,de,sil2,['catch'],[1.366700000047672],[1.366700000047672],0.444,no_beat,0.922700000047672,0.922700000047672,"[""space""]",da,3,testWhatL1Uns//cat_viol.r1.s1.0.wav,4.0,what,unsyncopated,a,s1,no_rule,cat,L1,z,0.8507,6.0,0.0,0.7176,3.0,3.0,Catalán,0.0,Castellano,4.0,Inglés,6.0,4.0,2.0,yes,no,yes,Piano,6,Flauta,6,,,Creo que ha sido en el lenguaje 3. He recibido una videollamada y se me han desconectado los auriculares durante unos instantes.,68.0,yes
77,2024-04-22_18h58.21.570,Experiment4_uns,s185,22.0,masculino,left,España,Catalán,Bachelor degree,no,no,B,1,conjunction_un,L4,unsyncopated,s1,r1,77,Online_conjL4_un//c.bu.da28.1776.1110.wav,zi,re,ru,sil,lo,da,pe,sil1,bu,ña,sil2,['catch'],[1.9579000000953783],[1.9579000000953783],1.11,no_beat,0.8479000000953782,0.8479000000953782,"[""space""]",da,3,testWhatL1Uns//r1.s1.1.wav,4.0,what,unsyncopated,a,s1,rule,rule,L1,z,0.7338,5.0,1.0,1.2201,3.0,3.0,Catalán,0.0,Castellano,4.0,Inglés,6.0,4.0,2.0,yes,no,yes,Piano,6,Flauta,6,,,Creo que ha sido en el lenguaje 3. He recibido una videollamada y se me han desconectado los auriculares durante unos instantes.,68.0,yes
78,2024-04-22_18h58.21.570,Experiment4_uns,s185,22.0,masculino,left,España,Catalán,Bachelor degree,no,no,B,1,conjunction_un,L4,unsyncopated,s2,r2,78,Online_conjL4_un//c.bu.da31.none.none.wav,po,re,bo,sil,ja,ña,ñi,sil1,nu,pe,sil2,['-'],,,none,none,,,,da,3,testWhatL1Uns//dep_viol.r1.s1.0.wav,4.0,what,unsyncopated,a,s1,no_rule,dep,L1,z,1.0102,5.0,0.0,0.6829,3.0,3.0,Catalán,0.0,Castellano,4.0,Inglés,6.0,4.0,2.0,yes,no,yes,Piano,6,Flauta,6,,,Creo que ha sido en el lenguaje 3. He recibido una videollamada y se me han desconectado los auriculares durante unos instantes.,68.0,yes
79,2024-04-22_18h58.21.570,Experiment4_uns,s185,22.0,masculino,left,España,Catalán,Bachelor degree,no,no,B,1,conjunction_un,L4,unsyncopated,s2,r2,79,Online_conjL4_un//c.bu.da29.none.none.wav,bo,ña,re,sil,ja,ci,ru,sil1,nu,ñi,sil2,['-'],,,none,none,,,,da,3,testWhatL1Uns//r2.s2.1.wav,4.0,what,unsyncopated,b,s2,rule,rule,L1,m,0.874,3.0,0.0,1.2212,3.0,3.0,Catalán,0.0,Castellano,4.0,Inglés,6.0,4.0,2.0,yes,no,yes,Piano,6,Flauta,6,,,Creo que ha sido en el lenguaje 3. He recibido una videollamada y se me han desconectado los auriculares durante unos instantes.,68.0,yes
80,2024-04-22_18h58.21.570,Experiment4_uns,s185,22.0,masculino,left,España,Catalán,Bachelor degree,no,no,B,1,conjunction_un,L4,unsyncopated,s2,r2,80,Online_conjL4_un//b.ja.nu30.888.1776.wav,pe,re,ña,sil,ja,po,de,sil1,nu,da,sil2,['catch_delay'],[0.9457999999524083],[0.9457999999524083],1.776,beat,0.9457999999524084,0.9457999999524084,,nu,2,testWhatL1Uns//r2.s2.2.wav,4.0,what,unsyncopated,b,s2,rule,rule,L1,m,2.4567,4.0,0.0,1.4543,3.0,3.0,Catalán,0.0,Castellano,4.0,Inglés,6.0,4.0,2.0,yes,no,yes,Piano,6,Flauta,6,,,Creo que ha sido en el lenguaje 3. He recibido una videollamada y se me han desconectado los auriculares durante unos instantes.,68.0,yes
81,2024-04-22_18h58.21.570,Experiment4_uns,s185,22.0,masculino,left,España,Catalán,Bachelor degree,no,no,B,1,conjunction_un,L4,unsyncopated,s2,r1,81,Online_conjL4_un//b.ja.nu31.none.none.wav,ru,pe,ñi,sil,zi,ña,da,sil1,lo,ci,sil2,['-'],[0.05779999995240814],[0.05779999995240814],none,none,,,"[""space""]",nu,2,testWhatL1Uns//time_viol.r2.s2.0.wav,4.0,what,unsyncopated,b,s2,no_rule,time,L1,z,0.8678,4.0,0.0,1.0252,3.0,3.0,Catalán,0.0,Castellano,4.0,Inglés,6.0,4.0,2.0,yes,no,yes,Piano,6,Flauta,6,,,Creo que ha sido en el lenguaje 3. He recibido una videollamada y se me han desconectado los auriculares durante unos instantes.,68.0,yes
82,2024-04-22_18h58.21.570,Experiment4_uns,s185,22.0,masculino,left,España,Catalán,Bachelor degree,no,no,B,1,conjunction_un,L4,unsyncopated,s2,r1,82,Online_conjL4_un//b.ja.nu29.none.none.wav,ci,da,po,sil,zi,bu,de,sil1,lo,ña,sil2,['-'],,,none,none,,,,nu,2,testWhatL1Uns//r1.s1.0.wav,4.0,what,unsyncopated,a,s1,rule,rule,L1,z,0.8713,3.0,1.0,0.5736,3.0,3.0,Catalán,0.0,Castellano,4.0,Inglés,6.0,4.0,2.0,yes,no,yes,Piano,6,Flauta,6,,,Creo que ha sido en el lenguaje 3. He recibido una videollamada y se me han desconectado los auriculares durante unos instantes.,68.0,yes
83,2024-04-22_18h58.21.570,Experiment4_uns,s185,22.0,masculino,left,España,Catalán,Bachelor degree,no,no,B,1,conjunction_un,L4,unsyncopated,s1,r1,83,Online_conjL4_un//b.ja.nu28.none.none.wav,zi,po,pe,sil,lo,bo,ñi,sil1,re,ci,sil2,['-'],,,none,none,,,,nu,2,testWhatL1Uns//time_viol.r2.s1.0.wav,4.0,what,unsyncopated,b,s1,no_rule,time,L1,m,1.9555,3.0,1.0,2.0246,3.0,3.0,Catalán,0.0,Castellano,4.0,Inglés,6.0,4.0,2.0,yes,no,yes,Piano,6,Flauta,6,,,Creo que ha sido en el lenguaje 3. He recibido una videollamada y se me han desconectado los auriculares durante unos instantes.,68.0,yes
84,2024-04-22_18h58.21.570,Experiment4_uns,s185,22.0,masculino,left,España,Catalán,Bachelor degree,no,no,B,1,conjunction_un,L4,unsyncopated,s1,r1,84,Online_conjL4_un//d.pe.po14.none.none.wav,zi,bo,da,sil,lo,ña,ci,sil1,de,re,sil2,['-'],,,none,none,,,,po,4,testWhatL1Uns//r1.s2.0.wav,4.0,what,unsyncopated,a,s2,rule,rule,L1,z,0.8003,6.0,1.0,1.223,3.0,3.0,Catalán,0.0,Castellano,4.0,Inglés,6.0,4.0,2.0,yes,no,yes,Piano,6,Flauta,6,,,Creo que ha sido en el lenguaje 3. He recibido una videollamada y se me han desconectado los auriculares durante unos instantes.,68.0,yes
85,2024-04-22_18h58.21.570,Experiment4_uns,s185,22.0,masculino,left,España,Catalán,Bachelor degree,no,no,B,1,conjunction_un,L4,unsyncopated,s2,r2,85,Online_conjL4_un//d.pe.po12.none.none.wav,da,ñi,bo,sil,ja,ña,ru,sil1,nu,bu,sil2,['-'],,,none,none,,,,po,4,testWhatL1Uns//r1.s2.1.wav,4.0,what,unsyncopated,a,s2,rule,rule,L1,m,3.2354,2.0,0.0,1.0348,3.0,3.0,Catalán,0.0,Castellano,4.0,Inglés,6.0,4.0,2.0,yes,no,yes,Piano,6,Flauta,6,,,Creo que ha sido en el lenguaje 3. He recibido una videollamada y se me han desconectado los auriculares durante unos instantes.,68.0,yes
86,2024-04-22_18h58.21.570,Experiment4_uns,s185,22.0,masculino,left,España,Catalán,Bachelor degree,no,no,B,1,conjunction_un,L4,unsyncopated,s1,r1,86,Online_conjL4_un//d.pe.po13.1776.1110.wav,zi,ña,ñi,sil,lo,po,bu,sil1,pe,de,sil2,['catch'],[1.9413999998569125],[1.9413999998569125],1.11,no_beat,0.8313999998569124,0.8313999998569124,"[""space""]",po,4,testWhatL1Uns//r1.s2.2.wav,4.0,what,unsyncopated,a,s2,rule,rule,L1,m,1.6345,3.0,0.0,0.8679,3.0,3.0,Catalán,0.0,Castellano,4.0,Inglés,6.0,4.0,2.0,yes,no,yes,Piano,6,Flauta,6,,,Creo que ha sido en el lenguaje 3. He recibido una videollamada y se me han desconectado los auriculares durante unos instantes.,68.0,yes
87,2024-04-22_18h58.21.570,Experiment4_uns,s185,22.0,masculino,left,España,Catalán,Bachelor degree,no,no,B,1,conjunction_un,L4,unsyncopated,s1,r2,87,Online_conjL4_un//d.pe.po15.444.1332.wav,ja,bu,pe,sil,nu,ru,po,sil1,de,da,sil2,['catch'],[2.156800000190742],[2.156800000190742],1.332,no_beat,0.8248000001907421,0.8248000001907421,"[""space""]",po,4,testWhatL1Uns//r2.s1.2.wav,4.0,what,unsyncopated,b,s1,rule,rule,L1,z,0.793,4.0,1.0,1.6533,3.0,3.0,Catalán,0.0,Castellano,4.0,Inglés,6.0,4.0,2.0,yes,no,yes,Piano,6,Flauta,6,,,Creo que ha sido en el lenguaje 3. He recibido una videollamada y se me han desconectado los auriculares durante unos instantes.,68.0,yes
88,2024-04-22_18h58.21.570,Experiment4_uns,s185,22.0,masculino,left,España,Catalán,Bachelor degree,no,no,B,1,conjunction_un,L4,unsyncopated,s1,r2,88,Online_conjL4_un//a.zi.lo19.none.none.wav,ja,bo,po,sil,nu,pe,re,sil1,ci,ña,sil2,['-'],,,none,none,,,,zi,1,testWhatL1Uns//dep_viol.r2.s2.0.wav,4.0,what,unsyncopated,b,s2,no_rule,dep,L1,z,1.3687,4.0,0.0,0.8415,3.0,3.0,Catalán,0.0,Castellano,4.0,Inglés,6.0,4.0,2.0,yes,no,yes,Piano,6,Flauta,6,,,Creo que ha sido en el lenguaje 3. He recibido una videollamada y se me han desconectado los auriculares durante unos instantes.,68.0,yes
89,2024-04-22_18h58.21.570,Experiment4_uns,s185,22.0,masculino,left,España,Catalán,Bachelor degree,no,no,B,1,conjunction_un,L4,unsyncopated,s2,r2,89,Online_conjL4_un//a.zi.lo17.none.none.wav,re,pe,ru,sil,ja,bu,ña,sil1,nu,po,sil2,['-'],,,none,none,,,,zi,1,testWhatL1Uns//r1.s1.2.wav,4.0,what,unsyncopated,a,s1,rule,rule,L1,z,2.7219,2.0,1.0,1.4349,3.0,3.0,Catalán,0.0,Castellano,4.0,Inglés,6.0,4.0,2.0,yes,no,yes,Piano,6,Flauta,6,,,Creo que ha sido en el lenguaje 3. He recibido una videollamada y se me han desconectado los auriculares durante unos instantes.,68.0,yes
90,2024-04-22_18h58.21.570,Experiment4_uns,s185,22.0,masculino,left,España,Catalán,Bachelor degree,no,no,B,1,conjunction_un,L4,unsyncopated,s1,r1,90,Online_conjL4_un//a.zi.lo16.0.888.wav,zi,ci,ru,sil,lo,bu,de,sil1,da,po,sil2,['catch'],[0.8133000001907931],[0.8133000001907931],0.0,beat,0.8133000001907931,0.8133000001907931,"[""space""]",zi,1,testWhatL1Uns//r2.s2.0.wav,4.0,what,unsyncopated,b,s2,rule,rule,L1,z,1.1369,4.0,1.0,1.0195,3.0,3.0,Catalán,0.0,Castellano,4.0,Inglés,6.0,4.0,2.0,yes,no,yes,Piano,6,Flauta,6,,,Creo que ha sido en el lenguaje 3. He recibido una videollamada y se me han desconectado los auriculares durante unos instantes.,68.0,yes
91,2024-04-22_18h58.21.570,Experiment4_uns,s185,22.0,masculino,left,España,Catalán,Bachelor degree,no,no,B,1,conjunction_un,L4,unsyncopated,s2,r1,91,Online_conjL4_un//a.zi.lo18.888.1776.wav,po,da,ña,sil,zi,re,ci,sil1,lo,de,sil2,['catch'],[1.808200000047691],[1.808200000047691],0.888,beat,0.920200000047691,0.920200000047691,"[""space""]",zi,1,testWhatL1Uns//cat_viol.r1.s2.0.wav,4.0,what,unsyncopated,a,s2,no_rule,cat,L1,m,1.1913,4.0,1.0,1.4003,3.0,3.0,Catalán,0.0,Castellano,4.0,Inglés,6.0,4.0,2.0,yes,no,yes,Piano,6,Flauta,6,,,Creo que ha sido en el lenguaje 3. He recibido una videollamada y se me han desconectado los auriculares durante unos instantes.,68.0,yes
92,2024-04-22_18h58.21.570,Experiment4_uns,s185,22.0,masculino,left,España,Catalán,Bachelor degree,no,no,B,1,conjunction_un,L4,unsyncopated,s1,r2,92,Online_conjL4_un//b.ja.nu15.0.888.wav,ja,bu,re,sil,nu,pe,bo,sil1,ñi,ci,sil2,['catch'],[1.8842999999523045],[1.8842999999523045],0.888,beat,0.9962999999523044,0.9962999999523044,"[""space""]",nu,2,testWhatL1Uns//r2.s1.1.wav,4.0,what,unsyncopated,b,s1,rule,rule,L1,z,1.6063,5.0,1.0,1.057,3.0,3.0,Catalán,0.0,Castellano,4.0,Inglés,6.0,4.0,2.0,yes,no,yes,Piano,6,Flauta,6,,,Creo que ha sido en el lenguaje 3. He recibido una videollamada y se me han desconectado los auriculares durante unos instantes.,68.0,yes
93,2024-04-22_18h58.21.570,Experiment4_uns,s185,22.0,masculino,left,España,Catalán,Bachelor degree,no,no,B,1,conjunction_un,L4,unsyncopated,s1,r2,93,Online_conjL4_un//b.ja.nu12.0.888.wav,ja,ñi,ci,sil,nu,ña,pe,sil1,da,bu,sil2,['catch'],[1.8078000001906958],[1.8078000001906958],0.888,beat,0.9198000001906956,0.9198000001906956,"[""space""]",nu,2,testWhatL1Uns//r2.s1.0.wav,4.0,what,unsyncopated,b,s1,rule,rule,L1,z,3.6504,2.0,1.0,0.3005,3.0,3.0,Catalán,0.0,Castellano,4.0,Inglés,6.0,4.0,2.0,yes,no,yes,Piano,6,Flauta,6,,,Creo que ha sido en el lenguaje 3. He recibido una videollamada y se me han desconectado los auriculares durante unos instantes.,68.0,yes
94,2024-04-22_18h58.21.570,Experiment4_uns,s185,22.0,masculino,left,España,Catalán,Bachelor degree,no,no,B,1,conjunction_un,L4,unsyncopated,s2,r2,94,Online_conjL4_un//b.ja.nu14.888.1776.wav,ru,ñi,re,sil,ja,pe,po,sil1,nu,da,sil2,['catch'],[2.5117000000476537],[2.5117000000476537],1.776,beat,0.7357000000476537,0.7357000000476537,"[""space""]",nu,2,testWhatL1Uns//time_viol.r1.s1.0.wav,4.0,what,unsyncopated,a,s1,no_rule,time,L1,z,0.4836,5.0,0.0,1.1681,3.0,3.0,Catalán,0.0,Castellano,4.0,Inglés,6.0,4.0,2.0,yes,no,yes,Piano,6,Flauta,6,,,Creo que ha sido en el lenguaje 3. He recibido una videollamada y se me han desconectado los auriculares durante unos instantes.,68.0,yes
95,2024-04-22_18h58.21.570,Experiment4_uns,s185,22.0,masculino,left,España,Catalán,Bachelor degree,no,no,B,1,conjunction_un,L4,unsyncopated,s1,r1,95,Online_conjL4_un//b.ja.nu13.none.none.wav,zi,pe,de,sil,lo,bu,ru,sil1,ñi,ña,sil2,['-'],,,none,none,,,,nu,2,testWhatL1Uns//cat_viol.r2.s2.0.wav,4.0,what,unsyncopated,b,s2,no_rule,cat,L1,m,0.9498,5.0,1.0,0.9194,3.0,3.0,Catalán,0.0,Castellano,4.0,Inglés,6.0,4.0,2.0,yes,no,yes,Piano,6,Flauta,6,,,Creo que ha sido en el lenguaje 3. He recibido una videollamada y se me han desconectado los auriculares durante unos instantes.,68.0,yes
96,2024-04-22_18h58.21.570,Experiment4_uns,s185,22.0,masculino,left,España,Catalán,Bachelor degree,no,no,B,1,conjunction_un,L4,unsyncopated,s1,r2,96,Online_conjL4_un//b.ja.nu21.0.888.wav,ja,re,ru,sil,nu,bo,pe,sil1,bu,ña,sil2,['catch'],[1.7077999999522717],[1.7077999999522717],0.888,beat,0.8197999999522717,0.8197999999522717,"[""space""]",nu,2,,,,,,,,,,,,,,,3.0,3.0,Catalán,0.0,Castellano,4.0,Inglés,6.0,4.0,2.0,yes,no,yes,Piano,6,Flauta,6,,,Creo que ha sido en el lenguaje 3. He recibido una videollamada y se me han desconectado los auriculares durante unos instantes.,68.0,yes
97,2024-04-22_18h58.21.570,Experiment4_uns,s185,22.0,masculino,left,España,Catalán,Bachelor degree,no,no,B,1,conjunction_un,L4,unsyncopated,s2,r2,97,Online_conjL4_un//b.ja.nu23.888.1776.wav,ci,ña,po,sil,ja,bu,ñi,sil1,nu,pe,sil2,['catch_delay'],[0.9130999999046827],[0.9130999999046827],1.776,beat,0.9130999999046828,0.9130999999046828,,nu,2,,,,,,,,,,,,,,,3.0,3.0,Catalán,0.0,Castellano,4.0,Inglés,6.0,4.0,2.0,yes,no,yes,Piano,6,Flauta,6,,,Creo que ha sido en el lenguaje 3. He recibido una videollamada y se me han desconectado los auriculares durante unos instantes.,68.0,yes
98,2024-04-22_18h58.21.570,Experiment4_uns,s185,22.0,masculino,left,España,Catalán,Bachelor degree,no,no,B,1,conjunction_un,L4,unsyncopated,s1,r2,98,Online_conjL4_un//b.ja.nu20.0.888.wav,ja,de,ñi,sil,nu,re,bo,sil1,da,po,sil2,['catch'],"[0.02509999990468259, 1.8277999999522763]",[1.8277999999522763],0.888,beat,0.9397999999522764,0.9397999999522764,"[""space"",""space""]",nu,2,,,,,,,,,,,,,,,3.0,3.0,Catalán,0.0,Castellano,4.0,Inglés,6.0,4.0,2.0,yes,no,yes,Piano,6,Flauta,6,,,Creo que ha sido en el lenguaje 3. He recibido una videollamada y se me han desconectado los auriculares durante unos instantes.,68.0,yes
99,2024-04-22_18h58.21.570,Experiment4_uns,s185,22.0,masculino,left,España,Catalán,Bachelor degree,no,no,B,1,conjunction_un,L4,unsyncopated,s1,r1,99,Online_conjL4_un//b.ja.nu22.none.none.wav,zi,ña,ci,sil,lo,bu,da,sil1,de,po,sil2,['-'],,,none,none,,,,nu,2,,,,,,,,,,,,,,,3.0,3.0,Catalán,0.0,Castellano,4.0,Inglés,6.0,4.0,2.0,yes,no,yes,Piano,6,Flauta,6,,,Creo que ha sido en el lenguaje 3. He recibido una videollamada y se me han desconectado los auriculares durante unos instantes.,68.0,yes
100,2024-04-22_18h58.21.570,Experiment4_uns,s185,22.0,masculino,left,España,Catalán,Bachelor degree,no,no,B,1,conjunction_un,L4,unsyncopated,s1,r2,100,Online_conjL4_un//c.bu.da9.none.none.wav,ja,re,ñi,sil,nu,ña,de,sil1,bo,po,sil2,['-'],,,none,none,,,,da,3,,,,,,,,,,,,,,,3.0,3.0,Catalán,0.0,Castellano,4.0,Inglés,6.0,4.0,2.0,yes,no,yes,Piano,6,Flauta,6,,,Creo que ha sido en el lenguaje 3. He recibido una videollamada y se me han desconectado los auriculares durante unos instantes.,68.0,yes
101,2024-04-22_18h58.21.570,Experiment4_uns,s185,22.0,masculino,left,España,Catalán,Bachelor degree,no,no,B,1,conjunction_un,L4,unsyncopated,s2,r2,101,Online_conjL4_un//c.bu.da8.1332.444.wav,ña,ñi,da,sil,ja,ru,bu,sil1,nu,ci,sil2,['catch'],[1.3072000000477146],[1.3072000000477146],0.444,no_beat,0.8632000000477147,0.8632000000477147,"[""space""]",da,3,,,,,,,,,,,,,,,3.0,3.0,Catalán,0.0,Castellano,4.0,Inglés,6.0,4.0,2.0,yes,no,yes,Piano,6,Flauta,6,,,Creo que ha sido en el lenguaje 3. He recibido una videollamada y se me han desconectado los auriculares durante unos instantes.,68.0,yes
102,2024-04-22_18h58.21.570,Experiment4_uns,s185,22.0,masculino,left,España,Catalán,Bachelor degree,no,no,B,1,conjunction_un,L4,unsyncopated,s2,r2,102,Online_conjL4_un//c.bu.da10.0.1110.wav,bu,po,ña,sil,ja,da,ru,sil1,nu,ñi,sil2,['catch'],[2.1918999998570143],[2.1918999998570143],1.11,no_beat,1.0818999998570142,1.0818999998570142,"[""space""]",da,3,,,,,,,,,,,,,,,3.0,3.0,Catalán,0.0,Castellano,4.0,Inglés,6.0,4.0,2.0,yes,no,yes,Piano,6,Flauta,6,,,Creo que ha sido en el lenguaje 3. He recibido una videollamada y se me han desconectado los auriculares durante unos instantes.,68.0,yes
103,2024-04-22_18h58.21.570,Experiment4_uns,s185,22.0,masculino,left,España,Catalán,Bachelor degree,no,no,B,1,conjunction_un,L4,unsyncopated,s1,r2,103,Online_conjL4_un//c.bu.da11.none.none.wav,ja,bo,ñi,sil,nu,pe,re,sil1,ci,ña,sil2,['-'],,,none,none,,,,da,3,,,,,,,,,,,,,,,3.0,3.0,Catalán,0.0,Castellano,4.0,Inglés,6.0,4.0,2.0,yes,no,yes,Piano,6,Flauta,6,,,Creo que ha sido en el lenguaje 3. He recibido una videollamada y se me han desconectado los auriculares durante unos instantes.,68.0,yes
104,2024-04-22_18h58.21.570,Experiment4_uns,s185,22.0,masculino,left,España,Catalán,Bachelor degree,no,no,B,1,conjunction_un,L4,unsyncopated,s2,r2,104,Online_conjL4_un//b.ja.nu24.888.1776.wav,pe,re,po,sil,ja,ñi,de,sil1,nu,bo,sil2,['catch_delay'],[0.9003000001907486],[0.9003000001907486],1.776,beat,0.9003000001907486,0.9003000001907486,,nu,2,,,,,,,,,,,,,,,3.0,3.0,Catalán,0.0,Castellano,4.0,Inglés,6.0,4.0,2.0,yes,no,yes,Piano,6,Flauta,6,,,Creo que ha sido en el lenguaje 3. He recibido una videollamada y se me han desconectado los auriculares durante unos instantes.,68.0,yes
105,2024-04-22_18h58.21.570,Experiment4_uns,s185,22.0,masculino,left,España,Catalán,Bachelor degree,no,no,B,1,conjunction_un,L4,unsyncopated,s2,r2,105,Online_conjL4_un//b.ja.nu26.888.1776.wav,bo,bu,ru,sil,ja,de,ñi,sil1,nu,da,sil2,['catch_delay'],[0.8976000001431095],[0.8976000001431095],1.776,beat,0.8976000001431095,0.8976000001431095,"[""space""]",nu,2,,,,,,,,,,,,,,,3.0,3.0,Catalán,0.0,Castellano,4.0,Inglés,6.0,4.0,2.0,yes,no,yes,Piano,6,Flauta,6,,,Creo que ha sido en el lenguaje 3. He recibido una videollamada y se me han desconectado los auriculares durante unos instantes.,68.0,yes
106,2024-04-22_18h58.21.570,Experiment4_uns,s185,22.0,masculino,left,España,Catalán,Bachelor degree,no,no,B,1,conjunction_un,L4,unsyncopated,s1,r1,106,Online_conjL4_un//b.ja.nu25.none.none.wav,zi,da,ru,sil,lo,de,ñi,sil1,re,ña,sil2,['-'],[0.009600000143109355],[0.009600000143109355],none,none,,,"[""space""]",nu,2,,,,,,,,,,,,,,,3.0,3.0,Catalán,0.0,Castellano,4.0,Inglés,6.0,4.0,2.0,yes,no,yes,Piano,6,Flauta,6,,,Creo que ha sido en el lenguaje 3. He recibido una videollamada y se me han desconectado los auriculares durante unos instantes.,68.0,yes
107,2024-04-22_18h58.21.570,Experiment4_uns,s185,22.0,masculino,left,España,Catalán,Bachelor degree,no,no,B,1,conjunction_un,L4,unsyncopated,s1,r2,107,Online_conjL4_un//b.ja.nu27.0.888.wav,ja,ñi,bu,sil,nu,ña,ci,sil1,da,po,sil2,['catch'],[1.9329999999999927],[1.9329999999999927],0.888,beat,1.0449999999999928,1.0449999999999928,"[""space""]",nu,2,,,,,,,,,,,,,,,3.0,3.0,Catalán,0.0,Castellano,4.0,Inglés,6.0,4.0,2.0,yes,no,yes,Piano,6,Flauta,6,,,Creo que ha sido en el lenguaje 3. He recibido una videollamada y se me han desconectado los auriculares durante unos instantes.,68.0,yes
108,2024-04-22_18h58.21.570,Experiment4_uns,s185,22.0,masculino,left,España,Catalán,Bachelor degree,no,no,B,1,conjunction_un,L4,unsyncopated,s2,r2,108,Online_conjL4_un//a.zi.lo23.none.none.wav,ñi,bo,po,sil,ja,da,ña,sil1,nu,re,sil2,['-'],,,none,none,,,,zi,1,,,,,,,,,,,,,,,3.0,3.0,Catalán,0.0,Castellano,4.0,Inglés,6.0,4.0,2.0,yes,no,yes,Piano,6,Flauta,6,,,Creo que ha sido en el lenguaje 3. He recibido una videollamada y se me han desconectado los auriculares durante unos instantes.,68.0,yes
109,2024-04-22_18h58.21.570,Experiment4_uns,s185,22.0,masculino,left,España,Catalán,Bachelor degree,no,no,B,1,conjunction_un,L4,unsyncopated,s2,r1,109,Online_conjL4_un//a.zi.lo22.888.1776.wav,bu,ñi,pe,sil,zi,bo,ci,sil1,lo,ru,sil2,['catch'],[1.7964999999999236],[1.7964999999999236],0.888,beat,0.9084999999999236,0.9084999999999236,"[""space""]",zi,1,,,,,,,,,,,,,,,3.0,3.0,Catalán,0.0,Castellano,4.0,Inglés,6.0,4.0,2.0,yes,no,yes,Piano,6,Flauta,6,,,Creo que ha sido en el lenguaje 3. He recibido una videollamada y se me han desconectado los auriculares durante unos instantes.,68.0,yes
110,2024-04-22_18h58.21.570,Experiment4_uns,s185,22.0,masculino,left,España,Catalán,Bachelor degree,no,no,B,1,conjunction_un,L4,unsyncopated,s1,r2,110,Online_conjL4_un//a.zi.lo20.none.none.wav,ja,da,ñi,sil,nu,ña,ci,sil1,re,ru,sil2,['false alarm'],[2.3559999999999945],[2.3559999999999945],none,none,,,"[""space""]",zi,1,,,,,,,,,,,,,,,3.0,3.0,Catalán,0.0,Castellano,4.0,Inglés,6.0,4.0,2.0,yes,no,yes,Piano,6,Flauta,6,,,Creo que ha sido en el lenguaje 3. He recibido una videollamada y se me han desconectado los auriculares durante unos instantes.,68.0,yes
111,2024-04-22_18h58.21.570,Experiment4_uns,s185,22.0,masculino,left,España,Catalán,Bachelor degree,no,no,B,1,conjunction_un,L4,unsyncopated,s2,r1,111,Online_conjL4_un//a.zi.lo21.888.1776.wav,ci,da,de,sil,zi,bu,po,sil1,lo,re,sil2,"['catch', 'false alarm']","[1.0472000000477237, 2.0277000000476164]",[1.0472000000477237],0.888,beat,0.1592000000477237,0.1592000000477237,"[""space"",""space""]",zi,1,,,,,,,,,,,,,,,3.0,3.0,Catalán,0.0,Castellano,4.0,Inglés,6.0,4.0,2.0,yes,no,yes,Piano,6,Flauta,6,,,Creo que ha sido en el lenguaje 3. He recibido una videollamada y se me han desconectado los auriculares durante unos instantes.,68.0,yes
112,2024-04-22_18h58.21.570,Experiment4_uns,s185,22.0,masculino,left,España,Catalán,Bachelor degree,no,no,B,1,conjunction_un,L4,unsyncopated,s1,r1,112,Online_conjL4_un//d.pe.po3.none.none.wav,zi,ci,ñi,sil,lo,re,ru,sil1,bu,da,sil2,['-'],,,none,none,,,,po,4,,,,,,,,,,,,,,,3.0,3.0,Catalán,0.0,Castellano,4.0,Inglés,6.0,4.0,2.0,yes,no,yes,Piano,6,Flauta,6,,,Creo que ha sido en el lenguaje 3. He recibido una videollamada y se me han desconectado los auriculares durante unos instantes.,68.0,yes
113,2024-04-22_18h58.21.570,Experiment4_uns,s185,22.0,masculino,left,España,Catalán,Bachelor degree,no,no,B,1,conjunction_un,L4,unsyncopated,s1,r2,113,Online_conjL4_un//d.pe.po0.none.none.wav,ja,ci,ñi,sil,nu,ru,da,sil1,de,ña,sil2,['-'],,,none,none,,,,po,4,,,,,,,,,,,,,,,3.0,3.0,Catalán,0.0,Castellano,4.0,Inglés,6.0,4.0,2.0,yes,no,yes,Piano,6,Flauta,6,,,Creo que ha sido en el lenguaje 3. He recibido una videollamada y se me han desconectado los auriculares durante unos instantes.,68.0,yes
114,2024-04-22_18h58.21.570,Experiment4_uns,s185,22.0,masculino,left,España,Catalán,Bachelor degree,no,no,B,1,conjunction_un,L4,unsyncopated,s1,r2,114,Online_conjL4_un//d.pe.po2.none.none.wav,ja,ña,ru,sil,nu,bu,de,sil1,ci,re,sil2,['-'],,,none,none,,,,po,4,,,,,,,,,,,,,,,3.0,3.0,Catalán,0.0,Castellano,4.0,Inglés,6.0,4.0,2.0,yes,no,yes,Piano,6,Flauta,6,,,Creo que ha sido en el lenguaje 3. He recibido una videollamada y se me han desconectado los auriculares durante unos instantes.,68.0,yes
115,2024-04-22_18h58.21.570,Experiment4_uns,s185,22.0,masculino,left,España,Catalán,Bachelor degree,no,no,B,1,conjunction_un,L4,unsyncopated,s2,r2,115,Online_conjL4_un//d.pe.po1.444.0.wav,po,bu,pe,sil,ja,ñi,ña,sil1,nu,ru,sil2,['catch'],[0.893299999952319],[0.893299999952319],0.0,beat,0.893299999952319,0.893299999952319,"[""space""]",po,4,,,,,,,,,,,,,,,3.0,3.0,Catalán,0.0,Castellano,4.0,Inglés,6.0,4.0,2.0,yes,no,yes,Piano,6,Flauta,6,,,Creo que ha sido en el lenguaje 3. He recibido una videollamada y se me han desconectado los auriculares durante unos instantes.,68.0,yes
116,2024-04-22_18h58.21.570,Experiment4_uns,s185,22.0,masculino,left,España,Catalán,Bachelor degree,no,no,B,1,conjunction_un,L4,unsyncopated,s2,r1,116,Online_conjL4_un//b.ja.nu0.none.none.wav,de,ru,da,sil,zi,re,pe,sil1,lo,bu,sil2,['-'],,,none,none,,,,nu,2,,,,,,,,,,,,,,,3.0,3.0,Catalán,0.0,Castellano,4.0,Inglés,6.0,4.0,2.0,yes,no,yes,Piano,6,Flauta,6,,,Creo que ha sido en el lenguaje 3. He recibido una videollamada y se me han desconectado los auriculares durante unos instantes.,68.0,yes
117,2024-04-22_18h58.21.570,Experiment4_uns,s185,22.0,masculino,left,España,Catalán,Bachelor degree,no,no,B,1,conjunction_un,L4,unsyncopated,s1,r2,117,Online_conjL4_un//b.ja.nu3.0.888.wav,ja,ña,re,sil,nu,bo,po,sil1,ci,ñi,sil2,['catch'],[1.8093000001906603],[1.8093000001906603],0.888,beat,0.9213000001906604,0.9213000001906604,"[""space""]",nu,2,,,,,,,,,,,,,,,3.0,3.0,Catalán,0.0,Castellano,4.0,Inglés,6.0,4.0,2.0,yes,no,yes,Piano,6,Flauta,6,,,Creo que ha sido en el lenguaje 3. He recibido una videollamada y se me han desconectado los auriculares durante unos instantes.,68.0,yes
118,2024-04-22_18h58.21.570,Experiment4_uns,s185,22.0,masculino,left,España,Catalán,Bachelor degree,no,no,B,1,conjunction_un,L4,unsyncopated,s2,r2,118,Online_conjL4_un//b.ja.nu2.888.1776.wav,po,ci,bu,sil,ja,pe,ru,sil1,nu,de,sil2,['catch_delay'],[0.9827000000477375],[0.9827000000477375],1.776,beat,0.9827000000477376,0.9827000000477376,,nu,2,,,,,,,,,,,,,,,3.0,3.0,Catalán,0.0,Castellano,4.0,Inglés,6.0,4.0,2.0,yes,no,yes,Piano,6,Flauta,6,,,Creo que ha sido en el lenguaje 3. He recibido una videollamada y se me han desconectado los auriculares durante unos instantes.,68.0,yes
119,2024-04-22_18h58.21.570,Experiment4_uns,s185,22.0,masculino,left,España,Catalán,Bachelor degree,no,no,B,1,conjunction_un,L4,unsyncopated,s2,r1,119,Online_conjL4_un//b.ja.nu1.none.none.wav,bo,ci,ru,sil,zi,re,da,sil1,lo,de,sil2,['-'],[0.09470000004773738],[0.09470000004773738],none,none,,,"[""space""]",nu,2,,,,,,,,,,,,,,,3.0,3.0,Catalán,0.0,Castellano,4.0,Inglés,6.0,4.0,2.0,yes,no,yes,Piano,6,Flauta,6,,,Creo que ha sido en el lenguaje 3. He recibido una videollamada y se me han desconectado los auriculares durante unos instantes.,68.0,yes
120,2024-04-22_18h58.21.570,Experiment4_uns,s185,22.0,masculino,left,España,Catalán,Bachelor degree,no,no,B,1,conjunction_un,L4,unsyncopated,s2,r1,120,Online_conjL4_un//c.bu.da17.none.none.wav,ru,de,re,sil,zi,ci,po,sil1,lo,pe,sil2,['false alarm'],[1.119600000143123],[1.119600000143123],none,none,,,"[""space""]",da,3,,,,,,,,,,,,,,,3.0,3.0,Catalán,0.0,Castellano,4.0,Inglés,6.0,4.0,2.0,yes,no,yes,Piano,6,Flauta,6,,,Creo que ha sido en el lenguaje 3. He recibido una videollamada y se me han desconectado los auriculares durante unos instantes.,68.0,yes
121,2024-04-22_18h58.21.570,Experiment4_uns,s185,22.0,masculino,left,España,Catalán,Bachelor degree,no,no,B,1,conjunction_un,L4,unsyncopated,s1,r2,121,Online_conjL4_un//c.bu.da18.1110.222.wav,ja,da,re,sil,nu,bu,ru,sil1,bo,pe,sil2,['catch'],[1.1243999998569052],[1.1243999998569052],0.222,no_beat,0.9023999998569052,0.9023999998569052,"[""space""]",da,3,,,,,,,,,,,,,,,3.0,3.0,Catalán,0.0,Castellano,4.0,Inglés,6.0,4.0,2.0,yes,no,yes,Piano,6,Flauta,6,,,Creo que ha sido en el lenguaje 3. He recibido una videollamada y se me han desconectado los auriculares durante unos instantes.,68.0,yes
122,2024-04-22_18h58.21.570,Experiment4_uns,s185,22.0,masculino,left,España,Catalán,Bachelor degree,no,no,B,1,conjunction_un,L4,unsyncopated,s1,r2,122,Online_conjL4_un//c.bu.da16.none.none.wav,ja,de,ñi,sil,nu,pe,ru,sil1,re,ci,sil2,['-'],,,none,none,,,,da,3,,,,,,,,,,,,,,,3.0,3.0,Catalán,0.0,Castellano,4.0,Inglés,6.0,4.0,2.0,yes,no,yes,Piano,6,Flauta,6,,,Creo que ha sido en el lenguaje 3. He recibido una videollamada y se me han desconectado los auriculares durante unos instantes.,68.0,yes
123,2024-04-22_18h58.21.570,Experiment4_uns,s185,22.0,masculino,left,España,Catalán,Bachelor degree,no,no,B,1,conjunction_un,L4,unsyncopated,s2,r1,123,Online_conjL4_un//c.bu.da19.none.none.wav,ña,ru,pe,sil,zi,re,ñi,sil1,lo,de,sil2,['-'],,,none,none,,,,da,3,,,,,,,,,,,,,,,3.0,3.0,Catalán,0.0,Castellano,4.0,Inglés,6.0,4.0,2.0,yes,no,yes,Piano,6,Flauta,6,,,Creo que ha sido en el lenguaje 3. He recibido una videollamada y se me han desconectado los auriculares durante unos instantes.,68.0,yes
124,2024-04-22_18h58.21.570,Experiment4_uns,s185,22.0,masculino,left,España,Catalán,Bachelor degree,no,no,B,1,conjunction_un,L4,unsyncopated,s1,r1,124,Online_conjL4_un//a.zi.lo7.0.888.wav,zi,ci,da,sil,lo,ñi,de,sil1,ru,po,sil2,['catch'],[0.927799999952299],[0.927799999952299],0.0,beat,0.927799999952299,0.927799999952299,"[""space""]",zi,1,,,,,,,,,,,,,,,3.0,3.0,Catalán,0.0,Castellano,4.0,Inglés,6.0,4.0,2.0,yes,no,yes,Piano,6,Flauta,6,,,Creo que ha sido en el lenguaje 3. He recibido una videollamada y se me han desconectado los auriculares durante unos instantes.,68.0,yes
125,2024-04-22_18h58.21.570,Experiment4_uns,s185,22.0,masculino,left,España,Catalán,Bachelor degree,no,no,B,1,conjunction_un,L4,unsyncopated,s1,r1,125,Online_conjL4_un//a.zi.lo6.0.888.wav,zi,da,po,sil,lo,de,ci,sil1,re,bo,sil2,['catch'],[0.9125999999046144],[0.9125999999046144],0.0,beat,0.9125999999046144,0.9125999999046144,"[""space""]",zi,1,,,,,,,,,,,,,,,3.0,3.0,Catalán,0.0,Castellano,4.0,Inglés,6.0,4.0,2.0,yes,no,yes,Piano,6,Flauta,6,,,Creo que ha sido en el lenguaje 3. He recibido una videollamada y se me han desconectado los auriculares durante unos instantes.,68.0,yes
126,2024-04-22_18h58.21.570,Experiment4_uns,s185,22.0,masculino,left,España,Catalán,Bachelor degree,no,no,B,1,conjunction_un,L4,unsyncopated,s2,r2,126,Online_conjL4_un//a.zi.lo5.none.none.wav,ñi,re,pe,sil,ja,da,ña,sil1,nu,bu,sil2,['-'],,,none,none,,,,zi,1,,,,,,,,,,,,,,,3.0,3.0,Catalán,0.0,Castellano,4.0,Inglés,6.0,4.0,2.0,yes,no,yes,Piano,6,Flauta,6,,,Creo que ha sido en el lenguaje 3. He recibido una videollamada y se me han desconectado los auriculares durante unos instantes.,68.0,yes
127,2024-04-22_18h58.21.570,Experiment4_uns,s185,22.0,masculino,left,España,Catalán,Bachelor degree,no,no,B,1,conjunction_un,L4,unsyncopated,s1,r2,127,Online_conjL4_un//a.zi.lo4.none.none.wav,ja,da,ñi,sil,nu,pe,re,sil1,bu,bo,sil2,['-'],,,none,none,,,,zi,1,,,,,,,,,,,,,,,3.0,3.0,Catalán,0.0,Castellano,4.0,Inglés,6.0,4.0,2.0,yes,no,yes,Piano,6,Flauta,6,,,Creo que ha sido en el lenguaje 3. He recibido una videollamada y se me han desconectado los auriculares durante unos instantes.,68.0,yes
128,2024-04-22_18h58.21.570,Experiment4_uns,s185,22.0,masculino,left,España,Catalán,Bachelor degree,no,no,B,2,when,L2,unsyncopated,when,when,0,Online_whenL2//d.si12.1776.wav,mi,du,to,sil,go,ño,bi,sil1,si,cha,sil2,['catch'],[2.516600000142944],[2.516600000142944],1.776,beat,0.7406000001429438,0.7406000001429438,"[""space""]",si,4,,,,,,,,,,,,,,,3.0,3.0,Catalán,0.0,Castellano,4.0,Inglés,6.0,4.0,2.0,yes,no,yes,Piano,6,Flauta,6,,,Creo que ha sido en el lenguaje 3. He recibido una videollamada y se me han desconectado los auriculares durante unos instantes.,68.0,yes
129,2024-04-22_18h58.21.570,Experiment4_uns,s185,22.0,masculino,left,España,Catalán,Bachelor degree,no,no,B,2,when,L2,unsyncopated,when,when,1,Online_whenL2//d.si13.444.wav,go,ñu,si,sil,bi,to,ño,sil1,fe,mi,sil2,['catch'],[1.1775999999047144],[1.1775999999047144],0.444,no_beat,0.7335999999047145,0.7335999999047145,"[""space""]",si,4,,,,,,,,,,,,,,,3.0,3.0,Catalán,0.0,Castellano,4.0,Inglés,6.0,4.0,2.0,yes,no,yes,Piano,6,Flauta,6,,,Creo que ha sido en el lenguaje 3. He recibido una videollamada y se me han desconectado los auriculares durante unos instantes.,68.0,yes
130,2024-04-22_18h58.21.570,Experiment4_uns,s185,22.0,masculino,left,España,Catalán,Bachelor degree,no,no,B,2,when,L2,unsyncopated,when,when,2,Online_whenL2//d.si14.1332.wav,ba,te,bi,sil,go,su,si,sil1,du,ñu,sil2,['catch'],[2.0800000000001546],[2.0800000000001546],1.332,no_beat,0.7480000000001545,0.7480000000001545,"[""space""]",si,4,,,,,,,,,,,,,,,3.0,3.0,Catalán,0.0,Castellano,4.0,Inglés,6.0,4.0,2.0,yes,no,yes,Piano,6,Flauta,6,,,Creo que ha sido en el lenguaje 3. He recibido una videollamada y se me han desconectado los auriculares durante unos instantes.,68.0,yes
131,2024-04-22_18h58.21.570,Experiment4_uns,s185,22.0,masculino,left,España,Catalán,Bachelor degree,no,no,B,2,when,L2,unsyncopated,when,when,3,Online_whenL2//d.si15.1332.wav,mi,ño,ba,sil,ra,fe,si,sil1,ñu,me,sil2,['catch'],[2.02279999995244],[2.02279999995244],1.332,no_beat,0.6907999999524399,0.6907999999524399,"[""space""]",si,4,,,,,,,,,,,,,,,3.0,3.0,Catalán,0.0,Castellano,4.0,Inglés,6.0,4.0,2.0,yes,no,yes,Piano,6,Flauta,6,,,Creo que ha sido en el lenguaje 3. He recibido una videollamada y se me han desconectado los auriculares durante unos instantes.,68.0,yes
132,2024-04-22_18h58.21.570,Experiment4_uns,s185,22.0,masculino,left,España,Catalán,Bachelor degree,no,no,B,2,when,L2,unsyncopated,when,when,4,Online_whenL2//b.fe0.none.wav,te,go,to,sil,si,ra,ño,sil1,cha,su,sil2,['-'],,,none,none,,,,fe,2,,,,,,,,,,,,,,,3.0,3.0,Catalán,0.0,Castellano,4.0,Inglés,6.0,4.0,2.0,yes,no,yes,Piano,6,Flauta,6,,,Creo que ha sido en el lenguaje 3. He recibido una videollamada y se me han desconectado los auriculares durante unos instantes.,68.0,yes
133,2024-04-22_18h58.21.570,Experiment4_uns,s185,22.0,masculino,left,España,Catalán,Bachelor degree,no,no,B,2,when,L2,unsyncopated,when,when,5,Online_whenL2//b.fe2.1332.wav,ñu,bi,mi,sil,ra,cha,fe,sil1,ba,si,sil2,['miss'],,,1.332,no_beat,,,,fe,2,,,,,,,,,,,,,,,3.0,3.0,Catalán,0.0,Castellano,4.0,Inglés,6.0,4.0,2.0,yes,no,yes,Piano,6,Flauta,6,,,Creo que ha sido en el lenguaje 3. He recibido una videollamada y se me han desconectado los auriculares durante unos instantes.,68.0,yes
134,2024-04-22_18h58.21.570,Experiment4_uns,s185,22.0,masculino,left,España,Catalán,Bachelor degree,no,no,B,2,when,L2,unsyncopated,when,when,6,Online_whenL2//b.fe3.1110.wav,me,mi,ñu,sil,bi,fe,si,sil1,to,go,sil2,['miss'],,,1.11,no_beat,,,,fe,2,,,,,,,,,,,,,,,3.0,3.0,Catalán,0.0,Castellano,4.0,Inglés,6.0,4.0,2.0,yes,no,yes,Piano,6,Flauta,6,,,Creo que ha sido en el lenguaje 3. He recibido una videollamada y se me han desconectado los auriculares durante unos instantes.,68.0,yes
135,2024-04-22_18h58.21.570,Experiment4_uns,s185,22.0,masculino,left,España,Catalán,Bachelor degree,no,no,B,2,when,L2,unsyncopated,when,when,7,Online_whenL2//b.fe1.none.wav,du,te,ba,sil,ra,mi,cha,sil1,ñu,to,sil2,['-'],,,none,none,,,,fe,2,,,,,,,,,,,,,,,3.0,3.0,Catalán,0.0,Castellano,4.0,Inglés,6.0,4.0,2.0,yes,no,yes,Piano,6,Flauta,6,,,Creo que ha sido en el lenguaje 3. He recibido una videollamada y se me han desconectado los auriculares durante unos instantes.,68.0,yes
136,2024-04-22_18h58.21.570,Experiment4_uns,s185,22.0,masculino,left,España,Catalán,Bachelor degree,no,no,B,2,when,L2,unsyncopated,when,when,8,Online_whenL2//d.si5.1332.wav,to,fe,ra,sil,me,cha,si,sil1,su,te,sil2,['catch'],[2.1189999999999145],[2.1189999999999145],1.332,no_beat,0.7869999999999144,0.7869999999999144,"[""space""]",si,4,,,,,,,,,,,,,,,3.0,3.0,Catalán,0.0,Castellano,4.0,Inglés,6.0,4.0,2.0,yes,no,yes,Piano,6,Flauta,6,,,Creo que ha sido en el lenguaje 3. He recibido una videollamada y se me han desconectado los auriculares durante unos instantes.,68.0,yes
137,2024-04-22_18h58.21.570,Experiment4_uns,s185,22.0,masculino,left,España,Catalán,Bachelor degree,no,no,B,2,when,L2,unsyncopated,when,when,9,Online_whenL2//d.si4.444.wav,to,ra,si,sil,me,ñu,go,sil1,ño,mi,sil2,['catch'],[1.2412999999521617],[1.2412999999521617],0.444,no_beat,0.7972999999521617,0.7972999999521617,"[""space""]",si,4,,,,,,,,,,,,,,,3.0,3.0,Catalán,0.0,Castellano,4.0,Inglés,6.0,4.0,2.0,yes,no,yes,Piano,6,Flauta,6,,,Creo que ha sido en el lenguaje 3. He recibido una videollamada y se me han desconectado los auriculares durante unos instantes.,68.0,yes
138,2024-04-22_18h58.21.570,Experiment4_uns,s185,22.0,masculino,left,España,Catalán,Bachelor degree,no,no,B,2,when,L2,unsyncopated,when,when,10,Online_whenL2//d.si7.none.wav,go,cha,te,sil,fe,ñu,ba,sil1,mi,to,sil2,['-'],,,none,none,,,,si,4,,,,,,,,,,,,,,,3.0,3.0,Catalán,0.0,Castellano,4.0,Inglés,6.0,4.0,2.0,yes,no,yes,Piano,6,Flauta,6,,,Creo que ha sido en el lenguaje 3. He recibido una videollamada y se me han desconectado los auriculares durante unos instantes.,68.0,yes
139,2024-04-22_18h58.21.570,Experiment4_uns,s185,22.0,masculino,left,España,Catalán,Bachelor degree,no,no,B,2,when,L2,unsyncopated,when,when,11,Online_whenL2//d.si6.1776.wav,te,cha,du,sil,fe,ño,me,sil1,si,bi,sil2,['catch'],[2.5950000000000273],[2.5950000000000273],1.776,beat,0.8190000000000273,0.8190000000000273,"[""space""]",si,4,,,,,,,,,,,,,,,3.0,3.0,Catalán,0.0,Castellano,4.0,Inglés,6.0,4.0,2.0,yes,no,yes,Piano,6,Flauta,6,,,Creo que ha sido en el lenguaje 3. He recibido una videollamada y se me han desconectado los auriculares durante unos instantes.,68.0,yes
140,2024-04-22_18h58.21.570,Experiment4_uns,s185,22.0,masculino,left,España,Catalán,Bachelor degree,no,no,B,2,when,L2,unsyncopated,when,when,12,Online_whenL2//d.si21.none.wav,te,me,bi,sil,go,ñu,to,sil1,ra,ño,sil2,['-'],,,none,none,,,,si,4,,,,,,,,,,,,,,,3.0,3.0,Catalán,0.0,Castellano,4.0,Inglés,6.0,4.0,2.0,yes,no,yes,Piano,6,Flauta,6,,,Creo que ha sido en el lenguaje 3. He recibido una videollamada y se me han desconectado los auriculares durante unos instantes.,68.0,yes
141,2024-04-22_18h58.21.570,Experiment4_uns,s185,22.0,masculino,left,España,Catalán,Bachelor degree,no,no,B,2,when,L2,unsyncopated,when,when,13,Online_whenL2//d.si23.none.wav,to,mi,ba,sil,go,du,ñu,sil1,te,ño,sil2,['-'],,,none,none,,,,si,4,,,,,,,,,,,,,,,3.0,3.0,Catalán,0.0,Castellano,4.0,Inglés,6.0,4.0,2.0,yes,no,yes,Piano,6,Flauta,6,,,Creo que ha sido en el lenguaje 3. He recibido una videollamada y se me han desconectado los auriculares durante unos instantes.,68.0,yes
142,2024-04-22_18h58.21.570,Experiment4_uns,s185,22.0,masculino,left,España,Catalán,Bachelor degree,no,no,B,2,when,L2,unsyncopated,when,when,14,Online_whenL2//d.si22.none.wav,te,du,fe,sil,cha,su,ñu,sil1,me,ba,sil2,['-'],,,none,none,,,,si,4,,,,,,,,,,,,,,,3.0,3.0,Catalán,0.0,Castellano,4.0,Inglés,6.0,4.0,2.0,yes,no,yes,Piano,6,Flauta,6,,,Creo que ha sido en el lenguaje 3. He recibido una videollamada y se me han desconectado los auriculares durante unos instantes.,68.0,yes
143,2024-04-22_18h58.21.570,Experiment4_uns,s185,22.0,masculino,left,España,Catalán,Bachelor degree,no,no,B,2,when,L2,unsyncopated,when,when,15,Online_whenL2//d.si20.1998.wav,ba,mi,ñu,sil,cha,to,go,sil1,ra,si,sil2,['catch_delay'],[0.7875999999046746],[0.7875999999046746],1.998,no_beat,0.7875999999046746,0.7875999999046746,,si,4,,,,,,,,,,,,,,,3.0,3.0,Catalán,0.0,Castellano,4.0,Inglés,6.0,4.0,2.0,yes,no,yes,Piano,6,Flauta,6,,,Creo que ha sido en el lenguaje 3. He recibido una videollamada y se me han desconectado los auriculares durante unos instantes.,68.0,yes
144,2024-04-22_18h58.21.570,Experiment4_uns,s185,22.0,masculino,left,España,Catalán,Bachelor degree,no,no,B,2,when,L2,unsyncopated,when,when,16,Online_whenL2//c.cha20.none.wav,fe,ño,mi,sil,ra,su,ba,sil1,ñu,to,sil2,['-'],[0.1215999999046744],[0.1215999999046744],none,none,,,"[""space""]",cha,3,,,,,,,,,,,,,,,3.0,3.0,Catalán,0.0,Castellano,4.0,Inglés,6.0,4.0,2.0,yes,no,yes,Piano,6,Flauta,6,,,Creo que ha sido en el lenguaje 3. He recibido una videollamada y se me han desconectado los auriculares durante unos instantes.,68.0,yes
145,2024-04-22_18h58.21.570,Experiment4_uns,s185,22.0,masculino,left,España,Catalán,Bachelor degree,no,no,B,2,when,L2,unsyncopated,when,when,17,Online_whenL2//c.cha22.none.wav,ra,to,mi,sil,bi,te,ba,sil1,fe,ñu,sil2,['-'],,,none,none,,,,cha,3,,,,,,,,,,,,,,,3.0,3.0,Catalán,0.0,Castellano,4.0,Inglés,6.0,4.0,2.0,yes,no,yes,Piano,6,Flauta,6,,,Creo que ha sido en el lenguaje 3. He recibido una videollamada y se me han desconectado los auriculares durante unos instantes.,68.0,yes
146,2024-04-22_18h58.21.570,Experiment4_uns,s185,22.0,masculino,left,España,Catalán,Bachelor degree,no,no,B,2,when,L2,unsyncopated,when,when,18,Online_whenL2//c.cha23.none.wav,me,ba,fe,sil,ño,ñu,mi,sil1,go,te,sil2,['-'],,,none,none,,,,cha,3,,,,,,,,,,,,,,,3.0,3.0,Catalán,0.0,Castellano,4.0,Inglés,6.0,4.0,2.0,yes,no,yes,Piano,6,Flauta,6,,,Creo que ha sido en el lenguaje 3. He recibido una videollamada y se me han desconectado los auriculares durante unos instantes.,68.0,yes
147,2024-04-22_18h58.21.570,Experiment4_uns,s185,22.0,masculino,left,España,Catalán,Bachelor degree,no,no,B,2,when,L2,unsyncopated,when,when,19,Online_whenL2//c.cha21.1998.wav,si,du,ñu,sil,mi,go,to,sil1,ño,cha,sil2,['catch_delay'],[0.8039000000954422],[0.8039000000954422],1.998,no_beat,0.8039000000954422,0.8039000000954422,,cha,3,,,,,,,,,,,,,,,3.0,3.0,Catalán,0.0,Castellano,4.0,Inglés,6.0,4.0,2.0,yes,no,yes,Piano,6,Flauta,6,,,Creo que ha sido en el lenguaje 3. He recibido una videollamada y se me han desconectado los auriculares durante unos instantes.,68.0,yes
148,2024-04-22_18h58.21.570,Experiment4_uns,s185,22.0,masculino,left,España,Catalán,Bachelor degree,no,no,B,2,when,L2,unsyncopated,when,when,20,Online_whenL2//b.fe17.222.wav,te,fe,ño,sil,su,mi,ra,sil1,si,ñu,sil2,['miss'],[0.137900000095442],[0.137900000095442],0.222,no_beat,,,"[""space""]",fe,2,,,,,,,,,,,,,,,3.0,3.0,Catalán,0.0,Castellano,4.0,Inglés,6.0,4.0,2.0,yes,no,yes,Piano,6,Flauta,6,,,Creo que ha sido en el lenguaje 3. He recibido una videollamada y se me han desconectado los auriculares durante unos instantes.,68.0,yes
149,2024-04-22_18h58.21.570,Experiment4_uns,s185,22.0,masculino,left,España,Catalán,Bachelor degree,no,no,B,2,when,L2,unsyncopated,when,when,21,Online_whenL2//b.fe18.none.wav,mi,go,su,sil,ba,ra,si,sil1,cha,bi,sil2,['-'],,,none,none,,,,fe,2,,,,,,,,,,,,,,,3.0,3.0,Catalán,0.0,Castellano,4.0,Inglés,6.0,4.0,2.0,yes,no,yes,Piano,6,Flauta,6,,,Creo que ha sido en el lenguaje 3. He recibido una videollamada y se me han desconectado los auriculares durante unos instantes.,68.0,yes
150,2024-04-22_18h58.21.570,Experiment4_uns,s185,22.0,masculino,left,España,Catalán,Bachelor degree,no,no,B,2,when,L2,unsyncopated,when,when,22,Online_whenL2//b.fe19.none.wav,ño,ra,su,sil,cha,du,to,sil1,si,me,sil2,['-'],,,none,none,,,,fe,2,,,,,,,,,,,,,,,3.0,3.0,Catalán,0.0,Castellano,4.0,Inglés,6.0,4.0,2.0,yes,no,yes,Piano,6,Flauta,6,,,Creo que ha sido en el lenguaje 3. He recibido una videollamada y se me han desconectado los auriculares durante unos instantes.,68.0,yes
151,2024-04-22_18h58.21.570,Experiment4_uns,s185,22.0,masculino,left,España,Catalán,Bachelor degree,no,no,B,2,when,L2,unsyncopated,when,when,23,Online_whenL2//b.fe16.1998.wav,cha,ba,te,sil,ra,ño,si,sil1,me,fe,sil2,['miss'],,,1.998,no_beat,,,,fe,2,,,,,,,,,,,,,,,3.0,3.0,Catalán,0.0,Castellano,4.0,Inglés,6.0,4.0,2.0,yes,no,yes,Piano,6,Flauta,6,,,Creo que ha sido en el lenguaje 3. He recibido una videollamada y se me han desconectado los auriculares durante unos instantes.,68.0,yes
152,2024-04-22_18h58.21.570,Experiment4_uns,s185,22.0,masculino,left,España,Catalán,Bachelor degree,no,no,B,2,when,L2,unsyncopated,when,when,24,Online_whenL2//c.cha8.none.wav,mi,si,to,sil,ra,ba,ño,sil1,du,su,sil2,['-'],,,none,none,,,,cha,3,,,,,,,,,,,,,,,3.0,3.0,Catalán,0.0,Castellano,4.0,Inglés,6.0,4.0,2.0,yes,no,yes,Piano,6,Flauta,6,,,Creo que ha sido en el lenguaje 3. He recibido una videollamada y se me han desconectado los auriculares durante unos instantes.,68.0,yes
153,2024-04-22_18h58.21.570,Experiment4_uns,s185,22.0,masculino,left,España,Catalán,Bachelor degree,no,no,B,2,when,L2,unsyncopated,when,when,25,Online_whenL2//c.cha10.444.wav,mi,su,cha,sil,si,me,go,sil1,ra,ñu,sil2,['catch'],[1.1795999999046671],[1.1795999999046671],0.444,no_beat,0.7355999999046672,0.7355999999046672,"[""space""]",cha,3,,,,,,,,,,,,,,,3.0,3.0,Catalán,0.0,Castellano,4.0,Inglés,6.0,4.0,2.0,yes,no,yes,Piano,6,Flauta,6,,,Creo que ha sido en el lenguaje 3. He recibido una videollamada y se me han desconectado los auriculares durante unos instantes.,68.0,yes
154,2024-04-22_18h58.21.570,Experiment4_uns,s185,22.0,masculino,left,España,Catalán,Bachelor degree,no,no,B,2,when,L2,unsyncopated,when,when,26,Online_whenL2//c.cha9.none.wav,go,ba,ñu,sil,bi,fe,to,sil1,mi,ño,sil2,['-'],,,none,none,,,,cha,3,,,,,,,,,,,,,,,3.0,3.0,Catalán,0.0,Castellano,4.0,Inglés,6.0,4.0,2.0,yes,no,yes,Piano,6,Flauta,6,,,Creo que ha sido en el lenguaje 3. He recibido una videollamada y se me han desconectado los auriculares durante unos instantes.,68.0,yes
155,2024-04-22_18h58.21.570,Experiment4_uns,s185,22.0,masculino,left,España,Catalán,Bachelor degree,no,no,B,2,when,L2,unsyncopated,when,when,27,Online_whenL2//c.cha11.1998.wav,bi,te,ra,sil,si,su,ñu,sil1,go,cha,sil2,['catch_delay'],[0.8629000000954112],[0.8629000000954112],1.998,no_beat,0.8629000000954112,0.8629000000954112,,cha,3,,,,,,,,,,,,,,,3.0,3.0,Catalán,0.0,Castellano,4.0,Inglés,6.0,4.0,2.0,yes,no,yes,Piano,6,Flauta,6,,,Creo que ha sido en el lenguaje 3. He recibido una videollamada y se me han desconectado los auriculares durante unos instantes.,68.0,yes
156,2024-04-22_18h58.21.570,Experiment4_uns,s185,22.0,masculino,left,España,Catalán,Bachelor degree,no,no,B,2,when,L2,unsyncopated,when,when,28,Online_whenL2//c.cha18.1776.wav,ra,ñu,ño,sil,si,to,te,sil1,cha,du,sil2,['catch'],"[0.1969000000954111, 2.599200000047631]",[2.599200000047631],1.776,beat,0.8232000000476309,0.8232000000476309,"[""space"",""space""]",cha,3,,,,,,,,,,,,,,,3.0,3.0,Catalán,0.0,Castellano,4.0,Inglés,6.0,4.0,2.0,yes,no,yes,Piano,6,Flauta,6,,,Creo que ha sido en el lenguaje 3. He recibido una videollamada y se me han desconectado los auriculares durante unos instantes.,68.0,yes
157,2024-04-22_18h58.21.570,Experiment4_uns,s185,22.0,masculino,left,España,Catalán,Bachelor degree,no,no,B,2,when,L2,unsyncopated,when,when,29,Online_whenL2//c.cha16.none.wav,te,su,to,sil,du,ra,me,sil1,si,mi,sil2,['-'],,,none,none,,,,cha,3,,,,,,,,,,,,,,,3.0,3.0,Catalán,0.0,Castellano,4.0,Inglés,6.0,4.0,2.0,yes,no,yes,Piano,6,Flauta,6,,,Creo que ha sido en el lenguaje 3. He recibido una videollamada y se me han desconectado los auriculares durante unos instantes.,68.0,yes
158,2024-04-22_18h58.21.570,Experiment4_uns,s185,22.0,masculino,left,España,Catalán,Bachelor degree,no,no,B,2,when,L2,unsyncopated,when,when,30,Online_whenL2//c.cha17.none.wav,te,ñu,su,sil,mi,go,me,sil1,ra,si,sil2,['-'],,,none,none,,,,cha,3,,,,,,,,,,,,,,,3.0,3.0,Catalán,0.0,Castellano,4.0,Inglés,6.0,4.0,2.0,yes,no,yes,Piano,6,Flauta,6,,,Creo que ha sido en el lenguaje 3. He recibido una videollamada y se me han desconectado los auriculares durante unos instantes.,68.0,yes
159,2024-04-22_18h58.21.570,Experiment4_uns,s185,22.0,masculino,left,España,Catalán,Bachelor degree,no,no,B,2,when,L2,unsyncopated,when,when,31,Online_whenL2//c.cha19.1998.wav,go,si,du,sil,ñu,to,ba,sil1,te,cha,sil2,['catch_delay'],[0.8355999999046764],[0.8355999999046764],1.998,no_beat,0.8355999999046764,0.8355999999046764,,cha,3,,,,,,,,,,,,,,,3.0,3.0,Catalán,0.0,Castellano,4.0,Inglés,6.0,4.0,2.0,yes,no,yes,Piano,6,Flauta,6,,,Creo que ha sido en el lenguaje 3. He recibido una videollamada y se me han desconectado los auriculares durante unos instantes.,68.0,yes
160,2024-04-22_18h58.21.570,Experiment4_uns,s185,22.0,masculino,left,España,Catalán,Bachelor degree,no,no,B,2,when,L2,unsyncopated,when,when,32,Online_whenL2//b.fe6.1998.wav,du,su,ñu,sil,cha,ba,to,sil1,te,fe,sil2,['miss'],[0.16959999990467622],[0.16959999990467622],1.998,no_beat,,,"[""space""]",fe,2,,,,,,,,,,,,,,,3.0,3.0,Catalán,0.0,Castellano,4.0,Inglés,6.0,4.0,2.0,yes,no,yes,Piano,6,Flauta,6,,,Creo que ha sido en el lenguaje 3. He recibido una videollamada y se me han desconectado los auriculares durante unos instantes.,68.0,yes
161,2024-04-22_18h58.21.570,Experiment4_uns,s185,22.0,masculino,left,España,Catalán,Bachelor degree,no,no,B,2,when,L2,unsyncopated,when,when,33,Online_whenL2//b.fe7.1998.wav,ba,si,du,sil,cha,ño,bi,sil1,mi,fe,sil2,['miss'],,,1.998,no_beat,,,,fe,2,,,,,,,,,,,,,,,3.0,3.0,Catalán,0.0,Castellano,4.0,Inglés,6.0,4.0,2.0,yes,no,yes,Piano,6,Flauta,6,,,Creo que ha sido en el lenguaje 3. He recibido una videollamada y se me han desconectado los auriculares durante unos instantes.,68.0,yes
162,2024-04-22_18h58.21.570,Experiment4_uns,s185,22.0,masculino,left,España,Catalán,Bachelor degree,no,no,B,2,when,L2,unsyncopated,when,when,34,Online_whenL2//b.fe5.1332.wav,si,cha,bi,sil,ñu,su,fe,sil1,ra,te,sil2,['miss'],,,1.332,no_beat,,,,fe,2,,,,,,,,,,,,,,,3.0,3.0,Catalán,0.0,Castellano,4.0,Inglés,6.0,4.0,2.0,yes,no,yes,Piano,6,Flauta,6,,,Creo que ha sido en el lenguaje 3. He recibido una videollamada y se me han desconectado los auriculares durante unos instantes.,68.0,yes
163,2024-04-22_18h58.21.570,Experiment4_uns,s185,22.0,masculino,left,España,Catalán,Bachelor degree,no,no,B,2,when,L2,unsyncopated,when,when,35,Online_whenL2//b.fe4.0.wav,fe,ra,ño,sil,to,ba,cha,sil1,si,te,sil2,['miss'],,,0.0,beat,,,,fe,2,,,,,,,,,,,,,,,3.0,3.0,Catalán,0.0,Castellano,4.0,Inglés,6.0,4.0,2.0,yes,no,yes,Piano,6,Flauta,6,,,Creo que ha sido en el lenguaje 3. He recibido una videollamada y se me han desconectado los auriculares durante unos instantes.,68.0,yes
164,2024-04-22_18h58.21.570,Experiment4_uns,s185,22.0,masculino,left,España,Catalán,Bachelor degree,no,no,B,2,when,L2,unsyncopated,when,when,36,Online_whenL2//a.du25.444.wav,ñu,cha,du,sil,mi,su,si,sil1,go,me,sil2,['catch'],[1.3029000000954056],[1.3029000000954056],0.444,no_beat,0.8589000000954057,0.8589000000954057,"[""space""]",du,1,,,,,,,,,,,,,,,3.0,3.0,Catalán,0.0,Castellano,4.0,Inglés,6.0,4.0,2.0,yes,no,yes,Piano,6,Flauta,6,,,Creo que ha sido en el lenguaje 3. He recibido una videollamada y se me han desconectado los auriculares durante unos instantes.,68.0,yes
165,2024-04-22_18h58.21.570,Experiment4_uns,s185,22.0,masculino,left,España,Catalán,Bachelor degree,no,no,B,2,when,L2,unsyncopated,when,when,37,Online_whenL2//a.du27.none.wav,su,go,bi,sil,fe,to,ño,sil1,si,te,sil2,['-'],,,none,none,,,,du,1,,,,,,,,,,,,,,,3.0,3.0,Catalán,0.0,Castellano,4.0,Inglés,6.0,4.0,2.0,yes,no,yes,Piano,6,Flauta,6,,,Creo que ha sido en el lenguaje 3. He recibido una videollamada y se me han desconectado los auriculares durante unos instantes.,68.0,yes
166,2024-04-22_18h58.21.570,Experiment4_uns,s185,22.0,masculino,left,España,Catalán,Bachelor degree,no,no,B,2,when,L2,unsyncopated,when,when,38,Online_whenL2//a.du24.222.wav,me,du,to,sil,su,te,ra,sil1,bi,ñu,sil2,['miss'],,,0.222,no_beat,,,,du,1,,,,,,,,,,,,,,,3.0,3.0,Catalán,0.0,Castellano,4.0,Inglés,6.0,4.0,2.0,yes,no,yes,Piano,6,Flauta,6,,,Creo que ha sido en el lenguaje 3. He recibido una videollamada y se me han desconectado los auriculares durante unos instantes.,68.0,yes
167,2024-04-22_18h58.21.570,Experiment4_uns,s185,22.0,masculino,left,España,Catalán,Bachelor degree,no,no,B,2,when,L2,unsyncopated,when,when,39,Online_whenL2//a.du26.none.wav,bi,ra,te,sil,ba,si,ño,sil1,go,to,sil2,['-'],,,none,none,,,,du,1,,,,,,,,,,,,,,,3.0,3.0,Catalán,0.0,Castellano,4.0,Inglés,6.0,4.0,2.0,yes,no,yes,Piano,6,Flauta,6,,,Creo que ha sido en el lenguaje 3. He recibido una videollamada y se me han desconectado los auriculares durante unos instantes.,68.0,yes
