Unnamed: 0,date,expName,participant,age,sex,hand,residence,native_lang,education_level,lang_deficit,aud_deficit,group,block,condition,language,rhythm,rule structure online,rule type online,order_trial_on,trial_online,s1,s2,s3,s4,s5,s6,s7,s8,s9,s10,s11,catch_syll_resp,rts_syll_catch,clean_rts,time_syll,beat_no_beat,catch_rtsTR,catch_rts,syllable_catch.keys,cond_syll,syll_to_catch,test_offline,block_off,condition_off,rhythm_off,rule,rule_str_off,rule_norule,conds_offline,language_off,Partz_no_partm.keys,Partz_no_partm.rt,security_1_7.keys,accuracy,security_1_7.rt,n_lang,n_lang_used,lang_1,age_l1,lang_2,age_l2,lang_3,age_l3,ability_learn_l2,tendence_mix_lan,music_experience,muisc_use,partiture,instr_1,age_M1,preguntas_musica1,BMRQ_answer.response,final comment,BMRQ_Score,bilingual
0,2023-11-19_21h25.14.243,Unsyncopated1,s79,21.0,masculino,right,España,Catalán y Castellano,Upper secondary,no,no,B,1,when,L3,unsyncopated,when,when,0,Online_whenL3//b.ñe17.1998.wav,fu,ga,ka,sil,ji,chu,di,sil1,je,ñe,sil2,['catch'],[2.5882000000178778],[2.5882000000178778],1.998,no_beat,0.5902000000178778,0.5902000000178778,"[""space""]",ñe,2,testWhenL3Uns//dep_viol.r1.s2.0.wav,1.0,when,unsyncopated,a,s2,no_rule,dep,L3,z,1.7586,7.0,1.0,2.4246,3 ,2.0,Catalán,0.0,Castellano,0.0,Inglés,7.0,4.0,3.0,yes,yes,yes,Violín,6,1. Cuando comparto música con alguien siento una complicidad especial con aquella persona.,3.0,"Me ha resultado dificil sobretodo la tercera Tarea, reconocer si el fragmento era o no correspondiente al lenguaje. También clasificarlo del 1 al 7 mi decisión.Ha sido genial! ",55.0,yes
1,2023-11-19_21h25.14.243,Unsyncopated1,s79,21.0,masculino,right,España,Catalán y Castellano,Upper secondary,no,no,B,1,when,L3,unsyncopated,when,when,1,Online_whenL3//b.ñe18.none.wav,sa,di,chu,sil,do,fu,ko,sil1,gu,ji,sil2,['-'],,,none,none,,,,ñe,2,testWhenL3Uns//time_viol.r1.s2.0.wav,1.0,when,unsyncopated,a,s2,no_rule,time,L3,z,0.7075,7.0,1.0,1.1507,3 ,2.0,Catalán,0.0,Castellano,0.0,Inglés,7.0,4.0,3.0,yes,yes,yes,Violín,6,2. En mi tiempo libre apenas escucho música.,5.0,"Me ha resultado dificil sobretodo la tercera Tarea, reconocer si el fragmento era o no correspondiente al lenguaje. También clasificarlo del 1 al 7 mi decisión.Ha sido genial! ",55.0,yes
2,2023-11-19_21h25.14.243,Unsyncopated1,s79,21.0,masculino,right,España,Catalán y Castellano,Upper secondary,no,no,B,1,when,L3,unsyncopated,when,when,2,Online_whenL3//b.ñe19.1776.wav,ji,mo,li,sil,le,ko,fu,sil1,ñe,do,sil2,['catch'],[2.2375999999940177],[2.2375999999940177],1.776,beat,0.4615999999940177,0.4615999999940177,"[""space""]",ñe,2,testWhenL3Uns//r1.s1.1.wav,1.0,when,unsyncopated,a,s1,rule,rule,L3,z,0.6828,7.0,1.0,1.1374,3 ,2.0,Catalán,0.0,Castellano,0.0,Inglés,7.0,4.0,3.0,yes,yes,yes,Violín,6,3. Algunas canciones me ponen los pelos de punta,4.0,"Me ha resultado dificil sobretodo la tercera Tarea, reconocer si el fragmento era o no correspondiente al lenguaje. También clasificarlo del 1 al 7 mi decisión.Ha sido genial! ",55.0,yes
3,2023-11-19_21h25.14.243,Unsyncopated1,s79,21.0,masculino,right,España,Catalán y Castellano,Upper secondary,no,no,B,1,when,L3,unsyncopated,when,when,3,Online_whenL3//b.ñe16.1110.wav,do,je,li,sil,gu,ñe,sa,sil1,ji,ko,sil2,['miss'],,,1.11,no_beat,,,,ñe,2,testWhenL3Uns//cat_viol.r2.s1.0.wav,1.0,when,unsyncopated,b,s1,no_rule,cat,L3,z,0.5037,6.0,1.0,1.6227,3 ,2.0,Catalán,0.0,Castellano,0.0,Inglés,7.0,4.0,3.0,yes,yes,yes,Violín,6,4. La música me hace compañía cuando estoy solo,4.0,"Me ha resultado dificil sobretodo la tercera Tarea, reconocer si el fragmento era o no correspondiente al lenguaje. También clasificarlo del 1 al 7 mi decisión.Ha sido genial! ",55.0,yes
4,2023-11-19_21h25.14.243,Unsyncopated1,s79,21.0,masculino,right,España,Catalán y Castellano,Upper secondary,no,no,B,1,when,L3,unsyncopated,when,when,4,Online_whenL3//c.gu2.1998.wav,ji,ga,je,sil,le,ñe,di,sil1,sa,gu,sil2,['miss'],,,1.998,no_beat,,,,gu,3,testWhenL3Uns//time_viol.r1.s1.0.wav,1.0,when,unsyncopated,a,s1,no_rule,time,L3,z,0.5831,7.0,1.0,0.531,3 ,2.0,Catalán,0.0,Castellano,0.0,Inglés,7.0,4.0,3.0,yes,yes,yes,Violín,6,5. No me apetece bailar ni con la música que más me gusta,1.0,"Me ha resultado dificil sobretodo la tercera Tarea, reconocer si el fragmento era o no correspondiente al lenguaje. También clasificarlo del 1 al 7 mi decisión.Ha sido genial! ",55.0,yes
5,2023-11-19_21h25.14.243,Unsyncopated1,s79,21.0,masculino,right,España,Catalán y Castellano,Upper secondary,no,no,B,1,when,L3,unsyncopated,when,when,5,Online_whenL3//c.gu1.none.wav,sa,ka,ñe,sil,je,di,ji,sil1,ko,le,sil2,['-'],,,none,none,,,,gu,3,testWhenL3Uns//r1.s2.2.wav,1.0,when,unsyncopated,a,s2,rule,rule,L3,z,0.7284,5.0,1.0,1.3744,3 ,2.0,Catalán,0.0,Castellano,0.0,Inglés,7.0,4.0,3.0,yes,yes,yes,Violín,6,6. La música me hace conectar con la gente,3.0,"Me ha resultado dificil sobretodo la tercera Tarea, reconocer si el fragmento era o no correspondiente al lenguaje. También clasificarlo del 1 al 7 mi decisión.Ha sido genial! ",55.0,yes
6,2023-11-19_21h25.14.243,Unsyncopated1,s79,21.0,masculino,right,España,Catalán y Castellano,Upper secondary,no,no,B,1,when,L3,unsyncopated,when,when,6,Online_whenL3//c.gu0.none.wav,ko,le,ka,sil,mo,di,fu,sil1,ñe,ji,sil2,['-'],,,none,none,,,,gu,3,testWhenL3Uns//time_viol.r2.s1.0.wav,1.0,when,unsyncopated,b,s1,no_rule,time,L3,m,0.9664,5.0,0.0,1.2525,3 ,2.0,Catalán,0.0,Castellano,0.0,Inglés,7.0,4.0,3.0,yes,yes,yes,Violín,6,7. Me informo sobre la música que me gusta.,3.0,"Me ha resultado dificil sobretodo la tercera Tarea, reconocer si el fragmento era o no correspondiente al lenguaje. También clasificarlo del 1 al 7 mi decisión.Ha sido genial! ",55.0,yes
7,2023-11-19_21h25.14.243,Unsyncopated1,s79,21.0,masculino,right,España,Catalán y Castellano,Upper secondary,no,no,B,1,when,L3,unsyncopated,when,when,7,Online_whenL3//c.gu3.1110.wav,li,mo,ko,sil,je,gu,chu,sil1,fu,ka,sil2,['catch'],[1.93100000000004],[1.93100000000004],1.11,no_beat,0.8210000000000399,0.8210000000000399,"[""space""]",gu,3,testWhenL3Uns//time_viol.r2.s2.0.wav,1.0,when,unsyncopated,b,s2,no_rule,time,L3,m,0.4036,5.0,0.0,3.3032,3 ,2.0,Catalán,0.0,Castellano,0.0,Inglés,7.0,4.0,3.0,yes,yes,yes,Violín,6,8.Me emociono escuchando ciertas canciones.,3.0,"Me ha resultado dificil sobretodo la tercera Tarea, reconocer si el fragmento era o no correspondiente al lenguaje. También clasificarlo del 1 al 7 mi decisión.Ha sido genial! ",55.0,yes
8,2023-11-19_21h25.14.243,Unsyncopated1,s79,21.0,masculino,right,España,Catalán y Castellano,Upper secondary,no,no,B,1,when,L3,unsyncopated,when,when,8,Online_whenL3//b.ñe10.none.wav,ga,fu,le,sil,chu,ko,ka,sil1,mo,je,sil2,['-'],,,none,none,,,,ñe,2,testWhenL3Uns//dep_viol.r2.s1.0.wav,1.0,when,unsyncopated,b,s1,no_rule,dep,L3,z,2.4669,4.0,1.0,0.5764,3 ,2.0,Catalán,0.0,Castellano,0.0,Inglés,7.0,4.0,3.0,yes,yes,yes,Violín,6,9.La música me tranquiliza y me relaja.,4.0,"Me ha resultado dificil sobretodo la tercera Tarea, reconocer si el fragmento era o no correspondiente al lenguaje. También clasificarlo del 1 al 7 mi decisión.Ha sido genial! ",55.0,yes
9,2023-11-19_21h25.14.243,Unsyncopated1,s79,21.0,masculino,right,España,Catalán y Castellano,Upper secondary,no,no,B,1,when,L3,unsyncopated,when,when,9,Online_whenL3//b.ñe8.none.wav,le,do,ko,sil,gu,mo,fu,sil1,ji,sa,sil2,['-'],,,none,none,,,,ñe,2,testWhenL3Uns//r1.s2.1.wav,1.0,when,unsyncopated,a,s2,rule,rule,L3,m,0.52,7.0,0.0,2.0844,3 ,2.0,Catalán,0.0,Castellano,0.0,Inglés,7.0,4.0,3.0,yes,yes,yes,Violín,6,10.La música me hace bailar,0.0,"Me ha resultado dificil sobretodo la tercera Tarea, reconocer si el fragmento era o no correspondiente al lenguaje. También clasificarlo del 1 al 7 mi decisión.Ha sido genial! ",55.0,yes
10,2023-11-19_21h25.14.243,Unsyncopated1,s79,21.0,masculino,right,España,Catalán y Castellano,Upper secondary,no,no,B,1,when,L3,unsyncopated,when,when,10,Online_whenL3//b.ñe11.none.wav,ka,ji,li,sil,ko,ga,sa,sil1,mo,di,sil2,['-'],,,none,none,,,,ñe,2,testWhenL3Uns//cat_viol.r1.s2.0.wav,1.0,when,unsyncopated,a,s2,no_rule,cat,L3,z,0.4341,5.0,1.0,0.7689,3 ,2.0,Catalán,0.0,Castellano,0.0,Inglés,7.0,4.0,3.0,yes,yes,yes,Violín,6,11.Busco novedades musicales continuamente,3.0,"Me ha resultado dificil sobretodo la tercera Tarea, reconocer si el fragmento era o no correspondiente al lenguaje. También clasificarlo del 1 al 7 mi decisión.Ha sido genial! ",55.0,yes
11,2023-11-19_21h25.14.243,Unsyncopated1,s79,21.0,masculino,right,España,Catalán y Castellano,Upper secondary,no,no,B,1,when,L3,unsyncopated,when,when,11,Online_whenL3//b.ñe9.1110.wav,fu,do,ka,sil,li,ñe,chu,sil1,ko,ji,sil2,['catch'],[1.5916999999881227],[1.5916999999881227],1.11,no_beat,0.4816999999881226,0.4816999999881226,"[""space""]",ñe,2,testWhenL3Uns//dep_viol.r1.s1.0.wav,1.0,when,unsyncopated,a,s1,no_rule,dep,L3,z,0.8867,6.0,1.0,1.0595,3 ,2.0,Catalán,0.0,Castellano,0.0,Inglés,7.0,4.0,3.0,yes,yes,yes,Violín,6,12. Puedo llorar cuando escucho algunas melodías que me gustan mucho.,3.0,"Me ha resultado dificil sobretodo la tercera Tarea, reconocer si el fragmento era o no correspondiente al lenguaje. También clasificarlo del 1 al 7 mi decisión.Ha sido genial! ",55.0,yes
12,2023-11-19_21h25.14.243,Unsyncopated1,s79,21.0,masculino,right,España,Catalán y Castellano,Upper secondary,no,no,B,1,when,L3,unsyncopated,when,when,12,Online_whenL3//d.ji29.none.wav,ñe,fu,ga,sil,sa,di,ko,sil1,je,gu,sil2,['-'],,,none,none,,,,ji,4,testWhenL3Uns//r2.s1.1.wav,1.0,when,unsyncopated,b,s1,rule,rule,L3,z,0.4902,7.0,1.0,0.4835,3 ,2.0,Catalán,0.0,Castellano,0.0,Inglés,7.0,4.0,3.0,yes,yes,yes,Violín,6,13. Me gusta cantar o tocar un instrumento con más gente,2.0,"Me ha resultado dificil sobretodo la tercera Tarea, reconocer si el fragmento era o no correspondiente al lenguaje. También clasificarlo del 1 al 7 mi decisión.Ha sido genial! ",55.0,yes
13,2023-11-19_21h25.14.243,Unsyncopated1,s79,21.0,masculino,right,España,Catalán y Castellano,Upper secondary,no,no,B,1,when,L3,unsyncopated,when,when,13,Online_whenL3//d.ji30.none.wav,mo,je,do,sil,sa,fu,di,sil1,li,gu,sil2,['-'],,,none,none,,,,ji,4,testWhenL3Uns//r2.s2.1.wav,1.0,when,unsyncopated,b,s2,rule,rule,L3,z,0.3341,7.0,1.0,0.2675,3 ,2.0,Catalán,0.0,Castellano,0.0,Inglés,7.0,4.0,3.0,yes,yes,yes,Violín,6,14. La música me ayuda a desconectar.,4.0,"Me ha resultado dificil sobretodo la tercera Tarea, reconocer si el fragmento era o no correspondiente al lenguaje. También clasificarlo del 1 al 7 mi decisión.Ha sido genial! ",55.0,yes
14,2023-11-19_21h25.14.243,Unsyncopated1,s79,21.0,masculino,right,España,Catalán y Castellano,Upper secondary,no,no,B,1,when,L3,unsyncopated,when,when,14,Online_whenL3//d.ji31.none.wav,ga,ko,di,sil,li,sa,ka,sil1,gu,chu,sil2,['-'],,,none,none,,,,ji,4,testWhenL3Uns//r1.s1.2.wav,1.0,when,unsyncopated,a,s1,rule,rule,L3,z,1.2963,6.0,1.0,0.5691,3 ,2.0,Catalán,0.0,Castellano,0.0,Inglés,7.0,4.0,3.0,yes,yes,yes,Violín,6,15. No puedo evitar tararear las canciones que me gustan cuando las escucho.,2.0,"Me ha resultado dificil sobretodo la tercera Tarea, reconocer si el fragmento era o no correspondiente al lenguaje. También clasificarlo del 1 al 7 mi decisión.Ha sido genial! ",55.0,yes
15,2023-11-19_21h25.14.243,Unsyncopated1,s79,21.0,masculino,right,España,Catalán y Castellano,Upper secondary,no,no,B,1,when,L3,unsyncopated,when,when,15,Online_whenL3//d.ji28.888.wav,di,mo,do,sil,ji,chu,je,sil1,ka,ko,sil2,['miss'],,,0.888,beat,,,,ji,4,testWhenL3Uns//r2.s1.0.wav,1.0,when,unsyncopated,b,s1,rule,rule,L3,z,0.4882,5.0,1.0,0.6003,3 ,2.0,Catalán,0.0,Castellano,0.0,Inglés,7.0,4.0,3.0,yes,yes,yes,Violín,6,16. En los conciertos me siento en sintonía con los artistas y el público.,3.0,"Me ha resultado dificil sobretodo la tercera Tarea, reconocer si el fragmento era o no correspondiente al lenguaje. También clasificarlo del 1 al 7 mi decisión.Ha sido genial! ",55.0,yes
16,2023-11-19_21h25.14.243,Unsyncopated1,s79,21.0,masculino,right,España,Catalán y Castellano,Upper secondary,no,no,B,1,when,L3,unsyncopated,when,when,16,Online_whenL3//b.ñe7.1998.wav,ji,je,sa,sil,ka,ga,di,sil1,gu,ñe,sil2,['catch_delay'],[0.8044000000059588],[0.8044000000059588],1.998,no_beat,0.8044000000059588,0.8044000000059588,,ñe,2,testWhenL3Uns//cat_viol.r2.s2.0.wav,1.0,when,unsyncopated,b,s2,no_rule,cat,L3,m,0.2248,6.0,0.0,1.2336,3 ,2.0,Catalán,0.0,Castellano,0.0,Inglés,7.0,4.0,3.0,yes,yes,yes,Violín,6,17. Me gasto bastante dinero en música y cosas relacionadas con la música.,2.0,"Me ha resultado dificil sobretodo la tercera Tarea, reconocer si el fragmento era o no correspondiente al lenguaje. También clasificarlo del 1 al 7 mi decisión.Ha sido genial! ",55.0,yes
17,2023-11-19_21h25.14.243,Unsyncopated1,s79,21.0,masculino,right,España,Catalán y Castellano,Upper secondary,no,no,B,1,when,L3,unsyncopated,when,when,17,Online_whenL3//b.ñe6.444.wav,ga,ka,ñe,sil,mo,ji,li,sil1,do,fu,sil2,['miss'],[0.13840000000595865],[0.13840000000595865],0.444,no_beat,,,"[""space""]",ñe,2,testWhenL3Uns//dep_viol.r2.s2.0.wav,1.0,when,unsyncopated,b,s2,no_rule,dep,L3,m,0.3767,6.0,0.0,1.1119,3 ,2.0,Catalán,0.0,Castellano,0.0,Inglés,7.0,4.0,3.0,yes,yes,yes,Violín,6,18. Siento escalofríos cuando escucho una melodía que me gusta.,2.0,"Me ha resultado dificil sobretodo la tercera Tarea, reconocer si el fragmento era o no correspondiente al lenguaje. También clasificarlo del 1 al 7 mi decisión.Ha sido genial! ",55.0,yes
18,2023-11-19_21h25.14.243,Unsyncopated1,s79,21.0,masculino,right,España,Catalán y Castellano,Upper secondary,no,no,B,1,when,L3,unsyncopated,when,when,18,Online_whenL3//b.ñe4.1998.wav,ka,di,ga,sil,ko,gu,je,sil1,mo,ñe,sil2,['catch'],[2.623299999982123],[2.623299999982123],1.998,no_beat,0.6252999999821232,0.6252999999821232,"[""space""]",ñe,2,testWhenL3Uns//r1.s2.0.wav,1.0,when,unsyncopated,a,s2,rule,rule,L3,z,3.2713,2.0,1.0,0.8355,3 ,2.0,Catalán,0.0,Castellano,0.0,Inglés,7.0,4.0,3.0,yes,yes,yes,Violín,6,19. Con la música me puedo desahogar.,4.0,"Me ha resultado dificil sobretodo la tercera Tarea, reconocer si el fragmento era o no correspondiente al lenguaje. También clasificarlo del 1 al 7 mi decisión.Ha sido genial! ",55.0,yes
19,2023-11-19_21h25.14.243,Unsyncopated1,s79,21.0,masculino,right,España,Catalán y Castellano,Upper secondary,no,no,B,1,when,L3,unsyncopated,when,when,19,Online_whenL3//b.ñe5.1110.wav,li,ko,je,sil,fu,ñe,gu,sil1,ga,sa,sil2,['catch'],[1.8700999999940677],[1.8700999999940677],1.11,no_beat,0.7600999999940676,0.7600999999940676,"[""space""]",ñe,2,testWhenL3Uns//r2.s2.0.wav,1.0,when,unsyncopated,b,s2,rule,rule,L3,z,0.7201,7.0,1.0,0.5023,3 ,2.0,Catalán,0.0,Castellano,0.0,Inglés,7.0,4.0,3.0,yes,yes,yes,Violín,6,20. Cuando escucho una melodía que me gusta mucho no puedo evitar mover el cuerpo.,0.0,"Me ha resultado dificil sobretodo la tercera Tarea, reconocer si el fragmento era o no correspondiente al lenguaje. También clasificarlo del 1 al 7 mi decisión.Ha sido genial! ",55.0,yes
20,2023-11-19_21h25.14.243,Unsyncopated1,s79,21.0,masculino,right,España,Catalán y Castellano,Upper secondary,no,no,B,1,when,L3,unsyncopated,when,when,20,Online_whenL3//d.ji9.1776.wav,chu,ñe,li,sil,ga,di,gu,sil1,ji,fu,sil2,['miss'],,,1.776,beat,,,,ji,4,testWhenL3Uns//cat_viol.r1.s1.0.wav,1.0,when,unsyncopated,a,s1,no_rule,cat,L3,z,0.4216,7.0,1.0,0.6336,3 ,2.0,Catalán,0.0,Castellano,0.0,Inglés,7.0,4.0,3.0,yes,yes,yes,Violín,6,,,"Me ha resultado dificil sobretodo la tercera Tarea, reconocer si el fragmento era o no correspondiente al lenguaje. También clasificarlo del 1 al 7 mi decisión.Ha sido genial! ",55.0,yes
21,2023-11-19_21h25.14.243,Unsyncopated1,s79,21.0,masculino,right,España,Catalán y Castellano,Upper secondary,no,no,B,1,when,L3,unsyncopated,when,when,21,Online_whenL3//d.ji11.none.wav,ñe,je,fu,sil,mo,ka,li,sil1,ko,gu,sil2,['false alarm'],[1.7703000000119573],[1.7703000000119573],none,none,,,"[""space""]",ji,4,testWhenL3Uns//r2.s1.2.wav,1.0,when,unsyncopated,b,s1,rule,rule,L3,z,0.6395,6.0,1.0,0.9236,3 ,2.0,Catalán,0.0,Castellano,0.0,Inglés,7.0,4.0,3.0,yes,yes,yes,Violín,6,,,"Me ha resultado dificil sobretodo la tercera Tarea, reconocer si el fragmento era o no correspondiente al lenguaje. También clasificarlo del 1 al 7 mi decisión.Ha sido genial! ",55.0,yes
22,2023-11-19_21h25.14.243,Unsyncopated1,s79,21.0,masculino,right,España,Catalán y Castellano,Upper secondary,no,no,B,1,when,L3,unsyncopated,when,when,22,Online_whenL3//d.ji10.444.wav,do,ga,ji,sil,di,sa,chu,sil1,ka,ko,sil2,['catch'],[0.8195999999940113],[0.8195999999940113],0.444,no_beat,0.3755999999940113,0.3755999999940113,"[""space""]",ji,4,testWhenL3Uns//r1.s1.0.wav,1.0,when,unsyncopated,a,s1,rule,rule,L3,z,0.2703,7.0,1.0,0.2612,3 ,2.0,Catalán,0.0,Castellano,0.0,Inglés,7.0,4.0,3.0,yes,yes,yes,Violín,6,,,"Me ha resultado dificil sobretodo la tercera Tarea, reconocer si el fragmento era o no correspondiente al lenguaje. También clasificarlo del 1 al 7 mi decisión.Ha sido genial! ",55.0,yes
23,2023-11-19_21h25.14.243,Unsyncopated1,s79,21.0,masculino,right,España,Catalán y Castellano,Upper secondary,no,no,B,1,when,L3,unsyncopated,when,when,23,Online_whenL3//d.ji8.none.wav,je,ko,ñe,sil,chu,ga,do,sil1,li,gu,sil2,['-'],,,none,none,,,,ji,4,testWhenL3Uns//r2.s2.2.wav,1.0,when,unsyncopated,b,s2,rule,rule,L3,z,0.7771,5.0,1.0,0.433,3 ,2.0,Catalán,0.0,Castellano,0.0,Inglés,7.0,4.0,3.0,yes,yes,yes,Violín,6,,,"Me ha resultado dificil sobretodo la tercera Tarea, reconocer si el fragmento era o no correspondiente al lenguaje. También clasificarlo del 1 al 7 mi decisión.Ha sido genial! ",55.0,yes
24,2023-11-19_21h25.14.243,Unsyncopated1,s79,21.0,masculino,right,España,Catalán y Castellano,Upper secondary,no,no,B,1,when,L3,unsyncopated,when,when,24,Online_whenL3//a.mo1.888.wav,do,ka,fu,sil,mo,ñe,le,sil1,ko,ji,sil2,['catch'],[1.4258999999761954],[1.4258999999761954],0.888,beat,0.5378999999761954,0.5378999999761954,"[""space""]",mo,1,testConjL1Uns//r1.s1.1.wav,2.0,conjunction_un,unsyncopated,a,s1,rule,rule,L1,z,0.4844,6.0,1.0,1.1258,3 ,2.0,Catalán,0.0,Castellano,0.0,Inglés,7.0,4.0,3.0,yes,yes,yes,Violín,6,,,"Me ha resultado dificil sobretodo la tercera Tarea, reconocer si el fragmento era o no correspondiente al lenguaje. También clasificarlo del 1 al 7 mi decisión.Ha sido genial! ",55.0,yes
25,2023-11-19_21h25.14.243,Unsyncopated1,s79,21.0,masculino,right,España,Catalán y Castellano,Upper secondary,no,no,B,1,when,L3,unsyncopated,when,when,25,Online_whenL3//a.mo2.none.wav,ko,li,ji,sil,je,sa,ñe,sil1,gu,ka,sil2,['-'],,,none,none,,,,mo,1,testConjL1Uns//r2.s2.2.wav,2.0,conjunction_un,unsyncopated,b,s2,rule,rule,L1,m,0.7219,6.0,0.0,1.0571,3 ,2.0,Catalán,0.0,Castellano,0.0,Inglés,7.0,4.0,3.0,yes,yes,yes,Violín,6,,,"Me ha resultado dificil sobretodo la tercera Tarea, reconocer si el fragmento era o no correspondiente al lenguaje. También clasificarlo del 1 al 7 mi decisión.Ha sido genial! ",55.0,yes
26,2023-11-19_21h25.14.243,Unsyncopated1,s79,21.0,masculino,right,España,Catalán y Castellano,Upper secondary,no,no,B,1,when,L3,unsyncopated,when,when,26,Online_whenL3//a.mo3.none.wav,chu,sa,gu,sil,ka,le,je,sil1,ga,di,sil2,['-'],,,none,none,,,,mo,1,testConjL1Uns//r2.s1.0.wav,2.0,conjunction_un,unsyncopated,b,s1,rule,rule,L1,z,0.525,6.0,1.0,1.1222,3 ,2.0,Catalán,0.0,Castellano,0.0,Inglés,7.0,4.0,3.0,yes,yes,yes,Violín,6,,,"Me ha resultado dificil sobretodo la tercera Tarea, reconocer si el fragmento era o no correspondiente al lenguaje. También clasificarlo del 1 al 7 mi decisión.Ha sido genial! ",55.0,yes
27,2023-11-19_21h25.14.243,Unsyncopated1,s79,21.0,masculino,right,España,Catalán y Castellano,Upper secondary,no,no,B,1,when,L3,unsyncopated,when,when,27,Online_whenL3//a.mo0.222.wav,do,mo,fu,sil,le,ji,gu,sil1,ka,ñe,sil2,['catch'],[0.6213000000119564],[0.6213000000119564],0.222,no_beat,0.3993000000119564,0.3993000000119564,"[""space""]",mo,1,testConjL1Uns//time_viol.r2.s1.0.wav,2.0,conjunction_un,unsyncopated,b,s1,no_rule,time,L1,m,0.3915,7.0,1.0,0.7347,3 ,2.0,Catalán,0.0,Castellano,0.0,Inglés,7.0,4.0,3.0,yes,yes,yes,Violín,6,,,"Me ha resultado dificil sobretodo la tercera Tarea, reconocer si el fragmento era o no correspondiente al lenguaje. También clasificarlo del 1 al 7 mi decisión.Ha sido genial! ",55.0,yes
28,2023-11-19_21h25.14.243,Unsyncopated1,s79,21.0,masculino,right,España,Catalán y Castellano,Upper secondary,no,no,B,1,when,L3,unsyncopated,when,when,28,Online_whenL3//c.gu14.444.wav,ka,le,gu,sil,chu,mo,do,sil1,fu,ji,sil2,['catch'],[0.8647999999820968],[0.8647999999820968],0.444,no_beat,0.4207999999820968,0.4207999999820968,"[""space""]",gu,3,testConjL1Uns//r1.s1.2.wav,2.0,conjunction_un,unsyncopated,a,s1,rule,rule,L1,m,0.2522,7.0,0.0,0.7115,3 ,2.0,Catalán,0.0,Castellano,0.0,Inglés,7.0,4.0,3.0,yes,yes,yes,Violín,6,,,"Me ha resultado dificil sobretodo la tercera Tarea, reconocer si el fragmento era o no correspondiente al lenguaje. También clasificarlo del 1 al 7 mi decisión.Ha sido genial! ",55.0,yes
29,2023-11-19_21h25.14.243,Unsyncopated1,s79,21.0,masculino,right,España,Catalán y Castellano,Upper secondary,no,no,B,1,when,L3,unsyncopated,when,when,29,Online_whenL3//c.gu13.none.wav,ñe,ko,chu,sil,di,je,fu,sil1,do,le,sil2,['-'],,,none,none,,,,gu,3,testConjL1Uns//r1.s1.0.wav,2.0,conjunction_un,unsyncopated,a,s1,rule,rule,L1,z,0.9834,7.0,1.0,0.4681,3 ,2.0,Catalán,0.0,Castellano,0.0,Inglés,7.0,4.0,3.0,yes,yes,yes,Violín,6,,,"Me ha resultado dificil sobretodo la tercera Tarea, reconocer si el fragmento era o no correspondiente al lenguaje. También clasificarlo del 1 al 7 mi decisión.Ha sido genial! ",55.0,yes
30,2023-11-19_21h25.14.243,Unsyncopated1,s79,21.0,masculino,right,España,Catalán y Castellano,Upper secondary,no,no,B,1,when,L3,unsyncopated,when,when,30,Online_whenL3//c.gu12.0.wav,gu,sa,ji,sil,je,ko,do,sil1,le,chu,sil2,['catch'],[0.5036999999881573],[0.5036999999881573],0.0,beat,0.5036999999881573,0.5036999999881573,"[""space""]",gu,3,testConjL1Uns//cat_viol.r2.s1.0.wav,2.0,conjunction_un,unsyncopated,b,s1,no_rule,cat,L1,m,0.6188,7.0,1.0,0.9282,3 ,2.0,Catalán,0.0,Castellano,0.0,Inglés,7.0,4.0,3.0,yes,yes,yes,Violín,6,,,"Me ha resultado dificil sobretodo la tercera Tarea, reconocer si el fragmento era o no correspondiente al lenguaje. También clasificarlo del 1 al 7 mi decisión.Ha sido genial! ",55.0,yes
31,2023-11-19_21h25.14.243,Unsyncopated1,s79,21.0,masculino,right,España,Catalán y Castellano,Upper secondary,no,no,B,1,when,L3,unsyncopated,when,when,31,Online_whenL3//c.gu15.none.wav,je,chu,li,sil,mo,ko,di,sil1,ji,do,sil2,['-'],,,none,none,,,,gu,3,testConjL1Uns//r1.s2.2.wav,2.0,conjunction_un,unsyncopated,a,s2,rule,rule,L1,z,1.0682,4.0,1.0,2.2302,3 ,2.0,Catalán,0.0,Castellano,0.0,Inglés,7.0,4.0,3.0,yes,yes,yes,Violín,6,,,"Me ha resultado dificil sobretodo la tercera Tarea, reconocer si el fragmento era o no correspondiente al lenguaje. También clasificarlo del 1 al 7 mi decisión.Ha sido genial! ",55.0,yes
32,2023-11-19_21h25.14.243,Unsyncopated1,s79,21.0,masculino,right,España,Catalán y Castellano,Upper secondary,no,no,B,1,when,L3,unsyncopated,when,when,32,Online_whenL3//b.ñe26.none.wav,ko,mo,ji,sil,di,le,sa,sil1,fu,ka,sil2,['-'],,,none,none,,,,ñe,2,testConjL1Uns//dep_viol.r1.s1.0.wav,2.0,conjunction_un,unsyncopated,a,s1,no_rule,dep,L1,m,0.4743,7.0,1.0,0.4513,3 ,2.0,Catalán,0.0,Castellano,0.0,Inglés,7.0,4.0,3.0,yes,yes,yes,Violín,6,,,"Me ha resultado dificil sobretodo la tercera Tarea, reconocer si el fragmento era o no correspondiente al lenguaje. También clasificarlo del 1 al 7 mi decisión.Ha sido genial! ",55.0,yes
33,2023-11-19_21h25.14.243,Unsyncopated1,s79,21.0,masculino,right,España,Catalán y Castellano,Upper secondary,no,no,B,1,when,L3,unsyncopated,when,when,33,Online_whenL3//b.ñe24.none.wav,sa,je,ga,sil,mo,fu,ji,sil1,di,gu,sil2,['-'],,,none,none,,,,ñe,2,testConjL1Uns//dep_viol.r2.s2.0.wav,2.0,conjunction_un,unsyncopated,b,s2,no_rule,dep,L1,z,0.4096,6.0,0.0,3.0426,3 ,2.0,Catalán,0.0,Castellano,0.0,Inglés,7.0,4.0,3.0,yes,yes,yes,Violín,6,,,"Me ha resultado dificil sobretodo la tercera Tarea, reconocer si el fragmento era o no correspondiente al lenguaje. También clasificarlo del 1 al 7 mi decisión.Ha sido genial! ",55.0,yes
34,2023-11-19_21h25.14.243,Unsyncopated1,s79,21.0,masculino,right,España,Catalán y Castellano,Upper secondary,no,no,B,1,when,L3,unsyncopated,when,when,34,Online_whenL3//b.ñe25.222.wav,je,ñe,ji,sil,ko,gu,fu,sil1,li,mo,sil2,['catch'],[0.6757999999821322],[0.6757999999821322],0.222,no_beat,0.4537999999821323,0.4537999999821323,"[""space""]",ñe,2,testConjL1Uns//r1.s2.1.wav,2.0,conjunction_un,unsyncopated,a,s2,rule,rule,L1,z,0.9333,5.0,1.0,0.4531,3 ,2.0,Catalán,0.0,Castellano,0.0,Inglés,7.0,4.0,3.0,yes,yes,yes,Violín,6,,,"Me ha resultado dificil sobretodo la tercera Tarea, reconocer si el fragmento era o no correspondiente al lenguaje. También clasificarlo del 1 al 7 mi decisión.Ha sido genial! ",55.0,yes
35,2023-11-19_21h25.14.243,Unsyncopated1,s79,21.0,masculino,right,España,Catalán y Castellano,Upper secondary,no,no,B,1,when,L3,unsyncopated,when,when,35,Online_whenL3//b.ñe27.none.wav,di,ko,do,sil,fu,chu,ji,sil1,ka,sa,sil2,['-'],,,none,none,,,,ñe,2,testConjL1Uns//r2.s2.1.wav,2.0,conjunction_un,unsyncopated,b,s2,rule,rule,L1,z,0.339,7.0,1.0,0.442,3 ,2.0,Catalán,0.0,Castellano,0.0,Inglés,7.0,4.0,3.0,yes,yes,yes,Violín,6,,,"Me ha resultado dificil sobretodo la tercera Tarea, reconocer si el fragmento era o no correspondiente al lenguaje. También clasificarlo del 1 al 7 mi decisión.Ha sido genial! ",55.0,yes
36,2023-11-19_21h25.14.243,Unsyncopated1,s79,21.0,masculino,right,España,Catalán y Castellano,Upper secondary,no,no,B,1,when,L3,unsyncopated,when,when,36,Online_whenL3//c.gu16.1332.wav,do,ji,ñe,sil,ka,ga,gu,sil1,mo,di,sil2,['catch'],[1.731199999988121],[1.731199999988121],1.332,no_beat,0.3991999999881208,0.3991999999881208,"[""space""]",gu,3,testConjL1Uns//r2.s2.0.wav,2.0,conjunction_un,unsyncopated,b,s2,rule,rule,L1,z,0.3195,7.0,1.0,0.2996,3 ,2.0,Catalán,0.0,Castellano,0.0,Inglés,7.0,4.0,3.0,yes,yes,yes,Violín,6,,,"Me ha resultado dificil sobretodo la tercera Tarea, reconocer si el fragmento era o no correspondiente al lenguaje. También clasificarlo del 1 al 7 mi decisión.Ha sido genial! ",55.0,yes
37,2023-11-19_21h25.14.243,Unsyncopated1,s79,21.0,masculino,right,España,Catalán y Castellano,Upper secondary,no,no,B,1,when,L3,unsyncopated,when,when,37,Online_whenL3//c.gu19.1998.wav,ka,sa,je,sil,chu,do,ji,sil1,le,gu,sil2,['catch'],[2.5369000000059714],[2.5369000000059714],1.998,no_beat,0.5389000000059714,0.5389000000059714,"[""space""]",gu,3,testConjL1Uns//cat_viol.r1.s1.0.wav,2.0,conjunction_un,unsyncopated,a,s1,no_rule,cat,L1,z,0.3653,6.0,0.0,0.8452,3 ,2.0,Catalán,0.0,Castellano,0.0,Inglés,7.0,4.0,3.0,yes,yes,yes,Violín,6,,,"Me ha resultado dificil sobretodo la tercera Tarea, reconocer si el fragmento era o no correspondiente al lenguaje. También clasificarlo del 1 al 7 mi decisión.Ha sido genial! ",55.0,yes
38,2023-11-19_21h25.14.243,Unsyncopated1,s79,21.0,masculino,right,España,Catalán y Castellano,Upper secondary,no,no,B,1,when,L3,unsyncopated,when,when,38,Online_whenL3//c.gu17.none.wav,ga,ji,le,sil,sa,ka,chu,sil1,do,je,sil2,['-'],,,none,none,,,,gu,3,testConjL1Uns//cat_viol.r2.s2.0.wav,2.0,conjunction_un,unsyncopated,b,s2,no_rule,cat,L1,m,0.3532,5.0,1.0,0.9555,3 ,2.0,Catalán,0.0,Castellano,0.0,Inglés,7.0,4.0,3.0,yes,yes,yes,Violín,6,,,"Me ha resultado dificil sobretodo la tercera Tarea, reconocer si el fragmento era o no correspondiente al lenguaje. También clasificarlo del 1 al 7 mi decisión.Ha sido genial! ",55.0,yes
39,2023-11-19_21h25.14.243,Unsyncopated1,s79,21.0,masculino,right,España,Catalán y Castellano,Upper secondary,no,no,B,1,when,L3,unsyncopated,when,when,39,Online_whenL3//c.gu18.444.wav,di,ko,gu,sil,chu,sa,ka,sil1,li,do,sil2,['catch'],[0.8229999999999791],[0.8229999999999791],0.444,no_beat,0.3789999999999791,0.3789999999999791,"[""space""]",gu,3,testConjL1Uns//time_viol.r1.s2.0.wav,2.0,conjunction_un,unsyncopated,a,s2,no_rule,time,L1,m,0.3216,7.0,1.0,0.4181,3 ,2.0,Catalán,0.0,Castellano,0.0,Inglés,7.0,4.0,3.0,yes,yes,yes,Violín,6,,,"Me ha resultado dificil sobretodo la tercera Tarea, reconocer si el fragmento era o no correspondiente al lenguaje. También clasificarlo del 1 al 7 mi decisión.Ha sido genial! ",55.0,yes
40,2023-11-19_21h25.14.243,Unsyncopated1,s79,21.0,masculino,right,España,Catalán y Castellano,Upper secondary,no,no,B,1,when,L3,unsyncopated,when,when,40,Online_whenL3//a.mo27.888.wav,fu,le,ka,sil,mo,ko,gu,sil1,chu,di,sil2,['catch'],[1.42269999998814],[1.42269999998814],0.888,beat,0.53469999998814,0.53469999998814,"[""space""]",mo,1,testConjL1Uns//time_viol.r1.s1.0.wav,2.0,conjunction_un,unsyncopated,a,s1,no_rule,time,L1,z,1.3852,6.0,0.0,0.7178,3 ,2.0,Catalán,0.0,Castellano,0.0,Inglés,7.0,4.0,3.0,yes,yes,yes,Violín,6,,,"Me ha resultado dificil sobretodo la tercera Tarea, reconocer si el fragmento era o no correspondiente al lenguaje. También clasificarlo del 1 al 7 mi decisión.Ha sido genial! ",55.0,yes
41,2023-11-19_21h25.14.243,Unsyncopated1,s79,21.0,masculino,right,España,Catalán y Castellano,Upper secondary,no,no,B,1,when,L3,unsyncopated,when,when,41,Online_whenL3//a.mo24.1998.wav,ji,le,do,sil,li,chu,fu,sil1,gu,mo,sil2,['catch'],[2.5217000000178587],[2.5217000000178587],1.998,no_beat,0.5237000000178587,0.5237000000178587,"[""space""]",mo,1,testConjL1Uns//time_viol.r2.s2.0.wav,2.0,conjunction_un,unsyncopated,b,s2,no_rule,time,L1,z,0.3696,7.0,0.0,0.3708,3 ,2.0,Catalán,0.0,Castellano,0.0,Inglés,7.0,4.0,3.0,yes,yes,yes,Violín,6,,,"Me ha resultado dificil sobretodo la tercera Tarea, reconocer si el fragmento era o no correspondiente al lenguaje. También clasificarlo del 1 al 7 mi decisión.Ha sido genial! ",55.0,yes
42,2023-11-19_21h25.14.243,Unsyncopated1,s79,21.0,masculino,right,España,Catalán y Castellano,Upper secondary,no,no,B,1,when,L3,unsyncopated,when,when,42,Online_whenL3//a.mo26.none.wav,di,li,ka,sil,chu,ji,je,sil1,do,ñe,sil2,['-'],,,none,none,,,,mo,1,testConjL1Uns//r2.s1.2.wav,2.0,conjunction_un,unsyncopated,b,s1,rule,rule,L1,m,0.2782,7.0,0.0,0.642,3 ,2.0,Catalán,0.0,Castellano,0.0,Inglés,7.0,4.0,3.0,yes,yes,yes,Violín,6,,,"Me ha resultado dificil sobretodo la tercera Tarea, reconocer si el fragmento era o no correspondiente al lenguaje. También clasificarlo del 1 al 7 mi decisión.Ha sido genial! ",55.0,yes
43,2023-11-19_21h25.14.243,Unsyncopated1,s79,21.0,masculino,right,España,Catalán y Castellano,Upper secondary,no,no,B,1,when,L3,unsyncopated,when,when,43,Online_whenL3//a.mo25.none.wav,sa,ji,ga,sil,do,ñe,je,sil1,di,ka,sil2,['-'],,,none,none,,,,mo,1,testConjL1Uns//dep_viol.r2.s1.0.wav,2.0,conjunction_un,unsyncopated,b,s1,no_rule,dep,L1,m,0.2723,7.0,1.0,0.6007,3 ,2.0,Catalán,0.0,Castellano,0.0,Inglés,7.0,4.0,3.0,yes,yes,yes,Violín,6,,,"Me ha resultado dificil sobretodo la tercera Tarea, reconocer si el fragmento era o no correspondiente al lenguaje. También clasificarlo del 1 al 7 mi decisión.Ha sido genial! ",55.0,yes
44,2023-11-19_21h25.14.243,Unsyncopated1,s79,21.0,masculino,right,España,Catalán y Castellano,Upper secondary,no,no,B,1,when,L3,unsyncopated,when,when,44,Online_whenL3//b.ñe30.none.wav,ka,di,mo,sil,ko,chu,je,sil1,fu,gu,sil2,['-'],,,none,none,,,,ñe,2,testConjL1Uns//cat_viol.r1.s2.0.wav,2.0,conjunction_un,unsyncopated,a,s2,no_rule,cat,L1,z,1.8088,4.0,0.0,0.6733,3 ,2.0,Catalán,0.0,Castellano,0.0,Inglés,7.0,4.0,3.0,yes,yes,yes,Violín,6,,,"Me ha resultado dificil sobretodo la tercera Tarea, reconocer si el fragmento era o no correspondiente al lenguaje. También clasificarlo del 1 al 7 mi decisión.Ha sido genial! ",55.0,yes
45,2023-11-19_21h25.14.243,Unsyncopated1,s79,21.0,masculino,right,España,Catalán y Castellano,Upper secondary,no,no,B,1,when,L3,unsyncopated,when,when,45,Online_whenL3//b.ñe31.none.wav,chu,je,do,sil,le,ka,sa,sil1,li,ga,sil2,['-'],,,none,none,,,,ñe,2,testConjL1Uns//r1.s2.0.wav,2.0,conjunction_un,unsyncopated,a,s2,rule,rule,L1,m,0.3354,5.0,0.0,0.7356,3 ,2.0,Catalán,0.0,Castellano,0.0,Inglés,7.0,4.0,3.0,yes,yes,yes,Violín,6,,,"Me ha resultado dificil sobretodo la tercera Tarea, reconocer si el fragmento era o no correspondiente al lenguaje. También clasificarlo del 1 al 7 mi decisión.Ha sido genial! ",55.0,yes
46,2023-11-19_21h25.14.243,Unsyncopated1,s79,21.0,masculino,right,España,Catalán y Castellano,Upper secondary,no,no,B,1,when,L3,unsyncopated,when,when,46,Online_whenL3//b.ñe28.none.wav,fu,je,chu,sil,sa,le,ga,sil1,li,ka,sil2,['-'],,,none,none,,,,ñe,2,testConjL1Uns//r2.s1.1.wav,2.0,conjunction_un,unsyncopated,b,s1,rule,rule,L1,m,0.2685,6.0,0.0,0.92,3 ,2.0,Catalán,0.0,Castellano,0.0,Inglés,7.0,4.0,3.0,yes,yes,yes,Violín,6,,,"Me ha resultado dificil sobretodo la tercera Tarea, reconocer si el fragmento era o no correspondiente al lenguaje. También clasificarlo del 1 al 7 mi decisión.Ha sido genial! ",55.0,yes
47,2023-11-19_21h25.14.243,Unsyncopated1,s79,21.0,masculino,right,España,Catalán y Castellano,Upper secondary,no,no,B,1,when,L3,unsyncopated,when,when,47,Online_whenL3//b.ñe29.0.wav,ñe,gu,ga,sil,ko,li,le,sil1,ka,sa,sil2,['catch'],[0.5130000000000337],[0.5130000000000337],0.0,beat,0.5130000000000337,0.5130000000000337,"[""space""]",ñe,2,testConjL1Uns//dep_viol.r1.s2.0.wav,2.0,conjunction_un,unsyncopated,a,s2,no_rule,dep,L1,z,1.4337,4.0,0.0,0.5853,3 ,2.0,Catalán,0.0,Castellano,0.0,Inglés,7.0,4.0,3.0,yes,yes,yes,Violín,6,,,"Me ha resultado dificil sobretodo la tercera Tarea, reconocer si el fragmento era o no correspondiente al lenguaje. También clasificarlo del 1 al 7 mi decisión.Ha sido genial! ",55.0,yes
48,2023-11-19_21h25.14.243,Unsyncopated1,s79,21.0,masculino,right,España,Catalán y Castellano,Upper secondary,no,no,B,1,when,L3,unsyncopated,when,when,48,Online_whenL3//c.gu25.222.wav,chu,gu,ko,sil,fu,ga,li,sil1,di,ñe,sil2,['miss'],,,0.222,no_beat,,,,gu,3,testWhatL2Uns//r1.s2.0.wav,3.0,what,unsyncopated,a,s2,rule,rule,L2,z,0.3748,6.0,1.0,1.2595,3 ,2.0,Catalán,0.0,Castellano,0.0,Inglés,7.0,4.0,3.0,yes,yes,yes,Violín,6,,,"Me ha resultado dificil sobretodo la tercera Tarea, reconocer si el fragmento era o no correspondiente al lenguaje. También clasificarlo del 1 al 7 mi decisión.Ha sido genial! ",55.0,yes
49,2023-11-19_21h25.14.243,Unsyncopated1,s79,21.0,masculino,right,España,Catalán y Castellano,Upper secondary,no,no,B,1,when,L3,unsyncopated,when,when,49,Online_whenL3//c.gu24.1110.wav,ñe,ko,ji,sil,li,gu,le,sil1,chu,ga,sil2,['miss'],,,1.11,no_beat,,,,gu,3,testWhatL2Uns//r2.s2.1.wav,3.0,what,unsyncopated,b,s2,rule,rule,L2,z,0.3411,5.0,1.0,0.7689,3 ,2.0,Catalán,0.0,Castellano,0.0,Inglés,7.0,4.0,3.0,yes,yes,yes,Violín,6,,,"Me ha resultado dificil sobretodo la tercera Tarea, reconocer si el fragmento era o no correspondiente al lenguaje. También clasificarlo del 1 al 7 mi decisión.Ha sido genial! ",55.0,yes
50,2023-11-19_21h25.14.243,Unsyncopated1,s79,21.0,masculino,right,España,Catalán y Castellano,Upper secondary,no,no,B,1,when,L3,unsyncopated,when,when,50,Online_whenL3//c.gu26.none.wav,sa,ji,li,sil,le,di,ga,sil1,chu,fu,sil2,['-'],,,none,none,,,,gu,3,testWhatL2Uns//r1.s1.0.wav,3.0,what,unsyncopated,a,s1,rule,rule,L2,z,0.2842,7.0,1.0,0.5192,3 ,2.0,Catalán,0.0,Castellano,0.0,Inglés,7.0,4.0,3.0,yes,yes,yes,Violín,6,,,"Me ha resultado dificil sobretodo la tercera Tarea, reconocer si el fragmento era o no correspondiente al lenguaje. También clasificarlo del 1 al 7 mi decisión.Ha sido genial! ",55.0,yes
51,2023-11-19_21h25.14.243,Unsyncopated1,s79,21.0,masculino,right,España,Catalán y Castellano,Upper secondary,no,no,B,1,when,L3,unsyncopated,when,when,51,Online_whenL3//c.gu27.none.wav,li,je,ko,sil,ji,fu,mo,sil1,ñe,di,sil2,['-'],,,none,none,,,,gu,3,testWhatL2Uns//dep_viol.r1.s2.0.wav,3.0,what,unsyncopated,a,s2,no_rule,dep,L2,z,0.3917,5.0,0.0,0.5203,3 ,2.0,Catalán,0.0,Castellano,0.0,Inglés,7.0,4.0,3.0,yes,yes,yes,Violín,6,,,"Me ha resultado dificil sobretodo la tercera Tarea, reconocer si el fragmento era o no correspondiente al lenguaje. También clasificarlo del 1 al 7 mi decisión.Ha sido genial! ",55.0,yes
52,2023-11-19_21h25.14.243,Unsyncopated1,s79,21.0,masculino,right,España,Catalán y Castellano,Upper secondary,no,no,B,1,when,L3,unsyncopated,when,when,52,Online_whenL3//d.ji14.1998.wav,ga,do,ka,sil,ñe,gu,le,sil1,sa,ji,sil2,['miss'],,,1.998,no_beat,,,,ji,4,testWhatL2Uns//cat_viol.r2.s2.0.wav,3.0,what,unsyncopated,b,s2,no_rule,cat,L2,m,0.0732,6.0,1.0,1.2195,3 ,2.0,Catalán,0.0,Castellano,0.0,Inglés,7.0,4.0,3.0,yes,yes,yes,Violín,6,,,"Me ha resultado dificil sobretodo la tercera Tarea, reconocer si el fragmento era o no correspondiente al lenguaje. También clasificarlo del 1 al 7 mi decisión.Ha sido genial! ",55.0,yes
53,2023-11-19_21h25.14.243,Unsyncopated1,s79,21.0,masculino,right,España,Catalán y Castellano,Upper secondary,no,no,B,1,when,L3,unsyncopated,when,when,53,Online_whenL3//d.ji15.444.wav,ga,do,ji,sil,mo,sa,ko,sil1,fu,gu,sil2,['catch'],[1.0568000000120037],[1.0568000000120037],0.444,no_beat,0.6128000000120037,0.6128000000120037,"[""space""]",ji,4,testWhatL2Uns//dep_viol.r2.s2.0.wav,3.0,what,unsyncopated,b,s2,no_rule,dep,L2,z,0.3105,7.0,0.0,0.3591,3 ,2.0,Catalán,0.0,Castellano,0.0,Inglés,7.0,4.0,3.0,yes,yes,yes,Violín,6,,,"Me ha resultado dificil sobretodo la tercera Tarea, reconocer si el fragmento era o no correspondiente al lenguaje. También clasificarlo del 1 al 7 mi decisión.Ha sido genial! ",55.0,yes
54,2023-11-19_21h25.14.243,Unsyncopated1,s79,21.0,masculino,right,España,Catalán y Castellano,Upper secondary,no,no,B,1,when,L3,unsyncopated,when,when,54,Online_whenL3//d.ji13.222.wav,fu,ji,di,sil,li,ko,je,sil1,chu,mo,sil2,['catch'],[0.9586999999880845],[0.9586999999880845],0.222,no_beat,0.7366999999880846,0.7366999999880846,"[""space""]",ji,4,testWhatL2Uns//cat_viol.r1.s2.0.wav,3.0,what,unsyncopated,a,s2,no_rule,cat,L2,m,0.4686,3.0,1.0,1.586,3 ,2.0,Catalán,0.0,Castellano,0.0,Inglés,7.0,4.0,3.0,yes,yes,yes,Violín,6,,,"Me ha resultado dificil sobretodo la tercera Tarea, reconocer si el fragmento era o no correspondiente al lenguaje. También clasificarlo del 1 al 7 mi decisión.Ha sido genial! ",55.0,yes
55,2023-11-19_21h25.14.243,Unsyncopated1,s79,21.0,masculino,right,España,Catalán y Castellano,Upper secondary,no,no,B,1,when,L3,unsyncopated,when,when,55,Online_whenL3//d.ji12.1332.wav,sa,le,gu,sil,ka,ga,ji,sil1,di,mo,sil2,['catch'],[1.8200999999939995],[1.8200999999939995],1.332,no_beat,0.4880999999939994,0.4880999999939994,"[""space""]",ji,4,testWhatL2Uns//time_viol.r2.s2.0.wav,3.0,what,unsyncopated,b,s2,no_rule,time,L2,z,0.3,6.0,0.0,0.2861,3 ,2.0,Catalán,0.0,Castellano,0.0,Inglés,7.0,4.0,3.0,yes,yes,yes,Violín,6,,,"Me ha resultado dificil sobretodo la tercera Tarea, reconocer si el fragmento era o no correspondiente al lenguaje. También clasificarlo del 1 al 7 mi decisión.Ha sido genial! ",55.0,yes
56,2023-11-19_21h25.14.243,Unsyncopated1,s79,21.0,masculino,right,España,Catalán y Castellano,Upper secondary,no,no,B,1,when,L3,unsyncopated,when,when,56,Online_whenL3//d.ji3.none.wav,je,le,do,sil,sa,ka,ga,sil1,gu,mo,sil2,['-'],,,none,none,,,,ji,4,testWhatL2Uns//dep_viol.r2.s1.0.wav,3.0,what,unsyncopated,b,s1,no_rule,dep,L2,z,1.4589,5.0,0.0,2.6504,3 ,2.0,Catalán,0.0,Castellano,0.0,Inglés,7.0,4.0,3.0,yes,yes,yes,Violín,6,,,"Me ha resultado dificil sobretodo la tercera Tarea, reconocer si el fragmento era o no correspondiente al lenguaje. También clasificarlo del 1 al 7 mi decisión.Ha sido genial! ",55.0,yes
57,2023-11-19_21h25.14.243,Unsyncopated1,s79,21.0,masculino,right,España,Catalán y Castellano,Upper secondary,no,no,B,1,when,L3,unsyncopated,when,when,57,Online_whenL3//d.ji1.888.wav,sa,je,le,sil,ji,ko,ñe,sil1,di,gu,sil2,['miss'],,,0.888,beat,,,,ji,4,testWhatL2Uns//r2.s1.1.wav,3.0,what,unsyncopated,b,s1,rule,rule,L2,m,1.2519,5.0,0.0,2.3727,3 ,2.0,Catalán,0.0,Castellano,0.0,Inglés,7.0,4.0,3.0,yes,yes,yes,Violín,6,,,"Me ha resultado dificil sobretodo la tercera Tarea, reconocer si el fragmento era o no correspondiente al lenguaje. También clasificarlo del 1 al 7 mi decisión.Ha sido genial! ",55.0,yes
58,2023-11-19_21h25.14.243,Unsyncopated1,s79,21.0,masculino,right,España,Catalán y Castellano,Upper secondary,no,no,B,1,when,L3,unsyncopated,when,when,58,Online_whenL3//d.ji0.1332.wav,je,ko,gu,sil,do,ñe,ji,sil1,mo,le,sil2,['catch'],[2.04200000000003],[2.04200000000003],1.332,no_beat,0.7100000000000299,0.7100000000000299,"[""space""]",ji,4,testWhatL2Uns//time_viol.r2.s1.0.wav,3.0,what,unsyncopated,b,s1,no_rule,time,L2,m,0.2894,7.0,1.0,0.4379,3 ,2.0,Catalán,0.0,Castellano,0.0,Inglés,7.0,4.0,3.0,yes,yes,yes,Violín,6,,,"Me ha resultado dificil sobretodo la tercera Tarea, reconocer si el fragmento era o no correspondiente al lenguaje. También clasificarlo del 1 al 7 mi decisión.Ha sido genial! ",55.0,yes
59,2023-11-19_21h25.14.243,Unsyncopated1,s79,21.0,masculino,right,España,Catalán y Castellano,Upper secondary,no,no,B,1,when,L3,unsyncopated,when,when,59,Online_whenL3//d.ji2.none.wav,je,ko,sa,sil,le,do,ga,sil1,ñe,di,sil2,['-'],,,none,none,,,,ji,4,testWhatL2Uns//cat_viol.r2.s1.0.wav,3.0,what,unsyncopated,b,s1,no_rule,cat,L2,m,0.2526,6.0,1.0,0.5559,3 ,2.0,Catalán,0.0,Castellano,0.0,Inglés,7.0,4.0,3.0,yes,yes,yes,Violín,6,,,"Me ha resultado dificil sobretodo la tercera Tarea, reconocer si el fragmento era o no correspondiente al lenguaje. También clasificarlo del 1 al 7 mi decisión.Ha sido genial! ",55.0,yes
60,2023-11-19_21h25.14.243,Unsyncopated1,s79,21.0,masculino,right,España,Catalán y Castellano,Upper secondary,no,no,B,1,when,L3,unsyncopated,when,when,60,Online_whenL3//c.gu23.none.wav,ji,fu,di,sil,ñe,je,li,sil1,do,mo,sil2,['-'],,,none,none,,,,gu,3,testWhatL2Uns//r1.s2.2.wav,3.0,what,unsyncopated,a,s2,rule,rule,L2,z,0.2507,7.0,1.0,0.3077,3 ,2.0,Catalán,0.0,Castellano,0.0,Inglés,7.0,4.0,3.0,yes,yes,yes,Violín,6,,,"Me ha resultado dificil sobretodo la tercera Tarea, reconocer si el fragmento era o no correspondiente al lenguaje. También clasificarlo del 1 al 7 mi decisión.Ha sido genial! ",55.0,yes
61,2023-11-19_21h25.14.243,Unsyncopated1,s79,21.0,masculino,right,España,Catalán y Castellano,Upper secondary,no,no,B,1,when,L3,unsyncopated,when,when,61,Online_whenL3//c.gu20.none.wav,fu,li,di,sil,ko,chu,ga,sil1,do,ñe,sil2,['-'],,,none,none,,,,gu,3,testWhatL2Uns//cat_viol.r1.s1.0.wav,3.0,what,unsyncopated,a,s1,no_rule,cat,L2,m,0.2713,3.0,1.0,0.9541,3 ,2.0,Catalán,0.0,Castellano,0.0,Inglés,7.0,4.0,3.0,yes,yes,yes,Violín,6,,,"Me ha resultado dificil sobretodo la tercera Tarea, reconocer si el fragmento era o no correspondiente al lenguaje. También clasificarlo del 1 al 7 mi decisión.Ha sido genial! ",55.0,yes
62,2023-11-19_21h25.14.243,Unsyncopated1,s79,21.0,masculino,right,España,Catalán y Castellano,Upper secondary,no,no,B,1,when,L3,unsyncopated,when,when,62,Online_whenL3//c.gu21.none.wav,je,ñe,do,sil,sa,ko,ji,sil1,di,li,sil2,['-'],,,none,none,,,,gu,3,testWhatL2Uns//r2.s1.2.wav,3.0,what,unsyncopated,b,s1,rule,rule,L2,m,1.26,5.0,0.0,0.6542,3 ,2.0,Catalán,0.0,Castellano,0.0,Inglés,7.0,4.0,3.0,yes,yes,yes,Violín,6,,,"Me ha resultado dificil sobretodo la tercera Tarea, reconocer si el fragmento era o no correspondiente al lenguaje. También clasificarlo del 1 al 7 mi decisión.Ha sido genial! ",55.0,yes
63,2023-11-19_21h25.14.243,Unsyncopated1,s79,21.0,masculino,right,España,Catalán y Castellano,Upper secondary,no,no,B,1,when,L3,unsyncopated,when,when,63,Online_whenL3//c.gu22.1998.wav,do,chu,le,sil,ga,li,ji,sil1,mo,gu,sil2,['miss'],,,1.998,no_beat,,,,gu,3,testWhatL2Uns//r1.s2.1.wav,3.0,what,unsyncopated,a,s2,rule,rule,L2,z,0.2735,7.0,1.0,0.2339,3 ,2.0,Catalán,0.0,Castellano,0.0,Inglés,7.0,4.0,3.0,yes,yes,yes,Violín,6,,,"Me ha resultado dificil sobretodo la tercera Tarea, reconocer si el fragmento era o no correspondiente al lenguaje. También clasificarlo del 1 al 7 mi decisión.Ha sido genial! ",55.0,yes
64,2023-11-19_21h25.14.243,Unsyncopated1,s79,21.0,masculino,right,España,Catalán y Castellano,Upper secondary,no,no,B,1,when,L3,unsyncopated,when,when,64,Online_whenL3//d.ji27.none.wav,chu,ka,di,sil,ñe,je,fu,sil1,do,gu,sil2,['-'],,,none,none,,,,ji,4,testWhatL2Uns//r2.s2.2.wav,3.0,what,unsyncopated,b,s2,rule,rule,L2,z,0.3243,7.0,1.0,0.2111,3 ,2.0,Catalán,0.0,Castellano,0.0,Inglés,7.0,4.0,3.0,yes,yes,yes,Violín,6,,,"Me ha resultado dificil sobretodo la tercera Tarea, reconocer si el fragmento era o no correspondiente al lenguaje. También clasificarlo del 1 al 7 mi decisión.Ha sido genial! ",55.0,yes
65,2023-11-19_21h25.14.243,Unsyncopated1,s79,21.0,masculino,right,España,Catalán y Castellano,Upper secondary,no,no,B,1,when,L3,unsyncopated,when,when,65,Online_whenL3//d.ji25.none.wav,do,li,je,sil,fu,ka,mo,sil1,ñe,di,sil2,['-'],,,none,none,,,,ji,4,testWhatL2Uns//r1.s1.1.wav,3.0,what,unsyncopated,a,s1,rule,rule,L2,z,0.5877,4.0,1.0,0.6874,3 ,2.0,Catalán,0.0,Castellano,0.0,Inglés,7.0,4.0,3.0,yes,yes,yes,Violín,6,,,"Me ha resultado dificil sobretodo la tercera Tarea, reconocer si el fragmento era o no correspondiente al lenguaje. También clasificarlo del 1 al 7 mi decisión.Ha sido genial! ",55.0,yes
66,2023-11-19_21h25.14.243,Unsyncopated1,s79,21.0,masculino,right,España,Catalán y Castellano,Upper secondary,no,no,B,1,when,L3,unsyncopated,when,when,66,Online_whenL3//d.ji26.none.wav,chu,fu,je,sil,ko,gu,ka,sil1,mo,di,sil2,['false alarm'],[0.8241999999880818],[0.8241999999880818],none,none,,,"[""space""]",ji,4,testWhatL2Uns//dep_viol.r1.s1.0.wav,3.0,what,unsyncopated,a,s1,no_rule,dep,L2,m,2.0779,5.0,1.0,1.3193,3 ,2.0,Catalán,0.0,Castellano,0.0,Inglés,7.0,4.0,3.0,yes,yes,yes,Violín,6,,,"Me ha resultado dificil sobretodo la tercera Tarea, reconocer si el fragmento era o no correspondiente al lenguaje. También clasificarlo del 1 al 7 mi decisión.Ha sido genial! ",55.0,yes
67,2023-11-19_21h25.14.243,Unsyncopated1,s79,21.0,masculino,right,España,Catalán y Castellano,Upper secondary,no,no,B,1,when,L3,unsyncopated,when,when,67,Online_whenL3//d.ji24.1998.wav,do,sa,gu,sil,li,chu,ka,sil1,ko,ji,sil2,['catch_delay'],[0.738499999999991],[0.738499999999991],1.998,no_beat,0.738499999999991,0.738499999999991,,ji,4,testWhatL2Uns//time_viol.r1.s2.0.wav,3.0,what,unsyncopated,a,s2,no_rule,time,L2,m,0.2856,7.0,1.0,1.0363,3 ,2.0,Catalán,0.0,Castellano,0.0,Inglés,7.0,4.0,3.0,yes,yes,yes,Violín,6,,,"Me ha resultado dificil sobretodo la tercera Tarea, reconocer si el fragmento era o no correspondiente al lenguaje. También clasificarlo del 1 al 7 mi decisión.Ha sido genial! ",55.0,yes
68,2023-11-19_21h25.14.243,Unsyncopated1,s79,21.0,masculino,right,España,Catalán y Castellano,Upper secondary,no,no,B,1,when,L3,unsyncopated,when,when,68,Online_whenL3//d.ji16.none.wav,ka,je,di,sil,sa,fu,chu,sil1,do,li,sil2,['-'],[0.0724999999999909],[0.0724999999999909],none,none,,,"[""space""]",ji,4,testWhatL2Uns//r2.s1.0.wav,3.0,what,unsyncopated,b,s1,rule,rule,L2,m,0.2836,6.0,0.0,0.8012,3 ,2.0,Catalán,0.0,Castellano,0.0,Inglés,7.0,4.0,3.0,yes,yes,yes,Violín,6,,,"Me ha resultado dificil sobretodo la tercera Tarea, reconocer si el fragmento era o no correspondiente al lenguaje. También clasificarlo del 1 al 7 mi decisión.Ha sido genial! ",55.0,yes
69,2023-11-19_21h25.14.243,Unsyncopated1,s79,21.0,masculino,right,España,Catalán y Castellano,Upper secondary,no,no,B,1,when,L3,unsyncopated,when,when,69,Online_whenL3//d.ji19.1776.wav,gu,ñe,chu,sil,li,di,le,sil1,ji,fu,sil2,['miss'],,,1.776,beat,,,,ji,4,testWhatL2Uns//time_viol.r1.s1.0.wav,3.0,what,unsyncopated,a,s1,no_rule,time,L2,z,0.3178,7.0,0.0,0.3179,3 ,2.0,Catalán,0.0,Castellano,0.0,Inglés,7.0,4.0,3.0,yes,yes,yes,Violín,6,,,"Me ha resultado dificil sobretodo la tercera Tarea, reconocer si el fragmento era o no correspondiente al lenguaje. También clasificarlo del 1 al 7 mi decisión.Ha sido genial! ",55.0,yes
70,2023-11-19_21h25.14.243,Unsyncopated1,s79,21.0,masculino,right,España,Catalán y Castellano,Upper secondary,no,no,B,1,when,L3,unsyncopated,when,when,70,Online_whenL3//d.ji17.none.wav,ñe,ga,di,sil,sa,ka,li,sil1,le,fu,sil2,['-'],,,none,none,,,,ji,4,testWhatL2Uns//r2.s2.0.wav,3.0,what,unsyncopated,b,s2,rule,rule,L2,z,0.4001,7.0,1.0,0.3538,3 ,2.0,Catalán,0.0,Castellano,0.0,Inglés,7.0,4.0,3.0,yes,yes,yes,Violín,6,,,"Me ha resultado dificil sobretodo la tercera Tarea, reconocer si el fragmento era o no correspondiente al lenguaje. También clasificarlo del 1 al 7 mi decisión.Ha sido genial! ",55.0,yes
71,2023-11-19_21h25.14.243,Unsyncopated1,s79,21.0,masculino,right,España,Catalán y Castellano,Upper secondary,no,no,B,1,when,L3,unsyncopated,when,when,71,Online_whenL3//d.ji18.none.wav,gu,do,ko,sil,di,chu,mo,sil1,ga,le,sil2,['-'],,,none,none,,,,ji,4,testWhatL2Uns//r1.s1.2.wav,3.0,what,unsyncopated,a,s1,rule,rule,L2,z,0.2906,6.0,1.0,0.3247,3 ,2.0,Catalán,0.0,Castellano,0.0,Inglés,7.0,4.0,3.0,yes,yes,yes,Violín,6,,,"Me ha resultado dificil sobretodo la tercera Tarea, reconocer si el fragmento era o no correspondiente al lenguaje. También clasificarlo del 1 al 7 mi decisión.Ha sido genial! ",55.0,yes
72,2023-11-19_21h25.14.243,Unsyncopated1,s79,21.0,masculino,right,España,Catalán y Castellano,Upper secondary,no,no,B,1,when,L3,unsyncopated,when,when,72,Online_whenL3//d.ji6.1998.wav,gu,di,ko,sil,mo,fu,le,sil1,ñe,ji,sil2,['catch'],[2.615000000000009],[2.615000000000009],1.998,no_beat,0.6170000000000091,0.6170000000000091,"[""space""]",ji,4,testConjL4Syn//dep_viol.r1.s1.0.wav,4.0,conjunction_syn,syncopated,a,s1,no_rule,dep,L4,z,1.2761,5.0,0.0,0.6843,3 ,2.0,Catalán,0.0,Castellano,0.0,Inglés,7.0,4.0,3.0,yes,yes,yes,Violín,6,,,"Me ha resultado dificil sobretodo la tercera Tarea, reconocer si el fragmento era o no correspondiente al lenguaje. También clasificarlo del 1 al 7 mi decisión.Ha sido genial! ",55.0,yes
73,2023-11-19_21h25.14.243,Unsyncopated1,s79,21.0,masculino,right,España,Catalán y Castellano,Upper secondary,no,no,B,1,when,L3,unsyncopated,when,when,73,Online_whenL3//d.ji7.1776.wav,do,ko,ga,sil,di,chu,sa,sil1,ji,le,sil2,['miss'],,,1.776,beat,,,,ji,4,testConjL4Syn//time_viol.r2.s2.0.wav,4.0,conjunction_syn,syncopated,b,s2,no_rule,time,L4,m,0.4047,5.0,1.0,1.1509,3 ,2.0,Catalán,0.0,Castellano,0.0,Inglés,7.0,4.0,3.0,yes,yes,yes,Violín,6,,,"Me ha resultado dificil sobretodo la tercera Tarea, reconocer si el fragmento era o no correspondiente al lenguaje. También clasificarlo del 1 al 7 mi decisión.Ha sido genial! ",55.0,yes
74,2023-11-19_21h25.14.243,Unsyncopated1,s79,21.0,masculino,right,España,Catalán y Castellano,Upper secondary,no,no,B,1,when,L3,unsyncopated,when,when,74,Online_whenL3//d.ji4.0.wav,ji,chu,do,sil,mo,ka,ga,sil1,ko,fu,sil2,['miss'],,,0.0,beat,,,,ji,4,testConjL4Syn//time_viol.r1.s2.0.wav,4.0,conjunction_syn,syncopated,a,s2,no_rule,time,L4,m,0.3356,7.0,1.0,1.1068,3 ,2.0,Catalán,0.0,Castellano,0.0,Inglés,7.0,4.0,3.0,yes,yes,yes,Violín,6,,,"Me ha resultado dificil sobretodo la tercera Tarea, reconocer si el fragmento era o no correspondiente al lenguaje. También clasificarlo del 1 al 7 mi decisión.Ha sido genial! ",55.0,yes
75,2023-11-19_21h25.14.243,Unsyncopated1,s79,21.0,masculino,right,España,Catalán y Castellano,Upper secondary,no,no,B,1,when,L3,unsyncopated,when,when,75,Online_whenL3//d.ji5.none.wav,di,fu,li,sil,le,chu,je,sil1,ko,sa,sil2,['-'],,,none,none,,,,ji,4,testConjL4Syn//dep_viol.r2.s1.0.wav,4.0,conjunction_syn,syncopated,b,s1,no_rule,dep,L4,z,0.3538,7.0,0.0,0.2522,3 ,2.0,Catalán,0.0,Castellano,0.0,Inglés,7.0,4.0,3.0,yes,yes,yes,Violín,6,,,"Me ha resultado dificil sobretodo la tercera Tarea, reconocer si el fragmento era o no correspondiente al lenguaje. También clasificarlo del 1 al 7 mi decisión.Ha sido genial! ",55.0,yes
76,2023-11-19_21h25.14.243,Unsyncopated1,s79,21.0,masculino,right,España,Catalán y Castellano,Upper secondary,no,no,B,1,when,L3,unsyncopated,when,when,76,Online_whenL3//b.ñe3.none.wav,chu,ko,mo,sil,li,je,ji,sil1,fu,do,sil2,['-'],,,none,none,,,,ñe,2,testConjL4Syn//r2.s2.1.wav,4.0,conjunction_syn,syncopated,b,s2,rule,rule,L4,z,0.2016,7.0,1.0,0.1356,3 ,2.0,Catalán,0.0,Castellano,0.0,Inglés,7.0,4.0,3.0,yes,yes,yes,Violín,6,,,"Me ha resultado dificil sobretodo la tercera Tarea, reconocer si el fragmento era o no correspondiente al lenguaje. También clasificarlo del 1 al 7 mi decisión.Ha sido genial! ",55.0,yes
77,2023-11-19_21h25.14.243,Unsyncopated1,s79,21.0,masculino,right,España,Catalán y Castellano,Upper secondary,no,no,B,1,when,L3,unsyncopated,when,when,77,Online_whenL3//b.ñe2.888.wav,ji,li,do,sil,ñe,mo,ga,sil1,le,fu,sil2,['catch'],[1.6046999999881564],[1.6046999999881564],0.888,beat,0.7166999999881564,0.7166999999881564,"[""space""]",ñe,2,testConjL4Syn//r1.s1.0.wav,4.0,conjunction_syn,syncopated,a,s1,rule,rule,L4,z,0.2663,5.0,1.0,0.6217,3 ,2.0,Catalán,0.0,Castellano,0.0,Inglés,7.0,4.0,3.0,yes,yes,yes,Violín,6,,,"Me ha resultado dificil sobretodo la tercera Tarea, reconocer si el fragmento era o no correspondiente al lenguaje. También clasificarlo del 1 al 7 mi decisión.Ha sido genial! ",55.0,yes
78,2023-11-19_21h25.14.243,Unsyncopated1,s79,21.0,masculino,right,España,Catalán y Castellano,Upper secondary,no,no,B,1,when,L3,unsyncopated,when,when,78,Online_whenL3//b.ñe0.222.wav,ka,ñe,gu,sil,ga,le,chu,sil1,fu,do,sil2,['catch'],[0.90949999999998],[0.90949999999998],0.222,no_beat,0.68749999999998,0.68749999999998,"[""space""]",ñe,2,testConjL4Syn//r1.s2.0.wav,4.0,conjunction_syn,syncopated,a,s2,rule,rule,L4,z,0.5205,6.0,1.0,2.1005,3 ,2.0,Catalán,0.0,Castellano,0.0,Inglés,7.0,4.0,3.0,yes,yes,yes,Violín,6,,,"Me ha resultado dificil sobretodo la tercera Tarea, reconocer si el fragmento era o no correspondiente al lenguaje. También clasificarlo del 1 al 7 mi decisión.Ha sido genial! ",55.0,yes
79,2023-11-19_21h25.14.243,Unsyncopated1,s79,21.0,masculino,right,España,Catalán y Castellano,Upper secondary,no,no,B,1,when,L3,unsyncopated,when,when,79,Online_whenL3//b.ñe1.1998.wav,ka,ko,je,sil,ga,gu,di,sil1,sa,ñe,sil2,['miss'],,,1.998,no_beat,,,,ñe,2,testConjL4Syn//r1.s1.1.wav,4.0,conjunction_syn,syncopated,a,s1,rule,rule,L4,m,0.5576,4.0,0.0,0.5525,3 ,2.0,Catalán,0.0,Castellano,0.0,Inglés,7.0,4.0,3.0,yes,yes,yes,Violín,6,,,"Me ha resultado dificil sobretodo la tercera Tarea, reconocer si el fragmento era o no correspondiente al lenguaje. También clasificarlo del 1 al 7 mi decisión.Ha sido genial! ",55.0,yes
80,2023-11-19_21h25.14.243,Unsyncopated1,s79,21.0,masculino,right,España,Catalán y Castellano,Upper secondary,no,no,B,1,when,L3,unsyncopated,when,when,80,Online_whenL3//a.mo35.none.wav,ji,je,ka,sil,ga,fu,ñe,sil1,sa,li,sil2,['-'],,,none,none,,,,mo,1,testConjL4Syn//r2.s1.1.wav,4.0,conjunction_syn,syncopated,b,s1,rule,rule,L4,m,1.0996,6.0,0.0,1.1736,3 ,2.0,Catalán,0.0,Castellano,0.0,Inglés,7.0,4.0,3.0,yes,yes,yes,Violín,6,,,"Me ha resultado dificil sobretodo la tercera Tarea, reconocer si el fragmento era o no correspondiente al lenguaje. También clasificarlo del 1 al 7 mi decisión.Ha sido genial! ",55.0,yes
81,2023-11-19_21h25.14.243,Unsyncopated1,s79,21.0,masculino,right,España,Catalán y Castellano,Upper secondary,no,no,B,1,when,L3,unsyncopated,when,when,81,Online_whenL3//a.mo34.222.wav,do,mo,ga,sil,chu,ka,ji,sil1,di,ko,sil2,['catch'],[0.7880999999940741],[0.7880999999940741],0.222,no_beat,0.5660999999940741,0.5660999999940741,"[""space""]",mo,1,testConjL4Syn//r2.s2.0.wav,4.0,conjunction_syn,syncopated,b,s2,rule,rule,L4,z,0.3384,7.0,1.0,0.2996,3 ,2.0,Catalán,0.0,Castellano,0.0,Inglés,7.0,4.0,3.0,yes,yes,yes,Violín,6,,,"Me ha resultado dificil sobretodo la tercera Tarea, reconocer si el fragmento era o no correspondiente al lenguaje. También clasificarlo del 1 al 7 mi decisión.Ha sido genial! ",55.0,yes
82,2023-11-19_21h25.14.243,Unsyncopated1,s79,21.0,masculino,right,España,Catalán y Castellano,Upper secondary,no,no,B,1,when,L3,unsyncopated,when,when,82,Online_whenL3//a.mo33.0.wav,mo,fu,di,sil,ga,do,le,sil1,ñe,ka,sil2,['catch'],[0.4639999999999418],[0.4639999999999418],0.0,beat,0.4639999999999418,0.4639999999999418,"[""space""]",mo,1,testConjL4Syn//time_viol.r1.s1.0.wav,4.0,conjunction_syn,syncopated,a,s1,no_rule,time,L4,m,1.2499,7.0,1.0,0.9828,3 ,2.0,Catalán,0.0,Castellano,0.0,Inglés,7.0,4.0,3.0,yes,yes,yes,Violín,6,,,"Me ha resultado dificil sobretodo la tercera Tarea, reconocer si el fragmento era o no correspondiente al lenguaje. También clasificarlo del 1 al 7 mi decisión.Ha sido genial! ",55.0,yes
83,2023-11-19_21h25.14.243,Unsyncopated1,s79,21.0,masculino,right,España,Catalán y Castellano,Upper secondary,no,no,B,1,when,L3,unsyncopated,when,when,83,Online_whenL3//a.mo32.none.wav,ji,gu,je,sil,ga,do,ñe,sil1,chu,le,sil2,['-'],,,none,none,,,,mo,1,testConjL4Syn//r2.s1.0.wav,4.0,conjunction_syn,syncopated,b,s1,rule,rule,L4,z,0.2859,7.0,1.0,0.768,3 ,2.0,Catalán,0.0,Castellano,0.0,Inglés,7.0,4.0,3.0,yes,yes,yes,Violín,6,,,"Me ha resultado dificil sobretodo la tercera Tarea, reconocer si el fragmento era o no correspondiente al lenguaje. También clasificarlo del 1 al 7 mi decisión.Ha sido genial! ",55.0,yes
84,2023-11-19_21h25.14.243,Unsyncopated1,s79,21.0,masculino,right,España,Catalán y Castellano,Upper secondary,no,no,B,1,when,L3,unsyncopated,when,when,84,Online_whenL3//c.gu30.0.wav,gu,ka,ga,sil,mo,li,le,sil1,di,sa,sil2,['catch'],[0.67430000001184],[0.67430000001184],0.0,beat,0.67430000001184,0.67430000001184,"[""space""]",gu,3,testConjL4Syn//dep_viol.r2.s2.0.wav,4.0,conjunction_syn,syncopated,b,s2,no_rule,dep,L4,m,1.4826,5.0,1.0,0.6906,3 ,2.0,Catalán,0.0,Castellano,0.0,Inglés,7.0,4.0,3.0,yes,yes,yes,Violín,6,,,"Me ha resultado dificil sobretodo la tercera Tarea, reconocer si el fragmento era o no correspondiente al lenguaje. También clasificarlo del 1 al 7 mi decisión.Ha sido genial! ",55.0,yes
85,2023-11-19_21h25.14.243,Unsyncopated1,s79,21.0,masculino,right,España,Catalán y Castellano,Upper secondary,no,no,B,1,when,L3,unsyncopated,when,when,85,Online_whenL3//c.gu31.none.wav,ka,ñe,sa,sil,li,do,le,sil1,ji,ko,sil2,['-'],,,none,none,,,,gu,3,testConjL4Syn//r1.s1.2.wav,4.0,conjunction_syn,syncopated,a,s1,rule,rule,L4,m,1.4226,4.0,0.0,0.4492,3 ,2.0,Catalán,0.0,Castellano,0.0,Inglés,7.0,4.0,3.0,yes,yes,yes,Violín,6,,,"Me ha resultado dificil sobretodo la tercera Tarea, reconocer si el fragmento era o no correspondiente al lenguaje. También clasificarlo del 1 al 7 mi decisión.Ha sido genial! ",55.0,yes
86,2023-11-19_21h25.14.243,Unsyncopated1,s79,21.0,masculino,right,España,Catalán y Castellano,Upper secondary,no,no,B,1,when,L3,unsyncopated,when,when,86,Online_whenL3//c.gu29.1110.wav,mo,je,ko,sil,ñe,gu,ka,sil1,li,ga,sil2,['miss'],,,1.11,no_beat,,,,gu,3,testConjL4Syn//cat_viol.r1.s1.0.wav,4.0,conjunction_syn,syncopated,a,s1,no_rule,cat,L4,z,0.0494,7.0,0.0,0.3516,3 ,2.0,Catalán,0.0,Castellano,0.0,Inglés,7.0,4.0,3.0,yes,yes,yes,Violín,6,,,"Me ha resultado dificil sobretodo la tercera Tarea, reconocer si el fragmento era o no correspondiente al lenguaje. También clasificarlo del 1 al 7 mi decisión.Ha sido genial! ",55.0,yes
87,2023-11-19_21h25.14.243,Unsyncopated1,s79,21.0,masculino,right,España,Catalán y Castellano,Upper secondary,no,no,B,1,when,L3,unsyncopated,when,when,87,Online_whenL3//c.gu28.none.wav,chu,di,ko,sil,sa,le,ji,sil1,li,ka,sil2,['-'],,,none,none,,,,gu,3,testConjL4Syn//time_viol.r2.s1.0.wav,4.0,conjunction_syn,syncopated,b,s1,no_rule,time,L4,z,0.2497,6.0,0.0,0.603,3 ,2.0,Catalán,0.0,Castellano,0.0,Inglés,7.0,4.0,3.0,yes,yes,yes,Violín,6,,,"Me ha resultado dificil sobretodo la tercera Tarea, reconocer si el fragmento era o no correspondiente al lenguaje. También clasificarlo del 1 al 7 mi decisión.Ha sido genial! ",55.0,yes
88,2023-11-19_21h25.14.243,Unsyncopated1,s79,21.0,masculino,right,España,Catalán y Castellano,Upper secondary,no,no,B,1,when,L3,unsyncopated,when,when,88,Online_whenL3//a.mo29.none.wav,sa,di,je,sil,li,ko,ji,sil1,ga,ñe,sil2,['-'],,,none,none,,,,mo,1,testConjL4Syn//cat_viol.r2.s2.0.wav,4.0,conjunction_syn,syncopated,b,s2,no_rule,cat,L4,z,0.1572,6.0,0.0,0.3322,3 ,2.0,Catalán,0.0,Castellano,0.0,Inglés,7.0,4.0,3.0,yes,yes,yes,Violín,6,,,"Me ha resultado dificil sobretodo la tercera Tarea, reconocer si el fragmento era o no correspondiente al lenguaje. También clasificarlo del 1 al 7 mi decisión.Ha sido genial! ",55.0,yes
89,2023-11-19_21h25.14.243,Unsyncopated1,s79,21.0,masculino,right,España,Catalán y Castellano,Upper secondary,no,no,B,1,when,L3,unsyncopated,when,when,89,Online_whenL3//a.mo31.1776.wav,li,gu,ñe,sil,ga,ji,le,sil1,mo,je,sil2,['catch'],[2.256999999999948],[2.256999999999948],1.776,beat,0.4809999999999481,0.4809999999999481,"[""space""]",mo,1,testConjL4Syn//cat_viol.r1.s2.0.wav,4.0,conjunction_syn,syncopated,a,s2,no_rule,cat,L4,z,0.2918,7.0,0.0,0.2013,3 ,2.0,Catalán,0.0,Castellano,0.0,Inglés,7.0,4.0,3.0,yes,yes,yes,Violín,6,,,"Me ha resultado dificil sobretodo la tercera Tarea, reconocer si el fragmento era o no correspondiente al lenguaje. También clasificarlo del 1 al 7 mi decisión.Ha sido genial! ",55.0,yes
90,2023-11-19_21h25.14.243,Unsyncopated1,s79,21.0,masculino,right,España,Catalán y Castellano,Upper secondary,no,no,B,1,when,L3,unsyncopated,when,when,90,Online_whenL3//a.mo28.0.wav,mo,sa,ka,sil,ga,ko,fu,sil1,gu,do,sil2,['catch'],[1.1867999999820995],[1.1867999999820995],0.0,beat,1.1867999999820995,1.1867999999820995,"[""space""]",mo,1,testConjL4Syn//r2.s2.2.wav,4.0,conjunction_syn,syncopated,b,s2,rule,rule,L4,z,0.1354,7.0,1.0,0.2828,3 ,2.0,Catalán,0.0,Castellano,0.0,Inglés,7.0,4.0,3.0,yes,yes,yes,Violín,6,,,"Me ha resultado dificil sobretodo la tercera Tarea, reconocer si el fragmento era o no correspondiente al lenguaje. También clasificarlo del 1 al 7 mi decisión.Ha sido genial! ",55.0,yes
91,2023-11-19_21h25.14.243,Unsyncopated1,s79,21.0,masculino,right,España,Catalán y Castellano,Upper secondary,no,no,B,1,when,L3,unsyncopated,when,when,91,Online_whenL3//a.mo30.none.wav,ga,li,gu,sil,chu,le,fu,sil1,ka,ñe,sil2,['-'],,,none,none,,,,mo,1,testConjL4Syn//r1.s2.2.wav,4.0,conjunction_syn,syncopated,a,s2,rule,rule,L4,z,0.1829,5.0,1.0,0.5383,3 ,2.0,Catalán,0.0,Castellano,0.0,Inglés,7.0,4.0,3.0,yes,yes,yes,Violín,6,,,"Me ha resultado dificil sobretodo la tercera Tarea, reconocer si el fragmento era o no correspondiente al lenguaje. También clasificarlo del 1 al 7 mi decisión.Ha sido genial! ",55.0,yes
92,2023-11-19_21h25.14.243,Unsyncopated1,s79,21.0,masculino,right,España,Catalán y Castellano,Upper secondary,no,no,B,1,when,L3,unsyncopated,when,when,92,Online_whenL3//a.mo12.none.wav,je,ji,ñe,sil,le,do,gu,sil1,ga,sa,sil2,['-'],,,none,none,,,,mo,1,testConjL4Syn//dep_viol.r1.s2.0.wav,4.0,conjunction_syn,syncopated,a,s2,no_rule,dep,L4,m,0.2361,7.0,1.0,1.1159,3 ,2.0,Catalán,0.0,Castellano,0.0,Inglés,7.0,4.0,3.0,yes,yes,yes,Violín,6,,,"Me ha resultado dificil sobretodo la tercera Tarea, reconocer si el fragmento era o no correspondiente al lenguaje. También clasificarlo del 1 al 7 mi decisión.Ha sido genial! ",55.0,yes
93,2023-11-19_21h25.14.243,Unsyncopated1,s79,21.0,masculino,right,España,Catalán y Castellano,Upper secondary,no,no,B,1,when,L3,unsyncopated,when,when,93,Online_whenL3//a.mo14.none.wav,di,ko,ga,sil,gu,do,sa,sil1,ka,chu,sil2,['-'],,,none,none,,,,mo,1,testConjL4Syn//cat_viol.r2.s1.0.wav,4.0,conjunction_syn,syncopated,b,s1,no_rule,cat,L4,m,0.0432,6.0,1.0,0.6207,3 ,2.0,Catalán,0.0,Castellano,0.0,Inglés,7.0,4.0,3.0,yes,yes,yes,Violín,6,,,"Me ha resultado dificil sobretodo la tercera Tarea, reconocer si el fragmento era o no correspondiente al lenguaje. También clasificarlo del 1 al 7 mi decisión.Ha sido genial! ",55.0,yes
94,2023-11-19_21h25.14.243,Unsyncopated1,s79,21.0,masculino,right,España,Catalán y Castellano,Upper secondary,no,no,B,1,when,L3,unsyncopated,when,when,94,Online_whenL3//a.mo13.1776.wav,chu,ji,do,sil,gu,le,fu,sil1,mo,ka,sil2,['catch'],[2.403300000011882],[2.403300000011882],1.776,beat,0.6273000000118818,0.6273000000118818,"[""space""]",mo,1,testConjL4Syn//r1.s2.1.wav,4.0,conjunction_syn,syncopated,a,s2,rule,rule,L4,z,0.303,4.0,1.0,1.4267,3 ,2.0,Catalán,0.0,Castellano,0.0,Inglés,7.0,4.0,3.0,yes,yes,yes,Violín,6,,,"Me ha resultado dificil sobretodo la tercera Tarea, reconocer si el fragmento era o no correspondiente al lenguaje. También clasificarlo del 1 al 7 mi decisión.Ha sido genial! ",55.0,yes
95,2023-11-19_21h25.14.243,Unsyncopated1,s79,21.0,masculino,right,España,Catalán y Castellano,Upper secondary,no,no,B,1,when,L3,unsyncopated,when,when,95,Online_whenL3//a.mo15.1110.wav,ga,le,do,sil,ñe,mo,fu,sil1,di,li,sil2,['catch'],[1.447099999994066],[1.447099999994066],1.11,no_beat,0.3370999999940658,0.3370999999940658,"[""space""]",mo,1,testConjL4Syn//r2.s1.2.wav,4.0,conjunction_syn,syncopated,b,s1,rule,rule,L4,m,0.0339,7.0,0.0,0.5903,3 ,2.0,Catalán,0.0,Castellano,0.0,Inglés,7.0,4.0,3.0,yes,yes,yes,Violín,6,,,"Me ha resultado dificil sobretodo la tercera Tarea, reconocer si el fragmento era o no correspondiente al lenguaje. También clasificarlo del 1 al 7 mi decisión.Ha sido genial! ",55.0,yes
96,2023-11-19_21h25.14.243,Unsyncopated1,s79,21.0,masculino,right,España,Catalán y Castellano,Upper secondary,no,no,B,1,when,L3,unsyncopated,when,when,96,Online_whenL3//a.mo21.none.wav,ñe,gu,chu,sil,di,ko,le,sil1,fu,li,sil2,['-'],,,none,none,,,,mo,1,,,,,,,,,,,,,,,3 ,2.0,Catalán,0.0,Castellano,0.0,Inglés,7.0,4.0,3.0,yes,yes,yes,Violín,6,,,"Me ha resultado dificil sobretodo la tercera Tarea, reconocer si el fragmento era o no correspondiente al lenguaje. También clasificarlo del 1 al 7 mi decisión.Ha sido genial! ",55.0,yes
97,2023-11-19_21h25.14.243,Unsyncopated1,s79,21.0,masculino,right,España,Catalán y Castellano,Upper secondary,no,no,B,1,when,L3,unsyncopated,when,when,97,Online_whenL3//a.mo23.none.wav,ga,sa,je,sil,ko,fu,li,sil1,di,chu,sil2,['-'],,,none,none,,,,mo,1,,,,,,,,,,,,,,,3 ,2.0,Catalán,0.0,Castellano,0.0,Inglés,7.0,4.0,3.0,yes,yes,yes,Violín,6,,,"Me ha resultado dificil sobretodo la tercera Tarea, reconocer si el fragmento era o no correspondiente al lenguaje. También clasificarlo del 1 al 7 mi decisión.Ha sido genial! ",55.0,yes
98,2023-11-19_21h25.14.243,Unsyncopated1,s79,21.0,masculino,right,España,Catalán y Castellano,Upper secondary,no,no,B,1,when,L3,unsyncopated,when,when,98,Online_whenL3//a.mo20.1776.wav,ga,fu,ko,sil,li,sa,je,sil1,mo,ka,sil2,['catch'],[2.4298000000119373],[2.4298000000119373],1.776,beat,0.6538000000119373,0.6538000000119373,"[""space""]",mo,1,,,,,,,,,,,,,,,3 ,2.0,Catalán,0.0,Castellano,0.0,Inglés,7.0,4.0,3.0,yes,yes,yes,Violín,6,,,"Me ha resultado dificil sobretodo la tercera Tarea, reconocer si el fragmento era o no correspondiente al lenguaje. También clasificarlo del 1 al 7 mi decisión.Ha sido genial! ",55.0,yes
99,2023-11-19_21h25.14.243,Unsyncopated1,s79,21.0,masculino,right,España,Catalán y Castellano,Upper secondary,no,no,B,1,when,L3,unsyncopated,when,when,99,Online_whenL3//a.mo22.none.wav,je,ga,ka,sil,ñe,chu,fu,sil1,li,ji,sil2,['-'],,,none,none,,,,mo,1,,,,,,,,,,,,,,,3 ,2.0,Catalán,0.0,Castellano,0.0,Inglés,7.0,4.0,3.0,yes,yes,yes,Violín,6,,,"Me ha resultado dificil sobretodo la tercera Tarea, reconocer si el fragmento era o no correspondiente al lenguaje. También clasificarlo del 1 al 7 mi decisión.Ha sido genial! ",55.0,yes
100,2023-11-19_21h25.14.243,Unsyncopated1,s79,21.0,masculino,right,España,Catalán y Castellano,Upper secondary,no,no,B,1,when,L3,unsyncopated,when,when,100,Online_whenL3//a.mo16.1998.wav,li,je,gu,sil,ka,chu,le,sil1,ji,mo,sil2,['catch'],[2.5880999999941423],[2.5880999999941423],1.998,no_beat,0.5900999999941423,0.5900999999941423,"[""space""]",mo,1,,,,,,,,,,,,,,,3 ,2.0,Catalán,0.0,Castellano,0.0,Inglés,7.0,4.0,3.0,yes,yes,yes,Violín,6,,,"Me ha resultado dificil sobretodo la tercera Tarea, reconocer si el fragmento era o no correspondiente al lenguaje. También clasificarlo del 1 al 7 mi decisión.Ha sido genial! ",55.0,yes
101,2023-11-19_21h25.14.243,Unsyncopated1,s79,21.0,masculino,right,España,Catalán y Castellano,Upper secondary,no,no,B,1,when,L3,unsyncopated,when,when,101,Online_whenL3//a.mo19.none.wav,fu,ka,ko,sil,chu,sa,do,sil1,li,le,sil2,['-'],,,none,none,,,,mo,1,,,,,,,,,,,,,,,3 ,2.0,Catalán,0.0,Castellano,0.0,Inglés,7.0,4.0,3.0,yes,yes,yes,Violín,6,,,"Me ha resultado dificil sobretodo la tercera Tarea, reconocer si el fragmento era o no correspondiente al lenguaje. También clasificarlo del 1 al 7 mi decisión.Ha sido genial! ",55.0,yes
102,2023-11-19_21h25.14.243,Unsyncopated1,s79,21.0,masculino,right,España,Catalán y Castellano,Upper secondary,no,no,B,1,when,L3,unsyncopated,when,when,102,Online_whenL3//a.mo18.888.wav,je,do,fu,sil,mo,sa,ga,sil1,di,le,sil2,['catch'],[1.374600000023861],[1.374600000023861],0.888,beat,0.4866000000238609,0.4866000000238609,"[""space""]",mo,1,,,,,,,,,,,,,,,3 ,2.0,Catalán,0.0,Castellano,0.0,Inglés,7.0,4.0,3.0,yes,yes,yes,Violín,6,,,"Me ha resultado dificil sobretodo la tercera Tarea, reconocer si el fragmento era o no correspondiente al lenguaje. También clasificarlo del 1 al 7 mi decisión.Ha sido genial! ",55.0,yes
103,2023-11-19_21h25.14.243,Unsyncopated1,s79,21.0,masculino,right,España,Catalán y Castellano,Upper secondary,no,no,B,1,when,L3,unsyncopated,when,when,103,Online_whenL3//a.mo17.none.wav,ji,ko,sa,sil,di,ka,do,sil1,chu,ga,sil2,['-'],,,none,none,,,,mo,1,,,,,,,,,,,,,,,3 ,2.0,Catalán,0.0,Castellano,0.0,Inglés,7.0,4.0,3.0,yes,yes,yes,Violín,6,,,"Me ha resultado dificil sobretodo la tercera Tarea, reconocer si el fragmento era o no correspondiente al lenguaje. También clasificarlo del 1 al 7 mi decisión.Ha sido genial! ",55.0,yes
104,2023-11-19_21h25.14.243,Unsyncopated1,s79,21.0,masculino,right,España,Catalán y Castellano,Upper secondary,no,no,B,1,when,L3,unsyncopated,when,when,104,Online_whenL3//a.mo6.444.wav,fu,ko,mo,sil,chu,le,ji,sil1,ka,je,sil2,['catch'],[0.8600999999940768],[0.8600999999940768],0.444,no_beat,0.4160999999940768,0.4160999999940768,"[""space""]",mo,1,,,,,,,,,,,,,,,3 ,2.0,Catalán,0.0,Castellano,0.0,Inglés,7.0,4.0,3.0,yes,yes,yes,Violín,6,,,"Me ha resultado dificil sobretodo la tercera Tarea, reconocer si el fragmento era o no correspondiente al lenguaje. También clasificarlo del 1 al 7 mi decisión.Ha sido genial! ",55.0,yes
105,2023-11-19_21h25.14.243,Unsyncopated1,s79,21.0,masculino,right,España,Catalán y Castellano,Upper secondary,no,no,B,1,when,L3,unsyncopated,when,when,105,Online_whenL3//a.mo5.222.wav,ko,mo,ji,sil,le,di,ga,sil1,li,sa,sil2,['catch'],[0.9286999999881118],[0.9286999999881118],0.222,no_beat,0.7066999999881118,0.7066999999881118,"[""space""]",mo,1,,,,,,,,,,,,,,,3 ,2.0,Catalán,0.0,Castellano,0.0,Inglés,7.0,4.0,3.0,yes,yes,yes,Violín,6,,,"Me ha resultado dificil sobretodo la tercera Tarea, reconocer si el fragmento era o no correspondiente al lenguaje. También clasificarlo del 1 al 7 mi decisión.Ha sido genial! ",55.0,yes
106,2023-11-19_21h25.14.243,Unsyncopated1,s79,21.0,masculino,right,España,Catalán y Castellano,Upper secondary,no,no,B,1,when,L3,unsyncopated,when,when,106,Online_whenL3//a.mo4.1776.wav,ga,gu,sa,sil,ko,je,li,sil1,mo,do,sil2,['miss'],,,1.776,beat,,,,mo,1,,,,,,,,,,,,,,,3 ,2.0,Catalán,0.0,Castellano,0.0,Inglés,7.0,4.0,3.0,yes,yes,yes,Violín,6,,,"Me ha resultado dificil sobretodo la tercera Tarea, reconocer si el fragmento era o no correspondiente al lenguaje. También clasificarlo del 1 al 7 mi decisión.Ha sido genial! ",55.0,yes
107,2023-11-19_21h25.14.243,Unsyncopated1,s79,21.0,masculino,right,España,Catalán y Castellano,Upper secondary,no,no,B,1,when,L3,unsyncopated,when,when,107,Online_whenL3//a.mo7.none.wav,di,ko,ñe,sil,fu,je,gu,sil1,sa,ji,sil2,['-'],,,none,none,,,,mo,1,,,,,,,,,,,,,,,3 ,2.0,Catalán,0.0,Castellano,0.0,Inglés,7.0,4.0,3.0,yes,yes,yes,Violín,6,,,"Me ha resultado dificil sobretodo la tercera Tarea, reconocer si el fragmento era o no correspondiente al lenguaje. También clasificarlo del 1 al 7 mi decisión.Ha sido genial! ",55.0,yes
108,2023-11-19_21h25.14.243,Unsyncopated1,s79,21.0,masculino,right,España,Catalán y Castellano,Upper secondary,no,no,B,1,when,L3,unsyncopated,when,when,108,Online_whenL3//a.mo10.none.wav,di,ko,le,sil,chu,fu,ka,sil1,sa,ji,sil2,['-'],,,none,none,,,,mo,1,,,,,,,,,,,,,,,3 ,2.0,Catalán,0.0,Castellano,0.0,Inglés,7.0,4.0,3.0,yes,yes,yes,Violín,6,,,"Me ha resultado dificil sobretodo la tercera Tarea, reconocer si el fragmento era o no correspondiente al lenguaje. También clasificarlo del 1 al 7 mi decisión.Ha sido genial! ",55.0,yes
109,2023-11-19_21h25.14.243,Unsyncopated1,s79,21.0,masculino,right,España,Catalán y Castellano,Upper secondary,no,no,B,1,when,L3,unsyncopated,when,when,109,Online_whenL3//a.mo9.1332.wav,fu,sa,do,sil,ji,gu,mo,sil1,ka,je,sil2,['miss'],,,1.332,no_beat,,,,mo,1,,,,,,,,,,,,,,,3 ,2.0,Catalán,0.0,Castellano,0.0,Inglés,7.0,4.0,3.0,yes,yes,yes,Violín,6,,,"Me ha resultado dificil sobretodo la tercera Tarea, reconocer si el fragmento era o no correspondiente al lenguaje. También clasificarlo del 1 al 7 mi decisión.Ha sido genial! ",55.0,yes
110,2023-11-19_21h25.14.243,Unsyncopated1,s79,21.0,masculino,right,España,Catalán y Castellano,Upper secondary,no,no,B,1,when,L3,unsyncopated,when,when,110,Online_whenL3//a.mo11.none.wav,chu,li,ñe,sil,je,fu,le,sil1,ko,di,sil2,['false alarm'],[0.32170000001792687],[0.32170000001792687],none,none,,,"[""space""]",mo,1,,,,,,,,,,,,,,,3 ,2.0,Catalán,0.0,Castellano,0.0,Inglés,7.0,4.0,3.0,yes,yes,yes,Violín,6,,,"Me ha resultado dificil sobretodo la tercera Tarea, reconocer si el fragmento era o no correspondiente al lenguaje. También clasificarlo del 1 al 7 mi decisión.Ha sido genial! ",55.0,yes
111,2023-11-19_21h25.14.243,Unsyncopated1,s79,21.0,masculino,right,España,Catalán y Castellano,Upper secondary,no,no,B,1,when,L3,unsyncopated,when,when,111,Online_whenL3//a.mo8.1776.wav,je,ga,ka,sil,le,li,ñe,sil1,mo,gu,sil2,['catch'],[2.2545000000000073],[2.2545000000000073],1.776,beat,0.4785000000000072,0.4785000000000072,"[""space""]",mo,1,,,,,,,,,,,,,,,3 ,2.0,Catalán,0.0,Castellano,0.0,Inglés,7.0,4.0,3.0,yes,yes,yes,Violín,6,,,"Me ha resultado dificil sobretodo la tercera Tarea, reconocer si el fragmento era o no correspondiente al lenguaje. También clasificarlo del 1 al 7 mi decisión.Ha sido genial! ",55.0,yes
112,2023-11-19_21h25.14.243,Unsyncopated1,s79,21.0,masculino,right,España,Catalán y Castellano,Upper secondary,no,no,B,1,when,L3,unsyncopated,when,when,112,Online_whenL3//b.ñe34.444.wav,fu,ka,ñe,sil,ko,do,chu,sil1,ga,je,sil2,['catch'],[1.0973000000119555],[1.0973000000119555],0.444,no_beat,0.6533000000119555,0.6533000000119555,"[""space""]",ñe,2,,,,,,,,,,,,,,,3 ,2.0,Catalán,0.0,Castellano,0.0,Inglés,7.0,4.0,3.0,yes,yes,yes,Violín,6,,,"Me ha resultado dificil sobretodo la tercera Tarea, reconocer si el fragmento era o no correspondiente al lenguaje. También clasificarlo del 1 al 7 mi decisión.Ha sido genial! ",55.0,yes
113,2023-11-19_21h25.14.243,Unsyncopated1,s79,21.0,masculino,right,España,Catalán y Castellano,Upper secondary,no,no,B,1,when,L3,unsyncopated,when,when,113,Online_whenL3//b.ñe32.none.wav,li,fu,mo,sil,ko,ji,chu,sil1,gu,do,sil2,['-'],,,none,none,,,,ñe,2,,,,,,,,,,,,,,,3 ,2.0,Catalán,0.0,Castellano,0.0,Inglés,7.0,4.0,3.0,yes,yes,yes,Violín,6,,,"Me ha resultado dificil sobretodo la tercera Tarea, reconocer si el fragmento era o no correspondiente al lenguaje. También clasificarlo del 1 al 7 mi decisión.Ha sido genial! ",55.0,yes
114,2023-11-19_21h25.14.243,Unsyncopated1,s79,21.0,masculino,right,España,Catalán y Castellano,Upper secondary,no,no,B,1,when,L3,unsyncopated,when,when,114,Online_whenL3//b.ñe35.1776.wav,le,ka,do,sil,chu,ga,ji,sil1,ñe,gu,sil2,['catch'],[2.2855999999940195],[2.2855999999940195],1.776,beat,0.5095999999940195,0.5095999999940195,"[""space""]",ñe,2,,,,,,,,,,,,,,,3 ,2.0,Catalán,0.0,Castellano,0.0,Inglés,7.0,4.0,3.0,yes,yes,yes,Violín,6,,,"Me ha resultado dificil sobretodo la tercera Tarea, reconocer si el fragmento era o no correspondiente al lenguaje. También clasificarlo del 1 al 7 mi decisión.Ha sido genial! ",55.0,yes
115,2023-11-19_21h25.14.243,Unsyncopated1,s79,21.0,masculino,right,España,Catalán y Castellano,Upper secondary,no,no,B,1,when,L3,unsyncopated,when,when,115,Online_whenL3//b.ñe33.none.wav,gu,li,ka,sil,sa,fu,le,sil1,di,chu,sil2,['-'],,,none,none,,,,ñe,2,,,,,,,,,,,,,,,3 ,2.0,Catalán,0.0,Castellano,0.0,Inglés,7.0,4.0,3.0,yes,yes,yes,Violín,6,,,"Me ha resultado dificil sobretodo la tercera Tarea, reconocer si el fragmento era o no correspondiente al lenguaje. También clasificarlo del 1 al 7 mi decisión.Ha sido genial! ",55.0,yes
116,2023-11-19_21h25.14.243,Unsyncopated1,s79,21.0,masculino,right,España,Catalán y Castellano,Upper secondary,no,no,B,1,when,L3,unsyncopated,when,when,116,Online_whenL3//d.ji23.none.wav,mo,ñe,je,sil,fu,ko,le,sil1,li,ka,sil2,['-'],,,none,none,,,,ji,4,,,,,,,,,,,,,,,3 ,2.0,Catalán,0.0,Castellano,0.0,Inglés,7.0,4.0,3.0,yes,yes,yes,Violín,6,,,"Me ha resultado dificil sobretodo la tercera Tarea, reconocer si el fragmento era o no correspondiente al lenguaje. También clasificarlo del 1 al 7 mi decisión.Ha sido genial! ",55.0,yes
117,2023-11-19_21h25.14.243,Unsyncopated1,s79,21.0,masculino,right,España,Catalán y Castellano,Upper secondary,no,no,B,1,when,L3,unsyncopated,when,when,117,Online_whenL3//d.ji20.none.wav,mo,gu,chu,sil,do,je,fu,sil1,di,le,sil2,['-'],,,none,none,,,,ji,4,,,,,,,,,,,,,,,3 ,2.0,Catalán,0.0,Castellano,0.0,Inglés,7.0,4.0,3.0,yes,yes,yes,Violín,6,,,"Me ha resultado dificil sobretodo la tercera Tarea, reconocer si el fragmento era o no correspondiente al lenguaje. También clasificarlo del 1 al 7 mi decisión.Ha sido genial! ",55.0,yes
118,2023-11-19_21h25.14.243,Unsyncopated1,s79,21.0,masculino,right,España,Catalán y Castellano,Upper secondary,no,no,B,1,when,L3,unsyncopated,when,when,118,Online_whenL3//d.ji21.888.wav,ko,li,ñe,sil,ji,ka,fu,sil1,ga,sa,sil2,['catch'],[1.4375],[1.4375],0.888,beat,0.5495,0.5495,"[""space""]",ji,4,,,,,,,,,,,,,,,3 ,2.0,Catalán,0.0,Castellano,0.0,Inglés,7.0,4.0,3.0,yes,yes,yes,Violín,6,,,"Me ha resultado dificil sobretodo la tercera Tarea, reconocer si el fragmento era o no correspondiente al lenguaje. También clasificarlo del 1 al 7 mi decisión.Ha sido genial! ",55.0,yes
119,2023-11-19_21h25.14.243,Unsyncopated1,s79,21.0,masculino,right,España,Catalán y Castellano,Upper secondary,no,no,B,1,when,L3,unsyncopated,when,when,119,Online_whenL3//d.ji22.1332.wav,gu,di,mo,sil,fu,ñe,ji,sil1,ko,le,sil2,['catch'],[2.0076999999880627],[2.0076999999880627],1.332,no_beat,0.6756999999880626,0.6756999999880626,"[""space""]",ji,4,,,,,,,,,,,,,,,3 ,2.0,Catalán,0.0,Castellano,0.0,Inglés,7.0,4.0,3.0,yes,yes,yes,Violín,6,,,"Me ha resultado dificil sobretodo la tercera Tarea, reconocer si el fragmento era o no correspondiente al lenguaje. También clasificarlo del 1 al 7 mi decisión.Ha sido genial! ",55.0,yes
120,2023-11-19_21h25.14.243,Unsyncopated1,s79,21.0,masculino,right,España,Catalán y Castellano,Upper secondary,no,no,B,1,when,L3,unsyncopated,when,when,120,Online_whenL3//c.gu7.1776.wav,sa,ga,di,sil,mo,ka,ko,sil1,gu,le,sil2,['catch'],[2.253099999994106],[2.253099999994106],1.776,beat,0.4770999999941059,0.4770999999941059,"[""space""]",gu,3,,,,,,,,,,,,,,,3 ,2.0,Catalán,0.0,Castellano,0.0,Inglés,7.0,4.0,3.0,yes,yes,yes,Violín,6,,,"Me ha resultado dificil sobretodo la tercera Tarea, reconocer si el fragmento era o no correspondiente al lenguaje. También clasificarlo del 1 al 7 mi decisión.Ha sido genial! ",55.0,yes
121,2023-11-19_21h25.14.243,Unsyncopated1,s79,21.0,masculino,right,España,Catalán y Castellano,Upper secondary,no,no,B,1,when,L3,unsyncopated,when,when,121,Online_whenL3//c.gu6.none.wav,do,je,mo,sil,fu,ko,sa,sil1,ka,di,sil2,['-'],,,none,none,,,,gu,3,,,,,,,,,,,,,,,3 ,2.0,Catalán,0.0,Castellano,0.0,Inglés,7.0,4.0,3.0,yes,yes,yes,Violín,6,,,"Me ha resultado dificil sobretodo la tercera Tarea, reconocer si el fragmento era o no correspondiente al lenguaje. También clasificarlo del 1 al 7 mi decisión.Ha sido genial! ",55.0,yes
122,2023-11-19_21h25.14.243,Unsyncopated1,s79,21.0,masculino,right,España,Catalán y Castellano,Upper secondary,no,no,B,1,when,L3,unsyncopated,when,when,122,Online_whenL3//c.gu4.none.wav,do,ka,ko,sil,fu,chu,mo,sil1,le,ji,sil2,['-'],,,none,none,,,,gu,3,,,,,,,,,,,,,,,3 ,2.0,Catalán,0.0,Castellano,0.0,Inglés,7.0,4.0,3.0,yes,yes,yes,Violín,6,,,"Me ha resultado dificil sobretodo la tercera Tarea, reconocer si el fragmento era o no correspondiente al lenguaje. También clasificarlo del 1 al 7 mi decisión.Ha sido genial! ",55.0,yes
123,2023-11-19_21h25.14.243,Unsyncopated1,s79,21.0,masculino,right,España,Catalán y Castellano,Upper secondary,no,no,B,1,when,L3,unsyncopated,when,when,123,Online_whenL3//c.gu5.0.wav,gu,ko,ji,sil,sa,ñe,le,sil1,fu,di,sil2,['catch'],[0.4274000000059459],[0.4274000000059459],0.0,beat,0.4274000000059459,0.4274000000059459,"[""space""]",gu,3,,,,,,,,,,,,,,,3 ,2.0,Catalán,0.0,Castellano,0.0,Inglés,7.0,4.0,3.0,yes,yes,yes,Violín,6,,,"Me ha resultado dificil sobretodo la tercera Tarea, reconocer si el fragmento era o no correspondiente al lenguaje. También clasificarlo del 1 al 7 mi decisión.Ha sido genial! ",55.0,yes
124,2023-11-19_21h25.14.243,Unsyncopated1,s79,21.0,masculino,right,España,Catalán y Castellano,Upper secondary,no,no,B,1,when,L3,unsyncopated,when,when,124,Online_whenL3//c.gu10.none.wav,ji,je,mo,sil,li,do,le,sil1,ka,chu,sil2,['-'],,,none,none,,,,gu,3,,,,,,,,,,,,,,,3 ,2.0,Catalán,0.0,Castellano,0.0,Inglés,7.0,4.0,3.0,yes,yes,yes,Violín,6,,,"Me ha resultado dificil sobretodo la tercera Tarea, reconocer si el fragmento era o no correspondiente al lenguaje. También clasificarlo del 1 al 7 mi decisión.Ha sido genial! ",55.0,yes
125,2023-11-19_21h25.14.243,Unsyncopated1,s79,21.0,masculino,right,España,Catalán y Castellano,Upper secondary,no,no,B,1,when,L3,unsyncopated,when,when,125,Online_whenL3//c.gu9.none.wav,di,ko,le,sil,sa,ji,li,sil1,ka,mo,sil2,['-'],,,none,none,,,,gu,3,,,,,,,,,,,,,,,3 ,2.0,Catalán,0.0,Castellano,0.0,Inglés,7.0,4.0,3.0,yes,yes,yes,Violín,6,,,"Me ha resultado dificil sobretodo la tercera Tarea, reconocer si el fragmento era o no correspondiente al lenguaje. También clasificarlo del 1 al 7 mi decisión.Ha sido genial! ",55.0,yes
126,2023-11-19_21h25.14.243,Unsyncopated1,s79,21.0,masculino,right,España,Catalán y Castellano,Upper secondary,no,no,B,1,when,L3,unsyncopated,when,when,126,Online_whenL3//c.gu8.1332.wav,ka,ñe,li,sil,ko,le,gu,sil1,sa,fu,sil2,['miss'],,,1.332,no_beat,,,,gu,3,,,,,,,,,,,,,,,3 ,2.0,Catalán,0.0,Castellano,0.0,Inglés,7.0,4.0,3.0,yes,yes,yes,Violín,6,,,"Me ha resultado dificil sobretodo la tercera Tarea, reconocer si el fragmento era o no correspondiente al lenguaje. También clasificarlo del 1 al 7 mi decisión.Ha sido genial! ",55.0,yes
127,2023-11-19_21h25.14.243,Unsyncopated1,s79,21.0,masculino,right,España,Catalán y Castellano,Upper secondary,no,no,B,1,when,L3,unsyncopated,when,when,127,Online_whenL3//c.gu11.1110.wav,do,mo,ñe,sil,ga,gu,li,sil1,di,le,sil2,['catch'],[1.7325999999939086],[1.7325999999939086],1.11,no_beat,0.6225999999939085,0.6225999999939085,"[""space""]",gu,3,,,,,,,,,,,,,,,3 ,2.0,Catalán,0.0,Castellano,0.0,Inglés,7.0,4.0,3.0,yes,yes,yes,Violín,6,,,"Me ha resultado dificil sobretodo la tercera Tarea, reconocer si el fragmento era o no correspondiente al lenguaje. También clasificarlo del 1 al 7 mi decisión.Ha sido genial! ",55.0,yes
128,2023-11-19_21h25.14.243,Unsyncopated1,s79,21.0,masculino,right,España,Catalán y Castellano,Upper secondary,no,no,B,1,when,L3,unsyncopated,when,when,128,Online_whenL3//b.ñe15.none.wav,je,di,li,sil,ji,ko,sa,sil1,mo,ga,sil2,['-'],,,none,none,,,,ñe,2,,,,,,,,,,,,,,,3 ,2.0,Catalán,0.0,Castellano,0.0,Inglés,7.0,4.0,3.0,yes,yes,yes,Violín,6,,,"Me ha resultado dificil sobretodo la tercera Tarea, reconocer si el fragmento era o no correspondiente al lenguaje. También clasificarlo del 1 al 7 mi decisión.Ha sido genial! ",55.0,yes
129,2023-11-19_21h25.14.243,Unsyncopated1,s79,21.0,masculino,right,España,Catalán y Castellano,Upper secondary,no,no,B,1,when,L3,unsyncopated,when,when,129,Online_whenL3//b.ñe14.1776.wav,do,je,ko,sil,fu,gu,chu,sil1,ñe,ka,sil2,['catch'],[2.2762000000179796],[2.2762000000179796],1.776,beat,0.5002000000179796,0.5002000000179796,"[""space""]",ñe,2,,,,,,,,,,,,,,,3 ,2.0,Catalán,0.0,Castellano,0.0,Inglés,7.0,4.0,3.0,yes,yes,yes,Violín,6,,,"Me ha resultado dificil sobretodo la tercera Tarea, reconocer si el fragmento era o no correspondiente al lenguaje. También clasificarlo del 1 al 7 mi decisión.Ha sido genial! ",55.0,yes
130,2023-11-19_21h25.14.243,Unsyncopated1,s79,21.0,masculino,right,España,Catalán y Castellano,Upper secondary,no,no,B,1,when,L3,unsyncopated,when,when,130,Online_whenL3//b.ñe12.none.wav,ji,li,je,sil,mo,ka,chu,sil1,fu,ko,sil2,['-'],,,none,none,,,,ñe,2,,,,,,,,,,,,,,,3 ,2.0,Catalán,0.0,Castellano,0.0,Inglés,7.0,4.0,3.0,yes,yes,yes,Violín,6,,,"Me ha resultado dificil sobretodo la tercera Tarea, reconocer si el fragmento era o no correspondiente al lenguaje. También clasificarlo del 1 al 7 mi decisión.Ha sido genial! ",55.0,yes
131,2023-11-19_21h25.14.243,Unsyncopated1,s79,21.0,masculino,right,España,Catalán y Castellano,Upper secondary,no,no,B,1,when,L3,unsyncopated,when,when,131,Online_whenL3//b.ñe13.none.wav,chu,ka,le,sil,ko,je,mo,sil1,fu,di,sil2,['-'],,,none,none,,,,ñe,2,,,,,,,,,,,,,,,3 ,2.0,Catalán,0.0,Castellano,0.0,Inglés,7.0,4.0,3.0,yes,yes,yes,Violín,6,,,"Me ha resultado dificil sobretodo la tercera Tarea, reconocer si el fragmento era o no correspondiente al lenguaje. También clasificarlo del 1 al 7 mi decisión.Ha sido genial! ",55.0,yes
132,2023-11-19_21h25.14.243,Unsyncopated1,s79,21.0,masculino,right,España,Catalán y Castellano,Upper secondary,no,no,B,1,when,L3,unsyncopated,when,when,132,Online_whenL3//b.ñe22.none.wav,fu,li,ko,sil,mo,je,le,sil1,sa,ka,sil2,['-'],,,none,none,,,,ñe,2,,,,,,,,,,,,,,,3 ,2.0,Catalán,0.0,Castellano,0.0,Inglés,7.0,4.0,3.0,yes,yes,yes,Violín,6,,,"Me ha resultado dificil sobretodo la tercera Tarea, reconocer si el fragmento era o no correspondiente al lenguaje. También clasificarlo del 1 al 7 mi decisión.Ha sido genial! ",55.0,yes
133,2023-11-19_21h25.14.243,Unsyncopated1,s79,21.0,masculino,right,España,Catalán y Castellano,Upper secondary,no,no,B,1,when,L3,unsyncopated,when,when,133,Online_whenL3//b.ñe21.1998.wav,gu,li,le,sil,fu,do,di,sil1,sa,ñe,sil2,['miss'],,,1.998,no_beat,,,,ñe,2,,,,,,,,,,,,,,,3 ,2.0,Catalán,0.0,Castellano,0.0,Inglés,7.0,4.0,3.0,yes,yes,yes,Violín,6,,,"Me ha resultado dificil sobretodo la tercera Tarea, reconocer si el fragmento era o no correspondiente al lenguaje. También clasificarlo del 1 al 7 mi decisión.Ha sido genial! ",55.0,yes
134,2023-11-19_21h25.14.243,Unsyncopated1,s79,21.0,masculino,right,España,Catalán y Castellano,Upper secondary,no,no,B,1,when,L3,unsyncopated,when,when,134,Online_whenL3//b.ñe23.1776.wav,je,ka,ji,sil,mo,gu,do,sil1,ñe,le,sil2,['catch'],[2.39530000001173],[2.39530000001173],1.776,beat,0.6193000000117299,0.6193000000117299,"[""space""]",ñe,2,,,,,,,,,,,,,,,3 ,2.0,Catalán,0.0,Castellano,0.0,Inglés,7.0,4.0,3.0,yes,yes,yes,Violín,6,,,"Me ha resultado dificil sobretodo la tercera Tarea, reconocer si el fragmento era o no correspondiente al lenguaje. También clasificarlo del 1 al 7 mi decisión.Ha sido genial! ",55.0,yes
135,2023-11-19_21h25.14.243,Unsyncopated1,s79,21.0,masculino,right,España,Catalán y Castellano,Upper secondary,no,no,B,1,when,L3,unsyncopated,when,when,135,Online_whenL3//b.ñe20.none.wav,li,gu,di,sil,ko,ka,ga,sil1,sa,chu,sil2,['-'],,,none,none,,,,ñe,2,,,,,,,,,,,,,,,3 ,2.0,Catalán,0.0,Castellano,0.0,Inglés,7.0,4.0,3.0,yes,yes,yes,Violín,6,,,"Me ha resultado dificil sobretodo la tercera Tarea, reconocer si el fragmento era o no correspondiente al lenguaje. También clasificarlo del 1 al 7 mi decisión.Ha sido genial! ",55.0,yes
136,2023-11-19_21h25.14.243,Unsyncopated1,s79,21.0,masculino,right,España,Catalán y Castellano,Upper secondary,no,no,B,2,conjunction_un,L1,unsyncopated,s1,r2,0,Online_conjL1_un//d.ne.ni14.222.1332.wav,ta,ne,ri,sil,be,fa,ni,sil1,cho,ro,sil2,['catch'],[1.8851999999881173],[1.8851999999881173],1.332,no_beat,0.5531999999881172,0.5531999999881172,"[""space""]",ni,4,,,,,,,,,,,,,,,3 ,2.0,Catalán,0.0,Castellano,0.0,Inglés,7.0,4.0,3.0,yes,yes,yes,Violín,6,,,"Me ha resultado dificil sobretodo la tercera Tarea, reconocer si el fragmento era o no correspondiente al lenguaje. También clasificarlo del 1 al 7 mi decisión.Ha sido genial! ",55.0,yes
137,2023-11-19_21h25.14.243,Unsyncopated1,s79,21.0,masculino,right,España,Catalán y Castellano,Upper secondary,no,no,B,2,conjunction_un,L1,unsyncopated,s1,r1,1,Online_conjL1_un//d.ne.ni12.1332.444.wav,pu,fo,ni,sil,ki,ri,ne,sil1,fa,zu,sil2,['catch'],[0.9477999999819531],[0.9477999999819531],0.444,no_beat,0.5037999999819531,0.5037999999819531,"[""space""]",ni,4,,,,,,,,,,,,,,,3 ,2.0,Catalán,0.0,Castellano,0.0,Inglés,7.0,4.0,3.0,yes,yes,yes,Violín,6,,,"Me ha resultado dificil sobretodo la tercera Tarea, reconocer si el fragmento era o no correspondiente al lenguaje. También clasificarlo del 1 al 7 mi decisión.Ha sido genial! ",55.0,yes
138,2023-11-19_21h25.14.243,Unsyncopated1,s79,21.0,masculino,right,España,Catalán y Castellano,Upper secondary,no,no,B,2,conjunction_un,L1,unsyncopated,s1,r1,2,Online_conjL1_un//d.ne.ni15.222.1110.wav,pu,ne,ze,sil,ki,ni,cho,sil1,lu,zu,sil2,['miss'],,,1.11,no_beat,,,,ni,4,,,,,,,,,,,,,,,3 ,2.0,Catalán,0.0,Castellano,0.0,Inglés,7.0,4.0,3.0,yes,yes,yes,Violín,6,,,"Me ha resultado dificil sobretodo la tercera Tarea, reconocer si el fragmento era o no correspondiente al lenguaje. También clasificarlo del 1 al 7 mi decisión.Ha sido genial! ",55.0,yes
139,2023-11-19_21h25.14.243,Unsyncopated1,s79,21.0,masculino,right,España,Catalán y Castellano,Upper secondary,no,no,B,2,conjunction_un,L1,unsyncopated,s1,r2,3,Online_conjL1_un//d.ne.ni13.none.none.wav,ta,ri,fa,sil,be,fo,ze,sil1,ro,zu,sil2,['-'],,,none,none,,,,ni,4,,,,,,,,,,,,,,,3 ,2.0,Catalán,0.0,Castellano,0.0,Inglés,7.0,4.0,3.0,yes,yes,yes,Violín,6,,,"Me ha resultado dificil sobretodo la tercera Tarea, reconocer si el fragmento era o no correspondiente al lenguaje. También clasificarlo del 1 al 7 mi decisión.Ha sido genial! ",55.0,yes
140,2023-11-19_21h25.14.243,Unsyncopated1,s79,21.0,masculino,right,España,Catalán y Castellano,Upper secondary,no,no,B,2,conjunction_un,L1,unsyncopated,s2,r1,4,Online_conjL1_un//a.pu.ki22.888.1776.wav,la,ze,zu,sil,pu,ne,cho,sil1,ki,ri,sil2,['catch'],[1.4297999999821513],[1.4297999999821513],0.888,beat,0.5417999999821513,0.5417999999821513,"[""space""]",pu,1,,,,,,,,,,,,,,,3 ,2.0,Catalán,0.0,Castellano,0.0,Inglés,7.0,4.0,3.0,yes,yes,yes,Violín,6,,,"Me ha resultado dificil sobretodo la tercera Tarea, reconocer si el fragmento era o no correspondiente al lenguaje. También clasificarlo del 1 al 7 mi decisión.Ha sido genial! ",55.0,yes
141,2023-11-19_21h25.14.243,Unsyncopated1,s79,21.0,masculino,right,España,Catalán y Castellano,Upper secondary,no,no,B,2,conjunction_un,L1,unsyncopated,s2,r1,5,Online_conjL1_un//a.pu.ki21.888.1776.wav,zu,ri,ni,sil,pu,lu,fa,sil1,ki,ro,sil2,['catch'],[1.4880999999941196],[1.4880999999941196],0.888,beat,0.6000999999941196,0.6000999999941196,"[""space""]",pu,1,,,,,,,,,,,,,,,3 ,2.0,Catalán,0.0,Castellano,0.0,Inglés,7.0,4.0,3.0,yes,yes,yes,Violín,6,,,"Me ha resultado dificil sobretodo la tercera Tarea, reconocer si el fragmento era o no correspondiente al lenguaje. También clasificarlo del 1 al 7 mi decisión.Ha sido genial! ",55.0,yes
142,2023-11-19_21h25.14.243,Unsyncopated1,s79,21.0,masculino,right,España,Catalán y Castellano,Upper secondary,no,no,B,2,conjunction_un,L1,unsyncopated,s1,r1,6,Online_conjL1_un//a.pu.ki23.0.888.wav,pu,la,ze,sil,ki,cho,fo,sil1,ne,zu,sil2,['catch'],[0.3858000000118409],[0.3858000000118409],0.0,beat,0.3858000000118409,0.3858000000118409,"[""space""]",pu,1,,,,,,,,,,,,,,,3 ,2.0,Catalán,0.0,Castellano,0.0,Inglés,7.0,4.0,3.0,yes,yes,yes,Violín,6,,,"Me ha resultado dificil sobretodo la tercera Tarea, reconocer si el fragmento era o no correspondiente al lenguaje. También clasificarlo del 1 al 7 mi decisión.Ha sido genial! ",55.0,yes
143,2023-11-19_21h25.14.243,Unsyncopated1,s79,21.0,masculino,right,España,Catalán y Castellano,Upper secondary,no,no,B,2,conjunction_un,L1,unsyncopated,s1,r2,7,Online_conjL1_un//a.pu.ki20.none.none.wav,ta,ni,ze,sil,be,ri,ne,sil1,cho,fo,sil2,['-'],,,none,none,,,,pu,1,,,,,,,,,,,,,,,3 ,2.0,Catalán,0.0,Castellano,0.0,Inglés,7.0,4.0,3.0,yes,yes,yes,Violín,6,,,"Me ha resultado dificil sobretodo la tercera Tarea, reconocer si el fragmento era o no correspondiente al lenguaje. También clasificarlo del 1 al 7 mi decisión.Ha sido genial! ",55.0,yes
144,2023-11-19_21h25.14.243,Unsyncopated1,s79,21.0,masculino,right,España,Catalán y Castellano,Upper secondary,no,no,B,2,conjunction_un,L1,unsyncopated,s2,r2,8,Online_conjL1_un//d.ne.ni21.none.none.wav,lu,ro,ze,sil,ta,fo,cho,sil1,be,zu,sil2,['-'],,,none,none,,,,ni,4,,,,,,,,,,,,,,,3 ,2.0,Catalán,0.0,Castellano,0.0,Inglés,7.0,4.0,3.0,yes,yes,yes,Violín,6,,,"Me ha resultado dificil sobretodo la tercera Tarea, reconocer si el fragmento era o no correspondiente al lenguaje. También clasificarlo del 1 al 7 mi decisión.Ha sido genial! ",55.0,yes
145,2023-11-19_21h25.14.243,Unsyncopated1,s79,21.0,masculino,right,España,Catalán y Castellano,Upper secondary,no,no,B,2,conjunction_un,L1,unsyncopated,s1,r1,9,Online_conjL1_un//d.ne.ni22.none.none.wav,pu,cho,la,sil,ki,ro,ze,sil1,ri,lu,sil2,['-'],,,none,none,,,,ni,4,,,,,,,,,,,,,,,3 ,2.0,Catalán,0.0,Castellano,0.0,Inglés,7.0,4.0,3.0,yes,yes,yes,Violín,6,,,"Me ha resultado dificil sobretodo la tercera Tarea, reconocer si el fragmento era o no correspondiente al lenguaje. También clasificarlo del 1 al 7 mi decisión.Ha sido genial! ",55.0,yes
146,2023-11-19_21h25.14.243,Unsyncopated1,s79,21.0,masculino,right,España,Catalán y Castellano,Upper secondary,no,no,B,2,conjunction_un,L1,unsyncopated,s1,r1,10,Online_conjL1_un//d.ne.ni20.1110.1332.wav,pu,ro,fa,sil,ki,ne,ni,sil1,cho,fo,sil2,['catch'],[1.9535000000000764],[1.9535000000000764],1.332,no_beat,0.6215000000000763,0.6215000000000763,"[""space""]",ni,4,,,,,,,,,,,,,,,3 ,2.0,Catalán,0.0,Castellano,0.0,Inglés,7.0,4.0,3.0,yes,yes,yes,Violín,6,,,"Me ha resultado dificil sobretodo la tercera Tarea, reconocer si el fragmento era o no correspondiente al lenguaje. También clasificarlo del 1 al 7 mi decisión.Ha sido genial! ",55.0,yes
147,2023-11-19_21h25.14.243,Unsyncopated1,s79,21.0,masculino,right,España,Catalán y Castellano,Upper secondary,no,no,B,2,conjunction_un,L1,unsyncopated,s1,r1,11,Online_conjL1_un//d.ne.ni23.1110.222.wav,pu,ni,ro,sil,ki,ne,lu,sil1,zu,fa,sil2,['catch'],[0.9482000000180051],[0.9482000000180051],0.222,no_beat,0.7262000000180051,0.7262000000180051,"[""space""]",ni,4,,,,,,,,,,,,,,,3 ,2.0,Catalán,0.0,Castellano,0.0,Inglés,7.0,4.0,3.0,yes,yes,yes,Violín,6,,,"Me ha resultado dificil sobretodo la tercera Tarea, reconocer si el fragmento era o no correspondiente al lenguaje. También clasificarlo del 1 al 7 mi decisión.Ha sido genial! ",55.0,yes
148,2023-11-19_21h25.14.243,Unsyncopated1,s79,21.0,masculino,right,España,Catalán y Castellano,Upper secondary,no,no,B,2,conjunction_un,L1,unsyncopated,s1,r2,12,Online_conjL1_un//a.pu.ki24.none.none.wav,ta,lu,ri,sil,be,la,zu,sil1,fa,ze,sil2,['-'],,,none,none,,,,pu,1,,,,,,,,,,,,,,,3 ,2.0,Catalán,0.0,Castellano,0.0,Inglés,7.0,4.0,3.0,yes,yes,yes,Violín,6,,,"Me ha resultado dificil sobretodo la tercera Tarea, reconocer si el fragmento era o no correspondiente al lenguaje. También clasificarlo del 1 al 7 mi decisión.Ha sido genial! ",55.0,yes
149,2023-11-19_21h25.14.243,Unsyncopated1,s79,21.0,masculino,right,España,Catalán y Castellano,Upper secondary,no,no,B,2,conjunction_un,L1,unsyncopated,s1,r2,13,Online_conjL1_un//a.pu.ki25.none.none.wav,ta,lu,la,sil,be,cho,ro,sil1,ni,zu,sil2,['-'],,,none,none,,,,pu,1,,,,,,,,,,,,,,,3 ,2.0,Catalán,0.0,Castellano,0.0,Inglés,7.0,4.0,3.0,yes,yes,yes,Violín,6,,,"Me ha resultado dificil sobretodo la tercera Tarea, reconocer si el fragmento era o no correspondiente al lenguaje. También clasificarlo del 1 al 7 mi decisión.Ha sido genial! ",55.0,yes
150,2023-11-19_21h25.14.243,Unsyncopated1,s79,21.0,masculino,right,España,Catalán y Castellano,Upper secondary,no,no,B,2,conjunction_un,L1,unsyncopated,s2,r1,14,Online_conjL1_un//a.pu.ki26.888.1776.wav,zu,ze,cho,sil,pu,ni,ne,sil1,ki,fo,sil2,['catch'],[1.2750999999939268],[1.2750999999939268],0.888,beat,0.3870999999939267,0.3870999999939267,"[""space""]",pu,1,,,,,,,,,,,,,,,3 ,2.0,Catalán,0.0,Castellano,0.0,Inglés,7.0,4.0,3.0,yes,yes,yes,Violín,6,,,"Me ha resultado dificil sobretodo la tercera Tarea, reconocer si el fragmento era o no correspondiente al lenguaje. También clasificarlo del 1 al 7 mi decisión.Ha sido genial! ",55.0,yes
151,2023-11-19_21h25.14.243,Unsyncopated1,s79,21.0,masculino,right,España,Catalán y Castellano,Upper secondary,no,no,B,2,conjunction_un,L1,unsyncopated,s1,r2,15,Online_conjL1_un//a.pu.ki27.none.none.wav,ta,fa,ro,sil,be,ze,ni,sil1,lu,fo,sil2,['-'],,,none,none,,,,pu,1,,,,,,,,,,,,,,,3 ,2.0,Catalán,0.0,Castellano,0.0,Inglés,7.0,4.0,3.0,yes,yes,yes,Violín,6,,,"Me ha resultado dificil sobretodo la tercera Tarea, reconocer si el fragmento era o no correspondiente al lenguaje. También clasificarlo del 1 al 7 mi decisión.Ha sido genial! ",55.0,yes
152,2023-11-19_21h25.14.243,Unsyncopated1,s79,21.0,masculino,right,España,Catalán y Castellano,Upper secondary,no,no,B,2,conjunction_un,L1,unsyncopated,s1,r2,16,Online_conjL1_un//c.ro.fo10.none.none.wav,ta,zu,cho,sil,be,ze,la,sil1,ne,lu,sil2,['-'],,,none,none,,,,fo,3,,,,,,,,,,,,,,,3 ,2.0,Catalán,0.0,Castellano,0.0,Inglés,7.0,4.0,3.0,yes,yes,yes,Violín,6,,,"Me ha resultado dificil sobretodo la tercera Tarea, reconocer si el fragmento era o no correspondiente al lenguaje. También clasificarlo del 1 al 7 mi decisión.Ha sido genial! ",55.0,yes
153,2023-11-19_21h25.14.243,Unsyncopated1,s79,21.0,masculino,right,España,Catalán y Castellano,Upper secondary,no,no,B,2,conjunction_un,L1,unsyncopated,s2,r1,17,Online_conjL1_un//c.ro.fo9.1332.444.wav,ri,ze,fo,sil,pu,fa,ro,sil1,ki,ne,sil2,['miss'],,,0.444,no_beat,,,,fo,3,,,,,,,,,,,,,,,3 ,2.0,Catalán,0.0,Castellano,0.0,Inglés,7.0,4.0,3.0,yes,yes,yes,Violín,6,,,"Me ha resultado dificil sobretodo la tercera Tarea, reconocer si el fragmento era o no correspondiente al lenguaje. También clasificarlo del 1 al 7 mi decisión.Ha sido genial! ",55.0,yes
154,2023-11-19_21h25.14.243,Unsyncopated1,s79,21.0,masculino,right,España,Catalán y Castellano,Upper secondary,no,no,B,2,conjunction_un,L1,unsyncopated,s2,r2,18,Online_conjL1_un//c.ro.fo8.none.none.wav,ni,cho,ri,sil,ta,la,ze,sil1,be,zu,sil2,['-'],,,none,none,,,,fo,3,,,,,,,,,,,,,,,3 ,2.0,Catalán,0.0,Castellano,0.0,Inglés,7.0,4.0,3.0,yes,yes,yes,Violín,6,,,"Me ha resultado dificil sobretodo la tercera Tarea, reconocer si el fragmento era o no correspondiente al lenguaje. También clasificarlo del 1 al 7 mi decisión.Ha sido genial! ",55.0,yes
155,2023-11-19_21h25.14.243,Unsyncopated1,s79,21.0,masculino,right,España,Catalán y Castellano,Upper secondary,no,no,B,2,conjunction_un,L1,unsyncopated,s1,r2,19,Online_conjL1_un//c.ro.fo11.none.none.wav,ta,lu,la,sil,be,fa,ne,sil1,ze,ni,sil2,['-'],,,none,none,,,,fo,3,,,,,,,,,,,,,,,3 ,2.0,Catalán,0.0,Castellano,0.0,Inglés,7.0,4.0,3.0,yes,yes,yes,Violín,6,,,"Me ha resultado dificil sobretodo la tercera Tarea, reconocer si el fragmento era o no correspondiente al lenguaje. También clasificarlo del 1 al 7 mi decisión.Ha sido genial! ",55.0,yes
156,2023-11-19_21h25.14.243,Unsyncopated1,s79,21.0,masculino,right,España,Catalán y Castellano,Upper secondary,no,no,B,2,conjunction_un,L1,unsyncopated,s2,r2,20,Online_conjL1_un//d.ne.ni7.none.none.wav,cho,ro,la,sil,ta,ze,fa,sil1,be,lu,sil2,['-'],,,none,none,,,,ni,4,,,,,,,,,,,,,,,3 ,2.0,Catalán,0.0,Castellano,0.0,Inglés,7.0,4.0,3.0,yes,yes,yes,Violín,6,,,"Me ha resultado dificil sobretodo la tercera Tarea, reconocer si el fragmento era o no correspondiente al lenguaje. También clasificarlo del 1 al 7 mi decisión.Ha sido genial! ",55.0,yes
157,2023-11-19_21h25.14.243,Unsyncopated1,s79,21.0,masculino,right,España,Catalán y Castellano,Upper secondary,no,no,B,2,conjunction_un,L1,unsyncopated,s1,r2,21,Online_conjL1_un//d.ne.ni5.1332.444.wav,ta,fa,ni,sil,be,cho,ne,sil1,ri,lu,sil2,['catch'],[0.9878999999762073],[0.9878999999762073],0.444,no_beat,0.5438999999762073,0.5438999999762073,"[""space""]",ni,4,,,,,,,,,,,,,,,3 ,2.0,Catalán,0.0,Castellano,0.0,Inglés,7.0,4.0,3.0,yes,yes,yes,Violín,6,,,"Me ha resultado dificil sobretodo la tercera Tarea, reconocer si el fragmento era o no correspondiente al lenguaje. También clasificarlo del 1 al 7 mi decisión.Ha sido genial! ",55.0,yes
