Unnamed: 0,date,expName,participant,age,sex,hand,residence,native_lang,education_level,lang_deficit,aud_deficit,group,block,condition,language,rhythm,rule structure online,rule type online,order_trial_on,trial_online,s1,s2,s3,s4,s5,s6,s7,s8,s9,s10,s11,catch_syll_resp,rts_syll_catch,clean_rts,time_syll,beat_no_beat,catch_rtsTR,catch_rts,syllable_catch.keys,cond_syll,syll_to_catch,test_offline,block_off,condition_off,rhythm_off,rule,rule_str_off,rule_norule,conds_offline,language_off,Partz_no_partm.keys,Partz_no_partm.rt,security_1_7.keys,accuracy,security_1_7.rt,n_lang,n_lang_used,lang_1,age_l1,lang_2,age_l2,lang_3,age_l3,ability_learn_l2,tendence_mix_lan,music_experience,muisc_use,partiture,instr_1,age_M1,instr_2,age_M2,instr_3,age_M3,preguntas_musica1,BMRQ_answer.response,final comment,BMRQ_Score,bilingual
0,2024-05-09_00h08.26.996,Unsyncopated_study3,s149,36.0,masculino,left,España,Español y catalán.,Secondary,no,no,B,1,conjunction_syn,L2,syncopated,s1,r1,0,Online_conjL2_syn//d.si.ñu0.1554.1110.wav,go,su,bi,du,sil,ñu,ba,si,sil1,ño,sil2,['catch'],[1.852999999999156],[1.852999999999156],1.11,no_beat,0.7429999999991559,0.7429999999991559,"[""space""]",ñu,4,testConjL2Syn//cat_viol.r1.s2.0.wav,1.0,conjunction_syn,syncopated,a,s2,no_rule,cat,L2,z,1.602,7.0,0.0,1.688,3.0,3.0,Español,0.0,Catalán,0.0,Inglés,6.0,4.0,2.0,yes,no,yes,Flauta,6,Violín,6,Guitarra,6,1. Cuando comparto música con alguien siento una complicidad especial con aquella persona.,3.0,nada ,54.0,yes
1,2024-05-09_00h08.26.996,Unsyncopated_study3,s149,36.0,masculino,left,España,Español y catalán.,Secondary,no,no,B,1,conjunction_syn,L2,syncopated,s1,r1,1,Online_conjL2_syn//d.si.ñu3.none.none.wav,go,to,cha,du,sil,bi,te,mi,sil1,ño,sil2,['-'],,,none,none,,,,ñu,4,testConjL2Syn//dep_viol.r2.s2.0.wav,1.0,conjunction_syn,syncopated,b,s2,no_rule,dep,L2,z,2.099,6.0,0.0,1.642,3.0,3.0,Español,0.0,Catalán,0.0,Inglés,6.0,4.0,2.0,yes,no,yes,Flauta,6,Violín,6,Guitarra,6,2. En mi tiempo libre apenas escucho música.,5.0,nada ,54.0,yes
2,2024-05-09_00h08.26.996,Unsyncopated_study3,s149,36.0,masculino,left,España,Español y catalán.,Secondary,no,no,B,1,conjunction_syn,L2,syncopated,s1,r1,2,Online_conjL2_syn//d.si.ñu1.none.none.wav,go,te,ba,du,sil,bi,mi,me,sil1,to,sil2,['-'],,,none,none,,,,ñu,4,testConjL2Syn//r1.s1.1.wav,1.0,conjunction_syn,syncopated,a,s1,rule,rule,L2,z,1.76,7.0,1.0,2.128,3.0,3.0,Español,0.0,Catalán,0.0,Inglés,6.0,4.0,2.0,yes,no,yes,Flauta,6,Violín,6,Guitarra,6,3. Algunas canciones me ponen los pelos de punta,0.0,nada ,54.0,yes
3,2024-05-09_00h08.26.996,Unsyncopated_study3,s149,36.0,masculino,left,España,Español y catalán.,Secondary,no,no,B,1,conjunction_syn,L2,syncopated,s1,r2,3,Online_conjL2_syn//d.si.ñu2.none.none.wav,fe,bi,me,ra,sil,te,mi,to,sil1,cha,sil2,['-'],,,none,none,,,,ñu,4,testConjL2Syn//r1.s1.0.wav,1.0,conjunction_syn,syncopated,a,s1,rule,rule,L2,m,4.037,5.0,0.0,1.794,3.0,3.0,Español,0.0,Catalán,0.0,Inglés,6.0,4.0,2.0,yes,no,yes,Flauta,6,Violín,6,Guitarra,6,4. La música me hace compañía cuando estoy solo,4.0,nada ,54.0,yes
4,2024-05-09_00h08.26.996,Unsyncopated_study3,s149,36.0,masculino,left,España,Español y catalán.,Secondary,no,no,B,1,conjunction_syn,L2,syncopated,s2,r1,4,Online_conjL2_syn//c.cha.me16.none.none.wav,mi,ñu,ba,go,sil,to,ño,du,sil1,si,sil2,['-'],,,none,none,,,,me,3,testConjL2Syn//cat_viol.r1.s1.0.wav,1.0,conjunction_syn,syncopated,a,s1,no_rule,cat,L2,m,5.813,4.0,1.0,1.894,3.0,3.0,Español,0.0,Catalán,0.0,Inglés,6.0,4.0,2.0,yes,no,yes,Flauta,6,Violín,6,Guitarra,6,5. No me apetece bailar ni con la música que más me gusta,4.0,nada ,54.0,yes
5,2024-05-09_00h08.26.996,Unsyncopated_study3,s149,36.0,masculino,left,España,Español y catalán.,Secondary,no,no,B,1,conjunction_syn,L2,syncopated,s1,r1,5,Online_conjL2_syn//c.cha.me18.1332.222.wav,go,me,to,du,sil,te,cha,mi,sil1,si,sil2,['catch'],[1.065999999998894],[1.065999999998894],0.222,no_beat,0.8439999999988941,0.8439999999988941,"[""space""]",me,3,testConjL2Syn//time_viol.r2.s1.0.wav,1.0,conjunction_syn,syncopated,b,s1,no_rule,time,L2,z,1.124,6.0,0.0,1.391,3.0,3.0,Español,0.0,Catalán,0.0,Inglés,6.0,4.0,2.0,yes,no,yes,Flauta,6,Violín,6,Guitarra,6,6. La música me hace conectar con la gente,3.0,nada ,54.0,yes
6,2024-05-09_00h08.26.996,Unsyncopated_study3,s149,36.0,masculino,left,España,Español y catalán.,Secondary,no,no,B,1,conjunction_syn,L2,syncopated,s1,r2,6,Online_conjL2_syn//c.cha.me17.1110.222.wav,fe,me,ñu,ra,sil,cha,ba,mi,sil1,te,sil2,['catch'],[2.0750000000007276],[2.0750000000007276],0.222,no_beat,,1.853000000000728,"[""space""]",me,3,testConjL2Syn//r1.s2.0.wav,1.0,conjunction_syn,syncopated,a,s2,rule,rule,L2,z,1.22,6.0,1.0,1.175,3.0,3.0,Español,0.0,Catalán,0.0,Inglés,6.0,4.0,2.0,yes,no,yes,Flauta,6,Violín,6,Guitarra,6,7. Me informo sobre la música que me gusta.,2.0,nada ,54.0,yes
7,2024-05-09_00h08.26.996,Unsyncopated_study3,s149,36.0,masculino,left,España,Español y catalán.,Secondary,no,no,B,1,conjunction_syn,L2,syncopated,s2,r1,7,Online_conjL2_syn//c.cha.me19.none.none.wav,te,ño,ba,go,sil,ñu,si,du,sil1,bi,sil2,['-'],,,none,none,,,,me,3,testConjL2Syn//r1.s2.2.wav,1.0,conjunction_syn,syncopated,a,s2,rule,rule,L2,m,1.275,4.0,0.0,3.337,3.0,3.0,Español,0.0,Catalán,0.0,Inglés,6.0,4.0,2.0,yes,no,yes,Flauta,6,Violín,6,Guitarra,6,8.Me emociono escuchando ciertas canciones.,3.0,nada ,54.0,yes
8,2024-05-09_00h08.26.996,Unsyncopated_study3,s149,36.0,masculino,left,España,Español y catalán.,Secondary,no,no,B,1,conjunction_syn,L2,syncopated,s2,r2,8,Online_conjL2_syn//a.go.du20.none.none.wav,to,ba,me,fe,sil,su,te,ra,sil1,ñu,sil2,['-'],,,none,none,,,,go,1,testConjL2Syn//dep_viol.r1.s2.0.wav,1.0,conjunction_syn,syncopated,a,s2,no_rule,dep,L2,z,2.759,3.0,0.0,7.139,3.0,3.0,Español,0.0,Catalán,0.0,Inglés,6.0,4.0,2.0,yes,no,yes,Flauta,6,Violín,6,Guitarra,6,9.La música me tranquiliza y me relaja.,3.0,nada ,54.0,yes
9,2024-05-09_00h08.26.996,Unsyncopated_study3,s149,36.0,masculino,left,España,Español y catalán.,Secondary,no,no,B,1,conjunction_syn,L2,syncopated,s2,r2,9,Online_conjL2_syn//a.go.du21.none.none.wav,cha,te,to,fe,sil,si,ba,ra,sil1,bi,sil2,['-'],,,none,none,,,,go,1,testConjL2Syn//r2.s2.1.wav,1.0,conjunction_syn,syncopated,b,s2,rule,rule,L2,m,1.174,6.0,0.0,1.573,3.0,3.0,Español,0.0,Catalán,0.0,Inglés,6.0,4.0,2.0,yes,no,yes,Flauta,6,Violín,6,Guitarra,6,10.La música me hace bailar,3.0,nada ,54.0,yes
10,2024-05-09_00h08.26.996,Unsyncopated_study3,s149,36.0,masculino,left,España,Español y catalán.,Secondary,no,no,B,1,conjunction_syn,L2,syncopated,s1,r1,10,Online_conjL2_syn//a.go.du23.0.666.wav,go,te,ba,du,sil,bi,si,su,sil1,ñu,sil2,['catch'],[0.43100000000049477],[0.43100000000049477],0.0,beat,0.4310000000004947,0.4310000000004947,"[""space""]",go,1,testConjL2Syn//dep_viol.r2.s1.0.wav,1.0,conjunction_syn,syncopated,b,s1,no_rule,dep,L2,z,1.449,5.0,0.0,1.995,3.0,3.0,Español,0.0,Catalán,0.0,Inglés,6.0,4.0,2.0,yes,no,yes,Flauta,6,Violín,6,Guitarra,6,11.Busco novedades musicales continuamente,1.0,nada ,54.0,yes
11,2024-05-09_00h08.26.996,Unsyncopated_study3,s149,36.0,masculino,left,España,Español y catalán.,Secondary,no,no,B,1,conjunction_syn,L2,syncopated,s2,r2,11,Online_conjL2_syn//a.go.du22.none.none.wav,to,cha,mi,fe,sil,bi,ba,ra,sil1,si,sil2,['-'],,,none,none,,,,go,1,testConjL2Syn//r2.s1.2.wav,1.0,conjunction_syn,syncopated,b,s1,rule,rule,L2,z,1.36,5.0,1.0,1.323,3.0,3.0,Español,0.0,Catalán,0.0,Inglés,6.0,4.0,2.0,yes,no,yes,Flauta,6,Violín,6,Guitarra,6,12. Puedo llorar cuando escucho algunas melodías que me gustan mucho.,1.0,nada ,54.0,yes
12,2024-05-09_00h08.26.996,Unsyncopated_study3,s149,36.0,masculino,left,España,Español y catalán.,Secondary,no,no,B,1,conjunction_syn,L2,syncopated,s2,r1,12,Online_conjL2_syn//d.si.ñu22.1332.222.wav,ba,ñu,me,go,sil,ño,si,du,sil1,te,sil2,['miss'],,,0.222,no_beat,,,,ñu,4,testConjL2Syn//r1.s2.1.wav,1.0,conjunction_syn,syncopated,a,s2,rule,rule,L2,z,0.989,6.0,1.0,4.34,3.0,3.0,Español,0.0,Catalán,0.0,Inglés,6.0,4.0,2.0,yes,no,yes,Flauta,6,Violín,6,Guitarra,6,13. Me gusta cantar o tocar un instrumento con más gente,3.0,nada ,54.0,yes
13,2024-05-09_00h08.26.996,Unsyncopated_study3,s149,36.0,masculino,left,España,Español y catalán.,Secondary,no,no,B,1,conjunction_syn,L2,syncopated,s2,r2,13,Online_conjL2_syn//d.si.ñu23.0.444.wav,si,su,ñu,fe,sil,mi,ño,ra,sil1,cha,sil2,['miss'],,,0.444,no_beat,,,,ñu,4,testConjL2Syn//dep_viol.r1.s1.0.wav,1.0,conjunction_syn,syncopated,a,s1,no_rule,dep,L2,m,23.964,5.0,1.0,1.401,3.0,3.0,Español,0.0,Catalán,0.0,Inglés,6.0,4.0,2.0,yes,no,yes,Flauta,6,Violín,6,Guitarra,6,14. La música me ayuda a desconectar.,4.0,nada ,54.0,yes
14,2024-05-09_00h08.26.996,Unsyncopated_study3,s149,36.0,masculino,left,España,Español y catalán.,Secondary,no,no,B,1,conjunction_syn,L2,syncopated,s2,r1,14,Online_conjL2_syn//d.si.ñu20.1110.0.wav,ñu,ño,mi,go,sil,si,to,du,sil1,me,sil2,"['catch', 'false alarm', 'false alarm']","[0.5449999999982538, 0.797999999998865, 1.0029999999969732]",[0.5449999999982538],0.0,beat,0.5449999999982538,0.5449999999982538,"[""space"",""space"",""space""]",ñu,4,testConjL2Syn//cat_viol.r2.s2.0.wav,1.0,conjunction_syn,syncopated,b,s2,no_rule,cat,L2,z,1.694,7.0,0.0,3.184,3.0,3.0,Español,0.0,Catalán,0.0,Inglés,6.0,4.0,2.0,yes,no,yes,Flauta,6,Violín,6,Guitarra,6,15. No puedo evitar tararear las canciones que me gustan cuando las escucho.,3.0,nada ,54.0,yes
15,2024-05-09_00h08.26.996,Unsyncopated_study3,s149,36.0,masculino,left,España,Español y catalán.,Secondary,no,no,B,1,conjunction_syn,L2,syncopated,s2,r1,15,Online_conjL2_syn//d.si.ñu21.0.1110.wav,si,su,bi,go,sil,ñu,me,du,sil1,mi,sil2,"['catch', 'false alarm']","[1.7549999999973807, 1.955999999998312]",[1.7549999999973807],1.11,no_beat,0.6449999999973806,0.6449999999973806,"[""space"",""space""]",ñu,4,testConjL2Syn//r2.s1.0.wav,1.0,conjunction_syn,syncopated,b,s1,rule,rule,L2,z,0.905,7.0,1.0,0.99,3.0,3.0,Español,0.0,Catalán,0.0,Inglés,6.0,4.0,2.0,yes,no,yes,Flauta,6,Violín,6,Guitarra,6,16. En los conciertos me siento en sintonía con los artistas y el público.,3.0,nada ,54.0,yes
16,2024-05-09_00h08.26.996,Unsyncopated_study3,s149,36.0,masculino,left,España,Español y catalán.,Secondary,no,no,B,1,conjunction_syn,L2,syncopated,s1,r1,16,Online_conjL2_syn//b.fe.ra25.none.none.wav,go,to,mi,du,sil,me,ba,si,sil1,su,sil2,['-'],,,none,none,,,,ra,2,testConjL2Syn//time_viol.r2.s2.0.wav,1.0,conjunction_syn,syncopated,b,s2,no_rule,time,L2,z,0.984,6.0,0.0,1.777,3.0,3.0,Español,0.0,Catalán,0.0,Inglés,6.0,4.0,2.0,yes,no,yes,Flauta,6,Violín,6,Guitarra,6,17. Me gasto bastante dinero en música y cosas relacionadas con la música.,2.0,nada ,54.0,yes
17,2024-05-09_00h08.26.996,Unsyncopated_study3,s149,36.0,masculino,left,España,Español y catalán.,Secondary,no,no,B,1,conjunction_syn,L2,syncopated,s1,r2,17,Online_conjL2_syn//b.fe.ra27.0.666.wav,fe,ñu,si,ra,sil,ño,to,te,sil1,su,sil2,['catch'],[1.3559999999997672],[1.3559999999997672],0.666,no_beat,0.6899999999997671,0.6899999999997671,"[""space""]",ra,2,testConjL2Syn//time_viol.r1.s1.0.wav,1.0,conjunction_syn,syncopated,a,s1,no_rule,time,L2,z,6.274,4.0,0.0,3.989,3.0,3.0,Español,0.0,Catalán,0.0,Inglés,6.0,4.0,2.0,yes,no,yes,Flauta,6,Violín,6,Guitarra,6,18. Siento escalofríos cuando escucho una melodía que me gusta.,0.0,nada ,54.0,yes
18,2024-05-09_00h08.26.996,Unsyncopated_study3,s149,36.0,masculino,left,España,Español y catalán.,Secondary,no,no,B,1,conjunction_syn,L2,syncopated,s1,r1,18,Online_conjL2_syn//b.fe.ra26.none.none.wav,go,ño,mi,du,sil,me,si,bi,sil1,ba,sil2,['-'],,,none,none,,,,ra,2,testConjL2Syn//r2.s2.2.wav,1.0,conjunction_syn,syncopated,b,s2,rule,rule,L2,m,2.045,6.0,0.0,2.48,3.0,3.0,Español,0.0,Catalán,0.0,Inglés,6.0,4.0,2.0,yes,no,yes,Flauta,6,Violín,6,Guitarra,6,19. Con la música me puedo desahogar.,4.0,nada ,54.0,yes
19,2024-05-09_00h08.26.996,Unsyncopated_study3,s149,36.0,masculino,left,España,Español y catalán.,Secondary,no,no,B,1,conjunction_syn,L2,syncopated,s2,r1,19,Online_conjL2_syn//b.fe.ra24.none.none.wav,ñu,me,cha,go,sil,ba,to,du,sil1,si,sil2,['-'],,,none,none,,,,ra,2,testConjL2Syn//cat_viol.r2.s1.0.wav,1.0,conjunction_syn,syncopated,b,s1,no_rule,cat,L2,m,2.511,6.0,1.0,1.517,3.0,3.0,Español,0.0,Catalán,0.0,Inglés,6.0,4.0,2.0,yes,no,yes,Flauta,6,Violín,6,Guitarra,6,20. Cuando escucho una melodía que me gusta mucho no puedo evitar mover el cuerpo.,3.0,nada ,54.0,yes
20,2024-05-09_00h08.26.996,Unsyncopated_study3,s149,36.0,masculino,left,España,Español y catalán.,Secondary,no,no,B,1,conjunction_syn,L2,syncopated,s2,r2,20,Online_conjL2_syn//d.si.ñu25.none.none.wav,mi,to,ño,fe,sil,bi,ba,ra,sil1,su,sil2,['-'],,,none,none,,,,ñu,4,testConjL2Syn//time_viol.r1.s2.0.wav,1.0,conjunction_syn,syncopated,a,s2,no_rule,time,L2,z,1.291,6.0,0.0,1.474,3.0,3.0,Español,0.0,Catalán,0.0,Inglés,6.0,4.0,2.0,yes,no,yes,Flauta,6,Violín,6,Guitarra,6,,,nada ,54.0,yes
21,2024-05-09_00h08.26.996,Unsyncopated_study3,s149,36.0,masculino,left,España,Español y catalán.,Secondary,no,no,B,1,conjunction_syn,L2,syncopated,s2,r2,21,Online_conjL2_syn//d.si.ñu24.222.1110.wav,ba,si,cha,fe,sil,ñu,su,ra,sil1,ño,sil2,['catch'],[1.5540000000000873],[1.5540000000000873],1.11,no_beat,0.4440000000000872,0.4440000000000872,"[""space""]",ñu,4,testConjL2Syn//r2.s1.1.wav,1.0,conjunction_syn,syncopated,b,s1,rule,rule,L2,z,0.425,5.0,1.0,1.271,3.0,3.0,Español,0.0,Catalán,0.0,Inglés,6.0,4.0,2.0,yes,no,yes,Flauta,6,Violín,6,Guitarra,6,,,nada ,54.0,yes
22,2024-05-09_00h08.26.996,Unsyncopated_study3,s149,36.0,masculino,left,España,Español y catalán.,Secondary,no,no,B,1,conjunction_syn,L2,syncopated,s2,r1,22,Online_conjL2_syn//d.si.ñu27.none.none.wav,cha,ño,ba,go,sil,mi,to,du,sil1,bi,sil2,['-'],,,none,none,,,,ñu,4,testConjL2Syn//r1.s1.2.wav,1.0,conjunction_syn,syncopated,a,s1,rule,rule,L2,z,2.864,4.0,1.0,1.056,3.0,3.0,Español,0.0,Catalán,0.0,Inglés,6.0,4.0,2.0,yes,no,yes,Flauta,6,Violín,6,Guitarra,6,,,nada ,54.0,yes
23,2024-05-09_00h08.26.996,Unsyncopated_study3,s149,36.0,masculino,left,España,Español y catalán.,Secondary,no,no,B,1,conjunction_syn,L2,syncopated,s2,r2,23,Online_conjL2_syn//d.si.ñu26.none.none.wav,ba,su,cha,fe,sil,mi,me,ra,sil1,to,sil2,['-'],,,none,none,,,,ñu,4,testConjL2Syn//r2.s2.0.wav,1.0,conjunction_syn,syncopated,b,s2,rule,rule,L2,z,0.822,7.0,1.0,0.816,3.0,3.0,Español,0.0,Catalán,0.0,Inglés,6.0,4.0,2.0,yes,no,yes,Flauta,6,Violín,6,Guitarra,6,,,nada ,54.0,yes
24,2024-05-09_00h08.26.996,Unsyncopated_study3,s149,36.0,masculino,left,España,Español y catalán.,Secondary,no,no,B,1,conjunction_syn,L2,syncopated,s1,r1,24,Online_conjL2_syn//d.si.ñu30.222.1332.wav,go,si,te,du,sil,ño,ñu,mi,sil1,bi,sil2,"['catch', 'false alarm']","[1.5489999999990687, 1.8989999999976135]",[1.5489999999990687],1.332,no_beat,0.2169999999990686,0.2169999999990686,"[""space"",""space""]",ñu,4,testWhenL1Uns//dep_viol.r1.s2.0.wav,2.0,when,unsyncopated,a,s2,no_rule,dep,L1,m,1.384,4.0,0.0,1.401,3.0,3.0,Español,0.0,Catalán,0.0,Inglés,6.0,4.0,2.0,yes,no,yes,Flauta,6,Violín,6,Guitarra,6,,,nada ,54.0,yes
25,2024-05-09_00h08.26.996,Unsyncopated_study3,s149,36.0,masculino,left,España,Español y catalán.,Secondary,no,no,B,1,conjunction_syn,L2,syncopated,s1,r1,25,Online_conjL2_syn//d.si.ñu29.1554.222.wav,go,ñu,me,du,sil,ño,mi,si,sil1,to,sil2,"['catch', 'false alarm']","[1.254000000000815, 2.544000000001688]",[1.254000000000815],0.222,no_beat,1.032000000000815,1.032000000000815,"[""space"",""space""]",ñu,4,testWhenL1Uns//dep_viol.r2.s1.0.wav,2.0,when,unsyncopated,b,s1,no_rule,dep,L1,z,0.271,7.0,1.0,2.742,3.0,3.0,Español,0.0,Catalán,0.0,Inglés,6.0,4.0,2.0,yes,no,yes,Flauta,6,Violín,6,Guitarra,6,,,nada ,54.0,yes
26,2024-05-09_00h08.26.996,Unsyncopated_study3,s149,36.0,masculino,left,España,Español y catalán.,Secondary,no,no,B,1,conjunction_syn,L2,syncopated,s1,r2,26,Online_conjL2_syn//d.si.ñu28.1554.1110.wav,fe,te,su,ra,sil,ñu,bi,si,sil1,mi,sil2,['catch'],[2.274999999997817],[2.274999999997817],1.11,no_beat,1.1649999999978171,1.1649999999978171,"[""space""]",ñu,4,testWhenL1Uns//dep_viol.r2.s2.0.wav,2.0,when,unsyncopated,b,s2,no_rule,dep,L1,z,1.627,6.0,1.0,1.744,3.0,3.0,Español,0.0,Catalán,0.0,Inglés,6.0,4.0,2.0,yes,no,yes,Flauta,6,Violín,6,Guitarra,6,,,nada ,54.0,yes
27,2024-05-09_00h08.26.996,Unsyncopated_study3,s149,36.0,masculino,left,España,Español y catalán.,Secondary,no,no,B,1,conjunction_syn,L2,syncopated,s1,r1,27,Online_conjL2_syn//d.si.ñu31.none.none.wav,go,me,ño,du,sil,ba,te,mi,sil1,cha,sil2,['false alarm'],[1.9030000000020664],[1.9030000000020664],none,none,,,"[""space""]",ñu,4,testWhenL1Uns//cat_viol.r1.s2.0.wav,2.0,when,unsyncopated,a,s2,no_rule,cat,L1,z,1.77,5.0,1.0,1.131,3.0,3.0,Español,0.0,Catalán,0.0,Inglés,6.0,4.0,2.0,yes,no,yes,Flauta,6,Violín,6,Guitarra,6,,,nada ,54.0,yes
28,2024-05-09_00h08.26.996,Unsyncopated_study3,s149,36.0,masculino,left,España,Español y catalán.,Secondary,no,no,B,1,conjunction_syn,L2,syncopated,s1,r2,28,Online_conjL2_syn//a.go.du5.none.none.wav,fe,ñu,cha,ra,sil,te,ño,ba,sil1,si,sil2,['-'],,,none,none,,,,go,1,testWhenL1Uns//r2.s2.1.wav,2.0,when,unsyncopated,b,s2,rule,rule,L1,z,1.192,6.0,1.0,1.543,3.0,3.0,Español,0.0,Catalán,0.0,Inglés,6.0,4.0,2.0,yes,no,yes,Flauta,6,Violín,6,Guitarra,6,,,nada ,54.0,yes
29,2024-05-09_00h08.26.996,Unsyncopated_study3,s149,36.0,masculino,left,España,Español y catalán.,Secondary,no,no,B,1,conjunction_syn,L2,syncopated,s2,r1,29,Online_conjL2_syn//a.go.du4.666.1554.wav,mi,si,te,go,sil,ño,to,du,sil1,ñu,sil2,['catch'],[1.4400000000023283],[1.4400000000023283],0.666,no_beat,0.7740000000023283,0.7740000000023283,"[""space""]",go,1,testWhenL1Uns//r2.s1.0.wav,2.0,when,unsyncopated,b,s1,rule,rule,L1,z,1.21,6.0,1.0,1.872,3.0,3.0,Español,0.0,Catalán,0.0,Inglés,6.0,4.0,2.0,yes,no,yes,Flauta,6,Violín,6,Guitarra,6,,,nada ,54.0,yes
30,2024-05-09_00h08.26.996,Unsyncopated_study3,s149,36.0,masculino,left,España,Español y catalán.,Secondary,no,no,B,1,conjunction_syn,L2,syncopated,s1,r2,30,Online_conjL2_syn//a.go.du7.none.none.wav,fe,mi,ñu,ra,sil,ño,ba,me,sil1,su,sil2,['-'],,,none,none,,,,go,1,testWhenL1Uns//dep_viol.r1.s1.0.wav,2.0,when,unsyncopated,a,s1,no_rule,dep,L1,z,2.916,6.0,1.0,1.693,3.0,3.0,Español,0.0,Catalán,0.0,Inglés,6.0,4.0,2.0,yes,no,yes,Flauta,6,Violín,6,Guitarra,6,,,nada ,54.0,yes
31,2024-05-09_00h08.26.996,Unsyncopated_study3,s149,36.0,masculino,left,España,Español y catalán.,Secondary,no,no,B,1,conjunction_syn,L2,syncopated,s1,r1,31,Online_conjL2_syn//a.go.du6.0.666.wav,go,bi,to,du,sil,me,su,ba,sil1,te,sil2,['catch'],[1.3339999999989232],[1.3339999999989232],0.0,beat,,1.3339999999989232,"[""space""]",go,1,testWhenL1Uns//r1.s2.2.wav,2.0,when,unsyncopated,a,s2,rule,rule,L1,z,1.506,6.0,1.0,1.224,3.0,3.0,Español,0.0,Catalán,0.0,Inglés,6.0,4.0,2.0,yes,no,yes,Flauta,6,Violín,6,Guitarra,6,,,nada ,54.0,yes
32,2024-05-09_00h08.26.996,Unsyncopated_study3,s149,36.0,masculino,left,España,Español y catalán.,Secondary,no,no,B,1,conjunction_syn,L2,syncopated,s1,r1,32,Online_conjL2_syn//c.cha.me12.none.none.wav,go,te,ño,du,sil,bi,ñu,to,sil1,mi,sil2,['false alarm'],[2.433000000000902],[2.433000000000902],none,none,,,"[""space""]",me,3,testWhenL1Uns//time_viol.r1.s2.0.wav,2.0,when,unsyncopated,a,s2,no_rule,time,L1,z,4.155,7.0,1.0,1.155,3.0,3.0,Español,0.0,Catalán,0.0,Inglés,6.0,4.0,2.0,yes,no,yes,Flauta,6,Violín,6,Guitarra,6,,,nada ,54.0,yes
33,2024-05-09_00h08.26.996,Unsyncopated_study3,s149,36.0,masculino,left,España,Español y catalán.,Secondary,no,no,B,1,conjunction_syn,L2,syncopated,s1,r2,33,Online_conjL2_syn//c.cha.me14.none.none.wav,fe,to,su,ra,sil,si,te,mi,sil1,bi,sil2,['-'],,,none,none,,,,me,3,testWhenL1Uns//r1.s2.0.wav,2.0,when,unsyncopated,a,s2,rule,rule,L1,z,1.473,4.0,1.0,3.201,3.0,3.0,Español,0.0,Catalán,0.0,Inglés,6.0,4.0,2.0,yes,no,yes,Flauta,6,Violín,6,Guitarra,6,,,nada ,54.0,yes
34,2024-05-09_00h08.26.996,Unsyncopated_study3,s149,36.0,masculino,left,España,Español y catalán.,Secondary,no,no,B,1,conjunction_syn,L2,syncopated,s1,r2,34,Online_conjL2_syn//c.cha.me15.222.1110.wav,fe,cha,si,ra,sil,me,su,ba,sil1,ñu,sil2,['catch'],[1.7739999999976135],[1.7739999999976135],1.11,no_beat,0.6639999999976134,0.6639999999976134,"[""space""]",me,3,testWhenL1Uns//r1.s2.1.wav,2.0,when,unsyncopated,a,s2,rule,rule,L1,z,1.174,7.0,1.0,0.758,3.0,3.0,Español,0.0,Catalán,0.0,Inglés,6.0,4.0,2.0,yes,no,yes,Flauta,6,Violín,6,Guitarra,6,,,nada ,54.0,yes
35,2024-05-09_00h08.26.996,Unsyncopated_study3,s149,36.0,masculino,left,España,Español y catalán.,Secondary,no,no,B,1,conjunction_syn,L2,syncopated,s1,r1,35,Online_conjL2_syn//c.cha.me13.222.1110.wav,go,cha,su,du,sil,me,ño,ñu,sil1,mi,sil2,['catch'],[1.8539999999993597],[1.8539999999993597],1.11,no_beat,0.7439999999993596,0.7439999999993596,"[""space""]",me,3,testWhenL1Uns//r2.s1.2.wav,2.0,when,unsyncopated,b,s1,rule,rule,L1,z,0.651,7.0,1.0,1.167,3.0,3.0,Español,0.0,Catalán,0.0,Inglés,6.0,4.0,2.0,yes,no,yes,Flauta,6,Violín,6,Guitarra,6,,,nada ,54.0,yes
36,2024-05-09_00h08.26.996,Unsyncopated_study3,s149,36.0,masculino,left,España,Español y catalán.,Secondary,no,no,B,1,conjunction_syn,L2,syncopated,s2,r1,36,Online_conjL2_syn//d.si.ñu15.none.none.wav,su,ño,ba,go,sil,bi,mi,du,sil1,to,sil2,['-'],,,none,none,,,,ñu,4,testWhenL1Uns//r1.s1.2.wav,2.0,when,unsyncopated,a,s1,rule,rule,L1,m,1.685,3.0,0.0,2.457,3.0,3.0,Español,0.0,Catalán,0.0,Inglés,6.0,4.0,2.0,yes,no,yes,Flauta,6,Violín,6,Guitarra,6,,,nada ,54.0,yes
37,2024-05-09_00h08.26.996,Unsyncopated_study3,s149,36.0,masculino,left,España,Español y catalán.,Secondary,no,no,B,1,conjunction_syn,L2,syncopated,s2,r1,37,Online_conjL2_syn//d.si.ñu13.none.none.wav,bi,te,to,go,sil,ño,cha,du,sil1,me,sil2,['-'],,,none,none,,,,ñu,4,testWhenL1Uns//time_viol.r1.s1.0.wav,2.0,when,unsyncopated,a,s1,no_rule,time,L1,z,1.357,5.0,1.0,1.882,3.0,3.0,Español,0.0,Catalán,0.0,Inglés,6.0,4.0,2.0,yes,no,yes,Flauta,6,Violín,6,Guitarra,6,,,nada ,54.0,yes
38,2024-05-09_00h08.26.996,Unsyncopated_study3,s149,36.0,masculino,left,España,Español y catalán.,Secondary,no,no,B,1,conjunction_syn,L2,syncopated,s1,r2,38,Online_conjL2_syn//d.si.ñu14.none.none.wav,fe,cha,bi,ra,sil,to,mi,me,sil1,ba,sil2,['-'],,,none,none,,,,ñu,4,testWhenL1Uns//r2.s2.2.wav,2.0,when,unsyncopated,b,s2,rule,rule,L1,z,4.007,4.0,1.0,1.012,3.0,3.0,Español,0.0,Catalán,0.0,Inglés,6.0,4.0,2.0,yes,no,yes,Flauta,6,Violín,6,Guitarra,6,,,nada ,54.0,yes
39,2024-05-09_00h08.26.996,Unsyncopated_study3,s149,36.0,masculino,left,España,Español y catalán.,Secondary,no,no,B,1,conjunction_syn,L2,syncopated,s2,r2,39,Online_conjL2_syn//d.si.ñu12.0.222.wav,si,ñu,cha,fe,sil,te,me,ra,sil1,to,sil2,['miss'],,,0.222,no_beat,,,,ñu,4,testWhenL1Uns//r2.s1.1.wav,2.0,when,unsyncopated,b,s1,rule,rule,L1,m,7.988,5.0,0.0,1.414,3.0,3.0,Español,0.0,Catalán,0.0,Inglés,6.0,4.0,2.0,yes,no,yes,Flauta,6,Violín,6,Guitarra,6,,,nada ,54.0,yes
40,2024-05-09_00h08.26.996,Unsyncopated_study3,s149,36.0,masculino,left,España,Español y catalán.,Secondary,no,no,B,1,conjunction_syn,L2,syncopated,s1,r1,40,Online_conjL2_syn//c.cha.me10.none.none.wav,go,te,bi,du,sil,si,ño,ba,sil1,to,sil2,['-'],,,none,none,,,,me,3,testWhenL1Uns//cat_viol.r2.s1.0.wav,2.0,when,unsyncopated,b,s1,no_rule,cat,L1,z,2.225,4.0,1.0,2.736,3.0,3.0,Español,0.0,Catalán,0.0,Inglés,6.0,4.0,2.0,yes,no,yes,Flauta,6,Violín,6,Guitarra,6,,,nada ,54.0,yes
41,2024-05-09_00h08.26.996,Unsyncopated_study3,s149,36.0,masculino,left,España,Español y catalán.,Secondary,no,no,B,1,conjunction_syn,L2,syncopated,s2,r2,41,Online_conjL2_syn//c.cha.me9.none.none.wav,ño,mi,to,fe,sil,si,te,ra,sil1,ñu,sil2,['false alarm'],[1.2040000000015425],[1.2040000000015425],none,none,,,"[""space""]",me,3,testWhenL1Uns//time_viol.r2.s1.0.wav,2.0,when,unsyncopated,b,s1,no_rule,time,L1,m,1.139,7.0,0.0,1.743,3.0,3.0,Español,0.0,Catalán,0.0,Inglés,6.0,4.0,2.0,yes,no,yes,Flauta,6,Violín,6,Guitarra,6,,,nada ,54.0,yes
42,2024-05-09_00h08.26.996,Unsyncopated_study3,s149,36.0,masculino,left,España,Español y catalán.,Secondary,no,no,B,1,conjunction_syn,L2,syncopated,s2,r2,42,Online_conjL2_syn//c.cha.me8.222.1110.wav,si,cha,to,fe,sil,me,ba,ra,sil1,ñu,sil2,['catch'],[2.1049999999995634],[2.1049999999995634],1.11,no_beat,0.9949999999995632,0.9949999999995632,"[""space""]",me,3,testWhenL1Uns//r2.s2.0.wav,2.0,when,unsyncopated,b,s2,rule,rule,L1,z,1.051,6.0,1.0,0.572,3.0,3.0,Español,0.0,Catalán,0.0,Inglés,6.0,4.0,2.0,yes,no,yes,Flauta,6,Violín,6,Guitarra,6,,,nada ,54.0,yes
43,2024-05-09_00h08.26.996,Unsyncopated_study3,s149,36.0,masculino,left,España,Español y catalán.,Secondary,no,no,B,1,conjunction_syn,L2,syncopated,s1,r2,43,Online_conjL2_syn//c.cha.me11.1554.1110.wav,fe,mi,ñu,ra,sil,me,si,cha,sil1,ba,sil2,['catch'],[1.9750000000021828],[1.9750000000021828],1.11,no_beat,0.8650000000021827,0.8650000000021827,"[""space""]",me,3,testWhenL1Uns//cat_viol.r1.s1.0.wav,2.0,when,unsyncopated,a,s1,no_rule,cat,L1,m,1.412,6.0,0.0,1.28,3.0,3.0,Español,0.0,Catalán,0.0,Inglés,6.0,4.0,2.0,yes,no,yes,Flauta,6,Violín,6,Guitarra,6,,,nada ,54.0,yes
44,2024-05-09_00h08.26.996,Unsyncopated_study3,s149,36.0,masculino,left,España,Español y catalán.,Secondary,no,no,B,1,conjunction_syn,L2,syncopated,s2,r2,44,Online_conjL2_syn//c.cha.me4.1110.0.wav,me,si,bi,fe,sil,cha,to,ra,sil1,su,sil2,['catch'],[1.6650000000008731],[1.6650000000008731],0.0,beat,,1.6650000000008731,"[""space""]",me,3,testWhenL1Uns//r1.s1.0.wav,2.0,when,unsyncopated,a,s1,rule,rule,L1,z,1.132,5.0,1.0,1.961,3.0,3.0,Español,0.0,Catalán,0.0,Inglés,6.0,4.0,2.0,yes,no,yes,Flauta,6,Violín,6,Guitarra,6,,,nada ,54.0,yes
45,2024-05-09_00h08.26.996,Unsyncopated_study3,s149,36.0,masculino,left,España,Español y catalán.,Secondary,no,no,B,1,conjunction_syn,L2,syncopated,s2,r2,45,Online_conjL2_syn//c.cha.me7.none.none.wav,te,mi,ba,fe,sil,ñu,su,ra,sil1,to,sil2,['-'],,,none,none,,,,me,3,testWhenL1Uns//time_viol.r2.s2.0.wav,2.0,when,unsyncopated,b,s2,no_rule,time,L1,z,1.324,5.0,1.0,1.344,3.0,3.0,Español,0.0,Catalán,0.0,Inglés,6.0,4.0,2.0,yes,no,yes,Flauta,6,Violín,6,Guitarra,6,,,nada ,54.0,yes
46,2024-05-09_00h08.26.996,Unsyncopated_study3,s149,36.0,masculino,left,España,Español y catalán.,Secondary,no,no,B,1,conjunction_syn,L2,syncopated,s2,r1,46,Online_conjL2_syn//c.cha.me5.none.none.wav,ño,mi,ñu,go,sil,ba,te,du,sil1,su,sil2,['-'],,,none,none,,,,me,3,testWhenL1Uns//r1.s1.1.wav,2.0,when,unsyncopated,a,s1,rule,rule,L1,z,1.357,5.0,1.0,2.379,3.0,3.0,Español,0.0,Catalán,0.0,Inglés,6.0,4.0,2.0,yes,no,yes,Flauta,6,Violín,6,Guitarra,6,,,nada ,54.0,yes
47,2024-05-09_00h08.26.996,Unsyncopated_study3,s149,36.0,masculino,left,España,Español y catalán.,Secondary,no,no,B,1,conjunction_syn,L2,syncopated,s1,r1,47,Online_conjL2_syn//c.cha.me6.none.none.wav,go,to,si,du,sil,ñu,ño,mi,sil1,ba,sil2,['false alarm'],[2.514000000002852],[2.514000000002852],none,none,,,"[""space""]",me,3,testWhenL1Uns//cat_viol.r2.s2.0.wav,2.0,when,unsyncopated,b,s2,no_rule,cat,L1,m,1.154,4.0,0.0,2.949,3.0,3.0,Español,0.0,Catalán,0.0,Inglés,6.0,4.0,2.0,yes,no,yes,Flauta,6,Violín,6,Guitarra,6,,,nada ,54.0,yes
48,2024-05-09_00h08.26.996,Unsyncopated_study3,s149,36.0,masculino,left,España,Español y catalán.,Secondary,no,no,B,1,conjunction_syn,L2,syncopated,s2,r1,48,Online_conjL2_syn//b.fe.ra12.none.none.wav,ba,to,mi,go,sil,bi,si,du,sil1,me,sil2,['-'],,,none,none,,,,ra,2,testWhatL4Uns//r1.s2.0.wav,3.0,what,unsyncopated,a,s2,rule,rule,L4,m,2.541,4.0,0.0,1.123,3.0,3.0,Español,0.0,Catalán,0.0,Inglés,6.0,4.0,2.0,yes,no,yes,Flauta,6,Violín,6,Guitarra,6,,,nada ,54.0,yes
49,2024-05-09_00h08.26.996,Unsyncopated_study3,s149,36.0,masculino,left,España,Español y catalán.,Secondary,no,no,B,1,conjunction_syn,L2,syncopated,s1,r1,49,Online_conjL2_syn//b.fe.ra15.none.none.wav,go,ñu,to,du,sil,bi,cha,ño,sil1,ba,sil2,['-'],,,none,none,,,,ra,2,testWhatL4Uns//r1.s1.2.wav,3.0,what,unsyncopated,a,s1,rule,rule,L4,z,1.221,5.0,1.0,2.112,3.0,3.0,Español,0.0,Catalán,0.0,Inglés,6.0,4.0,2.0,yes,no,yes,Flauta,6,Violín,6,Guitarra,6,,,nada ,54.0,yes
50,2024-05-09_00h08.26.996,Unsyncopated_study3,s149,36.0,masculino,left,España,Español y catalán.,Secondary,no,no,B,1,conjunction_syn,L2,syncopated,s1,r2,50,Online_conjL2_syn//b.fe.ra13.0.666.wav,fe,si,ba,ra,sil,bi,su,ñu,sil1,ño,sil2,['catch'],[1.2880000000004657],[1.2880000000004657],0.666,no_beat,0.6220000000004656,0.6220000000004656,"[""space""]",ra,2,testWhatL4Uns//cat_viol.r1.s2.0.wav,3.0,what,unsyncopated,a,s2,no_rule,cat,L4,z,1.056,5.0,0.0,1.492,3.0,3.0,Español,0.0,Catalán,0.0,Inglés,6.0,4.0,2.0,yes,no,yes,Flauta,6,Violín,6,Guitarra,6,,,nada ,54.0,yes
51,2024-05-09_00h08.26.996,Unsyncopated_study3,s149,36.0,masculino,left,España,Español y catalán.,Secondary,no,no,B,1,conjunction_syn,L2,syncopated,s1,r2,51,Online_conjL2_syn//b.fe.ra14.0.666.wav,fe,te,ño,ra,sil,su,cha,bi,sil1,to,sil2,['catch'],[1.3179999999993015],[1.3179999999993015],0.666,no_beat,0.6519999999993015,0.6519999999993015,"[""space""]",ra,2,testWhatL4Uns//r2.s1.1.wav,3.0,what,unsyncopated,b,s1,rule,rule,L4,z,2.365,6.0,1.0,0.888,3.0,3.0,Español,0.0,Catalán,0.0,Inglés,6.0,4.0,2.0,yes,no,yes,Flauta,6,Violín,6,Guitarra,6,,,nada ,54.0,yes
52,2024-05-09_00h08.26.996,Unsyncopated_study3,s149,36.0,masculino,left,España,Español y catalán.,Secondary,no,no,B,1,conjunction_syn,L2,syncopated,s1,r2,52,Online_conjL2_syn//b.fe.ra1.0.666.wav,fe,to,bi,ra,sil,me,te,su,sil1,ño,sil2,['catch'],[1.282999999999447],[1.282999999999447],0.666,no_beat,0.616999999999447,0.616999999999447,"[""space""]",ra,2,testWhatL4Uns//time_viol.r1.s2.0.wav,3.0,what,unsyncopated,a,s2,no_rule,time,L4,z,1.172,5.0,0.0,0.62,3.0,3.0,Español,0.0,Catalán,0.0,Inglés,6.0,4.0,2.0,yes,no,yes,Flauta,6,Violín,6,Guitarra,6,,,nada ,54.0,yes
53,2024-05-09_00h08.26.996,Unsyncopated_study3,s149,36.0,masculino,left,España,Español y catalán.,Secondary,no,no,B,1,conjunction_syn,L2,syncopated,s2,r2,53,Online_conjL2_syn//b.fe.ra0.666.1554.wav,te,si,ba,fe,sil,mi,ño,ra,sil1,cha,sil2,['catch'],[2.4769999999989523],[2.4769999999989523],1.554,no_beat,0.9229999999989522,0.9229999999989522,"[""space""]",ra,2,testWhatL4Uns//time_viol.r2.s2.0.wav,3.0,what,unsyncopated,b,s2,no_rule,time,L4,m,3.469,4.0,1.0,2.597,3.0,3.0,Español,0.0,Catalán,0.0,Inglés,6.0,4.0,2.0,yes,no,yes,Flauta,6,Violín,6,Guitarra,6,,,nada ,54.0,yes
54,2024-05-09_00h08.26.996,Unsyncopated_study3,s149,36.0,masculino,left,España,Español y catalán.,Secondary,no,no,B,1,conjunction_syn,L2,syncopated,s2,r1,54,Online_conjL2_syn//b.fe.ra2.none.none.wav,te,to,bi,go,sil,cha,ñu,du,sil1,su,sil2,['-'],,,none,none,,,,ra,2,testWhatL4Uns//r1.s1.0.wav,3.0,what,unsyncopated,a,s1,rule,rule,L4,z,2.459,4.0,1.0,1.542,3.0,3.0,Español,0.0,Catalán,0.0,Inglés,6.0,4.0,2.0,yes,no,yes,Flauta,6,Violín,6,Guitarra,6,,,nada ,54.0,yes
55,2024-05-09_00h08.26.996,Unsyncopated_study3,s149,36.0,masculino,left,España,Español y catalán.,Secondary,no,no,B,1,conjunction_syn,L2,syncopated,s2,r2,55,Online_conjL2_syn//b.fe.ra3.666.1554.wav,cha,ba,ñu,fe,sil,me,ño,ra,sil1,bi,sil2,['catch'],[2.1929999999993015],[2.1929999999993015],1.554,no_beat,0.6389999999993015,0.6389999999993015,"[""space""]",ra,2,testWhatL4Uns//cat_viol.r2.s1.0.wav,3.0,what,unsyncopated,b,s1,no_rule,cat,L4,z,1.76,5.0,0.0,1.56,3.0,3.0,Español,0.0,Catalán,0.0,Inglés,6.0,4.0,2.0,yes,no,yes,Flauta,6,Violín,6,Guitarra,6,,,nada ,54.0,yes
56,2024-05-09_00h08.26.996,Unsyncopated_study3,s149,36.0,masculino,left,España,Español y catalán.,Secondary,no,no,B,1,conjunction_syn,L2,syncopated,s2,r2,56,Online_conjL2_syn//c.cha.me30.none.none.wav,to,ño,su,fe,sil,te,bi,ra,sil1,ñu,sil2,['-'],,,none,none,,,,me,3,testWhatL4Uns//r2.s1.0.wav,3.0,what,unsyncopated,b,s1,rule,rule,L4,z,4.456,5.0,1.0,1.206,3.0,3.0,Español,0.0,Catalán,0.0,Inglés,6.0,4.0,2.0,yes,no,yes,Flauta,6,Violín,6,Guitarra,6,,,nada ,54.0,yes
57,2024-05-09_00h08.26.996,Unsyncopated_study3,s149,36.0,masculino,left,España,Español y catalán.,Secondary,no,no,B,1,conjunction_syn,L2,syncopated,s2,r2,57,Online_conjL2_syn//c.cha.me29.none.none.wav,te,bi,to,fe,sil,ño,si,ra,sil1,mi,sil2,['false alarm'],[0.5169999999998254],[0.5169999999998254],none,none,,,"[""space""]",me,3,testWhatL4Uns//dep_viol.r1.s2.0.wav,3.0,what,unsyncopated,a,s2,no_rule,dep,L4,z,1.643,5.0,0.0,1.441,3.0,3.0,Español,0.0,Catalán,0.0,Inglés,6.0,4.0,2.0,yes,no,yes,Flauta,6,Violín,6,Guitarra,6,,,nada ,54.0,yes
58,2024-05-09_00h08.26.996,Unsyncopated_study3,s149,36.0,masculino,left,España,Español y catalán.,Secondary,no,no,B,1,conjunction_syn,L2,syncopated,s2,r1,58,Online_conjL2_syn//c.cha.me28.none.none.wav,su,te,ba,go,sil,mi,to,du,sil1,ño,sil2,['-'],,,none,none,,,,me,3,testWhatL4Uns//r2.s2.0.wav,3.0,what,unsyncopated,b,s2,rule,rule,L4,m,2.863,5.0,0.0,1.426,3.0,3.0,Español,0.0,Catalán,0.0,Inglés,6.0,4.0,2.0,yes,no,yes,Flauta,6,Violín,6,Guitarra,6,,,nada ,54.0,yes
59,2024-05-09_00h08.26.996,Unsyncopated_study3,s149,36.0,masculino,left,España,Español y catalán.,Secondary,no,no,B,1,conjunction_syn,L2,syncopated,s2,r2,59,Online_conjL2_syn//c.cha.me31.0.1110.wav,cha,ño,si,fe,sil,me,ba,ra,sil1,su,sil2,['catch'],[1.7439999999987776],[1.7439999999987776],1.11,no_beat,0.6339999999987775,0.6339999999987775,"[""space""]",me,3,testWhatL4Uns//r1.s2.1.wav,3.0,what,unsyncopated,a,s2,rule,rule,L4,m,3.334,5.0,0.0,2.948,3.0,3.0,Español,0.0,Catalán,0.0,Inglés,6.0,4.0,2.0,yes,no,yes,Flauta,6,Violín,6,Guitarra,6,,,nada ,54.0,yes
60,2024-05-09_00h08.26.996,Unsyncopated_study3,s149,36.0,masculino,left,España,Español y catalán.,Secondary,no,no,B,1,conjunction_syn,L2,syncopated,s1,r1,60,Online_conjL2_syn//a.go.du29.0.666.wav,go,ñu,su,du,sil,si,me,to,sil1,bi,sil2,['miss'],,,0.0,beat,,,,go,1,testWhatL4Uns//time_viol.r1.s1.0.wav,3.0,what,unsyncopated,a,s1,no_rule,time,L4,z,0.936,4.0,0.0,1.66,3.0,3.0,Español,0.0,Catalán,0.0,Inglés,6.0,4.0,2.0,yes,no,yes,Flauta,6,Violín,6,Guitarra,6,,,nada ,54.0,yes
61,2024-05-09_00h08.26.996,Unsyncopated_study3,s149,36.0,masculino,left,España,Español y catalán.,Secondary,no,no,B,1,conjunction_syn,L2,syncopated,s1,r1,61,Online_conjL2_syn//a.go.du31.0.666.wav,go,ba,su,du,sil,ñu,si,bi,sil1,me,sil2,['catch'],[0.8029999999998836],[0.8029999999998836],0.0,beat,0.8029999999998836,0.8029999999998836,"[""space""]",go,1,testWhatL4Uns//r2.s1.2.wav,3.0,what,unsyncopated,b,s1,rule,rule,L4,z,0.823,5.0,1.0,1.24,3.0,3.0,Español,0.0,Catalán,0.0,Inglés,6.0,4.0,2.0,yes,no,yes,Flauta,6,Violín,6,Guitarra,6,,,nada ,54.0,yes
62,2024-05-09_00h08.26.996,Unsyncopated_study3,s149,36.0,masculino,left,España,Español y catalán.,Secondary,no,no,B,1,conjunction_syn,L2,syncopated,s2,r2,62,Online_conjL2_syn//a.go.du30.none.none.wav,to,ñu,me,fe,sil,bi,ño,ra,sil1,su,sil2,['-'],,,none,none,,,,go,1,testWhatL4Uns//r1.s2.2.wav,3.0,what,unsyncopated,a,s2,rule,rule,L4,z,0.593,7.0,1.0,0.671,3.0,3.0,Español,0.0,Catalán,0.0,Inglés,6.0,4.0,2.0,yes,no,yes,Flauta,6,Violín,6,Guitarra,6,,,nada ,54.0,yes
63,2024-05-09_00h08.26.996,Unsyncopated_study3,s149,36.0,masculino,left,España,Español y catalán.,Secondary,no,no,B,1,conjunction_syn,L2,syncopated,s2,r2,63,Online_conjL2_syn//a.go.du28.none.none.wav,me,su,ba,fe,sil,mi,to,ra,sil1,cha,sil2,['-'],,,none,none,,,,go,1,testWhatL4Uns//r2.s2.1.wav,3.0,what,unsyncopated,b,s2,rule,rule,L4,z,0.487,7.0,1.0,1.709,3.0,3.0,Español,0.0,Catalán,0.0,Inglés,6.0,4.0,2.0,yes,no,yes,Flauta,6,Violín,6,Guitarra,6,,,nada ,54.0,yes
64,2024-05-09_00h08.26.996,Unsyncopated_study3,s149,36.0,masculino,left,España,Español y catalán.,Secondary,no,no,B,1,conjunction_syn,L2,syncopated,s2,r1,64,Online_conjL2_syn//c.cha.me3.444.0.wav,me,ba,cha,go,sil,te,mi,du,sil1,ñu,sil2,['catch'],[0.6009999999987485],[0.6009999999987485],0.0,beat,0.6009999999987485,0.6009999999987485,"[""space""]",me,3,testWhatL4Uns//time_viol.r2.s1.0.wav,3.0,what,unsyncopated,b,s1,no_rule,time,L4,z,2.981,5.0,0.0,0.839,3.0,3.0,Español,0.0,Catalán,0.0,Inglés,6.0,4.0,2.0,yes,no,yes,Flauta,6,Violín,6,Guitarra,6,,,nada ,54.0,yes
65,2024-05-09_00h08.26.996,Unsyncopated_study3,s149,36.0,masculino,left,España,Español y catalán.,Secondary,no,no,B,1,conjunction_syn,L2,syncopated,s2,r1,65,Online_conjL2_syn//c.cha.me1.222.444.wav,bi,cha,me,go,sil,ño,ñu,du,sil1,su,sil2,['miss'],,,0.444,no_beat,,,,me,3,testWhatL4Uns//dep_viol.r2.s1.0.wav,3.0,what,unsyncopated,b,s1,no_rule,dep,L4,m,2.144,4.0,1.0,0.89,3.0,3.0,Español,0.0,Catalán,0.0,Inglés,6.0,4.0,2.0,yes,no,yes,Flauta,6,Violín,6,Guitarra,6,,,nada ,54.0,yes
66,2024-05-09_00h08.26.996,Unsyncopated_study3,s149,36.0,masculino,left,España,Español y catalán.,Secondary,no,no,B,1,conjunction_syn,L2,syncopated,s2,r2,66,Online_conjL2_syn//c.cha.me0.444.1110.wav,te,su,cha,fe,sil,me,si,ra,sil1,ba,sil2,['catch'],[1.9420000000027358],[1.9420000000027358],1.11,no_beat,0.8320000000027357,0.8320000000027357,"[""space""]",me,3,testWhatL4Uns//cat_viol.r2.s2.0.wav,3.0,what,unsyncopated,b,s2,no_rule,cat,L4,z,0.866,4.0,0.0,1.727,3.0,3.0,Español,0.0,Catalán,0.0,Inglés,6.0,4.0,2.0,yes,no,yes,Flauta,6,Violín,6,Guitarra,6,,,nada ,54.0,yes
67,2024-05-09_00h08.26.996,Unsyncopated_study3,s149,36.0,masculino,left,España,Español y catalán.,Secondary,no,no,B,1,conjunction_syn,L2,syncopated,s2,r1,67,Online_conjL2_syn//c.cha.me2.444.0.wav,me,te,cha,go,sil,mi,su,du,sil1,ño,sil2,"['catch', 'false alarm']","[0.6660000000010768, 0.9330000000009022]",[0.6660000000010768],0.0,beat,0.6660000000010768,0.6660000000010768,"[""space"",""space""]",me,3,testWhatL4Uns//r2.s2.2.wav,3.0,what,unsyncopated,b,s2,rule,rule,L4,m,1.442,4.0,0.0,2.782,3.0,3.0,Español,0.0,Catalán,0.0,Inglés,6.0,4.0,2.0,yes,no,yes,Flauta,6,Violín,6,Guitarra,6,,,nada ,54.0,yes
68,2024-05-09_00h08.26.996,Unsyncopated_study3,s149,36.0,masculino,left,España,Español y catalán.,Secondary,no,no,B,1,conjunction_syn,L2,syncopated,s2,r1,68,Online_conjL2_syn//b.fe.ra23.none.none.wav,me,su,bi,go,sil,ñu,mi,du,sil1,si,sil2,['false alarm'],[1.3170000000027358],[1.3170000000027358],none,none,,,"[""space""]",ra,2,testWhatL4Uns//r1.s1.1.wav,3.0,what,unsyncopated,a,s1,rule,rule,L4,z,0.804,3.0,1.0,1.358,3.0,3.0,Español,0.0,Catalán,0.0,Inglés,6.0,4.0,2.0,yes,no,yes,Flauta,6,Violín,6,Guitarra,6,,,nada ,54.0,yes
69,2024-05-09_00h08.26.996,Unsyncopated_study3,s149,36.0,masculino,left,España,Español y catalán.,Secondary,no,no,B,1,conjunction_syn,L2,syncopated,s2,r2,69,Online_conjL2_syn//b.fe.ra20.666.1554.wav,si,ño,cha,fe,sil,to,me,ra,sil1,su,sil2,['catch'],[2.106999999999971],[2.106999999999971],1.554,no_beat,0.5529999999999708,0.5529999999999708,"[""space""]",ra,2,testWhatL4Uns//dep_viol.r2.s2.0.wav,3.0,what,unsyncopated,b,s2,no_rule,dep,L4,m,0.636,4.0,1.0,1.004,3.0,3.0,Español,0.0,Catalán,0.0,Inglés,6.0,4.0,2.0,yes,no,yes,Flauta,6,Violín,6,Guitarra,6,,,nada ,54.0,yes
70,2024-05-09_00h08.26.996,Unsyncopated_study3,s149,36.0,masculino,left,España,Español y catalán.,Secondary,no,no,B,1,conjunction_syn,L2,syncopated,s1,r1,70,Online_conjL2_syn//b.fe.ra21.none.none.wav,go,bi,cha,du,sil,te,me,mi,sil1,ba,sil2,['-'],,,none,none,,,,ra,2,testWhatL4Uns//cat_viol.r1.s1.0.wav,3.0,what,unsyncopated,a,s1,no_rule,cat,L4,z,1.338,6.0,0.0,1.157,3.0,3.0,Español,0.0,Catalán,0.0,Inglés,6.0,4.0,2.0,yes,no,yes,Flauta,6,Violín,6,Guitarra,6,,,nada ,54.0,yes
71,2024-05-09_00h08.26.996,Unsyncopated_study3,s149,36.0,masculino,left,España,Español y catalán.,Secondary,no,no,B,1,conjunction_syn,L2,syncopated,s2,r1,71,Online_conjL2_syn//b.fe.ra22.none.none.wav,cha,ño,me,go,sil,ñu,to,du,sil1,mi,sil2,['-'],,,none,none,,,,ra,2,testWhatL4Uns//dep_viol.r1.s1.0.wav,3.0,what,unsyncopated,a,s1,no_rule,dep,L4,m,3.301,5.0,1.0,1.291,3.0,3.0,Español,0.0,Catalán,0.0,Inglés,6.0,4.0,2.0,yes,no,yes,Flauta,6,Violín,6,Guitarra,6,,,nada ,54.0,yes
72,2024-05-09_00h08.26.996,Unsyncopated_study3,s149,36.0,masculino,left,España,Español y catalán.,Secondary,no,no,B,1,conjunction_syn,L2,syncopated,s1,r2,72,Online_conjL2_syn//b.fe.ra11.0.666.wav,fe,to,bi,ra,sil,mi,me,ñu,sil1,ba,sil2,['catch'],[1.180000000000291],[1.180000000000291],0.666,no_beat,0.514000000000291,0.514000000000291,"[""space""]",ra,2,testConjL3Uns//dep_viol.r2.s2.0.wav,4.0,conjunction_un,unsyncopated,b,s2,no_rule,dep,L3,z,0.915,6.0,0.0,2.053,3.0,3.0,Español,0.0,Catalán,0.0,Inglés,6.0,4.0,2.0,yes,no,yes,Flauta,6,Violín,6,Guitarra,6,,,nada ,54.0,yes
73,2024-05-09_00h08.26.996,Unsyncopated_study3,s149,36.0,masculino,left,España,Español y catalán.,Secondary,no,no,B,1,conjunction_syn,L2,syncopated,s2,r2,73,Online_conjL2_syn//b.fe.ra9.666.1554.wav,cha,to,bi,fe,sil,ñu,me,ra,sil1,ño,sil2,['catch'],[2.444999999999709],[2.444999999999709],1.554,no_beat,0.8909999999997089,0.8909999999997089,"[""space""]",ra,2,testConjL3Uns//dep_viol.r1.s2.0.wav,4.0,conjunction_un,unsyncopated,a,s2,no_rule,dep,L3,z,0.955,6.0,0.0,1.642,3.0,3.0,Español,0.0,Catalán,0.0,Inglés,6.0,4.0,2.0,yes,no,yes,Flauta,6,Violín,6,Guitarra,6,,,nada ,54.0,yes
74,2024-05-09_00h08.26.996,Unsyncopated_study3,s149,36.0,masculino,left,España,Español y catalán.,Secondary,no,no,B,1,conjunction_syn,L2,syncopated,s2,r2,74,Online_conjL2_syn//b.fe.ra8.666.1554.wav,to,mi,ño,fe,sil,cha,te,ra,sil1,me,sil2,['catch'],[2.5129999999990105],[2.5129999999990105],1.554,no_beat,0.9589999999990104,0.9589999999990104,"[""space""]",ra,2,testConjL3Uns//cat_viol.r2.s1.0.wav,4.0,conjunction_un,unsyncopated,b,s1,no_rule,cat,L3,z,2.481,5.0,0.0,1.305,3.0,3.0,Español,0.0,Catalán,0.0,Inglés,6.0,4.0,2.0,yes,no,yes,Flauta,6,Violín,6,Guitarra,6,,,nada ,54.0,yes
75,2024-05-09_00h08.26.996,Unsyncopated_study3,s149,36.0,masculino,left,España,Español y catalán.,Secondary,no,no,B,1,conjunction_syn,L2,syncopated,s1,r2,75,Online_conjL2_syn//b.fe.ra10.0.666.wav,fe,bi,cha,ra,sil,si,te,su,sil1,ba,sil2,['catch'],[1.6530000000020664],[1.6530000000020664],0.666,no_beat,0.9870000000020664,0.9870000000020664,"[""space""]",ra,2,testConjL3Uns//r1.s1.1.wav,4.0,conjunction_un,unsyncopated,a,s1,rule,rule,L3,z,1.994,4.0,1.0,1.156,3.0,3.0,Español,0.0,Catalán,0.0,Inglés,6.0,4.0,2.0,yes,no,yes,Flauta,6,Violín,6,Guitarra,6,,,nada ,54.0,yes
76,2024-05-09_00h08.26.996,Unsyncopated_study3,s149,36.0,masculino,left,España,Español y catalán.,Secondary,no,no,B,1,conjunction_syn,L2,syncopated,s2,r2,76,Online_conjL2_syn//d.si.ñu5.1332.444.wav,cha,ño,ñu,fe,sil,bi,si,ra,sil1,to,sil2,"['catch', 'false alarm']","[1.4110000000000582, 1.6499999999978172]",[1.4110000000000582],0.444,no_beat,0.9670000000000584,0.9670000000000584,"[""space"",""space""]",ñu,4,testConjL3Uns//r1.s1.2.wav,4.0,conjunction_un,unsyncopated,a,s1,rule,rule,L3,z,2.731,7.0,1.0,0.942,3.0,3.0,Español,0.0,Catalán,0.0,Inglés,6.0,4.0,2.0,yes,no,yes,Flauta,6,Violín,6,Guitarra,6,,,nada ,54.0,yes
77,2024-05-09_00h08.26.996,Unsyncopated_study3,s149,36.0,masculino,left,España,Español y catalán.,Secondary,no,no,B,1,conjunction_syn,L2,syncopated,s1,r1,77,Online_conjL2_syn//d.si.ñu4.none.none.wav,go,su,to,du,sil,bi,me,cha,sil1,mi,sil2,['-'],,,none,none,,,,ñu,4,testConjL3Uns//r2.s2.0.wav,4.0,conjunction_un,unsyncopated,b,s2,rule,rule,L3,m,3.522,5.0,0.0,0.67,3.0,3.0,Español,0.0,Catalán,0.0,Inglés,6.0,4.0,2.0,yes,no,yes,Flauta,6,Violín,6,Guitarra,6,,,nada ,54.0,yes
78,2024-05-09_00h08.26.996,Unsyncopated_study3,s149,36.0,masculino,left,España,Español y catalán.,Secondary,no,no,B,1,conjunction_syn,L2,syncopated,s1,r1,78,Online_conjL2_syn//d.si.ñu7.444.1110.wav,go,to,si,du,sil,ñu,te,mi,sil1,su,sil2,['catch'],[1.8889999999992142],[1.8889999999992142],1.11,no_beat,0.7789999999992141,0.7789999999992141,"[""space""]",ñu,4,testConjL3Uns//r2.s2.1.wav,4.0,conjunction_un,unsyncopated,b,s2,rule,rule,L3,z,2.901,6.0,1.0,1.157,3.0,3.0,Español,0.0,Catalán,0.0,Inglés,6.0,4.0,2.0,yes,no,yes,Flauta,6,Violín,6,Guitarra,6,,,nada ,54.0,yes
79,2024-05-09_00h08.26.996,Unsyncopated_study3,s149,36.0,masculino,left,España,Español y catalán.,Secondary,no,no,B,1,conjunction_syn,L2,syncopated,s1,r2,79,Online_conjL2_syn//d.si.ñu6.1110.1332.wav,fe,ño,bi,ra,sil,si,ñu,te,sil1,me,sil2,['miss'],,,1.332,no_beat,,,,ñu,4,testConjL3Uns//r1.s2.1.wav,4.0,conjunction_un,unsyncopated,a,s2,rule,rule,L3,z,1.325,4.0,1.0,2.031,3.0,3.0,Español,0.0,Catalán,0.0,Inglés,6.0,4.0,2.0,yes,no,yes,Flauta,6,Violín,6,Guitarra,6,,,nada ,54.0,yes
80,2024-05-09_00h08.26.996,Unsyncopated_study3,s149,36.0,masculino,left,España,Español y catalán.,Secondary,no,no,B,1,conjunction_syn,L2,syncopated,s2,r2,80,Online_conjL2_syn//a.go.du16.none.none.wav,ño,te,ñu,fe,sil,me,si,ra,sil1,cha,sil2,['false alarm'],[1.2030000000013388],[1.2030000000013388],none,none,,,"[""space""]",go,1,testConjL3Uns//r1.s2.2.wav,4.0,conjunction_un,unsyncopated,a,s2,rule,rule,L3,m,1.207,7.0,0.0,1.71,3.0,3.0,Español,0.0,Catalán,0.0,Inglés,6.0,4.0,2.0,yes,no,yes,Flauta,6,Violín,6,Guitarra,6,,,nada ,54.0,yes
81,2024-05-09_00h08.26.996,Unsyncopated_study3,s149,36.0,masculino,left,España,Español y catalán.,Secondary,no,no,B,1,conjunction_syn,L2,syncopated,s2,r1,81,Online_conjL2_syn//a.go.du19.666.1554.wav,ba,ño,mi,go,sil,me,te,du,sil1,to,sil2,['catch'],[1.2740000000012515],[1.2740000000012515],0.666,no_beat,0.6080000000012514,0.6080000000012514,"[""space""]",go,1,testConjL3Uns//time_viol.r2.s1.0.wav,4.0,conjunction_un,unsyncopated,b,s1,no_rule,time,L3,z,1.343,6.0,0.0,0.54,3.0,3.0,Español,0.0,Catalán,0.0,Inglés,6.0,4.0,2.0,yes,no,yes,Flauta,6,Violín,6,Guitarra,6,,,nada ,54.0,yes
82,2024-05-09_00h08.26.996,Unsyncopated_study3,s149,36.0,masculino,left,España,Español y catalán.,Secondary,no,no,B,1,conjunction_syn,L2,syncopated,s1,r1,82,Online_conjL2_syn//a.go.du17.0.666.wav,go,ba,ño,du,sil,to,si,te,sil1,cha,sil2,['catch'],[0.7229999999981374],[0.7229999999981374],0.0,beat,0.7229999999981374,0.7229999999981374,"[""space""]",go,1,testConjL3Uns//r2.s1.2.wav,4.0,conjunction_un,unsyncopated,b,s1,rule,rule,L3,z,0.689,7.0,1.0,1.091,3.0,3.0,Español,0.0,Catalán,0.0,Inglés,6.0,4.0,2.0,yes,no,yes,Flauta,6,Violín,6,Guitarra,6,,,nada ,54.0,yes
83,2024-05-09_00h08.26.996,Unsyncopated_study3,s149,36.0,masculino,left,España,Español y catalán.,Secondary,no,no,B,1,conjunction_syn,L2,syncopated,s1,r2,83,Online_conjL2_syn//a.go.du18.none.none.wav,fe,ba,su,ra,sil,cha,mi,to,sil1,ño,sil2,['-'],,,none,none,,,,go,1,testConjL3Uns//time_viol.r2.s2.0.wav,4.0,conjunction_un,unsyncopated,b,s2,no_rule,time,L3,m,1.174,4.0,1.0,0.957,3.0,3.0,Español,0.0,Catalán,0.0,Inglés,6.0,4.0,2.0,yes,no,yes,Flauta,6,Violín,6,Guitarra,6,,,nada ,54.0,yes
84,2024-05-09_00h08.26.996,Unsyncopated_study3,s149,36.0,masculino,left,España,Español y catalán.,Secondary,no,no,B,1,conjunction_syn,L2,syncopated,s1,r2,84,Online_conjL2_syn//a.go.du2.none.none.wav,fe,me,to,ra,sil,mi,te,ñu,sil1,ño,sil2,['-'],,,none,none,,,,go,1,testConjL3Uns//time_viol.r1.s1.0.wav,4.0,conjunction_un,unsyncopated,a,s1,no_rule,time,L3,z,0.538,7.0,0.0,2.345,3.0,3.0,Español,0.0,Catalán,0.0,Inglés,6.0,4.0,2.0,yes,no,yes,Flauta,6,Violín,6,Guitarra,6,,,nada ,54.0,yes
85,2024-05-09_00h08.26.996,Unsyncopated_study3,s149,36.0,masculino,left,España,Español y catalán.,Secondary,no,no,B,1,conjunction_syn,L2,syncopated,s2,r1,85,Online_conjL2_syn//a.go.du1.666.1554.wav,su,me,mi,go,sil,ño,cha,du,sil1,te,sil2,['catch'],[1.2710000000006403],[1.2710000000006403],0.666,no_beat,0.6050000000006402,0.6050000000006402,"[""space""]",go,1,testConjL3Uns//r1.s1.0.wav,4.0,conjunction_un,unsyncopated,a,s1,rule,rule,L3,z,1.476,5.0,1.0,0.653,3.0,3.0,Español,0.0,Catalán,0.0,Inglés,6.0,4.0,2.0,yes,no,yes,Flauta,6,Violín,6,Guitarra,6,,,nada ,54.0,yes
86,2024-05-09_00h08.26.996,Unsyncopated_study3,s149,36.0,masculino,left,España,Español y catalán.,Secondary,no,no,B,1,conjunction_syn,L2,syncopated,s1,r1,86,Online_conjL2_syn//a.go.du0.0.666.wav,go,me,bi,du,sil,te,su,ba,sil1,cha,sil2,['catch'],[0.6280000000006112],[0.6280000000006112],0.0,beat,0.6280000000006112,0.6280000000006112,"[""space""]",go,1,testConjL3Uns//r2.s1.1.wav,4.0,conjunction_un,unsyncopated,b,s1,rule,rule,L3,m,2.919,4.0,0.0,0.871,3.0,3.0,Español,0.0,Catalán,0.0,Inglés,6.0,4.0,2.0,yes,no,yes,Flauta,6,Violín,6,Guitarra,6,,,nada ,54.0,yes
87,2024-05-09_00h08.26.996,Unsyncopated_study3,s149,36.0,masculino,left,España,Español y catalán.,Secondary,no,no,B,1,conjunction_syn,L2,syncopated,s2,r1,87,Online_conjL2_syn//a.go.du3.666.1554.wav,su,bi,te,go,sil,ñu,mi,du,sil1,si,sil2,['catch'],[1.3699999999989814],[1.3699999999989814],0.666,no_beat,0.7039999999989813,0.7039999999989813,"[""space""]",go,1,testConjL3Uns//dep_viol.r2.s1.0.wav,4.0,conjunction_un,unsyncopated,b,s1,no_rule,dep,L3,z,0.921,6.0,0.0,0.537,3.0,3.0,Español,0.0,Catalán,0.0,Inglés,6.0,4.0,2.0,yes,no,yes,Flauta,6,Violín,6,Guitarra,6,,,nada ,54.0,yes
88,2024-05-09_00h08.26.996,Unsyncopated_study3,s149,36.0,masculino,left,España,Español y catalán.,Secondary,no,no,B,1,conjunction_syn,L2,syncopated,s1,r2,88,Online_conjL2_syn//a.go.du9.none.none.wav,fe,ñu,bi,ra,sil,to,te,si,sil1,su,sil2,['-'],,,none,none,,,,go,1,testConjL3Uns//cat_viol.r1.s2.0.wav,4.0,conjunction_un,unsyncopated,a,s2,no_rule,cat,L3,z,0.973,6.0,0.0,0.536,3.0,3.0,Español,0.0,Catalán,0.0,Inglés,6.0,4.0,2.0,yes,no,yes,Flauta,6,Violín,6,Guitarra,6,,,nada ,54.0,yes
89,2024-05-09_00h08.26.996,Unsyncopated_study3,s149,36.0,masculino,left,España,Español y catalán.,Secondary,no,no,B,1,conjunction_syn,L2,syncopated,s2,r2,89,Online_conjL2_syn//a.go.du11.none.none.wav,to,te,ba,fe,sil,cha,me,ra,sil1,bi,sil2,['-'],,,none,none,,,,go,1,testConjL3Uns//cat_viol.r1.s1.0.wav,4.0,conjunction_un,unsyncopated,a,s1,no_rule,cat,L3,z,1.141,6.0,0.0,1.011,3.0,3.0,Español,0.0,Catalán,0.0,Inglés,6.0,4.0,2.0,yes,no,yes,Flauta,6,Violín,6,Guitarra,6,,,nada ,54.0,yes
90,2024-05-09_00h08.26.996,Unsyncopated_study3,s149,36.0,masculino,left,España,Español y catalán.,Secondary,no,no,B,1,conjunction_syn,L2,syncopated,s1,r2,90,Online_conjL2_syn//a.go.du10.none.none.wav,fe,cha,ba,ra,sil,ño,si,me,sil1,mi,sil2,['-'],,,none,none,,,,go,1,testConjL3Uns//dep_viol.r1.s1.0.wav,4.0,conjunction_un,unsyncopated,a,s1,no_rule,dep,L3,m,6.601,4.0,1.0,1.86,3.0,3.0,Español,0.0,Catalán,0.0,Inglés,6.0,4.0,2.0,yes,no,yes,Flauta,6,Violín,6,Guitarra,6,,,nada ,54.0,yes
91,2024-05-09_00h08.26.996,Unsyncopated_study3,s149,36.0,masculino,left,España,Español y catalán.,Secondary,no,no,B,1,conjunction_syn,L2,syncopated,s2,r2,91,Online_conjL2_syn//a.go.du8.none.none.wav,to,bi,te,fe,sil,ñu,mi,ra,sil1,si,sil2,['-'],,,none,none,,,,go,1,testConjL3Uns//r1.s2.0.wav,4.0,conjunction_un,unsyncopated,a,s2,rule,rule,L3,z,1.024,6.0,1.0,0.705,3.0,3.0,Español,0.0,Catalán,0.0,Inglés,6.0,4.0,2.0,yes,no,yes,Flauta,6,Violín,6,Guitarra,6,,,nada ,54.0,yes
92,2024-05-09_00h08.26.996,Unsyncopated_study3,s149,36.0,masculino,left,España,Español y catalán.,Secondary,no,no,B,1,conjunction_syn,L2,syncopated,s1,r1,92,Online_conjL2_syn//c.cha.me22.1554.444.wav,go,bi,me,du,sil,to,ba,cha,sil1,ño,sil2,['catch'],[0.6510000000016589],[0.6510000000016589],0.444,no_beat,0.2070000000016589,0.2070000000016589,"[""space""]",me,3,testConjL3Uns//r2.s2.2.wav,4.0,conjunction_un,unsyncopated,b,s2,rule,rule,L3,z,2.343,7.0,1.0,0.655,3.0,3.0,Español,0.0,Catalán,0.0,Inglés,6.0,4.0,2.0,yes,no,yes,Flauta,6,Violín,6,Guitarra,6,,,nada ,54.0,yes
93,2024-05-09_00h08.26.996,Unsyncopated_study3,s149,36.0,masculino,left,España,Español y catalán.,Secondary,no,no,B,1,conjunction_syn,L2,syncopated,s1,r1,93,Online_conjL2_syn//c.cha.me20.none.none.wav,go,mi,si,du,sil,bi,ba,ño,sil1,su,sil2,['-'],,,none,none,,,,me,3,testConjL3Uns//r2.s1.0.wav,4.0,conjunction_un,unsyncopated,b,s1,rule,rule,L3,m,4.627,5.0,0.0,0.672,3.0,3.0,Español,0.0,Catalán,0.0,Inglés,6.0,4.0,2.0,yes,no,yes,Flauta,6,Violín,6,Guitarra,6,,,nada ,54.0,yes
94,2024-05-09_00h08.26.996,Unsyncopated_study3,s149,36.0,masculino,left,España,Español y catalán.,Secondary,no,no,B,1,conjunction_syn,L2,syncopated,s1,r2,94,Online_conjL2_syn//c.cha.me23.none.none.wav,fe,bi,ñu,ra,sil,ba,su,to,sil1,te,sil2,['-'],,,none,none,,,,me,3,testConjL3Uns//cat_viol.r2.s2.0.wav,4.0,conjunction_un,unsyncopated,b,s2,no_rule,cat,L3,m,0.889,6.0,1.0,0.805,3.0,3.0,Español,0.0,Catalán,0.0,Inglés,6.0,4.0,2.0,yes,no,yes,Flauta,6,Violín,6,Guitarra,6,,,nada ,54.0,yes
95,2024-05-09_00h08.26.996,Unsyncopated_study3,s149,36.0,masculino,left,España,Español y catalán.,Secondary,no,no,B,1,conjunction_syn,L2,syncopated,s1,r2,95,Online_conjL2_syn//c.cha.me21.222.444.wav,fe,cha,me,ra,sil,su,ñu,to,sil1,mi,sil2,['catch'],[2.602999999999156],[2.602999999999156],0.444,no_beat,,2.158999999999156,"[""space""]",me,3,testConjL3Uns//time_viol.r1.s2.0.wav,4.0,conjunction_un,unsyncopated,a,s2,no_rule,time,L3,z,0.955,4.0,0.0,1.106,3.0,3.0,Español,0.0,Catalán,0.0,Inglés,6.0,4.0,2.0,yes,no,yes,Flauta,6,Violín,6,Guitarra,6,,,nada ,54.0,yes
96,2024-05-09_00h08.26.996,Unsyncopated_study3,s149,36.0,masculino,left,España,Español y catalán.,Secondary,no,no,B,1,conjunction_syn,L2,syncopated,s1,r1,96,Online_conjL2_syn//b.fe.ra18.none.none.wav,go,ba,mi,du,sil,su,ñu,me,sil1,ño,sil2,['-'],,,none,none,,,,ra,2,,,,,,,,,,,,,,,3.0,3.0,Español,0.0,Catalán,0.0,Inglés,6.0,4.0,2.0,yes,no,yes,Flauta,6,Violín,6,Guitarra,6,,,nada ,54.0,yes
97,2024-05-09_00h08.26.996,Unsyncopated_study3,s149,36.0,masculino,left,España,Español y catalán.,Secondary,no,no,B,1,conjunction_syn,L2,syncopated,s1,r2,97,Online_conjL2_syn//b.fe.ra17.0.666.wav,fe,ño,ba,ra,sil,me,to,su,sil1,bi,sil2,['catch'],[1.1159999999981665],[1.1159999999981665],0.666,no_beat,0.4499999999981664,0.4499999999981664,"[""space""]",ra,2,,,,,,,,,,,,,,,3.0,3.0,Español,0.0,Catalán,0.0,Inglés,6.0,4.0,2.0,yes,no,yes,Flauta,6,Violín,6,Guitarra,6,,,nada ,54.0,yes
98,2024-05-09_00h08.26.996,Unsyncopated_study3,s149,36.0,masculino,left,España,Español y catalán.,Secondary,no,no,B,1,conjunction_syn,L2,syncopated,s2,r2,98,Online_conjL2_syn//b.fe.ra16.666.1554.wav,to,ñu,mi,fe,sil,ño,cha,ra,sil1,me,sil2,['catch'],[2.242999999998574],[2.242999999998574],1.554,no_beat,0.6889999999985739,0.6889999999985739,"[""space""]",ra,2,,,,,,,,,,,,,,,3.0,3.0,Español,0.0,Catalán,0.0,Inglés,6.0,4.0,2.0,yes,no,yes,Flauta,6,Violín,6,Guitarra,6,,,nada ,54.0,yes
99,2024-05-09_00h08.26.996,Unsyncopated_study3,s149,36.0,masculino,left,España,Español y catalán.,Secondary,no,no,B,1,conjunction_syn,L2,syncopated,s1,r1,99,Online_conjL2_syn//b.fe.ra19.none.none.wav,go,bi,ño,du,sil,si,mi,me,sil1,cha,sil2,['-'],,,none,none,,,,ra,2,,,,,,,,,,,,,,,3.0,3.0,Español,0.0,Catalán,0.0,Inglés,6.0,4.0,2.0,yes,no,yes,Flauta,6,Violín,6,Guitarra,6,,,nada ,54.0,yes
100,2024-05-09_00h08.26.996,Unsyncopated_study3,s149,36.0,masculino,left,España,Español y catalán.,Secondary,no,no,B,1,conjunction_syn,L2,syncopated,s1,r1,100,Online_conjL2_syn//b.fe.ra28.none.none.wav,go,te,ñu,du,sil,ba,mi,me,sil1,ño,sil2,['-'],,,none,none,,,,ra,2,,,,,,,,,,,,,,,3.0,3.0,Español,0.0,Catalán,0.0,Inglés,6.0,4.0,2.0,yes,no,yes,Flauta,6,Violín,6,Guitarra,6,,,nada ,54.0,yes
101,2024-05-09_00h08.26.996,Unsyncopated_study3,s149,36.0,masculino,left,España,Español y catalán.,Secondary,no,no,B,1,conjunction_syn,L2,syncopated,s1,r2,101,Online_conjL2_syn//b.fe.ra30.0.666.wav,fe,ba,ñu,ra,sil,su,ño,mi,sil1,cha,sil2,['catch'],[1.1019999999989523],[1.1019999999989523],0.666,no_beat,0.4359999999989522,0.4359999999989522,"[""space""]",ra,2,,,,,,,,,,,,,,,3.0,3.0,Español,0.0,Catalán,0.0,Inglés,6.0,4.0,2.0,yes,no,yes,Flauta,6,Violín,6,Guitarra,6,,,nada ,54.0,yes
102,2024-05-09_00h08.26.996,Unsyncopated_study3,s149,36.0,masculino,left,España,Español y catalán.,Secondary,no,no,B,1,conjunction_syn,L2,syncopated,s2,r2,102,Online_conjL2_syn//b.fe.ra31.666.1554.wav,bi,cha,te,fe,sil,me,ñu,ra,sil1,si,sil2,['catch'],[2.5640000000021246],[2.5640000000021246],1.554,no_beat,1.0100000000021243,1.0100000000021243,"[""space""]",ra,2,,,,,,,,,,,,,,,3.0,3.0,Español,0.0,Catalán,0.0,Inglés,6.0,4.0,2.0,yes,no,yes,Flauta,6,Violín,6,Guitarra,6,,,nada ,54.0,yes
103,2024-05-09_00h08.26.996,Unsyncopated_study3,s149,36.0,masculino,left,España,Español y catalán.,Secondary,no,no,B,1,conjunction_syn,L2,syncopated,s1,r1,103,Online_conjL2_syn//b.fe.ra29.none.none.wav,go,cha,si,du,sil,bi,to,ñu,sil1,ba,sil2,['-'],,,none,none,,,,ra,2,,,,,,,,,,,,,,,3.0,3.0,Español,0.0,Catalán,0.0,Inglés,6.0,4.0,2.0,yes,no,yes,Flauta,6,Violín,6,Guitarra,6,,,nada ,54.0,yes
104,2024-05-09_00h08.26.996,Unsyncopated_study3,s149,36.0,masculino,left,España,Español y catalán.,Secondary,no,no,B,1,conjunction_syn,L2,syncopated,s2,r1,104,Online_conjL2_syn//a.go.du14.666.1554.wav,si,ba,me,go,sil,ño,su,du,sil1,to,sil2,['catch'],[1.3840000000018335],[1.3840000000018335],0.666,no_beat,0.7180000000018335,0.7180000000018335,"[""space""]",go,1,,,,,,,,,,,,,,,3.0,3.0,Español,0.0,Catalán,0.0,Inglés,6.0,4.0,2.0,yes,no,yes,Flauta,6,Violín,6,Guitarra,6,,,nada ,54.0,yes
105,2024-05-09_00h08.26.996,Unsyncopated_study3,s149,36.0,masculino,left,España,Español y catalán.,Secondary,no,no,B,1,conjunction_syn,L2,syncopated,s1,r1,105,Online_conjL2_syn//a.go.du15.0.666.wav,go,bi,cha,du,sil,su,si,ño,sil1,me,sil2,['catch'],[0.5470000000022992],[0.5470000000022992],0.0,beat,0.5470000000022992,0.5470000000022992,"[""space""]",go,1,,,,,,,,,,,,,,,3.0,3.0,Español,0.0,Catalán,0.0,Inglés,6.0,4.0,2.0,yes,no,yes,Flauta,6,Violín,6,Guitarra,6,,,nada ,54.0,yes
106,2024-05-09_00h08.26.996,Unsyncopated_study3,s149,36.0,masculino,left,España,Español y catalán.,Secondary,no,no,B,1,conjunction_syn,L2,syncopated,s2,r1,106,Online_conjL2_syn//a.go.du12.666.1554.wav,cha,bi,te,go,sil,ba,ñu,du,sil1,si,sil2,['catch'],[1.2190000000009604],[1.2190000000009604],0.666,no_beat,0.5530000000009604,0.5530000000009604,"[""space""]",go,1,,,,,,,,,,,,,,,3.0,3.0,Español,0.0,Catalán,0.0,Inglés,6.0,4.0,2.0,yes,no,yes,Flauta,6,Violín,6,Guitarra,6,,,nada ,54.0,yes
107,2024-05-09_00h08.26.996,Unsyncopated_study3,s149,36.0,masculino,left,España,Español y catalán.,Secondary,no,no,B,1,conjunction_syn,L2,syncopated,s2,r1,107,Online_conjL2_syn//a.go.du13.666.1554.wav,su,bi,ba,go,sil,ño,to,du,sil1,te,sil2,['catch'],[1.2839999999996508],[1.2839999999996508],0.666,no_beat,0.6179999999996507,0.6179999999996507,"[""space""]",go,1,,,,,,,,,,,,,,,3.0,3.0,Español,0.0,Catalán,0.0,Inglés,6.0,4.0,2.0,yes,no,yes,Flauta,6,Violín,6,Guitarra,6,,,nada ,54.0,yes
108,2024-05-09_00h08.26.996,Unsyncopated_study3,s149,36.0,masculino,left,España,Español y catalán.,Secondary,no,no,B,1,conjunction_syn,L2,syncopated,s1,r2,108,Online_conjL2_syn//d.si.ñu8.none.none.wav,fe,ba,bi,ra,sil,cha,ño,te,sil1,mi,sil2,['-'],,,none,none,,,,ñu,4,,,,,,,,,,,,,,,3.0,3.0,Español,0.0,Catalán,0.0,Inglés,6.0,4.0,2.0,yes,no,yes,Flauta,6,Violín,6,Guitarra,6,,,nada ,54.0,yes
109,2024-05-09_00h08.26.996,Unsyncopated_study3,s149,36.0,masculino,left,España,Español y catalán.,Secondary,no,no,B,1,conjunction_syn,L2,syncopated,s2,r1,109,Online_conjL2_syn//d.si.ñu10.none.none.wav,ño,te,me,go,sil,su,to,du,sil1,ba,sil2,['false alarm'],[0.8070000000006985],[0.8070000000006985],none,none,,,"[""space""]",ñu,4,,,,,,,,,,,,,,,3.0,3.0,Español,0.0,Catalán,0.0,Inglés,6.0,4.0,2.0,yes,no,yes,Flauta,6,Violín,6,Guitarra,6,,,nada ,54.0,yes
110,2024-05-09_00h08.26.996,Unsyncopated_study3,s149,36.0,masculino,left,España,Español y catalán.,Secondary,no,no,B,1,conjunction_syn,L2,syncopated,s1,r2,110,Online_conjL2_syn//d.si.ñu9.1110.1332.wav,fe,te,ño,ra,sil,si,ñu,bi,sil1,cha,sil2,['miss'],,,1.332,no_beat,,,,ñu,4,,,,,,,,,,,,,,,3.0,3.0,Español,0.0,Catalán,0.0,Inglés,6.0,4.0,2.0,yes,no,yes,Flauta,6,Violín,6,Guitarra,6,,,nada ,54.0,yes
111,2024-05-09_00h08.26.996,Unsyncopated_study3,s149,36.0,masculino,left,España,Español y catalán.,Secondary,no,no,B,1,conjunction_syn,L2,syncopated,s1,r2,111,Online_conjL2_syn//d.si.ñu11.none.none.wav,fe,me,ño,ra,sil,su,to,cha,sil1,bi,sil2,['-'],,,none,none,,,,ñu,4,,,,,,,,,,,,,,,3.0,3.0,Español,0.0,Catalán,0.0,Inglés,6.0,4.0,2.0,yes,no,yes,Flauta,6,Violín,6,Guitarra,6,,,nada ,54.0,yes
112,2024-05-09_00h08.26.996,Unsyncopated_study3,s149,36.0,masculino,left,España,Español y catalán.,Secondary,no,no,B,1,conjunction_syn,L2,syncopated,s2,r1,112,Online_conjL2_syn//c.cha.me25.222.1110.wav,mi,cha,ñu,go,sil,me,ño,du,sil1,bi,sil2,['catch'],[2.4089999999996508],[2.4089999999996508],1.11,no_beat,,1.2989999999996509,"[""space""]",me,3,,,,,,,,,,,,,,,3.0,3.0,Español,0.0,Catalán,0.0,Inglés,6.0,4.0,2.0,yes,no,yes,Flauta,6,Violín,6,Guitarra,6,,,nada ,54.0,yes
113,2024-05-09_00h08.26.996,Unsyncopated_study3,s149,36.0,masculino,left,España,Español y catalán.,Secondary,no,no,B,1,conjunction_syn,L2,syncopated,s1,r2,113,Online_conjL2_syn//c.cha.me24.none.none.wav,fe,ba,su,ra,sil,ñu,to,ño,sil1,si,sil2,['-'],,,none,none,,,,me,3,,,,,,,,,,,,,,,3.0,3.0,Español,0.0,Catalán,0.0,Inglés,6.0,4.0,2.0,yes,no,yes,Flauta,6,Violín,6,Guitarra,6,,,nada ,54.0,yes
114,2024-05-09_00h08.26.996,Unsyncopated_study3,s149,36.0,masculino,left,España,Español y catalán.,Secondary,no,no,B,1,conjunction_syn,L2,syncopated,s1,r1,114,Online_conjL2_syn//c.cha.me26.1332.222.wav,go,me,si,du,sil,ño,cha,su,sil1,ba,sil2,['miss'],,,0.222,no_beat,,,,me,3,,,,,,,,,,,,,,,3.0,3.0,Español,0.0,Catalán,0.0,Inglés,6.0,4.0,2.0,yes,no,yes,Flauta,6,Violín,6,Guitarra,6,,,nada ,54.0,yes
115,2024-05-09_00h08.26.996,Unsyncopated_study3,s149,36.0,masculino,left,España,Español y catalán.,Secondary,no,no,B,1,conjunction_syn,L2,syncopated,s1,r2,115,Online_conjL2_syn//c.cha.me27.none.none.wav,fe,si,su,ra,sil,ño,to,ñu,sil1,ba,sil2,['false alarm'],[2.040999999997439],[2.040999999997439],none,none,,,"[""space""]",me,3,,,,,,,,,,,,,,,3.0,3.0,Español,0.0,Catalán,0.0,Inglés,6.0,4.0,2.0,yes,no,yes,Flauta,6,Violín,6,Guitarra,6,,,nada ,54.0,yes
116,2024-05-09_00h08.26.996,Unsyncopated_study3,s149,36.0,masculino,left,España,Español y catalán.,Secondary,no,no,B,1,conjunction_syn,L2,syncopated,s1,r1,116,Online_conjL2_syn//a.go.du27.0.666.wav,go,te,ñu,du,sil,bi,ño,su,sil1,me,sil2,['miss'],,,0.0,beat,,,,go,1,,,,,,,,,,,,,,,3.0,3.0,Español,0.0,Catalán,0.0,Inglés,6.0,4.0,2.0,yes,no,yes,Flauta,6,Violín,6,Guitarra,6,,,nada ,54.0,yes
117,2024-05-09_00h08.26.996,Unsyncopated_study3,s149,36.0,masculino,left,España,Español y catalán.,Secondary,no,no,B,1,conjunction_syn,L2,syncopated,s1,r2,117,Online_conjL2_syn//a.go.du26.none.none.wav,fe,ba,su,ra,sil,bi,me,ñu,sil1,cha,sil2,['-'],,,none,none,,,,go,1,,,,,,,,,,,,,,,3.0,3.0,Español,0.0,Catalán,0.0,Inglés,6.0,4.0,2.0,yes,no,yes,Flauta,6,Violín,6,Guitarra,6,,,nada ,54.0,yes
118,2024-05-09_00h08.26.996,Unsyncopated_study3,s149,36.0,masculino,left,España,Español y catalán.,Secondary,no,no,B,1,conjunction_syn,L2,syncopated,s1,r2,118,Online_conjL2_syn//a.go.du25.none.none.wav,fe,ba,to,ra,sil,me,cha,si,sil1,ño,sil2,['-'],,,none,none,,,,go,1,,,,,,,,,,,,,,,3.0,3.0,Español,0.0,Catalán,0.0,Inglés,6.0,4.0,2.0,yes,no,yes,Flauta,6,Violín,6,Guitarra,6,,,nada ,54.0,yes
119,2024-05-09_00h08.26.996,Unsyncopated_study3,s149,36.0,masculino,left,España,Español y catalán.,Secondary,no,no,B,1,conjunction_syn,L2,syncopated,s2,r1,119,Online_conjL2_syn//a.go.du24.666.1554.wav,ño,ñu,si,go,sil,me,su,du,sil1,te,sil2,['catch'],[1.1700000000018917],[1.1700000000018917],0.666,no_beat,0.5040000000018917,0.5040000000018917,"[""space""]",go,1,,,,,,,,,,,,,,,3.0,3.0,Español,0.0,Catalán,0.0,Inglés,6.0,4.0,2.0,yes,no,yes,Flauta,6,Violín,6,Guitarra,6,,,nada ,54.0,yes
120,2024-05-09_00h08.26.996,Unsyncopated_study3,s149,36.0,masculino,left,España,Español y catalán.,Secondary,no,no,B,1,conjunction_syn,L2,syncopated,s2,r1,120,Online_conjL2_syn//d.si.ñu17.0.222.wav,si,ñu,te,go,sil,to,ba,du,sil1,bi,sil2,['miss'],,,0.222,no_beat,,,,ñu,4,,,,,,,,,,,,,,,3.0,3.0,Español,0.0,Catalán,0.0,Inglés,6.0,4.0,2.0,yes,no,yes,Flauta,6,Violín,6,Guitarra,6,,,nada ,54.0,yes
121,2024-05-09_00h08.26.996,Unsyncopated_study3,s149,36.0,masculino,left,España,Español y catalán.,Secondary,no,no,B,1,conjunction_syn,L2,syncopated,s2,r2,121,Online_conjL2_syn//d.si.ñu16.none.none.wav,te,to,bi,fe,sil,me,mi,ra,sil1,cha,sil2,['-'],,,none,none,,,,ñu,4,,,,,,,,,,,,,,,3.0,3.0,Español,0.0,Catalán,0.0,Inglés,6.0,4.0,2.0,yes,no,yes,Flauta,6,Violín,6,Guitarra,6,,,nada ,54.0,yes
122,2024-05-09_00h08.26.996,Unsyncopated_study3,s149,36.0,masculino,left,España,Español y catalán.,Secondary,no,no,B,1,conjunction_syn,L2,syncopated,s2,r2,122,Online_conjL2_syn//d.si.ñu18.none.none.wav,te,su,to,fe,sil,me,cha,ra,sil1,ba,sil2,['-'],,,none,none,,,,ñu,4,,,,,,,,,,,,,,,3.0,3.0,Español,0.0,Catalán,0.0,Inglés,6.0,4.0,2.0,yes,no,yes,Flauta,6,Violín,6,Guitarra,6,,,nada ,54.0,yes
123,2024-05-09_00h08.26.996,Unsyncopated_study3,s149,36.0,masculino,left,España,Español y catalán.,Secondary,no,no,B,1,conjunction_syn,L2,syncopated,s1,r2,123,Online_conjL2_syn//d.si.ñu19.444.1110.wav,fe,bi,si,ra,sil,ñu,te,to,sil1,ño,sil2,['catch'],[1.9880000000011933],[1.9880000000011933],1.11,no_beat,0.8780000000011932,0.8780000000011932,"[""space""]",ñu,4,,,,,,,,,,,,,,,3.0,3.0,Español,0.0,Catalán,0.0,Inglés,6.0,4.0,2.0,yes,no,yes,Flauta,6,Violín,6,Guitarra,6,,,nada ,54.0,yes
124,2024-05-09_00h08.26.996,Unsyncopated_study3,s149,36.0,masculino,left,España,Español y catalán.,Secondary,no,no,B,1,conjunction_syn,L2,syncopated,s2,r2,124,Online_conjL2_syn//b.fe.ra5.666.1554.wav,ñu,te,to,fe,sil,ba,su,ra,sil1,mi,sil2,['catch'],[2.5649999999986903],[2.5649999999986903],1.554,no_beat,1.0109999999986905,1.0109999999986905,"[""space""]",ra,2,,,,,,,,,,,,,,,3.0,3.0,Español,0.0,Catalán,0.0,Inglés,6.0,4.0,2.0,yes,no,yes,Flauta,6,Violín,6,Guitarra,6,,,nada ,54.0,yes
125,2024-05-09_00h08.26.996,Unsyncopated_study3,s149,36.0,masculino,left,España,Español y catalán.,Secondary,no,no,B,1,conjunction_syn,L2,syncopated,s2,r1,125,Online_conjL2_syn//b.fe.ra7.none.none.wav,ba,cha,me,go,sil,su,si,du,sil1,mi,sil2,['-'],,,none,none,,,,ra,2,,,,,,,,,,,,,,,3.0,3.0,Español,0.0,Catalán,0.0,Inglés,6.0,4.0,2.0,yes,no,yes,Flauta,6,Violín,6,Guitarra,6,,,nada ,54.0,yes
126,2024-05-09_00h08.26.996,Unsyncopated_study3,s149,36.0,masculino,left,España,Español y catalán.,Secondary,no,no,B,1,conjunction_syn,L2,syncopated,s2,r1,126,Online_conjL2_syn//b.fe.ra6.none.none.wav,te,ño,ba,go,sil,ñu,cha,du,sil1,su,sil2,['-'],,,none,none,,,,ra,2,,,,,,,,,,,,,,,3.0,3.0,Español,0.0,Catalán,0.0,Inglés,6.0,4.0,2.0,yes,no,yes,Flauta,6,Violín,6,Guitarra,6,,,nada ,54.0,yes
127,2024-05-09_00h08.26.996,Unsyncopated_study3,s149,36.0,masculino,left,España,Español y catalán.,Secondary,no,no,B,1,conjunction_syn,L2,syncopated,s2,r1,127,Online_conjL2_syn//b.fe.ra4.none.none.wav,me,bi,ño,go,sil,ñu,to,du,sil1,te,sil2,['-'],,,none,none,,,,ra,2,,,,,,,,,,,,,,,3.0,3.0,Español,0.0,Catalán,0.0,Inglés,6.0,4.0,2.0,yes,no,yes,Flauta,6,Violín,6,Guitarra,6,,,nada ,54.0,yes
128,2024-05-09_00h08.26.996,Unsyncopated_study3,s149,36.0,masculino,left,España,Español y catalán.,Secondary,no,no,B,2,when,L1,unsyncopated,when,when,0,Online_whenL1//b.ta7.888.wav,lu,fa,fo,sil,ta,pu,ri,sil1,ni,ne,sil2,['catch'],[2.470000000001164],[2.470000000001164],0.888,beat,,1.5820000000011645,"[""space""]",ta,2,,,,,,,,,,,,,,,3.0,3.0,Español,0.0,Catalán,0.0,Inglés,6.0,4.0,2.0,yes,no,yes,Flauta,6,Violín,6,Guitarra,6,,,nada ,54.0,yes
129,2024-05-09_00h08.26.996,Unsyncopated_study3,s149,36.0,masculino,left,España,Español y catalán.,Secondary,no,no,B,2,when,L1,unsyncopated,when,when,1,Online_whenL1//b.ta6.none.wav,ze,zu,la,sil,ni,ri,ki,sil1,ro,pu,sil2,['-'],,,none,none,,,,ta,2,,,,,,,,,,,,,,,3.0,3.0,Español,0.0,Catalán,0.0,Inglés,6.0,4.0,2.0,yes,no,yes,Flauta,6,Violín,6,Guitarra,6,,,nada ,54.0,yes
130,2024-05-09_00h08.26.996,Unsyncopated_study3,s149,36.0,masculino,left,España,Español y catalán.,Secondary,no,no,B,2,when,L1,unsyncopated,when,when,2,Online_whenL1//b.ta4.1776.wav,ni,pu,ze,sil,fo,ro,ne,sil1,ta,zu,sil2,['catch_delay'],[1.0199999999977882],[1.0199999999977882],1.776,beat,1.0199999999977882,1.0199999999977882,,ta,2,,,,,,,,,,,,,,,3.0,3.0,Español,0.0,Catalán,0.0,Inglés,6.0,4.0,2.0,yes,no,yes,Flauta,6,Violín,6,Guitarra,6,,,nada ,54.0,yes
131,2024-05-09_00h08.26.996,Unsyncopated_study3,s149,36.0,masculino,left,España,Español y catalán.,Secondary,no,no,B,2,when,L1,unsyncopated,when,when,3,Online_whenL1//b.ta5.1332.wav,pu,ro,cho,sil,zu,fa,ta,sil1,ri,ne,sil2,['miss'],[0.1319999999977881],[0.1319999999977881],1.332,no_beat,,,"[""space""]",ta,2,,,,,,,,,,,,,,,3.0,3.0,Español,0.0,Catalán,0.0,Inglés,6.0,4.0,2.0,yes,no,yes,Flauta,6,Violín,6,Guitarra,6,,,nada ,54.0,yes
132,2024-05-09_00h08.26.996,Unsyncopated_study3,s149,36.0,masculino,left,España,Español y catalán.,Secondary,no,no,B,2,when,L1,unsyncopated,when,when,4,Online_whenL1//b.ta2.1332.wav,zu,ni,pu,sil,ri,ne,ta,sil1,ze,fa,sil2,['miss'],,,1.332,no_beat,,,,ta,2,,,,,,,,,,,,,,,3.0,3.0,Español,0.0,Catalán,0.0,Inglés,6.0,4.0,2.0,yes,no,yes,Flauta,6,Violín,6,Guitarra,6,,,nada ,54.0,yes
133,2024-05-09_00h08.26.996,Unsyncopated_study3,s149,36.0,masculino,left,España,Español y catalán.,Secondary,no,no,B,2,when,L1,unsyncopated,when,when,5,Online_whenL1//b.ta1.none.wav,ki,cho,fa,sil,ne,ze,ri,sil1,be,la,sil2,['-'],,,none,none,,,,ta,2,,,,,,,,,,,,,,,3.0,3.0,Español,0.0,Catalán,0.0,Inglés,6.0,4.0,2.0,yes,no,yes,Flauta,6,Violín,6,Guitarra,6,,,nada ,54.0,yes
134,2024-05-09_00h08.26.996,Unsyncopated_study3,s149,36.0,masculino,left,España,Español y catalán.,Secondary,no,no,B,2,when,L1,unsyncopated,when,when,6,Online_whenL1//b.ta0.none.wav,ri,lu,ze,sil,zu,la,pu,sil1,cho,be,sil2,['-'],,,none,none,,,,ta,2,,,,,,,,,,,,,,,3.0,3.0,Español,0.0,Catalán,0.0,Inglés,6.0,4.0,2.0,yes,no,yes,Flauta,6,Violín,6,Guitarra,6,,,nada ,54.0,yes
135,2024-05-09_00h08.26.996,Unsyncopated_study3,s149,36.0,masculino,left,España,Español y catalán.,Secondary,no,no,B,2,when,L1,unsyncopated,when,when,7,Online_whenL1//b.ta3.222.wav,ri,ta,fo,sil,ro,ni,pu,sil1,zu,ne,sil2,['miss'],,,0.222,no_beat,,,,ta,2,,,,,,,,,,,,,,,3.0,3.0,Español,0.0,Catalán,0.0,Inglés,6.0,4.0,2.0,yes,no,yes,Flauta,6,Violín,6,Guitarra,6,,,nada ,54.0,yes
136,2024-05-09_00h08.26.996,Unsyncopated_study3,s149,36.0,masculino,left,España,Español y catalán.,Secondary,no,no,B,2,when,L1,unsyncopated,when,when,8,Online_whenL1//b.ta27.none.wav,be,fa,cho,sil,pu,ze,ni,sil1,lu,zu,sil2,['-'],,,none,none,,,,ta,2,,,,,,,,,,,,,,,3.0,3.0,Español,0.0,Catalán,0.0,Inglés,6.0,4.0,2.0,yes,no,yes,Flauta,6,Violín,6,Guitarra,6,,,nada ,54.0,yes
137,2024-05-09_00h08.26.996,Unsyncopated_study3,s149,36.0,masculino,left,España,Español y catalán.,Secondary,no,no,B,2,when,L1,unsyncopated,when,when,9,Online_whenL1//b.ta26.888.wav,zu,la,be,sil,ta,ro,cho,sil1,fo,ne,sil2,['catch'],[1.793999999994412],[1.793999999994412],0.888,beat,0.905999999994412,0.905999999994412,"[""space""]",ta,2,,,,,,,,,,,,,,,3.0,3.0,Español,0.0,Catalán,0.0,Inglés,6.0,4.0,2.0,yes,no,yes,Flauta,6,Violín,6,Guitarra,6,,,nada ,54.0,yes
138,2024-05-09_00h08.26.996,Unsyncopated_study3,s149,36.0,masculino,left,España,Español y catalán.,Secondary,no,no,B,2,when,L1,unsyncopated,when,when,10,Online_whenL1//b.ta24.1998.wav,ro,lu,ki,sil,cho,ne,ri,sil1,ni,ta,sil2,['miss'],,,1.998,no_beat,,,,ta,2,,,,,,,,,,,,,,,3.0,3.0,Español,0.0,Catalán,0.0,Inglés,6.0,4.0,2.0,yes,no,yes,Flauta,6,Violín,6,Guitarra,6,,,nada ,54.0,yes
139,2024-05-09_00h08.26.996,Unsyncopated_study3,s149,36.0,masculino,left,España,Español y catalán.,Secondary,no,no,B,2,when,L1,unsyncopated,when,when,11,Online_whenL1//b.ta25.0.wav,ta,ne,ro,sil,fo,be,lu,sil1,zu,fa,sil2,['catch'],[1.033000000003085],[1.033000000003085],0.0,beat,1.033000000003085,1.033000000003085,"[""space""]",ta,2,,,,,,,,,,,,,,,3.0,3.0,Español,0.0,Catalán,0.0,Inglés,6.0,4.0,2.0,yes,no,yes,Flauta,6,Violín,6,Guitarra,6,,,nada ,54.0,yes
140,2024-05-09_00h08.26.996,Unsyncopated_study3,s149,36.0,masculino,left,España,Español y catalán.,Secondary,no,no,B,2,when,L1,unsyncopated,when,when,12,Online_whenL1//d.ne23.none.wav,be,ni,cho,sil,ri,ro,fo,sil1,la,ki,sil2,['-'],,,none,none,,,,ne,4,,,,,,,,,,,,,,,3.0,3.0,Español,0.0,Catalán,0.0,Inglés,6.0,4.0,2.0,yes,no,yes,Flauta,6,Violín,6,Guitarra,6,,,nada ,54.0,yes
141,2024-05-09_00h08.26.996,Unsyncopated_study3,s149,36.0,masculino,left,España,Español y catalán.,Secondary,no,no,B,2,when,L1,unsyncopated,when,when,13,Online_whenL1//d.ne22.none.wav,ni,ki,pu,sil,ro,la,cho,sil1,fa,ri,sil2,['-'],,,none,none,,,,ne,4,,,,,,,,,,,,,,,3.0,3.0,Español,0.0,Catalán,0.0,Inglés,6.0,4.0,2.0,yes,no,yes,Flauta,6,Violín,6,Guitarra,6,,,nada ,54.0,yes
142,2024-05-09_00h08.26.996,Unsyncopated_study3,s149,36.0,masculino,left,España,Español y catalán.,Secondary,no,no,B,2,when,L1,unsyncopated,when,when,14,Online_whenL1//d.ne21.1332.wav,la,ro,ki,sil,cho,fo,ne,sil1,ta,ni,sil2,['catch'],[2.074000000000524],[2.074000000000524],1.332,no_beat,0.7420000000005238,0.7420000000005238,"[""space""]",ne,4,,,,,,,,,,,,,,,3.0,3.0,Español,0.0,Catalán,0.0,Inglés,6.0,4.0,2.0,yes,no,yes,Flauta,6,Violín,6,Guitarra,6,,,nada ,54.0,yes
143,2024-05-09_00h08.26.996,Unsyncopated_study3,s149,36.0,masculino,left,España,Español y catalán.,Secondary,no,no,B,2,when,L1,unsyncopated,when,when,15,Online_whenL1//d.ne20.1110.wav,fa,ki,cho,sil,pu,ne,zu,sil1,la,ro,sil2,['miss'],,,1.11,no_beat,,,,ne,4,,,,,,,,,,,,,,,3.0,3.0,Español,0.0,Catalán,0.0,Inglés,6.0,4.0,2.0,yes,no,yes,Flauta,6,Violín,6,Guitarra,6,,,nada ,54.0,yes
144,2024-05-09_00h08.26.996,Unsyncopated_study3,s149,36.0,masculino,left,España,Español y catalán.,Secondary,no,no,B,2,when,L1,unsyncopated,when,when,16,Online_whenL1//c.ro11.888.wav,ni,fa,ze,sil,ro,ta,ri,sil1,la,be,sil2,['catch'],[1.599000000001979],[1.599000000001979],0.888,beat,0.711000000001979,0.711000000001979,"[""space""]",ro,3,,,,,,,,,,,,,,,3.0,3.0,Español,0.0,Catalán,0.0,Inglés,6.0,4.0,2.0,yes,no,yes,Flauta,6,Violín,6,Guitarra,6,,,nada ,54.0,yes
145,2024-05-09_00h08.26.996,Unsyncopated_study3,s149,36.0,masculino,left,España,Español y catalán.,Secondary,no,no,B,2,when,L1,unsyncopated,when,when,17,Online_whenL1//c.ro10.1110.wav,ne,ta,ni,sil,ri,ro,lu,sil1,ki,cho,sil2,['miss'],,,1.11,no_beat,,,,ro,3,,,,,,,,,,,,,,,3.0,3.0,Español,0.0,Catalán,0.0,Inglés,6.0,4.0,2.0,yes,no,yes,Flauta,6,Violín,6,Guitarra,6,,,nada ,54.0,yes
146,2024-05-09_00h08.26.996,Unsyncopated_study3,s149,36.0,masculino,left,España,Español y catalán.,Secondary,no,no,B,2,when,L1,unsyncopated,when,when,18,Online_whenL1//c.ro8.222.wav,ne,ro,ze,sil,ki,fo,zu,sil1,cho,pu,sil2,['miss'],,,0.222,no_beat,,,,ro,3,,,,,,,,,,,,,,,3.0,3.0,Español,0.0,Catalán,0.0,Inglés,6.0,4.0,2.0,yes,no,yes,Flauta,6,Violín,6,Guitarra,6,,,nada ,54.0,yes
147,2024-05-09_00h08.26.996,Unsyncopated_study3,s149,36.0,masculino,left,España,Español y catalán.,Secondary,no,no,B,2,when,L1,unsyncopated,when,when,19,Online_whenL1//c.ro9.none.wav,ze,zu,ta,sil,la,lu,fo,sil1,pu,ri,sil2,['-'],,,none,none,,,,ro,3,,,,,,,,,,,,,,,3.0,3.0,Español,0.0,Catalán,0.0,Inglés,6.0,4.0,2.0,yes,no,yes,Flauta,6,Violín,6,Guitarra,6,,,nada ,54.0,yes
148,2024-05-09_00h08.26.996,Unsyncopated_study3,s149,36.0,masculino,left,España,Español y catalán.,Secondary,no,no,B,2,when,L1,unsyncopated,when,when,20,Online_whenL1//d.ne28.1332.wav,ta,ze,cho,sil,ro,zu,ne,sil1,ki,ri,sil2,['miss'],,,1.332,no_beat,,,,ne,4,,,,,,,,,,,,,,,3.0,3.0,Español,0.0,Catalán,0.0,Inglés,6.0,4.0,2.0,yes,no,yes,Flauta,6,Violín,6,Guitarra,6,,,nada ,54.0,yes
149,2024-05-09_00h08.26.996,Unsyncopated_study3,s149,36.0,masculino,left,España,Español y catalán.,Secondary,no,no,B,2,when,L1,unsyncopated,when,when,21,Online_whenL1//d.ne31.1998.wav,ni,ta,la,sil,be,ze,lu,sil1,fa,ne,sil2,['miss'],,,1.998,no_beat,,,,ne,4,,,,,,,,,,,,,,,3.0,3.0,Español,0.0,Catalán,0.0,Inglés,6.0,4.0,2.0,yes,no,yes,Flauta,6,Violín,6,Guitarra,6,,,nada ,54.0,yes
150,2024-05-09_00h08.26.996,Unsyncopated_study3,s149,36.0,masculino,left,España,Español y catalán.,Secondary,no,no,B,2,when,L1,unsyncopated,when,when,22,Online_whenL1//d.ne30.888.wav,cho,ta,la,sil,ne,zu,fa,sil1,be,ri,sil2,['catch'],[1.8770000000004075],[1.8770000000004075],0.888,beat,0.9890000000004074,0.9890000000004074,"[""space""]",ne,4,,,,,,,,,,,,,,,3.0,3.0,Español,0.0,Catalán,0.0,Inglés,6.0,4.0,2.0,yes,no,yes,Flauta,6,Violín,6,Guitarra,6,,,nada ,54.0,yes
151,2024-05-09_00h08.26.996,Unsyncopated_study3,s149,36.0,masculino,left,España,Español y catalán.,Secondary,no,no,B,2,when,L1,unsyncopated,when,when,23,Online_whenL1//d.ne29.444.wav,lu,ri,ne,sil,zu,la,ze,sil1,pu,ki,sil2,['miss'],,,0.444,no_beat,,,,ne,4,,,,,,,,,,,,,,,3.0,3.0,Español,0.0,Catalán,0.0,Inglés,6.0,4.0,2.0,yes,no,yes,Flauta,6,Violín,6,Guitarra,6,,,nada ,54.0,yes
152,2024-05-09_00h08.26.996,Unsyncopated_study3,s149,36.0,masculino,left,España,Español y catalán.,Secondary,no,no,B,2,when,L1,unsyncopated,when,when,24,Online_whenL1//a.ki14.444.wav,fo,ni,ki,sil,ri,zu,la,sil1,ro,pu,sil2,['catch'],[1.0500000000029104],[1.0500000000029104],0.444,no_beat,0.6060000000029104,0.6060000000029104,"[""space""]",ki,1,,,,,,,,,,,,,,,3.0,3.0,Español,0.0,Catalán,0.0,Inglés,6.0,4.0,2.0,yes,no,yes,Flauta,6,Violín,6,Guitarra,6,,,nada ,54.0,yes
153,2024-05-09_00h08.26.996,Unsyncopated_study3,s149,36.0,masculino,left,España,Español y catalán.,Secondary,no,no,B,2,when,L1,unsyncopated,when,when,25,Online_whenL1//a.ki13.1332.wav,lu,cho,ri,sil,ta,la,ki,sil1,ne,ro,sil2,['catch'],[1.8439999999973224],[1.8439999999973224],1.332,no_beat,0.5119999999973224,0.5119999999973224,"[""space""]",ki,1,,,,,,,,,,,,,,,3.0,3.0,Español,0.0,Catalán,0.0,Inglés,6.0,4.0,2.0,yes,no,yes,Flauta,6,Violín,6,Guitarra,6,,,nada ,54.0,yes
154,2024-05-09_00h08.26.996,Unsyncopated_study3,s149,36.0,masculino,left,España,Español y catalán.,Secondary,no,no,B,2,when,L1,unsyncopated,when,when,26,Online_whenL1//a.ki15.none.wav,ri,ta,fa,sil,fo,ne,be,sil1,ro,ze,sil2,['-'],,,none,none,,,,ki,1,,,,,,,,,,,,,,,3.0,3.0,Español,0.0,Catalán,0.0,Inglés,6.0,4.0,2.0,yes,no,yes,Flauta,6,Violín,6,Guitarra,6,,,nada ,54.0,yes
155,2024-05-09_00h08.26.996,Unsyncopated_study3,s149,36.0,masculino,left,España,Español y catalán.,Secondary,no,no,B,2,when,L1,unsyncopated,when,when,27,Online_whenL1//a.ki12.222.wav,pu,ki,zu,sil,cho,ne,fo,sil1,ni,ze,sil2,['miss'],,,0.222,no_beat,,,,ki,1,,,,,,,,,,,,,,,3.0,3.0,Español,0.0,Catalán,0.0,Inglés,6.0,4.0,2.0,yes,no,yes,Flauta,6,Violín,6,Guitarra,6,,,nada ,54.0,yes
156,2024-05-09_00h08.26.996,Unsyncopated_study3,s149,36.0,masculino,left,España,Español y catalán.,Secondary,no,no,B,2,when,L1,unsyncopated,when,when,28,Online_whenL1//c.ro29.none.wav,fa,ne,cho,sil,fo,ki,ta,sil1,ze,la,sil2,['-'],,,none,none,,,,ro,3,,,,,,,,,,,,,,,3.0,3.0,Español,0.0,Catalán,0.0,Inglés,6.0,4.0,2.0,yes,no,yes,Flauta,6,Violín,6,Guitarra,6,,,nada ,54.0,yes
157,2024-05-09_00h08.26.996,Unsyncopated_study3,s149,36.0,masculino,left,España,Español y catalán.,Secondary,no,no,B,2,when,L1,unsyncopated,when,when,29,Online_whenL1//c.ro30.0.wav,ro,ze,zu,sil,ki,be,lu,sil1,fo,ni,sil2,['miss'],,,0.0,beat,,,,ro,3,,,,,,,,,,,,,,,3.0,3.0,Español,0.0,Catalán,0.0,Inglés,6.0,4.0,2.0,yes,no,yes,Flauta,6,Violín,6,Guitarra,6,,,nada ,54.0,yes
158,2024-05-09_00h08.26.996,Unsyncopated_study3,s149,36.0,masculino,left,España,Español y catalán.,Secondary,no,no,B,2,when,L1,unsyncopated,when,when,30,Online_whenL1//c.ro31.none.wav,ni,ze,fo,sil,ne,zu,pu,sil1,ta,la,sil2,['-'],,,none,none,,,,ro,3,,,,,,,,,,,,,,,3.0,3.0,Español,0.0,Catalán,0.0,Inglés,6.0,4.0,2.0,yes,no,yes,Flauta,6,Violín,6,Guitarra,6,,,nada ,54.0,yes
159,2024-05-09_00h08.26.996,Unsyncopated_study3,s149,36.0,masculino,left,España,Español y catalán.,Secondary,no,no,B,2,when,L1,unsyncopated,when,when,31,Online_whenL1//c.ro28.none.wav,fo,fa,ki,sil,ri,ze,zu,sil1,be,ne,sil2,['-'],,,none,none,,,,ro,3,,,,,,,,,,,,,,,3.0,3.0,Español,0.0,Catalán,0.0,Inglés,6.0,4.0,2.0,yes,no,yes,Flauta,6,Violín,6,Guitarra,6,,,nada ,54.0,yes
160,2024-05-09_00h08.26.996,Unsyncopated_study3,s149,36.0,masculino,left,España,Español y catalán.,Secondary,no,no,B,2,when,L1,unsyncopated,when,when,32,Online_whenL1//d.ne19.222.wav,ri,ne,ni,sil,cho,be,zu,sil1,pu,fa,sil2,['catch'],[1.423000000002503],[1.423000000002503],0.222,no_beat,,1.201000000002503,"[""space""]",ne,4,,,,,,,,,,,,,,,3.0,3.0,Español,0.0,Catalán,0.0,Inglés,6.0,4.0,2.0,yes,no,yes,Flauta,6,Violín,6,Guitarra,6,,,nada ,54.0,yes
161,2024-05-09_00h08.26.996,Unsyncopated_study3,s149,36.0,masculino,left,España,Español y catalán.,Secondary,no,no,B,2,when,L1,unsyncopated,when,when,33,Online_whenL1//d.ne18.1998.wav,fo,ri,be,sil,ki,ze,la,sil1,lu,ne,sil2,['miss'],,,1.998,no_beat,,,,ne,4,,,,,,,,,,,,,,,3.0,3.0,Español,0.0,Catalán,0.0,Inglés,6.0,4.0,2.0,yes,no,yes,Flauta,6,Violín,6,Guitarra,6,,,nada ,54.0,yes
162,2024-05-09_00h08.26.996,Unsyncopated_study3,s149,36.0,masculino,left,España,Español y catalán.,Secondary,no,no,B,2,when,L1,unsyncopated,when,when,34,Online_whenL1//d.ne17.none.wav,fa,cho,ki,sil,la,ta,lu,sil1,fo,ni,sil2,['-'],,,none,none,,,,ne,4,,,,,,,,,,,,,,,3.0,3.0,Español,0.0,Catalán,0.0,Inglés,6.0,4.0,2.0,yes,no,yes,Flauta,6,Violín,6,Guitarra,6,,,nada ,54.0,yes
163,2024-05-09_00h08.26.996,Unsyncopated_study3,s149,36.0,masculino,left,España,Español y catalán.,Secondary,no,no,B,2,when,L1,unsyncopated,when,when,35,Online_whenL1//d.ne16.1776.wav,cho,fo,ri,sil,lu,pu,zu,sil1,ne,be,sil2,['catch'],[2.485999999997148],[2.485999999997148],1.776,beat,0.7099999999971478,0.7099999999971478,"[""space""]",ne,4,,,,,,,,,,,,,,,3.0,3.0,Español,0.0,Catalán,0.0,Inglés,6.0,4.0,2.0,yes,no,yes,Flauta,6,Violín,6,Guitarra,6,,,nada ,54.0,yes
164,2024-05-09_00h08.26.996,Unsyncopated_study3,s149,36.0,masculino,left,España,Español y catalán.,Secondary,no,no,B,2,when,L1,unsyncopated,when,when,36,Online_whenL1//b.ta9.0.wav,ta,ri,ni,sil,ki,ro,ze,sil1,lu,la,sil2,['catch'],[0.06300000000192085],[0.06300000000192085],0.0,beat,0.0630000000019208,0.0630000000019208,"[""space""]",ta,2,,,,,,,,,,,,,,,3.0,3.0,Español,0.0,Catalán,0.0,Inglés,6.0,4.0,2.0,yes,no,yes,Flauta,6,Violín,6,Guitarra,6,,,nada ,54.0,yes
165,2024-05-09_00h08.26.996,Unsyncopated_study3,s149,36.0,masculino,left,España,Español y catalán.,Secondary,no,no,B,2,when,L1,unsyncopated,when,when,37,Online_whenL1//b.ta10.none.wav,lu,ro,la,sil,be,ze,ki,sil1,fo,ne,sil2,['false alarm'],[0.2779999999984284],[0.2779999999984284],none,none,,,"[""space""]",ta,2,,,,,,,,,,,,,,,3.0,3.0,Español,0.0,Catalán,0.0,Inglés,6.0,4.0,2.0,yes,no,yes,Flauta,6,Violín,6,Guitarra,6,,,nada ,54.0,yes
166,2024-05-09_00h08.26.996,Unsyncopated_study3,s149,36.0,masculino,left,España,Español y catalán.,Secondary,no,no,B,2,when,L1,unsyncopated,when,when,38,Online_whenL1//b.ta11.none.wav,cho,pu,ri,sil,ro,zu,lu,sil1,ki,fa,sil2,['-'],,,none,none,,,,ta,2,,,,,,,,,,,,,,,3.0,3.0,Español,0.0,Catalán,0.0,Inglés,6.0,4.0,2.0,yes,no,yes,Flauta,6,Violín,6,Guitarra,6,,,nada ,54.0,yes
167,2024-05-09_00h08.26.996,Unsyncopated_study3,s149,36.0,masculino,left,España,Español y catalán.,Secondary,no,no,B,2,when,L1,unsyncopated,when,when,39,Online_whenL1//b.ta8.0.wav,ta,ki,lu,sil,cho,ne,ro,sil1,fo,ri,sil2,['miss'],,,0.0,beat,,,,ta,2,,,,,,,,,,,,,,,3.0,3.0,Español,0.0,Catalán,0.0,Inglés,6.0,4.0,2.0,yes,no,yes,Flauta,6,Violín,6,Guitarra,6,,,nada ,54.0,yes
168,2024-05-09_00h08.26.996,Unsyncopated_study3,s149,36.0,masculino,left,España,Español y catalán.,Secondary,no,no,B,2,when,L1,unsyncopated,when,when,40,Online_whenL1//b.ta34.1110.wav,be,cho,la,sil,ro,ta,fo,sil1,lu,ni,sil2,['miss'],,,1.11,no_beat,,,,ta,2,,,,,,,,,,,,,,,3.0,3.0,Español,0.0,Catalán,0.0,Inglés,6.0,4.0,2.0,yes,no,yes,Flauta,6,Violín,6,Guitarra,6,,,nada ,54.0,yes
169,2024-05-09_00h08.26.996,Unsyncopated_study3,s149,36.0,masculino,left,España,Español y catalán.,Secondary,no,no,B,2,when,L1,unsyncopated,when,when,41,Online_whenL1//b.ta32.none.wav,ki,ni,fo,sil,lu,zu,cho,sil1,be,ri,sil2,['-'],,,none,none,,,,ta,2,,,,,,,,,,,,,,,3.0,3.0,Español,0.0,Catalán,0.0,Inglés,6.0,4.0,2.0,yes,no,yes,Flauta,6,Violín,6,Guitarra,6,,,nada ,54.0,yes
170,2024-05-09_00h08.26.996,Unsyncopated_study3,s149,36.0,masculino,left,España,Español y catalán.,Secondary,no,no,B,2,when,L1,unsyncopated,when,when,42,Online_whenL1//b.ta35.222.wav,fa,ta,ze,sil,fo,lu,ro,sil1,ni,be,sil2,['catch'],[1.1610000000000582],[1.1610000000000582],0.222,no_beat,0.9390000000000582,0.9390000000000582,"[""space""]",ta,2,,,,,,,,,,,,,,,3.0,3.0,Español,0.0,Catalán,0.0,Inglés,6.0,4.0,2.0,yes,no,yes,Flauta,6,Violín,6,Guitarra,6,,,nada ,54.0,yes
171,2024-05-09_00h08.26.996,Unsyncopated_study3,s149,36.0,masculino,left,España,Español y catalán.,Secondary,no,no,B,2,when,L1,unsyncopated,when,when,43,Online_whenL1//b.ta33.none.wav,ro,cho,be,sil,la,pu,ri,sil1,lu,zu,sil2,['-'],,,none,none,,,,ta,2,,,,,,,,,,,,,,,3.0,3.0,Español,0.0,Catalán,0.0,Inglés,6.0,4.0,2.0,yes,no,yes,Flauta,6,Violín,6,Guitarra,6,,,nada ,54.0,yes
172,2024-05-09_00h08.26.996,Unsyncopated_study3,s149,36.0,masculino,left,España,Español y catalán.,Secondary,no,no,B,2,when,L1,unsyncopated,when,when,44,Online_whenL1//a.ki30.none.wav,ta,fa,ze,sil,pu,ne,fo,sil1,ni,zu,sil2,['-'],,,none,none,,,,ki,1,,,,,,,,,,,,,,,3.0,3.0,Español,0.0,Catalán,0.0,Inglés,6.0,4.0,2.0,yes,no,yes,Flauta,6,Violín,6,Guitarra,6,,,nada ,54.0,yes
173,2024-05-09_00h08.26.996,Unsyncopated_study3,s149,36.0,masculino,left,España,Español y catalán.,Secondary,no,no,B,2,when,L1,unsyncopated,when,when,45,Online_whenL1//a.ki31.0.wav,ki,ze,cho,sil,ri,lu,ta,sil1,ro,fa,sil2,['miss'],,,0.0,beat,,,,ki,1,,,,,,,,,,,,,,,3.0,3.0,Español,0.0,Catalán,0.0,Inglés,6.0,4.0,2.0,yes,no,yes,Flauta,6,Violín,6,Guitarra,6,,,nada ,54.0,yes
174,2024-05-09_00h08.26.996,Unsyncopated_study3,s149,36.0,masculino,left,España,Español y catalán.,Secondary,no,no,B,2,when,L1,unsyncopated,when,when,46,Online_whenL1//a.ki28.1998.wav,la,fa,ze,sil,zu,ta,ri,sil1,ni,ki,sil2,['catch_delay'],[0.8149999999976136],[0.8149999999976136],1.998,no_beat,0.8149999999976136,0.8149999999976136,,ki,1,,,,,,,,,,,,,,,3.0,3.0,Español,0.0,Catalán,0.0,Inglés,6.0,4.0,2.0,yes,no,yes,Flauta,6,Violín,6,Guitarra,6,,,nada ,54.0,yes
175,2024-05-09_00h08.26.996,Unsyncopated_study3,s149,36.0,masculino,left,España,Español y catalán.,Secondary,no,no,B,2,when,L1,unsyncopated,when,when,47,Online_whenL1//a.ki29.none.wav,be,fa,ta,sil,zu,lu,ze,sil1,ri,ro,sil2,['-'],[0.14899999999761349],[0.14899999999761349],none,none,,,"[""space""]",ki,1,,,,,,,,,,,,,,,3.0,3.0,Español,0.0,Catalán,0.0,Inglés,6.0,4.0,2.0,yes,no,yes,Flauta,6,Violín,6,Guitarra,6,,,nada ,54.0,yes
176,2024-05-09_00h08.26.996,Unsyncopated_study3,s149,36.0,masculino,left,España,Español y catalán.,Secondary,no,no,B,2,when,L1,unsyncopated,when,when,48,Online_whenL1//a.ki27.none.wav,fa,fo,cho,sil,ze,ri,ta,sil1,pu,zu,sil2,['-'],,,none,none,,,,ki,1,,,,,,,,,,,,,,,3.0,3.0,Español,0.0,Catalán,0.0,Inglés,6.0,4.0,2.0,yes,no,yes,Flauta,6,Violín,6,Guitarra,6,,,nada ,54.0,yes
177,2024-05-09_00h08.26.996,Unsyncopated_study3,s149,36.0,masculino,left,España,Español y catalán.,Secondary,no,no,B,2,when,L1,unsyncopated,when,when,49,Online_whenL1//a.ki25.none.wav,pu,lu,ni,sil,ro,ne,zu,sil1,la,ta,sil2,['-'],,,none,none,,,,ki,1,,,,,,,,,,,,,,,3.0,3.0,Español,0.0,Catalán,0.0,Inglés,6.0,4.0,2.0,yes,no,yes,Flauta,6,Violín,6,Guitarra,6,,,nada ,54.0,yes
178,2024-05-09_00h08.26.996,Unsyncopated_study3,s149,36.0,masculino,left,España,Español y catalán.,Secondary,no,no,B,2,when,L1,unsyncopated,when,when,50,Online_whenL1//a.ki24.none.wav,cho,ze,ni,sil,zu,la,ri,sil1,be,pu,sil2,['-'],,,none,none,,,,ki,1,,,,,,,,,,,,,,,3.0,3.0,Español,0.0,Catalán,0.0,Inglés,6.0,4.0,2.0,yes,no,yes,Flauta,6,Violín,6,Guitarra,6,,,nada ,54.0,yes
179,2024-05-09_00h08.26.996,Unsyncopated_study3,s149,36.0,masculino,left,España,Español y catalán.,Secondary,no,no,B,2,when,L1,unsyncopated,when,when,51,Online_whenL1//a.ki26.none.wav,fo,be,ne,sil,ta,ze,ri,sil1,la,cho,sil2,['-'],,,none,none,,,,ki,1,,,,,,,,,,,,,,,3.0,3.0,Español,0.0,Catalán,0.0,Inglés,6.0,4.0,2.0,yes,no,yes,Flauta,6,Violín,6,Guitarra,6,,,nada ,54.0,yes
180,2024-05-09_00h08.26.996,Unsyncopated_study3,s149,36.0,masculino,left,España,Español y catalán.,Secondary,no,no,B,2,when,L1,unsyncopated,when,when,52,Online_whenL1//b.ta18.0.wav,ta,ze,zu,sil,ri,ro,lu,sil1,pu,la,sil2,['catch'],[0.9689999999973224],[0.9689999999973224],0.0,beat,0.9689999999973224,0.9689999999973224,"[""space""]",ta,2,,,,,,,,,,,,,,,3.0,3.0,Español,0.0,Catalán,0.0,Inglés,6.0,4.0,2.0,yes,no,yes,Flauta,6,Violín,6,Guitarra,6,,,nada ,54.0,yes
181,2024-05-09_00h08.26.996,Unsyncopated_study3,s149,36.0,masculino,left,España,Español y catalán.,Secondary,no,no,B,2,when,L1,unsyncopated,when,when,53,Online_whenL1//b.ta17.none.wav,ni,fo,zu,sil,be,ki,ze,sil1,ro,ri,sil2,['-'],,,none,none,,,,ta,2,,,,,,,,,,,,,,,3.0,3.0,Español,0.0,Catalán,0.0,Inglés,6.0,4.0,2.0,yes,no,yes,Flauta,6,Violín,6,Guitarra,6,,,nada ,54.0,yes
182,2024-05-09_00h08.26.996,Unsyncopated_study3,s149,36.0,masculino,left,España,Español y catalán.,Secondary,no,no,B,2,when,L1,unsyncopated,when,when,54,Online_whenL1//b.ta16.none.wav,ni,pu,fa,sil,ne,ki,cho,sil1,fo,ro,sil2,['-'],,,none,none,,,,ta,2,,,,,,,,,,,,,,,3.0,3.0,Español,0.0,Catalán,0.0,Inglés,6.0,4.0,2.0,yes,no,yes,Flauta,6,Violín,6,Guitarra,6,,,nada ,54.0,yes
183,2024-05-09_00h08.26.996,Unsyncopated_study3,s149,36.0,masculino,left,España,Español y catalán.,Secondary,no,no,B,2,when,L1,unsyncopated,when,when,55,Online_whenL1//b.ta19.none.wav,pu,fa,lu,sil,fo,cho,la,sil1,be,ri,sil2,['-'],,,none,none,,,,ta,2,,,,,,,,,,,,,,,3.0,3.0,Español,0.0,Catalán,0.0,Inglés,6.0,4.0,2.0,yes,no,yes,Flauta,6,Violín,6,Guitarra,6,,,nada ,54.0,yes
184,2024-05-09_00h08.26.996,Unsyncopated_study3,s149,36.0,masculino,left,España,Español y catalán.,Secondary,no,no,B,2,when,L1,unsyncopated,when,when,56,Online_whenL1//d.ne9.none.wav,lu,be,pu,sil,fa,cho,zu,sil1,la,fo,sil2,['-'],,,none,none,,,,ne,4,,,,,,,,,,,,,,,3.0,3.0,Español,0.0,Catalán,0.0,Inglés,6.0,4.0,2.0,yes,no,yes,Flauta,6,Violín,6,Guitarra,6,,,nada ,54.0,yes
185,2024-05-09_00h08.26.996,Unsyncopated_study3,s149,36.0,masculino,left,España,Español y catalán.,Secondary,no,no,B,2,when,L1,unsyncopated,when,when,57,Online_whenL1//d.ne11.0.wav,ne,cho,la,sil,lu,ta,pu,sil1,fa,ze,sil2,['catch'],[0.7289999999993597],[0.7289999999993597],0.0,beat,0.7289999999993597,0.7289999999993597,"[""space""]",ne,4,,,,,,,,,,,,,,,3.0,3.0,Español,0.0,Catalán,0.0,Inglés,6.0,4.0,2.0,yes,no,yes,Flauta,6,Violín,6,Guitarra,6,,,nada ,54.0,yes
186,2024-05-09_00h08.26.996,Unsyncopated_study3,s149,36.0,masculino,left,España,Español y catalán.,Secondary,no,no,B,2,when,L1,unsyncopated,when,when,58,Online_whenL1//d.ne10.222.wav,ki,ne,fa,sil,be,zu,lu,sil1,la,cho,sil2,['miss'],,,0.222,no_beat,,,,ne,4,,,,,,,,,,,,,,,3.0,3.0,Español,0.0,Catalán,0.0,Inglés,6.0,4.0,2.0,yes,no,yes,Flauta,6,Violín,6,Guitarra,6,,,nada ,54.0,yes
187,2024-05-09_00h08.26.996,Unsyncopated_study3,s149,36.0,masculino,left,España,Español y catalán.,Secondary,no,no,B,2,when,L1,unsyncopated,when,when,59,Online_whenL1//d.ne8.none.wav,lu,ni,la,sil,ro,ri,fa,sil1,ta,pu,sil2,['-'],,,none,none,,,,ne,4,,,,,,,,,,,,,,,3.0,3.0,Español,0.0,Catalán,0.0,Inglés,6.0,4.0,2.0,yes,no,yes,Flauta,6,Violín,6,Guitarra,6,,,nada ,54.0,yes
188,2024-05-09_00h08.26.996,Unsyncopated_study3,s149,36.0,masculino,left,España,Español y catalán.,Secondary,no,no,B,2,when,L1,unsyncopated,when,when,60,Online_whenL1//b.ta15.none.wav,fa,ro,la,sil,ki,ze,pu,sil1,ne,ri,sil2,['-'],,,none,none,,,,ta,2,,,,,,,,,,,,,,,3.0,3.0,Español,0.0,Catalán,0.0,Inglés,6.0,4.0,2.0,yes,no,yes,Flauta,6,Violín,6,Guitarra,6,,,nada ,54.0,yes
189,2024-05-09_00h08.26.996,Unsyncopated_study3,s149,36.0,masculino,left,España,Español y catalán.,Secondary,no,no,B,2,when,L1,unsyncopated,when,when,61,Online_whenL1//b.ta12.1998.wav,lu,la,ro,sil,ne,zu,fo,sil1,ki,ta,sil2,['catch_delay'],[0.6760000000020374],[0.6760000000020374],1.998,no_beat,0.6760000000020374,0.6760000000020374,,ta,2,,,,,,,,,,,,,,,3.0,3.0,Español,0.0,Catalán,0.0,Inglés,6.0,4.0,2.0,yes,no,yes,Flauta,6,Violín,6,Guitarra,6,,,nada ,54.0,yes
190,2024-05-09_00h08.26.996,Unsyncopated_study3,s149,36.0,masculino,left,España,Español y catalán.,Secondary,no,no,B,2,when,L1,unsyncopated,when,when,62,Online_whenL1//b.ta13.none.wav,pu,la,be,sil,zu,ze,ri,sil1,ne,ni,sil2,['-'],[0.010000000002037268],[0.010000000002037268],none,none,,,"[""space""]",ta,2,,,,,,,,,,,,,,,3.0,3.0,Español,0.0,Catalán,0.0,Inglés,6.0,4.0,2.0,yes,no,yes,Flauta,6,Violín,6,Guitarra,6,,,nada ,54.0,yes
191,2024-05-09_00h08.26.996,Unsyncopated_study3,s149,36.0,masculino,left,España,Español y catalán.,Secondary,no,no,B,2,when,L1,unsyncopated,when,when,63,Online_whenL1//b.ta14.none.wav,lu,fo,zu,sil,ni,be,cho,sil1,pu,ri,sil2,['-'],,,none,none,,,,ta,2,,,,,,,,,,,,,,,3.0,3.0,Español,0.0,Catalán,0.0,Inglés,6.0,4.0,2.0,yes,no,yes,Flauta,6,Violín,6,Guitarra,6,,,nada ,54.0,yes
192,2024-05-09_00h08.26.996,Unsyncopated_study3,s149,36.0,masculino,left,España,Español y catalán.,Secondary,no,no,B,2,when,L1,unsyncopated,when,when,64,Online_whenL1//c.ro13.none.wav,ne,lu,be,sil,fo,ki,ri,sil1,ni,cho,sil2,['-'],,,none,none,,,,ro,3,,,,,,,,,,,,,,,3.0,3.0,Español,0.0,Catalán,0.0,Inglés,6.0,4.0,2.0,yes,no,yes,Flauta,6,Violín,6,Guitarra,6,,,nada ,54.0,yes
193,2024-05-09_00h08.26.996,Unsyncopated_study3,s149,36.0,masculino,left,España,Español y catalán.,Secondary,no,no,B,2,when,L1,unsyncopated,when,when,65,Online_whenL1//c.ro15.0.wav,ro,ne,zu,sil,la,ri,pu,sil1,ki,ni,sil2,['catch'],[0.8980000000010477],[0.8980000000010477],0.0,beat,0.8980000000010477,0.8980000000010477,"[""space""]",ro,3,,,,,,,,,,,,,,,3.0,3.0,Español,0.0,Catalán,0.0,Inglés,6.0,4.0,2.0,yes,no,yes,Flauta,6,Violín,6,Guitarra,6,,,nada ,54.0,yes
194,2024-05-09_00h08.26.996,Unsyncopated_study3,s149,36.0,masculino,left,España,Español y catalán.,Secondary,no,no,B,2,when,L1,unsyncopated,when,when,66,Online_whenL1//c.ro14.none.wav,zu,ki,fa,sil,pu,ni,lu,sil1,fo,la,sil2,['-'],,,none,none,,,,ro,3,,,,,,,,,,,,,,,3.0,3.0,Español,0.0,Catalán,0.0,Inglés,6.0,4.0,2.0,yes,no,yes,Flauta,6,Violín,6,Guitarra,6,,,nada ,54.0,yes
195,2024-05-09_00h08.26.996,Unsyncopated_study3,s149,36.0,masculino,left,España,Español y catalán.,Secondary,no,no,B,2,when,L1,unsyncopated,when,when,67,Online_whenL1//c.ro12.444.wav,fa,la,ro,sil,ze,be,ki,sil1,fo,ni,sil2,['miss'],,,0.444,no_beat,,,,ro,3,,,,,,,,,,,,,,,3.0,3.0,Español,0.0,Catalán,0.0,Inglés,6.0,4.0,2.0,yes,no,yes,Flauta,6,Violín,6,Guitarra,6,,,nada ,54.0,yes
196,2024-05-09_00h08.26.996,Unsyncopated_study3,s149,36.0,masculino,left,España,Español y catalán.,Secondary,no,no,B,2,when,L1,unsyncopated,when,when,68,Online_whenL1//c.ro18.none.wav,ki,ri,ni,sil,ne,ta,cho,sil1,fo,ze,sil2,['-'],,,none,none,,,,ro,3,,,,,,,,,,,,,,,3.0,3.0,Español,0.0,Catalán,0.0,Inglés,6.0,4.0,2.0,yes,no,yes,Flauta,6,Violín,6,Guitarra,6,,,nada ,54.0,yes
197,2024-05-09_00h08.26.996,Unsyncopated_study3,s149,36.0,masculino,left,España,Español y catalán.,Secondary,no,no,B,2,when,L1,unsyncopated,when,when,69,Online_whenL1//c.ro19.1332.wav,ze,be,pu,sil,ne,fo,ro,sil1,lu,cho,sil2,['catch'],[2.360000000000582],[2.360000000000582],1.332,no_beat,1.028000000000582,1.028000000000582,"[""space""]",ro,3,,,,,,,,,,,,,,,3.0,3.0,Español,0.0,Catalán,0.0,Inglés,6.0,4.0,2.0,yes,no,yes,Flauta,6,Violín,6,Guitarra,6,,,nada ,54.0,yes
198,2024-05-09_00h08.26.996,Unsyncopated_study3,s149,36.0,masculino,left,España,Español y catalán.,Secondary,no,no,B,2,when,L1,unsyncopated,when,when,70,Online_whenL1//c.ro17.none.wav,la,ze,pu,sil,ki,cho,zu,sil1,fa,ne,sil2,['-'],,,none,none,,,,ro,3,,,,,,,,,,,,,,,3.0,3.0,Español,0.0,Catalán,0.0,Inglés,6.0,4.0,2.0,yes,no,yes,Flauta,6,Violín,6,Guitarra,6,,,nada ,54.0,yes
199,2024-05-09_00h08.26.996,Unsyncopated_study3,s149,36.0,masculino,left,España,Español y catalán.,Secondary,no,no,B,2,when,L1,unsyncopated,when,when,71,Online_whenL1//c.ro16.1776.wav,fa,ne,zu,sil,ki,ta,ze,sil1,ro,cho,sil2,['catch'],[2.5610000000015134],[2.5610000000015134],1.776,beat,0.7850000000015134,0.7850000000015134,"[""space""]",ro,3,,,,,,,,,,,,,,,3.0,3.0,Español,0.0,Catalán,0.0,Inglés,6.0,4.0,2.0,yes,no,yes,Flauta,6,Violín,6,Guitarra,6,,,nada ,54.0,yes
200,2024-05-09_00h08.26.996,Unsyncopated_study3,s149,36.0,masculino,left,España,Español y catalán.,Secondary,no,no,B,2,when,L1,unsyncopated,when,when,72,Online_whenL1//a.ki23.1110.wav,be,ri,zu,sil,ro,ki,ni,sil1,la,ne,sil2,['catch'],[2.201999999997497],[2.201999999997497],1.11,no_beat,1.091999999997497,1.091999999997497,"[""space""]",ki,1,,,,,,,,,,,,,,,3.0,3.0,Español,0.0,Catalán,0.0,Inglés,6.0,4.0,2.0,yes,no,yes,Flauta,6,Violín,6,Guitarra,6,,,nada ,54.0,yes
201,2024-05-09_00h08.26.996,Unsyncopated_study3,s149,36.0,masculino,left,España,Español y catalán.,Secondary,no,no,B,2,when,L1,unsyncopated,when,when,73,Online_whenL1//a.ki21.0.wav,ki,ni,cho,sil,fo,ri,lu,sil1,ze,be,sil2,['catch'],[0.9539999999979045],[0.9539999999979045],0.0,beat,0.9539999999979044,0.9539999999979044,"[""space""]",ki,1,,,,,,,,,,,,,,,3.0,3.0,Español,0.0,Catalán,0.0,Inglés,6.0,4.0,2.0,yes,no,yes,Flauta,6,Violín,6,Guitarra,6,,,nada ,54.0,yes
202,2024-05-09_00h08.26.996,Unsyncopated_study3,s149,36.0,masculino,left,España,Español y catalán.,Secondary,no,no,B,2,when,L1,unsyncopated,when,when,74,Online_whenL1//a.ki20.0.wav,ki,ne,zu,sil,ri,ni,cho,sil1,lu,pu,sil2,['catch'],[0.6829999999972642],[0.6829999999972642],0.0,beat,0.6829999999972642,0.6829999999972642,"[""space""]",ki,1,,,,,,,,,,,,,,,3.0,3.0,Español,0.0,Catalán,0.0,Inglés,6.0,4.0,2.0,yes,no,yes,Flauta,6,Violín,6,Guitarra,6,,,nada ,54.0,yes
203,2024-05-09_00h08.26.996,Unsyncopated_study3,s149,36.0,masculino,left,España,Español y catalán.,Secondary,no,no,B,2,when,L1,unsyncopated,when,when,75,Online_whenL1//a.ki22.444.wav,zu,pu,ki,sil,ze,cho,ne,sil1,ni,ro,sil2,['catch'],[1.3080000000045402],[1.3080000000045402],0.444,no_beat,0.8640000000045402,0.8640000000045402,"[""space""]",ki,1,,,,,,,,,,,,,,,3.0,3.0,Español,0.0,Catalán,0.0,Inglés,6.0,4.0,2.0,yes,no,yes,Flauta,6,Violín,6,Guitarra,6,,,nada ,54.0,yes
204,2024-05-09_00h08.26.996,Unsyncopated_study3,s149,36.0,masculino,left,España,Español y catalán.,Secondary,no,no,B,2,when,L1,unsyncopated,when,when,76,Online_whenL1//c.ro23.1998.wav,cho,la,pu,sil,ri,fo,ta,sil1,lu,ro,sil2,['false alarm'],[1.5649999999950523],[1.5649999999950523],1.998,no_beat,,,"[""space""]",ro,3,,,,,,,,,,,,,,,3.0,3.0,Español,0.0,Catalán,0.0,Inglés,6.0,4.0,2.0,yes,no,yes,Flauta,6,Violín,6,Guitarra,6,,,nada ,54.0,yes
205,2024-05-09_00h08.26.996,Unsyncopated_study3,s149,36.0,masculino,left,España,Español y catalán.,Secondary,no,no,B,2,when,L1,unsyncopated,when,when,77,Online_whenL1//c.ro22.none.wav,cho,la,zu,sil,fa,fo,ta,sil1,ni,be,sil2,['false alarm'],[1.1110000000044238],[1.1110000000044238],none,none,,,"[""space""]",ro,3,,,,,,,,,,,,,,,3.0,3.0,Español,0.0,Catalán,0.0,Inglés,6.0,4.0,2.0,yes,no,yes,Flauta,6,Violín,6,Guitarra,6,,,nada ,54.0,yes
206,2024-05-09_00h08.26.996,Unsyncopated_study3,s149,36.0,masculino,left,España,Español y catalán.,Secondary,no,no,B,2,when,L1,unsyncopated,when,when,78,Online_whenL1//c.ro21.none.wav,ni,ta,ki,sil,fo,lu,cho,sil1,la,ne,sil2,['-'],,,none,none,,,,ro,3,,,,,,,,,,,,,,,3.0,3.0,Español,0.0,Catalán,0.0,Inglés,6.0,4.0,2.0,yes,no,yes,Flauta,6,Violín,6,Guitarra,6,,,nada ,54.0,yes
207,2024-05-09_00h08.26.996,Unsyncopated_study3,s149,36.0,masculino,left,España,Español y catalán.,Secondary,no,no,B,2,when,L1,unsyncopated,when,when,79,Online_whenL1//c.ro20.none.wav,cho,zu,ri,sil,la,be,ne,sil1,fa,ta,sil2,['-'],,,none,none,,,,ro,3,,,,,,,,,,,,,,,3.0,3.0,Español,0.0,Catalán,0.0,Inglés,6.0,4.0,2.0,yes,no,yes,Flauta,6,Violín,6,Guitarra,6,,,nada ,54.0,yes
208,2024-05-09_00h08.26.996,Unsyncopated_study3,s149,36.0,masculino,left,España,Español y catalán.,Secondary,no,no,B,2,when,L1,unsyncopated,when,when,80,Online_whenL1//a.ki6.none.wav,la,ri,ni,sil,pu,ro,ne,sil1,be,zu,sil2,['-'],,,none,none,,,,ki,1,,,,,,,,,,,,,,,3.0,3.0,Español,0.0,Catalán,0.0,Inglés,6.0,4.0,2.0,yes,no,yes,Flauta,6,Violín,6,Guitarra,6,,,nada ,54.0,yes
209,2024-05-09_00h08.26.996,Unsyncopated_study3,s149,36.0,masculino,left,España,Español y catalán.,Secondary,no,no,B,2,when,L1,unsyncopated,when,when,81,Online_whenL1//a.ki7.none.wav,cho,ro,ri,sil,pu,zu,fa,sil1,ni,be,sil2,['-'],,,none,none,,,,ki,1,,,,,,,,,,,,,,,3.0,3.0,Español,0.0,Catalán,0.0,Inglés,6.0,4.0,2.0,yes,no,yes,Flauta,6,Violín,6,Guitarra,6,,,nada ,54.0,yes
210,2024-05-09_00h08.26.996,Unsyncopated_study3,s149,36.0,masculino,left,España,Español y catalán.,Secondary,no,no,B,2,when,L1,unsyncopated,when,when,82,Online_whenL1//a.ki5.none.wav,fo,be,lu,sil,ze,ro,cho,sil1,ta,zu,sil2,['-'],,,none,none,,,,ki,1,,,,,,,,,,,,,,,3.0,3.0,Español,0.0,Catalán,0.0,Inglés,6.0,4.0,2.0,yes,no,yes,Flauta,6,Violín,6,Guitarra,6,,,nada ,54.0,yes
211,2024-05-09_00h08.26.996,Unsyncopated_study3,s149,36.0,masculino,left,España,Español y catalán.,Secondary,no,no,B,2,when,L1,unsyncopated,when,when,83,Online_whenL1//a.ki4.222.wav,fa,ki,zu,sil,ni,ta,lu,sil1,ro,ri,sil2,['miss'],,,0.222,no_beat,,,,ki,1,,,,,,,,,,,,,,,3.0,3.0,Español,0.0,Catalán,0.0,Inglés,6.0,4.0,2.0,yes,no,yes,Flauta,6,Violín,6,Guitarra,6,,,nada ,54.0,yes
212,2024-05-09_00h08.26.996,Unsyncopated_study3,s149,36.0,masculino,left,España,Español y catalán.,Secondary,no,no,B,2,when,L1,unsyncopated,when,when,84,Online_whenL1//c.ro1.none.wav,fo,be,cho,sil,lu,ze,ni,sil1,pu,la,sil2,['-'],,,none,none,,,,ro,3,,,,,,,,,,,,,,,3.0,3.0,Español,0.0,Catalán,0.0,Inglés,6.0,4.0,2.0,yes,no,yes,Flauta,6,Violín,6,Guitarra,6,,,nada ,54.0,yes
