Unnamed: 0,date,expName,participant,age,sex,hand,residence,native_lang,education_level,lang_deficit,aud_deficit,group,block,condition,language,rhythm,rule structure online,rule type online,order_trial_on,trial_online,s1,s2,s3,s4,s5,s6,s7,s8,s9,s10,s11,catch_syll_resp,rts_syll_catch,clean_rts,time_syll,beat_no_beat,catch_rtsTR,catch_rts,syllable_catch.keys,cond_syll,syll_to_catch,test_offline,block_off,condition_off,rhythm_off,rule,rule_str_off,rule_norule,conds_offline,language_off,Partz_no_partm.keys,Partz_no_partm.rt,security_1_7.keys,accuracy,security_1_7.rt,n_lang,n_lang_used,lang_1,age_l1,lang_2,age_l2,lang_3,age_l3,ability_learn_l2,tendence_mix_lan,music_experience,muisc_use,partiture,instr_1,age_M1,preguntas_musica1,BMRQ_answer.response,final comment,BMRQ_Score,bilingual
0,2024-03-03_12h22.01.291,Unsyncopated_study3,s132,20.0,feminino,right,España,Castellano y Catalán,Upper secondary,no,no,A,1,when,L1,unsyncopated,when,when,0,Online_whenL1//a.ki18.444.wav,ni,fa,ki,sil,pu,ri,fo,sil1,zu,ne,sil2,"['catch', 'false alarm']","[1.0295999999940477, 2.6163999999910175]",[1.0295999999940477],0.444,no_beat,0.5855999999940478,0.5855999999940478,"[""space"",""space""]",ki,2,testWhenL1Uns//cat_viol.r1.s1.0.wav,1.0,when,unsyncopated,a,s1,no_rule,cat,L1,z,4.2241,4.0,1.0,5.349,3 ,2.0,Castellano,1.0,Catalán,1.0,Inglés,3.0,3.0,2.0,yes,yes,yes,Piano,14,1. Cuando comparto música con alguien siento una complicidad especial con aquella persona.,3.0,. ,68.0,yes
1,2024-03-03_12h22.01.291,Unsyncopated_study3,s132,20.0,feminino,right,España,Castellano y Catalán,Upper secondary,no,no,A,1,when,L1,unsyncopated,when,when,1,Online_whenL1//a.ki17.none.wav,be,la,fo,sil,zu,ze,ro,sil1,pu,ne,sil2,['-'],,,none,none,,,,ki,2,testWhenL1Uns//r2.s1.0.wav,1.0,when,unsyncopated,b,s1,rule,rule,L1,m,0.9645,4.0,0.0,4.069,3 ,2.0,Castellano,1.0,Catalán,1.0,Inglés,3.0,3.0,2.0,yes,yes,yes,Piano,14,2. En mi tiempo libre apenas escucho música.,5.0,. ,68.0,yes
2,2024-03-03_12h22.01.291,Unsyncopated_study3,s132,20.0,feminino,right,España,Castellano y Catalán,Upper secondary,no,no,A,1,when,L1,unsyncopated,when,when,2,Online_whenL1//a.ki19.1998.wav,pu,ze,ro,sil,fo,zu,cho,sil1,fa,ki,sil2,['catch'],[2.504700000002913],[2.504700000002913],1.998,no_beat,0.5067000000029129,0.5067000000029129,"[""space""]",ki,2,testWhenL1Uns//dep_viol.r1.s2.0.wav,1.0,when,unsyncopated,a,s2,no_rule,dep,L1,z,0.6028,5.0,1.0,2.7177,3 ,2.0,Castellano,1.0,Catalán,1.0,Inglés,3.0,3.0,2.0,yes,yes,yes,Piano,14,3. Algunas canciones me ponen los pelos de punta,4.0,. ,68.0,yes
3,2024-03-03_12h22.01.291,Unsyncopated_study3,s132,20.0,feminino,right,España,Castellano y Catalán,Upper secondary,no,no,A,1,when,L1,unsyncopated,when,when,3,Online_whenL1//a.ki16.888.wav,ni,ro,ta,sil,ki,lu,cho,sil1,fo,ri,sil2,['catch'],[1.6181999999880645],[1.6181999999880645],0.888,beat,0.7301999999880645,0.7301999999880645,"[""space""]",ki,2,testWhenL1Uns//r2.s1.1.wav,1.0,when,unsyncopated,b,s1,rule,rule,L1,m,0.5168,4.0,0.0,1.8348,3 ,2.0,Castellano,1.0,Catalán,1.0,Inglés,3.0,3.0,2.0,yes,yes,yes,Piano,14,4. La música me hace compañía cuando estoy solo,4.0,. ,68.0,yes
4,2024-03-03_12h22.01.291,Unsyncopated_study3,s132,20.0,feminino,right,España,Castellano y Catalán,Upper secondary,no,no,A,1,when,L1,unsyncopated,when,when,4,Online_whenL1//c.ro8.222.wav,ne,ro,ze,sil,ki,fo,zu,sil1,cho,pu,sil2,['catch'],[1.408099999993965],[1.408099999993965],0.222,no_beat,1.186099999993965,1.186099999993965,"[""space""]",ro,3,testWhenL1Uns//dep_viol.r2.s1.0.wav,1.0,when,unsyncopated,b,s1,no_rule,dep,L1,z,0.5054,6.0,1.0,1.4157,3 ,2.0,Castellano,1.0,Catalán,1.0,Inglés,3.0,3.0,2.0,yes,yes,yes,Piano,14,5. No me apetece bailar ni con la música que más me gusta,5.0,. ,68.0,yes
5,2024-03-03_12h22.01.291,Unsyncopated_study3,s132,20.0,feminino,right,España,Castellano y Catalán,Upper secondary,no,no,A,1,when,L1,unsyncopated,when,when,5,Online_whenL1//c.ro10.1110.wav,ne,ta,ni,sil,ri,ro,lu,sil1,ki,cho,sil2,['miss'],,,1.11,no_beat,,,,ro,3,testWhenL1Uns//r1.s2.0.wav,1.0,when,unsyncopated,a,s2,rule,rule,L1,m,0.6655,6.0,0.0,2.085,3 ,2.0,Castellano,1.0,Catalán,1.0,Inglés,3.0,3.0,2.0,yes,yes,yes,Piano,14,6. La música me hace conectar con la gente,2.0,. ,68.0,yes
6,2024-03-03_12h22.01.291,Unsyncopated_study3,s132,20.0,feminino,right,España,Castellano y Catalán,Upper secondary,no,no,A,1,when,L1,unsyncopated,when,when,6,Online_whenL1//c.ro9.none.wav,ze,zu,ta,sil,la,lu,fo,sil1,pu,ri,sil2,['false alarm'],[0.10479999999699885],[0.10479999999699885],none,none,,,"[""space""]",ro,3,testWhenL1Uns//time_viol.r2.s1.0.wav,1.0,when,unsyncopated,b,s1,no_rule,time,L1,z,0.8936,4.0,1.0,1.4177,3 ,2.0,Castellano,1.0,Catalán,1.0,Inglés,3.0,3.0,2.0,yes,yes,yes,Piano,14,7. Me informo sobre la música que me gusta.,2.0,. ,68.0,yes
7,2024-03-03_12h22.01.291,Unsyncopated_study3,s132,20.0,feminino,right,España,Castellano y Catalán,Upper secondary,no,no,A,1,when,L1,unsyncopated,when,when,7,Online_whenL1//c.ro11.888.wav,ni,fa,ze,sil,ro,ta,ri,sil1,la,be,sil2,['miss'],,,0.888,beat,,,,ro,3,testWhenL1Uns//time_viol.r1.s1.0.wav,1.0,when,unsyncopated,a,s1,no_rule,time,L1,z,0.6382,4.0,1.0,0.9842,3 ,2.0,Castellano,1.0,Catalán,1.0,Inglés,3.0,3.0,2.0,yes,yes,yes,Piano,14,8.Me emociono escuchando ciertas canciones.,4.0,. ,68.0,yes
8,2024-03-03_12h22.01.291,Unsyncopated_study3,s132,20.0,feminino,right,España,Castellano y Catalán,Upper secondary,no,no,A,1,when,L1,unsyncopated,when,when,8,Online_whenL1//b.ta15.none.wav,fa,ro,la,sil,ki,ze,pu,sil1,ne,ri,sil2,['false alarm'],[1.2997999999970489],[1.2997999999970489],none,none,,,"[""space""]",ta,1,testWhenL1Uns//time_viol.r2.s2.0.wav,1.0,when,unsyncopated,b,s2,no_rule,time,L1,m,1.1876,3.0,0.0,0.853,3 ,2.0,Castellano,1.0,Catalán,1.0,Inglés,3.0,3.0,2.0,yes,yes,yes,Piano,14,9.La música me tranquiliza y me relaja.,4.0,. ,68.0,yes
9,2024-03-03_12h22.01.291,Unsyncopated_study3,s132,20.0,feminino,right,España,Castellano y Catalán,Upper secondary,no,no,A,1,when,L1,unsyncopated,when,when,9,Online_whenL1//b.ta12.1998.wav,lu,la,ro,sil,ne,zu,fo,sil1,ki,ta,sil2,['catch'],[2.5234000000059496],[2.5234000000059496],1.998,no_beat,0.5254000000059496,0.5254000000059496,"[""space""]",ta,1,testWhenL1Uns//r1.s1.1.wav,1.0,when,unsyncopated,a,s1,rule,rule,L1,m,0.5153,5.0,0.0,0.5268,3 ,2.0,Castellano,1.0,Catalán,1.0,Inglés,3.0,3.0,2.0,yes,yes,yes,Piano,14,10.La música me hace bailar,4.0,. ,68.0,yes
10,2024-03-03_12h22.01.291,Unsyncopated_study3,s132,20.0,feminino,right,España,Castellano y Catalán,Upper secondary,no,no,A,1,when,L1,unsyncopated,when,when,10,Online_whenL1//b.ta14.none.wav,lu,fo,zu,sil,ni,be,cho,sil1,pu,ri,sil2,['-'],,,none,none,,,,ta,1,testWhenL1Uns//r1.s2.1.wav,1.0,when,unsyncopated,a,s2,rule,rule,L1,z,0.6647,4.0,1.0,0.5765,3 ,2.0,Castellano,1.0,Catalán,1.0,Inglés,3.0,3.0,2.0,yes,yes,yes,Piano,14,11.Busco novedades musicales continuamente,2.0,. ,68.0,yes
11,2024-03-03_12h22.01.291,Unsyncopated_study3,s132,20.0,feminino,right,España,Castellano y Catalán,Upper secondary,no,no,A,1,when,L1,unsyncopated,when,when,11,Online_whenL1//b.ta13.none.wav,pu,la,be,sil,zu,ze,ri,sil1,ne,ni,sil2,['-'],,,none,none,,,,ta,1,testWhenL1Uns//cat_viol.r2.s2.0.wav,1.0,when,unsyncopated,b,s2,no_rule,cat,L1,m,0.387,6.0,0.0,0.7312,3 ,2.0,Castellano,1.0,Catalán,1.0,Inglés,3.0,3.0,2.0,yes,yes,yes,Piano,14,12. Puedo llorar cuando escucho algunas melodías que me gustan mucho.,4.0,. ,68.0,yes
12,2024-03-03_12h22.01.291,Unsyncopated_study3,s132,20.0,feminino,right,España,Castellano y Catalán,Upper secondary,no,no,A,1,when,L1,unsyncopated,when,when,12,Online_whenL1//d.ne3.none.wav,fo,la,be,sil,pu,fa,ni,sil1,lu,cho,sil2,['false alarm'],[2.040300000011939],[2.040300000011939],none,none,,,"[""space""]",ne,4,testWhenL1Uns//time_viol.r1.s2.0.wav,1.0,when,unsyncopated,a,s2,no_rule,time,L1,m,1.6666,3.0,0.0,0.5507,3 ,2.0,Castellano,1.0,Catalán,1.0,Inglés,3.0,3.0,2.0,yes,yes,yes,Piano,14,13. Me gusta cantar o tocar un instrumento con más gente,4.0,. ,68.0,yes
13,2024-03-03_12h22.01.291,Unsyncopated_study3,s132,20.0,feminino,right,España,Castellano y Catalán,Upper secondary,no,no,A,1,when,L1,unsyncopated,when,when,13,Online_whenL1//d.ne0.1110.wav,ze,fa,fo,sil,pu,ne,ta,sil1,la,ni,sil2,['miss'],,,1.11,no_beat,,,,ne,4,testWhenL1Uns//r1.s1.2.wav,1.0,when,unsyncopated,a,s1,rule,rule,L1,z,0.5061,2.0,1.0,0.459,3 ,2.0,Castellano,1.0,Catalán,1.0,Inglés,3.0,3.0,2.0,yes,yes,yes,Piano,14,14. La música me ayuda a desconectar.,4.0,. ,68.0,yes
14,2024-03-03_12h22.01.291,Unsyncopated_study3,s132,20.0,feminino,right,España,Castellano y Catalán,Upper secondary,no,no,A,1,when,L1,unsyncopated,when,when,14,Online_whenL1//d.ne1.none.wav,pu,zu,fo,sil,ze,fa,ni,sil1,ta,lu,sil2,['-'],,,none,none,,,,ne,4,testWhenL1Uns//r1.s2.2.wav,1.0,when,unsyncopated,a,s2,rule,rule,L1,m,0.3882,4.0,0.0,0.4519,3 ,2.0,Castellano,1.0,Catalán,1.0,Inglés,3.0,3.0,2.0,yes,yes,yes,Piano,14,15. No puedo evitar tararear las canciones que me gustan cuando las escucho.,4.0,. ,68.0,yes
15,2024-03-03_12h22.01.291,Unsyncopated_study3,s132,20.0,feminino,right,España,Castellano y Catalán,Upper secondary,no,no,A,1,when,L1,unsyncopated,when,when,15,Online_whenL1//d.ne2.none.wav,lu,ze,ni,sil,pu,la,ri,sil1,ki,zu,sil2,['-'],,,none,none,,,,ne,4,testWhenL1Uns//dep_viol.r1.s1.0.wav,1.0,when,unsyncopated,a,s1,no_rule,dep,L1,z,0.97,4.0,1.0,0.3349,3 ,2.0,Castellano,1.0,Catalán,1.0,Inglés,3.0,3.0,2.0,yes,yes,yes,Piano,14,16. En los conciertos me siento en sintonía con los artistas y el público.,4.0,. ,68.0,yes
16,2024-03-03_12h22.01.291,Unsyncopated_study3,s132,20.0,feminino,right,España,Castellano y Catalán,Upper secondary,no,no,A,1,when,L1,unsyncopated,when,when,16,Online_whenL1//c.ro16.1776.wav,fa,ne,zu,sil,ki,ta,ze,sil1,ro,cho,sil2,"['false alarm', 'catch']","[0.8899000000060369, 2.505299999997078]",[2.505299999997078],1.776,beat,0.729299999997078,0.729299999997078,"[""space"",""space""]",ro,3,testWhenL1Uns//cat_viol.r2.s1.0.wav,1.0,when,unsyncopated,b,s1,no_rule,cat,L1,z,0.7032,3.0,1.0,0.3208,3 ,2.0,Castellano,1.0,Catalán,1.0,Inglés,3.0,3.0,2.0,yes,yes,yes,Piano,14,17. Me gasto bastante dinero en música y cosas relacionadas con la música.,1.0,. ,68.0,yes
17,2024-03-03_12h22.01.291,Unsyncopated_study3,s132,20.0,feminino,right,España,Castellano y Catalán,Upper secondary,no,no,A,1,when,L1,unsyncopated,when,when,17,Online_whenL1//c.ro19.1332.wav,ze,be,pu,sil,ne,fo,ro,sil1,lu,cho,sil2,['catch'],[1.6534999999998945],[1.6534999999998945],1.332,no_beat,0.3214999999998944,0.3214999999998944,"[""space""]",ro,3,testWhenL1Uns//r1.s1.0.wav,1.0,when,unsyncopated,a,s1,rule,rule,L1,m,0.2716,4.0,0.0,0.4017,3 ,2.0,Castellano,1.0,Catalán,1.0,Inglés,3.0,3.0,2.0,yes,yes,yes,Piano,14,18. Siento escalofríos cuando escucho una melodía que me gusta.,2.0,. ,68.0,yes
18,2024-03-03_12h22.01.291,Unsyncopated_study3,s132,20.0,feminino,right,España,Castellano y Catalán,Upper secondary,no,no,A,1,when,L1,unsyncopated,when,when,18,Online_whenL1//c.ro17.none.wav,la,ze,pu,sil,ki,cho,zu,sil1,fa,ne,sil2,['-'],,,none,none,,,,ro,3,testWhenL1Uns//r2.s1.2.wav,1.0,when,unsyncopated,b,s1,rule,rule,L1,m,0.4305,2.0,0.0,0.4233,3 ,2.0,Castellano,1.0,Catalán,1.0,Inglés,3.0,3.0,2.0,yes,yes,yes,Piano,14,19. Con la música me puedo desahogar.,3.0,. ,68.0,yes
19,2024-03-03_12h22.01.291,Unsyncopated_study3,s132,20.0,feminino,right,España,Castellano y Catalán,Upper secondary,no,no,A,1,when,L1,unsyncopated,when,when,19,Online_whenL1//c.ro18.none.wav,ki,ri,ni,sil,ne,ta,cho,sil1,fo,ze,sil2,['-'],,,none,none,,,,ro,3,testWhenL1Uns//r2.s2.1.wav,1.0,when,unsyncopated,b,s2,rule,rule,L1,z,0.2688,3.0,1.0,0.4048,3 ,2.0,Castellano,1.0,Catalán,1.0,Inglés,3.0,3.0,2.0,yes,yes,yes,Piano,14,20. Cuando escucho una melodía que me gusta mucho no puedo evitar mover el cuerpo.,3.0,. ,68.0,yes
20,2024-03-03_12h22.01.291,Unsyncopated_study3,s132,20.0,feminino,right,España,Castellano y Catalán,Upper secondary,no,no,A,1,when,L1,unsyncopated,when,when,20,Online_whenL1//a.ki8.none.wav,ne,fo,zu,sil,pu,be,ni,sil1,ze,la,sil2,['-'],,,none,none,,,,ki,2,testWhenL1Uns//r2.s2.2.wav,1.0,when,unsyncopated,b,s2,rule,rule,L1,m,0.4568,4.0,0.0,0.71,3 ,2.0,Castellano,1.0,Catalán,1.0,Inglés,3.0,3.0,2.0,yes,yes,yes,Piano,14,,,. ,68.0,yes
21,2024-03-03_12h22.01.291,Unsyncopated_study3,s132,20.0,feminino,right,España,Castellano y Catalán,Upper secondary,no,no,A,1,when,L1,unsyncopated,when,when,21,Online_whenL1//a.ki10.222.wav,ro,ki,be,sil,la,ri,lu,sil1,fo,fa,sil2,['catch'],[0.658099999993965],[0.658099999993965],0.222,no_beat,0.436099999993965,0.436099999993965,"[""space""]",ki,2,testWhenL1Uns//r2.s2.0.wav,1.0,when,unsyncopated,b,s2,rule,rule,L1,z,0.5675,4.0,1.0,0.104,3 ,2.0,Castellano,1.0,Catalán,1.0,Inglés,3.0,3.0,2.0,yes,yes,yes,Piano,14,,,. ,68.0,yes
22,2024-03-03_12h22.01.291,Unsyncopated_study3,s132,20.0,feminino,right,España,Castellano y Catalán,Upper secondary,no,no,A,1,when,L1,unsyncopated,when,when,22,Online_whenL1//a.ki11.none.wav,cho,la,pu,sil,zu,ta,ro,sil1,ni,ri,sil2,['-'],,,none,none,,,,ki,2,testWhenL1Uns//cat_viol.r1.s2.0.wav,1.0,when,unsyncopated,a,s2,no_rule,cat,L1,m,0.3372,3.0,0.0,0.4378,3 ,2.0,Castellano,1.0,Catalán,1.0,Inglés,3.0,3.0,2.0,yes,yes,yes,Piano,14,,,. ,68.0,yes
23,2024-03-03_12h22.01.291,Unsyncopated_study3,s132,20.0,feminino,right,España,Castellano y Catalán,Upper secondary,no,no,A,1,when,L1,unsyncopated,when,when,23,Online_whenL1//a.ki9.none.wav,la,ro,ze,sil,cho,fa,pu,sil1,ne,ta,sil2,['-'],,,none,none,,,,ki,2,testWhenL1Uns//dep_viol.r2.s2.0.wav,1.0,when,unsyncopated,b,s2,no_rule,dep,L1,z,0.3008,4.0,1.0,0.3657,3 ,2.0,Castellano,1.0,Catalán,1.0,Inglés,3.0,3.0,2.0,yes,yes,yes,Piano,14,,,. ,68.0,yes
24,2024-03-03_12h22.01.291,Unsyncopated_study3,s132,20.0,feminino,right,España,Castellano y Catalán,Upper secondary,no,no,A,1,when,L1,unsyncopated,when,when,24,Online_whenL1//d.ne9.none.wav,lu,be,pu,sil,fa,cho,zu,sil1,la,fo,sil2,['-'],,,none,none,,,,ne,4,testWhatL4Uns//cat_viol.r1.s2.0.wav,2.0,what,unsyncopated,a,s2,no_rule,cat,L4,z,2.3009,3.0,0.0,0.9949,3 ,2.0,Castellano,1.0,Catalán,1.0,Inglés,3.0,3.0,2.0,yes,yes,yes,Piano,14,,,. ,68.0,yes
25,2024-03-03_12h22.01.291,Unsyncopated_study3,s132,20.0,feminino,right,España,Castellano y Catalán,Upper secondary,no,no,A,1,when,L1,unsyncopated,when,when,25,Online_whenL1//d.ne8.none.wav,lu,ni,la,sil,ro,ri,fa,sil1,ta,pu,sil2,['-'],,,none,none,,,,ne,4,testWhatL4Uns//r1.s1.2.wav,2.0,what,unsyncopated,a,s1,rule,rule,L4,m,0.3565,4.0,0.0,0.3436,3 ,2.0,Castellano,1.0,Catalán,1.0,Inglés,3.0,3.0,2.0,yes,yes,yes,Piano,14,,,. ,68.0,yes
26,2024-03-03_12h22.01.291,Unsyncopated_study3,s132,20.0,feminino,right,España,Castellano y Catalán,Upper secondary,no,no,A,1,when,L1,unsyncopated,when,when,26,Online_whenL1//d.ne10.222.wav,ki,ne,fa,sil,be,zu,lu,sil1,la,cho,sil2,['catch'],[0.7641999999881364],[0.7641999999881364],0.222,no_beat,0.5421999999881364,0.5421999999881364,"[""space""]",ne,4,testWhatL4Uns//r2.s2.2.wav,2.0,what,unsyncopated,b,s2,rule,rule,L4,m,0.2532,3.0,0.0,0.1342,3 ,2.0,Castellano,1.0,Catalán,1.0,Inglés,3.0,3.0,2.0,yes,yes,yes,Piano,14,,,. ,68.0,yes
27,2024-03-03_12h22.01.291,Unsyncopated_study3,s132,20.0,feminino,right,España,Castellano y Catalán,Upper secondary,no,no,A,1,when,L1,unsyncopated,when,when,27,Online_whenL1//d.ne11.0.wav,ne,cho,la,sil,lu,ta,pu,sil1,fa,ze,sil2,['miss'],,,0.0,beat,,,,ne,4,testWhatL4Uns//dep_viol.r2.s1.0.wav,2.0,what,unsyncopated,b,s1,no_rule,dep,L4,z,0.4148,4.0,0.0,0.4061,3 ,2.0,Castellano,1.0,Catalán,1.0,Inglés,3.0,3.0,2.0,yes,yes,yes,Piano,14,,,. ,68.0,yes
28,2024-03-03_12h22.01.291,Unsyncopated_study3,s132,20.0,feminino,right,España,Castellano y Catalán,Upper secondary,no,no,A,1,when,L1,unsyncopated,when,when,28,Online_whenL1//c.ro2.1110.wav,fo,be,ri,sil,ni,ro,ta,sil1,la,zu,sil2,"['catch', 'false alarm']","[1.8310000000000173, 1.9556000000088716]",[1.8310000000000173],1.11,no_beat,0.7210000000000172,0.7210000000000172,"[""space"",""space""]",ro,3,testWhatL4Uns//r1.s2.1.wav,2.0,what,unsyncopated,a,s2,rule,rule,L4,z,0.254,3.0,1.0,0.3901,3 ,2.0,Castellano,1.0,Catalán,1.0,Inglés,3.0,3.0,2.0,yes,yes,yes,Piano,14,,,. ,68.0,yes
29,2024-03-03_12h22.01.291,Unsyncopated_study3,s132,20.0,feminino,right,España,Castellano y Catalán,Upper secondary,no,no,A,1,when,L1,unsyncopated,when,when,29,Online_whenL1//c.ro0.222.wav,zu,ro,ze,sil,ri,fo,pu,sil1,ki,lu,sil2,['catch'],[1.672300000012001],[1.672300000012001],0.222,no_beat,,1.450300000012001,"[""space""]",ro,3,testWhatL4Uns//r1.s2.0.wav,2.0,what,unsyncopated,a,s2,rule,rule,L4,m,0.2917,4.0,0.0,0.4057,3 ,2.0,Castellano,1.0,Catalán,1.0,Inglés,3.0,3.0,2.0,yes,yes,yes,Piano,14,,,. ,68.0,yes
30,2024-03-03_12h22.01.291,Unsyncopated_study3,s132,20.0,feminino,right,España,Castellano y Catalán,Upper secondary,no,no,A,1,when,L1,unsyncopated,when,when,30,Online_whenL1//c.ro1.none.wav,fo,be,cho,sil,lu,ze,ni,sil1,pu,la,sil2,['-'],,,none,none,,,,ro,3,testWhatL4Uns//cat_viol.r2.s2.0.wav,2.0,what,unsyncopated,b,s2,no_rule,cat,L4,z,0.2142,6.0,0.0,0.4401,3 ,2.0,Castellano,1.0,Catalán,1.0,Inglés,3.0,3.0,2.0,yes,yes,yes,Piano,14,,,. ,68.0,yes
31,2024-03-03_12h22.01.291,Unsyncopated_study3,s132,20.0,feminino,right,España,Castellano y Catalán,Upper secondary,no,no,A,1,when,L1,unsyncopated,when,when,31,Online_whenL1//c.ro3.444.wav,ze,be,ro,sil,ri,pu,cho,sil1,lu,fa,sil2,['catch'],[1.3700000000000045],[1.3700000000000045],0.444,no_beat,0.9260000000000046,0.9260000000000046,"[""space""]",ro,3,testWhatL4Uns//cat_viol.r2.s1.0.wav,2.0,what,unsyncopated,b,s1,no_rule,cat,L4,z,0.2151,4.0,0.0,0.3517,3 ,2.0,Castellano,1.0,Catalán,1.0,Inglés,3.0,3.0,2.0,yes,yes,yes,Piano,14,,,. ,68.0,yes
32,2024-03-03_12h22.01.291,Unsyncopated_study3,s132,20.0,feminino,right,España,Castellano y Catalán,Upper secondary,no,no,A,1,when,L1,unsyncopated,when,when,32,Online_whenL1//d.ne23.none.wav,be,ni,cho,sil,ri,ro,fo,sil1,la,ki,sil2,['-'],,,none,none,,,,ne,4,testWhatL4Uns//r1.s1.0.wav,2.0,what,unsyncopated,a,s1,rule,rule,L4,m,0.2889,4.0,0.0,0.3733,3 ,2.0,Castellano,1.0,Catalán,1.0,Inglés,3.0,3.0,2.0,yes,yes,yes,Piano,14,,,. ,68.0,yes
33,2024-03-03_12h22.01.291,Unsyncopated_study3,s132,20.0,feminino,right,España,Castellano y Catalán,Upper secondary,no,no,A,1,when,L1,unsyncopated,when,when,33,Online_whenL1//d.ne20.1110.wav,fa,ki,cho,sil,pu,ne,zu,sil1,la,ro,sil2,['catch'],[2.0032999999970116],[2.0032999999970116],1.11,no_beat,0.8932999999970115,0.8932999999970115,"[""space""]",ne,4,testWhatL4Uns//dep_viol.r1.s2.0.wav,2.0,what,unsyncopated,a,s2,no_rule,dep,L4,z,0.1509,2.0,0.0,0.3354,3 ,2.0,Castellano,1.0,Catalán,1.0,Inglés,3.0,3.0,2.0,yes,yes,yes,Piano,14,,,. ,68.0,yes
34,2024-03-03_12h22.01.291,Unsyncopated_study3,s132,20.0,feminino,right,España,Castellano y Catalán,Upper secondary,no,no,A,1,when,L1,unsyncopated,when,when,34,Online_whenL1//d.ne21.1332.wav,la,ro,ki,sil,cho,fo,ne,sil1,ta,ni,sil2,['catch'],[1.8415999999940595],[1.8415999999940595],1.332,no_beat,0.5095999999940595,0.5095999999940595,"[""space""]",ne,4,testWhatL4Uns//dep_viol.r1.s1.0.wav,2.0,what,unsyncopated,a,s1,no_rule,dep,L4,m,0.2855,3.0,1.0,0.4049,3 ,2.0,Castellano,1.0,Catalán,1.0,Inglés,3.0,3.0,2.0,yes,yes,yes,Piano,14,,,. ,68.0,yes
35,2024-03-03_12h22.01.291,Unsyncopated_study3,s132,20.0,feminino,right,España,Castellano y Catalán,Upper secondary,no,no,A,1,when,L1,unsyncopated,when,when,35,Online_whenL1//d.ne22.none.wav,ni,ki,pu,sil,ro,la,cho,sil1,fa,ri,sil2,['-'],,,none,none,,,,ne,4,testWhatL4Uns//r2.s1.1.wav,2.0,what,unsyncopated,b,s1,rule,rule,L4,m,0.8263,3.0,0.0,0.3651,3 ,2.0,Castellano,1.0,Catalán,1.0,Inglés,3.0,3.0,2.0,yes,yes,yes,Piano,14,,,. ,68.0,yes
36,2024-03-03_12h22.01.291,Unsyncopated_study3,s132,20.0,feminino,right,España,Castellano y Catalán,Upper secondary,no,no,A,1,when,L1,unsyncopated,when,when,36,Online_whenL1//c.ro7.0.wav,ro,ta,pu,sil,fa,lu,fo,sil1,cho,ri,sil2,['catch'],[0.827700000002892],[0.827700000002892],0.0,beat,0.827700000002892,0.827700000002892,"[""space""]",ro,3,testWhatL4Uns//r1.s1.1.wav,2.0,what,unsyncopated,a,s1,rule,rule,L4,m,0.2509,3.0,0.0,0.3881,3 ,2.0,Castellano,1.0,Catalán,1.0,Inglés,3.0,3.0,2.0,yes,yes,yes,Piano,14,,,. ,68.0,yes
37,2024-03-03_12h22.01.291,Unsyncopated_study3,s132,20.0,feminino,right,España,Castellano y Catalán,Upper secondary,no,no,A,1,when,L1,unsyncopated,when,when,37,Online_whenL1//c.ro5.none.wav,ni,zu,ze,sil,pu,be,fa,sil1,cho,fo,sil2,['-'],,,none,none,,,,ro,3,testWhatL4Uns//r2.s2.1.wav,2.0,what,unsyncopated,b,s2,rule,rule,L4,m,0.1647,3.0,0.0,0.4339,3 ,2.0,Castellano,1.0,Catalán,1.0,Inglés,3.0,3.0,2.0,yes,yes,yes,Piano,14,,,. ,68.0,yes
38,2024-03-03_12h22.01.291,Unsyncopated_study3,s132,20.0,feminino,right,España,Castellano y Catalán,Upper secondary,no,no,A,1,when,L1,unsyncopated,when,when,38,Online_whenL1//c.ro4.0.wav,ro,ri,ni,sil,pu,be,la,sil1,fa,ze,sil2,['catch'],[0.6580999999940786],[0.6580999999940786],0.0,beat,0.6580999999940786,0.6580999999940786,"[""space""]",ro,3,testWhatL4Uns//time_viol.r2.s1.0.wav,2.0,what,unsyncopated,b,s1,no_rule,time,L4,z,0.2315,2.0,0.0,0.419,3 ,2.0,Castellano,1.0,Catalán,1.0,Inglés,3.0,3.0,2.0,yes,yes,yes,Piano,14,,,. ,68.0,yes
39,2024-03-03_12h22.01.291,Unsyncopated_study3,s132,20.0,feminino,right,España,Castellano y Catalán,Upper secondary,no,no,A,1,when,L1,unsyncopated,when,when,39,Online_whenL1//c.ro6.none.wav,ri,ze,ta,sil,ne,zu,lu,sil1,be,fo,sil2,['false alarm'],[1.7415000000000873],[1.7415000000000873],none,none,,,"[""space""]",ro,3,testWhatL4Uns//r2.s1.0.wav,2.0,what,unsyncopated,b,s1,rule,rule,L4,z,0.251,5.0,1.0,0.6223,3 ,2.0,Castellano,1.0,Catalán,1.0,Inglés,3.0,3.0,2.0,yes,yes,yes,Piano,14,,,. ,68.0,yes
40,2024-03-03_12h22.01.291,Unsyncopated_study3,s132,20.0,feminino,right,España,Castellano y Catalán,Upper secondary,no,no,A,1,when,L1,unsyncopated,when,when,40,Online_whenL1//a.ki35.none.wav,ne,la,fo,sil,cho,ta,ni,sil1,ri,be,sil2,['-'],,,none,none,,,,ki,2,testWhatL4Uns//time_viol.r2.s2.0.wav,2.0,what,unsyncopated,b,s2,no_rule,time,L4,m,0.3692,2.0,1.0,0.5707,3 ,2.0,Castellano,1.0,Catalán,1.0,Inglés,3.0,3.0,2.0,yes,yes,yes,Piano,14,,,. ,68.0,yes
41,2024-03-03_12h22.01.291,Unsyncopated_study3,s132,20.0,feminino,right,España,Castellano y Catalán,Upper secondary,no,no,A,1,when,L1,unsyncopated,when,when,41,Online_whenL1//a.ki32.1110.wav,cho,ro,ne,sil,ri,ki,zu,sil1,ze,be,sil2,['catch'],[1.5752999999970143],[1.5752999999970143],1.11,no_beat,0.4652999999970142,0.4652999999970142,"[""space""]",ki,2,testWhatL4Uns//cat_viol.r1.s1.0.wav,2.0,what,unsyncopated,a,s1,no_rule,cat,L4,z,0.3022,4.0,0.0,0.4189,3 ,2.0,Castellano,1.0,Catalán,1.0,Inglés,3.0,3.0,2.0,yes,yes,yes,Piano,14,,,. ,68.0,yes
42,2024-03-03_12h22.01.291,Unsyncopated_study3,s132,20.0,feminino,right,España,Castellano y Catalán,Upper secondary,no,no,A,1,when,L1,unsyncopated,when,when,42,Online_whenL1//a.ki33.1332.wav,fa,be,ne,sil,la,ni,ki,sil1,ro,zu,sil2,['catch'],[1.8212000000030457],[1.8212000000030457],1.332,no_beat,0.4892000000030456,0.4892000000030456,"[""space""]",ki,2,testWhatL4Uns//r2.s1.2.wav,2.0,what,unsyncopated,b,s1,rule,rule,L4,z,1.7815,3.0,1.0,0.5197,3 ,2.0,Castellano,1.0,Catalán,1.0,Inglés,3.0,3.0,2.0,yes,yes,yes,Piano,14,,,. ,68.0,yes
43,2024-03-03_12h22.01.291,Unsyncopated_study3,s132,20.0,feminino,right,España,Castellano y Catalán,Upper secondary,no,no,A,1,when,L1,unsyncopated,when,when,43,Online_whenL1//a.ki34.none.wav,ni,be,ro,sil,fo,cho,pu,sil1,ri,ze,sil2,['-'],,,none,none,,,,ki,2,testWhatL4Uns//time_viol.r1.s1.0.wav,2.0,what,unsyncopated,a,s1,no_rule,time,L4,m,0.2593,3.0,1.0,0.4023,3 ,2.0,Castellano,1.0,Catalán,1.0,Inglés,3.0,3.0,2.0,yes,yes,yes,Piano,14,,,. ,68.0,yes
44,2024-03-03_12h22.01.291,Unsyncopated_study3,s132,20.0,feminino,right,España,Castellano y Catalán,Upper secondary,no,no,A,1,when,L1,unsyncopated,when,when,44,Online_whenL1//b.ta0.none.wav,ri,lu,ze,sil,zu,la,pu,sil1,cho,be,sil2,['-'],,,none,none,,,,ta,1,testWhatL4Uns//time_viol.r1.s2.0.wav,2.0,what,unsyncopated,a,s2,no_rule,time,L4,m,0.1151,4.0,1.0,0.4249,3 ,2.0,Castellano,1.0,Catalán,1.0,Inglés,3.0,3.0,2.0,yes,yes,yes,Piano,14,,,. ,68.0,yes
45,2024-03-03_12h22.01.291,Unsyncopated_study3,s132,20.0,feminino,right,España,Castellano y Catalán,Upper secondary,no,no,A,1,when,L1,unsyncopated,when,when,45,Online_whenL1//b.ta1.none.wav,ki,cho,fa,sil,ne,ze,ri,sil1,be,la,sil2,['-'],,,none,none,,,,ta,1,testWhatL4Uns//r1.s2.2.wav,2.0,what,unsyncopated,a,s2,rule,rule,L4,z,0.2134,3.0,1.0,0.3999,3 ,2.0,Castellano,1.0,Catalán,1.0,Inglés,3.0,3.0,2.0,yes,yes,yes,Piano,14,,,. ,68.0,yes
46,2024-03-03_12h22.01.291,Unsyncopated_study3,s132,20.0,feminino,right,España,Castellano y Catalán,Upper secondary,no,no,A,1,when,L1,unsyncopated,when,when,46,Online_whenL1//b.ta2.1332.wav,zu,ni,pu,sil,ri,ne,ta,sil1,ze,fa,sil2,['catch'],[1.7572999999970307],[1.7572999999970307],1.332,no_beat,0.4252999999970306,0.4252999999970306,"[""space""]",ta,1,testWhatL4Uns//r2.s2.0.wav,2.0,what,unsyncopated,b,s2,rule,rule,L4,z,1.152,2.0,1.0,0.3499,3 ,2.0,Castellano,1.0,Catalán,1.0,Inglés,3.0,3.0,2.0,yes,yes,yes,Piano,14,,,. ,68.0,yes
47,2024-03-03_12h22.01.291,Unsyncopated_study3,s132,20.0,feminino,right,España,Castellano y Catalán,Upper secondary,no,no,A,1,when,L1,unsyncopated,when,when,47,Online_whenL1//b.ta3.222.wav,ri,ta,fo,sil,ro,ni,pu,sil1,zu,ne,sil2,['catch'],[0.8686000000088825],[0.8686000000088825],0.222,no_beat,0.6466000000088825,0.6466000000088825,"[""space""]",ta,1,testWhatL4Uns//dep_viol.r2.s2.0.wav,2.0,what,unsyncopated,b,s2,no_rule,dep,L4,m,0.2774,1.0,1.0,0.7652,3 ,2.0,Castellano,1.0,Catalán,1.0,Inglés,3.0,3.0,2.0,yes,yes,yes,Piano,14,,,. ,68.0,yes
48,2024-03-03_12h22.01.291,Unsyncopated_study3,s132,20.0,feminino,right,España,Castellano y Catalán,Upper secondary,no,no,A,1,when,L1,unsyncopated,when,when,48,Online_whenL1//a.ki6.none.wav,la,ri,ni,sil,pu,ro,ne,sil1,be,zu,sil2,['-'],,,none,none,,,,ki,2,testConjL3Uns//cat_viol.r1.s2.0.wav,3.0,conjunction_un,unsyncopated,a,s2,no_rule,cat,L3,z,1.0054,5.0,0.0,0.4948,3 ,2.0,Castellano,1.0,Catalán,1.0,Inglés,3.0,3.0,2.0,yes,yes,yes,Piano,14,,,. ,68.0,yes
49,2024-03-03_12h22.01.291,Unsyncopated_study3,s132,20.0,feminino,right,España,Castellano y Catalán,Upper secondary,no,no,A,1,when,L1,unsyncopated,when,when,49,Online_whenL1//a.ki4.222.wav,fa,ki,zu,sil,ni,ta,lu,sil1,ro,ri,sil2,['catch'],[1.073899999991113],[1.073899999991113],0.222,no_beat,0.851899999991113,0.851899999991113,"[""space""]",ki,2,testConjL3Uns//time_viol.r2.s1.0.wav,3.0,conjunction_un,unsyncopated,b,s1,no_rule,time,L3,z,0.304,5.0,0.0,0.4568,3 ,2.0,Castellano,1.0,Catalán,1.0,Inglés,3.0,3.0,2.0,yes,yes,yes,Piano,14,,,. ,68.0,yes
50,2024-03-03_12h22.01.291,Unsyncopated_study3,s132,20.0,feminino,right,España,Castellano y Catalán,Upper secondary,no,no,A,1,when,L1,unsyncopated,when,when,50,Online_whenL1//a.ki5.none.wav,fo,be,lu,sil,ze,ro,cho,sil1,ta,zu,sil2,['-'],,,none,none,,,,ki,2,testConjL3Uns//time_viol.r2.s2.0.wav,3.0,conjunction_un,unsyncopated,b,s2,no_rule,time,L3,m,0.2403,3.0,1.0,0.5094,3 ,2.0,Castellano,1.0,Catalán,1.0,Inglés,3.0,3.0,2.0,yes,yes,yes,Piano,14,,,. ,68.0,yes
51,2024-03-03_12h22.01.291,Unsyncopated_study3,s132,20.0,feminino,right,España,Castellano y Catalán,Upper secondary,no,no,A,1,when,L1,unsyncopated,when,when,51,Online_whenL1//a.ki7.none.wav,cho,ro,ri,sil,pu,zu,fa,sil1,ni,be,sil2,['-'],,,none,none,,,,ki,2,testConjL3Uns//r2.s1.2.wav,3.0,conjunction_un,unsyncopated,b,s1,rule,rule,L3,z,0.3314,3.0,1.0,0.5507,3 ,2.0,Castellano,1.0,Catalán,1.0,Inglés,3.0,3.0,2.0,yes,yes,yes,Piano,14,,,. ,68.0,yes
52,2024-03-03_12h22.01.291,Unsyncopated_study3,s132,20.0,feminino,right,España,Castellano y Catalán,Upper secondary,no,no,A,1,when,L1,unsyncopated,when,when,52,Online_whenL1//c.ro24.222.wav,fo,ro,ta,sil,fa,ne,cho,sil1,be,ze,sil2,['miss'],,,0.222,no_beat,,,,ro,3,testConjL3Uns//r2.s2.2.wav,3.0,conjunction_un,unsyncopated,b,s2,rule,rule,L3,z,0.2751,4.0,1.0,0.448,3 ,2.0,Castellano,1.0,Catalán,1.0,Inglés,3.0,3.0,2.0,yes,yes,yes,Piano,14,,,. ,68.0,yes
53,2024-03-03_12h22.01.291,Unsyncopated_study3,s132,20.0,feminino,right,España,Castellano y Catalán,Upper secondary,no,no,A,1,when,L1,unsyncopated,when,when,53,Online_whenL1//c.ro27.none.wav,ni,be,la,sil,lu,zu,ri,sil1,pu,ze,sil2,['false alarm'],[0.5245999999940523],[0.5245999999940523],none,none,,,"[""space""]",ro,3,testConjL3Uns//r2.s2.1.wav,3.0,conjunction_un,unsyncopated,b,s2,rule,rule,L3,m,0.2988,2.0,0.0,0.4318,3 ,2.0,Castellano,1.0,Catalán,1.0,Inglés,3.0,3.0,2.0,yes,yes,yes,Piano,14,,,. ,68.0,yes
54,2024-03-03_12h22.01.291,Unsyncopated_study3,s132,20.0,feminino,right,España,Castellano y Catalán,Upper secondary,no,no,A,1,when,L1,unsyncopated,when,when,54,Online_whenL1//c.ro25.none.wav,la,pu,cho,sil,ki,fo,ze,sil1,ne,ni,sil2,['-'],,,none,none,,,,ro,3,testConjL3Uns//r1.s2.0.wav,3.0,conjunction_un,unsyncopated,a,s2,rule,rule,L3,z,0.0357,1.0,1.0,0.4688,3 ,2.0,Castellano,1.0,Catalán,1.0,Inglés,3.0,3.0,2.0,yes,yes,yes,Piano,14,,,. ,68.0,yes
55,2024-03-03_12h22.01.291,Unsyncopated_study3,s132,20.0,feminino,right,España,Castellano y Catalán,Upper secondary,no,no,A,1,when,L1,unsyncopated,when,when,55,Online_whenL1//c.ro26.444.wav,ki,zu,ro,sil,cho,ta,ne,sil1,ri,fa,sil2,['catch'],[0.9362000000030548],[0.9362000000030548],0.444,no_beat,0.4922000000030548,0.4922000000030548,"[""space""]",ro,3,testConjL3Uns//dep_viol.r1.s2.0.wav,3.0,conjunction_un,unsyncopated,a,s2,no_rule,dep,L3,m,0.3514,3.0,1.0,1.604,3 ,2.0,Castellano,1.0,Catalán,1.0,Inglés,3.0,3.0,2.0,yes,yes,yes,Piano,14,,,. ,68.0,yes
56,2024-03-03_12h22.01.291,Unsyncopated_study3,s132,20.0,feminino,right,España,Castellano y Catalán,Upper secondary,no,no,A,1,when,L1,unsyncopated,when,when,56,Online_whenL1//b.ta8.0.wav,ta,ki,lu,sil,cho,ne,ro,sil1,fo,ri,sil2,['catch'],[0.9120000000000346],[0.9120000000000346],0.0,beat,0.9120000000000346,0.9120000000000346,"[""space""]",ta,1,testConjL3Uns//r1.s1.0.wav,3.0,conjunction_un,unsyncopated,a,s1,rule,rule,L3,m,0.2823,2.0,0.0,0.6241,3 ,2.0,Castellano,1.0,Catalán,1.0,Inglés,3.0,3.0,2.0,yes,yes,yes,Piano,14,,,. ,68.0,yes
57,2024-03-03_12h22.01.291,Unsyncopated_study3,s132,20.0,feminino,right,España,Castellano y Catalán,Upper secondary,no,no,A,1,when,L1,unsyncopated,when,when,57,Online_whenL1//b.ta10.none.wav,lu,ro,la,sil,be,ze,ki,sil1,fo,ne,sil2,['-'],,,none,none,,,,ta,1,testConjL3Uns//r2.s1.1.wav,3.0,conjunction_un,unsyncopated,b,s1,rule,rule,L3,z,0.1512,3.0,1.0,0.4005,3 ,2.0,Castellano,1.0,Catalán,1.0,Inglés,3.0,3.0,2.0,yes,yes,yes,Piano,14,,,. ,68.0,yes
58,2024-03-03_12h22.01.291,Unsyncopated_study3,s132,20.0,feminino,right,España,Castellano y Catalán,Upper secondary,no,no,A,1,when,L1,unsyncopated,when,when,58,Online_whenL1//b.ta9.0.wav,ta,ri,ni,sil,ki,ro,ze,sil1,lu,la,sil2,['catch'],[0.9539999999999509],[0.9539999999999509],0.0,beat,0.9539999999999508,0.9539999999999508,"[""space""]",ta,1,testConjL3Uns//time_viol.r1.s2.0.wav,3.0,conjunction_un,unsyncopated,a,s2,no_rule,time,L3,z,0.304,3.0,0.0,0.4567,3 ,2.0,Castellano,1.0,Catalán,1.0,Inglés,3.0,3.0,2.0,yes,yes,yes,Piano,14,,,. ,68.0,yes
59,2024-03-03_12h22.01.291,Unsyncopated_study3,s132,20.0,feminino,right,España,Castellano y Catalán,Upper secondary,no,no,A,1,when,L1,unsyncopated,when,when,59,Online_whenL1//b.ta11.none.wav,cho,pu,ri,sil,ro,zu,lu,sil1,ki,fa,sil2,['-'],,,none,none,,,,ta,1,testConjL3Uns//dep_viol.r2.s2.0.wav,3.0,conjunction_un,unsyncopated,b,s2,no_rule,dep,L3,m,0.2674,4.0,1.0,0.3671,3 ,2.0,Castellano,1.0,Catalán,1.0,Inglés,3.0,3.0,2.0,yes,yes,yes,Piano,14,,,. ,68.0,yes
60,2024-03-03_12h22.01.291,Unsyncopated_study3,s132,20.0,feminino,right,España,Castellano y Catalán,Upper secondary,no,no,A,1,when,L1,unsyncopated,when,when,60,Online_whenL1//b.ta27.none.wav,be,fa,cho,sil,pu,ze,ni,sil1,lu,zu,sil2,['-'],,,none,none,,,,ta,1,testConjL3Uns//cat_viol.r1.s1.0.wav,3.0,conjunction_un,unsyncopated,a,s1,no_rule,cat,L3,m,0.2174,3.0,1.0,0.3869,3 ,2.0,Castellano,1.0,Catalán,1.0,Inglés,3.0,3.0,2.0,yes,yes,yes,Piano,14,,,. ,68.0,yes
61,2024-03-03_12h22.01.291,Unsyncopated_study3,s132,20.0,feminino,right,España,Castellano y Catalán,Upper secondary,no,no,A,1,when,L1,unsyncopated,when,when,61,Online_whenL1//b.ta25.0.wav,ta,ne,ro,sil,fo,be,lu,sil1,zu,fa,sil2,['miss'],,,0.0,beat,,,,ta,1,testConjL3Uns//cat_viol.r2.s2.0.wav,3.0,conjunction_un,unsyncopated,b,s2,no_rule,cat,L3,z,0.2908,2.0,0.0,0.4181,3 ,2.0,Castellano,1.0,Catalán,1.0,Inglés,3.0,3.0,2.0,yes,yes,yes,Piano,14,,,. ,68.0,yes
62,2024-03-03_12h22.01.291,Unsyncopated_study3,s132,20.0,feminino,right,España,Castellano y Catalán,Upper secondary,no,no,A,1,when,L1,unsyncopated,when,when,62,Online_whenL1//b.ta24.1998.wav,ro,lu,ki,sil,cho,ne,ri,sil1,ni,ta,sil2,['catch_delay'],[1.1252000000029658],[1.1252000000029658],1.998,no_beat,1.1252000000029658,1.1252000000029658,,ta,1,testConjL3Uns//r2.s1.0.wav,3.0,conjunction_un,unsyncopated,b,s1,rule,rule,L3,z,0.2253,2.0,1.0,0.4049,3 ,2.0,Castellano,1.0,Catalán,1.0,Inglés,3.0,3.0,2.0,yes,yes,yes,Piano,14,,,. ,68.0,yes
63,2024-03-03_12h22.01.291,Unsyncopated_study3,s132,20.0,feminino,right,España,Castellano y Catalán,Upper secondary,no,no,A,1,when,L1,unsyncopated,when,when,63,Online_whenL1//b.ta26.888.wav,zu,la,be,sil,ta,ro,cho,sil1,fo,ne,sil2,['miss'],[0.4592000000029657],[0.4592000000029657],0.888,beat,,,"[""space""]",ta,1,testConjL3Uns//r1.s2.1.wav,3.0,conjunction_un,unsyncopated,a,s2,rule,rule,L3,m,0.1988,3.0,0.0,0.4348,3 ,2.0,Castellano,1.0,Catalán,1.0,Inglés,3.0,3.0,2.0,yes,yes,yes,Piano,14,,,. ,68.0,yes
64,2024-03-03_12h22.01.291,Unsyncopated_study3,s132,20.0,feminino,right,España,Castellano y Catalán,Upper secondary,no,no,A,1,when,L1,unsyncopated,when,when,64,Online_whenL1//b.ta4.1776.wav,ni,pu,ze,sil,fo,ro,ne,sil1,ta,zu,sil2,['catch'],[2.6116000000089343],[2.6116000000089343],1.776,beat,0.8356000000089343,0.8356000000089343,"[""space""]",ta,1,testConjL3Uns//r2.s2.0.wav,3.0,conjunction_un,unsyncopated,b,s2,rule,rule,L3,z,0.2532,4.0,1.0,0.4227,3 ,2.0,Castellano,1.0,Catalán,1.0,Inglés,3.0,3.0,2.0,yes,yes,yes,Piano,14,,,. ,68.0,yes
65,2024-03-03_12h22.01.291,Unsyncopated_study3,s132,20.0,feminino,right,España,Castellano y Catalán,Upper secondary,no,no,A,1,when,L1,unsyncopated,when,when,65,Online_whenL1//b.ta5.1332.wav,pu,ro,cho,sil,zu,fa,ta,sil1,ri,ne,sil2,['miss'],,,1.332,no_beat,,,,ta,1,testConjL3Uns//r1.s2.2.wav,3.0,conjunction_un,unsyncopated,a,s2,rule,rule,L3,m,0.0725,2.0,0.0,0.3523,3 ,2.0,Castellano,1.0,Catalán,1.0,Inglés,3.0,3.0,2.0,yes,yes,yes,Piano,14,,,. ,68.0,yes
66,2024-03-03_12h22.01.291,Unsyncopated_study3,s132,20.0,feminino,right,España,Castellano y Catalán,Upper secondary,no,no,A,1,when,L1,unsyncopated,when,when,66,Online_whenL1//b.ta6.none.wav,ze,zu,la,sil,ni,ri,ki,sil1,ro,pu,sil2,['-'],,,none,none,,,,ta,1,testConjL3Uns//r1.s1.2.wav,3.0,conjunction_un,unsyncopated,a,s1,rule,rule,L3,z,0.1815,4.0,1.0,0.4981,3 ,2.0,Castellano,1.0,Catalán,1.0,Inglés,3.0,3.0,2.0,yes,yes,yes,Piano,14,,,. ,68.0,yes
67,2024-03-03_12h22.01.291,Unsyncopated_study3,s132,20.0,feminino,right,España,Castellano y Catalán,Upper secondary,no,no,A,1,when,L1,unsyncopated,when,when,67,Online_whenL1//b.ta7.888.wav,lu,fa,fo,sil,ta,pu,ri,sil1,ni,ne,sil2,['miss'],,,0.888,beat,,,,ta,1,testConjL3Uns//time_viol.r1.s1.0.wav,3.0,conjunction_un,unsyncopated,a,s1,no_rule,time,L3,z,0.2007,2.0,0.0,0.3683,3 ,2.0,Castellano,1.0,Catalán,1.0,Inglés,3.0,3.0,2.0,yes,yes,yes,Piano,14,,,. ,68.0,yes
68,2024-03-03_12h22.01.291,Unsyncopated_study3,s132,20.0,feminino,right,España,Castellano y Catalán,Upper secondary,no,no,A,1,when,L1,unsyncopated,when,when,68,Online_whenL1//a.ki13.1332.wav,lu,cho,ri,sil,ta,la,ki,sil1,ne,ro,sil2,['catch'],[1.8249999999999318],[1.8249999999999318],1.332,no_beat,0.4929999999999317,0.4929999999999317,"[""space""]",ki,2,testConjL3Uns//r1.s1.1.wav,3.0,conjunction_un,unsyncopated,a,s1,rule,rule,L3,m,0.1485,3.0,0.0,0.4342,3 ,2.0,Castellano,1.0,Catalán,1.0,Inglés,3.0,3.0,2.0,yes,yes,yes,Piano,14,,,. ,68.0,yes
69,2024-03-03_12h22.01.291,Unsyncopated_study3,s132,20.0,feminino,right,España,Castellano y Catalán,Upper secondary,no,no,A,1,when,L1,unsyncopated,when,when,69,Online_whenL1//a.ki15.none.wav,ri,ta,fa,sil,fo,ne,be,sil1,ro,ze,sil2,['-'],,,none,none,,,,ki,2,testConjL3Uns//dep_viol.r2.s1.0.wav,3.0,conjunction_un,unsyncopated,b,s1,no_rule,dep,L3,m,0.2234,3.0,1.0,0.3821,3 ,2.0,Castellano,1.0,Catalán,1.0,Inglés,3.0,3.0,2.0,yes,yes,yes,Piano,14,,,. ,68.0,yes
70,2024-03-03_12h22.01.291,Unsyncopated_study3,s132,20.0,feminino,right,España,Castellano y Catalán,Upper secondary,no,no,A,1,when,L1,unsyncopated,when,when,70,Online_whenL1//a.ki12.222.wav,pu,ki,zu,sil,cho,ne,fo,sil1,ni,ze,sil2,['miss'],,,0.222,no_beat,,,,ki,2,testConjL3Uns//dep_viol.r1.s1.0.wav,3.0,conjunction_un,unsyncopated,a,s1,no_rule,dep,L3,m,0.8647,4.0,1.0,0.4911,3 ,2.0,Castellano,1.0,Catalán,1.0,Inglés,3.0,3.0,2.0,yes,yes,yes,Piano,14,,,. ,68.0,yes
71,2024-03-03_12h22.01.291,Unsyncopated_study3,s132,20.0,feminino,right,España,Castellano y Catalán,Upper secondary,no,no,A,1,when,L1,unsyncopated,when,when,71,Online_whenL1//a.ki14.444.wav,fo,ni,ki,sil,ri,zu,la,sil1,ro,pu,sil2,['catch'],[0.9085999999940668],[0.9085999999940668],0.444,no_beat,0.4645999999940668,0.4645999999940668,"[""space""]",ki,2,testConjL3Uns//cat_viol.r2.s1.0.wav,3.0,conjunction_un,unsyncopated,b,s1,no_rule,cat,L3,z,0.2208,4.0,0.0,0.4259,3 ,2.0,Castellano,1.0,Catalán,1.0,Inglés,3.0,3.0,2.0,yes,yes,yes,Piano,14,,,. ,68.0,yes
72,2024-03-03_12h22.01.291,Unsyncopated_study3,s132,20.0,feminino,right,España,Castellano y Catalán,Upper secondary,no,no,A,1,when,L1,unsyncopated,when,when,72,Online_whenL1//c.ro29.none.wav,fa,ne,cho,sil,fo,ki,ta,sil1,ze,la,sil2,['-'],,,none,none,,,,ro,3,testConjL2Syn//r1.s1.1.wav,4.0,conjunction_syn,syncopated,a,s1,rule,rule,L2,z,0.8967,5.0,1.0,0.5787,3 ,2.0,Castellano,1.0,Catalán,1.0,Inglés,3.0,3.0,2.0,yes,yes,yes,Piano,14,,,. ,68.0,yes
73,2024-03-03_12h22.01.291,Unsyncopated_study3,s132,20.0,feminino,right,España,Castellano y Catalán,Upper secondary,no,no,A,1,when,L1,unsyncopated,when,when,73,Online_whenL1//c.ro30.0.wav,ro,ze,zu,sil,ki,be,lu,sil1,fo,ni,sil2,['catch'],[0.5536000000089416],[0.5536000000089416],0.0,beat,0.5536000000089416,0.5536000000089416,"[""space""]",ro,3,testConjL2Syn//time_viol.r2.s2.0.wav,4.0,conjunction_syn,syncopated,b,s2,no_rule,time,L2,z,0.2346,4.0,0.0,0.3317,3 ,2.0,Castellano,1.0,Catalán,1.0,Inglés,3.0,3.0,2.0,yes,yes,yes,Piano,14,,,. ,68.0,yes
74,2024-03-03_12h22.01.291,Unsyncopated_study3,s132,20.0,feminino,right,España,Castellano y Catalán,Upper secondary,no,no,A,1,when,L1,unsyncopated,when,when,74,Online_whenL1//c.ro28.none.wav,fo,fa,ki,sil,ri,ze,zu,sil1,be,ne,sil2,['-'],,,none,none,,,,ro,3,testConjL2Syn//dep_viol.r2.s1.0.wav,4.0,conjunction_syn,syncopated,b,s1,no_rule,dep,L2,z,0.2043,3.0,0.0,0.5289,3 ,2.0,Castellano,1.0,Catalán,1.0,Inglés,3.0,3.0,2.0,yes,yes,yes,Piano,14,,,. ,68.0,yes
75,2024-03-03_12h22.01.291,Unsyncopated_study3,s132,20.0,feminino,right,España,Castellano y Catalán,Upper secondary,no,no,A,1,when,L1,unsyncopated,when,when,75,Online_whenL1//c.ro31.none.wav,ni,ze,fo,sil,ne,zu,pu,sil1,ta,la,sil2,['-'],,,none,none,,,,ro,3,testConjL2Syn//r1.s2.1.wav,4.0,conjunction_syn,syncopated,a,s2,rule,rule,L2,m,0.3409,3.0,0.0,0.3158,3 ,2.0,Castellano,1.0,Catalán,1.0,Inglés,3.0,3.0,2.0,yes,yes,yes,Piano,14,,,. ,68.0,yes
76,2024-03-03_12h22.01.291,Unsyncopated_study3,s132,20.0,feminino,right,España,Castellano y Catalán,Upper secondary,no,no,A,1,when,L1,unsyncopated,when,when,76,Online_whenL1//b.ta35.222.wav,fa,ta,ze,sil,fo,lu,ro,sil1,ni,be,sil2,['miss'],,,0.222,no_beat,,,,ta,1,testConjL2Syn//time_viol.r2.s1.0.wav,4.0,conjunction_syn,syncopated,b,s1,no_rule,time,L2,z,0.1033,3.0,0.0,0.3809,3 ,2.0,Castellano,1.0,Catalán,1.0,Inglés,3.0,3.0,2.0,yes,yes,yes,Piano,14,,,. ,68.0,yes
77,2024-03-03_12h22.01.291,Unsyncopated_study3,s132,20.0,feminino,right,España,Castellano y Catalán,Upper secondary,no,no,A,1,when,L1,unsyncopated,when,when,77,Online_whenL1//b.ta33.none.wav,ro,cho,be,sil,la,pu,ri,sil1,lu,zu,sil2,['-'],,,none,none,,,,ta,1,testConjL2Syn//r1.s2.0.wav,4.0,conjunction_syn,syncopated,a,s2,rule,rule,L2,z,0.2433,3.0,1.0,0.3685,3 ,2.0,Castellano,1.0,Catalán,1.0,Inglés,3.0,3.0,2.0,yes,yes,yes,Piano,14,,,. ,68.0,yes
78,2024-03-03_12h22.01.291,Unsyncopated_study3,s132,20.0,feminino,right,España,Castellano y Catalán,Upper secondary,no,no,A,1,when,L1,unsyncopated,when,when,78,Online_whenL1//b.ta34.1110.wav,be,cho,la,sil,ro,ta,fo,sil1,lu,ni,sil2,['catch'],[1.7035000000000764],[1.7035000000000764],1.11,no_beat,0.5935000000000763,0.5935000000000763,"[""space""]",ta,1,testConjL2Syn//r1.s1.2.wav,4.0,conjunction_syn,syncopated,a,s1,rule,rule,L2,z,5.2438,3.0,1.0,0.957,3 ,2.0,Castellano,1.0,Catalán,1.0,Inglés,3.0,3.0,2.0,yes,yes,yes,Piano,14,,,. ,68.0,yes
79,2024-03-03_12h22.01.291,Unsyncopated_study3,s132,20.0,feminino,right,España,Castellano y Catalán,Upper secondary,no,no,A,1,when,L1,unsyncopated,when,when,79,Online_whenL1//b.ta32.none.wav,ki,ni,fo,sil,lu,zu,cho,sil1,be,ri,sil2,['-'],,,none,none,,,,ta,1,testConjL2Syn//time_viol.r1.s2.0.wav,4.0,conjunction_syn,syncopated,a,s2,no_rule,time,L2,m,0.5884,3.0,1.0,1.5714,3 ,2.0,Castellano,1.0,Catalán,1.0,Inglés,3.0,3.0,2.0,yes,yes,yes,Piano,14,,,. ,68.0,yes
80,2024-03-03_12h22.01.291,Unsyncopated_study3,s132,20.0,feminino,right,España,Castellano y Catalán,Upper secondary,no,no,A,1,when,L1,unsyncopated,when,when,80,Online_whenL1//c.ro20.none.wav,cho,zu,ri,sil,la,be,ne,sil1,fa,ta,sil2,['false alarm'],[1.1437999999969861],[1.1437999999969861],none,none,,,"[""space""]",ro,3,testConjL2Syn//dep_viol.r2.s2.0.wav,4.0,conjunction_syn,syncopated,b,s2,no_rule,dep,L2,m,7.4959,2.0,1.0,0.3183,3 ,2.0,Castellano,1.0,Catalán,1.0,Inglés,3.0,3.0,2.0,yes,yes,yes,Piano,14,,,. ,68.0,yes
81,2024-03-03_12h22.01.291,Unsyncopated_study3,s132,20.0,feminino,right,España,Castellano y Catalán,Upper secondary,no,no,A,1,when,L1,unsyncopated,when,when,81,Online_whenL1//c.ro23.1998.wav,cho,la,pu,sil,ri,fo,ta,sil1,lu,ro,sil2,['miss'],,,1.998,no_beat,,,,ro,3,testConjL2Syn//r2.s1.2.wav,4.0,conjunction_syn,syncopated,b,s1,rule,rule,L2,m,0.8535,3.0,0.0,0.1735,3 ,2.0,Castellano,1.0,Catalán,1.0,Inglés,3.0,3.0,2.0,yes,yes,yes,Piano,14,,,. ,68.0,yes
82,2024-03-03_12h22.01.291,Unsyncopated_study3,s132,20.0,feminino,right,España,Castellano y Catalán,Upper secondary,no,no,A,1,when,L1,unsyncopated,when,when,82,Online_whenL1//c.ro22.none.wav,cho,la,zu,sil,fa,fo,ta,sil1,ni,be,sil2,['false alarm'],[0.5554000000059887],[0.5554000000059887],none,none,,,"[""space""]",ro,3,testConjL2Syn//r2.s2.1.wav,4.0,conjunction_syn,syncopated,b,s2,rule,rule,L2,z,0.043,4.0,1.0,0.2191,3 ,2.0,Castellano,1.0,Catalán,1.0,Inglés,3.0,3.0,2.0,yes,yes,yes,Piano,14,,,. ,68.0,yes
83,2024-03-03_12h22.01.291,Unsyncopated_study3,s132,20.0,feminino,right,España,Castellano y Catalán,Upper secondary,no,no,A,1,when,L1,unsyncopated,when,when,83,Online_whenL1//c.ro21.none.wav,ni,ta,ki,sil,fo,lu,cho,sil1,la,ne,sil2,['-'],,,none,none,,,,ro,3,testConjL2Syn//r2.s2.2.wav,4.0,conjunction_syn,syncopated,b,s2,rule,rule,L2,m,1.3545,2.0,0.0,0.1048,3 ,2.0,Castellano,1.0,Catalán,1.0,Inglés,3.0,3.0,2.0,yes,yes,yes,Piano,14,,,. ,68.0,yes
84,2024-03-03_12h22.01.291,Unsyncopated_study3,s132,20.0,feminino,right,España,Castellano y Catalán,Upper secondary,no,no,A,1,when,L1,unsyncopated,when,when,84,Online_whenL1//b.ta29.none.wav,ri,ki,cho,sil,lu,zu,ze,sil1,fo,pu,sil2,['-'],,,none,none,,,,ta,1,testConjL2Syn//cat_viol.r2.s1.0.wav,4.0,conjunction_syn,syncopated,b,s1,no_rule,cat,L2,z,0.4239,3.0,0.0,0.2092,3 ,2.0,Castellano,1.0,Catalán,1.0,Inglés,3.0,3.0,2.0,yes,yes,yes,Piano,14,,,. ,68.0,yes
85,2024-03-03_12h22.01.291,Unsyncopated_study3,s132,20.0,feminino,right,España,Castellano y Catalán,Upper secondary,no,no,A,1,when,L1,unsyncopated,when,when,85,Online_whenL1//b.ta30.444.wav,lu,ze,ta,sil,ne,ni,fo,sil1,la,be,sil2,['catch'],[1.020099999994045],[1.020099999994045],0.444,no_beat,0.576099999994045,0.576099999994045,"[""space""]",ta,1,testConjL2Syn//r2.s1.0.wav,4.0,conjunction_syn,syncopated,b,s1,rule,rule,L2,z,0.6575,3.0,1.0,0.1844,3 ,2.0,Castellano,1.0,Catalán,1.0,Inglés,3.0,3.0,2.0,yes,yes,yes,Piano,14,,,. ,68.0,yes
86,2024-03-03_12h22.01.291,Unsyncopated_study3,s132,20.0,feminino,right,España,Castellano y Catalán,Upper secondary,no,no,A,1,when,L1,unsyncopated,when,when,86,Online_whenL1//b.ta31.none.wav,pu,lu,zu,sil,cho,la,ki,sil1,fa,ro,sil2,['-'],,,none,none,,,,ta,1,testConjL2Syn//cat_viol.r1.s2.0.wav,4.0,conjunction_syn,syncopated,a,s2,no_rule,cat,L2,m,0.3181,3.0,1.0,0.2179,3 ,2.0,Castellano,1.0,Catalán,1.0,Inglés,3.0,3.0,2.0,yes,yes,yes,Piano,14,,,. ,68.0,yes
87,2024-03-03_12h22.01.291,Unsyncopated_study3,s132,20.0,feminino,right,España,Castellano y Catalán,Upper secondary,no,no,A,1,when,L1,unsyncopated,when,when,87,Online_whenL1//b.ta28.222.wav,la,ta,lu,sil,fo,ni,ro,sil1,ki,cho,sil2,['miss'],,,0.222,no_beat,,,,ta,1,testConjL2Syn//r1.s1.0.wav,4.0,conjunction_syn,syncopated,a,s1,rule,rule,L2,m,2.5026,2.0,0.0,0.0744,3 ,2.0,Castellano,1.0,Catalán,1.0,Inglés,3.0,3.0,2.0,yes,yes,yes,Piano,14,,,. ,68.0,yes
88,2024-03-03_12h22.01.291,Unsyncopated_study3,s132,20.0,feminino,right,España,Castellano y Catalán,Upper secondary,no,no,A,1,when,L1,unsyncopated,when,when,88,Online_whenL1//a.ki31.0.wav,ki,ze,cho,sil,ri,lu,ta,sil1,ro,fa,sil2,['catch'],[0.857100000008927],[0.857100000008927],0.0,beat,0.857100000008927,0.857100000008927,"[""space""]",ki,2,testConjL2Syn//dep_viol.r1.s2.0.wav,4.0,conjunction_syn,syncopated,a,s2,no_rule,dep,L2,m,1.1089,2.0,1.0,0.2248,3 ,2.0,Castellano,1.0,Catalán,1.0,Inglés,3.0,3.0,2.0,yes,yes,yes,Piano,14,,,. ,68.0,yes
89,2024-03-03_12h22.01.291,Unsyncopated_study3,s132,20.0,feminino,right,España,Castellano y Catalán,Upper secondary,no,no,A,1,when,L1,unsyncopated,when,when,89,Online_whenL1//a.ki28.1998.wav,la,fa,ze,sil,zu,ta,ri,sil1,ni,ki,sil2,['miss'],,,1.998,no_beat,,,,ki,2,testConjL2Syn//r2.s2.0.wav,4.0,conjunction_syn,syncopated,b,s2,rule,rule,L2,z,0.4005,2.0,1.0,0.2238,3 ,2.0,Castellano,1.0,Catalán,1.0,Inglés,3.0,3.0,2.0,yes,yes,yes,Piano,14,,,. ,68.0,yes
90,2024-03-03_12h22.01.291,Unsyncopated_study3,s132,20.0,feminino,right,España,Castellano y Catalán,Upper secondary,no,no,A,1,when,L1,unsyncopated,when,when,90,Online_whenL1//a.ki30.none.wav,ta,fa,ze,sil,pu,ne,fo,sil1,ni,zu,sil2,['-'],,,none,none,,,,ki,2,testConjL2Syn//r2.s1.1.wav,4.0,conjunction_syn,syncopated,b,s1,rule,rule,L2,z,0.3676,3.0,1.0,0.243,3 ,2.0,Castellano,1.0,Catalán,1.0,Inglés,3.0,3.0,2.0,yes,yes,yes,Piano,14,,,. ,68.0,yes
91,2024-03-03_12h22.01.291,Unsyncopated_study3,s132,20.0,feminino,right,España,Castellano y Catalán,Upper secondary,no,no,A,1,when,L1,unsyncopated,when,when,91,Online_whenL1//a.ki29.none.wav,be,fa,ta,sil,zu,lu,ze,sil1,ri,ro,sil2,['-'],,,none,none,,,,ki,2,testConjL2Syn//dep_viol.r1.s1.0.wav,4.0,conjunction_syn,syncopated,a,s1,no_rule,dep,L2,m,0.3031,4.0,1.0,0.1979,3 ,2.0,Castellano,1.0,Catalán,1.0,Inglés,3.0,3.0,2.0,yes,yes,yes,Piano,14,,,. ,68.0,yes
92,2024-03-03_12h22.01.291,Unsyncopated_study3,s132,20.0,feminino,right,España,Castellano y Catalán,Upper secondary,no,no,A,1,when,L1,unsyncopated,when,when,92,Online_whenL1//a.ki2.none.wav,zu,ne,ta,sil,ri,be,ni,sil1,fo,lu,sil2,['false alarm'],[0.6577000000030466],[0.6577000000030466],none,none,,,"[""space""]",ki,2,testConjL2Syn//cat_viol.r1.s1.0.wav,4.0,conjunction_syn,syncopated,a,s1,no_rule,cat,L2,m,0.1148,3.0,1.0,0.2075,3 ,2.0,Castellano,1.0,Catalán,1.0,Inglés,3.0,3.0,2.0,yes,yes,yes,Piano,14,,,. ,68.0,yes
93,2024-03-03_12h22.01.291,Unsyncopated_study3,s132,20.0,feminino,right,España,Castellano y Catalán,Upper secondary,no,no,A,1,when,L1,unsyncopated,when,when,93,Online_whenL1//a.ki0.none.wav,zu,ta,ri,sil,ro,ne,cho,sil1,pu,la,sil2,['-'],,,none,none,,,,ki,2,testConjL2Syn//r1.s2.2.wav,4.0,conjunction_syn,syncopated,a,s2,rule,rule,L2,m,0.1898,3.0,0.0,0.1521,3 ,2.0,Castellano,1.0,Catalán,1.0,Inglés,3.0,3.0,2.0,yes,yes,yes,Piano,14,,,. ,68.0,yes
94,2024-03-03_12h22.01.291,Unsyncopated_study3,s132,20.0,feminino,right,España,Castellano y Catalán,Upper secondary,no,no,A,1,when,L1,unsyncopated,when,when,94,Online_whenL1//a.ki3.1110.wav,ri,ni,fa,sil,cho,ki,ze,sil1,fo,ta,sil2,['miss'],,,1.11,no_beat,,,,ki,2,testConjL2Syn//time_viol.r1.s1.0.wav,4.0,conjunction_syn,syncopated,a,s1,no_rule,time,L2,m,0.102,2.0,1.0,0.1512,3 ,2.0,Castellano,1.0,Catalán,1.0,Inglés,3.0,3.0,2.0,yes,yes,yes,Piano,14,,,. ,68.0,yes
95,2024-03-03_12h22.01.291,Unsyncopated_study3,s132,20.0,feminino,right,España,Castellano y Catalán,Upper secondary,no,no,A,1,when,L1,unsyncopated,when,when,95,Online_whenL1//a.ki1.1776.wav,zu,ri,ni,sil,ne,be,ro,sil1,ki,fa,sil2,['catch'],[2.4266999999880454],[2.4266999999880454],1.776,beat,0.6506999999880454,0.6506999999880454,"[""space""]",ki,2,testConjL2Syn//cat_viol.r2.s2.0.wav,4.0,conjunction_syn,syncopated,b,s2,no_rule,cat,L2,z,0.1868,2.0,0.0,0.1689,3 ,2.0,Castellano,1.0,Catalán,1.0,Inglés,3.0,3.0,2.0,yes,yes,yes,Piano,14,,,. ,68.0,yes
96,2024-03-03_12h22.01.291,Unsyncopated_study3,s132,20.0,feminino,right,España,Castellano y Catalán,Upper secondary,no,no,A,1,when,L1,unsyncopated,when,when,96,Online_whenL1//a.ki27.none.wav,fa,fo,cho,sil,ze,ri,ta,sil1,pu,zu,sil2,['-'],,,none,none,,,,ki,2,,,,,,,,,,,,,,,3 ,2.0,Castellano,1.0,Catalán,1.0,Inglés,3.0,3.0,2.0,yes,yes,yes,Piano,14,,,. ,68.0,yes
97,2024-03-03_12h22.01.291,Unsyncopated_study3,s132,20.0,feminino,right,España,Castellano y Catalán,Upper secondary,no,no,A,1,when,L1,unsyncopated,when,when,97,Online_whenL1//a.ki24.none.wav,cho,ze,ni,sil,zu,la,ri,sil1,be,pu,sil2,['-'],,,none,none,,,,ki,2,,,,,,,,,,,,,,,3 ,2.0,Castellano,1.0,Catalán,1.0,Inglés,3.0,3.0,2.0,yes,yes,yes,Piano,14,,,. ,68.0,yes
98,2024-03-03_12h22.01.291,Unsyncopated_study3,s132,20.0,feminino,right,España,Castellano y Catalán,Upper secondary,no,no,A,1,when,L1,unsyncopated,when,when,98,Online_whenL1//a.ki25.none.wav,pu,lu,ni,sil,ro,ne,zu,sil1,la,ta,sil2,['-'],,,none,none,,,,ki,2,,,,,,,,,,,,,,,3 ,2.0,Castellano,1.0,Catalán,1.0,Inglés,3.0,3.0,2.0,yes,yes,yes,Piano,14,,,. ,68.0,yes
99,2024-03-03_12h22.01.291,Unsyncopated_study3,s132,20.0,feminino,right,España,Castellano y Catalán,Upper secondary,no,no,A,1,when,L1,unsyncopated,when,when,99,Online_whenL1//a.ki26.none.wav,fo,be,ne,sil,ta,ze,ri,sil1,la,cho,sil2,['-'],,,none,none,,,,ki,2,,,,,,,,,,,,,,,3 ,2.0,Castellano,1.0,Catalán,1.0,Inglés,3.0,3.0,2.0,yes,yes,yes,Piano,14,,,. ,68.0,yes
100,2024-03-03_12h22.01.291,Unsyncopated_study3,s132,20.0,feminino,right,España,Castellano y Catalán,Upper secondary,no,no,A,1,when,L1,unsyncopated,when,when,100,Online_whenL1//c.ro13.none.wav,ne,lu,be,sil,fo,ki,ri,sil1,ni,cho,sil2,['false alarm'],[2.471499999999992],[2.471499999999992],none,none,,,"[""space""]",ro,3,,,,,,,,,,,,,,,3 ,2.0,Castellano,1.0,Catalán,1.0,Inglés,3.0,3.0,2.0,yes,yes,yes,Piano,14,,,. ,68.0,yes
101,2024-03-03_12h22.01.291,Unsyncopated_study3,s132,20.0,feminino,right,España,Castellano y Catalán,Upper secondary,no,no,A,1,when,L1,unsyncopated,when,when,101,Online_whenL1//c.ro14.none.wav,zu,ki,fa,sil,pu,ni,lu,sil1,fo,la,sil2,['-'],,,none,none,,,,ro,3,,,,,,,,,,,,,,,3 ,2.0,Castellano,1.0,Catalán,1.0,Inglés,3.0,3.0,2.0,yes,yes,yes,Piano,14,,,. ,68.0,yes
102,2024-03-03_12h22.01.291,Unsyncopated_study3,s132,20.0,feminino,right,España,Castellano y Catalán,Upper secondary,no,no,A,1,when,L1,unsyncopated,when,when,102,Online_whenL1//c.ro15.0.wav,ro,ne,zu,sil,la,ri,pu,sil1,ki,ni,sil2,['catch'],[2.272700000002942],[2.272700000002942],0.0,beat,,2.272700000002942,"[""space""]",ro,3,,,,,,,,,,,,,,,3 ,2.0,Castellano,1.0,Catalán,1.0,Inglés,3.0,3.0,2.0,yes,yes,yes,Piano,14,,,. ,68.0,yes
103,2024-03-03_12h22.01.291,Unsyncopated_study3,s132,20.0,feminino,right,España,Castellano y Catalán,Upper secondary,no,no,A,1,when,L1,unsyncopated,when,when,103,Online_whenL1//c.ro12.444.wav,fa,la,ro,sil,ze,be,ki,sil1,fo,ni,sil2,['miss'],,,0.444,no_beat,,,,ro,3,,,,,,,,,,,,,,,3 ,2.0,Castellano,1.0,Catalán,1.0,Inglés,3.0,3.0,2.0,yes,yes,yes,Piano,14,,,. ,68.0,yes
104,2024-03-03_12h22.01.291,Unsyncopated_study3,s132,20.0,feminino,right,España,Castellano y Catalán,Upper secondary,no,no,A,1,when,L1,unsyncopated,when,when,104,Online_whenL1//b.ta18.0.wav,ta,ze,zu,sil,ri,ro,lu,sil1,pu,la,sil2,['miss'],,,0.0,beat,,,,ta,1,,,,,,,,,,,,,,,3 ,2.0,Castellano,1.0,Catalán,1.0,Inglés,3.0,3.0,2.0,yes,yes,yes,Piano,14,,,. ,68.0,yes
105,2024-03-03_12h22.01.291,Unsyncopated_study3,s132,20.0,feminino,right,España,Castellano y Catalán,Upper secondary,no,no,A,1,when,L1,unsyncopated,when,when,105,Online_whenL1//b.ta17.none.wav,ni,fo,zu,sil,be,ki,ze,sil1,ro,ri,sil2,['-'],,,none,none,,,,ta,1,,,,,,,,,,,,,,,3 ,2.0,Castellano,1.0,Catalán,1.0,Inglés,3.0,3.0,2.0,yes,yes,yes,Piano,14,,,. ,68.0,yes
106,2024-03-03_12h22.01.291,Unsyncopated_study3,s132,20.0,feminino,right,España,Castellano y Catalán,Upper secondary,no,no,A,1,when,L1,unsyncopated,when,when,106,Online_whenL1//b.ta16.none.wav,ni,pu,fa,sil,ne,ki,cho,sil1,fo,ro,sil2,['-'],,,none,none,,,,ta,1,,,,,,,,,,,,,,,3 ,2.0,Castellano,1.0,Catalán,1.0,Inglés,3.0,3.0,2.0,yes,yes,yes,Piano,14,,,. ,68.0,yes
107,2024-03-03_12h22.01.291,Unsyncopated_study3,s132,20.0,feminino,right,España,Castellano y Catalán,Upper secondary,no,no,A,1,when,L1,unsyncopated,when,when,107,Online_whenL1//b.ta19.none.wav,pu,fa,lu,sil,fo,cho,la,sil1,be,ri,sil2,['-'],,,none,none,,,,ta,1,,,,,,,,,,,,,,,3 ,2.0,Castellano,1.0,Catalán,1.0,Inglés,3.0,3.0,2.0,yes,yes,yes,Piano,14,,,. ,68.0,yes
108,2024-03-03_12h22.01.291,Unsyncopated_study3,s132,20.0,feminino,right,España,Castellano y Catalán,Upper secondary,no,no,A,1,when,L1,unsyncopated,when,when,108,Online_whenL1//d.ne16.1776.wav,cho,fo,ri,sil,lu,pu,zu,sil1,ne,be,sil2,['catch_delay'],[1.0094999999999692],[1.0094999999999692],1.776,beat,1.0094999999999692,1.0094999999999692,,ne,4,,,,,,,,,,,,,,,3 ,2.0,Castellano,1.0,Catalán,1.0,Inglés,3.0,3.0,2.0,yes,yes,yes,Piano,14,,,. ,68.0,yes
109,2024-03-03_12h22.01.291,Unsyncopated_study3,s132,20.0,feminino,right,España,Castellano y Catalán,Upper secondary,no,no,A,1,when,L1,unsyncopated,when,when,109,Online_whenL1//d.ne19.222.wav,ri,ne,ni,sil,cho,be,zu,sil1,pu,fa,sil2,['miss'],[0.12149999999996908],[0.12149999999996908],0.222,no_beat,,,"[""space""]",ne,4,,,,,,,,,,,,,,,3 ,2.0,Castellano,1.0,Catalán,1.0,Inglés,3.0,3.0,2.0,yes,yes,yes,Piano,14,,,. ,68.0,yes
110,2024-03-03_12h22.01.291,Unsyncopated_study3,s132,20.0,feminino,right,España,Castellano y Catalán,Upper secondary,no,no,A,1,when,L1,unsyncopated,when,when,110,Online_whenL1//d.ne18.1998.wav,fo,ri,be,sil,ki,ze,la,sil1,lu,ne,sil2,['miss'],,,1.998,no_beat,,,,ne,4,,,,,,,,,,,,,,,3 ,2.0,Castellano,1.0,Catalán,1.0,Inglés,3.0,3.0,2.0,yes,yes,yes,Piano,14,,,. ,68.0,yes
111,2024-03-03_12h22.01.291,Unsyncopated_study3,s132,20.0,feminino,right,España,Castellano y Catalán,Upper secondary,no,no,A,1,when,L1,unsyncopated,when,when,111,Online_whenL1//d.ne17.none.wav,fa,cho,ki,sil,la,ta,lu,sil1,fo,ni,sil2,['-'],,,none,none,,,,ne,4,,,,,,,,,,,,,,,3 ,2.0,Castellano,1.0,Catalán,1.0,Inglés,3.0,3.0,2.0,yes,yes,yes,Piano,14,,,. ,68.0,yes
112,2024-03-03_12h22.01.291,Unsyncopated_study3,s132,20.0,feminino,right,España,Castellano y Catalán,Upper secondary,no,no,A,1,when,L1,unsyncopated,when,when,112,Online_whenL1//d.ne12.888.wav,fo,be,zu,sil,ne,ro,ze,sil1,ni,ta,sil2,['miss'],,,0.888,beat,,,,ne,4,,,,,,,,,,,,,,,3 ,2.0,Castellano,1.0,Catalán,1.0,Inglés,3.0,3.0,2.0,yes,yes,yes,Piano,14,,,. ,68.0,yes
113,2024-03-03_12h22.01.291,Unsyncopated_study3,s132,20.0,feminino,right,España,Castellano y Catalán,Upper secondary,no,no,A,1,when,L1,unsyncopated,when,when,113,Online_whenL1//d.ne13.none.wav,ro,cho,fa,sil,lu,ki,ze,sil1,be,fo,sil2,['-'],,,none,none,,,,ne,4,,,,,,,,,,,,,,,3 ,2.0,Castellano,1.0,Catalán,1.0,Inglés,3.0,3.0,2.0,yes,yes,yes,Piano,14,,,. ,68.0,yes
114,2024-03-03_12h22.01.291,Unsyncopated_study3,s132,20.0,feminino,right,España,Castellano y Catalán,Upper secondary,no,no,A,1,when,L1,unsyncopated,when,when,114,Online_whenL1//d.ne15.444.wav,be,la,ne,sil,fo,pu,ro,sil1,fa,lu,sil2,['miss'],,,0.444,no_beat,,,,ne,4,,,,,,,,,,,,,,,3 ,2.0,Castellano,1.0,Catalán,1.0,Inglés,3.0,3.0,2.0,yes,yes,yes,Piano,14,,,. ,68.0,yes
115,2024-03-03_12h22.01.291,Unsyncopated_study3,s132,20.0,feminino,right,España,Castellano y Catalán,Upper secondary,no,no,A,1,when,L1,unsyncopated,when,when,115,Online_whenL1//d.ne14.none.wav,ro,lu,cho,sil,ni,pu,ri,sil1,be,zu,sil2,['-'],,,none,none,,,,ne,4,,,,,,,,,,,,,,,3 ,2.0,Castellano,1.0,Catalán,1.0,Inglés,3.0,3.0,2.0,yes,yes,yes,Piano,14,,,. ,68.0,yes
116,2024-03-03_12h22.01.291,Unsyncopated_study3,s132,20.0,feminino,right,España,Castellano y Catalán,Upper secondary,no,no,A,1,when,L1,unsyncopated,when,when,116,Online_whenL1//d.ne26.none.wav,fo,lu,be,sil,ro,ta,ri,sil1,fa,ni,sil2,['-'],,,none,none,,,,ne,4,,,,,,,,,,,,,,,3 ,2.0,Castellano,1.0,Catalán,1.0,Inglés,3.0,3.0,2.0,yes,yes,yes,Piano,14,,,. ,68.0,yes
117,2024-03-03_12h22.01.291,Unsyncopated_study3,s132,20.0,feminino,right,España,Castellano y Catalán,Upper secondary,no,no,A,1,when,L1,unsyncopated,when,when,117,Online_whenL1//d.ne25.none.wav,lu,la,ri,sil,ta,ni,zu,sil1,ze,ki,sil2,['-'],,,none,none,,,,ne,4,,,,,,,,,,,,,,,3 ,2.0,Castellano,1.0,Catalán,1.0,Inglés,3.0,3.0,2.0,yes,yes,yes,Piano,14,,,. ,68.0,yes
118,2024-03-03_12h22.01.291,Unsyncopated_study3,s132,20.0,feminino,right,España,Castellano y Catalán,Upper secondary,no,no,A,1,when,L1,unsyncopated,when,when,118,Online_whenL1//d.ne27.none.wav,ta,zu,ni,sil,lu,ri,fa,sil1,fo,be,sil2,['-'],,,none,none,,,,ne,4,,,,,,,,,,,,,,,3 ,2.0,Castellano,1.0,Catalán,1.0,Inglés,3.0,3.0,2.0,yes,yes,yes,Piano,14,,,. ,68.0,yes
119,2024-03-03_12h22.01.291,Unsyncopated_study3,s132,20.0,feminino,right,España,Castellano y Catalán,Upper secondary,no,no,A,1,when,L1,unsyncopated,when,when,119,Online_whenL1//d.ne24.none.wav,ri,ze,cho,sil,pu,lu,fo,sil1,ki,ni,sil2,['-'],,,none,none,,,,ne,4,,,,,,,,,,,,,,,3 ,2.0,Castellano,1.0,Catalán,1.0,Inglés,3.0,3.0,2.0,yes,yes,yes,Piano,14,,,. ,68.0,yes
120,2024-03-03_12h22.01.291,Unsyncopated_study3,s132,20.0,feminino,right,España,Castellano y Catalán,Upper secondary,no,no,A,1,when,L1,unsyncopated,when,when,120,Online_whenL1//b.ta23.none.wav,ni,fo,ri,sil,ki,la,be,sil1,ze,ne,sil2,['-'],,,none,none,,,,ta,1,,,,,,,,,,,,,,,3 ,2.0,Castellano,1.0,Catalán,1.0,Inglés,3.0,3.0,2.0,yes,yes,yes,Piano,14,,,. ,68.0,yes
121,2024-03-03_12h22.01.291,Unsyncopated_study3,s132,20.0,feminino,right,España,Castellano y Catalán,Upper secondary,no,no,A,1,when,L1,unsyncopated,when,when,121,Online_whenL1//b.ta22.none.wav,be,ri,fo,sil,ne,ki,zu,sil1,fa,lu,sil2,['-'],,,none,none,,,,ta,1,,,,,,,,,,,,,,,3 ,2.0,Castellano,1.0,Catalán,1.0,Inglés,3.0,3.0,2.0,yes,yes,yes,Piano,14,,,. ,68.0,yes
122,2024-03-03_12h22.01.291,Unsyncopated_study3,s132,20.0,feminino,right,España,Castellano y Catalán,Upper secondary,no,no,A,1,when,L1,unsyncopated,when,when,122,Online_whenL1//b.ta21.1998.wav,fa,be,la,sil,zu,cho,fo,sil1,ni,ta,sil2,['catch'],[2.5526000000089653],[2.5526000000089653],1.998,no_beat,0.5546000000089653,0.5546000000089653,"[""space""]",ta,1,,,,,,,,,,,,,,,3 ,2.0,Castellano,1.0,Catalán,1.0,Inglés,3.0,3.0,2.0,yes,yes,yes,Piano,14,,,. ,68.0,yes
123,2024-03-03_12h22.01.291,Unsyncopated_study3,s132,20.0,feminino,right,España,Castellano y Catalán,Upper secondary,no,no,A,1,when,L1,unsyncopated,when,when,123,Online_whenL1//b.ta20.1110.wav,zu,lu,fo,sil,ki,ta,ne,sil1,ri,la,sil2,['miss'],,,1.11,no_beat,,,,ta,1,,,,,,,,,,,,,,,3 ,2.0,Castellano,1.0,Catalán,1.0,Inglés,3.0,3.0,2.0,yes,yes,yes,Piano,14,,,. ,68.0,yes
124,2024-03-03_12h22.01.291,Unsyncopated_study3,s132,20.0,feminino,right,España,Castellano y Catalán,Upper secondary,no,no,A,1,when,L1,unsyncopated,when,when,124,Online_whenL1//d.ne30.888.wav,cho,ta,la,sil,ne,zu,fa,sil1,be,ri,sil2,['catch'],[1.683999999999969],[1.683999999999969],0.888,beat,0.7959999999999691,0.7959999999999691,"[""space""]",ne,4,,,,,,,,,,,,,,,3 ,2.0,Castellano,1.0,Catalán,1.0,Inglés,3.0,3.0,2.0,yes,yes,yes,Piano,14,,,. ,68.0,yes
125,2024-03-03_12h22.01.291,Unsyncopated_study3,s132,20.0,feminino,right,España,Castellano y Catalán,Upper secondary,no,no,A,1,when,L1,unsyncopated,when,when,125,Online_whenL1//d.ne31.1998.wav,ni,ta,la,sil,be,ze,lu,sil1,fa,ne,sil2,['miss'],,,1.998,no_beat,,,,ne,4,,,,,,,,,,,,,,,3 ,2.0,Castellano,1.0,Catalán,1.0,Inglés,3.0,3.0,2.0,yes,yes,yes,Piano,14,,,. ,68.0,yes
126,2024-03-03_12h22.01.291,Unsyncopated_study3,s132,20.0,feminino,right,España,Castellano y Catalán,Upper secondary,no,no,A,1,when,L1,unsyncopated,when,when,126,Online_whenL1//d.ne28.1332.wav,ta,ze,cho,sil,ro,zu,ne,sil1,ki,ri,sil2,['catch'],[1.9055999999941378],[1.9055999999941378],1.332,no_beat,0.5735999999941377,0.5735999999941377,"[""space""]",ne,4,,,,,,,,,,,,,,,3 ,2.0,Castellano,1.0,Catalán,1.0,Inglés,3.0,3.0,2.0,yes,yes,yes,Piano,14,,,. ,68.0,yes
127,2024-03-03_12h22.01.291,Unsyncopated_study3,s132,20.0,feminino,right,España,Castellano y Catalán,Upper secondary,no,no,A,1,when,L1,unsyncopated,when,when,127,Online_whenL1//d.ne29.444.wav,lu,ri,ne,sil,zu,la,ze,sil1,pu,ki,sil2,['miss'],,,0.444,no_beat,,,,ne,4,,,,,,,,,,,,,,,3 ,2.0,Castellano,1.0,Catalán,1.0,Inglés,3.0,3.0,2.0,yes,yes,yes,Piano,14,,,. ,68.0,yes
128,2024-03-03_12h22.01.291,Unsyncopated_study3,s132,20.0,feminino,right,España,Castellano y Catalán,Upper secondary,no,no,A,1,when,L1,unsyncopated,when,when,128,Online_whenL1//d.ne6.444.wav,fo,pu,ne,sil,cho,ro,lu,sil1,ki,zu,sil2,['miss'],,,0.444,no_beat,,,,ne,4,,,,,,,,,,,,,,,3 ,2.0,Castellano,1.0,Catalán,1.0,Inglés,3.0,3.0,2.0,yes,yes,yes,Piano,14,,,. ,68.0,yes
129,2024-03-03_12h22.01.291,Unsyncopated_study3,s132,20.0,feminino,right,España,Castellano y Catalán,Upper secondary,no,no,A,1,when,L1,unsyncopated,when,when,129,Online_whenL1//d.ne5.none.wav,zu,ta,lu,sil,la,ni,ri,sil1,fa,be,sil2,['false alarm'],[0.5857999999971071],[0.5857999999971071],none,none,,,"[""space""]",ne,4,,,,,,,,,,,,,,,3 ,2.0,Castellano,1.0,Catalán,1.0,Inglés,3.0,3.0,2.0,yes,yes,yes,Piano,14,,,. ,68.0,yes
130,2024-03-03_12h22.01.291,Unsyncopated_study3,s132,20.0,feminino,right,España,Castellano y Catalán,Upper secondary,no,no,A,1,when,L1,unsyncopated,when,when,130,Online_whenL1//d.ne7.none.wav,ri,lu,ki,sil,zu,ni,ta,sil1,cho,ro,sil2,['-'],,,none,none,,,,ne,4,,,,,,,,,,,,,,,3 ,2.0,Castellano,1.0,Catalán,1.0,Inglés,3.0,3.0,2.0,yes,yes,yes,Piano,14,,,. ,68.0,yes
131,2024-03-03_12h22.01.291,Unsyncopated_study3,s132,20.0,feminino,right,España,Castellano y Catalán,Upper secondary,no,no,A,1,when,L1,unsyncopated,when,when,131,Online_whenL1//d.ne4.1998.wav,fo,ki,ta,sil,ri,cho,zu,sil1,ni,ne,sil2,['miss'],,,1.998,no_beat,,,,ne,4,,,,,,,,,,,,,,,3 ,2.0,Castellano,1.0,Catalán,1.0,Inglés,3.0,3.0,2.0,yes,yes,yes,Piano,14,,,. ,68.0,yes
132,2024-03-03_12h22.01.291,Unsyncopated_study3,s132,20.0,feminino,right,España,Castellano y Catalán,Upper secondary,no,no,A,1,when,L1,unsyncopated,when,when,132,Online_whenL1//a.ki20.0.wav,ki,ne,zu,sil,ri,ni,cho,sil1,lu,pu,sil2,"['catch', 'false alarm']","[0.013200000002939305, 1.0185999999940805]",[0.013200000002939305],0.0,beat,0.0132000000029393,0.0132000000029393,"[""space"",""space""]",ki,2,,,,,,,,,,,,,,,3 ,2.0,Castellano,1.0,Catalán,1.0,Inglés,3.0,3.0,2.0,yes,yes,yes,Piano,14,,,. ,68.0,yes
133,2024-03-03_12h22.01.291,Unsyncopated_study3,s132,20.0,feminino,right,España,Castellano y Catalán,Upper secondary,no,no,A,1,when,L1,unsyncopated,when,when,133,Online_whenL1//a.ki22.444.wav,zu,pu,ki,sil,ze,cho,ne,sil1,ni,ro,sil2,['miss'],,,0.444,no_beat,,,,ki,2,,,,,,,,,,,,,,,3 ,2.0,Castellano,1.0,Catalán,1.0,Inglés,3.0,3.0,2.0,yes,yes,yes,Piano,14,,,. ,68.0,yes
134,2024-03-03_12h22.01.291,Unsyncopated_study3,s132,20.0,feminino,right,España,Castellano y Catalán,Upper secondary,no,no,A,1,when,L1,unsyncopated,when,when,134,Online_whenL1//a.ki21.0.wav,ki,ni,cho,sil,fo,ri,lu,sil1,ze,be,sil2,['miss'],,,0.0,beat,,,,ki,2,,,,,,,,,,,,,,,3 ,2.0,Castellano,1.0,Catalán,1.0,Inglés,3.0,3.0,2.0,yes,yes,yes,Piano,14,,,. ,68.0,yes
135,2024-03-03_12h22.01.291,Unsyncopated_study3,s132,20.0,feminino,right,España,Castellano y Catalán,Upper secondary,no,no,A,1,when,L1,unsyncopated,when,when,135,Online_whenL1//a.ki23.1110.wav,be,ri,zu,sil,ro,ki,ni,sil1,la,ne,sil2,['catch'],[1.7706000000089261],[1.7706000000089261],1.11,no_beat,0.660600000008926,0.660600000008926,"[""space""]",ki,2,,,,,,,,,,,,,,,3 ,2.0,Castellano,1.0,Catalán,1.0,Inglés,3.0,3.0,2.0,yes,yes,yes,Piano,14,,,. ,68.0,yes
136,2024-03-03_12h22.01.291,Unsyncopated_study3,s132,20.0,feminino,right,España,Castellano y Catalán,Upper secondary,no,no,A,2,what,L4,unsyncopated,s2,r2,0,Online_whatL4//a.zi.lo9.none.none.wav,pe,bu,ñi,sil2,ja,re,de,sil,nu,ña,sil1,['-'],,,none,none,,,,lo,2,,,,,,,,,,,,,,,3 ,2.0,Castellano,1.0,Catalán,1.0,Inglés,3.0,3.0,2.0,yes,yes,yes,Piano,14,,,. ,68.0,yes
137,2024-03-03_12h22.01.291,Unsyncopated_study3,s132,20.0,feminino,right,España,Castellano y Catalán,Upper secondary,no,no,A,2,what,L4,unsyncopated,s2,r1,1,Online_whatL4//a.zi.lo10.888.1776.wav,ña,ci,de,sil,zi,bu,re,sil1,lo,ñi,sil2,['miss'],,,1.776,beat,,,,lo,2,,,,,,,,,,,,,,,3 ,2.0,Castellano,1.0,Catalán,1.0,Inglés,3.0,3.0,2.0,yes,yes,yes,Piano,14,,,. ,68.0,yes
138,2024-03-03_12h22.01.291,Unsyncopated_study3,s132,20.0,feminino,right,España,Castellano y Catalán,Upper secondary,no,no,A,2,what,L4,unsyncopated,s1,r2,2,Online_whatL4//a.zi.lo8.none.none.wav,ja,bo,ña,sil2,nu,po,pe,sil,de,ñi,sil1,['false alarm'],[0.8372000000028947],[0.8372000000028947],none,none,,,"[""space""]",lo,2,,,,,,,,,,,,,,,3 ,2.0,Castellano,1.0,Catalán,1.0,Inglés,3.0,3.0,2.0,yes,yes,yes,Piano,14,,,. ,68.0,yes
139,2024-03-03_12h22.01.291,Unsyncopated_study3,s132,20.0,feminino,right,España,Castellano y Catalán,Upper secondary,no,no,A,2,what,L4,unsyncopated,s2,r2,3,Online_whatL4//a.zi.lo11.none.none.wav,ru,po,re,sil,ja,bo,ña,sil1,nu,de,sil2,['-'],,,none,none,,,,lo,2,,,,,,,,,,,,,,,3 ,2.0,Castellano,1.0,Catalán,1.0,Inglés,3.0,3.0,2.0,yes,yes,yes,Piano,14,,,. ,68.0,yes
140,2024-03-03_12h22.01.291,Unsyncopated_study3,s132,20.0,feminino,right,España,Castellano y Catalán,Upper secondary,no,no,A,2,what,L4,unsyncopated,s1,r2,4,Online_whatL4//b.ja.nu20.0.888.wav,ja,ñi,ci,sil,nu,bo,de,sil2,po,pe,sil1,['miss'],,,0.0,beat,,,,ja,1,,,,,,,,,,,,,,,3 ,2.0,Castellano,1.0,Catalán,1.0,Inglés,3.0,3.0,2.0,yes,yes,yes,Piano,14,,,. ,68.0,yes
141,2024-03-03_12h22.01.291,Unsyncopated_study3,s132,20.0,feminino,right,España,Castellano y Catalán,Upper secondary,no,no,A,2,what,L4,unsyncopated,s2,r2,5,Online_whatL4//b.ja.nu21.1110.1998.wav,po,da,ci,sil2,ja,bu,re,sil,nu,pe,sil1,['catch'],[1.829399999990983],[1.829399999990983],1.11,no_beat,0.7193999999909828,0.7193999999909828,"[""space""]",ja,1,,,,,,,,,,,,,,,3 ,2.0,Castellano,1.0,Catalán,1.0,Inglés,3.0,3.0,2.0,yes,yes,yes,Piano,14,,,. ,68.0,yes
142,2024-03-03_12h22.01.291,Unsyncopated_study3,s132,20.0,feminino,right,España,Castellano y Catalán,Upper secondary,no,no,A,2,what,L4,unsyncopated,s1,r1,6,Online_whatL4//b.ja.nu22.none.none.wav,zi,ñi,ci,sil,lo,da,pe,sil2,po,bo,sil1,['-'],,,none,none,,,,ja,1,,,,,,,,,,,,,,,3 ,2.0,Castellano,1.0,Catalán,1.0,Inglés,3.0,3.0,2.0,yes,yes,yes,Piano,14,,,. ,68.0,yes
143,2024-03-03_12h22.01.291,Unsyncopated_study3,s132,20.0,feminino,right,España,Castellano y Catalán,Upper secondary,no,no,A,2,what,L4,unsyncopated,s2,r2,7,Online_whatL4//b.ja.nu23.888.1776.wav,bo,ci,ña,sil,ja,de,ru,sil1,nu,pe,sil2,['miss'],,,0.888,beat,,,,ja,1,,,,,,,,,,,,,,,3 ,2.0,Castellano,1.0,Catalán,1.0,Inglés,3.0,3.0,2.0,yes,yes,yes,Piano,14,,,. ,68.0,yes
144,2024-03-03_12h22.01.291,Unsyncopated_study3,s132,20.0,feminino,right,España,Castellano y Catalán,Upper secondary,no,no,A,2,what,L4,unsyncopated,s1,r2,8,Online_whatL4//c.bu.da1.none.none.wav,ja,ña,ñi,sil2,nu,re,de,sil,ru,pe,sil1,['-'],,,none,none,,,,bu,3,,,,,,,,,,,,,,,3 ,2.0,Castellano,1.0,Catalán,1.0,Inglés,3.0,3.0,2.0,yes,yes,yes,Piano,14,,,. ,68.0,yes
145,2024-03-03_12h22.01.291,Unsyncopated_study3,s132,20.0,feminino,right,España,Castellano y Catalán,Upper secondary,no,no,A,2,what,L4,unsyncopated,s2,r1,9,Online_whatL4//c.bu.da2.1332.222.wav,de,da,po,sil,zi,ru,bu,sil2,lo,ña,sil1,['miss'],,,1.332,no_beat,,,,bu,3,,,,,,,,,,,,,,,3 ,2.0,Castellano,1.0,Catalán,1.0,Inglés,3.0,3.0,2.0,yes,yes,yes,Piano,14,,,. ,68.0,yes
146,2024-03-03_12h22.01.291,Unsyncopated_study3,s132,20.0,feminino,right,España,Castellano y Catalán,Upper secondary,no,no,A,2,what,L4,unsyncopated,s2,r1,10,Online_whatL4//c.bu.da3.none.none.wav,pe,po,bo,sil,zi,re,ña,sil1,lo,ru,sil2,['-'],,,none,none,,,,bu,3,,,,,,,,,,,,,,,3 ,2.0,Castellano,1.0,Catalán,1.0,Inglés,3.0,3.0,2.0,yes,yes,yes,Piano,14,,,. ,68.0,yes
147,2024-03-03_12h22.01.291,Unsyncopated_study3,s132,20.0,feminino,right,España,Castellano y Catalán,Upper secondary,no,no,A,2,what,L4,unsyncopated,s2,r2,11,Online_whatL4//c.bu.da0.444.1332.wav,re,de,bu,sil2,ja,da,bo,sil,nu,pe,sil1,['catch'],[1.9597000000028402],[1.9597000000028402],0.444,no_beat,,1.5157000000028402,"[""space""]",bu,3,,,,,,,,,,,,,,,3 ,2.0,Castellano,1.0,Catalán,1.0,Inglés,3.0,3.0,2.0,yes,yes,yes,Piano,14,,,. ,68.0,yes
148,2024-03-03_12h22.01.291,Unsyncopated_study3,s132,20.0,feminino,right,España,Castellano y Catalán,Upper secondary,no,no,A,2,what,L4,unsyncopated,s1,r2,12,Online_whatL4//c.bu.da19.1998.444.wav,ja,de,da,sil,nu,re,ci,sil2,bu,ña,sil1,['catch_delay'],[0.9214000000059206],[0.9214000000059206],1.998,no_beat,0.9214000000059206,0.9214000000059206,,bu,3,,,,,,,,,,,,,,,3 ,2.0,Castellano,1.0,Catalán,1.0,Inglés,3.0,3.0,2.0,yes,yes,yes,Piano,14,,,. ,68.0,yes
149,2024-03-03_12h22.01.291,Unsyncopated_study3,s132,20.0,feminino,right,España,Castellano y Catalán,Upper secondary,no,no,A,2,what,L4,unsyncopated,s2,r2,13,Online_whatL4//c.bu.da18.444.1332.wav,ña,pe,bu,sil2,ja,da,de,sil,nu,re,sil1,['miss'],[0.25540000000592045],[0.25540000000592045],0.444,no_beat,,,"[""space""]",bu,3,,,,,,,,,,,,,,,3 ,2.0,Castellano,1.0,Catalán,1.0,Inglés,3.0,3.0,2.0,yes,yes,yes,Piano,14,,,. ,68.0,yes
150,2024-03-03_12h22.01.291,Unsyncopated_study3,s132,20.0,feminino,right,España,Castellano y Catalán,Upper secondary,no,no,A,2,what,L4,unsyncopated,s2,r2,14,Online_whatL4//c.bu.da16.none.none.wav,re,de,po,sil,ja,ci,ru,sil2,nu,ña,sil1,['-'],,,none,none,,,,bu,3,,,,,,,,,,,,,,,3 ,2.0,Castellano,1.0,Catalán,1.0,Inglés,3.0,3.0,2.0,yes,yes,yes,Piano,14,,,. ,68.0,yes
151,2024-03-03_12h22.01.291,Unsyncopated_study3,s132,20.0,feminino,right,España,Castellano y Catalán,Upper secondary,no,no,A,2,what,L4,unsyncopated,s2,r1,15,Online_whatL4//c.bu.da17.none.none.wav,ña,po,pe,sil,zi,ñi,re,sil1,lo,bo,sil2,['false alarm'],[0.03779999999687789],[0.03779999999687789],none,none,,,"[""space""]",bu,3,,,,,,,,,,,,,,,3 ,2.0,Castellano,1.0,Catalán,1.0,Inglés,3.0,3.0,2.0,yes,yes,yes,Piano,14,,,. ,68.0,yes
152,2024-03-03_12h22.01.291,Unsyncopated_study3,s132,20.0,feminino,right,España,Castellano y Catalán,Upper secondary,no,no,A,2,what,L4,unsyncopated,s2,r2,16,Online_whatL4//d.pe.po16.none.none.wav,ci,bo,ña,sil2,ja,bu,da,sil,nu,ru,sil1,['-'],,,none,none,,,,pe,4,,,,,,,,,,,,,,,3 ,2.0,Castellano,1.0,Catalán,1.0,Inglés,3.0,3.0,2.0,yes,yes,yes,Piano,14,,,. ,68.0,yes
153,2024-03-03_12h22.01.291,Unsyncopated_study3,s132,20.0,feminino,right,España,Castellano y Catalán,Upper secondary,no,no,A,2,what,L4,unsyncopated,s2,r2,17,Online_whatL4//d.pe.po18.0.444.wav,pe,de,po,sil,ja,ña,ñi,sil1,nu,re,sil2,['miss'],,,0.0,beat,,,,pe,4,,,,,,,,,,,,,,,3 ,2.0,Castellano,1.0,Catalán,1.0,Inglés,3.0,3.0,2.0,yes,yes,yes,Piano,14,,,. ,68.0,yes
154,2024-03-03_12h22.01.291,Unsyncopated_study3,s132,20.0,feminino,right,España,Castellano y Catalán,Upper secondary,no,no,A,2,what,L4,unsyncopated,s1,r2,18,Online_whatL4//d.pe.po19.1776.222.wav,ja,po,re,sil,nu,ru,ña,sil1,pe,da,sil2,['miss'],,,1.776,beat,,,,pe,4,,,,,,,,,,,,,,,3 ,2.0,Castellano,1.0,Catalán,1.0,Inglés,3.0,3.0,2.0,yes,yes,yes,Piano,14,,,. ,68.0,yes
155,2024-03-03_12h22.01.291,Unsyncopated_study3,s132,20.0,feminino,right,España,Castellano y Catalán,Upper secondary,no,no,A,2,what,L4,unsyncopated,s1,r2,19,Online_whatL4//d.pe.po17.none.none.wav,ja,re,bo,sil,nu,ci,ru,sil1,ñi,da,sil2,['-'],,,none,none,,,,pe,4,,,,,,,,,,,,,,,3 ,2.0,Castellano,1.0,Catalán,1.0,Inglés,3.0,3.0,2.0,yes,yes,yes,Piano,14,,,. ,68.0,yes
156,2024-03-03_12h22.01.291,Unsyncopated_study3,s132,20.0,feminino,right,España,Castellano y Catalán,Upper secondary,no,no,A,2,what,L4,unsyncopated,s1,r1,20,Online_whatL4//c.bu.da6.1110.1332.wav,zi,ña,ci,sil,lo,bu,da,sil1,pe,ñi,sil2,['miss'],,,1.11,no_beat,,,,bu,3,,,,,,,,,,,,,,,3 ,2.0,Castellano,1.0,Catalán,1.0,Inglés,3.0,3.0,2.0,yes,yes,yes,Piano,14,,,. ,68.0,yes
157,2024-03-03_12h22.01.291,Unsyncopated_study3,s132,20.0,feminino,right,España,Castellano y Catalán,Upper secondary,no,no,A,2,what,L4,unsyncopated,s1,r2,21,Online_whatL4//c.bu.da5.none.none.wav,ja,ci,ña,sil2,nu,bo,de,sil,ñi,re,sil1,['-'],,,none,none,,,,bu,3,,,,,,,,,,,,,,,3 ,2.0,Castellano,1.0,Catalán,1.0,Inglés,3.0,3.0,2.0,yes,yes,yes,Piano,14,,,. ,68.0,yes
158,2024-03-03_12h22.01.291,Unsyncopated_study3,s132,20.0,feminino,right,España,Castellano y Catalán,Upper secondary,no,no,A,2,what,L4,unsyncopated,s1,r1,22,Online_whatL4//c.bu.da7.222.1332.wav,zi,bu,re,sil,lo,po,da,sil2,bo,ci,sil1,['catch'],[1.0061999999879845],[1.0061999999879845],0.222,no_beat,0.7841999999879845,0.7841999999879845,"[""space""]",bu,3,,,,,,,,,,,,,,,3 ,2.0,Castellano,1.0,Catalán,1.0,Inglés,3.0,3.0,2.0,yes,yes,yes,Piano,14,,,. ,68.0,yes
159,2024-03-03_12h22.01.291,Unsyncopated_study3,s132,20.0,feminino,right,España,Castellano y Catalán,Upper secondary,no,no,A,2,what,L4,unsyncopated,s1,r1,23,Online_whatL4//c.bu.da4.none.none.wav,zi,ru,de,sil2,lo,ci,po,sil,pe,bo,sil1,['false alarm'],[2.319500000000062],[2.319500000000062],none,none,,,"[""space""]",bu,3,,,,,,,,,,,,,,,3 ,2.0,Castellano,1.0,Catalán,1.0,Inglés,3.0,3.0,2.0,yes,yes,yes,Piano,14,,,. ,68.0,yes
160,2024-03-03_12h22.01.291,Unsyncopated_study3,s132,20.0,feminino,right,España,Castellano y Catalán,Upper secondary,no,no,A,2,what,L4,unsyncopated,s2,r1,24,Online_whatL4//c.bu.da14.222.444.wav,po,bu,da,sil,zi,pe,re,sil2,lo,ña,sil1,['miss'],,,0.222,no_beat,,,,bu,3,,,,,,,,,,,,,,,3 ,2.0,Castellano,1.0,Catalán,1.0,Inglés,3.0,3.0,2.0,yes,yes,yes,Piano,14,,,. ,68.0,yes
161,2024-03-03_12h22.01.291,Unsyncopated_study3,s132,20.0,feminino,right,España,Castellano y Catalán,Upper secondary,no,no,A,2,what,L4,unsyncopated,s1,r1,25,Online_whatL4//c.bu.da15.1110.222.wav,zi,da,ru,sil,lo,bu,bo,sil1,ñi,ci,sil2,['miss'],,,1.11,no_beat,,,,bu,3,,,,,,,,,,,,,,,3 ,2.0,Castellano,1.0,Catalán,1.0,Inglés,3.0,3.0,2.0,yes,yes,yes,Piano,14,,,. ,68.0,yes
162,2024-03-03_12h22.01.291,Unsyncopated_study3,s132,20.0,feminino,right,España,Castellano y Catalán,Upper secondary,no,no,A,2,what,L4,unsyncopated,s1,r2,26,Online_whatL4//c.bu.da13.1332.444.wav,ja,de,da,sil,nu,ci,bu,sil1,ña,po,sil2,['catch'],[1.961099999994076],[1.961099999994076],1.332,no_beat,0.6290999999940758,0.6290999999940758,"[""space""]",bu,3,,,,,,,,,,,,,,,3 ,2.0,Castellano,1.0,Catalán,1.0,Inglés,3.0,3.0,2.0,yes,yes,yes,Piano,14,,,. ,68.0,yes
163,2024-03-03_12h22.01.291,Unsyncopated_study3,s132,20.0,feminino,right,España,Castellano y Catalán,Upper secondary,no,no,A,2,what,L4,unsyncopated,s2,r2,27,Online_whatL4//c.bu.da12.none.none.wav,re,ñi,ña,sil,ja,po,bo,sil2,nu,de,sil1,['-'],,,none,none,,,,bu,3,,,,,,,,,,,,,,,3 ,2.0,Castellano,1.0,Catalán,1.0,Inglés,3.0,3.0,2.0,yes,yes,yes,Piano,14,,,. ,68.0,yes
164,2024-03-03_12h22.01.291,Unsyncopated_study3,s132,20.0,feminino,right,España,Castellano y Catalán,Upper secondary,no,no,A,2,what,L4,unsyncopated,s2,r1,28,Online_whatL4//d.pe.po1.none.none.wav,ña,ru,de,sil,zi,da,bo,sil1,lo,ñi,sil2,['-'],,,none,none,,,,pe,4,,,,,,,,,,,,,,,3 ,2.0,Castellano,1.0,Catalán,1.0,Inglés,3.0,3.0,2.0,yes,yes,yes,Piano,14,,,. ,68.0,yes
165,2024-03-03_12h22.01.291,Unsyncopated_study3,s132,20.0,feminino,right,España,Castellano y Catalán,Upper secondary,no,no,A,2,what,L4,unsyncopated,s1,r1,29,Online_whatL4//d.pe.po2.none.none.wav,zi,de,ña,sil,lo,bo,da,sil2,re,ñi,sil1,['-'],,,none,none,,,,pe,4,,,,,,,,,,,,,,,3 ,2.0,Castellano,1.0,Catalán,1.0,Inglés,3.0,3.0,2.0,yes,yes,yes,Piano,14,,,. ,68.0,yes
166,2024-03-03_12h22.01.291,Unsyncopated_study3,s132,20.0,feminino,right,España,Castellano y Catalán,Upper secondary,no,no,A,2,what,L4,unsyncopated,s2,r1,30,Online_whatL4//d.pe.po0.0.222.wav,pe,po,ru,sil,zi,ña,ñi,sil1,lo,bo,sil2,['catch'],[1.3724999999999454],[1.3724999999999454],0.0,beat,,1.3724999999999454,"[""space""]",pe,4,,,,,,,,,,,,,,,3 ,2.0,Castellano,1.0,Catalán,1.0,Inglés,3.0,3.0,2.0,yes,yes,yes,Piano,14,,,. ,68.0,yes
167,2024-03-03_12h22.01.291,Unsyncopated_study3,s132,20.0,feminino,right,España,Castellano y Catalán,Upper secondary,no,no,A,2,what,L4,unsyncopated,s1,r1,31,Online_whatL4//d.pe.po3.none.none.wav,zi,ci,ñi,sil2,lo,de,ña,sil,da,bu,sil1,['-'],,,none,none,,,,pe,4,,,,,,,,,,,,,,,3 ,2.0,Castellano,1.0,Catalán,1.0,Inglés,3.0,3.0,2.0,yes,yes,yes,Piano,14,,,. ,68.0,yes
168,2024-03-03_12h22.01.291,Unsyncopated_study3,s132,20.0,feminino,right,España,Castellano y Catalán,Upper secondary,no,no,A,2,what,L4,unsyncopated,s2,r1,32,Online_whatL4//c.bu.da8.none.none.wav,ña,ñi,pe,sil,zi,ci,re,sil1,lo,de,sil2,['-'],,,none,none,,,,bu,3,,,,,,,,,,,,,,,3 ,2.0,Castellano,1.0,Catalán,1.0,Inglés,3.0,3.0,2.0,yes,yes,yes,Piano,14,,,. ,68.0,yes
169,2024-03-03_12h22.01.291,Unsyncopated_study3,s132,20.0,feminino,right,España,Castellano y Catalán,Upper secondary,no,no,A,2,what,L4,unsyncopated,s2,r2,33,Online_whatL4//c.bu.da11.none.none.wav,ci,bo,po,sil,ja,ña,pe,sil1,nu,re,sil2,['-'],,,none,none,,,,bu,3,,,,,,,,,,,,,,,3 ,2.0,Castellano,1.0,Catalán,1.0,Inglés,3.0,3.0,2.0,yes,yes,yes,Piano,14,,,. ,68.0,yes
170,2024-03-03_12h22.01.291,Unsyncopated_study3,s132,20.0,feminino,right,España,Castellano y Catalán,Upper secondary,no,no,A,2,what,L4,unsyncopated,s1,r2,34,Online_whatL4//c.bu.da10.none.none.wav,ja,ru,ña,sil,nu,ci,ñi,sil2,pe,re,sil1,['-'],,,none,none,,,,bu,3,,,,,,,,,,,,,,,3 ,2.0,Castellano,1.0,Catalán,1.0,Inglés,3.0,3.0,2.0,yes,yes,yes,Piano,14,,,. ,68.0,yes
171,2024-03-03_12h22.01.291,Unsyncopated_study3,s132,20.0,feminino,right,España,Castellano y Catalán,Upper secondary,no,no,A,2,what,L4,unsyncopated,s2,r2,35,Online_whatL4//c.bu.da9.none.none.wav,pe,po,de,sil,ja,ru,ña,sil2,nu,re,sil1,['-'],,,none,none,,,,bu,3,,,,,,,,,,,,,,,3 ,2.0,Castellano,1.0,Catalán,1.0,Inglés,3.0,3.0,2.0,yes,yes,yes,Piano,14,,,. ,68.0,yes
172,2024-03-03_12h22.01.291,Unsyncopated_study3,s132,20.0,feminino,right,España,Castellano y Catalán,Upper secondary,no,no,A,2,what,L4,unsyncopated,s2,r2,36,Online_whatL4//a.zi.lo25.none.none.wav,ña,ci,bu,sil2,ja,po,bo,sil,nu,pe,sil1,['false alarm'],[1.1295000000000073],[1.1295000000000073],none,none,,,"[""space""]",lo,2,,,,,,,,,,,,,,,3 ,2.0,Castellano,1.0,Catalán,1.0,Inglés,3.0,3.0,2.0,yes,yes,yes,Piano,14,,,. ,68.0,yes
173,2024-03-03_12h22.01.291,Unsyncopated_study3,s132,20.0,feminino,right,España,Castellano y Catalán,Upper secondary,no,no,A,2,what,L4,unsyncopated,s1,r2,37,Online_whatL4//a.zi.lo26.none.none.wav,ja,pe,ru,sil2,nu,bu,de,sil,ñi,ña,sil1,['false alarm'],[2.42899999999986],[2.42899999999986],none,none,,,"[""space""]",lo,2,,,,,,,,,,,,,,,3 ,2.0,Castellano,1.0,Catalán,1.0,Inglés,3.0,3.0,2.0,yes,yes,yes,Piano,14,,,. ,68.0,yes
174,2024-03-03_12h22.01.291,Unsyncopated_study3,s132,20.0,feminino,right,España,Castellano y Catalán,Upper secondary,no,no,A,2,what,L4,unsyncopated,s2,r1,38,Online_whatL4//a.zi.lo24.888.1998.wav,ñi,bu,ña,sil,zi,pe,ru,sil2,lo,ci,sil1,['catch'],[2.6177999999970325],[2.6177999999970325],1.998,no_beat,0.6197999999970325,0.6197999999970325,"[""space""]",lo,2,,,,,,,,,,,,,,,3 ,2.0,Castellano,1.0,Catalán,1.0,Inglés,3.0,3.0,2.0,yes,yes,yes,Piano,14,,,. ,68.0,yes
175,2024-03-03_12h22.01.291,Unsyncopated_study3,s132,20.0,feminino,right,España,Castellano y Catalán,Upper secondary,no,no,A,2,what,L4,unsyncopated,s1,r2,39,Online_whatL4//a.zi.lo27.none.none.wav,ja,da,re,sil,nu,ña,po,sil2,ru,ci,sil1,['-'],,,none,none,,,,lo,2,,,,,,,,,,,,,,,3 ,2.0,Castellano,1.0,Catalán,1.0,Inglés,3.0,3.0,2.0,yes,yes,yes,Piano,14,,,. ,68.0,yes
176,2024-03-03_12h22.01.291,Unsyncopated_study3,s132,20.0,feminino,right,España,Castellano y Catalán,Upper secondary,no,no,A,2,what,L4,unsyncopated,s1,r1,40,Online_whatL4//d.pe.po10.444.1332.wav,zi,ci,pe,sil,lo,bo,po,sil2,re,bu,sil1,['miss'],,,0.444,no_beat,,,,pe,4,,,,,,,,,,,,,,,3 ,2.0,Castellano,1.0,Catalán,1.0,Inglés,3.0,3.0,2.0,yes,yes,yes,Piano,14,,,. ,68.0,yes
177,2024-03-03_12h22.01.291,Unsyncopated_study3,s132,20.0,feminino,right,España,Castellano y Catalán,Upper secondary,no,no,A,2,what,L4,unsyncopated,s1,r2,41,Online_whatL4//d.pe.po8.222.1332.wav,ja,pe,bu,sil,nu,ci,po,sil2,da,re,sil1,['catch'],[0.23820000000296204],[0.23820000000296204],0.222,no_beat,0.016200000002962,0.016200000002962,"[""space""]",pe,4,,,,,,,,,,,,,,,3 ,2.0,Castellano,1.0,Catalán,1.0,Inglés,3.0,3.0,2.0,yes,yes,yes,Piano,14,,,. ,68.0,yes
178,2024-03-03_12h22.01.291,Unsyncopated_study3,s132,20.0,feminino,right,España,Castellano y Catalán,Upper secondary,no,no,A,2,what,L4,unsyncopated,s2,r1,42,Online_whatL4//d.pe.po11.222.1332.wav,re,pe,ñi,sil2,zi,po,bu,sil,lo,de,sil1,['miss'],,,0.222,no_beat,,,,pe,4,,,,,,,,,,,,,,,3 ,2.0,Castellano,1.0,Catalán,1.0,Inglés,3.0,3.0,2.0,yes,yes,yes,Piano,14,,,. ,68.0,yes
179,2024-03-03_12h22.01.291,Unsyncopated_study3,s132,20.0,feminino,right,España,Castellano y Catalán,Upper secondary,no,no,A,2,what,L4,unsyncopated,s2,r1,43,Online_whatL4//d.pe.po9.none.none.wav,ña,da,bo,sil,zi,ñi,ru,sil2,lo,de,sil1,['-'],,,none,none,,,,pe,4,,,,,,,,,,,,,,,3 ,2.0,Castellano,1.0,Catalán,1.0,Inglés,3.0,3.0,2.0,yes,yes,yes,Piano,14,,,. ,68.0,yes
180,2024-03-03_12h22.01.291,Unsyncopated_study3,s132,20.0,feminino,right,España,Castellano y Catalán,Upper secondary,no,no,A,2,what,L4,unsyncopated,s1,r1,44,Online_whatL4//b.ja.nu3.none.none.wav,zi,ci,pe,sil,lo,da,bu,sil2,bo,re,sil1,['-'],,,none,none,,,,ja,1,,,,,,,,,,,,,,,3 ,2.0,Castellano,1.0,Catalán,1.0,Inglés,3.0,3.0,2.0,yes,yes,yes,Piano,14,,,. ,68.0,yes
181,2024-03-03_12h22.01.291,Unsyncopated_study3,s132,20.0,feminino,right,España,Castellano y Catalán,Upper secondary,no,no,A,2,what,L4,unsyncopated,s2,r1,45,Online_whatL4//b.ja.nu2.none.none.wav,ña,re,ru,sil2,zi,de,bu,sil,lo,pe,sil1,['-'],,,none,none,,,,ja,1,,,,,,,,,,,,,,,3 ,2.0,Castellano,1.0,Catalán,1.0,Inglés,3.0,3.0,2.0,yes,yes,yes,Piano,14,,,. ,68.0,yes
182,2024-03-03_12h22.01.291,Unsyncopated_study3,s132,20.0,feminino,right,España,Castellano y Catalán,Upper secondary,no,no,A,2,what,L4,unsyncopated,s2,r1,46,Online_whatL4//b.ja.nu1.none.none.wav,pe,re,de,sil2,zi,ñi,da,sil,lo,po,sil1,['-'],,,none,none,,,,ja,1,,,,,,,,,,,,,,,3 ,2.0,Castellano,1.0,Catalán,1.0,Inglés,3.0,3.0,2.0,yes,yes,yes,Piano,14,,,. ,68.0,yes
183,2024-03-03_12h22.01.291,Unsyncopated_study3,s132,20.0,feminino,right,España,Castellano y Catalán,Upper secondary,no,no,A,2,what,L4,unsyncopated,s1,r2,47,Online_whatL4//b.ja.nu0.0.888.wav,ja,pe,da,sil,nu,po,ña,sil1,ci,de,sil2,['catch'],[0.5864000000060514],[0.5864000000060514],0.0,beat,0.5864000000060514,0.5864000000060514,"[""space""]",ja,1,,,,,,,,,,,,,,,3 ,2.0,Castellano,1.0,Catalán,1.0,Inglés,3.0,3.0,2.0,yes,yes,yes,Piano,14,,,. ,68.0,yes
184,2024-03-03_12h22.01.291,Unsyncopated_study3,s132,20.0,feminino,right,España,Castellano y Catalán,Upper secondary,no,no,A,2,what,L4,unsyncopated,s1,r2,48,Online_whatL4//a.zi.lo31.none.none.wav,ja,da,ru,sil,nu,pe,bu,sil2,ñi,ña,sil1,['-'],,,none,none,,,,lo,2,,,,,,,,,,,,,,,3 ,2.0,Castellano,1.0,Catalán,1.0,Inglés,3.0,3.0,2.0,yes,yes,yes,Piano,14,,,. ,68.0,yes
185,2024-03-03_12h22.01.291,Unsyncopated_study3,s132,20.0,feminino,right,España,Castellano y Catalán,Upper secondary,no,no,A,2,what,L4,unsyncopated,s1,r1,49,Online_whatL4//a.zi.lo30.0.1110.wav,zi,da,ña,sil2,lo,bo,pe,sil,bu,re,sil1,['catch'],[1.705200000002833],[1.705200000002833],1.11,no_beat,0.5952000000028328,0.5952000000028328,"[""space""]",lo,2,,,,,,,,,,,,,,,3 ,2.0,Castellano,1.0,Catalán,1.0,Inglés,3.0,3.0,2.0,yes,yes,yes,Piano,14,,,. ,68.0,yes
186,2024-03-03_12h22.01.291,Unsyncopated_study3,s132,20.0,feminino,right,España,Castellano y Catalán,Upper secondary,no,no,A,2,what,L4,unsyncopated,s1,r2,50,Online_whatL4//a.zi.lo29.none.none.wav,ja,da,pe,sil,nu,ña,ru,sil1,ñi,ci,sil2,['-'],,,none,none,,,,lo,2,,,,,,,,,,,,,,,3 ,2.0,Castellano,1.0,Catalán,1.0,Inglés,3.0,3.0,2.0,yes,yes,yes,Piano,14,,,. ,68.0,yes
187,2024-03-03_12h22.01.291,Unsyncopated_study3,s132,20.0,feminino,right,España,Castellano y Catalán,Upper secondary,no,no,A,2,what,L4,unsyncopated,s2,r2,51,Online_whatL4//a.zi.lo28.none.none.wav,ñi,re,de,sil,ja,bu,po,sil1,nu,ci,sil2,['-'],,,none,none,,,,lo,2,,,,,,,,,,,,,,,3 ,2.0,Castellano,1.0,Catalán,1.0,Inglés,3.0,3.0,2.0,yes,yes,yes,Piano,14,,,. ,68.0,yes
188,2024-03-03_12h22.01.291,Unsyncopated_study3,s132,20.0,feminino,right,España,Castellano y Catalán,Upper secondary,no,no,A,2,what,L4,unsyncopated,s1,r2,52,Online_whatL4//c.bu.da28.none.none.wav,ja,ña,bo,sil,nu,pe,ñi,sil1,re,de,sil2,['false alarm'],[0.15949999999998],[0.15949999999998],none,none,,,"[""space""]",bu,3,,,,,,,,,,,,,,,3 ,2.0,Castellano,1.0,Catalán,1.0,Inglés,3.0,3.0,2.0,yes,yes,yes,Piano,14,,,. ,68.0,yes
189,2024-03-03_12h22.01.291,Unsyncopated_study3,s132,20.0,feminino,right,España,Castellano y Catalán,Upper secondary,no,no,A,2,what,L4,unsyncopated,s2,r1,53,Online_whatL4//c.bu.da29.1110.0.wav,da,ru,pe,sil,zi,bu,ci,sil1,lo,de,sil2,['miss'],,,1.11,no_beat,,,,bu,3,,,,,,,,,,,,,,,3 ,2.0,Castellano,1.0,Catalán,1.0,Inglés,3.0,3.0,2.0,yes,yes,yes,Piano,14,,,. ,68.0,yes
190,2024-03-03_12h22.01.291,Unsyncopated_study3,s132,20.0,feminino,right,España,Castellano y Catalán,Upper secondary,no,no,A,2,what,L4,unsyncopated,s2,r2,54,Online_whatL4//c.bu.da30.1554.0.wav,da,ña,re,sil2,ja,po,bu,sil,nu,ci,sil1,['catch'],[2.2710999999940213],[2.2710999999940213],1.554,no_beat,0.7170999999940213,0.7170999999940213,"[""space""]",bu,3,,,,,,,,,,,,,,,3 ,2.0,Castellano,1.0,Catalán,1.0,Inglés,3.0,3.0,2.0,yes,yes,yes,Piano,14,,,. ,68.0,yes
191,2024-03-03_12h22.01.291,Unsyncopated_study3,s132,20.0,feminino,right,España,Castellano y Catalán,Upper secondary,no,no,A,2,what,L4,unsyncopated,s2,r2,55,Online_whatL4//c.bu.da31.222.444.wav,de,bu,da,sil,ja,ci,bo,sil2,nu,ña,sil1,['miss'],,,0.222,no_beat,,,,bu,3,,,,,,,,,,,,,,,3 ,2.0,Castellano,1.0,Catalán,1.0,Inglés,3.0,3.0,2.0,yes,yes,yes,Piano,14,,,. ,68.0,yes
192,2024-03-03_12h22.01.291,Unsyncopated_study3,s132,20.0,feminino,right,España,Castellano y Catalán,Upper secondary,no,no,A,2,what,L4,unsyncopated,s2,r1,56,Online_whatL4//b.ja.nu13.none.none.wav,da,po,bu,sil,zi,ña,ru,sil2,lo,de,sil1,['-'],,,none,none,,,,ja,1,,,,,,,,,,,,,,,3 ,2.0,Castellano,1.0,Catalán,1.0,Inglés,3.0,3.0,2.0,yes,yes,yes,Piano,14,,,. ,68.0,yes
193,2024-03-03_12h22.01.291,Unsyncopated_study3,s132,20.0,feminino,right,España,Castellano y Catalán,Upper secondary,no,no,A,2,what,L4,unsyncopated,s1,r2,57,Online_whatL4//b.ja.nu15.0.1110.wav,ja,bu,bo,sil2,nu,pe,re,sil,ci,po,sil1,['miss'],,,0.0,beat,,,,ja,1,,,,,,,,,,,,,,,3 ,2.0,Castellano,1.0,Catalán,1.0,Inglés,3.0,3.0,2.0,yes,yes,yes,Piano,14,,,. ,68.0,yes
194,2024-03-03_12h22.01.291,Unsyncopated_study3,s132,20.0,feminino,right,España,Castellano y Catalán,Upper secondary,no,no,A,2,what,L4,unsyncopated,s1,r1,58,Online_whatL4//b.ja.nu14.none.none.wav,zi,bo,re,sil2,lo,ña,po,sil,ru,ñi,sil1,['-'],,,none,none,,,,ja,1,,,,,,,,,,,,,,,3 ,2.0,Castellano,1.0,Catalán,1.0,Inglés,3.0,3.0,2.0,yes,yes,yes,Piano,14,,,. ,68.0,yes
195,2024-03-03_12h22.01.291,Unsyncopated_study3,s132,20.0,feminino,right,España,Castellano y Catalán,Upper secondary,no,no,A,2,what,L4,unsyncopated,s1,r1,59,Online_whatL4//b.ja.nu12.none.none.wav,zi,re,de,sil,lo,bu,pe,sil2,ru,ña,sil1,['-'],,,none,none,,,,ja,1,,,,,,,,,,,,,,,3 ,2.0,Castellano,1.0,Catalán,1.0,Inglés,3.0,3.0,2.0,yes,yes,yes,Piano,14,,,. ,68.0,yes
196,2024-03-03_12h22.01.291,Unsyncopated_study3,s132,20.0,feminino,right,España,Castellano y Catalán,Upper secondary,no,no,A,2,what,L4,unsyncopated,s1,r1,60,Online_whatL4//b.ja.nu17.none.none.wav,zi,ñi,ña,sil2,lo,pe,ci,sil,po,re,sil1,['-'],,,none,none,,,,ja,1,,,,,,,,,,,,,,,3 ,2.0,Castellano,1.0,Catalán,1.0,Inglés,3.0,3.0,2.0,yes,yes,yes,Piano,14,,,. ,68.0,yes
197,2024-03-03_12h22.01.291,Unsyncopated_study3,s132,20.0,feminino,right,España,Castellano y Catalán,Upper secondary,no,no,A,2,what,L4,unsyncopated,s2,r1,61,Online_whatL4//b.ja.nu16.none.none.wav,bo,pe,po,sil,zi,ci,ñi,sil2,lo,ru,sil1,['-'],,,none,none,,,,ja,1,,,,,,,,,,,,,,,3 ,2.0,Castellano,1.0,Catalán,1.0,Inglés,3.0,3.0,2.0,yes,yes,yes,Piano,14,,,. ,68.0,yes
198,2024-03-03_12h22.01.291,Unsyncopated_study3,s132,20.0,feminino,right,España,Castellano y Catalán,Upper secondary,no,no,A,2,what,L4,unsyncopated,s1,r2,62,Online_whatL4//b.ja.nu18.0.1110.wav,ja,re,ru,sil2,nu,bu,bo,sil,po,de,sil1,['catch'],[0.605299999996987],[0.605299999996987],0.0,beat,0.605299999996987,0.605299999996987,"[""space""]",ja,1,,,,,,,,,,,,,,,3 ,2.0,Castellano,1.0,Catalán,1.0,Inglés,3.0,3.0,2.0,yes,yes,yes,Piano,14,,,. ,68.0,yes
199,2024-03-03_12h22.01.291,Unsyncopated_study3,s132,20.0,feminino,right,España,Castellano y Catalán,Upper secondary,no,no,A,2,what,L4,unsyncopated,s1,r1,63,Online_whatL4//b.ja.nu19.none.none.wav,zi,pe,de,sil2,lo,bo,ru,sil,bu,po,sil1,['-'],,,none,none,,,,ja,1,,,,,,,,,,,,,,,3 ,2.0,Castellano,1.0,Catalán,1.0,Inglés,3.0,3.0,2.0,yes,yes,yes,Piano,14,,,. ,68.0,yes
200,2024-03-03_12h22.01.291,Unsyncopated_study3,s132,20.0,feminino,right,España,Castellano y Catalán,Upper secondary,no,no,A,2,what,L4,unsyncopated,s2,r2,64,Online_whatL4//d.pe.po26.none.none.wav,ru,da,ñi,sil,ja,bu,re,sil1,nu,de,sil2,['false alarm'],[1.8614999999999782],[1.8614999999999782],none,none,,,"[""space""]",pe,4,,,,,,,,,,,,,,,3 ,2.0,Castellano,1.0,Catalán,1.0,Inglés,3.0,3.0,2.0,yes,yes,yes,Piano,14,,,. ,68.0,yes
201,2024-03-03_12h22.01.291,Unsyncopated_study3,s132,20.0,feminino,right,España,Castellano y Catalán,Upper secondary,no,no,A,2,what,L4,unsyncopated,s1,r1,65,Online_whatL4//d.pe.po25.222.444.wav,zi,pe,po,sil2,lo,re,bu,sil,de,ru,sil1,['miss'],,,0.222,no_beat,,,,pe,4,,,,,,,,,,,,,,,3 ,2.0,Castellano,1.0,Catalán,1.0,Inglés,3.0,3.0,2.0,yes,yes,yes,Piano,14,,,. ,68.0,yes
202,2024-03-03_12h22.01.291,Unsyncopated_study3,s132,20.0,feminino,right,España,Castellano y Catalán,Upper secondary,no,no,A,2,what,L4,unsyncopated,s2,r2,66,Online_whatL4//d.pe.po27.222.444.wav,re,pe,po,sil2,ja,ña,ru,sil,nu,ci,sil1,['catch'],[1.0379000000059477],[1.0379000000059477],0.222,no_beat,0.8159000000059478,0.8159000000059478,"[""space""]",pe,4,,,,,,,,,,,,,,,3 ,2.0,Castellano,1.0,Catalán,1.0,Inglés,3.0,3.0,2.0,yes,yes,yes,Piano,14,,,. ,68.0,yes
203,2024-03-03_12h22.01.291,Unsyncopated_study3,s132,20.0,feminino,right,España,Castellano y Catalán,Upper secondary,no,no,A,2,what,L4,unsyncopated,s1,r2,67,Online_whatL4//d.pe.po24.1110.1332.wav,ja,re,bu,sil,nu,pe,po,sil2,ci,ru,sil1,['miss'],,,1.11,no_beat,,,,pe,4,,,,,,,,,,,,,,,3 ,2.0,Castellano,1.0,Catalán,1.0,Inglés,3.0,3.0,2.0,yes,yes,yes,Piano,14,,,. ,68.0,yes
204,2024-03-03_12h22.01.291,Unsyncopated_study3,s132,20.0,feminino,right,España,Castellano y Catalán,Upper secondary,no,no,A,2,what,L4,unsyncopated,s2,r1,68,Online_whatL4//b.ja.nu8.none.none.wav,po,de,re,sil2,zi,ru,pe,sil,lo,bu,sil1,['-'],,,none,none,,,,ja,1,,,,,,,,,,,,,,,3 ,2.0,Castellano,1.0,Catalán,1.0,Inglés,3.0,3.0,2.0,yes,yes,yes,Piano,14,,,. ,68.0,yes
205,2024-03-03_12h22.01.291,Unsyncopated_study3,s132,20.0,feminino,right,España,Castellano y Catalán,Upper secondary,no,no,A,2,what,L4,unsyncopated,s1,r1,69,Online_whatL4//b.ja.nu10.none.none.wav,zi,ñi,re,sil,lo,de,pe,sil1,ña,po,sil2,['-'],,,none,none,,,,ja,1,,,,,,,,,,,,,,,3 ,2.0,Castellano,1.0,Catalán,1.0,Inglés,3.0,3.0,2.0,yes,yes,yes,Piano,14,,,. ,68.0,yes
206,2024-03-03_12h22.01.291,Unsyncopated_study3,s132,20.0,feminino,right,España,Castellano y Catalán,Upper secondary,no,no,A,2,what,L4,unsyncopated,s1,r2,70,Online_whatL4//b.ja.nu11.0.888.wav,ja,bo,ru,sil,nu,ñi,ci,sil2,pe,po,sil1,['catch'],[1.9877000000028602],[1.9877000000028602],0.0,beat,,1.98770000000286,"[""space""]",ja,1,,,,,,,,,,,,,,,3 ,2.0,Castellano,1.0,Catalán,1.0,Inglés,3.0,3.0,2.0,yes,yes,yes,Piano,14,,,. ,68.0,yes
207,2024-03-03_12h22.01.291,Unsyncopated_study3,s132,20.0,feminino,right,España,Castellano y Catalán,Upper secondary,no,no,A,2,what,L4,unsyncopated,s2,r1,71,Online_whatL4//b.ja.nu9.none.none.wav,re,ña,ru,sil2,zi,ñi,de,sil,lo,bo,sil1,['-'],,,none,none,,,,ja,1,,,,,,,,,,,,,,,3 ,2.0,Castellano,1.0,Catalán,1.0,Inglés,3.0,3.0,2.0,yes,yes,yes,Piano,14,,,. ,68.0,yes
208,2024-03-03_12h22.01.291,Unsyncopated_study3,s132,20.0,feminino,right,España,Castellano y Catalán,Upper secondary,no,no,A,2,what,L4,unsyncopated,s2,r2,72,Online_whatL4//d.pe.po7.444.0.wav,po,bo,pe,sil,ja,ci,da,sil1,nu,ñi,sil2,['miss'],,,0.444,no_beat,,,,pe,4,,,,,,,,,,,,,,,3 ,2.0,Castellano,1.0,Catalán,1.0,Inglés,3.0,3.0,2.0,yes,yes,yes,Piano,14,,,. ,68.0,yes
209,2024-03-03_12h22.01.291,Unsyncopated_study3,s132,20.0,feminino,right,España,Castellano y Catalán,Upper secondary,no,no,A,2,what,L4,unsyncopated,s2,r1,73,Online_whatL4//d.pe.po5.none.none.wav,bo,da,ña,sil,zi,bu,re,sil2,lo,de,sil1,['-'],,,none,none,,,,pe,4,,,,,,,,,,,,,,,3 ,2.0,Castellano,1.0,Catalán,1.0,Inglés,3.0,3.0,2.0,yes,yes,yes,Piano,14,,,. ,68.0,yes
210,2024-03-03_12h22.01.291,Unsyncopated_study3,s132,20.0,feminino,right,España,Castellano y Catalán,Upper secondary,no,no,A,2,what,L4,unsyncopated,s2,r2,74,Online_whatL4//d.pe.po6.none.none.wav,ñi,bu,ru,sil,ja,ña,ci,sil1,nu,de,sil2,['false alarm'],[1.8032999999970798],[1.8032999999970798],none,none,,,"[""space""]",pe,4,,,,,,,,,,,,,,,3 ,2.0,Castellano,1.0,Catalán,1.0,Inglés,3.0,3.0,2.0,yes,yes,yes,Piano,14,,,. ,68.0,yes
211,2024-03-03_12h22.01.291,Unsyncopated_study3,s132,20.0,feminino,right,España,Castellano y Catalán,Upper secondary,no,no,A,2,what,L4,unsyncopated,s2,r1,75,Online_whatL4//d.pe.po4.1554.444.wav,bu,ci,po,sil2,zi,de,pe,sil,lo,bo,sil1,['miss'],,,1.554,no_beat,,,,pe,4,,,,,,,,,,,,,,,3 ,2.0,Castellano,1.0,Catalán,1.0,Inglés,3.0,3.0,2.0,yes,yes,yes,Piano,14,,,. ,68.0,yes
212,2024-03-03_12h22.01.291,Unsyncopated_study3,s132,20.0,feminino,right,España,Castellano y Catalán,Upper secondary,no,no,A,2,what,L4,unsyncopated,s1,r1,76,Online_whatL4//a.zi.lo0.0.888.wav,zi,re,bo,sil,lo,pe,ña,sil1,de,bu,sil2,['catch'],[1.6482999999968797],[1.6482999999968797],0.888,beat,0.7602999999968797,0.7602999999968797,"[""space""]",lo,2,,,,,,,,,,,,,,,3 ,2.0,Castellano,1.0,Catalán,1.0,Inglés,3.0,3.0,2.0,yes,yes,yes,Piano,14,,,. ,68.0,yes
213,2024-03-03_12h22.01.291,Unsyncopated_study3,s132,20.0,feminino,right,España,Castellano y Catalán,Upper secondary,no,no,A,2,what,L4,unsyncopated,s2,r1,77,Online_whatL4//a.zi.lo3.888.1998.wav,po,re,ñi,sil,zi,de,ña,sil2,lo,ci,sil1,['miss'],,,1.998,no_beat,,,,lo,2,,,,,,,,,,,,,,,3 ,2.0,Castellano,1.0,Catalán,1.0,Inglés,3.0,3.0,2.0,yes,yes,yes,Piano,14,,,. ,68.0,yes
214,2024-03-03_12h22.01.291,Unsyncopated_study3,s132,20.0,feminino,right,España,Castellano y Catalán,Upper secondary,no,no,A,2,what,L4,unsyncopated,s1,r1,78,Online_whatL4//a.zi.lo2.0.1110.wav,zi,ñi,po,sil2,lo,re,bu,sil,de,da,sil1,['catch'],[1.6720000000000255],[1.6720000000000255],1.11,no_beat,0.5620000000000254,0.5620000000000254,"[""space""]",lo,2,,,,,,,,,,,,,,,3 ,2.0,Castellano,1.0,Catalán,1.0,Inglés,3.0,3.0,2.0,yes,yes,yes,Piano,14,,,. ,68.0,yes
215,2024-03-03_12h22.01.291,Unsyncopated_study3,s132,20.0,feminino,right,España,Castellano y Catalán,Upper secondary,no,no,A,2,what,L4,unsyncopated,s1,r1,79,Online_whatL4//a.zi.lo1.0.888.wav,zi,ru,po,sil,lo,ñi,da,sil2,de,bu,sil1,['catch'],[2.169400000006135],[2.169400000006135],0.888,beat,,1.2814000000061352,"[""space""]",lo,2,,,,,,,,,,,,,,,3 ,2.0,Castellano,1.0,Catalán,1.0,Inglés,3.0,3.0,2.0,yes,yes,yes,Piano,14,,,. ,68.0,yes
216,2024-03-03_12h22.01.291,Unsyncopated_study3,s132,20.0,feminino,right,España,Castellano y Catalán,Upper secondary,no,no,A,2,what,L4,unsyncopated,s2,r1,80,Online_whatL4//a.zi.lo19.888.1776.wav,da,ru,re,sil,zi,ña,po,sil1,lo,ci,sil2,['miss'],,,1.776,beat,,,,lo,2,,,,,,,,,,,,,,,3 ,2.0,Castellano,1.0,Catalán,1.0,Inglés,3.0,3.0,2.0,yes,yes,yes,Piano,14,,,. ,68.0,yes
217,2024-03-03_12h22.01.291,Unsyncopated_study3,s132,20.0,feminino,right,España,Castellano y Catalán,Upper secondary,no,no,A,2,what,L4,unsyncopated,s1,r1,81,Online_whatL4//a.zi.lo16.0.888.wav,zi,ñi,bo,sil,lo,da,ña,sil1,ru,bu,sil2,['false alarm'],[0.5207999999970525],[0.5207999999970525],0.888,beat,,,"[""space""]",lo,2,,,,,,,,,,,,,,,3 ,2.0,Castellano,1.0,Catalán,1.0,Inglés,3.0,3.0,2.0,yes,yes,yes,Piano,14,,,. ,68.0,yes
218,2024-03-03_12h22.01.291,Unsyncopated_study3,s132,20.0,feminino,right,España,Castellano y Catalán,Upper secondary,no,no,A,2,what,L4,unsyncopated,s2,r1,82,Online_whatL4//a.zi.lo17.1110.1998.wav,po,pe,ru,sil2,zi,ci,re,sil,lo,ña,sil1,['catch_delay'],[0.7106000000090409],[0.7106000000090409],1.998,no_beat,0.7106000000090409,0.7106000000090409,,lo,2,,,,,,,,,,,,,,,3 ,2.0,Castellano,1.0,Catalán,1.0,Inglés,3.0,3.0,2.0,yes,yes,yes,Piano,14,,,. ,68.0,yes
219,2024-03-03_12h22.01.291,Unsyncopated_study3,s132,20.0,feminino,right,España,Castellano y Catalán,Upper secondary,no,no,A,2,what,L4,unsyncopated,s1,r2,83,Online_whatL4//a.zi.lo18.none.none.wav,ja,de,da,sil,nu,ña,re,sil2,ci,ru,sil1,['-'],[0.04460000000904074],[0.04460000000904074],none,none,,,"[""space""]",lo,2,,,,,,,,,,,,,,,3 ,2.0,Castellano,1.0,Catalán,1.0,Inglés,3.0,3.0,2.0,yes,yes,yes,Piano,14,,,. ,68.0,yes
220,2024-03-03_12h22.01.291,Unsyncopated_study3,s132,20.0,feminino,right,España,Castellano y Catalán,Upper secondary,no,no,A,2,what,L4,unsyncopated,s2,r2,84,Online_whatL4//b.ja.nu24.888.1998.wav,ñi,ru,bo,sil,ja,po,de,sil2,nu,da,sil1,['false alarm'],[0.5285999999939577],[0.5285999999939577],0.888,beat,,,"[""space""]",ja,1,,,,,,,,,,,,,,,3 ,2.0,Castellano,1.0,Catalán,1.0,Inglés,3.0,3.0,2.0,yes,yes,yes,Piano,14,,,. ,68.0,yes
221,2024-03-03_12h22.01.291,Unsyncopated_study3,s132,20.0,feminino,right,España,Castellano y Catalán,Upper secondary,no,no,A,2,what,L4,unsyncopated,s2,r2,85,Online_whatL4//b.ja.nu26.888.1776.wav,da,ña,re,sil,ja,ci,bo,sil1,nu,bu,sil2,['catch'],[1.6420000000000528],[1.6420000000000528],0.888,beat,0.7540000000000527,0.7540000000000527,"[""space""]",ja,1,,,,,,,,,,,,,,,3 ,2.0,Castellano,1.0,Catalán,1.0,Inglés,3.0,3.0,2.0,yes,yes,yes,Piano,14,,,. ,68.0,yes
222,2024-03-03_12h22.01.291,Unsyncopated_study3,s132,20.0,feminino,right,España,Castellano y Catalán,Upper secondary,no,no,A,2,what,L4,unsyncopated,s1,r2,86,Online_whatL4//b.ja.nu27.0.888.wav,ja,de,re,sil,nu,ci,pe,sil1,po,ñi,sil2,['miss'],,,0.0,beat,,,,ja,1,,,,,,,,,,,,,,,3 ,2.0,Castellano,1.0,Catalán,1.0,Inglés,3.0,3.0,2.0,yes,yes,yes,Piano,14,,,. ,68.0,yes
223,2024-03-03_12h22.01.291,Unsyncopated_study3,s132,20.0,feminino,right,España,Castellano y Catalán,Upper secondary,no,no,A,2,what,L4,unsyncopated,s2,r2,87,Online_whatL4//b.ja.nu25.888.1998.wav,bu,ru,de,sil,ja,ñi,bo,sil2,nu,pe,sil1,"['false alarm', 'catch']","[0.2564000000058968, 1.5086000000089825]",[1.5086000000089825],0.888,beat,0.6206000000089825,0.6206000000089825,"[""space"",""space""]",ja,1,,,,,,,,,,,,,,,3 ,2.0,Castellano,1.0,Catalán,1.0,Inglés,3.0,3.0,2.0,yes,yes,yes,Piano,14,,,. ,68.0,yes
224,2024-03-03_12h22.01.291,Unsyncopated_study3,s132,20.0,feminino,right,España,Castellano y Catalán,Upper secondary,no,no,A,2,what,L4,unsyncopated,s2,r2,88,Online_whatL4//d.pe.po15.none.none.wav,ña,ci,bo,sil2,ja,bu,ñi,sil,nu,ru,sil1,['-'],,,none,none,,,,pe,4,,,,,,,,,,,,,,,3 ,2.0,Castellano,1.0,Catalán,1.0,Inglés,3.0,3.0,2.0,yes,yes,yes,Piano,14,,,. ,68.0,yes
225,2024-03-03_12h22.01.291,Unsyncopated_study3,s132,20.0,feminino,right,España,Castellano y Catalán,Upper secondary,no,no,A,2,what,L4,unsyncopated,s1,r2,89,Online_whatL4//d.pe.po13.none.none.wav,ja,da,bo,sil2,nu,ru,re,sil,ci,bu,sil1,['-'],,,none,none,,,,pe,4,,,,,,,,,,,,,,,3 ,2.0,Castellano,1.0,Catalán,1.0,Inglés,3.0,3.0,2.0,yes,yes,yes,Piano,14,,,. ,68.0,yes
226,2024-03-03_12h22.01.291,Unsyncopated_study3,s132,20.0,feminino,right,España,Castellano y Catalán,Upper secondary,no,no,A,2,what,L4,unsyncopated,s1,r2,90,Online_whatL4//d.pe.po12.none.none.wav,ja,ci,da,sil,nu,re,ñi,sil2,ña,bu,sil1,['-'],,,none,none,,,,pe,4,,,,,,,,,,,,,,,3 ,2.0,Castellano,1.0,Catalán,1.0,Inglés,3.0,3.0,2.0,yes,yes,yes,Piano,14,,,. ,68.0,yes
227,2024-03-03_12h22.01.291,Unsyncopated_study3,s132,20.0,feminino,right,España,Castellano y Catalán,Upper secondary,no,no,A,2,what,L4,unsyncopated,s2,r1,91,Online_whatL4//d.pe.po14.222.444.wav,ñi,pe,po,sil2,zi,ña,da,sil,lo,ci,sil1,['miss'],,,0.222,no_beat,,,,pe,4,,,,,,,,,,,,,,,3 ,2.0,Castellano,1.0,Catalán,1.0,Inglés,3.0,3.0,2.0,yes,yes,yes,Piano,14,,,. ,68.0,yes
228,2024-03-03_12h22.01.291,Unsyncopated_study3,s132,20.0,feminino,right,España,Castellano y Catalán,Upper secondary,no,no,A,2,what,L4,unsyncopated,s2,r1,92,Online_whatL4//a.zi.lo4.1110.1998.wav,ci,ñi,po,sil2,zi,bo,re,sil,lo,pe,sil1,['miss'],,,1.998,no_beat,,,,lo,2,,,,,,,,,,,,,,,3 ,2.0,Castellano,1.0,Catalán,1.0,Inglés,3.0,3.0,2.0,yes,yes,yes,Piano,14,,,. ,68.0,yes
