Unnamed: 0,date,expName,participant,age,sex,hand,residence,native_lang,education_level,lang_deficit,aud_deficit,group,block,condition,language,rhythm,rule structure online,rule type online,order_trial_on,trial_online,s1,s2,s3,s4,s5,s6,s7,s8,s9,s10,s11,catch_syll_resp,rts_syll_catch,clean_rts,time_syll,beat_no_beat,catch_rtsTR,catch_rts,syllable_catch.keys,cond_syll,syll_to_catch,test_offline,block_off,condition_off,rhythm_off,rule,rule_str_off,rule_norule,conds_offline,language_off,Partz_no_partm.keys,Partz_no_partm.rt,security_1_7.keys,accuracy,security_1_7.rt,n_lang,n_lang_used,lang_1,age_l1,lang_2,age_l2,lang_3,age_l3,ability_learn_l2,tendence_mix_lan,music_experience,muisc_use,partiture,instr_1,age_M1,preguntas_musica1,BMRQ_answer.response,final comment,BMRQ_Score,bilingual
0,2024-04-09_15h26.08.335,Experiment4_uns,s165,23.0,feminino,right,España,Catalán y castellano,Bachelor degree,no,no,A,1,what,L1,unsyncopated,s1,r2,0,Online_whatL1//d.ne.ni13.1998.222.wav,ta,ni,fa,sil2,be,ro,ze,sil,ne,fo,sil1,['catch'],[2.38250000000005],[2.38250000000005],1.998,no_beat,0.38450000000005,0.38450000000005,"[""space""]",ne,4,testWhatL1Uns//r2.s1.1.wav,1.0,what,unsyncopated,b,s1,rule,rule,L1,z,1.1793,7.0,1.0,1.5099,3.0,3.0,Catalán,0.0,Castellano,0.0,Inglés,3.0,4.0,5.0,yes,no,yes,Flauta,6,1. Cuando comparto música con alguien siento una complicidad especial con aquella persona.,4.0,Nada,62.0,yes
1,2024-04-09_15h26.08.335,Experiment4_uns,s165,23.0,feminino,right,España,Catalán y castellano,Bachelor degree,no,no,A,1,what,L1,unsyncopated,s2,r2,1,Online_whatL1//d.ne.ni15.222.1110.wav,la,ne,ro,sil,ta,ni,cho,sil1,be,zu,sil2,['catch'],[0.93850000000009],[0.93850000000009],0.222,no_beat,0.7165000000000901,0.7165000000000901,"[""space""]",ne,4,testWhatL1Uns//r1.s2.2.wav,1.0,what,unsyncopated,a,s2,rule,rule,L1,z,0.878,6.0,1.0,1.1484,3.0,3.0,Catalán,0.0,Castellano,0.0,Inglés,3.0,4.0,5.0,yes,no,yes,Flauta,6,2. En mi tiempo libre apenas escucho música.,4.0,Nada,62.0,yes
2,2024-04-09_15h26.08.335,Experiment4_uns,s165,23.0,feminino,right,España,Catalán y castellano,Bachelor degree,no,no,A,1,what,L1,unsyncopated,s1,r1,2,Online_whatL1//d.ne.ni12.1554.222.wav,pu,ni,fa,sil2,ki,lu,ne,sil,cho,ro,sil1,['catch'],[2.220599999904607],[2.220599999904607],1.554,no_beat,0.666599999904607,0.666599999904607,"[""space""]",ne,4,testWhatL1Uns//r2.s1.2.wav,1.0,what,unsyncopated,b,s1,rule,rule,L1,z,1.7011,4.0,1.0,3.3829,3.0,3.0,Catalán,0.0,Castellano,0.0,Inglés,3.0,4.0,5.0,yes,no,yes,Flauta,6,3. Algunas canciones me ponen los pelos de punta,3.0,Nada,62.0,yes
3,2024-04-09_15h26.08.335,Experiment4_uns,s165,23.0,feminino,right,España,Catalán y castellano,Bachelor degree,no,no,A,1,what,L1,unsyncopated,s2,r2,3,Online_whatL1//d.ne.ni14.1332.0.wav,ni,cho,fo,sil,ta,zu,ne,sil2,be,lu,sil1,['catch'],[1.8249999999999318],[1.8249999999999318],1.332,no_beat,0.4929999999999317,0.4929999999999317,"[""space""]",ne,4,testWhatL1Uns//time_viol.r2.s2.0.wav,1.0,what,unsyncopated,b,s2,no_rule,time,L1,z,2.1591,5.0,0.0,2.0688,3.0,3.0,Catalán,0.0,Castellano,0.0,Inglés,3.0,4.0,5.0,yes,no,yes,Flauta,6,4. La música me hace compañía cuando estoy solo,3.0,Nada,62.0,yes
4,2024-04-09_15h26.08.335,Experiment4_uns,s165,23.0,feminino,right,España,Catalán y castellano,Bachelor degree,no,no,A,1,what,L1,unsyncopated,s2,r1,4,Online_whatL1//a.pu.ki8.1110.1998.wav,ri,ro,cho,sil2,pu,zu,ne,sil,ki,lu,sil1,['catch'],[2.380700000047682],[2.380700000047682],1.998,no_beat,0.3827000000476819,0.3827000000476819,"[""space""]",ki,2,testWhatL1Uns//dep_viol.r2.s2.0.wav,1.0,what,unsyncopated,b,s2,no_rule,dep,L1,z,0.4054,7.0,0.0,1.3483,3.0,3.0,Catalán,0.0,Castellano,0.0,Inglés,3.0,4.0,5.0,yes,no,yes,Flauta,6,5. No me apetece bailar ni con la música que más me gusta,5.0,Nada,62.0,yes
5,2024-04-09_15h26.08.335,Experiment4_uns,s165,23.0,feminino,right,España,Catalán y castellano,Bachelor degree,no,no,A,1,what,L1,unsyncopated,s1,r2,5,Online_whatL1//a.pu.ki11.none.none.wav,ta,lu,ri,sil,be,la,fa,sil1,ne,ze,sil2,['-'],,,none,none,,,,ki,2,testWhatL1Uns//dep_viol.r1.s1.0.wav,1.0,what,unsyncopated,a,s1,no_rule,dep,L1,z,1.2818,6.0,0.0,1.3923,3.0,3.0,Catalán,0.0,Castellano,0.0,Inglés,3.0,4.0,5.0,yes,no,yes,Flauta,6,6. La música me hace conectar con la gente,3.0,Nada,62.0,yes
6,2024-04-09_15h26.08.335,Experiment4_uns,s165,23.0,feminino,right,España,Catalán y castellano,Bachelor degree,no,no,A,1,what,L1,unsyncopated,s2,r1,6,Online_whatL1//a.pu.ki10.888.1776.wav,ni,la,lu,sil,pu,zu,ze,sil1,ki,ne,sil2,['catch'],[2.103899999856935],[2.103899999856935],1.776,beat,0.3278999998569352,0.3278999998569352,"[""space""]",ki,2,testWhatL1Uns//time_viol.r2.s1.0.wav,1.0,what,unsyncopated,b,s1,no_rule,time,L1,z,0.7149,7.0,0.0,0.2711,3.0,3.0,Catalán,0.0,Castellano,0.0,Inglés,3.0,4.0,5.0,yes,no,yes,Flauta,6,7. Me informo sobre la música que me gusta.,3.0,Nada,62.0,yes
7,2024-04-09_15h26.08.335,Experiment4_uns,s165,23.0,feminino,right,España,Catalán y castellano,Bachelor degree,no,no,A,1,what,L1,unsyncopated,s1,r2,7,Online_whatL1//a.pu.ki9.none.none.wav,ta,ne,la,sil2,be,zu,ze,sil,fo,lu,sil1,['-'],,,none,none,,,,ki,2,testWhatL1Uns//r1.s2.1.wav,1.0,what,unsyncopated,a,s2,rule,rule,L1,z,1.7981,4.0,1.0,1.6152,3.0,3.0,Catalán,0.0,Castellano,0.0,Inglés,3.0,4.0,5.0,yes,no,yes,Flauta,6,8.Me emociono escuchando ciertas canciones.,4.0,Nada,62.0,yes
8,2024-04-09_15h26.08.335,Experiment4_uns,s165,23.0,feminino,right,España,Catalán y castellano,Bachelor degree,no,no,A,1,what,L1,unsyncopated,s2,r1,8,Online_whatL1//d.ne.ni16.0.444.wav,ne,la,ni,sil,pu,ri,zu,sil1,ki,fa,sil2,['catch'],[0.4179000000954147],[0.4179000000954147],0.0,beat,0.4179000000954147,0.4179000000954147,"[""space""]",ne,4,testWhatL1Uns//r2.s2.0.wav,1.0,what,unsyncopated,b,s2,rule,rule,L1,z,0.3402,7.0,1.0,0.1359,3.0,3.0,Catalán,0.0,Castellano,0.0,Inglés,3.0,4.0,5.0,yes,no,yes,Flauta,6,9.La música me tranquiliza y me relaja.,4.0,Nada,62.0,yes
9,2024-04-09_15h26.08.335,Experiment4_uns,s165,23.0,feminino,right,España,Catalán y castellano,Bachelor degree,no,no,A,1,what,L1,unsyncopated,s1,r1,9,Online_whatL1//d.ne.ni18.none.none.wav,pu,ro,fo,sil,ki,ze,zu,sil2,cho,fa,sil1,['-'],,,none,none,,,,ne,4,testWhatL1Uns//time_viol.r1.s2.0.wav,1.0,what,unsyncopated,a,s2,no_rule,time,L1,m,3.2663,3.0,1.0,4.2997,3.0,3.0,Catalán,0.0,Castellano,0.0,Inglés,3.0,4.0,5.0,yes,no,yes,Flauta,6,10.La música me hace bailar,3.0,Nada,62.0,yes
10,2024-04-09_15h26.08.335,Experiment4_uns,s165,23.0,feminino,right,España,Catalán y castellano,Bachelor degree,no,no,A,1,what,L1,unsyncopated,s2,r2,10,Online_whatL1//d.ne.ni19.1554.444.wav,la,fa,ni,sil2,ta,cho,ne,sil,be,ri,sil1,['catch'],[2.123499999999922],[2.123499999999922],1.554,no_beat,0.5694999999999217,0.5694999999999217,"[""space""]",ne,4,testWhatL1Uns//dep_viol.r1.s2.0.wav,1.0,what,unsyncopated,a,s2,no_rule,dep,L1,z,1.2902,3.0,0.0,2.0576,3.0,3.0,Catalán,0.0,Castellano,0.0,Inglés,3.0,4.0,5.0,yes,no,yes,Flauta,6,11.Busco novedades musicales continuamente,2.0,Nada,62.0,yes
11,2024-04-09_15h26.08.335,Experiment4_uns,s165,23.0,feminino,right,España,Catalán y castellano,Bachelor degree,no,no,A,1,what,L1,unsyncopated,s1,r2,11,Online_whatL1//d.ne.ni17.222.1332.wav,ta,ne,fo,sil,be,ri,ni,sil2,lu,fa,sil1,"['catch', 'false alarm']","[0.7562999999523754, 2.004799999952297]",[0.7562999999523754],0.222,no_beat,0.5342999999523754,0.5342999999523754,"[""space"",""space""]",ne,4,testWhatL1Uns//r2.s1.0.wav,1.0,what,unsyncopated,b,s1,rule,rule,L1,z,1.1178,6.0,1.0,0.6568,3.0,3.0,Catalán,0.0,Castellano,0.0,Inglés,3.0,4.0,5.0,yes,no,yes,Flauta,6,12. Puedo llorar cuando escucho algunas melodías que me gustan mucho.,1.0,Nada,62.0,yes
12,2024-04-09_15h26.08.335,Experiment4_uns,s165,23.0,feminino,right,España,Catalán y castellano,Bachelor degree,no,no,A,1,what,L1,unsyncopated,s1,r2,12,Online_whatL1//d.ne.ni4.none.none.wav,ta,cho,lu,sil,be,fa,zu,sil1,ro,ze,sil2,['-'],,,none,none,,,,ne,4,testWhatL1Uns//r1.s1.0.wav,1.0,what,unsyncopated,a,s1,rule,rule,L1,z,1.4209,5.0,1.0,0.9591,3.0,3.0,Catalán,0.0,Castellano,0.0,Inglés,3.0,4.0,5.0,yes,no,yes,Flauta,6,13. Me gusta cantar o tocar un instrumento con más gente,1.0,Nada,62.0,yes
13,2024-04-09_15h26.08.335,Experiment4_uns,s165,23.0,feminino,right,España,Catalán y castellano,Bachelor degree,no,no,A,1,what,L1,unsyncopated,s2,r2,13,Online_whatL1//d.ne.ni6.none.none.wav,fa,fo,ri,sil,ta,lu,zu,sil1,be,ro,sil2,['-'],,,none,none,,,,ne,4,testWhatL1Uns//cat_viol.r1.s2.0.wav,1.0,what,unsyncopated,a,s2,no_rule,cat,L1,z,0.4169,6.0,0.0,0.1505,3.0,3.0,Catalán,0.0,Castellano,0.0,Inglés,3.0,4.0,5.0,yes,no,yes,Flauta,6,14. La música me ayuda a desconectar.,4.0,Nada,62.0,yes
14,2024-04-09_15h26.08.335,Experiment4_uns,s165,23.0,feminino,right,España,Catalán y castellano,Bachelor degree,no,no,A,1,what,L1,unsyncopated,s2,r2,14,Online_whatL1//d.ne.ni7.none.none.wav,ze,lu,fa,sil,ta,cho,ri,sil1,be,ro,sil2,['-'],,,none,none,,,,ne,4,testWhatL1Uns//cat_viol.r2.s1.0.wav,1.0,what,unsyncopated,b,s1,no_rule,cat,L1,z,0.7371,5.0,0.0,1.7156,3.0,3.0,Catalán,0.0,Castellano,0.0,Inglés,3.0,4.0,5.0,yes,no,yes,Flauta,6,15. No puedo evitar tararear las canciones que me gustan cuando las escucho.,4.0,Nada,62.0,yes
15,2024-04-09_15h26.08.335,Experiment4_uns,s165,23.0,feminino,right,España,Catalán y castellano,Bachelor degree,no,no,A,1,what,L1,unsyncopated,s1,r1,15,Online_whatL1//d.ne.ni5.none.none.wav,pu,cho,fo,sil,ki,zu,ro,sil2,fa,la,sil1,['-'],,,none,none,,,,ne,4,testWhatL1Uns//r1.s1.1.wav,1.0,what,unsyncopated,a,s1,rule,rule,L1,m,3.3561,3.0,0.0,1.6708,3.0,3.0,Catalán,0.0,Castellano,0.0,Inglés,3.0,4.0,5.0,yes,no,yes,Flauta,6,16. En los conciertos me siento en sintonía con los artistas y el público.,3.0,Nada,62.0,yes
16,2024-04-09_15h26.08.335,Experiment4_uns,s165,23.0,feminino,right,España,Catalán y castellano,Bachelor degree,no,no,A,1,what,L1,unsyncopated,s2,r2,16,Online_whatL1//b.ta.be21.1110.1998.wav,fa,ri,zu,sil2,ta,lu,ne,sil,be,la,sil1,['catch'],[1.6578999998570225],[1.6578999998570225],1.11,no_beat,0.5478999998570224,0.5478999998570224,"[""space""]",ta,1,testWhatL1Uns//cat_viol.r1.s1.0.wav,1.0,what,unsyncopated,a,s1,no_rule,cat,L1,z,0.476,6.0,0.0,1.4981,3.0,3.0,Catalán,0.0,Castellano,0.0,Inglés,3.0,4.0,5.0,yes,no,yes,Flauta,6,17. Me gasto bastante dinero en música y cosas relacionadas con la música.,2.0,Nada,62.0,yes
17,2024-04-09_15h26.08.335,Experiment4_uns,s165,23.0,feminino,right,España,Catalán y castellano,Bachelor degree,no,no,A,1,what,L1,unsyncopated,s1,r1,17,Online_whatL1//b.ta.be23.none.none.wav,pu,zu,ri,sil,ki,ni,fa,sil1,lu,cho,sil2,['false alarm'],[1.7372000000476646],[1.7372000000476646],none,none,,,"[""space""]",ta,1,testWhatL1Uns//r1.s1.2.wav,1.0,what,unsyncopated,a,s1,rule,rule,L1,z,1.9711,6.0,1.0,1.4029,3.0,3.0,Catalán,0.0,Castellano,0.0,Inglés,3.0,4.0,5.0,yes,no,yes,Flauta,6,18. Siento escalofríos cuando escucho una melodía que me gusta.,3.0,Nada,62.0,yes
18,2024-04-09_15h26.08.335,Experiment4_uns,s165,23.0,feminino,right,España,Catalán y castellano,Bachelor degree,no,no,A,1,what,L1,unsyncopated,s1,r2,18,Online_whatL1//b.ta.be22.0.888.wav,ta,ze,lu,sil,be,fo,la,sil2,cho,zu,sil1,['catch'],[0.5962999999524072],[0.5962999999524072],0.0,beat,0.5962999999524072,0.5962999999524072,"[""space""]",ta,1,testWhatL1Uns//cat_viol.r2.s2.0.wav,1.0,what,unsyncopated,b,s2,no_rule,cat,L1,z,0.5874,6.0,0.0,1.0536,3.0,3.0,Catalán,0.0,Castellano,0.0,Inglés,3.0,4.0,5.0,yes,no,yes,Flauta,6,19. Con la música me puedo desahogar.,3.0,Nada,62.0,yes
19,2024-04-09_15h26.08.335,Experiment4_uns,s165,23.0,feminino,right,España,Catalán y castellano,Bachelor degree,no,no,A,1,what,L1,unsyncopated,s1,r2,19,Online_whatL1//b.ta.be20.0.888.wav,ta,ro,ne,sil,be,la,cho,sil1,lu,ri,sil2,['catch'],[0.3624999999999545],[0.3624999999999545],0.0,beat,0.3624999999999545,0.3624999999999545,"[""space""]",ta,1,testWhatL1Uns//time_viol.r1.s1.0.wav,1.0,what,unsyncopated,a,s1,no_rule,time,L1,m,1.5541,3.0,1.0,2.1647,3.0,3.0,Catalán,0.0,Castellano,0.0,Inglés,3.0,4.0,5.0,yes,no,yes,Flauta,6,20. Cuando escucho una melodía que me gusta mucho no puedo evitar mover el cuerpo.,3.0,Nada,62.0,yes
20,2024-04-09_15h26.08.335,Experiment4_uns,s165,23.0,feminino,right,España,Catalán y castellano,Bachelor degree,no,no,A,1,what,L1,unsyncopated,s1,r1,20,Online_whatL1//b.ta.be26.none.none.wav,pu,lu,cho,sil,ki,ne,ro,sil2,fa,la,sil1,['false alarm'],[2.601299999952289],[2.601299999952289],none,none,,,"[""space""]",ta,1,testWhatL1Uns//r2.s2.1.wav,1.0,what,unsyncopated,b,s2,rule,rule,L1,m,0.6816,4.0,0.0,0.9369,3.0,3.0,Catalán,0.0,Castellano,0.0,Inglés,3.0,4.0,5.0,yes,no,yes,Flauta,6,,,Nada,62.0,yes
21,2024-04-09_15h26.08.335,Experiment4_uns,s165,23.0,feminino,right,España,Catalán y castellano,Bachelor degree,no,no,A,1,what,L1,unsyncopated,s2,r1,21,Online_whatL1//b.ta.be24.none.none.wav,lu,zu,cho,sil,pu,ni,fa,sil2,ki,fo,sil1,['false alarm'],[1.8428999998568543],[1.8428999998568543],none,none,,,"[""space""]",ta,1,testWhatL1Uns//r1.s2.0.wav,1.0,what,unsyncopated,a,s2,rule,rule,L1,z,1.5928,5.0,1.0,1.7499,3.0,3.0,Catalán,0.0,Castellano,0.0,Inglés,3.0,4.0,5.0,yes,no,yes,Flauta,6,,,Nada,62.0,yes
22,2024-04-09_15h26.08.335,Experiment4_uns,s165,23.0,feminino,right,España,Catalán y castellano,Bachelor degree,no,no,A,1,what,L1,unsyncopated,s1,r1,22,Online_whatL1//b.ta.be27.none.none.wav,pu,lu,zu,sil,ki,la,ro,sil2,ni,fa,sil1,['-'],,,none,none,,,,ta,1,testWhatL1Uns//r2.s2.2.wav,1.0,what,unsyncopated,b,s2,rule,rule,L1,m,2.2,3.0,0.0,0.9539,3.0,3.0,Catalán,0.0,Castellano,0.0,Inglés,3.0,4.0,5.0,yes,no,yes,Flauta,6,,,Nada,62.0,yes
23,2024-04-09_15h26.08.335,Experiment4_uns,s165,23.0,feminino,right,España,Catalán y castellano,Bachelor degree,no,no,A,1,what,L1,unsyncopated,s1,r1,23,Online_whatL1//b.ta.be25.none.none.wav,pu,ze,cho,sil2,ki,fo,ro,sil,ni,ri,sil1,['-'],,,none,none,,,,ta,1,testWhatL1Uns//dep_viol.r2.s1.0.wav,1.0,what,unsyncopated,b,s1,no_rule,dep,L1,z,0.9867,4.0,0.0,1.1993,3.0,3.0,Catalán,0.0,Castellano,0.0,Inglés,3.0,4.0,5.0,yes,no,yes,Flauta,6,,,Nada,62.0,yes
24,2024-04-09_15h26.08.335,Experiment4_uns,s165,23.0,feminino,right,España,Catalán y castellano,Bachelor degree,no,no,A,1,what,L1,unsyncopated,s2,r1,24,Online_whatL1//c.ro.fo6.none.none.wav,la,ri,cho,sil,pu,ne,ni,sil1,ki,fa,sil2,['-'],,,none,none,,,,ro,3,testConjL3Syn//r1.s2.0.wav,2.0,conjunction_syn,syncopated,a,s2,rule,rule,L3,z,0.6736,5.0,1.0,0.9937,3.0,3.0,Catalán,0.0,Castellano,0.0,Inglés,3.0,4.0,5.0,yes,no,yes,Flauta,6,,,Nada,62.0,yes
25,2024-04-09_15h26.08.335,Experiment4_uns,s165,23.0,feminino,right,España,Catalán y castellano,Bachelor degree,no,no,A,1,what,L1,unsyncopated,s2,r2,25,Online_whatL1//c.ro.fo7.none.none.wav,ri,lu,ni,sil2,ta,la,ne,sil,be,ze,sil1,['-'],,,none,none,,,,ro,3,testConjL3Syn//r1.s2.1.wav,2.0,conjunction_syn,syncopated,a,s2,rule,rule,L3,z,0.4916,7.0,1.0,0.3158,3.0,3.0,Catalán,0.0,Castellano,0.0,Inglés,3.0,4.0,5.0,yes,no,yes,Flauta,6,,,Nada,62.0,yes
26,2024-04-09_15h26.08.335,Experiment4_uns,s165,23.0,feminino,right,España,Catalán y castellano,Bachelor degree,no,no,A,1,what,L1,unsyncopated,s1,r2,26,Online_whatL1//c.ro.fo5.none.none.wav,ta,ze,lu,sil,be,ne,zu,sil2,ri,ni,sil1,['-'],,,none,none,,,,ro,3,testConjL3Syn//r2.s2.2.wav,2.0,conjunction_syn,syncopated,b,s2,rule,rule,L3,z,0.276,7.0,1.0,0.1212,3.0,3.0,Catalán,0.0,Castellano,0.0,Inglés,3.0,4.0,5.0,yes,no,yes,Flauta,6,,,Nada,62.0,yes
27,2024-04-09_15h26.08.335,Experiment4_uns,s165,23.0,feminino,right,España,Catalán y castellano,Bachelor degree,no,no,A,1,what,L1,unsyncopated,s1,r1,27,Online_whatL1//c.ro.fo4.none.none.wav,pu,lu,fa,sil2,ki,la,zu,sil,cho,ze,sil1,['-'],,,none,none,,,,ro,3,testConjL3Syn//r2.s1.1.wav,2.0,conjunction_syn,syncopated,b,s1,rule,rule,L3,z,0.2562,7.0,1.0,0.1151,3.0,3.0,Catalán,0.0,Castellano,0.0,Inglés,3.0,4.0,5.0,yes,no,yes,Flauta,6,,,Nada,62.0,yes
28,2024-04-09_15h26.08.335,Experiment4_uns,s165,23.0,feminino,right,España,Catalán y castellano,Bachelor degree,no,no,A,1,what,L1,unsyncopated,s2,r1,28,Online_whatL1//b.ta.be9.none.none.wav,ze,zu,ni,sil,pu,fa,ne,sil1,ki,fo,sil2,['-'],,,none,none,,,,ta,1,testConjL3Syn//r1.s1.1.wav,2.0,conjunction_syn,syncopated,a,s1,rule,rule,L3,z,0.2579,7.0,1.0,0.0912,3.0,3.0,Catalán,0.0,Castellano,0.0,Inglés,3.0,4.0,5.0,yes,no,yes,Flauta,6,,,Nada,62.0,yes
29,2024-04-09_15h26.08.335,Experiment4_uns,s165,23.0,feminino,right,España,Catalán y castellano,Bachelor degree,no,no,A,1,what,L1,unsyncopated,s1,r1,29,Online_whatL1//b.ta.be10.none.none.wav,pu,fo,fa,sil,ki,zu,cho,sil1,la,ri,sil2,['false alarm'],[1.1374999999999318],[1.1374999999999318],none,none,,,"[""space""]",ta,1,testConjL3Syn//r1.s1.0.wav,2.0,conjunction_syn,syncopated,a,s1,rule,rule,L3,z,0.223,7.0,1.0,0.1001,3.0,3.0,Catalán,0.0,Castellano,0.0,Inglés,3.0,4.0,5.0,yes,no,yes,Flauta,6,,,Nada,62.0,yes
30,2024-04-09_15h26.08.335,Experiment4_uns,s165,23.0,feminino,right,España,Catalán y castellano,Bachelor degree,no,no,A,1,what,L1,unsyncopated,s1,r2,30,Online_whatL1//b.ta.be8.0.1110.wav,ta,la,zu,sil2,be,fo,ri,sil,ne,ze,sil1,['catch'],[0.8453999998569088],[0.8453999998569088],0.0,beat,0.8453999998569088,0.8453999998569088,"[""space""]",ta,1,testConjL3Syn//cat_viol.r2.s1.0.wav,2.0,conjunction_syn,syncopated,b,s1,no_rule,cat,L3,z,0.2707,6.0,0.0,1.2503,3.0,3.0,Catalán,0.0,Castellano,0.0,Inglés,3.0,4.0,5.0,yes,no,yes,Flauta,6,,,Nada,62.0,yes
31,2024-04-09_15h26.08.335,Experiment4_uns,s165,23.0,feminino,right,España,Catalán y castellano,Bachelor degree,no,no,A,1,what,L1,unsyncopated,s1,r2,31,Online_whatL1//b.ta.be11.0.888.wav,ta,ne,fa,sil,be,ri,fo,sil2,cho,ni,sil1,['catch'],[0.6556000001430675],[0.6556000001430675],0.0,beat,0.6556000001430675,0.6556000001430675,"[""space""]",ta,1,testConjL3Syn//time_viol.r2.s2.0.wav,2.0,conjunction_syn,syncopated,b,s2,no_rule,time,L3,z,0.6319,5.0,0.0,0.4144,3.0,3.0,Catalán,0.0,Castellano,0.0,Inglés,3.0,4.0,5.0,yes,no,yes,Flauta,6,,,Nada,62.0,yes
32,2024-04-09_15h26.08.335,Experiment4_uns,s165,23.0,feminino,right,España,Catalán y castellano,Bachelor degree,no,no,A,1,what,L1,unsyncopated,s1,r1,32,Online_whatL1//c.ro.fo27.none.none.wav,pu,lu,ze,sil,ki,ne,fa,sil2,cho,zu,sil1,['-'],,,none,none,,,,ro,3,testConjL3Syn//dep_viol.r2.s1.0.wav,2.0,conjunction_syn,syncopated,b,s1,no_rule,dep,L3,z,0.2752,7.0,0.0,0.1324,3.0,3.0,Catalán,0.0,Castellano,0.0,Inglés,3.0,4.0,5.0,yes,no,yes,Flauta,6,,,Nada,62.0,yes
33,2024-04-09_15h26.08.335,Experiment4_uns,s165,23.0,feminino,right,España,Catalán y castellano,Bachelor degree,no,no,A,1,what,L1,unsyncopated,s1,r2,33,Online_whatL1//c.ro.fo25.222.1110.wav,ta,ro,lu,sil,be,fo,ri,sil2,ni,zu,sil1,['catch'],[0.7376999998092515],[0.7376999998092515],0.222,no_beat,0.5156999998092515,0.5156999998092515,"[""space""]",ro,3,testConjL3Syn//r1.s2.2.wav,2.0,conjunction_syn,syncopated,a,s2,rule,rule,L3,z,0.2529,7.0,1.0,0.1175,3.0,3.0,Catalán,0.0,Castellano,0.0,Inglés,3.0,4.0,5.0,yes,no,yes,Flauta,6,,,Nada,62.0,yes
34,2024-04-09_15h26.08.335,Experiment4_uns,s165,23.0,feminino,right,España,Catalán y castellano,Bachelor degree,no,no,A,1,what,L1,unsyncopated,s1,r2,34,Online_whatL1//c.ro.fo26.1332.1554.wav,ta,fa,ri,sil2,be,ro,fo,sil,ze,zu,sil1,['catch'],[1.8540000000000418],[1.8540000000000418],1.332,no_beat,0.5220000000000418,0.5220000000000418,"[""space""]",ro,3,testConjL3Syn//dep_viol.r1.s1.0.wav,2.0,conjunction_syn,syncopated,a,s1,no_rule,dep,L3,z,0.4198,7.0,0.0,0.158,3.0,3.0,Catalán,0.0,Castellano,0.0,Inglés,3.0,4.0,5.0,yes,no,yes,Flauta,6,,,Nada,62.0,yes
35,2024-04-09_15h26.08.335,Experiment4_uns,s165,23.0,feminino,right,España,Catalán y castellano,Bachelor degree,no,no,A,1,what,L1,unsyncopated,s1,r1,35,Online_whatL1//c.ro.fo24.none.none.wav,pu,la,ri,sil,ki,fa,ne,sil1,ni,lu,sil2,['-'],,,none,none,,,,ro,3,testConjL3Syn//cat_viol.r1.s1.0.wav,2.0,conjunction_syn,syncopated,a,s1,no_rule,cat,L3,z,0.7985,5.0,0.0,0.3867,3.0,3.0,Catalán,0.0,Castellano,0.0,Inglés,3.0,4.0,5.0,yes,no,yes,Flauta,6,,,Nada,62.0,yes
36,2024-04-09_15h26.08.335,Experiment4_uns,s165,23.0,feminino,right,España,Catalán y castellano,Bachelor degree,no,no,A,1,what,L1,unsyncopated,s1,r1,36,Online_whatL1//a.pu.ki27.0.888.wav,pu,ri,fa,sil,ki,la,ne,sil2,ze,cho,sil1,['catch'],[1.5165000000000646],[1.5165000000000646],0.888,beat,0.6285000000000646,0.6285000000000646,"[""space""]",ki,2,testConjL3Syn//dep_viol.r2.s2.0.wav,2.0,conjunction_syn,syncopated,b,s2,no_rule,dep,L3,z,1.3582,7.0,0.0,0.3484,3.0,3.0,Catalán,0.0,Castellano,0.0,Inglés,3.0,4.0,5.0,yes,no,yes,Flauta,6,,,Nada,62.0,yes
37,2024-04-09_15h26.08.335,Experiment4_uns,s165,23.0,feminino,right,España,Catalán y castellano,Bachelor degree,no,no,A,1,what,L1,unsyncopated,s2,r1,37,Online_whatL1//a.pu.ki25.888.1998.wav,la,cho,ne,sil,pu,zu,fa,sil2,ki,lu,sil1,['catch'],[2.4565000000000055],[2.4565000000000055],1.998,no_beat,0.4585000000000054,0.4585000000000054,"[""space""]",ki,2,testConjL3Syn//time_viol.r1.s2.0.wav,2.0,conjunction_syn,syncopated,a,s2,no_rule,time,L3,z,0.5766,4.0,0.0,1.8353,3.0,3.0,Catalán,0.0,Castellano,0.0,Inglés,3.0,4.0,5.0,yes,no,yes,Flauta,6,,,Nada,62.0,yes
38,2024-04-09_15h26.08.335,Experiment4_uns,s165,23.0,feminino,right,España,Catalán y castellano,Bachelor degree,no,no,A,1,what,L1,unsyncopated,s1,r1,38,Online_whatL1//a.pu.ki24.0.888.wav,pu,fa,cho,sil,ki,zu,ne,sil2,fo,ni,sil1,['catch'],[1.2462999999523845],[1.2462999999523845],0.888,beat,0.3582999999523845,0.3582999999523845,"[""space""]",ki,2,testConjL3Syn//time_viol.r1.s1.0.wav,2.0,conjunction_syn,syncopated,a,s1,no_rule,time,L3,m,0.5819,3.0,1.0,3.7678,3.0,3.0,Catalán,0.0,Castellano,0.0,Inglés,3.0,4.0,5.0,yes,no,yes,Flauta,6,,,Nada,62.0,yes
39,2024-04-09_15h26.08.335,Experiment4_uns,s165,23.0,feminino,right,España,Catalán y castellano,Bachelor degree,no,no,A,1,what,L1,unsyncopated,s1,r2,39,Online_whatL1//a.pu.ki26.none.none.wav,ta,zu,lu,sil,be,cho,ri,sil1,la,ze,sil2,['false alarm'],[0.10840000009545747],[0.10840000009545747],none,none,,,"[""space""]",ki,2,testConjL3Syn//r1.s1.2.wav,2.0,conjunction_syn,syncopated,a,s1,rule,rule,L3,z,2.2157,4.0,1.0,0.9649,3.0,3.0,Catalán,0.0,Castellano,0.0,Inglés,3.0,4.0,5.0,yes,no,yes,Flauta,6,,,Nada,62.0,yes
40,2024-04-09_15h26.08.335,Experiment4_uns,s165,23.0,feminino,right,España,Catalán y castellano,Bachelor degree,no,no,A,1,what,L1,unsyncopated,s1,r2,40,Online_whatL1//d.ne.ni20.none.none.wav,ta,fa,ro,sil2,be,ze,cho,sil,la,zu,sil1,['-'],,,none,none,,,,ne,4,testConjL3Syn//time_viol.r2.s1.0.wav,2.0,conjunction_syn,syncopated,b,s1,no_rule,time,L3,m,0.7064,5.0,1.0,1.4264,3.0,3.0,Catalán,0.0,Castellano,0.0,Inglés,3.0,4.0,5.0,yes,no,yes,Flauta,6,,,Nada,62.0,yes
41,2024-04-09_15h26.08.335,Experiment4_uns,s165,23.0,feminino,right,España,Catalán y castellano,Bachelor degree,no,no,A,1,what,L1,unsyncopated,s1,r1,41,Online_whatL1//d.ne.ni23.none.none.wav,pu,fo,zu,sil,ki,cho,ro,sil1,ri,la,sil2,['-'],,,none,none,,,,ne,4,testConjL3Syn//r2.s2.1.wav,2.0,conjunction_syn,syncopated,b,s2,rule,rule,L3,z,0.4818,5.0,1.0,1.8165,3.0,3.0,Catalán,0.0,Castellano,0.0,Inglés,3.0,4.0,5.0,yes,no,yes,Flauta,6,,,Nada,62.0,yes
42,2024-04-09_15h26.08.335,Experiment4_uns,s165,23.0,feminino,right,España,Catalán y castellano,Bachelor degree,no,no,A,1,what,L1,unsyncopated,s1,r1,42,Online_whatL1//d.ne.ni22.none.none.wav,pu,ro,cho,sil2,ki,lu,ze,sil,zu,ri,sil1,['-'],,,none,none,,,,ne,4,testConjL3Syn//r2.s2.0.wav,2.0,conjunction_syn,syncopated,b,s2,rule,rule,L3,z,0.4329,6.0,1.0,0.9985,3.0,3.0,Catalán,0.0,Castellano,0.0,Inglés,3.0,4.0,5.0,yes,no,yes,Flauta,6,,,Nada,62.0,yes
43,2024-04-09_15h26.08.335,Experiment4_uns,s165,23.0,feminino,right,España,Catalán y castellano,Bachelor degree,no,no,A,1,what,L1,unsyncopated,s2,r1,43,Online_whatL1//d.ne.ni21.none.none.wav,zu,fo,la,sil,pu,ze,cho,sil2,ki,lu,sil1,['-'],,,none,none,,,,ne,4,testConjL3Syn//cat_viol.r1.s2.0.wav,2.0,conjunction_syn,syncopated,a,s2,no_rule,cat,L3,z,3.0174,3.0,0.0,1.4666,3.0,3.0,Catalán,0.0,Castellano,0.0,Inglés,3.0,4.0,5.0,yes,no,yes,Flauta,6,,,Nada,62.0,yes
44,2024-04-09_15h26.08.335,Experiment4_uns,s165,23.0,feminino,right,España,Catalán y castellano,Bachelor degree,no,no,A,1,what,L1,unsyncopated,s1,r2,44,Online_whatL1//b.ta.be18.0.1110.wav,ta,zu,lu,sil2,be,ni,ne,sil,ze,la,sil1,['catch'],[0.7925000000000182],[0.7925000000000182],0.0,beat,0.7925000000000182,0.7925000000000182,"[""space""]",ta,1,testConjL3Syn//dep_viol.r1.s2.0.wav,2.0,conjunction_syn,syncopated,a,s2,no_rule,dep,L3,m,0.532,6.0,1.0,0.4751,3.0,3.0,Catalán,0.0,Castellano,0.0,Inglés,3.0,4.0,5.0,yes,no,yes,Flauta,6,,,Nada,62.0,yes
45,2024-04-09_15h26.08.335,Experiment4_uns,s165,23.0,feminino,right,España,Catalán y castellano,Bachelor degree,no,no,A,1,what,L1,unsyncopated,s1,r2,45,Online_whatL1//b.ta.be19.0.888.wav,ta,lu,ze,sil,be,la,ro,sil2,cho,fo,sil1,['catch'],[0.546100000143042],[0.546100000143042],0.0,beat,0.546100000143042,0.546100000143042,"[""space""]",ta,1,testConjL3Syn//cat_viol.r2.s2.0.wav,2.0,conjunction_syn,syncopated,b,s2,no_rule,cat,L3,z,0.4573,6.0,0.0,1.2983,3.0,3.0,Catalán,0.0,Castellano,0.0,Inglés,3.0,4.0,5.0,yes,no,yes,Flauta,6,,,Nada,62.0,yes
46,2024-04-09_15h26.08.335,Experiment4_uns,s165,23.0,feminino,right,España,Catalán y castellano,Bachelor degree,no,no,A,1,what,L1,unsyncopated,s1,r2,46,Online_whatL1//b.ta.be17.0.888.wav,ta,fa,zu,sil,be,ze,la,sil1,ni,ro,sil2,['catch'],[0.5808000001907203],[0.5808000001907203],0.0,beat,0.5808000001907203,0.5808000001907203,"[""space""]",ta,1,testConjL3Syn//r2.s1.2.wav,2.0,conjunction_syn,syncopated,b,s1,rule,rule,L3,z,1.2896,4.0,1.0,1.2338,3.0,3.0,Catalán,0.0,Castellano,0.0,Inglés,3.0,4.0,5.0,yes,no,yes,Flauta,6,,,Nada,62.0,yes
47,2024-04-09_15h26.08.335,Experiment4_uns,s165,23.0,feminino,right,España,Catalán y castellano,Bachelor degree,no,no,A,1,what,L1,unsyncopated,s2,r2,47,Online_whatL1//b.ta.be16.1110.1998.wav,zu,fa,cho,sil2,ta,ri,ro,sil,be,ze,sil1,['catch'],[1.6271999998093634],[1.6271999998093634],1.11,no_beat,0.5171999998093633,0.5171999998093633,"[""space""]",ta,1,testConjL3Syn//r2.s1.0.wav,2.0,conjunction_syn,syncopated,b,s1,rule,rule,L3,m,0.3577,5.0,0.0,2.2165,3.0,3.0,Catalán,0.0,Castellano,0.0,Inglés,3.0,4.0,5.0,yes,no,yes,Flauta,6,,,Nada,62.0,yes
48,2024-04-09_15h26.08.335,Experiment4_uns,s165,23.0,feminino,right,España,Catalán y castellano,Bachelor degree,no,no,A,1,what,L1,unsyncopated,s2,r2,48,Online_whatL1//d.ne.ni24.1332.444.wav,zu,la,ni,sil,ta,ri,ne,sil2,be,fo,sil1,['catch'],[1.968700000047761],[1.968700000047761],1.332,no_beat,0.636700000047761,0.636700000047761,"[""space""]",ne,4,testConjL4Uns//time_viol.r2.s2.0.wav,3.0,conjunction_un,unsyncopated,b,s2,no_rule,time,L4,z,0.6869,6.0,0.0,0.1704,3.0,3.0,Catalán,0.0,Castellano,0.0,Inglés,3.0,4.0,5.0,yes,no,yes,Flauta,6,,,Nada,62.0,yes
49,2024-04-09_15h26.08.335,Experiment4_uns,s165,23.0,feminino,right,España,Catalán y castellano,Bachelor degree,no,no,A,1,what,L1,unsyncopated,s1,r2,49,Online_whatL1//d.ne.ni25.1332.222.wav,ta,ni,ri,sil2,be,ne,cho,sil,lu,zu,sil1,['catch'],[1.7965000000000373],[1.7965000000000373],1.332,no_beat,0.4645000000000372,0.4645000000000372,"[""space""]",ne,4,testConjL4Uns//r1.s2.0.wav,3.0,conjunction_un,unsyncopated,a,s2,rule,rule,L4,z,0.2677,7.0,1.0,0.192,3.0,3.0,Catalán,0.0,Castellano,0.0,Inglés,3.0,4.0,5.0,yes,no,yes,Flauta,6,,,Nada,62.0,yes
50,2024-04-09_15h26.08.335,Experiment4_uns,s165,23.0,feminino,right,España,Catalán y castellano,Bachelor degree,no,no,A,1,what,L1,unsyncopated,s2,r1,50,Online_whatL1//d.ne.ni26.0.444.wav,ne,lu,ni,sil,pu,ze,fa,sil1,ki,ro,sil2,['catch'],[0.7414999999999736],[0.7414999999999736],0.0,beat,0.7414999999999736,0.7414999999999736,"[""space""]",ne,4,testConjL4Uns//r2.s2.0.wav,3.0,conjunction_un,unsyncopated,b,s2,rule,rule,L4,m,2.7494,2.0,0.0,0.85,3.0,3.0,Catalán,0.0,Castellano,0.0,Inglés,3.0,4.0,5.0,yes,no,yes,Flauta,6,,,Nada,62.0,yes
51,2024-04-09_15h26.08.335,Experiment4_uns,s165,23.0,feminino,right,España,Catalán y castellano,Bachelor degree,no,no,A,1,what,L1,unsyncopated,s1,r2,51,Online_whatL1//d.ne.ni27.none.none.wav,ta,ri,fa,sil2,be,cho,ro,sil,lu,la,sil1,['-'],,,none,none,,,,ne,4,testConjL4Uns//dep_viol.r2.s2.0.wav,3.0,conjunction_un,unsyncopated,b,s2,no_rule,dep,L4,z,0.2699,7.0,0.0,0.1652,3.0,3.0,Catalán,0.0,Castellano,0.0,Inglés,3.0,4.0,5.0,yes,no,yes,Flauta,6,,,Nada,62.0,yes
52,2024-04-09_15h26.08.335,Experiment4_uns,s165,23.0,feminino,right,España,Catalán y castellano,Bachelor degree,no,no,A,1,what,L1,unsyncopated,s2,r1,52,Online_whatL1//a.pu.ki4.888.1776.wav,cho,zu,fa,sil,pu,lu,fo,sil1,ki,ze,sil2,['catch'],[2.165399999856959],[2.165399999856959],1.776,beat,0.3893999998569588,0.3893999998569588,"[""space""]",ki,2,testConjL4Uns//time_viol.r1.s1.0.wav,3.0,conjunction_un,unsyncopated,a,s1,no_rule,time,L4,z,0.4184,7.0,0.0,0.2924,3.0,3.0,Catalán,0.0,Castellano,0.0,Inglés,3.0,4.0,5.0,yes,no,yes,Flauta,6,,,Nada,62.0,yes
53,2024-04-09_15h26.08.335,Experiment4_uns,s165,23.0,feminino,right,España,Catalán y castellano,Bachelor degree,no,no,A,1,what,L1,unsyncopated,s2,r1,53,Online_whatL1//a.pu.ki6.888.1776.wav,fa,lu,ro,sil,pu,ni,ze,sil1,ki,ri,sil2,['catch'],[2.13740000009534],[2.13740000009534],1.776,beat,0.3614000000953401,0.3614000000953401,"[""space""]",ki,2,testConjL4Uns//r2.s1.0.wav,3.0,conjunction_un,unsyncopated,b,s1,rule,rule,L4,z,1.1177,4.0,1.0,1.5818,3.0,3.0,Catalán,0.0,Castellano,0.0,Inglés,3.0,4.0,5.0,yes,no,yes,Flauta,6,,,Nada,62.0,yes
54,2024-04-09_15h26.08.335,Experiment4_uns,s165,23.0,feminino,right,España,Catalán y castellano,Bachelor degree,no,no,A,1,what,L1,unsyncopated,s2,r2,54,Online_whatL1//a.pu.ki7.none.none.wav,zu,ne,ri,sil,ta,ro,ze,sil1,be,fo,sil2,['-'],,,none,none,,,,ki,2,testConjL4Uns//r1.s1.2.wav,3.0,conjunction_un,unsyncopated,a,s1,rule,rule,L4,z,0.7661,4.0,1.0,1.6878,3.0,3.0,Catalán,0.0,Castellano,0.0,Inglés,3.0,4.0,5.0,yes,no,yes,Flauta,6,,,Nada,62.0,yes
55,2024-04-09_15h26.08.335,Experiment4_uns,s165,23.0,feminino,right,España,Catalán y castellano,Bachelor degree,no,no,A,1,what,L1,unsyncopated,s2,r2,55,Online_whatL1//a.pu.ki5.none.none.wav,cho,ri,ne,sil2,ta,ro,ni,sil,be,lu,sil1,['-'],,,none,none,,,,ki,2,testConjL4Uns//cat_viol.r1.s2.0.wav,3.0,conjunction_un,unsyncopated,a,s2,no_rule,cat,L4,z,0.3325,6.0,0.0,0.8648,3.0,3.0,Catalán,0.0,Castellano,0.0,Inglés,3.0,4.0,5.0,yes,no,yes,Flauta,6,,,Nada,62.0,yes
56,2024-04-09_15h26.08.335,Experiment4_uns,s165,23.0,feminino,right,España,Catalán y castellano,Bachelor degree,no,no,A,1,what,L1,unsyncopated,s2,r2,56,Online_whatL1//b.ta.be2.1110.1998.wav,ze,fa,lu,sil2,ta,ne,cho,sil,be,ri,sil1,['catch'],[1.733600000143042],[1.733600000143042],1.11,no_beat,0.623600000143042,0.623600000143042,"[""space""]",ta,1,testConjL4Uns//cat_viol.r2.s2.0.wav,3.0,conjunction_un,unsyncopated,b,s2,no_rule,cat,L4,z,0.5989,5.0,0.0,0.6987,3.0,3.0,Catalán,0.0,Castellano,0.0,Inglés,3.0,4.0,5.0,yes,no,yes,Flauta,6,,,Nada,62.0,yes
57,2024-04-09_15h26.08.335,Experiment4_uns,s165,23.0,feminino,right,España,Catalán y castellano,Bachelor degree,no,no,A,1,what,L1,unsyncopated,s2,r1,57,Online_whatL1//b.ta.be3.none.none.wav,ze,ri,la,sil,pu,ni,fo,sil1,ki,cho,sil2,['-'],,,none,none,,,,ta,1,testConjL4Uns//r2.s2.2.wav,3.0,conjunction_un,unsyncopated,b,s2,rule,rule,L4,m,0.6317,3.0,0.0,2.8729,3.0,3.0,Catalán,0.0,Castellano,0.0,Inglés,3.0,4.0,5.0,yes,no,yes,Flauta,6,,,Nada,62.0,yes
58,2024-04-09_15h26.08.335,Experiment4_uns,s165,23.0,feminino,right,España,Catalán y castellano,Bachelor degree,no,no,A,1,what,L1,unsyncopated,s2,r2,58,Online_whatL1//b.ta.be0.888.1776.wav,ni,lu,ne,sil,ta,ze,zu,sil1,be,la,sil2,['catch'],[1.4279000000954056],[1.4279000000954056],0.888,beat,0.5399000000954056,0.5399000000954056,"[""space""]",ta,1,testConjL4Uns//dep_viol.r1.s2.0.wav,3.0,conjunction_un,unsyncopated,a,s2,no_rule,dep,L4,z,0.4987,4.0,0.0,1.8874,3.0,3.0,Catalán,0.0,Castellano,0.0,Inglés,3.0,4.0,5.0,yes,no,yes,Flauta,6,,,Nada,62.0,yes
59,2024-04-09_15h26.08.335,Experiment4_uns,s165,23.0,feminino,right,España,Catalán y castellano,Bachelor degree,no,no,A,1,what,L1,unsyncopated,s1,r1,59,Online_whatL1//b.ta.be1.none.none.wav,pu,fa,fo,sil2,ki,la,zu,sil,ze,ri,sil1,['-'],,,none,none,,,,ta,1,testConjL4Uns//r1.s1.1.wav,3.0,conjunction_un,unsyncopated,a,s1,rule,rule,L4,z,0.4533,7.0,1.0,0.3229,3.0,3.0,Catalán,0.0,Castellano,0.0,Inglés,3.0,4.0,5.0,yes,no,yes,Flauta,6,,,Nada,62.0,yes
60,2024-04-09_15h26.08.335,Experiment4_uns,s165,23.0,feminino,right,España,Catalán y castellano,Bachelor degree,no,no,A,1,what,L1,unsyncopated,s2,r1,60,Online_whatL1//b.ta.be28.none.none.wav,zu,fo,ni,sil,pu,ri,lu,sil1,ki,ne,sil2,['-'],,,none,none,,,,ta,1,testConjL4Uns//cat_viol.r2.s1.0.wav,3.0,conjunction_un,unsyncopated,b,s1,no_rule,cat,L4,z,0.238,7.0,0.0,0.165,3.0,3.0,Catalán,0.0,Castellano,0.0,Inglés,3.0,4.0,5.0,yes,no,yes,Flauta,6,,,Nada,62.0,yes
61,2024-04-09_15h26.08.335,Experiment4_uns,s165,23.0,feminino,right,España,Catalán y castellano,Bachelor degree,no,no,A,1,what,L1,unsyncopated,s2,r2,61,Online_whatL1//b.ta.be30.1110.1998.wav,ze,lu,fa,sil2,ta,ro,ni,sil,be,la,sil1,['catch'],[1.6730000000000018],[1.6730000000000018],1.11,no_beat,0.5630000000000017,0.5630000000000017,"[""space""]",ta,1,testConjL4Uns//time_viol.r1.s2.0.wav,3.0,conjunction_un,unsyncopated,a,s2,no_rule,time,L4,m,0.3336,5.0,1.0,1.5722,3.0,3.0,Catalán,0.0,Castellano,0.0,Inglés,3.0,4.0,5.0,yes,no,yes,Flauta,6,,,Nada,62.0,yes
62,2024-04-09_15h26.08.335,Experiment4_uns,s165,23.0,feminino,right,España,Catalán y castellano,Bachelor degree,no,no,A,1,what,L1,unsyncopated,s2,r2,62,Online_whatL1//b.ta.be31.1110.1998.wav,fo,ze,ri,sil2,ta,ne,zu,sil,be,lu,sil1,['catch'],[1.8548999998569116],[1.8548999998569116],1.11,no_beat,0.7448999998569115,0.7448999998569115,"[""space""]",ta,1,testConjL4Uns//dep_viol.r2.s1.0.wav,3.0,conjunction_un,unsyncopated,b,s1,no_rule,dep,L4,z,1.1042,3.0,0.0,1.2211,3.0,3.0,Catalán,0.0,Castellano,0.0,Inglés,3.0,4.0,5.0,yes,no,yes,Flauta,6,,,Nada,62.0,yes
63,2024-04-09_15h26.08.335,Experiment4_uns,s165,23.0,feminino,right,España,Catalán y castellano,Bachelor degree,no,no,A,1,what,L1,unsyncopated,s2,r1,63,Online_whatL1//b.ta.be29.none.none.wav,fa,ro,ni,sil,pu,ne,ri,sil1,ki,ze,sil2,['-'],,,none,none,,,,ta,1,testConjL4Uns//r2.s1.1.wav,3.0,conjunction_un,unsyncopated,b,s1,rule,rule,L4,z,0.3017,4.0,1.0,0.8159,3.0,3.0,Catalán,0.0,Castellano,0.0,Inglés,3.0,4.0,5.0,yes,no,yes,Flauta,6,,,Nada,62.0,yes
64,2024-04-09_15h26.08.335,Experiment4_uns,s165,23.0,feminino,right,España,Catalán y castellano,Bachelor degree,no,no,A,1,what,L1,unsyncopated,s2,r2,64,Online_whatL1//b.ta.be4.888.1998.wav,zu,ne,fa,sil,ta,lu,ni,sil2,be,ri,sil1,['catch'],[1.183499999999981],[1.183499999999981],0.888,beat,0.2954999999999809,0.2954999999999809,"[""space""]",ta,1,testConjL4Uns//r2.s1.2.wav,3.0,conjunction_un,unsyncopated,b,s1,rule,rule,L4,m,4.2013,2.0,0.0,1.7063,3.0,3.0,Catalán,0.0,Castellano,0.0,Inglés,3.0,4.0,5.0,yes,no,yes,Flauta,6,,,Nada,62.0,yes
65,2024-04-09_15h26.08.335,Experiment4_uns,s165,23.0,feminino,right,España,Catalán y castellano,Bachelor degree,no,no,A,1,what,L1,unsyncopated,s2,r1,65,Online_whatL1//b.ta.be6.none.none.wav,cho,fa,fo,sil,pu,ne,ri,sil2,ki,ni,sil1,['-'],,,none,none,,,,ta,1,testConjL4Uns//dep_viol.r1.s1.0.wav,3.0,conjunction_un,unsyncopated,a,s1,no_rule,dep,L4,z,0.3485,5.0,0.0,1.067,3.0,3.0,Catalán,0.0,Castellano,0.0,Inglés,3.0,4.0,5.0,yes,no,yes,Flauta,6,,,Nada,62.0,yes
66,2024-04-09_15h26.08.335,Experiment4_uns,s165,23.0,feminino,right,España,Catalán y castellano,Bachelor degree,no,no,A,1,what,L1,unsyncopated,s1,r1,66,Online_whatL1//b.ta.be7.none.none.wav,pu,ro,fa,sil,ki,fo,ni,sil2,la,ze,sil1,['-'],,,none,none,,,,ta,1,testConjL4Uns//r1.s1.0.wav,3.0,conjunction_un,unsyncopated,a,s1,rule,rule,L4,m,0.4417,5.0,0.0,1.2164,3.0,3.0,Catalán,0.0,Castellano,0.0,Inglés,3.0,4.0,5.0,yes,no,yes,Flauta,6,,,Nada,62.0,yes
67,2024-04-09_15h26.08.335,Experiment4_uns,s165,23.0,feminino,right,España,Catalán y castellano,Bachelor degree,no,no,A,1,what,L1,unsyncopated,s2,r1,67,Online_whatL1//b.ta.be5.none.none.wav,ni,fa,ro,sil2,pu,ze,la,sil,ki,ne,sil1,['-'],,,none,none,,,,ta,1,testConjL4Uns//r1.s2.2.wav,3.0,conjunction_un,unsyncopated,a,s2,rule,rule,L4,z,0.5019,5.0,1.0,1.1989,3.0,3.0,Catalán,0.0,Castellano,0.0,Inglés,3.0,4.0,5.0,yes,no,yes,Flauta,6,,,Nada,62.0,yes
68,2024-04-09_15h26.08.335,Experiment4_uns,s165,23.0,feminino,right,España,Catalán y castellano,Bachelor degree,no,no,A,1,what,L1,unsyncopated,s2,r2,68,Online_whatL1//b.ta.be13.888.1998.wav,cho,fa,ro,sil,ta,lu,zu,sil2,be,fo,sil1,['catch'],[1.4089999999999918],[1.4089999999999918],0.888,beat,0.5209999999999918,0.5209999999999918,"[""space""]",ta,1,testConjL4Uns//time_viol.r2.s1.0.wav,3.0,conjunction_un,unsyncopated,b,s1,no_rule,time,L4,z,1.469,6.0,0.0,1.0486,3.0,3.0,Catalán,0.0,Castellano,0.0,Inglés,3.0,4.0,5.0,yes,no,yes,Flauta,6,,,Nada,62.0,yes
69,2024-04-09_15h26.08.335,Experiment4_uns,s165,23.0,feminino,right,España,Catalán y castellano,Bachelor degree,no,no,A,1,what,L1,unsyncopated,s2,r1,69,Online_whatL1//b.ta.be14.none.none.wav,cho,zu,fo,sil2,pu,ne,ri,sil,ki,ni,sil1,['-'],,,none,none,,,,ta,1,testConjL4Uns//r1.s2.1.wav,3.0,conjunction_un,unsyncopated,a,s2,rule,rule,L4,m,0.782,6.0,0.0,1.3383,3.0,3.0,Catalán,0.0,Castellano,0.0,Inglés,3.0,4.0,5.0,yes,no,yes,Flauta,6,,,Nada,62.0,yes
70,2024-04-09_15h26.08.335,Experiment4_uns,s165,23.0,feminino,right,España,Catalán y castellano,Bachelor degree,no,no,A,1,what,L1,unsyncopated,s1,r2,70,Online_whatL1//b.ta.be12.0.888.wav,ta,fo,lu,sil,be,zu,fa,sil2,cho,ne,sil1,['catch'],[0.4127000000476073],[0.4127000000476073],0.0,beat,0.4127000000476073,0.4127000000476073,"[""space""]",ta,1,testConjL4Uns//r2.s2.1.wav,3.0,conjunction_un,unsyncopated,b,s2,rule,rule,L4,m,2.5185,4.0,0.0,1.1002,3.0,3.0,Catalán,0.0,Castellano,0.0,Inglés,3.0,4.0,5.0,yes,no,yes,Flauta,6,,,Nada,62.0,yes
71,2024-04-09_15h26.08.335,Experiment4_uns,s165,23.0,feminino,right,España,Catalán y castellano,Bachelor degree,no,no,A,1,what,L1,unsyncopated,s1,r1,71,Online_whatL1//b.ta.be15.none.none.wav,pu,ne,lu,sil2,ki,fo,la,sil,fa,ze,sil1,['-'],,,none,none,,,,ta,1,testConjL4Uns//cat_viol.r1.s1.0.wav,3.0,conjunction_un,unsyncopated,a,s1,no_rule,cat,L4,z,1.2506,4.0,0.0,1.1542,3.0,3.0,Catalán,0.0,Castellano,0.0,Inglés,3.0,4.0,5.0,yes,no,yes,Flauta,6,,,Nada,62.0,yes
72,2024-04-09_15h26.08.335,Experiment4_uns,s165,23.0,feminino,right,España,Catalán y castellano,Bachelor degree,no,no,A,1,what,L1,unsyncopated,s2,r2,72,Online_whatL1//d.ne.ni11.none.none.wav,lu,fa,ze,sil,ta,ri,la,sil1,be,fo,sil2,['-'],,,none,none,,,,ne,4,testWhenL2Uns//r2.s2.1.wav,4.0,when,unsyncopated,b,s2,rule,rule,L2,z,0.987,7.0,1.0,0.8359,3.0,3.0,Catalán,0.0,Castellano,0.0,Inglés,3.0,4.0,5.0,yes,no,yes,Flauta,6,,,Nada,62.0,yes
73,2024-04-09_15h26.08.335,Experiment4_uns,s165,23.0,feminino,right,España,Catalán y castellano,Bachelor degree,no,no,A,1,what,L1,unsyncopated,s2,r1,73,Online_whatL1//d.ne.ni10.none.none.wav,ri,fa,ro,sil2,pu,zu,ze,sil,ki,la,sil1,['-'],,,none,none,,,,ne,4,testWhenL2Uns//cat_viol.r2.s2.0.wav,4.0,when,unsyncopated,b,s2,no_rule,cat,L2,z,0.2654,7.0,1.0,0.1173,3.0,3.0,Catalán,0.0,Castellano,0.0,Inglés,3.0,4.0,5.0,yes,no,yes,Flauta,6,,,Nada,62.0,yes
74,2024-04-09_15h26.08.335,Experiment4_uns,s165,23.0,feminino,right,España,Catalán y castellano,Bachelor degree,no,no,A,1,what,L1,unsyncopated,s1,r1,74,Online_whatL1//d.ne.ni9.222.444.wav,pu,ne,ni,sil,ki,fa,zu,sil2,fo,ro,sil1,['miss'],,,0.222,no_beat,,,,ne,4,testWhenL2Uns//r1.s1.2.wav,4.0,when,unsyncopated,a,s1,rule,rule,L2,z,0.4008,7.0,1.0,0.0985,3.0,3.0,Catalán,0.0,Castellano,0.0,Inglés,3.0,4.0,5.0,yes,no,yes,Flauta,6,,,Nada,62.0,yes
75,2024-04-09_15h26.08.335,Experiment4_uns,s165,23.0,feminino,right,España,Catalán y castellano,Bachelor degree,no,no,A,1,what,L1,unsyncopated,s2,r1,75,Online_whatL1//d.ne.ni8.none.none.wav,lu,fa,la,sil,pu,cho,ze,sil2,ki,fo,sil1,['-'],,,none,none,,,,ne,4,testWhenL2Uns//cat_viol.r1.s2.0.wav,4.0,when,unsyncopated,a,s2,no_rule,cat,L2,z,1.2,5.0,1.0,0.9752,3.0,3.0,Catalán,0.0,Castellano,0.0,Inglés,3.0,4.0,5.0,yes,no,yes,Flauta,6,,,Nada,62.0,yes
76,2024-04-09_15h26.08.335,Experiment4_uns,s165,23.0,feminino,right,España,Catalán y castellano,Bachelor degree,no,no,A,1,what,L1,unsyncopated,s2,r1,76,Online_whatL1//c.ro.fo13.1332.444.wav,ni,fa,fo,sil,pu,la,ro,sil1,ki,cho,sil2,['catch'],[2.0193999998570007],[2.0193999998570007],1.332,no_beat,0.6873999998570006,0.6873999998570006,"[""space""]",ro,3,testWhenL2Uns//dep_viol.r2.s2.0.wav,4.0,when,unsyncopated,b,s2,no_rule,dep,L2,z,0.2651,6.0,1.0,0.1505,3.0,3.0,Catalán,0.0,Castellano,0.0,Inglés,3.0,4.0,5.0,yes,no,yes,Flauta,6,,,Nada,62.0,yes
77,2024-04-09_15h26.08.335,Experiment4_uns,s165,23.0,feminino,right,España,Catalán y castellano,Bachelor degree,no,no,A,1,what,L1,unsyncopated,s1,r2,77,Online_whatL1//c.ro.fo14.1332.222.wav,ta,fo,cho,sil,be,fa,ro,sil1,lu,ni,sil2,['miss'],,,1.332,no_beat,,,,ro,3,testWhenL2Uns//dep_viol.r1.s1.0.wav,4.0,when,unsyncopated,a,s1,no_rule,dep,L2,z,0.9812,4.0,1.0,1.132,3.0,3.0,Catalán,0.0,Castellano,0.0,Inglés,3.0,4.0,5.0,yes,no,yes,Flauta,6,,,Nada,62.0,yes
78,2024-04-09_15h26.08.335,Experiment4_uns,s165,23.0,feminino,right,España,Catalán y castellano,Bachelor degree,no,no,A,1,what,L1,unsyncopated,s2,r2,78,Online_whatL1//c.ro.fo12.1332.222.wav,ri,fo,zu,sil,ta,fa,ro,sil2,be,ni,sil1,['catch'],[1.9375],[1.9375],1.332,no_beat,0.6054999999999999,0.6054999999999999,"[""space""]",ro,3,testWhenL2Uns//time_viol.r1.s2.0.wav,4.0,when,unsyncopated,a,s2,no_rule,time,L2,z,0.442,6.0,1.0,0.1744,3.0,3.0,Catalán,0.0,Castellano,0.0,Inglés,3.0,4.0,5.0,yes,no,yes,Flauta,6,,,Nada,62.0,yes
79,2024-04-09_15h26.08.335,Experiment4_uns,s165,23.0,feminino,right,España,Catalán y castellano,Bachelor degree,no,no,A,1,what,L1,unsyncopated,s1,r2,79,Online_whatL1//c.ro.fo15.none.none.wav,ta,ri,lu,sil,be,ze,zu,sil1,cho,ni,sil2,['-'],,,none,none,,,,ro,3,testWhenL2Uns//dep_viol.r2.s1.0.wav,4.0,when,unsyncopated,b,s1,no_rule,dep,L2,m,2.3173,3.0,0.0,2.1265,3.0,3.0,Catalán,0.0,Castellano,0.0,Inglés,3.0,4.0,5.0,yes,no,yes,Flauta,6,,,Nada,62.0,yes
80,2024-04-09_15h26.08.335,Experiment4_uns,s165,23.0,feminino,right,España,Catalán y castellano,Bachelor degree,no,no,A,1,what,L1,unsyncopated,s1,r1,80,Online_whatL1//a.pu.ki1.0.888.wav,pu,ni,ne,sil,ki,ri,la,sil2,ro,cho,sil1,['catch'],[1.52049999999997],[1.52049999999997],0.888,beat,0.63249999999997,0.63249999999997,"[""space""]",ki,2,testWhenL2Uns//r1.s1.0.wav,4.0,when,unsyncopated,a,s1,rule,rule,L2,z,0.8755,4.0,1.0,0.6318,3.0,3.0,Catalán,0.0,Castellano,0.0,Inglés,3.0,4.0,5.0,yes,no,yes,Flauta,6,,,Nada,62.0,yes
81,2024-04-09_15h26.08.335,Experiment4_uns,s165,23.0,feminino,right,España,Catalán y castellano,Bachelor degree,no,no,A,1,what,L1,unsyncopated,s1,r2,81,Online_whatL1//a.pu.ki2.none.none.wav,ta,zu,lu,sil2,be,ni,ze,sil,ne,fa,sil1,['-'],,,none,none,,,,ki,2,testWhenL2Uns//r2.s1.2.wav,4.0,when,unsyncopated,b,s1,rule,rule,L2,z,0.3657,6.0,1.0,0.2193,3.0,3.0,Catalán,0.0,Castellano,0.0,Inglés,3.0,4.0,5.0,yes,no,yes,Flauta,6,,,Nada,62.0,yes
82,2024-04-09_15h26.08.335,Experiment4_uns,s165,23.0,feminino,right,España,Catalán y castellano,Bachelor degree,no,no,A,1,what,L1,unsyncopated,s1,r2,82,Online_whatL1//a.pu.ki3.none.none.wav,ta,la,ne,sil,be,cho,ni,sil2,fo,ri,sil1,['-'],,,none,none,,,,ki,2,testWhenL2Uns//r2.s1.0.wav,4.0,when,unsyncopated,b,s1,rule,rule,L2,m,1.4006,3.0,0.0,0.52,3.0,3.0,Catalán,0.0,Castellano,0.0,Inglés,3.0,4.0,5.0,yes,no,yes,Flauta,6,,,Nada,62.0,yes
83,2024-04-09_15h26.08.335,Experiment4_uns,s165,23.0,feminino,right,España,Catalán y castellano,Bachelor degree,no,no,A,1,what,L1,unsyncopated,s1,r1,83,Online_whatL1//a.pu.ki0.0.888.wav,pu,la,ne,sil,ki,lu,fa,sil1,ni,fo,sil2,['catch'],[1.2567000000476582],[1.2567000000476582],0.888,beat,0.3687000000476582,0.3687000000476582,"[""space""]",ki,2,testWhenL2Uns//r2.s1.1.wav,4.0,when,unsyncopated,b,s1,rule,rule,L2,m,2.115,4.0,0.0,1.0362,3.0,3.0,Catalán,0.0,Castellano,0.0,Inglés,3.0,4.0,5.0,yes,no,yes,Flauta,6,,,Nada,62.0,yes
84,2024-04-09_15h26.08.335,Experiment4_uns,s165,23.0,feminino,right,España,Catalán y castellano,Bachelor degree,no,no,A,1,what,L1,unsyncopated,s1,r1,84,Online_whatL1//a.pu.ki17.0.1110.wav,pu,ro,ni,sil2,ki,zu,la,sil,cho,ri,sil1,"['false alarm', 'catch']","[0.36489999985690247, 1.7250000000000227]",[1.7250000000000227],1.11,no_beat,0.6150000000000226,0.6150000000000226,"[""space"",""space""]",ki,2,testWhenL2Uns//r1.s2.0.wav,4.0,when,unsyncopated,a,s2,rule,rule,L2,m,1.2711,6.0,0.0,3.0839,3.0,3.0,Catalán,0.0,Castellano,0.0,Inglés,3.0,4.0,5.0,yes,no,yes,Flauta,6,,,Nada,62.0,yes
85,2024-04-09_15h26.08.335,Experiment4_uns,s165,23.0,feminino,right,España,Catalán y castellano,Bachelor degree,no,no,A,1,what,L1,unsyncopated,s1,r1,85,Online_whatL1//a.pu.ki16.0.888.wav,pu,cho,ze,sil,ki,ri,ni,sil1,lu,fa,sil2,['catch'],[1.2754999999999654],[1.2754999999999654],0.888,beat,0.3874999999999654,0.3874999999999654,"[""space""]",ki,2,testWhenL2Uns//r1.s2.2.wav,4.0,when,unsyncopated,a,s2,rule,rule,L2,z,1.9763,5.0,1.0,1.34,3.0,3.0,Catalán,0.0,Castellano,0.0,Inglés,3.0,4.0,5.0,yes,no,yes,Flauta,6,,,Nada,62.0,yes
86,2024-04-09_15h26.08.335,Experiment4_uns,s165,23.0,feminino,right,España,Catalán y castellano,Bachelor degree,no,no,A,1,what,L1,unsyncopated,s2,r2,86,Online_whatL1//a.pu.ki18.none.none.wav,zu,ne,cho,sil,ta,fo,ri,sil1,be,fa,sil2,['-'],,,none,none,,,,ki,2,testWhenL2Uns//time_viol.r2.s1.0.wav,4.0,when,unsyncopated,b,s1,no_rule,time,L2,z,1.2593,4.0,1.0,1.0196,3.0,3.0,Catalán,0.0,Castellano,0.0,Inglés,3.0,4.0,5.0,yes,no,yes,Flauta,6,,,Nada,62.0,yes
87,2024-04-09_15h26.08.335,Experiment4_uns,s165,23.0,feminino,right,España,Catalán y castellano,Bachelor degree,no,no,A,1,what,L1,unsyncopated,s2,r1,87,Online_whatL1//a.pu.ki19.1110.1998.wav,ne,ze,la,sil2,pu,fo,zu,sil,ki,cho,sil1,['catch'],[2.564000000000078],[2.564000000000078],1.998,no_beat,0.5660000000000782,0.5660000000000782,"[""space""]",ki,2,testWhenL2Uns//r2.s2.0.wav,4.0,when,unsyncopated,b,s2,rule,rule,L2,m,1.3824,3.0,0.0,3.3479,3.0,3.0,Catalán,0.0,Castellano,0.0,Inglés,3.0,4.0,5.0,yes,no,yes,Flauta,6,,,Nada,62.0,yes
88,2024-04-09_15h26.08.335,Experiment4_uns,s165,23.0,feminino,right,España,Catalán y castellano,Bachelor degree,no,no,A,1,what,L1,unsyncopated,s2,r1,88,Online_whatL1//d.ne.ni2.444.0.wav,ni,fa,ne,sil,pu,la,ze,sil2,ki,fo,sil1,['catch'],[1.0157000000476728],[1.0157000000476728],0.444,no_beat,0.5717000000476729,0.5717000000476729,"[""space""]",ne,4,testWhenL2Uns//r1.s1.1.wav,4.0,when,unsyncopated,a,s1,rule,rule,L2,z,0.4169,6.0,1.0,0.4988,3.0,3.0,Catalán,0.0,Castellano,0.0,Inglés,3.0,4.0,5.0,yes,no,yes,Flauta,6,,,Nada,62.0,yes
89,2024-04-09_15h26.08.335,Experiment4_uns,s165,23.0,feminino,right,España,Catalán y castellano,Bachelor degree,no,no,A,1,what,L1,unsyncopated,s2,r1,89,Online_whatL1//d.ne.ni1.none.none.wav,ze,lu,zu,sil,pu,fa,ri,sil2,ki,la,sil1,['-'],,,none,none,,,,ne,4,testWhenL2Uns//time_viol.r1.s1.0.wav,4.0,when,unsyncopated,a,s1,no_rule,time,L2,m,0.3671,4.0,0.0,1.2927,3.0,3.0,Catalán,0.0,Castellano,0.0,Inglés,3.0,4.0,5.0,yes,no,yes,Flauta,6,,,Nada,62.0,yes
90,2024-04-09_15h26.08.335,Experiment4_uns,s165,23.0,feminino,right,España,Catalán y castellano,Bachelor degree,no,no,A,1,what,L1,unsyncopated,s2,r1,90,Online_whatL1//d.ne.ni0.0.1332.wav,ne,zu,fo,sil2,pu,ni,cho,sil,ki,ro,sil1,['catch'],[0.5047000000477055],[0.5047000000477055],0.0,beat,0.5047000000477055,0.5047000000477055,"[""space""]",ne,4,testWhenL2Uns//cat_viol.r2.s1.0.wav,4.0,when,unsyncopated,b,s1,no_rule,cat,L2,m,3.4035,2.0,0.0,2.3912,3.0,3.0,Catalán,0.0,Castellano,0.0,Inglés,3.0,4.0,5.0,yes,no,yes,Flauta,6,,,Nada,62.0,yes
91,2024-04-09_15h26.08.335,Experiment4_uns,s165,23.0,feminino,right,España,Catalán y castellano,Bachelor degree,no,no,A,1,what,L1,unsyncopated,s2,r2,91,Online_whatL1//d.ne.ni3.none.none.wav,ro,lu,la,sil,ta,ri,fa,sil1,be,ze,sil2,['-'],,,none,none,,,,ne,4,testWhenL2Uns//r2.s2.2.wav,4.0,when,unsyncopated,b,s2,rule,rule,L2,z,0.2989,5.0,1.0,1.3649,3.0,3.0,Catalán,0.0,Castellano,0.0,Inglés,3.0,4.0,5.0,yes,no,yes,Flauta,6,,,Nada,62.0,yes
92,2024-04-09_15h26.08.335,Experiment4_uns,s165,23.0,feminino,right,España,Catalán y castellano,Bachelor degree,no,no,A,1,what,L1,unsyncopated,s2,r1,92,Online_whatL1//a.pu.ki12.1110.1998.wav,ni,zu,ro,sil2,pu,lu,ze,sil,ki,fa,sil1,['catch'],[2.4589999999999463],[2.4589999999999463],1.998,no_beat,0.4609999999999463,0.4609999999999463,"[""space""]",ki,2,testWhenL2Uns//dep_viol.r1.s2.0.wav,4.0,when,unsyncopated,a,s2,no_rule,dep,L2,m,0.8485,3.0,0.0,2.8647,3.0,3.0,Catalán,0.0,Castellano,0.0,Inglés,3.0,4.0,5.0,yes,no,yes,Flauta,6,,,Nada,62.0,yes
93,2024-04-09_15h26.08.335,Experiment4_uns,s165,23.0,feminino,right,España,Catalán y castellano,Bachelor degree,no,no,A,1,what,L1,unsyncopated,s2,r2,93,Online_whatL1//a.pu.ki13.none.none.wav,la,fa,ri,sil,ta,cho,ni,sil1,be,fo,sil2,['-'],,,none,none,,,,ki,2,testWhenL2Uns//cat_viol.r1.s1.0.wav,4.0,when,unsyncopated,a,s1,no_rule,cat,L2,m,0.7376,5.0,0.0,0.6564,3.0,3.0,Catalán,0.0,Castellano,0.0,Inglés,3.0,4.0,5.0,yes,no,yes,Flauta,6,,,Nada,62.0,yes
94,2024-04-09_15h26.08.335,Experiment4_uns,s165,23.0,feminino,right,España,Catalán y castellano,Bachelor degree,no,no,A,1,what,L1,unsyncopated,s2,r2,94,Online_whatL1//a.pu.ki15.none.none.wav,fo,ne,ro,sil2,ta,cho,lu,sil,be,ze,sil1,['-'],,,none,none,,,,ki,2,testWhenL2Uns//time_viol.r2.s2.0.wav,4.0,when,unsyncopated,b,s2,no_rule,time,L2,z,0.7855,5.0,1.0,0.991,3.0,3.0,Catalán,0.0,Castellano,0.0,Inglés,3.0,4.0,5.0,yes,no,yes,Flauta,6,,,Nada,62.0,yes
95,2024-04-09_15h26.08.335,Experiment4_uns,s165,23.0,feminino,right,España,Catalán y castellano,Bachelor degree,no,no,A,1,what,L1,unsyncopated,s2,r2,95,Online_whatL1//a.pu.ki14.none.none.wav,ni,ne,ze,sil2,ta,fa,ri,sil,be,ro,sil1,['-'],,,none,none,,,,ki,2,testWhenL2Uns//r1.s2.1.wav,4.0,when,unsyncopated,a,s2,rule,rule,L2,z,0.3485,6.0,1.0,0.9927,3.0,3.0,Catalán,0.0,Castellano,0.0,Inglés,3.0,4.0,5.0,yes,no,yes,Flauta,6,,,Nada,62.0,yes
96,2024-04-09_15h26.08.335,Experiment4_uns,s165,23.0,feminino,right,España,Catalán y castellano,Bachelor degree,no,no,A,1,what,L1,unsyncopated,s1,r2,96,Online_whatL1//c.ro.fo0.none.none.wav,ta,lu,ri,sil,be,ze,zu,sil2,ni,la,sil1,['-'],,,none,none,,,,ro,3,,,,,,,,,,,,,,,3.0,3.0,Catalán,0.0,Castellano,0.0,Inglés,3.0,4.0,5.0,yes,no,yes,Flauta,6,,,Nada,62.0,yes
97,2024-04-09_15h26.08.335,Experiment4_uns,s165,23.0,feminino,right,España,Catalán y castellano,Bachelor degree,no,no,A,1,what,L1,unsyncopated,s1,r2,97,Online_whatL1//c.ro.fo2.none.none.wav,ta,fa,ze,sil,be,ri,lu,sil1,ni,la,sil2,['-'],,,none,none,,,,ro,3,,,,,,,,,,,,,,,3.0,3.0,Catalán,0.0,Castellano,0.0,Inglés,3.0,4.0,5.0,yes,no,yes,Flauta,6,,,Nada,62.0,yes
98,2024-04-09_15h26.08.335,Experiment4_uns,s165,23.0,feminino,right,España,Catalán y castellano,Bachelor degree,no,no,A,1,what,L1,unsyncopated,s2,r2,98,Online_whatL1//c.ro.fo1.0.444.wav,ro,zu,fo,sil2,ta,ri,ne,sil,be,fa,sil1,['catch'],[0.5042000000477174],[0.5042000000477174],0.0,beat,0.5042000000477174,0.5042000000477174,"[""space""]",ro,3,,,,,,,,,,,,,,,3.0,3.0,Catalán,0.0,Castellano,0.0,Inglés,3.0,4.0,5.0,yes,no,yes,Flauta,6,,,Nada,62.0,yes
99,2024-04-09_15h26.08.335,Experiment4_uns,s165,23.0,feminino,right,España,Catalán y castellano,Bachelor degree,no,no,A,1,what,L1,unsyncopated,s1,r1,99,Online_whatL1//c.ro.fo3.1998.444.wav,pu,lu,fo,sil,ki,cho,fa,sil2,ro,ni,sil1,['catch_delay'],[0.8310000000000775],[0.8310000000000775],1.998,no_beat,0.8310000000000775,0.8310000000000775,,ro,3,,,,,,,,,,,,,,,3.0,3.0,Catalán,0.0,Castellano,0.0,Inglés,3.0,4.0,5.0,yes,no,yes,Flauta,6,,,Nada,62.0,yes
100,2024-04-09_15h26.08.335,Experiment4_uns,s165,23.0,feminino,right,España,Catalán y castellano,Bachelor degree,no,no,A,1,what,L1,unsyncopated,s1,r2,100,Online_whatL1//d.ne.ni29.none.none.wav,ta,la,zu,sil2,be,fo,ri,sil,fa,ro,sil1,['-'],[0.1650000000000773],[0.1650000000000773],none,none,,,"[""space""]",ne,4,,,,,,,,,,,,,,,3.0,3.0,Catalán,0.0,Castellano,0.0,Inglés,3.0,4.0,5.0,yes,no,yes,Flauta,6,,,Nada,62.0,yes
101,2024-04-09_15h26.08.335,Experiment4_uns,s165,23.0,feminino,right,España,Catalán y castellano,Bachelor degree,no,no,A,1,what,L1,unsyncopated,s1,r1,101,Online_whatL1//d.ne.ni28.1332.222.wav,pu,ni,lu,sil2,ki,ne,cho,sil,fo,zu,sil1,['catch'],[1.8250999999046371],[1.8250999999046371],1.332,no_beat,0.493099999904637,0.493099999904637,"[""space""]",ne,4,,,,,,,,,,,,,,,3.0,3.0,Catalán,0.0,Castellano,0.0,Inglés,3.0,4.0,5.0,yes,no,yes,Flauta,6,,,Nada,62.0,yes
102,2024-04-09_15h26.08.335,Experiment4_uns,s165,23.0,feminino,right,España,Catalán y castellano,Bachelor degree,no,no,A,1,what,L1,unsyncopated,s1,r2,102,Online_whatL1//d.ne.ni30.444.1332.wav,ta,lu,ne,sil,be,fo,ni,sil2,ro,cho,sil1,['miss'],,,0.444,no_beat,,,,ne,4,,,,,,,,,,,,,,,3.0,3.0,Catalán,0.0,Castellano,0.0,Inglés,3.0,4.0,5.0,yes,no,yes,Flauta,6,,,Nada,62.0,yes
103,2024-04-09_15h26.08.335,Experiment4_uns,s165,23.0,feminino,right,España,Catalán y castellano,Bachelor degree,no,no,A,1,what,L1,unsyncopated,s1,r1,103,Online_whatL1//d.ne.ni31.1998.1332.wav,pu,la,cho,sil2,ki,ni,lu,sil,ne,fa,sil1,['false alarm'],[1.7089999999999463],[1.7089999999999463],1.998,no_beat,,,"[""space""]",ne,4,,,,,,,,,,,,,,,3.0,3.0,Catalán,0.0,Castellano,0.0,Inglés,3.0,4.0,5.0,yes,no,yes,Flauta,6,,,Nada,62.0,yes
104,2024-04-09_15h26.08.335,Experiment4_uns,s165,23.0,feminino,right,España,Catalán y castellano,Bachelor degree,no,no,A,1,what,L1,unsyncopated,s2,r2,104,Online_whatL1//c.ro.fo23.none.none.wav,ne,ni,zu,sil,ta,lu,la,sil1,be,ri,sil2,['-'],,,none,none,,,,ro,3,,,,,,,,,,,,,,,3.0,3.0,Catalán,0.0,Castellano,0.0,Inglés,3.0,4.0,5.0,yes,no,yes,Flauta,6,,,Nada,62.0,yes
105,2024-04-09_15h26.08.335,Experiment4_uns,s165,23.0,feminino,right,España,Catalán y castellano,Bachelor degree,no,no,A,1,what,L1,unsyncopated,s2,r2,105,Online_whatL1//c.ro.fo22.0.1110.wav,ro,ne,zu,sil,ta,fo,cho,sil1,be,la,sil2,['catch'],[0.5539999999999736],[0.5539999999999736],0.0,beat,0.5539999999999736,0.5539999999999736,"[""space""]",ro,3,,,,,,,,,,,,,,,3.0,3.0,Catalán,0.0,Castellano,0.0,Inglés,3.0,4.0,5.0,yes,no,yes,Flauta,6,,,Nada,62.0,yes
106,2024-04-09_15h26.08.335,Experiment4_uns,s165,23.0,feminino,right,España,Catalán y castellano,Bachelor degree,no,no,A,1,what,L1,unsyncopated,s1,r1,106,Online_whatL1//c.ro.fo20.222.1332.wav,pu,ro,la,sil,ki,fa,fo,sil2,ni,ne,sil1,['catch'],[1.0546000001430684],[1.0546000001430684],0.222,no_beat,0.8326000001430685,0.8326000001430685,"[""space""]",ro,3,,,,,,,,,,,,,,,3.0,3.0,Catalán,0.0,Castellano,0.0,Inglés,3.0,4.0,5.0,yes,no,yes,Flauta,6,,,Nada,62.0,yes
107,2024-04-09_15h26.08.335,Experiment4_uns,s165,23.0,feminino,right,España,Catalán y castellano,Bachelor degree,no,no,A,1,what,L1,unsyncopated,s2,r1,107,Online_whatL1//c.ro.fo21.none.none.wav,ze,cho,ne,sil2,pu,ri,zu,sil,ki,fa,sil1,['-'],,,none,none,,,,ro,3,,,,,,,,,,,,,,,3.0,3.0,Catalán,0.0,Castellano,0.0,Inglés,3.0,4.0,5.0,yes,no,yes,Flauta,6,,,Nada,62.0,yes
108,2024-04-09_15h26.08.335,Experiment4_uns,s165,23.0,feminino,right,España,Catalán y castellano,Bachelor degree,no,no,A,1,what,L1,unsyncopated,s2,r1,108,Online_whatL1//c.ro.fo29.1332.222.wav,lu,fo,ni,sil2,pu,ro,la,sil,ki,ze,sil1,['catch'],[1.7997999999522563],[1.7997999999522563],1.332,no_beat,0.4677999999522562,0.4677999999522562,"[""space""]",ro,3,,,,,,,,,,,,,,,3.0,3.0,Catalán,0.0,Castellano,0.0,Inglés,3.0,4.0,5.0,yes,no,yes,Flauta,6,,,Nada,62.0,yes
109,2024-04-09_15h26.08.335,Experiment4_uns,s165,23.0,feminino,right,España,Catalán y castellano,Bachelor degree,no,no,A,1,what,L1,unsyncopated,s2,r2,109,Online_whatL1//c.ro.fo30.none.none.wav,ri,cho,ze,sil,ta,lu,zu,sil2,be,la,sil1,['-'],,,none,none,,,,ro,3,,,,,,,,,,,,,,,3.0,3.0,Catalán,0.0,Castellano,0.0,Inglés,3.0,4.0,5.0,yes,no,yes,Flauta,6,,,Nada,62.0,yes
110,2024-04-09_15h26.08.335,Experiment4_uns,s165,23.0,feminino,right,España,Catalán y castellano,Bachelor degree,no,no,A,1,what,L1,unsyncopated,s1,r1,110,Online_whatL1//c.ro.fo28.222.1332.wav,pu,ro,ni,sil2,ki,fo,cho,sil,zu,lu,sil1,['catch'],[1.120999999999981],[1.120999999999981],0.222,no_beat,0.8989999999999809,0.8989999999999809,"[""space""]",ro,3,,,,,,,,,,,,,,,3.0,3.0,Catalán,0.0,Castellano,0.0,Inglés,3.0,4.0,5.0,yes,no,yes,Flauta,6,,,Nada,62.0,yes
111,2024-04-09_15h26.08.335,Experiment4_uns,s165,23.0,feminino,right,España,Catalán y castellano,Bachelor degree,no,no,A,1,what,L1,unsyncopated,s2,r2,111,Online_whatL1//c.ro.fo31.none.none.wav,ze,zu,ne,sil,ta,la,ri,sil1,be,cho,sil2,['-'],,,none,none,,,,ro,3,,,,,,,,,,,,,,,3.0,3.0,Catalán,0.0,Castellano,0.0,Inglés,3.0,4.0,5.0,yes,no,yes,Flauta,6,,,Nada,62.0,yes
112,2024-04-09_15h26.08.335,Experiment4_uns,s165,23.0,feminino,right,España,Catalán y castellano,Bachelor degree,no,no,A,1,what,L1,unsyncopated,s2,r1,112,Online_whatL1//c.ro.fo17.444.0.wav,fo,lu,ro,sil,pu,zu,ne,sil1,ki,fa,sil2,['catch'],[1.2264999999999873],[1.2264999999999873],0.444,no_beat,0.7824999999999873,0.7824999999999873,"[""space""]",ro,3,,,,,,,,,,,,,,,3.0,3.0,Catalán,0.0,Castellano,0.0,Inglés,3.0,4.0,5.0,yes,no,yes,Flauta,6,,,Nada,62.0,yes
113,2024-04-09_15h26.08.335,Experiment4_uns,s165,23.0,feminino,right,España,Catalán y castellano,Bachelor degree,no,no,A,1,what,L1,unsyncopated,s2,r1,113,Online_whatL1//c.ro.fo16.222.444.wav,zu,ro,fo,sil,pu,lu,fa,sil2,ki,la,sil1,['miss'],,,0.222,no_beat,,,,ro,3,,,,,,,,,,,,,,,3.0,3.0,Catalán,0.0,Castellano,0.0,Inglés,3.0,4.0,5.0,yes,no,yes,Flauta,6,,,Nada,62.0,yes
114,2024-04-09_15h26.08.335,Experiment4_uns,s165,23.0,feminino,right,España,Catalán y castellano,Bachelor degree,no,no,A,1,what,L1,unsyncopated,s2,r1,114,Online_whatL1//c.ro.fo19.none.none.wav,fa,ri,zu,sil,pu,ze,cho,sil2,ki,ni,sil1,['-'],,,none,none,,,,ro,3,,,,,,,,,,,,,,,3.0,3.0,Catalán,0.0,Castellano,0.0,Inglés,3.0,4.0,5.0,yes,no,yes,Flauta,6,,,Nada,62.0,yes
115,2024-04-09_15h26.08.335,Experiment4_uns,s165,23.0,feminino,right,España,Catalán y castellano,Bachelor degree,no,no,A,1,what,L1,unsyncopated,s2,r1,115,Online_whatL1//c.ro.fo18.none.none.wav,ne,zu,la,sil2,pu,fa,ni,sil,ki,lu,sil1,['-'],,,none,none,,,,ro,3,,,,,,,,,,,,,,,3.0,3.0,Catalán,0.0,Castellano,0.0,Inglés,3.0,4.0,5.0,yes,no,yes,Flauta,6,,,Nada,62.0,yes
116,2024-04-09_15h26.08.335,Experiment4_uns,s165,23.0,feminino,right,España,Catalán y castellano,Bachelor degree,no,no,A,1,what,L1,unsyncopated,s1,r1,116,Online_whatL1//a.pu.ki31.0.888.wav,pu,la,lu,sil,ki,ro,zu,sil2,ne,cho,sil1,['catch'],[1.3395000000000437],[1.3395000000000437],0.888,beat,0.4515000000000436,0.4515000000000436,"[""space""]",ki,2,,,,,,,,,,,,,,,3.0,3.0,Catalán,0.0,Castellano,0.0,Inglés,3.0,4.0,5.0,yes,no,yes,Flauta,6,,,Nada,62.0,yes
117,2024-04-09_15h26.08.335,Experiment4_uns,s165,23.0,feminino,right,España,Catalán y castellano,Bachelor degree,no,no,A,1,what,L1,unsyncopated,s1,r2,117,Online_whatL1//a.pu.ki30.none.none.wav,ta,zu,cho,sil,be,ri,ni,sil2,ne,la,sil1,['-'],,,none,none,,,,ki,2,,,,,,,,,,,,,,,3.0,3.0,Catalán,0.0,Castellano,0.0,Inglés,3.0,4.0,5.0,yes,no,yes,Flauta,6,,,Nada,62.0,yes
118,2024-04-09_15h26.08.335,Experiment4_uns,s165,23.0,feminino,right,España,Catalán y castellano,Bachelor degree,no,no,A,1,what,L1,unsyncopated,s2,r1,118,Online_whatL1//a.pu.ki28.888.1776.wav,fo,ro,fa,sil,pu,ze,zu,sil1,ki,ni,sil2,['catch'],[2.414399999857096],[2.414399999857096],1.776,beat,0.6383999998570962,0.6383999998570962,"[""space""]",ki,2,,,,,,,,,,,,,,,3.0,3.0,Catalán,0.0,Castellano,0.0,Inglés,3.0,4.0,5.0,yes,no,yes,Flauta,6,,,Nada,62.0,yes
119,2024-04-09_15h26.08.335,Experiment4_uns,s165,23.0,feminino,right,España,Catalán y castellano,Bachelor degree,no,no,A,1,what,L1,unsyncopated,s2,r2,119,Online_whatL1//a.pu.ki29.none.none.wav,zu,lu,ne,sil,ta,ze,ni,sil1,be,ro,sil2,['-'],,,none,none,,,,ki,2,,,,,,,,,,,,,,,3.0,3.0,Catalán,0.0,Castellano,0.0,Inglés,3.0,4.0,5.0,yes,no,yes,Flauta,6,,,Nada,62.0,yes
120,2024-04-09_15h26.08.335,Experiment4_uns,s165,23.0,feminino,right,España,Catalán y castellano,Bachelor degree,no,no,A,1,what,L1,unsyncopated,s2,r2,120,Online_whatL1//a.pu.ki21.none.none.wav,ze,fo,ri,sil,ta,lu,cho,sil2,be,la,sil1,['-'],,,none,none,,,,ki,2,,,,,,,,,,,,,,,3.0,3.0,Catalán,0.0,Castellano,0.0,Inglés,3.0,4.0,5.0,yes,no,yes,Flauta,6,,,Nada,62.0,yes
121,2024-04-09_15h26.08.335,Experiment4_uns,s165,23.0,feminino,right,España,Catalán y castellano,Bachelor degree,no,no,A,1,what,L1,unsyncopated,s1,r1,121,Online_whatL1//a.pu.ki20.0.888.wav,pu,ze,ni,sil,ki,la,ne,sil2,zu,ro,sil1,['catch'],[1.3541000001430348],[1.3541000001430348],0.888,beat,0.4661000001430347,0.4661000001430347,"[""space""]",ki,2,,,,,,,,,,,,,,,3.0,3.0,Catalán,0.0,Castellano,0.0,Inglés,3.0,4.0,5.0,yes,no,yes,Flauta,6,,,Nada,62.0,yes
122,2024-04-09_15h26.08.335,Experiment4_uns,s165,23.0,feminino,right,España,Catalán y castellano,Bachelor degree,no,no,A,1,what,L1,unsyncopated,s1,r2,122,Online_whatL1//a.pu.ki22.none.none.wav,ta,ne,cho,sil2,be,ro,lu,sil,fa,fo,sil1,['-'],,,none,none,,,,ki,2,,,,,,,,,,,,,,,3.0,3.0,Catalán,0.0,Castellano,0.0,Inglés,3.0,4.0,5.0,yes,no,yes,Flauta,6,,,Nada,62.0,yes
123,2024-04-09_15h26.08.335,Experiment4_uns,s165,23.0,feminino,right,España,Catalán y castellano,Bachelor degree,no,no,A,1,what,L1,unsyncopated,s1,r2,123,Online_whatL1//a.pu.ki23.none.none.wav,ta,ne,la,sil2,be,fo,lu,sil,cho,ze,sil1,['-'],,,none,none,,,,ki,2,,,,,,,,,,,,,,,3.0,3.0,Catalán,0.0,Castellano,0.0,Inglés,3.0,4.0,5.0,yes,no,yes,Flauta,6,,,Nada,62.0,yes
124,2024-04-09_15h26.08.335,Experiment4_uns,s165,23.0,feminino,right,España,Catalán y castellano,Bachelor degree,no,no,A,1,what,L1,unsyncopated,s1,r2,124,Online_whatL1//c.ro.fo8.222.444.wav,ta,ro,fo,sil,be,ri,fa,sil2,cho,lu,sil1,['catch'],[0.7775999999046235],[0.7775999999046235],0.222,no_beat,0.5555999999046235,0.5555999999046235,"[""space""]",ro,3,,,,,,,,,,,,,,,3.0,3.0,Catalán,0.0,Castellano,0.0,Inglés,3.0,4.0,5.0,yes,no,yes,Flauta,6,,,Nada,62.0,yes
125,2024-04-09_15h26.08.335,Experiment4_uns,s165,23.0,feminino,right,España,Catalán y castellano,Bachelor degree,no,no,A,1,what,L1,unsyncopated,s1,r1,125,Online_whatL1//c.ro.fo11.none.none.wav,pu,la,fa,sil2,ki,ri,zu,sil,ni,ne,sil1,['-'],,,none,none,,,,ro,3,,,,,,,,,,,,,,,3.0,3.0,Catalán,0.0,Castellano,0.0,Inglés,3.0,4.0,5.0,yes,no,yes,Flauta,6,,,Nada,62.0,yes
126,2024-04-09_15h26.08.335,Experiment4_uns,s165,23.0,feminino,right,España,Catalán y castellano,Bachelor degree,no,no,A,1,what,L1,unsyncopated,s2,r2,126,Online_whatL1//c.ro.fo9.0.1110.wav,ro,lu,zu,sil,ta,fo,cho,sil2,be,ze,sil1,['catch'],[0.6817999999523181],[0.6817999999523181],0.0,beat,0.6817999999523181,0.6817999999523181,"[""space""]",ro,3,,,,,,,,,,,,,,,3.0,3.0,Catalán,0.0,Castellano,0.0,Inglés,3.0,4.0,5.0,yes,no,yes,Flauta,6,,,Nada,62.0,yes
127,2024-04-09_15h26.08.335,Experiment4_uns,s165,23.0,feminino,right,España,Catalán y castellano,Bachelor degree,no,no,A,1,what,L1,unsyncopated,s1,r1,127,Online_whatL1//c.ro.fo10.1332.444.wav,pu,fa,fo,sil,ki,ne,ro,sil1,ni,cho,sil2,['catch'],[1.909100000142871],[1.909100000142871],1.332,no_beat,0.577100000142871,0.577100000142871,"[""space""]",ro,3,,,,,,,,,,,,,,,3.0,3.0,Catalán,0.0,Castellano,0.0,Inglés,3.0,4.0,5.0,yes,no,yes,Flauta,6,,,Nada,62.0,yes
128,2024-04-09_15h26.08.335,Experiment4_uns,s165,23.0,feminino,right,España,Catalán y castellano,Bachelor degree,no,no,A,2,conjunction_syn,L3,syncopated,s2,r2,0,Online_conjL3_syn//d.ji.li29.none.none.wav,ka,gu,di,ñe,sil,ko,ga,sa,sil1,le,sil2,['-'],,,none,none,,,,ji,4,,,,,,,,,,,,,,,3.0,3.0,Catalán,0.0,Castellano,0.0,Inglés,3.0,4.0,5.0,yes,no,yes,Flauta,6,,,Nada,62.0,yes
129,2024-04-09_15h26.08.335,Experiment4_uns,s165,23.0,feminino,right,España,Catalán y castellano,Bachelor degree,no,no,A,2,conjunction_syn,L3,syncopated,s2,r2,1,Online_conjL3_syn//d.ji.li28.none.none.wav,fu,ka,ga,ñe,sil,di,gu,sa,sil1,je,sil2,['-'],,,none,none,,,,ji,4,,,,,,,,,,,,,,,3.0,3.0,Catalán,0.0,Castellano,0.0,Inglés,3.0,4.0,5.0,yes,no,yes,Flauta,6,,,Nada,62.0,yes
130,2024-04-09_15h26.08.335,Experiment4_uns,s165,23.0,feminino,right,España,Catalán y castellano,Bachelor degree,no,no,A,2,conjunction_syn,L3,syncopated,s1,r2,2,Online_conjL3_syn//d.ji.li30.none.none.wav,ñe,je,fu,sa,sil,ga,do,le,sil1,di,sil2,['-'],,,none,none,,,,ji,4,,,,,,,,,,,,,,,3.0,3.0,Catalán,0.0,Castellano,0.0,Inglés,3.0,4.0,5.0,yes,no,yes,Flauta,6,,,Nada,62.0,yes
131,2024-04-09_15h26.08.335,Experiment4_uns,s165,23.0,feminino,right,España,Catalán y castellano,Bachelor degree,no,no,A,2,conjunction_syn,L3,syncopated,s2,r1,3,Online_conjL3_syn//d.ji.li31.0.222.wav,ji,li,ko,chu,sil,do,ga,mo,sil1,je,sil2,['catch'],[0.6435999999046089],[0.6435999999046089],0.0,beat,0.6435999999046089,0.6435999999046089,"[""space""]",ji,4,,,,,,,,,,,,,,,3.0,3.0,Catalán,0.0,Castellano,0.0,Inglés,3.0,4.0,5.0,yes,no,yes,Flauta,6,,,Nada,62.0,yes
132,2024-04-09_15h26.08.335,Experiment4_uns,s165,23.0,feminino,right,España,Catalán y castellano,Bachelor degree,no,no,A,2,conjunction_syn,L3,syncopated,s1,r1,4,Online_conjL3_syn//b.ñe.sa28.none.none.wav,chu,ji,ga,mo,sil,fu,ka,di,sil1,gu,sil2,['-'],,,none,none,,,,ñe,1,,,,,,,,,,,,,,,3.0,3.0,Catalán,0.0,Castellano,0.0,Inglés,3.0,4.0,5.0,yes,no,yes,Flauta,6,,,Nada,62.0,yes
133,2024-04-09_15h26.08.335,Experiment4_uns,s165,23.0,feminino,right,España,Catalán y castellano,Bachelor degree,no,no,A,2,conjunction_syn,L3,syncopated,s2,r2,5,Online_conjL3_syn//b.ñe.sa29.666.1554.wav,je,do,ga,ñe,sil,li,ka,sa,sil1,gu,sil2,['miss'],,,0.666,no_beat,,,,ñe,1,,,,,,,,,,,,,,,3.0,3.0,Catalán,0.0,Castellano,0.0,Inglés,3.0,4.0,5.0,yes,no,yes,Flauta,6,,,Nada,62.0,yes
134,2024-04-09_15h26.08.335,Experiment4_uns,s165,23.0,feminino,right,España,Catalán y castellano,Bachelor degree,no,no,A,2,conjunction_syn,L3,syncopated,s1,r1,6,Online_conjL3_syn//b.ñe.sa30.none.none.wav,chu,ka,ji,mo,sil,je,gu,do,sil1,li,sil2,['-'],,,none,none,,,,ñe,1,,,,,,,,,,,,,,,3.0,3.0,Catalán,0.0,Castellano,0.0,Inglés,3.0,4.0,5.0,yes,no,yes,Flauta,6,,,Nada,62.0,yes
135,2024-04-09_15h26.08.335,Experiment4_uns,s165,23.0,feminino,right,España,Catalán y castellano,Bachelor degree,no,no,A,2,conjunction_syn,L3,syncopated,s1,r1,7,Online_conjL3_syn//b.ñe.sa31.none.none.wav,chu,fu,gu,mo,sil,le,ji,di,sil1,ka,sil2,['-'],,,none,none,,,,ñe,1,,,,,,,,,,,,,,,3.0,3.0,Catalán,0.0,Castellano,0.0,Inglés,3.0,4.0,5.0,yes,no,yes,Flauta,6,,,Nada,62.0,yes
136,2024-04-09_15h26.08.335,Experiment4_uns,s165,23.0,feminino,right,España,Catalán y castellano,Bachelor degree,no,no,A,2,conjunction_syn,L3,syncopated,s2,r1,8,Online_conjL3_syn//a.chu.mo6.666.1554.wav,ko,di,ga,chu,sil,li,gu,mo,sil1,do,sil2,['catch'],[2.270199999809165],[2.270199999809165],1.554,no_beat,0.716199999809165,0.716199999809165,"[""space""]",mo,2,,,,,,,,,,,,,,,3.0,3.0,Catalán,0.0,Castellano,0.0,Inglés,3.0,4.0,5.0,yes,no,yes,Flauta,6,,,Nada,62.0,yes
137,2024-04-09_15h26.08.335,Experiment4_uns,s165,23.0,feminino,right,España,Catalán y castellano,Bachelor degree,no,no,A,2,conjunction_syn,L3,syncopated,s2,r2,9,Online_conjL3_syn//a.chu.mo7.none.none.wav,ko,le,fu,ñe,sil,ka,gu,sa,sil1,do,sil2,['-'],,,none,none,,,,mo,2,,,,,,,,,,,,,,,3.0,3.0,Catalán,0.0,Castellano,0.0,Inglés,3.0,4.0,5.0,yes,no,yes,Flauta,6,,,Nada,62.0,yes
138,2024-04-09_15h26.08.335,Experiment4_uns,s165,23.0,feminino,right,España,Catalán y castellano,Bachelor degree,no,no,A,2,conjunction_syn,L3,syncopated,s2,r2,10,Online_conjL3_syn//a.chu.mo5.none.none.wav,fu,do,le,ñe,sil,di,ga,sa,sil1,ji,sil2,['-'],,,none,none,,,,mo,2,,,,,,,,,,,,,,,3.0,3.0,Catalán,0.0,Castellano,0.0,Inglés,3.0,4.0,5.0,yes,no,yes,Flauta,6,,,Nada,62.0,yes
139,2024-04-09_15h26.08.335,Experiment4_uns,s165,23.0,feminino,right,España,Catalán y castellano,Bachelor degree,no,no,A,2,conjunction_syn,L3,syncopated,s2,r2,11,Online_conjL3_syn//a.chu.mo4.none.none.wav,le,ji,gu,ñe,sil,li,ga,sa,sil1,ka,sil2,['-'],,,none,none,,,,mo,2,,,,,,,,,,,,,,,3.0,3.0,Catalán,0.0,Castellano,0.0,Inglés,3.0,4.0,5.0,yes,no,yes,Flauta,6,,,Nada,62.0,yes
140,2024-04-09_15h26.08.335,Experiment4_uns,s165,23.0,feminino,right,España,Catalán y castellano,Bachelor degree,no,no,A,2,conjunction_syn,L3,syncopated,s1,r2,12,Online_conjL3_syn//b.ñe.sa16.0.666.wav,ñe,ka,le,sa,sil,do,ga,ji,sil1,fu,sil2,['catch'],[0.7640999999046016],[0.7640999999046016],0.0,beat,0.7640999999046016,0.7640999999046016,"[""space""]",ñe,1,,,,,,,,,,,,,,,3.0,3.0,Catalán,0.0,Castellano,0.0,Inglés,3.0,4.0,5.0,yes,no,yes,Flauta,6,,,Nada,62.0,yes
141,2024-04-09_15h26.08.335,Experiment4_uns,s165,23.0,feminino,right,España,Catalán y castellano,Bachelor degree,no,no,A,2,conjunction_syn,L3,syncopated,s2,r2,13,Online_conjL3_syn//b.ñe.sa19.666.1554.wav,do,fu,le,ñe,sil,li,je,sa,sil1,ji,sil2,['catch'],[1.2072000000475782],[1.2072000000475782],0.666,no_beat,0.5412000000475782,0.5412000000475782,"[""space""]",ñe,1,,,,,,,,,,,,,,,3.0,3.0,Catalán,0.0,Castellano,0.0,Inglés,3.0,4.0,5.0,yes,no,yes,Flauta,6,,,Nada,62.0,yes
142,2024-04-09_15h26.08.335,Experiment4_uns,s165,23.0,feminino,right,España,Catalán y castellano,Bachelor degree,no,no,A,2,conjunction_syn,L3,syncopated,s1,r1,14,Online_conjL3_syn//b.ñe.sa18.none.none.wav,chu,li,ga,mo,sil,di,do,je,sil1,le,sil2,['-'],,,none,none,,,,ñe,1,,,,,,,,,,,,,,,3.0,3.0,Catalán,0.0,Castellano,0.0,Inglés,3.0,4.0,5.0,yes,no,yes,Flauta,6,,,Nada,62.0,yes
143,2024-04-09_15h26.08.335,Experiment4_uns,s165,23.0,feminino,right,España,Catalán y castellano,Bachelor degree,no,no,A,2,conjunction_syn,L3,syncopated,s2,r1,15,Online_conjL3_syn//b.ñe.sa17.none.none.wav,di,ka,le,chu,sil,ji,ga,mo,sil1,ko,sil2,['-'],,,none,none,,,,ñe,1,,,,,,,,,,,,,,,3.0,3.0,Catalán,0.0,Castellano,0.0,Inglés,3.0,4.0,5.0,yes,no,yes,Flauta,6,,,Nada,62.0,yes
144,2024-04-09_15h26.08.335,Experiment4_uns,s165,23.0,feminino,right,España,Catalán y castellano,Bachelor degree,no,no,A,2,conjunction_syn,L3,syncopated,s2,r2,16,Online_conjL3_syn//b.ñe.sa13.666.1554.wav,fu,li,ka,ñe,sil,ga,le,sa,sil1,je,sil2,['catch'],[1.23629999995228],[1.23629999995228],0.666,no_beat,0.5702999999522799,0.5702999999522799,"[""space""]",ñe,1,,,,,,,,,,,,,,,3.0,3.0,Catalán,0.0,Castellano,0.0,Inglés,3.0,4.0,5.0,yes,no,yes,Flauta,6,,,Nada,62.0,yes
145,2024-04-09_15h26.08.335,Experiment4_uns,s165,23.0,feminino,right,España,Catalán y castellano,Bachelor degree,no,no,A,2,conjunction_syn,L3,syncopated,s1,r2,17,Online_conjL3_syn//b.ñe.sa14.0.666.wav,ñe,ko,li,sa,sil,fu,je,gu,sil1,ga,sil2,['catch'],[0.5711999998093233],[0.5711999998093233],0.0,beat,0.5711999998093233,0.5711999998093233,"[""space""]",ñe,1,,,,,,,,,,,,,,,3.0,3.0,Catalán,0.0,Castellano,0.0,Inglés,3.0,4.0,5.0,yes,no,yes,Flauta,6,,,Nada,62.0,yes
146,2024-04-09_15h26.08.335,Experiment4_uns,s165,23.0,feminino,right,España,Catalán y castellano,Bachelor degree,no,no,A,2,conjunction_syn,L3,syncopated,s2,r1,18,Online_conjL3_syn//b.ñe.sa15.none.none.wav,di,gu,le,chu,sil,do,fu,mo,sil1,ji,sil2,['-'],,,none,none,,,,ñe,1,,,,,,,,,,,,,,,3.0,3.0,Catalán,0.0,Castellano,0.0,Inglés,3.0,4.0,5.0,yes,no,yes,Flauta,6,,,Nada,62.0,yes
147,2024-04-09_15h26.08.335,Experiment4_uns,s165,23.0,feminino,right,España,Catalán y castellano,Bachelor degree,no,no,A,2,conjunction_syn,L3,syncopated,s2,r1,19,Online_conjL3_syn//b.ñe.sa12.none.none.wav,ko,li,di,chu,sil,do,ga,mo,sil1,ka,sil2,['-'],,,none,none,,,,ñe,1,,,,,,,,,,,,,,,3.0,3.0,Catalán,0.0,Castellano,0.0,Inglés,3.0,4.0,5.0,yes,no,yes,Flauta,6,,,Nada,62.0,yes
148,2024-04-09_15h26.08.335,Experiment4_uns,s165,23.0,feminino,right,España,Catalán y castellano,Bachelor degree,no,no,A,2,conjunction_syn,L3,syncopated,s1,r2,20,Online_conjL3_syn//a.chu.mo12.none.none.wav,ñe,je,do,sa,sil,ka,le,ji,sil1,ga,sil2,['-'],,,none,none,,,,mo,2,,,,,,,,,,,,,,,3.0,3.0,Catalán,0.0,Castellano,0.0,Inglés,3.0,4.0,5.0,yes,no,yes,Flauta,6,,,Nada,62.0,yes
149,2024-04-09_15h26.08.335,Experiment4_uns,s165,23.0,feminino,right,España,Catalán y castellano,Bachelor degree,no,no,A,2,conjunction_syn,L3,syncopated,s1,r1,21,Online_conjL3_syn//a.chu.mo13.0.666.wav,chu,ji,fu,mo,sil,je,li,do,sil1,ka,sil2,['catch'],[1.1243999998571326],[1.1243999998571326],0.666,no_beat,0.4583999998571325,0.4583999998571325,"[""space""]",mo,2,,,,,,,,,,,,,,,3.0,3.0,Catalán,0.0,Castellano,0.0,Inglés,3.0,4.0,5.0,yes,no,yes,Flauta,6,,,Nada,62.0,yes
150,2024-04-09_15h26.08.335,Experiment4_uns,s165,23.0,feminino,right,España,Catalán y castellano,Bachelor degree,no,no,A,2,conjunction_syn,L3,syncopated,s1,r1,22,Online_conjL3_syn//a.chu.mo14.0.666.wav,chu,ka,li,mo,sil,ga,je,ji,sil1,do,sil2,['catch'],[1.8587000000477474],[1.8587000000477474],0.666,no_beat,1.1927000000477477,1.1927000000477477,"[""space""]",mo,2,,,,,,,,,,,,,,,3.0,3.0,Catalán,0.0,Castellano,0.0,Inglés,3.0,4.0,5.0,yes,no,yes,Flauta,6,,,Nada,62.0,yes
151,2024-04-09_15h26.08.335,Experiment4_uns,s165,23.0,feminino,right,España,Catalán y castellano,Bachelor degree,no,no,A,2,conjunction_syn,L3,syncopated,s1,r1,23,Online_conjL3_syn//a.chu.mo15.0.666.wav,chu,le,gu,mo,sil,do,li,ka,sil1,ji,sil2,['catch'],[1.227599999904669],[1.227599999904669],0.666,no_beat,0.5615999999046689,0.5615999999046689,"[""space""]",mo,2,,,,,,,,,,,,,,,3.0,3.0,Catalán,0.0,Castellano,0.0,Inglés,3.0,4.0,5.0,yes,no,yes,Flauta,6,,,Nada,62.0,yes
152,2024-04-09_15h26.08.335,Experiment4_uns,s165,23.0,feminino,right,España,Catalán y castellano,Bachelor degree,no,no,A,2,conjunction_syn,L3,syncopated,s1,r1,24,Online_conjL3_syn//d.ji.li1.1554.444.wav,chu,gu,li,mo,sil,ga,je,ji,sil1,do,sil2,['catch'],[2.1865000000000236],[2.1865000000000236],1.554,no_beat,0.6325000000000236,0.6325000000000236,"[""space""]",ji,4,,,,,,,,,,,,,,,3.0,3.0,Catalán,0.0,Castellano,0.0,Inglés,3.0,4.0,5.0,yes,no,yes,Flauta,6,,,Nada,62.0,yes
153,2024-04-09_15h26.08.335,Experiment4_uns,s165,23.0,feminino,right,España,Catalán y castellano,Bachelor degree,no,no,A,2,conjunction_syn,L3,syncopated,s2,r2,25,Online_conjL3_syn//d.ji.li2.1332.0.wav,li,fu,di,ñe,sil,gu,ji,sa,sil1,ko,sil2,['miss'],,,1.332,no_beat,,,,ji,4,,,,,,,,,,,,,,,3.0,3.0,Catalán,0.0,Castellano,0.0,Inglés,3.0,4.0,5.0,yes,no,yes,Flauta,6,,,Nada,62.0,yes
154,2024-04-09_15h26.08.335,Experiment4_uns,s165,23.0,feminino,right,España,Catalán y castellano,Bachelor degree,no,no,A,2,conjunction_syn,L3,syncopated,s1,r1,26,Online_conjL3_syn//d.ji.li0.none.none.wav,chu,ga,ko,mo,sil,do,le,gu,sil1,di,sil2,['-'],,,none,none,,,,ji,4,,,,,,,,,,,,,,,3.0,3.0,Catalán,0.0,Castellano,0.0,Inglés,3.0,4.0,5.0,yes,no,yes,Flauta,6,,,Nada,62.0,yes
155,2024-04-09_15h26.08.335,Experiment4_uns,s165,23.0,feminino,right,España,Catalán y castellano,Bachelor degree,no,no,A,2,conjunction_syn,L3,syncopated,s1,r2,27,Online_conjL3_syn//d.ji.li3.none.none.wav,ñe,ka,gu,sa,sil,ga,do,di,sil1,ko,sil2,['-'],,,none,none,,,,ji,4,,,,,,,,,,,,,,,3.0,3.0,Catalán,0.0,Castellano,0.0,Inglés,3.0,4.0,5.0,yes,no,yes,Flauta,6,,,Nada,62.0,yes
156,2024-04-09_15h26.08.335,Experiment4_uns,s165,23.0,feminino,right,España,Catalán y castellano,Bachelor degree,no,no,A,2,conjunction_syn,L3,syncopated,s2,r2,28,Online_conjL3_syn//d.ji.li17.1332.222.wav,fu,li,do,ñe,sil,di,ji,sa,sil1,je,sil2,['miss'],,,1.332,no_beat,,,,ji,4,,,,,,,,,,,,,,,3.0,3.0,Catalán,0.0,Castellano,0.0,Inglés,3.0,4.0,5.0,yes,no,yes,Flauta,6,,,Nada,62.0,yes
157,2024-04-09_15h26.08.335,Experiment4_uns,s165,23.0,feminino,right,España,Catalán y castellano,Bachelor degree,no,no,A,2,conjunction_syn,L3,syncopated,s1,r2,29,Online_conjL3_syn//d.ji.li16.none.none.wav,ñe,gu,le,sa,sil,do,ga,ko,sil1,fu,sil2,['-'],,,none,none,,,,ji,4,,,,,,,,,,,,,,,3.0,3.0,Catalán,0.0,Castellano,0.0,Inglés,3.0,4.0,5.0,yes,no,yes,Flauta,6,,,Nada,62.0,yes
158,2024-04-09_15h26.08.335,Experiment4_uns,s165,23.0,feminino,right,España,Catalán y castellano,Bachelor degree,no,no,A,2,conjunction_syn,L3,syncopated,s2,r2,30,Online_conjL3_syn//d.ji.li19.none.none.wav,je,le,ko,ñe,sil,ga,do,sa,sil1,gu,sil2,['-'],,,none,none,,,,ji,4,,,,,,,,,,,,,,,3.0,3.0,Catalán,0.0,Castellano,0.0,Inglés,3.0,4.0,5.0,yes,no,yes,Flauta,6,,,Nada,62.0,yes
159,2024-04-09_15h26.08.335,Experiment4_uns,s165,23.0,feminino,right,España,Catalán y castellano,Bachelor degree,no,no,A,2,conjunction_syn,L3,syncopated,s1,r1,31,Online_conjL3_syn//d.ji.li18.1554.444.wav,chu,ga,li,mo,sil,je,do,ji,sil1,fu,sil2,['catch'],[2.5765999999046016],[2.5765999999046016],1.554,no_beat,1.0225999999046016,1.0225999999046016,"[""space""]",ji,4,,,,,,,,,,,,,,,3.0,3.0,Catalán,0.0,Castellano,0.0,Inglés,3.0,4.0,5.0,yes,no,yes,Flauta,6,,,Nada,62.0,yes
160,2024-04-09_15h26.08.335,Experiment4_uns,s165,23.0,feminino,right,España,Catalán y castellano,Bachelor degree,no,no,A,2,conjunction_syn,L3,syncopated,s1,r1,32,Online_conjL3_syn//a.chu.mo25.0.666.wav,chu,gu,ko,mo,sil,do,ga,fu,sil1,li,sil2,['catch'],[1.336200000047711],[1.336200000047711],0.666,no_beat,0.670200000047711,0.670200000047711,"[""space""]",mo,2,,,,,,,,,,,,,,,3.0,3.0,Catalán,0.0,Castellano,0.0,Inglés,3.0,4.0,5.0,yes,no,yes,Flauta,6,,,Nada,62.0,yes
161,2024-04-09_15h26.08.335,Experiment4_uns,s165,23.0,feminino,right,España,Catalán y castellano,Bachelor degree,no,no,A,2,conjunction_syn,L3,syncopated,s2,r1,33,Online_conjL3_syn//a.chu.mo24.666.1554.wav,fu,je,gu,chu,sil,ga,ka,mo,sil1,le,sil2,['catch'],[1.994899999856898],[1.994899999856898],1.554,no_beat,0.4408999998568979,0.4408999998568979,"[""space""]",mo,2,,,,,,,,,,,,,,,3.0,3.0,Catalán,0.0,Castellano,0.0,Inglés,3.0,4.0,5.0,yes,no,yes,Flauta,6,,,Nada,62.0,yes
162,2024-04-09_15h26.08.335,Experiment4_uns,s165,23.0,feminino,right,España,Catalán y castellano,Bachelor degree,no,no,A,2,conjunction_syn,L3,syncopated,s2,r2,34,Online_conjL3_syn//a.chu.mo27.none.none.wav,ji,li,ko,ñe,sil,di,fu,sa,sil1,le,sil2,['-'],,,none,none,,,,mo,2,,,,,,,,,,,,,,,3.0,3.0,Catalán,0.0,Castellano,0.0,Inglés,3.0,4.0,5.0,yes,no,yes,Flauta,6,,,Nada,62.0,yes
163,2024-04-09_15h26.08.335,Experiment4_uns,s165,23.0,feminino,right,España,Catalán y castellano,Bachelor degree,no,no,A,2,conjunction_syn,L3,syncopated,s2,r2,35,Online_conjL3_syn//a.chu.mo26.none.none.wav,do,ga,fu,ñe,sil,ko,di,sa,sil1,le,sil2,['-'],,,none,none,,,,mo,2,,,,,,,,,,,,,,,3.0,3.0,Catalán,0.0,Castellano,0.0,Inglés,3.0,4.0,5.0,yes,no,yes,Flauta,6,,,Nada,62.0,yes
164,2024-04-09_15h26.08.335,Experiment4_uns,s165,23.0,feminino,right,España,Catalán y castellano,Bachelor degree,no,no,A,2,conjunction_syn,L3,syncopated,s2,r1,36,Online_conjL3_syn//d.ji.li11.1332.0.wav,li,gu,do,chu,sil,le,ji,mo,sil1,je,sil2,['miss'],,,1.332,no_beat,,,,ji,4,,,,,,,,,,,,,,,3.0,3.0,Catalán,0.0,Castellano,0.0,Inglés,3.0,4.0,5.0,yes,no,yes,Flauta,6,,,Nada,62.0,yes
165,2024-04-09_15h26.08.335,Experiment4_uns,s165,23.0,feminino,right,España,Catalán y castellano,Bachelor degree,no,no,A,2,conjunction_syn,L3,syncopated,s1,r1,37,Online_conjL3_syn//d.ji.li10.1554.444.wav,chu,je,li,mo,sil,do,fu,ji,sil1,ko,sil2,['catch'],[2.287200000047733],[2.287200000047733],1.554,no_beat,0.7332000000477328,0.7332000000477328,"[""space""]",ji,4,,,,,,,,,,,,,,,3.0,3.0,Catalán,0.0,Castellano,0.0,Inglés,3.0,4.0,5.0,yes,no,yes,Flauta,6,,,Nada,62.0,yes
166,2024-04-09_15h26.08.335,Experiment4_uns,s165,23.0,feminino,right,España,Catalán y castellano,Bachelor degree,no,no,A,2,conjunction_syn,L3,syncopated,s2,r2,38,Online_conjL3_syn//d.ji.li8.444.0.wav,li,fu,ji,ñe,sil,ko,je,sa,sil1,gu,sil2,['miss'],,,0.444,no_beat,,,,ji,4,,,,,,,,,,,,,,,3.0,3.0,Catalán,0.0,Castellano,0.0,Inglés,3.0,4.0,5.0,yes,no,yes,Flauta,6,,,Nada,62.0,yes
167,2024-04-09_15h26.08.335,Experiment4_uns,s165,23.0,feminino,right,España,Catalán y castellano,Bachelor degree,no,no,A,2,conjunction_syn,L3,syncopated,s2,r2,39,Online_conjL3_syn//d.ji.li9.none.none.wav,ka,le,do,ñe,sil,fu,ko,sa,sil1,je,sil2,['-'],,,none,none,,,,ji,4,,,,,,,,,,,,,,,3.0,3.0,Catalán,0.0,Castellano,0.0,Inglés,3.0,4.0,5.0,yes,no,yes,Flauta,6,,,Nada,62.0,yes
168,2024-04-09_15h26.08.335,Experiment4_uns,s165,23.0,feminino,right,España,Catalán y castellano,Bachelor degree,no,no,A,2,conjunction_syn,L3,syncopated,s2,r2,40,Online_conjL3_syn//a.chu.mo30.none.none.wav,fu,gu,ji,ñe,sil,li,do,sa,sil1,je,sil2,['-'],,,none,none,,,,mo,2,,,,,,,,,,,,,,,3.0,3.0,Catalán,0.0,Castellano,0.0,Inglés,3.0,4.0,5.0,yes,no,yes,Flauta,6,,,Nada,62.0,yes
169,2024-04-09_15h26.08.335,Experiment4_uns,s165,23.0,feminino,right,España,Catalán y castellano,Bachelor degree,no,no,A,2,conjunction_syn,L3,syncopated,s1,r1,41,Online_conjL3_syn//a.chu.mo31.0.666.wav,chu,ka,je,mo,sil,ga,di,gu,sil1,ko,sil2,['catch'],[1.1372999999521198],[1.1372999999521198],0.666,no_beat,0.4712999999521198,0.4712999999521198,"[""space""]",mo,2,,,,,,,,,,,,,,,3.0,3.0,Catalán,0.0,Castellano,0.0,Inglés,3.0,4.0,5.0,yes,no,yes,Flauta,6,,,Nada,62.0,yes
170,2024-04-09_15h26.08.335,Experiment4_uns,s165,23.0,feminino,right,España,Catalán y castellano,Bachelor degree,no,no,A,2,conjunction_syn,L3,syncopated,s1,r2,42,Online_conjL3_syn//a.chu.mo28.none.none.wav,ñe,ga,li,sa,sil,je,do,ko,sil1,ka,sil2,['-'],,,none,none,,,,mo,2,,,,,,,,,,,,,,,3.0,3.0,Catalán,0.0,Castellano,0.0,Inglés,3.0,4.0,5.0,yes,no,yes,Flauta,6,,,Nada,62.0,yes
171,2024-04-09_15h26.08.335,Experiment4_uns,s165,23.0,feminino,right,España,Catalán y castellano,Bachelor degree,no,no,A,2,conjunction_syn,L3,syncopated,s2,r2,43,Online_conjL3_syn//a.chu.mo29.none.none.wav,ji,ka,do,ñe,sil,gu,di,sa,sil1,ko,sil2,['-'],,,none,none,,,,mo,2,,,,,,,,,,,,,,,3.0,3.0,Catalán,0.0,Castellano,0.0,Inglés,3.0,4.0,5.0,yes,no,yes,Flauta,6,,,Nada,62.0,yes
172,2024-04-09_15h26.08.335,Experiment4_uns,s165,23.0,feminino,right,España,Catalán y castellano,Bachelor degree,no,no,A,2,conjunction_syn,L3,syncopated,s1,r2,44,Online_conjL3_syn//c.gu.je27.none.none.wav,ñe,li,fu,sa,sil,di,le,ko,sil1,ji,sil2,['-'],,,none,none,,,,gu,3,,,,,,,,,,,,,,,3.0,3.0,Catalán,0.0,Castellano,0.0,Inglés,3.0,4.0,5.0,yes,no,yes,Flauta,6,,,Nada,62.0,yes
173,2024-04-09_15h26.08.335,Experiment4_uns,s165,23.0,feminino,right,España,Catalán y castellano,Bachelor degree,no,no,A,2,conjunction_syn,L3,syncopated,s1,r1,45,Online_conjL3_syn//c.gu.je26.none.none.wav,chu,ji,do,mo,sil,ga,le,ko,sil1,ka,sil2,['-'],,,none,none,,,,gu,3,,,,,,,,,,,,,,,3.0,3.0,Catalán,0.0,Castellano,0.0,Inglés,3.0,4.0,5.0,yes,no,yes,Flauta,6,,,Nada,62.0,yes
174,2024-04-09_15h26.08.335,Experiment4_uns,s165,23.0,feminino,right,España,Catalán y castellano,Bachelor degree,no,no,A,2,conjunction_syn,L3,syncopated,s1,r1,46,Online_conjL3_syn//c.gu.je24.1554.1110.wav,chu,ji,ko,mo,sil,je,li,gu,sil1,ka,sil2,['catch'],[2.053900000095382],[2.053900000095382],1.554,no_beat,0.4999000000953819,0.4999000000953819,"[""space""]",gu,3,,,,,,,,,,,,,,,3.0,3.0,Catalán,0.0,Castellano,0.0,Inglés,3.0,4.0,5.0,yes,no,yes,Flauta,6,,,Nada,62.0,yes
175,2024-04-09_15h26.08.335,Experiment4_uns,s165,23.0,feminino,right,España,Catalán y castellano,Bachelor degree,no,no,A,2,conjunction_syn,L3,syncopated,s2,r2,47,Online_conjL3_syn//c.gu.je25.none.none.wav,fu,ka,di,ñe,sil,do,le,sa,sil1,ji,sil2,['-'],,,none,none,,,,gu,3,,,,,,,,,,,,,,,3.0,3.0,Catalán,0.0,Castellano,0.0,Inglés,3.0,4.0,5.0,yes,no,yes,Flauta,6,,,Nada,62.0,yes
176,2024-04-09_15h26.08.335,Experiment4_uns,s165,23.0,feminino,right,España,Catalán y castellano,Bachelor degree,no,no,A,2,conjunction_syn,L3,syncopated,s1,r2,48,Online_conjL3_syn//c.gu.je15.1554.444.wav,ñe,le,je,sa,sil,fu,do,gu,sil1,ga,sil2,['catch'],[2.2842000000475764],[2.2842000000475764],1.554,no_beat,0.7302000000475763,0.7302000000475763,"[""space""]",gu,3,,,,,,,,,,,,,,,3.0,3.0,Catalán,0.0,Castellano,0.0,Inglés,3.0,4.0,5.0,yes,no,yes,Flauta,6,,,Nada,62.0,yes
177,2024-04-09_15h26.08.335,Experiment4_uns,s165,23.0,feminino,right,España,Catalán y castellano,Bachelor degree,no,no,A,2,conjunction_syn,L3,syncopated,s1,r1,49,Online_conjL3_syn//c.gu.je13.none.none.wav,chu,le,ka,mo,sil,fu,ko,do,sil1,ji,sil2,['-'],,,none,none,,,,gu,3,,,,,,,,,,,,,,,3.0,3.0,Catalán,0.0,Castellano,0.0,Inglés,3.0,4.0,5.0,yes,no,yes,Flauta,6,,,Nada,62.0,yes
178,2024-04-09_15h26.08.335,Experiment4_uns,s165,23.0,feminino,right,España,Catalán y castellano,Bachelor degree,no,no,A,2,conjunction_syn,L3,syncopated,s2,r2,50,Online_conjL3_syn//c.gu.je12.none.none.wav,ka,ji,li,ñe,sil,do,ga,sa,sil1,fu,sil2,['-'],,,none,none,,,,gu,3,,,,,,,,,,,,,,,3.0,3.0,Catalán,0.0,Castellano,0.0,Inglés,3.0,4.0,5.0,yes,no,yes,Flauta,6,,,Nada,62.0,yes
179,2024-04-09_15h26.08.335,Experiment4_uns,s165,23.0,feminino,right,España,Catalán y castellano,Bachelor degree,no,no,A,2,conjunction_syn,L3,syncopated,s2,r1,51,Online_conjL3_syn//c.gu.je14.none.none.wav,ka,ko,ga,chu,sil,fu,do,mo,sil1,ji,sil2,['-'],,,none,none,,,,gu,3,,,,,,,,,,,,,,,3.0,3.0,Catalán,0.0,Castellano,0.0,Inglés,3.0,4.0,5.0,yes,no,yes,Flauta,6,,,Nada,62.0,yes
180,2024-04-09_15h26.08.335,Experiment4_uns,s165,23.0,feminino,right,España,Catalán y castellano,Bachelor degree,no,no,A,2,conjunction_syn,L3,syncopated,s2,r2,52,Online_conjL3_syn//c.gu.je19.none.none.wav,fu,le,li,ñe,sil,ji,ka,sa,sil1,di,sil2,['-'],,,none,none,,,,gu,3,,,,,,,,,,,,,,,3.0,3.0,Catalán,0.0,Castellano,0.0,Inglés,3.0,4.0,5.0,yes,no,yes,Flauta,6,,,Nada,62.0,yes
181,2024-04-09_15h26.08.335,Experiment4_uns,s165,23.0,feminino,right,España,Catalán y castellano,Bachelor degree,no,no,A,2,conjunction_syn,L3,syncopated,s2,r1,53,Online_conjL3_syn//c.gu.je18.1110.0.wav,je,di,ka,chu,sil,gu,ko,mo,sil1,li,sil2,['catch'],[1.9635000000000673],[1.9635000000000673],1.11,no_beat,0.8535000000000672,0.8535000000000672,"[""space""]",gu,3,,,,,,,,,,,,,,,3.0,3.0,Catalán,0.0,Castellano,0.0,Inglés,3.0,4.0,5.0,yes,no,yes,Flauta,6,,,Nada,62.0,yes
182,2024-04-09_15h26.08.335,Experiment4_uns,s165,23.0,feminino,right,España,Catalán y castellano,Bachelor degree,no,no,A,2,conjunction_syn,L3,syncopated,s2,r1,54,Online_conjL3_syn//c.gu.je16.1332.444.wav,fu,ga,je,chu,sil,do,gu,mo,sil1,ji,sil2,['miss'],,,1.332,no_beat,,,,gu,3,,,,,,,,,,,,,,,3.0,3.0,Catalán,0.0,Castellano,0.0,Inglés,3.0,4.0,5.0,yes,no,yes,Flauta,6,,,Nada,62.0,yes
183,2024-04-09_15h26.08.335,Experiment4_uns,s165,23.0,feminino,right,España,Catalán y castellano,Bachelor degree,no,no,A,2,conjunction_syn,L3,syncopated,s2,r2,55,Online_conjL3_syn//c.gu.je17.222.1110.wav,fu,gu,le,ñe,sil,je,ka,sa,sil1,ko,sil2,['catch'],[0.8070000000000164],[0.8070000000000164],0.222,no_beat,0.5850000000000164,0.5850000000000164,"[""space""]",gu,3,,,,,,,,,,,,,,,3.0,3.0,Catalán,0.0,Castellano,0.0,Inglés,3.0,4.0,5.0,yes,no,yes,Flauta,6,,,Nada,62.0,yes
184,2024-04-09_15h26.08.335,Experiment4_uns,s165,23.0,feminino,right,España,Catalán y castellano,Bachelor degree,no,no,A,2,conjunction_syn,L3,syncopated,s2,r2,56,Online_conjL3_syn//b.ñe.sa21.666.1554.wav,le,di,gu,ñe,sil,ga,je,sa,sil1,li,sil2,"['catch', 'false alarm']","[1.3152000000475255, 2.0171000001430457]",[1.3152000000475255],0.666,no_beat,0.6492000000475254,0.6492000000475254,"[""space"",""space""]",ñe,1,,,,,,,,,,,,,,,3.0,3.0,Catalán,0.0,Castellano,0.0,Inglés,3.0,4.0,5.0,yes,no,yes,Flauta,6,,,Nada,62.0,yes
185,2024-04-09_15h26.08.335,Experiment4_uns,s165,23.0,feminino,right,España,Catalán y castellano,Bachelor degree,no,no,A,2,conjunction_syn,L3,syncopated,s2,r1,57,Online_conjL3_syn//b.ñe.sa23.none.none.wav,ka,le,di,chu,sil,je,gu,mo,sil1,ji,sil2,['-'],,,none,none,,,,ñe,1,,,,,,,,,,,,,,,3.0,3.0,Catalán,0.0,Castellano,0.0,Inglés,3.0,4.0,5.0,yes,no,yes,Flauta,6,,,Nada,62.0,yes
186,2024-04-09_15h26.08.335,Experiment4_uns,s165,23.0,feminino,right,España,Catalán y castellano,Bachelor degree,no,no,A,2,conjunction_syn,L3,syncopated,s1,r1,58,Online_conjL3_syn//b.ñe.sa22.none.none.wav,chu,di,li,mo,sil,le,fu,gu,sil1,je,sil2,['-'],,,none,none,,,,ñe,1,,,,,,,,,,,,,,,3.0,3.0,Catalán,0.0,Castellano,0.0,Inglés,3.0,4.0,5.0,yes,no,yes,Flauta,6,,,Nada,62.0,yes
187,2024-04-09_15h26.08.335,Experiment4_uns,s165,23.0,feminino,right,España,Catalán y castellano,Bachelor degree,no,no,A,2,conjunction_syn,L3,syncopated,s2,r2,59,Online_conjL3_syn//b.ñe.sa20.666.1554.wav,le,di,ka,ñe,sil,li,je,sa,sil1,ko,sil2,['catch'],[1.221200000047702],[1.221200000047702],0.666,no_beat,0.5552000000477019,0.5552000000477019,"[""space""]",ñe,1,,,,,,,,,,,,,,,3.0,3.0,Catalán,0.0,Castellano,0.0,Inglés,3.0,4.0,5.0,yes,no,yes,Flauta,6,,,Nada,62.0,yes
188,2024-04-09_15h26.08.335,Experiment4_uns,s165,23.0,feminino,right,España,Catalán y castellano,Bachelor degree,no,no,A,2,conjunction_syn,L3,syncopated,s1,r2,60,Online_conjL3_syn//c.gu.je6.none.none.wav,ñe,di,ka,sa,sil,le,ko,do,sil1,ji,sil2,['-'],,,none,none,,,,gu,3,,,,,,,,,,,,,,,3.0,3.0,Catalán,0.0,Castellano,0.0,Inglés,3.0,4.0,5.0,yes,no,yes,Flauta,6,,,Nada,62.0,yes
189,2024-04-09_15h26.08.335,Experiment4_uns,s165,23.0,feminino,right,España,Catalán y castellano,Bachelor degree,no,no,A,2,conjunction_syn,L3,syncopated,s2,r2,61,Online_conjL3_syn//c.gu.je5.1332.222.wav,li,je,ko,ñe,sil,di,gu,sa,sil1,do,sil2,['catch'],[1.8620999999047854],[1.8620999999047854],1.332,no_beat,0.5300999999047853,0.5300999999047853,"[""space""]",gu,3,,,,,,,,,,,,,,,3.0,3.0,Catalán,0.0,Castellano,0.0,Inglés,3.0,4.0,5.0,yes,no,yes,Flauta,6,,,Nada,62.0,yes
190,2024-04-09_15h26.08.335,Experiment4_uns,s165,23.0,feminino,right,España,Catalán y castellano,Bachelor degree,no,no,A,2,conjunction_syn,L3,syncopated,s2,r2,62,Online_conjL3_syn//c.gu.je7.222.444.wav,ko,gu,je,ñe,sil,ji,fu,sa,sil1,ka,sil2,['catch'],[0.8377000000477892],[0.8377000000477892],0.222,no_beat,0.6157000000477892,0.6157000000477892,"[""space""]",gu,3,,,,,,,,,,,,,,,3.0,3.0,Catalán,0.0,Castellano,0.0,Inglés,3.0,4.0,5.0,yes,no,yes,Flauta,6,,,Nada,62.0,yes
191,2024-04-09_15h26.08.335,Experiment4_uns,s165,23.0,feminino,right,España,Catalán y castellano,Bachelor degree,no,no,A,2,conjunction_syn,L3,syncopated,s1,r2,63,Online_conjL3_syn//c.gu.je4.none.none.wav,ñe,ga,do,sa,sil,ji,ka,fu,sil1,li,sil2,['-'],,,none,none,,,,gu,3,,,,,,,,,,,,,,,3.0,3.0,Catalán,0.0,Castellano,0.0,Inglés,3.0,4.0,5.0,yes,no,yes,Flauta,6,,,Nada,62.0,yes
192,2024-04-09_15h26.08.335,Experiment4_uns,s165,23.0,feminino,right,España,Catalán y castellano,Bachelor degree,no,no,A,2,conjunction_syn,L3,syncopated,s2,r1,64,Online_conjL3_syn//c.gu.je9.1332.0.wav,je,le,ko,chu,sil,ka,gu,mo,sil1,ji,sil2,['catch'],[1.5837000000476564],[1.5837000000476564],1.332,no_beat,0.2517000000476563,0.2517000000476563,"[""space""]",gu,3,,,,,,,,,,,,,,,3.0,3.0,Catalán,0.0,Castellano,0.0,Inglés,3.0,4.0,5.0,yes,no,yes,Flauta,6,,,Nada,62.0,yes
193,2024-04-09_15h26.08.335,Experiment4_uns,s165,23.0,feminino,right,España,Catalán y castellano,Bachelor degree,no,no,A,2,conjunction_syn,L3,syncopated,s1,r1,65,Online_conjL3_syn//c.gu.je8.222.1110.wav,chu,gu,do,mo,sil,je,ga,ko,sil1,ka,sil2,['catch'],[0.8286999998092597],[0.8286999998092597],0.222,no_beat,0.6066999998092597,0.6066999998092597,"[""space""]",gu,3,,,,,,,,,,,,,,,3.0,3.0,Catalán,0.0,Castellano,0.0,Inglés,3.0,4.0,5.0,yes,no,yes,Flauta,6,,,Nada,62.0,yes
194,2024-04-09_15h26.08.335,Experiment4_uns,s165,23.0,feminino,right,España,Catalán y castellano,Bachelor degree,no,no,A,2,conjunction_syn,L3,syncopated,s1,r2,66,Online_conjL3_syn//c.gu.je11.222.1110.wav,ñe,gu,ka,sa,sil,je,fu,ji,sil1,le,sil2,['catch'],[0.9075000000000273],[0.9075000000000273],0.222,no_beat,0.6855000000000273,0.6855000000000273,"[""space""]",gu,3,,,,,,,,,,,,,,,3.0,3.0,Catalán,0.0,Castellano,0.0,Inglés,3.0,4.0,5.0,yes,no,yes,Flauta,6,,,Nada,62.0,yes
195,2024-04-09_15h26.08.335,Experiment4_uns,s165,23.0,feminino,right,España,Catalán y castellano,Bachelor degree,no,no,A,2,conjunction_syn,L3,syncopated,s1,r1,67,Online_conjL3_syn//c.gu.je10.none.none.wav,chu,di,do,mo,sil,ko,ga,ji,sil1,ka,sil2,['-'],,,none,none,,,,gu,3,,,,,,,,,,,,,,,3.0,3.0,Catalán,0.0,Castellano,0.0,Inglés,3.0,4.0,5.0,yes,no,yes,Flauta,6,,,Nada,62.0,yes
196,2024-04-09_15h26.08.335,Experiment4_uns,s165,23.0,feminino,right,España,Catalán y castellano,Bachelor degree,no,no,A,2,conjunction_syn,L3,syncopated,s1,r1,68,Online_conjL3_syn//b.ñe.sa26.none.none.wav,chu,ko,ji,mo,sil,ka,li,do,sil1,gu,sil2,['-'],,,none,none,,,,ñe,1,,,,,,,,,,,,,,,3.0,3.0,Catalán,0.0,Castellano,0.0,Inglés,3.0,4.0,5.0,yes,no,yes,Flauta,6,,,Nada,62.0,yes
197,2024-04-09_15h26.08.335,Experiment4_uns,s165,23.0,feminino,right,España,Catalán y castellano,Bachelor degree,no,no,A,2,conjunction_syn,L3,syncopated,s2,r1,69,Online_conjL3_syn//b.ñe.sa24.none.none.wav,ga,di,le,chu,sil,li,ka,mo,sil1,do,sil2,['-'],,,none,none,,,,ñe,1,,,,,,,,,,,,,,,3.0,3.0,Catalán,0.0,Castellano,0.0,Inglés,3.0,4.0,5.0,yes,no,yes,Flauta,6,,,Nada,62.0,yes
198,2024-04-09_15h26.08.335,Experiment4_uns,s165,23.0,feminino,right,España,Catalán y castellano,Bachelor degree,no,no,A,2,conjunction_syn,L3,syncopated,s1,r2,70,Online_conjL3_syn//b.ñe.sa25.0.666.wav,ñe,je,li,sa,sil,fu,le,ko,sil1,ji,sil2,['catch'],[0.54300000000012],[0.54300000000012],0.0,beat,0.54300000000012,0.54300000000012,"[""space""]",ñe,1,,,,,,,,,,,,,,,3.0,3.0,Catalán,0.0,Castellano,0.0,Inglés,3.0,4.0,5.0,yes,no,yes,Flauta,6,,,Nada,62.0,yes
199,2024-04-09_15h26.08.335,Experiment4_uns,s165,23.0,feminino,right,España,Catalán y castellano,Bachelor degree,no,no,A,2,conjunction_syn,L3,syncopated,s2,r1,71,Online_conjL3_syn//b.ñe.sa27.none.none.wav,ka,gu,je,chu,sil,ko,di,mo,sil1,li,sil2,['-'],,,none,none,,,,ñe,1,,,,,,,,,,,,,,,3.0,3.0,Catalán,0.0,Castellano,0.0,Inglés,3.0,4.0,5.0,yes,no,yes,Flauta,6,,,Nada,62.0,yes
200,2024-04-09_15h26.08.335,Experiment4_uns,s165,23.0,feminino,right,España,Catalán y castellano,Bachelor degree,no,no,A,2,conjunction_syn,L3,syncopated,s2,r2,72,Online_conjL3_syn//b.ñe.sa7.666.1554.wav,ji,je,ko,ñe,sil,gu,ga,sa,sil1,do,sil2,['catch'],[1.15300000000002],[1.15300000000002],0.666,no_beat,0.48700000000002,0.48700000000002,"[""space""]",ñe,1,,,,,,,,,,,,,,,3.0,3.0,Catalán,0.0,Castellano,0.0,Inglés,3.0,4.0,5.0,yes,no,yes,Flauta,6,,,Nada,62.0,yes
201,2024-04-09_15h26.08.335,Experiment4_uns,s165,23.0,feminino,right,España,Catalán y castellano,Bachelor degree,no,no,A,2,conjunction_syn,L3,syncopated,s2,r1,73,Online_conjL3_syn//b.ñe.sa6.none.none.wav,le,ka,ko,chu,sil,do,li,mo,sil1,gu,sil2,['-'],,,none,none,,,,ñe,1,,,,,,,,,,,,,,,3.0,3.0,Catalán,0.0,Castellano,0.0,Inglés,3.0,4.0,5.0,yes,no,yes,Flauta,6,,,Nada,62.0,yes
202,2024-04-09_15h26.08.335,Experiment4_uns,s165,23.0,feminino,right,España,Catalán y castellano,Bachelor degree,no,no,A,2,conjunction_syn,L3,syncopated,s2,r2,74,Online_conjL3_syn//b.ñe.sa4.666.1554.wav,li,di,ka,ñe,sil,do,gu,sa,sil1,ji,sil2,['catch'],[1.504200000047831],[1.504200000047831],0.666,no_beat,0.838200000047831,0.838200000047831,"[""space""]",ñe,1,,,,,,,,,,,,,,,3.0,3.0,Catalán,0.0,Castellano,0.0,Inglés,3.0,4.0,5.0,yes,no,yes,Flauta,6,,,Nada,62.0,yes
203,2024-04-09_15h26.08.335,Experiment4_uns,s165,23.0,feminino,right,España,Catalán y castellano,Bachelor degree,no,no,A,2,conjunction_syn,L3,syncopated,s2,r1,75,Online_conjL3_syn//b.ñe.sa5.none.none.wav,le,fu,do,chu,sil,li,ga,mo,sil1,ka,sil2,['-'],,,none,none,,,,ñe,1,,,,,,,,,,,,,,,3.0,3.0,Catalán,0.0,Castellano,0.0,Inglés,3.0,4.0,5.0,yes,no,yes,Flauta,6,,,Nada,62.0,yes
204,2024-04-09_15h26.08.335,Experiment4_uns,s165,23.0,feminino,right,España,Catalán y castellano,Bachelor degree,no,no,A,2,conjunction_syn,L3,syncopated,s2,r2,76,Online_conjL3_syn//d.ji.li22.0.1110.wav,ji,do,le,ñe,sil,li,ga,sa,sil1,je,sil2,['catch'],[0.9532000000476728],[0.9532000000476728],0.0,beat,0.9532000000476728,0.9532000000476728,"[""space""]",ji,4,,,,,,,,,,,,,,,3.0,3.0,Catalán,0.0,Castellano,0.0,Inglés,3.0,4.0,5.0,yes,no,yes,Flauta,6,,,Nada,62.0,yes
205,2024-04-09_15h26.08.335,Experiment4_uns,s165,23.0,feminino,right,España,Catalán y castellano,Bachelor degree,no,no,A,2,conjunction_syn,L3,syncopated,s2,r1,77,Online_conjL3_syn//d.ji.li20.none.none.wav,di,le,ko,chu,sil,ka,do,mo,sil1,gu,sil2,['-'],,,none,none,,,,ji,4,,,,,,,,,,,,,,,3.0,3.0,Catalán,0.0,Castellano,0.0,Inglés,3.0,4.0,5.0,yes,no,yes,Flauta,6,,,Nada,62.0,yes
206,2024-04-09_15h26.08.335,Experiment4_uns,s165,23.0,feminino,right,España,Catalán y castellano,Bachelor degree,no,no,A,2,conjunction_syn,L3,syncopated,s1,r2,78,Online_conjL3_syn//d.ji.li23.none.none.wav,ñe,ga,ko,sa,sil,fu,do,le,sil1,gu,sil2,['-'],,,none,none,,,,ji,4,,,,,,,,,,,,,,,3.0,3.0,Catalán,0.0,Castellano,0.0,Inglés,3.0,4.0,5.0,yes,no,yes,Flauta,6,,,Nada,62.0,yes
207,2024-04-09_15h26.08.335,Experiment4_uns,s165,23.0,feminino,right,España,Catalán y castellano,Bachelor degree,no,no,A,2,conjunction_syn,L3,syncopated,s2,r1,79,Online_conjL3_syn//d.ji.li21.none.none.wav,ko,gu,je,chu,sil,ka,ga,mo,sil1,di,sil2,['-'],,,none,none,,,,ji,4,,,,,,,,,,,,,,,3.0,3.0,Catalán,0.0,Castellano,0.0,Inglés,3.0,4.0,5.0,yes,no,yes,Flauta,6,,,Nada,62.0,yes
208,2024-04-09_15h26.08.335,Experiment4_uns,s165,23.0,feminino,right,España,Catalán y castellano,Bachelor degree,no,no,A,2,conjunction_syn,L3,syncopated,s1,r2,80,Online_conjL3_syn//a.chu.mo18.none.none.wav,ñe,ka,gu,sa,sil,ko,fu,je,sil1,ga,sil2,['-'],,,none,none,,,,mo,2,,,,,,,,,,,,,,,3.0,3.0,Catalán,0.0,Castellano,0.0,Inglés,3.0,4.0,5.0,yes,no,yes,Flauta,6,,,Nada,62.0,yes
209,2024-04-09_15h26.08.335,Experiment4_uns,s165,23.0,feminino,right,España,Catalán y castellano,Bachelor degree,no,no,A,2,conjunction_syn,L3,syncopated,s2,r1,81,Online_conjL3_syn//a.chu.mo16.666.1554.wav,li,je,fu,chu,sil,do,le,mo,sil1,ka,sil2,['catch'],[2.058299999952169],[2.058299999952169],1.554,no_beat,0.5042999999521689,0.5042999999521689,"[""space""]",mo,2,,,,,,,,,,,,,,,3.0,3.0,Catalán,0.0,Castellano,0.0,Inglés,3.0,4.0,5.0,yes,no,yes,Flauta,6,,,Nada,62.0,yes
210,2024-04-09_15h26.08.335,Experiment4_uns,s165,23.0,feminino,right,España,Catalán y castellano,Bachelor degree,no,no,A,2,conjunction_syn,L3,syncopated,s1,r2,82,Online_conjL3_syn//a.chu.mo17.none.none.wav,ñe,do,ga,sa,sil,fu,je,ji,sil1,ko,sil2,['-'],,,none,none,,,,mo,2,,,,,,,,,,,,,,,3.0,3.0,Catalán,0.0,Castellano,0.0,Inglés,3.0,4.0,5.0,yes,no,yes,Flauta,6,,,Nada,62.0,yes
211,2024-04-09_15h26.08.335,Experiment4_uns,s165,23.0,feminino,right,España,Catalán y castellano,Bachelor degree,no,no,A,2,conjunction_syn,L3,syncopated,s1,r2,83,Online_conjL3_syn//a.chu.mo19.none.none.wav,ñe,di,je,sa,sil,ga,do,fu,sil1,ji,sil2,['-'],,,none,none,,,,mo,2,,,,,,,,,,,,,,,3.0,3.0,Catalán,0.0,Castellano,0.0,Inglés,3.0,4.0,5.0,yes,no,yes,Flauta,6,,,Nada,62.0,yes
212,2024-04-09_15h26.08.335,Experiment4_uns,s165,23.0,feminino,right,España,Catalán y castellano,Bachelor degree,no,no,A,2,conjunction_syn,L3,syncopated,s2,r1,84,Online_conjL3_syn//d.ji.li25.none.none.wav,le,fu,ka,chu,sil,ga,je,mo,sil1,gu,sil2,['-'],,,none,none,,,,ji,4,,,,,,,,,,,,,,,3.0,3.0,Catalán,0.0,Castellano,0.0,Inglés,3.0,4.0,5.0,yes,no,yes,Flauta,6,,,Nada,62.0,yes
213,2024-04-09_15h26.08.335,Experiment4_uns,s165,23.0,feminino,right,España,Catalán y castellano,Bachelor degree,no,no,A,2,conjunction_syn,L3,syncopated,s1,r1,85,Online_conjL3_syn//d.ji.li27.none.none.wav,chu,je,ga,mo,sil,gu,do,le,sil1,ka,sil2,['-'],,,none,none,,,,ji,4,,,,,,,,,,,,,,,3.0,3.0,Catalán,0.0,Castellano,0.0,Inglés,3.0,4.0,5.0,yes,no,yes,Flauta,6,,,Nada,62.0,yes
214,2024-04-09_15h26.08.335,Experiment4_uns,s165,23.0,feminino,right,España,Catalán y castellano,Bachelor degree,no,no,A,2,conjunction_syn,L3,syncopated,s1,r2,86,Online_conjL3_syn//d.ji.li24.222.1110.wav,ñe,ji,ga,sa,sil,li,fu,ka,sil1,di,sil2,['catch'],[2.6077999999524764],[2.6077999999524764],0.222,no_beat,,2.3857999999524764,"[""space""]",ji,4,,,,,,,,,,,,,,,3.0,3.0,Catalán,0.0,Castellano,0.0,Inglés,3.0,4.0,5.0,yes,no,yes,Flauta,6,,,Nada,62.0,yes
215,2024-04-09_15h26.08.335,Experiment4_uns,s165,23.0,feminino,right,España,Catalán y castellano,Bachelor degree,no,no,A,2,conjunction_syn,L3,syncopated,s1,r2,87,Online_conjL3_syn//d.ji.li26.1554.222.wav,ñe,li,je,sa,sil,fu,ga,ji,sil1,ka,sil2,['catch'],[2.2138000001907585],[2.2138000001907585],1.554,no_beat,0.6598000001907585,0.6598000001907585,"[""space""]",ji,4,,,,,,,,,,,,,,,3.0,3.0,Catalán,0.0,Castellano,0.0,Inglés,3.0,4.0,5.0,yes,no,yes,Flauta,6,,,Nada,62.0,yes
216,2024-04-09_15h26.08.335,Experiment4_uns,s165,23.0,feminino,right,España,Catalán y castellano,Bachelor degree,no,no,A,2,conjunction_syn,L3,syncopated,s2,r1,88,Online_conjL3_syn//c.gu.je29.444.1110.wav,ji,li,gu,chu,sil,je,ko,mo,sil1,do,sil2,['catch'],[1.231899999856978],[1.231899999856978],0.444,no_beat,0.787899999856978,0.787899999856978,"[""space""]",gu,3,,,,,,,,,,,,,,,3.0,3.0,Catalán,0.0,Castellano,0.0,Inglés,3.0,4.0,5.0,yes,no,yes,Flauta,6,,,Nada,62.0,yes
217,2024-04-09_15h26.08.335,Experiment4_uns,s165,23.0,feminino,right,España,Catalán y castellano,Bachelor degree,no,no,A,2,conjunction_syn,L3,syncopated,s2,r1,89,Online_conjL3_syn//c.gu.je30.none.none.wav,fu,di,ga,chu,sil,ko,li,mo,sil1,ka,sil2,['-'],,,none,none,,,,gu,3,,,,,,,,,,,,,,,3.0,3.0,Catalán,0.0,Castellano,0.0,Inglés,3.0,4.0,5.0,yes,no,yes,Flauta,6,,,Nada,62.0,yes
218,2024-04-09_15h26.08.335,Experiment4_uns,s165,23.0,feminino,right,España,Catalán y castellano,Bachelor degree,no,no,A,2,conjunction_syn,L3,syncopated,s2,r1,90,Online_conjL3_syn//c.gu.je31.none.none.wav,do,li,ga,chu,sil,ka,ko,mo,sil1,fu,sil2,['-'],,,none,none,,,,gu,3,,,,,,,,,,,,,,,3.0,3.0,Catalán,0.0,Castellano,0.0,Inglés,3.0,4.0,5.0,yes,no,yes,Flauta,6,,,Nada,62.0,yes
219,2024-04-09_15h26.08.335,Experiment4_uns,s165,23.0,feminino,right,España,Catalán y castellano,Bachelor degree,no,no,A,2,conjunction_syn,L3,syncopated,s2,r1,91,Online_conjL3_syn//c.gu.je28.none.none.wav,ga,li,ka,chu,sil,di,ji,mo,sil1,do,sil2,['-'],,,none,none,,,,gu,3,,,,,,,,,,,,,,,3.0,3.0,Catalán,0.0,Castellano,0.0,Inglés,3.0,4.0,5.0,yes,no,yes,Flauta,6,,,Nada,62.0,yes
