Unnamed: 0,date,expName,participant,age,sex,hand,residence,native_lang,education_level,lang_deficit,aud_deficit,group,block,condition,language,rhythm,rule structure online,rule type online,order_trial_on,trial_online,s1,s2,s3,s4,s5,s6,s7,s8,s9,s10,s11,catch_syll_resp,rts_syll_catch,clean_rts,time_syll,beat_no_beat,catch_rtsTR,catch_rts,syllable_catch.keys,cond_syll,syll_to_catch,test_offline,block_off,condition_off,rhythm_off,rule,rule_str_off,rule_norule,conds_offline,language_off,Partz_no_partm.keys,Partz_no_partm.rt,security_1_7.keys,accuracy,security_1_7.rt,n_lang,n_lang_used,lang_1,age_l1,lang_2,age_l2,lang_3,age_l3,ability_learn_l2,tendence_mix_lan,music_experience,muisc_use,partiture,instr_1,age_M1,instr_2,age_M2,instr_4,preguntas_musica1,BMRQ_answer.response,final comment,BMRQ_Score,bilingual
0,2024-03-13_22h19.51.163,Unsyncopated_study3,s142,18.0,feminino,right,España,Castellano y Catalán,Upper secondary,no,no,B,1,what,L4,unsyncopated,s2,r2,0,Online_whatL4//d.pe.po27.222.444.wav,re,pe,po,sil2,ja,ña,ru,sil,nu,ci,sil1,['catch'],[1.7988000000007105],[1.7988000000007105],0.444,no_beat,,1.3548000000007103,"[""space""]",po,4,testWhatL4Uns//r2.s2.1.wav,1.0,what,unsyncopated,b,s2,rule,rule,L4,z,9.4343,6.0,1.0,2.5348,3.0,2.0,Castellano,0.0,Catalán,0.0,Inglés,12.0,4.0,4.0,no,no,no,Nada,,Nada,,   ,1. Cuando comparto música con alguien siento una complicidad especial con aquella persona.,3.0,"Ha estado bien aunque se me ha hecho bastante larga y repetitiva (aunque de eso trata), y debido a esto me he descentrado un par de veces que no han tenido apenas repercusión en mis respuestas. Gracias. ",73.0,yes
1,2024-03-13_22h19.51.163,Unsyncopated_study3,s142,18.0,feminino,right,España,Castellano y Catalán,Upper secondary,no,no,B,1,what,L4,unsyncopated,s1,r2,1,Online_whatL4//d.pe.po24.1110.1332.wav,ja,re,bu,sil,nu,pe,po,sil2,ci,ru,sil1,"['false alarm', 'catch']","[1.1067999999970652, 2.338699999999335]",[2.338699999999335],1.332,no_beat,1.006699999999335,1.006699999999335,"[""space"",""space""]",po,4,testWhatL4Uns//r1.s2.1.wav,1.0,what,unsyncopated,a,s2,rule,rule,L4,z,2.002,6.0,1.0,2.0229,3.0,2.0,Castellano,0.0,Catalán,0.0,Inglés,12.0,4.0,4.0,no,no,no,Nada,,Nada,,   ,2. En mi tiempo libre apenas escucho música.,5.0,"Ha estado bien aunque se me ha hecho bastante larga y repetitiva (aunque de eso trata), y debido a esto me he descentrado un par de veces que no han tenido apenas repercusión en mis respuestas. Gracias. ",73.0,yes
2,2024-03-13_22h19.51.163,Unsyncopated_study3,s142,18.0,feminino,right,España,Castellano y Catalán,Upper secondary,no,no,B,1,what,L4,unsyncopated,s2,r2,2,Online_whatL4//d.pe.po26.none.none.wav,ru,da,ñi,sil,ja,bu,re,sil1,nu,de,sil2,['-'],,,none,none,,,,po,4,testWhatL4Uns//r2.s1.1.wav,1.0,what,unsyncopated,b,s1,rule,rule,L4,z,1.2189,6.0,1.0,1.404,3.0,2.0,Castellano,0.0,Catalán,0.0,Inglés,12.0,4.0,4.0,no,no,no,Nada,,Nada,,   ,3. Algunas canciones me ponen los pelos de punta,4.0,"Ha estado bien aunque se me ha hecho bastante larga y repetitiva (aunque de eso trata), y debido a esto me he descentrado un par de veces que no han tenido apenas repercusión en mis respuestas. Gracias. ",73.0,yes
3,2024-03-13_22h19.51.163,Unsyncopated_study3,s142,18.0,feminino,right,España,Castellano y Catalán,Upper secondary,no,no,B,1,what,L4,unsyncopated,s1,r1,3,Online_whatL4//d.pe.po25.222.444.wav,zi,pe,po,sil2,lo,re,bu,sil,de,ru,sil1,['catch'],[1.1654999999999518],[1.1654999999999518],0.444,no_beat,0.7214999999999518,0.7214999999999518,"[""space""]",po,4,testWhatL4Uns//cat_viol.r1.s1.0.wav,1.0,what,unsyncopated,a,s1,no_rule,cat,L4,z,1.3399,7.0,0.0,1.8183,3.0,2.0,Castellano,0.0,Catalán,0.0,Inglés,12.0,4.0,4.0,no,no,no,Nada,,Nada,,   ,4. La música me hace compañía cuando estoy solo,3.0,"Ha estado bien aunque se me ha hecho bastante larga y repetitiva (aunque de eso trata), y debido a esto me he descentrado un par de veces que no han tenido apenas repercusión en mis respuestas. Gracias. ",73.0,yes
4,2024-03-13_22h19.51.163,Unsyncopated_study3,s142,18.0,feminino,right,España,Castellano y Catalán,Upper secondary,no,no,B,1,what,L4,unsyncopated,s1,r2,4,Online_whatL4//d.pe.po29.222.444.wav,ja,pe,po,sil2,nu,de,ñi,sil,ru,da,sil1,['catch'],[1.0737000000029866],[1.0737000000029866],0.444,no_beat,0.6297000000029866,0.6297000000029866,"[""space""]",po,4,testWhatL4Uns//time_viol.r2.s1.0.wav,1.0,what,unsyncopated,b,s1,no_rule,time,L4,m,2.5192,3.0,1.0,2.1109,3.0,2.0,Castellano,0.0,Catalán,0.0,Inglés,12.0,4.0,4.0,no,no,no,Nada,,Nada,,   ,5. No me apetece bailar ni con la música que más me gusta,5.0,"Ha estado bien aunque se me ha hecho bastante larga y repetitiva (aunque de eso trata), y debido a esto me he descentrado un par de veces que no han tenido apenas repercusión en mis respuestas. Gracias. ",73.0,yes
5,2024-03-13_22h19.51.163,Unsyncopated_study3,s142,18.0,feminino,right,España,Castellano y Catalán,Upper secondary,no,no,B,1,what,L4,unsyncopated,s2,r2,5,Online_whatL4//d.pe.po31.1554.0.wav,po,de,ña,sil2,ja,ci,pe,sil,nu,re,sil1,['catch'],[0.7543000000007396],[0.7543000000007396],0.0,beat,0.7543000000007396,0.7543000000007396,"[""space""]",po,4,testWhatL4Uns//r1.s1.1.wav,1.0,what,unsyncopated,a,s1,rule,rule,L4,z,2.8581,5.0,1.0,1.7207,3.0,2.0,Castellano,0.0,Catalán,0.0,Inglés,12.0,4.0,4.0,no,no,no,Nada,,Nada,,   ,6. La música me hace conectar con la gente,4.0,"Ha estado bien aunque se me ha hecho bastante larga y repetitiva (aunque de eso trata), y debido a esto me he descentrado un par de veces que no han tenido apenas repercusión en mis respuestas. Gracias. ",73.0,yes
6,2024-03-13_22h19.51.163,Unsyncopated_study3,s142,18.0,feminino,right,España,Castellano y Catalán,Upper secondary,no,no,B,1,what,L4,unsyncopated,s1,r1,6,Online_whatL4//d.pe.po28.none.none.wav,zi,ci,bu,sil,lo,ru,ñi,sil1,de,da,sil2,['-'],,,none,none,,,,po,4,testWhatL4Uns//time_viol.r1.s2.0.wav,1.0,what,unsyncopated,a,s2,no_rule,time,L4,m,3.6869,2.0,1.0,1.9237,3.0,2.0,Castellano,0.0,Catalán,0.0,Inglés,12.0,4.0,4.0,no,no,no,Nada,,Nada,,   ,7. Me informo sobre la música que me gusta.,2.0,"Ha estado bien aunque se me ha hecho bastante larga y repetitiva (aunque de eso trata), y debido a esto me he descentrado un par de veces que no han tenido apenas repercusión en mis respuestas. Gracias. ",73.0,yes
7,2024-03-13_22h19.51.163,Unsyncopated_study3,s142,18.0,feminino,right,España,Castellano y Catalán,Upper secondary,no,no,B,1,what,L4,unsyncopated,s1,r1,7,Online_whatL4//d.pe.po30.none.none.wav,zi,ci,ña,sil,lo,re,bu,sil2,ñi,de,sil1,['-'],,,none,none,,,,po,4,testWhatL4Uns//r2.s1.0.wav,1.0,what,unsyncopated,b,s1,rule,rule,L4,z,6.4954,4.0,1.0,2.9994,3.0,2.0,Castellano,0.0,Catalán,0.0,Inglés,12.0,4.0,4.0,no,no,no,Nada,,Nada,,   ,8.Me emociono escuchando ciertas canciones.,4.0,"Ha estado bien aunque se me ha hecho bastante larga y repetitiva (aunque de eso trata), y debido a esto me he descentrado un par de veces que no han tenido apenas repercusión en mis respuestas. Gracias. ",73.0,yes
8,2024-03-13_22h19.51.163,Unsyncopated_study3,s142,18.0,feminino,right,España,Castellano y Catalán,Upper secondary,no,no,B,1,what,L4,unsyncopated,s2,r2,8,Online_whatL4//a.zi.lo22.none.none.wav,ci,bu,da,sil,ja,re,ñi,sil1,nu,de,sil2,['-'],,,none,none,,,,zi,1,testWhatL4Uns//cat_viol.r1.s2.0.wav,1.0,what,unsyncopated,a,s2,no_rule,cat,L4,z,4.0842,3.0,0.0,3.8707,3.0,2.0,Castellano,0.0,Catalán,0.0,Inglés,12.0,4.0,4.0,no,no,no,Nada,,Nada,,   ,9.La música me tranquiliza y me relaja.,4.0,"Ha estado bien aunque se me ha hecho bastante larga y repetitiva (aunque de eso trata), y debido a esto me he descentrado un par de veces que no han tenido apenas repercusión en mis respuestas. Gracias. ",73.0,yes
9,2024-03-13_22h19.51.163,Unsyncopated_study3,s142,18.0,feminino,right,España,Castellano y Catalán,Upper secondary,no,no,B,1,what,L4,unsyncopated,s1,r1,9,Online_whatL4//a.zi.lo21.0.888.wav,zi,ru,ña,sil,lo,pe,po,sil1,re,bo,sil2,['catch'],[1.9871000000015329],[1.9871000000015329],0.0,beat,,1.9871000000015329,"[""space""]",zi,1,testWhatL4Uns//r2.s2.0.wav,1.0,what,unsyncopated,b,s2,rule,rule,L4,z,1.4711,5.0,1.0,1.2237,3.0,2.0,Castellano,0.0,Catalán,0.0,Inglés,12.0,4.0,4.0,no,no,no,Nada,,Nada,,   ,10.La música me hace bailar,4.0,"Ha estado bien aunque se me ha hecho bastante larga y repetitiva (aunque de eso trata), y debido a esto me he descentrado un par de veces que no han tenido apenas repercusión en mis respuestas. Gracias. ",73.0,yes
10,2024-03-13_22h19.51.163,Unsyncopated_study3,s142,18.0,feminino,right,España,Castellano y Catalán,Upper secondary,no,no,B,1,what,L4,unsyncopated,s2,r2,10,Online_whatL4//a.zi.lo23.none.none.wav,pe,ci,po,sil,ja,bu,de,sil2,nu,ñi,sil1,['-'],,,none,none,,,,zi,1,testWhatL4Uns//cat_viol.r2.s2.0.wav,1.0,what,unsyncopated,b,s2,no_rule,cat,L4,z,1.485,6.0,0.0,2.3882,3.0,2.0,Castellano,0.0,Catalán,0.0,Inglés,12.0,4.0,4.0,no,no,no,Nada,,Nada,,   ,11.Busco novedades musicales continuamente,4.0,"Ha estado bien aunque se me ha hecho bastante larga y repetitiva (aunque de eso trata), y debido a esto me he descentrado un par de veces que no han tenido apenas repercusión en mis respuestas. Gracias. ",73.0,yes
11,2024-03-13_22h19.51.163,Unsyncopated_study3,s142,18.0,feminino,right,España,Castellano y Catalán,Upper secondary,no,no,B,1,what,L4,unsyncopated,s2,r2,11,Online_whatL4//a.zi.lo20.none.none.wav,re,ña,ci,sil,ja,ñi,pe,sil1,nu,bo,sil2,['false alarm'],[1.2936000000014474],[1.2936000000014474],none,none,,,"[""space""]",zi,1,testWhatL4Uns//r1.s1.2.wav,1.0,what,unsyncopated,a,s1,rule,rule,L4,z,6.2513,4.0,1.0,1.6283,3.0,2.0,Castellano,0.0,Catalán,0.0,Inglés,12.0,4.0,4.0,no,no,no,Nada,,Nada,,   ,12. Puedo llorar cuando escucho algunas melodías que me gustan mucho.,4.0,"Ha estado bien aunque se me ha hecho bastante larga y repetitiva (aunque de eso trata), y debido a esto me he descentrado un par de veces que no han tenido apenas repercusión en mis respuestas. Gracias. ",73.0,yes
12,2024-03-13_22h19.51.163,Unsyncopated_study3,s142,18.0,feminino,right,España,Castellano y Catalán,Upper secondary,no,no,B,1,what,L4,unsyncopated,s1,r2,12,Online_whatL4//c.bu.da28.none.none.wav,ja,ña,bo,sil,nu,pe,ñi,sil1,re,de,sil2,['false alarm'],[1.9290999999977885],[1.9290999999977885],none,none,,,"[""space""]",da,3,testWhatL4Uns//time_viol.r1.s1.0.wav,1.0,what,unsyncopated,a,s1,no_rule,time,L4,z,4.2531,3.0,0.0,1.5382,3.0,2.0,Castellano,0.0,Catalán,0.0,Inglés,12.0,4.0,4.0,no,no,no,Nada,,Nada,,   ,13. Me gusta cantar o tocar un instrumento con más gente,2.0,"Ha estado bien aunque se me ha hecho bastante larga y repetitiva (aunque de eso trata), y debido a esto me he descentrado un par de veces que no han tenido apenas repercusión en mis respuestas. Gracias. ",73.0,yes
13,2024-03-13_22h19.51.163,Unsyncopated_study3,s142,18.0,feminino,right,España,Castellano y Catalán,Upper secondary,no,no,B,1,what,L4,unsyncopated,s2,r2,13,Online_whatL4//c.bu.da30.1554.0.wav,da,ña,re,sil2,ja,po,bu,sil,nu,ci,sil1,['miss'],,,0.0,beat,,,,da,3,testWhatL4Uns//dep_viol.r2.s2.0.wav,1.0,what,unsyncopated,b,s2,no_rule,dep,L4,z,1.2213,6.0,0.0,1.2504,3.0,2.0,Castellano,0.0,Catalán,0.0,Inglés,12.0,4.0,4.0,no,no,no,Nada,,Nada,,   ,14. La música me ayuda a desconectar.,4.0,"Ha estado bien aunque se me ha hecho bastante larga y repetitiva (aunque de eso trata), y debido a esto me he descentrado un par de veces que no han tenido apenas repercusión en mis respuestas. Gracias. ",73.0,yes
14,2024-03-13_22h19.51.163,Unsyncopated_study3,s142,18.0,feminino,right,España,Castellano y Catalán,Upper secondary,no,no,B,1,what,L4,unsyncopated,s2,r1,14,Online_whatL4//c.bu.da29.1110.0.wav,da,ru,pe,sil,zi,bu,ci,sil1,lo,de,sil2,['catch'],[0.7901999999992313],[0.7901999999992313],0.0,beat,0.7901999999992313,0.7901999999992313,"[""space""]",da,3,testWhatL4Uns//r1.s2.0.wav,1.0,what,unsyncopated,a,s2,rule,rule,L4,m,9.6538,3.0,0.0,1.6365,3.0,2.0,Castellano,0.0,Catalán,0.0,Inglés,12.0,4.0,4.0,no,no,no,Nada,,Nada,,   ,15. No puedo evitar tararear las canciones que me gustan cuando las escucho.,4.0,"Ha estado bien aunque se me ha hecho bastante larga y repetitiva (aunque de eso trata), y debido a esto me he descentrado un par de veces que no han tenido apenas repercusión en mis respuestas. Gracias. ",73.0,yes
15,2024-03-13_22h19.51.163,Unsyncopated_study3,s142,18.0,feminino,right,España,Castellano y Catalán,Upper secondary,no,no,B,1,what,L4,unsyncopated,s2,r2,15,Online_whatL4//c.bu.da31.222.444.wav,de,bu,da,sil,ja,ci,bo,sil2,nu,ña,sil1,['catch'],[1.4151000000014164],[1.4151000000014164],0.444,no_beat,0.9711000000014164,0.9711000000014164,"[""space""]",da,3,testWhatL4Uns//r1.s2.2.wav,1.0,what,unsyncopated,a,s2,rule,rule,L4,m,1.2157,6.0,0.0,1.8908,3.0,2.0,Castellano,0.0,Catalán,0.0,Inglés,12.0,4.0,4.0,no,no,no,Nada,,Nada,,   ,16. En los conciertos me siento en sintonía con los artistas y el público.,4.0,"Ha estado bien aunque se me ha hecho bastante larga y repetitiva (aunque de eso trata), y debido a esto me he descentrado un par de veces que no han tenido apenas repercusión en mis respuestas. Gracias. ",73.0,yes
16,2024-03-13_22h19.51.163,Unsyncopated_study3,s142,18.0,feminino,right,España,Castellano y Catalán,Upper secondary,no,no,B,1,what,L4,unsyncopated,s1,r1,16,Online_whatL4//c.bu.da21.none.none.wav,zi,ci,re,sil2,lo,ñi,de,sil,ña,bo,sil1,['-'],,,none,none,,,,da,3,testWhatL4Uns//r2.s2.2.wav,1.0,what,unsyncopated,b,s2,rule,rule,L4,z,4.9372,4.0,1.0,1.4194,3.0,2.0,Castellano,0.0,Catalán,0.0,Inglés,12.0,4.0,4.0,no,no,no,Nada,,Nada,,   ,17. Me gasto bastante dinero en música y cosas relacionadas con la música.,2.0,"Ha estado bien aunque se me ha hecho bastante larga y repetitiva (aunque de eso trata), y debido a esto me he descentrado un par de veces que no han tenido apenas repercusión en mis respuestas. Gracias. ",73.0,yes
17,2024-03-13_22h19.51.163,Unsyncopated_study3,s142,18.0,feminino,right,España,Castellano y Catalán,Upper secondary,no,no,B,1,what,L4,unsyncopated,s1,r1,17,Online_whatL4//c.bu.da22.none.none.wav,zi,de,ña,sil2,lo,re,ñi,sil,po,ru,sil1,['false alarm'],[0.1280999999978576],[0.1280999999978576],none,none,,,"[""space""]",da,3,testWhatL4Uns//dep_viol.r1.s1.0.wav,1.0,what,unsyncopated,a,s1,no_rule,dep,L4,z,4.9044,4.0,0.0,1.4201,3.0,2.0,Castellano,0.0,Catalán,0.0,Inglés,12.0,4.0,4.0,no,no,no,Nada,,Nada,,   ,18. Siento escalofríos cuando escucho una melodía que me gusta.,3.0,"Ha estado bien aunque se me ha hecho bastante larga y repetitiva (aunque de eso trata), y debido a esto me he descentrado un par de veces que no han tenido apenas repercusión en mis respuestas. Gracias. ",73.0,yes
18,2024-03-13_22h19.51.163,Unsyncopated_study3,s142,18.0,feminino,right,España,Castellano y Catalán,Upper secondary,no,no,B,1,what,L4,unsyncopated,s1,r1,18,Online_whatL4//c.bu.da23.none.none.wav,zi,pe,ru,sil,lo,re,po,sil2,ci,ña,sil1,['-'],,,none,none,,,,da,3,testWhatL4Uns//time_viol.r2.s2.0.wav,1.0,what,unsyncopated,b,s2,no_rule,time,L4,z,22.2502,5.0,0.0,1.5541,3.0,2.0,Castellano,0.0,Catalán,0.0,Inglés,12.0,4.0,4.0,no,no,no,Nada,,Nada,,   ,19. Con la música me puedo desahogar.,4.0,"Ha estado bien aunque se me ha hecho bastante larga y repetitiva (aunque de eso trata), y debido a esto me he descentrado un par de veces que no han tenido apenas repercusión en mis respuestas. Gracias. ",73.0,yes
19,2024-03-13_22h19.51.163,Unsyncopated_study3,s142,18.0,feminino,right,España,Castellano y Catalán,Upper secondary,no,no,B,1,what,L4,unsyncopated,s1,r2,19,Online_whatL4//c.bu.da20.1776.444.wav,ja,ci,da,sil,nu,po,ru,sil1,bu,de,sil2,['catch'],[1.5401000000014164],[1.5401000000014164],0.444,no_beat,1.0961000000014165,1.0961000000014165,"[""space""]",da,3,testWhatL4Uns//r1.s1.0.wav,1.0,what,unsyncopated,a,s1,rule,rule,L4,z,2.2014,5.0,1.0,1.3689,3.0,2.0,Castellano,0.0,Catalán,0.0,Inglés,12.0,4.0,4.0,no,no,no,Nada,,Nada,,   ,20. Cuando escucho una melodía que me gusta mucho no puedo evitar mover el cuerpo.,4.0,"Ha estado bien aunque se me ha hecho bastante larga y repetitiva (aunque de eso trata), y debido a esto me he descentrado un par de veces que no han tenido apenas repercusión en mis respuestas. Gracias. ",73.0,yes
20,2024-03-13_22h19.51.163,Unsyncopated_study3,s142,18.0,feminino,right,España,Castellano y Catalán,Upper secondary,no,no,B,1,what,L4,unsyncopated,s2,r1,20,Online_whatL4//a.zi.lo4.1110.1998.wav,ci,ñi,po,sil2,zi,bo,re,sil,lo,pe,sil1,['catch'],[2.1074000000021442],[2.1074000000021442],1.11,no_beat,0.997400000002144,0.997400000002144,"[""space""]",zi,1,testWhatL4Uns//dep_viol.r2.s1.0.wav,1.0,what,unsyncopated,b,s1,no_rule,dep,L4,z,11.8532,3.0,0.0,1.183,3.0,2.0,Castellano,0.0,Catalán,0.0,Inglés,12.0,4.0,4.0,no,no,no,Nada,,Nada,,   ,,,"Ha estado bien aunque se me ha hecho bastante larga y repetitiva (aunque de eso trata), y debido a esto me he descentrado un par de veces que no han tenido apenas repercusión en mis respuestas. Gracias. ",73.0,yes
21,2024-03-13_22h19.51.163,Unsyncopated_study3,s142,18.0,feminino,right,España,Castellano y Catalán,Upper secondary,no,no,B,1,what,L4,unsyncopated,s2,r1,21,Online_whatL4//a.zi.lo6.1110.1998.wav,pe,de,ñi,sil2,zi,ru,bu,sil,lo,ci,sil1,['catch'],[2.075999999999908],[2.075999999999908],1.11,no_beat,0.965999999999908,0.965999999999908,"[""space""]",zi,1,testWhatL4Uns//cat_viol.r2.s1.0.wav,1.0,what,unsyncopated,b,s1,no_rule,cat,L4,z,1.1364,6.0,0.0,0.9702,3.0,2.0,Castellano,0.0,Catalán,0.0,Inglés,12.0,4.0,4.0,no,no,no,Nada,,Nada,,   ,,,"Ha estado bien aunque se me ha hecho bastante larga y repetitiva (aunque de eso trata), y debido a esto me he descentrado un par de veces que no han tenido apenas repercusión en mis respuestas. Gracias. ",73.0,yes
22,2024-03-13_22h19.51.163,Unsyncopated_study3,s142,18.0,feminino,right,España,Castellano y Catalán,Upper secondary,no,no,B,1,what,L4,unsyncopated,s1,r2,22,Online_whatL4//a.zi.lo5.none.none.wav,ja,ci,bo,sil,nu,da,bu,sil1,ña,ru,sil2,['-'],,,none,none,,,,zi,1,testWhatL4Uns//dep_viol.r1.s2.0.wav,1.0,what,unsyncopated,a,s2,no_rule,dep,L4,m,3.2178,4.0,1.0,1.4559,3.0,2.0,Castellano,0.0,Catalán,0.0,Inglés,12.0,4.0,4.0,no,no,no,Nada,,Nada,,   ,,,"Ha estado bien aunque se me ha hecho bastante larga y repetitiva (aunque de eso trata), y debido a esto me he descentrado un par de veces que no han tenido apenas repercusión en mis respuestas. Gracias. ",73.0,yes
23,2024-03-13_22h19.51.163,Unsyncopated_study3,s142,18.0,feminino,right,España,Castellano y Catalán,Upper secondary,no,no,B,1,what,L4,unsyncopated,s2,r2,23,Online_whatL4//a.zi.lo7.none.none.wav,po,ci,ñi,sil2,ja,bo,de,sil,nu,ña,sil1,['-'],,,none,none,,,,zi,1,testWhatL4Uns//r2.s1.2.wav,1.0,what,unsyncopated,b,s1,rule,rule,L4,z,6.3564,3.0,1.0,1.2037,3.0,2.0,Castellano,0.0,Catalán,0.0,Inglés,12.0,4.0,4.0,no,no,no,Nada,,Nada,,   ,,,"Ha estado bien aunque se me ha hecho bastante larga y repetitiva (aunque de eso trata), y debido a esto me he descentrado un par de veces que no han tenido apenas repercusión en mis respuestas. Gracias. ",73.0,yes
24,2024-03-13_22h19.51.163,Unsyncopated_study3,s142,18.0,feminino,right,España,Castellano y Catalán,Upper secondary,no,no,B,1,what,L4,unsyncopated,s1,r1,24,Online_whatL4//b.ja.nu30.none.none.wav,zi,da,bu,sil2,lo,bo,po,sil,de,ñi,sil1,['false alarm'],[1.1324000000022352],[1.1324000000022352],none,none,,,"[""space""]",nu,2,testConjL2Syn//r1.s1.0.wav,2.0,conjunction_syn,syncopated,a,s1,rule,rule,L2,z,1.0872,5.0,1.0,1.8126,3.0,2.0,Castellano,0.0,Catalán,0.0,Inglés,12.0,4.0,4.0,no,no,no,Nada,,Nada,,   ,,,"Ha estado bien aunque se me ha hecho bastante larga y repetitiva (aunque de eso trata), y debido a esto me he descentrado un par de veces que no han tenido apenas repercusión en mis respuestas. Gracias. ",73.0,yes
25,2024-03-13_22h19.51.163,Unsyncopated_study3,s142,18.0,feminino,right,España,Castellano y Catalán,Upper secondary,no,no,B,1,what,L4,unsyncopated,s1,r2,25,Online_whatL4//b.ja.nu29.0.888.wav,ja,de,da,sil,nu,ñi,ru,sil1,ci,ña,sil2,['catch'],[1.714300000000776],[1.714300000000776],0.888,beat,0.826300000000776,0.826300000000776,"[""space""]",nu,2,testConjL2Syn//r1.s1.1.wav,2.0,conjunction_syn,syncopated,a,s1,rule,rule,L2,m,2.0555,3.0,0.0,0.8702,3.0,2.0,Castellano,0.0,Catalán,0.0,Inglés,12.0,4.0,4.0,no,no,no,Nada,,Nada,,   ,,,"Ha estado bien aunque se me ha hecho bastante larga y repetitiva (aunque de eso trata), y debido a esto me he descentrado un par de veces que no han tenido apenas repercusión en mis respuestas. Gracias. ",73.0,yes
26,2024-03-13_22h19.51.163,Unsyncopated_study3,s142,18.0,feminino,right,España,Castellano y Catalán,Upper secondary,no,no,B,1,what,L4,unsyncopated,s2,r1,26,Online_whatL4//b.ja.nu31.none.none.wav,bu,po,ru,sil2,zi,re,ña,sil,lo,de,sil1,['-'],,,none,none,,,,nu,2,testConjL2Syn//cat_viol.r2.s2.0.wav,2.0,conjunction_syn,syncopated,b,s2,no_rule,cat,L2,z,1.6509,3.0,0.0,0.8214,3.0,2.0,Castellano,0.0,Catalán,0.0,Inglés,12.0,4.0,4.0,no,no,no,Nada,,Nada,,   ,,,"Ha estado bien aunque se me ha hecho bastante larga y repetitiva (aunque de eso trata), y debido a esto me he descentrado un par de veces que no han tenido apenas repercusión en mis respuestas. Gracias. ",73.0,yes
27,2024-03-13_22h19.51.163,Unsyncopated_study3,s142,18.0,feminino,right,España,Castellano y Catalán,Upper secondary,no,no,B,1,what,L4,unsyncopated,s2,r1,27,Online_whatL4//b.ja.nu28.none.none.wav,de,ci,bu,sil,zi,bo,ña,sil2,lo,re,sil1,['-'],,,none,none,,,,nu,2,testConjL2Syn//r1.s2.0.wav,2.0,conjunction_syn,syncopated,a,s2,rule,rule,L2,m,1.6216,3.0,0.0,0.7339,3.0,2.0,Castellano,0.0,Catalán,0.0,Inglés,12.0,4.0,4.0,no,no,no,Nada,,Nada,,   ,,,"Ha estado bien aunque se me ha hecho bastante larga y repetitiva (aunque de eso trata), y debido a esto me he descentrado un par de veces que no han tenido apenas repercusión en mis respuestas. Gracias. ",73.0,yes
28,2024-03-13_22h19.51.163,Unsyncopated_study3,s142,18.0,feminino,right,España,Castellano y Catalán,Upper secondary,no,no,B,1,what,L4,unsyncopated,s1,r1,28,Online_whatL4//a.zi.lo16.0.888.wav,zi,ñi,bo,sil,lo,da,ña,sil1,ru,bu,sil2,['catch'],[1.0153999999985217],[1.0153999999985217],0.0,beat,1.0153999999985217,1.0153999999985217,"[""space""]",zi,1,testConjL2Syn//r2.s1.1.wav,2.0,conjunction_syn,syncopated,b,s1,rule,rule,L2,z,0.8999,5.0,1.0,0.6255,3.0,2.0,Castellano,0.0,Catalán,0.0,Inglés,12.0,4.0,4.0,no,no,no,Nada,,Nada,,   ,,,"Ha estado bien aunque se me ha hecho bastante larga y repetitiva (aunque de eso trata), y debido a esto me he descentrado un par de veces que no han tenido apenas repercusión en mis respuestas. Gracias. ",73.0,yes
29,2024-03-13_22h19.51.163,Unsyncopated_study3,s142,18.0,feminino,right,España,Castellano y Catalán,Upper secondary,no,no,B,1,what,L4,unsyncopated,s2,r1,29,Online_whatL4//a.zi.lo17.1110.1998.wav,po,pe,ru,sil2,zi,ci,re,sil,lo,ña,sil1,['catch'],[1.831800000000726],[1.831800000000726],1.11,no_beat,0.7218000000007259,0.7218000000007259,"[""space""]",zi,1,testConjL2Syn//r1.s2.2.wav,2.0,conjunction_syn,syncopated,a,s2,rule,rule,L2,z,1.4053,4.0,1.0,0.6358,3.0,2.0,Castellano,0.0,Catalán,0.0,Inglés,12.0,4.0,4.0,no,no,no,Nada,,Nada,,   ,,,"Ha estado bien aunque se me ha hecho bastante larga y repetitiva (aunque de eso trata), y debido a esto me he descentrado un par de veces que no han tenido apenas repercusión en mis respuestas. Gracias. ",73.0,yes
30,2024-03-13_22h19.51.163,Unsyncopated_study3,s142,18.0,feminino,right,España,Castellano y Catalán,Upper secondary,no,no,B,1,what,L4,unsyncopated,s1,r2,30,Online_whatL4//a.zi.lo18.none.none.wav,ja,de,da,sil,nu,ña,re,sil2,ci,ru,sil1,['-'],,,none,none,,,,zi,1,testConjL2Syn//time_viol.r2.s2.0.wav,2.0,conjunction_syn,syncopated,b,s2,no_rule,time,L2,z,5.9389,5.0,0.0,1.5422,3.0,2.0,Castellano,0.0,Catalán,0.0,Inglés,12.0,4.0,4.0,no,no,no,Nada,,Nada,,   ,,,"Ha estado bien aunque se me ha hecho bastante larga y repetitiva (aunque de eso trata), y debido a esto me he descentrado un par de veces que no han tenido apenas repercusión en mis respuestas. Gracias. ",73.0,yes
31,2024-03-13_22h19.51.163,Unsyncopated_study3,s142,18.0,feminino,right,España,Castellano y Catalán,Upper secondary,no,no,B,1,what,L4,unsyncopated,s2,r1,31,Online_whatL4//a.zi.lo19.888.1776.wav,da,ru,re,sil,zi,ña,po,sil1,lo,ci,sil2,"['false alarm', 'catch']","[0.22149999999999181, 1.7431000000015047]",[1.7431000000015047],0.888,beat,0.8551000000015047,0.8551000000015047,"[""space"",""space""]",zi,1,testConjL2Syn//r2.s2.1.wav,2.0,conjunction_syn,syncopated,b,s2,rule,rule,L2,m,0.8665,4.0,0.0,0.6058,3.0,2.0,Castellano,0.0,Catalán,0.0,Inglés,12.0,4.0,4.0,no,no,no,Nada,,Nada,,   ,,,"Ha estado bien aunque se me ha hecho bastante larga y repetitiva (aunque de eso trata), y debido a esto me he descentrado un par de veces que no han tenido apenas repercusión en mis respuestas. Gracias. ",73.0,yes
32,2024-03-13_22h19.51.163,Unsyncopated_study3,s142,18.0,feminino,right,España,Castellano y Catalán,Upper secondary,no,no,B,1,what,L4,unsyncopated,s1,r1,32,Online_whatL4//c.bu.da4.none.none.wav,zi,ru,de,sil2,lo,ci,po,sil,pe,bo,sil1,['-'],,,none,none,,,,da,3,testConjL2Syn//r2.s1.0.wav,2.0,conjunction_syn,syncopated,b,s1,rule,rule,L2,m,0.7659,4.0,0.0,0.568,3.0,2.0,Castellano,0.0,Catalán,0.0,Inglés,12.0,4.0,4.0,no,no,no,Nada,,Nada,,   ,,,"Ha estado bien aunque se me ha hecho bastante larga y repetitiva (aunque de eso trata), y debido a esto me he descentrado un par de veces que no han tenido apenas repercusión en mis respuestas. Gracias. ",73.0,yes
33,2024-03-13_22h19.51.163,Unsyncopated_study3,s142,18.0,feminino,right,España,Castellano y Catalán,Upper secondary,no,no,B,1,what,L4,unsyncopated,s1,r1,33,Online_whatL4//c.bu.da7.222.1332.wav,zi,bu,re,sil,lo,po,da,sil2,bo,ci,sil1,['catch'],[2.0751000000014983],[2.0751000000014983],1.332,no_beat,0.7431000000014982,0.7431000000014982,"[""space""]",da,3,testConjL2Syn//r2.s2.2.wav,2.0,conjunction_syn,syncopated,b,s2,rule,rule,L2,z,3.401,4.0,1.0,1.0699,3.0,2.0,Castellano,0.0,Catalán,0.0,Inglés,12.0,4.0,4.0,no,no,no,Nada,,Nada,,   ,,,"Ha estado bien aunque se me ha hecho bastante larga y repetitiva (aunque de eso trata), y debido a esto me he descentrado un par de veces que no han tenido apenas repercusión en mis respuestas. Gracias. ",73.0,yes
34,2024-03-13_22h19.51.163,Unsyncopated_study3,s142,18.0,feminino,right,España,Castellano y Catalán,Upper secondary,no,no,B,1,what,L4,unsyncopated,s1,r1,34,Online_whatL4//c.bu.da6.1110.1332.wav,zi,ña,ci,sil,lo,bu,da,sil1,pe,ñi,sil2,['catch'],[2.4431999999992513],[2.4431999999992513],1.332,no_beat,1.1111999999992512,1.1111999999992512,"[""space""]",da,3,testConjL2Syn//cat_viol.r1.s2.0.wav,2.0,conjunction_syn,syncopated,a,s2,no_rule,cat,L2,z,3.4501,4.0,0.0,1.685,3.0,2.0,Castellano,0.0,Catalán,0.0,Inglés,12.0,4.0,4.0,no,no,no,Nada,,Nada,,   ,,,"Ha estado bien aunque se me ha hecho bastante larga y repetitiva (aunque de eso trata), y debido a esto me he descentrado un par de veces que no han tenido apenas repercusión en mis respuestas. Gracias. ",73.0,yes
35,2024-03-13_22h19.51.163,Unsyncopated_study3,s142,18.0,feminino,right,España,Castellano y Catalán,Upper secondary,no,no,B,1,what,L4,unsyncopated,s1,r2,35,Online_whatL4//c.bu.da5.none.none.wav,ja,ci,ña,sil2,nu,bo,de,sil,ñi,re,sil1,['false alarm'],[1.3230999999976802],[1.3230999999976802],none,none,,,"[""space""]",da,3,testConjL2Syn//dep_viol.r1.s1.0.wav,2.0,conjunction_syn,syncopated,a,s1,no_rule,dep,L2,m,2.5538,4.0,1.0,1.0673,3.0,2.0,Castellano,0.0,Catalán,0.0,Inglés,12.0,4.0,4.0,no,no,no,Nada,,Nada,,   ,,,"Ha estado bien aunque se me ha hecho bastante larga y repetitiva (aunque de eso trata), y debido a esto me he descentrado un par de veces que no han tenido apenas repercusión en mis respuestas. Gracias. ",73.0,yes
36,2024-03-13_22h19.51.163,Unsyncopated_study3,s142,18.0,feminino,right,España,Castellano y Catalán,Upper secondary,no,no,B,1,what,L4,unsyncopated,s1,r2,36,Online_whatL4//b.ja.nu0.0.888.wav,ja,pe,da,sil,nu,po,ña,sil1,ci,de,sil2,['catch'],[1.7838000000007241],[1.7838000000007241],0.888,beat,0.8958000000007241,0.8958000000007241,"[""space""]",nu,2,testConjL2Syn//time_viol.r1.s2.0.wav,2.0,conjunction_syn,syncopated,a,s2,no_rule,time,L2,m,2.3523,5.0,1.0,0.605,3.0,2.0,Castellano,0.0,Catalán,0.0,Inglés,12.0,4.0,4.0,no,no,no,Nada,,Nada,,   ,,,"Ha estado bien aunque se me ha hecho bastante larga y repetitiva (aunque de eso trata), y debido a esto me he descentrado un par de veces que no han tenido apenas repercusión en mis respuestas. Gracias. ",73.0,yes
37,2024-03-13_22h19.51.163,Unsyncopated_study3,s142,18.0,feminino,right,España,Castellano y Catalán,Upper secondary,no,no,B,1,what,L4,unsyncopated,s2,r1,37,Online_whatL4//b.ja.nu1.none.none.wav,pe,re,de,sil2,zi,ñi,da,sil,lo,po,sil1,['-'],,,none,none,,,,nu,2,testConjL2Syn//r2.s1.2.wav,2.0,conjunction_syn,syncopated,b,s1,rule,rule,L2,z,3.192,4.0,1.0,1.19,3.0,2.0,Castellano,0.0,Catalán,0.0,Inglés,12.0,4.0,4.0,no,no,no,Nada,,Nada,,   ,,,"Ha estado bien aunque se me ha hecho bastante larga y repetitiva (aunque de eso trata), y debido a esto me he descentrado un par de veces que no han tenido apenas repercusión en mis respuestas. Gracias. ",73.0,yes
38,2024-03-13_22h19.51.163,Unsyncopated_study3,s142,18.0,feminino,right,España,Castellano y Catalán,Upper secondary,no,no,B,1,what,L4,unsyncopated,s2,r1,38,Online_whatL4//b.ja.nu2.none.none.wav,ña,re,ru,sil2,zi,de,bu,sil,lo,pe,sil1,['false alarm'],[1.3971999999992022],[1.3971999999992022],none,none,,,"[""space""]",nu,2,testConjL2Syn//dep_viol.r2.s2.0.wav,2.0,conjunction_syn,syncopated,b,s2,no_rule,dep,L2,m,1.3832,6.0,1.0,1.1923,3.0,2.0,Castellano,0.0,Catalán,0.0,Inglés,12.0,4.0,4.0,no,no,no,Nada,,Nada,,   ,,,"Ha estado bien aunque se me ha hecho bastante larga y repetitiva (aunque de eso trata), y debido a esto me he descentrado un par de veces que no han tenido apenas repercusión en mis respuestas. Gracias. ",73.0,yes
39,2024-03-13_22h19.51.163,Unsyncopated_study3,s142,18.0,feminino,right,España,Castellano y Catalán,Upper secondary,no,no,B,1,what,L4,unsyncopated,s1,r1,39,Online_whatL4//b.ja.nu3.none.none.wav,zi,ci,pe,sil,lo,da,bu,sil2,bo,re,sil1,['-'],,,none,none,,,,nu,2,testConjL2Syn//r1.s2.1.wav,2.0,conjunction_syn,syncopated,a,s2,rule,rule,L2,m,4.4216,3.0,0.0,1.255,3.0,2.0,Castellano,0.0,Catalán,0.0,Inglés,12.0,4.0,4.0,no,no,no,Nada,,Nada,,   ,,,"Ha estado bien aunque se me ha hecho bastante larga y repetitiva (aunque de eso trata), y debido a esto me he descentrado un par de veces que no han tenido apenas repercusión en mis respuestas. Gracias. ",73.0,yes
40,2024-03-13_22h19.51.163,Unsyncopated_study3,s142,18.0,feminino,right,España,Castellano y Catalán,Upper secondary,no,no,B,1,what,L4,unsyncopated,s2,r1,40,Online_whatL4//d.pe.po0.0.222.wav,pe,po,ru,sil,zi,ña,ñi,sil1,lo,bo,sil2,['catch'],[0.41030000000080236],[0.41030000000080236],0.222,no_beat,0.1883000000008023,0.1883000000008023,"[""space""]",po,4,testConjL2Syn//r1.s1.2.wav,2.0,conjunction_syn,syncopated,a,s1,rule,rule,L2,z,3.1985,4.0,1.0,1.0697,3.0,2.0,Castellano,0.0,Catalán,0.0,Inglés,12.0,4.0,4.0,no,no,no,Nada,,Nada,,   ,,,"Ha estado bien aunque se me ha hecho bastante larga y repetitiva (aunque de eso trata), y debido a esto me he descentrado un par de veces que no han tenido apenas repercusión en mis respuestas. Gracias. ",73.0,yes
41,2024-03-13_22h19.51.163,Unsyncopated_study3,s142,18.0,feminino,right,España,Castellano y Catalán,Upper secondary,no,no,B,1,what,L4,unsyncopated,s1,r1,41,Online_whatL4//d.pe.po2.none.none.wav,zi,de,ña,sil,lo,bo,da,sil2,re,ñi,sil1,['false alarm'],[1.7888000000007196],[1.7888000000007196],none,none,,,"[""space""]",po,4,testConjL2Syn//time_viol.r1.s1.0.wav,2.0,conjunction_syn,syncopated,a,s1,no_rule,time,L2,z,6.8721,2.0,0.0,1.3069,3.0,2.0,Castellano,0.0,Catalán,0.0,Inglés,12.0,4.0,4.0,no,no,no,Nada,,Nada,,   ,,,"Ha estado bien aunque se me ha hecho bastante larga y repetitiva (aunque de eso trata), y debido a esto me he descentrado un par de veces que no han tenido apenas repercusión en mis respuestas. Gracias. ",73.0,yes
42,2024-03-13_22h19.51.163,Unsyncopated_study3,s142,18.0,feminino,right,España,Castellano y Catalán,Upper secondary,no,no,B,1,what,L4,unsyncopated,s2,r1,42,Online_whatL4//d.pe.po1.none.none.wav,ña,ru,de,sil,zi,da,bo,sil1,lo,ñi,sil2,['false alarm'],[2.4610000000000127],[2.4610000000000127],none,none,,,"[""space""]",po,4,testConjL2Syn//cat_viol.r1.s1.0.wav,2.0,conjunction_syn,syncopated,a,s1,no_rule,cat,L2,m,0.4929,4.0,1.0,2.2018,3.0,2.0,Castellano,0.0,Catalán,0.0,Inglés,12.0,4.0,4.0,no,no,no,Nada,,Nada,,   ,,,"Ha estado bien aunque se me ha hecho bastante larga y repetitiva (aunque de eso trata), y debido a esto me he descentrado un par de veces que no han tenido apenas repercusión en mis respuestas. Gracias. ",73.0,yes
43,2024-03-13_22h19.51.163,Unsyncopated_study3,s142,18.0,feminino,right,España,Castellano y Catalán,Upper secondary,no,no,B,1,what,L4,unsyncopated,s1,r1,43,Online_whatL4//d.pe.po3.none.none.wav,zi,ci,ñi,sil2,lo,de,ña,sil,da,bu,sil1,['-'],,,none,none,,,,po,4,testConjL2Syn//time_viol.r2.s1.0.wav,2.0,conjunction_syn,syncopated,b,s1,no_rule,time,L2,z,2.8919,7.0,0.0,1.4536,3.0,2.0,Castellano,0.0,Catalán,0.0,Inglés,12.0,4.0,4.0,no,no,no,Nada,,Nada,,   ,,,"Ha estado bien aunque se me ha hecho bastante larga y repetitiva (aunque de eso trata), y debido a esto me he descentrado un par de veces que no han tenido apenas repercusión en mis respuestas. Gracias. ",73.0,yes
44,2024-03-13_22h19.51.163,Unsyncopated_study3,s142,18.0,feminino,right,España,Castellano y Catalán,Upper secondary,no,no,B,1,what,L4,unsyncopated,s2,r2,44,Online_whatL4//b.ja.nu26.888.1776.wav,da,ña,re,sil,ja,ci,bo,sil1,nu,bu,sil2,['miss'],,,1.776,beat,,,,nu,2,testConjL2Syn//dep_viol.r1.s2.0.wav,2.0,conjunction_syn,syncopated,a,s2,no_rule,dep,L2,z,5.7889,4.0,0.0,1.153,3.0,2.0,Castellano,0.0,Catalán,0.0,Inglés,12.0,4.0,4.0,no,no,no,Nada,,Nada,,   ,,,"Ha estado bien aunque se me ha hecho bastante larga y repetitiva (aunque de eso trata), y debido a esto me he descentrado un par de veces que no han tenido apenas repercusión en mis respuestas. Gracias. ",73.0,yes
45,2024-03-13_22h19.51.163,Unsyncopated_study3,s142,18.0,feminino,right,España,Castellano y Catalán,Upper secondary,no,no,B,1,what,L4,unsyncopated,s2,r2,45,Online_whatL4//b.ja.nu25.888.1998.wav,bu,ru,de,sil,ja,ñi,bo,sil2,nu,pe,sil1,['catch_delay'],[0.9254000000023017],[0.9254000000023017],1.998,no_beat,0.9254000000023016,0.9254000000023016,,nu,2,testConjL2Syn//cat_viol.r2.s1.0.wav,2.0,conjunction_syn,syncopated,b,s1,no_rule,cat,L2,m,7.0385,4.0,1.0,1.0573,3.0,2.0,Castellano,0.0,Catalán,0.0,Inglés,12.0,4.0,4.0,no,no,no,Nada,,Nada,,   ,,,"Ha estado bien aunque se me ha hecho bastante larga y repetitiva (aunque de eso trata), y debido a esto me he descentrado un par de veces que no han tenido apenas repercusión en mis respuestas. Gracias. ",73.0,yes
46,2024-03-13_22h19.51.163,Unsyncopated_study3,s142,18.0,feminino,right,España,Castellano y Catalán,Upper secondary,no,no,B,1,what,L4,unsyncopated,s1,r2,46,Online_whatL4//b.ja.nu27.0.888.wav,ja,de,re,sil,nu,ci,pe,sil1,po,ñi,sil2,['catch'],"[0.25940000000230157, 2.441500000000019]",[2.441500000000019],0.888,beat,,1.5535000000000192,"[""space"",""space""]",nu,2,testConjL2Syn//dep_viol.r2.s1.0.wav,2.0,conjunction_syn,syncopated,b,s1,no_rule,dep,L2,z,3.907,4.0,0.0,0.6257,3.0,2.0,Castellano,0.0,Catalán,0.0,Inglés,12.0,4.0,4.0,no,no,no,Nada,,Nada,,   ,,,"Ha estado bien aunque se me ha hecho bastante larga y repetitiva (aunque de eso trata), y debido a esto me he descentrado un par de veces que no han tenido apenas repercusión en mis respuestas. Gracias. ",73.0,yes
47,2024-03-13_22h19.51.163,Unsyncopated_study3,s142,18.0,feminino,right,España,Castellano y Catalán,Upper secondary,no,no,B,1,what,L4,unsyncopated,s2,r2,47,Online_whatL4//b.ja.nu24.888.1998.wav,ñi,ru,bo,sil,ja,po,de,sil2,nu,da,sil1,['catch_delay'],[0.835099999997684],[0.835099999997684],1.998,no_beat,0.835099999997684,0.835099999997684,,nu,2,testConjL2Syn//r2.s2.0.wav,2.0,conjunction_syn,syncopated,b,s2,rule,rule,L2,m,3.5998,4.0,0.0,1.0873,3.0,2.0,Castellano,0.0,Catalán,0.0,Inglés,12.0,4.0,4.0,no,no,no,Nada,,Nada,,   ,,,"Ha estado bien aunque se me ha hecho bastante larga y repetitiva (aunque de eso trata), y debido a esto me he descentrado un par de veces que no han tenido apenas repercusión en mis respuestas. Gracias. ",73.0,yes
48,2024-03-13_22h19.51.163,Unsyncopated_study3,s142,18.0,feminino,right,España,Castellano y Catalán,Upper secondary,no,no,B,1,what,L4,unsyncopated,s2,r2,48,Online_whatL4//a.zi.lo11.none.none.wav,ru,po,re,sil,ja,bo,ña,sil1,nu,de,sil2,['-'],[0.16909999999768388],[0.16909999999768388],none,none,,,"[""space""]",zi,1,testWhenL1Uns//r1.s2.2.wav,3.0,when,unsyncopated,a,s2,rule,rule,L1,z,1.7432,4.0,1.0,1.108,3.0,2.0,Castellano,0.0,Catalán,0.0,Inglés,12.0,4.0,4.0,no,no,no,Nada,,Nada,,   ,,,"Ha estado bien aunque se me ha hecho bastante larga y repetitiva (aunque de eso trata), y debido a esto me he descentrado un par de veces que no han tenido apenas repercusión en mis respuestas. Gracias. ",73.0,yes
49,2024-03-13_22h19.51.163,Unsyncopated_study3,s142,18.0,feminino,right,España,Castellano y Catalán,Upper secondary,no,no,B,1,what,L4,unsyncopated,s2,r2,49,Online_whatL4//a.zi.lo9.none.none.wav,pe,bu,ñi,sil2,ja,re,de,sil,nu,ña,sil1,['-'],,,none,none,,,,zi,1,testWhenL1Uns//r2.s1.1.wav,3.0,when,unsyncopated,b,s1,rule,rule,L1,z,0.6382,4.0,1.0,0.7074,3.0,2.0,Castellano,0.0,Catalán,0.0,Inglés,12.0,4.0,4.0,no,no,no,Nada,,Nada,,   ,,,"Ha estado bien aunque se me ha hecho bastante larga y repetitiva (aunque de eso trata), y debido a esto me he descentrado un par de veces que no han tenido apenas repercusión en mis respuestas. Gracias. ",73.0,yes
50,2024-03-13_22h19.51.163,Unsyncopated_study3,s142,18.0,feminino,right,España,Castellano y Catalán,Upper secondary,no,no,B,1,what,L4,unsyncopated,s2,r1,50,Online_whatL4//a.zi.lo10.888.1776.wav,ña,ci,de,sil,zi,bu,re,sil1,lo,ñi,sil2,['catch'],[0.9595999999977494],[0.9595999999977494],0.888,beat,0.0715999999977493,0.0715999999977493,"[""space""]",zi,1,testWhenL1Uns//r1.s2.0.wav,3.0,when,unsyncopated,a,s2,rule,rule,L1,m,0.7896,3.0,0.0,0.7267,3.0,2.0,Castellano,0.0,Catalán,0.0,Inglés,12.0,4.0,4.0,no,no,no,Nada,,Nada,,   ,,,"Ha estado bien aunque se me ha hecho bastante larga y repetitiva (aunque de eso trata), y debido a esto me he descentrado un par de veces que no han tenido apenas repercusión en mis respuestas. Gracias. ",73.0,yes
51,2024-03-13_22h19.51.163,Unsyncopated_study3,s142,18.0,feminino,right,España,Castellano y Catalán,Upper secondary,no,no,B,1,what,L4,unsyncopated,s1,r2,51,Online_whatL4//a.zi.lo8.none.none.wav,ja,bo,ña,sil2,nu,po,pe,sil,de,ñi,sil1,['-'],,,none,none,,,,zi,1,testWhenL1Uns//r2.s1.2.wav,3.0,when,unsyncopated,b,s1,rule,rule,L1,z,1.0921,4.0,1.0,0.6612,3.0,2.0,Castellano,0.0,Catalán,0.0,Inglés,12.0,4.0,4.0,no,no,no,Nada,,Nada,,   ,,,"Ha estado bien aunque se me ha hecho bastante larga y repetitiva (aunque de eso trata), y debido a esto me he descentrado un par de veces que no han tenido apenas repercusión en mis respuestas. Gracias. ",73.0,yes
52,2024-03-13_22h19.51.163,Unsyncopated_study3,s142,18.0,feminino,right,España,Castellano y Catalán,Upper secondary,no,no,B,1,what,L4,unsyncopated,s2,r1,52,Online_whatL4//a.zi.lo3.888.1998.wav,po,re,ñi,sil,zi,de,ña,sil2,lo,ci,sil1,['catch'],[1.6879999999999882],[1.6879999999999882],0.888,beat,0.7999999999999882,0.7999999999999882,"[""space""]",zi,1,testWhenL1Uns//dep_viol.r1.s2.0.wav,3.0,when,unsyncopated,a,s2,no_rule,dep,L1,m,4.2221,4.0,0.0,1.6724,3.0,2.0,Castellano,0.0,Catalán,0.0,Inglés,12.0,4.0,4.0,no,no,no,Nada,,Nada,,   ,,,"Ha estado bien aunque se me ha hecho bastante larga y repetitiva (aunque de eso trata), y debido a esto me he descentrado un par de veces que no han tenido apenas repercusión en mis respuestas. Gracias. ",73.0,yes
53,2024-03-13_22h19.51.163,Unsyncopated_study3,s142,18.0,feminino,right,España,Castellano y Catalán,Upper secondary,no,no,B,1,what,L4,unsyncopated,s1,r1,53,Online_whatL4//a.zi.lo0.0.888.wav,zi,re,bo,sil,lo,pe,ña,sil1,de,bu,sil2,['miss'],,,0.0,beat,,,,zi,1,testWhenL1Uns//r2.s1.0.wav,3.0,when,unsyncopated,b,s1,rule,rule,L1,z,1.3347,3.0,1.0,1.2761,3.0,2.0,Castellano,0.0,Catalán,0.0,Inglés,12.0,4.0,4.0,no,no,no,Nada,,Nada,,   ,,,"Ha estado bien aunque se me ha hecho bastante larga y repetitiva (aunque de eso trata), y debido a esto me he descentrado un par de veces que no han tenido apenas repercusión en mis respuestas. Gracias. ",73.0,yes
54,2024-03-13_22h19.51.163,Unsyncopated_study3,s142,18.0,feminino,right,España,Castellano y Catalán,Upper secondary,no,no,B,1,what,L4,unsyncopated,s1,r1,54,Online_whatL4//a.zi.lo1.0.888.wav,zi,ru,po,sil,lo,ñi,da,sil2,de,bu,sil1,['catch'],[0.8921999999993204],[0.8921999999993204],0.0,beat,0.8921999999993204,0.8921999999993204,"[""space""]",zi,1,testWhenL1Uns//cat_viol.r1.s2.0.wav,3.0,when,unsyncopated,a,s2,no_rule,cat,L1,z,2.3363,3.0,1.0,0.9346,3.0,2.0,Castellano,0.0,Catalán,0.0,Inglés,12.0,4.0,4.0,no,no,no,Nada,,Nada,,   ,,,"Ha estado bien aunque se me ha hecho bastante larga y repetitiva (aunque de eso trata), y debido a esto me he descentrado un par de veces que no han tenido apenas repercusión en mis respuestas. Gracias. ",73.0,yes
55,2024-03-13_22h19.51.163,Unsyncopated_study3,s142,18.0,feminino,right,España,Castellano y Catalán,Upper secondary,no,no,B,1,what,L4,unsyncopated,s1,r1,55,Online_whatL4//a.zi.lo2.0.1110.wav,zi,ñi,po,sil2,lo,re,bu,sil,de,da,sil1,['catch'],[0.9743000000007669],[0.9743000000007669],0.0,beat,0.9743000000007668,0.9743000000007668,"[""space""]",zi,1,testWhenL1Uns//r1.s2.1.wav,3.0,when,unsyncopated,a,s2,rule,rule,L1,m,3.3014,3.0,0.0,1.2907,3.0,2.0,Castellano,0.0,Catalán,0.0,Inglés,12.0,4.0,4.0,no,no,no,Nada,,Nada,,   ,,,"Ha estado bien aunque se me ha hecho bastante larga y repetitiva (aunque de eso trata), y debido a esto me he descentrado un par de veces que no han tenido apenas repercusión en mis respuestas. Gracias. ",73.0,yes
56,2024-03-13_22h19.51.163,Unsyncopated_study3,s142,18.0,feminino,right,España,Castellano y Catalán,Upper secondary,no,no,B,1,what,L4,unsyncopated,s1,r1,56,Online_whatL4//b.ja.nu10.none.none.wav,zi,ñi,re,sil,lo,de,pe,sil1,ña,po,sil2,['-'],,,none,none,,,,nu,2,testWhenL1Uns//r2.s2.2.wav,3.0,when,unsyncopated,b,s2,rule,rule,L1,z,3.128,4.0,1.0,1.406,3.0,2.0,Castellano,0.0,Catalán,0.0,Inglés,12.0,4.0,4.0,no,no,no,Nada,,Nada,,   ,,,"Ha estado bien aunque se me ha hecho bastante larga y repetitiva (aunque de eso trata), y debido a esto me he descentrado un par de veces que no han tenido apenas repercusión en mis respuestas. Gracias. ",73.0,yes
57,2024-03-13_22h19.51.163,Unsyncopated_study3,s142,18.0,feminino,right,España,Castellano y Catalán,Upper secondary,no,no,B,1,what,L4,unsyncopated,s1,r2,57,Online_whatL4//b.ja.nu11.0.888.wav,ja,bo,ru,sil,nu,ñi,ci,sil2,pe,po,sil1,['catch'],[1.8073000000007369],[1.8073000000007369],0.888,beat,0.9193000000007368,0.9193000000007368,"[""space""]",nu,2,testWhenL1Uns//cat_viol.r2.s2.0.wav,3.0,when,unsyncopated,b,s2,no_rule,cat,L1,m,2.0424,5.0,0.0,2.0931,3.0,2.0,Castellano,0.0,Catalán,0.0,Inglés,12.0,4.0,4.0,no,no,no,Nada,,Nada,,   ,,,"Ha estado bien aunque se me ha hecho bastante larga y repetitiva (aunque de eso trata), y debido a esto me he descentrado un par de veces que no han tenido apenas repercusión en mis respuestas. Gracias. ",73.0,yes
58,2024-03-13_22h19.51.163,Unsyncopated_study3,s142,18.0,feminino,right,España,Castellano y Catalán,Upper secondary,no,no,B,1,what,L4,unsyncopated,s2,r1,58,Online_whatL4//b.ja.nu8.none.none.wav,po,de,re,sil2,zi,ru,pe,sil,lo,bu,sil1,['false alarm'],[2.576699999999164],[2.576699999999164],none,none,,,"[""space""]",nu,2,testWhenL1Uns//cat_viol.r1.s1.0.wav,3.0,when,unsyncopated,a,s1,no_rule,cat,L1,m,0.8587,3.0,0.0,5.3437,3.0,2.0,Castellano,0.0,Catalán,0.0,Inglés,12.0,4.0,4.0,no,no,no,Nada,,Nada,,   ,,,"Ha estado bien aunque se me ha hecho bastante larga y repetitiva (aunque de eso trata), y debido a esto me he descentrado un par de veces que no han tenido apenas repercusión en mis respuestas. Gracias. ",73.0,yes
59,2024-03-13_22h19.51.163,Unsyncopated_study3,s142,18.0,feminino,right,España,Castellano y Catalán,Upper secondary,no,no,B,1,what,L4,unsyncopated,s2,r1,59,Online_whatL4//b.ja.nu9.none.none.wav,re,ña,ru,sil2,zi,ñi,de,sil,lo,bo,sil1,['-'],,,none,none,,,,nu,2,testWhenL1Uns//dep_viol.r2.s1.0.wav,3.0,when,unsyncopated,b,s1,no_rule,dep,L1,z,12.4062,4.0,1.0,1.2235,3.0,2.0,Castellano,0.0,Catalán,0.0,Inglés,12.0,4.0,4.0,no,no,no,Nada,,Nada,,   ,,,"Ha estado bien aunque se me ha hecho bastante larga y repetitiva (aunque de eso trata), y debido a esto me he descentrado un par de veces que no han tenido apenas repercusión en mis respuestas. Gracias. ",73.0,yes
60,2024-03-13_22h19.51.163,Unsyncopated_study3,s142,18.0,feminino,right,España,Castellano y Catalán,Upper secondary,no,no,B,1,what,L4,unsyncopated,s2,r2,60,Online_whatL4//b.ja.nu6.888.1776.wav,bo,ña,bu,sil,ja,re,pe,sil1,nu,ci,sil2,['false alarm'],[1.5815000000000055],[1.5815000000000055],1.776,beat,,,"[""space""]",nu,2,testWhenL1Uns//time_viol.r1.s2.0.wav,3.0,when,unsyncopated,a,s2,no_rule,time,L1,m,3.0025,4.0,0.0,1.2581,3.0,2.0,Castellano,0.0,Catalán,0.0,Inglés,12.0,4.0,4.0,no,no,no,Nada,,Nada,,   ,,,"Ha estado bien aunque se me ha hecho bastante larga y repetitiva (aunque de eso trata), y debido a esto me he descentrado un par de veces que no han tenido apenas repercusión en mis respuestas. Gracias. ",73.0,yes
61,2024-03-13_22h19.51.163,Unsyncopated_study3,s142,18.0,feminino,right,España,Castellano y Catalán,Upper secondary,no,no,B,1,what,L4,unsyncopated,s2,r2,61,Online_whatL4//b.ja.nu5.888.1776.wav,re,ña,ci,sil,ja,bu,ru,sil1,nu,de,sil2,['catch'],[2.3730000000000473],[2.3730000000000473],1.776,beat,0.5970000000000473,0.5970000000000473,"[""space""]",nu,2,testWhenL1Uns//time_viol.r2.s1.0.wav,3.0,when,unsyncopated,b,s1,no_rule,time,L1,z,3.2252,5.0,1.0,2.059,3.0,2.0,Castellano,0.0,Catalán,0.0,Inglés,12.0,4.0,4.0,no,no,no,Nada,,Nada,,   ,,,"Ha estado bien aunque se me ha hecho bastante larga y repetitiva (aunque de eso trata), y debido a esto me he descentrado un par de veces que no han tenido apenas repercusión en mis respuestas. Gracias. ",73.0,yes
62,2024-03-13_22h19.51.163,Unsyncopated_study3,s142,18.0,feminino,right,España,Castellano y Catalán,Upper secondary,no,no,B,1,what,L4,unsyncopated,s2,r2,62,Online_whatL4//b.ja.nu7.888.1776.wav,de,bo,re,sil,ja,ñi,bu,sil1,nu,da,sil2,['miss'],,,1.776,beat,,,,nu,2,testWhenL1Uns//time_viol.r1.s1.0.wav,3.0,when,unsyncopated,a,s1,no_rule,time,L1,z,10.8046,3.0,1.0,0.8592,3.0,2.0,Castellano,0.0,Catalán,0.0,Inglés,12.0,4.0,4.0,no,no,no,Nada,,Nada,,   ,,,"Ha estado bien aunque se me ha hecho bastante larga y repetitiva (aunque de eso trata), y debido a esto me he descentrado un par de veces que no han tenido apenas repercusión en mis respuestas. Gracias. ",73.0,yes
63,2024-03-13_22h19.51.163,Unsyncopated_study3,s142,18.0,feminino,right,España,Castellano y Catalán,Upper secondary,no,no,B,1,what,L4,unsyncopated,s1,r2,63,Online_whatL4//b.ja.nu4.0.888.wav,ja,po,ru,sil,nu,ñi,de,sil2,ña,bo,sil1,['catch'],[1.9951999999991585],[1.9951999999991585],0.888,beat,1.1071999999991586,1.1071999999991586,"[""space""]",nu,2,testWhenL1Uns//r1.s1.2.wav,3.0,when,unsyncopated,a,s1,rule,rule,L1,m,0.2379,3.0,0.0,0.8734,3.0,2.0,Castellano,0.0,Catalán,0.0,Inglés,12.0,4.0,4.0,no,no,no,Nada,,Nada,,   ,,,"Ha estado bien aunque se me ha hecho bastante larga y repetitiva (aunque de eso trata), y debido a esto me he descentrado un par de veces que no han tenido apenas repercusión en mis respuestas. Gracias. ",73.0,yes
64,2024-03-13_22h19.51.163,Unsyncopated_study3,s142,18.0,feminino,right,España,Castellano y Catalán,Upper secondary,no,no,B,1,what,L4,unsyncopated,s2,r2,64,Online_whatL4//d.pe.po16.none.none.wav,ci,bo,ña,sil2,ja,bu,da,sil,nu,ru,sil1,['-'],,,none,none,,,,po,4,testWhenL1Uns//r1.s1.1.wav,3.0,when,unsyncopated,a,s1,rule,rule,L1,z,1.2605,2.0,1.0,1.0389,3.0,2.0,Castellano,0.0,Catalán,0.0,Inglés,12.0,4.0,4.0,no,no,no,Nada,,Nada,,   ,,,"Ha estado bien aunque se me ha hecho bastante larga y repetitiva (aunque de eso trata), y debido a esto me he descentrado un par de veces que no han tenido apenas repercusión en mis respuestas. Gracias. ",73.0,yes
65,2024-03-13_22h19.51.163,Unsyncopated_study3,s142,18.0,feminino,right,España,Castellano y Catalán,Upper secondary,no,no,B,1,what,L4,unsyncopated,s1,r2,65,Online_whatL4//d.pe.po19.1776.222.wav,ja,po,re,sil,nu,ru,ña,sil1,pe,da,sil2,['catch'],[1.064300000000685],[1.064300000000685],0.222,no_beat,0.8423000000006851,0.8423000000006851,"[""space""]",po,4,testWhenL1Uns//dep_viol.r1.s1.0.wav,3.0,when,unsyncopated,a,s1,no_rule,dep,L1,z,17.792,2.0,1.0,0.7946,3.0,2.0,Castellano,0.0,Catalán,0.0,Inglés,12.0,4.0,4.0,no,no,no,Nada,,Nada,,   ,,,"Ha estado bien aunque se me ha hecho bastante larga y repetitiva (aunque de eso trata), y debido a esto me he descentrado un par de veces que no han tenido apenas repercusión en mis respuestas. Gracias. ",73.0,yes
66,2024-03-13_22h19.51.163,Unsyncopated_study3,s142,18.0,feminino,right,España,Castellano y Catalán,Upper secondary,no,no,B,1,what,L4,unsyncopated,s1,r2,66,Online_whatL4//d.pe.po17.none.none.wav,ja,re,bo,sil,nu,ci,ru,sil1,ñi,da,sil2,['false alarm'],[2.373300000000654],[2.373300000000654],none,none,,,"[""space""]",po,4,testWhenL1Uns//cat_viol.r2.s1.0.wav,3.0,when,unsyncopated,b,s1,no_rule,cat,L1,m,0.6863,3.0,0.0,0.6078,3.0,2.0,Castellano,0.0,Catalán,0.0,Inglés,12.0,4.0,4.0,no,no,no,Nada,,Nada,,   ,,,"Ha estado bien aunque se me ha hecho bastante larga y repetitiva (aunque de eso trata), y debido a esto me he descentrado un par de veces que no han tenido apenas repercusión en mis respuestas. Gracias. ",73.0,yes
67,2024-03-13_22h19.51.163,Unsyncopated_study3,s142,18.0,feminino,right,España,Castellano y Catalán,Upper secondary,no,no,B,1,what,L4,unsyncopated,s2,r2,67,Online_whatL4//d.pe.po18.0.444.wav,pe,de,po,sil,ja,ña,ñi,sil1,nu,re,sil2,['catch'],[1.4233000000007223],[1.4233000000007223],0.444,no_beat,0.9793000000007224,0.9793000000007224,"[""space""]",po,4,testWhenL1Uns//dep_viol.r2.s2.0.wav,3.0,when,unsyncopated,b,s2,no_rule,dep,L1,z,0.9171,3.0,1.0,0.3051,3.0,2.0,Castellano,0.0,Catalán,0.0,Inglés,12.0,4.0,4.0,no,no,no,Nada,,Nada,,   ,,,"Ha estado bien aunque se me ha hecho bastante larga y repetitiva (aunque de eso trata), y debido a esto me he descentrado un par de veces que no han tenido apenas repercusión en mis respuestas. Gracias. ",73.0,yes
68,2024-03-13_22h19.51.163,Unsyncopated_study3,s142,18.0,feminino,right,España,Castellano y Catalán,Upper secondary,no,no,B,1,what,L4,unsyncopated,s1,r2,68,Online_whatL4//d.pe.po13.none.none.wav,ja,da,bo,sil2,nu,ru,re,sil,ci,bu,sil1,['false alarm'],[1.4810999999976957],[1.4810999999976957],none,none,,,"[""space""]",po,4,testWhenL1Uns//r2.s2.0.wav,3.0,when,unsyncopated,b,s2,rule,rule,L1,z,1.8161,2.0,1.0,1.3006,3.0,2.0,Castellano,0.0,Catalán,0.0,Inglés,12.0,4.0,4.0,no,no,no,Nada,,Nada,,   ,,,"Ha estado bien aunque se me ha hecho bastante larga y repetitiva (aunque de eso trata), y debido a esto me he descentrado un par de veces que no han tenido apenas repercusión en mis respuestas. Gracias. ",73.0,yes
69,2024-03-13_22h19.51.163,Unsyncopated_study3,s142,18.0,feminino,right,España,Castellano y Catalán,Upper secondary,no,no,B,1,what,L4,unsyncopated,s2,r1,69,Online_whatL4//d.pe.po14.222.444.wav,ñi,pe,po,sil2,zi,ña,da,sil,lo,ci,sil1,['miss'],,,0.444,no_beat,,,,po,4,testWhenL1Uns//r2.s2.1.wav,3.0,when,unsyncopated,b,s2,rule,rule,L1,z,1.6387,4.0,1.0,1.539,3.0,2.0,Castellano,0.0,Catalán,0.0,Inglés,12.0,4.0,4.0,no,no,no,Nada,,Nada,,   ,,,"Ha estado bien aunque se me ha hecho bastante larga y repetitiva (aunque de eso trata), y debido a esto me he descentrado un par de veces que no han tenido apenas repercusión en mis respuestas. Gracias. ",73.0,yes
70,2024-03-13_22h19.51.163,Unsyncopated_study3,s142,18.0,feminino,right,España,Castellano y Catalán,Upper secondary,no,no,B,1,what,L4,unsyncopated,s2,r2,70,Online_whatL4//d.pe.po15.none.none.wav,ña,ci,bo,sil2,ja,bu,ñi,sil,nu,ru,sil1,['-'],,,none,none,,,,po,4,testWhenL1Uns//time_viol.r2.s2.0.wav,3.0,when,unsyncopated,b,s2,no_rule,time,L1,m,3.8504,5.0,0.0,0.9574,3.0,2.0,Castellano,0.0,Catalán,0.0,Inglés,12.0,4.0,4.0,no,no,no,Nada,,Nada,,   ,,,"Ha estado bien aunque se me ha hecho bastante larga y repetitiva (aunque de eso trata), y debido a esto me he descentrado un par de veces que no han tenido apenas repercusión en mis respuestas. Gracias. ",73.0,yes
71,2024-03-13_22h19.51.163,Unsyncopated_study3,s142,18.0,feminino,right,España,Castellano y Catalán,Upper secondary,no,no,B,1,what,L4,unsyncopated,s1,r2,71,Online_whatL4//d.pe.po12.none.none.wav,ja,ci,da,sil,nu,re,ñi,sil2,ña,bu,sil1,['-'],,,none,none,,,,po,4,testWhenL1Uns//r1.s1.0.wav,3.0,when,unsyncopated,a,s1,rule,rule,L1,m,1.865,4.0,0.0,1.6257,3.0,2.0,Castellano,0.0,Catalán,0.0,Inglés,12.0,4.0,4.0,no,no,no,Nada,,Nada,,   ,,,"Ha estado bien aunque se me ha hecho bastante larga y repetitiva (aunque de eso trata), y debido a esto me he descentrado un par de veces que no han tenido apenas repercusión en mis respuestas. Gracias. ",73.0,yes
72,2024-03-13_22h19.51.163,Unsyncopated_study3,s142,18.0,feminino,right,España,Castellano y Catalán,Upper secondary,no,no,B,1,what,L4,unsyncopated,s2,r2,72,Online_whatL4//c.bu.da0.444.1332.wav,re,de,bu,sil2,ja,da,bo,sil,nu,pe,sil1,['miss'],,,1.332,no_beat,,,,da,3,testConjL3Uns//r2.s2.1.wav,4.0,conjunction_un,unsyncopated,b,s2,rule,rule,L3,z,1.9418,4.0,1.0,1.1092,3.0,2.0,Castellano,0.0,Catalán,0.0,Inglés,12.0,4.0,4.0,no,no,no,Nada,,Nada,,   ,,,"Ha estado bien aunque se me ha hecho bastante larga y repetitiva (aunque de eso trata), y debido a esto me he descentrado un par de veces que no han tenido apenas repercusión en mis respuestas. Gracias. ",73.0,yes
73,2024-03-13_22h19.51.163,Unsyncopated_study3,s142,18.0,feminino,right,España,Castellano y Catalán,Upper secondary,no,no,B,1,what,L4,unsyncopated,s2,r1,73,Online_whatL4//c.bu.da3.none.none.wav,pe,po,bo,sil,zi,re,ña,sil1,lo,ru,sil2,['false alarm'],[0.492300000000796],[0.492300000000796],none,none,,,"[""space""]",da,3,testConjL3Uns//r1.s1.2.wav,4.0,conjunction_un,unsyncopated,a,s1,rule,rule,L3,m,1.3746,3.0,0.0,0.6211,3.0,2.0,Castellano,0.0,Catalán,0.0,Inglés,12.0,4.0,4.0,no,no,no,Nada,,Nada,,   ,,,"Ha estado bien aunque se me ha hecho bastante larga y repetitiva (aunque de eso trata), y debido a esto me he descentrado un par de veces que no han tenido apenas repercusión en mis respuestas. Gracias. ",73.0,yes
74,2024-03-13_22h19.51.163,Unsyncopated_study3,s142,18.0,feminino,right,España,Castellano y Catalán,Upper secondary,no,no,B,1,what,L4,unsyncopated,s1,r2,74,Online_whatL4//c.bu.da1.none.none.wav,ja,ña,ñi,sil2,nu,re,de,sil,ru,pe,sil1,['-'],,,none,none,,,,da,3,testConjL3Uns//r1.s1.0.wav,4.0,conjunction_un,unsyncopated,a,s1,rule,rule,L3,m,1.1157,3.0,0.0,0.4522,3.0,2.0,Castellano,0.0,Catalán,0.0,Inglés,12.0,4.0,4.0,no,no,no,Nada,,Nada,,   ,,,"Ha estado bien aunque se me ha hecho bastante larga y repetitiva (aunque de eso trata), y debido a esto me he descentrado un par de veces que no han tenido apenas repercusión en mis respuestas. Gracias. ",73.0,yes
75,2024-03-13_22h19.51.163,Unsyncopated_study3,s142,18.0,feminino,right,España,Castellano y Catalán,Upper secondary,no,no,B,1,what,L4,unsyncopated,s2,r1,75,Online_whatL4//c.bu.da2.1332.222.wav,de,da,po,sil,zi,ru,bu,sil2,lo,ña,sil1,['catch'],[0.9933000000007723],[0.9933000000007723],0.222,no_beat,0.7713000000007724,0.7713000000007724,"[""space""]",da,3,testConjL3Uns//dep_viol.r1.s2.0.wav,4.0,conjunction_un,unsyncopated,a,s2,no_rule,dep,L3,m,1.1956,3.0,1.0,0.2395,3.0,2.0,Castellano,0.0,Catalán,0.0,Inglés,12.0,4.0,4.0,no,no,no,Nada,,Nada,,   ,,,"Ha estado bien aunque se me ha hecho bastante larga y repetitiva (aunque de eso trata), y debido a esto me he descentrado un par de veces que no han tenido apenas repercusión en mis respuestas. Gracias. ",73.0,yes
76,2024-03-13_22h19.51.163,Unsyncopated_study3,s142,18.0,feminino,right,España,Castellano y Catalán,Upper secondary,no,no,B,1,what,L4,unsyncopated,s1,r1,76,Online_whatL4//b.ja.nu14.none.none.wav,zi,bo,re,sil2,lo,ña,po,sil,ru,ñi,sil1,['-'],,,none,none,,,,nu,2,testConjL3Uns//time_viol.r1.s2.0.wav,4.0,conjunction_un,unsyncopated,a,s2,no_rule,time,L3,z,0.8412,3.0,0.0,1.0427,3.0,2.0,Castellano,0.0,Catalán,0.0,Inglés,12.0,4.0,4.0,no,no,no,Nada,,Nada,,   ,,,"Ha estado bien aunque se me ha hecho bastante larga y repetitiva (aunque de eso trata), y debido a esto me he descentrado un par de veces que no han tenido apenas repercusión en mis respuestas. Gracias. ",73.0,yes
77,2024-03-13_22h19.51.163,Unsyncopated_study3,s142,18.0,feminino,right,España,Castellano y Catalán,Upper secondary,no,no,B,1,what,L4,unsyncopated,s1,r1,77,Online_whatL4//b.ja.nu12.none.none.wav,zi,re,de,sil,lo,bu,pe,sil2,ru,ña,sil1,['-'],,,none,none,,,,nu,2,testConjL3Uns//cat_viol.r2.s2.0.wav,4.0,conjunction_un,unsyncopated,b,s2,no_rule,cat,L3,z,5.0684,2.0,0.0,0.8895,3.0,2.0,Castellano,0.0,Catalán,0.0,Inglés,12.0,4.0,4.0,no,no,no,Nada,,Nada,,   ,,,"Ha estado bien aunque se me ha hecho bastante larga y repetitiva (aunque de eso trata), y debido a esto me he descentrado un par de veces que no han tenido apenas repercusión en mis respuestas. Gracias. ",73.0,yes
78,2024-03-13_22h19.51.163,Unsyncopated_study3,s142,18.0,feminino,right,España,Castellano y Catalán,Upper secondary,no,no,B,1,what,L4,unsyncopated,s1,r2,78,Online_whatL4//b.ja.nu15.0.1110.wav,ja,bu,bo,sil2,nu,pe,re,sil,ci,po,sil1,['catch'],[1.1234999999999218],[1.1234999999999218],1.11,no_beat,0.0134999999999216,0.0134999999999216,"[""space""]",nu,2,testConjL3Uns//r2.s1.0.wav,4.0,conjunction_un,unsyncopated,b,s1,rule,rule,L3,m,3.8788,3.0,0.0,2.0548,3.0,2.0,Castellano,0.0,Catalán,0.0,Inglés,12.0,4.0,4.0,no,no,no,Nada,,Nada,,   ,,,"Ha estado bien aunque se me ha hecho bastante larga y repetitiva (aunque de eso trata), y debido a esto me he descentrado un par de veces que no han tenido apenas repercusión en mis respuestas. Gracias. ",73.0,yes
79,2024-03-13_22h19.51.163,Unsyncopated_study3,s142,18.0,feminino,right,España,Castellano y Catalán,Upper secondary,no,no,B,1,what,L4,unsyncopated,s2,r1,79,Online_whatL4//b.ja.nu13.none.none.wav,da,po,bu,sil,zi,ña,ru,sil2,lo,de,sil1,"['false alarm', 'false alarm']","[0.2083000000006905, 2.6083000000007814]",2.6083000000007814,none,none,,,"[""space"",""space""]",nu,2,testConjL3Uns//r1.s2.2.wav,4.0,conjunction_un,unsyncopated,a,s2,rule,rule,L3,z,2.6496,2.0,1.0,0.8426,3.0,2.0,Castellano,0.0,Catalán,0.0,Inglés,12.0,4.0,4.0,no,no,no,Nada,,Nada,,   ,,,"Ha estado bien aunque se me ha hecho bastante larga y repetitiva (aunque de eso trata), y debido a esto me he descentrado un par de veces que no han tenido apenas repercusión en mis respuestas. Gracias. ",73.0,yes
80,2024-03-13_22h19.51.163,Unsyncopated_study3,s142,18.0,feminino,right,España,Castellano y Catalán,Upper secondary,no,no,B,1,what,L4,unsyncopated,s1,r1,80,Online_whatL4//b.ja.nu17.none.none.wav,zi,ñi,ña,sil2,lo,pe,ci,sil,po,re,sil1,['-'],,,none,none,,,,nu,2,testConjL3Uns//r1.s2.0.wav,4.0,conjunction_un,unsyncopated,a,s2,rule,rule,L3,m,8.9738,3.0,0.0,0.8389,3.0,2.0,Castellano,0.0,Catalán,0.0,Inglés,12.0,4.0,4.0,no,no,no,Nada,,Nada,,   ,,,"Ha estado bien aunque se me ha hecho bastante larga y repetitiva (aunque de eso trata), y debido a esto me he descentrado un par de veces que no han tenido apenas repercusión en mis respuestas. Gracias. ",73.0,yes
81,2024-03-13_22h19.51.163,Unsyncopated_study3,s142,18.0,feminino,right,España,Castellano y Catalán,Upper secondary,no,no,B,1,what,L4,unsyncopated,s1,r1,81,Online_whatL4//b.ja.nu19.none.none.wav,zi,pe,de,sil2,lo,bo,ru,sil,bu,po,sil1,['-'],,,none,none,,,,nu,2,testConjL3Uns//time_viol.r2.s1.0.wav,4.0,conjunction_un,unsyncopated,b,s1,no_rule,time,L3,z,1.8516,3.0,0.0,0.6026,3.0,2.0,Castellano,0.0,Catalán,0.0,Inglés,12.0,4.0,4.0,no,no,no,Nada,,Nada,,   ,,,"Ha estado bien aunque se me ha hecho bastante larga y repetitiva (aunque de eso trata), y debido a esto me he descentrado un par de veces que no han tenido apenas repercusión en mis respuestas. Gracias. ",73.0,yes
82,2024-03-13_22h19.51.163,Unsyncopated_study3,s142,18.0,feminino,right,España,Castellano y Catalán,Upper secondary,no,no,B,1,what,L4,unsyncopated,s1,r2,82,Online_whatL4//b.ja.nu18.0.1110.wav,ja,re,ru,sil2,nu,bu,bo,sil,po,de,sil1,['catch'],[1.5231999999991785],[1.5231999999991785],1.11,no_beat,0.4131999999991784,0.4131999999991784,"[""space""]",nu,2,testConjL3Uns//r1.s2.1.wav,4.0,conjunction_un,unsyncopated,a,s2,rule,rule,L3,m,0.7396,3.0,0.0,0.3171,3.0,2.0,Castellano,0.0,Catalán,0.0,Inglés,12.0,4.0,4.0,no,no,no,Nada,,Nada,,   ,,,"Ha estado bien aunque se me ha hecho bastante larga y repetitiva (aunque de eso trata), y debido a esto me he descentrado un par de veces que no han tenido apenas repercusión en mis respuestas. Gracias. ",73.0,yes
83,2024-03-13_22h19.51.163,Unsyncopated_study3,s142,18.0,feminino,right,España,Castellano y Catalán,Upper secondary,no,no,B,1,what,L4,unsyncopated,s2,r1,83,Online_whatL4//b.ja.nu16.none.none.wav,bo,pe,po,sil,zi,ci,ñi,sil2,lo,ru,sil1,['-'],,,none,none,,,,nu,2,testConjL3Uns//r2.s1.1.wav,4.0,conjunction_un,unsyncopated,b,s1,rule,rule,L3,z,0.7883,3.0,1.0,0.3919,3.0,2.0,Castellano,0.0,Catalán,0.0,Inglés,12.0,4.0,4.0,no,no,no,Nada,,Nada,,   ,,,"Ha estado bien aunque se me ha hecho bastante larga y repetitiva (aunque de eso trata), y debido a esto me he descentrado un par de veces que no han tenido apenas repercusión en mis respuestas. Gracias. ",73.0,yes
84,2024-03-13_22h19.51.163,Unsyncopated_study3,s142,18.0,feminino,right,España,Castellano y Catalán,Upper secondary,no,no,B,1,what,L4,unsyncopated,s2,r2,84,Online_whatL4//c.bu.da18.444.1332.wav,ña,pe,bu,sil2,ja,da,de,sil,nu,re,sil1,['catch'],[1.3528000000007978],[1.3528000000007978],1.332,no_beat,0.0208000000007977,0.0208000000007977,"[""space""]",da,3,testConjL3Uns//r1.s1.1.wav,4.0,conjunction_un,unsyncopated,a,s1,rule,rule,L3,m,3.2923,2.0,0.0,1.0823,3.0,2.0,Castellano,0.0,Catalán,0.0,Inglés,12.0,4.0,4.0,no,no,no,Nada,,Nada,,   ,,,"Ha estado bien aunque se me ha hecho bastante larga y repetitiva (aunque de eso trata), y debido a esto me he descentrado un par de veces que no han tenido apenas repercusión en mis respuestas. Gracias. ",73.0,yes
85,2024-03-13_22h19.51.163,Unsyncopated_study3,s142,18.0,feminino,right,España,Castellano y Catalán,Upper secondary,no,no,B,1,what,L4,unsyncopated,s2,r1,85,Online_whatL4//c.bu.da17.none.none.wav,ña,po,pe,sil,zi,ñi,re,sil1,lo,bo,sil2,['-'],,,none,none,,,,da,3,testConjL3Uns//r2.s2.0.wav,4.0,conjunction_un,unsyncopated,b,s2,rule,rule,L3,m,4.2092,3.0,0.0,5.7031,3.0,2.0,Castellano,0.0,Catalán,0.0,Inglés,12.0,4.0,4.0,no,no,no,Nada,,Nada,,   ,,,"Ha estado bien aunque se me ha hecho bastante larga y repetitiva (aunque de eso trata), y debido a esto me he descentrado un par de veces que no han tenido apenas repercusión en mis respuestas. Gracias. ",73.0,yes
86,2024-03-13_22h19.51.163,Unsyncopated_study3,s142,18.0,feminino,right,España,Castellano y Catalán,Upper secondary,no,no,B,1,what,L4,unsyncopated,s2,r2,86,Online_whatL4//c.bu.da16.none.none.wav,re,de,po,sil,ja,ci,ru,sil2,nu,ña,sil1,['false alarm'],[2.155900000002248],[2.155900000002248],none,none,,,"[""space""]",da,3,testConjL3Uns//dep_viol.r2.s2.0.wav,4.0,conjunction_un,unsyncopated,b,s2,no_rule,dep,L3,z,0.9706,4.0,0.0,0.9381,3.0,2.0,Castellano,0.0,Catalán,0.0,Inglés,12.0,4.0,4.0,no,no,no,Nada,,Nada,,   ,,,"Ha estado bien aunque se me ha hecho bastante larga y repetitiva (aunque de eso trata), y debido a esto me he descentrado un par de veces que no han tenido apenas repercusión en mis respuestas. Gracias. ",73.0,yes
87,2024-03-13_22h19.51.163,Unsyncopated_study3,s142,18.0,feminino,right,España,Castellano y Catalán,Upper secondary,no,no,B,1,what,L4,unsyncopated,s1,r2,87,Online_whatL4//c.bu.da19.1998.444.wav,ja,de,da,sil,nu,re,ci,sil2,bu,ña,sil1,['catch'],[1.3211999999991804],[1.3211999999991804],0.444,no_beat,0.8771999999991804,0.8771999999991804,"[""space""]",da,3,testConjL3Uns//dep_viol.r2.s1.0.wav,4.0,conjunction_un,unsyncopated,b,s1,no_rule,dep,L3,m,0.9578,3.0,1.0,2.5256,3.0,2.0,Castellano,0.0,Catalán,0.0,Inglés,12.0,4.0,4.0,no,no,no,Nada,,Nada,,   ,,,"Ha estado bien aunque se me ha hecho bastante larga y repetitiva (aunque de eso trata), y debido a esto me he descentrado un par de veces que no han tenido apenas repercusión en mis respuestas. Gracias. ",73.0,yes
88,2024-03-13_22h19.51.163,Unsyncopated_study3,s142,18.0,feminino,right,España,Castellano y Catalán,Upper secondary,no,no,B,1,what,L4,unsyncopated,s2,r2,88,Online_whatL4//c.bu.da11.none.none.wav,ci,bo,po,sil,ja,ña,pe,sil1,nu,re,sil2,['-'],,,none,none,,,,da,3,testConjL3Uns//dep_viol.r1.s1.0.wav,4.0,conjunction_un,unsyncopated,a,s1,no_rule,dep,L3,m,3.2932,4.0,1.0,0.6418,3.0,2.0,Castellano,0.0,Catalán,0.0,Inglés,12.0,4.0,4.0,no,no,no,Nada,,Nada,,   ,,,"Ha estado bien aunque se me ha hecho bastante larga y repetitiva (aunque de eso trata), y debido a esto me he descentrado un par de veces que no han tenido apenas repercusión en mis respuestas. Gracias. ",73.0,yes
89,2024-03-13_22h19.51.163,Unsyncopated_study3,s142,18.0,feminino,right,España,Castellano y Catalán,Upper secondary,no,no,B,1,what,L4,unsyncopated,s2,r1,89,Online_whatL4//c.bu.da8.none.none.wav,ña,ñi,pe,sil,zi,ci,re,sil1,lo,de,sil2,['-'],,,none,none,,,,da,3,testConjL3Uns//r2.s2.2.wav,4.0,conjunction_un,unsyncopated,b,s2,rule,rule,L3,m,2.743,2.0,0.0,0.8012,3.0,2.0,Castellano,0.0,Catalán,0.0,Inglés,12.0,4.0,4.0,no,no,no,Nada,,Nada,,   ,,,"Ha estado bien aunque se me ha hecho bastante larga y repetitiva (aunque de eso trata), y debido a esto me he descentrado un par de veces que no han tenido apenas repercusión en mis respuestas. Gracias. ",73.0,yes
90,2024-03-13_22h19.51.163,Unsyncopated_study3,s142,18.0,feminino,right,España,Castellano y Catalán,Upper secondary,no,no,B,1,what,L4,unsyncopated,s1,r2,90,Online_whatL4//c.bu.da10.none.none.wav,ja,ru,ña,sil,nu,ci,ñi,sil2,pe,re,sil1,['false alarm'],[0.4891000000013719],[0.4891000000013719],none,none,,,"[""space""]",da,3,testConjL3Uns//cat_viol.r2.s1.0.wav,4.0,conjunction_un,unsyncopated,b,s1,no_rule,cat,L3,z,1.3572,3.0,0.0,1.0869,3.0,2.0,Castellano,0.0,Catalán,0.0,Inglés,12.0,4.0,4.0,no,no,no,Nada,,Nada,,   ,,,"Ha estado bien aunque se me ha hecho bastante larga y repetitiva (aunque de eso trata), y debido a esto me he descentrado un par de veces que no han tenido apenas repercusión en mis respuestas. Gracias. ",73.0,yes
91,2024-03-13_22h19.51.163,Unsyncopated_study3,s142,18.0,feminino,right,España,Castellano y Catalán,Upper secondary,no,no,B,1,what,L4,unsyncopated,s2,r2,91,Online_whatL4//c.bu.da9.none.none.wav,pe,po,de,sil,ja,ru,ña,sil2,nu,re,sil1,['-'],,,none,none,,,,da,3,testConjL3Uns//time_viol.r2.s2.0.wav,4.0,conjunction_un,unsyncopated,b,s2,no_rule,time,L3,m,2.8414,4.0,1.0,0.756,3.0,2.0,Castellano,0.0,Catalán,0.0,Inglés,12.0,4.0,4.0,no,no,no,Nada,,Nada,,   ,,,"Ha estado bien aunque se me ha hecho bastante larga y repetitiva (aunque de eso trata), y debido a esto me he descentrado un par de veces que no han tenido apenas repercusión en mis respuestas. Gracias. ",73.0,yes
92,2024-03-13_22h19.51.163,Unsyncopated_study3,s142,18.0,feminino,right,España,Castellano y Catalán,Upper secondary,no,no,B,1,what,L4,unsyncopated,s1,r2,92,Online_whatL4//a.zi.lo29.none.none.wav,ja,da,pe,sil,nu,ña,ru,sil1,ñi,ci,sil2,['-'],,,none,none,,,,zi,1,testConjL3Uns//r2.s1.2.wav,4.0,conjunction_un,unsyncopated,b,s1,rule,rule,L3,m,2.2229,3.0,0.0,0.5052,3.0,2.0,Castellano,0.0,Catalán,0.0,Inglés,12.0,4.0,4.0,no,no,no,Nada,,Nada,,   ,,,"Ha estado bien aunque se me ha hecho bastante larga y repetitiva (aunque de eso trata), y debido a esto me he descentrado un par de veces que no han tenido apenas repercusión en mis respuestas. Gracias. ",73.0,yes
93,2024-03-13_22h19.51.163,Unsyncopated_study3,s142,18.0,feminino,right,España,Castellano y Catalán,Upper secondary,no,no,B,1,what,L4,unsyncopated,s1,r1,93,Online_whatL4//a.zi.lo30.0.1110.wav,zi,da,ña,sil2,lo,bo,pe,sil,bu,re,sil1,['catch'],[0.27530000000069776],[0.27530000000069776],0.0,beat,0.2753000000006977,0.2753000000006977,"[""space""]",zi,1,testConjL3Uns//cat_viol.r1.s1.0.wav,4.0,conjunction_un,unsyncopated,a,s1,no_rule,cat,L3,z,4.1376,3.0,0.0,1.4847,3.0,2.0,Castellano,0.0,Catalán,0.0,Inglés,12.0,4.0,4.0,no,no,no,Nada,,Nada,,   ,,,"Ha estado bien aunque se me ha hecho bastante larga y repetitiva (aunque de eso trata), y debido a esto me he descentrado un par de veces que no han tenido apenas repercusión en mis respuestas. Gracias. ",73.0,yes
94,2024-03-13_22h19.51.163,Unsyncopated_study3,s142,18.0,feminino,right,España,Castellano y Catalán,Upper secondary,no,no,B,1,what,L4,unsyncopated,s1,r2,94,Online_whatL4//a.zi.lo31.none.none.wav,ja,da,ru,sil,nu,pe,bu,sil2,ñi,ña,sil1,['-'],,,none,none,,,,zi,1,testConjL3Uns//time_viol.r1.s1.0.wav,4.0,conjunction_un,unsyncopated,a,s1,no_rule,time,L3,m,9.4766,3.0,1.0,0.574,3.0,2.0,Castellano,0.0,Catalán,0.0,Inglés,12.0,4.0,4.0,no,no,no,Nada,,Nada,,   ,,,"Ha estado bien aunque se me ha hecho bastante larga y repetitiva (aunque de eso trata), y debido a esto me he descentrado un par de veces que no han tenido apenas repercusión en mis respuestas. Gracias. ",73.0,yes
95,2024-03-13_22h19.51.163,Unsyncopated_study3,s142,18.0,feminino,right,España,Castellano y Catalán,Upper secondary,no,no,B,1,what,L4,unsyncopated,s2,r2,95,Online_whatL4//a.zi.lo28.none.none.wav,ñi,re,de,sil,ja,bu,po,sil1,nu,ci,sil2,['false alarm'],[1.4116999999992004],[1.4116999999992004],none,none,,,"[""space""]",zi,1,testConjL3Uns//cat_viol.r1.s2.0.wav,4.0,conjunction_un,unsyncopated,a,s2,no_rule,cat,L3,z,0.734,3.0,0.0,0.4765,3.0,2.0,Castellano,0.0,Catalán,0.0,Inglés,12.0,4.0,4.0,no,no,no,Nada,,Nada,,   ,,,"Ha estado bien aunque se me ha hecho bastante larga y repetitiva (aunque de eso trata), y debido a esto me he descentrado un par de veces que no han tenido apenas repercusión en mis respuestas. Gracias. ",73.0,yes
96,2024-03-13_22h19.51.163,Unsyncopated_study3,s142,18.0,feminino,right,España,Castellano y Catalán,Upper secondary,no,no,B,1,what,L4,unsyncopated,s1,r1,96,Online_whatL4//a.zi.lo12.0.888.wav,zi,po,da,sil,lo,bo,de,sil1,ña,pe,sil2,['catch'],[1.3648000000007414],[1.3648000000007414],0.0,beat,,1.3648000000007414,"[""space""]",zi,1,,,,,,,,,,,,,,,3.0,2.0,Castellano,0.0,Catalán,0.0,Inglés,12.0,4.0,4.0,no,no,no,Nada,,Nada,,   ,,,"Ha estado bien aunque se me ha hecho bastante larga y repetitiva (aunque de eso trata), y debido a esto me he descentrado un par de veces que no han tenido apenas repercusión en mis respuestas. Gracias. ",73.0,yes
97,2024-03-13_22h19.51.163,Unsyncopated_study3,s142,18.0,feminino,right,España,Castellano y Catalán,Upper secondary,no,no,B,1,what,L4,unsyncopated,s2,r1,97,Online_whatL4//a.zi.lo14.888.1998.wav,ru,bo,re,sil,zi,de,po,sil2,lo,ñi,sil1,['catch'],[1.8245999999976448],[1.8245999999976448],0.888,beat,0.9365999999976448,0.9365999999976448,"[""space""]",zi,1,,,,,,,,,,,,,,,3.0,2.0,Castellano,0.0,Catalán,0.0,Inglés,12.0,4.0,4.0,no,no,no,Nada,,Nada,,   ,,,"Ha estado bien aunque se me ha hecho bastante larga y repetitiva (aunque de eso trata), y debido a esto me he descentrado un par de veces que no han tenido apenas repercusión en mis respuestas. Gracias. ",73.0,yes
98,2024-03-13_22h19.51.163,Unsyncopated_study3,s142,18.0,feminino,right,España,Castellano y Catalán,Upper secondary,no,no,B,1,what,L4,unsyncopated,s1,r1,98,Online_whatL4//a.zi.lo13.0.888.wav,zi,pe,da,sil,lo,ru,ci,sil2,re,bu,sil1,['miss'],,,0.0,beat,,,,zi,1,,,,,,,,,,,,,,,3.0,2.0,Castellano,0.0,Catalán,0.0,Inglés,12.0,4.0,4.0,no,no,no,Nada,,Nada,,   ,,,"Ha estado bien aunque se me ha hecho bastante larga y repetitiva (aunque de eso trata), y debido a esto me he descentrado un par de veces que no han tenido apenas repercusión en mis respuestas. Gracias. ",73.0,yes
99,2024-03-13_22h19.51.163,Unsyncopated_study3,s142,18.0,feminino,right,España,Castellano y Catalán,Upper secondary,no,no,B,1,what,L4,unsyncopated,s1,r2,99,Online_whatL4//a.zi.lo15.none.none.wav,ja,ru,po,sil2,nu,de,bo,sil,ña,bu,sil1,['false alarm'],[2.210100000001603],[2.210100000001603],none,none,,,"[""space""]",zi,1,,,,,,,,,,,,,,,3.0,2.0,Castellano,0.0,Catalán,0.0,Inglés,12.0,4.0,4.0,no,no,no,Nada,,Nada,,   ,,,"Ha estado bien aunque se me ha hecho bastante larga y repetitiva (aunque de eso trata), y debido a esto me he descentrado un par de veces que no han tenido apenas repercusión en mis respuestas. Gracias. ",73.0,yes
100,2024-03-13_22h19.51.163,Unsyncopated_study3,s142,18.0,feminino,right,España,Castellano y Catalán,Upper secondary,no,no,B,1,what,L4,unsyncopated,s1,r1,100,Online_whatL4//d.pe.po10.444.1332.wav,zi,ci,pe,sil,lo,bo,po,sil2,re,bu,sil1,['catch'],[2.1748999999986154],[2.1748999999986154],1.332,no_beat,0.8428999999986153,0.8428999999986153,"[""space""]",po,4,,,,,,,,,,,,,,,3.0,2.0,Castellano,0.0,Catalán,0.0,Inglés,12.0,4.0,4.0,no,no,no,Nada,,Nada,,   ,,,"Ha estado bien aunque se me ha hecho bastante larga y repetitiva (aunque de eso trata), y debido a esto me he descentrado un par de veces que no han tenido apenas repercusión en mis respuestas. Gracias. ",73.0,yes
101,2024-03-13_22h19.51.163,Unsyncopated_study3,s142,18.0,feminino,right,España,Castellano y Catalán,Upper secondary,no,no,B,1,what,L4,unsyncopated,s2,r1,101,Online_whatL4//d.pe.po9.none.none.wav,ña,da,bo,sil,zi,ñi,ru,sil2,lo,de,sil1,['-'],,,none,none,,,,po,4,,,,,,,,,,,,,,,3.0,2.0,Castellano,0.0,Catalán,0.0,Inglés,12.0,4.0,4.0,no,no,no,Nada,,Nada,,   ,,,"Ha estado bien aunque se me ha hecho bastante larga y repetitiva (aunque de eso trata), y debido a esto me he descentrado un par de veces que no han tenido apenas repercusión en mis respuestas. Gracias. ",73.0,yes
102,2024-03-13_22h19.51.163,Unsyncopated_study3,s142,18.0,feminino,right,España,Castellano y Catalán,Upper secondary,no,no,B,1,what,L4,unsyncopated,s2,r1,102,Online_whatL4//d.pe.po11.222.1332.wav,re,pe,ñi,sil2,zi,po,bu,sil,lo,de,sil1,['catch'],[2.1876999999992677],[2.1876999999992677],1.332,no_beat,0.8556999999992676,0.8556999999992676,"[""space""]",po,4,,,,,,,,,,,,,,,3.0,2.0,Castellano,0.0,Catalán,0.0,Inglés,12.0,4.0,4.0,no,no,no,Nada,,Nada,,   ,,,"Ha estado bien aunque se me ha hecho bastante larga y repetitiva (aunque de eso trata), y debido a esto me he descentrado un par de veces que no han tenido apenas repercusión en mis respuestas. Gracias. ",73.0,yes
103,2024-03-13_22h19.51.163,Unsyncopated_study3,s142,18.0,feminino,right,España,Castellano y Catalán,Upper secondary,no,no,B,1,what,L4,unsyncopated,s1,r2,103,Online_whatL4//d.pe.po8.222.1332.wav,ja,pe,bu,sil,nu,ci,po,sil2,da,re,sil1,['catch'],[2.2055999999979576],[2.2055999999979576],1.332,no_beat,0.8735999999979576,0.8735999999979576,"[""space""]",po,4,,,,,,,,,,,,,,,3.0,2.0,Castellano,0.0,Catalán,0.0,Inglés,12.0,4.0,4.0,no,no,no,Nada,,Nada,,   ,,,"Ha estado bien aunque se me ha hecho bastante larga y repetitiva (aunque de eso trata), y debido a esto me he descentrado un par de veces que no han tenido apenas repercusión en mis respuestas. Gracias. ",73.0,yes
104,2024-03-13_22h19.51.163,Unsyncopated_study3,s142,18.0,feminino,right,España,Castellano y Catalán,Upper secondary,no,no,B,1,what,L4,unsyncopated,s2,r2,104,Online_whatL4//a.zi.lo25.none.none.wav,ña,ci,bu,sil2,ja,po,bo,sil,nu,pe,sil1,['false alarm'],[1.4639999999999418],[1.4639999999999418],none,none,,,"[""space""]",zi,1,,,,,,,,,,,,,,,3.0,2.0,Castellano,0.0,Catalán,0.0,Inglés,12.0,4.0,4.0,no,no,no,Nada,,Nada,,   ,,,"Ha estado bien aunque se me ha hecho bastante larga y repetitiva (aunque de eso trata), y debido a esto me he descentrado un par de veces que no han tenido apenas repercusión en mis respuestas. Gracias. ",73.0,yes
105,2024-03-13_22h19.51.163,Unsyncopated_study3,s142,18.0,feminino,right,España,Castellano y Catalán,Upper secondary,no,no,B,1,what,L4,unsyncopated,s1,r2,105,Online_whatL4//a.zi.lo26.none.none.wav,ja,pe,ru,sil2,nu,bu,de,sil,ñi,ña,sil1,['-'],,,none,none,,,,zi,1,,,,,,,,,,,,,,,3.0,2.0,Castellano,0.0,Catalán,0.0,Inglés,12.0,4.0,4.0,no,no,no,Nada,,Nada,,   ,,,"Ha estado bien aunque se me ha hecho bastante larga y repetitiva (aunque de eso trata), y debido a esto me he descentrado un par de veces que no han tenido apenas repercusión en mis respuestas. Gracias. ",73.0,yes
106,2024-03-13_22h19.51.163,Unsyncopated_study3,s142,18.0,feminino,right,España,Castellano y Catalán,Upper secondary,no,no,B,1,what,L4,unsyncopated,s1,r2,106,Online_whatL4//a.zi.lo27.none.none.wav,ja,da,re,sil,nu,ña,po,sil2,ru,ci,sil1,['-'],,,none,none,,,,zi,1,,,,,,,,,,,,,,,3.0,2.0,Castellano,0.0,Catalán,0.0,Inglés,12.0,4.0,4.0,no,no,no,Nada,,Nada,,   ,,,"Ha estado bien aunque se me ha hecho bastante larga y repetitiva (aunque de eso trata), y debido a esto me he descentrado un par de veces que no han tenido apenas repercusión en mis respuestas. Gracias. ",73.0,yes
107,2024-03-13_22h19.51.163,Unsyncopated_study3,s142,18.0,feminino,right,España,Castellano y Catalán,Upper secondary,no,no,B,1,what,L4,unsyncopated,s2,r1,107,Online_whatL4//a.zi.lo24.888.1998.wav,ñi,bu,ña,sil,zi,pe,ru,sil2,lo,ci,sil1,['false alarm'],[0.3745000000001255],[0.3745000000001255],0.888,beat,,,"[""space""]",zi,1,,,,,,,,,,,,,,,3.0,2.0,Castellano,0.0,Catalán,0.0,Inglés,12.0,4.0,4.0,no,no,no,Nada,,Nada,,   ,,,"Ha estado bien aunque se me ha hecho bastante larga y repetitiva (aunque de eso trata), y debido a esto me he descentrado un par de veces que no han tenido apenas repercusión en mis respuestas. Gracias. ",73.0,yes
108,2024-03-13_22h19.51.163,Unsyncopated_study3,s142,18.0,feminino,right,España,Castellano y Catalán,Upper secondary,no,no,B,1,what,L4,unsyncopated,s1,r1,108,Online_whatL4//c.bu.da27.1998.222.wav,zi,da,ñi,sil2,lo,ña,pe,sil,bu,ru,sil1,['miss'],,,0.222,no_beat,,,,da,3,,,,,,,,,,,,,,,3.0,2.0,Castellano,0.0,Catalán,0.0,Inglés,12.0,4.0,4.0,no,no,no,Nada,,Nada,,   ,,,"Ha estado bien aunque se me ha hecho bastante larga y repetitiva (aunque de eso trata), y debido a esto me he descentrado un par de veces que no han tenido apenas repercusión en mis respuestas. Gracias. ",73.0,yes
109,2024-03-13_22h19.51.163,Unsyncopated_study3,s142,18.0,feminino,right,España,Castellano y Catalán,Upper secondary,no,no,B,1,what,L4,unsyncopated,s1,r2,109,Online_whatL4//c.bu.da25.1110.1332.wav,ja,bo,ci,sil,nu,bu,da,sil2,ru,de,sil1,['catch'],[2.1410000000000764],[2.1410000000000764],1.332,no_beat,0.8090000000000763,0.8090000000000763,"[""space""]",da,3,,,,,,,,,,,,,,,3.0,2.0,Castellano,0.0,Catalán,0.0,Inglés,12.0,4.0,4.0,no,no,no,Nada,,Nada,,   ,,,"Ha estado bien aunque se me ha hecho bastante larga y repetitiva (aunque de eso trata), y debido a esto me he descentrado un par de veces que no han tenido apenas repercusión en mis respuestas. Gracias. ",73.0,yes
110,2024-03-13_22h19.51.163,Unsyncopated_study3,s142,18.0,feminino,right,España,Castellano y Catalán,Upper secondary,no,no,B,1,what,L4,unsyncopated,s2,r1,110,Online_whatL4//c.bu.da24.1332.0.wav,da,bo,ña,sil,zi,po,bu,sil2,lo,re,sil1,['miss'],,,0.0,beat,,,,da,3,,,,,,,,,,,,,,,3.0,2.0,Castellano,0.0,Catalán,0.0,Inglés,12.0,4.0,4.0,no,no,no,Nada,,Nada,,   ,,,"Ha estado bien aunque se me ha hecho bastante larga y repetitiva (aunque de eso trata), y debido a esto me he descentrado un par de veces que no han tenido apenas repercusión en mis respuestas. Gracias. ",73.0,yes
111,2024-03-13_22h19.51.163,Unsyncopated_study3,s142,18.0,feminino,right,España,Castellano y Catalán,Upper secondary,no,no,B,1,what,L4,unsyncopated,s2,r1,111,Online_whatL4//c.bu.da26.none.none.wav,de,pe,ña,sil,zi,ci,ñi,sil1,lo,re,sil2,['-'],,,none,none,,,,da,3,,,,,,,,,,,,,,,3.0,2.0,Castellano,0.0,Catalán,0.0,Inglés,12.0,4.0,4.0,no,no,no,Nada,,Nada,,   ,,,"Ha estado bien aunque se me ha hecho bastante larga y repetitiva (aunque de eso trata), y debido a esto me he descentrado un par de veces que no han tenido apenas repercusión en mis respuestas. Gracias. ",73.0,yes
112,2024-03-13_22h19.51.163,Unsyncopated_study3,s142,18.0,feminino,right,España,Castellano y Catalán,Upper secondary,no,no,B,1,what,L4,unsyncopated,s1,r2,112,Online_whatL4//d.pe.po21.none.none.wav,ja,ru,de,sil,nu,da,ñi,sil2,ña,re,sil1,['-'],,,none,none,,,,po,4,,,,,,,,,,,,,,,3.0,2.0,Castellano,0.0,Catalán,0.0,Inglés,12.0,4.0,4.0,no,no,no,Nada,,Nada,,   ,,,"Ha estado bien aunque se me ha hecho bastante larga y repetitiva (aunque de eso trata), y debido a esto me he descentrado un par de veces que no han tenido apenas repercusión en mis respuestas. Gracias. ",73.0,yes
113,2024-03-13_22h19.51.163,Unsyncopated_study3,s142,18.0,feminino,right,España,Castellano y Catalán,Upper secondary,no,no,B,1,what,L4,unsyncopated,s2,r1,113,Online_whatL4//d.pe.po23.none.none.wav,ña,ñi,de,sil2,zi,ru,bu,sil,lo,ci,sil1,['-'],,,none,none,,,,po,4,,,,,,,,,,,,,,,3.0,2.0,Castellano,0.0,Catalán,0.0,Inglés,12.0,4.0,4.0,no,no,no,Nada,,Nada,,   ,,,"Ha estado bien aunque se me ha hecho bastante larga y repetitiva (aunque de eso trata), y debido a esto me he descentrado un par de veces que no han tenido apenas repercusión en mis respuestas. Gracias. ",73.0,yes
114,2024-03-13_22h19.51.163,Unsyncopated_study3,s142,18.0,feminino,right,España,Castellano y Catalán,Upper secondary,no,no,B,1,what,L4,unsyncopated,s1,r1,114,Online_whatL4//d.pe.po22.1332.222.wav,zi,po,bu,sil,lo,ci,pe,sil2,ñi,bo,sil1,['catch'],[1.025599999997894],[1.025599999997894],0.222,no_beat,0.803599999997894,0.803599999997894,"[""space""]",po,4,,,,,,,,,,,,,,,3.0,2.0,Castellano,0.0,Catalán,0.0,Inglés,12.0,4.0,4.0,no,no,no,Nada,,Nada,,   ,,,"Ha estado bien aunque se me ha hecho bastante larga y repetitiva (aunque de eso trata), y debido a esto me he descentrado un par de veces que no han tenido apenas repercusión en mis respuestas. Gracias. ",73.0,yes
115,2024-03-13_22h19.51.163,Unsyncopated_study3,s142,18.0,feminino,right,España,Castellano y Catalán,Upper secondary,no,no,B,1,what,L4,unsyncopated,s1,r1,115,Online_whatL4//d.pe.po20.444.1332.wav,zi,ña,pe,sil,lo,re,po,sil2,de,ci,sil1,['false alarm'],[0.5736000000015338],[0.5736000000015338],1.332,no_beat,,,"[""space""]",po,4,,,,,,,,,,,,,,,3.0,2.0,Castellano,0.0,Catalán,0.0,Inglés,12.0,4.0,4.0,no,no,no,Nada,,Nada,,   ,,,"Ha estado bien aunque se me ha hecho bastante larga y repetitiva (aunque de eso trata), y debido a esto me he descentrado un par de veces que no han tenido apenas repercusión en mis respuestas. Gracias. ",73.0,yes
116,2024-03-13_22h19.51.163,Unsyncopated_study3,s142,18.0,feminino,right,España,Castellano y Catalán,Upper secondary,no,no,B,1,what,L4,unsyncopated,s1,r2,116,Online_whatL4//b.ja.nu20.0.888.wav,ja,ñi,ci,sil,nu,bo,de,sil2,po,pe,sil1,['miss'],,,0.888,beat,,,,nu,2,,,,,,,,,,,,,,,3.0,2.0,Castellano,0.0,Catalán,0.0,Inglés,12.0,4.0,4.0,no,no,no,Nada,,Nada,,   ,,,"Ha estado bien aunque se me ha hecho bastante larga y repetitiva (aunque de eso trata), y debido a esto me he descentrado un par de veces que no han tenido apenas repercusión en mis respuestas. Gracias. ",73.0,yes
117,2024-03-13_22h19.51.163,Unsyncopated_study3,s142,18.0,feminino,right,España,Castellano y Catalán,Upper secondary,no,no,B,1,what,L4,unsyncopated,s2,r2,117,Online_whatL4//b.ja.nu23.888.1776.wav,bo,ci,ña,sil,ja,de,ru,sil1,nu,pe,sil2,['catch'],[2.1410000000000764],[2.1410000000000764],1.776,beat,0.3650000000000764,0.3650000000000764,"[""space""]",nu,2,,,,,,,,,,,,,,,3.0,2.0,Castellano,0.0,Catalán,0.0,Inglés,12.0,4.0,4.0,no,no,no,Nada,,Nada,,   ,,,"Ha estado bien aunque se me ha hecho bastante larga y repetitiva (aunque de eso trata), y debido a esto me he descentrado un par de veces que no han tenido apenas repercusión en mis respuestas. Gracias. ",73.0,yes
118,2024-03-13_22h19.51.163,Unsyncopated_study3,s142,18.0,feminino,right,España,Castellano y Catalán,Upper secondary,no,no,B,1,what,L4,unsyncopated,s1,r1,118,Online_whatL4//b.ja.nu22.none.none.wav,zi,ñi,ci,sil,lo,da,pe,sil2,po,bo,sil1,['-'],,,none,none,,,,nu,2,,,,,,,,,,,,,,,3.0,2.0,Castellano,0.0,Catalán,0.0,Inglés,12.0,4.0,4.0,no,no,no,Nada,,Nada,,   ,,,"Ha estado bien aunque se me ha hecho bastante larga y repetitiva (aunque de eso trata), y debido a esto me he descentrado un par de veces que no han tenido apenas repercusión en mis respuestas. Gracias. ",73.0,yes
119,2024-03-13_22h19.51.163,Unsyncopated_study3,s142,18.0,feminino,right,España,Castellano y Catalán,Upper secondary,no,no,B,1,what,L4,unsyncopated,s2,r2,119,Online_whatL4//b.ja.nu21.1110.1998.wav,po,da,ci,sil2,ja,bu,re,sil,nu,pe,sil1,['miss'],,,1.998,no_beat,,,,nu,2,,,,,,,,,,,,,,,3.0,2.0,Castellano,0.0,Catalán,0.0,Inglés,12.0,4.0,4.0,no,no,no,Nada,,Nada,,   ,,,"Ha estado bien aunque se me ha hecho bastante larga y repetitiva (aunque de eso trata), y debido a esto me he descentrado un par de veces que no han tenido apenas repercusión en mis respuestas. Gracias. ",73.0,yes
120,2024-03-13_22h19.51.163,Unsyncopated_study3,s142,18.0,feminino,right,España,Castellano y Catalán,Upper secondary,no,no,B,1,what,L4,unsyncopated,s2,r2,120,Online_whatL4//c.bu.da12.none.none.wav,re,ñi,ña,sil,ja,po,bo,sil2,nu,de,sil1,['-'],,,none,none,,,,da,3,,,,,,,,,,,,,,,3.0,2.0,Castellano,0.0,Catalán,0.0,Inglés,12.0,4.0,4.0,no,no,no,Nada,,Nada,,   ,,,"Ha estado bien aunque se me ha hecho bastante larga y repetitiva (aunque de eso trata), y debido a esto me he descentrado un par de veces que no han tenido apenas repercusión en mis respuestas. Gracias. ",73.0,yes
121,2024-03-13_22h19.51.163,Unsyncopated_study3,s142,18.0,feminino,right,España,Castellano y Catalán,Upper secondary,no,no,B,1,what,L4,unsyncopated,s2,r1,121,Online_whatL4//c.bu.da14.222.444.wav,po,bu,da,sil,zi,pe,re,sil2,lo,ña,sil1,['catch'],[1.5713000000007469],[1.5713000000007469],0.444,no_beat,1.127300000000747,1.127300000000747,"[""space""]",da,3,,,,,,,,,,,,,,,3.0,2.0,Castellano,0.0,Catalán,0.0,Inglés,12.0,4.0,4.0,no,no,no,Nada,,Nada,,   ,,,"Ha estado bien aunque se me ha hecho bastante larga y repetitiva (aunque de eso trata), y debido a esto me he descentrado un par de veces que no han tenido apenas repercusión en mis respuestas. Gracias. ",73.0,yes
122,2024-03-13_22h19.51.163,Unsyncopated_study3,s142,18.0,feminino,right,España,Castellano y Catalán,Upper secondary,no,no,B,1,what,L4,unsyncopated,s1,r2,122,Online_whatL4//c.bu.da13.1332.444.wav,ja,de,da,sil,nu,ci,bu,sil1,ña,po,sil2,['miss'],,,0.444,no_beat,,,,da,3,,,,,,,,,,,,,,,3.0,2.0,Castellano,0.0,Catalán,0.0,Inglés,12.0,4.0,4.0,no,no,no,Nada,,Nada,,   ,,,"Ha estado bien aunque se me ha hecho bastante larga y repetitiva (aunque de eso trata), y debido a esto me he descentrado un par de veces que no han tenido apenas repercusión en mis respuestas. Gracias. ",73.0,yes
123,2024-03-13_22h19.51.163,Unsyncopated_study3,s142,18.0,feminino,right,España,Castellano y Catalán,Upper secondary,no,no,B,1,what,L4,unsyncopated,s1,r1,123,Online_whatL4//c.bu.da15.1110.222.wav,zi,da,ru,sil,lo,bu,bo,sil1,ñi,ci,sil2,['miss'],,,0.222,no_beat,,,,da,3,,,,,,,,,,,,,,,3.0,2.0,Castellano,0.0,Catalán,0.0,Inglés,12.0,4.0,4.0,no,no,no,Nada,,Nada,,   ,,,"Ha estado bien aunque se me ha hecho bastante larga y repetitiva (aunque de eso trata), y debido a esto me he descentrado un par de veces que no han tenido apenas repercusión en mis respuestas. Gracias. ",73.0,yes
124,2024-03-13_22h19.51.163,Unsyncopated_study3,s142,18.0,feminino,right,España,Castellano y Catalán,Upper secondary,no,no,B,1,what,L4,unsyncopated,s2,r2,124,Online_whatL4//d.pe.po7.444.0.wav,po,bo,pe,sil,ja,ci,da,sil1,nu,ñi,sil2,['catch'],[1.1670999999978449],[1.1670999999978449],0.0,beat,1.1670999999978449,1.1670999999978449,"[""space""]",po,4,,,,,,,,,,,,,,,3.0,2.0,Castellano,0.0,Catalán,0.0,Inglés,12.0,4.0,4.0,no,no,no,Nada,,Nada,,   ,,,"Ha estado bien aunque se me ha hecho bastante larga y repetitiva (aunque de eso trata), y debido a esto me he descentrado un par de veces que no han tenido apenas repercusión en mis respuestas. Gracias. ",73.0,yes
125,2024-03-13_22h19.51.163,Unsyncopated_study3,s142,18.0,feminino,right,España,Castellano y Catalán,Upper secondary,no,no,B,1,what,L4,unsyncopated,s2,r1,125,Online_whatL4//d.pe.po5.none.none.wav,bo,da,ña,sil,zi,bu,re,sil2,lo,de,sil1,['-'],,,none,none,,,,po,4,,,,,,,,,,,,,,,3.0,2.0,Castellano,0.0,Catalán,0.0,Inglés,12.0,4.0,4.0,no,no,no,Nada,,Nada,,   ,,,"Ha estado bien aunque se me ha hecho bastante larga y repetitiva (aunque de eso trata), y debido a esto me he descentrado un par de veces que no han tenido apenas repercusión en mis respuestas. Gracias. ",73.0,yes
126,2024-03-13_22h19.51.163,Unsyncopated_study3,s142,18.0,feminino,right,España,Castellano y Catalán,Upper secondary,no,no,B,1,what,L4,unsyncopated,s2,r1,126,Online_whatL4//d.pe.po4.1554.444.wav,bu,ci,po,sil2,zi,de,pe,sil,lo,bo,sil1,['catch'],[1.7741000000014537],[1.7741000000014537],0.444,no_beat,,1.3301000000014538,"[""space""]",po,4,,,,,,,,,,,,,,,3.0,2.0,Castellano,0.0,Catalán,0.0,Inglés,12.0,4.0,4.0,no,no,no,Nada,,Nada,,   ,,,"Ha estado bien aunque se me ha hecho bastante larga y repetitiva (aunque de eso trata), y debido a esto me he descentrado un par de veces que no han tenido apenas repercusión en mis respuestas. Gracias. ",73.0,yes
127,2024-03-13_22h19.51.163,Unsyncopated_study3,s142,18.0,feminino,right,España,Castellano y Catalán,Upper secondary,no,no,B,1,what,L4,unsyncopated,s2,r2,127,Online_whatL4//d.pe.po6.none.none.wav,ñi,bu,ru,sil,ja,ña,ci,sil1,nu,de,sil2,['-'],,,none,none,,,,po,4,,,,,,,,,,,,,,,3.0,2.0,Castellano,0.0,Catalán,0.0,Inglés,12.0,4.0,4.0,no,no,no,Nada,,Nada,,   ,,,"Ha estado bien aunque se me ha hecho bastante larga y repetitiva (aunque de eso trata), y debido a esto me he descentrado un par de veces que no han tenido apenas repercusión en mis respuestas. Gracias. ",73.0,yes
128,2024-03-13_22h19.51.163,Unsyncopated_study3,s142,18.0,feminino,right,España,Castellano y Catalán,Upper secondary,no,no,B,2,conjunction_syn,L2,syncopated,s1,r2,0,Online_conjL2_syn//a.go.du7.none.none.wav,fe,mi,ñu,ra,sil,ño,ba,me,sil1,su,sil2,['-'],,,none,none,,,,go,1,,,,,,,,,,,,,,,3.0,2.0,Castellano,0.0,Catalán,0.0,Inglés,12.0,4.0,4.0,no,no,no,Nada,,Nada,,   ,,,"Ha estado bien aunque se me ha hecho bastante larga y repetitiva (aunque de eso trata), y debido a esto me he descentrado un par de veces que no han tenido apenas repercusión en mis respuestas. Gracias. ",73.0,yes
129,2024-03-13_22h19.51.163,Unsyncopated_study3,s142,18.0,feminino,right,España,Castellano y Catalán,Upper secondary,no,no,B,2,conjunction_syn,L2,syncopated,s2,r1,1,Online_conjL2_syn//a.go.du4.666.1554.wav,mi,si,te,go,sil,ño,to,du,sil1,ñu,sil2,['catch'],[1.4918999999986227],[1.4918999999986227],0.666,no_beat,0.8258999999986226,0.8258999999986226,"[""space""]",go,1,,,,,,,,,,,,,,,3.0,2.0,Castellano,0.0,Catalán,0.0,Inglés,12.0,4.0,4.0,no,no,no,Nada,,Nada,,   ,,,"Ha estado bien aunque se me ha hecho bastante larga y repetitiva (aunque de eso trata), y debido a esto me he descentrado un par de veces que no han tenido apenas repercusión en mis respuestas. Gracias. ",73.0,yes
130,2024-03-13_22h19.51.163,Unsyncopated_study3,s142,18.0,feminino,right,España,Castellano y Catalán,Upper secondary,no,no,B,2,conjunction_syn,L2,syncopated,s1,r2,2,Online_conjL2_syn//a.go.du5.none.none.wav,fe,ñu,cha,ra,sil,te,ño,ba,sil1,si,sil2,['-'],,,none,none,,,,go,1,,,,,,,,,,,,,,,3.0,2.0,Castellano,0.0,Catalán,0.0,Inglés,12.0,4.0,4.0,no,no,no,Nada,,Nada,,   ,,,"Ha estado bien aunque se me ha hecho bastante larga y repetitiva (aunque de eso trata), y debido a esto me he descentrado un par de veces que no han tenido apenas repercusión en mis respuestas. Gracias. ",73.0,yes
131,2024-03-13_22h19.51.163,Unsyncopated_study3,s142,18.0,feminino,right,España,Castellano y Catalán,Upper secondary,no,no,B,2,conjunction_syn,L2,syncopated,s1,r1,3,Online_conjL2_syn//a.go.du6.0.666.wav,go,bi,to,du,sil,me,su,ba,sil1,te,sil2,['catch'],[0.8789999999999054],[0.8789999999999054],0.0,beat,0.8789999999999054,0.8789999999999054,"[""space""]",go,1,,,,,,,,,,,,,,,3.0,2.0,Castellano,0.0,Catalán,0.0,Inglés,12.0,4.0,4.0,no,no,no,Nada,,Nada,,   ,,,"Ha estado bien aunque se me ha hecho bastante larga y repetitiva (aunque de eso trata), y debido a esto me he descentrado un par de veces que no han tenido apenas repercusión en mis respuestas. Gracias. ",73.0,yes
132,2024-03-13_22h19.51.163,Unsyncopated_study3,s142,18.0,feminino,right,España,Castellano y Catalán,Upper secondary,no,no,B,2,conjunction_syn,L2,syncopated,s2,r1,4,Online_conjL2_syn//d.si.ñu21.0.1110.wav,si,su,bi,go,sil,ñu,me,du,sil1,mi,sil2,['catch'],[2.2987000000030093],[2.2987000000030093],1.11,no_beat,1.1887000000030092,1.1887000000030092,"[""space""]",ñu,4,,,,,,,,,,,,,,,3.0,2.0,Castellano,0.0,Catalán,0.0,Inglés,12.0,4.0,4.0,no,no,no,Nada,,Nada,,   ,,,"Ha estado bien aunque se me ha hecho bastante larga y repetitiva (aunque de eso trata), y debido a esto me he descentrado un par de veces que no han tenido apenas repercusión en mis respuestas. Gracias. ",73.0,yes
133,2024-03-13_22h19.51.163,Unsyncopated_study3,s142,18.0,feminino,right,España,Castellano y Catalán,Upper secondary,no,no,B,2,conjunction_syn,L2,syncopated,s2,r1,5,Online_conjL2_syn//d.si.ñu22.1332.222.wav,ba,ñu,me,go,sil,ño,si,du,sil1,te,sil2,['catch'],[1.1243000000006305],[1.1243000000006305],0.222,no_beat,0.9023000000006304,0.9023000000006304,"[""space""]",ñu,4,,,,,,,,,,,,,,,3.0,2.0,Castellano,0.0,Catalán,0.0,Inglés,12.0,4.0,4.0,no,no,no,Nada,,Nada,,   ,,,"Ha estado bien aunque se me ha hecho bastante larga y repetitiva (aunque de eso trata), y debido a esto me he descentrado un par de veces que no han tenido apenas repercusión en mis respuestas. Gracias. ",73.0,yes
134,2024-03-13_22h19.51.163,Unsyncopated_study3,s142,18.0,feminino,right,España,Castellano y Catalán,Upper secondary,no,no,B,2,conjunction_syn,L2,syncopated,s2,r2,6,Online_conjL2_syn//d.si.ñu23.0.444.wav,si,su,ñu,fe,sil,mi,ño,ra,sil1,cha,sil2,['catch'],[1.257300000000896],[1.257300000000896],0.444,no_beat,0.8133000000008961,0.8133000000008961,"[""space""]",ñu,4,,,,,,,,,,,,,,,3.0,2.0,Castellano,0.0,Catalán,0.0,Inglés,12.0,4.0,4.0,no,no,no,Nada,,Nada,,   ,,,"Ha estado bien aunque se me ha hecho bastante larga y repetitiva (aunque de eso trata), y debido a esto me he descentrado un par de veces que no han tenido apenas repercusión en mis respuestas. Gracias. ",73.0,yes
135,2024-03-13_22h19.51.163,Unsyncopated_study3,s142,18.0,feminino,right,España,Castellano y Catalán,Upper secondary,no,no,B,2,conjunction_syn,L2,syncopated,s2,r1,7,Online_conjL2_syn//d.si.ñu20.1110.0.wav,ñu,ño,mi,go,sil,si,to,du,sil1,me,sil2,['catch'],[0.7799000000020442],[0.7799000000020442],0.0,beat,0.7799000000020442,0.7799000000020442,"[""space""]",ñu,4,,,,,,,,,,,,,,,3.0,2.0,Castellano,0.0,Catalán,0.0,Inglés,12.0,4.0,4.0,no,no,no,Nada,,Nada,,   ,,,"Ha estado bien aunque se me ha hecho bastante larga y repetitiva (aunque de eso trata), y debido a esto me he descentrado un par de veces que no han tenido apenas repercusión en mis respuestas. Gracias. ",73.0,yes
136,2024-03-13_22h19.51.163,Unsyncopated_study3,s142,18.0,feminino,right,España,Castellano y Catalán,Upper secondary,no,no,B,2,conjunction_syn,L2,syncopated,s1,r2,8,Online_conjL2_syn//d.si.ñu19.444.1110.wav,fe,bi,si,ra,sil,ñu,te,to,sil1,ño,sil2,['catch'],[1.869100000001481],[1.869100000001481],1.11,no_beat,0.7591000000014809,0.7591000000014809,"[""space""]",ñu,4,,,,,,,,,,,,,,,3.0,2.0,Castellano,0.0,Catalán,0.0,Inglés,12.0,4.0,4.0,no,no,no,Nada,,Nada,,   ,,,"Ha estado bien aunque se me ha hecho bastante larga y repetitiva (aunque de eso trata), y debido a esto me he descentrado un par de veces que no han tenido apenas repercusión en mis respuestas. Gracias. ",73.0,yes
137,2024-03-13_22h19.51.163,Unsyncopated_study3,s142,18.0,feminino,right,España,Castellano y Catalán,Upper secondary,no,no,B,2,conjunction_syn,L2,syncopated,s2,r2,9,Online_conjL2_syn//d.si.ñu18.none.none.wav,te,su,to,fe,sil,me,cha,ra,sil1,ba,sil2,['-'],,,none,none,,,,ñu,4,,,,,,,,,,,,,,,3.0,2.0,Castellano,0.0,Catalán,0.0,Inglés,12.0,4.0,4.0,no,no,no,Nada,,Nada,,   ,,,"Ha estado bien aunque se me ha hecho bastante larga y repetitiva (aunque de eso trata), y debido a esto me he descentrado un par de veces que no han tenido apenas repercusión en mis respuestas. Gracias. ",73.0,yes
138,2024-03-13_22h19.51.163,Unsyncopated_study3,s142,18.0,feminino,right,España,Castellano y Catalán,Upper secondary,no,no,B,2,conjunction_syn,L2,syncopated,s2,r1,10,Online_conjL2_syn//d.si.ñu17.0.222.wav,si,ñu,te,go,sil,to,ba,du,sil1,bi,sil2,['catch'],[1.0068000000007942],[1.0068000000007942],0.222,no_beat,0.7848000000007942,0.7848000000007942,"[""space""]",ñu,4,,,,,,,,,,,,,,,3.0,2.0,Castellano,0.0,Catalán,0.0,Inglés,12.0,4.0,4.0,no,no,no,Nada,,Nada,,   ,,,"Ha estado bien aunque se me ha hecho bastante larga y repetitiva (aunque de eso trata), y debido a esto me he descentrado un par de veces que no han tenido apenas repercusión en mis respuestas. Gracias. ",73.0,yes
139,2024-03-13_22h19.51.163,Unsyncopated_study3,s142,18.0,feminino,right,España,Castellano y Catalán,Upper secondary,no,no,B,2,conjunction_syn,L2,syncopated,s2,r2,11,Online_conjL2_syn//d.si.ñu16.none.none.wav,te,to,bi,fe,sil,me,mi,ra,sil1,cha,sil2,['false alarm'],[1.1895999999978812],[1.1895999999978812],none,none,,,"[""space""]",ñu,4,,,,,,,,,,,,,,,3.0,2.0,Castellano,0.0,Catalán,0.0,Inglés,12.0,4.0,4.0,no,no,no,Nada,,Nada,,   ,,,"Ha estado bien aunque se me ha hecho bastante larga y repetitiva (aunque de eso trata), y debido a esto me he descentrado un par de veces que no han tenido apenas repercusión en mis respuestas. Gracias. ",73.0,yes
140,2024-03-13_22h19.51.163,Unsyncopated_study3,s142,18.0,feminino,right,España,Castellano y Catalán,Upper secondary,no,no,B,2,conjunction_syn,L2,syncopated,s2,r2,12,Online_conjL2_syn//b.fe.ra31.666.1554.wav,bi,cha,te,fe,sil,me,ñu,ra,sil1,si,sil2,"['false alarm', 'catch']","[1.03449999999998, 2.3188000000006923]",[2.3188000000006923],1.554,no_beat,0.7648000000006923,0.7648000000006923,"[""space"",""space""]",ra,2,,,,,,,,,,,,,,,3.0,2.0,Castellano,0.0,Catalán,0.0,Inglés,12.0,4.0,4.0,no,no,no,Nada,,Nada,,   ,,,"Ha estado bien aunque se me ha hecho bastante larga y repetitiva (aunque de eso trata), y debido a esto me he descentrado un par de veces que no han tenido apenas repercusión en mis respuestas. Gracias. ",73.0,yes
141,2024-03-13_22h19.51.163,Unsyncopated_study3,s142,18.0,feminino,right,España,Castellano y Catalán,Upper secondary,no,no,B,2,conjunction_syn,L2,syncopated,s1,r1,13,Online_conjL2_syn//b.fe.ra28.none.none.wav,go,te,ñu,du,sil,ba,mi,me,sil1,ño,sil2,['-'],,,none,none,,,,ra,2,,,,,,,,,,,,,,,3.0,2.0,Castellano,0.0,Catalán,0.0,Inglés,12.0,4.0,4.0,no,no,no,Nada,,Nada,,   ,,,"Ha estado bien aunque se me ha hecho bastante larga y repetitiva (aunque de eso trata), y debido a esto me he descentrado un par de veces que no han tenido apenas repercusión en mis respuestas. Gracias. ",73.0,yes
142,2024-03-13_22h19.51.163,Unsyncopated_study3,s142,18.0,feminino,right,España,Castellano y Catalán,Upper secondary,no,no,B,2,conjunction_syn,L2,syncopated,s1,r2,14,Online_conjL2_syn//b.fe.ra30.0.666.wav,fe,ba,ñu,ra,sil,su,ño,mi,sil1,cha,sil2,['catch'],[1.543999999999869],[1.543999999999869],0.666,no_beat,0.877999999999869,0.877999999999869,"[""space""]",ra,2,,,,,,,,,,,,,,,3.0,2.0,Castellano,0.0,Catalán,0.0,Inglés,12.0,4.0,4.0,no,no,no,Nada,,Nada,,   ,,,"Ha estado bien aunque se me ha hecho bastante larga y repetitiva (aunque de eso trata), y debido a esto me he descentrado un par de veces que no han tenido apenas repercusión en mis respuestas. Gracias. ",73.0,yes
143,2024-03-13_22h19.51.163,Unsyncopated_study3,s142,18.0,feminino,right,España,Castellano y Catalán,Upper secondary,no,no,B,2,conjunction_syn,L2,syncopated,s1,r1,15,Online_conjL2_syn//b.fe.ra29.none.none.wav,go,cha,si,du,sil,bi,to,ñu,sil1,ba,sil2,['-'],,,none,none,,,,ra,2,,,,,,,,,,,,,,,3.0,2.0,Castellano,0.0,Catalán,0.0,Inglés,12.0,4.0,4.0,no,no,no,Nada,,Nada,,   ,,,"Ha estado bien aunque se me ha hecho bastante larga y repetitiva (aunque de eso trata), y debido a esto me he descentrado un par de veces que no han tenido apenas repercusión en mis respuestas. Gracias. ",73.0,yes
