Unnamed: 0,date,expName,participant,age,sex,hand,residence,native_lang,education_level,lang_deficit,aud_deficit,group,block,condition,language,rhythm,rule structure online,rule type online,order_trial_on,trial_online,s1,s2,s3,s4,s5,s6,s7,s8,s9,s10,s11,catch_syll_resp,rts_syll_catch,clean_rts,time_syll,beat_no_beat,catch_rtsTR,catch_rts,syllable_catch.keys,cond_syll,syll_to_catch,test_offline,block_off,condition_off,rhythm_off,rule,rule_str_off,rule_norule,conds_offline,language_off,Partz_no_partm.keys,Partz_no_partm.rt,security_1_7.keys,accuracy,security_1_7.rt,n_lang,n_lang_used,lang_1,age_l1,lang_2,age_l2,lang_3,age_l3,lang_4,age_l4,lang_5,ability_learn_l2,tendence_mix_lan,music_experience,muisc_use,partiture,instr_1,age_M1,preguntas_musica1,BMRQ_answer.response,final comment,BMRQ_Score,bilingual
0,2024-04-28_14h48.04.519,Experiment4_uns,s174,24 ,feminino,right,españa,"catalan,español, ",Bachelor degree,no,no,B,1,conjunction_un,L4,unsyncopated,s1,r2,0,Online_conjL4_un//a.zi.lo19.none.none.wav,ja,bo,po,sil,nu,pe,re,sil1,ci,ña,sil2,['-'],,,none,none,,,,zi,1,testConjL4Uns//cat_viol.r1.s1.0.wav,1.0,conjunction_un,unsyncopated,a,s1,no_rule,cat,L4,z,2.0074,6.0,0.0,1.4287,5.0,2 o 3,español,2.0,catalan,2.0,urdu,4.0,punjabi,4.0,ingles,3.0,3.0,no,no,no,no,,1. Cuando comparto música con alguien siento una complicidad especial con aquella persona.,3.0, ha estabo bien ,53.0,yes
1,2024-04-28_14h48.04.519,Experiment4_uns,s174,24 ,feminino,right,españa,"catalan,español, ",Bachelor degree,no,no,B,1,conjunction_un,L4,unsyncopated,s2,r1,1,Online_conjL4_un//a.zi.lo18.888.1776.wav,po,da,ña,sil,zi,re,ci,sil1,lo,de,sil2,['catch'],[1.7767000000029611],[1.7767000000029611],0.888,beat,0.8887000000029611,0.8887000000029611,"[""space""]",zi,1,testConjL4Uns//r2.s2.0.wav,1.0,conjunction_un,unsyncopated,b,s2,rule,rule,L4,z,1.5327,7.0,1.0,0.9669,5.0,2 o 3,español,2.0,catalan,2.0,urdu,4.0,punjabi,4.0,ingles,3.0,3.0,no,no,no,no,,2. En mi tiempo libre apenas escucho música.,4.0, ha estabo bien ,53.0,yes
2,2024-04-28_14h48.04.519,Experiment4_uns,s174,24 ,feminino,right,españa,"catalan,español, ",Bachelor degree,no,no,B,1,conjunction_un,L4,unsyncopated,s2,r2,2,Online_conjL4_un//a.zi.lo17.none.none.wav,re,pe,ru,sil,ja,bu,ña,sil1,nu,po,sil2,['-'],,,none,none,,,,zi,1,testConjL4Uns//dep_viol.r1.s1.0.wav,1.0,conjunction_un,unsyncopated,a,s1,no_rule,dep,L4,m,2.0488,5.0,1.0,1.266,5.0,2 o 3,español,2.0,catalan,2.0,urdu,4.0,punjabi,4.0,ingles,3.0,3.0,no,no,no,no,,3. Algunas canciones me ponen los pelos de punta,3.0, ha estabo bien ,53.0,yes
3,2024-04-28_14h48.04.519,Experiment4_uns,s174,24 ,feminino,right,españa,"catalan,español, ",Bachelor degree,no,no,B,1,conjunction_un,L4,unsyncopated,s1,r1,3,Online_conjL4_un//a.zi.lo16.0.888.wav,zi,ci,ru,sil,lo,bu,de,sil1,da,po,sil2,['catch'],[0.5458999999985394],[0.5458999999985394],0.0,beat,0.5458999999985394,0.5458999999985394,"[""space""]",zi,1,testConjL4Uns//r2.s2.1.wav,1.0,conjunction_un,unsyncopated,b,s2,rule,rule,L4,z,2.1281,6.0,1.0,0.3514,5.0,2 o 3,español,2.0,catalan,2.0,urdu,4.0,punjabi,4.0,ingles,3.0,3.0,no,no,no,no,,4. La música me hace compañía cuando estoy solo,3.0, ha estabo bien ,53.0,yes
4,2024-04-28_14h48.04.519,Experiment4_uns,s174,24 ,feminino,right,españa,"catalan,español, ",Bachelor degree,no,no,B,1,conjunction_un,L4,unsyncopated,s2,r1,4,Online_conjL4_un//d.pe.po11.1110.222.wav,bo,po,da,sil,zi,pe,de,sil1,lo,ñi,sil2,['miss'],,,0.222,no_beat,,,,po,4,testConjL4Uns//cat_viol.r1.s2.0.wav,1.0,conjunction_un,unsyncopated,a,s2,no_rule,cat,L4,z,3.0112,5.0,0.0,0.469,5.0,2 o 3,español,2.0,catalan,2.0,urdu,4.0,punjabi,4.0,ingles,3.0,3.0,no,no,no,no,,5. No me apetece bailar ni con la música que más me gusta,3.0, ha estabo bien ,53.0,yes
5,2024-04-28_14h48.04.519,Experiment4_uns,s174,24 ,feminino,right,españa,"catalan,español, ",Bachelor degree,no,no,B,1,conjunction_un,L4,unsyncopated,s2,r1,5,Online_conjL4_un//d.pe.po8.none.none.wav,ña,re,ci,sil,zi,ru,ñi,sil1,lo,de,sil2,['-'],,,none,none,,,,po,4,testConjL4Uns//r1.s1.0.wav,1.0,conjunction_un,unsyncopated,a,s1,rule,rule,L4,z,1.0289,6.0,1.0,0.9167,5.0,2 o 3,español,2.0,catalan,2.0,urdu,4.0,punjabi,4.0,ingles,3.0,3.0,no,no,no,no,,6. La música me hace conectar con la gente,3.0, ha estabo bien ,53.0,yes
6,2024-04-28_14h48.04.519,Experiment4_uns,s174,24 ,feminino,right,españa,"catalan,español, ",Bachelor degree,no,no,B,1,conjunction_un,L4,unsyncopated,s2,r2,6,Online_conjL4_un//d.pe.po10.1332.444.wav,re,ñi,po,sil,ja,bu,pe,sil1,nu,ru,sil2,['catch'],[1.3059999999999832],[1.3059999999999832],0.444,no_beat,0.8619999999999832,0.8619999999999832,"[""space""]",po,4,testConjL4Uns//time_viol.r1.s2.0.wav,1.0,conjunction_un,unsyncopated,a,s2,no_rule,time,L4,z,1.5042,5.0,0.0,0.9151,5.0,2 o 3,español,2.0,catalan,2.0,urdu,4.0,punjabi,4.0,ingles,3.0,3.0,no,no,no,no,,7. Me informo sobre la música que me gusta.,1.0, ha estabo bien ,53.0,yes
7,2024-04-28_14h48.04.519,Experiment4_uns,s174,24 ,feminino,right,españa,"catalan,español, ",Bachelor degree,no,no,B,1,conjunction_un,L4,unsyncopated,s1,r1,7,Online_conjL4_un//d.pe.po9.222.1110.wav,zi,pe,bo,sil,lo,po,de,sil1,ru,re,sil2,['catch'],[2.293399999998485],[2.293399999998485],1.11,no_beat,1.1833999999984848,1.1833999999984848,"[""space""]",po,4,testConjL4Uns//time_viol.r2.s1.0.wav,1.0,conjunction_un,unsyncopated,b,s1,no_rule,time,L4,z,1.7798,6.0,0.0,0.4834,5.0,2 o 3,español,2.0,catalan,2.0,urdu,4.0,punjabi,4.0,ingles,3.0,3.0,no,no,no,no,,8.Me emociono escuchando ciertas canciones.,4.0, ha estabo bien ,53.0,yes
8,2024-04-28_14h48.04.519,Experiment4_uns,s174,24 ,feminino,right,españa,"catalan,español, ",Bachelor degree,no,no,B,1,conjunction_un,L4,unsyncopated,s2,r1,8,Online_conjL4_un//c.bu.da5.222.444.wav,po,bu,da,sil,zi,de,ci,sil1,lo,re,sil2,['catch'],[1.3184000000059655],[1.3184000000059655],0.444,no_beat,0.8744000000059655,0.8744000000059655,"[""space""]",da,3,testConjL4Uns//cat_viol.r2.s2.0.wav,1.0,conjunction_un,unsyncopated,b,s2,no_rule,cat,L4,m,1.2497,5.0,1.0,0.5842,5.0,2 o 3,español,2.0,catalan,2.0,urdu,4.0,punjabi,4.0,ingles,3.0,3.0,no,no,no,no,,9.La música me tranquiliza y me relaja.,3.0, ha estabo bien ,53.0,yes
9,2024-04-28_14h48.04.519,Experiment4_uns,s174,24 ,feminino,right,españa,"catalan,español, ",Bachelor degree,no,no,B,1,conjunction_un,L4,unsyncopated,s1,r1,9,Online_conjL4_un//c.bu.da7.none.none.wav,zi,re,po,sil,lo,bo,ci,sil1,ña,de,sil2,['-'],,,none,none,,,,da,3,testConjL4Uns//dep_viol.r2.s2.0.wav,1.0,conjunction_un,unsyncopated,b,s2,no_rule,dep,L4,z,2.7816,5.0,0.0,0.7002,5.0,2 o 3,español,2.0,catalan,2.0,urdu,4.0,punjabi,4.0,ingles,3.0,3.0,no,no,no,no,,10.La música me hace bailar,2.0, ha estabo bien ,53.0,yes
10,2024-04-28_14h48.04.519,Experiment4_uns,s174,24 ,feminino,right,españa,"catalan,español, ",Bachelor degree,no,no,B,1,conjunction_un,L4,unsyncopated,s1,r1,10,Online_conjL4_un//c.bu.da4.1776.1110.wav,zi,re,bo,sil,lo,da,ru,sil1,bu,de,sil2,['miss'],,,1.11,no_beat,,,,da,3,testConjL4Uns//dep_viol.r2.s1.0.wav,1.0,conjunction_un,unsyncopated,b,s1,no_rule,dep,L4,m,2.5281,5.0,1.0,0.6975,5.0,2 o 3,español,2.0,catalan,2.0,urdu,4.0,punjabi,4.0,ingles,3.0,3.0,no,no,no,no,,11.Busco novedades musicales continuamente,1.0, ha estabo bien ,53.0,yes
11,2024-04-28_14h48.04.519,Experiment4_uns,s174,24 ,feminino,right,españa,"catalan,español, ",Bachelor degree,no,no,B,1,conjunction_un,L4,unsyncopated,s1,r2,11,Online_conjL4_un//c.bu.da6.1776.444.wav,ja,ru,da,sil,nu,ñi,ña,sil1,bu,re,sil2,['catch'],[0.8082000000029552],[0.8082000000029552],0.444,no_beat,0.3642000000029552,0.3642000000029552,"[""space""]",da,3,testConjL4Uns//r2.s1.1.wav,1.0,conjunction_un,unsyncopated,b,s1,rule,rule,L4,z,0.3988,6.0,1.0,0.7815,5.0,2 o 3,español,2.0,catalan,2.0,urdu,4.0,punjabi,4.0,ingles,3.0,3.0,no,no,no,no,,12. Puedo llorar cuando escucho algunas melodías que me gustan mucho.,4.0, ha estabo bien ,53.0,yes
12,2024-04-28_14h48.04.519,Experiment4_uns,s174,24 ,feminino,right,españa,"catalan,español, ",Bachelor degree,no,no,B,1,conjunction_un,L4,unsyncopated,s1,r1,12,Online_conjL4_un//c.bu.da1.none.none.wav,zi,bo,po,sil,lo,re,ci,sil1,ñi,pe,sil2,['-'],,,none,none,,,,da,3,testConjL4Uns//r2.s2.2.wav,1.0,conjunction_un,unsyncopated,b,s2,rule,rule,L4,z,1.2632,6.0,1.0,0.7808,5.0,2 o 3,español,2.0,catalan,2.0,urdu,4.0,punjabi,4.0,ingles,3.0,3.0,no,no,no,no,,13. Me gusta cantar o tocar un instrumento con más gente,2.0, ha estabo bien ,53.0,yes
13,2024-04-28_14h48.04.519,Experiment4_uns,s174,24 ,feminino,right,españa,"catalan,español, ",Bachelor degree,no,no,B,1,conjunction_un,L4,unsyncopated,s2,r2,13,Online_conjL4_un//c.bu.da3.444.1110.wav,po,pe,bu,sil,ja,da,ci,sil1,nu,de,sil2,['miss'],,,1.11,no_beat,,,,da,3,testConjL4Uns//r1.s1.1.wav,1.0,conjunction_un,unsyncopated,a,s1,rule,rule,L4,m,0.9299,5.0,0.0,0.6173,5.0,2 o 3,español,2.0,catalan,2.0,urdu,4.0,punjabi,4.0,ingles,3.0,3.0,no,no,no,no,,14. La música me ayuda a desconectar.,3.0, ha estabo bien ,53.0,yes
14,2024-04-28_14h48.04.519,Experiment4_uns,s174,24 ,feminino,right,españa,"catalan,español, ",Bachelor degree,no,no,B,1,conjunction_un,L4,unsyncopated,s1,r1,14,Online_conjL4_un//c.bu.da0.none.none.wav,zi,ña,ru,sil,lo,re,ñi,sil1,bo,ci,sil2,['-'],,,none,none,,,,da,3,testConjL4Uns//r1.s1.2.wav,1.0,conjunction_un,unsyncopated,a,s1,rule,rule,L4,m,3.6611,5.0,0.0,0.3517,5.0,2 o 3,español,2.0,catalan,2.0,urdu,4.0,punjabi,4.0,ingles,3.0,3.0,no,no,no,no,,15. No puedo evitar tararear las canciones que me gustan cuando las escucho.,3.0, ha estabo bien ,53.0,yes
15,2024-04-28_14h48.04.519,Experiment4_uns,s174,24 ,feminino,right,españa,"catalan,español, ",Bachelor degree,no,no,B,1,conjunction_un,L4,unsyncopated,s1,r1,15,Online_conjL4_un//c.bu.da2.none.none.wav,zi,pe,ci,sil,lo,de,ña,sil1,ñi,re,sil2,['-'],,,none,none,,,,da,3,testConjL4Uns//cat_viol.r2.s1.0.wav,1.0,conjunction_un,unsyncopated,b,s1,no_rule,cat,L4,m,2.4154,5.0,1.0,0.6332,5.0,2 o 3,español,2.0,catalan,2.0,urdu,4.0,punjabi,4.0,ingles,3.0,3.0,no,no,no,no,,16. En los conciertos me siento en sintonía con los artistas y el público.,2.0, ha estabo bien ,53.0,yes
16,2024-04-28_14h48.04.519,Experiment4_uns,s174,24 ,feminino,right,españa,"catalan,español, ",Bachelor degree,no,no,B,1,conjunction_un,L4,unsyncopated,s2,r1,16,Online_conjL4_un//a.zi.lo0.888.1776.wav,ñi,bu,ci,sil,zi,da,pe,sil1,lo,re,sil2,['miss'],,,0.888,beat,,,,zi,1,testConjL4Uns//r2.s1.0.wav,1.0,conjunction_un,unsyncopated,b,s1,rule,rule,L4,m,2.0008,5.0,0.0,0.6065,5.0,2 o 3,español,2.0,catalan,2.0,urdu,4.0,punjabi,4.0,ingles,3.0,3.0,no,no,no,no,,17. Me gasto bastante dinero en música y cosas relacionadas con la música.,2.0, ha estabo bien ,53.0,yes
17,2024-04-28_14h48.04.519,Experiment4_uns,s174,24 ,feminino,right,españa,"catalan,español, ",Bachelor degree,no,no,B,1,conjunction_un,L4,unsyncopated,s1,r2,17,Online_conjL4_un//a.zi.lo3.none.none.wav,ja,bu,re,sil,nu,pe,ñi,sil1,ru,ci,sil2,['-'],,,none,none,,,,zi,1,testConjL4Uns//r1.s2.0.wav,1.0,conjunction_un,unsyncopated,a,s2,rule,rule,L4,z,0.5504,6.0,1.0,0.6001,5.0,2 o 3,español,2.0,catalan,2.0,urdu,4.0,punjabi,4.0,ingles,3.0,3.0,no,no,no,no,,18. Siento escalofríos cuando escucho una melodía que me gusta.,2.0, ha estabo bien ,53.0,yes
18,2024-04-28_14h48.04.519,Experiment4_uns,s174,24 ,feminino,right,españa,"catalan,español, ",Bachelor degree,no,no,B,1,conjunction_un,L4,unsyncopated,s1,r1,18,Online_conjL4_un//a.zi.lo1.0.888.wav,zi,ña,ci,sil,lo,po,pe,sil1,bo,da,sil2,['catch'],[0.8081000000015024],[0.8081000000015024],0.0,beat,0.8081000000015024,0.8081000000015024,"[""space""]",zi,1,testConjL4Uns//time_viol.r2.s2.0.wav,1.0,conjunction_un,unsyncopated,b,s2,no_rule,time,L4,m,0.7357,5.0,1.0,0.5158,5.0,2 o 3,español,2.0,catalan,2.0,urdu,4.0,punjabi,4.0,ingles,3.0,3.0,no,no,no,no,,19. Con la música me puedo desahogar.,3.0, ha estabo bien ,53.0,yes
19,2024-04-28_14h48.04.519,Experiment4_uns,s174,24 ,feminino,right,españa,"catalan,español, ",Bachelor degree,no,no,B,1,conjunction_un,L4,unsyncopated,s1,r1,19,Online_conjL4_un//a.zi.lo2.0.888.wav,zi,ña,re,sil,lo,de,pe,sil1,bu,po,sil2,['catch'],[0.6968999999984931],[0.6968999999984931],0.0,beat,0.6968999999984931,0.6968999999984931,"[""space""]",zi,1,testConjL4Uns//r1.s2.1.wav,1.0,conjunction_un,unsyncopated,a,s2,rule,rule,L4,m,0.699,5.0,0.0,0.5169,5.0,2 o 3,español,2.0,catalan,2.0,urdu,4.0,punjabi,4.0,ingles,3.0,3.0,no,no,no,no,,20. Cuando escucho una melodía que me gusta mucho no puedo evitar mover el cuerpo.,2.0, ha estabo bien ,53.0,yes
20,2024-04-28_14h48.04.519,Experiment4_uns,s174,24 ,feminino,right,españa,"catalan,español, ",Bachelor degree,no,no,B,1,conjunction_un,L4,unsyncopated,s2,r1,20,Online_conjL4_un//b.ja.nu11.none.none.wav,ci,re,bu,sil,zi,da,ña,sil1,lo,ru,sil2,['-'],,,none,none,,,,nu,2,testConjL4Uns//dep_viol.r1.s2.0.wav,1.0,conjunction_un,unsyncopated,a,s2,no_rule,dep,L4,z,0.7491,5.0,0.0,0.5224,5.0,2 o 3,español,2.0,catalan,2.0,urdu,4.0,punjabi,4.0,ingles,3.0,3.0,no,no,no,no,,,, ha estabo bien ,53.0,yes
21,2024-04-28_14h48.04.519,Experiment4_uns,s174,24 ,feminino,right,españa,"catalan,español, ",Bachelor degree,no,no,B,1,conjunction_un,L4,unsyncopated,s2,r2,21,Online_conjL4_un//b.ja.nu8.888.1776.wav,po,ñi,re,sil,ja,de,da,sil1,nu,pe,sil2,['catch_delay'],[0.9185000000000179],[0.9185000000000179],1.776,beat,0.918500000000018,0.918500000000018,,nu,2,testConjL4Uns//time_viol.r1.s1.0.wav,1.0,conjunction_un,unsyncopated,a,s1,no_rule,time,L4,z,1.1511,5.0,0.0,0.2666,5.0,2 o 3,español,2.0,catalan,2.0,urdu,4.0,punjabi,4.0,ingles,3.0,3.0,no,no,no,no,,,, ha estabo bien ,53.0,yes
22,2024-04-28_14h48.04.519,Experiment4_uns,s174,24 ,feminino,right,españa,"catalan,español, ",Bachelor degree,no,no,B,1,conjunction_un,L4,unsyncopated,s1,r1,22,Online_conjL4_un//b.ja.nu9.none.none.wav,zi,de,bu,sil,lo,bo,po,sil1,da,ñi,sil2,['-'],[0.030500000000017735],[0.030500000000017735],none,none,,,"[""space""]",nu,2,testConjL4Uns//r1.s2.2.wav,1.0,conjunction_un,unsyncopated,a,s2,rule,rule,L4,m,0.8723,5.0,0.0,0.2687,5.0,2 o 3,español,2.0,catalan,2.0,urdu,4.0,punjabi,4.0,ingles,3.0,3.0,no,no,no,no,,,, ha estabo bien ,53.0,yes
23,2024-04-28_14h48.04.519,Experiment4_uns,s174,24 ,feminino,right,españa,"catalan,español, ",Bachelor degree,no,no,B,1,conjunction_un,L4,unsyncopated,s2,r1,23,Online_conjL4_un//b.ja.nu10.none.none.wav,bu,da,de,sil,zi,ña,ñi,sil1,lo,ci,sil2,['false alarm'],[1.676499999999976],[1.676499999999976],none,none,,,"[""space""]",nu,2,testConjL4Uns//r2.s1.2.wav,1.0,conjunction_un,unsyncopated,b,s1,rule,rule,L4,z,0.4335,5.0,1.0,0.5008,5.0,2 o 3,español,2.0,catalan,2.0,urdu,4.0,punjabi,4.0,ingles,3.0,3.0,no,no,no,no,,,, ha estabo bien ,53.0,yes
24,2024-04-28_14h48.04.519,Experiment4_uns,s174,24 ,feminino,right,españa,"catalan,español, ",Bachelor degree,no,no,B,1,conjunction_un,L4,unsyncopated,s1,r1,24,Online_conjL4_un//a.zi.lo28.0.888.wav,zi,da,bo,sil,lo,ña,po,sil1,de,pe,sil2,['catch'],[0.8951000000016052],[0.8951000000016052],0.0,beat,0.8951000000016052,0.8951000000016052,"[""space""]",zi,1,testWhenL2Uns//dep_viol.r1.s2.0.wav,2.0,when,unsyncopated,a,s2,no_rule,dep,L2,z,2.0658,6.0,1.0,0.7737,5.0,2 o 3,español,2.0,catalan,2.0,urdu,4.0,punjabi,4.0,ingles,3.0,3.0,no,no,no,no,,,, ha estabo bien ,53.0,yes
25,2024-04-28_14h48.04.519,Experiment4_uns,s174,24 ,feminino,right,españa,"catalan,español, ",Bachelor degree,no,no,B,1,conjunction_un,L4,unsyncopated,s1,r2,25,Online_conjL4_un//a.zi.lo31.none.none.wav,ja,ru,da,sil,nu,bu,ci,sil1,pe,re,sil2,['-'],,,none,none,,,,zi,1,testWhenL2Uns//cat_viol.r1.s1.0.wav,2.0,when,unsyncopated,a,s1,no_rule,cat,L2,z,0.7995,6.0,1.0,0.5693,5.0,2 o 3,español,2.0,catalan,2.0,urdu,4.0,punjabi,4.0,ingles,3.0,3.0,no,no,no,no,,,, ha estabo bien ,53.0,yes
26,2024-04-28_14h48.04.519,Experiment4_uns,s174,24 ,feminino,right,españa,"catalan,español, ",Bachelor degree,no,no,B,1,conjunction_un,L4,unsyncopated,s1,r1,26,Online_conjL4_un//a.zi.lo30.0.888.wav,zi,ci,bu,sil,lo,ru,da,sil1,ñi,de,sil2,['catch'],[0.5878999999985126],[0.5878999999985126],0.0,beat,0.5878999999985126,0.5878999999985126,"[""space""]",zi,1,testWhenL2Uns//r1.s2.2.wav,2.0,when,unsyncopated,a,s2,rule,rule,L2,z,0.7922,6.0,1.0,0.6173,5.0,2 o 3,español,2.0,catalan,2.0,urdu,4.0,punjabi,4.0,ingles,3.0,3.0,no,no,no,no,,,, ha estabo bien ,53.0,yes
27,2024-04-28_14h48.04.519,Experiment4_uns,s174,24 ,feminino,right,españa,"catalan,español, ",Bachelor degree,no,no,B,1,conjunction_un,L4,unsyncopated,s1,r2,27,Online_conjL4_un//a.zi.lo29.none.none.wav,ja,ci,pe,sil,nu,ru,po,sil1,ñi,da,sil2,['-'],,,none,none,,,,zi,1,testWhenL2Uns//cat_viol.r2.s2.0.wav,2.0,when,unsyncopated,b,s2,no_rule,cat,L2,z,0.6515,6.0,1.0,0.5501,5.0,2 o 3,español,2.0,catalan,2.0,urdu,4.0,punjabi,4.0,ingles,3.0,3.0,no,no,no,no,,,, ha estabo bien ,53.0,yes
28,2024-04-28_14h48.04.519,Experiment4_uns,s174,24 ,feminino,right,españa,"catalan,español, ",Bachelor degree,no,no,B,1,conjunction_un,L4,unsyncopated,s2,r2,28,Online_conjL4_un//a.zi.lo13.none.none.wav,re,ña,bo,sil,ja,bu,ñi,sil1,nu,da,sil2,['-'],,,none,none,,,,zi,1,testWhenL2Uns//cat_viol.r1.s2.0.wav,2.0,when,unsyncopated,a,s2,no_rule,cat,L2,m,2.3614,4.0,0.0,1.1659,5.0,2 o 3,español,2.0,catalan,2.0,urdu,4.0,punjabi,4.0,ingles,3.0,3.0,no,no,no,no,,,, ha estabo bien ,53.0,yes
29,2024-04-28_14h48.04.519,Experiment4_uns,s174,24 ,feminino,right,españa,"catalan,español, ",Bachelor degree,no,no,B,1,conjunction_un,L4,unsyncopated,s2,r2,29,Online_conjL4_un//a.zi.lo15.none.none.wav,po,ñi,pe,sil,ja,da,bo,sil1,nu,de,sil2,['-'],,,none,none,,,,zi,1,testWhenL2Uns//r2.s1.0.wav,2.0,when,unsyncopated,b,s1,rule,rule,L2,z,0.8337,6.0,1.0,0.606,5.0,2 o 3,español,2.0,catalan,2.0,urdu,4.0,punjabi,4.0,ingles,3.0,3.0,no,no,no,no,,,, ha estabo bien ,53.0,yes
30,2024-04-28_14h48.04.519,Experiment4_uns,s174,24 ,feminino,right,españa,"catalan,español, ",Bachelor degree,no,no,B,1,conjunction_un,L4,unsyncopated,s2,r2,30,Online_conjL4_un//a.zi.lo12.none.none.wav,re,bo,pe,sil,ja,bu,ru,sil1,nu,de,sil2,['-'],,,none,none,,,,zi,1,testWhenL2Uns//r1.s1.1.wav,2.0,when,unsyncopated,a,s1,rule,rule,L2,m,0.9008,7.0,0.0,0.4681,5.0,2 o 3,español,2.0,catalan,2.0,urdu,4.0,punjabi,4.0,ingles,3.0,3.0,no,no,no,no,,,, ha estabo bien ,53.0,yes
31,2024-04-28_14h48.04.519,Experiment4_uns,s174,24 ,feminino,right,españa,"catalan,español, ",Bachelor degree,no,no,B,1,conjunction_un,L4,unsyncopated,s1,r1,31,Online_conjL4_un//a.zi.lo14.0.888.wav,zi,po,ñi,sil,lo,bo,da,sil1,pe,bu,sil2,['catch'],[0.7466000000014219],[0.7466000000014219],0.0,beat,0.7466000000014219,0.7466000000014219,"[""space""]",zi,1,testWhenL2Uns//time_viol.r1.s2.0.wav,2.0,when,unsyncopated,a,s2,no_rule,time,L2,m,0.9698,6.0,0.0,0.3169,5.0,2 o 3,español,2.0,catalan,2.0,urdu,4.0,punjabi,4.0,ingles,3.0,3.0,no,no,no,no,,,, ha estabo bien ,53.0,yes
32,2024-04-28_14h48.04.519,Experiment4_uns,s174,24 ,feminino,right,españa,"catalan,español, ",Bachelor degree,no,no,B,1,conjunction_un,L4,unsyncopated,s2,r2,32,Online_conjL4_un//b.ja.nu30.888.1776.wav,pe,re,ña,sil,ja,po,de,sil1,nu,da,sil2,['catch'],[2.6221000000015238],[2.6221000000015238],1.776,beat,0.8461000000015237,0.8461000000015237,"[""space""]",nu,2,testWhenL2Uns//dep_viol.r2.s1.0.wav,2.0,when,unsyncopated,b,s1,no_rule,dep,L2,z,0.7552,6.0,1.0,0.5511,5.0,2 o 3,español,2.0,catalan,2.0,urdu,4.0,punjabi,4.0,ingles,3.0,3.0,no,no,no,no,,,, ha estabo bien ,53.0,yes
33,2024-04-28_14h48.04.519,Experiment4_uns,s174,24 ,feminino,right,españa,"catalan,español, ",Bachelor degree,no,no,B,1,conjunction_un,L4,unsyncopated,s2,r1,33,Online_conjL4_un//b.ja.nu29.none.none.wav,ci,da,po,sil,zi,bu,de,sil1,lo,ña,sil2,['-'],,,none,none,,,,nu,2,testWhenL2Uns//r1.s1.0.wav,2.0,when,unsyncopated,a,s1,rule,rule,L2,z,0.8841,6.0,1.0,0.5196,5.0,2 o 3,español,2.0,catalan,2.0,urdu,4.0,punjabi,4.0,ingles,3.0,3.0,no,no,no,no,,,, ha estabo bien ,53.0,yes
34,2024-04-28_14h48.04.519,Experiment4_uns,s174,24 ,feminino,right,españa,"catalan,español, ",Bachelor degree,no,no,B,1,conjunction_un,L4,unsyncopated,s1,r1,34,Online_conjL4_un//b.ja.nu28.none.none.wav,zi,po,pe,sil,lo,bo,ñi,sil1,re,ci,sil2,['-'],,,none,none,,,,nu,2,testWhenL2Uns//cat_viol.r2.s1.0.wav,2.0,when,unsyncopated,b,s1,no_rule,cat,L2,z,0.4999,6.0,1.0,0.5016,5.0,2 o 3,español,2.0,catalan,2.0,urdu,4.0,punjabi,4.0,ingles,3.0,3.0,no,no,no,no,,,, ha estabo bien ,53.0,yes
35,2024-04-28_14h48.04.519,Experiment4_uns,s174,24 ,feminino,right,españa,"catalan,español, ",Bachelor degree,no,no,B,1,conjunction_un,L4,unsyncopated,s2,r1,35,Online_conjL4_un//b.ja.nu31.none.none.wav,ru,pe,ñi,sil,zi,ña,da,sil1,lo,ci,sil2,['-'],,,none,none,,,,nu,2,testWhenL2Uns//time_viol.r2.s1.0.wav,2.0,when,unsyncopated,b,s1,no_rule,time,L2,z,0.5637,6.0,1.0,0.467,5.0,2 o 3,español,2.0,catalan,2.0,urdu,4.0,punjabi,4.0,ingles,3.0,3.0,no,no,no,no,,,, ha estabo bien ,53.0,yes
36,2024-04-28_14h48.04.519,Experiment4_uns,s174,24 ,feminino,right,españa,"catalan,español, ",Bachelor degree,no,no,B,1,conjunction_un,L4,unsyncopated,s1,r2,36,Online_conjL4_un//d.pe.po6.1110.222.wav,ja,po,de,sil,nu,pe,da,sil1,ru,bo,sil2,['catch'],[0.539600000001542],[0.539600000001542],0.222,no_beat,0.317600000001542,0.317600000001542,"[""space""]",po,4,testWhenL2Uns//time_viol.r1.s1.0.wav,2.0,when,unsyncopated,a,s1,no_rule,time,L2,z,1.5705,6.0,1.0,0.5181,5.0,2 o 3,español,2.0,catalan,2.0,urdu,4.0,punjabi,4.0,ingles,3.0,3.0,no,no,no,no,,,, ha estabo bien ,53.0,yes
37,2024-04-28_14h48.04.519,Experiment4_uns,s174,24 ,feminino,right,españa,"catalan,español, ",Bachelor degree,no,no,B,1,conjunction_un,L4,unsyncopated,s1,r1,37,Online_conjL4_un//d.pe.po7.1110.222.wav,zi,po,ña,sil,lo,pe,ru,sil1,da,re,sil2,['catch'],[0.8966000000015129],[0.8966000000015129],0.222,no_beat,0.6746000000015129,0.6746000000015129,"[""space""]",po,4,testWhenL2Uns//r1.s2.0.wav,2.0,when,unsyncopated,a,s2,rule,rule,L2,z,1.5654,6.0,1.0,0.4242,5.0,2 o 3,español,2.0,catalan,2.0,urdu,4.0,punjabi,4.0,ingles,3.0,3.0,no,no,no,no,,,, ha estabo bien ,53.0,yes
38,2024-04-28_14h48.04.519,Experiment4_uns,s174,24 ,feminino,right,españa,"catalan,español, ",Bachelor degree,no,no,B,1,conjunction_un,L4,unsyncopated,s1,r1,38,Online_conjL4_un//d.pe.po5.none.none.wav,zi,de,re,sil,lo,ru,ci,sil1,bo,bu,sil2,['-'],,,none,none,,,,po,4,testWhenL2Uns//r2.s2.2.wav,2.0,when,unsyncopated,b,s2,rule,rule,L2,z,5.5048,5.0,1.0,0.5313,5.0,2 o 3,español,2.0,catalan,2.0,urdu,4.0,punjabi,4.0,ingles,3.0,3.0,no,no,no,no,,,, ha estabo bien ,53.0,yes
39,2024-04-28_14h48.04.519,Experiment4_uns,s174,24 ,feminino,right,españa,"catalan,español, ",Bachelor degree,no,no,B,1,conjunction_un,L4,unsyncopated,s2,r1,39,Online_conjL4_un//d.pe.po4.0.1110.wav,pe,ru,da,sil,zi,po,ñi,sil1,lo,bu,sil2,['false alarm'],[0.6872000000029175],[0.6872000000029175],1.11,no_beat,,,"[""space""]",po,4,testWhenL2Uns//time_viol.r2.s2.0.wav,2.0,when,unsyncopated,b,s2,no_rule,time,L2,z,2.0647,6.0,1.0,0.8806,5.0,2 o 3,español,2.0,catalan,2.0,urdu,4.0,punjabi,4.0,ingles,3.0,3.0,no,no,no,no,,,, ha estabo bien ,53.0,yes
40,2024-04-28_14h48.04.519,Experiment4_uns,s174,24 ,feminino,right,españa,"catalan,español, ",Bachelor degree,no,no,B,1,conjunction_un,L4,unsyncopated,s1,r2,40,Online_conjL4_un//b.ja.nu17.0.888.wav,ja,da,ru,sil,nu,ña,ci,sil1,po,re,sil2,['catch'],[2.2325000000000728],[2.2325000000000728],0.888,beat,,1.3445000000000729,"[""space""]",nu,2,testWhenL2Uns//dep_viol.r1.s1.0.wav,2.0,when,unsyncopated,a,s1,no_rule,dep,L2,z,2.249,6.0,1.0,0.6018,5.0,2 o 3,español,2.0,catalan,2.0,urdu,4.0,punjabi,4.0,ingles,3.0,3.0,no,no,no,no,,,, ha estabo bien ,53.0,yes
41,2024-04-28_14h48.04.519,Experiment4_uns,s174,24 ,feminino,right,españa,"catalan,español, ",Bachelor degree,no,no,B,1,conjunction_un,L4,unsyncopated,s1,r2,41,Online_conjL4_un//b.ja.nu16.0.888.wav,ja,da,po,sil,nu,ru,bu,sil1,ci,de,sil2,['miss'],,,0.888,beat,,,,nu,2,testWhenL2Uns//r2.s2.1.wav,2.0,when,unsyncopated,b,s2,rule,rule,L2,z,0.9844,6.0,1.0,0.4173,5.0,2 o 3,español,2.0,catalan,2.0,urdu,4.0,punjabi,4.0,ingles,3.0,3.0,no,no,no,no,,,, ha estabo bien ,53.0,yes
42,2024-04-28_14h48.04.519,Experiment4_uns,s174,24 ,feminino,right,españa,"catalan,español, ",Bachelor degree,no,no,B,1,conjunction_un,L4,unsyncopated,s1,r1,42,Online_conjL4_un//b.ja.nu19.none.none.wav,zi,ña,pe,sil,lo,bu,ñi,sil1,da,ru,sil2,['-'],,,none,none,,,,nu,2,testWhenL2Uns//r2.s1.2.wav,2.0,when,unsyncopated,b,s1,rule,rule,L2,z,3.0635,6.0,1.0,1.2829,5.0,2 o 3,español,2.0,catalan,2.0,urdu,4.0,punjabi,4.0,ingles,3.0,3.0,no,no,no,no,,,, ha estabo bien ,53.0,yes
43,2024-04-28_14h48.04.519,Experiment4_uns,s174,24 ,feminino,right,españa,"catalan,español, ",Bachelor degree,no,no,B,1,conjunction_un,L4,unsyncopated,s2,r1,43,Online_conjL4_un//b.ja.nu18.none.none.wav,re,ci,bu,sil,zi,ñi,ña,sil1,lo,pe,sil2,['-'],,,none,none,,,,nu,2,testWhenL2Uns//r1.s1.2.wav,2.0,when,unsyncopated,a,s1,rule,rule,L2,m,1.624,6.0,0.0,0.3929,5.0,2 o 3,español,2.0,catalan,2.0,urdu,4.0,punjabi,4.0,ingles,3.0,3.0,no,no,no,no,,,, ha estabo bien ,53.0,yes
44,2024-04-28_14h48.04.519,Experiment4_uns,s174,24 ,feminino,right,españa,"catalan,español, ",Bachelor degree,no,no,B,1,conjunction_un,L4,unsyncopated,s2,r1,44,Online_conjL4_un//b.ja.nu0.none.none.wav,de,ru,da,sil,zi,re,pe,sil1,lo,bu,sil2,['-'],,,none,none,,,,nu,2,testWhenL2Uns//dep_viol.r2.s2.0.wav,2.0,when,unsyncopated,b,s2,no_rule,dep,L2,z,0.7333,7.0,1.0,0.693,5.0,2 o 3,español,2.0,catalan,2.0,urdu,4.0,punjabi,4.0,ingles,3.0,3.0,no,no,no,no,,,, ha estabo bien ,53.0,yes
45,2024-04-28_14h48.04.519,Experiment4_uns,s174,24 ,feminino,right,españa,"catalan,español, ",Bachelor degree,no,no,B,1,conjunction_un,L4,unsyncopated,s2,r2,45,Online_conjL4_un//b.ja.nu2.888.1776.wav,po,ci,bu,sil,ja,pe,ru,sil1,nu,de,sil2,['catch'],[2.5539999999999736],[2.5539999999999736],1.776,beat,0.7779999999999736,0.7779999999999736,"[""space""]",nu,2,testWhenL2Uns//r2.s2.0.wav,2.0,when,unsyncopated,b,s2,rule,rule,L2,z,0.7337,7.0,1.0,0.5002,5.0,2 o 3,español,2.0,catalan,2.0,urdu,4.0,punjabi,4.0,ingles,3.0,3.0,no,no,no,no,,,, ha estabo bien ,53.0,yes
46,2024-04-28_14h48.04.519,Experiment4_uns,s174,24 ,feminino,right,españa,"catalan,español, ",Bachelor degree,no,no,B,1,conjunction_un,L4,unsyncopated,s1,r2,46,Online_conjL4_un//b.ja.nu3.0.888.wav,ja,ña,re,sil,nu,bo,po,sil1,ci,ñi,sil2,['catch'],[2.1276000000015074],[2.1276000000015074],0.888,beat,,1.2396000000015075,"[""space""]",nu,2,testWhenL2Uns//r2.s1.1.wav,2.0,when,unsyncopated,b,s1,rule,rule,L2,z,0.6211,6.0,1.0,0.467,5.0,2 o 3,español,2.0,catalan,2.0,urdu,4.0,punjabi,4.0,ingles,3.0,3.0,no,no,no,no,,,, ha estabo bien ,53.0,yes
47,2024-04-28_14h48.04.519,Experiment4_uns,s174,24 ,feminino,right,españa,"catalan,español, ",Bachelor degree,no,no,B,1,conjunction_un,L4,unsyncopated,s2,r1,47,Online_conjL4_un//b.ja.nu1.none.none.wav,bo,ci,ru,sil,zi,re,da,sil1,lo,de,sil2,['-'],,,none,none,,,,nu,2,testWhenL2Uns//r1.s2.1.wav,2.0,when,unsyncopated,a,s2,rule,rule,L2,z,1.7156,6.0,1.0,0.3817,5.0,2 o 3,español,2.0,catalan,2.0,urdu,4.0,punjabi,4.0,ingles,3.0,3.0,no,no,no,no,,,, ha estabo bien ,53.0,yes
48,2024-04-28_14h48.04.519,Experiment4_uns,s174,24 ,feminino,right,españa,"catalan,español, ",Bachelor degree,no,no,B,1,conjunction_un,L4,unsyncopated,s1,r1,48,Online_conjL4_un//d.pe.po14.none.none.wav,zi,bo,da,sil,lo,ña,ci,sil1,de,re,sil2,['-'],,,none,none,,,,po,4,testWhatL1Uns//r1.s1.2.wav,3.0,what,unsyncopated,a,s1,rule,rule,L1,z,1.967,6.0,1.0,1.0058,5.0,2 o 3,español,2.0,catalan,2.0,urdu,4.0,punjabi,4.0,ingles,3.0,3.0,no,no,no,no,,,, ha estabo bien ,53.0,yes
49,2024-04-28_14h48.04.519,Experiment4_uns,s174,24 ,feminino,right,españa,"catalan,español, ",Bachelor degree,no,no,B,1,conjunction_un,L4,unsyncopated,s1,r1,49,Online_conjL4_un//d.pe.po13.1776.1110.wav,zi,ña,ñi,sil,lo,po,bu,sil1,pe,de,sil2,['miss'],,,1.11,no_beat,,,,po,4,testWhatL1Uns//time_viol.r1.s2.0.wav,3.0,what,unsyncopated,a,s2,no_rule,time,L1,m,2.4148,6.0,1.0,0.4502,5.0,2 o 3,español,2.0,catalan,2.0,urdu,4.0,punjabi,4.0,ingles,3.0,3.0,no,no,no,no,,,, ha estabo bien ,53.0,yes
50,2024-04-28_14h48.04.519,Experiment4_uns,s174,24 ,feminino,right,españa,"catalan,español, ",Bachelor degree,no,no,B,1,conjunction_un,L4,unsyncopated,s2,r2,50,Online_conjL4_un//d.pe.po12.none.none.wav,da,ñi,bo,sil,ja,ña,ru,sil1,nu,bu,sil2,['-'],,,none,none,,,,po,4,testWhatL1Uns//dep_viol.r1.s2.0.wav,3.0,what,unsyncopated,a,s2,no_rule,dep,L1,z,0.4317,7.0,0.0,0.783,5.0,2 o 3,español,2.0,catalan,2.0,urdu,4.0,punjabi,4.0,ingles,3.0,3.0,no,no,no,no,,,, ha estabo bien ,53.0,yes
51,2024-04-28_14h48.04.519,Experiment4_uns,s174,24 ,feminino,right,españa,"catalan,español, ",Bachelor degree,no,no,B,1,conjunction_un,L4,unsyncopated,s1,r2,51,Online_conjL4_un//d.pe.po15.444.1332.wav,ja,bu,pe,sil,nu,ru,po,sil1,de,da,sil2,['miss'],,,1.332,no_beat,,,,po,4,testWhatL1Uns//r2.s2.0.wav,3.0,what,unsyncopated,b,s2,rule,rule,L1,z,0.7863,6.0,1.0,0.5866,5.0,2 o 3,español,2.0,catalan,2.0,urdu,4.0,punjabi,4.0,ingles,3.0,3.0,no,no,no,no,,,, ha estabo bien ,53.0,yes
52,2024-04-28_14h48.04.519,Experiment4_uns,s174,24 ,feminino,right,españa,"catalan,español, ",Bachelor degree,no,no,B,1,conjunction_un,L4,unsyncopated,s1,r1,52,Online_conjL4_un//b.ja.nu22.none.none.wav,zi,ña,ci,sil,lo,bu,da,sil1,de,po,sil2,['-'],,,none,none,,,,nu,2,testWhatL1Uns//r1.s1.1.wav,3.0,what,unsyncopated,a,s1,rule,rule,L1,z,1.0497,6.0,1.0,0.4507,5.0,2 o 3,español,2.0,catalan,2.0,urdu,4.0,punjabi,4.0,ingles,3.0,3.0,no,no,no,no,,,, ha estabo bien ,53.0,yes
53,2024-04-28_14h48.04.519,Experiment4_uns,s174,24 ,feminino,right,españa,"catalan,español, ",Bachelor degree,no,no,B,1,conjunction_un,L4,unsyncopated,s2,r2,53,Online_conjL4_un//b.ja.nu23.888.1776.wav,ci,ña,po,sil,ja,bu,ñi,sil1,nu,pe,sil2,['false alarm'],[1.5868999999984226],[1.5868999999984226],1.776,beat,,,"[""space""]",nu,2,testWhatL1Uns//cat_viol.r2.s1.0.wav,3.0,what,unsyncopated,b,s1,no_rule,cat,L1,z,4.0768,6.0,0.0,0.4685,5.0,2 o 3,español,2.0,catalan,2.0,urdu,4.0,punjabi,4.0,ingles,3.0,3.0,no,no,no,no,,,, ha estabo bien ,53.0,yes
54,2024-04-28_14h48.04.519,Experiment4_uns,s174,24 ,feminino,right,españa,"catalan,español, ",Bachelor degree,no,no,B,1,conjunction_un,L4,unsyncopated,s1,r2,54,Online_conjL4_un//b.ja.nu20.0.888.wav,ja,de,ñi,sil,nu,re,bo,sil1,da,po,sil2,"['false alarm', 'catch']","[0.3127999999970825, 2.0606000000015]",[2.0606000000015],0.888,beat,1.1726000000015002,1.1726000000015002,"[""space"",""space""]",nu,2,testWhatL1Uns//time_viol.r1.s1.0.wav,3.0,what,unsyncopated,a,s1,no_rule,time,L1,z,1.7319,6.0,0.0,0.8255,5.0,2 o 3,español,2.0,catalan,2.0,urdu,4.0,punjabi,4.0,ingles,3.0,3.0,no,no,no,no,,,, ha estabo bien ,53.0,yes
55,2024-04-28_14h48.04.519,Experiment4_uns,s174,24 ,feminino,right,españa,"catalan,español, ",Bachelor degree,no,no,B,1,conjunction_un,L4,unsyncopated,s1,r2,55,Online_conjL4_un//b.ja.nu21.0.888.wav,ja,re,ru,sil,nu,bo,pe,sil1,bu,ña,sil2,['catch'],[1.778400000005945],[1.778400000005945],0.888,beat,0.890400000005945,0.890400000005945,"[""space""]",nu,2,testWhatL1Uns//cat_viol.r2.s2.0.wav,3.0,what,unsyncopated,b,s2,no_rule,cat,L1,z,0.4843,6.0,0.0,0.4929,5.0,2 o 3,español,2.0,catalan,2.0,urdu,4.0,punjabi,4.0,ingles,3.0,3.0,no,no,no,no,,,, ha estabo bien ,53.0,yes
56,2024-04-28_14h48.04.519,Experiment4_uns,s174,24 ,feminino,right,españa,"catalan,español, ",Bachelor degree,no,no,B,1,conjunction_un,L4,unsyncopated,s2,r1,56,Online_conjL4_un//c.bu.da19.none.none.wav,ña,ru,pe,sil,zi,re,ñi,sil1,lo,de,sil2,['-'],,,none,none,,,,da,3,testWhatL1Uns//time_viol.r2.s1.0.wav,3.0,what,unsyncopated,b,s1,no_rule,time,L1,z,0.4179,7.0,0.0,0.6339,5.0,2 o 3,español,2.0,catalan,2.0,urdu,4.0,punjabi,4.0,ingles,3.0,3.0,no,no,no,no,,,, ha estabo bien ,53.0,yes
57,2024-04-28_14h48.04.519,Experiment4_uns,s174,24 ,feminino,right,españa,"catalan,español, ",Bachelor degree,no,no,B,1,conjunction_un,L4,unsyncopated,s2,r1,57,Online_conjL4_un//c.bu.da17.none.none.wav,ru,de,re,sil,zi,ci,po,sil1,lo,pe,sil2,['-'],,,none,none,,,,da,3,testWhatL1Uns//r2.s1.0.wav,3.0,what,unsyncopated,b,s1,rule,rule,L1,m,0.8483,6.0,0.0,0.3976,5.0,2 o 3,español,2.0,catalan,2.0,urdu,4.0,punjabi,4.0,ingles,3.0,3.0,no,no,no,no,,,, ha estabo bien ,53.0,yes
58,2024-04-28_14h48.04.519,Experiment4_uns,s174,24 ,feminino,right,españa,"catalan,español, ",Bachelor degree,no,no,B,1,conjunction_un,L4,unsyncopated,s1,r2,58,Online_conjL4_un//c.bu.da18.1110.222.wav,ja,da,re,sil,nu,bu,ru,sil1,bo,pe,sil2,['catch'],[1.1123999999985017],[1.1123999999985017],0.222,no_beat,0.8903999999985017,0.8903999999985017,"[""space""]",da,3,testWhatL1Uns//cat_viol.r1.s2.0.wav,3.0,what,unsyncopated,a,s2,no_rule,cat,L1,z,0.5048,7.0,0.0,0.5047,5.0,2 o 3,español,2.0,catalan,2.0,urdu,4.0,punjabi,4.0,ingles,3.0,3.0,no,no,no,no,,,, ha estabo bien ,53.0,yes
59,2024-04-28_14h48.04.519,Experiment4_uns,s174,24 ,feminino,right,españa,"catalan,español, ",Bachelor degree,no,no,B,1,conjunction_un,L4,unsyncopated,s1,r2,59,Online_conjL4_un//c.bu.da16.none.none.wav,ja,de,ñi,sil,nu,pe,ru,sil1,re,ci,sil2,['false alarm'],[1.4360000000000355],[1.4360000000000355],none,none,,,"[""space""]",da,3,testWhatL1Uns//r1.s2.0.wav,3.0,what,unsyncopated,a,s2,rule,rule,L1,z,0.5348,7.0,1.0,0.4345,5.0,2 o 3,español,2.0,catalan,2.0,urdu,4.0,punjabi,4.0,ingles,3.0,3.0,no,no,no,no,,,, ha estabo bien ,53.0,yes
60,2024-04-28_14h48.04.519,Experiment4_uns,s174,24 ,feminino,right,españa,"catalan,español, ",Bachelor degree,no,no,B,1,conjunction_un,L4,unsyncopated,s2,r2,60,Online_conjL4_un//b.ja.nu14.888.1776.wav,ru,ñi,re,sil,ja,pe,po,sil1,nu,da,sil2,['catch'],[2.434300000004555],[2.434300000004555],1.776,beat,0.6583000000045549,0.6583000000045549,"[""space""]",nu,2,testWhatL1Uns//r2.s1.1.wav,3.0,what,unsyncopated,b,s1,rule,rule,L1,z,0.6041,6.0,1.0,0.7165,5.0,2 o 3,español,2.0,catalan,2.0,urdu,4.0,punjabi,4.0,ingles,3.0,3.0,no,no,no,no,,,, ha estabo bien ,53.0,yes
61,2024-04-28_14h48.04.519,Experiment4_uns,s174,24 ,feminino,right,españa,"catalan,español, ",Bachelor degree,no,no,B,1,conjunction_un,L4,unsyncopated,s1,r1,61,Online_conjL4_un//b.ja.nu13.none.none.wav,zi,pe,de,sil,lo,bu,ru,sil1,ñi,ña,sil2,['-'],,,none,none,,,,nu,2,testWhatL1Uns//r1.s2.1.wav,3.0,what,unsyncopated,a,s2,rule,rule,L1,z,0.4918,6.0,1.0,0.501,5.0,2 o 3,español,2.0,catalan,2.0,urdu,4.0,punjabi,4.0,ingles,3.0,3.0,no,no,no,no,,,, ha estabo bien ,53.0,yes
62,2024-04-28_14h48.04.519,Experiment4_uns,s174,24 ,feminino,right,españa,"catalan,español, ",Bachelor degree,no,no,B,1,conjunction_un,L4,unsyncopated,s1,r2,62,Online_conjL4_un//b.ja.nu12.0.888.wav,ja,ñi,ci,sil,nu,ña,pe,sil1,da,bu,sil2,['miss'],,,0.888,beat,,,,nu,2,testWhatL1Uns//r1.s2.2.wav,3.0,what,unsyncopated,a,s2,rule,rule,L1,m,1.7401,6.0,0.0,4.1608,5.0,2 o 3,español,2.0,catalan,2.0,urdu,4.0,punjabi,4.0,ingles,3.0,3.0,no,no,no,no,,,, ha estabo bien ,53.0,yes
63,2024-04-28_14h48.04.519,Experiment4_uns,s174,24 ,feminino,right,españa,"catalan,español, ",Bachelor degree,no,no,B,1,conjunction_un,L4,unsyncopated,s1,r2,63,Online_conjL4_un//b.ja.nu15.0.888.wav,ja,bu,re,sil,nu,pe,bo,sil1,ñi,ci,sil2,['miss'],,,0.888,beat,,,,nu,2,testWhatL1Uns//cat_viol.r1.s1.0.wav,3.0,what,unsyncopated,a,s1,no_rule,cat,L1,z,0.3736,6.0,0.0,0.451,5.0,2 o 3,español,2.0,catalan,2.0,urdu,4.0,punjabi,4.0,ingles,3.0,3.0,no,no,no,no,,,, ha estabo bien ,53.0,yes
64,2024-04-28_14h48.04.519,Experiment4_uns,s174,24 ,feminino,right,españa,"catalan,español, ",Bachelor degree,no,no,B,1,conjunction_un,L4,unsyncopated,s1,r1,64,Online_conjL4_un//d.pe.po28.444.1332.wav,zi,ci,pe,sil,lo,ñi,po,sil1,ña,da,sil2,['miss'],,,1.332,no_beat,,,,po,4,testWhatL1Uns//dep_viol.r1.s1.0.wav,3.0,what,unsyncopated,a,s1,no_rule,dep,L1,z,0.9503,6.0,0.0,0.5341,5.0,2 o 3,español,2.0,catalan,2.0,urdu,4.0,punjabi,4.0,ingles,3.0,3.0,no,no,no,no,,,, ha estabo bien ,53.0,yes
65,2024-04-28_14h48.04.519,Experiment4_uns,s174,24 ,feminino,right,españa,"catalan,español, ",Bachelor degree,no,no,B,1,conjunction_un,L4,unsyncopated,s2,r1,65,Online_conjL4_un//d.pe.po29.none.none.wav,bo,ña,bu,sil,zi,ru,ci,sil1,lo,de,sil2,['-'],,,none,none,,,,po,4,testWhatL1Uns//dep_viol.r2.s1.0.wav,3.0,what,unsyncopated,b,s1,no_rule,dep,L1,z,1.0802,6.0,0.0,0.3342,5.0,2 o 3,español,2.0,catalan,2.0,urdu,4.0,punjabi,4.0,ingles,3.0,3.0,no,no,no,no,,,, ha estabo bien ,53.0,yes
66,2024-04-28_14h48.04.519,Experiment4_uns,s174,24 ,feminino,right,españa,"catalan,español, ",Bachelor degree,no,no,B,1,conjunction_un,L4,unsyncopated,s1,r2,66,Online_conjL4_un//d.pe.po30.1776.1110.wav,ja,ñi,ru,sil,nu,po,ña,sil1,pe,da,sil2,['miss'],,,1.11,no_beat,,,,po,4,testWhatL1Uns//dep_viol.r2.s2.0.wav,3.0,what,unsyncopated,b,s2,no_rule,dep,L1,z,0.7826,7.0,0.0,0.3512,5.0,2 o 3,español,2.0,catalan,2.0,urdu,4.0,punjabi,4.0,ingles,3.0,3.0,no,no,no,no,,,, ha estabo bien ,53.0,yes
67,2024-04-28_14h48.04.519,Experiment4_uns,s174,24 ,feminino,right,españa,"catalan,español, ",Bachelor degree,no,no,B,1,conjunction_un,L4,unsyncopated,s1,r2,67,Online_conjL4_un//d.pe.po31.none.none.wav,ja,re,ña,sil,nu,bo,ci,sil1,bu,de,sil2,['-'],,,none,none,,,,po,4,testWhatL1Uns//r2.s1.2.wav,3.0,what,unsyncopated,b,s1,rule,rule,L1,z,0.3834,7.0,1.0,0.301,5.0,2 o 3,español,2.0,catalan,2.0,urdu,4.0,punjabi,4.0,ingles,3.0,3.0,no,no,no,no,,,, ha estabo bien ,53.0,yes
68,2024-04-28_14h48.04.519,Experiment4_uns,s174,24 ,feminino,right,españa,"catalan,español, ",Bachelor degree,no,no,B,1,conjunction_un,L4,unsyncopated,s2,r2,68,Online_conjL4_un//c.bu.da21.none.none.wav,de,bo,ñi,sil,ja,ci,po,sil1,nu,re,sil2,['-'],,,none,none,,,,da,3,testWhatL1Uns//r2.s2.2.wav,3.0,what,unsyncopated,b,s2,rule,rule,L1,z,0.5651,7.0,1.0,0.2389,5.0,2 o 3,español,2.0,catalan,2.0,urdu,4.0,punjabi,4.0,ingles,3.0,3.0,no,no,no,no,,,, ha estabo bien ,53.0,yes
69,2024-04-28_14h48.04.519,Experiment4_uns,s174,24 ,feminino,right,españa,"catalan,español, ",Bachelor degree,no,no,B,1,conjunction_un,L4,unsyncopated,s1,r1,69,Online_conjL4_un//c.bu.da20.1332.222.wav,zi,da,pe,sil,lo,ñi,bu,sil1,po,de,sil2,['catch'],[1.1872000000029175],[1.1872000000029175],0.222,no_beat,0.9652000000029176,0.9652000000029176,"[""space""]",da,3,testWhatL1Uns//r1.s1.0.wav,3.0,what,unsyncopated,a,s1,rule,rule,L1,z,0.4304,5.0,1.0,0.482,5.0,2 o 3,español,2.0,catalan,2.0,urdu,4.0,punjabi,4.0,ingles,3.0,3.0,no,no,no,no,,,, ha estabo bien ,53.0,yes
70,2024-04-28_14h48.04.519,Experiment4_uns,s174,24 ,feminino,right,españa,"catalan,español, ",Bachelor degree,no,no,B,1,conjunction_un,L4,unsyncopated,s2,r1,70,Online_conjL4_un//c.bu.da23.none.none.wav,po,ru,pe,sil,zi,re,ña,sil1,lo,ci,sil2,['-'],,,none,none,,,,da,3,testWhatL1Uns//r2.s2.1.wav,3.0,what,unsyncopated,b,s2,rule,rule,L1,z,2.0487,6.0,1.0,0.451,5.0,2 o 3,español,2.0,catalan,2.0,urdu,4.0,punjabi,4.0,ingles,3.0,3.0,no,no,no,no,,,, ha estabo bien ,53.0,yes
71,2024-04-28_14h48.04.519,Experiment4_uns,s174,24 ,feminino,right,españa,"catalan,español, ",Bachelor degree,no,no,B,1,conjunction_un,L4,unsyncopated,s2,r1,71,Online_conjL4_un//c.bu.da22.1110.0.wav,da,ci,bo,sil,zi,bu,ru,sil1,lo,pe,sil2,['catch'],[0.645300000004454],[0.645300000004454],0.0,beat,0.645300000004454,0.645300000004454,"[""space""]",da,3,testWhatL1Uns//time_viol.r2.s2.0.wav,3.0,what,unsyncopated,b,s2,no_rule,time,L1,m,0.6169,6.0,1.0,0.5673,5.0,2 o 3,español,2.0,catalan,2.0,urdu,4.0,punjabi,4.0,ingles,3.0,3.0,no,no,no,no,,,, ha estabo bien ,53.0,yes
72,2024-04-28_14h48.04.519,Experiment4_uns,s174,24 ,feminino,right,españa,"catalan,español, ",Bachelor degree,no,no,B,1,conjunction_un,L4,unsyncopated,s1,r1,72,Online_conjL4_un//b.ja.nu5.none.none.wav,zi,ci,ñi,sil,lo,bo,da,sil1,po,ña,sil2,['-'],,,none,none,,,,nu,2,testConjL3Syn//dep_viol.r2.s1.0.wav,4.0,conjunction_syn,syncopated,b,s1,no_rule,dep,L3,z,2.363,5.0,0.0,0.817,5.0,2 o 3,español,2.0,catalan,2.0,urdu,4.0,punjabi,4.0,ingles,3.0,3.0,no,no,no,no,,,, ha estabo bien ,53.0,yes
73,2024-04-28_14h48.04.519,Experiment4_uns,s174,24 ,feminino,right,españa,"catalan,español, ",Bachelor degree,no,no,B,1,conjunction_un,L4,unsyncopated,s2,r2,73,Online_conjL4_un//b.ja.nu7.888.1776.wav,pe,bu,bo,sil,ja,de,da,sil1,nu,ña,sil2,['catch_delay'],[1.0607999999969826],[1.0607999999969826],1.776,beat,1.0607999999969826,1.0607999999969826,,nu,2,testConjL3Syn//dep_viol.r2.s2.0.wav,4.0,conjunction_syn,syncopated,b,s2,no_rule,dep,L3,z,0.9001,7.0,0.0,0.7837,5.0,2 o 3,español,2.0,catalan,2.0,urdu,4.0,punjabi,4.0,ingles,3.0,3.0,no,no,no,no,,,, ha estabo bien ,53.0,yes
74,2024-04-28_14h48.04.519,Experiment4_uns,s174,24 ,feminino,right,españa,"catalan,español, ",Bachelor degree,no,no,B,1,conjunction_un,L4,unsyncopated,s2,r1,74,Online_conjL4_un//b.ja.nu4.none.none.wav,ru,pe,bo,sil,zi,ña,ci,sil1,lo,da,sil2,['-'],[0.17279999999698248],[0.17279999999698248],none,none,,,"[""space""]",nu,2,testConjL3Syn//time_viol.r1.s1.0.wav,4.0,conjunction_syn,syncopated,a,s1,no_rule,time,L3,z,1.6327,6.0,0.0,0.6838,5.0,2 o 3,español,2.0,catalan,2.0,urdu,4.0,punjabi,4.0,ingles,3.0,3.0,no,no,no,no,,,, ha estabo bien ,53.0,yes
75,2024-04-28_14h48.04.519,Experiment4_uns,s174,24 ,feminino,right,españa,"catalan,español, ",Bachelor degree,no,no,B,1,conjunction_un,L4,unsyncopated,s1,r1,75,Online_conjL4_un//b.ja.nu6.none.none.wav,zi,de,bo,sil,lo,ñi,da,sil1,ña,bu,sil2,['-'],,,none,none,,,,nu,2,testConjL3Syn//r1.s2.0.wav,4.0,conjunction_syn,syncopated,a,s2,rule,rule,L3,z,6.3641,6.0,1.0,0.1852,5.0,2 o 3,español,2.0,catalan,2.0,urdu,4.0,punjabi,4.0,ingles,3.0,3.0,no,no,no,no,,,, ha estabo bien ,53.0,yes
76,2024-04-28_14h48.04.519,Experiment4_uns,s174,24 ,feminino,right,españa,"catalan,español, ",Bachelor degree,no,no,B,1,conjunction_un,L4,unsyncopated,s2,r2,76,Online_conjL4_un//a.zi.lo11.none.none.wav,po,re,ña,sil,ja,bo,ru,sil1,nu,pe,sil2,['false alarm'],[0.8316999999955215],[0.8316999999955215],none,none,,,"[""space""]",zi,1,testConjL3Syn//r1.s1.1.wav,4.0,conjunction_syn,syncopated,a,s1,rule,rule,L3,z,5.5578,6.0,1.0,0.5096,5.0,2 o 3,español,2.0,catalan,2.0,urdu,4.0,punjabi,4.0,ingles,3.0,3.0,no,no,no,no,,,, ha estabo bien ,53.0,yes
77,2024-04-28_14h48.04.519,Experiment4_uns,s174,24 ,feminino,right,españa,"catalan,español, ",Bachelor degree,no,no,B,1,conjunction_un,L4,unsyncopated,s2,r2,77,Online_conjL4_un//a.zi.lo9.none.none.wav,de,po,ña,sil,ja,bu,da,sil1,nu,ñi,sil2,['-'],,,none,none,,,,zi,1,testConjL3Syn//r2.s2.2.wav,4.0,conjunction_syn,syncopated,b,s2,rule,rule,L3,z,4.5833,5.0,1.0,0.6704,5.0,2 o 3,español,2.0,catalan,2.0,urdu,4.0,punjabi,4.0,ingles,3.0,3.0,no,no,no,no,,,, ha estabo bien ,53.0,yes
78,2024-04-28_14h48.04.519,Experiment4_uns,s174,24 ,feminino,right,españa,"catalan,español, ",Bachelor degree,no,no,B,1,conjunction_un,L4,unsyncopated,s1,r2,78,Online_conjL4_un//a.zi.lo10.none.none.wav,ja,ña,da,sil,nu,re,de,sil1,bu,bo,sil2,['-'],,,none,none,,,,zi,1,testConjL3Syn//r2.s1.1.wav,4.0,conjunction_syn,syncopated,b,s1,rule,rule,L3,z,0.6922,7.0,1.0,0.5018,5.0,2 o 3,español,2.0,catalan,2.0,urdu,4.0,punjabi,4.0,ingles,3.0,3.0,no,no,no,no,,,, ha estabo bien ,53.0,yes
79,2024-04-28_14h48.04.519,Experiment4_uns,s174,24 ,feminino,right,españa,"catalan,español, ",Bachelor degree,no,no,B,1,conjunction_un,L4,unsyncopated,s2,r1,79,Online_conjL4_un//a.zi.lo8.888.1776.wav,re,pe,da,sil,zi,de,ña,sil1,lo,ru,sil2,['catch'],[1.8891000000014628],[1.8891000000014628],0.888,beat,1.001100000001463,1.001100000001463,"[""space""]",zi,1,testConjL3Syn//time_viol.r2.s2.0.wav,4.0,conjunction_syn,syncopated,b,s2,no_rule,time,L3,z,0.9479,7.0,0.0,0.2342,5.0,2 o 3,español,2.0,catalan,2.0,urdu,4.0,punjabi,4.0,ingles,3.0,3.0,no,no,no,no,,,, ha estabo bien ,53.0,yes
80,2024-04-28_14h48.04.519,Experiment4_uns,s174,24 ,feminino,right,españa,"catalan,español, ",Bachelor degree,no,no,B,1,conjunction_un,L4,unsyncopated,s2,r2,80,Online_conjL4_un//d.pe.po27.none.none.wav,ru,ci,bo,sil,ja,de,ñi,sil1,nu,ña,sil2,['false alarm'],[1.7611000000015338],[1.7611000000015338],none,none,,,"[""space""]",po,4,testConjL3Syn//cat_viol.r1.s1.0.wav,4.0,conjunction_syn,syncopated,a,s1,no_rule,cat,L3,m,1.1669,5.0,1.0,0.5818,5.0,2 o 3,español,2.0,catalan,2.0,urdu,4.0,punjabi,4.0,ingles,3.0,3.0,no,no,no,no,,,, ha estabo bien ,53.0,yes
81,2024-04-28_14h48.04.519,Experiment4_uns,s174,24 ,feminino,right,españa,"catalan,español, ",Bachelor degree,no,no,B,1,conjunction_un,L4,unsyncopated,s2,r1,81,Online_conjL4_un//d.pe.po24.444.1110.wav,de,da,pe,sil,zi,po,re,sil1,lo,bu,sil2,['catch'],[2.1504999999999654],[2.1504999999999654],1.11,no_beat,1.0404999999999651,1.0404999999999651,"[""space""]",po,4,testConjL3Syn//dep_viol.r1.s1.0.wav,4.0,conjunction_syn,syncopated,a,s1,no_rule,dep,L3,z,1.4177,7.0,0.0,0.272,5.0,2 o 3,español,2.0,catalan,2.0,urdu,4.0,punjabi,4.0,ingles,3.0,3.0,no,no,no,no,,,, ha estabo bien ,53.0,yes
82,2024-04-28_14h48.04.519,Experiment4_uns,s174,24 ,feminino,right,españa,"catalan,español, ",Bachelor degree,no,no,B,1,conjunction_un,L4,unsyncopated,s2,r1,82,Online_conjL4_un//d.pe.po26.none.none.wav,ci,bo,bu,sil,zi,re,ru,sil1,lo,ñi,sil2,['-'],,,none,none,,,,po,4,testConjL3Syn//r2.s1.2.wav,4.0,conjunction_syn,syncopated,b,s1,rule,rule,L3,m,1.8991,6.0,0.0,0.4009,5.0,2 o 3,español,2.0,catalan,2.0,urdu,4.0,punjabi,4.0,ingles,3.0,3.0,no,no,no,no,,,, ha estabo bien ,53.0,yes
83,2024-04-28_14h48.04.519,Experiment4_uns,s174,24 ,feminino,right,españa,"catalan,español, ",Bachelor degree,no,no,B,1,conjunction_un,L4,unsyncopated,s2,r2,83,Online_conjL4_un//d.pe.po25.none.none.wav,re,bu,ña,sil,ja,bo,de,sil1,nu,da,sil2,['-'],,,none,none,,,,po,4,testConjL3Syn//r1.s1.2.wav,4.0,conjunction_syn,syncopated,a,s1,rule,rule,L3,z,0.8799,6.0,1.0,0.284,5.0,2 o 3,español,2.0,catalan,2.0,urdu,4.0,punjabi,4.0,ingles,3.0,3.0,no,no,no,no,,,, ha estabo bien ,53.0,yes
84,2024-04-28_14h48.04.519,Experiment4_uns,s174,24 ,feminino,right,españa,"catalan,español, ",Bachelor degree,no,no,B,1,conjunction_un,L4,unsyncopated,s1,r2,84,Online_conjL4_un//d.pe.po2.none.none.wav,ja,ña,ru,sil,nu,bu,de,sil1,ci,re,sil2,['-'],,,none,none,,,,po,4,testConjL3Syn//r2.s2.1.wav,4.0,conjunction_syn,syncopated,b,s2,rule,rule,L3,z,1.7177,7.0,1.0,0.1893,5.0,2 o 3,español,2.0,catalan,2.0,urdu,4.0,punjabi,4.0,ingles,3.0,3.0,no,no,no,no,,,, ha estabo bien ,53.0,yes
85,2024-04-28_14h48.04.519,Experiment4_uns,s174,24 ,feminino,right,españa,"catalan,español, ",Bachelor degree,no,no,B,1,conjunction_un,L4,unsyncopated,s1,r2,85,Online_conjL4_un//d.pe.po0.none.none.wav,ja,ci,ñi,sil,nu,ru,da,sil1,de,ña,sil2,['-'],,,none,none,,,,po,4,testConjL3Syn//cat_viol.r2.s1.0.wav,4.0,conjunction_syn,syncopated,b,s1,no_rule,cat,L3,z,0.5867,7.0,0.0,0.2849,5.0,2 o 3,español,2.0,catalan,2.0,urdu,4.0,punjabi,4.0,ingles,3.0,3.0,no,no,no,no,,,, ha estabo bien ,53.0,yes
86,2024-04-28_14h48.04.519,Experiment4_uns,s174,24 ,feminino,right,españa,"catalan,español, ",Bachelor degree,no,no,B,1,conjunction_un,L4,unsyncopated,s1,r1,86,Online_conjL4_un//d.pe.po3.none.none.wav,zi,ci,ñi,sil,lo,re,ru,sil1,bu,da,sil2,['-'],,,none,none,,,,po,4,testConjL3Syn//dep_viol.r1.s2.0.wav,4.0,conjunction_syn,syncopated,a,s2,no_rule,dep,L3,m,1.137,7.0,1.0,0.5009,5.0,2 o 3,español,2.0,catalan,2.0,urdu,4.0,punjabi,4.0,ingles,3.0,3.0,no,no,no,no,,,, ha estabo bien ,53.0,yes
87,2024-04-28_14h48.04.519,Experiment4_uns,s174,24 ,feminino,right,españa,"catalan,español, ",Bachelor degree,no,no,B,1,conjunction_un,L4,unsyncopated,s2,r2,87,Online_conjL4_un//d.pe.po1.444.0.wav,po,bu,pe,sil,ja,ñi,ña,sil1,nu,ru,sil2,['catch'],[0.5722999999970853],[0.5722999999970853],0.0,beat,0.5722999999970853,0.5722999999970853,"[""space""]",po,4,testConjL3Syn//r2.s1.0.wav,4.0,conjunction_syn,syncopated,b,s1,rule,rule,L3,z,0.4831,6.0,1.0,0.2017,5.0,2 o 3,español,2.0,catalan,2.0,urdu,4.0,punjabi,4.0,ingles,3.0,3.0,no,no,no,no,,,, ha estabo bien ,53.0,yes
88,2024-04-28_14h48.04.519,Experiment4_uns,s174,24 ,feminino,right,españa,"catalan,español, ",Bachelor degree,no,no,B,1,conjunction_un,L4,unsyncopated,s1,r2,88,Online_conjL4_un//d.pe.po18.none.none.wav,ja,ña,ñi,sil,nu,de,ru,sil1,da,bo,sil2,['false alarm'],[1.4386000000014292],[1.4386000000014292],none,none,,,"[""space""]",po,4,testConjL3Syn//r2.s2.0.wav,4.0,conjunction_syn,syncopated,b,s2,rule,rule,L3,m,0.3882,6.0,0.0,0.6045,5.0,2 o 3,español,2.0,catalan,2.0,urdu,4.0,punjabi,4.0,ingles,3.0,3.0,no,no,no,no,,,, ha estabo bien ,53.0,yes
89,2024-04-28_14h48.04.519,Experiment4_uns,s174,24 ,feminino,right,españa,"catalan,español, ",Bachelor degree,no,no,B,1,conjunction_un,L4,unsyncopated,s1,r1,89,Online_conjL4_un//d.pe.po19.none.none.wav,zi,da,ña,sil,lo,bo,bu,sil1,ñi,re,sil2,['-'],,,none,none,,,,po,4,testConjL3Syn//cat_viol.r2.s2.0.wav,4.0,conjunction_syn,syncopated,b,s2,no_rule,cat,L3,z,2.4135,6.0,0.0,0.1883,5.0,2 o 3,español,2.0,catalan,2.0,urdu,4.0,punjabi,4.0,ingles,3.0,3.0,no,no,no,no,,,, ha estabo bien ,53.0,yes
90,2024-04-28_14h48.04.519,Experiment4_uns,s174,24 ,feminino,right,españa,"catalan,español, ",Bachelor degree,no,no,B,1,conjunction_un,L4,unsyncopated,s2,r2,90,Online_conjL4_un//d.pe.po17.222.444.wav,re,pe,po,sil,ja,ci,ña,sil1,nu,bo,sil2,['catch'],[2.1201000000014574],[2.1201000000014574],0.444,no_beat,,1.6761000000014574,"[""space""]",po,4,testConjL3Syn//r1.s2.2.wav,4.0,conjunction_syn,syncopated,a,s2,rule,rule,L3,m,2.7557,6.0,0.0,0.9833,5.0,2 o 3,español,2.0,catalan,2.0,urdu,4.0,punjabi,4.0,ingles,3.0,3.0,no,no,no,no,,,, ha estabo bien ,53.0,yes
91,2024-04-28_14h48.04.519,Experiment4_uns,s174,24 ,feminino,right,españa,"catalan,español, ",Bachelor degree,no,no,B,1,conjunction_un,L4,unsyncopated,s1,r2,91,Online_conjL4_un//d.pe.po16.1776.444.wav,ja,re,po,sil,nu,da,bu,sil1,pe,bo,sil2,['catch'],[1.2208000000044876],[1.2208000000044876],0.444,no_beat,0.7768000000044877,0.7768000000044877,"[""space""]",po,4,testConjL3Syn//time_viol.r1.s2.0.wav,4.0,conjunction_syn,syncopated,a,s2,no_rule,time,L3,m,0.7804,6.0,1.0,0.3675,5.0,2 o 3,español,2.0,catalan,2.0,urdu,4.0,punjabi,4.0,ingles,3.0,3.0,no,no,no,no,,,, ha estabo bien ,53.0,yes
92,2024-04-28_14h48.04.519,Experiment4_uns,s174,24 ,feminino,right,españa,"catalan,español, ",Bachelor degree,no,no,B,1,conjunction_un,L4,unsyncopated,s1,r2,92,Online_conjL4_un//b.ja.nu27.0.888.wav,ja,ñi,bu,sil,nu,ña,ci,sil1,da,po,sil2,['catch'],[2.04849999999999],[2.04849999999999],0.888,beat,1.16049999999999,1.16049999999999,"[""space""]",nu,2,testConjL3Syn//r1.s2.1.wav,4.0,conjunction_syn,syncopated,a,s2,rule,rule,L3,z,0.8663,6.0,1.0,0.3338,5.0,2 o 3,español,2.0,catalan,2.0,urdu,4.0,punjabi,4.0,ingles,3.0,3.0,no,no,no,no,,,, ha estabo bien ,53.0,yes
93,2024-04-28_14h48.04.519,Experiment4_uns,s174,24 ,feminino,right,españa,"catalan,español, ",Bachelor degree,no,no,B,1,conjunction_un,L4,unsyncopated,s2,r2,93,Online_conjL4_un//b.ja.nu26.888.1776.wav,bo,bu,ru,sil,ja,de,ñi,sil1,nu,da,sil2,['catch'],[2.578899999998498],[2.578899999998498],1.776,beat,0.802899999998498,0.802899999998498,"[""space""]",nu,2,testConjL3Syn//time_viol.r2.s1.0.wav,4.0,conjunction_syn,syncopated,b,s1,no_rule,time,L3,z,0.3528,6.0,0.0,0.2847,5.0,2 o 3,español,2.0,catalan,2.0,urdu,4.0,punjabi,4.0,ingles,3.0,3.0,no,no,no,no,,,, ha estabo bien ,53.0,yes
94,2024-04-28_14h48.04.519,Experiment4_uns,s174,24 ,feminino,right,españa,"catalan,español, ",Bachelor degree,no,no,B,1,conjunction_un,L4,unsyncopated,s1,r1,94,Online_conjL4_un//b.ja.nu25.none.none.wav,zi,da,ru,sil,lo,de,ñi,sil1,re,ña,sil2,['-'],,,none,none,,,,nu,2,testConjL3Syn//cat_viol.r1.s2.0.wav,4.0,conjunction_syn,syncopated,a,s2,no_rule,cat,L3,z,1.5292,6.0,0.0,0.4309,5.0,2 o 3,español,2.0,catalan,2.0,urdu,4.0,punjabi,4.0,ingles,3.0,3.0,no,no,no,no,,,, ha estabo bien ,53.0,yes
95,2024-04-28_14h48.04.519,Experiment4_uns,s174,24 ,feminino,right,españa,"catalan,español, ",Bachelor degree,no,no,B,1,conjunction_un,L4,unsyncopated,s2,r2,95,Online_conjL4_un//b.ja.nu24.888.1776.wav,pe,re,po,sil,ja,ñi,de,sil1,nu,bo,sil2,['catch'],[2.56729999999709],[2.56729999999709],1.776,beat,0.7912999999970898,0.7912999999970898,"[""space""]",nu,2,testConjL3Syn//r1.s1.0.wav,4.0,conjunction_syn,syncopated,a,s1,rule,rule,L3,z,0.7343,7.0,1.0,0.3478,5.0,2 o 3,español,2.0,catalan,2.0,urdu,4.0,punjabi,4.0,ingles,3.0,3.0,no,no,no,no,,,, ha estabo bien ,53.0,yes
96,2024-04-28_14h48.04.519,Experiment4_uns,s174,24 ,feminino,right,españa,"catalan,español, ",Bachelor degree,no,no,B,1,conjunction_un,L4,unsyncopated,s2,r1,96,Online_conjL4_un//c.bu.da25.444.1110.wav,ru,de,bu,sil,zi,da,ñi,sil1,lo,ña,sil2,['miss'],,,1.11,no_beat,,,,da,3,,,,,,,,,,,,,,,5.0,2 o 3,español,2.0,catalan,2.0,urdu,4.0,punjabi,4.0,ingles,3.0,3.0,no,no,no,no,,,, ha estabo bien ,53.0,yes
97,2024-04-28_14h48.04.519,Experiment4_uns,s174,24 ,feminino,right,españa,"catalan,español, ",Bachelor degree,no,no,B,1,conjunction_un,L4,unsyncopated,s1,r2,97,Online_conjL4_un//c.bu.da24.none.none.wav,ja,po,ci,sil,nu,ña,ru,sil1,re,bo,sil2,['-'],,,none,none,,,,da,3,,,,,,,,,,,,,,,5.0,2 o 3,español,2.0,catalan,2.0,urdu,4.0,punjabi,4.0,ingles,3.0,3.0,no,no,no,no,,,, ha estabo bien ,53.0,yes
98,2024-04-28_14h48.04.519,Experiment4_uns,s174,24 ,feminino,right,españa,"catalan,español, ",Bachelor degree,no,no,B,1,conjunction_un,L4,unsyncopated,s2,r1,98,Online_conjL4_un//c.bu.da27.0.444.wav,bu,po,da,sil,zi,re,pe,sil1,lo,bo,sil2,['catch'],[1.2949000000060096],[1.2949000000060096],0.444,no_beat,0.8509000000060096,0.8509000000060096,"[""space""]",da,3,,,,,,,,,,,,,,,5.0,2 o 3,español,2.0,catalan,2.0,urdu,4.0,punjabi,4.0,ingles,3.0,3.0,no,no,no,no,,,, ha estabo bien ,53.0,yes
99,2024-04-28_14h48.04.519,Experiment4_uns,s174,24 ,feminino,right,españa,"catalan,español, ",Bachelor degree,no,no,B,1,conjunction_un,L4,unsyncopated,s1,r1,99,Online_conjL4_un//c.bu.da26.444.1110.wav,zi,po,bu,sil,lo,da,ci,sil1,de,ñi,sil2,['miss'],,,1.11,no_beat,,,,da,3,,,,,,,,,,,,,,,5.0,2 o 3,español,2.0,catalan,2.0,urdu,4.0,punjabi,4.0,ingles,3.0,3.0,no,no,no,no,,,, ha estabo bien ,53.0,yes
100,2024-04-28_14h48.04.519,Experiment4_uns,s174,24 ,feminino,right,españa,"catalan,español, ",Bachelor degree,no,no,B,1,conjunction_un,L4,unsyncopated,s2,r1,100,Online_conjL4_un//a.zi.lo21.888.1776.wav,ci,da,de,sil,zi,bu,po,sil1,lo,re,sil2,['catch'],[1.8866999999955851],[1.8866999999955851],0.888,beat,0.9986999999955852,0.9986999999955852,"[""space""]",zi,1,,,,,,,,,,,,,,,5.0,2 o 3,español,2.0,catalan,2.0,urdu,4.0,punjabi,4.0,ingles,3.0,3.0,no,no,no,no,,,, ha estabo bien ,53.0,yes
101,2024-04-28_14h48.04.519,Experiment4_uns,s174,24 ,feminino,right,españa,"catalan,español, ",Bachelor degree,no,no,B,1,conjunction_un,L4,unsyncopated,s2,r1,101,Online_conjL4_un//a.zi.lo22.888.1776.wav,bu,ñi,pe,sil,zi,bo,ci,sil1,lo,ru,sil2,['miss'],,,0.888,beat,,,,zi,1,,,,,,,,,,,,,,,5.0,2 o 3,español,2.0,catalan,2.0,urdu,4.0,punjabi,4.0,ingles,3.0,3.0,no,no,no,no,,,, ha estabo bien ,53.0,yes
102,2024-04-28_14h48.04.519,Experiment4_uns,s174,24 ,feminino,right,españa,"catalan,español, ",Bachelor degree,no,no,B,1,conjunction_un,L4,unsyncopated,s1,r2,102,Online_conjL4_un//a.zi.lo20.none.none.wav,ja,da,ñi,sil,nu,ña,ci,sil1,re,ru,sil2,['-'],,,none,none,,,,zi,1,,,,,,,,,,,,,,,5.0,2 o 3,español,2.0,catalan,2.0,urdu,4.0,punjabi,4.0,ingles,3.0,3.0,no,no,no,no,,,, ha estabo bien ,53.0,yes
103,2024-04-28_14h48.04.519,Experiment4_uns,s174,24 ,feminino,right,españa,"catalan,español, ",Bachelor degree,no,no,B,1,conjunction_un,L4,unsyncopated,s2,r2,103,Online_conjL4_un//a.zi.lo23.none.none.wav,ñi,bo,po,sil,ja,da,ña,sil1,nu,re,sil2,['-'],,,none,none,,,,zi,1,,,,,,,,,,,,,,,5.0,2 o 3,español,2.0,catalan,2.0,urdu,4.0,punjabi,4.0,ingles,3.0,3.0,no,no,no,no,,,, ha estabo bien ,53.0,yes
104,2024-04-28_14h48.04.519,Experiment4_uns,s174,24 ,feminino,right,españa,"catalan,español, ",Bachelor degree,no,no,B,1,conjunction_un,L4,unsyncopated,s1,r2,104,Online_conjL4_un//a.zi.lo4.none.none.wav,ja,da,ñi,sil,nu,pe,re,sil1,bu,bo,sil2,['-'],,,none,none,,,,zi,1,,,,,,,,,,,,,,,5.0,2 o 3,español,2.0,catalan,2.0,urdu,4.0,punjabi,4.0,ingles,3.0,3.0,no,no,no,no,,,, ha estabo bien ,53.0,yes
105,2024-04-28_14h48.04.519,Experiment4_uns,s174,24 ,feminino,right,españa,"catalan,español, ",Bachelor degree,no,no,B,1,conjunction_un,L4,unsyncopated,s1,r1,105,Online_conjL4_un//a.zi.lo7.0.888.wav,zi,ci,da,sil,lo,ñi,de,sil1,ru,po,sil2,['catch'],[0.6467000000029657],[0.6467000000029657],0.0,beat,0.6467000000029657,0.6467000000029657,"[""space""]",zi,1,,,,,,,,,,,,,,,5.0,2 o 3,español,2.0,catalan,2.0,urdu,4.0,punjabi,4.0,ingles,3.0,3.0,no,no,no,no,,,, ha estabo bien ,53.0,yes
106,2024-04-28_14h48.04.519,Experiment4_uns,s174,24 ,feminino,right,españa,"catalan,español, ",Bachelor degree,no,no,B,1,conjunction_un,L4,unsyncopated,s2,r2,106,Online_conjL4_un//a.zi.lo5.none.none.wav,ñi,re,pe,sil,ja,da,ña,sil1,nu,bu,sil2,['-'],,,none,none,,,,zi,1,,,,,,,,,,,,,,,5.0,2 o 3,español,2.0,catalan,2.0,urdu,4.0,punjabi,4.0,ingles,3.0,3.0,no,no,no,no,,,, ha estabo bien ,53.0,yes
107,2024-04-28_14h48.04.519,Experiment4_uns,s174,24 ,feminino,right,españa,"catalan,español, ",Bachelor degree,no,no,B,1,conjunction_un,L4,unsyncopated,s1,r1,107,Online_conjL4_un//a.zi.lo6.0.888.wav,zi,da,po,sil,lo,de,ci,sil1,re,bo,sil2,['catch'],[0.9200000000000728],[0.9200000000000728],0.0,beat,0.9200000000000728,0.9200000000000728,"[""space""]",zi,1,,,,,,,,,,,,,,,5.0,2 o 3,español,2.0,catalan,2.0,urdu,4.0,punjabi,4.0,ingles,3.0,3.0,no,no,no,no,,,, ha estabo bien ,53.0,yes
108,2024-04-28_14h48.04.519,Experiment4_uns,s174,24 ,feminino,right,españa,"catalan,español, ",Bachelor degree,no,no,B,1,conjunction_un,L4,unsyncopated,s2,r2,108,Online_conjL4_un//c.bu.da31.none.none.wav,po,re,bo,sil,ja,ña,ñi,sil1,nu,pe,sil2,['-'],,,none,none,,,,da,3,,,,,,,,,,,,,,,5.0,2 o 3,español,2.0,catalan,2.0,urdu,4.0,punjabi,4.0,ingles,3.0,3.0,no,no,no,no,,,, ha estabo bien ,53.0,yes
109,2024-04-28_14h48.04.519,Experiment4_uns,s174,24 ,feminino,right,españa,"catalan,español, ",Bachelor degree,no,no,B,1,conjunction_un,L4,unsyncopated,s1,r1,109,Online_conjL4_un//c.bu.da28.1776.1110.wav,zi,re,ru,sil,lo,da,pe,sil1,bu,ña,sil2,['catch'],[2.202600000001439],[2.202600000001439],1.11,no_beat,1.092600000001439,1.092600000001439,"[""space""]",da,3,,,,,,,,,,,,,,,5.0,2 o 3,español,2.0,catalan,2.0,urdu,4.0,punjabi,4.0,ingles,3.0,3.0,no,no,no,no,,,, ha estabo bien ,53.0,yes
110,2024-04-28_14h48.04.519,Experiment4_uns,s174,24 ,feminino,right,españa,"catalan,español, ",Bachelor degree,no,no,B,1,conjunction_un,L4,unsyncopated,s1,r2,110,Online_conjL4_un//c.bu.da30.222.444.wav,ja,bu,da,sil,nu,pe,bo,sil1,ña,de,sil2,['miss'],,,0.444,no_beat,,,,da,3,,,,,,,,,,,,,,,5.0,2 o 3,español,2.0,catalan,2.0,urdu,4.0,punjabi,4.0,ingles,3.0,3.0,no,no,no,no,,,, ha estabo bien ,53.0,yes
111,2024-04-28_14h48.04.519,Experiment4_uns,s174,24 ,feminino,right,españa,"catalan,español, ",Bachelor degree,no,no,B,1,conjunction_un,L4,unsyncopated,s2,r2,111,Online_conjL4_un//c.bu.da29.none.none.wav,bo,ña,re,sil,ja,ci,ru,sil1,nu,ñi,sil2,['false alarm'],[1.1373999999985926],[1.1373999999985926],none,none,,,"[""space""]",da,3,,,,,,,,,,,,,,,5.0,2 o 3,español,2.0,catalan,2.0,urdu,4.0,punjabi,4.0,ingles,3.0,3.0,no,no,no,no,,,, ha estabo bien ,53.0,yes
112,2024-04-28_14h48.04.519,Experiment4_uns,s174,24 ,feminino,right,españa,"catalan,español, ",Bachelor degree,no,no,B,1,conjunction_un,L4,unsyncopated,s2,r2,112,Online_conjL4_un//c.bu.da8.1332.444.wav,ña,ñi,da,sil,ja,ru,bu,sil1,nu,ci,sil2,['catch'],[1.3125],[1.3125],0.444,no_beat,0.8685,0.8685,"[""space""]",da,3,,,,,,,,,,,,,,,5.0,2 o 3,español,2.0,catalan,2.0,urdu,4.0,punjabi,4.0,ingles,3.0,3.0,no,no,no,no,,,, ha estabo bien ,53.0,yes
113,2024-04-28_14h48.04.519,Experiment4_uns,s174,24 ,feminino,right,españa,"catalan,español, ",Bachelor degree,no,no,B,1,conjunction_un,L4,unsyncopated,s1,r2,113,Online_conjL4_un//c.bu.da9.none.none.wav,ja,re,ñi,sil,nu,ña,de,sil1,bo,po,sil2,['-'],,,none,none,,,,da,3,,,,,,,,,,,,,,,5.0,2 o 3,español,2.0,catalan,2.0,urdu,4.0,punjabi,4.0,ingles,3.0,3.0,no,no,no,no,,,, ha estabo bien ,53.0,yes
114,2024-04-28_14h48.04.519,Experiment4_uns,s174,24 ,feminino,right,españa,"catalan,español, ",Bachelor degree,no,no,B,1,conjunction_un,L4,unsyncopated,s2,r2,114,Online_conjL4_un//c.bu.da10.0.1110.wav,bu,po,ña,sil,ja,da,ru,sil1,nu,ñi,sil2,['miss'],,,1.11,no_beat,,,,da,3,,,,,,,,,,,,,,,5.0,2 o 3,español,2.0,catalan,2.0,urdu,4.0,punjabi,4.0,ingles,3.0,3.0,no,no,no,no,,,, ha estabo bien ,53.0,yes
115,2024-04-28_14h48.04.519,Experiment4_uns,s174,24 ,feminino,right,españa,"catalan,español, ",Bachelor degree,no,no,B,1,conjunction_un,L4,unsyncopated,s1,r2,115,Online_conjL4_un//c.bu.da11.none.none.wav,ja,bo,ñi,sil,nu,pe,re,sil1,ci,ña,sil2,['false alarm'],[0.012699999995561484],[0.012699999995561484],none,none,,,"[""space""]",da,3,,,,,,,,,,,,,,,5.0,2 o 3,español,2.0,catalan,2.0,urdu,4.0,punjabi,4.0,ingles,3.0,3.0,no,no,no,no,,,, ha estabo bien ,53.0,yes
116,2024-04-28_14h48.04.519,Experiment4_uns,s174,24 ,feminino,right,españa,"catalan,español, ",Bachelor degree,no,no,B,1,conjunction_un,L4,unsyncopated,s2,r2,116,Online_conjL4_un//c.bu.da13.none.none.wav,pe,ru,de,sil,ja,re,bo,sil1,nu,ña,sil2,['-'],,,none,none,,,,da,3,,,,,,,,,,,,,,,5.0,2 o 3,español,2.0,catalan,2.0,urdu,4.0,punjabi,4.0,ingles,3.0,3.0,no,no,no,no,,,, ha estabo bien ,53.0,yes
117,2024-04-28_14h48.04.519,Experiment4_uns,s174,24 ,feminino,right,españa,"catalan,español, ",Bachelor degree,no,no,B,1,conjunction_un,L4,unsyncopated,s2,r1,117,Online_conjL4_un//c.bu.da14.none.none.wav,po,ru,pe,sil,zi,ñi,de,sil1,lo,ña,sil2,['-'],,,none,none,,,,da,3,,,,,,,,,,,,,,,5.0,2 o 3,español,2.0,catalan,2.0,urdu,4.0,punjabi,4.0,ingles,3.0,3.0,no,no,no,no,,,, ha estabo bien ,53.0,yes
118,2024-04-28_14h48.04.519,Experiment4_uns,s174,24 ,feminino,right,españa,"catalan,español, ",Bachelor degree,no,no,B,1,conjunction_un,L4,unsyncopated,s2,r2,118,Online_conjL4_un//c.bu.da15.222.1110.wav,ñi,bu,po,sil,ja,da,re,sil1,nu,pe,sil2,['false alarm'],[0.9871000000014192],[0.9871000000014192],1.11,no_beat,,,"[""space""]",da,3,,,,,,,,,,,,,,,5.0,2 o 3,español,2.0,catalan,2.0,urdu,4.0,punjabi,4.0,ingles,3.0,3.0,no,no,no,no,,,, ha estabo bien ,53.0,yes
119,2024-04-28_14h48.04.519,Experiment4_uns,s174,24 ,feminino,right,españa,"catalan,español, ",Bachelor degree,no,no,B,1,conjunction_un,L4,unsyncopated,s1,r2,119,Online_conjL4_un//c.bu.da12.1776.444.wav,ja,po,da,sil,nu,ñi,re,sil1,bu,de,sil2,['miss'],,,0.444,no_beat,,,,da,3,,,,,,,,,,,,,,,5.0,2 o 3,español,2.0,catalan,2.0,urdu,4.0,punjabi,4.0,ingles,3.0,3.0,no,no,no,no,,,, ha estabo bien ,53.0,yes
120,2024-04-28_14h48.04.519,Experiment4_uns,s174,24 ,feminino,right,españa,"catalan,español, ",Bachelor degree,no,no,B,1,conjunction_un,L4,unsyncopated,s2,r1,120,Online_conjL4_un//d.pe.po22.none.none.wav,ñi,bu,de,sil,zi,bo,ña,sil1,lo,ci,sil2,['-'],,,none,none,,,,po,4,,,,,,,,,,,,,,,5.0,2 o 3,español,2.0,catalan,2.0,urdu,4.0,punjabi,4.0,ingles,3.0,3.0,no,no,no,no,,,, ha estabo bien ,53.0,yes
121,2024-04-28_14h48.04.519,Experiment4_uns,s174,24 ,feminino,right,españa,"catalan,español, ",Bachelor degree,no,no,B,1,conjunction_un,L4,unsyncopated,s2,r1,121,Online_conjL4_un//d.pe.po21.1110.0.wav,po,da,ña,sil,zi,pe,ci,sil1,lo,bu,sil2,['miss'],,,0.0,beat,,,,po,4,,,,,,,,,,,,,,,5.0,2 o 3,español,2.0,catalan,2.0,urdu,4.0,punjabi,4.0,ingles,3.0,3.0,no,no,no,no,,,, ha estabo bien ,53.0,yes
122,2024-04-28_14h48.04.519,Experiment4_uns,s174,24 ,feminino,right,españa,"catalan,español, ",Bachelor degree,no,no,B,1,conjunction_un,L4,unsyncopated,s2,r2,122,Online_conjL4_un//d.pe.po23.none.none.wav,ru,ñi,re,sil,ja,de,bu,sil1,nu,ci,sil2,['-'],,,none,none,,,,po,4,,,,,,,,,,,,,,,5.0,2 o 3,español,2.0,catalan,2.0,urdu,4.0,punjabi,4.0,ingles,3.0,3.0,no,no,no,no,,,, ha estabo bien ,53.0,yes
123,2024-04-28_14h48.04.519,Experiment4_uns,s174,24 ,feminino,right,españa,"catalan,español, ",Bachelor degree,no,no,B,1,conjunction_un,L4,unsyncopated,s2,r2,123,Online_conjL4_un//d.pe.po20.444.0.wav,po,bu,pe,sil,ja,ñi,ru,sil1,nu,bo,sil2,['catch'],[0.7538999999984526],[0.7538999999984526],0.0,beat,0.7538999999984526,0.7538999999984526,"[""space""]",po,4,,,,,,,,,,,,,,,5.0,2 o 3,español,2.0,catalan,2.0,urdu,4.0,punjabi,4.0,ingles,3.0,3.0,no,no,no,no,,,, ha estabo bien ,53.0,yes
124,2024-04-28_14h48.04.519,Experiment4_uns,s174,24 ,feminino,right,españa,"catalan,español, ",Bachelor degree,no,no,B,1,conjunction_un,L4,unsyncopated,s2,r1,124,Online_conjL4_un//a.zi.lo25.888.1776.wav,bu,ña,de,sil,zi,ci,pe,sil1,lo,po,sil2,['catch'],[2.5978999999985035],[2.5978999999985035],0.888,beat,,1.7098999999985036,"[""space""]",zi,1,,,,,,,,,,,,,,,5.0,2 o 3,español,2.0,catalan,2.0,urdu,4.0,punjabi,4.0,ingles,3.0,3.0,no,no,no,no,,,, ha estabo bien ,53.0,yes
125,2024-04-28_14h48.04.519,Experiment4_uns,s174,24 ,feminino,right,españa,"catalan,español, ",Bachelor degree,no,no,B,1,conjunction_un,L4,unsyncopated,s1,r2,125,Online_conjL4_un//a.zi.lo27.none.none.wav,ja,ña,bu,sil,nu,ñi,re,sil1,pe,po,sil2,['false alarm'],[0.2386000000014974],[0.2386000000014974],none,none,,,"[""space""]",zi,1,,,,,,,,,,,,,,,5.0,2 o 3,español,2.0,catalan,2.0,urdu,4.0,punjabi,4.0,ingles,3.0,3.0,no,no,no,no,,,, ha estabo bien ,53.0,yes
126,2024-04-28_14h48.04.519,Experiment4_uns,s174,24 ,feminino,right,españa,"catalan,español, ",Bachelor degree,no,no,B,1,conjunction_un,L4,unsyncopated,s2,r1,126,Online_conjL4_un//a.zi.lo26.888.1776.wav,pe,bu,de,sil,zi,da,ñi,sil1,lo,bo,sil2,['miss'],,,0.888,beat,,,,zi,1,,,,,,,,,,,,,,,5.0,2 o 3,español,2.0,catalan,2.0,urdu,4.0,punjabi,4.0,ingles,3.0,3.0,no,no,no,no,,,, ha estabo bien ,53.0,yes
127,2024-04-28_14h48.04.519,Experiment4_uns,s174,24 ,feminino,right,españa,"catalan,español, ",Bachelor degree,no,no,B,1,conjunction_un,L4,unsyncopated,s2,r1,127,Online_conjL4_un//a.zi.lo24.888.1776.wav,re,bo,po,sil,zi,da,ñi,sil1,lo,pe,sil2,['miss'],,,0.888,beat,,,,zi,1,,,,,,,,,,,,,,,5.0,2 o 3,español,2.0,catalan,2.0,urdu,4.0,punjabi,4.0,ingles,3.0,3.0,no,no,no,no,,,, ha estabo bien ,53.0,yes
128,2024-04-28_14h48.04.519,Experiment4_uns,s174,24 ,feminino,right,españa,"catalan,español, ",Bachelor degree,no,no,B,2,when,L2,unsyncopated,when,when,0,Online_whenL2//a.du11.1998.wav,me,te,go,sil,mi,ñu,si,sil1,bi,du,sil2,['miss'],,,1.998,no_beat,,,,du,1,,,,,,,,,,,,,,,5.0,2 o 3,español,2.0,catalan,2.0,urdu,4.0,punjabi,4.0,ingles,3.0,3.0,no,no,no,no,,,, ha estabo bien ,53.0,yes
129,2024-04-28_14h48.04.519,Experiment4_uns,s174,24 ,feminino,right,españa,"catalan,español, ",Bachelor degree,no,no,B,2,when,L2,unsyncopated,when,when,1,Online_whenL2//a.du9.1332.wav,bi,cha,su,sil,ñu,ba,du,sil1,ra,me,sil2,['false alarm'],[0.8587000000029548],[0.8587000000029548],1.332,no_beat,,,"[""space""]",du,1,,,,,,,,,,,,,,,5.0,2 o 3,español,2.0,catalan,2.0,urdu,4.0,punjabi,4.0,ingles,3.0,3.0,no,no,no,no,,,, ha estabo bien ,53.0,yes
130,2024-04-28_14h48.04.519,Experiment4_uns,s174,24 ,feminino,right,españa,"catalan,español, ",Bachelor degree,no,no,B,2,when,L2,unsyncopated,when,when,2,Online_whenL2//a.du10.none.wav,cha,ño,to,sil,ra,bi,fe,sil1,ba,mi,sil2,['-'],,,none,none,,,,du,1,,,,,,,,,,,,,,,5.0,2 o 3,español,2.0,catalan,2.0,urdu,4.0,punjabi,4.0,ingles,3.0,3.0,no,no,no,no,,,, ha estabo bien ,53.0,yes
131,2024-04-28_14h48.04.519,Experiment4_uns,s174,24 ,feminino,right,españa,"catalan,español, ",Bachelor degree,no,no,B,2,when,L2,unsyncopated,when,when,3,Online_whenL2//a.du8.none.wav,ño,su,to,sil,go,te,bi,sil1,ra,si,sil2,['false alarm'],[1.4368000000044958],[1.4368000000044958],none,none,,,"[""space""]",du,1,,,,,,,,,,,,,,,5.0,2 o 3,español,2.0,catalan,2.0,urdu,4.0,punjabi,4.0,ingles,3.0,3.0,no,no,no,no,,,, ha estabo bien ,53.0,yes
132,2024-04-28_14h48.04.519,Experiment4_uns,s174,24 ,feminino,right,españa,"catalan,español, ",Bachelor degree,no,no,B,2,when,L2,unsyncopated,when,when,4,Online_whenL2//c.cha28.0.wav,cha,fe,to,sil,ba,ñu,me,sil1,go,te,sil2,['catch'],[0.9512000000029275],[0.9512000000029275],0.0,beat,0.9512000000029276,0.9512000000029276,"[""space""]",cha,3,,,,,,,,,,,,,,,5.0,2 o 3,español,2.0,catalan,2.0,urdu,4.0,punjabi,4.0,ingles,3.0,3.0,no,no,no,no,,,, ha estabo bien ,53.0,yes
133,2024-04-28_14h48.04.519,Experiment4_uns,s174,24 ,feminino,right,españa,"catalan,español, ",Bachelor degree,no,no,B,2,when,L2,unsyncopated,when,when,5,Online_whenL2//c.cha31.none.wav,to,te,ñu,sil,bi,du,su,sil1,fe,me,sil2,['-'],,,none,none,,,,cha,3,,,,,,,,,,,,,,,5.0,2 o 3,español,2.0,catalan,2.0,urdu,4.0,punjabi,4.0,ingles,3.0,3.0,no,no,no,no,,,, ha estabo bien ,53.0,yes
134,2024-04-28_14h48.04.519,Experiment4_uns,s174,24 ,feminino,right,españa,"catalan,español, ",Bachelor degree,no,no,B,2,when,L2,unsyncopated,when,when,6,Online_whenL2//c.cha29.444.wav,go,du,cha,sil,me,ba,su,sil1,ñu,bi,sil2,['catch'],[1.589299999997138],[1.589299999997138],0.444,no_beat,1.145299999997138,1.145299999997138,"[""space""]",cha,3,,,,,,,,,,,,,,,5.0,2 o 3,español,2.0,catalan,2.0,urdu,4.0,punjabi,4.0,ingles,3.0,3.0,no,no,no,no,,,, ha estabo bien ,53.0,yes
135,2024-04-28_14h48.04.519,Experiment4_uns,s174,24 ,feminino,right,españa,"catalan,español, ",Bachelor degree,no,no,B,2,when,L2,unsyncopated,when,when,7,Online_whenL2//c.cha30.none.wav,te,mi,to,sil,me,go,si,sil1,ño,du,sil2,['-'],,,none,none,,,,cha,3,,,,,,,,,,,,,,,5.0,2 o 3,español,2.0,catalan,2.0,urdu,4.0,punjabi,4.0,ingles,3.0,3.0,no,no,no,no,,,, ha estabo bien ,53.0,yes
136,2024-04-28_14h48.04.519,Experiment4_uns,s174,24 ,feminino,right,españa,"catalan,español, ",Bachelor degree,no,no,B,2,when,L2,unsyncopated,when,when,8,Online_whenL2//b.fe1.none.wav,du,te,ba,sil,ra,mi,cha,sil1,ñu,to,sil2,['-'],,,none,none,,,,fe,2,,,,,,,,,,,,,,,5.0,2 o 3,español,2.0,catalan,2.0,urdu,4.0,punjabi,4.0,ingles,3.0,3.0,no,no,no,no,,,, ha estabo bien ,53.0,yes
137,2024-04-28_14h48.04.519,Experiment4_uns,s174,24 ,feminino,right,españa,"catalan,español, ",Bachelor degree,no,no,B,2,when,L2,unsyncopated,when,when,9,Online_whenL2//b.fe0.none.wav,te,go,to,sil,si,ra,ño,sil1,cha,su,sil2,['false alarm'],[0.6742000000031112],[0.6742000000031112],none,none,,,"[""space""]",fe,2,,,,,,,,,,,,,,,5.0,2 o 3,español,2.0,catalan,2.0,urdu,4.0,punjabi,4.0,ingles,3.0,3.0,no,no,no,no,,,, ha estabo bien ,53.0,yes
138,2024-04-28_14h48.04.519,Experiment4_uns,s174,24 ,feminino,right,españa,"catalan,español, ",Bachelor degree,no,no,B,2,when,L2,unsyncopated,when,when,10,Online_whenL2//b.fe2.1332.wav,ñu,bi,mi,sil,ra,cha,fe,sil1,ba,si,sil2,['catch'],[2.255800000004456],[2.255800000004456],1.332,no_beat,0.9238000000044556,0.9238000000044556,"[""space""]",fe,2,,,,,,,,,,,,,,,5.0,2 o 3,español,2.0,catalan,2.0,urdu,4.0,punjabi,4.0,ingles,3.0,3.0,no,no,no,no,,,, ha estabo bien ,53.0,yes
139,2024-04-28_14h48.04.519,Experiment4_uns,s174,24 ,feminino,right,españa,"catalan,español, ",Bachelor degree,no,no,B,2,when,L2,unsyncopated,when,when,11,Online_whenL2//b.fe3.1110.wav,me,mi,ñu,sil,bi,fe,si,sil1,to,go,sil2,['miss'],,,1.11,no_beat,,,,fe,2,,,,,,,,,,,,,,,5.0,2 o 3,español,2.0,catalan,2.0,urdu,4.0,punjabi,4.0,ingles,3.0,3.0,no,no,no,no,,,, ha estabo bien ,53.0,yes
140,2024-04-28_14h48.04.519,Experiment4_uns,s174,24 ,feminino,right,españa,"catalan,español, ",Bachelor degree,no,no,B,2,when,L2,unsyncopated,when,when,12,Online_whenL2//a.du7.0.wav,du,ño,te,sil,ñu,to,mi,sil1,su,fe,sil2,['catch'],[0.6784999999999854],[0.6784999999999854],0.0,beat,0.6784999999999854,0.6784999999999854,"[""space""]",du,1,,,,,,,,,,,,,,,5.0,2 o 3,español,2.0,catalan,2.0,urdu,4.0,punjabi,4.0,ingles,3.0,3.0,no,no,no,no,,,, ha estabo bien ,53.0,yes
141,2024-04-28_14h48.04.519,Experiment4_uns,s174,24 ,feminino,right,españa,"catalan,español, ",Bachelor degree,no,no,B,2,when,L2,unsyncopated,when,when,13,Online_whenL2//a.du4.1998.wav,cha,si,go,sil,mi,ñu,me,sil1,su,du,sil2,['miss'],,,1.998,no_beat,,,,du,1,,,,,,,,,,,,,,,5.0,2 o 3,español,2.0,catalan,2.0,urdu,4.0,punjabi,4.0,ingles,3.0,3.0,no,no,no,no,,,, ha estabo bien ,53.0,yes
142,2024-04-28_14h48.04.519,Experiment4_uns,s174,24 ,feminino,right,españa,"catalan,español, ",Bachelor degree,no,no,B,2,when,L2,unsyncopated,when,when,14,Online_whenL2//a.du5.1110.wav,bi,ño,ra,sil,ba,du,mi,sil1,to,ñu,sil2,['miss'],,,1.11,no_beat,,,,du,1,,,,,,,,,,,,,,,5.0,2 o 3,español,2.0,catalan,2.0,urdu,4.0,punjabi,4.0,ingles,3.0,3.0,no,no,no,no,,,, ha estabo bien ,53.0,yes
143,2024-04-28_14h48.04.519,Experiment4_uns,s174,24 ,feminino,right,españa,"catalan,español, ",Bachelor degree,no,no,B,2,when,L2,unsyncopated,when,when,15,Online_whenL2//a.du6.888.wav,me,si,bi,sil,du,mi,cha,sil1,te,fe,sil2,['catch'],[1.8553999999985535],[1.8553999999985535],0.888,beat,0.9673999999985536,0.9673999999985536,"[""space""]",du,1,,,,,,,,,,,,,,,5.0,2 o 3,español,2.0,catalan,2.0,urdu,4.0,punjabi,4.0,ingles,3.0,3.0,no,no,no,no,,,, ha estabo bien ,53.0,yes
144,2024-04-28_14h48.04.519,Experiment4_uns,s174,24 ,feminino,right,españa,"catalan,español, ",Bachelor degree,no,no,B,2,when,L2,unsyncopated,when,when,16,Online_whenL2//c.cha11.1998.wav,bi,te,ra,sil,si,su,ñu,sil1,go,cha,sil2,['catch_delay'],[0.7137999999970963],[0.7137999999970963],1.998,no_beat,0.7137999999970963,0.7137999999970963,,cha,3,,,,,,,,,,,,,,,5.0,2 o 3,español,2.0,catalan,2.0,urdu,4.0,punjabi,4.0,ingles,3.0,3.0,no,no,no,no,,,, ha estabo bien ,53.0,yes
145,2024-04-28_14h48.04.519,Experiment4_uns,s174,24 ,feminino,right,españa,"catalan,español, ",Bachelor degree,no,no,B,2,when,L2,unsyncopated,when,when,17,Online_whenL2//c.cha10.444.wav,mi,su,cha,sil,si,me,go,sil1,ra,ñu,sil2,['catch'],"[0.047799999997096165, 1.2465999999940323]",[1.2465999999940323],0.444,no_beat,0.8025999999940323,0.8025999999940323,"[""space"",""space""]",cha,3,,,,,,,,,,,,,,,5.0,2 o 3,español,2.0,catalan,2.0,urdu,4.0,punjabi,4.0,ingles,3.0,3.0,no,no,no,no,,,, ha estabo bien ,53.0,yes
146,2024-04-28_14h48.04.519,Experiment4_uns,s174,24 ,feminino,right,españa,"catalan,español, ",Bachelor degree,no,no,B,2,when,L2,unsyncopated,when,when,18,Online_whenL2//c.cha8.none.wav,mi,si,to,sil,ra,ba,ño,sil1,du,su,sil2,['-'],,,none,none,,,,cha,3,,,,,,,,,,,,,,,5.0,2 o 3,español,2.0,catalan,2.0,urdu,4.0,punjabi,4.0,ingles,3.0,3.0,no,no,no,no,,,, ha estabo bien ,53.0,yes
147,2024-04-28_14h48.04.519,Experiment4_uns,s174,24 ,feminino,right,españa,"catalan,español, ",Bachelor degree,no,no,B,2,when,L2,unsyncopated,when,when,19,Online_whenL2//c.cha9.none.wav,go,ba,ñu,sil,bi,fe,to,sil1,mi,ño,sil2,['-'],,,none,none,,,,cha,3,,,,,,,,,,,,,,,5.0,2 o 3,español,2.0,catalan,2.0,urdu,4.0,punjabi,4.0,ingles,3.0,3.0,no,no,no,no,,,, ha estabo bien ,53.0,yes
148,2024-04-28_14h48.04.519,Experiment4_uns,s174,24 ,feminino,right,españa,"catalan,español, ",Bachelor degree,no,no,B,2,when,L2,unsyncopated,when,when,20,Online_whenL2//a.du26.none.wav,bi,ra,te,sil,ba,si,ño,sil1,go,to,sil2,['false alarm'],[1.017699999995557],[1.017699999995557],none,none,,,"[""space""]",du,1,,,,,,,,,,,,,,,5.0,2 o 3,español,2.0,catalan,2.0,urdu,4.0,punjabi,4.0,ingles,3.0,3.0,no,no,no,no,,,, ha estabo bien ,53.0,yes
149,2024-04-28_14h48.04.519,Experiment4_uns,s174,24 ,feminino,right,españa,"catalan,español, ",Bachelor degree,no,no,B,2,when,L2,unsyncopated,when,when,21,Online_whenL2//a.du24.222.wav,me,du,to,sil,su,te,ra,sil1,bi,ñu,sil2,['miss'],,,0.222,no_beat,,,,du,1,,,,,,,,,,,,,,,5.0,2 o 3,español,2.0,catalan,2.0,urdu,4.0,punjabi,4.0,ingles,3.0,3.0,no,no,no,no,,,, ha estabo bien ,53.0,yes
150,2024-04-28_14h48.04.519,Experiment4_uns,s174,24 ,feminino,right,españa,"catalan,español, ",Bachelor degree,no,no,B,2,when,L2,unsyncopated,when,when,22,Online_whenL2//a.du25.444.wav,ñu,cha,du,sil,mi,su,si,sil1,go,me,sil2,['catch'],[1.309800000004543],[1.309800000004543],0.444,no_beat,0.8658000000045432,0.8658000000045432,"[""space""]",du,1,,,,,,,,,,,,,,,5.0,2 o 3,español,2.0,catalan,2.0,urdu,4.0,punjabi,4.0,ingles,3.0,3.0,no,no,no,no,,,, ha estabo bien ,53.0,yes
151,2024-04-28_14h48.04.519,Experiment4_uns,s174,24 ,feminino,right,españa,"catalan,español, ",Bachelor degree,no,no,B,2,when,L2,unsyncopated,when,when,23,Online_whenL2//a.du27.none.wav,su,go,bi,sil,fe,to,ño,sil1,si,te,sil2,['-'],,,none,none,,,,du,1,,,,,,,,,,,,,,,5.0,2 o 3,español,2.0,catalan,2.0,urdu,4.0,punjabi,4.0,ingles,3.0,3.0,no,no,no,no,,,, ha estabo bien ,53.0,yes
152,2024-04-28_14h48.04.519,Experiment4_uns,s174,24 ,feminino,right,españa,"catalan,español, ",Bachelor degree,no,no,B,2,when,L2,unsyncopated,when,when,24,Online_whenL2//b.fe23.none.wav,me,ba,du,sil,ra,to,bi,sil1,si,ñu,sil2,['-'],,,none,none,,,,fe,2,,,,,,,,,,,,,,,5.0,2 o 3,español,2.0,catalan,2.0,urdu,4.0,punjabi,4.0,ingles,3.0,3.0,no,no,no,no,,,, ha estabo bien ,53.0,yes
153,2024-04-28_14h48.04.519,Experiment4_uns,s174,24 ,feminino,right,españa,"catalan,español, ",Bachelor degree,no,no,B,2,when,L2,unsyncopated,when,when,25,Online_whenL2//b.fe22.none.wav,ño,ra,go,sil,ñu,bi,su,sil1,to,te,sil2,['-'],,,none,none,,,,fe,2,,,,,,,,,,,,,,,5.0,2 o 3,español,2.0,catalan,2.0,urdu,4.0,punjabi,4.0,ingles,3.0,3.0,no,no,no,no,,,, ha estabo bien ,53.0,yes
154,2024-04-28_14h48.04.519,Experiment4_uns,s174,24 ,feminino,right,españa,"catalan,español, ",Bachelor degree,no,no,B,2,when,L2,unsyncopated,when,when,26,Online_whenL2//b.fe21.1332.wav,ñu,mi,go,sil,te,su,fe,sil1,me,cha,sil2,['catch'],[1.9483999999984007],[1.9483999999984007],1.332,no_beat,0.6163999999984007,0.6163999999984007,"[""space""]",fe,2,,,,,,,,,,,,,,,5.0,2 o 3,español,2.0,catalan,2.0,urdu,4.0,punjabi,4.0,ingles,3.0,3.0,no,no,no,no,,,, ha estabo bien ,53.0,yes
155,2024-04-28_14h48.04.519,Experiment4_uns,s174,24 ,feminino,right,españa,"catalan,español, ",Bachelor degree,no,no,B,2,when,L2,unsyncopated,when,when,27,Online_whenL2//b.fe20.1332.wav,cha,ño,du,sil,si,me,fe,sil1,te,mi,sil2,['catch'],[2.261200000002873],[2.261200000002873],1.332,no_beat,0.9292000000028728,0.9292000000028728,"[""space""]",fe,2,,,,,,,,,,,,,,,5.0,2 o 3,español,2.0,catalan,2.0,urdu,4.0,punjabi,4.0,ingles,3.0,3.0,no,no,no,no,,,, ha estabo bien ,53.0,yes
156,2024-04-28_14h48.04.519,Experiment4_uns,s174,24 ,feminino,right,españa,"catalan,español, ",Bachelor degree,no,no,B,2,when,L2,unsyncopated,when,when,28,Online_whenL2//d.si10.none.wav,to,bi,fe,sil,me,mi,ra,sil1,ba,cha,sil2,['-'],,,none,none,,,,si,4,,,,,,,,,,,,,,,5.0,2 o 3,español,2.0,catalan,2.0,urdu,4.0,punjabi,4.0,ingles,3.0,3.0,no,no,no,no,,,, ha estabo bien ,53.0,yes
157,2024-04-28_14h48.04.519,Experiment4_uns,s174,24 ,feminino,right,españa,"catalan,español, ",Bachelor degree,no,no,B,2,when,L2,unsyncopated,when,when,29,Online_whenL2//d.si11.none.wav,to,mi,me,sil,ra,ñu,cha,sil1,su,du,sil2,['-'],,,none,none,,,,si,4,,,,,,,,,,,,,,,5.0,2 o 3,español,2.0,catalan,2.0,urdu,4.0,punjabi,4.0,ingles,3.0,3.0,no,no,no,no,,,, ha estabo bien ,53.0,yes
158,2024-04-28_14h48.04.519,Experiment4_uns,s174,24 ,feminino,right,españa,"catalan,español, ",Bachelor degree,no,no,B,2,when,L2,unsyncopated,when,when,30,Online_whenL2//d.si9.none.wav,du,su,to,sil,ba,ra,mi,sil1,te,ño,sil2,['false alarm'],[0.9393999999986136],[0.9393999999986136],none,none,,,"[""space""]",si,4,,,,,,,,,,,,,,,5.0,2 o 3,español,2.0,catalan,2.0,urdu,4.0,punjabi,4.0,ingles,3.0,3.0,no,no,no,no,,,, ha estabo bien ,53.0,yes
159,2024-04-28_14h48.04.519,Experiment4_uns,s174,24 ,feminino,right,españa,"catalan,español, ",Bachelor degree,no,no,B,2,when,L2,unsyncopated,when,when,31,Online_whenL2//d.si8.none.wav,ñu,su,fe,sil,ra,ño,me,sil1,cha,mi,sil2,['false alarm'],[1.0733999999986281],[1.0733999999986281],none,none,,,"[""space""]",si,4,,,,,,,,,,,,,,,5.0,2 o 3,español,2.0,catalan,2.0,urdu,4.0,punjabi,4.0,ingles,3.0,3.0,no,no,no,no,,,, ha estabo bien ,53.0,yes
160,2024-04-28_14h48.04.519,Experiment4_uns,s174,24 ,feminino,right,españa,"catalan,español, ",Bachelor degree,no,no,B,2,when,L2,unsyncopated,when,when,32,Online_whenL2//b.fe11.1332.wav,ba,bi,go,sil,su,mi,fe,sil1,si,me,sil2,['catch'],[2.086100000001352],[2.086100000001352],1.332,no_beat,0.7541000000013518,0.7541000000013518,"[""space""]",fe,2,,,,,,,,,,,,,,,5.0,2 o 3,español,2.0,catalan,2.0,urdu,4.0,punjabi,4.0,ingles,3.0,3.0,no,no,no,no,,,, ha estabo bien ,53.0,yes
161,2024-04-28_14h48.04.519,Experiment4_uns,s174,24 ,feminino,right,españa,"catalan,español, ",Bachelor degree,no,no,B,2,when,L2,unsyncopated,when,when,33,Online_whenL2//b.fe10.none.wav,to,du,su,sil,mi,ño,ba,sil1,bi,ra,sil2,['-'],,,none,none,,,,fe,2,,,,,,,,,,,,,,,5.0,2 o 3,español,2.0,catalan,2.0,urdu,4.0,punjabi,4.0,ingles,3.0,3.0,no,no,no,no,,,, ha estabo bien ,53.0,yes
162,2024-04-28_14h48.04.519,Experiment4_uns,s174,24 ,feminino,right,españa,"catalan,español, ",Bachelor degree,no,no,B,2,when,L2,unsyncopated,when,when,34,Online_whenL2//b.fe8.none.wav,su,to,go,sil,mi,ra,si,sil1,ba,ñu,sil2,['-'],,,none,none,,,,fe,2,,,,,,,,,,,,,,,5.0,2 o 3,español,2.0,catalan,2.0,urdu,4.0,punjabi,4.0,ingles,3.0,3.0,no,no,no,no,,,, ha estabo bien ,53.0,yes
163,2024-04-28_14h48.04.519,Experiment4_uns,s174,24 ,feminino,right,españa,"catalan,español, ",Bachelor degree,no,no,B,2,when,L2,unsyncopated,when,when,35,Online_whenL2//b.fe9.none.wav,du,ñu,su,sil,te,to,go,sil1,ño,me,sil2,['-'],,,none,none,,,,fe,2,,,,,,,,,,,,,,,5.0,2 o 3,español,2.0,catalan,2.0,urdu,4.0,punjabi,4.0,ingles,3.0,3.0,no,no,no,no,,,, ha estabo bien ,53.0,yes
164,2024-04-28_14h48.04.519,Experiment4_uns,s174,24 ,feminino,right,españa,"catalan,español, ",Bachelor degree,no,no,B,2,when,L2,unsyncopated,when,when,36,Online_whenL2//d.si7.none.wav,go,cha,te,sil,fe,ñu,ba,sil1,mi,to,sil2,['-'],,,none,none,,,,si,4,,,,,,,,,,,,,,,5.0,2 o 3,español,2.0,catalan,2.0,urdu,4.0,punjabi,4.0,ingles,3.0,3.0,no,no,no,no,,,, ha estabo bien ,53.0,yes
165,2024-04-28_14h48.04.519,Experiment4_uns,s174,24 ,feminino,right,españa,"catalan,español, ",Bachelor degree,no,no,B,2,when,L2,unsyncopated,when,when,37,Online_whenL2//d.si6.1776.wav,te,cha,du,sil,fe,ño,me,sil1,si,bi,sil2,['catch'],[2.5025000000000546],[2.5025000000000546],1.776,beat,0.7265000000000545,0.7265000000000545,"[""space""]",si,4,,,,,,,,,,,,,,,5.0,2 o 3,español,2.0,catalan,2.0,urdu,4.0,punjabi,4.0,ingles,3.0,3.0,no,no,no,no,,,, ha estabo bien ,53.0,yes
166,2024-04-28_14h48.04.519,Experiment4_uns,s174,24 ,feminino,right,españa,"catalan,español, ",Bachelor degree,no,no,B,2,when,L2,unsyncopated,when,when,38,Online_whenL2//d.si5.1332.wav,to,fe,ra,sil,me,cha,si,sil1,su,te,sil2,['miss'],,,1.332,no_beat,,,,si,4,,,,,,,,,,,,,,,5.0,2 o 3,español,2.0,catalan,2.0,urdu,4.0,punjabi,4.0,ingles,3.0,3.0,no,no,no,no,,,, ha estabo bien ,53.0,yes
167,2024-04-28_14h48.04.519,Experiment4_uns,s174,24 ,feminino,right,españa,"catalan,español, ",Bachelor degree,no,no,B,2,when,L2,unsyncopated,when,when,39,Online_whenL2//d.si4.444.wav,to,ra,si,sil,me,ñu,go,sil1,ño,mi,sil2,['miss'],,,0.444,no_beat,,,,si,4,,,,,,,,,,,,,,,5.0,2 o 3,español,2.0,catalan,2.0,urdu,4.0,punjabi,4.0,ingles,3.0,3.0,no,no,no,no,,,, ha estabo bien ,53.0,yes
168,2024-04-28_14h48.04.519,Experiment4_uns,s174,24 ,feminino,right,españa,"catalan,español, ",Bachelor degree,no,no,B,2,when,L2,unsyncopated,when,when,40,Online_whenL2//b.fe24.888.wav,to,te,ñu,sil,fe,su,bi,sil1,du,mi,sil2,['catch'],[2.63149999999996],[2.63149999999996],0.888,beat,,1.74349999999996,"[""space""]",fe,2,,,,,,,,,,,,,,,5.0,2 o 3,español,2.0,catalan,2.0,urdu,4.0,punjabi,4.0,ingles,3.0,3.0,no,no,no,no,,,, ha estabo bien ,53.0,yes
169,2024-04-28_14h48.04.519,Experiment4_uns,s174,24 ,feminino,right,españa,"catalan,español, ",Bachelor degree,no,no,B,2,when,L2,unsyncopated,when,when,41,Online_whenL2//b.fe26.none.wav,ñu,te,ño,sil,go,mi,me,sil1,du,ba,sil2,['-'],,,none,none,,,,fe,2,,,,,,,,,,,,,,,5.0,2 o 3,español,2.0,catalan,2.0,urdu,4.0,punjabi,4.0,ingles,3.0,3.0,no,no,no,no,,,, ha estabo bien ,53.0,yes
170,2024-04-28_14h48.04.519,Experiment4_uns,s174,24 ,feminino,right,españa,"catalan,español, ",Bachelor degree,no,no,B,2,when,L2,unsyncopated,when,when,42,Online_whenL2//b.fe27.888.wav,to,cha,su,sil,fe,me,go,sil1,ñu,ño,sil2,['catch'],[2.0261000000014064],[2.0261000000014064],0.888,beat,1.1381000000014063,1.1381000000014063,"[""space""]",fe,2,,,,,,,,,,,,,,,5.0,2 o 3,español,2.0,catalan,2.0,urdu,4.0,punjabi,4.0,ingles,3.0,3.0,no,no,no,no,,,, ha estabo bien ,53.0,yes
171,2024-04-28_14h48.04.519,Experiment4_uns,s174,24 ,feminino,right,españa,"catalan,español, ",Bachelor degree,no,no,B,2,when,L2,unsyncopated,when,when,43,Online_whenL2//b.fe25.888.wav,ba,me,mi,sil,fe,to,bi,sil1,ñu,du,sil2,['miss'],,,0.888,beat,,,,fe,2,,,,,,,,,,,,,,,5.0,2 o 3,español,2.0,catalan,2.0,urdu,4.0,punjabi,4.0,ingles,3.0,3.0,no,no,no,no,,,, ha estabo bien ,53.0,yes
172,2024-04-28_14h48.04.519,Experiment4_uns,s174,24 ,feminino,right,españa,"catalan,español, ",Bachelor degree,no,no,B,2,when,L2,unsyncopated,when,when,44,Online_whenL2//c.cha1.1332.wav,bi,ba,te,sil,me,ñu,cha,sil1,go,fe,sil2,['catch'],[1.9864999999999782],[1.9864999999999782],1.332,no_beat,0.6544999999999781,0.6544999999999781,"[""space""]",cha,3,,,,,,,,,,,,,,,5.0,2 o 3,español,2.0,catalan,2.0,urdu,4.0,punjabi,4.0,ingles,3.0,3.0,no,no,no,no,,,, ha estabo bien ,53.0,yes
173,2024-04-28_14h48.04.519,Experiment4_uns,s174,24 ,feminino,right,españa,"catalan,español, ",Bachelor degree,no,no,B,2,when,L2,unsyncopated,when,when,45,Online_whenL2//c.cha3.1998.wav,te,to,bi,sil,du,ra,ño,sil1,su,cha,sil2,['catch_delay'],[0.6965000000000747],[0.6965000000000747],1.998,no_beat,0.6965000000000747,0.6965000000000747,,cha,3,,,,,,,,,,,,,,,5.0,2 o 3,español,2.0,catalan,2.0,urdu,4.0,punjabi,4.0,ingles,3.0,3.0,no,no,no,no,,,, ha estabo bien ,53.0,yes
174,2024-04-28_14h48.04.519,Experiment4_uns,s174,24 ,feminino,right,españa,"catalan,español, ",Bachelor degree,no,no,B,2,when,L2,unsyncopated,when,when,46,Online_whenL2//c.cha2.none.wav,si,me,ra,sil,bi,te,ño,sil1,go,to,sil2,['-'],[0.03050000000007458],[0.03050000000007458],none,none,,,"[""space""]",cha,3,,,,,,,,,,,,,,,5.0,2 o 3,español,2.0,catalan,2.0,urdu,4.0,punjabi,4.0,ingles,3.0,3.0,no,no,no,no,,,, ha estabo bien ,53.0,yes
175,2024-04-28_14h48.04.519,Experiment4_uns,s174,24 ,feminino,right,españa,"catalan,español, ",Bachelor degree,no,no,B,2,when,L2,unsyncopated,when,when,47,Online_whenL2//c.cha0.1332.wav,mi,ñu,bi,sil,fe,to,cha,sil1,ra,su,sil2,['catch'],[1.9670999999941614],[1.9670999999941614],1.332,no_beat,0.6350999999941613,0.6350999999941613,"[""space""]",cha,3,,,,,,,,,,,,,,,5.0,2 o 3,español,2.0,catalan,2.0,urdu,4.0,punjabi,4.0,ingles,3.0,3.0,no,no,no,no,,,, ha estabo bien ,53.0,yes
176,2024-04-28_14h48.04.519,Experiment4_uns,s174,24 ,feminino,right,españa,"catalan,español, ",Bachelor degree,no,no,B,2,when,L2,unsyncopated,when,when,48,Online_whenL2//a.du35.none.wav,to,ñu,su,sil,ba,cha,fe,sil1,ño,go,sil2,['-'],,,none,none,,,,du,1,,,,,,,,,,,,,,,5.0,2 o 3,español,2.0,catalan,2.0,urdu,4.0,punjabi,4.0,ingles,3.0,3.0,no,no,no,no,,,, ha estabo bien ,53.0,yes
177,2024-04-28_14h48.04.519,Experiment4_uns,s174,24 ,feminino,right,españa,"catalan,español, ",Bachelor degree,no,no,B,2,when,L2,unsyncopated,when,when,49,Online_whenL2//a.du32.none.wav,to,fe,ñu,sil,cha,te,go,sil1,ño,si,sil2,['false alarm'],[0.9660000000001219],[0.9660000000001219],none,none,,,"[""space""]",du,1,,,,,,,,,,,,,,,5.0,2 o 3,español,2.0,catalan,2.0,urdu,4.0,punjabi,4.0,ingles,3.0,3.0,no,no,no,no,,,, ha estabo bien ,53.0,yes
178,2024-04-28_14h48.04.519,Experiment4_uns,s174,24 ,feminino,right,españa,"catalan,español, ",Bachelor degree,no,no,B,2,when,L2,unsyncopated,when,when,50,Online_whenL2//a.du33.1110.wav,te,su,si,sil,to,du,fe,sil1,mi,me,sil2,['catch'],[1.9125000000001364],[1.9125000000001364],1.11,no_beat,0.8025000000001363,0.8025000000001363,"[""space""]",du,1,,,,,,,,,,,,,,,5.0,2 o 3,español,2.0,catalan,2.0,urdu,4.0,punjabi,4.0,ingles,3.0,3.0,no,no,no,no,,,, ha estabo bien ,53.0,yes
179,2024-04-28_14h48.04.519,Experiment4_uns,s174,24 ,feminino,right,españa,"catalan,español, ",Bachelor degree,no,no,B,2,when,L2,unsyncopated,when,when,51,Online_whenL2//a.du34.1110.wav,ba,ñu,fe,sil,si,du,ño,sil1,te,su,sil2,['miss'],,,1.11,no_beat,,,,du,1,,,,,,,,,,,,,,,5.0,2 o 3,español,2.0,catalan,2.0,urdu,4.0,punjabi,4.0,ingles,3.0,3.0,no,no,no,no,,,, ha estabo bien ,53.0,yes
180,2024-04-28_14h48.04.519,Experiment4_uns,s174,24 ,feminino,right,españa,"catalan,español, ",Bachelor degree,no,no,B,2,when,L2,unsyncopated,when,when,52,Online_whenL2//c.cha24.444.wav,me,bi,cha,sil,su,ra,ño,sil1,to,fe,sil2,['miss'],,,0.444,no_beat,,,,cha,3,,,,,,,,,,,,,,,5.0,2 o 3,español,2.0,catalan,2.0,urdu,4.0,punjabi,4.0,ingles,3.0,3.0,no,no,no,no,,,, ha estabo bien ,53.0,yes
181,2024-04-28_14h48.04.519,Experiment4_uns,s174,24 ,feminino,right,españa,"catalan,español, ",Bachelor degree,no,no,B,2,when,L2,unsyncopated,when,when,53,Online_whenL2//c.cha26.0.wav,cha,to,ra,sil,go,ñu,ba,sil1,bi,te,sil2,['catch'],[0.5573999999985517],[0.5573999999985517],0.0,beat,0.5573999999985517,0.5573999999985517,"[""space""]",cha,3,,,,,,,,,,,,,,,5.0,2 o 3,español,2.0,catalan,2.0,urdu,4.0,punjabi,4.0,ingles,3.0,3.0,no,no,no,no,,,, ha estabo bien ,53.0,yes
182,2024-04-28_14h48.04.519,Experiment4_uns,s174,24 ,feminino,right,españa,"catalan,español, ",Bachelor degree,no,no,B,2,when,L2,unsyncopated,when,when,54,Online_whenL2//c.cha27.none.wav,bi,fe,mi,sil,te,ra,ño,sil1,to,ñu,sil2,['-'],,,none,none,,,,cha,3,,,,,,,,,,,,,,,5.0,2 o 3,español,2.0,catalan,2.0,urdu,4.0,punjabi,4.0,ingles,3.0,3.0,no,no,no,no,,,, ha estabo bien ,53.0,yes
183,2024-04-28_14h48.04.519,Experiment4_uns,s174,24 ,feminino,right,españa,"catalan,español, ",Bachelor degree,no,no,B,2,when,L2,unsyncopated,when,when,55,Online_whenL2//c.cha25.888.wav,fe,ño,su,sil,cha,te,bi,sil1,me,ra,sil2,['catch'],[1.8056000000015047],[1.8056000000015047],0.888,beat,0.9176000000015048,0.9176000000015048,"[""space""]",cha,3,,,,,,,,,,,,,,,5.0,2 o 3,español,2.0,catalan,2.0,urdu,4.0,punjabi,4.0,ingles,3.0,3.0,no,no,no,no,,,, ha estabo bien ,53.0,yes
184,2024-04-28_14h48.04.519,Experiment4_uns,s174,24 ,feminino,right,españa,"catalan,español, ",Bachelor degree,no,no,B,2,when,L2,unsyncopated,when,when,56,Online_whenL2//a.du20.none.wav,su,go,te,sil,ra,si,bi,sil1,ñu,cha,sil2,['-'],,,none,none,,,,du,1,,,,,,,,,,,,,,,5.0,2 o 3,español,2.0,catalan,2.0,urdu,4.0,punjabi,4.0,ingles,3.0,3.0,no,no,no,no,,,, ha estabo bien ,53.0,yes
185,2024-04-28_14h48.04.519,Experiment4_uns,s174,24 ,feminino,right,españa,"catalan,español, ",Bachelor degree,no,no,B,2,when,L2,unsyncopated,when,when,57,Online_whenL2//a.du23.888.wav,si,fe,to,sil,du,su,ño,sil1,me,ba,sil2,['catch'],[1.9408000000046286],[1.9408000000046286],0.888,beat,1.0528000000046287,1.0528000000046287,"[""space""]",du,1,,,,,,,,,,,,,,,5.0,2 o 3,español,2.0,catalan,2.0,urdu,4.0,punjabi,4.0,ingles,3.0,3.0,no,no,no,no,,,, ha estabo bien ,53.0,yes
186,2024-04-28_14h48.04.519,Experiment4_uns,s174,24 ,feminino,right,españa,"catalan,español, ",Bachelor degree,no,no,B,2,when,L2,unsyncopated,when,when,58,Online_whenL2//a.du21.none.wav,cha,si,bi,sil,ñu,ra,ño,sil1,ba,go,sil2,['-'],,,none,none,,,,du,1,,,,,,,,,,,,,,,5.0,2 o 3,español,2.0,catalan,2.0,urdu,4.0,punjabi,4.0,ingles,3.0,3.0,no,no,no,no,,,, ha estabo bien ,53.0,yes
187,2024-04-28_14h48.04.519,Experiment4_uns,s174,24 ,feminino,right,españa,"catalan,español, ",Bachelor degree,no,no,B,2,when,L2,unsyncopated,when,when,59,Online_whenL2//a.du22.444.wav,me,fe,du,sil,to,ba,te,sil1,su,ñu,sil2,['miss'],,,0.444,no_beat,,,,du,1,,,,,,,,,,,,,,,5.0,2 o 3,español,2.0,catalan,2.0,urdu,4.0,punjabi,4.0,ingles,3.0,3.0,no,no,no,no,,,, ha estabo bien ,53.0,yes
188,2024-04-28_14h48.04.519,Experiment4_uns,s174,24 ,feminino,right,españa,"catalan,español, ",Bachelor degree,no,no,B,2,when,L2,unsyncopated,when,when,60,Online_whenL2//d.si31.none.wav,su,ba,te,sil,ra,ño,to,sil1,mi,go,sil2,['false alarm'],[0.8662000000031185],[0.8662000000031185],none,none,,,"[""space""]",si,4,,,,,,,,,,,,,,,5.0,2 o 3,español,2.0,catalan,2.0,urdu,4.0,punjabi,4.0,ingles,3.0,3.0,no,no,no,no,,,, ha estabo bien ,53.0,yes
189,2024-04-28_14h48.04.519,Experiment4_uns,s174,24 ,feminino,right,españa,"catalan,español, ",Bachelor degree,no,no,B,2,when,L2,unsyncopated,when,when,61,Online_whenL2//d.si30.none.wav,me,ba,cha,sil,ño,te,bi,sil1,du,go,sil2,['-'],,,none,none,,,,si,4,,,,,,,,,,,,,,,5.0,2 o 3,español,2.0,catalan,2.0,urdu,4.0,punjabi,4.0,ingles,3.0,3.0,no,no,no,no,,,, ha estabo bien ,53.0,yes
190,2024-04-28_14h48.04.519,Experiment4_uns,s174,24 ,feminino,right,españa,"catalan,español, ",Bachelor degree,no,no,B,2,when,L2,unsyncopated,when,when,62,Online_whenL2//d.si29.888.wav,cha,me,su,sil,si,mi,te,sil1,ra,go,sil2,['catch'],[1.6197999999969852],[1.6197999999969852],0.888,beat,0.7317999999969852,0.7317999999969852,"[""space""]",si,4,,,,,,,,,,,,,,,5.0,2 o 3,español,2.0,catalan,2.0,urdu,4.0,punjabi,4.0,ingles,3.0,3.0,no,no,no,no,,,, ha estabo bien ,53.0,yes
191,2024-04-28_14h48.04.519,Experiment4_uns,s174,24 ,feminino,right,españa,"catalan,español, ",Bachelor degree,no,no,B,2,when,L2,unsyncopated,when,when,63,Online_whenL2//d.si28.888.wav,ñu,fe,bi,sil,si,cha,to,sil1,du,ba,sil2,['miss'],,,0.888,beat,,,,si,4,,,,,,,,,,,,,,,5.0,2 o 3,español,2.0,catalan,2.0,urdu,4.0,punjabi,4.0,ingles,3.0,3.0,no,no,no,no,,,, ha estabo bien ,53.0,yes
192,2024-04-28_14h48.04.519,Experiment4_uns,s174,24 ,feminino,right,españa,"catalan,español, ",Bachelor degree,no,no,B,2,when,L2,unsyncopated,when,when,64,Online_whenL2//c.cha5.none.wav,bi,mi,to,sil,su,fe,te,sil1,du,si,sil2,['-'],,,none,none,,,,cha,3,,,,,,,,,,,,,,,5.0,2 o 3,español,2.0,catalan,2.0,urdu,4.0,punjabi,4.0,ingles,3.0,3.0,no,no,no,no,,,, ha estabo bien ,53.0,yes
193,2024-04-28_14h48.04.519,Experiment4_uns,s174,24 ,feminino,right,españa,"catalan,español, ",Bachelor degree,no,no,B,2,when,L2,unsyncopated,when,when,65,Online_whenL2//c.cha7.none.wav,ba,to,bi,sil,ño,du,si,sil1,mi,fe,sil2,['-'],,,none,none,,,,cha,3,,,,,,,,,,,,,,,5.0,2 o 3,español,2.0,catalan,2.0,urdu,4.0,punjabi,4.0,ingles,3.0,3.0,no,no,no,no,,,, ha estabo bien ,53.0,yes
194,2024-04-28_14h48.04.519,Experiment4_uns,s174,24 ,feminino,right,españa,"catalan,español, ",Bachelor degree,no,no,B,2,when,L2,unsyncopated,when,when,66,Online_whenL2//c.cha6.none.wav,ño,bi,su,sil,ñu,to,si,sil1,du,go,sil2,['-'],,,none,none,,,,cha,3,,,,,,,,,,,,,,,5.0,2 o 3,español,2.0,catalan,2.0,urdu,4.0,punjabi,4.0,ingles,3.0,3.0,no,no,no,no,,,, ha estabo bien ,53.0,yes
195,2024-04-28_14h48.04.519,Experiment4_uns,s174,24 ,feminino,right,españa,"catalan,español, ",Bachelor degree,no,no,B,2,when,L2,unsyncopated,when,when,67,Online_whenL2//c.cha4.222.wav,bi,cha,ñu,sil,su,mi,du,sil1,si,fe,sil2,['catch'],[0.8716000000015356],[0.8716000000015356],0.222,no_beat,0.6496000000015356,0.6496000000015356,"[""space""]",cha,3,,,,,,,,,,,,,,,5.0,2 o 3,español,2.0,catalan,2.0,urdu,4.0,punjabi,4.0,ingles,3.0,3.0,no,no,no,no,,,, ha estabo bien ,53.0,yes
196,2024-04-28_14h48.04.519,Experiment4_uns,s174,24 ,feminino,right,españa,"catalan,español, ",Bachelor degree,no,no,B,2,when,L2,unsyncopated,when,when,68,Online_whenL2//b.fe18.none.wav,mi,go,su,sil,ba,ra,si,sil1,cha,bi,sil2,['-'],,,none,none,,,,fe,2,,,,,,,,,,,,,,,5.0,2 o 3,español,2.0,catalan,2.0,urdu,4.0,punjabi,4.0,ingles,3.0,3.0,no,no,no,no,,,, ha estabo bien ,53.0,yes
197,2024-04-28_14h48.04.519,Experiment4_uns,s174,24 ,feminino,right,españa,"catalan,español, ",Bachelor degree,no,no,B,2,when,L2,unsyncopated,when,when,69,Online_whenL2//b.fe19.none.wav,ño,ra,su,sil,cha,du,to,sil1,si,me,sil2,['-'],,,none,none,,,,fe,2,,,,,,,,,,,,,,,5.0,2 o 3,español,2.0,catalan,2.0,urdu,4.0,punjabi,4.0,ingles,3.0,3.0,no,no,no,no,,,, ha estabo bien ,53.0,yes
198,2024-04-28_14h48.04.519,Experiment4_uns,s174,24 ,feminino,right,españa,"catalan,español, ",Bachelor degree,no,no,B,2,when,L2,unsyncopated,when,when,70,Online_whenL2//b.fe17.222.wav,te,fe,ño,sil,su,mi,ra,sil1,si,ñu,sil2,['catch'],[0.96189999999865],[0.96189999999865],0.222,no_beat,0.73989999999865,0.73989999999865,"[""space""]",fe,2,,,,,,,,,,,,,,,5.0,2 o 3,español,2.0,catalan,2.0,urdu,4.0,punjabi,4.0,ingles,3.0,3.0,no,no,no,no,,,, ha estabo bien ,53.0,yes
199,2024-04-28_14h48.04.519,Experiment4_uns,s174,24 ,feminino,right,españa,"catalan,español, ",Bachelor degree,no,no,B,2,when,L2,unsyncopated,when,when,71,Online_whenL2//b.fe16.1998.wav,cha,ba,te,sil,ra,ño,si,sil1,me,fe,sil2,['catch_delay'],[1.0478000000044323],[1.0478000000044323],1.998,no_beat,1.0478000000044323,1.0478000000044323,,fe,2,,,,,,,,,,,,,,,5.0,2 o 3,español,2.0,catalan,2.0,urdu,4.0,punjabi,4.0,ingles,3.0,3.0,no,no,no,no,,,, ha estabo bien ,53.0,yes
200,2024-04-28_14h48.04.519,Experiment4_uns,s174,24 ,feminino,right,españa,"catalan,español, ",Bachelor degree,no,no,B,2,when,L2,unsyncopated,when,when,72,Online_whenL2//b.fe13.none.wav,te,su,ra,sil,si,go,ba,sil1,me,mi,sil2,['-'],[0.38180000000443215],[0.38180000000443215],none,none,,,"[""space""]",fe,2,,,,,,,,,,,,,,,5.0,2 o 3,español,2.0,catalan,2.0,urdu,4.0,punjabi,4.0,ingles,3.0,3.0,no,no,no,no,,,, ha estabo bien ,53.0,yes
201,2024-04-28_14h48.04.519,Experiment4_uns,s174,24 ,feminino,right,españa,"catalan,español, ",Bachelor degree,no,no,B,2,when,L2,unsyncopated,when,when,73,Online_whenL2//b.fe15.none.wav,ño,su,to,sil,du,me,go,sil1,cha,mi,sil2,['-'],,,none,none,,,,fe,2,,,,,,,,,,,,,,,5.0,2 o 3,español,2.0,catalan,2.0,urdu,4.0,punjabi,4.0,ingles,3.0,3.0,no,no,no,no,,,, ha estabo bien ,53.0,yes
202,2024-04-28_14h48.04.519,Experiment4_uns,s174,24 ,feminino,right,españa,"catalan,español, ",Bachelor degree,no,no,B,2,when,L2,unsyncopated,when,when,74,Online_whenL2//b.fe14.none.wav,ra,du,ba,sil,to,bi,su,sil1,te,ñu,sil2,['-'],,,none,none,,,,fe,2,,,,,,,,,,,,,,,5.0,2 o 3,español,2.0,catalan,2.0,urdu,4.0,punjabi,4.0,ingles,3.0,3.0,no,no,no,no,,,, ha estabo bien ,53.0,yes
203,2024-04-28_14h48.04.519,Experiment4_uns,s174,24 ,feminino,right,españa,"catalan,español, ",Bachelor degree,no,no,B,2,when,L2,unsyncopated,when,when,75,Online_whenL2//b.fe12.none.wav,su,si,te,sil,cha,go,ñu,sil1,to,du,sil2,['-'],,,none,none,,,,fe,2,,,,,,,,,,,,,,,5.0,2 o 3,español,2.0,catalan,2.0,urdu,4.0,punjabi,4.0,ingles,3.0,3.0,no,no,no,no,,,, ha estabo bien ,53.0,yes
204,2024-04-28_14h48.04.519,Experiment4_uns,s174,24 ,feminino,right,españa,"catalan,español, ",Bachelor degree,no,no,B,2,when,L2,unsyncopated,when,when,76,Online_whenL2//a.du29.1998.wav,ra,ño,su,sil,bi,si,mi,sil1,me,du,sil2,['catch_delay'],[0.8566999999953315],[0.8566999999953315],1.998,no_beat,0.8566999999953315,0.8566999999953315,,du,1,,,,,,,,,,,,,,,5.0,2 o 3,español,2.0,catalan,2.0,urdu,4.0,punjabi,4.0,ingles,3.0,3.0,no,no,no,no,,,, ha estabo bien ,53.0,yes
205,2024-04-28_14h48.04.519,Experiment4_uns,s174,24 ,feminino,right,españa,"catalan,español, ",Bachelor degree,no,no,B,2,when,L2,unsyncopated,when,when,77,Online_whenL2//a.du31.222.wav,ba,du,go,sil,to,si,cha,sil1,mi,bi,sil2,['miss'],[0.19069999999533138],[0.19069999999533138],0.222,no_beat,,,"[""space""]",du,1,,,,,,,,,,,,,,,5.0,2 o 3,español,2.0,catalan,2.0,urdu,4.0,punjabi,4.0,ingles,3.0,3.0,no,no,no,no,,,, ha estabo bien ,53.0,yes
206,2024-04-28_14h48.04.519,Experiment4_uns,s174,24 ,feminino,right,españa,"catalan,español, ",Bachelor degree,no,no,B,2,when,L2,unsyncopated,when,when,78,Online_whenL2//a.du30.none.wav,fe,bi,to,sil,cha,su,ra,sil1,ño,ba,sil2,['-'],,,none,none,,,,du,1,,,,,,,,,,,,,,,5.0,2 o 3,español,2.0,catalan,2.0,urdu,4.0,punjabi,4.0,ingles,3.0,3.0,no,no,no,no,,,, ha estabo bien ,53.0,yes
207,2024-04-28_14h48.04.519,Experiment4_uns,s174,24 ,feminino,right,españa,"catalan,español, ",Bachelor degree,no,no,B,2,when,L2,unsyncopated,when,when,79,Online_whenL2//a.du28.none.wav,ño,te,to,sil,go,ba,ra,sil1,su,bi,sil2,['-'],,,none,none,,,,du,1,,,,,,,,,,,,,,,5.0,2 o 3,español,2.0,catalan,2.0,urdu,4.0,punjabi,4.0,ingles,3.0,3.0,no,no,no,no,,,, ha estabo bien ,53.0,yes
208,2024-04-28_14h48.04.519,Experiment4_uns,s174,24 ,feminino,right,españa,"catalan,español, ",Bachelor degree,no,no,B,2,when,L2,unsyncopated,when,when,80,Online_whenL2//d.si20.1998.wav,ba,mi,ñu,sil,cha,to,go,sil1,ra,si,sil2,['miss'],,,1.998,no_beat,,,,si,4,,,,,,,,,,,,,,,5.0,2 o 3,español,2.0,catalan,2.0,urdu,4.0,punjabi,4.0,ingles,3.0,3.0,no,no,no,no,,,, ha estabo bien ,53.0,yes
209,2024-04-28_14h48.04.519,Experiment4_uns,s174,24 ,feminino,right,españa,"catalan,español, ",Bachelor degree,no,no,B,2,when,L2,unsyncopated,when,when,81,Online_whenL2//d.si21.none.wav,te,me,bi,sil,go,ñu,to,sil1,ra,ño,sil2,['-'],,,none,none,,,,si,4,,,,,,,,,,,,,,,5.0,2 o 3,español,2.0,catalan,2.0,urdu,4.0,punjabi,4.0,ingles,3.0,3.0,no,no,no,no,,,, ha estabo bien ,53.0,yes
210,2024-04-28_14h48.04.519,Experiment4_uns,s174,24 ,feminino,right,españa,"catalan,español, ",Bachelor degree,no,no,B,2,when,L2,unsyncopated,when,when,82,Online_whenL2//d.si23.none.wav,to,mi,ba,sil,go,du,ñu,sil1,te,ño,sil2,['-'],,,none,none,,,,si,4,,,,,,,,,,,,,,,5.0,2 o 3,español,2.0,catalan,2.0,urdu,4.0,punjabi,4.0,ingles,3.0,3.0,no,no,no,no,,,, ha estabo bien ,53.0,yes
211,2024-04-28_14h48.04.519,Experiment4_uns,s174,24 ,feminino,right,españa,"catalan,español, ",Bachelor degree,no,no,B,2,when,L2,unsyncopated,when,when,83,Online_whenL2//d.si22.none.wav,te,du,fe,sil,cha,su,ñu,sil1,me,ba,sil2,['-'],,,none,none,,,,si,4,,,,,,,,,,,,,,,5.0,2 o 3,español,2.0,catalan,2.0,urdu,4.0,punjabi,4.0,ingles,3.0,3.0,no,no,no,no,,,, ha estabo bien ,53.0,yes
