Unnamed: 0,date,expName,participant,age,sex,hand,residence,native_lang,education_level,lang_deficit,aud_deficit,group,block,condition,language,rhythm,rule structure online,rule type online,order_trial_on,trial_online,s1,s2,s3,s4,s5,s6,s7,s8,s9,s10,s11,catch_syll_resp,rts_syll_catch,clean_rts,time_syll,beat_no_beat,catch_rtsTR,catch_rts,syllable_catch.keys,cond_syll,syll_to_catch,test_offline,block_off,condition_off,rhythm_off,rule,rule_str_off,rule_norule,conds_offline,language_off,Partz_no_partm.keys,Partz_no_partm.rt,security_1_7.keys,accuracy,security_1_7.rt,n_lang,n_lang_used,lang_1,age_l1,lang_2,age_l2,lang_3,age_l3,lang_4,age_l4,ability_learn_l2,tendence_mix_lan,music_experience,muisc_use,partiture,instr_1,age_M1,preguntas_musica1,BMRQ_answer.response,final comment,BMRQ_Score,bilingual
0,2024-06-03_20h25.18.445,Experiment4_uns,s196,34.0,feminino,right,España,Español,Master degree,no,no,A,1,conjunction_un,L4,unsyncopated,s1,r1,0,Online_conjL4_un//d.pe.po13.1776.1110.wav,zi,ña,ñi,sil,lo,po,bu,sil1,pe,de,sil2,['catch'],[2.2125999999940404],[2.2125999999940404],1.776,beat,0.4365999999940404,0.4365999999940404,"[""space""]",pe,4,testConjL4Uns//dep_viol.r2.s2.0.wav,1.0,conjunction_un,unsyncopated,b,s2,no_rule,dep,L4,z,1.1837,6.0,0.0,9.4908,4.0,2.0,español,0.0,inglés,10.0,francés,14.0,alemán,16.0,4.0,2.0,no,no,no,nada,,1. Cuando comparto música con alguien siento una complicidad especial con aquella persona.,3.0,"Me ha resultado muy difícil concentrarme en los lenguajes sin contar con otras fuentes de información que suelen estar disponibles cuando oímos un idioma extranjero, como el lenguaje verbal, los gestos, la entonación, etc.Los 4 fragmentos se me han hecho larguísimos",28.0,yes
1,2024-06-03_20h25.18.445,Experiment4_uns,s196,34.0,feminino,right,España,Español,Master degree,no,no,A,1,conjunction_un,L4,unsyncopated,s2,r2,1,Online_conjL4_un//d.pe.po12.none.none.wav,da,ñi,bo,sil,ja,ña,ru,sil1,nu,bu,sil2,['-'],,,none,none,,,,pe,4,testConjL4Uns//r2.s2.1.wav,1.0,conjunction_un,unsyncopated,b,s2,rule,rule,L4,z,1.3811,7.0,1.0,3.8444,4.0,2.0,español,0.0,inglés,10.0,francés,14.0,alemán,16.0,4.0,2.0,no,no,no,nada,,2. En mi tiempo libre apenas escucho música.,1.0,"Me ha resultado muy difícil concentrarme en los lenguajes sin contar con otras fuentes de información que suelen estar disponibles cuando oímos un idioma extranjero, como el lenguaje verbal, los gestos, la entonación, etc.Los 4 fragmentos se me han hecho larguísimos",28.0,yes
2,2024-06-03_20h25.18.445,Experiment4_uns,s196,34.0,feminino,right,España,Español,Master degree,no,no,A,1,conjunction_un,L4,unsyncopated,s1,r1,2,Online_conjL4_un//d.pe.po14.none.none.wav,zi,bo,da,sil,lo,ña,ci,sil1,de,re,sil2,['-'],,,none,none,,,,pe,4,testConjL4Uns//time_viol.r1.s2.0.wav,1.0,conjunction_un,unsyncopated,a,s2,no_rule,time,L4,m,1.3838,2.0,1.0,1.3383,4.0,2.0,español,0.0,inglés,10.0,francés,14.0,alemán,16.0,4.0,2.0,no,no,no,nada,,3. Algunas canciones me ponen los pelos de punta,3.0,"Me ha resultado muy difícil concentrarme en los lenguajes sin contar con otras fuentes de información que suelen estar disponibles cuando oímos un idioma extranjero, como el lenguaje verbal, los gestos, la entonación, etc.Los 4 fragmentos se me han hecho larguísimos",28.0,yes
3,2024-06-03_20h25.18.445,Experiment4_uns,s196,34.0,feminino,right,España,Español,Master degree,no,no,A,1,conjunction_un,L4,unsyncopated,s1,r2,3,Online_conjL4_un//d.pe.po15.444.1332.wav,ja,bu,pe,sil,nu,ru,po,sil1,de,da,sil2,['catch'],[1.0623000000118736],[1.0623000000118736],0.444,no_beat,0.6183000000118737,0.6183000000118737,"[""space""]",pe,4,testConjL4Uns//r2.s2.0.wav,1.0,conjunction_un,unsyncopated,b,s2,rule,rule,L4,m,3.0704,1.0,0.0,1.987,4.0,2.0,español,0.0,inglés,10.0,francés,14.0,alemán,16.0,4.0,2.0,no,no,no,nada,,4. La música me hace compañía cuando estoy solo,3.0,"Me ha resultado muy difícil concentrarme en los lenguajes sin contar con otras fuentes de información que suelen estar disponibles cuando oímos un idioma extranjero, como el lenguaje verbal, los gestos, la entonación, etc.Los 4 fragmentos se me han hecho larguísimos",28.0,yes
4,2024-06-03_20h25.18.445,Experiment4_uns,s196,34.0,feminino,right,España,Español,Master degree,no,no,A,1,conjunction_un,L4,unsyncopated,s2,r2,4,Online_conjL4_un//a.zi.lo11.none.none.wav,po,re,ña,sil,ja,bo,ru,sil1,nu,pe,sil2,['-'],,,none,none,,,,lo,2,testConjL4Uns//r2.s1.1.wav,1.0,conjunction_un,unsyncopated,b,s1,rule,rule,L4,z,0.6992,7.0,1.0,1.3746,4.0,2.0,español,0.0,inglés,10.0,francés,14.0,alemán,16.0,4.0,2.0,no,no,no,nada,,5. No me apetece bailar ni con la música que más me gusta,3.0,"Me ha resultado muy difícil concentrarme en los lenguajes sin contar con otras fuentes de información que suelen estar disponibles cuando oímos un idioma extranjero, como el lenguaje verbal, los gestos, la entonación, etc.Los 4 fragmentos se me han hecho larguísimos",28.0,yes
5,2024-06-03_20h25.18.445,Experiment4_uns,s196,34.0,feminino,right,España,Español,Master degree,no,no,A,1,conjunction_un,L4,unsyncopated,s1,r2,5,Online_conjL4_un//a.zi.lo10.none.none.wav,ja,ña,da,sil,nu,re,de,sil1,bu,bo,sil2,['-'],,,none,none,,,,lo,2,testConjL4Uns//r2.s1.0.wav,1.0,conjunction_un,unsyncopated,b,s1,rule,rule,L4,z,0.8497,7.0,1.0,1.2332,4.0,2.0,español,0.0,inglés,10.0,francés,14.0,alemán,16.0,4.0,2.0,no,no,no,nada,,6. La música me hace conectar con la gente,1.0,"Me ha resultado muy difícil concentrarme en los lenguajes sin contar con otras fuentes de información que suelen estar disponibles cuando oímos un idioma extranjero, como el lenguaje verbal, los gestos, la entonación, etc.Los 4 fragmentos se me han hecho larguísimos",28.0,yes
6,2024-06-03_20h25.18.445,Experiment4_uns,s196,34.0,feminino,right,España,Español,Master degree,no,no,A,1,conjunction_un,L4,unsyncopated,s2,r2,6,Online_conjL4_un//a.zi.lo9.none.none.wav,de,po,ña,sil,ja,bu,da,sil1,nu,ñi,sil2,['false alarm'],[0.8321000000238428],[0.8321000000238428],none,none,,,"[""space""]",lo,2,testConjL4Uns//r1.s1.1.wav,1.0,conjunction_un,unsyncopated,a,s1,rule,rule,L4,z,1.8987,5.0,1.0,1.6201,4.0,2.0,español,0.0,inglés,10.0,francés,14.0,alemán,16.0,4.0,2.0,no,no,no,nada,,7. Me informo sobre la música que me gusta.,1.0,"Me ha resultado muy difícil concentrarme en los lenguajes sin contar con otras fuentes de información que suelen estar disponibles cuando oímos un idioma extranjero, como el lenguaje verbal, los gestos, la entonación, etc.Los 4 fragmentos se me han hecho larguísimos",28.0,yes
7,2024-06-03_20h25.18.445,Experiment4_uns,s196,34.0,feminino,right,España,Español,Master degree,no,no,A,1,conjunction_un,L4,unsyncopated,s2,r1,7,Online_conjL4_un//a.zi.lo8.888.1776.wav,re,pe,da,sil,zi,de,ña,sil1,lo,ru,sil2,['catch'],[2.3424000000059095],[2.3424000000059095],1.776,beat,0.5664000000059095,0.5664000000059095,"[""space""]",lo,2,testConjL4Uns//cat_viol.r2.s1.0.wav,1.0,conjunction_un,unsyncopated,b,s1,no_rule,cat,L4,m,1.9391,1.0,1.0,1.3344,4.0,2.0,español,0.0,inglés,10.0,francés,14.0,alemán,16.0,4.0,2.0,no,no,no,nada,,8.Me emociono escuchando ciertas canciones.,3.0,"Me ha resultado muy difícil concentrarme en los lenguajes sin contar con otras fuentes de información que suelen estar disponibles cuando oímos un idioma extranjero, como el lenguaje verbal, los gestos, la entonación, etc.Los 4 fragmentos se me han hecho larguísimos",28.0,yes
8,2024-06-03_20h25.18.445,Experiment4_uns,s196,34.0,feminino,right,España,Español,Master degree,no,no,A,1,conjunction_un,L4,unsyncopated,s1,r1,8,Online_conjL4_un//b.ja.nu5.none.none.wav,zi,ci,ñi,sil,lo,bo,da,sil1,po,ña,sil2,['-'],,,none,none,,,,ja,1,testConjL4Uns//time_viol.r2.s1.0.wav,1.0,conjunction_un,unsyncopated,b,s1,no_rule,time,L4,m,2.3832,2.0,1.0,2.6627,4.0,2.0,español,0.0,inglés,10.0,francés,14.0,alemán,16.0,4.0,2.0,no,no,no,nada,,9.La música me tranquiliza y me relaja.,1.0,"Me ha resultado muy difícil concentrarme en los lenguajes sin contar con otras fuentes de información que suelen estar disponibles cuando oímos un idioma extranjero, como el lenguaje verbal, los gestos, la entonación, etc.Los 4 fragmentos se me han hecho larguísimos",28.0,yes
9,2024-06-03_20h25.18.445,Experiment4_uns,s196,34.0,feminino,right,España,Español,Master degree,no,no,A,1,conjunction_un,L4,unsyncopated,s1,r1,9,Online_conjL4_un//b.ja.nu6.none.none.wav,zi,de,bo,sil,lo,ñi,da,sil1,ña,bu,sil2,"['false alarm', 'false alarm']","[0.34630000001186545, 2.372400000005996]",2.372400000005996,none,none,,,"[""space"",""space""]",ja,1,testConjL4Uns//r2.s1.2.wav,1.0,conjunction_un,unsyncopated,b,s1,rule,rule,L4,z,3.2314,4.0,1.0,1.0832,4.0,2.0,español,0.0,inglés,10.0,francés,14.0,alemán,16.0,4.0,2.0,no,no,no,nada,,10.La música me hace bailar,1.0,"Me ha resultado muy difícil concentrarme en los lenguajes sin contar con otras fuentes de información que suelen estar disponibles cuando oímos un idioma extranjero, como el lenguaje verbal, los gestos, la entonación, etc.Los 4 fragmentos se me han hecho larguísimos",28.0,yes
10,2024-06-03_20h25.18.445,Experiment4_uns,s196,34.0,feminino,right,España,Español,Master degree,no,no,A,1,conjunction_un,L4,unsyncopated,s2,r2,10,Online_conjL4_un//b.ja.nu7.888.1776.wav,pe,bu,bo,sil,ja,de,da,sil1,nu,ña,sil2,['catch'],[1.8096999999880836],[1.8096999999880836],0.888,beat,0.9216999999880836,0.9216999999880836,"[""space""]",ja,1,testConjL4Uns//dep_viol.r1.s1.0.wav,1.0,conjunction_un,unsyncopated,a,s1,no_rule,dep,L4,z,0.8522,7.0,0.0,1.337,4.0,2.0,español,0.0,inglés,10.0,francés,14.0,alemán,16.0,4.0,2.0,no,no,no,nada,,11.Busco novedades musicales continuamente,0.0,"Me ha resultado muy difícil concentrarme en los lenguajes sin contar con otras fuentes de información que suelen estar disponibles cuando oímos un idioma extranjero, como el lenguaje verbal, los gestos, la entonación, etc.Los 4 fragmentos se me han hecho larguísimos",28.0,yes
11,2024-06-03_20h25.18.445,Experiment4_uns,s196,34.0,feminino,right,España,Español,Master degree,no,no,A,1,conjunction_un,L4,unsyncopated,s2,r1,11,Online_conjL4_un//b.ja.nu4.none.none.wav,ru,pe,bo,sil,zi,ña,ci,sil1,lo,da,sil2,['-'],,,none,none,,,,ja,1,testConjL4Uns//r1.s2.2.wav,1.0,conjunction_un,unsyncopated,a,s2,rule,rule,L4,z,1.4514,5.0,1.0,1.2143,4.0,2.0,español,0.0,inglés,10.0,francés,14.0,alemán,16.0,4.0,2.0,no,no,no,nada,,12. Puedo llorar cuando escucho algunas melodías que me gustan mucho.,1.0,"Me ha resultado muy difícil concentrarme en los lenguajes sin contar con otras fuentes de información que suelen estar disponibles cuando oímos un idioma extranjero, como el lenguaje verbal, los gestos, la entonación, etc.Los 4 fragmentos se me han hecho larguísimos",28.0,yes
12,2024-06-03_20h25.18.445,Experiment4_uns,s196,34.0,feminino,right,España,Español,Master degree,no,no,A,1,conjunction_un,L4,unsyncopated,s2,r2,12,Online_conjL4_un//b.ja.nu8.888.1776.wav,po,ñi,re,sil,ja,de,da,sil1,nu,pe,sil2,['catch'],[1.3659999999999854],[1.3659999999999854],0.888,beat,0.4779999999999854,0.4779999999999854,"[""space""]",ja,1,testConjL4Uns//time_viol.r2.s2.0.wav,1.0,conjunction_un,unsyncopated,b,s2,no_rule,time,L4,z,1.137,6.0,0.0,1.1857,4.0,2.0,español,0.0,inglés,10.0,francés,14.0,alemán,16.0,4.0,2.0,no,no,no,nada,,13. Me gusta cantar o tocar un instrumento con más gente,0.0,"Me ha resultado muy difícil concentrarme en los lenguajes sin contar con otras fuentes de información que suelen estar disponibles cuando oímos un idioma extranjero, como el lenguaje verbal, los gestos, la entonación, etc.Los 4 fragmentos se me han hecho larguísimos",28.0,yes
13,2024-06-03_20h25.18.445,Experiment4_uns,s196,34.0,feminino,right,España,Español,Master degree,no,no,A,1,conjunction_un,L4,unsyncopated,s2,r1,13,Online_conjL4_un//b.ja.nu10.none.none.wav,bu,da,de,sil,zi,ña,ñi,sil1,lo,ci,sil2,['-'],,,none,none,,,,ja,1,testConjL4Uns//r2.s2.2.wav,1.0,conjunction_un,unsyncopated,b,s2,rule,rule,L4,z,0.7988,6.0,1.0,1.1872,4.0,2.0,español,0.0,inglés,10.0,francés,14.0,alemán,16.0,4.0,2.0,no,no,no,nada,,14. La música me ayuda a desconectar.,3.0,"Me ha resultado muy difícil concentrarme en los lenguajes sin contar con otras fuentes de información que suelen estar disponibles cuando oímos un idioma extranjero, como el lenguaje verbal, los gestos, la entonación, etc.Los 4 fragmentos se me han hecho larguísimos",28.0,yes
14,2024-06-03_20h25.18.445,Experiment4_uns,s196,34.0,feminino,right,España,Español,Master degree,no,no,A,1,conjunction_un,L4,unsyncopated,s2,r1,14,Online_conjL4_un//b.ja.nu11.none.none.wav,ci,re,bu,sil,zi,da,ña,sil1,lo,ru,sil2,['-'],,,none,none,,,,ja,1,testConjL4Uns//dep_viol.r1.s2.0.wav,1.0,conjunction_un,unsyncopated,a,s2,no_rule,dep,L4,m,0.7035,1.0,1.0,1.1995,4.0,2.0,español,0.0,inglés,10.0,francés,14.0,alemán,16.0,4.0,2.0,no,no,no,nada,,15. No puedo evitar tararear las canciones que me gustan cuando las escucho.,1.0,"Me ha resultado muy difícil concentrarme en los lenguajes sin contar con otras fuentes de información que suelen estar disponibles cuando oímos un idioma extranjero, como el lenguaje verbal, los gestos, la entonación, etc.Los 4 fragmentos se me han hecho larguísimos",28.0,yes
15,2024-06-03_20h25.18.445,Experiment4_uns,s196,34.0,feminino,right,España,Español,Master degree,no,no,A,1,conjunction_un,L4,unsyncopated,s1,r1,15,Online_conjL4_un//b.ja.nu9.none.none.wav,zi,de,bu,sil,lo,bo,po,sil1,da,ñi,sil2,['-'],,,none,none,,,,ja,1,testConjL4Uns//r1.s2.0.wav,1.0,conjunction_un,unsyncopated,a,s2,rule,rule,L4,m,2.7988,2.0,0.0,1.1783,4.0,2.0,español,0.0,inglés,10.0,francés,14.0,alemán,16.0,4.0,2.0,no,no,no,nada,,16. En los conciertos me siento en sintonía con los artistas y el público.,2.0,"Me ha resultado muy difícil concentrarme en los lenguajes sin contar con otras fuentes de información que suelen estar disponibles cuando oímos un idioma extranjero, como el lenguaje verbal, los gestos, la entonación, etc.Los 4 fragmentos se me han hecho larguísimos",28.0,yes
16,2024-06-03_20h25.18.445,Experiment4_uns,s196,34.0,feminino,right,España,Español,Master degree,no,no,A,1,conjunction_un,L4,unsyncopated,s2,r2,16,Online_conjL4_un//a.zi.lo15.none.none.wav,po,ñi,pe,sil,ja,da,bo,sil1,nu,de,sil2,['-'],,,none,none,,,,lo,2,testConjL4Uns//time_viol.r1.s1.0.wav,1.0,conjunction_un,unsyncopated,a,s1,no_rule,time,L4,m,3.7473,1.0,1.0,2.0861,4.0,2.0,español,0.0,inglés,10.0,francés,14.0,alemán,16.0,4.0,2.0,no,no,no,nada,,17. Me gasto bastante dinero en música y cosas relacionadas con la música.,0.0,"Me ha resultado muy difícil concentrarme en los lenguajes sin contar con otras fuentes de información que suelen estar disponibles cuando oímos un idioma extranjero, como el lenguaje verbal, los gestos, la entonación, etc.Los 4 fragmentos se me han hecho larguísimos",28.0,yes
17,2024-06-03_20h25.18.445,Experiment4_uns,s196,34.0,feminino,right,España,Español,Master degree,no,no,A,1,conjunction_un,L4,unsyncopated,s2,r2,17,Online_conjL4_un//a.zi.lo12.none.none.wav,re,bo,pe,sil,ja,bu,ru,sil1,nu,de,sil2,['-'],,,none,none,,,,lo,2,testConjL4Uns//r1.s1.2.wav,1.0,conjunction_un,unsyncopated,a,s1,rule,rule,L4,m,2.1464,1.0,0.0,0.832,4.0,2.0,español,0.0,inglés,10.0,francés,14.0,alemán,16.0,4.0,2.0,no,no,no,nada,,18. Siento escalofríos cuando escucho una melodía que me gusta.,0.0,"Me ha resultado muy difícil concentrarme en los lenguajes sin contar con otras fuentes de información que suelen estar disponibles cuando oímos un idioma extranjero, como el lenguaje verbal, los gestos, la entonación, etc.Los 4 fragmentos se me han hecho larguísimos",28.0,yes
18,2024-06-03_20h25.18.445,Experiment4_uns,s196,34.0,feminino,right,España,Español,Master degree,no,no,A,1,conjunction_un,L4,unsyncopated,s1,r1,18,Online_conjL4_un//a.zi.lo14.0.888.wav,zi,po,ñi,sil,lo,bo,da,sil1,pe,bu,sil2,['catch'],[1.6763000000119064],[1.6763000000119064],0.888,beat,0.7883000000119064,0.7883000000119064,"[""space""]",lo,2,testConjL4Uns//r1.s2.1.wav,1.0,conjunction_un,unsyncopated,a,s2,rule,rule,L4,m,1.1171,1.0,0.0,0.8341,4.0,2.0,español,0.0,inglés,10.0,francés,14.0,alemán,16.0,4.0,2.0,no,no,no,nada,,19. Con la música me puedo desahogar.,0.0,"Me ha resultado muy difícil concentrarme en los lenguajes sin contar con otras fuentes de información que suelen estar disponibles cuando oímos un idioma extranjero, como el lenguaje verbal, los gestos, la entonación, etc.Los 4 fragmentos se me han hecho larguísimos",28.0,yes
19,2024-06-03_20h25.18.445,Experiment4_uns,s196,34.0,feminino,right,España,Español,Master degree,no,no,A,1,conjunction_un,L4,unsyncopated,s2,r2,19,Online_conjL4_un//a.zi.lo13.none.none.wav,re,ña,bo,sil,ja,bu,ñi,sil1,nu,da,sil2,['-'],,,none,none,,,,lo,2,testConjL4Uns//cat_viol.r1.s1.0.wav,1.0,conjunction_un,unsyncopated,a,s1,no_rule,cat,L4,z,0.8226,5.0,0.0,0.9215,4.0,2.0,español,0.0,inglés,10.0,francés,14.0,alemán,16.0,4.0,2.0,no,no,no,nada,,20. Cuando escucho una melodía que me gusta mucho no puedo evitar mover el cuerpo.,1.0,"Me ha resultado muy difícil concentrarme en los lenguajes sin contar con otras fuentes de información que suelen estar disponibles cuando oímos un idioma extranjero, como el lenguaje verbal, los gestos, la entonación, etc.Los 4 fragmentos se me han hecho larguísimos",28.0,yes
20,2024-06-03_20h25.18.445,Experiment4_uns,s196,34.0,feminino,right,España,Español,Master degree,no,no,A,1,conjunction_un,L4,unsyncopated,s1,r2,20,Online_conjL4_un//a.zi.lo31.none.none.wav,ja,ru,da,sil,nu,bu,ci,sil1,pe,re,sil2,['-'],,,none,none,,,,lo,2,testConjL4Uns//dep_viol.r2.s1.0.wav,1.0,conjunction_un,unsyncopated,b,s1,no_rule,dep,L4,z,0.8855,5.0,0.0,2.6171,4.0,2.0,español,0.0,inglés,10.0,francés,14.0,alemán,16.0,4.0,2.0,no,no,no,nada,,,,"Me ha resultado muy difícil concentrarme en los lenguajes sin contar con otras fuentes de información que suelen estar disponibles cuando oímos un idioma extranjero, como el lenguaje verbal, los gestos, la entonación, etc.Los 4 fragmentos se me han hecho larguísimos",28.0,yes
21,2024-06-03_20h25.18.445,Experiment4_uns,s196,34.0,feminino,right,España,Español,Master degree,no,no,A,1,conjunction_un,L4,unsyncopated,s1,r1,21,Online_conjL4_un//a.zi.lo30.0.888.wav,zi,ci,bu,sil,lo,ru,da,sil1,ñi,de,sil2,['miss'],,,0.888,beat,,,,lo,2,testConjL4Uns//cat_viol.r2.s2.0.wav,1.0,conjunction_un,unsyncopated,b,s2,no_rule,cat,L4,z,2.3652,4.0,0.0,1.419,4.0,2.0,español,0.0,inglés,10.0,francés,14.0,alemán,16.0,4.0,2.0,no,no,no,nada,,,,"Me ha resultado muy difícil concentrarme en los lenguajes sin contar con otras fuentes de información que suelen estar disponibles cuando oímos un idioma extranjero, como el lenguaje verbal, los gestos, la entonación, etc.Los 4 fragmentos se me han hecho larguísimos",28.0,yes
22,2024-06-03_20h25.18.445,Experiment4_uns,s196,34.0,feminino,right,España,Español,Master degree,no,no,A,1,conjunction_un,L4,unsyncopated,s1,r2,22,Online_conjL4_un//a.zi.lo29.none.none.wav,ja,ci,pe,sil,nu,ru,po,sil1,ñi,da,sil2,['-'],,,none,none,,,,lo,2,testConjL4Uns//cat_viol.r1.s2.0.wav,1.0,conjunction_un,unsyncopated,a,s2,no_rule,cat,L4,m,3.9983,2.0,1.0,1.1213,4.0,2.0,español,0.0,inglés,10.0,francés,14.0,alemán,16.0,4.0,2.0,no,no,no,nada,,,,"Me ha resultado muy difícil concentrarme en los lenguajes sin contar con otras fuentes de información que suelen estar disponibles cuando oímos un idioma extranjero, como el lenguaje verbal, los gestos, la entonación, etc.Los 4 fragmentos se me han hecho larguísimos",28.0,yes
23,2024-06-03_20h25.18.445,Experiment4_uns,s196,34.0,feminino,right,España,Español,Master degree,no,no,A,1,conjunction_un,L4,unsyncopated,s1,r1,23,Online_conjL4_un//a.zi.lo28.0.888.wav,zi,da,bo,sil,lo,ña,po,sil1,de,pe,sil2,['catch'],[1.3777999999821304],[1.3777999999821304],0.888,beat,0.4897999999821304,0.4897999999821304,"[""space""]",lo,2,testConjL4Uns//r1.s1.0.wav,1.0,conjunction_un,unsyncopated,a,s1,rule,rule,L4,m,1.2381,1.0,0.0,1.6309,4.0,2.0,español,0.0,inglés,10.0,francés,14.0,alemán,16.0,4.0,2.0,no,no,no,nada,,,,"Me ha resultado muy difícil concentrarme en los lenguajes sin contar con otras fuentes de información que suelen estar disponibles cuando oímos un idioma extranjero, como el lenguaje verbal, los gestos, la entonación, etc.Los 4 fragmentos se me han hecho larguísimos",28.0,yes
24,2024-06-03_20h25.18.445,Experiment4_uns,s196,34.0,feminino,right,España,Español,Master degree,no,no,A,1,conjunction_un,L4,unsyncopated,s2,r2,24,Online_conjL4_un//d.pe.po10.1332.444.wav,re,ñi,po,sil,ja,bu,pe,sil1,nu,ru,sil2,['catch'],[1.9913000000118473],[1.9913000000118473],1.332,no_beat,0.6593000000118472,0.6593000000118472,"[""space""]",pe,4,testWhatL1Uns//dep_viol.r2.s1.0.wav,2.0,what,unsyncopated,b,s1,no_rule,dep,L1,z,0.754,7.0,0.0,1.1501,4.0,2.0,español,0.0,inglés,10.0,francés,14.0,alemán,16.0,4.0,2.0,no,no,no,nada,,,,"Me ha resultado muy difícil concentrarme en los lenguajes sin contar con otras fuentes de información que suelen estar disponibles cuando oímos un idioma extranjero, como el lenguaje verbal, los gestos, la entonación, etc.Los 4 fragmentos se me han hecho larguísimos",28.0,yes
25,2024-06-03_20h25.18.445,Experiment4_uns,s196,34.0,feminino,right,España,Español,Master degree,no,no,A,1,conjunction_un,L4,unsyncopated,s2,r1,25,Online_conjL4_un//d.pe.po8.none.none.wav,ña,re,ci,sil,zi,ru,ñi,sil1,lo,de,sil2,['-'],,,none,none,,,,pe,4,testWhatL1Uns//r2.s2.2.wav,2.0,what,unsyncopated,b,s2,rule,rule,L1,z,1.0152,6.0,1.0,0.6188,4.0,2.0,español,0.0,inglés,10.0,francés,14.0,alemán,16.0,4.0,2.0,no,no,no,nada,,,,"Me ha resultado muy difícil concentrarme en los lenguajes sin contar con otras fuentes de información que suelen estar disponibles cuando oímos un idioma extranjero, como el lenguaje verbal, los gestos, la entonación, etc.Los 4 fragmentos se me han hecho larguísimos",28.0,yes
26,2024-06-03_20h25.18.445,Experiment4_uns,s196,34.0,feminino,right,España,Español,Master degree,no,no,A,1,conjunction_un,L4,unsyncopated,s1,r1,26,Online_conjL4_un//d.pe.po9.222.1110.wav,zi,pe,bo,sil,lo,po,de,sil1,ru,re,sil2,['catch'],[0.8117000000178223],[0.8117000000178223],0.222,no_beat,0.5897000000178223,0.5897000000178223,"[""space""]",pe,4,testWhatL1Uns//r2.s1.2.wav,2.0,what,unsyncopated,b,s1,rule,rule,L1,z,2.3469,4.0,1.0,0.9194,4.0,2.0,español,0.0,inglés,10.0,francés,14.0,alemán,16.0,4.0,2.0,no,no,no,nada,,,,"Me ha resultado muy difícil concentrarme en los lenguajes sin contar con otras fuentes de información que suelen estar disponibles cuando oímos un idioma extranjero, como el lenguaje verbal, los gestos, la entonación, etc.Los 4 fragmentos se me han hecho larguísimos",28.0,yes
27,2024-06-03_20h25.18.445,Experiment4_uns,s196,34.0,feminino,right,España,Español,Master degree,no,no,A,1,conjunction_un,L4,unsyncopated,s2,r1,27,Online_conjL4_un//d.pe.po11.1110.222.wav,bo,po,da,sil,zi,pe,de,sil1,lo,ñi,sil2,['catch'],[1.4749000000059596],[1.4749000000059596],1.11,no_beat,0.3649000000059594,0.3649000000059594,"[""space""]",pe,4,testWhatL1Uns//cat_viol.r2.s1.0.wav,2.0,what,unsyncopated,b,s1,no_rule,cat,L1,m,1.7989,2.0,1.0,1.7339,4.0,2.0,español,0.0,inglés,10.0,francés,14.0,alemán,16.0,4.0,2.0,no,no,no,nada,,,,"Me ha resultado muy difícil concentrarme en los lenguajes sin contar con otras fuentes de información que suelen estar disponibles cuando oímos un idioma extranjero, como el lenguaje verbal, los gestos, la entonación, etc.Los 4 fragmentos se me han hecho larguísimos",28.0,yes
28,2024-06-03_20h25.18.445,Experiment4_uns,s196,34.0,feminino,right,España,Español,Master degree,no,no,A,1,conjunction_un,L4,unsyncopated,s1,r2,28,Online_conjL4_un//b.ja.nu20.0.888.wav,ja,de,ñi,sil,nu,re,bo,sil1,da,po,sil2,['catch'],[0.7725999999940996],[0.7725999999940996],0.0,beat,0.7725999999940996,0.7725999999940996,"[""space""]",ja,1,testWhatL1Uns//r1.s2.1.wav,2.0,what,unsyncopated,a,s2,rule,rule,L1,z,1.0021,6.0,1.0,0.7824,4.0,2.0,español,0.0,inglés,10.0,francés,14.0,alemán,16.0,4.0,2.0,no,no,no,nada,,,,"Me ha resultado muy difícil concentrarme en los lenguajes sin contar con otras fuentes de información que suelen estar disponibles cuando oímos un idioma extranjero, como el lenguaje verbal, los gestos, la entonación, etc.Los 4 fragmentos se me han hecho larguísimos",28.0,yes
29,2024-06-03_20h25.18.445,Experiment4_uns,s196,34.0,feminino,right,España,Español,Master degree,no,no,A,1,conjunction_un,L4,unsyncopated,s1,r1,29,Online_conjL4_un//b.ja.nu22.none.none.wav,zi,ña,ci,sil,lo,bu,da,sil1,de,po,sil2,['-'],,,none,none,,,,ja,1,testWhatL1Uns//r2.s1.0.wav,2.0,what,unsyncopated,b,s1,rule,rule,L1,z,0.7687,7.0,1.0,0.7407,4.0,2.0,español,0.0,inglés,10.0,francés,14.0,alemán,16.0,4.0,2.0,no,no,no,nada,,,,"Me ha resultado muy difícil concentrarme en los lenguajes sin contar con otras fuentes de información que suelen estar disponibles cuando oímos un idioma extranjero, como el lenguaje verbal, los gestos, la entonación, etc.Los 4 fragmentos se me han hecho larguísimos",28.0,yes
30,2024-06-03_20h25.18.445,Experiment4_uns,s196,34.0,feminino,right,España,Español,Master degree,no,no,A,1,conjunction_un,L4,unsyncopated,s2,r2,30,Online_conjL4_un//b.ja.nu23.888.1776.wav,ci,ña,po,sil,ja,bu,ñi,sil1,nu,pe,sil2,['catch'],[1.404299999982186],[1.404299999982186],0.888,beat,0.5162999999821859,0.5162999999821859,"[""space""]",ja,1,testWhatL1Uns//time_viol.r2.s2.0.wav,2.0,what,unsyncopated,b,s2,no_rule,time,L1,z,0.9663,5.0,0.0,1.0954,4.0,2.0,español,0.0,inglés,10.0,francés,14.0,alemán,16.0,4.0,2.0,no,no,no,nada,,,,"Me ha resultado muy difícil concentrarme en los lenguajes sin contar con otras fuentes de información que suelen estar disponibles cuando oímos un idioma extranjero, como el lenguaje verbal, los gestos, la entonación, etc.Los 4 fragmentos se me han hecho larguísimos",28.0,yes
31,2024-06-03_20h25.18.445,Experiment4_uns,s196,34.0,feminino,right,España,Español,Master degree,no,no,A,1,conjunction_un,L4,unsyncopated,s1,r2,31,Online_conjL4_un//b.ja.nu21.0.888.wav,ja,re,ru,sil,nu,bo,pe,sil1,bu,ña,sil2,['catch'],[0.5577000000178032],[0.5577000000178032],0.0,beat,0.5577000000178032,0.5577000000178032,"[""space""]",ja,1,testWhatL1Uns//r1.s1.1.wav,2.0,what,unsyncopated,a,s1,rule,rule,L1,m,2.8689,1.0,0.0,0.8507,4.0,2.0,español,0.0,inglés,10.0,francés,14.0,alemán,16.0,4.0,2.0,no,no,no,nada,,,,"Me ha resultado muy difícil concentrarme en los lenguajes sin contar con otras fuentes de información que suelen estar disponibles cuando oímos un idioma extranjero, como el lenguaje verbal, los gestos, la entonación, etc.Los 4 fragmentos se me han hecho larguísimos",28.0,yes
32,2024-06-03_20h25.18.445,Experiment4_uns,s196,34.0,feminino,right,España,Español,Master degree,no,no,A,1,conjunction_un,L4,unsyncopated,s2,r2,32,Online_conjL4_un//a.zi.lo23.none.none.wav,ñi,bo,po,sil,ja,da,ña,sil1,nu,re,sil2,['-'],,,none,none,,,,lo,2,testWhatL1Uns//dep_viol.r1.s1.0.wav,2.0,what,unsyncopated,a,s1,no_rule,dep,L1,z,0.7378,6.0,0.0,1.3694,4.0,2.0,español,0.0,inglés,10.0,francés,14.0,alemán,16.0,4.0,2.0,no,no,no,nada,,,,"Me ha resultado muy difícil concentrarme en los lenguajes sin contar con otras fuentes de información que suelen estar disponibles cuando oímos un idioma extranjero, como el lenguaje verbal, los gestos, la entonación, etc.Los 4 fragmentos se me han hecho larguísimos",28.0,yes
33,2024-06-03_20h25.18.445,Experiment4_uns,s196,34.0,feminino,right,España,Español,Master degree,no,no,A,1,conjunction_un,L4,unsyncopated,s2,r1,33,Online_conjL4_un//a.zi.lo22.888.1776.wav,bu,ñi,pe,sil,zi,bo,ci,sil1,lo,ru,sil2,['catch'],[2.273499999999899],[2.273499999999899],1.776,beat,0.497499999999899,0.497499999999899,"[""space""]",lo,2,testWhatL1Uns//r2.s1.1.wav,2.0,what,unsyncopated,b,s1,rule,rule,L1,z,2.7326,4.0,1.0,0.567,4.0,2.0,español,0.0,inglés,10.0,francés,14.0,alemán,16.0,4.0,2.0,no,no,no,nada,,,,"Me ha resultado muy difícil concentrarme en los lenguajes sin contar con otras fuentes de información que suelen estar disponibles cuando oímos un idioma extranjero, como el lenguaje verbal, los gestos, la entonación, etc.Los 4 fragmentos se me han hecho larguísimos",28.0,yes
34,2024-06-03_20h25.18.445,Experiment4_uns,s196,34.0,feminino,right,España,Español,Master degree,no,no,A,1,conjunction_un,L4,unsyncopated,s2,r1,34,Online_conjL4_un//a.zi.lo21.888.1776.wav,ci,da,de,sil,zi,bu,po,sil1,lo,re,sil2,['catch'],[2.289199999988],[2.289199999988],1.776,beat,0.5131999999879999,0.5131999999879999,"[""space""]",lo,2,testWhatL1Uns//cat_viol.r1.s1.0.wav,2.0,what,unsyncopated,a,s1,no_rule,cat,L1,m,1.6515,1.0,1.0,0.8682,4.0,2.0,español,0.0,inglés,10.0,francés,14.0,alemán,16.0,4.0,2.0,no,no,no,nada,,,,"Me ha resultado muy difícil concentrarme en los lenguajes sin contar con otras fuentes de información que suelen estar disponibles cuando oímos un idioma extranjero, como el lenguaje verbal, los gestos, la entonación, etc.Los 4 fragmentos se me han hecho larguísimos",28.0,yes
35,2024-06-03_20h25.18.445,Experiment4_uns,s196,34.0,feminino,right,España,Español,Master degree,no,no,A,1,conjunction_un,L4,unsyncopated,s1,r2,35,Online_conjL4_un//a.zi.lo20.none.none.wav,ja,da,ñi,sil,nu,ña,ci,sil1,re,ru,sil2,['-'],,,none,none,,,,lo,2,testWhatL1Uns//r1.s1.2.wav,2.0,what,unsyncopated,a,s1,rule,rule,L1,z,0.9016,4.0,1.0,0.6028,4.0,2.0,español,0.0,inglés,10.0,francés,14.0,alemán,16.0,4.0,2.0,no,no,no,nada,,,,"Me ha resultado muy difícil concentrarme en los lenguajes sin contar con otras fuentes de información que suelen estar disponibles cuando oímos un idioma extranjero, como el lenguaje verbal, los gestos, la entonación, etc.Los 4 fragmentos se me han hecho larguísimos",28.0,yes
36,2024-06-03_20h25.18.445,Experiment4_uns,s196,34.0,feminino,right,España,Español,Master degree,no,no,A,1,conjunction_un,L4,unsyncopated,s1,r2,36,Online_conjL4_un//b.ja.nu17.0.888.wav,ja,da,ru,sil,nu,ña,ci,sil1,po,re,sil2,['catch'],[0.7397000000179332],[0.7397000000179332],0.0,beat,0.7397000000179332,0.7397000000179332,"[""space""]",ja,1,testWhatL1Uns//r2.s2.0.wav,2.0,what,unsyncopated,b,s2,rule,rule,L1,z,3.2845,3.0,1.0,0.6694,4.0,2.0,español,0.0,inglés,10.0,francés,14.0,alemán,16.0,4.0,2.0,no,no,no,nada,,,,"Me ha resultado muy difícil concentrarme en los lenguajes sin contar con otras fuentes de información que suelen estar disponibles cuando oímos un idioma extranjero, como el lenguaje verbal, los gestos, la entonación, etc.Los 4 fragmentos se me han hecho larguísimos",28.0,yes
37,2024-06-03_20h25.18.445,Experiment4_uns,s196,34.0,feminino,right,España,Español,Master degree,no,no,A,1,conjunction_un,L4,unsyncopated,s2,r1,37,Online_conjL4_un//b.ja.nu18.none.none.wav,re,ci,bu,sil,zi,ñi,ña,sil1,lo,pe,sil2,['-'],,,none,none,,,,ja,1,testWhatL1Uns//dep_viol.r2.s2.0.wav,2.0,what,unsyncopated,b,s2,no_rule,dep,L1,m,0.6011,1.0,1.0,0.6345,4.0,2.0,español,0.0,inglés,10.0,francés,14.0,alemán,16.0,4.0,2.0,no,no,no,nada,,,,"Me ha resultado muy difícil concentrarme en los lenguajes sin contar con otras fuentes de información que suelen estar disponibles cuando oímos un idioma extranjero, como el lenguaje verbal, los gestos, la entonación, etc.Los 4 fragmentos se me han hecho larguísimos",28.0,yes
38,2024-06-03_20h25.18.445,Experiment4_uns,s196,34.0,feminino,right,España,Español,Master degree,no,no,A,1,conjunction_un,L4,unsyncopated,s1,r2,38,Online_conjL4_un//b.ja.nu16.0.888.wav,ja,da,po,sil,nu,ru,bu,sil1,ci,de,sil2,['catch'],[0.5061999999880982],[0.5061999999880982],0.0,beat,0.5061999999880982,0.5061999999880982,"[""space""]",ja,1,testWhatL1Uns//r2.s2.1.wav,2.0,what,unsyncopated,b,s2,rule,rule,L1,z,1.385,4.0,1.0,1.9482,4.0,2.0,español,0.0,inglés,10.0,francés,14.0,alemán,16.0,4.0,2.0,no,no,no,nada,,,,"Me ha resultado muy difícil concentrarme en los lenguajes sin contar con otras fuentes de información que suelen estar disponibles cuando oímos un idioma extranjero, como el lenguaje verbal, los gestos, la entonación, etc.Los 4 fragmentos se me han hecho larguísimos",28.0,yes
39,2024-06-03_20h25.18.445,Experiment4_uns,s196,34.0,feminino,right,España,Español,Master degree,no,no,A,1,conjunction_un,L4,unsyncopated,s1,r1,39,Online_conjL4_un//b.ja.nu19.none.none.wav,zi,ña,pe,sil,lo,bu,ñi,sil1,da,ru,sil2,['-'],,,none,none,,,,ja,1,testWhatL1Uns//time_viol.r1.s2.0.wav,2.0,what,unsyncopated,a,s2,no_rule,time,L1,m,0.9375,1.0,1.0,1.2344,4.0,2.0,español,0.0,inglés,10.0,francés,14.0,alemán,16.0,4.0,2.0,no,no,no,nada,,,,"Me ha resultado muy difícil concentrarme en los lenguajes sin contar con otras fuentes de información que suelen estar disponibles cuando oímos un idioma extranjero, como el lenguaje verbal, los gestos, la entonación, etc.Los 4 fragmentos se me han hecho larguísimos",28.0,yes
40,2024-06-03_20h25.18.445,Experiment4_uns,s196,34.0,feminino,right,España,Español,Master degree,no,no,A,1,conjunction_un,L4,unsyncopated,s1,r2,40,Online_conjL4_un//d.pe.po18.none.none.wav,ja,ña,ñi,sil,nu,de,ru,sil1,da,bo,sil2,['false alarm'],[0.6656999999880782],[0.6656999999880782],none,none,,,"[""space""]",pe,4,testWhatL1Uns//r1.s1.0.wav,2.0,what,unsyncopated,a,s1,rule,rule,L1,z,1.9659,2.0,1.0,0.6983,4.0,2.0,español,0.0,inglés,10.0,francés,14.0,alemán,16.0,4.0,2.0,no,no,no,nada,,,,"Me ha resultado muy difícil concentrarme en los lenguajes sin contar con otras fuentes de información que suelen estar disponibles cuando oímos un idioma extranjero, como el lenguaje verbal, los gestos, la entonación, etc.Los 4 fragmentos se me han hecho larguísimos",28.0,yes
41,2024-06-03_20h25.18.445,Experiment4_uns,s196,34.0,feminino,right,España,Español,Master degree,no,no,A,1,conjunction_un,L4,unsyncopated,s2,r2,41,Online_conjL4_un//d.pe.po17.222.444.wav,re,pe,po,sil,ja,ci,ña,sil1,nu,bo,sil2,['catch'],[0.7304000000059432],[0.7304000000059432],0.222,no_beat,0.5084000000059432,0.5084000000059432,"[""space""]",pe,4,testWhatL1Uns//dep_viol.r1.s2.0.wav,2.0,what,unsyncopated,a,s2,no_rule,dep,L1,z,3.2831,1.0,0.0,0.7919,4.0,2.0,español,0.0,inglés,10.0,francés,14.0,alemán,16.0,4.0,2.0,no,no,no,nada,,,,"Me ha resultado muy difícil concentrarme en los lenguajes sin contar con otras fuentes de información que suelen estar disponibles cuando oímos un idioma extranjero, como el lenguaje verbal, los gestos, la entonación, etc.Los 4 fragmentos se me han hecho larguísimos",28.0,yes
42,2024-06-03_20h25.18.445,Experiment4_uns,s196,34.0,feminino,right,España,Español,Master degree,no,no,A,1,conjunction_un,L4,unsyncopated,s1,r1,42,Online_conjL4_un//d.pe.po19.none.none.wav,zi,da,ña,sil,lo,bo,bu,sil1,ñi,re,sil2,['-'],,,none,none,,,,pe,4,testWhatL1Uns//time_viol.r1.s1.0.wav,2.0,what,unsyncopated,a,s1,no_rule,time,L1,z,2.0976,1.0,0.0,0.5692,4.0,2.0,español,0.0,inglés,10.0,francés,14.0,alemán,16.0,4.0,2.0,no,no,no,nada,,,,"Me ha resultado muy difícil concentrarme en los lenguajes sin contar con otras fuentes de información que suelen estar disponibles cuando oímos un idioma extranjero, como el lenguaje verbal, los gestos, la entonación, etc.Los 4 fragmentos se me han hecho larguísimos",28.0,yes
43,2024-06-03_20h25.18.445,Experiment4_uns,s196,34.0,feminino,right,España,Español,Master degree,no,no,A,1,conjunction_un,L4,unsyncopated,s1,r2,43,Online_conjL4_un//d.pe.po16.1776.444.wav,ja,re,po,sil,nu,da,bu,sil1,pe,bo,sil2,['false alarm'],[1.5210999999940213],[1.5210999999940213],1.776,beat,,,"[""space""]",pe,4,testWhatL1Uns//cat_viol.r1.s2.0.wav,2.0,what,unsyncopated,a,s2,no_rule,cat,L1,m,2.0011,1.0,1.0,0.5368,4.0,2.0,español,0.0,inglés,10.0,francés,14.0,alemán,16.0,4.0,2.0,no,no,no,nada,,,,"Me ha resultado muy difícil concentrarme en los lenguajes sin contar con otras fuentes de información que suelen estar disponibles cuando oímos un idioma extranjero, como el lenguaje verbal, los gestos, la entonación, etc.Los 4 fragmentos se me han hecho larguísimos",28.0,yes
44,2024-06-03_20h25.18.445,Experiment4_uns,s196,34.0,feminino,right,España,Español,Master degree,no,no,A,1,conjunction_un,L4,unsyncopated,s2,r1,44,Online_conjL4_un//c.bu.da19.none.none.wav,ña,ru,pe,sil,zi,re,ñi,sil1,lo,de,sil2,['-'],,,none,none,,,,bu,3,testWhatL1Uns//time_viol.r2.s1.0.wav,2.0,what,unsyncopated,b,s1,no_rule,time,L1,m,2.2675,1.0,1.0,1.0511,4.0,2.0,español,0.0,inglés,10.0,francés,14.0,alemán,16.0,4.0,2.0,no,no,no,nada,,,,"Me ha resultado muy difícil concentrarme en los lenguajes sin contar con otras fuentes de información que suelen estar disponibles cuando oímos un idioma extranjero, como el lenguaje verbal, los gestos, la entonación, etc.Los 4 fragmentos se me han hecho larguísimos",28.0,yes
45,2024-06-03_20h25.18.445,Experiment4_uns,s196,34.0,feminino,right,España,Español,Master degree,no,no,A,1,conjunction_un,L4,unsyncopated,s1,r2,45,Online_conjL4_un//c.bu.da18.1110.222.wav,ja,da,re,sil,nu,bu,ru,sil1,bo,pe,sil2,['catch'],[1.6780999999940605],[1.6780999999940605],1.11,no_beat,0.5680999999940604,0.5680999999940604,"[""space""]",bu,3,testWhatL1Uns//cat_viol.r2.s2.0.wav,2.0,what,unsyncopated,b,s2,no_rule,cat,L1,m,0.7023,1.0,1.0,0.6363,4.0,2.0,español,0.0,inglés,10.0,francés,14.0,alemán,16.0,4.0,2.0,no,no,no,nada,,,,"Me ha resultado muy difícil concentrarme en los lenguajes sin contar con otras fuentes de información que suelen estar disponibles cuando oímos un idioma extranjero, como el lenguaje verbal, los gestos, la entonación, etc.Los 4 fragmentos se me han hecho larguísimos",28.0,yes
46,2024-06-03_20h25.18.445,Experiment4_uns,s196,34.0,feminino,right,España,Español,Master degree,no,no,A,1,conjunction_un,L4,unsyncopated,s2,r1,46,Online_conjL4_un//c.bu.da17.none.none.wav,ru,de,re,sil,zi,ci,po,sil1,lo,pe,sil2,['-'],,,none,none,,,,bu,3,testWhatL1Uns//r1.s2.2.wav,2.0,what,unsyncopated,a,s2,rule,rule,L1,z,2.7824,2.0,1.0,0.7677,4.0,2.0,español,0.0,inglés,10.0,francés,14.0,alemán,16.0,4.0,2.0,no,no,no,nada,,,,"Me ha resultado muy difícil concentrarme en los lenguajes sin contar con otras fuentes de información que suelen estar disponibles cuando oímos un idioma extranjero, como el lenguaje verbal, los gestos, la entonación, etc.Los 4 fragmentos se me han hecho larguísimos",28.0,yes
47,2024-06-03_20h25.18.445,Experiment4_uns,s196,34.0,feminino,right,España,Español,Master degree,no,no,A,1,conjunction_un,L4,unsyncopated,s1,r2,47,Online_conjL4_un//c.bu.da16.none.none.wav,ja,de,ñi,sil,nu,pe,ru,sil1,re,ci,sil2,['-'],,,none,none,,,,bu,3,testWhatL1Uns//r1.s2.0.wav,2.0,what,unsyncopated,a,s2,rule,rule,L1,m,1.534,3.0,0.0,2.5335,4.0,2.0,español,0.0,inglés,10.0,francés,14.0,alemán,16.0,4.0,2.0,no,no,no,nada,,,,"Me ha resultado muy difícil concentrarme en los lenguajes sin contar con otras fuentes de información que suelen estar disponibles cuando oímos un idioma extranjero, como el lenguaje verbal, los gestos, la entonación, etc.Los 4 fragmentos se me han hecho larguísimos",28.0,yes
48,2024-06-03_20h25.18.445,Experiment4_uns,s196,34.0,feminino,right,España,Español,Master degree,no,no,A,1,conjunction_un,L4,unsyncopated,s1,r2,48,Online_conjL4_un//d.pe.po6.1110.222.wav,ja,po,de,sil,nu,pe,da,sil1,ru,bo,sil2,['miss'],,,1.11,no_beat,,,,pe,4,testConjL3Syn//r1.s2.1.wav,3.0,conjunction_syn,syncopated,a,s2,rule,rule,L3,z,1.3494,7.0,1.0,0.848,4.0,2.0,español,0.0,inglés,10.0,francés,14.0,alemán,16.0,4.0,2.0,no,no,no,nada,,,,"Me ha resultado muy difícil concentrarme en los lenguajes sin contar con otras fuentes de información que suelen estar disponibles cuando oímos un idioma extranjero, como el lenguaje verbal, los gestos, la entonación, etc.Los 4 fragmentos se me han hecho larguísimos",28.0,yes
49,2024-06-03_20h25.18.445,Experiment4_uns,s196,34.0,feminino,right,España,Español,Master degree,no,no,A,1,conjunction_un,L4,unsyncopated,s2,r1,49,Online_conjL4_un//d.pe.po4.0.1110.wav,pe,ru,da,sil,zi,po,ñi,sil1,lo,bu,sil2,['catch'],[0.5239000000059377],[0.5239000000059377],0.0,beat,0.5239000000059377,0.5239000000059377,"[""space""]",pe,4,testConjL3Syn//r1.s1.0.wav,3.0,conjunction_syn,syncopated,a,s1,rule,rule,L3,z,2.9003,5.0,1.0,1.1516,4.0,2.0,español,0.0,inglés,10.0,francés,14.0,alemán,16.0,4.0,2.0,no,no,no,nada,,,,"Me ha resultado muy difícil concentrarme en los lenguajes sin contar con otras fuentes de información que suelen estar disponibles cuando oímos un idioma extranjero, como el lenguaje verbal, los gestos, la entonación, etc.Los 4 fragmentos se me han hecho larguísimos",28.0,yes
50,2024-06-03_20h25.18.445,Experiment4_uns,s196,34.0,feminino,right,España,Español,Master degree,no,no,A,1,conjunction_un,L4,unsyncopated,s1,r1,50,Online_conjL4_un//d.pe.po5.none.none.wav,zi,de,re,sil,lo,ru,ci,sil1,bo,bu,sil2,['-'],,,none,none,,,,pe,4,testConjL3Syn//cat_viol.r1.s1.0.wav,3.0,conjunction_syn,syncopated,a,s1,no_rule,cat,L3,z,2.2431,2.0,0.0,0.6006,4.0,2.0,español,0.0,inglés,10.0,francés,14.0,alemán,16.0,4.0,2.0,no,no,no,nada,,,,"Me ha resultado muy difícil concentrarme en los lenguajes sin contar con otras fuentes de información que suelen estar disponibles cuando oímos un idioma extranjero, como el lenguaje verbal, los gestos, la entonación, etc.Los 4 fragmentos se me han hecho larguísimos",28.0,yes
51,2024-06-03_20h25.18.445,Experiment4_uns,s196,34.0,feminino,right,España,Español,Master degree,no,no,A,1,conjunction_un,L4,unsyncopated,s1,r1,51,Online_conjL4_un//d.pe.po7.1110.222.wav,zi,po,ña,sil,lo,pe,ru,sil1,da,re,sil2,['catch'],[1.8746999999881382],[1.8746999999881382],1.11,no_beat,0.7646999999881381,0.7646999999881381,"[""space""]",pe,4,testConjL3Syn//time_viol.r2.s1.0.wav,3.0,conjunction_syn,syncopated,b,s1,no_rule,time,L3,m,0.7501,5.0,1.0,1.8173,4.0,2.0,español,0.0,inglés,10.0,francés,14.0,alemán,16.0,4.0,2.0,no,no,no,nada,,,,"Me ha resultado muy difícil concentrarme en los lenguajes sin contar con otras fuentes de información que suelen estar disponibles cuando oímos un idioma extranjero, como el lenguaje verbal, los gestos, la entonación, etc.Los 4 fragmentos se me han hecho larguísimos",28.0,yes
52,2024-06-03_20h25.18.445,Experiment4_uns,s196,34.0,feminino,right,España,Español,Master degree,no,no,A,1,conjunction_un,L4,unsyncopated,s1,r1,52,Online_conjL4_un//d.pe.po3.none.none.wav,zi,ci,ñi,sil,lo,re,ru,sil1,bu,da,sil2,['-'],,,none,none,,,,pe,4,testConjL3Syn//dep_viol.r1.s1.0.wav,3.0,conjunction_syn,syncopated,a,s1,no_rule,dep,L3,m,3.2672,2.0,1.0,1.5185,4.0,2.0,español,0.0,inglés,10.0,francés,14.0,alemán,16.0,4.0,2.0,no,no,no,nada,,,,"Me ha resultado muy difícil concentrarme en los lenguajes sin contar con otras fuentes de información que suelen estar disponibles cuando oímos un idioma extranjero, como el lenguaje verbal, los gestos, la entonación, etc.Los 4 fragmentos se me han hecho larguísimos",28.0,yes
53,2024-06-03_20h25.18.445,Experiment4_uns,s196,34.0,feminino,right,España,Español,Master degree,no,no,A,1,conjunction_un,L4,unsyncopated,s1,r2,53,Online_conjL4_un//d.pe.po0.none.none.wav,ja,ci,ñi,sil,nu,ru,da,sil1,de,ña,sil2,['-'],,,none,none,,,,pe,4,testConjL3Syn//time_viol.r1.s2.0.wav,3.0,conjunction_syn,syncopated,a,s2,no_rule,time,L3,z,0.8477,5.0,0.0,1.0013,4.0,2.0,español,0.0,inglés,10.0,francés,14.0,alemán,16.0,4.0,2.0,no,no,no,nada,,,,"Me ha resultado muy difícil concentrarme en los lenguajes sin contar con otras fuentes de información que suelen estar disponibles cuando oímos un idioma extranjero, como el lenguaje verbal, los gestos, la entonación, etc.Los 4 fragmentos se me han hecho larguísimos",28.0,yes
54,2024-06-03_20h25.18.445,Experiment4_uns,s196,34.0,feminino,right,España,Español,Master degree,no,no,A,1,conjunction_un,L4,unsyncopated,s2,r2,54,Online_conjL4_un//d.pe.po1.444.0.wav,po,bu,pe,sil,ja,ñi,ña,sil1,nu,ru,sil2,['catch'],[1.1438000000119928],[1.1438000000119928],0.444,no_beat,0.6998000000119928,0.6998000000119928,"[""space""]",pe,4,testConjL3Syn//r1.s1.1.wav,3.0,conjunction_syn,syncopated,a,s1,rule,rule,L3,z,2.1655,5.0,1.0,1.1501,4.0,2.0,español,0.0,inglés,10.0,francés,14.0,alemán,16.0,4.0,2.0,no,no,no,nada,,,,"Me ha resultado muy difícil concentrarme en los lenguajes sin contar con otras fuentes de información que suelen estar disponibles cuando oímos un idioma extranjero, como el lenguaje verbal, los gestos, la entonación, etc.Los 4 fragmentos se me han hecho larguísimos",28.0,yes
55,2024-06-03_20h25.18.445,Experiment4_uns,s196,34.0,feminino,right,España,Español,Master degree,no,no,A,1,conjunction_un,L4,unsyncopated,s1,r2,55,Online_conjL4_un//d.pe.po2.none.none.wav,ja,ña,ru,sil,nu,bu,de,sil1,ci,re,sil2,['-'],,,none,none,,,,pe,4,testConjL3Syn//r2.s2.1.wav,3.0,conjunction_syn,syncopated,b,s2,rule,rule,L3,z,0.919,6.0,1.0,1.1514,4.0,2.0,español,0.0,inglés,10.0,francés,14.0,alemán,16.0,4.0,2.0,no,no,no,nada,,,,"Me ha resultado muy difícil concentrarme en los lenguajes sin contar con otras fuentes de información que suelen estar disponibles cuando oímos un idioma extranjero, como el lenguaje verbal, los gestos, la entonación, etc.Los 4 fragmentos se me han hecho larguísimos",28.0,yes
56,2024-06-03_20h25.18.445,Experiment4_uns,s196,34.0,feminino,right,España,Español,Master degree,no,no,A,1,conjunction_un,L4,unsyncopated,s1,r1,56,Online_conjL4_un//c.bu.da1.none.none.wav,zi,bo,po,sil,lo,re,ci,sil1,ñi,pe,sil2,['-'],,,none,none,,,,bu,3,testConjL3Syn//r1.s1.2.wav,3.0,conjunction_syn,syncopated,a,s1,rule,rule,L3,m,3.5174,1.0,0.0,0.7001,4.0,2.0,español,0.0,inglés,10.0,francés,14.0,alemán,16.0,4.0,2.0,no,no,no,nada,,,,"Me ha resultado muy difícil concentrarme en los lenguajes sin contar con otras fuentes de información que suelen estar disponibles cuando oímos un idioma extranjero, como el lenguaje verbal, los gestos, la entonación, etc.Los 4 fragmentos se me han hecho larguísimos",28.0,yes
57,2024-06-03_20h25.18.445,Experiment4_uns,s196,34.0,feminino,right,España,Español,Master degree,no,no,A,1,conjunction_un,L4,unsyncopated,s2,r2,57,Online_conjL4_un//c.bu.da3.444.1110.wav,po,pe,bu,sil,ja,da,ci,sil1,nu,de,sil2,['catch'],[1.0052999999820713],[1.0052999999820713],0.444,no_beat,0.5612999999820714,0.5612999999820714,"[""space""]",bu,3,testConjL3Syn//dep_viol.r1.s2.0.wav,3.0,conjunction_syn,syncopated,a,s2,no_rule,dep,L3,m,2.7668,2.0,1.0,0.8028,4.0,2.0,español,0.0,inglés,10.0,francés,14.0,alemán,16.0,4.0,2.0,no,no,no,nada,,,,"Me ha resultado muy difícil concentrarme en los lenguajes sin contar con otras fuentes de información que suelen estar disponibles cuando oímos un idioma extranjero, como el lenguaje verbal, los gestos, la entonación, etc.Los 4 fragmentos se me han hecho larguísimos",28.0,yes
58,2024-06-03_20h25.18.445,Experiment4_uns,s196,34.0,feminino,right,España,Español,Master degree,no,no,A,1,conjunction_un,L4,unsyncopated,s1,r1,58,Online_conjL4_un//c.bu.da0.none.none.wav,zi,ña,ru,sil,lo,re,ñi,sil1,bo,ci,sil2,['-'],,,none,none,,,,bu,3,testConjL3Syn//time_viol.r2.s2.0.wav,3.0,conjunction_syn,syncopated,b,s2,no_rule,time,L3,z,0.734,3.0,0.0,0.8185,4.0,2.0,español,0.0,inglés,10.0,francés,14.0,alemán,16.0,4.0,2.0,no,no,no,nada,,,,"Me ha resultado muy difícil concentrarme en los lenguajes sin contar con otras fuentes de información que suelen estar disponibles cuando oímos un idioma extranjero, como el lenguaje verbal, los gestos, la entonación, etc.Los 4 fragmentos se me han hecho larguísimos",28.0,yes
59,2024-06-03_20h25.18.445,Experiment4_uns,s196,34.0,feminino,right,España,Español,Master degree,no,no,A,1,conjunction_un,L4,unsyncopated,s1,r1,59,Online_conjL4_un//c.bu.da2.none.none.wav,zi,pe,ci,sil,lo,de,ña,sil1,ñi,re,sil2,['-'],,,none,none,,,,bu,3,testConjL3Syn//r2.s2.2.wav,3.0,conjunction_syn,syncopated,b,s2,rule,rule,L3,m,2.2526,1.0,0.0,1.0753,4.0,2.0,español,0.0,inglés,10.0,francés,14.0,alemán,16.0,4.0,2.0,no,no,no,nada,,,,"Me ha resultado muy difícil concentrarme en los lenguajes sin contar con otras fuentes de información que suelen estar disponibles cuando oímos un idioma extranjero, como el lenguaje verbal, los gestos, la entonación, etc.Los 4 fragmentos se me han hecho larguísimos",28.0,yes
60,2024-06-03_20h25.18.445,Experiment4_uns,s196,34.0,feminino,right,España,Español,Master degree,no,no,A,1,conjunction_un,L4,unsyncopated,s2,r2,60,Online_conjL4_un//d.pe.po23.none.none.wav,ru,ñi,re,sil,ja,de,bu,sil1,nu,ci,sil2,['-'],,,none,none,,,,pe,4,testConjL3Syn//r1.s2.2.wav,3.0,conjunction_syn,syncopated,a,s2,rule,rule,L3,m,2.3692,1.0,0.0,0.5685,4.0,2.0,español,0.0,inglés,10.0,francés,14.0,alemán,16.0,4.0,2.0,no,no,no,nada,,,,"Me ha resultado muy difícil concentrarme en los lenguajes sin contar con otras fuentes de información que suelen estar disponibles cuando oímos un idioma extranjero, como el lenguaje verbal, los gestos, la entonación, etc.Los 4 fragmentos se me han hecho larguísimos",28.0,yes
61,2024-06-03_20h25.18.445,Experiment4_uns,s196,34.0,feminino,right,España,Español,Master degree,no,no,A,1,conjunction_un,L4,unsyncopated,s2,r1,61,Online_conjL4_un//d.pe.po22.none.none.wav,ñi,bu,de,sil,zi,bo,ña,sil1,lo,ci,sil2,['-'],,,none,none,,,,pe,4,testConjL3Syn//dep_viol.r2.s2.0.wav,3.0,conjunction_syn,syncopated,b,s2,no_rule,dep,L3,m,2.9656,1.0,1.0,0.4863,4.0,2.0,español,0.0,inglés,10.0,francés,14.0,alemán,16.0,4.0,2.0,no,no,no,nada,,,,"Me ha resultado muy difícil concentrarme en los lenguajes sin contar con otras fuentes de información que suelen estar disponibles cuando oímos un idioma extranjero, como el lenguaje verbal, los gestos, la entonación, etc.Los 4 fragmentos se me han hecho larguísimos",28.0,yes
62,2024-06-03_20h25.18.445,Experiment4_uns,s196,34.0,feminino,right,España,Español,Master degree,no,no,A,1,conjunction_un,L4,unsyncopated,s2,r2,62,Online_conjL4_un//d.pe.po20.444.0.wav,po,bu,pe,sil,ja,ñi,ru,sil1,nu,bo,sil2,['catch'],[1.074299999982145],[1.074299999982145],0.444,no_beat,0.630299999982145,0.630299999982145,"[""space""]",pe,4,testConjL3Syn//r2.s1.0.wav,3.0,conjunction_syn,syncopated,b,s1,rule,rule,L3,m,2.2512,1.0,0.0,0.9682,4.0,2.0,español,0.0,inglés,10.0,francés,14.0,alemán,16.0,4.0,2.0,no,no,no,nada,,,,"Me ha resultado muy difícil concentrarme en los lenguajes sin contar con otras fuentes de información que suelen estar disponibles cuando oímos un idioma extranjero, como el lenguaje verbal, los gestos, la entonación, etc.Los 4 fragmentos se me han hecho larguísimos",28.0,yes
63,2024-06-03_20h25.18.445,Experiment4_uns,s196,34.0,feminino,right,España,Español,Master degree,no,no,A,1,conjunction_un,L4,unsyncopated,s2,r1,63,Online_conjL4_un//d.pe.po21.1110.0.wav,po,da,ña,sil,zi,pe,ci,sil1,lo,bu,sil2,['catch'],[1.6238000000118973],[1.6238000000118973],1.11,no_beat,0.5138000000118972,0.5138000000118972,"[""space""]",pe,4,testConjL3Syn//cat_viol.r1.s2.0.wav,3.0,conjunction_syn,syncopated,a,s2,no_rule,cat,L3,z,3.0322,2.0,0.0,0.6356,4.0,2.0,español,0.0,inglés,10.0,francés,14.0,alemán,16.0,4.0,2.0,no,no,no,nada,,,,"Me ha resultado muy difícil concentrarme en los lenguajes sin contar con otras fuentes de información que suelen estar disponibles cuando oímos un idioma extranjero, como el lenguaje verbal, los gestos, la entonación, etc.Los 4 fragmentos se me han hecho larguísimos",28.0,yes
64,2024-06-03_20h25.18.445,Experiment4_uns,s196,34.0,feminino,right,España,Español,Master degree,no,no,A,1,conjunction_un,L4,unsyncopated,s2,r1,64,Online_conjL4_un//a.zi.lo24.888.1776.wav,re,bo,po,sil,zi,da,ñi,sil1,lo,pe,sil2,['catch'],[2.3240999999940186],[2.3240999999940186],1.776,beat,0.5480999999940186,0.5480999999940186,"[""space""]",lo,2,testConjL3Syn//time_viol.r1.s1.0.wav,3.0,conjunction_syn,syncopated,a,s1,no_rule,time,L3,z,0.7856,5.0,0.0,0.9671,4.0,2.0,español,0.0,inglés,10.0,francés,14.0,alemán,16.0,4.0,2.0,no,no,no,nada,,,,"Me ha resultado muy difícil concentrarme en los lenguajes sin contar con otras fuentes de información que suelen estar disponibles cuando oímos un idioma extranjero, como el lenguaje verbal, los gestos, la entonación, etc.Los 4 fragmentos se me han hecho larguísimos",28.0,yes
65,2024-06-03_20h25.18.445,Experiment4_uns,s196,34.0,feminino,right,España,Español,Master degree,no,no,A,1,conjunction_un,L4,unsyncopated,s2,r1,65,Online_conjL4_un//a.zi.lo26.888.1776.wav,pe,bu,de,sil,zi,da,ñi,sil1,lo,bo,sil2,['catch'],[2.2472000000178696],[2.2472000000178696],1.776,beat,0.4712000000178695,0.4712000000178695,"[""space""]",lo,2,testConjL3Syn//r2.s1.2.wav,3.0,conjunction_syn,syncopated,b,s1,rule,rule,L3,m,3.4803,1.0,0.0,0.436,4.0,2.0,español,0.0,inglés,10.0,francés,14.0,alemán,16.0,4.0,2.0,no,no,no,nada,,,,"Me ha resultado muy difícil concentrarme en los lenguajes sin contar con otras fuentes de información que suelen estar disponibles cuando oímos un idioma extranjero, como el lenguaje verbal, los gestos, la entonación, etc.Los 4 fragmentos se me han hecho larguísimos",28.0,yes
66,2024-06-03_20h25.18.445,Experiment4_uns,s196,34.0,feminino,right,España,Español,Master degree,no,no,A,1,conjunction_un,L4,unsyncopated,s2,r1,66,Online_conjL4_un//a.zi.lo25.888.1776.wav,bu,ña,de,sil,zi,ci,pe,sil1,lo,po,sil2,['catch'],[2.527500000000032],[2.527500000000032],1.776,beat,0.7515000000000318,0.7515000000000318,"[""space""]",lo,2,testConjL3Syn//dep_viol.r2.s1.0.wav,3.0,conjunction_syn,syncopated,b,s1,no_rule,dep,L3,z,0.8096,2.0,0.0,0.9994,4.0,2.0,español,0.0,inglés,10.0,francés,14.0,alemán,16.0,4.0,2.0,no,no,no,nada,,,,"Me ha resultado muy difícil concentrarme en los lenguajes sin contar con otras fuentes de información que suelen estar disponibles cuando oímos un idioma extranjero, como el lenguaje verbal, los gestos, la entonación, etc.Los 4 fragmentos se me han hecho larguísimos",28.0,yes
67,2024-06-03_20h25.18.445,Experiment4_uns,s196,34.0,feminino,right,España,Español,Master degree,no,no,A,1,conjunction_un,L4,unsyncopated,s1,r2,67,Online_conjL4_un//a.zi.lo27.none.none.wav,ja,ña,bu,sil,nu,ñi,re,sil1,pe,po,sil2,['-'],,,none,none,,,,lo,2,testConjL3Syn//cat_viol.r2.s2.0.wav,3.0,conjunction_syn,syncopated,b,s2,no_rule,cat,L3,z,1.6814,3.0,0.0,1.0168,4.0,2.0,español,0.0,inglés,10.0,francés,14.0,alemán,16.0,4.0,2.0,no,no,no,nada,,,,"Me ha resultado muy difícil concentrarme en los lenguajes sin contar con otras fuentes de información que suelen estar disponibles cuando oímos un idioma extranjero, como el lenguaje verbal, los gestos, la entonación, etc.Los 4 fragmentos se me han hecho larguísimos",28.0,yes
68,2024-06-03_20h25.18.445,Experiment4_uns,s196,34.0,feminino,right,España,Español,Master degree,no,no,A,1,conjunction_un,L4,unsyncopated,s1,r2,68,Online_conjL4_un//b.ja.nu15.0.888.wav,ja,bu,re,sil,nu,pe,bo,sil1,ñi,ci,sil2,['catch'],[0.8996999999881155],[0.8996999999881155],0.0,beat,0.8996999999881155,0.8996999999881155,"[""space""]",ja,1,testConjL3Syn//r2.s1.1.wav,3.0,conjunction_syn,syncopated,b,s1,rule,rule,L3,z,3.7294,1.0,1.0,0.5516,4.0,2.0,español,0.0,inglés,10.0,francés,14.0,alemán,16.0,4.0,2.0,no,no,no,nada,,,,"Me ha resultado muy difícil concentrarme en los lenguajes sin contar con otras fuentes de información que suelen estar disponibles cuando oímos un idioma extranjero, como el lenguaje verbal, los gestos, la entonación, etc.Los 4 fragmentos se me han hecho larguísimos",28.0,yes
69,2024-06-03_20h25.18.445,Experiment4_uns,s196,34.0,feminino,right,España,Español,Master degree,no,no,A,1,conjunction_un,L4,unsyncopated,s1,r2,69,Online_conjL4_un//b.ja.nu12.0.888.wav,ja,ñi,ci,sil,nu,ña,pe,sil1,da,bu,sil2,['catch'],[0.5591999999880954],[0.5591999999880954],0.0,beat,0.5591999999880954,0.5591999999880954,"[""space""]",ja,1,testConjL3Syn//cat_viol.r2.s1.0.wav,3.0,conjunction_syn,syncopated,b,s1,no_rule,cat,L3,m,3.2656,1.0,1.0,0.4344,4.0,2.0,español,0.0,inglés,10.0,francés,14.0,alemán,16.0,4.0,2.0,no,no,no,nada,,,,"Me ha resultado muy difícil concentrarme en los lenguajes sin contar con otras fuentes de información que suelen estar disponibles cuando oímos un idioma extranjero, como el lenguaje verbal, los gestos, la entonación, etc.Los 4 fragmentos se me han hecho larguísimos",28.0,yes
70,2024-06-03_20h25.18.445,Experiment4_uns,s196,34.0,feminino,right,España,Español,Master degree,no,no,A,1,conjunction_un,L4,unsyncopated,s2,r2,70,Online_conjL4_un//b.ja.nu14.888.1776.wav,ru,ñi,re,sil,ja,pe,po,sil1,nu,da,sil2,['catch'],[1.5740999999940186],[1.5740999999940186],0.888,beat,0.6860999999940186,0.6860999999940186,"[""space""]",ja,1,testConjL3Syn//r1.s2.0.wav,3.0,conjunction_syn,syncopated,a,s2,rule,rule,L3,m,0.6692,1.0,0.0,0.4845,4.0,2.0,español,0.0,inglés,10.0,francés,14.0,alemán,16.0,4.0,2.0,no,no,no,nada,,,,"Me ha resultado muy difícil concentrarme en los lenguajes sin contar con otras fuentes de información que suelen estar disponibles cuando oímos un idioma extranjero, como el lenguaje verbal, los gestos, la entonación, etc.Los 4 fragmentos se me han hecho larguísimos",28.0,yes
71,2024-06-03_20h25.18.445,Experiment4_uns,s196,34.0,feminino,right,España,Español,Master degree,no,no,A,1,conjunction_un,L4,unsyncopated,s1,r1,71,Online_conjL4_un//b.ja.nu13.none.none.wav,zi,pe,de,sil,lo,bu,ru,sil1,ñi,ña,sil2,['-'],,,none,none,,,,ja,1,testConjL3Syn//r2.s2.0.wav,3.0,conjunction_syn,syncopated,b,s2,rule,rule,L3,z,1.2844,6.0,1.0,1.6013,4.0,2.0,español,0.0,inglés,10.0,francés,14.0,alemán,16.0,4.0,2.0,no,no,no,nada,,,,"Me ha resultado muy difícil concentrarme en los lenguajes sin contar con otras fuentes de información que suelen estar disponibles cuando oímos un idioma extranjero, como el lenguaje verbal, los gestos, la entonación, etc.Los 4 fragmentos se me han hecho larguísimos",28.0,yes
72,2024-06-03_20h25.18.445,Experiment4_uns,s196,34.0,feminino,right,España,Español,Master degree,no,no,A,1,conjunction_un,L4,unsyncopated,s1,r2,72,Online_conjL4_un//a.zi.lo19.none.none.wav,ja,bo,po,sil,nu,pe,re,sil1,ci,ña,sil2,['false alarm'],[0.34640000000592863],[0.34640000000592863],none,none,,,"[""space""]",lo,2,testWhenL2Uns//time_viol.r2.s1.0.wav,4.0,when,unsyncopated,b,s1,no_rule,time,L2,z,0.6191,7.0,1.0,1.0146,4.0,2.0,español,0.0,inglés,10.0,francés,14.0,alemán,16.0,4.0,2.0,no,no,no,nada,,,,"Me ha resultado muy difícil concentrarme en los lenguajes sin contar con otras fuentes de información que suelen estar disponibles cuando oímos un idioma extranjero, como el lenguaje verbal, los gestos, la entonación, etc.Los 4 fragmentos se me han hecho larguísimos",28.0,yes
73,2024-06-03_20h25.18.445,Experiment4_uns,s196,34.0,feminino,right,España,Español,Master degree,no,no,A,1,conjunction_un,L4,unsyncopated,s2,r1,73,Online_conjL4_un//a.zi.lo18.888.1776.wav,po,da,ña,sil,zi,re,ci,sil1,lo,de,sil2,['catch'],[2.2590000000000146],[2.2590000000000146],1.776,beat,0.4830000000000145,0.4830000000000145,"[""space""]",lo,2,testWhenL2Uns//r1.s1.1.wav,4.0,when,unsyncopated,a,s1,rule,rule,L2,z,0.7992,7.0,1.0,0.3018,4.0,2.0,español,0.0,inglés,10.0,francés,14.0,alemán,16.0,4.0,2.0,no,no,no,nada,,,,"Me ha resultado muy difícil concentrarme en los lenguajes sin contar con otras fuentes de información que suelen estar disponibles cuando oímos un idioma extranjero, como el lenguaje verbal, los gestos, la entonación, etc.Los 4 fragmentos se me han hecho larguísimos",28.0,yes
74,2024-06-03_20h25.18.445,Experiment4_uns,s196,34.0,feminino,right,España,Español,Master degree,no,no,A,1,conjunction_un,L4,unsyncopated,s1,r1,74,Online_conjL4_un//a.zi.lo16.0.888.wav,zi,ci,ru,sil,lo,bu,de,sil1,da,po,sil2,['catch'],[1.641599999994014],[1.641599999994014],0.888,beat,0.7535999999940141,0.7535999999940141,"[""space""]",lo,2,testWhenL2Uns//r2.s1.0.wav,4.0,when,unsyncopated,b,s1,rule,rule,L2,m,1.2329,2.0,0.0,2.0654,4.0,2.0,español,0.0,inglés,10.0,francés,14.0,alemán,16.0,4.0,2.0,no,no,no,nada,,,,"Me ha resultado muy difícil concentrarme en los lenguajes sin contar con otras fuentes de información que suelen estar disponibles cuando oímos un idioma extranjero, como el lenguaje verbal, los gestos, la entonación, etc.Los 4 fragmentos se me han hecho larguísimos",28.0,yes
75,2024-06-03_20h25.18.445,Experiment4_uns,s196,34.0,feminino,right,España,Español,Master degree,no,no,A,1,conjunction_un,L4,unsyncopated,s2,r2,75,Online_conjL4_un//a.zi.lo17.none.none.wav,re,pe,ru,sil,ja,bu,ña,sil1,nu,po,sil2,['-'],,,none,none,,,,lo,2,testWhenL2Uns//r1.s2.2.wav,4.0,when,unsyncopated,a,s2,rule,rule,L2,z,1.1841,4.0,1.0,1.9516,4.0,2.0,español,0.0,inglés,10.0,francés,14.0,alemán,16.0,4.0,2.0,no,no,no,nada,,,,"Me ha resultado muy difícil concentrarme en los lenguajes sin contar con otras fuentes de información que suelen estar disponibles cuando oímos un idioma extranjero, como el lenguaje verbal, los gestos, la entonación, etc.Los 4 fragmentos se me han hecho larguísimos",28.0,yes
76,2024-06-03_20h25.18.445,Experiment4_uns,s196,34.0,feminino,right,España,Español,Master degree,no,no,A,1,conjunction_un,L4,unsyncopated,s2,r2,76,Online_conjL4_un//c.bu.da13.none.none.wav,pe,ru,de,sil,ja,re,bo,sil1,nu,ña,sil2,['-'],,,none,none,,,,bu,3,testWhenL2Uns//time_viol.r1.s1.0.wav,4.0,when,unsyncopated,a,s1,no_rule,time,L2,m,1.1839,1.0,0.0,0.5683,4.0,2.0,español,0.0,inglés,10.0,francés,14.0,alemán,16.0,4.0,2.0,no,no,no,nada,,,,"Me ha resultado muy difícil concentrarme en los lenguajes sin contar con otras fuentes de información que suelen estar disponibles cuando oímos un idioma extranjero, como el lenguaje verbal, los gestos, la entonación, etc.Los 4 fragmentos se me han hecho larguísimos",28.0,yes
77,2024-06-03_20h25.18.445,Experiment4_uns,s196,34.0,feminino,right,España,Español,Master degree,no,no,A,1,conjunction_un,L4,unsyncopated,s1,r2,77,Online_conjL4_un//c.bu.da12.1776.444.wav,ja,po,da,sil,nu,ñi,re,sil1,bu,de,sil2,['catch'],[2.2750999999940404],[2.2750999999940404],1.776,beat,0.4990999999940404,0.4990999999940404,"[""space""]",bu,3,testWhenL2Uns//r1.s2.0.wav,4.0,when,unsyncopated,a,s2,rule,rule,L2,m,0.9031,1.0,0.0,0.3192,4.0,2.0,español,0.0,inglés,10.0,francés,14.0,alemán,16.0,4.0,2.0,no,no,no,nada,,,,"Me ha resultado muy difícil concentrarme en los lenguajes sin contar con otras fuentes de información que suelen estar disponibles cuando oímos un idioma extranjero, como el lenguaje verbal, los gestos, la entonación, etc.Los 4 fragmentos se me han hecho larguísimos",28.0,yes
78,2024-06-03_20h25.18.445,Experiment4_uns,s196,34.0,feminino,right,España,Español,Master degree,no,no,A,1,conjunction_un,L4,unsyncopated,s2,r2,78,Online_conjL4_un//c.bu.da15.222.1110.wav,ñi,bu,po,sil,ja,da,re,sil1,nu,pe,sil2,['catch'],[1.1545999999940477],[1.1545999999940477],0.222,no_beat,0.9325999999940476,0.9325999999940476,"[""space""]",bu,3,testWhenL2Uns//r2.s2.2.wav,4.0,when,unsyncopated,b,s2,rule,rule,L2,m,0.9495,1.0,0.0,0.3847,4.0,2.0,español,0.0,inglés,10.0,francés,14.0,alemán,16.0,4.0,2.0,no,no,no,nada,,,,"Me ha resultado muy difícil concentrarme en los lenguajes sin contar con otras fuentes de información que suelen estar disponibles cuando oímos un idioma extranjero, como el lenguaje verbal, los gestos, la entonación, etc.Los 4 fragmentos se me han hecho larguísimos",28.0,yes
79,2024-06-03_20h25.18.445,Experiment4_uns,s196,34.0,feminino,right,España,Español,Master degree,no,no,A,1,conjunction_un,L4,unsyncopated,s2,r1,79,Online_conjL4_un//c.bu.da14.none.none.wav,po,ru,pe,sil,zi,ñi,de,sil1,lo,ña,sil2,['-'],,,none,none,,,,bu,3,testWhenL2Uns//cat_viol.r1.s2.0.wav,4.0,when,unsyncopated,a,s2,no_rule,cat,L2,z,2.0846,2.0,1.0,1.6343,4.0,2.0,español,0.0,inglés,10.0,francés,14.0,alemán,16.0,4.0,2.0,no,no,no,nada,,,,"Me ha resultado muy difícil concentrarme en los lenguajes sin contar con otras fuentes de información que suelen estar disponibles cuando oímos un idioma extranjero, como el lenguaje verbal, los gestos, la entonación, etc.Los 4 fragmentos se me han hecho larguísimos",28.0,yes
80,2024-06-03_20h25.18.445,Experiment4_uns,s196,34.0,feminino,right,España,Español,Master degree,no,no,A,1,conjunction_un,L4,unsyncopated,s1,r1,80,Online_conjL4_un//c.bu.da28.1776.1110.wav,zi,re,ru,sil,lo,da,pe,sil1,bu,ña,sil2,['catch'],[2.420900000005986],[2.420900000005986],1.776,beat,0.6449000000059859,0.6449000000059859,"[""space""]",bu,3,testWhenL2Uns//r2.s1.2.wav,4.0,when,unsyncopated,b,s1,rule,rule,L2,z,0.785,3.0,1.0,0.9842,4.0,2.0,español,0.0,inglés,10.0,francés,14.0,alemán,16.0,4.0,2.0,no,no,no,nada,,,,"Me ha resultado muy difícil concentrarme en los lenguajes sin contar con otras fuentes de información que suelen estar disponibles cuando oímos un idioma extranjero, como el lenguaje verbal, los gestos, la entonación, etc.Los 4 fragmentos se me han hecho larguísimos",28.0,yes
81,2024-06-03_20h25.18.445,Experiment4_uns,s196,34.0,feminino,right,España,Español,Master degree,no,no,A,1,conjunction_un,L4,unsyncopated,s2,r2,81,Online_conjL4_un//c.bu.da31.none.none.wav,po,re,bo,sil,ja,ña,ñi,sil1,nu,pe,sil2,['-'],,,none,none,,,,bu,3,testWhenL2Uns//r1.s2.1.wav,4.0,when,unsyncopated,a,s2,rule,rule,L2,z,0.6676,6.0,1.0,0.6833,4.0,2.0,español,0.0,inglés,10.0,francés,14.0,alemán,16.0,4.0,2.0,no,no,no,nada,,,,"Me ha resultado muy difícil concentrarme en los lenguajes sin contar con otras fuentes de información que suelen estar disponibles cuando oímos un idioma extranjero, como el lenguaje verbal, los gestos, la entonación, etc.Los 4 fragmentos se me han hecho larguísimos",28.0,yes
82,2024-06-03_20h25.18.445,Experiment4_uns,s196,34.0,feminino,right,España,Español,Master degree,no,no,A,1,conjunction_un,L4,unsyncopated,s1,r2,82,Online_conjL4_un//c.bu.da30.222.444.wav,ja,bu,da,sil,nu,pe,bo,sil1,ña,de,sil2,['catch'],[0.7881999999881373],[0.7881999999881373],0.222,no_beat,0.5661999999881373,0.5661999999881373,"[""space""]",bu,3,testWhenL2Uns//time_viol.r2.s2.0.wav,4.0,when,unsyncopated,b,s2,no_rule,time,L2,m,1.2019,1.0,0.0,0.4683,4.0,2.0,español,0.0,inglés,10.0,francés,14.0,alemán,16.0,4.0,2.0,no,no,no,nada,,,,"Me ha resultado muy difícil concentrarme en los lenguajes sin contar con otras fuentes de información que suelen estar disponibles cuando oímos un idioma extranjero, como el lenguaje verbal, los gestos, la entonación, etc.Los 4 fragmentos se me han hecho larguísimos",28.0,yes
83,2024-06-03_20h25.18.445,Experiment4_uns,s196,34.0,feminino,right,España,Español,Master degree,no,no,A,1,conjunction_un,L4,unsyncopated,s2,r2,83,Online_conjL4_un//c.bu.da29.none.none.wav,bo,ña,re,sil,ja,ci,ru,sil1,nu,ñi,sil2,['-'],,,none,none,,,,bu,3,testWhenL2Uns//r2.s2.0.wav,4.0,when,unsyncopated,b,s2,rule,rule,L2,m,1.7828,1.0,0.0,0.4409,4.0,2.0,español,0.0,inglés,10.0,francés,14.0,alemán,16.0,4.0,2.0,no,no,no,nada,,,,"Me ha resultado muy difícil concentrarme en los lenguajes sin contar con otras fuentes de información que suelen estar disponibles cuando oímos un idioma extranjero, como el lenguaje verbal, los gestos, la entonación, etc.Los 4 fragmentos se me han hecho larguísimos",28.0,yes
84,2024-06-03_20h25.18.445,Experiment4_uns,s196,34.0,feminino,right,España,Español,Master degree,no,no,A,1,conjunction_un,L4,unsyncopated,s1,r1,84,Online_conjL4_un//c.bu.da26.444.1110.wav,zi,po,bu,sil,lo,da,ci,sil1,de,ñi,sil2,['catch'],[1.1924000000059323],[1.1924000000059323],0.444,no_beat,0.7484000000059323,0.7484000000059323,"[""space""]",bu,3,testWhenL2Uns//r2.s2.1.wav,4.0,when,unsyncopated,b,s2,rule,rule,L2,m,1.1006,1.0,0.0,0.5507,4.0,2.0,español,0.0,inglés,10.0,francés,14.0,alemán,16.0,4.0,2.0,no,no,no,nada,,,,"Me ha resultado muy difícil concentrarme en los lenguajes sin contar con otras fuentes de información que suelen estar disponibles cuando oímos un idioma extranjero, como el lenguaje verbal, los gestos, la entonación, etc.Los 4 fragmentos se me han hecho larguísimos",28.0,yes
85,2024-06-03_20h25.18.445,Experiment4_uns,s196,34.0,feminino,right,España,Español,Master degree,no,no,A,1,conjunction_un,L4,unsyncopated,s2,r1,85,Online_conjL4_un//c.bu.da25.444.1110.wav,ru,de,bu,sil,zi,da,ñi,sil1,lo,ña,sil2,['catch'],[1.17169999998805],[1.17169999998805],0.444,no_beat,0.72769999998805,0.72769999998805,"[""space""]",bu,3,testWhenL2Uns//time_viol.r1.s2.0.wav,4.0,when,unsyncopated,a,s2,no_rule,time,L2,z,0.6686,2.0,1.0,0.5854,4.0,2.0,español,0.0,inglés,10.0,francés,14.0,alemán,16.0,4.0,2.0,no,no,no,nada,,,,"Me ha resultado muy difícil concentrarme en los lenguajes sin contar con otras fuentes de información que suelen estar disponibles cuando oímos un idioma extranjero, como el lenguaje verbal, los gestos, la entonación, etc.Los 4 fragmentos se me han hecho larguísimos",28.0,yes
86,2024-06-03_20h25.18.445,Experiment4_uns,s196,34.0,feminino,right,España,Español,Master degree,no,no,A,1,conjunction_un,L4,unsyncopated,s1,r2,86,Online_conjL4_un//c.bu.da24.none.none.wav,ja,po,ci,sil,nu,ña,ru,sil1,re,bo,sil2,['-'],,,none,none,,,,bu,3,testWhenL2Uns//r1.s1.2.wav,4.0,when,unsyncopated,a,s1,rule,rule,L2,z,0.4173,6.0,1.0,0.7189,4.0,2.0,español,0.0,inglés,10.0,francés,14.0,alemán,16.0,4.0,2.0,no,no,no,nada,,,,"Me ha resultado muy difícil concentrarme en los lenguajes sin contar con otras fuentes de información que suelen estar disponibles cuando oímos un idioma extranjero, como el lenguaje verbal, los gestos, la entonación, etc.Los 4 fragmentos se me han hecho larguísimos",28.0,yes
87,2024-06-03_20h25.18.445,Experiment4_uns,s196,34.0,feminino,right,España,Español,Master degree,no,no,A,1,conjunction_un,L4,unsyncopated,s2,r1,87,Online_conjL4_un//c.bu.da27.0.444.wav,bu,po,da,sil,zi,re,pe,sil1,lo,bo,sil2,['catch'],[0.7401000000238582],[0.7401000000238582],0.0,beat,0.7401000000238582,0.7401000000238582,"[""space""]",bu,3,testWhenL2Uns//cat_viol.r2.s2.0.wav,4.0,when,unsyncopated,b,s2,no_rule,cat,L2,m,1.7341,2.0,0.0,0.6181,4.0,2.0,español,0.0,inglés,10.0,francés,14.0,alemán,16.0,4.0,2.0,no,no,no,nada,,,,"Me ha resultado muy difícil concentrarme en los lenguajes sin contar con otras fuentes de información que suelen estar disponibles cuando oímos un idioma extranjero, como el lenguaje verbal, los gestos, la entonación, etc.Los 4 fragmentos se me han hecho larguísimos",28.0,yes
88,2024-06-03_20h25.18.445,Experiment4_uns,s196,34.0,feminino,right,España,Español,Master degree,no,no,A,1,conjunction_un,L4,unsyncopated,s1,r2,88,Online_conjL4_un//a.zi.lo3.none.none.wav,ja,bu,re,sil,nu,pe,ñi,sil1,ru,ci,sil2,['-'],,,none,none,,,,lo,2,testWhenL2Uns//dep_viol.r2.s1.0.wav,4.0,when,unsyncopated,b,s1,no_rule,dep,L2,z,0.5019,6.0,1.0,0.6017,4.0,2.0,español,0.0,inglés,10.0,francés,14.0,alemán,16.0,4.0,2.0,no,no,no,nada,,,,"Me ha resultado muy difícil concentrarme en los lenguajes sin contar con otras fuentes de información que suelen estar disponibles cuando oímos un idioma extranjero, como el lenguaje verbal, los gestos, la entonación, etc.Los 4 fragmentos se me han hecho larguísimos",28.0,yes
89,2024-06-03_20h25.18.445,Experiment4_uns,s196,34.0,feminino,right,España,Español,Master degree,no,no,A,1,conjunction_un,L4,unsyncopated,s2,r1,89,Online_conjL4_un//a.zi.lo0.888.1776.wav,ñi,bu,ci,sil,zi,da,pe,sil1,lo,re,sil2,['catch'],[2.357099999994034],[2.357099999994034],1.776,beat,0.581099999994034,0.581099999994034,"[""space""]",lo,2,testWhenL2Uns//dep_viol.r2.s2.0.wav,4.0,when,unsyncopated,b,s2,no_rule,dep,L2,m,1.3837,1.0,0.0,0.3352,4.0,2.0,español,0.0,inglés,10.0,francés,14.0,alemán,16.0,4.0,2.0,no,no,no,nada,,,,"Me ha resultado muy difícil concentrarme en los lenguajes sin contar con otras fuentes de información que suelen estar disponibles cuando oímos un idioma extranjero, como el lenguaje verbal, los gestos, la entonación, etc.Los 4 fragmentos se me han hecho larguísimos",28.0,yes
90,2024-06-03_20h25.18.445,Experiment4_uns,s196,34.0,feminino,right,España,Español,Master degree,no,no,A,1,conjunction_un,L4,unsyncopated,s1,r1,90,Online_conjL4_un//a.zi.lo2.0.888.wav,zi,ña,re,sil,lo,de,pe,sil1,bu,po,sil2,['catch'],[1.6937000000178841],[1.6937000000178841],0.888,beat,0.8057000000178841,0.8057000000178841,"[""space""]",lo,2,testWhenL2Uns//dep_viol.r1.s1.0.wav,4.0,when,unsyncopated,a,s1,no_rule,dep,L2,m,1.5187,1.0,0.0,0.4022,4.0,2.0,español,0.0,inglés,10.0,francés,14.0,alemán,16.0,4.0,2.0,no,no,no,nada,,,,"Me ha resultado muy difícil concentrarme en los lenguajes sin contar con otras fuentes de información que suelen estar disponibles cuando oímos un idioma extranjero, como el lenguaje verbal, los gestos, la entonación, etc.Los 4 fragmentos se me han hecho larguísimos",28.0,yes
91,2024-06-03_20h25.18.445,Experiment4_uns,s196,34.0,feminino,right,España,Español,Master degree,no,no,A,1,conjunction_un,L4,unsyncopated,s1,r1,91,Online_conjL4_un//a.zi.lo1.0.888.wav,zi,ña,ci,sil,lo,po,pe,sil1,bo,da,sil2,['catch'],[1.7042000000178632],[1.7042000000178632],0.888,beat,0.8162000000178632,0.8162000000178632,"[""space""]",lo,2,testWhenL2Uns//r1.s1.0.wav,4.0,when,unsyncopated,a,s1,rule,rule,L2,z,1.3346,2.0,1.0,2.0183,4.0,2.0,español,0.0,inglés,10.0,francés,14.0,alemán,16.0,4.0,2.0,no,no,no,nada,,,,"Me ha resultado muy difícil concentrarme en los lenguajes sin contar con otras fuentes de información que suelen estar disponibles cuando oímos un idioma extranjero, como el lenguaje verbal, los gestos, la entonación, etc.Los 4 fragmentos se me han hecho larguísimos",28.0,yes
92,2024-06-03_20h25.18.445,Experiment4_uns,s196,34.0,feminino,right,España,Español,Master degree,no,no,A,1,conjunction_un,L4,unsyncopated,s2,r2,92,Online_conjL4_un//a.zi.lo5.none.none.wav,ñi,re,pe,sil,ja,da,ña,sil1,nu,bu,sil2,['-'],,,none,none,,,,lo,2,testWhenL2Uns//cat_viol.r1.s1.0.wav,4.0,when,unsyncopated,a,s1,no_rule,cat,L2,z,2.3661,2.0,1.0,0.9838,4.0,2.0,español,0.0,inglés,10.0,francés,14.0,alemán,16.0,4.0,2.0,no,no,no,nada,,,,"Me ha resultado muy difícil concentrarme en los lenguajes sin contar con otras fuentes de información que suelen estar disponibles cuando oímos un idioma extranjero, como el lenguaje verbal, los gestos, la entonación, etc.Los 4 fragmentos se me han hecho larguísimos",28.0,yes
93,2024-06-03_20h25.18.445,Experiment4_uns,s196,34.0,feminino,right,España,Español,Master degree,no,no,A,1,conjunction_un,L4,unsyncopated,s1,r2,93,Online_conjL4_un//a.zi.lo4.none.none.wav,ja,da,ñi,sil,nu,pe,re,sil1,bu,bo,sil2,['-'],,,none,none,,,,lo,2,testWhenL2Uns//r2.s1.1.wav,4.0,when,unsyncopated,b,s1,rule,rule,L2,z,1.3669,2.0,1.0,0.9009,4.0,2.0,español,0.0,inglés,10.0,francés,14.0,alemán,16.0,4.0,2.0,no,no,no,nada,,,,"Me ha resultado muy difícil concentrarme en los lenguajes sin contar con otras fuentes de información que suelen estar disponibles cuando oímos un idioma extranjero, como el lenguaje verbal, los gestos, la entonación, etc.Los 4 fragmentos se me han hecho larguísimos",28.0,yes
94,2024-06-03_20h25.18.445,Experiment4_uns,s196,34.0,feminino,right,España,Español,Master degree,no,no,A,1,conjunction_un,L4,unsyncopated,s1,r1,94,Online_conjL4_un//a.zi.lo6.0.888.wav,zi,da,po,sil,lo,de,ci,sil1,re,bo,sil2,['catch'],[1.6208999999762455],[1.6208999999762455],0.888,beat,0.7328999999762454,0.7328999999762454,"[""space""]",lo,2,testWhenL2Uns//cat_viol.r2.s1.0.wav,4.0,when,unsyncopated,b,s1,no_rule,cat,L2,m,2.4343,1.0,0.0,0.5854,4.0,2.0,español,0.0,inglés,10.0,francés,14.0,alemán,16.0,4.0,2.0,no,no,no,nada,,,,"Me ha resultado muy difícil concentrarme en los lenguajes sin contar con otras fuentes de información que suelen estar disponibles cuando oímos un idioma extranjero, como el lenguaje verbal, los gestos, la entonación, etc.Los 4 fragmentos se me han hecho larguísimos",28.0,yes
95,2024-06-03_20h25.18.445,Experiment4_uns,s196,34.0,feminino,right,España,Español,Master degree,no,no,A,1,conjunction_un,L4,unsyncopated,s1,r1,95,Online_conjL4_un//a.zi.lo7.0.888.wav,zi,ci,da,sil,lo,ñi,de,sil1,ru,po,sil2,['catch'],[1.588700000017866],[1.588700000017866],0.888,beat,0.7007000000178659,0.7007000000178659,"[""space""]",lo,2,testWhenL2Uns//dep_viol.r1.s2.0.wav,4.0,when,unsyncopated,a,s2,no_rule,dep,L2,z,2.4673,2.0,1.0,0.5522,4.0,2.0,español,0.0,inglés,10.0,francés,14.0,alemán,16.0,4.0,2.0,no,no,no,nada,,,,"Me ha resultado muy difícil concentrarme en los lenguajes sin contar con otras fuentes de información que suelen estar disponibles cuando oímos un idioma extranjero, como el lenguaje verbal, los gestos, la entonación, etc.Los 4 fragmentos se me han hecho larguísimos",28.0,yes
96,2024-06-03_20h25.18.445,Experiment4_uns,s196,34.0,feminino,right,España,Español,Master degree,no,no,A,1,conjunction_un,L4,unsyncopated,s2,r2,96,Online_conjL4_un//c.bu.da21.none.none.wav,de,bo,ñi,sil,ja,ci,po,sil1,nu,re,sil2,['-'],,,none,none,,,,bu,3,,,,,,,,,,,,,,,4.0,2.0,español,0.0,inglés,10.0,francés,14.0,alemán,16.0,4.0,2.0,no,no,no,nada,,,,"Me ha resultado muy difícil concentrarme en los lenguajes sin contar con otras fuentes de información que suelen estar disponibles cuando oímos un idioma extranjero, como el lenguaje verbal, los gestos, la entonación, etc.Los 4 fragmentos se me han hecho larguísimos",28.0,yes
97,2024-06-03_20h25.18.445,Experiment4_uns,s196,34.0,feminino,right,España,Español,Master degree,no,no,A,1,conjunction_un,L4,unsyncopated,s2,r1,97,Online_conjL4_un//c.bu.da22.1110.0.wav,da,ci,bo,sil,zi,bu,ru,sil1,lo,pe,sil2,['catch'],[1.7789999999999964],[1.7789999999999964],1.11,no_beat,0.6689999999999963,0.6689999999999963,"[""space""]",bu,3,,,,,,,,,,,,,,,4.0,2.0,español,0.0,inglés,10.0,francés,14.0,alemán,16.0,4.0,2.0,no,no,no,nada,,,,"Me ha resultado muy difícil concentrarme en los lenguajes sin contar con otras fuentes de información que suelen estar disponibles cuando oímos un idioma extranjero, como el lenguaje verbal, los gestos, la entonación, etc.Los 4 fragmentos se me han hecho larguísimos",28.0,yes
98,2024-06-03_20h25.18.445,Experiment4_uns,s196,34.0,feminino,right,España,Español,Master degree,no,no,A,1,conjunction_un,L4,unsyncopated,s2,r1,98,Online_conjL4_un//c.bu.da23.none.none.wav,po,ru,pe,sil,zi,re,ña,sil1,lo,ci,sil2,['-'],,,none,none,,,,bu,3,,,,,,,,,,,,,,,4.0,2.0,español,0.0,inglés,10.0,francés,14.0,alemán,16.0,4.0,2.0,no,no,no,nada,,,,"Me ha resultado muy difícil concentrarme en los lenguajes sin contar con otras fuentes de información que suelen estar disponibles cuando oímos un idioma extranjero, como el lenguaje verbal, los gestos, la entonación, etc.Los 4 fragmentos se me han hecho larguísimos",28.0,yes
99,2024-06-03_20h25.18.445,Experiment4_uns,s196,34.0,feminino,right,España,Español,Master degree,no,no,A,1,conjunction_un,L4,unsyncopated,s1,r1,99,Online_conjL4_un//c.bu.da20.1332.222.wav,zi,da,pe,sil,lo,ñi,bu,sil1,po,de,sil2,['catch'],[2.014400000005935],[2.014400000005935],1.332,no_beat,0.6824000000059349,0.6824000000059349,"[""space""]",bu,3,,,,,,,,,,,,,,,4.0,2.0,español,0.0,inglés,10.0,francés,14.0,alemán,16.0,4.0,2.0,no,no,no,nada,,,,"Me ha resultado muy difícil concentrarme en los lenguajes sin contar con otras fuentes de información que suelen estar disponibles cuando oímos un idioma extranjero, como el lenguaje verbal, los gestos, la entonación, etc.Los 4 fragmentos se me han hecho larguísimos",28.0,yes
100,2024-06-03_20h25.18.445,Experiment4_uns,s196,34.0,feminino,right,España,Español,Master degree,no,no,A,1,conjunction_un,L4,unsyncopated,s2,r2,100,Online_conjL4_un//d.pe.po25.none.none.wav,re,bu,ña,sil,ja,bo,de,sil1,nu,da,sil2,['-'],,,none,none,,,,pe,4,,,,,,,,,,,,,,,4.0,2.0,español,0.0,inglés,10.0,francés,14.0,alemán,16.0,4.0,2.0,no,no,no,nada,,,,"Me ha resultado muy difícil concentrarme en los lenguajes sin contar con otras fuentes de información que suelen estar disponibles cuando oímos un idioma extranjero, como el lenguaje verbal, los gestos, la entonación, etc.Los 4 fragmentos se me han hecho larguísimos",28.0,yes
101,2024-06-03_20h25.18.445,Experiment4_uns,s196,34.0,feminino,right,España,Español,Master degree,no,no,A,1,conjunction_un,L4,unsyncopated,s2,r2,101,Online_conjL4_un//d.pe.po27.none.none.wav,ru,ci,bo,sil,ja,de,ñi,sil1,nu,ña,sil2,['-'],,,none,none,,,,pe,4,,,,,,,,,,,,,,,4.0,2.0,español,0.0,inglés,10.0,francés,14.0,alemán,16.0,4.0,2.0,no,no,no,nada,,,,"Me ha resultado muy difícil concentrarme en los lenguajes sin contar con otras fuentes de información que suelen estar disponibles cuando oímos un idioma extranjero, como el lenguaje verbal, los gestos, la entonación, etc.Los 4 fragmentos se me han hecho larguísimos",28.0,yes
102,2024-06-03_20h25.18.445,Experiment4_uns,s196,34.0,feminino,right,España,Español,Master degree,no,no,A,1,conjunction_un,L4,unsyncopated,s2,r1,102,Online_conjL4_un//d.pe.po26.none.none.wav,ci,bo,bu,sil,zi,re,ru,sil1,lo,ñi,sil2,['false alarm'],[1.5298000000118464],[1.5298000000118464],none,none,,,"[""space""]",pe,4,,,,,,,,,,,,,,,4.0,2.0,español,0.0,inglés,10.0,francés,14.0,alemán,16.0,4.0,2.0,no,no,no,nada,,,,"Me ha resultado muy difícil concentrarme en los lenguajes sin contar con otras fuentes de información que suelen estar disponibles cuando oímos un idioma extranjero, como el lenguaje verbal, los gestos, la entonación, etc.Los 4 fragmentos se me han hecho larguísimos",28.0,yes
103,2024-06-03_20h25.18.445,Experiment4_uns,s196,34.0,feminino,right,España,Español,Master degree,no,no,A,1,conjunction_un,L4,unsyncopated,s2,r1,103,Online_conjL4_un//d.pe.po24.444.1110.wav,de,da,pe,sil,zi,po,re,sil1,lo,bu,sil2,['catch'],[1.1137999999821204],[1.1137999999821204],0.444,no_beat,0.6697999999821205,0.6697999999821205,"[""space""]",pe,4,,,,,,,,,,,,,,,4.0,2.0,español,0.0,inglés,10.0,francés,14.0,alemán,16.0,4.0,2.0,no,no,no,nada,,,,"Me ha resultado muy difícil concentrarme en los lenguajes sin contar con otras fuentes de información que suelen estar disponibles cuando oímos un idioma extranjero, como el lenguaje verbal, los gestos, la entonación, etc.Los 4 fragmentos se me han hecho larguísimos",28.0,yes
104,2024-06-03_20h25.18.445,Experiment4_uns,s196,34.0,feminino,right,España,Español,Master degree,no,no,A,1,conjunction_un,L4,unsyncopated,s2,r1,104,Online_conjL4_un//c.bu.da5.222.444.wav,po,bu,da,sil,zi,de,ci,sil1,lo,re,sil2,['miss'],,,0.222,no_beat,,,,bu,3,,,,,,,,,,,,,,,4.0,2.0,español,0.0,inglés,10.0,francés,14.0,alemán,16.0,4.0,2.0,no,no,no,nada,,,,"Me ha resultado muy difícil concentrarme en los lenguajes sin contar con otras fuentes de información que suelen estar disponibles cuando oímos un idioma extranjero, como el lenguaje verbal, los gestos, la entonación, etc.Los 4 fragmentos se me han hecho larguísimos",28.0,yes
105,2024-06-03_20h25.18.445,Experiment4_uns,s196,34.0,feminino,right,España,Español,Master degree,no,no,A,1,conjunction_un,L4,unsyncopated,s1,r1,105,Online_conjL4_un//c.bu.da7.none.none.wav,zi,re,po,sil,lo,bo,ci,sil1,ña,de,sil2,['-'],,,none,none,,,,bu,3,,,,,,,,,,,,,,,4.0,2.0,español,0.0,inglés,10.0,francés,14.0,alemán,16.0,4.0,2.0,no,no,no,nada,,,,"Me ha resultado muy difícil concentrarme en los lenguajes sin contar con otras fuentes de información que suelen estar disponibles cuando oímos un idioma extranjero, como el lenguaje verbal, los gestos, la entonación, etc.Los 4 fragmentos se me han hecho larguísimos",28.0,yes
106,2024-06-03_20h25.18.445,Experiment4_uns,s196,34.0,feminino,right,España,Español,Master degree,no,no,A,1,conjunction_un,L4,unsyncopated,s1,r1,106,Online_conjL4_un//c.bu.da4.1776.1110.wav,zi,re,bo,sil,lo,da,ru,sil1,bu,de,sil2,['catch'],[2.4434000000060223],[2.4434000000060223],1.776,beat,0.6674000000060223,0.6674000000060223,"[""space""]",bu,3,,,,,,,,,,,,,,,4.0,2.0,español,0.0,inglés,10.0,francés,14.0,alemán,16.0,4.0,2.0,no,no,no,nada,,,,"Me ha resultado muy difícil concentrarme en los lenguajes sin contar con otras fuentes de información que suelen estar disponibles cuando oímos un idioma extranjero, como el lenguaje verbal, los gestos, la entonación, etc.Los 4 fragmentos se me han hecho larguísimos",28.0,yes
107,2024-06-03_20h25.18.445,Experiment4_uns,s196,34.0,feminino,right,España,Español,Master degree,no,no,A,1,conjunction_un,L4,unsyncopated,s1,r2,107,Online_conjL4_un//c.bu.da6.1776.444.wav,ja,ru,da,sil,nu,ñi,ña,sil1,bu,re,sil2,['catch'],[2.4104999999999563],[2.4104999999999563],1.776,beat,0.6344999999999563,0.6344999999999563,"[""space""]",bu,3,,,,,,,,,,,,,,,4.0,2.0,español,0.0,inglés,10.0,francés,14.0,alemán,16.0,4.0,2.0,no,no,no,nada,,,,"Me ha resultado muy difícil concentrarme en los lenguajes sin contar con otras fuentes de información que suelen estar disponibles cuando oímos un idioma extranjero, como el lenguaje verbal, los gestos, la entonación, etc.Los 4 fragmentos se me han hecho larguísimos",28.0,yes
108,2024-06-03_20h25.18.445,Experiment4_uns,s196,34.0,feminino,right,España,Español,Master degree,no,no,A,1,conjunction_un,L4,unsyncopated,s1,r1,108,Online_conjL4_un//b.ja.nu25.none.none.wav,zi,da,ru,sil,lo,de,ñi,sil1,re,ña,sil2,['-'],,,none,none,,,,ja,1,,,,,,,,,,,,,,,4.0,2.0,español,0.0,inglés,10.0,francés,14.0,alemán,16.0,4.0,2.0,no,no,no,nada,,,,"Me ha resultado muy difícil concentrarme en los lenguajes sin contar con otras fuentes de información que suelen estar disponibles cuando oímos un idioma extranjero, como el lenguaje verbal, los gestos, la entonación, etc.Los 4 fragmentos se me han hecho larguísimos",28.0,yes
109,2024-06-03_20h25.18.445,Experiment4_uns,s196,34.0,feminino,right,España,Español,Master degree,no,no,A,1,conjunction_un,L4,unsyncopated,s2,r2,109,Online_conjL4_un//b.ja.nu26.888.1776.wav,bo,bu,ru,sil,ja,de,ñi,sil1,nu,da,sil2,['catch'],[1.4206999999880736],[1.4206999999880736],0.888,beat,0.5326999999880736,0.5326999999880736,"[""space""]",ja,1,,,,,,,,,,,,,,,4.0,2.0,español,0.0,inglés,10.0,francés,14.0,alemán,16.0,4.0,2.0,no,no,no,nada,,,,"Me ha resultado muy difícil concentrarme en los lenguajes sin contar con otras fuentes de información que suelen estar disponibles cuando oímos un idioma extranjero, como el lenguaje verbal, los gestos, la entonación, etc.Los 4 fragmentos se me han hecho larguísimos",28.0,yes
110,2024-06-03_20h25.18.445,Experiment4_uns,s196,34.0,feminino,right,España,Español,Master degree,no,no,A,1,conjunction_un,L4,unsyncopated,s2,r2,110,Online_conjL4_un//b.ja.nu24.888.1776.wav,pe,re,po,sil,ja,ñi,de,sil1,nu,bo,sil2,['catch'],[1.44030000001203],[1.44030000001203],0.888,beat,0.5523000000120301,0.5523000000120301,"[""space""]",ja,1,,,,,,,,,,,,,,,4.0,2.0,español,0.0,inglés,10.0,francés,14.0,alemán,16.0,4.0,2.0,no,no,no,nada,,,,"Me ha resultado muy difícil concentrarme en los lenguajes sin contar con otras fuentes de información que suelen estar disponibles cuando oímos un idioma extranjero, como el lenguaje verbal, los gestos, la entonación, etc.Los 4 fragmentos se me han hecho larguísimos",28.0,yes
111,2024-06-03_20h25.18.445,Experiment4_uns,s196,34.0,feminino,right,España,Español,Master degree,no,no,A,1,conjunction_un,L4,unsyncopated,s1,r2,111,Online_conjL4_un//b.ja.nu27.0.888.wav,ja,ñi,bu,sil,nu,ña,ci,sil1,da,po,sil2,['catch'],[0.49069999998800995],[0.49069999998800995],0.0,beat,0.4906999999880099,0.4906999999880099,"[""space""]",ja,1,,,,,,,,,,,,,,,4.0,2.0,español,0.0,inglés,10.0,francés,14.0,alemán,16.0,4.0,2.0,no,no,no,nada,,,,"Me ha resultado muy difícil concentrarme en los lenguajes sin contar con otras fuentes de información que suelen estar disponibles cuando oímos un idioma extranjero, como el lenguaje verbal, los gestos, la entonación, etc.Los 4 fragmentos se me han hecho larguísimos",28.0,yes
112,2024-06-03_20h25.18.445,Experiment4_uns,s196,34.0,feminino,right,España,Español,Master degree,no,no,A,1,conjunction_un,L4,unsyncopated,s1,r2,112,Online_conjL4_un//d.pe.po31.none.none.wav,ja,re,ña,sil,nu,bo,ci,sil1,bu,de,sil2,['-'],,,none,none,,,,pe,4,,,,,,,,,,,,,,,4.0,2.0,español,0.0,inglés,10.0,francés,14.0,alemán,16.0,4.0,2.0,no,no,no,nada,,,,"Me ha resultado muy difícil concentrarme en los lenguajes sin contar con otras fuentes de información que suelen estar disponibles cuando oímos un idioma extranjero, como el lenguaje verbal, los gestos, la entonación, etc.Los 4 fragmentos se me han hecho larguísimos",28.0,yes
113,2024-06-03_20h25.18.445,Experiment4_uns,s196,34.0,feminino,right,España,Español,Master degree,no,no,A,1,conjunction_un,L4,unsyncopated,s2,r1,113,Online_conjL4_un//d.pe.po29.none.none.wav,bo,ña,bu,sil,zi,ru,ci,sil1,lo,de,sil2,['-'],,,none,none,,,,pe,4,,,,,,,,,,,,,,,4.0,2.0,español,0.0,inglés,10.0,francés,14.0,alemán,16.0,4.0,2.0,no,no,no,nada,,,,"Me ha resultado muy difícil concentrarme en los lenguajes sin contar con otras fuentes de información que suelen estar disponibles cuando oímos un idioma extranjero, como el lenguaje verbal, los gestos, la entonación, etc.Los 4 fragmentos se me han hecho larguísimos",28.0,yes
114,2024-06-03_20h25.18.445,Experiment4_uns,s196,34.0,feminino,right,España,Español,Master degree,no,no,A,1,conjunction_un,L4,unsyncopated,s1,r1,114,Online_conjL4_un//d.pe.po28.444.1332.wav,zi,ci,pe,sil,lo,ñi,po,sil1,ña,da,sil2,['catch'],[1.0234000000059496],[1.0234000000059496],0.444,no_beat,0.5794000000059496,0.5794000000059496,"[""space""]",pe,4,,,,,,,,,,,,,,,4.0,2.0,español,0.0,inglés,10.0,francés,14.0,alemán,16.0,4.0,2.0,no,no,no,nada,,,,"Me ha resultado muy difícil concentrarme en los lenguajes sin contar con otras fuentes de información que suelen estar disponibles cuando oímos un idioma extranjero, como el lenguaje verbal, los gestos, la entonación, etc.Los 4 fragmentos se me han hecho larguísimos",28.0,yes
115,2024-06-03_20h25.18.445,Experiment4_uns,s196,34.0,feminino,right,España,Español,Master degree,no,no,A,1,conjunction_un,L4,unsyncopated,s1,r2,115,Online_conjL4_un//d.pe.po30.1776.1110.wav,ja,ñi,ru,sil,nu,po,ña,sil1,pe,da,sil2,['catch'],[2.297199999988152],[2.297199999988152],1.776,beat,0.5211999999881518,0.5211999999881518,"[""space""]",pe,4,,,,,,,,,,,,,,,4.0,2.0,español,0.0,inglés,10.0,francés,14.0,alemán,16.0,4.0,2.0,no,no,no,nada,,,,"Me ha resultado muy difícil concentrarme en los lenguajes sin contar con otras fuentes de información que suelen estar disponibles cuando oímos un idioma extranjero, como el lenguaje verbal, los gestos, la entonación, etc.Los 4 fragmentos se me han hecho larguísimos",28.0,yes
116,2024-06-03_20h25.18.445,Experiment4_uns,s196,34.0,feminino,right,España,Español,Master degree,no,no,A,1,conjunction_un,L4,unsyncopated,s1,r1,116,Online_conjL4_un//b.ja.nu28.none.none.wav,zi,po,pe,sil,lo,bo,ñi,sil1,re,ci,sil2,['-'],,,none,none,,,,ja,1,,,,,,,,,,,,,,,4.0,2.0,español,0.0,inglés,10.0,francés,14.0,alemán,16.0,4.0,2.0,no,no,no,nada,,,,"Me ha resultado muy difícil concentrarme en los lenguajes sin contar con otras fuentes de información que suelen estar disponibles cuando oímos un idioma extranjero, como el lenguaje verbal, los gestos, la entonación, etc.Los 4 fragmentos se me han hecho larguísimos",28.0,yes
117,2024-06-03_20h25.18.445,Experiment4_uns,s196,34.0,feminino,right,España,Español,Master degree,no,no,A,1,conjunction_un,L4,unsyncopated,s2,r1,117,Online_conjL4_un//b.ja.nu29.none.none.wav,ci,da,po,sil,zi,bu,de,sil1,lo,ña,sil2,['-'],,,none,none,,,,ja,1,,,,,,,,,,,,,,,4.0,2.0,español,0.0,inglés,10.0,francés,14.0,alemán,16.0,4.0,2.0,no,no,no,nada,,,,"Me ha resultado muy difícil concentrarme en los lenguajes sin contar con otras fuentes de información que suelen estar disponibles cuando oímos un idioma extranjero, como el lenguaje verbal, los gestos, la entonación, etc.Los 4 fragmentos se me han hecho larguísimos",28.0,yes
118,2024-06-03_20h25.18.445,Experiment4_uns,s196,34.0,feminino,right,España,Español,Master degree,no,no,A,1,conjunction_un,L4,unsyncopated,s2,r1,118,Online_conjL4_un//b.ja.nu31.none.none.wav,ru,pe,ñi,sil,zi,ña,da,sil1,lo,ci,sil2,['-'],,,none,none,,,,ja,1,,,,,,,,,,,,,,,4.0,2.0,español,0.0,inglés,10.0,francés,14.0,alemán,16.0,4.0,2.0,no,no,no,nada,,,,"Me ha resultado muy difícil concentrarme en los lenguajes sin contar con otras fuentes de información que suelen estar disponibles cuando oímos un idioma extranjero, como el lenguaje verbal, los gestos, la entonación, etc.Los 4 fragmentos se me han hecho larguísimos",28.0,yes
119,2024-06-03_20h25.18.445,Experiment4_uns,s196,34.0,feminino,right,España,Español,Master degree,no,no,A,1,conjunction_un,L4,unsyncopated,s2,r2,119,Online_conjL4_un//b.ja.nu30.888.1776.wav,pe,re,ña,sil,ja,po,de,sil1,nu,da,sil2,['catch'],[1.572599999994054],[1.572599999994054],0.888,beat,0.6845999999940541,0.6845999999940541,"[""space""]",ja,1,,,,,,,,,,,,,,,4.0,2.0,español,0.0,inglés,10.0,francés,14.0,alemán,16.0,4.0,2.0,no,no,no,nada,,,,"Me ha resultado muy difícil concentrarme en los lenguajes sin contar con otras fuentes de información que suelen estar disponibles cuando oímos un idioma extranjero, como el lenguaje verbal, los gestos, la entonación, etc.Los 4 fragmentos se me han hecho larguísimos",28.0,yes
120,2024-06-03_20h25.18.445,Experiment4_uns,s196,34.0,feminino,right,España,Español,Master degree,no,no,A,1,conjunction_un,L4,unsyncopated,s2,r2,120,Online_conjL4_un//b.ja.nu2.888.1776.wav,po,ci,bu,sil,ja,pe,ru,sil1,nu,de,sil2,['catch'],[1.651900000005753],[1.651900000005753],0.888,beat,0.7639000000057531,0.7639000000057531,"[""space""]",ja,1,,,,,,,,,,,,,,,4.0,2.0,español,0.0,inglés,10.0,francés,14.0,alemán,16.0,4.0,2.0,no,no,no,nada,,,,"Me ha resultado muy difícil concentrarme en los lenguajes sin contar con otras fuentes de información que suelen estar disponibles cuando oímos un idioma extranjero, como el lenguaje verbal, los gestos, la entonación, etc.Los 4 fragmentos se me han hecho larguísimos",28.0,yes
121,2024-06-03_20h25.18.445,Experiment4_uns,s196,34.0,feminino,right,España,Español,Master degree,no,no,A,1,conjunction_un,L4,unsyncopated,s2,r1,121,Online_conjL4_un//b.ja.nu1.none.none.wav,bo,ci,ru,sil,zi,re,da,sil1,lo,de,sil2,['-'],,,none,none,,,,ja,1,,,,,,,,,,,,,,,4.0,2.0,español,0.0,inglés,10.0,francés,14.0,alemán,16.0,4.0,2.0,no,no,no,nada,,,,"Me ha resultado muy difícil concentrarme en los lenguajes sin contar con otras fuentes de información que suelen estar disponibles cuando oímos un idioma extranjero, como el lenguaje verbal, los gestos, la entonación, etc.Los 4 fragmentos se me han hecho larguísimos",28.0,yes
122,2024-06-03_20h25.18.445,Experiment4_uns,s196,34.0,feminino,right,España,Español,Master degree,no,no,A,1,conjunction_un,L4,unsyncopated,s1,r2,122,Online_conjL4_un//b.ja.nu3.0.888.wav,ja,ña,re,sil,nu,bo,po,sil1,ci,ñi,sil2,['catch'],[0.5898000000120192],[0.5898000000120192],0.0,beat,0.5898000000120192,0.5898000000120192,"[""space""]",ja,1,,,,,,,,,,,,,,,4.0,2.0,español,0.0,inglés,10.0,francés,14.0,alemán,16.0,4.0,2.0,no,no,no,nada,,,,"Me ha resultado muy difícil concentrarme en los lenguajes sin contar con otras fuentes de información que suelen estar disponibles cuando oímos un idioma extranjero, como el lenguaje verbal, los gestos, la entonación, etc.Los 4 fragmentos se me han hecho larguísimos",28.0,yes
123,2024-06-03_20h25.18.445,Experiment4_uns,s196,34.0,feminino,right,España,Español,Master degree,no,no,A,1,conjunction_un,L4,unsyncopated,s2,r1,123,Online_conjL4_un//b.ja.nu0.none.none.wav,de,ru,da,sil,zi,re,pe,sil1,lo,bu,sil2,['-'],,,none,none,,,,ja,1,,,,,,,,,,,,,,,4.0,2.0,español,0.0,inglés,10.0,francés,14.0,alemán,16.0,4.0,2.0,no,no,no,nada,,,,"Me ha resultado muy difícil concentrarme en los lenguajes sin contar con otras fuentes de información que suelen estar disponibles cuando oímos un idioma extranjero, como el lenguaje verbal, los gestos, la entonación, etc.Los 4 fragmentos se me han hecho larguísimos",28.0,yes
124,2024-06-03_20h25.18.445,Experiment4_uns,s196,34.0,feminino,right,España,Español,Master degree,no,no,A,1,conjunction_un,L4,unsyncopated,s2,r2,124,Online_conjL4_un//c.bu.da10.0.1110.wav,bu,po,ña,sil,ja,da,ru,sil1,nu,ñi,sil2,['catch'],[1.133700000017825],[1.133700000017825],0.0,beat,1.133700000017825,1.133700000017825,"[""space""]",bu,3,,,,,,,,,,,,,,,4.0,2.0,español,0.0,inglés,10.0,francés,14.0,alemán,16.0,4.0,2.0,no,no,no,nada,,,,"Me ha resultado muy difícil concentrarme en los lenguajes sin contar con otras fuentes de información que suelen estar disponibles cuando oímos un idioma extranjero, como el lenguaje verbal, los gestos, la entonación, etc.Los 4 fragmentos se me han hecho larguísimos",28.0,yes
125,2024-06-03_20h25.18.445,Experiment4_uns,s196,34.0,feminino,right,España,Español,Master degree,no,no,A,1,conjunction_un,L4,unsyncopated,s2,r2,125,Online_conjL4_un//c.bu.da8.1332.444.wav,ña,ñi,da,sil,ja,ru,bu,sil1,nu,ci,sil2,['catch'],[2.2221999999881064],[2.2221999999881064],1.332,no_beat,0.8901999999881063,0.8901999999881063,"[""space""]",bu,3,,,,,,,,,,,,,,,4.0,2.0,español,0.0,inglés,10.0,francés,14.0,alemán,16.0,4.0,2.0,no,no,no,nada,,,,"Me ha resultado muy difícil concentrarme en los lenguajes sin contar con otras fuentes de información que suelen estar disponibles cuando oímos un idioma extranjero, como el lenguaje verbal, los gestos, la entonación, etc.Los 4 fragmentos se me han hecho larguísimos",28.0,yes
126,2024-06-03_20h25.18.445,Experiment4_uns,s196,34.0,feminino,right,España,Español,Master degree,no,no,A,1,conjunction_un,L4,unsyncopated,s1,r2,126,Online_conjL4_un//c.bu.da9.none.none.wav,ja,re,ñi,sil,nu,ña,de,sil1,bo,po,sil2,['-'],,,none,none,,,,bu,3,,,,,,,,,,,,,,,4.0,2.0,español,0.0,inglés,10.0,francés,14.0,alemán,16.0,4.0,2.0,no,no,no,nada,,,,"Me ha resultado muy difícil concentrarme en los lenguajes sin contar con otras fuentes de información que suelen estar disponibles cuando oímos un idioma extranjero, como el lenguaje verbal, los gestos, la entonación, etc.Los 4 fragmentos se me han hecho larguísimos",28.0,yes
127,2024-06-03_20h25.18.445,Experiment4_uns,s196,34.0,feminino,right,España,Español,Master degree,no,no,A,1,conjunction_un,L4,unsyncopated,s1,r2,127,Online_conjL4_un//c.bu.da11.none.none.wav,ja,bo,ñi,sil,nu,pe,re,sil1,ci,ña,sil2,['-'],,,none,none,,,,bu,3,,,,,,,,,,,,,,,4.0,2.0,español,0.0,inglés,10.0,francés,14.0,alemán,16.0,4.0,2.0,no,no,no,nada,,,,"Me ha resultado muy difícil concentrarme en los lenguajes sin contar con otras fuentes de información que suelen estar disponibles cuando oímos un idioma extranjero, como el lenguaje verbal, los gestos, la entonación, etc.Los 4 fragmentos se me han hecho larguísimos",28.0,yes
128,2024-06-03_20h25.18.445,Experiment4_uns,s196,34.0,feminino,right,España,Español,Master degree,no,no,A,2,what,L1,unsyncopated,s1,r2,0,Online_whatL1//a.pu.ki23.none.none.wav,ta,ne,la,sil2,be,fo,lu,sil,cho,ze,sil1,['-'],,,none,none,,,,ki,2,,,,,,,,,,,,,,,4.0,2.0,español,0.0,inglés,10.0,francés,14.0,alemán,16.0,4.0,2.0,no,no,no,nada,,,,"Me ha resultado muy difícil concentrarme en los lenguajes sin contar con otras fuentes de información que suelen estar disponibles cuando oímos un idioma extranjero, como el lenguaje verbal, los gestos, la entonación, etc.Los 4 fragmentos se me han hecho larguísimos",28.0,yes
129,2024-06-03_20h25.18.445,Experiment4_uns,s196,34.0,feminino,right,España,Español,Master degree,no,no,A,2,what,L1,unsyncopated,s1,r2,1,Online_whatL1//a.pu.ki22.none.none.wav,ta,ne,cho,sil2,be,ro,lu,sil,fa,fo,sil1,['-'],,,none,none,,,,ki,2,,,,,,,,,,,,,,,4.0,2.0,español,0.0,inglés,10.0,francés,14.0,alemán,16.0,4.0,2.0,no,no,no,nada,,,,"Me ha resultado muy difícil concentrarme en los lenguajes sin contar con otras fuentes de información que suelen estar disponibles cuando oímos un idioma extranjero, como el lenguaje verbal, los gestos, la entonación, etc.Los 4 fragmentos se me han hecho larguísimos",28.0,yes
130,2024-06-03_20h25.18.445,Experiment4_uns,s196,34.0,feminino,right,España,Español,Master degree,no,no,A,2,what,L1,unsyncopated,s2,r2,2,Online_whatL1//a.pu.ki21.none.none.wav,ze,fo,ri,sil,ta,lu,cho,sil2,be,la,sil1,['-'],,,none,none,,,,ki,2,,,,,,,,,,,,,,,4.0,2.0,español,0.0,inglés,10.0,francés,14.0,alemán,16.0,4.0,2.0,no,no,no,nada,,,,"Me ha resultado muy difícil concentrarme en los lenguajes sin contar con otras fuentes de información que suelen estar disponibles cuando oímos un idioma extranjero, como el lenguaje verbal, los gestos, la entonación, etc.Los 4 fragmentos se me han hecho larguísimos",28.0,yes
131,2024-06-03_20h25.18.445,Experiment4_uns,s196,34.0,feminino,right,España,Español,Master degree,no,no,A,2,what,L1,unsyncopated,s1,r1,3,Online_whatL1//a.pu.ki20.0.888.wav,pu,ze,ni,sil,ki,la,ne,sil2,zu,ro,sil1,['catch'],[1.4487000000178796],[1.4487000000178796],0.888,beat,0.5607000000178796,0.5607000000178796,"[""space""]",ki,2,,,,,,,,,,,,,,,4.0,2.0,español,0.0,inglés,10.0,francés,14.0,alemán,16.0,4.0,2.0,no,no,no,nada,,,,"Me ha resultado muy difícil concentrarme en los lenguajes sin contar con otras fuentes de información que suelen estar disponibles cuando oímos un idioma extranjero, como el lenguaje verbal, los gestos, la entonación, etc.Los 4 fragmentos se me han hecho larguísimos",28.0,yes
132,2024-06-03_20h25.18.445,Experiment4_uns,s196,34.0,feminino,right,España,Español,Master degree,no,no,A,2,what,L1,unsyncopated,s1,r2,4,Online_whatL1//a.pu.ki2.none.none.wav,ta,zu,lu,sil2,be,ni,ze,sil,ne,fa,sil1,['-'],,,none,none,,,,ki,2,,,,,,,,,,,,,,,4.0,2.0,español,0.0,inglés,10.0,francés,14.0,alemán,16.0,4.0,2.0,no,no,no,nada,,,,"Me ha resultado muy difícil concentrarme en los lenguajes sin contar con otras fuentes de información que suelen estar disponibles cuando oímos un idioma extranjero, como el lenguaje verbal, los gestos, la entonación, etc.Los 4 fragmentos se me han hecho larguísimos",28.0,yes
