Unnamed: 0,date,expName,participant,age,sex,hand,residence,native_lang,education_level,lang_deficit,aud_deficit,group,block,condition,language,rhythm,rule structure online,rule type online,order_trial_on,trial_online,s1,s2,s3,s4,s5,s6,s7,s8,s9,s10,s11,catch_syll_resp,rts_syll_catch,clean_rts,time_syll,beat_no_beat,catch_rtsTR,catch_rts,syllable_catch.keys,cond_syll,syll_to_catch,test_offline,block_off,condition_off,rhythm_off,rule,rule_str_off,rule_norule,conds_offline,language_off,Partz_no_partm.keys,Partz_no_partm.rt,security_1_7.keys,accuracy,security_1_7.rt,n_lang,n_lang_used,lang_1,age_l1,lang_2,age_l2,lang_3,age_l3,ability_learn_l2,tendence_mix_lan,music_experience,muisc_use,partiture,instr_1,age_M1,instr_2,age_M2,preguntas_musica1,BMRQ_answer.response,final comment,BMRQ_Score,bilingual
0,2024-03-25_17h05.20.252,Unsyncopated_study3,s143,18.0,masculino,right,España,"Catalan, Castellano",Upper secondary,no,no,B,1,conjunction_un,L3,unsyncopated,s2,r2,0,Online_conjL3_un//b.ñe.sa4.888.1776.wav,fu,ji,ga,sil,ñe,gu,ko,sil1,sa,ka,sil2,['miss'],,,1.776,beat,,,,36:40,2,testConjL3Uns//r1.s1.1.wav,1.0,conjunction_un,unsyncopated,a,s1,rule,rule,L3,z,1.8425,5.0,1.0,6.8645,3.0,3.0,Catalán,0.0,Castellano,0.0,Inglés,3.0,5.0,4.0,no,no,no,nada,0,nada,0,1. Cuando comparto música con alguien siento una complicidad especial con aquella persona.,4.0,En alguna pausa (no a medio audio) he ido al baño o a por agua,60.0,yes
1,2024-03-25_17h05.20.252,Unsyncopated_study3,s143,18.0,masculino,right,España,"Catalan, Castellano",Upper secondary,no,no,B,1,conjunction_un,L3,unsyncopated,s1,r1,1,Online_conjL3_un//b.ñe.sa7.none.none.wav,chu,gu,ka,sil,mo,di,li,sil1,do,je,sil2,['-'],,,none,none,,,,36:40,2,testConjL3Uns//cat_viol.r1.s1.0.wav,1.0,conjunction_un,unsyncopated,a,s1,no_rule,cat,L3,z,1.0107,6.0,0.0,1.4484,3.0,3.0,Catalán,0.0,Castellano,0.0,Inglés,3.0,5.0,4.0,no,no,no,nada,0,nada,0,2. En mi tiempo libre apenas escucho música.,4.0,En alguna pausa (no a medio audio) he ido al baño o a por agua,60.0,yes
2,2024-03-25_17h05.20.252,Unsyncopated_study3,s143,18.0,masculino,right,España,"Catalan, Castellano",Upper secondary,no,no,B,1,conjunction_un,L3,unsyncopated,s1,r1,2,Online_conjL3_un//b.ñe.sa6.none.none.wav,chu,fu,di,sil,mo,li,do,sil1,ji,le,sil2,['-'],,,none,none,,,,36:40,2,testConjL3Uns//r2.s2.2.wav,1.0,conjunction_un,unsyncopated,b,s2,rule,rule,L3,z,3.7766,4.0,1.0,1.6266,3.0,3.0,Catalán,0.0,Castellano,0.0,Inglés,3.0,5.0,4.0,no,no,no,nada,0,nada,0,3. Algunas canciones me ponen los pelos de punta,3.0,En alguna pausa (no a medio audio) he ido al baño o a por agua,60.0,yes
3,2024-03-25_17h05.20.252,Unsyncopated_study3,s143,18.0,masculino,right,España,"Catalan, Castellano",Upper secondary,no,no,B,1,conjunction_un,L3,unsyncopated,s2,r1,3,Online_conjL3_un//b.ñe.sa5.none.none.wav,li,je,le,sil,chu,di,fu,sil1,mo,ji,sil2,['-'],,,none,none,,,,36:40,2,testConjL3Uns//cat_viol.r2.s1.0.wav,1.0,conjunction_un,unsyncopated,b,s1,no_rule,cat,L3,z,4.1522,5.0,0.0,3.6883,3.0,3.0,Catalán,0.0,Castellano,0.0,Inglés,3.0,5.0,4.0,no,no,no,nada,0,nada,0,4. La música me hace compañía cuando estoy solo,3.0,En alguna pausa (no a medio audio) he ido al baño o a por agua,60.0,yes
4,2024-03-25_17h05.20.252,Unsyncopated_study3,s143,18.0,masculino,right,España,"Catalan, Castellano",Upper secondary,no,no,B,1,conjunction_un,L3,unsyncopated,s1,r1,4,Online_conjL3_un//d.ji.li26.1776.1110.wav,chu,do,ga,sil,mo,li,je,sil1,ji,fu,sil2,['catch'],[2.233400000095344],[2.233400000095344],1.11,no_beat,1.1234000000953437,1.1234000000953437,"[""space""]",120:124,4,testConjL3Uns//r2.s2.0.wav,1.0,conjunction_un,unsyncopated,b,s2,rule,rule,L3,z,5.4339,5.0,1.0,2.0934,3.0,3.0,Catalán,0.0,Castellano,0.0,Inglés,3.0,5.0,4.0,no,no,no,nada,0,nada,0,5. No me apetece bailar ni con la música que más me gusta,5.0,En alguna pausa (no a medio audio) he ido al baño o a por agua,60.0,yes
5,2024-03-25_17h05.20.252,Unsyncopated_study3,s143,18.0,masculino,right,España,"Catalan, Castellano",Upper secondary,no,no,B,1,conjunction_un,L3,unsyncopated,s2,r1,5,Online_conjL3_un//d.ji.li27.none.none.wav,ga,le,ko,sil,chu,gu,ka,sil1,mo,fu,sil2,['-'],,,none,none,,,,120:124,4,testConjL3Uns//dep_viol.r2.s2.0.wav,1.0,conjunction_un,unsyncopated,b,s2,no_rule,dep,L3,m,1.9092,6.0,1.0,3.7327,3.0,3.0,Catalán,0.0,Castellano,0.0,Inglés,3.0,5.0,4.0,no,no,no,nada,0,nada,0,6. La música me hace conectar con la gente,4.0,En alguna pausa (no a medio audio) he ido al baño o a por agua,60.0,yes
6,2024-03-25_17h05.20.252,Unsyncopated_study3,s143,18.0,masculino,right,España,"Catalan, Castellano",Upper secondary,no,no,B,1,conjunction_un,L3,unsyncopated,s2,r1,6,Online_conjL3_un//d.ji.li25.1332.444.wav,di,je,li,sil,chu,le,ji,sil1,mo,ko,sil2,['catch'],[1.26989999997636],[1.26989999997636],0.444,no_beat,0.8258999999763601,0.8258999999763601,"[""space""]",120:124,4,testConjL3Uns//r1.s2.2.wav,1.0,conjunction_un,unsyncopated,a,s2,rule,rule,L3,z,5.5622,4.0,1.0,1.787,3.0,3.0,Catalán,0.0,Castellano,0.0,Inglés,3.0,5.0,4.0,no,no,no,nada,0,nada,0,7. Me informo sobre la música que me gusta.,2.0,En alguna pausa (no a medio audio) he ido al baño o a por agua,60.0,yes
7,2024-03-25_17h05.20.252,Unsyncopated_study3,s143,18.0,masculino,right,España,"Catalan, Castellano",Upper secondary,no,no,B,1,conjunction_un,L3,unsyncopated,s1,r1,7,Online_conjL3_un//d.ji.li24.none.none.wav,chu,le,do,sil,mo,fu,ko,sil1,di,ga,sil2,['-'],,,none,none,,,,120:124,4,testConjL3Uns//r2.s2.1.wav,1.0,conjunction_un,unsyncopated,b,s2,rule,rule,L3,z,3.7668,6.0,1.0,2.2459,3.0,3.0,Catalán,0.0,Castellano,0.0,Inglés,3.0,5.0,4.0,no,no,no,nada,0,nada,0,8.Me emociono escuchando ciertas canciones.,3.0,En alguna pausa (no a medio audio) he ido al baño o a por agua,60.0,yes
8,2024-03-25_17h05.20.252,Unsyncopated_study3,s143,18.0,masculino,right,España,"Catalan, Castellano",Upper secondary,no,no,B,1,conjunction_un,L3,unsyncopated,s1,r1,8,Online_conjL3_un//b.ñe.sa2.none.none.wav,chu,ka,ga,sil,mo,le,gu,sil1,li,di,sil2,['-'],,,none,none,,,,32:36,2,testConjL3Uns//time_viol.r1.s2.0.wav,1.0,conjunction_un,unsyncopated,a,s2,no_rule,time,L3,z,4.7493,3.0,0.0,0.3384,3.0,3.0,Catalán,0.0,Castellano,0.0,Inglés,3.0,5.0,4.0,no,no,no,nada,0,nada,0,9.La música me tranquiliza y me relaja.,2.0,En alguna pausa (no a medio audio) he ido al baño o a por agua,60.0,yes
9,2024-03-25_17h05.20.252,Unsyncopated_study3,s143,18.0,masculino,right,España,"Catalan, Castellano",Upper secondary,no,no,B,1,conjunction_un,L3,unsyncopated,s2,r2,9,Online_conjL3_un//b.ñe.sa3.888.1776.wav,ko,ji,le,sil,ñe,ga,ka,sil1,sa,do,sil2,['catch'],[2.532299999952329],[2.532299999952329],1.776,beat,0.756299999952329,0.756299999952329,"[""space""]",32:36,2,testConjL3Uns//r2.s1.1.wav,1.0,conjunction_un,unsyncopated,b,s1,rule,rule,L3,m,2.2764,4.0,0.0,2.2386,3.0,3.0,Catalán,0.0,Castellano,0.0,Inglés,3.0,5.0,4.0,no,no,no,nada,0,nada,0,10.La música me hace bailar,3.0,En alguna pausa (no a medio audio) he ido al baño o a por agua,60.0,yes
10,2024-03-25_17h05.20.252,Unsyncopated_study3,s143,18.0,masculino,right,España,"Catalan, Castellano",Upper secondary,no,no,B,1,conjunction_un,L3,unsyncopated,s2,r1,10,Online_conjL3_un//b.ñe.sa0.none.none.wav,le,li,do,sil,chu,ko,je,sil1,mo,ga,sil2,['-'],,,none,none,,,,32:36,2,testConjL3Uns//dep_viol.r2.s1.0.wav,1.0,conjunction_un,unsyncopated,b,s1,no_rule,dep,L3,z,3.5204,4.0,0.0,1.4049,3.0,3.0,Catalán,0.0,Castellano,0.0,Inglés,3.0,5.0,4.0,no,no,no,nada,0,nada,0,11.Busco novedades musicales continuamente,3.0,En alguna pausa (no a medio audio) he ido al baño o a por agua,60.0,yes
11,2024-03-25_17h05.20.252,Unsyncopated_study3,s143,18.0,masculino,right,España,"Catalan, Castellano",Upper secondary,no,no,B,1,conjunction_un,L3,unsyncopated,s2,r2,11,Online_conjL3_un//b.ñe.sa1.888.1776.wav,do,gu,je,sil,ñe,di,fu,sil1,sa,ji,sil2,['miss'],,,1.776,beat,,,,32:36,2,testConjL3Uns//time_viol.r2.s2.0.wav,1.0,conjunction_un,unsyncopated,b,s2,no_rule,time,L3,m,3.6546,4.0,1.0,3.0019,3.0,3.0,Catalán,0.0,Castellano,0.0,Inglés,3.0,5.0,4.0,no,no,no,nada,0,nada,0,12. Puedo llorar cuando escucho algunas melodías que me gustan mucho.,2.0,En alguna pausa (no a medio audio) he ido al baño o a por agua,60.0,yes
12,2024-03-25_17h05.20.252,Unsyncopated_study3,s143,18.0,masculino,right,España,"Catalan, Castellano",Upper secondary,no,no,B,1,conjunction_un,L3,unsyncopated,s1,r1,12,Online_conjL3_un//c.gu.je29.none.none.wav,chu,di,fu,sil,mo,li,ji,sil1,do,ga,sil2,['-'],,,none,none,,,,92:96,3,testConjL3Uns//r2.s1.0.wav,1.0,conjunction_un,unsyncopated,b,s1,rule,rule,L3,m,2.3002,6.0,0.0,1.2313,3.0,3.0,Catalán,0.0,Castellano,0.0,Inglés,3.0,5.0,4.0,no,no,no,nada,0,nada,0,13. Me gusta cantar o tocar un instrumento con más gente,3.0,En alguna pausa (no a medio audio) he ido al baño o a por agua,60.0,yes
13,2024-03-25_17h05.20.252,Unsyncopated_study3,s143,18.0,masculino,right,España,"Catalan, Castellano",Upper secondary,no,no,B,1,conjunction_un,L3,unsyncopated,s1,r2,13,Online_conjL3_un//c.gu.je30.none.none.wav,ñe,ka,ko,sil,sa,ga,do,sil1,di,ji,sil2,['-'],,,none,none,,,,92:96,3,testConjL3Uns//cat_viol.r1.s2.0.wav,1.0,conjunction_un,unsyncopated,a,s2,no_rule,cat,L3,m,1.5059,4.0,1.0,1.2191,3.0,3.0,Catalán,0.0,Castellano,0.0,Inglés,3.0,5.0,4.0,no,no,no,nada,0,nada,0,14. La música me ayuda a desconectar.,3.0,En alguna pausa (no a medio audio) he ido al baño o a por agua,60.0,yes
14,2024-03-25_17h05.20.252,Unsyncopated_study3,s143,18.0,masculino,right,España,"Catalan, Castellano",Upper secondary,no,no,B,1,conjunction_un,L3,unsyncopated,s1,r1,14,Online_conjL3_un//c.gu.je31.none.none.wav,chu,ga,di,sil,mo,ji,li,sil1,ka,le,sil2,['-'],,,none,none,,,,92:96,3,testConjL3Uns//r1.s1.2.wav,1.0,conjunction_un,unsyncopated,a,s1,rule,rule,L3,z,2.0231,5.0,1.0,3.9534,3.0,3.0,Catalán,0.0,Castellano,0.0,Inglés,3.0,5.0,4.0,no,no,no,nada,0,nada,0,15. No puedo evitar tararear las canciones que me gustan cuando las escucho.,4.0,En alguna pausa (no a medio audio) he ido al baño o a por agua,60.0,yes
15,2024-03-25_17h05.20.252,Unsyncopated_study3,s143,18.0,masculino,right,España,"Catalan, Castellano",Upper secondary,no,no,B,1,conjunction_un,L3,unsyncopated,s2,r2,15,Online_conjL3_un//c.gu.je28.none.none.wav,ga,do,le,sil,ñe,ji,ka,sil1,sa,ko,sil2,['-'],,,none,none,,,,92:96,3,testConjL3Uns//dep_viol.r1.s2.0.wav,1.0,conjunction_un,unsyncopated,a,s2,no_rule,dep,L3,z,0.9799,6.0,0.0,3.6118,3.0,3.0,Catalán,0.0,Castellano,0.0,Inglés,3.0,5.0,4.0,no,no,no,nada,0,nada,0,16. En los conciertos me siento en sintonía con los artistas y el público.,2.0,En alguna pausa (no a medio audio) he ido al baño o a por agua,60.0,yes
16,2024-03-25_17h05.20.252,Unsyncopated_study3,s143,18.0,masculino,right,España,"Catalan, Castellano",Upper secondary,no,no,B,1,conjunction_un,L3,unsyncopated,s2,r1,16,Online_conjL3_un//a.chu.mo27.888.1776.wav,ji,le,ga,sil,chu,je,ko,sil1,mo,li,sil2,['catch'],[2.472600000023931],[2.472600000023931],0.888,beat,,1.584600000023931,"[""space""]",24:28,1,testConjL3Uns//time_viol.r2.s1.0.wav,1.0,conjunction_un,unsyncopated,b,s1,no_rule,time,L3,m,2.0208,3.0,1.0,4.0643,3.0,3.0,Catalán,0.0,Castellano,0.0,Inglés,3.0,5.0,4.0,no,no,no,nada,0,nada,0,17. Me gasto bastante dinero en música y cosas relacionadas con la música.,0.0,En alguna pausa (no a medio audio) he ido al baño o a por agua,60.0,yes
17,2024-03-25_17h05.20.252,Unsyncopated_study3,s143,18.0,masculino,right,España,"Catalan, Castellano",Upper secondary,no,no,B,1,conjunction_un,L3,unsyncopated,s2,r2,17,Online_conjL3_un//a.chu.mo24.none.none.wav,je,ka,ga,sil,ñe,do,fu,sil1,sa,gu,sil2,['-'],,,none,none,,,,24:28,1,testConjL3Uns//time_viol.r1.s1.0.wav,1.0,conjunction_un,unsyncopated,a,s1,no_rule,time,L3,z,5.3724,4.0,0.0,0.3498,3.0,3.0,Catalán,0.0,Castellano,0.0,Inglés,3.0,5.0,4.0,no,no,no,nada,0,nada,0,18. Siento escalofríos cuando escucho una melodía que me gusta.,3.0,En alguna pausa (no a medio audio) he ido al baño o a por agua,60.0,yes
18,2024-03-25_17h05.20.252,Unsyncopated_study3,s143,18.0,masculino,right,España,"Catalan, Castellano",Upper secondary,no,no,B,1,conjunction_un,L3,unsyncopated,s2,r1,18,Online_conjL3_un//a.chu.mo26.888.1776.wav,le,ko,fu,sil,chu,di,li,sil1,mo,ga,sil2,['catch'],[1.7077999999523854],[1.7077999999523854],0.888,beat,0.8197999999523854,0.8197999999523854,"[""space""]",24:28,1,testConjL3Uns//cat_viol.r2.s2.0.wav,1.0,conjunction_un,unsyncopated,b,s2,no_rule,cat,L3,m,3.666,4.0,1.0,1.0278,3.0,3.0,Catalán,0.0,Castellano,0.0,Inglés,3.0,5.0,4.0,no,no,no,nada,0,nada,0,19. Con la música me puedo desahogar.,4.0,En alguna pausa (no a medio audio) he ido al baño o a por agua,60.0,yes
19,2024-03-25_17h05.20.252,Unsyncopated_study3,s143,18.0,masculino,right,España,"Catalan, Castellano",Upper secondary,no,no,B,1,conjunction_un,L3,unsyncopated,s1,r1,19,Online_conjL3_un//a.chu.mo25.0.888.wav,chu,li,ka,sil,mo,ga,ko,sil1,je,ji,sil2,['catch'],[0.9539999999999509],[0.9539999999999509],0.0,beat,0.9539999999999508,0.9539999999999508,"[""space""]",24:28,1,testConjL3Uns//r1.s1.0.wav,1.0,conjunction_un,unsyncopated,a,s1,rule,rule,L3,m,3.7996,5.0,0.0,1.822,3.0,3.0,Catalán,0.0,Castellano,0.0,Inglés,3.0,5.0,4.0,no,no,no,nada,0,nada,0,20. Cuando escucho una melodía que me gusta mucho no puedo evitar mover el cuerpo.,3.0,En alguna pausa (no a medio audio) he ido al baño o a por agua,60.0,yes
20,2024-03-25_17h05.20.252,Unsyncopated_study3,s143,18.0,masculino,right,España,"Catalan, Castellano",Upper secondary,no,no,B,1,conjunction_un,L3,unsyncopated,s1,r1,20,Online_conjL3_un//c.gu.je13.none.none.wav,chu,di,ko,sil,mo,ji,le,sil1,fu,li,sil2,['-'],,,none,none,,,,76:80,3,testConjL3Uns//r2.s1.2.wav,1.0,conjunction_un,unsyncopated,b,s1,rule,rule,L3,m,2.9451,3.0,0.0,1.9303,3.0,3.0,Catalán,0.0,Castellano,0.0,Inglés,3.0,5.0,4.0,no,no,no,nada,0,nada,0,,,En alguna pausa (no a medio audio) he ido al baño o a por agua,60.0,yes
21,2024-03-25_17h05.20.252,Unsyncopated_study3,s143,18.0,masculino,right,España,"Catalan, Castellano",Upper secondary,no,no,B,1,conjunction_un,L3,unsyncopated,s1,r2,21,Online_conjL3_un//c.gu.je14.444.1332.wav,ñe,ka,gu,sil,sa,li,je,sil1,le,di,sil2,['catch'],[2.11360000002378],[2.11360000002378],1.332,no_beat,0.7816000000237799,0.7816000000237799,"[""space""]",76:80,3,testConjL3Uns//r1.s2.0.wav,1.0,conjunction_un,unsyncopated,a,s2,rule,rule,L3,m,1.4942,2.0,0.0,1.7701,3.0,3.0,Catalán,0.0,Castellano,0.0,Inglés,3.0,5.0,4.0,no,no,no,nada,0,nada,0,,,En alguna pausa (no a medio audio) he ido al baño o a por agua,60.0,yes
22,2024-03-25_17h05.20.252,Unsyncopated_study3,s143,18.0,masculino,right,España,"Catalan, Castellano",Upper secondary,no,no,B,1,conjunction_un,L3,unsyncopated,s2,r2,22,Online_conjL3_un//c.gu.je15.none.none.wav,fu,ko,li,sil,ñe,ka,le,sil1,sa,di,sil2,['-'],,,none,none,,,,76:80,3,testConjL3Uns//dep_viol.r1.s1.0.wav,1.0,conjunction_un,unsyncopated,a,s1,no_rule,dep,L3,z,7.8407,4.0,0.0,2.8078,3.0,3.0,Catalán,0.0,Castellano,0.0,Inglés,3.0,5.0,4.0,no,no,no,nada,0,nada,0,,,En alguna pausa (no a medio audio) he ido al baño o a por agua,60.0,yes
23,2024-03-25_17h05.20.252,Unsyncopated_study3,s143,18.0,masculino,right,España,"Catalan, Castellano",Upper secondary,no,no,B,1,conjunction_un,L3,unsyncopated,s1,r1,23,Online_conjL3_un//c.gu.je12.none.none.wav,chu,ga,le,sil,mo,do,li,sil1,ji,fu,sil2,['-'],,,none,none,,,,76:80,3,testConjL3Uns//r1.s2.1.wav,1.0,conjunction_un,unsyncopated,a,s2,rule,rule,L3,z,6.6795,3.0,1.0,0.6213,3.0,3.0,Catalán,0.0,Castellano,0.0,Inglés,3.0,5.0,4.0,no,no,no,nada,0,nada,0,,,En alguna pausa (no a medio audio) he ido al baño o a por agua,60.0,yes
24,2024-03-25_17h05.20.252,Unsyncopated_study3,s143,18.0,masculino,right,España,"Catalan, Castellano",Upper secondary,no,no,B,1,conjunction_un,L3,unsyncopated,s2,r2,24,Online_conjL3_un//d.ji.li1.0.1110.wav,ji,ko,gu,sil,ñe,li,fu,sil1,sa,di,sil2,['catch'],[2.0248999999760144],[2.0248999999760144],1.11,no_beat,0.9148999999760145,0.9148999999760145,"[""space""]",96:100,4,testConjL2Syn//r1.s1.2.wav,2.0,conjunction_syn,syncopated,a,s1,rule,rule,L2,m,3.9057,5.0,0.0,2.8333,3.0,3.0,Catalán,0.0,Castellano,0.0,Inglés,3.0,5.0,4.0,no,no,no,nada,0,nada,0,,,En alguna pausa (no a medio audio) he ido al baño o a por agua,60.0,yes
25,2024-03-25_17h05.20.252,Unsyncopated_study3,s143,18.0,masculino,right,España,"Catalan, Castellano",Upper secondary,no,no,B,1,conjunction_un,L3,unsyncopated,s2,r1,25,Online_conjL3_un//d.ji.li0.none.none.wav,je,fu,do,sil,chu,ga,ka,sil1,mo,gu,sil2,['-'],,,none,none,,,,96:100,4,testConjL2Syn//r2.s2.1.wav,2.0,conjunction_syn,syncopated,b,s2,rule,rule,L2,z,2.9478,6.0,1.0,1.3846,3.0,3.0,Catalán,0.0,Castellano,0.0,Inglés,3.0,5.0,4.0,no,no,no,nada,0,nada,0,,,En alguna pausa (no a medio audio) he ido al baño o a por agua,60.0,yes
26,2024-03-25_17h05.20.252,Unsyncopated_study3,s143,18.0,masculino,right,España,"Catalan, Castellano",Upper secondary,no,no,B,1,conjunction_un,L3,unsyncopated,s1,r1,26,Online_conjL3_un//d.ji.li2.222.444.wav,chu,ji,li,sil,mo,je,ko,sil1,fu,ga,sil2,['catch'],[1.3144999999999527],[1.3144999999999527],0.444,no_beat,0.8704999999999528,0.8704999999999528,"[""space""]",96:100,4,testConjL2Syn//cat_viol.r1.s2.0.wav,2.0,conjunction_syn,syncopated,a,s2,no_rule,cat,L2,z,6.7022,6.0,0.0,1.6496,3.0,3.0,Catalán,0.0,Castellano,0.0,Inglés,3.0,5.0,4.0,no,no,no,nada,0,nada,0,,,En alguna pausa (no a medio audio) he ido al baño o a por agua,60.0,yes
27,2024-03-25_17h05.20.252,Unsyncopated_study3,s143,18.0,masculino,right,España,"Catalan, Castellano",Upper secondary,no,no,B,1,conjunction_un,L3,unsyncopated,s2,r2,27,Online_conjL3_un//d.ji.li3.444.1110.wav,gu,je,ji,sil,ñe,li,fu,sil1,sa,do,sil2,['miss'],,,1.11,no_beat,,,,96:100,4,testConjL2Syn//dep_viol.r2.s1.0.wav,2.0,conjunction_syn,syncopated,b,s1,no_rule,dep,L2,z,1.7285,6.0,0.0,2.8528,3.0,3.0,Catalán,0.0,Castellano,0.0,Inglés,3.0,5.0,4.0,no,no,no,nada,0,nada,0,,,En alguna pausa (no a medio audio) he ido al baño o a por agua,60.0,yes
28,2024-03-25_17h05.20.252,Unsyncopated_study3,s143,18.0,masculino,right,España,"Catalan, Castellano",Upper secondary,no,no,B,1,conjunction_un,L3,unsyncopated,s2,r2,28,Online_conjL3_un//a.chu.mo22.none.none.wav,ko,le,ga,sil,ñe,ji,di,sil1,sa,ka,sil2,['-'],,,none,none,,,,20:24,1,testConjL2Syn//dep_viol.r1.s2.0.wav,2.0,conjunction_syn,syncopated,a,s2,no_rule,dep,L2,z,1.5643,7.0,0.0,1.242,3.0,3.0,Catalán,0.0,Castellano,0.0,Inglés,3.0,5.0,4.0,no,no,no,nada,0,nada,0,,,En alguna pausa (no a medio audio) he ido al baño o a por agua,60.0,yes
29,2024-03-25_17h05.20.252,Unsyncopated_study3,s143,18.0,masculino,right,España,"Catalan, Castellano",Upper secondary,no,no,B,1,conjunction_un,L3,unsyncopated,s1,r2,29,Online_conjL3_un//a.chu.mo23.none.none.wav,ñe,li,le,sil,sa,do,ji,sil1,je,gu,sil2,['-'],,,none,none,,,,20:24,1,testConjL2Syn//r2.s1.0.wav,2.0,conjunction_syn,syncopated,b,s1,rule,rule,L2,z,6.0046,4.0,1.0,1.6578,3.0,3.0,Catalán,0.0,Castellano,0.0,Inglés,3.0,5.0,4.0,no,no,no,nada,0,nada,0,,,En alguna pausa (no a medio audio) he ido al baño o a por agua,60.0,yes
30,2024-03-25_17h05.20.252,Unsyncopated_study3,s143,18.0,masculino,right,España,"Catalan, Castellano",Upper secondary,no,no,B,1,conjunction_un,L3,unsyncopated,s1,r1,30,Online_conjL3_un//a.chu.mo20.0.888.wav,chu,gu,di,sil,mo,ka,li,sil1,le,ji,sil2,['catch'],[0.9493000000716165],[0.9493000000716165],0.0,beat,0.9493000000716164,0.9493000000716164,"[""space""]",20:24,1,testConjL2Syn//r2.s1.2.wav,2.0,conjunction_syn,syncopated,b,s1,rule,rule,L2,z,5.5735,5.0,1.0,1.3045,3.0,3.0,Catalán,0.0,Castellano,0.0,Inglés,3.0,5.0,4.0,no,no,no,nada,0,nada,0,,,En alguna pausa (no a medio audio) he ido al baño o a por agua,60.0,yes
31,2024-03-25_17h05.20.252,Unsyncopated_study3,s143,18.0,masculino,right,España,"Catalan, Castellano",Upper secondary,no,no,B,1,conjunction_un,L3,unsyncopated,s2,r2,31,Online_conjL3_un//a.chu.mo21.none.none.wav,ko,di,li,sil,ñe,ka,ji,sil1,sa,do,sil2,['-'],,,none,none,,,,20:24,1,testConjL2Syn//r1.s1.1.wav,2.0,conjunction_syn,syncopated,a,s1,rule,rule,L2,z,5.8768,6.0,1.0,0.4917,3.0,3.0,Catalán,0.0,Castellano,0.0,Inglés,3.0,5.0,4.0,no,no,no,nada,0,nada,0,,,En alguna pausa (no a medio audio) he ido al baño o a por agua,60.0,yes
32,2024-03-25_17h05.20.252,Unsyncopated_study3,s143,18.0,masculino,right,España,"Catalan, Castellano",Upper secondary,no,no,B,1,conjunction_un,L3,unsyncopated,s2,r2,32,Online_conjL3_un//c.gu.je27.222.1110.wav,li,gu,ji,sil,ñe,je,ka,sil1,sa,ga,sil2,['miss'],,,1.11,no_beat,,,,88:92,3,testConjL2Syn//r1.s1.0.wav,2.0,conjunction_syn,syncopated,a,s1,rule,rule,L2,z,5.3902,5.0,1.0,0.4269,3.0,3.0,Catalán,0.0,Castellano,0.0,Inglés,3.0,5.0,4.0,no,no,no,nada,0,nada,0,,,En alguna pausa (no a medio audio) he ido al baño o a por agua,60.0,yes
33,2024-03-25_17h05.20.252,Unsyncopated_study3,s143,18.0,masculino,right,España,"Catalan, Castellano",Upper secondary,no,no,B,1,conjunction_un,L3,unsyncopated,s2,r1,33,Online_conjL3_un//c.gu.je24.none.none.wav,di,ji,le,sil,chu,li,fu,sil1,mo,do,sil2,['-'],,,none,none,,,,88:92,3,testConjL2Syn//r2.s2.2.wav,2.0,conjunction_syn,syncopated,b,s2,rule,rule,L2,m,3.1977,3.0,0.0,1.744,3.0,3.0,Catalán,0.0,Castellano,0.0,Inglés,3.0,5.0,4.0,no,no,no,nada,0,nada,0,,,En alguna pausa (no a medio audio) he ido al baño o a por agua,60.0,yes
34,2024-03-25_17h05.20.252,Unsyncopated_study3,s143,18.0,masculino,right,España,"Catalan, Castellano",Upper secondary,no,no,B,1,conjunction_un,L3,unsyncopated,s2,r2,34,Online_conjL3_un//c.gu.je25.none.none.wav,le,li,ji,sil,ñe,ka,fu,sil1,sa,di,sil2,['-'],,,none,none,,,,88:92,3,testConjL2Syn//r1.s2.0.wav,2.0,conjunction_syn,syncopated,a,s2,rule,rule,L2,z,4.9299,4.0,1.0,1.5821,3.0,3.0,Catalán,0.0,Castellano,0.0,Inglés,3.0,5.0,4.0,no,no,no,nada,0,nada,0,,,En alguna pausa (no a medio audio) he ido al baño o a por agua,60.0,yes
35,2024-03-25_17h05.20.252,Unsyncopated_study3,s143,18.0,masculino,right,España,"Catalan, Castellano",Upper secondary,no,no,B,1,conjunction_un,L3,unsyncopated,s2,r2,35,Online_conjL3_un//c.gu.je26.222.444.wav,do,gu,je,sil,ñe,le,ko,sil1,sa,ka,sil2,['catch'],[1.51010000002384],[1.51010000002384],0.444,no_beat,1.06610000002384,1.06610000002384,"[""space""]",88:92,3,testConjL2Syn//time_viol.r1.s1.0.wav,2.0,conjunction_syn,syncopated,a,s1,no_rule,time,L2,m,6.4007,5.0,1.0,1.0879,3.0,3.0,Catalán,0.0,Castellano,0.0,Inglés,3.0,5.0,4.0,no,no,no,nada,0,nada,0,,,En alguna pausa (no a medio audio) he ido al baño o a por agua,60.0,yes
36,2024-03-25_17h05.20.252,Unsyncopated_study3,s143,18.0,masculino,right,España,"Catalan, Castellano",Upper secondary,no,no,B,1,conjunction_un,L3,unsyncopated,s2,r1,36,Online_conjL3_un//c.gu.je5.1332.222.wav,do,je,ka,sil,chu,di,gu,sil1,mo,ji,sil2,['catch'],[1.072499999999991],[1.072499999999991],0.222,no_beat,0.8504999999999909,0.8504999999999909,"[""space""]",68:72,3,testConjL2Syn//cat_viol.r2.s2.0.wav,2.0,conjunction_syn,syncopated,b,s2,no_rule,cat,L2,m,4.9547,3.0,1.0,1.2389,3.0,3.0,Catalán,0.0,Castellano,0.0,Inglés,3.0,5.0,4.0,no,no,no,nada,0,nada,0,,,En alguna pausa (no a medio audio) he ido al baño o a por agua,60.0,yes
37,2024-03-25_17h05.20.252,Unsyncopated_study3,s143,18.0,masculino,right,España,"Catalan, Castellano",Upper secondary,no,no,B,1,conjunction_un,L3,unsyncopated,s1,r2,37,Online_conjL3_un//c.gu.je6.1110.222.wav,ñe,je,ko,sil,sa,gu,di,sil1,do,fu,sil2,['catch'],[1.0732000000475637],[1.0732000000475637],0.222,no_beat,0.8512000000475637,0.8512000000475637,"[""space""]",68:72,3,testConjL2Syn//time_viol.r2.s2.0.wav,2.0,conjunction_syn,syncopated,b,s2,no_rule,time,L2,m,1.3132,5.0,1.0,1.1093,3.0,3.0,Catalán,0.0,Castellano,0.0,Inglés,3.0,5.0,4.0,no,no,no,nada,0,nada,0,,,En alguna pausa (no a medio audio) he ido al baño o a por agua,60.0,yes
38,2024-03-25_17h05.20.252,Unsyncopated_study3,s143,18.0,masculino,right,España,"Catalan, Castellano",Upper secondary,no,no,B,1,conjunction_un,L3,unsyncopated,s2,r2,38,Online_conjL3_un//c.gu.je4.444.0.wav,je,ji,gu,sil,ñe,ka,li,sil1,sa,fu,sil2,['catch'],[0.9957999999523963],[0.9957999999523963],0.0,beat,0.9957999999523964,0.9957999999523964,"[""space""]",68:72,3,testConjL2Syn//cat_viol.r1.s1.0.wav,2.0,conjunction_syn,syncopated,a,s1,no_rule,cat,L2,m,3.3393,4.0,1.0,0.7445,3.0,3.0,Catalán,0.0,Castellano,0.0,Inglés,3.0,5.0,4.0,no,no,no,nada,0,nada,0,,,En alguna pausa (no a medio audio) he ido al baño o a por agua,60.0,yes
39,2024-03-25_17h05.20.252,Unsyncopated_study3,s143,18.0,masculino,right,España,"Catalan, Castellano",Upper secondary,no,no,B,1,conjunction_un,L3,unsyncopated,s1,r2,39,Online_conjL3_un//c.gu.je7.none.none.wav,ñe,ka,ji,sil,sa,do,le,sil1,di,fu,sil2,['-'],,,none,none,,,,68:72,3,testConjL2Syn//r2.s1.1.wav,2.0,conjunction_syn,syncopated,b,s1,rule,rule,L2,z,3.3087,5.0,1.0,0.6205,3.0,3.0,Catalán,0.0,Castellano,0.0,Inglés,3.0,5.0,4.0,no,no,no,nada,0,nada,0,,,En alguna pausa (no a medio audio) he ido al baño o a por agua,60.0,yes
40,2024-03-25_17h05.20.252,Unsyncopated_study3,s143,18.0,masculino,right,España,"Catalan, Castellano",Upper secondary,no,no,B,1,conjunction_un,L3,unsyncopated,s2,r2,40,Online_conjL3_un//b.ñe.sa9.888.1776.wav,le,ji,ga,sil,ñe,do,ka,sil1,sa,li,sil2,['miss'],,,1.776,beat,,,,40:44,2,testConjL2Syn//dep_viol.r2.s2.0.wav,2.0,conjunction_syn,syncopated,b,s2,no_rule,dep,L2,z,5.7911,3.0,0.0,1.5626,3.0,3.0,Catalán,0.0,Castellano,0.0,Inglés,3.0,5.0,4.0,no,no,no,nada,0,nada,0,,,En alguna pausa (no a medio audio) he ido al baño o a por agua,60.0,yes
41,2024-03-25_17h05.20.252,Unsyncopated_study3,s143,18.0,masculino,right,España,"Catalan, Castellano",Upper secondary,no,no,B,1,conjunction_un,L3,unsyncopated,s1,r2,41,Online_conjL3_un//b.ñe.sa8.0.888.wav,ñe,li,je,sil,sa,ka,ga,sil1,fu,do,sil2,['catch'],[1.9060999999046544],[1.9060999999046544],0.888,beat,1.0180999999046545,1.0180999999046545,"[""space""]",40:44,2,testConjL2Syn//time_viol.r2.s1.0.wav,2.0,conjunction_syn,syncopated,b,s1,no_rule,time,L2,z,7.6732,3.0,0.0,0.8625,3.0,3.0,Catalán,0.0,Castellano,0.0,Inglés,3.0,5.0,4.0,no,no,no,nada,0,nada,0,,,En alguna pausa (no a medio audio) he ido al baño o a por agua,60.0,yes
42,2024-03-25_17h05.20.252,Unsyncopated_study3,s143,18.0,masculino,right,España,"Catalan, Castellano",Upper secondary,no,no,B,1,conjunction_un,L3,unsyncopated,s2,r1,42,Online_conjL3_un//b.ñe.sa10.none.none.wav,do,je,le,sil,chu,di,fu,sil1,mo,ji,sil2,['-'],,,none,none,,,,40:44,2,testConjL2Syn//dep_viol.r1.s1.0.wav,2.0,conjunction_syn,syncopated,a,s1,no_rule,dep,L2,z,3.1124,1.0,0.0,3.4058,3.0,3.0,Catalán,0.0,Castellano,0.0,Inglés,3.0,5.0,4.0,no,no,no,nada,0,nada,0,,,En alguna pausa (no a medio audio) he ido al baño o a por agua,60.0,yes
43,2024-03-25_17h05.20.252,Unsyncopated_study3,s143,18.0,masculino,right,España,"Catalan, Castellano",Upper secondary,no,no,B,1,conjunction_un,L3,unsyncopated,s1,r1,43,Online_conjL3_un//b.ñe.sa11.none.none.wav,chu,ka,fu,sil,mo,ga,ji,sil1,je,le,sil2,['-'],,,none,none,,,,40:44,2,testConjL2Syn//cat_viol.r2.s1.0.wav,2.0,conjunction_syn,syncopated,b,s1,no_rule,cat,L2,z,3.5651,6.0,0.0,0.3733,3.0,3.0,Catalán,0.0,Castellano,0.0,Inglés,3.0,5.0,4.0,no,no,no,nada,0,nada,0,,,En alguna pausa (no a medio audio) he ido al baño o a por agua,60.0,yes
44,2024-03-25_17h05.20.252,Unsyncopated_study3,s143,18.0,masculino,right,España,"Catalan, Castellano",Upper secondary,no,no,B,1,conjunction_un,L3,unsyncopated,s1,r2,44,Online_conjL3_un//a.chu.mo16.none.none.wav,ñe,ga,je,sil,sa,li,ko,sil1,fu,gu,sil2,['-'],,,none,none,,,,16:20,1,testConjL2Syn//r1.s2.2.wav,2.0,conjunction_syn,syncopated,a,s2,rule,rule,L2,z,1.4492,4.0,1.0,1.0569,3.0,3.0,Catalán,0.0,Castellano,0.0,Inglés,3.0,5.0,4.0,no,no,no,nada,0,nada,0,,,En alguna pausa (no a medio audio) he ido al baño o a por agua,60.0,yes
45,2024-03-25_17h05.20.252,Unsyncopated_study3,s143,18.0,masculino,right,España,"Catalan, Castellano",Upper secondary,no,no,B,1,conjunction_un,L3,unsyncopated,s2,r1,45,Online_conjL3_un//a.chu.mo18.888.1776.wav,do,fu,ka,sil,chu,ko,ga,sil1,mo,ji,sil2,['catch'],[1.7712999999521344],[1.7712999999521344],0.888,beat,0.8832999999521344,0.8832999999521344,"[""space""]",16:20,1,testConjL2Syn//r1.s2.1.wav,2.0,conjunction_syn,syncopated,a,s2,rule,rule,L2,z,12.4868,1.0,1.0,0.4338,3.0,3.0,Catalán,0.0,Castellano,0.0,Inglés,3.0,5.0,4.0,no,no,no,nada,0,nada,0,,,En alguna pausa (no a medio audio) he ido al baño o a por agua,60.0,yes
46,2024-03-25_17h05.20.252,Unsyncopated_study3,s143,18.0,masculino,right,España,"Catalan, Castellano",Upper secondary,no,no,B,1,conjunction_un,L3,unsyncopated,s1,r2,46,Online_conjL3_un//a.chu.mo19.none.none.wav,ñe,ji,je,sil,sa,fu,di,sil1,li,ko,sil2,['-'],,,none,none,,,,16:20,1,testConjL2Syn//r2.s2.0.wav,2.0,conjunction_syn,syncopated,b,s2,rule,rule,L2,m,3.7978,4.0,0.0,0.7373,3.0,3.0,Catalán,0.0,Castellano,0.0,Inglés,3.0,5.0,4.0,no,no,no,nada,0,nada,0,,,En alguna pausa (no a medio audio) he ido al baño o a por agua,60.0,yes
47,2024-03-25_17h05.20.252,Unsyncopated_study3,s143,18.0,masculino,right,España,"Catalan, Castellano",Upper secondary,no,no,B,1,conjunction_un,L3,unsyncopated,s1,r2,47,Online_conjL3_un//a.chu.mo17.none.none.wav,ñe,li,do,sil,sa,je,gu,sil1,fu,ko,sil2,['-'],,,none,none,,,,16:20,1,testConjL2Syn//time_viol.r1.s2.0.wav,2.0,conjunction_syn,syncopated,a,s2,no_rule,time,L2,z,2.8343,5.0,0.0,0.835,3.0,3.0,Catalán,0.0,Castellano,0.0,Inglés,3.0,5.0,4.0,no,no,no,nada,0,nada,0,,,En alguna pausa (no a medio audio) he ido al baño o a por agua,60.0,yes
48,2024-03-25_17h05.20.252,Unsyncopated_study3,s143,18.0,masculino,right,España,"Catalan, Castellano",Upper secondary,no,no,B,1,conjunction_un,L3,unsyncopated,s1,r1,48,Online_conjL3_un//a.chu.mo3.0.888.wav,chu,fu,ko,sil,mo,je,gu,sil1,do,li,sil2,['catch'],[0.8734000000949891],[0.8734000000949891],0.0,beat,0.8734000000949891,0.8734000000949891,"[""space""]",0:4,1,testWhatL4Uns//dep_viol.r2.s2.0.wav,3.0,what,unsyncopated,b,s2,no_rule,dep,L4,m,2.388,6.0,1.0,2.4342,3.0,3.0,Catalán,0.0,Castellano,0.0,Inglés,3.0,5.0,4.0,no,no,no,nada,0,nada,0,,,En alguna pausa (no a medio audio) he ido al baño o a por agua,60.0,yes
49,2024-03-25_17h05.20.252,Unsyncopated_study3,s143,18.0,masculino,right,España,"Catalan, Castellano",Upper secondary,no,no,B,1,conjunction_un,L3,unsyncopated,s2,r1,49,Online_conjL3_un//a.chu.mo0.888.1776.wav,li,gu,fu,sil,chu,ga,ji,sil1,mo,do,sil2,['catch'],[1.9557000000477274],[1.9557000000477274],0.888,beat,1.0677000000477277,1.0677000000477277,"[""space""]",0:4,1,testWhatL4Uns//r2.s2.0.wav,3.0,what,unsyncopated,b,s2,rule,rule,L4,m,1.259,5.0,0.0,1.4817,3.0,3.0,Catalán,0.0,Castellano,0.0,Inglés,3.0,5.0,4.0,no,no,no,nada,0,nada,0,,,En alguna pausa (no a medio audio) he ido al baño o a por agua,60.0,yes
50,2024-03-25_17h05.20.252,Unsyncopated_study3,s143,18.0,masculino,right,España,"Catalan, Castellano",Upper secondary,no,no,B,1,conjunction_un,L3,unsyncopated,s1,r2,50,Online_conjL3_un//a.chu.mo2.none.none.wav,ñe,do,ji,sil,sa,li,fu,sil1,je,ko,sil2,['-'],,,none,none,,,,0:4,1,testWhatL4Uns//r1.s1.0.wav,3.0,what,unsyncopated,a,s1,rule,rule,L4,m,0.8498,5.0,0.0,3.6244,3.0,3.0,Catalán,0.0,Castellano,0.0,Inglés,3.0,5.0,4.0,no,no,no,nada,0,nada,0,,,En alguna pausa (no a medio audio) he ido al baño o a por agua,60.0,yes
51,2024-03-25_17h05.20.252,Unsyncopated_study3,s143,18.0,masculino,right,España,"Catalan, Castellano",Upper secondary,no,no,B,1,conjunction_un,L3,unsyncopated,s2,r2,51,Online_conjL3_un//a.chu.mo1.none.none.wav,di,je,gu,sil,ñe,ko,ji,sil1,sa,ka,sil2,['-'],,,none,none,,,,0:4,1,testWhatL4Uns//r1.s2.2.wav,3.0,what,unsyncopated,a,s2,rule,rule,L4,z,0.9516,4.0,1.0,1.3907,3.0,3.0,Catalán,0.0,Castellano,0.0,Inglés,3.0,5.0,4.0,no,no,no,nada,0,nada,0,,,En alguna pausa (no a medio audio) he ido al baño o a por agua,60.0,yes
52,2024-03-25_17h05.20.252,Unsyncopated_study3,s143,18.0,masculino,right,España,"Catalan, Castellano",Upper secondary,no,no,B,1,conjunction_un,L3,unsyncopated,s2,r1,52,Online_conjL3_un//d.ji.li31.none.none.wav,do,je,ka,sil,chu,di,le,sil1,mo,ko,sil2,['false alarm'],[2.5228999999758344],[2.5228999999758344],none,none,,,"[""space""]",124:128,4,testWhatL4Uns//cat_viol.r2.s1.0.wav,3.0,what,unsyncopated,b,s1,no_rule,cat,L4,z,5.7968,5.0,0.0,1.1148,3.0,3.0,Catalán,0.0,Castellano,0.0,Inglés,3.0,5.0,4.0,no,no,no,nada,0,nada,0,,,En alguna pausa (no a medio audio) he ido al baño o a por agua,60.0,yes
53,2024-03-25_17h05.20.252,Unsyncopated_study3,s143,18.0,masculino,right,España,"Catalan, Castellano",Upper secondary,no,no,B,1,conjunction_un,L3,unsyncopated,s1,r1,53,Online_conjL3_un//d.ji.li29.1776.222.wav,chu,li,ka,sil,mo,je,fu,sil1,ji,ko,sil2,['catch'],[1.2042000000478765],[1.2042000000478765],0.222,no_beat,0.9822000000478766,0.9822000000478766,"[""space""]",124:128,4,testWhatL4Uns//r2.s2.1.wav,3.0,what,unsyncopated,b,s2,rule,rule,L4,z,1.0779,6.0,1.0,1.564,3.0,3.0,Catalán,0.0,Castellano,0.0,Inglés,3.0,5.0,4.0,no,no,no,nada,0,nada,0,,,En alguna pausa (no a medio audio) he ido al baño o a por agua,60.0,yes
54,2024-03-25_17h05.20.252,Unsyncopated_study3,s143,18.0,masculino,right,España,"Catalan, Castellano",Upper secondary,no,no,B,1,conjunction_un,L3,unsyncopated,s2,r1,54,Online_conjL3_un//d.ji.li30.none.none.wav,di,je,ga,sil,chu,ko,gu,sil1,mo,do,sil2,['-'],,,none,none,,,,124:128,4,testWhatL4Uns//cat_viol.r2.s2.0.wav,3.0,what,unsyncopated,b,s2,no_rule,cat,L4,m,2.2649,4.0,1.0,1.808,3.0,3.0,Catalán,0.0,Castellano,0.0,Inglés,3.0,5.0,4.0,no,no,no,nada,0,nada,0,,,En alguna pausa (no a medio audio) he ido al baño o a por agua,60.0,yes
55,2024-03-25_17h05.20.252,Unsyncopated_study3,s143,18.0,masculino,right,España,"Catalan, Castellano",Upper secondary,no,no,B,1,conjunction_un,L3,unsyncopated,s1,r1,55,Online_conjL3_un//d.ji.li28.none.none.wav,chu,ko,di,sil,mo,do,ga,sil1,le,ka,sil2,['false alarm'],[1.2683000000711218],[1.2683000000711218],none,none,,,"[""space""]",124:128,4,testWhatL4Uns//r1.s1.1.wav,3.0,what,unsyncopated,a,s1,rule,rule,L4,z,1.0744,7.0,1.0,4.5167,3.0,3.0,Catalán,0.0,Castellano,0.0,Inglés,3.0,5.0,4.0,no,no,no,nada,0,nada,0,,,En alguna pausa (no a medio audio) he ido al baño o a por agua,60.0,yes
56,2024-03-25_17h05.20.252,Unsyncopated_study3,s143,18.0,masculino,right,España,"Catalan, Castellano",Upper secondary,no,no,B,1,conjunction_un,L3,unsyncopated,s2,r1,56,Online_conjL3_un//b.ñe.sa26.none.none.wav,do,je,gu,sil,chu,ga,ko,sil1,mo,ka,sil2,['-'],,,none,none,,,,56:60,2,testWhatL4Uns//time_viol.r1.s2.0.wav,3.0,what,unsyncopated,a,s2,no_rule,time,L4,m,8.1062,1.0,1.0,0.9344,3.0,3.0,Catalán,0.0,Castellano,0.0,Inglés,3.0,5.0,4.0,no,no,no,nada,0,nada,0,,,En alguna pausa (no a medio audio) he ido al baño o a por agua,60.0,yes
57,2024-03-25_17h05.20.252,Unsyncopated_study3,s143,18.0,masculino,right,España,"Catalan, Castellano",Upper secondary,no,no,B,1,conjunction_un,L3,unsyncopated,s2,r2,57,Online_conjL3_un//b.ñe.sa25.888.1776.wav,le,ji,gu,sil,ñe,di,fu,sil1,sa,ko,sil2,['catch'],[2.5700000000001637],[2.5700000000001637],1.776,beat,0.7940000000001637,0.7940000000001637,"[""space""]",56:60,2,testWhatL4Uns//time_viol.r1.s1.0.wav,3.0,what,unsyncopated,a,s1,no_rule,time,L4,z,0.6124,4.0,0.0,1.1271,3.0,3.0,Catalán,0.0,Castellano,0.0,Inglés,3.0,5.0,4.0,no,no,no,nada,0,nada,0,,,En alguna pausa (no a medio audio) he ido al baño o a por agua,60.0,yes
58,2024-03-25_17h05.20.252,Unsyncopated_study3,s143,18.0,masculino,right,España,"Catalan, Castellano",Upper secondary,no,no,B,1,conjunction_un,L3,unsyncopated,s1,r2,58,Online_conjL3_un//b.ñe.sa24.0.888.wav,ñe,fu,le,sil,sa,ko,ji,sil1,ka,do,sil2,['catch'],[1.724999999999909],[1.724999999999909],0.888,beat,0.836999999999909,0.836999999999909,"[""space""]",56:60,2,testWhatL4Uns//r1.s1.2.wav,3.0,what,unsyncopated,a,s1,rule,rule,L4,m,5.0063,3.0,0.0,2.3175,3.0,3.0,Catalán,0.0,Castellano,0.0,Inglés,3.0,5.0,4.0,no,no,no,nada,0,nada,0,,,En alguna pausa (no a medio audio) he ido al baño o a por agua,60.0,yes
59,2024-03-25_17h05.20.252,Unsyncopated_study3,s143,18.0,masculino,right,España,"Catalan, Castellano",Upper secondary,no,no,B,1,conjunction_un,L3,unsyncopated,s2,r2,59,Online_conjL3_un//b.ñe.sa27.888.1776.wav,ji,do,ka,sil,ñe,je,ko,sil1,sa,gu,sil2,['miss'],,,1.776,beat,,,,56:60,2,testWhatL4Uns//time_viol.r2.s1.0.wav,3.0,what,unsyncopated,b,s1,no_rule,time,L4,z,2.7973,6.0,0.0,1.0124,3.0,3.0,Catalán,0.0,Castellano,0.0,Inglés,3.0,5.0,4.0,no,no,no,nada,0,nada,0,,,En alguna pausa (no a medio audio) he ido al baño o a por agua,60.0,yes
60,2024-03-25_17h05.20.252,Unsyncopated_study3,s143,18.0,masculino,right,España,"Catalan, Castellano",Upper secondary,no,no,B,1,conjunction_un,L3,unsyncopated,s1,r2,60,Online_conjL3_un//d.ji.li5.none.none.wav,ñe,fu,je,sil,sa,gu,le,sil1,ga,di,sil2,['-'],,,none,none,,,,100:104,4,testWhatL4Uns//time_viol.r2.s2.0.wav,3.0,what,unsyncopated,b,s2,no_rule,time,L4,m,6.4418,5.0,1.0,1.871,3.0,3.0,Catalán,0.0,Castellano,0.0,Inglés,3.0,5.0,4.0,no,no,no,nada,0,nada,0,,,En alguna pausa (no a medio audio) he ido al baño o a por agua,60.0,yes
61,2024-03-25_17h05.20.252,Unsyncopated_study3,s143,18.0,masculino,right,España,"Catalan, Castellano",Upper secondary,no,no,B,1,conjunction_un,L3,unsyncopated,s2,r2,61,Online_conjL3_un//d.ji.li4.none.none.wav,je,ga,di,sil,ñe,ko,do,sil1,sa,le,sil2,"['false alarm', 'false alarm']","[0.32100000000036744, 1.1935000000003129]",1.1935000000003129,none,none,,,"[""space"",""space""]",100:104,4,testWhatL4Uns//r2.s1.2.wav,3.0,what,unsyncopated,b,s1,rule,rule,L4,z,0.652,6.0,1.0,1.871,3.0,3.0,Catalán,0.0,Castellano,0.0,Inglés,3.0,5.0,4.0,no,no,no,nada,0,nada,0,,,En alguna pausa (no a medio audio) he ido al baño o a por agua,60.0,yes
62,2024-03-25_17h05.20.252,Unsyncopated_study3,s143,18.0,masculino,right,España,"Catalan, Castellano",Upper secondary,no,no,B,1,conjunction_un,L3,unsyncopated,s1,r2,62,Online_conjL3_un//d.ji.li6.none.none.wav,ñe,do,di,sil,sa,je,ga,sil1,gu,ka,sil2,['-'],,,none,none,,,,100:104,4,testWhatL4Uns//r2.s1.0.wav,3.0,what,unsyncopated,b,s1,rule,rule,L4,m,2.1943,2.0,0.0,2.8244,3.0,3.0,Catalán,0.0,Castellano,0.0,Inglés,3.0,5.0,4.0,no,no,no,nada,0,nada,0,,,En alguna pausa (no a medio audio) he ido al baño o a por agua,60.0,yes
63,2024-03-25_17h05.20.252,Unsyncopated_study3,s143,18.0,masculino,right,España,"Catalan, Castellano",Upper secondary,no,no,B,1,conjunction_un,L3,unsyncopated,s2,r1,63,Online_conjL3_un//d.ji.li7.1332.222.wav,le,li,ka,sil,chu,do,ji,sil1,mo,di,sil2,['catch'],[1.1984999999999673],[1.1984999999999673],0.222,no_beat,0.9764999999999672,0.9764999999999672,"[""space""]",100:104,4,testWhatL4Uns//cat_viol.r1.s2.0.wav,3.0,what,unsyncopated,a,s2,no_rule,cat,L4,z,1.6955,7.0,0.0,0.723,3.0,3.0,Catalán,0.0,Castellano,0.0,Inglés,3.0,5.0,4.0,no,no,no,nada,0,nada,0,,,En alguna pausa (no a medio audio) he ido al baño o a por agua,60.0,yes
64,2024-03-25_17h05.20.252,Unsyncopated_study3,s143,18.0,masculino,right,España,"Catalan, Castellano",Upper secondary,no,no,B,1,conjunction_un,L3,unsyncopated,s2,r2,64,Online_conjL3_un//d.ji.li19.none.none.wav,gu,ga,di,sil,ñe,do,ka,sil1,sa,ko,sil2,['-'],,,none,none,,,,112:116,4,testWhatL4Uns//r1.s2.0.wav,3.0,what,unsyncopated,a,s2,rule,rule,L4,m,3.1997,2.0,0.0,1.6792,3.0,3.0,Catalán,0.0,Castellano,0.0,Inglés,3.0,5.0,4.0,no,no,no,nada,0,nada,0,,,En alguna pausa (no a medio audio) he ido al baño o a por agua,60.0,yes
65,2024-03-25_17h05.20.252,Unsyncopated_study3,s143,18.0,masculino,right,España,"Catalan, Castellano",Upper secondary,no,no,B,1,conjunction_un,L3,unsyncopated,s1,r1,65,Online_conjL3_un//d.ji.li17.none.none.wav,chu,je,gu,sil,mo,do,ko,sil1,ga,le,sil2,['-'],,,none,none,,,,112:116,4,testWhatL4Uns//dep_viol.r2.s1.0.wav,3.0,what,unsyncopated,b,s1,no_rule,dep,L4,z,0.7136,6.0,0.0,1.1707,3.0,3.0,Catalán,0.0,Castellano,0.0,Inglés,3.0,5.0,4.0,no,no,no,nada,0,nada,0,,,En alguna pausa (no a medio audio) he ido al baño o a por agua,60.0,yes
66,2024-03-25_17h05.20.252,Unsyncopated_study3,s143,18.0,masculino,right,España,"Catalan, Castellano",Upper secondary,no,no,B,1,conjunction_un,L3,unsyncopated,s2,r2,66,Online_conjL3_un//d.ji.li18.1332.444.wav,ka,le,li,sil,ñe,gu,ji,sil1,sa,ko,sil2,['catch'],[1.36850000000004],[1.36850000000004],0.444,no_beat,0.92450000000004,0.92450000000004,"[""space""]",112:116,4,testWhatL4Uns//cat_viol.r1.s1.0.wav,3.0,what,unsyncopated,a,s1,no_rule,cat,L4,m,2.1007,3.0,1.0,0.8732,3.0,3.0,Catalán,0.0,Castellano,0.0,Inglés,3.0,5.0,4.0,no,no,no,nada,0,nada,0,,,En alguna pausa (no a medio audio) he ido al baño o a por agua,60.0,yes
67,2024-03-25_17h05.20.252,Unsyncopated_study3,s143,18.0,masculino,right,España,"Catalan, Castellano",Upper secondary,no,no,B,1,conjunction_un,L3,unsyncopated,s2,r2,67,Online_conjL3_un//d.ji.li16.none.none.wav,di,gu,je,sil,ñe,ga,ko,sil1,sa,ka,sil2,['-'],,,none,none,,,,112:116,4,testWhatL4Uns//dep_viol.r1.s1.0.wav,3.0,what,unsyncopated,a,s1,no_rule,dep,L4,z,11.6784,4.0,0.0,1.245,3.0,3.0,Catalán,0.0,Castellano,0.0,Inglés,3.0,5.0,4.0,no,no,no,nada,0,nada,0,,,En alguna pausa (no a medio audio) he ido al baño o a por agua,60.0,yes
68,2024-03-25_17h05.20.252,Unsyncopated_study3,s143,18.0,masculino,right,España,"Catalan, Castellano",Upper secondary,no,no,B,1,conjunction_un,L3,unsyncopated,s1,r1,68,Online_conjL3_un//a.chu.mo6.0.888.wav,chu,fu,do,sil,mo,ga,li,sil1,di,gu,sil2,['catch'],[1.2991000000238273],[1.2991000000238273],0.0,beat,,1.2991000000238273,"[""space""]",4:8,1,testWhatL4Uns//dep_viol.r1.s2.0.wav,3.0,what,unsyncopated,a,s2,no_rule,dep,L4,z,1.0288,6.0,0.0,0.8196,3.0,3.0,Catalán,0.0,Castellano,0.0,Inglés,3.0,5.0,4.0,no,no,no,nada,0,nada,0,,,En alguna pausa (no a medio audio) he ido al baño o a por agua,60.0,yes
69,2024-03-25_17h05.20.252,Unsyncopated_study3,s143,18.0,masculino,right,España,"Catalan, Castellano",Upper secondary,no,no,B,1,conjunction_un,L3,unsyncopated,s2,r1,69,Online_conjL3_un//a.chu.mo7.888.1776.wav,ka,ji,ko,sil,chu,ga,le,sil1,mo,gu,sil2,['catch'],[1.6436000000235254],[1.6436000000235254],0.888,beat,0.7556000000235253,0.7556000000235253,"[""space""]",4:8,1,testWhatL4Uns//r2.s2.2.wav,3.0,what,unsyncopated,b,s2,rule,rule,L4,z,3.2061,7.0,1.0,0.1873,3.0,3.0,Catalán,0.0,Castellano,0.0,Inglés,3.0,5.0,4.0,no,no,no,nada,0,nada,0,,,En alguna pausa (no a medio audio) he ido al baño o a por agua,60.0,yes
70,2024-03-25_17h05.20.252,Unsyncopated_study3,s143,18.0,masculino,right,España,"Catalan, Castellano",Upper secondary,no,no,B,1,conjunction_un,L3,unsyncopated,s1,r2,70,Online_conjL3_un//a.chu.mo4.none.none.wav,ñe,je,do,sil,sa,le,fu,sil1,li,ko,sil2,['-'],,,none,none,,,,4:8,1,testWhatL4Uns//r2.s1.1.wav,3.0,what,unsyncopated,b,s1,rule,rule,L4,z,4.5649,6.0,1.0,1.2839,3.0,3.0,Catalán,0.0,Castellano,0.0,Inglés,3.0,5.0,4.0,no,no,no,nada,0,nada,0,,,En alguna pausa (no a medio audio) he ido al baño o a por agua,60.0,yes
71,2024-03-25_17h05.20.252,Unsyncopated_study3,s143,18.0,masculino,right,España,"Catalan, Castellano",Upper secondary,no,no,B,1,conjunction_un,L3,unsyncopated,s2,r2,71,Online_conjL3_un//a.chu.mo5.none.none.wav,fu,di,ga,sil,ñe,gu,do,sil1,sa,li,sil2,['-'],,,none,none,,,,4:8,1,testWhatL4Uns//r1.s2.1.wav,3.0,what,unsyncopated,a,s2,rule,rule,L4,m,7.6735,4.0,0.0,0.8079,3.0,3.0,Catalán,0.0,Castellano,0.0,Inglés,3.0,5.0,4.0,no,no,no,nada,0,nada,0,,,En alguna pausa (no a medio audio) he ido al baño o a por agua,60.0,yes
72,2024-03-25_17h05.20.252,Unsyncopated_study3,s143,18.0,masculino,right,España,"Catalan, Castellano",Upper secondary,no,no,B,1,conjunction_un,L3,unsyncopated,s1,r2,72,Online_conjL3_un//c.gu.je11.none.none.wav,ñe,li,ji,sil,sa,fu,di,sil1,ko,do,sil2,['-'],,,none,none,,,,72:76,3,testWhenL1Uns//dep_viol.r1.s2.0.wav,4.0,when,unsyncopated,a,s2,no_rule,dep,L1,m,2.4846,6.0,0.0,1.1734,3.0,3.0,Catalán,0.0,Castellano,0.0,Inglés,3.0,5.0,4.0,no,no,no,nada,0,nada,0,,,En alguna pausa (no a medio audio) he ido al baño o a por agua,60.0,yes
73,2024-03-25_17h05.20.252,Unsyncopated_study3,s143,18.0,masculino,right,España,"Catalan, Castellano",Upper secondary,no,no,B,1,conjunction_un,L3,unsyncopated,s2,r1,73,Online_conjL3_un//c.gu.je9.none.none.wav,ji,le,ga,sil,chu,ka,li,sil1,mo,do,sil2,['-'],,,none,none,,,,72:76,3,testWhenL1Uns//r1.s1.2.wav,4.0,when,unsyncopated,a,s1,rule,rule,L1,z,2.7114,5.0,1.0,0.9247,3.0,3.0,Catalán,0.0,Castellano,0.0,Inglés,3.0,5.0,4.0,no,no,no,nada,0,nada,0,,,En alguna pausa (no a medio audio) he ido al baño o a por agua,60.0,yes
74,2024-03-25_17h05.20.252,Unsyncopated_study3,s143,18.0,masculino,right,España,"Catalan, Castellano",Upper secondary,no,no,B,1,conjunction_un,L3,unsyncopated,s1,r2,74,Online_conjL3_un//c.gu.je10.none.none.wav,ñe,ga,ko,sil,sa,fu,di,sil1,ka,do,sil2,['-'],,,none,none,,,,72:76,3,testWhenL1Uns//cat_viol.r2.s2.0.wav,4.0,when,unsyncopated,b,s2,no_rule,cat,L1,z,6.924,4.0,1.0,0.6828,3.0,3.0,Catalán,0.0,Castellano,0.0,Inglés,3.0,5.0,4.0,no,no,no,nada,0,nada,0,,,En alguna pausa (no a medio audio) he ido al baño o a por agua,60.0,yes
75,2024-03-25_17h05.20.252,Unsyncopated_study3,s143,18.0,masculino,right,España,"Catalan, Castellano",Upper secondary,no,no,B,1,conjunction_un,L3,unsyncopated,s2,r1,75,Online_conjL3_un//c.gu.je8.0.1110.wav,gu,fu,le,sil,chu,je,li,sil1,mo,ko,sil2,['catch'],[2.0343999999759035],[2.0343999999759035],1.11,no_beat,0.9243999999759034,0.9243999999759034,"[""space""]",72:76,3,testWhenL1Uns//r1.s2.2.wav,4.0,when,unsyncopated,a,s2,rule,rule,L1,m,3.7243,7.0,0.0,0.6212,3.0,3.0,Catalán,0.0,Castellano,0.0,Inglés,3.0,5.0,4.0,no,no,no,nada,0,nada,0,,,En alguna pausa (no a medio audio) he ido al baño o a por agua,60.0,yes
76,2024-03-25_17h05.20.252,Unsyncopated_study3,s143,18.0,masculino,right,España,"Catalan, Castellano",Upper secondary,no,no,B,1,conjunction_un,L3,unsyncopated,s2,r1,76,Online_conjL3_un//d.ji.li10.222.444.wav,le,ji,li,sil,chu,fu,do,sil1,mo,gu,sil2,['catch'],[1.2176000000235945],[1.2176000000235945],0.444,no_beat,0.7736000000235945,0.7736000000235945,"[""space""]",104:108,4,testWhenL1Uns//r2.s2.1.wav,4.0,when,unsyncopated,b,s2,rule,rule,L1,m,1.5324,5.0,0.0,2.1496,3.0,3.0,Catalán,0.0,Castellano,0.0,Inglés,3.0,5.0,4.0,no,no,no,nada,0,nada,0,,,En alguna pausa (no a medio audio) he ido al baño o a por agua,60.0,yes
77,2024-03-25_17h05.20.252,Unsyncopated_study3,s143,18.0,masculino,right,España,"Catalan, Castellano",Upper secondary,no,no,B,1,conjunction_un,L3,unsyncopated,s2,r2,77,Online_conjL3_un//d.ji.li9.1332.222.wav,fu,li,je,sil,ñe,ko,ji,sil1,sa,do,sil2,['catch'],[1.0492000000476764],[1.0492000000476764],0.222,no_beat,0.8272000000476765,0.8272000000476765,"[""space""]",104:108,4,testWhenL1Uns//r2.s1.1.wav,4.0,when,unsyncopated,b,s1,rule,rule,L1,z,1.6703,4.0,1.0,3.4357,3.0,3.0,Catalán,0.0,Castellano,0.0,Inglés,3.0,5.0,4.0,no,no,no,nada,0,nada,0,,,En alguna pausa (no a medio audio) he ido al baño o a por agua,60.0,yes
78,2024-03-25_17h05.20.252,Unsyncopated_study3,s143,18.0,masculino,right,España,"Catalan, Castellano",Upper secondary,no,no,B,1,conjunction_un,L3,unsyncopated,s1,r2,78,Online_conjL3_un//d.ji.li11.1776.222.wav,ñe,li,ga,sil,sa,je,le,sil1,ji,ko,sil2,['catch'],[1.0816000000236272],[1.0816000000236272],0.222,no_beat,0.8596000000236272,0.8596000000236272,"[""space""]",104:108,4,testWhenL1Uns//r2.s1.0.wav,4.0,when,unsyncopated,b,s1,rule,rule,L1,z,5.5687,5.0,1.0,0.1259,3.0,3.0,Catalán,0.0,Castellano,0.0,Inglés,3.0,5.0,4.0,no,no,no,nada,0,nada,0,,,En alguna pausa (no a medio audio) he ido al baño o a por agua,60.0,yes
79,2024-03-25_17h05.20.252,Unsyncopated_study3,s143,18.0,masculino,right,España,"Catalan, Castellano",Upper secondary,no,no,B,1,conjunction_un,L3,unsyncopated,s2,r2,79,Online_conjL3_un//d.ji.li8.none.none.wav,fu,ko,le,sil,ñe,do,gu,sil1,sa,di,sil2,['-'],,,none,none,,,,104:108,4,testWhenL1Uns//cat_viol.r1.s1.0.wav,4.0,when,unsyncopated,a,s1,no_rule,cat,L1,m,0.8916,4.0,0.0,1.2924,3.0,3.0,Catalán,0.0,Castellano,0.0,Inglés,3.0,5.0,4.0,no,no,no,nada,0,nada,0,,,En alguna pausa (no a medio audio) he ido al baño o a por agua,60.0,yes
80,2024-03-25_17h05.20.252,Unsyncopated_study3,s143,18.0,masculino,right,España,"Catalan, Castellano",Upper secondary,no,no,B,1,conjunction_un,L3,unsyncopated,s1,r2,80,Online_conjL3_un//d.ji.li20.1776.444.wav,ñe,ka,li,sil,sa,di,ko,sil1,ji,le,sil2,['miss'],,,0.444,no_beat,,,,116:120,4,testWhenL1Uns//time_viol.r1.s1.0.wav,4.0,when,unsyncopated,a,s1,no_rule,time,L1,m,0.3574,6.0,0.0,0.88,3.0,3.0,Catalán,0.0,Castellano,0.0,Inglés,3.0,5.0,4.0,no,no,no,nada,0,nada,0,,,En alguna pausa (no a medio audio) he ido al baño o a por agua,60.0,yes
81,2024-03-25_17h05.20.252,Unsyncopated_study3,s143,18.0,masculino,right,España,"Catalan, Castellano",Upper secondary,no,no,B,1,conjunction_un,L3,unsyncopated,s1,r2,81,Online_conjL3_un//d.ji.li21.none.none.wav,ñe,le,ko,sil,sa,do,ka,sil1,di,ga,sil2,['-'],,,none,none,,,,116:120,4,testWhenL1Uns//dep_viol.r2.s2.0.wav,4.0,when,unsyncopated,b,s2,no_rule,dep,L1,m,1.2016,3.0,0.0,0.5109,3.0,3.0,Catalán,0.0,Castellano,0.0,Inglés,3.0,5.0,4.0,no,no,no,nada,0,nada,0,,,En alguna pausa (no a medio audio) he ido al baño o a por agua,60.0,yes
82,2024-03-25_17h05.20.252,Unsyncopated_study3,s143,18.0,masculino,right,España,"Catalan, Castellano",Upper secondary,no,no,B,1,conjunction_un,L3,unsyncopated,s1,r2,82,Online_conjL3_un//d.ji.li22.none.none.wav,ñe,ga,le,sil,sa,do,ka,sil1,gu,di,sil2,['-'],,,none,none,,,,116:120,4,testWhenL1Uns//time_viol.r2.s2.0.wav,4.0,when,unsyncopated,b,s2,no_rule,time,L1,z,4.2083,5.0,1.0,0.9409,3.0,3.0,Catalán,0.0,Castellano,0.0,Inglés,3.0,5.0,4.0,no,no,no,nada,0,nada,0,,,En alguna pausa (no a medio audio) he ido al baño o a por agua,60.0,yes
83,2024-03-25_17h05.20.252,Unsyncopated_study3,s143,18.0,masculino,right,España,"Catalan, Castellano",Upper secondary,no,no,B,1,conjunction_un,L3,unsyncopated,s1,r2,83,Online_conjL3_un//d.ji.li23.1332.222.wav,ñe,li,fu,sil,sa,le,ji,sil1,di,ka,sil2,"['catch', 'false alarm']","[0.38789999997607083, 1.2723999999761872]",[0.38789999997607083],0.222,no_beat,0.1658999999760708,0.1658999999760708,"[""space"",""space""]",116:120,4,testWhenL1Uns//cat_viol.r2.s1.0.wav,4.0,when,unsyncopated,b,s1,no_rule,cat,L1,z,3.6796,5.0,1.0,1.4574,3.0,3.0,Catalán,0.0,Castellano,0.0,Inglés,3.0,5.0,4.0,no,no,no,nada,0,nada,0,,,En alguna pausa (no a medio audio) he ido al baño o a por agua,60.0,yes
84,2024-03-25_17h05.20.252,Unsyncopated_study3,s143,18.0,masculino,right,España,"Catalan, Castellano",Upper secondary,no,no,B,1,conjunction_un,L3,unsyncopated,s1,r1,84,Online_conjL3_un//b.ñe.sa28.none.none.wav,chu,je,ko,sil,mo,fu,di,sil1,li,do,sil2,['-'],,,none,none,,,,60:64,2,testWhenL1Uns//time_viol.r2.s1.0.wav,4.0,when,unsyncopated,b,s1,no_rule,time,L1,m,0.4203,4.0,0.0,0.6283,3.0,3.0,Catalán,0.0,Castellano,0.0,Inglés,3.0,5.0,4.0,no,no,no,nada,0,nada,0,,,En alguna pausa (no a medio audio) he ido al baño o a por agua,60.0,yes
85,2024-03-25_17h05.20.252,Unsyncopated_study3,s143,18.0,masculino,right,España,"Catalan, Castellano",Upper secondary,no,no,B,1,conjunction_un,L3,unsyncopated,s2,r1,85,Online_conjL3_un//b.ñe.sa31.none.none.wav,li,ji,je,sil,chu,fu,le,sil1,mo,di,sil2,['-'],,,none,none,,,,60:64,2,testWhenL1Uns//r2.s2.0.wav,4.0,when,unsyncopated,b,s2,rule,rule,L1,m,0.3752,3.0,0.0,0.8209,3.0,3.0,Catalán,0.0,Castellano,0.0,Inglés,3.0,5.0,4.0,no,no,no,nada,0,nada,0,,,En alguna pausa (no a medio audio) he ido al baño o a por agua,60.0,yes
86,2024-03-25_17h05.20.252,Unsyncopated_study3,s143,18.0,masculino,right,España,"Catalan, Castellano",Upper secondary,no,no,B,1,conjunction_un,L3,unsyncopated,s2,r2,86,Online_conjL3_un//b.ñe.sa30.888.1776.wav,le,ji,di,sil,ñe,ko,fu,sil1,sa,li,sil2,['catch_delay'],[0.9462000000476911],[0.9462000000476911],1.776,beat,0.9462000000476912,0.9462000000476912,,60:64,2,testWhenL1Uns//time_viol.r1.s2.0.wav,4.0,when,unsyncopated,a,s2,no_rule,time,L1,z,0.4214,7.0,1.0,0.0589,3.0,3.0,Catalán,0.0,Castellano,0.0,Inglés,3.0,5.0,4.0,no,no,no,nada,0,nada,0,,,En alguna pausa (no a medio audio) he ido al baño o a por agua,60.0,yes
87,2024-03-25_17h05.20.252,Unsyncopated_study3,s143,18.0,masculino,right,España,"Catalan, Castellano",Upper secondary,no,no,B,1,conjunction_un,L3,unsyncopated,s1,r2,87,Online_conjL3_un//b.ñe.sa29.0.888.wav,ñe,ka,di,sil,sa,ji,je,sil1,ga,fu,sil2,['miss'],[0.05820000004769099],[0.05820000004769099],0.888,beat,,,"[""space""]",60:64,2,testWhenL1Uns//dep_viol.r2.s1.0.wav,4.0,when,unsyncopated,b,s1,no_rule,dep,L1,m,0.4751,3.0,0.0,0.6477,3.0,3.0,Catalán,0.0,Castellano,0.0,Inglés,3.0,5.0,4.0,no,no,no,nada,0,nada,0,,,En alguna pausa (no a medio audio) he ido al baño o a por agua,60.0,yes
88,2024-03-25_17h05.20.252,Unsyncopated_study3,s143,18.0,masculino,right,España,"Catalan, Castellano",Upper secondary,no,no,B,1,conjunction_un,L3,unsyncopated,s2,r2,88,Online_conjL3_un//c.gu.je19.none.none.wav,le,li,do,sil,ñe,fu,di,sil1,sa,ko,sil2,['-'],,,none,none,,,,80:84,3,testWhenL1Uns//r1.s2.0.wav,4.0,when,unsyncopated,a,s2,rule,rule,L1,m,0.423,4.0,0.0,0.4868,3.0,3.0,Catalán,0.0,Castellano,0.0,Inglés,3.0,5.0,4.0,no,no,no,nada,0,nada,0,,,En alguna pausa (no a medio audio) he ido al baño o a por agua,60.0,yes
89,2024-03-25_17h05.20.252,Unsyncopated_study3,s143,18.0,masculino,right,España,"Catalan, Castellano",Upper secondary,no,no,B,1,conjunction_un,L3,unsyncopated,s1,r2,89,Online_conjL3_un//c.gu.je16.222.1332.wav,ñe,gu,fu,sil,sa,do,je,sil1,li,le,sil2,['catch'],[2.540599999904771],[2.540599999904771],1.332,no_beat,,1.2085999999047707,"[""space""]",80:84,3,testWhenL1Uns//r2.s1.2.wav,4.0,when,unsyncopated,b,s1,rule,rule,L1,m,0.9803,4.0,0.0,0.9151,3.0,3.0,Catalán,0.0,Castellano,0.0,Inglés,3.0,5.0,4.0,no,no,no,nada,0,nada,0,,,En alguna pausa (no a medio audio) he ido al baño o a por agua,60.0,yes
90,2024-03-25_17h05.20.252,Unsyncopated_study3,s143,18.0,masculino,right,España,"Catalan, Castellano",Upper secondary,no,no,B,1,conjunction_un,L3,unsyncopated,s1,r1,90,Online_conjL3_un//c.gu.je18.1110.222.wav,chu,je,ga,sil,mo,gu,di,sil1,ko,li,sil2,['catch'],[1.207600000023831],[1.207600000023831],0.222,no_beat,0.985600000023831,0.985600000023831,"[""space""]",80:84,3,testWhenL1Uns//cat_viol.r1.s2.0.wav,4.0,when,unsyncopated,a,s2,no_rule,cat,L1,z,1.0564,5.0,1.0,0.4997,3.0,3.0,Catalán,0.0,Castellano,0.0,Inglés,3.0,5.0,4.0,no,no,no,nada,0,nada,0,,,En alguna pausa (no a medio audio) he ido al baño o a por agua,60.0,yes
91,2024-03-25_17h05.20.252,Unsyncopated_study3,s143,18.0,masculino,right,España,"Catalan, Castellano",Upper secondary,no,no,B,1,conjunction_un,L3,unsyncopated,s2,r1,91,Online_conjL3_un//c.gu.je17.0.1110.wav,gu,ka,ko,sil,chu,je,ji,sil1,mo,di,sil2,['miss'],,,1.11,no_beat,,,,80:84,3,testWhenL1Uns//r1.s2.1.wav,4.0,when,unsyncopated,a,s2,rule,rule,L1,z,0.3561,5.0,1.0,0.371,3.0,3.0,Catalán,0.0,Castellano,0.0,Inglés,3.0,5.0,4.0,no,no,no,nada,0,nada,0,,,En alguna pausa (no a medio audio) he ido al baño o a por agua,60.0,yes
92,2024-03-25_17h05.20.252,Unsyncopated_study3,s143,18.0,masculino,right,España,"Catalan, Castellano",Upper secondary,no,no,B,1,conjunction_un,L3,unsyncopated,s1,r1,92,Online_conjL3_un//a.chu.mo8.0.888.wav,chu,gu,ji,sil,mo,di,le,sil1,li,fu,sil2,['miss'],,,0.0,beat,,,,8:12,1,testWhenL1Uns//r2.s2.2.wav,4.0,when,unsyncopated,b,s2,rule,rule,L1,z,2.483,6.0,1.0,0.1261,3.0,3.0,Catalán,0.0,Castellano,0.0,Inglés,3.0,5.0,4.0,no,no,no,nada,0,nada,0,,,En alguna pausa (no a medio audio) he ido al baño o a por agua,60.0,yes
93,2024-03-25_17h05.20.252,Unsyncopated_study3,s143,18.0,masculino,right,España,"Catalan, Castellano",Upper secondary,no,no,B,1,conjunction_un,L3,unsyncopated,s1,r2,93,Online_conjL3_un//a.chu.mo9.none.none.wav,ñe,di,gu,sil,sa,ka,ga,sil1,je,do,sil2,['-'],,,none,none,,,,8:12,1,testWhenL1Uns//dep_viol.r1.s1.0.wav,4.0,when,unsyncopated,a,s1,no_rule,dep,L1,z,0.6699,7.0,1.0,0.1839,3.0,3.0,Catalán,0.0,Castellano,0.0,Inglés,3.0,5.0,4.0,no,no,no,nada,0,nada,0,,,En alguna pausa (no a medio audio) he ido al baño o a por agua,60.0,yes
94,2024-03-25_17h05.20.252,Unsyncopated_study3,s143,18.0,masculino,right,España,"Catalan, Castellano",Upper secondary,no,no,B,1,conjunction_un,L3,unsyncopated,s1,r1,94,Online_conjL3_un//a.chu.mo10.0.888.wav,chu,do,fu,sil,mo,le,ga,sil1,di,ji,sil2,['catch'],[0.7508000000716493],[0.7508000000716493],0.0,beat,0.7508000000716493,0.7508000000716493,"[""space""]",8:12,1,testWhenL1Uns//r1.s1.1.wav,4.0,when,unsyncopated,a,s1,rule,rule,L1,z,2.6405,3.0,1.0,0.9922,3.0,3.0,Catalán,0.0,Castellano,0.0,Inglés,3.0,5.0,4.0,no,no,no,nada,0,nada,0,,,En alguna pausa (no a medio audio) he ido al baño o a por agua,60.0,yes
95,2024-03-25_17h05.20.252,Unsyncopated_study3,s143,18.0,masculino,right,España,"Catalan, Castellano",Upper secondary,no,no,B,1,conjunction_un,L3,unsyncopated,s1,r2,95,Online_conjL3_un//a.chu.mo11.none.none.wav,ñe,fu,ko,sil,sa,li,ka,sil1,le,ji,sil2,['-'],,,none,none,,,,8:12,1,testWhenL1Uns//r1.s1.0.wav,4.0,when,unsyncopated,a,s1,rule,rule,L1,z,0.6557,5.0,1.0,0.2518,3.0,3.0,Catalán,0.0,Castellano,0.0,Inglés,3.0,5.0,4.0,no,no,no,nada,0,nada,0,,,En alguna pausa (no a medio audio) he ido al baño o a por agua,60.0,yes
96,2024-03-25_17h05.20.252,Unsyncopated_study3,s143,18.0,masculino,right,España,"Catalan, Castellano",Upper secondary,no,no,B,1,conjunction_un,L3,unsyncopated,s1,r1,96,Online_conjL3_un//b.ñe.sa21.none.none.wav,chu,gu,ji,sil,mo,di,ko,sil1,do,ga,sil2,['-'],,,none,none,,,,52:56,2,,,,,,,,,,,,,,,3.0,3.0,Catalán,0.0,Castellano,0.0,Inglés,3.0,5.0,4.0,no,no,no,nada,0,nada,0,,,En alguna pausa (no a medio audio) he ido al baño o a por agua,60.0,yes
97,2024-03-25_17h05.20.252,Unsyncopated_study3,s143,18.0,masculino,right,España,"Catalan, Castellano",Upper secondary,no,no,B,1,conjunction_un,L3,unsyncopated,s1,r2,97,Online_conjL3_un//b.ñe.sa22.0.888.wav,ñe,fu,do,sil,sa,ji,li,sil1,di,je,sil2,['catch'],[1.8998000000715365],[1.8998000000715365],0.888,beat,1.0118000000715366,1.0118000000715366,"[""space""]",52:56,2,,,,,,,,,,,,,,,3.0,3.0,Catalán,0.0,Castellano,0.0,Inglés,3.0,5.0,4.0,no,no,no,nada,0,nada,0,,,En alguna pausa (no a medio audio) he ido al baño o a por agua,60.0,yes
98,2024-03-25_17h05.20.252,Unsyncopated_study3,s143,18.0,masculino,right,España,"Catalan, Castellano",Upper secondary,no,no,B,1,conjunction_un,L3,unsyncopated,s1,r2,98,Online_conjL3_un//b.ñe.sa20.0.888.wav,ñe,ga,di,sil,sa,li,le,sil1,fu,do,sil2,['catch'],[1.8691999999282416],[1.8691999999282416],0.888,beat,0.9811999999282416,0.9811999999282416,"[""space""]",52:56,2,,,,,,,,,,,,,,,3.0,3.0,Catalán,0.0,Castellano,0.0,Inglés,3.0,5.0,4.0,no,no,no,nada,0,nada,0,,,En alguna pausa (no a medio audio) he ido al baño o a por agua,60.0,yes
99,2024-03-25_17h05.20.252,Unsyncopated_study3,s143,18.0,masculino,right,España,"Catalan, Castellano",Upper secondary,no,no,B,1,conjunction_un,L3,unsyncopated,s2,r1,99,Online_conjL3_un//b.ñe.sa23.none.none.wav,je,ko,le,sil,chu,ji,fu,sil1,mo,ga,sil2,['-'],,,none,none,,,,52:56,2,,,,,,,,,,,,,,,3.0,3.0,Catalán,0.0,Castellano,0.0,Inglés,3.0,5.0,4.0,no,no,no,nada,0,nada,0,,,En alguna pausa (no a medio audio) he ido al baño o a por agua,60.0,yes
100,2024-03-25_17h05.20.252,Unsyncopated_study3,s143,18.0,masculino,right,España,"Catalan, Castellano",Upper secondary,no,no,B,1,conjunction_un,L3,unsyncopated,s2,r1,100,Online_conjL3_un//a.chu.mo29.888.1776.wav,li,ji,ko,sil,chu,gu,do,sil1,mo,je,sil2,['catch'],[1.6725000000001273],[1.6725000000001273],0.888,beat,0.7845000000001273,0.7845000000001273,"[""space""]",28:32,1,,,,,,,,,,,,,,,3.0,3.0,Catalán,0.0,Castellano,0.0,Inglés,3.0,5.0,4.0,no,no,no,nada,0,nada,0,,,En alguna pausa (no a medio audio) he ido al baño o a por agua,60.0,yes
101,2024-03-25_17h05.20.252,Unsyncopated_study3,s143,18.0,masculino,right,España,"Catalan, Castellano",Upper secondary,no,no,B,1,conjunction_un,L3,unsyncopated,s1,r1,101,Online_conjL3_un//a.chu.mo28.0.888.wav,chu,fu,di,sil,mo,do,li,sil1,ji,ka,sil2,['catch'],[1.3152999999520034],[1.3152999999520034],0.0,beat,,1.3152999999520034,"[""space""]",28:32,1,,,,,,,,,,,,,,,3.0,3.0,Catalán,0.0,Castellano,0.0,Inglés,3.0,5.0,4.0,no,no,no,nada,0,nada,0,,,En alguna pausa (no a medio audio) he ido al baño o a por agua,60.0,yes
102,2024-03-25_17h05.20.252,Unsyncopated_study3,s143,18.0,masculino,right,España,"Catalan, Castellano",Upper secondary,no,no,B,1,conjunction_un,L3,unsyncopated,s2,r1,102,Online_conjL3_un//a.chu.mo31.888.1776.wav,fu,je,ji,sil,chu,le,ko,sil1,mo,gu,sil2,['catch'],[1.9151000000238128],[1.9151000000238128],0.888,beat,1.0271000000238129,1.0271000000238129,"[""space""]",28:32,1,,,,,,,,,,,,,,,3.0,3.0,Catalán,0.0,Castellano,0.0,Inglés,3.0,5.0,4.0,no,no,no,nada,0,nada,0,,,En alguna pausa (no a medio audio) he ido al baño o a por agua,60.0,yes
103,2024-03-25_17h05.20.252,Unsyncopated_study3,s143,18.0,masculino,right,España,"Catalan, Castellano",Upper secondary,no,no,B,1,conjunction_un,L3,unsyncopated,s2,r2,103,Online_conjL3_un//a.chu.mo30.none.none.wav,ji,ga,ka,sil,ñe,fu,li,sil1,sa,do,sil2,['-'],,,none,none,,,,28:32,1,,,,,,,,,,,,,,,3.0,3.0,Catalán,0.0,Castellano,0.0,Inglés,3.0,5.0,4.0,no,no,no,nada,0,nada,0,,,En alguna pausa (no a medio audio) he ido al baño o a por agua,60.0,yes
104,2024-03-25_17h05.20.252,Unsyncopated_study3,s143,18.0,masculino,right,España,"Catalan, Castellano",Upper secondary,no,no,B,1,conjunction_un,L3,unsyncopated,s2,r2,104,Online_conjL3_un//a.chu.mo15.none.none.wav,fu,ko,di,sil,ñe,gu,je,sil1,sa,le,sil2,['-'],,,none,none,,,,12:16,1,,,,,,,,,,,,,,,3.0,3.0,Catalán,0.0,Castellano,0.0,Inglés,3.0,5.0,4.0,no,no,no,nada,0,nada,0,,,En alguna pausa (no a medio audio) he ido al baño o a por agua,60.0,yes
105,2024-03-25_17h05.20.252,Unsyncopated_study3,s143,18.0,masculino,right,España,"Catalan, Castellano",Upper secondary,no,no,B,1,conjunction_un,L3,unsyncopated,s2,r2,105,Online_conjL3_un//a.chu.mo12.none.none.wav,di,fu,gu,sil,ñe,ji,ko,sil1,sa,li,sil2,['-'],,,none,none,,,,12:16,1,,,,,,,,,,,,,,,3.0,3.0,Catalán,0.0,Castellano,0.0,Inglés,3.0,5.0,4.0,no,no,no,nada,0,nada,0,,,En alguna pausa (no a medio audio) he ido al baño o a por agua,60.0,yes
106,2024-03-25_17h05.20.252,Unsyncopated_study3,s143,18.0,masculino,right,España,"Catalan, Castellano",Upper secondary,no,no,B,1,conjunction_un,L3,unsyncopated,s1,r1,106,Online_conjL3_un//a.chu.mo13.0.888.wav,chu,gu,ji,sil,mo,li,ko,sil1,ga,le,sil2,['catch'],[1.0063999999761108],[1.0063999999761108],0.0,beat,1.0063999999761108,1.0063999999761108,"[""space""]",12:16,1,,,,,,,,,,,,,,,3.0,3.0,Catalán,0.0,Castellano,0.0,Inglés,3.0,5.0,4.0,no,no,no,nada,0,nada,0,,,En alguna pausa (no a medio audio) he ido al baño o a por agua,60.0,yes
107,2024-03-25_17h05.20.252,Unsyncopated_study3,s143,18.0,masculino,right,España,"Catalan, Castellano",Upper secondary,no,no,B,1,conjunction_un,L3,unsyncopated,s2,r1,107,Online_conjL3_un//a.chu.mo14.888.1776.wav,je,ka,li,sil,chu,di,fu,sil1,mo,le,sil2,['catch'],[2.2638999999762746],[2.2638999999762746],0.888,beat,,1.3758999999762749,"[""space""]",12:16,1,,,,,,,,,,,,,,,3.0,3.0,Catalán,0.0,Castellano,0.0,Inglés,3.0,5.0,4.0,no,no,no,nada,0,nada,0,,,En alguna pausa (no a medio audio) he ido al baño o a por agua,60.0,yes
108,2024-03-25_17h05.20.252,Unsyncopated_study3,s143,18.0,masculino,right,España,"Catalan, Castellano",Upper secondary,no,no,B,1,conjunction_un,L3,unsyncopated,s1,r1,108,Online_conjL3_un//c.gu.je22.222.1332.wav,chu,gu,di,sil,mo,ga,je,sil1,do,le,sil2,['catch'],[2.193600000024162],[2.193600000024162],1.332,no_beat,0.8616000000241619,0.8616000000241619,"[""space""]",84:88,3,,,,,,,,,,,,,,,3.0,3.0,Catalán,0.0,Castellano,0.0,Inglés,3.0,5.0,4.0,no,no,no,nada,0,nada,0,,,En alguna pausa (no a medio audio) he ido al baño o a por agua,60.0,yes
109,2024-03-25_17h05.20.252,Unsyncopated_study3,s143,18.0,masculino,right,España,"Catalan, Castellano",Upper secondary,no,no,B,1,conjunction_un,L3,unsyncopated,s2,r1,109,Online_conjL3_un//c.gu.je20.none.none.wav,li,fu,ji,sil,chu,ga,di,sil1,mo,ko,sil2,['-'],,,none,none,,,,84:88,3,,,,,,,,,,,,,,,3.0,3.0,Catalán,0.0,Castellano,0.0,Inglés,3.0,5.0,4.0,no,no,no,nada,0,nada,0,,,En alguna pausa (no a medio audio) he ido al baño o a por agua,60.0,yes
110,2024-03-25_17h05.20.252,Unsyncopated_study3,s143,18.0,masculino,right,España,"Catalan, Castellano",Upper secondary,no,no,B,1,conjunction_un,L3,unsyncopated,s2,r2,110,Online_conjL3_un//c.gu.je23.1332.444.wav,fu,ji,je,sil,ñe,ka,gu,sil1,sa,li,sil2,['catch'],[1.196900000095411],[1.196900000095411],0.444,no_beat,0.7529000000954111,0.7529000000954111,"[""space""]",84:88,3,,,,,,,,,,,,,,,3.0,3.0,Catalán,0.0,Castellano,0.0,Inglés,3.0,5.0,4.0,no,no,no,nada,0,nada,0,,,En alguna pausa (no a medio audio) he ido al baño o a por agua,60.0,yes
111,2024-03-25_17h05.20.252,Unsyncopated_study3,s143,18.0,masculino,right,España,"Catalan, Castellano",Upper secondary,no,no,B,1,conjunction_un,L3,unsyncopated,s1,r1,111,Online_conjL3_un//c.gu.je21.1110.1332.wav,chu,do,fu,sil,mo,gu,je,sil1,di,ga,sil2,['catch'],[2.0756999999284744],[2.0756999999284744],1.332,no_beat,0.7436999999284744,0.7436999999284744,"[""space""]",84:88,3,,,,,,,,,,,,,,,3.0,3.0,Catalán,0.0,Castellano,0.0,Inglés,3.0,5.0,4.0,no,no,no,nada,0,nada,0,,,En alguna pausa (no a medio audio) he ido al baño o a por agua,60.0,yes
112,2024-03-25_17h05.20.252,Unsyncopated_study3,s143,18.0,masculino,right,España,"Catalan, Castellano",Upper secondary,no,no,B,1,conjunction_un,L3,unsyncopated,s2,r1,112,Online_conjL3_un//c.gu.je2.none.none.wav,ga,ko,li,sil,chu,ka,le,sil1,mo,ji,sil2,['-'],,,none,none,,,,64:68,3,,,,,,,,,,,,,,,3.0,3.0,Catalán,0.0,Castellano,0.0,Inglés,3.0,5.0,4.0,no,no,no,nada,0,nada,0,,,En alguna pausa (no a medio audio) he ido al baño o a por agua,60.0,yes
113,2024-03-25_17h05.20.252,Unsyncopated_study3,s143,18.0,masculino,right,España,"Catalan, Castellano",Upper secondary,no,no,B,1,conjunction_un,L3,unsyncopated,s2,r1,113,Online_conjL3_un//c.gu.je0.1110.0.wav,je,ji,le,sil,chu,gu,ga,sil1,mo,li,sil2,['catch'],[1.0633000000716493],[1.0633000000716493],0.0,beat,1.0633000000716493,1.0633000000716493,"[""space""]",64:68,3,,,,,,,,,,,,,,,3.0,3.0,Catalán,0.0,Castellano,0.0,Inglés,3.0,5.0,4.0,no,no,no,nada,0,nada,0,,,En alguna pausa (no a medio audio) he ido al baño o a por agua,60.0,yes
114,2024-03-25_17h05.20.252,Unsyncopated_study3,s143,18.0,masculino,right,España,"Catalan, Castellano",Upper secondary,no,no,B,1,conjunction_un,L3,unsyncopated,s1,r1,114,Online_conjL3_un//c.gu.je3.1110.1332.wav,chu,li,le,sil,mo,gu,je,sil1,do,ka,sil2,['catch'],[2.3961000000240347],[2.3961000000240347],1.332,no_beat,1.0641000000240346,1.0641000000240346,"[""space""]",64:68,3,,,,,,,,,,,,,,,3.0,3.0,Catalán,0.0,Castellano,0.0,Inglés,3.0,5.0,4.0,no,no,no,nada,0,nada,0,,,En alguna pausa (no a medio audio) he ido al baño o a por agua,60.0,yes
115,2024-03-25_17h05.20.252,Unsyncopated_study3,s143,18.0,masculino,right,España,"Catalan, Castellano",Upper secondary,no,no,B,1,conjunction_un,L3,unsyncopated,s1,r2,115,Online_conjL3_un//c.gu.je1.444.1110.wav,ñe,fu,gu,sil,sa,je,ka,sil1,li,ji,sil2,['catch'],[2.058199999928547],[2.058199999928547],1.11,no_beat,0.9481999999285472,0.9481999999285472,"[""space""]",64:68,3,,,,,,,,,,,,,,,3.0,3.0,Catalán,0.0,Castellano,0.0,Inglés,3.0,5.0,4.0,no,no,no,nada,0,nada,0,,,En alguna pausa (no a medio audio) he ido al baño o a por agua,60.0,yes
116,2024-03-25_17h05.20.252,Unsyncopated_study3,s143,18.0,masculino,right,España,"Catalan, Castellano",Upper secondary,no,no,B,1,conjunction_un,L3,unsyncopated,s1,r2,116,Online_conjL3_un//b.ñe.sa17.0.888.wav,ñe,li,je,sil,sa,di,fu,sil1,le,ga,sil2,['catch'],[1.8769999999999527],[1.8769999999999527],0.888,beat,0.9889999999999528,0.9889999999999528,"[""space""]",48:52,2,,,,,,,,,,,,,,,3.0,3.0,Catalán,0.0,Castellano,0.0,Inglés,3.0,5.0,4.0,no,no,no,nada,0,nada,0,,,En alguna pausa (no a medio audio) he ido al baño o a por agua,60.0,yes
117,2024-03-25_17h05.20.252,Unsyncopated_study3,s143,18.0,masculino,right,España,"Catalan, Castellano",Upper secondary,no,no,B,1,conjunction_un,L3,unsyncopated,s1,r2,117,Online_conjL3_un//b.ñe.sa19.0.888.wav,ñe,je,ji,sil,sa,le,li,sil1,ko,ga,sil2,['catch'],[1.7628999999760708],[1.7628999999760708],0.888,beat,0.8748999999760708,0.8748999999760708,"[""space""]",48:52,2,,,,,,,,,,,,,,,3.0,3.0,Catalán,0.0,Castellano,0.0,Inglés,3.0,5.0,4.0,no,no,no,nada,0,nada,0,,,En alguna pausa (no a medio audio) he ido al baño o a por agua,60.0,yes
118,2024-03-25_17h05.20.252,Unsyncopated_study3,s143,18.0,masculino,right,España,"Catalan, Castellano",Upper secondary,no,no,B,1,conjunction_un,L3,unsyncopated,s2,r1,118,Online_conjL3_un//b.ñe.sa16.none.none.wav,li,ga,ko,sil,chu,le,ji,sil1,mo,ka,sil2,['-'],,,none,none,,,,48:52,2,,,,,,,,,,,,,,,3.0,3.0,Catalán,0.0,Castellano,0.0,Inglés,3.0,5.0,4.0,no,no,no,nada,0,nada,0,,,En alguna pausa (no a medio audio) he ido al baño o a por agua,60.0,yes
119,2024-03-25_17h05.20.252,Unsyncopated_study3,s143,18.0,masculino,right,España,"Catalan, Castellano",Upper secondary,no,no,B,1,conjunction_un,L3,unsyncopated,s1,r1,119,Online_conjL3_un//b.ñe.sa18.none.none.wav,chu,do,ga,sil,mo,ka,di,sil1,le,je,sil2,['-'],,,none,none,,,,48:52,2,,,,,,,,,,,,,,,3.0,3.0,Catalán,0.0,Castellano,0.0,Inglés,3.0,5.0,4.0,no,no,no,nada,0,nada,0,,,En alguna pausa (no a medio audio) he ido al baño o a por agua,60.0,yes
120,2024-03-25_17h05.20.252,Unsyncopated_study3,s143,18.0,masculino,right,España,"Catalan, Castellano",Upper secondary,no,no,B,1,conjunction_un,L3,unsyncopated,s2,r1,120,Online_conjL3_un//b.ñe.sa13.none.none.wav,ji,je,gu,sil,chu,ko,do,sil1,mo,di,sil2,['-'],,,none,none,,,,44:48,2,,,,,,,,,,,,,,,3.0,3.0,Catalán,0.0,Castellano,0.0,Inglés,3.0,5.0,4.0,no,no,no,nada,0,nada,0,,,En alguna pausa (no a medio audio) he ido al baño o a por agua,60.0,yes
121,2024-03-25_17h05.20.252,Unsyncopated_study3,s143,18.0,masculino,right,España,"Catalan, Castellano",Upper secondary,no,no,B,1,conjunction_un,L3,unsyncopated,s1,r2,121,Online_conjL3_un//b.ñe.sa15.0.888.wav,ñe,le,di,sil,sa,je,ji,sil1,fu,gu,sil2,['catch'],[1.766899999976431],[1.766899999976431],0.888,beat,0.878899999976431,0.878899999976431,"[""space""]",44:48,2,,,,,,,,,,,,,,,3.0,3.0,Catalán,0.0,Castellano,0.0,Inglés,3.0,5.0,4.0,no,no,no,nada,0,nada,0,,,En alguna pausa (no a medio audio) he ido al baño o a por agua,60.0,yes
122,2024-03-25_17h05.20.252,Unsyncopated_study3,s143,18.0,masculino,right,España,"Catalan, Castellano",Upper secondary,no,no,B,1,conjunction_un,L3,unsyncopated,s2,r2,122,Online_conjL3_un//b.ñe.sa14.888.1776.wav,gu,ko,le,sil,ñe,ka,fu,sil1,sa,di,sil2,['catch_delay'],[1.0661999999284382],[1.0661999999284382],1.776,beat,1.0661999999284382,1.0661999999284382,,44:48,2,,,,,,,,,,,,,,,3.0,3.0,Catalán,0.0,Castellano,0.0,Inglés,3.0,5.0,4.0,no,no,no,nada,0,nada,0,,,En alguna pausa (no a medio audio) he ido al baño o a por agua,60.0,yes
123,2024-03-25_17h05.20.252,Unsyncopated_study3,s143,18.0,masculino,right,España,"Catalan, Castellano",Upper secondary,no,no,B,1,conjunction_un,L3,unsyncopated,s1,r1,123,Online_conjL3_un//b.ñe.sa12.none.none.wav,chu,je,li,sil,mo,ka,ga,sil1,ko,di,sil2,['-'],[0.17819999992843805],[0.17819999992843805],none,none,,,"[""space""]",44:48,2,,,,,,,,,,,,,,,3.0,3.0,Catalán,0.0,Castellano,0.0,Inglés,3.0,5.0,4.0,no,no,no,nada,0,nada,0,,,En alguna pausa (no a medio audio) he ido al baño o a por agua,60.0,yes
124,2024-03-25_17h05.20.252,Unsyncopated_study3,s143,18.0,masculino,right,España,"Catalan, Castellano",Upper secondary,no,no,B,1,conjunction_un,L3,unsyncopated,s1,r1,124,Online_conjL3_un//d.ji.li15.none.none.wav,chu,fu,ga,sil,mo,je,gu,sil1,do,di,sil2,['-'],,,none,none,,,,108:112,4,,,,,,,,,,,,,,,3.0,3.0,Catalán,0.0,Castellano,0.0,Inglés,3.0,5.0,4.0,no,no,no,nada,0,nada,0,,,En alguna pausa (no a medio audio) he ido al baño o a por agua,60.0,yes
125,2024-03-25_17h05.20.252,Unsyncopated_study3,s143,18.0,masculino,right,España,"Catalan, Castellano",Upper secondary,no,no,B,1,conjunction_un,L3,unsyncopated,s1,r2,125,Online_conjL3_un//d.ji.li12.1332.222.wav,ñe,li,le,sil,sa,je,ji,sil1,di,ga,sil2,"['false alarm', 'catch']","[0.12569999992865633, 1.3091000000240456]",[1.3091000000240456],0.222,no_beat,1.0871000000240456,1.0871000000240456,"[""space"",""space""]",108:112,4,,,,,,,,,,,,,,,3.0,3.0,Catalán,0.0,Castellano,0.0,Inglés,3.0,5.0,4.0,no,no,no,nada,0,nada,0,,,En alguna pausa (no a medio audio) he ido al baño o a por agua,60.0,yes
126,2024-03-25_17h05.20.252,Unsyncopated_study3,s143,18.0,masculino,right,España,"Catalan, Castellano",Upper secondary,no,no,B,1,conjunction_un,L3,unsyncopated,s1,r1,126,Online_conjL3_un//d.ji.li14.1332.444.wav,chu,ko,li,sil,mo,do,ji,sil1,di,gu,sil2,['catch'],[1.4052999999526037],[1.4052999999526037],0.444,no_beat,0.9612999999526036,0.9612999999526036,"[""space""]",108:112,4,,,,,,,,,,,,,,,3.0,3.0,Catalán,0.0,Castellano,0.0,Inglés,3.0,5.0,4.0,no,no,no,nada,0,nada,0,,,En alguna pausa (no a medio audio) he ido al baño o a por agua,60.0,yes
127,2024-03-25_17h05.20.252,Unsyncopated_study3,s143,18.0,masculino,right,España,"Catalan, Castellano",Upper secondary,no,no,B,1,conjunction_un,L3,unsyncopated,s2,r1,127,Online_conjL3_un//d.ji.li13.0.1110.wav,ji,ko,gu,sil,chu,li,je,sil1,mo,ka,sil2,['miss'],,,1.11,no_beat,,,,108:112,4,,,,,,,,,,,,,,,3.0,3.0,Catalán,0.0,Castellano,0.0,Inglés,3.0,5.0,4.0,no,no,no,nada,0,nada,0,,,En alguna pausa (no a medio audio) he ido al baño o a por agua,60.0,yes
128,2024-03-25_17h05.20.252,Unsyncopated_study3,s143,18.0,masculino,right,España,"Catalan, Castellano",Upper secondary,no,no,B,2,conjunction_syn,L2,syncopated,s2,r1,0,Online_conjL2_syn//c.cha.me3.444.0.wav,me,ba,cha,go,sil,te,mi,du,sil1,ñu,sil2,['miss'],,,0.0,beat,,,,64:68,3,,,,,,,,,,,,,,,3.0,3.0,Catalán,0.0,Castellano,0.0,Inglés,3.0,5.0,4.0,no,no,no,nada,0,nada,0,,,En alguna pausa (no a medio audio) he ido al baño o a por agua,60.0,yes
129,2024-03-25_17h05.20.252,Unsyncopated_study3,s143,18.0,masculino,right,España,"Catalan, Castellano",Upper secondary,no,no,B,2,conjunction_syn,L2,syncopated,s2,r1,1,Online_conjL2_syn//c.cha.me1.222.444.wav,bi,cha,me,go,sil,ño,ñu,du,sil1,su,sil2,['miss'],,,0.444,no_beat,,,,64:68,3,,,,,,,,,,,,,,,3.0,3.0,Catalán,0.0,Castellano,0.0,Inglés,3.0,5.0,4.0,no,no,no,nada,0,nada,0,,,En alguna pausa (no a medio audio) he ido al baño o a por agua,60.0,yes
130,2024-03-25_17h05.20.252,Unsyncopated_study3,s143,18.0,masculino,right,España,"Catalan, Castellano",Upper secondary,no,no,B,2,conjunction_syn,L2,syncopated,s2,r2,2,Online_conjL2_syn//c.cha.me0.444.1110.wav,te,su,cha,fe,sil,me,si,ra,sil1,ba,sil2,['catch'],[1.8044999999997344],[1.8044999999997344],1.11,no_beat,0.6944999999997343,0.6944999999997343,"[""space""]",64:68,3,,,,,,,,,,,,,,,3.0,3.0,Catalán,0.0,Castellano,0.0,Inglés,3.0,5.0,4.0,no,no,no,nada,0,nada,0,,,En alguna pausa (no a medio audio) he ido al baño o a por agua,60.0,yes
131,2024-03-25_17h05.20.252,Unsyncopated_study3,s143,18.0,masculino,right,España,"Catalan, Castellano",Upper secondary,no,no,B,2,conjunction_syn,L2,syncopated,s2,r1,3,Online_conjL2_syn//c.cha.me2.444.0.wav,me,te,cha,go,sil,mi,su,du,sil1,ño,sil2,['miss'],,,0.0,beat,,,,64:68,3,,,,,,,,,,,,,,,3.0,3.0,Catalán,0.0,Castellano,0.0,Inglés,3.0,5.0,4.0,no,no,no,nada,0,nada,0,,,En alguna pausa (no a medio audio) he ido al baño o a por agua,60.0,yes
132,2024-03-25_17h05.20.252,Unsyncopated_study3,s143,18.0,masculino,right,España,"Catalan, Castellano",Upper secondary,no,no,B,2,conjunction_syn,L2,syncopated,s2,r2,4,Online_conjL2_syn//d.si.ñu18.none.none.wav,te,su,to,fe,sil,me,cha,ra,sil1,ba,sil2,['-'],,,none,none,,,,112:116,4,,,,,,,,,,,,,,,3.0,3.0,Catalán,0.0,Castellano,0.0,Inglés,3.0,5.0,4.0,no,no,no,nada,0,nada,0,,,En alguna pausa (no a medio audio) he ido al baño o a por agua,60.0,yes
133,2024-03-25_17h05.20.252,Unsyncopated_study3,s143,18.0,masculino,right,España,"Catalan, Castellano",Upper secondary,no,no,B,2,conjunction_syn,L2,syncopated,s2,r1,5,Online_conjL2_syn//d.si.ñu17.0.222.wav,si,ñu,te,go,sil,to,ba,du,sil1,bi,sil2,['catch'],[1.015800000071522],[1.015800000071522],0.222,no_beat,0.793800000071522,0.793800000071522,"[""space""]",112:116,4,,,,,,,,,,,,,,,3.0,3.0,Catalán,0.0,Castellano,0.0,Inglés,3.0,5.0,4.0,no,no,no,nada,0,nada,0,,,En alguna pausa (no a medio audio) he ido al baño o a por agua,60.0,yes
134,2024-03-25_17h05.20.252,Unsyncopated_study3,s143,18.0,masculino,right,España,"Catalan, Castellano",Upper secondary,no,no,B,2,conjunction_syn,L2,syncopated,s1,r2,6,Online_conjL2_syn//d.si.ñu19.444.1110.wav,fe,bi,si,ra,sil,ñu,te,to,sil1,ño,sil2,['catch'],[1.965799999952651],[1.965799999952651],1.11,no_beat,0.8557999999526509,0.8557999999526509,"[""space""]",112:116,4,,,,,,,,,,,,,,,3.0,3.0,Catalán,0.0,Castellano,0.0,Inglés,3.0,5.0,4.0,no,no,no,nada,0,nada,0,,,En alguna pausa (no a medio audio) he ido al baño o a por agua,60.0,yes
135,2024-03-25_17h05.20.252,Unsyncopated_study3,s143,18.0,masculino,right,España,"Catalan, Castellano",Upper secondary,no,no,B,2,conjunction_syn,L2,syncopated,s2,r2,7,Online_conjL2_syn//d.si.ñu16.none.none.wav,te,to,bi,fe,sil,me,mi,ra,sil1,cha,sil2,['-'],,,none,none,,,,112:116,4,,,,,,,,,,,,,,,3.0,3.0,Catalán,0.0,Castellano,0.0,Inglés,3.0,5.0,4.0,no,no,no,nada,0,nada,0,,,En alguna pausa (no a medio audio) he ido al baño o a por agua,60.0,yes
136,2024-03-25_17h05.20.252,Unsyncopated_study3,s143,18.0,masculino,right,España,"Catalan, Castellano",Upper secondary,no,no,B,2,conjunction_syn,L2,syncopated,s2,r2,8,Online_conjL2_syn//c.cha.me4.1110.0.wav,me,si,bi,fe,sil,cha,to,ra,sil1,su,sil2,['catch'],[1.086999999999989],[1.086999999999989],0.0,beat,1.086999999999989,1.086999999999989,"[""space""]",68:72,3,,,,,,,,,,,,,,,3.0,3.0,Catalán,0.0,Castellano,0.0,Inglés,3.0,5.0,4.0,no,no,no,nada,0,nada,0,,,En alguna pausa (no a medio audio) he ido al baño o a por agua,60.0,yes
137,2024-03-25_17h05.20.252,Unsyncopated_study3,s143,18.0,masculino,right,España,"Catalan, Castellano",Upper secondary,no,no,B,2,conjunction_syn,L2,syncopated,s2,r1,9,Online_conjL2_syn//c.cha.me5.none.none.wav,ño,mi,ñu,go,sil,ba,te,du,sil1,su,sil2,['-'],,,none,none,,,,68:72,3,,,,,,,,,,,,,,,3.0,3.0,Catalán,0.0,Castellano,0.0,Inglés,3.0,5.0,4.0,no,no,no,nada,0,nada,0,,,En alguna pausa (no a medio audio) he ido al baño o a por agua,60.0,yes
138,2024-03-25_17h05.20.252,Unsyncopated_study3,s143,18.0,masculino,right,España,"Catalan, Castellano",Upper secondary,no,no,B,2,conjunction_syn,L2,syncopated,s1,r1,10,Online_conjL2_syn//c.cha.me6.none.none.wav,go,to,si,du,sil,ñu,ño,mi,sil1,ba,sil2,['-'],,,none,none,,,,68:72,3,,,,,,,,,,,,,,,3.0,3.0,Catalán,0.0,Castellano,0.0,Inglés,3.0,5.0,4.0,no,no,no,nada,0,nada,0,,,En alguna pausa (no a medio audio) he ido al baño o a por agua,60.0,yes
139,2024-03-25_17h05.20.252,Unsyncopated_study3,s143,18.0,masculino,right,España,"Catalan, Castellano",Upper secondary,no,no,B,2,conjunction_syn,L2,syncopated,s2,r2,11,Online_conjL2_syn//c.cha.me7.none.none.wav,te,mi,ba,fe,sil,ñu,su,ra,sil1,to,sil2,['-'],,,none,none,,,,68:72,3,,,,,,,,,,,,,,,3.0,3.0,Catalán,0.0,Castellano,0.0,Inglés,3.0,5.0,4.0,no,no,no,nada,0,nada,0,,,En alguna pausa (no a medio audio) he ido al baño o a por agua,60.0,yes
140,2024-03-25_17h05.20.252,Unsyncopated_study3,s143,18.0,masculino,right,España,"Catalan, Castellano",Upper secondary,no,no,B,2,conjunction_syn,L2,syncopated,s1,r1,12,Online_conjL2_syn//d.si.ñu4.none.none.wav,go,su,to,du,sil,bi,me,cha,sil1,mi,sil2,['-'],,,none,none,,,,100:104,4,,,,,,,,,,,,,,,3.0,3.0,Catalán,0.0,Castellano,0.0,Inglés,3.0,5.0,4.0,no,no,no,nada,0,nada,0,,,En alguna pausa (no a medio audio) he ido al baño o a por agua,60.0,yes
141,2024-03-25_17h05.20.252,Unsyncopated_study3,s143,18.0,masculino,right,España,"Catalan, Castellano",Upper secondary,no,no,B,2,conjunction_syn,L2,syncopated,s1,r1,13,Online_conjL2_syn//d.si.ñu7.444.1110.wav,go,to,si,du,sil,ñu,te,mi,sil1,su,sil2,['catch'],[1.967899999975998],[1.967899999975998],1.11,no_beat,0.857899999975998,0.857899999975998,"[""space""]",100:104,4,,,,,,,,,,,,,,,3.0,3.0,Catalán,0.0,Castellano,0.0,Inglés,3.0,5.0,4.0,no,no,no,nada,0,nada,0,,,En alguna pausa (no a medio audio) he ido al baño o a por agua,60.0,yes
142,2024-03-25_17h05.20.252,Unsyncopated_study3,s143,18.0,masculino,right,España,"Catalan, Castellano",Upper secondary,no,no,B,2,conjunction_syn,L2,syncopated,s2,r2,14,Online_conjL2_syn//d.si.ñu5.1332.444.wav,cha,ño,ñu,fe,sil,bi,si,ra,sil1,to,sil2,['miss'],,,0.444,no_beat,,,,100:104,4,,,,,,,,,,,,,,,3.0,3.0,Catalán,0.0,Castellano,0.0,Inglés,3.0,5.0,4.0,no,no,no,nada,0,nada,0,,,En alguna pausa (no a medio audio) he ido al baño o a por agua,60.0,yes
143,2024-03-25_17h05.20.252,Unsyncopated_study3,s143,18.0,masculino,right,España,"Catalan, Castellano",Upper secondary,no,no,B,2,conjunction_syn,L2,syncopated,s1,r2,15,Online_conjL2_syn//d.si.ñu6.1110.1332.wav,fe,ño,bi,ra,sil,si,ñu,te,sil1,me,sil2,"['catch', 'false alarm']","[1.7157000000479457, 2.2942999999522726]",[1.7157000000479457],1.332,no_beat,0.3837000000479456,0.3837000000479456,"[""space"",""space""]",100:104,4,,,,,,,,,,,,,,,3.0,3.0,Catalán,0.0,Castellano,0.0,Inglés,3.0,5.0,4.0,no,no,no,nada,0,nada,0,,,En alguna pausa (no a medio audio) he ido al baño o a por agua,60.0,yes
144,2024-03-25_17h05.20.252,Unsyncopated_study3,s143,18.0,masculino,right,España,"Catalan, Castellano",Upper secondary,no,no,B,2,conjunction_syn,L2,syncopated,s2,r1,16,Online_conjL2_syn//a.go.du3.666.1554.wav,su,bi,te,go,sil,ñu,mi,du,sil1,si,sil2,['catch'],[1.4816999999284235],[1.4816999999284235],0.666,no_beat,0.8156999999284235,0.8156999999284235,"[""space""]",0:4,1,,,,,,,,,,,,,,,3.0,3.0,Catalán,0.0,Castellano,0.0,Inglés,3.0,5.0,4.0,no,no,no,nada,0,nada,0,,,En alguna pausa (no a medio audio) he ido al baño o a por agua,60.0,yes
145,2024-03-25_17h05.20.252,Unsyncopated_study3,s143,18.0,masculino,right,España,"Catalan, Castellano",Upper secondary,no,no,B,2,conjunction_syn,L2,syncopated,s1,r2,17,Online_conjL2_syn//a.go.du2.none.none.wav,fe,me,to,ra,sil,mi,te,ñu,sil1,ño,sil2,['-'],,,none,none,,,,0:4,1,,,,,,,,,,,,,,,3.0,3.0,Catalán,0.0,Castellano,0.0,Inglés,3.0,5.0,4.0,no,no,no,nada,0,nada,0,,,En alguna pausa (no a medio audio) he ido al baño o a por agua,60.0,yes
146,2024-03-25_17h05.20.252,Unsyncopated_study3,s143,18.0,masculino,right,España,"Catalan, Castellano",Upper secondary,no,no,B,2,conjunction_syn,L2,syncopated,s2,r1,18,Online_conjL2_syn//a.go.du1.666.1554.wav,su,me,mi,go,sil,ño,cha,du,sil1,te,sil2,['catch'],[1.5333999999761545],[1.5333999999761545],0.666,no_beat,0.8673999999761545,0.8673999999761545,"[""space""]",0:4,1,,,,,,,,,,,,,,,3.0,3.0,Catalán,0.0,Castellano,0.0,Inglés,3.0,5.0,4.0,no,no,no,nada,0,nada,0,,,En alguna pausa (no a medio audio) he ido al baño o a por agua,60.0,yes
147,2024-03-25_17h05.20.252,Unsyncopated_study3,s143,18.0,masculino,right,España,"Catalan, Castellano",Upper secondary,no,no,B,2,conjunction_syn,L2,syncopated,s1,r1,19,Online_conjL2_syn//a.go.du0.0.666.wav,go,me,bi,du,sil,te,su,ba,sil1,cha,sil2,['catch'],[0.9857999999526328],[0.9857999999526328],0.0,beat,0.9857999999526328,0.9857999999526328,"[""space""]",0:4,1,,,,,,,,,,,,,,,3.0,3.0,Catalán,0.0,Castellano,0.0,Inglés,3.0,5.0,4.0,no,no,no,nada,0,nada,0,,,En alguna pausa (no a medio audio) he ido al baño o a por agua,60.0,yes
148,2024-03-25_17h05.20.252,Unsyncopated_study3,s143,18.0,masculino,right,España,"Catalan, Castellano",Upper secondary,no,no,B,2,conjunction_syn,L2,syncopated,s2,r1,20,Online_conjL2_syn//d.si.ñu22.1332.222.wav,ba,ñu,me,go,sil,ño,si,du,sil1,te,sil2,['catch'],[1.0287999999527528],[1.0287999999527528],0.222,no_beat,0.8067999999527529,0.8067999999527529,"[""space""]",116:120,4,,,,,,,,,,,,,,,3.0,3.0,Catalán,0.0,Castellano,0.0,Inglés,3.0,5.0,4.0,no,no,no,nada,0,nada,0,,,En alguna pausa (no a medio audio) he ido al baño o a por agua,60.0,yes
149,2024-03-25_17h05.20.252,Unsyncopated_study3,s143,18.0,masculino,right,España,"Catalan, Castellano",Upper secondary,no,no,B,2,conjunction_syn,L2,syncopated,s2,r1,21,Online_conjL2_syn//d.si.ñu20.1110.0.wav,ñu,ño,mi,go,sil,si,to,du,sil1,me,sil2,['catch'],[0.8061000000234344],[0.8061000000234344],0.0,beat,0.8061000000234344,0.8061000000234344,"[""space""]",116:120,4,,,,,,,,,,,,,,,3.0,3.0,Catalán,0.0,Castellano,0.0,Inglés,3.0,5.0,4.0,no,no,no,nada,0,nada,0,,,En alguna pausa (no a medio audio) he ido al baño o a por agua,60.0,yes
150,2024-03-25_17h05.20.252,Unsyncopated_study3,s143,18.0,masculino,right,España,"Catalan, Castellano",Upper secondary,no,no,B,2,conjunction_syn,L2,syncopated,s2,r1,22,Online_conjL2_syn//d.si.ñu21.0.1110.wav,si,su,bi,go,sil,ñu,me,du,sil1,mi,sil2,['catch'],[1.8586999999283762],[1.8586999999283762],1.11,no_beat,0.7486999999283761,0.7486999999283761,"[""space""]",116:120,4,,,,,,,,,,,,,,,3.0,3.0,Catalán,0.0,Castellano,0.0,Inglés,3.0,5.0,4.0,no,no,no,nada,0,nada,0,,,En alguna pausa (no a medio audio) he ido al baño o a por agua,60.0,yes
151,2024-03-25_17h05.20.252,Unsyncopated_study3,s143,18.0,masculino,right,España,"Catalan, Castellano",Upper secondary,no,no,B,2,conjunction_syn,L2,syncopated,s2,r2,23,Online_conjL2_syn//d.si.ñu23.0.444.wav,si,su,ñu,fe,sil,mi,ño,ra,sil1,cha,sil2,"['catch', 'false alarm']","[1.4427999999525127, 2.485299999952531]",[1.4427999999525127],0.444,no_beat,0.9987999999525128,0.9987999999525128,"[""space"",""space""]",116:120,4,,,,,,,,,,,,,,,3.0,3.0,Catalán,0.0,Castellano,0.0,Inglés,3.0,5.0,4.0,no,no,no,nada,0,nada,0,,,En alguna pausa (no a medio audio) he ido al baño o a por agua,60.0,yes
152,2024-03-25_17h05.20.252,Unsyncopated_study3,s143,18.0,masculino,right,España,"Catalan, Castellano",Upper secondary,no,no,B,2,conjunction_syn,L2,syncopated,s1,r2,24,Online_conjL2_syn//a.go.du5.none.none.wav,fe,ñu,cha,ra,sil,te,ño,ba,sil1,si,sil2,['-'],,,none,none,,,,4:8,1,,,,,,,,,,,,,,,3.0,3.0,Catalán,0.0,Castellano,0.0,Inglés,3.0,5.0,4.0,no,no,no,nada,0,nada,0,,,En alguna pausa (no a medio audio) he ido al baño o a por agua,60.0,yes
153,2024-03-25_17h05.20.252,Unsyncopated_study3,s143,18.0,masculino,right,España,"Catalan, Castellano",Upper secondary,no,no,B,2,conjunction_syn,L2,syncopated,s2,r1,25,Online_conjL2_syn//a.go.du4.666.1554.wav,mi,si,te,go,sil,ño,to,du,sil1,ñu,sil2,['catch'],[1.398899999976038],[1.398899999976038],0.666,no_beat,0.732899999976038,0.732899999976038,"[""space""]",4:8,1,,,,,,,,,,,,,,,3.0,3.0,Catalán,0.0,Castellano,0.0,Inglés,3.0,5.0,4.0,no,no,no,nada,0,nada,0,,,En alguna pausa (no a medio audio) he ido al baño o a por agua,60.0,yes
154,2024-03-25_17h05.20.252,Unsyncopated_study3,s143,18.0,masculino,right,España,"Catalan, Castellano",Upper secondary,no,no,B,2,conjunction_syn,L2,syncopated,s1,r2,26,Online_conjL2_syn//a.go.du7.none.none.wav,fe,mi,ñu,ra,sil,ño,ba,me,sil1,su,sil2,['-'],,,none,none,,,,4:8,1,,,,,,,,,,,,,,,3.0,3.0,Catalán,0.0,Castellano,0.0,Inglés,3.0,5.0,4.0,no,no,no,nada,0,nada,0,,,En alguna pausa (no a medio audio) he ido al baño o a por agua,60.0,yes
155,2024-03-25_17h05.20.252,Unsyncopated_study3,s143,18.0,masculino,right,España,"Catalan, Castellano",Upper secondary,no,no,B,2,conjunction_syn,L2,syncopated,s1,r1,27,Online_conjL2_syn//a.go.du6.0.666.wav,go,bi,to,du,sil,me,su,ba,sil1,te,sil2,['catch'],[0.7541999999284599],[0.7541999999284599],0.0,beat,0.7541999999284599,0.7541999999284599,"[""space""]",4:8,1,,,,,,,,,,,,,,,3.0,3.0,Catalán,0.0,Castellano,0.0,Inglés,3.0,5.0,4.0,no,no,no,nada,0,nada,0,,,En alguna pausa (no a medio audio) he ido al baño o a por agua,60.0,yes
156,2024-03-25_17h05.20.252,Unsyncopated_study3,s143,18.0,masculino,right,España,"Catalan, Castellano",Upper secondary,no,no,B,2,conjunction_syn,L2,syncopated,s2,r1,28,Online_conjL2_syn//b.fe.ra22.none.none.wav,cha,ño,me,go,sil,ñu,to,du,sil1,mi,sil2,['-'],,,none,none,,,,52:56,2,,,,,,,,,,,,,,,3.0,3.0,Catalán,0.0,Castellano,0.0,Inglés,3.0,5.0,4.0,no,no,no,nada,0,nada,0,,,En alguna pausa (no a medio audio) he ido al baño o a por agua,60.0,yes
157,2024-03-25_17h05.20.252,Unsyncopated_study3,s143,18.0,masculino,right,España,"Catalan, Castellano",Upper secondary,no,no,B,2,conjunction_syn,L2,syncopated,s1,r1,29,Online_conjL2_syn//b.fe.ra21.none.none.wav,go,bi,cha,du,sil,te,me,mi,sil1,ba,sil2,['-'],,,none,none,,,,52:56,2,,,,,,,,,,,,,,,3.0,3.0,Catalán,0.0,Castellano,0.0,Inglés,3.0,5.0,4.0,no,no,no,nada,0,nada,0,,,En alguna pausa (no a medio audio) he ido al baño o a por agua,60.0,yes
158,2024-03-25_17h05.20.252,Unsyncopated_study3,s143,18.0,masculino,right,España,"Catalan, Castellano",Upper secondary,no,no,B,2,conjunction_syn,L2,syncopated,s2,r1,30,Online_conjL2_syn//b.fe.ra23.none.none.wav,me,su,bi,go,sil,ñu,mi,du,sil1,si,sil2,['-'],,,none,none,,,,52:56,2,,,,,,,,,,,,,,,3.0,3.0,Catalán,0.0,Castellano,0.0,Inglés,3.0,5.0,4.0,no,no,no,nada,0,nada,0,,,En alguna pausa (no a medio audio) he ido al baño o a por agua,60.0,yes
159,2024-03-25_17h05.20.252,Unsyncopated_study3,s143,18.0,masculino,right,España,"Catalan, Castellano",Upper secondary,no,no,B,2,conjunction_syn,L2,syncopated,s2,r2,31,Online_conjL2_syn//b.fe.ra20.666.1554.wav,si,ño,cha,fe,sil,to,me,ra,sil1,su,sil2,['catch'],[2.3250999999045234],[2.3250999999045234],1.554,no_beat,0.7710999999045234,0.7710999999045234,"[""space""]",52:56,2,,,,,,,,,,,,,,,3.0,3.0,Catalán,0.0,Castellano,0.0,Inglés,3.0,5.0,4.0,no,no,no,nada,0,nada,0,,,En alguna pausa (no a medio audio) he ido al baño o a por agua,60.0,yes
160,2024-03-25_17h05.20.252,Unsyncopated_study3,s143,18.0,masculino,right,España,"Catalan, Castellano",Upper secondary,no,no,B,2,conjunction_syn,L2,syncopated,s1,r2,32,Online_conjL2_syn//b.fe.ra10.0.666.wav,fe,bi,cha,ra,sil,si,te,su,sil1,ba,sil2,['catch'],[1.4369999999998981],[1.4369999999998981],0.666,no_beat,0.7709999999998981,0.7709999999998981,"[""space""]",40:44,2,,,,,,,,,,,,,,,3.0,3.0,Catalán,0.0,Castellano,0.0,Inglés,3.0,5.0,4.0,no,no,no,nada,0,nada,0,,,En alguna pausa (no a medio audio) he ido al baño o a por agua,60.0,yes
161,2024-03-25_17h05.20.252,Unsyncopated_study3,s143,18.0,masculino,right,España,"Catalan, Castellano",Upper secondary,no,no,B,2,conjunction_syn,L2,syncopated,s2,r2,33,Online_conjL2_syn//b.fe.ra9.666.1554.wav,cha,to,bi,fe,sil,ñu,me,ra,sil1,ño,sil2,['catch'],[2.2739999999998872],[2.2739999999998872],1.554,no_beat,0.7199999999998872,0.7199999999998872,"[""space""]",40:44,2,,,,,,,,,,,,,,,3.0,3.0,Catalán,0.0,Castellano,0.0,Inglés,3.0,5.0,4.0,no,no,no,nada,0,nada,0,,,En alguna pausa (no a medio audio) he ido al baño o a por agua,60.0,yes
162,2024-03-25_17h05.20.252,Unsyncopated_study3,s143,18.0,masculino,right,España,"Catalan, Castellano",Upper secondary,no,no,B,2,conjunction_syn,L2,syncopated,s2,r2,34,Online_conjL2_syn//b.fe.ra8.666.1554.wav,to,mi,ño,fe,sil,cha,te,ra,sil1,me,sil2,['miss'],,,1.554,no_beat,,,,40:44,2,,,,,,,,,,,,,,,3.0,3.0,Catalán,0.0,Castellano,0.0,Inglés,3.0,5.0,4.0,no,no,no,nada,0,nada,0,,,En alguna pausa (no a medio audio) he ido al baño o a por agua,60.0,yes
163,2024-03-25_17h05.20.252,Unsyncopated_study3,s143,18.0,masculino,right,España,"Catalan, Castellano",Upper secondary,no,no,B,2,conjunction_syn,L2,syncopated,s1,r2,35,Online_conjL2_syn//b.fe.ra11.0.666.wav,fe,to,bi,ra,sil,mi,me,ñu,sil1,ba,sil2,['catch'],[1.704899999976078],[1.704899999976078],0.666,no_beat,1.0388999999760782,1.0388999999760782,"[""space""]",40:44,2,,,,,,,,,,,,,,,3.0,3.0,Catalán,0.0,Castellano,0.0,Inglés,3.0,5.0,4.0,no,no,no,nada,0,nada,0,,,En alguna pausa (no a medio audio) he ido al baño o a por agua,60.0,yes
164,2024-03-25_17h05.20.252,Unsyncopated_study3,s143,18.0,masculino,right,España,"Catalan, Castellano",Upper secondary,no,no,B,2,conjunction_syn,L2,syncopated,s2,r1,36,Online_conjL2_syn//b.fe.ra4.none.none.wav,me,bi,ño,go,sil,ñu,to,du,sil1,te,sil2,['-'],,,none,none,,,,36:40,2,,,,,,,,,,,,,,,3.0,3.0,Catalán,0.0,Castellano,0.0,Inglés,3.0,5.0,4.0,no,no,no,nada,0,nada,0,,,En alguna pausa (no a medio audio) he ido al baño o a por agua,60.0,yes
165,2024-03-25_17h05.20.252,Unsyncopated_study3,s143,18.0,masculino,right,España,"Catalan, Castellano",Upper secondary,no,no,B,2,conjunction_syn,L2,syncopated,s2,r1,37,Online_conjL2_syn//b.fe.ra6.none.none.wav,te,ño,ba,go,sil,ñu,cha,du,sil1,su,sil2,['-'],,,none,none,,,,36:40,2,,,,,,,,,,,,,,,3.0,3.0,Catalán,0.0,Castellano,0.0,Inglés,3.0,5.0,4.0,no,no,no,nada,0,nada,0,,,En alguna pausa (no a medio audio) he ido al baño o a por agua,60.0,yes
166,2024-03-25_17h05.20.252,Unsyncopated_study3,s143,18.0,masculino,right,España,"Catalan, Castellano",Upper secondary,no,no,B,2,conjunction_syn,L2,syncopated,s2,r1,38,Online_conjL2_syn//b.fe.ra7.none.none.wav,ba,cha,me,go,sil,su,si,du,sil1,mi,sil2,['-'],,,none,none,,,,36:40,2,,,,,,,,,,,,,,,3.0,3.0,Catalán,0.0,Castellano,0.0,Inglés,3.0,5.0,4.0,no,no,no,nada,0,nada,0,,,En alguna pausa (no a medio audio) he ido al baño o a por agua,60.0,yes
167,2024-03-25_17h05.20.252,Unsyncopated_study3,s143,18.0,masculino,right,España,"Catalan, Castellano",Upper secondary,no,no,B,2,conjunction_syn,L2,syncopated,s2,r2,39,Online_conjL2_syn//b.fe.ra5.666.1554.wav,ñu,te,to,fe,sil,ba,su,ra,sil1,mi,sil2,['catch'],[2.5003000000715474],[2.5003000000715474],1.554,no_beat,0.9463000000715474,0.9463000000715474,"[""space""]",36:40,2,,,,,,,,,,,,,,,3.0,3.0,Catalán,0.0,Castellano,0.0,Inglés,3.0,5.0,4.0,no,no,no,nada,0,nada,0,,,En alguna pausa (no a medio audio) he ido al baño o a por agua,60.0,yes
168,2024-03-25_17h05.20.252,Unsyncopated_study3,s143,18.0,masculino,right,España,"Catalan, Castellano",Upper secondary,no,no,B,2,conjunction_syn,L2,syncopated,s1,r2,40,Online_conjL2_syn//d.si.ñu28.1554.1110.wav,fe,te,su,ra,sil,ñu,bi,si,sil1,mi,sil2,['catch'],[1.9018999999761945],[1.9018999999761945],1.11,no_beat,0.7918999999761944,0.7918999999761944,"[""space""]",124:128,4,,,,,,,,,,,,,,,3.0,3.0,Catalán,0.0,Castellano,0.0,Inglés,3.0,5.0,4.0,no,no,no,nada,0,nada,0,,,En alguna pausa (no a medio audio) he ido al baño o a por agua,60.0,yes
169,2024-03-25_17h05.20.252,Unsyncopated_study3,s143,18.0,masculino,right,España,"Catalan, Castellano",Upper secondary,no,no,B,2,conjunction_syn,L2,syncopated,s1,r1,41,Online_conjL2_syn//d.si.ñu30.222.1332.wav,go,si,te,du,sil,ño,ñu,mi,sil1,bi,sil2,"['catch', 'false alarm']","[1.8948999999761327, 2.2333999999764274]",[1.8948999999761327],1.332,no_beat,0.5628999999761326,0.5628999999761326,"[""space"",""space""]",124:128,4,,,,,,,,,,,,,,,3.0,3.0,Catalán,0.0,Castellano,0.0,Inglés,3.0,5.0,4.0,no,no,no,nada,0,nada,0,,,En alguna pausa (no a medio audio) he ido al baño o a por agua,60.0,yes
170,2024-03-25_17h05.20.252,Unsyncopated_study3,s143,18.0,masculino,right,España,"Catalan, Castellano",Upper secondary,no,no,B,2,conjunction_syn,L2,syncopated,s1,r1,42,Online_conjL2_syn//d.si.ñu31.none.none.wav,go,me,ño,du,sil,ba,te,mi,sil1,cha,sil2,['false alarm'],[1.311299999952098],[1.311299999952098],none,none,,,"[""space""]",124:128,4,,,,,,,,,,,,,,,3.0,3.0,Catalán,0.0,Castellano,0.0,Inglés,3.0,5.0,4.0,no,no,no,nada,0,nada,0,,,En alguna pausa (no a medio audio) he ido al baño o a por agua,60.0,yes
171,2024-03-25_17h05.20.252,Unsyncopated_study3,s143,18.0,masculino,right,España,"Catalan, Castellano",Upper secondary,no,no,B,2,conjunction_syn,L2,syncopated,s1,r1,43,Online_conjL2_syn//d.si.ñu29.1554.222.wav,go,ñu,me,du,sil,ño,mi,si,sil1,to,sil2,['catch'],[1.0512999999523345],[1.0512999999523345],0.222,no_beat,0.8292999999523345,0.8292999999523345,"[""space""]",124:128,4,,,,,,,,,,,,,,,3.0,3.0,Catalán,0.0,Castellano,0.0,Inglés,3.0,5.0,4.0,no,no,no,nada,0,nada,0,,,En alguna pausa (no a medio audio) he ido al baño o a por agua,60.0,yes
172,2024-03-25_17h05.20.252,Unsyncopated_study3,s143,18.0,masculino,right,España,"Catalan, Castellano",Upper secondary,no,no,B,2,conjunction_syn,L2,syncopated,s2,r1,44,Online_conjL2_syn//b.fe.ra12.none.none.wav,ba,to,mi,go,sil,bi,si,du,sil1,me,sil2,['-'],,,none,none,,,,44:48,2,,,,,,,,,,,,,,,3.0,3.0,Catalán,0.0,Castellano,0.0,Inglés,3.0,5.0,4.0,no,no,no,nada,0,nada,0,,,En alguna pausa (no a medio audio) he ido al baño o a por agua,60.0,yes
173,2024-03-25_17h05.20.252,Unsyncopated_study3,s143,18.0,masculino,right,España,"Catalan, Castellano",Upper secondary,no,no,B,2,conjunction_syn,L2,syncopated,s1,r2,45,Online_conjL2_syn//b.fe.ra14.0.666.wav,fe,te,ño,ra,sil,su,cha,bi,sil1,to,sil2,['catch'],[1.425499999999829],[1.425499999999829],0.666,no_beat,0.759499999999829,0.759499999999829,"[""space""]",44:48,2,,,,,,,,,,,,,,,3.0,3.0,Catalán,0.0,Castellano,0.0,Inglés,3.0,5.0,4.0,no,no,no,nada,0,nada,0,,,En alguna pausa (no a medio audio) he ido al baño o a por agua,60.0,yes
174,2024-03-25_17h05.20.252,Unsyncopated_study3,s143,18.0,masculino,right,España,"Catalan, Castellano",Upper secondary,no,no,B,2,conjunction_syn,L2,syncopated,s1,r1,46,Online_conjL2_syn//b.fe.ra15.none.none.wav,go,ñu,to,du,sil,bi,cha,ño,sil1,ba,sil2,['-'],,,none,none,,,,44:48,2,,,,,,,,,,,,,,,3.0,3.0,Catalán,0.0,Castellano,0.0,Inglés,3.0,5.0,4.0,no,no,no,nada,0,nada,0,,,En alguna pausa (no a medio audio) he ido al baño o a por agua,60.0,yes
175,2024-03-25_17h05.20.252,Unsyncopated_study3,s143,18.0,masculino,right,España,"Catalan, Castellano",Upper secondary,no,no,B,2,conjunction_syn,L2,syncopated,s1,r2,47,Online_conjL2_syn//b.fe.ra13.0.666.wav,fe,si,ba,ra,sil,bi,su,ñu,sil1,ño,sil2,['catch'],[1.4579000000953783],[1.4579000000953783],0.666,no_beat,0.7919000000953783,0.7919000000953783,"[""space""]",44:48,2,,,,,,,,,,,,,,,3.0,3.0,Catalán,0.0,Castellano,0.0,Inglés,3.0,5.0,4.0,no,no,no,nada,0,nada,0,,,En alguna pausa (no a medio audio) he ido al baño o a por agua,60.0,yes
176,2024-03-25_17h05.20.252,Unsyncopated_study3,s143,18.0,masculino,right,España,"Catalan, Castellano",Upper secondary,no,no,B,2,conjunction_syn,L2,syncopated,s1,r2,48,Online_conjL2_syn//d.si.ñu9.1110.1332.wav,fe,te,ño,ra,sil,si,ñu,bi,sil1,cha,sil2,['catch'],[2.45610000002398],[2.45610000002398],1.332,no_beat,1.12410000002398,1.12410000002398,"[""space""]",104:108,4,,,,,,,,,,,,,,,3.0,3.0,Catalán,0.0,Castellano,0.0,Inglés,3.0,5.0,4.0,no,no,no,nada,0,nada,0,,,En alguna pausa (no a medio audio) he ido al baño o a por agua,60.0,yes
177,2024-03-25_17h05.20.252,Unsyncopated_study3,s143,18.0,masculino,right,España,"Catalan, Castellano",Upper secondary,no,no,B,2,conjunction_syn,L2,syncopated,s1,r2,49,Online_conjL2_syn//d.si.ñu11.none.none.wav,fe,me,ño,ra,sil,su,to,cha,sil1,bi,sil2,['-'],,,none,none,,,,104:108,4,,,,,,,,,,,,,,,3.0,3.0,Catalán,0.0,Castellano,0.0,Inglés,3.0,5.0,4.0,no,no,no,nada,0,nada,0,,,En alguna pausa (no a medio audio) he ido al baño o a por agua,60.0,yes
178,2024-03-25_17h05.20.252,Unsyncopated_study3,s143,18.0,masculino,right,España,"Catalan, Castellano",Upper secondary,no,no,B,2,conjunction_syn,L2,syncopated,s1,r2,50,Online_conjL2_syn//d.si.ñu8.none.none.wav,fe,ba,bi,ra,sil,cha,ño,te,sil1,mi,sil2,['-'],,,none,none,,,,104:108,4,,,,,,,,,,,,,,,3.0,3.0,Catalán,0.0,Castellano,0.0,Inglés,3.0,5.0,4.0,no,no,no,nada,0,nada,0,,,En alguna pausa (no a medio audio) he ido al baño o a por agua,60.0,yes
179,2024-03-25_17h05.20.252,Unsyncopated_study3,s143,18.0,masculino,right,España,"Catalan, Castellano",Upper secondary,no,no,B,2,conjunction_syn,L2,syncopated,s2,r1,51,Online_conjL2_syn//d.si.ñu10.none.none.wav,ño,te,me,go,sil,su,to,du,sil1,ba,sil2,"['false alarm', 'false alarm']","[0.22009999990450524, 0.9550999999046326]",0.9550999999046326,none,none,,,"[""space"",""space""]",104:108,4,,,,,,,,,,,,,,,3.0,3.0,Catalán,0.0,Castellano,0.0,Inglés,3.0,5.0,4.0,no,no,no,nada,0,nada,0,,,En alguna pausa (no a medio audio) he ido al baño o a por agua,60.0,yes
180,2024-03-25_17h05.20.252,Unsyncopated_study3,s143,18.0,masculino,right,España,"Catalan, Castellano",Upper secondary,no,no,B,2,conjunction_syn,L2,syncopated,s1,r1,52,Online_conjL2_syn//c.cha.me13.222.1110.wav,go,cha,su,du,sil,me,ño,ñu,sil1,mi,sil2,['catch'],[1.88870000004772],[1.88870000004772],1.11,no_beat,0.77870000004772,0.77870000004772,"[""space""]",76:80,3,,,,,,,,,,,,,,,3.0,3.0,Catalán,0.0,Castellano,0.0,Inglés,3.0,5.0,4.0,no,no,no,nada,0,nada,0,,,En alguna pausa (no a medio audio) he ido al baño o a por agua,60.0,yes
181,2024-03-25_17h05.20.252,Unsyncopated_study3,s143,18.0,masculino,right,España,"Catalan, Castellano",Upper secondary,no,no,B,2,conjunction_syn,L2,syncopated,s1,r1,53,Online_conjL2_syn//c.cha.me12.none.none.wav,go,te,ño,du,sil,bi,ñu,to,sil1,mi,sil2,['-'],,,none,none,,,,76:80,3,,,,,,,,,,,,,,,3.0,3.0,Catalán,0.0,Castellano,0.0,Inglés,3.0,5.0,4.0,no,no,no,nada,0,nada,0,,,En alguna pausa (no a medio audio) he ido al baño o a por agua,60.0,yes
182,2024-03-25_17h05.20.252,Unsyncopated_study3,s143,18.0,masculino,right,España,"Catalan, Castellano",Upper secondary,no,no,B,2,conjunction_syn,L2,syncopated,s1,r2,54,Online_conjL2_syn//c.cha.me15.222.1110.wav,fe,cha,si,ra,sil,me,su,ba,sil1,ñu,sil2,['miss'],,,1.11,no_beat,,,,76:80,3,,,,,,,,,,,,,,,3.0,3.0,Catalán,0.0,Castellano,0.0,Inglés,3.0,5.0,4.0,no,no,no,nada,0,nada,0,,,En alguna pausa (no a medio audio) he ido al baño o a por agua,60.0,yes
