Unnamed: 0,date,expName,participant,age,sex,hand,residence,native_lang,education_level,lang_deficit,aud_deficit,group,block,condition,language,rhythm,rule structure online,rule type online,order_trial_on,trial_online,s1,s2,s3,s4,s5,s6,s7,s8,s9,s10,s11,catch_syll_resp,rts_syll_catch,clean_rts,time_syll,beat_no_beat,catch_rtsTR,catch_rts,syllable_catch.keys,cond_syll,syll_to_catch,test_offline,block_off,condition_off,rhythm_off,rule,rule_str_off,rule_norule,conds_offline,language_off,Partz_no_partm.keys,Partz_no_partm.rt,security_1_7.keys,accuracy,security_1_7.rt,n_lang,n_lang_used,lang_1,age_l1,lang_2,age_l2,lang_3,age_l3,lang_4,age_l4,ability_learn_l2,tendence_mix_lan,music_experience,muisc_use,partiture,instr_1,age_M1,preguntas_musica1,BMRQ_answer.response,final comment,BMRQ_Score,bilingual
0,2023-12-18_15h33.50.912,Unsyncopated_study2,s85,20.0,feminino,right,España,Catalán y Castellano,Upper secondary,no,no,A,1,what,L3,unsyncopated,s1,r1,0,Online_whatL3//a.chu.mo18.0.888.wav,chu,le,ko,sil,mo,ka,li,sil1,gu,je,sil2,['catch'],[1.1874000000357228],[1.1874000000357228],0.888,beat,0.2994000000357227,0.2994000000357227,"[""space""]",mo,2,testWhatL3Uns//time_viol.r2.s1.0.wav,1.0,what,unsyncopated,b,s1,no_rule,time,L3,z,1.9681,5.0,0.0,1.8754,4.0,3.0,Catalán,0.0,Castellano,0.0,Inglés,3.0,Alemán,12.0,5.0,3.0,no,no,no,nada,,1. Cuando comparto música con alguien siento una complicidad especial con aquella persona.,3.0,"En general ha ido bien, pero si que es cierto que estaba muy cansada i en algun momentito me he desconcentrado. ",66.0,yes
1,2023-12-18_15h33.50.912,Unsyncopated_study2,s85,20.0,feminino,right,España,Catalán y Castellano,Upper secondary,no,no,A,1,what,L3,unsyncopated,s1,r1,1,Online_whatL3//a.chu.mo16.0.1110.wav,chu,ga,gu,sil2,mo,li,fu,sil,do,ka,sil1,['catch'],[1.4653000000118936],[1.4653000000118936],1.11,no_beat,0.3553000000118935,0.3553000000118935,"[""space""]",mo,2,testWhatL3Uns//r1.s1.2.wav,1.0,what,unsyncopated,a,s1,rule,rule,L3,m,0.4326,7.0,0.0,1.4743,4.0,3.0,Catalán,0.0,Castellano,0.0,Inglés,3.0,Alemán,12.0,5.0,3.0,no,no,no,nada,,2. En mi tiempo libre apenas escucho música.,5.0,"En general ha ido bien, pero si que es cierto que estaba muy cansada i en algun momentito me he desconcentrado. ",66.0,yes
2,2023-12-18_15h33.50.912,Unsyncopated_study2,s85,20.0,feminino,right,España,Catalán y Castellano,Upper secondary,no,no,A,1,what,L3,unsyncopated,s2,r2,2,Online_whatL3//a.chu.mo19.none.none.wav,ga,gu,ji,sil,ñe,ko,je,sil2,sa,li,sil1,['-'],,,none,none,,,,mo,2,testWhatL3Uns//dep_viol.r2.s1.0.wav,1.0,what,unsyncopated,b,s1,no_rule,dep,L3,m,1.0508,5.0,1.0,2.6843,4.0,3.0,Catalán,0.0,Castellano,0.0,Inglés,3.0,Alemán,12.0,5.0,3.0,no,no,no,nada,,3. Algunas canciones me ponen los pelos de punta,2.0,"En general ha ido bien, pero si que es cierto que estaba muy cansada i en algun momentito me he desconcentrado. ",66.0,yes
3,2023-12-18_15h33.50.912,Unsyncopated_study2,s85,20.0,feminino,right,España,Catalán y Castellano,Upper secondary,no,no,A,1,what,L3,unsyncopated,s2,r1,3,Online_whatL3//a.chu.mo17.888.1998.wav,je,le,ji,sil,chu,do,fu,sil2,mo,li,sil1,['catch'],[2.383000000000038],[2.383000000000038],1.998,no_beat,0.3850000000000382,0.3850000000000382,"[""space""]",mo,2,testWhatL3Uns//cat_viol.r1.s2.0.wav,1.0,what,unsyncopated,a,s2,no_rule,cat,L3,z,0.3006,6.0,0.0,1.4823,4.0,3.0,Catalán,0.0,Castellano,0.0,Inglés,3.0,Alemán,12.0,5.0,3.0,no,no,no,nada,,4. La música me hace compañía cuando estoy solo,4.0,"En general ha ido bien, pero si que es cierto que estaba muy cansada i en algun momentito me he desconcentrado. ",66.0,yes
4,2023-12-18_15h33.50.912,Unsyncopated_study2,s85,20.0,feminino,right,España,Catalán y Castellano,Upper secondary,no,no,A,1,what,L3,unsyncopated,s2,r1,4,Online_whatL3//c.gu.je5.none.none.wav,do,di,ji,sil,chu,li,ka,sil1,mo,le,sil2,['-'],,,none,none,,,,gu,3,testWhatL3Uns//r1.s2.0.wav,1.0,what,unsyncopated,a,s2,rule,rule,L3,z,0.271,5.0,1.0,1.2327,4.0,3.0,Catalán,0.0,Castellano,0.0,Inglés,3.0,Alemán,12.0,5.0,3.0,no,no,no,nada,,5. No me apetece bailar ni con la música que más me gusta,5.0,"En general ha ido bien, pero si que es cierto que estaba muy cansada i en algun momentito me he desconcentrado. ",66.0,yes
5,2023-12-18_15h33.50.912,Unsyncopated_study2,s85,20.0,feminino,right,España,Catalán y Castellano,Upper secondary,no,no,A,1,what,L3,unsyncopated,s2,r2,5,Online_whatL3//c.gu.je4.1110.222.wav,do,je,di,sil,ñe,gu,ji,sil1,sa,le,sil2,['miss'],,,1.11,no_beat,,,,gu,3,testWhatL3Uns//r1.s1.0.wav,1.0,what,unsyncopated,a,s1,rule,rule,L3,m,0.7943,4.0,0.0,1.5361,4.0,3.0,Catalán,0.0,Castellano,0.0,Inglés,3.0,Alemán,12.0,5.0,3.0,no,no,no,nada,,6. La música me hace conectar con la gente,3.0,"En general ha ido bien, pero si que es cierto que estaba muy cansada i en algun momentito me he desconcentrado. ",66.0,yes
6,2023-12-18_15h33.50.912,Unsyncopated_study2,s85,20.0,feminino,right,España,Catalán y Castellano,Upper secondary,no,no,A,1,what,L3,unsyncopated,s2,r2,6,Online_whatL3//c.gu.je7.none.none.wav,ga,li,do,sil,ñe,ka,ko,sil1,sa,le,sil2,['false alarm'],[0.4994000000357346],[0.4994000000357346],none,none,,,"[""space""]",gu,3,testWhatL3Uns//cat_viol.r1.s1.0.wav,1.0,what,unsyncopated,a,s1,no_rule,cat,L3,z,0.7084,6.0,0.0,0.9189,4.0,3.0,Catalán,0.0,Castellano,0.0,Inglés,3.0,Alemán,12.0,5.0,3.0,no,no,no,nada,,7. Me informo sobre la música que me gusta.,3.0,"En general ha ido bien, pero si que es cierto que estaba muy cansada i en algun momentito me he desconcentrado. ",66.0,yes
7,2023-12-18_15h33.50.912,Unsyncopated_study2,s85,20.0,feminino,right,España,Catalán y Castellano,Upper secondary,no,no,A,1,what,L3,unsyncopated,s1,r1,7,Online_whatL3//c.gu.je6.222.444.wav,chu,gu,je,sil2,mo,fu,ko,sil,ji,ka,sil1,['catch'],[0.8471000000238291],[0.8471000000238291],0.222,no_beat,0.6251000000238291,0.6251000000238291,"[""space""]",gu,3,testWhatL3Uns//dep_viol.r2.s2.0.wav,1.0,what,unsyncopated,b,s2,no_rule,dep,L3,z,0.2875,7.0,0.0,1.0175,4.0,3.0,Catalán,0.0,Castellano,0.0,Inglés,3.0,Alemán,12.0,5.0,3.0,no,no,no,nada,,8.Me emociono escuchando ciertas canciones.,4.0,"En general ha ido bien, pero si que es cierto que estaba muy cansada i en algun momentito me he desconcentrado. ",66.0,yes
8,2023-12-18_15h33.50.912,Unsyncopated_study2,s85,20.0,feminino,right,España,Catalán y Castellano,Upper secondary,no,no,A,1,what,L3,unsyncopated,s1,r2,8,Online_whatL3//a.chu.mo15.none.none.wav,ñe,gu,li,sil,sa,ko,ji,sil2,je,ka,sil1,['-'],,,none,none,,,,mo,2,testWhatL3Uns//dep_viol.r1.s2.0.wav,1.0,what,unsyncopated,a,s2,no_rule,dep,L3,z,0.6282,4.0,0.0,1.1676,4.0,3.0,Catalán,0.0,Castellano,0.0,Inglés,3.0,Alemán,12.0,5.0,3.0,no,no,no,nada,,9.La música me tranquiliza y me relaja.,3.0,"En general ha ido bien, pero si que es cierto que estaba muy cansada i en algun momentito me he desconcentrado. ",66.0,yes
9,2023-12-18_15h33.50.912,Unsyncopated_study2,s85,20.0,feminino,right,España,Catalán y Castellano,Upper secondary,no,no,A,1,what,L3,unsyncopated,s1,r1,9,Online_whatL3//a.chu.mo14.0.888.wav,chu,fu,do,sil,mo,ko,je,sil2,ga,ji,sil1,['catch'],[1.4151000000238128],[1.4151000000238128],0.888,beat,0.5271000000238127,0.5271000000238127,"[""space""]",mo,2,testWhatL3Uns//r2.s1.0.wav,1.0,what,unsyncopated,b,s1,rule,rule,L3,z,0.277,6.0,1.0,1.1177,4.0,3.0,Catalán,0.0,Castellano,0.0,Inglés,3.0,Alemán,12.0,5.0,3.0,no,no,no,nada,,10.La música me hace bailar,4.0,"En general ha ido bien, pero si que es cierto que estaba muy cansada i en algun momentito me he desconcentrado. ",66.0,yes
10,2023-12-18_15h33.50.912,Unsyncopated_study2,s85,20.0,feminino,right,España,Catalán y Castellano,Upper secondary,no,no,A,1,what,L3,unsyncopated,s2,r1,10,Online_whatL3//a.chu.mo12.1110.1998.wav,gu,do,le,sil2,chu,ko,ji,sil,mo,li,sil1,['catch_delay'],[0.8332999999523201],[0.8332999999523201],1.998,no_beat,0.8332999999523201,0.8332999999523201,,mo,2,testWhatL3Uns//r1.s1.1.wav,1.0,what,unsyncopated,a,s1,rule,rule,L3,m,0.9008,3.0,0.0,1.0839,4.0,3.0,Catalán,0.0,Castellano,0.0,Inglés,3.0,Alemán,12.0,5.0,3.0,no,no,no,nada,,11.Busco novedades musicales continuamente,3.0,"En general ha ido bien, pero si que es cierto que estaba muy cansada i en algun momentito me he desconcentrado. ",66.0,yes
11,2023-12-18_15h33.50.912,Unsyncopated_study2,s85,20.0,feminino,right,España,Catalán y Castellano,Upper secondary,no,no,A,1,what,L3,unsyncopated,s2,r2,11,Online_whatL3//a.chu.mo13.none.none.wav,ko,ka,li,sil2,ñe,fu,gu,sil,sa,ji,sil1,['-'],[0.16729999995231992],[0.16729999995231992],none,none,,,"[""space""]",mo,2,testWhatL3Uns//cat_viol.r2.s1.0.wav,1.0,what,unsyncopated,b,s1,no_rule,cat,L3,z,0.1192,5.0,0.0,1.7938,4.0,3.0,Catalán,0.0,Castellano,0.0,Inglés,3.0,Alemán,12.0,5.0,3.0,no,no,no,nada,,12. Puedo llorar cuando escucho algunas melodías que me gustan mucho.,3.0,"En general ha ido bien, pero si que es cierto que estaba muy cansada i en algun momentito me he desconcentrado. ",66.0,yes
12,2023-12-18_15h33.50.912,Unsyncopated_study2,s85,20.0,feminino,right,España,Catalán y Castellano,Upper secondary,no,no,A,1,what,L3,unsyncopated,s2,r2,12,Online_whatL3//a.chu.mo28.none.none.wav,di,do,ka,sil,ñe,ko,ji,sil1,sa,fu,sil2,['-'],,,none,none,,,,mo,2,testWhatL3Uns//r1.s2.2.wav,1.0,what,unsyncopated,a,s2,rule,rule,L3,z,0.5658,2.0,1.0,1.1008,4.0,3.0,Catalán,0.0,Castellano,0.0,Inglés,3.0,Alemán,12.0,5.0,3.0,no,no,no,nada,,13. Me gusta cantar o tocar un instrumento con más gente,3.0,"En general ha ido bien, pero si que es cierto que estaba muy cansada i en algun momentito me he desconcentrado. ",66.0,yes
13,2023-12-18_15h33.50.912,Unsyncopated_study2,s85,20.0,feminino,right,España,Catalán y Castellano,Upper secondary,no,no,A,1,what,L3,unsyncopated,s1,r1,13,Online_whatL3//a.chu.mo30.0.888.wav,chu,ko,li,sil,mo,gu,le,sil2,je,fu,sil1,['catch'],[1.4153999999762163],[1.4153999999762163],0.888,beat,0.5273999999762163,0.5273999999762163,"[""space""]",mo,2,testWhatL3Uns//r1.s2.1.wav,1.0,what,unsyncopated,a,s2,rule,rule,L3,z,0.2516,3.0,1.0,1.2844,4.0,3.0,Catalán,0.0,Castellano,0.0,Inglés,3.0,Alemán,12.0,5.0,3.0,no,no,no,nada,,14. La música me ayuda a desconectar.,3.0,"En general ha ido bien, pero si que es cierto que estaba muy cansada i en algun momentito me he desconcentrado. ",66.0,yes
14,2023-12-18_15h33.50.912,Unsyncopated_study2,s85,20.0,feminino,right,España,Catalán y Castellano,Upper secondary,no,no,A,1,what,L3,unsyncopated,s2,r2,14,Online_whatL3//a.chu.mo31.none.none.wav,ka,di,ko,sil,ñe,ji,fu,sil1,sa,le,sil2,['-'],,,none,none,,,,mo,2,testWhatL3Uns//time_viol.r1.s1.0.wav,1.0,what,unsyncopated,a,s1,no_rule,time,L3,m,0.8842,6.0,1.0,1.1931,4.0,3.0,Catalán,0.0,Castellano,0.0,Inglés,3.0,Alemán,12.0,5.0,3.0,no,no,no,nada,,15. No puedo evitar tararear las canciones que me gustan cuando las escucho.,4.0,"En general ha ido bien, pero si que es cierto que estaba muy cansada i en algun momentito me he desconcentrado. ",66.0,yes
15,2023-12-18_15h33.50.912,Unsyncopated_study2,s85,20.0,feminino,right,España,Catalán y Castellano,Upper secondary,no,no,A,1,what,L3,unsyncopated,s1,r2,15,Online_whatL3//a.chu.mo29.none.none.wav,ñe,do,di,sil,sa,gu,ko,sil1,le,ka,sil2,['-'],,,none,none,,,,mo,2,testWhatL3Uns//time_viol.r1.s2.0.wav,1.0,what,unsyncopated,a,s2,no_rule,time,L3,m,0.367,5.0,1.0,0.9342,4.0,3.0,Catalán,0.0,Castellano,0.0,Inglés,3.0,Alemán,12.0,5.0,3.0,no,no,no,nada,,16. En los conciertos me siento en sintonía con los artistas y el público.,4.0,"En general ha ido bien, pero si que es cierto que estaba muy cansada i en algun momentito me he desconcentrado. ",66.0,yes
16,2023-12-18_15h33.50.912,Unsyncopated_study2,s85,20.0,feminino,right,España,Catalán y Castellano,Upper secondary,no,no,A,1,what,L3,unsyncopated,s2,r1,16,Online_whatL3//d.ji.li8.none.none.wav,di,ko,do,sil,chu,ga,le,sil2,mo,je,sil1,['false alarm'],[0.3841000000238637],[0.3841000000238637],none,none,,,"[""space""]",ji,4,testWhatL3Uns//time_viol.r2.s2.0.wav,1.0,what,unsyncopated,b,s2,no_rule,time,L3,z,0.4946,5.0,0.0,0.6309,4.0,3.0,Catalán,0.0,Castellano,0.0,Inglés,3.0,Alemán,12.0,5.0,3.0,no,no,no,nada,,17. Me gasto bastante dinero en música y cosas relacionadas con la música.,1.0,"En general ha ido bien, pero si que es cierto que estaba muy cansada i en algun momentito me he desconcentrado. ",66.0,yes
17,2023-12-18_15h33.50.912,Unsyncopated_study2,s85,20.0,feminino,right,España,Catalán y Castellano,Upper secondary,no,no,A,1,what,L3,unsyncopated,s2,r1,17,Online_whatL3//d.ji.li11.none.none.wav,fu,di,ka,sil2,chu,do,je,sil,mo,le,sil1,['-'],,,none,none,,,,ji,4,testWhatL3Uns//r2.s1.1.wav,1.0,what,unsyncopated,b,s1,rule,rule,L3,m,0.4765,7.0,0.0,1.1674,4.0,3.0,Catalán,0.0,Castellano,0.0,Inglés,3.0,Alemán,12.0,5.0,3.0,no,no,no,nada,,18. Siento escalofríos cuando escucho una melodía que me gusta.,2.0,"En general ha ido bien, pero si que es cierto que estaba muy cansada i en algun momentito me he desconcentrado. ",66.0,yes
18,2023-12-18_15h33.50.912,Unsyncopated_study2,s85,20.0,feminino,right,España,Catalán y Castellano,Upper secondary,no,no,A,1,what,L3,unsyncopated,s2,r1,18,Online_whatL3//d.ji.li9.1554.444.wav,fu,ga,li,sil2,chu,gu,ji,sil,mo,do,sil1,['miss'],,,1.554,no_beat,,,,ji,4,testWhatL3Uns//r2.s1.2.wav,1.0,what,unsyncopated,b,s1,rule,rule,L3,m,0.2856,2.0,0.0,1.0761,4.0,3.0,Catalán,0.0,Castellano,0.0,Inglés,3.0,Alemán,12.0,5.0,3.0,no,no,no,nada,,19. Con la música me puedo desahogar.,3.0,"En general ha ido bien, pero si que es cierto que estaba muy cansada i en algun momentito me he desconcentrado. ",66.0,yes
19,2023-12-18_15h33.50.912,Unsyncopated_study2,s85,20.0,feminino,right,España,Catalán y Castellano,Upper secondary,no,no,A,1,what,L3,unsyncopated,s2,r2,19,Online_whatL3//d.ji.li10.444.0.wav,li,le,ji,sil,ñe,do,di,sil1,sa,ga,sil2,['catch'],[0.9661999999880209],[0.9661999999880209],0.444,no_beat,0.5221999999880209,0.5221999999880209,"[""space""]",ji,4,testWhatL3Uns//r2.s2.2.wav,1.0,what,unsyncopated,b,s2,rule,rule,L3,m,0.3673,5.0,0.0,0.3672,4.0,3.0,Catalán,0.0,Castellano,0.0,Inglés,3.0,Alemán,12.0,5.0,3.0,no,no,no,nada,,20. Cuando escucho una melodía que me gusta mucho no puedo evitar mover el cuerpo.,4.0,"En general ha ido bien, pero si que es cierto que estaba muy cansada i en algun momentito me he desconcentrado. ",66.0,yes
20,2023-12-18_15h33.50.912,Unsyncopated_study2,s85,20.0,feminino,right,España,Catalán y Castellano,Upper secondary,no,no,A,1,what,L3,unsyncopated,s1,r1,20,Online_whatL3//d.ji.li24.1332.1554.wav,chu,di,ko,sil2,mo,ji,li,sil,do,gu,sil1,['catch'],[1.7774999999999181],[1.7774999999999181],1.332,no_beat,0.4454999999999181,0.4454999999999181,"[""space""]",ji,4,testWhatL3Uns//r2.s2.1.wav,1.0,what,unsyncopated,b,s2,rule,rule,L3,z,0.0008,6.0,1.0,1.4493,4.0,3.0,Catalán,0.0,Castellano,0.0,Inglés,3.0,Alemán,12.0,5.0,3.0,no,no,no,nada,,,,"En general ha ido bien, pero si que es cierto que estaba muy cansada i en algun momentito me he desconcentrado. ",66.0,yes
21,2023-12-18_15h33.50.912,Unsyncopated_study2,s85,20.0,feminino,right,España,Catalán y Castellano,Upper secondary,no,no,A,1,what,L3,unsyncopated,s1,r1,21,Online_whatL3//d.ji.li26.none.none.wav,chu,gu,je,sil,mo,di,do,sil1,ka,ga,sil2,['-'],,,none,none,,,,ji,4,testWhatL3Uns//r2.s2.0.wav,1.0,what,unsyncopated,b,s2,rule,rule,L3,m,0.9109,3.0,0.0,1.251,4.0,3.0,Catalán,0.0,Castellano,0.0,Inglés,3.0,Alemán,12.0,5.0,3.0,no,no,no,nada,,,,"En general ha ido bien, pero si que es cierto que estaba muy cansada i en algun momentito me he desconcentrado. ",66.0,yes
22,2023-12-18_15h33.50.912,Unsyncopated_study2,s85,20.0,feminino,right,España,Catalán y Castellano,Upper secondary,no,no,A,1,what,L3,unsyncopated,s2,r1,22,Online_whatL3//d.ji.li27.222.1110.wav,gu,ji,do,sil,chu,li,ga,sil1,mo,fu,sil2,['catch'],[0.7182999999522508],[0.7182999999522508],0.222,no_beat,0.4962999999522508,0.4962999999522508,"[""space""]",ji,4,testWhatL3Uns//cat_viol.r2.s2.0.wav,1.0,what,unsyncopated,b,s2,no_rule,cat,L3,m,0.5326,4.0,1.0,0.546,4.0,3.0,Catalán,0.0,Castellano,0.0,Inglés,3.0,Alemán,12.0,5.0,3.0,no,no,no,nada,,,,"En general ha ido bien, pero si que es cierto que estaba muy cansada i en algun momentito me he desconcentrado. ",66.0,yes
23,2023-12-18_15h33.50.912,Unsyncopated_study2,s85,20.0,feminino,right,España,Catalán y Castellano,Upper secondary,no,no,A,1,what,L3,unsyncopated,s1,r2,23,Online_whatL3//d.ji.li25.none.none.wav,ñe,gu,ko,sil2,sa,ka,le,sil,do,ga,sil1,['-'],,,none,none,,,,ji,4,testWhatL3Uns//dep_viol.r1.s1.0.wav,1.0,what,unsyncopated,a,s1,no_rule,dep,L3,m,0.5537,3.0,1.0,0.5172,4.0,3.0,Catalán,0.0,Castellano,0.0,Inglés,3.0,Alemán,12.0,5.0,3.0,no,no,no,nada,,,,"En general ha ido bien, pero si que es cierto que estaba muy cansada i en algun momentito me he desconcentrado. ",66.0,yes
24,2023-12-18_15h33.50.912,Unsyncopated_study2,s85,20.0,feminino,right,España,Catalán y Castellano,Upper secondary,no,no,A,1,what,L3,unsyncopated,s2,r2,24,Online_whatL3//d.ji.li2.none.none.wav,ga,do,ka,sil2,ñe,fu,di,sil,sa,le,sil1,['-'],,,none,none,,,,ji,4,testConjL2Uns//r1.s2.1.wav,2.0,conjunction_un,unsyncopated,a,s2,rule,rule,L2,z,0.3705,5.0,1.0,1.2901,4.0,3.0,Catalán,0.0,Castellano,0.0,Inglés,3.0,Alemán,12.0,5.0,3.0,no,no,no,nada,,,,"En general ha ido bien, pero si que es cierto que estaba muy cansada i en algun momentito me he desconcentrado. ",66.0,yes
25,2023-12-18_15h33.50.912,Unsyncopated_study2,s85,20.0,feminino,right,España,Catalán y Castellano,Upper secondary,no,no,A,1,what,L3,unsyncopated,s1,r2,25,Online_whatL3//d.ji.li3.none.none.wav,ñe,di,le,sil,sa,je,gu,sil2,do,ga,sil1,['-'],,,none,none,,,,ji,4,testConjL2Uns//cat_viol.r1.s2.0.wav,2.0,conjunction_un,unsyncopated,a,s2,no_rule,cat,L2,m,0.257,3.0,1.0,0.6002,4.0,3.0,Catalán,0.0,Castellano,0.0,Inglés,3.0,Alemán,12.0,5.0,3.0,no,no,no,nada,,,,"En general ha ido bien, pero si que es cierto que estaba muy cansada i en algun momentito me he desconcentrado. ",66.0,yes
26,2023-12-18_15h33.50.912,Unsyncopated_study2,s85,20.0,feminino,right,España,Catalán y Castellano,Upper secondary,no,no,A,1,what,L3,unsyncopated,s1,r2,26,Online_whatL3//d.ji.li0.1776.1110.wav,ñe,do,fu,sil,sa,li,gu,sil1,ji,ka,sil2,['catch'],[2.5456000000237964],[2.5456000000237964],1.776,beat,0.7696000000237964,0.7696000000237964,"[""space""]",ji,4,testConjL2Uns//r1.s1.0.wav,2.0,conjunction_un,unsyncopated,a,s1,rule,rule,L2,z,0.2393,5.0,1.0,0.4254,4.0,3.0,Catalán,0.0,Castellano,0.0,Inglés,3.0,Alemán,12.0,5.0,3.0,no,no,no,nada,,,,"En general ha ido bien, pero si que es cierto que estaba muy cansada i en algun momentito me he desconcentrado. ",66.0,yes
27,2023-12-18_15h33.50.912,Unsyncopated_study2,s85,20.0,feminino,right,España,Catalán y Castellano,Upper secondary,no,no,A,1,what,L3,unsyncopated,s1,r1,27,Online_whatL3//d.ji.li1.444.1110.wav,chu,je,ji,sil,mo,li,ko,sil1,le,do,sil2,['catch'],[1.3995999999641526],[1.3995999999641526],0.444,no_beat,0.9555999999641528,0.9555999999641528,"[""space""]",ji,4,testConjL2Uns//dep_viol.r1.s2.0.wav,2.0,conjunction_un,unsyncopated,a,s2,no_rule,dep,L2,m,1.858,6.0,1.0,0.4923,4.0,3.0,Catalán,0.0,Castellano,0.0,Inglés,3.0,Alemán,12.0,5.0,3.0,no,no,no,nada,,,,"En general ha ido bien, pero si que es cierto que estaba muy cansada i en algun momentito me he desconcentrado. ",66.0,yes
28,2023-12-18_15h33.50.912,Unsyncopated_study2,s85,20.0,feminino,right,España,Catalán y Castellano,Upper secondary,no,no,A,1,what,L3,unsyncopated,s1,r1,28,Online_whatL3//a.chu.mo24.0.1110.wav,chu,gu,ka,sil2,mo,le,ji,sil,do,li,sil1,['catch'],[1.3973000000120237],[1.3973000000120237],1.11,no_beat,0.2873000000120236,0.2873000000120236,"[""space""]",mo,2,testConjL2Uns//dep_viol.r2.s2.0.wav,2.0,conjunction_un,unsyncopated,b,s2,no_rule,dep,L2,m,0.577,3.0,1.0,0.2832,4.0,3.0,Catalán,0.0,Castellano,0.0,Inglés,3.0,Alemán,12.0,5.0,3.0,no,no,no,nada,,,,"En general ha ido bien, pero si que es cierto que estaba muy cansada i en algun momentito me he desconcentrado. ",66.0,yes
29,2023-12-18_15h33.50.912,Unsyncopated_study2,s85,20.0,feminino,right,España,Catalán y Castellano,Upper secondary,no,no,A,1,what,L3,unsyncopated,s1,r1,29,Online_whatL3//a.chu.mo26.0.888.wav,chu,ji,li,sil,mo,ko,fu,sil2,di,gu,sil1,['catch'],[1.2993000000119537],[1.2993000000119537],0.888,beat,0.4113000000119536,0.4113000000119536,"[""space""]",mo,2,testConjL2Uns//r2.s1.1.wav,2.0,conjunction_un,unsyncopated,b,s1,rule,rule,L2,m,0.2334,5.0,0.0,1.7355,4.0,3.0,Catalán,0.0,Castellano,0.0,Inglés,3.0,Alemán,12.0,5.0,3.0,no,no,no,nada,,,,"En general ha ido bien, pero si que es cierto que estaba muy cansada i en algun momentito me he desconcentrado. ",66.0,yes
30,2023-12-18_15h33.50.912,Unsyncopated_study2,s85,20.0,feminino,right,España,Catalán y Castellano,Upper secondary,no,no,A,1,what,L3,unsyncopated,s2,r1,30,Online_whatL3//a.chu.mo27.888.1776.wav,ka,ga,ji,sil,chu,je,di,sil1,mo,gu,sil2,['catch'],[2.0743999999760945],[2.0743999999760945],1.776,beat,0.2983999999760944,0.2983999999760944,"[""space""]",mo,2,testConjL2Uns//time_viol.r1.s2.0.wav,2.0,conjunction_un,unsyncopated,a,s2,no_rule,time,L2,z,0.3428,4.0,0.0,0.3504,4.0,3.0,Catalán,0.0,Castellano,0.0,Inglés,3.0,Alemán,12.0,5.0,3.0,no,no,no,nada,,,,"En general ha ido bien, pero si que es cierto que estaba muy cansada i en algun momentito me he desconcentrado. ",66.0,yes
31,2023-12-18_15h33.50.912,Unsyncopated_study2,s85,20.0,feminino,right,España,Catalán y Castellano,Upper secondary,no,no,A,1,what,L3,unsyncopated,s2,r2,31,Online_whatL3//a.chu.mo25.none.none.wav,le,di,do,sil2,ñe,ga,li,sil,sa,je,sil1,['-'],,,none,none,,,,mo,2,testConjL2Uns//dep_viol.r1.s1.0.wav,2.0,conjunction_un,unsyncopated,a,s1,no_rule,dep,L2,z,0.3624,6.0,0.0,0.3708,4.0,3.0,Catalán,0.0,Castellano,0.0,Inglés,3.0,Alemán,12.0,5.0,3.0,no,no,no,nada,,,,"En general ha ido bien, pero si que es cierto que estaba muy cansada i en algun momentito me he desconcentrado. ",66.0,yes
32,2023-12-18_15h33.50.912,Unsyncopated_study2,s85,20.0,feminino,right,España,Catalán y Castellano,Upper secondary,no,no,A,1,what,L3,unsyncopated,s2,r1,32,Online_whatL3//b.ñe.sa28.none.none.wav,do,gu,le,sil2,chu,ka,ga,sil,mo,je,sil1,['-'],,,none,none,,,,ñe,1,testConjL2Uns//time_viol.r1.s1.0.wav,2.0,conjunction_un,unsyncopated,a,s1,no_rule,time,L2,z,0.4323,6.0,0.0,0.361,4.0,3.0,Catalán,0.0,Castellano,0.0,Inglés,3.0,Alemán,12.0,5.0,3.0,no,no,no,nada,,,,"En general ha ido bien, pero si que es cierto que estaba muy cansada i en algun momentito me he desconcentrado. ",66.0,yes
33,2023-12-18_15h33.50.912,Unsyncopated_study2,s85,20.0,feminino,right,España,Catalán y Castellano,Upper secondary,no,no,A,1,what,L3,unsyncopated,s1,r1,33,Online_whatL3//b.ñe.sa31.none.none.wav,chu,ji,fu,sil,mo,li,le,sil1,ka,ko,sil2,['-'],,,none,none,,,,ñe,1,testConjL2Uns//time_viol.r2.s1.0.wav,2.0,conjunction_un,unsyncopated,b,s1,no_rule,time,L2,z,0.2899,7.0,0.0,0.3504,4.0,3.0,Catalán,0.0,Castellano,0.0,Inglés,3.0,Alemán,12.0,5.0,3.0,no,no,no,nada,,,,"En general ha ido bien, pero si que es cierto que estaba muy cansada i en algun momentito me he desconcentrado. ",66.0,yes
34,2023-12-18_15h33.50.912,Unsyncopated_study2,s85,20.0,feminino,right,España,Catalán y Castellano,Upper secondary,no,no,A,1,what,L3,unsyncopated,s2,r2,34,Online_whatL3//b.ñe.sa30.888.1998.wav,li,do,ko,sil,ñe,ka,ji,sil2,sa,fu,sil1,['catch'],[1.3685999999643172],[1.3685999999643172],0.888,beat,0.4805999999643172,0.4805999999643172,"[""space""]",ñe,1,testConjL2Uns//dep_viol.r2.s1.0.wav,2.0,conjunction_un,unsyncopated,b,s1,no_rule,dep,L2,m,0.257,3.0,1.0,1.4852,4.0,3.0,Catalán,0.0,Castellano,0.0,Inglés,3.0,Alemán,12.0,5.0,3.0,no,no,no,nada,,,,"En general ha ido bien, pero si que es cierto que estaba muy cansada i en algun momentito me he desconcentrado. ",66.0,yes
35,2023-12-18_15h33.50.912,Unsyncopated_study2,s85,20.0,feminino,right,España,Catalán y Castellano,Upper secondary,no,no,A,1,what,L3,unsyncopated,s1,r1,35,Online_whatL3//b.ñe.sa29.none.none.wav,chu,le,ga,sil,mo,fu,di,sil2,ji,ko,sil1,['-'],,,none,none,,,,ñe,1,testConjL2Uns//r2.s1.0.wav,2.0,conjunction_un,unsyncopated,b,s1,rule,rule,L2,z,0.3034,2.0,1.0,2.3171,4.0,3.0,Catalán,0.0,Castellano,0.0,Inglés,3.0,Alemán,12.0,5.0,3.0,no,no,no,nada,,,,"En general ha ido bien, pero si que es cierto que estaba muy cansada i en algun momentito me he desconcentrado. ",66.0,yes
36,2023-12-18_15h33.50.912,Unsyncopated_study2,s85,20.0,feminino,right,España,Catalán y Castellano,Upper secondary,no,no,A,1,what,L3,unsyncopated,s1,r2,36,Online_whatL3//c.gu.je2.none.none.wav,ñe,di,fu,sil,sa,ji,ga,sil1,ko,do,sil2,['false alarm'],[0.4292000000476719],[0.4292000000476719],none,none,,,"[""space""]",gu,3,testConjL2Uns//r1.s2.2.wav,2.0,conjunction_un,unsyncopated,a,s2,rule,rule,L2,m,0.5665,6.0,0.0,0.7051,4.0,3.0,Catalán,0.0,Castellano,0.0,Inglés,3.0,Alemán,12.0,5.0,3.0,no,no,no,nada,,,,"En general ha ido bien, pero si que es cierto que estaba muy cansada i en algun momentito me he desconcentrado. ",66.0,yes
37,2023-12-18_15h33.50.912,Unsyncopated_study2,s85,20.0,feminino,right,España,Catalán y Castellano,Upper secondary,no,no,A,1,what,L3,unsyncopated,s1,r1,37,Online_whatL3//c.gu.je3.none.none.wav,chu,le,do,sil,mo,ji,ka,sil2,li,fu,sil1,['-'],,,none,none,,,,gu,3,testConjL2Uns//r2.s2.0.wav,2.0,conjunction_un,unsyncopated,b,s2,rule,rule,L2,z,0.6692,7.0,1.0,0.3773,4.0,3.0,Catalán,0.0,Castellano,0.0,Inglés,3.0,Alemán,12.0,5.0,3.0,no,no,no,nada,,,,"En general ha ido bien, pero si que es cierto que estaba muy cansada i en algun momentito me he desconcentrado. ",66.0,yes
38,2023-12-18_15h33.50.912,Unsyncopated_study2,s85,20.0,feminino,right,España,Catalán y Castellano,Upper secondary,no,no,A,1,what,L3,unsyncopated,s2,r1,38,Online_whatL3//c.gu.je1.222.1332.wav,di,gu,le,sil2,chu,je,ga,sil,mo,ka,sil1,['miss'],,,0.222,no_beat,,,,gu,3,testConjL2Uns//r2.s1.2.wav,2.0,conjunction_un,unsyncopated,b,s1,rule,rule,L2,m,0.3062,2.0,0.0,0.3355,4.0,3.0,Catalán,0.0,Castellano,0.0,Inglés,3.0,Alemán,12.0,5.0,3.0,no,no,no,nada,,,,"En general ha ido bien, pero si que es cierto que estaba muy cansada i en algun momentito me he desconcentrado. ",66.0,yes
39,2023-12-18_15h33.50.912,Unsyncopated_study2,s85,20.0,feminino,right,España,Catalán y Castellano,Upper secondary,no,no,A,1,what,L3,unsyncopated,s1,r1,39,Online_whatL3//c.gu.je0.none.none.wav,chu,ko,li,sil,mo,ji,le,sil2,ga,di,sil1,['false alarm'],[0.8548999999761691],[0.8548999999761691],none,none,,,"[""space""]",gu,3,testConjL2Uns//r1.s1.1.wav,2.0,conjunction_un,unsyncopated,a,s1,rule,rule,L2,m,0.1207,5.0,0.0,0.5509,4.0,3.0,Catalán,0.0,Castellano,0.0,Inglés,3.0,Alemán,12.0,5.0,3.0,no,no,no,nada,,,,"En general ha ido bien, pero si que es cierto que estaba muy cansada i en algun momentito me he desconcentrado. ",66.0,yes
40,2023-12-18_15h33.50.912,Unsyncopated_study2,s85,20.0,feminino,right,España,Catalán y Castellano,Upper secondary,no,no,A,1,what,L3,unsyncopated,s1,r2,40,Online_whatL3//b.ñe.sa9.0.1110.wav,ñe,fu,di,sil2,sa,ka,le,sil,li,je,sil1,['miss'],,,0.0,beat,,,,ñe,1,testConjL2Uns//r1.s1.2.wav,2.0,conjunction_un,unsyncopated,a,s1,rule,rule,L2,m,0.0234,4.0,0.0,0.927,4.0,3.0,Catalán,0.0,Castellano,0.0,Inglés,3.0,Alemán,12.0,5.0,3.0,no,no,no,nada,,,,"En general ha ido bien, pero si que es cierto que estaba muy cansada i en algun momentito me he desconcentrado. ",66.0,yes
41,2023-12-18_15h33.50.912,Unsyncopated_study2,s85,20.0,feminino,right,España,Catalán y Castellano,Upper secondary,no,no,A,1,what,L3,unsyncopated,s2,r2,41,Online_whatL3//b.ñe.sa10.1110.1998.wav,ga,le,gu,sil2,ñe,di,li,sil,sa,ji,sil1,['catch'],[1.5849000000357591],[1.5849000000357591],1.11,no_beat,0.474900000035759,0.474900000035759,"[""space""]",ñe,1,testConjL2Uns//time_viol.r2.s2.0.wav,2.0,conjunction_un,unsyncopated,b,s2,no_rule,time,L2,m,0.2856,4.0,1.0,0.3065,4.0,3.0,Catalán,0.0,Castellano,0.0,Inglés,3.0,Alemán,12.0,5.0,3.0,no,no,no,nada,,,,"En general ha ido bien, pero si que es cierto que estaba muy cansada i en algun momentito me he desconcentrado. ",66.0,yes
42,2023-12-18_15h33.50.912,Unsyncopated_study2,s85,20.0,feminino,right,España,Catalán y Castellano,Upper secondary,no,no,A,1,what,L3,unsyncopated,s2,r2,42,Online_whatL3//b.ñe.sa11.1110.1998.wav,li,ko,ka,sil2,ñe,je,ji,sil,sa,fu,sil1,['catch'],[2.1493000000118627],[2.1493000000118627],1.11,no_beat,1.0393000000118626,1.0393000000118626,"[""space""]",ñe,1,testConjL2Uns//cat_viol.r1.s1.0.wav,2.0,conjunction_un,unsyncopated,a,s1,no_rule,cat,L2,m,0.2906,3.0,1.0,0.3509,4.0,3.0,Catalán,0.0,Castellano,0.0,Inglés,3.0,Alemán,12.0,5.0,3.0,no,no,no,nada,,,,"En general ha ido bien, pero si que es cierto que estaba muy cansada i en algun momentito me he desconcentrado. ",66.0,yes
43,2023-12-18_15h33.50.912,Unsyncopated_study2,s85,20.0,feminino,right,España,Catalán y Castellano,Upper secondary,no,no,A,1,what,L3,unsyncopated,s2,r2,43,Online_whatL3//b.ñe.sa8.1110.1998.wav,li,do,di,sil2,ñe,gu,ji,sil,sa,je,sil1,['catch'],[1.8830000000000382],[1.8830000000000382],1.11,no_beat,0.7730000000000381,0.7730000000000381,"[""space""]",ñe,1,testConjL2Uns//cat_viol.r2.s2.0.wav,2.0,conjunction_un,unsyncopated,b,s2,no_rule,cat,L2,z,0.568,5.0,0.0,0.2942,4.0,3.0,Catalán,0.0,Castellano,0.0,Inglés,3.0,Alemán,12.0,5.0,3.0,no,no,no,nada,,,,"En general ha ido bien, pero si que es cierto que estaba muy cansada i en algun momentito me he desconcentrado. ",66.0,yes
44,2023-12-18_15h33.50.912,Unsyncopated_study2,s85,20.0,feminino,right,España,Catalán y Castellano,Upper secondary,no,no,A,1,what,L3,unsyncopated,s1,r1,44,Online_whatL3//c.gu.je21.1332.444.wav,chu,li,je,sil,mo,ka,gu,sil1,do,ga,sil2,['catch'],[1.8276000000238355],[1.8276000000238355],1.332,no_beat,0.4956000000238354,0.4956000000238354,"[""space""]",gu,3,testConjL2Uns//r1.s2.0.wav,2.0,conjunction_un,unsyncopated,a,s2,rule,rule,L2,z,0.0264,6.0,1.0,0.7344,4.0,3.0,Catalán,0.0,Castellano,0.0,Inglés,3.0,Alemán,12.0,5.0,3.0,no,no,no,nada,,,,"En general ha ido bien, pero si que es cierto que estaba muy cansada i en algun momentito me he desconcentrado. ",66.0,yes
45,2023-12-18_15h33.50.912,Unsyncopated_study2,s85,20.0,feminino,right,España,Catalán y Castellano,Upper secondary,no,no,A,1,what,L3,unsyncopated,s1,r2,45,Online_whatL3//c.gu.je23.222.1110.wav,ñe,gu,li,sil,sa,je,do,sil2,ka,ko,sil1,['catch'],[1.0205999999642472],[1.0205999999642472],0.222,no_beat,0.7985999999642472,0.7985999999642472,"[""space""]",gu,3,testConjL2Uns//r2.s2.2.wav,2.0,conjunction_un,unsyncopated,b,s2,rule,rule,L2,z,0.3563,6.0,1.0,0.2859,4.0,3.0,Catalán,0.0,Castellano,0.0,Inglés,3.0,Alemán,12.0,5.0,3.0,no,no,no,nada,,,,"En general ha ido bien, pero si que es cierto que estaba muy cansada i en algun momentito me he desconcentrado. ",66.0,yes
46,2023-12-18_15h33.50.912,Unsyncopated_study2,s85,20.0,feminino,right,España,Catalán y Castellano,Upper secondary,no,no,A,1,what,L3,unsyncopated,s2,r2,46,Online_whatL3//c.gu.je22.0.444.wav,gu,li,je,sil2,ñe,ji,ko,sil,sa,ga,sil1,['catch'],[0.5325000000000273],[0.5325000000000273],0.0,beat,0.5325000000000273,0.5325000000000273,"[""space""]",gu,3,testConjL2Uns//cat_viol.r2.s1.0.wav,2.0,conjunction_un,unsyncopated,b,s1,no_rule,cat,L2,m,0.8427,6.0,1.0,1.5062,4.0,3.0,Catalán,0.0,Castellano,0.0,Inglés,3.0,Alemán,12.0,5.0,3.0,no,no,no,nada,,,,"En general ha ido bien, pero si que es cierto que estaba muy cansada i en algun momentito me he desconcentrado. ",66.0,yes
47,2023-12-18_15h33.50.912,Unsyncopated_study2,s85,20.0,feminino,right,España,Catalán y Castellano,Upper secondary,no,no,A,1,what,L3,unsyncopated,s2,r1,47,Online_whatL3//c.gu.je20.0.1110.wav,gu,li,ko,sil,chu,je,ga,sil2,mo,le,sil1,['catch'],[0.7829000000357382],[0.7829000000357382],0.0,beat,0.7829000000357382,0.7829000000357382,"[""space""]",gu,3,testConjL2Uns//r2.s2.1.wav,2.0,conjunction_un,unsyncopated,b,s2,rule,rule,L2,z,0.9929,6.0,1.0,0.2834,4.0,3.0,Catalán,0.0,Castellano,0.0,Inglés,3.0,Alemán,12.0,5.0,3.0,no,no,no,nada,,,,"En general ha ido bien, pero si que es cierto que estaba muy cansada i en algun momentito me he desconcentrado. ",66.0,yes
48,2023-12-18_15h33.50.912,Unsyncopated_study2,s85,20.0,feminino,right,España,Catalán y Castellano,Upper secondary,no,no,A,1,what,L3,unsyncopated,s2,r1,48,Online_whatL3//b.ñe.sa18.none.none.wav,ko,je,ga,sil2,chu,li,fu,sil,mo,gu,sil1,['false alarm'],[0.8453999999761663],[0.8453999999761663],none,none,,,"[""space""]",ñe,1,testWhenL4Uns//r2.s2.0.wav,3.0,when,unsyncopated,b,s2,rule,rule,L4,z,0.4594,5.0,1.0,0.9778,4.0,3.0,Catalán,0.0,Castellano,0.0,Inglés,3.0,Alemán,12.0,5.0,3.0,no,no,no,nada,,,,"En general ha ido bien, pero si que es cierto que estaba muy cansada i en algun momentito me he desconcentrado. ",66.0,yes
49,2023-12-18_15h33.50.912,Unsyncopated_study2,s85,20.0,feminino,right,España,Catalán y Castellano,Upper secondary,no,no,A,1,what,L3,unsyncopated,s2,r1,49,Online_whatL3//b.ñe.sa17.none.none.wav,di,gu,do,sil,chu,li,le,sil1,mo,ji,sil2,['false alarm'],[1.7436999999880527],[1.7436999999880527],none,none,,,"[""space""]",ñe,1,testWhenL4Uns//r1.s2.2.wav,3.0,when,unsyncopated,a,s2,rule,rule,L4,m,0.4014,4.0,0.0,0.5419,4.0,3.0,Catalán,0.0,Castellano,0.0,Inglés,3.0,Alemán,12.0,5.0,3.0,no,no,no,nada,,,,"En general ha ido bien, pero si que es cierto que estaba muy cansada i en algun momentito me he desconcentrado. ",66.0,yes
50,2023-12-18_15h33.50.912,Unsyncopated_study2,s85,20.0,feminino,right,España,Catalán y Castellano,Upper secondary,no,no,A,1,what,L3,unsyncopated,s1,r1,50,Online_whatL3//b.ñe.sa16.none.none.wav,chu,fu,ko,sil,mo,li,je,sil1,ka,gu,sil2,['-'],,,none,none,,,,ñe,1,testWhenL4Uns//time_viol.r2.s1.0.wav,3.0,when,unsyncopated,b,s1,no_rule,time,L4,z,0.367,4.0,1.0,0.3501,4.0,3.0,Catalán,0.0,Castellano,0.0,Inglés,3.0,Alemán,12.0,5.0,3.0,no,no,no,nada,,,,"En general ha ido bien, pero si que es cierto que estaba muy cansada i en algun momentito me he desconcentrado. ",66.0,yes
51,2023-12-18_15h33.50.912,Unsyncopated_study2,s85,20.0,feminino,right,España,Catalán y Castellano,Upper secondary,no,no,A,1,what,L3,unsyncopated,s2,r1,51,Online_whatL3//b.ñe.sa19.none.none.wav,ji,fu,gu,sil2,chu,do,ka,sil,mo,ko,sil1,['-'],,,none,none,,,,ñe,1,testWhenL4Uns//dep_viol.r2.s1.0.wav,3.0,when,unsyncopated,b,s1,no_rule,dep,L4,m,0.5359,3.0,0.0,0.6675,4.0,3.0,Catalán,0.0,Castellano,0.0,Inglés,3.0,Alemán,12.0,5.0,3.0,no,no,no,nada,,,,"En general ha ido bien, pero si que es cierto que estaba muy cansada i en algun momentito me he desconcentrado. ",66.0,yes
52,2023-12-18_15h33.50.912,Unsyncopated_study2,s85,20.0,feminino,right,España,Catalán y Castellano,Upper secondary,no,no,A,1,what,L3,unsyncopated,s1,r2,52,Online_whatL3//c.gu.je27.1776.222.wav,ñe,je,li,sil,sa,ji,ga,sil1,gu,fu,sil2,['catch_delay'],[1.0732000000477575],[1.0732000000477575],1.776,beat,1.0732000000477575,1.0732000000477575,"[""space""]",gu,3,testWhenL4Uns//r1.s1.0.wav,3.0,when,unsyncopated,a,s1,rule,rule,L4,m,0.3061,5.0,0.0,0.385,4.0,3.0,Catalán,0.0,Castellano,0.0,Inglés,3.0,Alemán,12.0,5.0,3.0,no,no,no,nada,,,,"En general ha ido bien, pero si que es cierto que estaba muy cansada i en algun momentito me he desconcentrado. ",66.0,yes
53,2023-12-18_15h33.50.912,Unsyncopated_study2,s85,20.0,feminino,right,España,Catalán y Castellano,Upper secondary,no,no,A,1,what,L3,unsyncopated,s2,r2,53,Online_whatL3//c.gu.je24.222.1110.wav,fu,gu,do,sil,ñe,je,di,sil1,sa,ga,sil2,['catch'],"[0.18520000004775738, 0.9274000000358456]",[0.9274000000358456],0.222,no_beat,0.7054000000358456,0.7054000000358456,"[""space"",""space""]",gu,3,testWhenL4Uns//time_viol.r1.s1.0.wav,3.0,when,unsyncopated,a,s1,no_rule,time,L4,m,0.2924,6.0,0.0,0.3674,4.0,3.0,Catalán,0.0,Castellano,0.0,Inglés,3.0,Alemán,12.0,5.0,3.0,no,no,no,nada,,,,"En general ha ido bien, pero si que es cierto que estaba muy cansada i en algun momentito me he desconcentrado. ",66.0,yes
54,2023-12-18_15h33.50.912,Unsyncopated_study2,s85,20.0,feminino,right,España,Catalán y Castellano,Upper secondary,no,no,A,1,what,L3,unsyncopated,s1,r1,54,Online_whatL3//c.gu.je26.none.none.wav,chu,di,le,sil,mo,li,ko,sil2,ka,fu,sil1,['-'],,,none,none,,,,gu,3,testWhenL4Uns//r1.s2.1.wav,3.0,when,unsyncopated,a,s2,rule,rule,L4,m,0.3512,3.0,0.0,0.7831,4.0,3.0,Catalán,0.0,Castellano,0.0,Inglés,3.0,Alemán,12.0,5.0,3.0,no,no,no,nada,,,,"En general ha ido bien, pero si que es cierto que estaba muy cansada i en algun momentito me he desconcentrado. ",66.0,yes
55,2023-12-18_15h33.50.912,Unsyncopated_study2,s85,20.0,feminino,right,España,Catalán y Castellano,Upper secondary,no,no,A,1,what,L3,unsyncopated,s1,r2,55,Online_whatL3//c.gu.je25.none.none.wav,ñe,ko,ka,sil,sa,do,li,sil2,di,ji,sil1,['-'],,,none,none,,,,gu,3,testWhenL4Uns//dep_viol.r1.s2.0.wav,3.0,when,unsyncopated,a,s2,no_rule,dep,L4,m,0.9007,4.0,0.0,0.4008,4.0,3.0,Catalán,0.0,Castellano,0.0,Inglés,3.0,Alemán,12.0,5.0,3.0,no,no,no,nada,,,,"En general ha ido bien, pero si que es cierto que estaba muy cansada i en algun momentito me he desconcentrado. ",66.0,yes
56,2023-12-18_15h33.50.912,Unsyncopated_study2,s85,20.0,feminino,right,España,Catalán y Castellano,Upper secondary,no,no,A,1,what,L3,unsyncopated,s1,r2,56,Online_whatL3//a.chu.mo9.none.none.wav,ñe,ga,gu,sil2,sa,je,ko,sil,le,ka,sil1,['-'],,,none,none,,,,mo,2,testWhenL4Uns//r2.s2.2.wav,3.0,when,unsyncopated,b,s2,rule,rule,L4,m,0.284,3.0,0.0,0.4011,4.0,3.0,Catalán,0.0,Castellano,0.0,Inglés,3.0,Alemán,12.0,5.0,3.0,no,no,no,nada,,,,"En general ha ido bien, pero si que es cierto que estaba muy cansada i en algun momentito me he desconcentrado. ",66.0,yes
57,2023-12-18_15h33.50.912,Unsyncopated_study2,s85,20.0,feminino,right,España,Catalán y Castellano,Upper secondary,no,no,A,1,what,L3,unsyncopated,s2,r2,57,Online_whatL3//a.chu.mo11.none.none.wav,ka,gu,ko,sil,ñe,do,ga,sil1,sa,je,sil2,['-'],,,none,none,,,,mo,2,testWhenL4Uns//dep_viol.r1.s1.0.wav,3.0,when,unsyncopated,a,s1,no_rule,dep,L4,z,0.3697,5.0,1.0,0.3424,4.0,3.0,Catalán,0.0,Castellano,0.0,Inglés,3.0,Alemán,12.0,5.0,3.0,no,no,no,nada,,,,"En general ha ido bien, pero si que es cierto que estaba muy cansada i en algun momentito me he desconcentrado. ",66.0,yes
58,2023-12-18_15h33.50.912,Unsyncopated_study2,s85,20.0,feminino,right,España,Catalán y Castellano,Upper secondary,no,no,A,1,what,L3,unsyncopated,s2,r2,58,Online_whatL3//a.chu.mo8.none.none.wav,je,ji,li,sil2,ñe,ga,do,sil,sa,ko,sil1,['-'],,,none,none,,,,mo,2,testWhenL4Uns//r2.s1.0.wav,3.0,when,unsyncopated,b,s1,rule,rule,L4,z,0.0376,6.0,1.0,0.5836,4.0,3.0,Catalán,0.0,Castellano,0.0,Inglés,3.0,Alemán,12.0,5.0,3.0,no,no,no,nada,,,,"En general ha ido bien, pero si que es cierto que estaba muy cansada i en algun momentito me he desconcentrado. ",66.0,yes
59,2023-12-18_15h33.50.912,Unsyncopated_study2,s85,20.0,feminino,right,España,Catalán y Castellano,Upper secondary,no,no,A,1,what,L3,unsyncopated,s1,r1,59,Online_whatL3//a.chu.mo10.0.888.wav,chu,je,di,sil,mo,ka,ji,sil2,ko,le,sil1,['catch'],[1.3606999999881282],[1.3606999999881282],0.888,beat,0.4726999999881281,0.4726999999881281,"[""space""]",mo,2,testWhenL4Uns//cat_viol.r1.s1.0.wav,3.0,when,unsyncopated,a,s1,no_rule,cat,L4,m,1.0844,5.0,0.0,0.3549,4.0,3.0,Catalán,0.0,Castellano,0.0,Inglés,3.0,Alemán,12.0,5.0,3.0,no,no,no,nada,,,,"En general ha ido bien, pero si que es cierto que estaba muy cansada i en algun momentito me he desconcentrado. ",66.0,yes
60,2023-12-18_15h33.50.912,Unsyncopated_study2,s85,20.0,feminino,right,España,Catalán y Castellano,Upper secondary,no,no,A,1,what,L3,unsyncopated,s2,r2,60,Online_whatL3//c.gu.je18.none.none.wav,ko,do,ji,sil,ñe,li,ga,sil2,sa,di,sil1,['-'],,,none,none,,,,gu,3,testWhenL4Uns//r1.s1.1.wav,3.0,when,unsyncopated,a,s1,rule,rule,L4,m,0.2857,4.0,0.0,0.4011,4.0,3.0,Catalán,0.0,Castellano,0.0,Inglés,3.0,Alemán,12.0,5.0,3.0,no,no,no,nada,,,,"En general ha ido bien, pero si que es cierto que estaba muy cansada i en algun momentito me he desconcentrado. ",66.0,yes
61,2023-12-18_15h33.50.912,Unsyncopated_study2,s85,20.0,feminino,right,España,Catalán y Castellano,Upper secondary,no,no,A,1,what,L3,unsyncopated,s2,r2,61,Online_whatL3//c.gu.je19.0.1110.wav,gu,do,li,sil,ñe,je,ji,sil2,sa,di,sil1,['catch'],[0.6261000000238255],[0.6261000000238255],0.0,beat,0.6261000000238255,0.6261000000238255,"[""space""]",gu,3,testWhenL4Uns//r2.s1.2.wav,3.0,when,unsyncopated,b,s1,rule,rule,L4,m,0.2548,4.0,0.0,0.3178,4.0,3.0,Catalán,0.0,Castellano,0.0,Inglés,3.0,Alemán,12.0,5.0,3.0,no,no,no,nada,,,,"En general ha ido bien, pero si que es cierto que estaba muy cansada i en algun momentito me he desconcentrado. ",66.0,yes
62,2023-12-18_15h33.50.912,Unsyncopated_study2,s85,20.0,feminino,right,España,Catalán y Castellano,Upper secondary,no,no,A,1,what,L3,unsyncopated,s1,r1,62,Online_whatL3//c.gu.je16.1332.444.wav,chu,fu,je,sil,mo,di,gu,sil1,li,ko,sil2,['catch'],[1.9159000000357764],[1.9159000000357764],1.332,no_beat,0.5839000000357764,0.5839000000357764,"[""space""]",gu,3,testWhenL4Uns//r2.s2.1.wav,3.0,when,unsyncopated,b,s2,rule,rule,L4,z,0.3345,7.0,1.0,0.3262,4.0,3.0,Catalán,0.0,Castellano,0.0,Inglés,3.0,Alemán,12.0,5.0,3.0,no,no,no,nada,,,,"En general ha ido bien, pero si que es cierto que estaba muy cansada i en algun momentito me he desconcentrado. ",66.0,yes
63,2023-12-18_15h33.50.912,Unsyncopated_study2,s85,20.0,feminino,right,España,Catalán y Castellano,Upper secondary,no,no,A,1,what,L3,unsyncopated,s1,r2,63,Online_whatL3//c.gu.je17.none.none.wav,ñe,ga,li,sil2,sa,ko,ji,sil,do,ka,sil1,['-'],,,none,none,,,,gu,3,testWhenL4Uns//r1.s2.0.wav,3.0,when,unsyncopated,a,s2,rule,rule,L4,z,0.2512,6.0,1.0,0.3017,4.0,3.0,Catalán,0.0,Castellano,0.0,Inglés,3.0,Alemán,12.0,5.0,3.0,no,no,no,nada,,,,"En general ha ido bien, pero si que es cierto que estaba muy cansada i en algun momentito me he desconcentrado. ",66.0,yes
64,2023-12-18_15h33.50.912,Unsyncopated_study2,s85,20.0,feminino,right,España,Catalán y Castellano,Upper secondary,no,no,A,1,what,L3,unsyncopated,s2,r1,64,Online_whatL3//c.gu.je15.1332.0.wav,je,ji,ko,sil,chu,ka,gu,sil2,mo,ga,sil1,['catch'],[1.8596999999881518],[1.8596999999881518],1.332,no_beat,0.5276999999881518,0.5276999999881518,"[""space""]",gu,3,testWhenL4Uns//cat_viol.r2.s2.0.wav,3.0,when,unsyncopated,b,s2,no_rule,cat,L4,m,0.7011,5.0,0.0,0.3602,4.0,3.0,Catalán,0.0,Castellano,0.0,Inglés,3.0,Alemán,12.0,5.0,3.0,no,no,no,nada,,,,"En general ha ido bien, pero si que es cierto que estaba muy cansada i en algun momentito me he desconcentrado. ",66.0,yes
65,2023-12-18_15h33.50.912,Unsyncopated_study2,s85,20.0,feminino,right,España,Catalán y Castellano,Upper secondary,no,no,A,1,what,L3,unsyncopated,s2,r1,65,Online_whatL3//c.gu.je12.none.none.wav,ga,di,li,sil,chu,do,fu,sil2,mo,le,sil1,['-'],,,none,none,,,,gu,3,testWhenL4Uns//dep_viol.r2.s2.0.wav,3.0,when,unsyncopated,b,s2,no_rule,dep,L4,z,0.0185,7.0,1.0,0.6014,4.0,3.0,Catalán,0.0,Castellano,0.0,Inglés,3.0,Alemán,12.0,5.0,3.0,no,no,no,nada,,,,"En general ha ido bien, pero si que es cierto que estaba muy cansada i en algun momentito me he desconcentrado. ",66.0,yes
66,2023-12-18_15h33.50.912,Unsyncopated_study2,s85,20.0,feminino,right,España,Catalán y Castellano,Upper secondary,no,no,A,1,what,L3,unsyncopated,s2,r1,66,Online_whatL3//c.gu.je14.none.none.wav,do,ga,fu,sil2,chu,li,ji,sil,mo,ka,sil1,['-'],,,none,none,,,,gu,3,testWhenL4Uns//r1.s1.2.wav,3.0,when,unsyncopated,a,s1,rule,rule,L4,m,0.2089,3.0,0.0,0.4339,4.0,3.0,Catalán,0.0,Castellano,0.0,Inglés,3.0,Alemán,12.0,5.0,3.0,no,no,no,nada,,,,"En general ha ido bien, pero si que es cierto que estaba muy cansada i en algun momentito me he desconcentrado. ",66.0,yes
67,2023-12-18_15h33.50.912,Unsyncopated_study2,s85,20.0,feminino,right,España,Catalán y Castellano,Upper secondary,no,no,A,1,what,L3,unsyncopated,s1,r2,67,Online_whatL3//c.gu.je13.1332.222.wav,ñe,je,fu,sil,sa,ko,gu,sil1,di,li,sil2,['catch'],[2.3163000000118927],[2.3163000000118927],1.332,no_beat,0.9843000000118928,0.9843000000118928,"[""space""]",gu,3,testWhenL4Uns//r2.s1.1.wav,3.0,when,unsyncopated,b,s1,rule,rule,L4,m,0.4046,3.0,0.0,0.3506,4.0,3.0,Catalán,0.0,Castellano,0.0,Inglés,3.0,Alemán,12.0,5.0,3.0,no,no,no,nada,,,,"En general ha ido bien, pero si que es cierto que estaba muy cansada i en algun momentito me he desconcentrado. ",66.0,yes
68,2023-12-18_15h33.50.912,Unsyncopated_study2,s85,20.0,feminino,right,España,Catalán y Castellano,Upper secondary,no,no,A,1,what,L3,unsyncopated,s1,r2,68,Online_whatL3//a.chu.mo1.none.none.wav,ñe,gu,ji,sil,sa,di,ga,sil2,fu,ka,sil1,['-'],,,none,none,,,,mo,2,testWhenL4Uns//time_viol.r1.s2.0.wav,3.0,when,unsyncopated,a,s2,no_rule,time,L4,z,0.8547,4.0,1.0,0.5293,4.0,3.0,Catalán,0.0,Castellano,0.0,Inglés,3.0,Alemán,12.0,5.0,3.0,no,no,no,nada,,,,"En general ha ido bien, pero si que es cierto que estaba muy cansada i en algun momentito me he desconcentrado. ",66.0,yes
69,2023-12-18_15h33.50.912,Unsyncopated_study2,s85,20.0,feminino,right,España,Catalán y Castellano,Upper secondary,no,no,A,1,what,L3,unsyncopated,s2,r1,69,Online_whatL3//a.chu.mo2.1110.1998.wav,fu,do,je,sil2,chu,gu,li,sil,mo,ka,sil1,['catch'],[2.4654999999999063],[2.4654999999999063],1.998,no_beat,0.4674999999999063,0.4674999999999063,"[""space""]",mo,2,testWhenL4Uns//cat_viol.r1.s2.0.wav,3.0,when,unsyncopated,a,s2,no_rule,cat,L4,m,0.3015,5.0,0.0,0.4455,4.0,3.0,Catalán,0.0,Castellano,0.0,Inglés,3.0,Alemán,12.0,5.0,3.0,no,no,no,nada,,,,"En general ha ido bien, pero si que es cierto que estaba muy cansada i en algun momentito me he desconcentrado. ",66.0,yes
70,2023-12-18_15h33.50.912,Unsyncopated_study2,s85,20.0,feminino,right,España,Catalán y Castellano,Upper secondary,no,no,A,1,what,L3,unsyncopated,s2,r1,70,Online_whatL3//a.chu.mo0.1110.1998.wav,fu,di,li,sil2,chu,ga,ko,sil,mo,le,sil1,['catch'],[2.501300000011952],[2.501300000011952],1.998,no_beat,0.5033000000119519,0.5033000000119519,"[""space""]",mo,2,testWhenL4Uns//time_viol.r2.s2.0.wav,3.0,when,unsyncopated,b,s2,no_rule,time,L4,z,0.1343,6.0,1.0,0.4337,4.0,3.0,Catalán,0.0,Castellano,0.0,Inglés,3.0,Alemán,12.0,5.0,3.0,no,no,no,nada,,,,"En general ha ido bien, pero si que es cierto que estaba muy cansada i en algun momentito me he desconcentrado. ",66.0,yes
71,2023-12-18_15h33.50.912,Unsyncopated_study2,s85,20.0,feminino,right,España,Catalán y Castellano,Upper secondary,no,no,A,1,what,L3,unsyncopated,s1,r2,71,Online_whatL3//a.chu.mo3.none.none.wav,ñe,gu,li,sil,sa,je,do,sil1,ji,ka,sil2,['-'],,,none,none,,,,mo,2,testWhenL4Uns//cat_viol.r2.s1.0.wav,3.0,when,unsyncopated,b,s1,no_rule,cat,L4,z,0.6017,6.0,1.0,0.2864,4.0,3.0,Catalán,0.0,Castellano,0.0,Inglés,3.0,Alemán,12.0,5.0,3.0,no,no,no,nada,,,,"En general ha ido bien, pero si que es cierto que estaba muy cansada i en algun momentito me he desconcentrado. ",66.0,yes
72,2023-12-18_15h33.50.912,Unsyncopated_study2,s85,20.0,feminino,right,España,Catalán y Castellano,Upper secondary,no,no,A,1,what,L3,unsyncopated,s1,r2,72,Online_whatL3//d.ji.li7.1332.1554.wav,ñe,ga,ka,sil2,sa,ji,li,sil,gu,do,sil1,['miss'],,,1.332,no_beat,,,,ji,4,testConjL1Syn//time_viol.r1.s1.0.wav,4.0,conjunction_syn,syncopated,a,s1,no_rule,time,L1,m,0.3682,6.0,1.0,1.0491,4.0,3.0,Catalán,0.0,Castellano,0.0,Inglés,3.0,Alemán,12.0,5.0,3.0,no,no,no,nada,,,,"En general ha ido bien, pero si que es cierto que estaba muy cansada i en algun momentito me he desconcentrado. ",66.0,yes
73,2023-12-18_15h33.50.912,Unsyncopated_study2,s85,20.0,feminino,right,España,Catalán y Castellano,Upper secondary,no,no,A,1,what,L3,unsyncopated,s2,r2,73,Online_whatL3//d.ji.li6.222.1110.wav,ko,ji,ka,sil,ñe,li,di,sil2,sa,ga,sil1,['miss'],,,0.222,no_beat,,,,ji,4,testConjL1Syn//dep_viol.r2.s1.0.wav,4.0,conjunction_syn,syncopated,b,s1,no_rule,dep,L1,z,0.8903,5.0,0.0,0.3686,4.0,3.0,Catalán,0.0,Castellano,0.0,Inglés,3.0,Alemán,12.0,5.0,3.0,no,no,no,nada,,,,"En general ha ido bien, pero si que es cierto que estaba muy cansada i en algun momentito me he desconcentrado. ",66.0,yes
74,2023-12-18_15h33.50.912,Unsyncopated_study2,s85,20.0,feminino,right,España,Catalán y Castellano,Upper secondary,no,no,A,1,what,L3,unsyncopated,s2,r1,74,Online_whatL3//d.ji.li5.none.none.wav,le,ka,di,sil,chu,fu,ko,sil2,mo,gu,sil1,['-'],,,none,none,,,,ji,4,testConjL1Syn//r1.s2.2.wav,4.0,conjunction_syn,syncopated,a,s2,rule,rule,L1,m,0.2751,6.0,0.0,0.3844,4.0,3.0,Catalán,0.0,Castellano,0.0,Inglés,3.0,Alemán,12.0,5.0,3.0,no,no,no,nada,,,,"En general ha ido bien, pero si que es cierto que estaba muy cansada i en algun momentito me he desconcentrado. ",66.0,yes
75,2023-12-18_15h33.50.912,Unsyncopated_study2,s85,20.0,feminino,right,España,Catalán y Castellano,Upper secondary,no,no,A,1,what,L3,unsyncopated,s1,r1,75,Online_whatL3//d.ji.li4.none.none.wav,chu,je,ko,sil,mo,ga,le,sil2,do,di,sil1,['-'],,,none,none,,,,ji,4,testConjL1Syn//time_viol.r1.s2.0.wav,4.0,conjunction_syn,syncopated,a,s2,no_rule,time,L1,m,0.1188,5.0,1.0,0.4858,4.0,3.0,Catalán,0.0,Castellano,0.0,Inglés,3.0,Alemán,12.0,5.0,3.0,no,no,no,nada,,,,"En general ha ido bien, pero si que es cierto que estaba muy cansada i en algun momentito me he desconcentrado. ",66.0,yes
76,2023-12-18_15h33.50.912,Unsyncopated_study2,s85,20.0,feminino,right,España,Catalán y Castellano,Upper secondary,no,no,A,1,what,L3,unsyncopated,s1,r1,76,Online_whatL3//c.gu.je31.none.none.wav,chu,fu,ko,sil,mo,li,di,sil2,ga,ka,sil1,['-'],,,none,none,,,,gu,3,testConjL1Syn//dep_viol.r1.s1.0.wav,4.0,conjunction_syn,syncopated,a,s1,no_rule,dep,L1,z,0.2681,7.0,0.0,0.2777,4.0,3.0,Catalán,0.0,Castellano,0.0,Inglés,3.0,Alemán,12.0,5.0,3.0,no,no,no,nada,,,,"En general ha ido bien, pero si que es cierto que estaba muy cansada i en algun momentito me he desconcentrado. ",66.0,yes
77,2023-12-18_15h33.50.912,Unsyncopated_study2,s85,20.0,feminino,right,España,Catalán y Castellano,Upper secondary,no,no,A,1,what,L3,unsyncopated,s2,r2,77,Online_whatL3//c.gu.je30.none.none.wav,ka,li,do,sil2,ñe,fu,ga,sil,sa,di,sil1,['false alarm'],[2.483000000000061],[2.483000000000061],none,none,,,"[""space""]",gu,3,testConjL1Syn//r2.s2.2.wav,4.0,conjunction_syn,syncopated,b,s2,rule,rule,L1,z,0.2517,6.0,1.0,0.2683,4.0,3.0,Catalán,0.0,Castellano,0.0,Inglés,3.0,Alemán,12.0,5.0,3.0,no,no,no,nada,,,,"En general ha ido bien, pero si que es cierto que estaba muy cansada i en algun momentito me he desconcentrado. ",66.0,yes
78,2023-12-18_15h33.50.912,Unsyncopated_study2,s85,20.0,feminino,right,España,Catalán y Castellano,Upper secondary,no,no,A,1,what,L3,unsyncopated,s1,r2,78,Online_whatL3//c.gu.je28.1332.444.wav,ñe,ko,je,sil,sa,fu,gu,sil1,le,ji,sil2,['catch'],[1.8557999999522963],[1.8557999999522963],1.332,no_beat,0.5237999999522962,0.5237999999522962,"[""space""]",gu,3,testConjL1Syn//r2.s1.2.wav,4.0,conjunction_syn,syncopated,b,s1,rule,rule,L1,z,0.1841,5.0,1.0,0.2537,4.0,3.0,Catalán,0.0,Castellano,0.0,Inglés,3.0,Alemán,12.0,5.0,3.0,no,no,no,nada,,,,"En general ha ido bien, pero si que es cierto que estaba muy cansada i en algun momentito me he desconcentrado. ",66.0,yes
79,2023-12-18_15h33.50.912,Unsyncopated_study2,s85,20.0,feminino,right,España,Catalán y Castellano,Upper secondary,no,no,A,1,what,L3,unsyncopated,s2,r1,79,Online_whatL3//c.gu.je29.1332.222.wav,ko,je,le,sil2,chu,gu,do,sil,mo,ji,sil1,['catch'],[2.21550000000002],[2.21550000000002],1.332,no_beat,0.8835000000000199,0.8835000000000199,"[""space""]",gu,3,testConjL1Syn//cat_viol.r2.s2.0.wav,4.0,conjunction_syn,syncopated,b,s2,no_rule,cat,L1,z,0.2951,6.0,0.0,1.2174,4.0,3.0,Catalán,0.0,Castellano,0.0,Inglés,3.0,Alemán,12.0,5.0,3.0,no,no,no,nada,,,,"En general ha ido bien, pero si que es cierto que estaba muy cansada i en algun momentito me he desconcentrado. ",66.0,yes
80,2023-12-18_15h33.50.912,Unsyncopated_study2,s85,20.0,feminino,right,España,Catalán y Castellano,Upper secondary,no,no,A,1,what,L3,unsyncopated,s2,r1,80,Online_whatL3//a.chu.mo6.888.1776.wav,do,ko,ka,sil,chu,fu,gu,sil1,mo,ga,sil2,['catch'],[2.235699999988128],[2.235699999988128],1.776,beat,0.4596999999881281,0.4596999999881281,"[""space""]",mo,2,testConjL1Syn//time_viol.r2.s1.0.wav,4.0,conjunction_syn,syncopated,b,s1,no_rule,time,L1,z,0.2557,5.0,0.0,0.2671,4.0,3.0,Catalán,0.0,Castellano,0.0,Inglés,3.0,Alemán,12.0,5.0,3.0,no,no,no,nada,,,,"En general ha ido bien, pero si que es cierto que estaba muy cansada i en algun momentito me he desconcentrado. ",66.0,yes
81,2023-12-18_15h33.50.912,Unsyncopated_study2,s85,20.0,feminino,right,España,Catalán y Castellano,Upper secondary,no,no,A,1,what,L3,unsyncopated,s2,r2,81,Online_whatL3//a.chu.mo5.none.none.wav,ga,ka,li,sil2,ñe,gu,le,sil,sa,di,sil1,['-'],,,none,none,,,,mo,2,testConjL1Syn//r2.s2.1.wav,4.0,conjunction_syn,syncopated,b,s2,rule,rule,L1,z,0.2674,4.0,1.0,0.3355,4.0,3.0,Catalán,0.0,Castellano,0.0,Inglés,3.0,Alemán,12.0,5.0,3.0,no,no,no,nada,,,,"En general ha ido bien, pero si que es cierto que estaba muy cansada i en algun momentito me he desconcentrado. ",66.0,yes
82,2023-12-18_15h33.50.912,Unsyncopated_study2,s85,20.0,feminino,right,España,Catalán y Castellano,Upper secondary,no,no,A,1,what,L3,unsyncopated,s1,r1,82,Online_whatL3//a.chu.mo7.0.888.wav,chu,ka,do,sil,mo,le,je,sil1,li,fu,sil2,['catch'],[2.0095000000000027],[2.0095000000000027],0.888,beat,1.1215000000000028,1.1215000000000028,"[""space""]",mo,2,testConjL1Syn//dep_viol.r1.s2.0.wav,4.0,conjunction_syn,syncopated,a,s2,no_rule,dep,L1,z,0.0215,6.0,0.0,0.5551,4.0,3.0,Catalán,0.0,Castellano,0.0,Inglés,3.0,Alemán,12.0,5.0,3.0,no,no,no,nada,,,,"En general ha ido bien, pero si que es cierto que estaba muy cansada i en algun momentito me he desconcentrado. ",66.0,yes
83,2023-12-18_15h33.50.912,Unsyncopated_study2,s85,20.0,feminino,right,España,Catalán y Castellano,Upper secondary,no,no,A,1,what,L3,unsyncopated,s1,r2,83,Online_whatL3//a.chu.mo4.none.none.wav,ñe,le,gu,sil2,sa,ji,je,sil,ga,li,sil1,['-'],,,none,none,,,,mo,2,testConjL1Syn//cat_viol.r1.s2.0.wav,4.0,conjunction_syn,syncopated,a,s2,no_rule,cat,L1,z,0.0092,6.0,0.0,0.4703,4.0,3.0,Catalán,0.0,Castellano,0.0,Inglés,3.0,Alemán,12.0,5.0,3.0,no,no,no,nada,,,,"En general ha ido bien, pero si que es cierto que estaba muy cansada i en algun momentito me he desconcentrado. ",66.0,yes
84,2023-12-18_15h33.50.912,Unsyncopated_study2,s85,20.0,feminino,right,España,Catalán y Castellano,Upper secondary,no,no,A,1,what,L3,unsyncopated,s2,r2,84,Online_whatL3//c.gu.je8.none.none.wav,ko,ka,di,sil2,ñe,ji,li,sil,sa,ga,sil1,['-'],,,none,none,,,,gu,3,testConjL1Syn//dep_viol.r2.s2.0.wav,4.0,conjunction_syn,syncopated,b,s2,no_rule,dep,L1,z,0.1519,5.0,0.0,0.3418,4.0,3.0,Catalán,0.0,Castellano,0.0,Inglés,3.0,Alemán,12.0,5.0,3.0,no,no,no,nada,,,,"En general ha ido bien, pero si que es cierto que estaba muy cansada i en algun momentito me he desconcentrado. ",66.0,yes
85,2023-12-18_15h33.50.912,Unsyncopated_study2,s85,20.0,feminino,right,España,Catalán y Castellano,Upper secondary,no,no,A,1,what,L3,unsyncopated,s2,r1,85,Online_whatL3//c.gu.je9.none.none.wav,ga,fu,ko,sil,chu,ji,ka,sil1,mo,di,sil2,['-'],,,none,none,,,,gu,3,testConjL1Syn//r1.s1.1.wav,4.0,conjunction_syn,syncopated,a,s1,rule,rule,L1,m,0.2372,2.0,0.0,0.6875,4.0,3.0,Catalán,0.0,Castellano,0.0,Inglés,3.0,Alemán,12.0,5.0,3.0,no,no,no,nada,,,,"En general ha ido bien, pero si que es cierto que estaba muy cansada i en algun momentito me he desconcentrado. ",66.0,yes
86,2023-12-18_15h33.50.912,Unsyncopated_study2,s85,20.0,feminino,right,España,Catalán y Castellano,Upper secondary,no,no,A,1,what,L3,unsyncopated,s1,r2,86,Online_whatL3//c.gu.je10.none.none.wav,ñe,li,le,sil,sa,ko,do,sil2,di,ji,sil1,['-'],,,none,none,,,,gu,3,testConjL1Syn//r1.s1.0.wav,4.0,conjunction_syn,syncopated,a,s1,rule,rule,L1,m,1.2345,4.0,0.0,1.1559,4.0,3.0,Catalán,0.0,Castellano,0.0,Inglés,3.0,Alemán,12.0,5.0,3.0,no,no,no,nada,,,,"En general ha ido bien, pero si que es cierto que estaba muy cansada i en algun momentito me he desconcentrado. ",66.0,yes
87,2023-12-18_15h33.50.912,Unsyncopated_study2,s85,20.0,feminino,right,España,Catalán y Castellano,Upper secondary,no,no,A,1,what,L3,unsyncopated,s1,r1,87,Online_whatL3//c.gu.je11.444.1332.wav,chu,li,gu,sil2,mo,je,ka,sil,ko,do,sil1,['catch'],[1.0556999999880645],[1.0556999999880645],0.444,no_beat,0.6116999999880646,0.6116999999880646,"[""space""]",gu,3,testConjL1Syn//r2.s2.0.wav,4.0,conjunction_syn,syncopated,b,s2,rule,rule,L1,z,0.2684,6.0,1.0,0.2668,4.0,3.0,Catalán,0.0,Castellano,0.0,Inglés,3.0,Alemán,12.0,5.0,3.0,no,no,no,nada,,,,"En general ha ido bien, pero si que es cierto que estaba muy cansada i en algun momentito me he desconcentrado. ",66.0,yes
88,2023-12-18_15h33.50.912,Unsyncopated_study2,s85,20.0,feminino,right,España,Catalán y Castellano,Upper secondary,no,no,A,1,what,L3,unsyncopated,s2,r2,88,Online_whatL3//b.ñe.sa3.888.1776.wav,le,di,gu,sil,ñe,li,je,sil1,sa,ko,sil2,['miss'],,,0.888,beat,,,,ñe,1,testConjL1Syn//cat_viol.r1.s1.0.wav,4.0,conjunction_syn,syncopated,a,s1,no_rule,cat,L1,z,0.0359,5.0,0.0,0.5702,4.0,3.0,Catalán,0.0,Castellano,0.0,Inglés,3.0,Alemán,12.0,5.0,3.0,no,no,no,nada,,,,"En general ha ido bien, pero si que es cierto que estaba muy cansada i en algun momentito me he desconcentrado. ",66.0,yes
89,2023-12-18_15h33.50.912,Unsyncopated_study2,s85,20.0,feminino,right,España,Catalán y Castellano,Upper secondary,no,no,A,1,what,L3,unsyncopated,s1,r2,89,Online_whatL3//b.ñe.sa1.0.888.wav,ñe,le,je,sil,sa,ka,ko,sil2,do,gu,sil1,['catch'],[0.8275999999642636],[0.8275999999642636],0.0,beat,0.8275999999642636,0.8275999999642636,"[""space""]",ñe,1,testConjL1Syn//time_viol.r2.s2.0.wav,4.0,conjunction_syn,syncopated,b,s2,no_rule,time,L1,z,0.6258,5.0,0.0,0.2512,4.0,3.0,Catalán,0.0,Castellano,0.0,Inglés,3.0,Alemán,12.0,5.0,3.0,no,no,no,nada,,,,"En general ha ido bien, pero si que es cierto que estaba muy cansada i en algun momentito me he desconcentrado. ",66.0,yes
90,2023-12-18_15h33.50.912,Unsyncopated_study2,s85,20.0,feminino,right,España,Catalán y Castellano,Upper secondary,no,no,A,1,what,L3,unsyncopated,s2,r1,90,Online_whatL3//b.ñe.sa0.none.none.wav,ko,le,ji,sil2,chu,do,gu,sil,mo,fu,sil1,['-'],,,none,none,,,,ñe,1,testConjL1Syn//r1.s1.2.wav,4.0,conjunction_syn,syncopated,a,s1,rule,rule,L1,z,0.3289,4.0,1.0,0.3034,4.0,3.0,Catalán,0.0,Castellano,0.0,Inglés,3.0,Alemán,12.0,5.0,3.0,no,no,no,nada,,,,"En general ha ido bien, pero si que es cierto que estaba muy cansada i en algun momentito me he desconcentrado. ",66.0,yes
91,2023-12-18_15h33.50.912,Unsyncopated_study2,s85,20.0,feminino,right,España,Catalán y Castellano,Upper secondary,no,no,A,1,what,L3,unsyncopated,s2,r1,91,Online_whatL3//b.ñe.sa2.none.none.wav,fu,ko,di,sil,chu,le,gu,sil2,mo,je,sil1,['-'],,,none,none,,,,ñe,1,testConjL1Syn//r1.s2.0.wav,4.0,conjunction_syn,syncopated,a,s2,rule,rule,L1,z,0.3857,5.0,1.0,0.2758,4.0,3.0,Catalán,0.0,Castellano,0.0,Inglés,3.0,Alemán,12.0,5.0,3.0,no,no,no,nada,,,,"En general ha ido bien, pero si que es cierto que estaba muy cansada i en algun momentito me he desconcentrado. ",66.0,yes
92,2023-12-18_15h33.50.912,Unsyncopated_study2,s85,20.0,feminino,right,España,Catalán y Castellano,Upper secondary,no,no,A,1,what,L3,unsyncopated,s1,r2,92,Online_whatL3//b.ñe.sa21.0.1110.wav,ñe,do,li,sil2,sa,je,ko,sil,le,ga,sil1,['miss'],,,0.0,beat,,,,ñe,1,testConjL1Syn//r2.s1.0.wav,4.0,conjunction_syn,syncopated,b,s1,rule,rule,L1,m,0.6187,3.0,0.0,0.1846,4.0,3.0,Catalán,0.0,Castellano,0.0,Inglés,3.0,Alemán,12.0,5.0,3.0,no,no,no,nada,,,,"En general ha ido bien, pero si que es cierto que estaba muy cansada i en algun momentito me he desconcentrado. ",66.0,yes
93,2023-12-18_15h33.50.912,Unsyncopated_study2,s85,20.0,feminino,right,España,Catalán y Castellano,Upper secondary,no,no,A,1,what,L3,unsyncopated,s1,r1,93,Online_whatL3//b.ñe.sa20.none.none.wav,chu,li,do,sil,mo,je,gu,sil1,ga,le,sil2,['-'],,,none,none,,,,ñe,1,testConjL1Syn//cat_viol.r2.s1.0.wav,4.0,conjunction_syn,syncopated,b,s1,no_rule,cat,L1,m,0.3065,4.0,1.0,0.3247,4.0,3.0,Catalán,0.0,Castellano,0.0,Inglés,3.0,Alemán,12.0,5.0,3.0,no,no,no,nada,,,,"En general ha ido bien, pero si que es cierto que estaba muy cansada i en algun momentito me he desconcentrado. ",66.0,yes
94,2023-12-18_15h33.50.912,Unsyncopated_study2,s85,20.0,feminino,right,España,Catalán y Castellano,Upper secondary,no,no,A,1,what,L3,unsyncopated,s1,r2,94,Online_whatL3//b.ñe.sa22.0.1110.wav,ñe,gu,fu,sil2,sa,je,ga,sil,do,ko,sil1,['catch'],[0.5490999999642554],[0.5490999999642554],0.0,beat,0.5490999999642554,0.5490999999642554,"[""space""]",ñe,1,testConjL1Syn//r2.s1.1.wav,4.0,conjunction_syn,syncopated,b,s1,rule,rule,L1,m,0.2232,3.0,0.0,0.2274,4.0,3.0,Catalán,0.0,Castellano,0.0,Inglés,3.0,Alemán,12.0,5.0,3.0,no,no,no,nada,,,,"En general ha ido bien, pero si que es cierto que estaba muy cansada i en algun momentito me he desconcentrado. ",66.0,yes
95,2023-12-18_15h33.50.912,Unsyncopated_study2,s85,20.0,feminino,right,España,Catalán y Castellano,Upper secondary,no,no,A,1,what,L3,unsyncopated,s2,r1,95,Online_whatL3//b.ñe.sa23.none.none.wav,le,je,do,sil,chu,ji,ka,sil2,mo,ko,sil1,['-'],,,none,none,,,,ñe,1,testConjL1Syn//r1.s2.1.wav,4.0,conjunction_syn,syncopated,a,s2,rule,rule,L1,z,0.0431,5.0,1.0,0.4026,4.0,3.0,Catalán,0.0,Castellano,0.0,Inglés,3.0,Alemán,12.0,5.0,3.0,no,no,no,nada,,,,"En general ha ido bien, pero si que es cierto que estaba muy cansada i en algun momentito me he desconcentrado. ",66.0,yes
96,2023-12-18_15h33.50.912,Unsyncopated_study2,s85,20.0,feminino,right,España,Catalán y Castellano,Upper secondary,no,no,A,1,what,L3,unsyncopated,s1,r2,96,Online_whatL3//d.ji.li17.none.none.wav,ñe,ko,gu,sil,sa,le,do,sil2,je,ga,sil1,['-'],,,none,none,,,,ji,4,,,,,,,,,,,,,,,4.0,3.0,Catalán,0.0,Castellano,0.0,Inglés,3.0,Alemán,12.0,5.0,3.0,no,no,no,nada,,,,"En general ha ido bien, pero si que es cierto que estaba muy cansada i en algun momentito me he desconcentrado. ",66.0,yes
97,2023-12-18_15h33.50.912,Unsyncopated_study2,s85,20.0,feminino,right,España,Catalán y Castellano,Upper secondary,no,no,A,1,what,L3,unsyncopated,s2,r1,97,Online_whatL3//d.ji.li19.1554.222.wav,le,li,do,sil2,chu,ka,ji,sil,mo,di,sil1,['catch'],[2.1336000000238755],[2.1336000000238755],1.554,no_beat,0.5796000000238755,0.5796000000238755,"[""space""]",ji,4,,,,,,,,,,,,,,,4.0,3.0,Catalán,0.0,Castellano,0.0,Inglés,3.0,Alemán,12.0,5.0,3.0,no,no,no,nada,,,,"En general ha ido bien, pero si que es cierto que estaba muy cansada i en algun momentito me he desconcentrado. ",66.0,yes
98,2023-12-18_15h33.50.912,Unsyncopated_study2,s85,20.0,feminino,right,España,Catalán y Castellano,Upper secondary,no,no,A,1,what,L3,unsyncopated,s1,r2,98,Online_whatL3//d.ji.li18.222.1332.wav,ñe,ji,di,sil2,sa,li,gu,sil,ko,fu,sil1,"['catch', 'false alarm']","[1.0114999999999554, 1.9326999999880172]",[1.0114999999999554],0.222,no_beat,0.7894999999999555,0.7894999999999555,"[""space"",""space""]",ji,4,,,,,,,,,,,,,,,4.0,3.0,Catalán,0.0,Castellano,0.0,Inglés,3.0,Alemán,12.0,5.0,3.0,no,no,no,nada,,,,"En general ha ido bien, pero si que es cierto que estaba muy cansada i en algun momentito me he desconcentrado. ",66.0,yes
99,2023-12-18_15h33.50.912,Unsyncopated_study2,s85,20.0,feminino,right,España,Catalán y Castellano,Upper secondary,no,no,A,1,what,L3,unsyncopated,s1,r2,99,Online_whatL3//d.ji.li16.1776.1110.wav,ñe,le,ko,sil,sa,li,je,sil1,ji,fu,sil2,['catch'],[2.2854999999999563],[2.2854999999999563],1.776,beat,0.5094999999999563,0.5094999999999563,"[""space""]",ji,4,,,,,,,,,,,,,,,4.0,3.0,Catalán,0.0,Castellano,0.0,Inglés,3.0,Alemán,12.0,5.0,3.0,no,no,no,nada,,,,"En general ha ido bien, pero si que es cierto que estaba muy cansada i en algun momentito me he desconcentrado. ",66.0,yes
100,2023-12-18_15h33.50.912,Unsyncopated_study2,s85,20.0,feminino,right,España,Catalán y Castellano,Upper secondary,no,no,A,1,what,L3,unsyncopated,s1,r1,100,Online_whatL3//d.ji.li31.1332.444.wav,chu,gu,li,sil,mo,ka,ji,sil2,ga,je,sil1,['miss'],,,1.332,no_beat,,,,ji,4,,,,,,,,,,,,,,,4.0,3.0,Catalán,0.0,Castellano,0.0,Inglés,3.0,Alemán,12.0,5.0,3.0,no,no,no,nada,,,,"En general ha ido bien, pero si que es cierto que estaba muy cansada i en algun momentito me he desconcentrado. ",66.0,yes
101,2023-12-18_15h33.50.912,Unsyncopated_study2,s85,20.0,feminino,right,España,Catalán y Castellano,Upper secondary,no,no,A,1,what,L3,unsyncopated,s2,r2,101,Online_whatL3//d.ji.li30.none.none.wav,gu,di,fu,sil,ñe,je,le,sil1,sa,ko,sil2,['-'],,,none,none,,,,ji,4,,,,,,,,,,,,,,,4.0,3.0,Catalán,0.0,Castellano,0.0,Inglés,3.0,Alemán,12.0,5.0,3.0,no,no,no,nada,,,,"En general ha ido bien, pero si que es cierto que estaba muy cansada i en algun momentito me he desconcentrado. ",66.0,yes
102,2023-12-18_15h33.50.912,Unsyncopated_study2,s85,20.0,feminino,right,España,Catalán y Castellano,Upper secondary,no,no,A,1,what,L3,unsyncopated,s2,r2,102,Online_whatL3//d.ji.li29.1554.222.wav,je,li,ga,sil2,ñe,do,ji,sil,sa,gu,sil1,['catch'],[1.9850999999641772],[1.9850999999641772],1.554,no_beat,0.4310999999641771,0.4310999999641771,"[""space""]",ji,4,,,,,,,,,,,,,,,4.0,3.0,Catalán,0.0,Castellano,0.0,Inglés,3.0,Alemán,12.0,5.0,3.0,no,no,no,nada,,,,"En general ha ido bien, pero si que es cierto que estaba muy cansada i en algun momentito me he desconcentrado. ",66.0,yes
103,2023-12-18_15h33.50.912,Unsyncopated_study2,s85,20.0,feminino,right,España,Catalán y Castellano,Upper secondary,no,no,A,1,what,L3,unsyncopated,s1,r2,103,Online_whatL3//d.ji.li28.none.none.wav,ñe,ka,di,sil2,sa,le,ko,sil,je,ga,sil1,['-'],,,none,none,,,,ji,4,,,,,,,,,,,,,,,4.0,3.0,Catalán,0.0,Castellano,0.0,Inglés,3.0,Alemán,12.0,5.0,3.0,no,no,no,nada,,,,"En general ha ido bien, pero si que es cierto que estaba muy cansada i en algun momentito me he desconcentrado. ",66.0,yes
104,2023-12-18_15h33.50.912,Unsyncopated_study2,s85,20.0,feminino,right,España,Catalán y Castellano,Upper secondary,no,no,A,1,what,L3,unsyncopated,s1,r1,104,Online_whatL3//d.ji.li20.none.none.wav,chu,gu,fu,sil2,mo,ga,do,sil,ka,di,sil1,['-'],,,none,none,,,,ji,4,,,,,,,,,,,,,,,4.0,3.0,Catalán,0.0,Castellano,0.0,Inglés,3.0,Alemán,12.0,5.0,3.0,no,no,no,nada,,,,"En general ha ido bien, pero si que es cierto que estaba muy cansada i en algun momentito me he desconcentrado. ",66.0,yes
105,2023-12-18_15h33.50.912,Unsyncopated_study2,s85,20.0,feminino,right,España,Catalán y Castellano,Upper secondary,no,no,A,1,what,L3,unsyncopated,s2,r2,105,Online_whatL3//d.ji.li23.0.444.wav,ji,ko,li,sil,ñe,di,fu,sil2,sa,je,sil1,['catch'],[0.506899999976099],[0.506899999976099],0.0,beat,0.506899999976099,0.506899999976099,"[""space""]",ji,4,,,,,,,,,,,,,,,4.0,3.0,Catalán,0.0,Castellano,0.0,Inglés,3.0,Alemán,12.0,5.0,3.0,no,no,no,nada,,,,"En general ha ido bien, pero si que es cierto que estaba muy cansada i en algun momentito me he desconcentrado. ",66.0,yes
106,2023-12-18_15h33.50.912,Unsyncopated_study2,s85,20.0,feminino,right,España,Catalán y Castellano,Upper secondary,no,no,A,1,what,L3,unsyncopated,s2,r2,106,Online_whatL3//d.ji.li22.none.none.wav,gu,ka,di,sil,ñe,do,ga,sil2,sa,ko,sil1,['-'],,,none,none,,,,ji,4,,,,,,,,,,,,,,,4.0,3.0,Catalán,0.0,Castellano,0.0,Inglés,3.0,Alemán,12.0,5.0,3.0,no,no,no,nada,,,,"En general ha ido bien, pero si que es cierto que estaba muy cansada i en algun momentito me he desconcentrado. ",66.0,yes
107,2023-12-18_15h33.50.912,Unsyncopated_study2,s85,20.0,feminino,right,España,Catalán y Castellano,Upper secondary,no,no,A,1,what,L3,unsyncopated,s2,r2,107,Online_whatL3//d.ji.li21.none.none.wav,di,le,ko,sil,ñe,ka,je,sil1,sa,gu,sil2,['-'],,,none,none,,,,ji,4,,,,,,,,,,,,,,,4.0,3.0,Catalán,0.0,Castellano,0.0,Inglés,3.0,Alemán,12.0,5.0,3.0,no,no,no,nada,,,,"En general ha ido bien, pero si que es cierto que estaba muy cansada i en algun momentito me he desconcentrado. ",66.0,yes
108,2023-12-18_15h33.50.912,Unsyncopated_study2,s85,20.0,feminino,right,España,Catalán y Castellano,Upper secondary,no,no,A,1,what,L3,unsyncopated,s1,r1,108,Online_whatL3//b.ñe.sa6.none.none.wav,chu,ji,gu,sil,mo,li,fu,sil2,ka,do,sil1,['-'],,,none,none,,,,ñe,1,,,,,,,,,,,,,,,4.0,3.0,Catalán,0.0,Castellano,0.0,Inglés,3.0,Alemán,12.0,5.0,3.0,no,no,no,nada,,,,"En general ha ido bien, pero si que es cierto que estaba muy cansada i en algun momentito me he desconcentrado. ",66.0,yes
109,2023-12-18_15h33.50.912,Unsyncopated_study2,s85,20.0,feminino,right,España,Catalán y Castellano,Upper secondary,no,no,A,1,what,L3,unsyncopated,s1,r1,109,Online_whatL3//b.ñe.sa4.none.none.wav,chu,ka,le,sil,mo,je,ga,sil1,do,ji,sil2,['-'],,,none,none,,,,ñe,1,,,,,,,,,,,,,,,4.0,3.0,Catalán,0.0,Castellano,0.0,Inglés,3.0,Alemán,12.0,5.0,3.0,no,no,no,nada,,,,"En general ha ido bien, pero si que es cierto que estaba muy cansada i en algun momentito me he desconcentrado. ",66.0,yes
110,2023-12-18_15h33.50.912,Unsyncopated_study2,s85,20.0,feminino,right,España,Catalán y Castellano,Upper secondary,no,no,A,1,what,L3,unsyncopated,s2,r2,110,Online_whatL3//b.ñe.sa5.888.1998.wav,di,je,do,sil,ñe,gu,li,sil2,sa,le,sil1,['catch'],[2.0911000000238573],[2.0911000000238573],0.888,beat,,1.2031000000238574,"[""space""]",ñe,1,,,,,,,,,,,,,,,4.0,3.0,Catalán,0.0,Castellano,0.0,Inglés,3.0,Alemán,12.0,5.0,3.0,no,no,no,nada,,,,"En general ha ido bien, pero si que es cierto que estaba muy cansada i en algun momentito me he desconcentrado. ",66.0,yes
111,2023-12-18_15h33.50.912,Unsyncopated_study2,s85,20.0,feminino,right,España,Catalán y Castellano,Upper secondary,no,no,A,1,what,L3,unsyncopated,s2,r1,111,Online_whatL3//b.ñe.sa7.none.none.wav,gu,di,le,sil,chu,ga,ka,sil1,mo,ko,sil2,['-'],,,none,none,,,,ñe,1,,,,,,,,,,,,,,,4.0,3.0,Catalán,0.0,Castellano,0.0,Inglés,3.0,Alemán,12.0,5.0,3.0,no,no,no,nada,,,,"En general ha ido bien, pero si que es cierto que estaba muy cansada i en algun momentito me he desconcentrado. ",66.0,yes
112,2023-12-18_15h33.50.912,Unsyncopated_study2,s85,20.0,feminino,right,España,Catalán y Castellano,Upper secondary,no,no,A,1,what,L3,unsyncopated,s2,r1,112,Online_whatL3//d.ji.li15.222.444.wav,fu,ji,li,sil2,chu,je,ga,sil,mo,di,sil1,['catch'],[0.8085999999642581],[0.8085999999642581],0.222,no_beat,0.5865999999642582,0.5865999999642582,"[""space""]",ji,4,,,,,,,,,,,,,,,4.0,3.0,Catalán,0.0,Castellano,0.0,Inglés,3.0,Alemán,12.0,5.0,3.0,no,no,no,nada,,,,"En general ha ido bien, pero si que es cierto que estaba muy cansada i en algun momentito me he desconcentrado. ",66.0,yes
113,2023-12-18_15h33.50.912,Unsyncopated_study2,s85,20.0,feminino,right,España,Catalán y Castellano,Upper secondary,no,no,A,1,what,L3,unsyncopated,s2,r1,113,Online_whatL3//d.ji.li13.none.none.wav,ga,do,le,sil,chu,ko,ka,sil1,mo,di,sil2,['-'],,,none,none,,,,ji,4,,,,,,,,,,,,,,,4.0,3.0,Catalán,0.0,Castellano,0.0,Inglés,3.0,Alemán,12.0,5.0,3.0,no,no,no,nada,,,,"En general ha ido bien, pero si que es cierto que estaba muy cansada i en algun momentito me he desconcentrado. ",66.0,yes
114,2023-12-18_15h33.50.912,Unsyncopated_study2,s85,20.0,feminino,right,España,Catalán y Castellano,Upper secondary,no,no,A,1,what,L3,unsyncopated,s1,r1,114,Online_whatL3//d.ji.li12.none.none.wav,chu,je,fu,sil,mo,ga,le,sil2,di,gu,sil1,['-'],,,none,none,,,,ji,4,,,,,,,,,,,,,,,4.0,3.0,Catalán,0.0,Castellano,0.0,Inglés,3.0,Alemán,12.0,5.0,3.0,no,no,no,nada,,,,"En general ha ido bien, pero si que es cierto que estaba muy cansada i en algun momentito me he desconcentrado. ",66.0,yes
115,2023-12-18_15h33.50.912,Unsyncopated_study2,s85,20.0,feminino,right,España,Catalán y Castellano,Upper secondary,no,no,A,1,what,L3,unsyncopated,s1,r1,115,Online_whatL3//d.ji.li14.222.1110.wav,chu,ji,ko,sil,mo,li,ga,sil2,do,di,sil1,['miss'],,,0.222,no_beat,,,,ji,4,,,,,,,,,,,,,,,4.0,3.0,Catalán,0.0,Castellano,0.0,Inglés,3.0,Alemán,12.0,5.0,3.0,no,no,no,nada,,,,"En general ha ido bien, pero si que es cierto que estaba muy cansada i en algun momentito me he desconcentrado. ",66.0,yes
116,2023-12-18_15h33.50.912,Unsyncopated_study2,s85,20.0,feminino,right,España,Catalán y Castellano,Upper secondary,no,no,A,1,what,L3,unsyncopated,s1,r2,116,Online_whatL3//b.ñe.sa14.0.888.wav,ñe,le,je,sil,sa,li,fu,sil2,ko,ji,sil1,['miss'],,,0.0,beat,,,,ñe,1,,,,,,,,,,,,,,,4.0,3.0,Catalán,0.0,Castellano,0.0,Inglés,3.0,Alemán,12.0,5.0,3.0,no,no,no,nada,,,,"En general ha ido bien, pero si que es cierto que estaba muy cansada i en algun momentito me he desconcentrado. ",66.0,yes
117,2023-12-18_15h33.50.912,Unsyncopated_study2,s85,20.0,feminino,right,España,Catalán y Castellano,Upper secondary,no,no,A,1,what,L3,unsyncopated,s1,r1,117,Online_whatL3//b.ñe.sa12.none.none.wav,chu,ji,di,sil2,mo,ka,li,sil,do,ko,sil1,['-'],,,none,none,,,,ñe,1,,,,,,,,,,,,,,,4.0,3.0,Catalán,0.0,Castellano,0.0,Inglés,3.0,Alemán,12.0,5.0,3.0,no,no,no,nada,,,,"En general ha ido bien, pero si que es cierto que estaba muy cansada i en algun momentito me he desconcentrado. ",66.0,yes
118,2023-12-18_15h33.50.912,Unsyncopated_study2,s85,20.0,feminino,right,España,Catalán y Castellano,Upper secondary,no,no,A,1,what,L3,unsyncopated,s2,r2,118,Online_whatL3//b.ñe.sa13.888.1776.wav,di,ga,ji,sil,ñe,li,ko,sil1,sa,le,sil2,['catch'],[1.682699999988131],[1.682699999988131],0.888,beat,0.7946999999881309,0.7946999999881309,"[""space""]",ñe,1,,,,,,,,,,,,,,,4.0,3.0,Catalán,0.0,Castellano,0.0,Inglés,3.0,Alemán,12.0,5.0,3.0,no,no,no,nada,,,,"En general ha ido bien, pero si que es cierto que estaba muy cansada i en algun momentito me he desconcentrado. ",66.0,yes
119,2023-12-18_15h33.50.912,Unsyncopated_study2,s85,20.0,feminino,right,España,Catalán y Castellano,Upper secondary,no,no,A,1,what,L3,unsyncopated,s1,r2,119,Online_whatL3//b.ñe.sa15.0.888.wav,ñe,li,ka,sil,sa,le,fu,sil2,je,do,sil1,['miss'],,,0.0,beat,,,,ñe,1,,,,,,,,,,,,,,,4.0,3.0,Catalán,0.0,Castellano,0.0,Inglés,3.0,Alemán,12.0,5.0,3.0,no,no,no,nada,,,,"En general ha ido bien, pero si que es cierto que estaba muy cansada i en algun momentito me he desconcentrado. ",66.0,yes
120,2023-12-18_15h33.50.912,Unsyncopated_study2,s85,20.0,feminino,right,España,Catalán y Castellano,Upper secondary,no,no,A,1,what,L3,unsyncopated,s2,r1,120,Online_whatL3//a.chu.mo20.888.1776.wav,ko,fu,ka,sil,chu,le,do,sil1,mo,je,sil2,['catch'],[2.538800000011861],[2.538800000011861],1.776,beat,0.7628000000118609,0.7628000000118609,"[""space""]",mo,2,,,,,,,,,,,,,,,4.0,3.0,Catalán,0.0,Castellano,0.0,Inglés,3.0,Alemán,12.0,5.0,3.0,no,no,no,nada,,,,"En general ha ido bien, pero si que es cierto que estaba muy cansada i en algun momentito me he desconcentrado. ",66.0,yes
121,2023-12-18_15h33.50.912,Unsyncopated_study2,s85,20.0,feminino,right,España,Catalán y Castellano,Upper secondary,no,no,A,1,what,L3,unsyncopated,s2,r1,121,Online_whatL3//a.chu.mo23.888.1998.wav,fu,ko,li,sil,chu,ga,je,sil2,mo,ji,sil1,['miss'],,,1.998,no_beat,,,,mo,2,,,,,,,,,,,,,,,4.0,3.0,Catalán,0.0,Castellano,0.0,Inglés,3.0,Alemán,12.0,5.0,3.0,no,no,no,nada,,,,"En general ha ido bien, pero si que es cierto que estaba muy cansada i en algun momentito me he desconcentrado. ",66.0,yes
122,2023-12-18_15h33.50.912,Unsyncopated_study2,s85,20.0,feminino,right,España,Catalán y Castellano,Upper secondary,no,no,A,1,what,L3,unsyncopated,s1,r2,122,Online_whatL3//a.chu.mo22.none.none.wav,ñe,gu,fu,sil,sa,di,li,sil1,do,ji,sil2,['-'],,,none,none,,,,mo,2,,,,,,,,,,,,,,,4.0,3.0,Catalán,0.0,Castellano,0.0,Inglés,3.0,Alemán,12.0,5.0,3.0,no,no,no,nada,,,,"En general ha ido bien, pero si que es cierto que estaba muy cansada i en algun momentito me he desconcentrado. ",66.0,yes
123,2023-12-18_15h33.50.912,Unsyncopated_study2,s85,20.0,feminino,right,España,Catalán y Castellano,Upper secondary,no,no,A,1,what,L3,unsyncopated,s1,r2,123,Online_whatL3//a.chu.mo21.none.none.wav,ñe,ko,do,sil,sa,li,ji,sil1,gu,ka,sil2,['false alarm'],[1.4581000000239328],[1.4581000000239328],none,none,,,"[""space""]",mo,2,,,,,,,,,,,,,,,4.0,3.0,Catalán,0.0,Castellano,0.0,Inglés,3.0,Alemán,12.0,5.0,3.0,no,no,no,nada,,,,"En general ha ido bien, pero si que es cierto que estaba muy cansada i en algun momentito me he desconcentrado. ",66.0,yes
124,2023-12-18_15h33.50.912,Unsyncopated_study2,s85,20.0,feminino,right,España,Catalán y Castellano,Upper secondary,no,no,A,1,what,L3,unsyncopated,s1,r1,124,Online_whatL3//b.ñe.sa26.none.none.wav,chu,di,ga,sil,mo,li,le,sil2,ka,ko,sil1,['-'],,,none,none,,,,ñe,1,,,,,,,,,,,,,,,4.0,3.0,Catalán,0.0,Castellano,0.0,Inglés,3.0,Alemán,12.0,5.0,3.0,no,no,no,nada,,,,"En general ha ido bien, pero si que es cierto que estaba muy cansada i en algun momentito me he desconcentrado. ",66.0,yes
125,2023-12-18_15h33.50.912,Unsyncopated_study2,s85,20.0,feminino,right,España,Catalán y Castellano,Upper secondary,no,no,A,1,what,L3,unsyncopated,s1,r2,125,Online_whatL3//b.ñe.sa25.0.888.wav,ñe,di,do,sil,sa,ko,le,sil2,gu,ka,sil1,['catch'],[0.6020999999642527],[0.6020999999642527],0.0,beat,0.6020999999642527,0.6020999999642527,"[""space""]",ñe,1,,,,,,,,,,,,,,,4.0,3.0,Catalán,0.0,Castellano,0.0,Inglés,3.0,Alemán,12.0,5.0,3.0,no,no,no,nada,,,,"En general ha ido bien, pero si que es cierto que estaba muy cansada i en algun momentito me he desconcentrado. ",66.0,yes
126,2023-12-18_15h33.50.912,Unsyncopated_study2,s85,20.0,feminino,right,España,Catalán y Castellano,Upper secondary,no,no,A,1,what,L3,unsyncopated,s1,r2,126,Online_whatL3//b.ñe.sa24.0.888.wav,ñe,je,ga,sil,sa,di,ji,sil1,li,ka,sil2,['catch'],[1.0535999999642627],[1.0535999999642627],0.0,beat,1.053599999964263,1.053599999964263,"[""space""]",ñe,1,,,,,,,,,,,,,,,4.0,3.0,Catalán,0.0,Castellano,0.0,Inglés,3.0,Alemán,12.0,5.0,3.0,no,no,no,nada,,,,"En general ha ido bien, pero si que es cierto que estaba muy cansada i en algun momentito me he desconcentrado. ",66.0,yes
127,2023-12-18_15h33.50.912,Unsyncopated_study2,s85,20.0,feminino,right,España,Catalán y Castellano,Upper secondary,no,no,A,1,what,L3,unsyncopated,s2,r2,127,Online_whatL3//b.ñe.sa27.1110.1998.wav,ga,je,fu,sil2,ñe,li,gu,sil,sa,ka,sil1,['catch'],[2.466400000035719],[2.466400000035719],1.11,no_beat,,1.356400000035719,"[""space""]",ñe,1,,,,,,,,,,,,,,,4.0,3.0,Catalán,0.0,Castellano,0.0,Inglés,3.0,Alemán,12.0,5.0,3.0,no,no,no,nada,,,,"En general ha ido bien, pero si que es cierto que estaba muy cansada i en algun momentito me he desconcentrado. ",66.0,yes
128,2023-12-18_15h33.50.912,Unsyncopated_study2,s85,20.0,feminino,right,España,Catalán y Castellano,Upper secondary,no,no,A,2,conjunction_un,L2,unsyncopated,s2,r2,0,Online_conjL2_un//a.go.du15.none.none.wav,me,mi,ñu,sil,fe,si,ñi,sil1,ra,su,sil2,['-'],,,none,none,,,,du,2,,,,,,,,,,,,,,,4.0,3.0,Catalán,0.0,Castellano,0.0,Inglés,3.0,Alemán,12.0,5.0,3.0,no,no,no,nada,,,,"En general ha ido bien, pero si que es cierto que estaba muy cansada i en algun momentito me he desconcentrado. ",66.0,yes
129,2023-12-18_15h33.50.912,Unsyncopated_study2,s85,20.0,feminino,right,España,Catalán y Castellano,Upper secondary,no,no,A,2,conjunction_un,L2,unsyncopated,s1,r1,1,Online_conjL2_un//a.go.du14.0.888.wav,go,su,to,sil,du,te,ba,sil1,ñi,me,sil2,['catch'],[1.4858999999762545],[1.4858999999762545],0.888,beat,0.5978999999762545,0.5978999999762545,"[""space""]",du,2,,,,,,,,,,,,,,,4.0,3.0,Catalán,0.0,Castellano,0.0,Inglés,3.0,Alemán,12.0,5.0,3.0,no,no,no,nada,,,,"En general ha ido bien, pero si que es cierto que estaba muy cansada i en algun momentito me he desconcentrado. ",66.0,yes
130,2023-12-18_15h33.50.912,Unsyncopated_study2,s85,20.0,feminino,right,España,Catalán y Castellano,Upper secondary,no,no,A,2,conjunction_un,L2,unsyncopated,s2,r2,2,Online_conjL2_un//a.go.du12.none.none.wav,bi,su,mi,sil,fe,ñi,te,sil1,ra,si,sil2,['-'],,,none,none,,,,du,2,,,,,,,,,,,,,,,4.0,3.0,Catalán,0.0,Castellano,0.0,Inglés,3.0,Alemán,12.0,5.0,3.0,no,no,no,nada,,,,"En general ha ido bien, pero si que es cierto que estaba muy cansada i en algun momentito me he desconcentrado. ",66.0,yes
131,2023-12-18_15h33.50.912,Unsyncopated_study2,s85,20.0,feminino,right,España,Catalán y Castellano,Upper secondary,no,no,A,2,conjunction_un,L2,unsyncopated,s2,r1,3,Online_conjL2_un//a.go.du13.888.1776.wav,mi,bi,ba,sil,go,ñu,to,sil1,du,te,sil2,['catch'],[2.2828000000117754],[2.2828000000117754],1.776,beat,0.5068000000117754,0.5068000000117754,"[""space""]",du,2,,,,,,,,,,,,,,,4.0,3.0,Catalán,0.0,Castellano,0.0,Inglés,3.0,Alemán,12.0,5.0,3.0,no,no,no,nada,,,,"En general ha ido bien, pero si que es cierto que estaba muy cansada i en algun momentito me he desconcentrado. ",66.0,yes
132,2023-12-18_15h33.50.912,Unsyncopated_study2,s85,20.0,feminino,right,España,Catalán y Castellano,Upper secondary,no,no,A,2,conjunction_un,L2,unsyncopated,s1,r2,4,Online_conjL2_un//d.si.ñu21.none.none.wav,fe,ba,mi,sil,ra,cha,su,sil1,to,me,sil2,['-'],,,none,none,,,,si,4,,,,,,,,,,,,,,,4.0,3.0,Catalán,0.0,Castellano,0.0,Inglés,3.0,Alemán,12.0,5.0,3.0,no,no,no,nada,,,,"En general ha ido bien, pero si que es cierto que estaba muy cansada i en algun momentito me he desconcentrado. ",66.0,yes
133,2023-12-18_15h33.50.912,Unsyncopated_study2,s85,20.0,feminino,right,España,Catalán y Castellano,Upper secondary,no,no,A,2,conjunction_un,L2,unsyncopated,s2,r1,5,Online_conjL2_un//d.si.ñu23.none.none.wav,su,to,ñi,sil,go,mi,cha,sil1,du,ba,sil2,['-'],,,none,none,,,,si,4,,,,,,,,,,,,,,,4.0,3.0,Catalán,0.0,Castellano,0.0,Inglés,3.0,Alemán,12.0,5.0,3.0,no,no,no,nada,,,,"En general ha ido bien, pero si que es cierto que estaba muy cansada i en algun momentito me he desconcentrado. ",66.0,yes
134,2023-12-18_15h33.50.912,Unsyncopated_study2,s85,20.0,feminino,right,España,Catalán y Castellano,Upper secondary,no,no,A,2,conjunction_un,L2,unsyncopated,s1,r1,6,Online_conjL2_un//d.si.ñu22.none.none.wav,go,su,to,sil,du,ñi,me,sil1,bi,mi,sil2,['-'],,,none,none,,,,si,4,,,,,,,,,,,,,,,4.0,3.0,Catalán,0.0,Castellano,0.0,Inglés,3.0,Alemán,12.0,5.0,3.0,no,no,no,nada,,,,"En general ha ido bien, pero si que es cierto que estaba muy cansada i en algun momentito me he desconcentrado. ",66.0,yes
135,2023-12-18_15h33.50.912,Unsyncopated_study2,s85,20.0,feminino,right,España,Catalán y Castellano,Upper secondary,no,no,A,2,conjunction_un,L2,unsyncopated,s1,r2,7,Online_conjL2_un//d.si.ñu20.1776.222.wav,fe,ñu,cha,sil,ra,bi,te,sil1,si,ñi,sil2,['catch'],[2.458499999999958],[2.458499999999958],1.776,beat,0.6824999999999581,0.6824999999999581,"[""space""]",si,4,,,,,,,,,,,,,,,4.0,3.0,Catalán,0.0,Castellano,0.0,Inglés,3.0,Alemán,12.0,5.0,3.0,no,no,no,nada,,,,"En general ha ido bien, pero si que es cierto que estaba muy cansada i en algun momentito me he desconcentrado. ",66.0,yes
136,2023-12-18_15h33.50.912,Unsyncopated_study2,s85,20.0,feminino,right,España,Catalán y Castellano,Upper secondary,no,no,A,2,conjunction_un,L2,unsyncopated,s2,r2,8,Online_conjL2_un//a.go.du3.none.none.wav,te,bi,su,sil,fe,me,ñi,sil1,ra,si,sil2,['-'],,,none,none,,,,du,2,,,,,,,,,,,,,,,4.0,3.0,Catalán,0.0,Castellano,0.0,Inglés,3.0,Alemán,12.0,5.0,3.0,no,no,no,nada,,,,"En general ha ido bien, pero si que es cierto que estaba muy cansada i en algun momentito me he desconcentrado. ",66.0,yes
137,2023-12-18_15h33.50.912,Unsyncopated_study2,s85,20.0,feminino,right,España,Catalán y Castellano,Upper secondary,no,no,A,2,conjunction_un,L2,unsyncopated,s1,r1,9,Online_conjL2_un//a.go.du1.0.888.wav,go,bi,si,sil,du,ñu,ba,sil1,mi,cha,sil2,['catch'],[1.6139000000357555],[1.6139000000357555],0.888,beat,0.7259000000357555,0.7259000000357555,"[""space""]",du,2,,,,,,,,,,,,,,,4.0,3.0,Catalán,0.0,Castellano,0.0,Inglés,3.0,Alemán,12.0,5.0,3.0,no,no,no,nada,,,,"En general ha ido bien, pero si que es cierto que estaba muy cansada i en algun momentito me he desconcentrado. ",66.0,yes
138,2023-12-18_15h33.50.912,Unsyncopated_study2,s85,20.0,feminino,right,España,Catalán y Castellano,Upper secondary,no,no,A,2,conjunction_un,L2,unsyncopated,s1,r2,10,Online_conjL2_un//a.go.du0.none.none.wav,fe,ñu,ba,sil,ra,mi,cha,sil1,bi,si,sil2,['-'],,,none,none,,,,du,2,,,,,,,,,,,,,,,4.0,3.0,Catalán,0.0,Castellano,0.0,Inglés,3.0,Alemán,12.0,5.0,3.0,no,no,no,nada,,,,"En general ha ido bien, pero si que es cierto que estaba muy cansada i en algun momentito me he desconcentrado. ",66.0,yes
139,2023-12-18_15h33.50.912,Unsyncopated_study2,s85,20.0,feminino,right,España,Catalán y Castellano,Upper secondary,no,no,A,2,conjunction_un,L2,unsyncopated,s2,r1,11,Online_conjL2_un//a.go.du2.888.1776.wav,si,me,to,sil,go,bi,te,sil1,du,cha,sil2,['miss'],,,1.776,beat,,,,du,2,,,,,,,,,,,,,,,4.0,3.0,Catalán,0.0,Castellano,0.0,Inglés,3.0,Alemán,12.0,5.0,3.0,no,no,no,nada,,,,"En general ha ido bien, pero si que es cierto que estaba muy cansada i en algun momentito me he desconcentrado. ",66.0,yes
140,2023-12-18_15h33.50.912,Unsyncopated_study2,s85,20.0,feminino,right,España,Catalán y Castellano,Upper secondary,no,no,A,2,conjunction_un,L2,unsyncopated,s2,r2,12,Online_conjL2_un//a.go.du26.none.none.wav,mi,bi,ñi,sil,fe,cha,te,sil1,ra,su,sil2,['-'],,,none,none,,,,du,2,,,,,,,,,,,,,,,4.0,3.0,Catalán,0.0,Castellano,0.0,Inglés,3.0,Alemán,12.0,5.0,3.0,no,no,no,nada,,,,"En general ha ido bien, pero si que es cierto que estaba muy cansada i en algun momentito me he desconcentrado. ",66.0,yes
141,2023-12-18_15h33.50.912,Unsyncopated_study2,s85,20.0,feminino,right,España,Catalán y Castellano,Upper secondary,no,no,A,2,conjunction_un,L2,unsyncopated,s2,r1,13,Online_conjL2_un//a.go.du27.888.1776.wav,ñu,ba,bi,sil,go,si,mi,sil1,du,te,sil2,['miss'],,,1.776,beat,,,,du,2,,,,,,,,,,,,,,,4.0,3.0,Catalán,0.0,Castellano,0.0,Inglés,3.0,Alemán,12.0,5.0,3.0,no,no,no,nada,,,,"En general ha ido bien, pero si que es cierto que estaba muy cansada i en algun momentito me he desconcentrado. ",66.0,yes
142,2023-12-18_15h33.50.912,Unsyncopated_study2,s85,20.0,feminino,right,España,Catalán y Castellano,Upper secondary,no,no,A,2,conjunction_un,L2,unsyncopated,s1,r1,14,Online_conjL2_un//a.go.du24.0.888.wav,go,si,bi,sil,du,to,me,sil1,ñi,ba,sil2,['catch'],[1.3195999999641117],[1.3195999999641117],0.888,beat,0.4315999999641117,0.4315999999641117,"[""space""]",du,2,,,,,,,,,,,,,,,4.0,3.0,Catalán,0.0,Castellano,0.0,Inglés,3.0,Alemán,12.0,5.0,3.0,no,no,no,nada,,,,"En general ha ido bien, pero si que es cierto que estaba muy cansada i en algun momentito me he desconcentrado. ",66.0,yes
143,2023-12-18_15h33.50.912,Unsyncopated_study2,s85,20.0,feminino,right,España,Catalán y Castellano,Upper secondary,no,no,A,2,conjunction_un,L2,unsyncopated,s2,r2,15,Online_conjL2_un//a.go.du25.none.none.wav,mi,ñu,ba,sil,fe,bi,to,sil1,ra,si,sil2,['-'],,,none,none,,,,du,2,,,,,,,,,,,,,,,4.0,3.0,Catalán,0.0,Castellano,0.0,Inglés,3.0,Alemán,12.0,5.0,3.0,no,no,no,nada,,,,"En general ha ido bien, pero si que es cierto que estaba muy cansada i en algun momentito me he desconcentrado. ",66.0,yes
144,2023-12-18_15h33.50.912,Unsyncopated_study2,s85,20.0,feminino,right,España,Catalán y Castellano,Upper secondary,no,no,A,2,conjunction_un,L2,unsyncopated,s1,r2,16,Online_conjL2_un//c.cha.me21.1332.444.wav,fe,su,me,sil,ra,si,cha,sil1,ñi,ba,sil2,['miss'],,,1.332,no_beat,,,,cha,3,,,,,,,,,,,,,,,4.0,3.0,Catalán,0.0,Castellano,0.0,Inglés,3.0,Alemán,12.0,5.0,3.0,no,no,no,nada,,,,"En general ha ido bien, pero si que es cierto que estaba muy cansada i en algun momentito me he desconcentrado. ",66.0,yes
145,2023-12-18_15h33.50.912,Unsyncopated_study2,s85,20.0,feminino,right,España,Catalán y Castellano,Upper secondary,no,no,A,2,conjunction_un,L2,unsyncopated,s2,r1,17,Online_conjL2_un//c.cha.me20.none.none.wav,ñu,su,ñi,sil,go,to,si,sil1,du,ba,sil2,['-'],,,none,none,,,,cha,3,,,,,,,,,,,,,,,4.0,3.0,Catalán,0.0,Castellano,0.0,Inglés,3.0,Alemán,12.0,5.0,3.0,no,no,no,nada,,,,"En general ha ido bien, pero si que es cierto que estaba muy cansada i en algun momentito me he desconcentrado. ",66.0,yes
146,2023-12-18_15h33.50.912,Unsyncopated_study2,s85,20.0,feminino,right,España,Catalán y Castellano,Upper secondary,no,no,A,2,conjunction_un,L2,unsyncopated,s1,r1,18,Online_conjL2_un//c.cha.me22.222.444.wav,go,cha,me,sil,du,ñu,to,sil1,te,su,sil2,['catch'],[0.6658000000118136],[0.6658000000118136],0.222,no_beat,0.4438000000118136,0.4438000000118136,"[""space""]",cha,3,,,,,,,,,,,,,,,4.0,3.0,Catalán,0.0,Castellano,0.0,Inglés,3.0,Alemán,12.0,5.0,3.0,no,no,no,nada,,,,"En general ha ido bien, pero si que es cierto que estaba muy cansada i en algun momentito me he desconcentrado. ",66.0,yes
147,2023-12-18_15h33.50.912,Unsyncopated_study2,s85,20.0,feminino,right,España,Catalán y Castellano,Upper secondary,no,no,A,2,conjunction_un,L2,unsyncopated,s2,r2,19,Online_conjL2_un//c.cha.me23.222.444.wav,su,cha,me,sil,fe,mi,to,sil1,ra,ñu,sil2,['catch'],[0.6993999999763219],[0.6993999999763219],0.222,no_beat,0.4773999999763219,0.4773999999763219,"[""space""]",cha,3,,,,,,,,,,,,,,,4.0,3.0,Catalán,0.0,Castellano,0.0,Inglés,3.0,Alemán,12.0,5.0,3.0,no,no,no,nada,,,,"En general ha ido bien, pero si que es cierto que estaba muy cansada i en algun momentito me he desconcentrado. ",66.0,yes
148,2023-12-18_15h33.50.912,Unsyncopated_study2,s85,20.0,feminino,right,España,Catalán y Castellano,Upper secondary,no,no,A,2,conjunction_un,L2,unsyncopated,s1,r1,20,Online_conjL2_un//d.si.ñu0.none.none.wav,go,cha,ba,sil,du,ñi,bi,sil1,su,to,sil2,['-'],,,none,none,,,,si,4,,,,,,,,,,,,,,,4.0,3.0,Catalán,0.0,Castellano,0.0,Inglés,3.0,Alemán,12.0,5.0,3.0,no,no,no,nada,,,,"En general ha ido bien, pero si que es cierto que estaba muy cansada i en algun momentito me he desconcentrado. ",66.0,yes
149,2023-12-18_15h33.50.912,Unsyncopated_study2,s85,20.0,feminino,right,España,Catalán y Castellano,Upper secondary,no,no,A,2,conjunction_un,L2,unsyncopated,s1,r1,21,Online_conjL2_un//d.si.ñu2.1776.444.wav,go,ba,ñu,sil,du,to,su,sil1,si,ñi,sil2,['catch'],[2.2353999999761527],[2.2353999999761527],1.776,beat,0.4593999999761526,0.4593999999761526,"[""space""]",si,4,,,,,,,,,,,,,,,4.0,3.0,Catalán,0.0,Castellano,0.0,Inglés,3.0,Alemán,12.0,5.0,3.0,no,no,no,nada,,,,"En general ha ido bien, pero si que es cierto que estaba muy cansada i en algun momentito me he desconcentrado. ",66.0,yes
150,2023-12-18_15h33.50.912,Unsyncopated_study2,s85,20.0,feminino,right,España,Catalán y Castellano,Upper secondary,no,no,A,2,conjunction_un,L2,unsyncopated,s1,r2,22,Online_conjL2_un//d.si.ñu1.222.1332.wav,fe,si,ba,sil,ra,su,ñu,sil1,ñi,me,sil2,['catch'],[1.4103999999761072],[1.4103999999761072],0.222,no_beat,1.1883999999761072,1.1883999999761072,"[""space""]",si,4,,,,,,,,,,,,,,,4.0,3.0,Catalán,0.0,Castellano,0.0,Inglés,3.0,Alemán,12.0,5.0,3.0,no,no,no,nada,,,,"En general ha ido bien, pero si que es cierto que estaba muy cansada i en algun momentito me he desconcentrado. ",66.0,yes
151,2023-12-18_15h33.50.912,Unsyncopated_study2,s85,20.0,feminino,right,España,Catalán y Castellano,Upper secondary,no,no,A,2,conjunction_un,L2,unsyncopated,s2,r2,23,Online_conjL2_un//d.si.ñu3.none.none.wav,to,ba,te,sil,fe,cha,bi,sil1,ra,me,sil2,['-'],,,none,none,,,,si,4,,,,,,,,,,,,,,,4.0,3.0,Catalán,0.0,Castellano,0.0,Inglés,3.0,Alemán,12.0,5.0,3.0,no,no,no,nada,,,,"En general ha ido bien, pero si que es cierto que estaba muy cansada i en algun momentito me he desconcentrado. ",66.0,yes
152,2023-12-18_15h33.50.912,Unsyncopated_study2,s85,20.0,feminino,right,España,Catalán y Castellano,Upper secondary,no,no,A,2,conjunction_un,L2,unsyncopated,s1,r1,24,Online_conjL2_un//b.fe.ra30.none.none.wav,go,si,cha,sil,du,ba,te,sil1,ñu,ñi,sil2,['false alarm'],[0.7306000000237418],[0.7306000000237418],none,none,,,"[""space""]",fe,1,,,,,,,,,,,,,,,4.0,3.0,Catalán,0.0,Castellano,0.0,Inglés,3.0,Alemán,12.0,5.0,3.0,no,no,no,nada,,,,"En general ha ido bien, pero si que es cierto que estaba muy cansada i en algun momentito me he desconcentrado. ",66.0,yes
153,2023-12-18_15h33.50.912,Unsyncopated_study2,s85,20.0,feminino,right,España,Catalán y Castellano,Upper secondary,no,no,A,2,conjunction_un,L2,unsyncopated,s1,r2,25,Online_conjL2_un//b.fe.ra29.0.888.wav,fe,ba,si,sil,ra,bi,cha,sil1,mi,ñu,sil2,['catch'],[1.1851000000237946],[1.1851000000237946],0.0,beat,1.1851000000237946,1.1851000000237946,"[""space""]",fe,1,,,,,,,,,,,,,,,4.0,3.0,Catalán,0.0,Castellano,0.0,Inglés,3.0,Alemán,12.0,5.0,3.0,no,no,no,nada,,,,"En general ha ido bien, pero si que es cierto que estaba muy cansada i en algun momentito me he desconcentrado. ",66.0,yes
154,2023-12-18_15h33.50.912,Unsyncopated_study2,s85,20.0,feminino,right,España,Catalán y Castellano,Upper secondary,no,no,A,2,conjunction_un,L2,unsyncopated,s2,r1,26,Online_conjL2_un//b.fe.ra28.none.none.wav,me,cha,mi,sil,go,si,ñi,sil1,du,to,sil2,['-'],,,none,none,,,,fe,1,,,,,,,,,,,,,,,4.0,3.0,Catalán,0.0,Castellano,0.0,Inglés,3.0,Alemán,12.0,5.0,3.0,no,no,no,nada,,,,"En general ha ido bien, pero si que es cierto que estaba muy cansada i en algun momentito me he desconcentrado. ",66.0,yes
155,2023-12-18_15h33.50.912,Unsyncopated_study2,s85,20.0,feminino,right,España,Catalán y Castellano,Upper secondary,no,no,A,2,conjunction_un,L2,unsyncopated,s2,r2,27,Online_conjL2_un//b.fe.ra31.888.1776.wav,ñu,to,me,sil,fe,cha,mi,sil1,ra,ba,sil2,['catch'],[1.4739999999999327],[1.4739999999999327],0.888,beat,0.5859999999999327,0.5859999999999327,"[""space""]",fe,1,,,,,,,,,,,,,,,4.0,3.0,Catalán,0.0,Castellano,0.0,Inglés,3.0,Alemán,12.0,5.0,3.0,no,no,no,nada,,,,"En general ha ido bien, pero si que es cierto que estaba muy cansada i en algun momentito me he desconcentrado. ",66.0,yes
156,2023-12-18_15h33.50.912,Unsyncopated_study2,s85,20.0,feminino,right,España,Catalán y Castellano,Upper secondary,no,no,A,2,conjunction_un,L2,unsyncopated,s1,r2,28,Online_conjL2_un//c.cha.me8.444.1332.wav,fe,bi,cha,sil,ra,ñi,me,sil1,te,si,sil2,['miss'],,,0.444,no_beat,,,,cha,3,,,,,,,,,,,,,,,4.0,3.0,Catalán,0.0,Castellano,0.0,Inglés,3.0,Alemán,12.0,5.0,3.0,no,no,no,nada,,,,"En general ha ido bien, pero si que es cierto que estaba muy cansada i en algun momentito me he desconcentrado. ",66.0,yes
157,2023-12-18_15h33.50.912,Unsyncopated_study2,s85,20.0,feminino,right,España,Catalán y Castellano,Upper secondary,no,no,A,2,conjunction_un,L2,unsyncopated,s1,r1,29,Online_conjL2_un//c.cha.me11.none.none.wav,go,su,ñu,sil,du,ñi,mi,sil1,ba,to,sil2,['-'],,,none,none,,,,cha,3,,,,,,,,,,,,,,,4.0,3.0,Catalán,0.0,Castellano,0.0,Inglés,3.0,Alemán,12.0,5.0,3.0,no,no,no,nada,,,,"En general ha ido bien, pero si que es cierto que estaba muy cansada i en algun momentito me he desconcentrado. ",66.0,yes
158,2023-12-18_15h33.50.912,Unsyncopated_study2,s85,20.0,feminino,right,España,Catalán y Castellano,Upper secondary,no,no,A,2,conjunction_un,L2,unsyncopated,s1,r1,30,Online_conjL2_un//c.cha.me9.none.none.wav,go,to,ñi,sil,du,mi,ñu,sil1,bi,su,sil2,['-'],,,none,none,,,,cha,3,,,,,,,,,,,,,,,4.0,3.0,Catalán,0.0,Castellano,0.0,Inglés,3.0,Alemán,12.0,5.0,3.0,no,no,no,nada,,,,"En general ha ido bien, pero si que es cierto que estaba muy cansada i en algun momentito me he desconcentrado. ",66.0,yes
159,2023-12-18_15h33.50.912,Unsyncopated_study2,s85,20.0,feminino,right,España,Catalán y Castellano,Upper secondary,no,no,A,2,conjunction_un,L2,unsyncopated,s2,r2,31,Online_conjL2_un//c.cha.me10.0.222.wav,cha,me,mi,sil,fe,su,si,sil1,ra,ba,sil2,['catch'],[0.48389999997630184],[0.48389999997630184],0.0,beat,0.4838999999763018,0.4838999999763018,"[""space""]",cha,3,,,,,,,,,,,,,,,4.0,3.0,Catalán,0.0,Castellano,0.0,Inglés,3.0,Alemán,12.0,5.0,3.0,no,no,no,nada,,,,"En general ha ido bien, pero si que es cierto que estaba muy cansada i en algun momentito me he desconcentrado. ",66.0,yes
160,2023-12-18_15h33.50.912,Unsyncopated_study2,s85,20.0,feminino,right,España,Catalán y Castellano,Upper secondary,no,no,A,2,conjunction_un,L2,unsyncopated,s1,r2,32,Online_conjL2_un//a.go.du17.none.none.wav,fe,mi,su,sil,ra,me,bi,sil1,te,si,sil2,['-'],,,none,none,,,,du,2,,,,,,,,,,,,,,,4.0,3.0,Catalán,0.0,Castellano,0.0,Inglés,3.0,Alemán,12.0,5.0,3.0,no,no,no,nada,,,,"En general ha ido bien, pero si que es cierto que estaba muy cansada i en algun momentito me he desconcentrado. ",66.0,yes
161,2023-12-18_15h33.50.912,Unsyncopated_study2,s85,20.0,feminino,right,España,Catalán y Castellano,Upper secondary,no,no,A,2,conjunction_un,L2,unsyncopated,s1,r1,33,Online_conjL2_un//a.go.du18.0.888.wav,go,me,si,sil,du,ñi,ba,sil1,su,to,sil2,['catch'],[1.5790999999642281],[1.5790999999642281],0.888,beat,0.6910999999642281,0.6910999999642281,"[""space""]",du,2,,,,,,,,,,,,,,,4.0,3.0,Catalán,0.0,Castellano,0.0,Inglés,3.0,Alemán,12.0,5.0,3.0,no,no,no,nada,,,,"En general ha ido bien, pero si que es cierto que estaba muy cansada i en algun momentito me he desconcentrado. ",66.0,yes
162,2023-12-18_15h33.50.912,Unsyncopated_study2,s85,20.0,feminino,right,España,Catalán y Castellano,Upper secondary,no,no,A,2,conjunction_un,L2,unsyncopated,s1,r1,34,Online_conjL2_un//a.go.du19.0.888.wav,go,ba,si,sil,du,su,mi,sil1,ñi,cha,sil2,['miss'],,,0.888,beat,,,,du,2,,,,,,,,,,,,,,,4.0,3.0,Catalán,0.0,Castellano,0.0,Inglés,3.0,Alemán,12.0,5.0,3.0,no,no,no,nada,,,,"En general ha ido bien, pero si que es cierto que estaba muy cansada i en algun momentito me he desconcentrado. ",66.0,yes
163,2023-12-18_15h33.50.912,Unsyncopated_study2,s85,20.0,feminino,right,España,Catalán y Castellano,Upper secondary,no,no,A,2,conjunction_un,L2,unsyncopated,s2,r1,35,Online_conjL2_un//a.go.du16.888.1776.wav,cha,me,ba,sil,go,to,si,sil1,du,ñi,sil2,['catch_delay'],[1.056100000023742],[1.056100000023742],1.776,beat,1.056100000023742,1.056100000023742,,du,2,,,,,,,,,,,,,,,4.0,3.0,Catalán,0.0,Castellano,0.0,Inglés,3.0,Alemán,12.0,5.0,3.0,no,no,no,nada,,,,"En general ha ido bien, pero si que es cierto que estaba muy cansada i en algun momentito me he desconcentrado. ",66.0,yes
164,2023-12-18_15h33.50.912,Unsyncopated_study2,s85,20.0,feminino,right,España,Catalán y Castellano,Upper secondary,no,no,A,2,conjunction_un,L2,unsyncopated,s1,r1,36,Online_conjL2_un//b.fe.ra22.none.none.wav,go,te,to,sil,du,me,ñu,sil1,ñi,si,sil2,['-'],[0.1681000000237418],[0.1681000000237418],none,none,,,"[""space""]",fe,1,,,,,,,,,,,,,,,4.0,3.0,Catalán,0.0,Castellano,0.0,Inglés,3.0,Alemán,12.0,5.0,3.0,no,no,no,nada,,,,"En general ha ido bien, pero si que es cierto que estaba muy cansada i en algun momentito me he desconcentrado. ",66.0,yes
165,2023-12-18_15h33.50.912,Unsyncopated_study2,s85,20.0,feminino,right,España,Catalán y Castellano,Upper secondary,no,no,A,2,conjunction_un,L2,unsyncopated,s2,r1,37,Online_conjL2_un//b.fe.ra23.none.none.wav,ñu,ba,mi,sil,go,to,ñi,sil1,du,bi,sil2,['-'],,,none,none,,,,fe,1,,,,,,,,,,,,,,,4.0,3.0,Catalán,0.0,Castellano,0.0,Inglés,3.0,Alemán,12.0,5.0,3.0,no,no,no,nada,,,,"En general ha ido bien, pero si que es cierto que estaba muy cansada i en algun momentito me he desconcentrado. ",66.0,yes
166,2023-12-18_15h33.50.912,Unsyncopated_study2,s85,20.0,feminino,right,España,Catalán y Castellano,Upper secondary,no,no,A,2,conjunction_un,L2,unsyncopated,s2,r2,38,Online_conjL2_un//b.fe.ra20.888.1776.wav,bi,ñi,me,sil,fe,cha,si,sil1,ra,su,sil2,['catch'],[1.7324999999998454],[1.7324999999998454],0.888,beat,0.8444999999998454,0.8444999999998454,"[""space""]",fe,1,,,,,,,,,,,,,,,4.0,3.0,Catalán,0.0,Castellano,0.0,Inglés,3.0,Alemán,12.0,5.0,3.0,no,no,no,nada,,,,"En general ha ido bien, pero si que es cierto que estaba muy cansada i en algun momentito me he desconcentrado. ",66.0,yes
167,2023-12-18_15h33.50.912,Unsyncopated_study2,s85,20.0,feminino,right,España,Catalán y Castellano,Upper secondary,no,no,A,2,conjunction_un,L2,unsyncopated,s2,r1,39,Online_conjL2_un//b.fe.ra21.none.none.wav,bi,ba,to,sil,go,te,si,sil1,du,me,sil2,['-'],,,none,none,,,,fe,1,,,,,,,,,,,,,,,4.0,3.0,Catalán,0.0,Castellano,0.0,Inglés,3.0,Alemán,12.0,5.0,3.0,no,no,no,nada,,,,"En general ha ido bien, pero si que es cierto que estaba muy cansada i en algun momentito me he desconcentrado. ",66.0,yes
168,2023-12-18_15h33.50.912,Unsyncopated_study2,s85,20.0,feminino,right,España,Catalán y Castellano,Upper secondary,no,no,A,2,conjunction_un,L2,unsyncopated,s2,r1,40,Online_conjL2_un//b.fe.ra27.none.none.wav,mi,si,me,sil,go,ñu,to,sil1,du,te,sil2,['-'],,,none,none,,,,fe,1,,,,,,,,,,,,,,,4.0,3.0,Catalán,0.0,Castellano,0.0,Inglés,3.0,Alemán,12.0,5.0,3.0,no,no,no,nada,,,,"En general ha ido bien, pero si que es cierto que estaba muy cansada i en algun momentito me he desconcentrado. ",66.0,yes
169,2023-12-18_15h33.50.912,Unsyncopated_study2,s85,20.0,feminino,right,España,Catalán y Castellano,Upper secondary,no,no,A,2,conjunction_un,L2,unsyncopated,s1,r1,41,Online_conjL2_un//b.fe.ra24.none.none.wav,go,su,bi,sil,du,me,ñi,sil1,mi,cha,sil2,['-'],,,none,none,,,,fe,1,,,,,,,,,,,,,,,4.0,3.0,Catalán,0.0,Castellano,0.0,Inglés,3.0,Alemán,12.0,5.0,3.0,no,no,no,nada,,,,"En general ha ido bien, pero si que es cierto que estaba muy cansada i en algun momentito me he desconcentrado. ",66.0,yes
170,2023-12-18_15h33.50.912,Unsyncopated_study2,s85,20.0,feminino,right,España,Catalán y Castellano,Upper secondary,no,no,A,2,conjunction_un,L2,unsyncopated,s2,r2,42,Online_conjL2_un//b.fe.ra25.888.1776.wav,me,bi,si,sil,fe,su,te,sil1,ra,cha,sil2,['catch'],[1.4165000000000418],[1.4165000000000418],0.888,beat,0.5285000000000418,0.5285000000000418,"[""space""]",fe,1,,,,,,,,,,,,,,,4.0,3.0,Catalán,0.0,Castellano,0.0,Inglés,3.0,Alemán,12.0,5.0,3.0,no,no,no,nada,,,,"En general ha ido bien, pero si que es cierto que estaba muy cansada i en algun momentito me he desconcentrado. ",66.0,yes
