Unnamed: 0,date,expName,participant,age,sex,hand,residence,native_lang,education_level,lang_deficit,aud_deficit,group,block,condition,language,rhythm,rule structure online,rule type online,order_trial_on,trial_online,s1,s2,s3,s4,s5,s6,s7,s8,s9,s10,s11,catch_syll_resp,rts_syll_catch,clean_rts,time_syll,beat_no_beat,catch_rtsTR,catch_rts,syllable_catch.keys,cond_syll,syll_to_catch,test_offline,block_off,condition_off,rhythm_off,rule,rule_str_off,rule_norule,conds_offline,language_off,Partz_no_partm.keys,Partz_no_partm.rt,security_1_7.keys,accuracy,security_1_7.rt,n_lang,n_lang_used,lang_1,age_l1,lang_2,age_l2,lang_3,age_l3,lang_4,age_l4,ability_learn_l2,tendence_mix_lan,music_experience,muisc_use,partiture,instr_1,age_M1,preguntas_musica1,BMRQ_answer.response,final comment,BMRQ_Score,bilingual
0,2024-02-12_15h09.35.233,Unsyncopated_study2,s104,23.0,masculino,right,España,Castellano,Master degree,no,no,B,1,conjunction_syn,L1,syncopated,s1,r1,0,Online_conjL1_syn//c.ro.fo9.1554.1110.wav,pu,ni,lu,ki,sil,fo,fa,ro,sil1,ne,sil2,['miss'],,,1.11,no_beat,,,,72:76,3,testConjL1Syn//r1.s2.0.wav,1.0,conjunction_syn,syncopated,a,s2,rule,rule,L1,z,3.9008,5.0,1.0,11.914,4.0,2.0,Castellano,0.0,Inglés,6.0,Francés,6.0,Valenciano,22.0,4.0,4.0,no,no,no,Nada,,1. Cuando comparto música con alguien siento una complicidad especial con aquella persona.,4.0,Nada,72.0,yes
1,2024-02-12_15h09.35.233,Unsyncopated_study2,s104,23.0,masculino,right,España,Castellano,Master degree,no,no,B,1,conjunction_syn,L1,syncopated,s1,r2,1,Online_conjL1_syn//c.ro.fo8.444.1332.wav,ta,lu,ro,be,sil,ni,fo,zu,sil1,fa,sil2,['miss'],,,1.332,no_beat,,,,72:76,3,testConjL1Syn//time_viol.r1.s2.0.wav,1.0,conjunction_syn,syncopated,a,s2,no_rule,time,L1,z,5.3675,4.0,0.0,2.968,4.0,2.0,Castellano,0.0,Inglés,6.0,Francés,6.0,Valenciano,22.0,4.0,4.0,no,no,no,Nada,,2. En mi tiempo libre apenas escucho música.,5.0,Nada,72.0,yes
2,2024-02-12_15h09.35.233,Unsyncopated_study2,s104,23.0,masculino,right,España,Castellano,Master degree,no,no,B,1,conjunction_syn,L1,syncopated,s2,r2,2,Online_conjL1_syn//c.ro.fo10.222.444.wav,zu,ro,fo,ta,sil,ni,cho,be,sil1,ze,sil2,['miss'],,,0.444,no_beat,,,,72:76,3,testConjL1Syn//cat_viol.r2.s2.0.wav,1.0,conjunction_syn,syncopated,b,s2,no_rule,cat,L1,m,1.4698,5.0,1.0,2.8849,4.0,2.0,Castellano,0.0,Inglés,6.0,Francés,6.0,Valenciano,22.0,4.0,4.0,no,no,no,Nada,,3. Algunas canciones me ponen los pelos de punta,4.0,Nada,72.0,yes
3,2024-02-12_15h09.35.233,Unsyncopated_study2,s104,23.0,masculino,right,España,Castellano,Master degree,no,no,B,1,conjunction_syn,L1,syncopated,s2,r1,3,Online_conjL1_syn//c.ro.fo11.none.none.wav,ze,zu,ni,pu,sil,la,cho,ki,sil1,ne,sil2,['-'],,,none,none,,,,72:76,3,testConjL1Syn//r2.s1.2.wav,1.0,conjunction_syn,syncopated,b,s1,rule,rule,L1,z,1.9012,5.0,1.0,3.1844,4.0,2.0,Castellano,0.0,Inglés,6.0,Francés,6.0,Valenciano,22.0,4.0,4.0,no,no,no,Nada,,4. La música me hace compañía cuando estoy solo,4.0,Nada,72.0,yes
4,2024-02-12_15h09.35.233,Unsyncopated_study2,s104,23.0,masculino,right,España,Castellano,Master degree,no,no,B,1,conjunction_syn,L1,syncopated,s1,r2,4,Online_conjL1_syn//b.ta.be8.0.666.wav,ta,la,zu,be,sil,ro,cho,ze,sil1,lu,sil2,['miss'],,,0.666,no_beat,,,,40:44,2,testConjL1Syn//r1.s1.0.wav,1.0,conjunction_syn,syncopated,a,s1,rule,rule,L1,m,0.9173,6.0,0.0,1.9676,4.0,2.0,Castellano,0.0,Inglés,6.0,Francés,6.0,Valenciano,22.0,4.0,4.0,no,no,no,Nada,,5. No me apetece bailar ni con la música que más me gusta,5.0,Nada,72.0,yes
5,2024-02-12_15h09.35.233,Unsyncopated_study2,s104,23.0,masculino,right,España,Castellano,Master degree,no,no,B,1,conjunction_syn,L1,syncopated,s2,r2,5,Online_conjL1_syn//b.ta.be9.666.1554.wav,la,lu,ne,ta,sil,ze,fo,be,sil1,zu,sil2,['catch'],[1.9325000000000045],[1.9325000000000045],1.554,no_beat,0.3785000000000045,0.3785000000000045,"[""space""]",40:44,2,testConjL1Syn//r2.s2.2.wav,1.0,conjunction_syn,syncopated,b,s2,rule,rule,L1,m,10.4832,4.0,0.0,3.9177,4.0,2.0,Castellano,0.0,Inglés,6.0,Francés,6.0,Valenciano,22.0,4.0,4.0,no,no,no,Nada,,6. La música me hace conectar con la gente,4.0,Nada,72.0,yes
6,2024-02-12_15h09.35.233,Unsyncopated_study2,s104,23.0,masculino,right,España,Castellano,Master degree,no,no,B,1,conjunction_syn,L1,syncopated,s1,r2,6,Online_conjL1_syn//b.ta.be11.0.666.wav,ta,zu,lu,be,sil,ni,ro,cho,sil1,fo,sil2,['miss'],,,0.666,no_beat,,,,40:44,2,testConjL1Syn//r1.s2.1.wav,1.0,conjunction_syn,syncopated,a,s2,rule,rule,L1,m,2.864,6.0,0.0,1.8532,4.0,2.0,Castellano,0.0,Inglés,6.0,Francés,6.0,Valenciano,22.0,4.0,4.0,no,no,no,Nada,,7. Me informo sobre la música que me gusta.,3.0,Nada,72.0,yes
7,2024-02-12_15h09.35.233,Unsyncopated_study2,s104,23.0,masculino,right,España,Castellano,Master degree,no,no,B,1,conjunction_syn,L1,syncopated,s1,r2,7,Online_conjL1_syn//b.ta.be10.0.666.wav,ta,cho,ri,be,sil,ni,zu,ze,sil1,ne,sil2,['catch'],[1.3651000001431157],[1.3651000001431157],0.666,no_beat,0.6991000001431157,0.6991000001431157,"[""space""]",40:44,2,testConjL1Syn//time_viol.r2.s1.0.wav,1.0,conjunction_syn,syncopated,b,s1,no_rule,time,L1,m,0.6121,7.0,1.0,1.4252,4.0,2.0,Castellano,0.0,Inglés,6.0,Francés,6.0,Valenciano,22.0,4.0,4.0,no,no,no,Nada,,8.Me emociono escuchando ciertas canciones.,4.0,Nada,72.0,yes
8,2024-02-12_15h09.35.233,Unsyncopated_study2,s104,23.0,masculino,right,España,Castellano,Master degree,no,no,B,1,conjunction_syn,L1,syncopated,s1,r1,8,Online_conjL1_syn//b.ta.be29.none.none.wav,pu,ro,fa,ki,sil,zu,ni,la,sil1,ze,sil2,['-'],,,none,none,,,,60:64,2,testConjL1Syn//cat_viol.r1.s2.0.wav,1.0,conjunction_syn,syncopated,a,s2,no_rule,cat,L1,z,3.1681,5.0,0.0,0.5435,4.0,2.0,Castellano,0.0,Inglés,6.0,Francés,6.0,Valenciano,22.0,4.0,4.0,no,no,no,Nada,,9.La música me tranquiliza y me relaja.,4.0,Nada,72.0,yes
9,2024-02-12_15h09.35.233,Unsyncopated_study2,s104,23.0,masculino,right,España,Castellano,Master degree,no,no,B,1,conjunction_syn,L1,syncopated,s1,r2,9,Online_conjL1_syn//b.ta.be31.0.666.wav,ta,fo,cho,be,sil,lu,ri,zu,sil1,la,sil2,['catch'],[1.5662000000477292],[1.5662000000477292],0.666,no_beat,0.9002000000477292,0.9002000000477292,"[""space""]",60:64,2,testConjL1Syn//r1.s1.1.wav,1.0,conjunction_syn,syncopated,a,s1,rule,rule,L1,m,0.6031,7.0,0.0,1.2945,4.0,2.0,Castellano,0.0,Inglés,6.0,Francés,6.0,Valenciano,22.0,4.0,4.0,no,no,no,Nada,,10.La música me hace bailar,4.0,Nada,72.0,yes
10,2024-02-12_15h09.35.233,Unsyncopated_study2,s104,23.0,masculino,right,España,Castellano,Master degree,no,no,B,1,conjunction_syn,L1,syncopated,s2,r1,10,Online_conjL1_syn//b.ta.be30.none.none.wav,la,fo,fa,pu,sil,ro,ri,ki,sil1,ze,sil2,['-'],,,none,none,,,,60:64,2,testConjL1Syn//dep_viol.r2.s2.0.wav,1.0,conjunction_syn,syncopated,b,s2,no_rule,dep,L1,m,2.0686,6.0,1.0,2.9336,4.0,2.0,Castellano,0.0,Inglés,6.0,Francés,6.0,Valenciano,22.0,4.0,4.0,no,no,no,Nada,,11.Busco novedades musicales continuamente,3.0,Nada,72.0,yes
11,2024-02-12_15h09.35.233,Unsyncopated_study2,s104,23.0,masculino,right,España,Castellano,Master degree,no,no,B,1,conjunction_syn,L1,syncopated,s1,r2,11,Online_conjL1_syn//b.ta.be28.0.666.wav,ta,fa,la,be,sil,zu,fo,ze,sil1,ro,sil2,['catch'],[1.0823000001906848],[1.0823000001906848],0.666,no_beat,0.4163000001906848,0.4163000001906848,"[""space""]",60:64,2,testConjL1Syn//cat_viol.r1.s1.0.wav,1.0,conjunction_syn,syncopated,a,s1,no_rule,cat,L1,m,0.9709,6.0,1.0,0.8273,4.0,2.0,Castellano,0.0,Inglés,6.0,Francés,6.0,Valenciano,22.0,4.0,4.0,no,no,no,Nada,,12. Puedo llorar cuando escucho algunas melodías que me gustan mucho.,4.0,Nada,72.0,yes
12,2024-02-12_15h09.35.233,Unsyncopated_study2,s104,23.0,masculino,right,España,Castellano,Master degree,no,no,B,1,conjunction_syn,L1,syncopated,s2,r2,12,Online_conjL1_syn//b.ta.be16.666.1554.wav,ro,ne,lu,ta,sil,la,ri,be,sil1,fo,sil2,['miss'],,,1.554,no_beat,,,,48:52,2,testConjL1Syn//dep_viol.r1.s2.0.wav,1.0,conjunction_syn,syncopated,a,s2,no_rule,dep,L1,m,1.0167,6.0,1.0,0.7711,4.0,2.0,Castellano,0.0,Inglés,6.0,Francés,6.0,Valenciano,22.0,4.0,4.0,no,no,no,Nada,,13. Me gusta cantar o tocar un instrumento con más gente,2.0,Nada,72.0,yes
13,2024-02-12_15h09.35.233,Unsyncopated_study2,s104,23.0,masculino,right,España,Castellano,Master degree,no,no,B,1,conjunction_syn,L1,syncopated,s2,r2,13,Online_conjL1_syn//b.ta.be19.666.1554.wav,fa,la,ni,ta,sil,cho,ne,be,sil1,ri,sil2,['catch'],[2.248299999952337],[2.248299999952337],1.554,no_beat,0.6942999999523372,0.6942999999523372,"[""space""]",48:52,2,testConjL1Syn//dep_viol.r2.s1.0.wav,1.0,conjunction_syn,syncopated,b,s1,no_rule,dep,L1,m,6.7569,5.0,1.0,0.5443,4.0,2.0,Castellano,0.0,Inglés,6.0,Francés,6.0,Valenciano,22.0,4.0,4.0,no,no,no,Nada,,14. La música me ayuda a desconectar.,4.0,Nada,72.0,yes
14,2024-02-12_15h09.35.233,Unsyncopated_study2,s104,23.0,masculino,right,España,Castellano,Master degree,no,no,B,1,conjunction_syn,L1,syncopated,s1,r1,14,Online_conjL1_syn//b.ta.be18.none.none.wav,pu,ni,zu,ki,sil,ne,la,ze,sil1,cho,sil2,['-'],,,none,none,,,,48:52,2,testConjL1Syn//time_viol.r2.s2.0.wav,1.0,conjunction_syn,syncopated,b,s2,no_rule,time,L1,z,2.5676,5.0,0.0,0.8375,4.0,2.0,Castellano,0.0,Inglés,6.0,Francés,6.0,Valenciano,22.0,4.0,4.0,no,no,no,Nada,,15. No puedo evitar tararear las canciones que me gustan cuando las escucho.,3.0,Nada,72.0,yes
15,2024-02-12_15h09.35.233,Unsyncopated_study2,s104,23.0,masculino,right,España,Castellano,Master degree,no,no,B,1,conjunction_syn,L1,syncopated,s2,r1,15,Online_conjL1_syn//b.ta.be17.none.none.wav,zu,lu,ze,pu,sil,la,cho,ki,sil1,fa,sil2,['-'],,,none,none,,,,48:52,2,testConjL1Syn//r2.s1.0.wav,1.0,conjunction_syn,syncopated,b,s1,rule,rule,L1,z,2.1267,5.0,1.0,2.4503,4.0,2.0,Castellano,0.0,Inglés,6.0,Francés,6.0,Valenciano,22.0,4.0,4.0,no,no,no,Nada,,16. En los conciertos me siento en sintonía con los artistas y el público.,3.0,Nada,72.0,yes
16,2024-02-12_15h09.35.233,Unsyncopated_study2,s104,23.0,masculino,right,España,Castellano,Master degree,no,no,B,1,conjunction_syn,L1,syncopated,s2,r2,16,Online_conjL1_syn//b.ta.be0.666.1554.wav,cho,fa,fo,ta,sil,zu,la,be,sil1,ne,sil2,['catch'],[1.9601999998093333],[1.9601999998093333],1.554,no_beat,0.4061999998093333,0.4061999998093333,"[""space""]",32:36,2,testConjL1Syn//r2.s1.1.wav,1.0,conjunction_syn,syncopated,b,s1,rule,rule,L1,z,0.8395,7.0,1.0,1.5183,4.0,2.0,Castellano,0.0,Inglés,6.0,Francés,6.0,Valenciano,22.0,4.0,4.0,no,no,no,Nada,,17. Me gasto bastante dinero en música y cosas relacionadas con la música.,1.0,Nada,72.0,yes
17,2024-02-12_15h09.35.233,Unsyncopated_study2,s104,23.0,masculino,right,España,Castellano,Master degree,no,no,B,1,conjunction_syn,L1,syncopated,s2,r2,17,Online_conjL1_syn//b.ta.be3.666.1554.wav,lu,ro,zu,ta,sil,ne,fo,be,sil1,ni,sil2,['miss'],,,1.554,no_beat,,,,32:36,2,testConjL1Syn//r2.s2.1.wav,1.0,conjunction_syn,syncopated,b,s2,rule,rule,L1,z,0.301,7.0,1.0,0.5393,4.0,2.0,Castellano,0.0,Inglés,6.0,Francés,6.0,Valenciano,22.0,4.0,4.0,no,no,no,Nada,,18. Siento escalofríos cuando escucho una melodía que me gusta.,4.0,Nada,72.0,yes
18,2024-02-12_15h09.35.233,Unsyncopated_study2,s104,23.0,masculino,right,España,Castellano,Master degree,no,no,B,1,conjunction_syn,L1,syncopated,s2,r2,18,Online_conjL1_syn//b.ta.be1.666.1554.wav,ni,la,lu,ta,sil,cho,ro,be,sil1,ne,sil2,['catch'],[2.199000000000069],[2.199000000000069],1.554,no_beat,0.6450000000000691,0.6450000000000691,"[""space""]",32:36,2,testConjL1Syn//time_viol.r1.s1.0.wav,1.0,conjunction_syn,syncopated,a,s1,no_rule,time,L1,m,0.6676,4.0,1.0,1.334,4.0,2.0,Castellano,0.0,Inglés,6.0,Francés,6.0,Valenciano,22.0,4.0,4.0,no,no,no,Nada,,19. Con la música me puedo desahogar.,4.0,Nada,72.0,yes
19,2024-02-12_15h09.35.233,Unsyncopated_study2,s104,23.0,masculino,right,España,Castellano,Master degree,no,no,B,1,conjunction_syn,L1,syncopated,s2,r1,19,Online_conjL1_syn//b.ta.be2.none.none.wav,ri,ne,fo,pu,sil,zu,la,ki,sil1,lu,sil2,['-'],,,none,none,,,,32:36,2,testConjL1Syn//cat_viol.r2.s1.0.wav,1.0,conjunction_syn,syncopated,b,s1,no_rule,cat,L1,z,0.9177,7.0,0.0,1.5053,4.0,2.0,Castellano,0.0,Inglés,6.0,Francés,6.0,Valenciano,22.0,4.0,4.0,no,no,no,Nada,,20. Cuando escucho una melodía que me gusta mucho no puedo evitar mover el cuerpo.,3.0,Nada,72.0,yes
20,2024-02-12_15h09.35.233,Unsyncopated_study2,s104,23.0,masculino,right,España,Castellano,Master degree,no,no,B,1,conjunction_syn,L1,syncopated,s2,r1,20,Online_conjL1_syn//d.ne.ni26.none.none.wav,ze,zu,fa,pu,sil,cho,lu,ki,sil1,fo,sil2,['-'],,,none,none,,,,120:124,4,testConjL1Syn//r1.s2.2.wav,1.0,conjunction_syn,syncopated,a,s2,rule,rule,L1,z,0.7057,7.0,1.0,0.5519,4.0,2.0,Castellano,0.0,Inglés,6.0,Francés,6.0,Valenciano,22.0,4.0,4.0,no,no,no,Nada,,,,Nada,72.0,yes
21,2024-02-12_15h09.35.233,Unsyncopated_study2,s104,23.0,masculino,right,España,Castellano,Master degree,no,no,B,1,conjunction_syn,L1,syncopated,s1,r2,21,Online_conjL1_syn//d.ne.ni25.222.1110.wav,ta,ne,ze,be,sil,ni,cho,la,sil1,lu,sil2,['false alarm'],[0.6823999998568979],[0.6823999998568979],1.11,no_beat,,,"[""space""]",120:124,4,testConjL1Syn//r2.s2.0.wav,1.0,conjunction_syn,syncopated,b,s2,rule,rule,L1,m,2.0073,5.0,0.0,1.7504,4.0,2.0,Castellano,0.0,Inglés,6.0,Francés,6.0,Valenciano,22.0,4.0,4.0,no,no,no,Nada,,,,Nada,72.0,yes
22,2024-02-12_15h09.35.233,Unsyncopated_study2,s104,23.0,masculino,right,España,Castellano,Master degree,no,no,B,1,conjunction_syn,L1,syncopated,s2,r2,22,Online_conjL1_syn//d.ne.ni24.none.none.wav,lu,ro,la,ta,sil,fa,fo,be,sil1,zu,sil2,['-'],,,none,none,,,,120:124,4,testConjL1Syn//dep_viol.r1.s1.0.wav,1.0,conjunction_syn,syncopated,a,s1,no_rule,dep,L1,m,6.7688,3.0,1.0,3.934,4.0,2.0,Castellano,0.0,Inglés,6.0,Francés,6.0,Valenciano,22.0,4.0,4.0,no,no,no,Nada,,,,Nada,72.0,yes
23,2024-02-12_15h09.35.233,Unsyncopated_study2,s104,23.0,masculino,right,España,Castellano,Master degree,no,no,B,1,conjunction_syn,L1,syncopated,s1,r2,23,Online_conjL1_syn//d.ne.ni27.none.none.wav,ta,la,fo,be,sil,zu,cho,ze,sil1,ri,sil2,['-'],,,none,none,,,,120:124,4,testConjL1Syn//r1.s1.2.wav,1.0,conjunction_syn,syncopated,a,s1,rule,rule,L1,z,0.6334,6.0,1.0,0.8202,4.0,2.0,Castellano,0.0,Inglés,6.0,Francés,6.0,Valenciano,22.0,4.0,4.0,no,no,no,Nada,,,,Nada,72.0,yes
24,2024-02-12_15h09.35.233,Unsyncopated_study2,s104,23.0,masculino,right,España,Castellano,Master degree,no,no,B,1,conjunction_syn,L1,syncopated,s1,r2,24,Online_conjL1_syn//d.ne.ni6.444.1110.wav,ta,zu,ne,be,sil,ni,ze,la,sil1,fa,sil2,['catch'],[1.628200000047741],[1.628200000047741],1.11,no_beat,0.5182000000477409,0.5182000000477409,"[""space""]",100:104,4,testWhenL4Uns//r2.s1.2.wav,2.0,when,unsyncopated,b,s1,rule,rule,L4,z,0.9368,6.0,1.0,1.5292,4.0,2.0,Castellano,0.0,Inglés,6.0,Francés,6.0,Valenciano,22.0,4.0,4.0,no,no,no,Nada,,,,Nada,72.0,yes
25,2024-02-12_15h09.35.233,Unsyncopated_study2,s104,23.0,masculino,right,España,Castellano,Master degree,no,no,B,1,conjunction_syn,L1,syncopated,s2,r1,25,Online_conjL1_syn//d.ne.ni5.none.none.wav,zu,ri,ze,pu,sil,cho,fa,ki,sil1,la,sil2,['-'],,,none,none,,,,100:104,4,testWhenL4Uns//r1.s2.0.wav,2.0,when,unsyncopated,a,s2,rule,rule,L4,m,0.6739,6.0,0.0,0.6178,4.0,2.0,Castellano,0.0,Inglés,6.0,Francés,6.0,Valenciano,22.0,4.0,4.0,no,no,no,Nada,,,,Nada,72.0,yes
26,2024-02-12_15h09.35.233,Unsyncopated_study2,s104,23.0,masculino,right,España,Castellano,Master degree,no,no,B,1,conjunction_syn,L1,syncopated,s1,r1,26,Online_conjL1_syn//d.ne.ni7.444.1110.wav,pu,lu,ne,ki,sil,ni,ri,ze,sil1,zu,sil2,['catch'],[1.115299999952299],[1.115299999952299],1.11,no_beat,0.0052999999522989,0.0052999999522989,"[""space""]",100:104,4,testWhenL4Uns//r1.s1.1.wav,2.0,when,unsyncopated,a,s1,rule,rule,L4,m,2.7747,4.0,0.0,0.8688,4.0,2.0,Castellano,0.0,Inglés,6.0,Francés,6.0,Valenciano,22.0,4.0,4.0,no,no,no,Nada,,,,Nada,72.0,yes
27,2024-02-12_15h09.35.233,Unsyncopated_study2,s104,23.0,masculino,right,España,Castellano,Master degree,no,no,B,1,conjunction_syn,L1,syncopated,s1,r1,27,Online_conjL1_syn//d.ne.ni4.222.1332.wav,pu,ne,cho,ki,sil,ri,ni,ro,sil1,zu,sil2,['catch'],[1.5491000001430848],[1.5491000001430848],1.332,no_beat,0.2171000001430847,0.2171000001430847,"[""space""]",100:104,4,testWhenL4Uns//dep_viol.r2.s2.0.wav,2.0,when,unsyncopated,b,s2,no_rule,dep,L4,z,0.6509,5.0,1.0,0.8899,4.0,2.0,Castellano,0.0,Inglés,6.0,Francés,6.0,Valenciano,22.0,4.0,4.0,no,no,no,Nada,,,,Nada,72.0,yes
28,2024-02-12_15h09.35.233,Unsyncopated_study2,s104,23.0,masculino,right,España,Castellano,Master degree,no,no,B,1,conjunction_syn,L1,syncopated,s2,r1,28,Online_conjL1_syn//d.ne.ni8.222.444.wav,fo,ne,ni,pu,sil,ri,ze,ki,sil1,ro,sil2,['catch'],[2.071099999904618],[2.071099999904618],0.444,no_beat,,1.627099999904618,"[""space""]",104:108,4,testWhenL4Uns//cat_viol.r1.s1.0.wav,2.0,when,unsyncopated,a,s1,no_rule,cat,L4,m,0.752,6.0,0.0,1.235,4.0,2.0,Castellano,0.0,Inglés,6.0,Francés,6.0,Valenciano,22.0,4.0,4.0,no,no,no,Nada,,,,Nada,72.0,yes
29,2024-02-12_15h09.35.233,Unsyncopated_study2,s104,23.0,masculino,right,España,Castellano,Master degree,no,no,B,1,conjunction_syn,L1,syncopated,s2,r2,29,Online_conjL1_syn//d.ne.ni9.0.444.wav,ne,fo,ni,ta,sil,lu,ri,be,sil1,cho,sil2,['miss'],,,0.444,no_beat,,,,104:108,4,testWhenL4Uns//time_viol.r2.s2.0.wav,2.0,when,unsyncopated,b,s2,no_rule,time,L4,z,3.9382,3.0,1.0,0.3431,4.0,2.0,Castellano,0.0,Inglés,6.0,Francés,6.0,Valenciano,22.0,4.0,4.0,no,no,no,Nada,,,,Nada,72.0,yes
30,2024-02-12_15h09.35.233,Unsyncopated_study2,s104,23.0,masculino,right,España,Castellano,Master degree,no,no,B,1,conjunction_syn,L1,syncopated,s1,r2,30,Online_conjL1_syn//d.ne.ni10.none.none.wav,ta,ze,fo,be,sil,ro,zu,ri,sil1,lu,sil2,['-'],,,none,none,,,,104:108,4,testWhenL4Uns//r1.s2.2.wav,2.0,when,unsyncopated,a,s2,rule,rule,L4,z,1.4035,7.0,1.0,0.7552,4.0,2.0,Castellano,0.0,Inglés,6.0,Francés,6.0,Valenciano,22.0,4.0,4.0,no,no,no,Nada,,,,Nada,72.0,yes
31,2024-02-12_15h09.35.233,Unsyncopated_study2,s104,23.0,masculino,right,España,Castellano,Master degree,no,no,B,1,conjunction_syn,L1,syncopated,s1,r1,31,Online_conjL1_syn//d.ne.ni11.222.1332.wav,pu,ne,ri,ki,sil,la,ni,cho,sil1,ro,sil2,['catch'],[2.1822999999523063],[2.1822999999523063],1.332,no_beat,0.8502999999523062,0.8502999999523062,"[""space""]",104:108,4,testWhenL4Uns//dep_viol.r1.s2.0.wav,2.0,when,unsyncopated,a,s2,no_rule,dep,L4,m,0.6252,5.0,0.0,1.373,4.0,2.0,Castellano,0.0,Inglés,6.0,Francés,6.0,Valenciano,22.0,4.0,4.0,no,no,no,Nada,,,,Nada,72.0,yes
32,2024-02-12_15h09.35.233,Unsyncopated_study2,s104,23.0,masculino,right,España,Castellano,Master degree,no,no,B,1,conjunction_syn,L1,syncopated,s2,r2,32,Online_conjL1_syn//a.pu.ki2.none.none.wav,ne,ro,ri,ta,sil,fa,ze,be,sil1,la,sil2,['-'],,,none,none,,,,0:4,1,testWhenL4Uns//r1.s1.0.wav,2.0,when,unsyncopated,a,s1,rule,rule,L4,z,1.8535,6.0,1.0,0.1908,4.0,2.0,Castellano,0.0,Inglés,6.0,Francés,6.0,Valenciano,22.0,4.0,4.0,no,no,no,Nada,,,,Nada,72.0,yes
33,2024-02-12_15h09.35.233,Unsyncopated_study2,s104,23.0,masculino,right,España,Castellano,Master degree,no,no,B,1,conjunction_syn,L1,syncopated,s2,r1,33,Online_conjL1_syn//a.pu.ki1.666.1554.wav,ni,fo,fa,pu,sil,zu,lu,ki,sil1,ne,sil2,['catch'],[1.0987000000476428],[1.0987000000476428],0.666,no_beat,0.4327000000476427,0.4327000000476427,"[""space""]",0:4,1,testWhenL4Uns//dep_viol.r2.s1.0.wav,2.0,when,unsyncopated,b,s1,no_rule,dep,L4,m,0.2884,6.0,0.0,0.5842,4.0,2.0,Castellano,0.0,Inglés,6.0,Francés,6.0,Valenciano,22.0,4.0,4.0,no,no,no,Nada,,,,Nada,72.0,yes
34,2024-02-12_15h09.35.233,Unsyncopated_study2,s104,23.0,masculino,right,España,Castellano,Master degree,no,no,B,1,conjunction_syn,L1,syncopated,s1,r1,34,Online_conjL1_syn//a.pu.ki3.0.666.wav,pu,zu,la,ki,sil,fa,cho,ri,sil1,ro,sil2,['miss'],,,0.0,beat,,,,0:4,1,testWhenL4Uns//r2.s2.2.wav,2.0,when,unsyncopated,b,s2,rule,rule,L4,z,0.3108,7.0,1.0,0.538,4.0,2.0,Castellano,0.0,Inglés,6.0,Francés,6.0,Valenciano,22.0,4.0,4.0,no,no,no,Nada,,,,Nada,72.0,yes
35,2024-02-12_15h09.35.233,Unsyncopated_study2,s104,23.0,masculino,right,España,Castellano,Master degree,no,no,B,1,conjunction_syn,L1,syncopated,s1,r2,35,Online_conjL1_syn//a.pu.ki0.none.none.wav,ta,la,ni,be,sil,fa,lu,ro,sil1,fo,sil2,['-'],,,none,none,,,,0:4,1,testWhenL4Uns//cat_viol.r2.s2.0.wav,2.0,when,unsyncopated,b,s2,no_rule,cat,L4,z,3.4576,3.0,1.0,0.5183,4.0,2.0,Castellano,0.0,Inglés,6.0,Francés,6.0,Valenciano,22.0,4.0,4.0,no,no,no,Nada,,,,Nada,72.0,yes
36,2024-02-12_15h09.35.233,Unsyncopated_study2,s104,23.0,masculino,right,España,Castellano,Master degree,no,no,B,1,conjunction_syn,L1,syncopated,s2,r2,36,Online_conjL1_syn//a.pu.ki9.none.none.wav,fa,ne,cho,ta,sil,ni,zu,be,sil1,lu,sil2,['-'],,,none,none,,,,8:12,1,testWhenL4Uns//r2.s2.1.wav,2.0,when,unsyncopated,b,s2,rule,rule,L4,m,0.5337,5.0,0.0,0.9844,4.0,2.0,Castellano,0.0,Inglés,6.0,Francés,6.0,Valenciano,22.0,4.0,4.0,no,no,no,Nada,,,,Nada,72.0,yes
37,2024-02-12_15h09.35.233,Unsyncopated_study2,s104,23.0,masculino,right,España,Castellano,Master degree,no,no,B,1,conjunction_syn,L1,syncopated,s1,r1,37,Online_conjL1_syn//a.pu.ki8.0.666.wav,pu,ze,ni,ki,sil,ne,ro,ri,sil1,fa,sil2,['catch'],[0.41620000004763824],[0.41620000004763824],0.0,beat,0.4162000000476382,0.4162000000476382,"[""space""]",8:12,1,testWhenL4Uns//time_viol.r1.s2.0.wav,2.0,when,unsyncopated,a,s2,no_rule,time,L4,m,0.2349,6.0,0.0,2.0579,4.0,2.0,Castellano,0.0,Inglés,6.0,Francés,6.0,Valenciano,22.0,4.0,4.0,no,no,no,Nada,,,,Nada,72.0,yes
38,2024-02-12_15h09.35.233,Unsyncopated_study2,s104,23.0,masculino,right,España,Castellano,Master degree,no,no,B,1,conjunction_syn,L1,syncopated,s1,r1,38,Online_conjL1_syn//a.pu.ki10.0.666.wav,pu,ro,cho,ki,sil,zu,la,fa,sil1,ne,sil2,['miss'],,,0.0,beat,,,,8:12,1,testWhenL4Uns//r1.s1.2.wav,2.0,when,unsyncopated,a,s1,rule,rule,L4,z,0.5934,4.0,1.0,0.6924,4.0,2.0,Castellano,0.0,Inglés,6.0,Francés,6.0,Valenciano,22.0,4.0,4.0,no,no,no,Nada,,,,Nada,72.0,yes
39,2024-02-12_15h09.35.233,Unsyncopated_study2,s104,23.0,masculino,right,España,Castellano,Master degree,no,no,B,1,conjunction_syn,L1,syncopated,s1,r1,39,Online_conjL1_syn//a.pu.ki11.0.666.wav,pu,fa,ri,ki,sil,lu,cho,zu,sil1,ni,sil2,['catch'],[0.498900000095432],[0.498900000095432],0.0,beat,0.498900000095432,0.498900000095432,"[""space""]",8:12,1,testWhenL4Uns//r2.s1.0.wav,2.0,when,unsyncopated,b,s1,rule,rule,L4,m,0.9901,4.0,0.0,0.709,4.0,2.0,Castellano,0.0,Inglés,6.0,Francés,6.0,Valenciano,22.0,4.0,4.0,no,no,no,Nada,,,,Nada,72.0,yes
40,2024-02-12_15h09.35.233,Unsyncopated_study2,s104,23.0,masculino,right,España,Castellano,Master degree,no,no,B,1,conjunction_syn,L1,syncopated,s2,r2,40,Online_conjL1_syn//d.ne.ni30.222.1110.wav,fa,ne,lu,ta,sil,ni,ri,be,sil1,ze,sil2,['catch'],[1.7752999999523809],[1.7752999999523809],1.11,no_beat,0.6652999999523808,0.6652999999523808,"[""space""]",124:128,4,testWhenL4Uns//dep_viol.r1.s1.0.wav,2.0,when,unsyncopated,a,s1,no_rule,dep,L4,m,2.2242,5.0,0.0,0.3081,4.0,2.0,Castellano,0.0,Inglés,6.0,Francés,6.0,Valenciano,22.0,4.0,4.0,no,no,no,Nada,,,,Nada,72.0,yes
41,2024-02-12_15h09.35.233,Unsyncopated_study2,s104,23.0,masculino,right,España,Castellano,Master degree,no,no,B,1,conjunction_syn,L1,syncopated,s1,r2,41,Online_conjL1_syn//d.ne.ni28.none.none.wav,ta,lu,zu,be,sil,fa,la,ro,sil1,ri,sil2,['-'],,,none,none,,,,124:128,4,testWhenL4Uns//r2.s2.0.wav,2.0,when,unsyncopated,b,s2,rule,rule,L4,m,0.3085,5.0,0.0,0.3854,4.0,2.0,Castellano,0.0,Inglés,6.0,Francés,6.0,Valenciano,22.0,4.0,4.0,no,no,no,Nada,,,,Nada,72.0,yes
42,2024-02-12_15h09.35.233,Unsyncopated_study2,s104,23.0,masculino,right,España,Castellano,Master degree,no,no,B,1,conjunction_syn,L1,syncopated,s2,r1,42,Online_conjL1_syn//d.ne.ni31.0.1110.wav,ne,zu,fa,pu,sil,ni,lu,ki,sil1,ro,sil2,['catch'],[1.649000000000001],[1.649000000000001],1.11,no_beat,0.5390000000000008,0.5390000000000008,"[""space""]",124:128,4,testWhenL4Uns//r1.s2.1.wav,2.0,when,unsyncopated,a,s2,rule,rule,L4,z,0.411,5.0,1.0,0.7228,4.0,2.0,Castellano,0.0,Inglés,6.0,Francés,6.0,Valenciano,22.0,4.0,4.0,no,no,no,Nada,,,,Nada,72.0,yes
43,2024-02-12_15h09.35.233,Unsyncopated_study2,s104,23.0,masculino,right,España,Castellano,Master degree,no,no,B,1,conjunction_syn,L1,syncopated,s2,r2,43,Online_conjL1_syn//d.ne.ni29.0.444.wav,ne,fa,ni,ta,sil,ri,zu,be,sil1,lu,sil2,['catch'],[1.8654000000954056],[1.8654000000954056],0.444,no_beat,,1.4214000000954057,"[""space""]",124:128,4,testWhenL4Uns//cat_viol.r1.s2.0.wav,2.0,when,unsyncopated,a,s2,no_rule,cat,L4,z,0.3879,5.0,1.0,0.4871,4.0,2.0,Castellano,0.0,Inglés,6.0,Francés,6.0,Valenciano,22.0,4.0,4.0,no,no,no,Nada,,,,Nada,72.0,yes
44,2024-02-12_15h09.35.233,Unsyncopated_study2,s104,23.0,masculino,right,España,Castellano,Master degree,no,no,B,1,conjunction_syn,L1,syncopated,s2,r2,44,Online_conjL1_syn//a.pu.ki17.none.none.wav,lu,fa,zu,ta,sil,la,ze,be,sil1,cho,sil2,['-'],,,none,none,,,,16:20,1,testWhenL4Uns//r2.s1.1.wav,2.0,when,unsyncopated,b,s1,rule,rule,L4,z,2.1381,5.0,1.0,0.327,4.0,2.0,Castellano,0.0,Inglés,6.0,Francés,6.0,Valenciano,22.0,4.0,4.0,no,no,no,Nada,,,,Nada,72.0,yes
45,2024-02-12_15h09.35.233,Unsyncopated_study2,s104,23.0,masculino,right,España,Castellano,Master degree,no,no,B,1,conjunction_syn,L1,syncopated,s1,r2,45,Online_conjL1_syn//a.pu.ki19.none.none.wav,ta,fa,lu,be,sil,ne,fo,ri,sil1,ze,sil2,['-'],,,none,none,,,,16:20,1,testWhenL4Uns//cat_viol.r2.s1.0.wav,2.0,when,unsyncopated,b,s1,no_rule,cat,L4,m,0.1674,6.0,0.0,0.724,4.0,2.0,Castellano,0.0,Inglés,6.0,Francés,6.0,Valenciano,22.0,4.0,4.0,no,no,no,Nada,,,,Nada,72.0,yes
46,2024-02-12_15h09.35.233,Unsyncopated_study2,s104,23.0,masculino,right,España,Castellano,Master degree,no,no,B,1,conjunction_syn,L1,syncopated,s2,r2,46,Online_conjL1_syn//a.pu.ki16.none.none.wav,la,ze,fo,ta,sil,zu,lu,be,sil1,ne,sil2,['-'],,,none,none,,,,16:20,1,testWhenL4Uns//time_viol.r1.s1.0.wav,2.0,when,unsyncopated,a,s1,no_rule,time,L4,z,1.3682,4.0,1.0,0.4222,4.0,2.0,Castellano,0.0,Inglés,6.0,Francés,6.0,Valenciano,22.0,4.0,4.0,no,no,no,Nada,,,,Nada,72.0,yes
47,2024-02-12_15h09.35.233,Unsyncopated_study2,s104,23.0,masculino,right,España,Castellano,Master degree,no,no,B,1,conjunction_syn,L1,syncopated,s2,r1,47,Online_conjL1_syn//a.pu.ki18.666.1554.wav,lu,ni,ri,pu,sil,ro,fo,ki,sil1,cho,sil2,['catch'],[1.3544999999999163],[1.3544999999999163],0.666,no_beat,0.6884999999999163,0.6884999999999163,"[""space""]",16:20,1,testWhenL4Uns//time_viol.r2.s1.0.wav,2.0,when,unsyncopated,b,s1,no_rule,time,L4,z,0.9604,4.0,1.0,0.3007,4.0,2.0,Castellano,0.0,Inglés,6.0,Francés,6.0,Valenciano,22.0,4.0,4.0,no,no,no,Nada,,,,Nada,72.0,yes
48,2024-02-12_15h09.35.233,Unsyncopated_study2,s104,23.0,masculino,right,España,Castellano,Master degree,no,no,B,1,conjunction_syn,L1,syncopated,s1,r2,48,Online_conjL1_syn//c.ro.fo1.none.none.wav,ta,ni,lu,be,sil,zu,ze,fa,sil1,la,sil2,['-'],,,none,none,,,,64:68,3,testConjL2Uns//time_viol.r1.s2.0.wav,3.0,conjunction_un,unsyncopated,a,s2,no_rule,time,L2,z,0.823,5.0,0.0,0.8272,4.0,2.0,Castellano,0.0,Inglés,6.0,Francés,6.0,Valenciano,22.0,4.0,4.0,no,no,no,Nada,,,,Nada,72.0,yes
49,2024-02-12_15h09.35.233,Unsyncopated_study2,s104,23.0,masculino,right,España,Castellano,Master degree,no,no,B,1,conjunction_syn,L1,syncopated,s2,r1,49,Online_conjL1_syn//c.ro.fo0.444.1110.wav,fa,la,ro,pu,sil,fo,lu,ki,sil1,ze,sil2,['miss'],,,1.11,no_beat,,,,64:68,3,testConjL2Uns//r1.s1.1.wav,3.0,conjunction_un,unsyncopated,a,s1,rule,rule,L2,m,1.2509,5.0,0.0,0.9204,4.0,2.0,Castellano,0.0,Inglés,6.0,Francés,6.0,Valenciano,22.0,4.0,4.0,no,no,no,Nada,,,,Nada,72.0,yes
50,2024-02-12_15h09.35.233,Unsyncopated_study2,s104,23.0,masculino,right,España,Castellano,Master degree,no,no,B,1,conjunction_syn,L1,syncopated,s1,r2,50,Online_conjL1_syn//c.ro.fo2.none.none.wav,ta,ze,ni,be,sil,zu,cho,lu,sil1,la,sil2,['-'],,,none,none,,,,64:68,3,testConjL2Uns//dep_viol.r1.s1.0.wav,3.0,conjunction_un,unsyncopated,a,s1,no_rule,dep,L2,m,0.5347,3.0,1.0,0.9519,4.0,2.0,Castellano,0.0,Inglés,6.0,Francés,6.0,Valenciano,22.0,4.0,4.0,no,no,no,Nada,,,,Nada,72.0,yes
51,2024-02-12_15h09.35.233,Unsyncopated_study2,s104,23.0,masculino,right,España,Castellano,Master degree,no,no,B,1,conjunction_syn,L1,syncopated,s2,r1,51,Online_conjL1_syn//c.ro.fo3.none.none.wav,lu,ni,ze,pu,sil,ne,ri,ki,sil1,cho,sil2,['-'],,,none,none,,,,64:68,3,testConjL2Uns//time_viol.r2.s2.0.wav,3.0,conjunction_un,unsyncopated,b,s2,no_rule,time,L2,z,1.3583,3.0,0.0,0.4846,4.0,2.0,Castellano,0.0,Inglés,6.0,Francés,6.0,Valenciano,22.0,4.0,4.0,no,no,no,Nada,,,,Nada,72.0,yes
52,2024-02-12_15h09.35.233,Unsyncopated_study2,s104,23.0,masculino,right,España,Castellano,Master degree,no,no,B,1,conjunction_syn,L1,syncopated,s2,r2,52,Online_conjL1_syn//c.ro.fo31.none.none.wav,ri,fa,la,ta,sil,lu,ne,be,sil1,zu,sil2,['-'],,,none,none,,,,92:96,3,testConjL2Uns//dep_viol.r2.s2.0.wav,3.0,conjunction_un,unsyncopated,b,s2,no_rule,dep,L2,z,0.9532,7.0,0.0,1.1849,4.0,2.0,Castellano,0.0,Inglés,6.0,Francés,6.0,Valenciano,22.0,4.0,4.0,no,no,no,Nada,,,,Nada,72.0,yes
53,2024-02-12_15h09.35.233,Unsyncopated_study2,s104,23.0,masculino,right,España,Castellano,Master degree,no,no,B,1,conjunction_syn,L1,syncopated,s2,r2,53,Online_conjL1_syn//c.ro.fo30.1110.0.wav,fo,ze,fa,ta,sil,ro,ri,be,sil1,ni,sil2,['miss'],,,0.0,beat,,,,92:96,3,testConjL2Uns//cat_viol.r1.s1.0.wav,3.0,conjunction_un,unsyncopated,a,s1,no_rule,cat,L2,z,1.1838,4.0,0.0,0.5516,4.0,2.0,Castellano,0.0,Inglés,6.0,Francés,6.0,Valenciano,22.0,4.0,4.0,no,no,no,Nada,,,,Nada,72.0,yes
54,2024-02-12_15h09.35.233,Unsyncopated_study2,s104,23.0,masculino,right,España,Castellano,Master degree,no,no,B,1,conjunction_syn,L1,syncopated,s1,r2,54,Online_conjL1_syn//c.ro.fo29.none.none.wav,ta,zu,ri,be,sil,la,ni,fa,sil1,lu,sil2,['-'],,,none,none,,,,92:96,3,testConjL2Uns//r1.s2.1.wav,3.0,conjunction_un,unsyncopated,a,s2,rule,rule,L2,z,4.2,7.0,1.0,0.4346,4.0,2.0,Castellano,0.0,Inglés,6.0,Francés,6.0,Valenciano,22.0,4.0,4.0,no,no,no,Nada,,,,Nada,72.0,yes
55,2024-02-12_15h09.35.233,Unsyncopated_study2,s104,23.0,masculino,right,España,Castellano,Master degree,no,no,B,1,conjunction_syn,L1,syncopated,s1,r1,55,Online_conjL1_syn//c.ro.fo28.none.none.wav,pu,ni,lu,ki,sil,ne,la,ze,sil1,fa,sil2,['-'],,,none,none,,,,92:96,3,testConjL2Uns//r2.s1.2.wav,3.0,conjunction_un,unsyncopated,b,s1,rule,rule,L2,m,0.2671,5.0,0.0,0.7842,4.0,2.0,Castellano,0.0,Inglés,6.0,Francés,6.0,Valenciano,22.0,4.0,4.0,no,no,no,Nada,,,,Nada,72.0,yes
56,2024-02-12_15h09.35.233,Unsyncopated_study2,s104,23.0,masculino,right,España,Castellano,Master degree,no,no,B,1,conjunction_syn,L1,syncopated,s1,r1,56,Online_conjL1_syn//d.ne.ni1.222.1110.wav,pu,ne,ri,ki,sil,ni,la,ze,sil1,lu,sil2,['miss'],,,1.11,no_beat,,,,96:100,4,testConjL2Uns//cat_viol.r2.s2.0.wav,3.0,conjunction_un,unsyncopated,b,s2,no_rule,cat,L2,m,3.5011,4.0,1.0,0.8006,4.0,2.0,Castellano,0.0,Inglés,6.0,Francés,6.0,Valenciano,22.0,4.0,4.0,no,no,no,Nada,,,,Nada,72.0,yes
57,2024-02-12_15h09.35.233,Unsyncopated_study2,s104,23.0,masculino,right,España,Castellano,Master degree,no,no,B,1,conjunction_syn,L1,syncopated,s1,r1,57,Online_conjL1_syn//d.ne.ni3.none.none.wav,pu,fo,la,ki,sil,ro,lu,ri,sil1,cho,sil2,['-'],,,none,none,,,,96:100,4,testConjL2Uns//dep_viol.r2.s1.0.wav,3.0,conjunction_un,unsyncopated,b,s1,no_rule,dep,L2,m,1.6364,4.0,1.0,0.5701,4.0,2.0,Castellano,0.0,Inglés,6.0,Francés,6.0,Valenciano,22.0,4.0,4.0,no,no,no,Nada,,,,Nada,72.0,yes
58,2024-02-12_15h09.35.233,Unsyncopated_study2,s104,23.0,masculino,right,España,Castellano,Master degree,no,no,B,1,conjunction_syn,L1,syncopated,s1,r2,58,Online_conjL1_syn//d.ne.ni2.222.1332.wav,ta,ne,lu,be,sil,ri,ni,cho,sil1,ze,sil2,['catch'],[1.7700999999045735],[1.7700999999045735],1.332,no_beat,0.4380999999045734,0.4380999999045734,"[""space""]",96:100,4,testConjL2Uns//dep_viol.r1.s2.0.wav,3.0,conjunction_un,unsyncopated,a,s2,no_rule,dep,L2,m,6.2206,2.0,1.0,0.3689,4.0,2.0,Castellano,0.0,Inglés,6.0,Francés,6.0,Valenciano,22.0,4.0,4.0,no,no,no,Nada,,,,Nada,72.0,yes
59,2024-02-12_15h09.35.233,Unsyncopated_study2,s104,23.0,masculino,right,España,Castellano,Master degree,no,no,B,1,conjunction_syn,L1,syncopated,s2,r1,59,Online_conjL1_syn//d.ne.ni0.none.none.wav,lu,ze,zu,pu,sil,ro,ri,ki,sil1,la,sil2,['-'],,,none,none,,,,96:100,4,testConjL2Uns//r1.s2.0.wav,3.0,conjunction_un,unsyncopated,a,s2,rule,rule,L2,z,0.4355,5.0,1.0,0.5055,4.0,2.0,Castellano,0.0,Inglés,6.0,Francés,6.0,Valenciano,22.0,4.0,4.0,no,no,no,Nada,,,,Nada,72.0,yes
60,2024-02-12_15h09.35.233,Unsyncopated_study2,s104,23.0,masculino,right,España,Castellano,Master degree,no,no,B,1,conjunction_syn,L1,syncopated,s1,r1,60,Online_conjL1_syn//b.ta.be27.none.none.wav,pu,ze,lu,ki,sil,ro,fo,ni,sil1,ri,sil2,['-'],,,none,none,,,,56:60,2,testConjL2Uns//time_viol.r1.s1.0.wav,3.0,conjunction_un,unsyncopated,a,s1,no_rule,time,L2,m,3.2745,5.0,1.0,0.8189,4.0,2.0,Castellano,0.0,Inglés,6.0,Francés,6.0,Valenciano,22.0,4.0,4.0,no,no,no,Nada,,,,Nada,72.0,yes
61,2024-02-12_15h09.35.233,Unsyncopated_study2,s104,23.0,masculino,right,España,Castellano,Master degree,no,no,B,1,conjunction_syn,L1,syncopated,s2,r2,61,Online_conjL1_syn//b.ta.be24.666.1554.wav,fo,ni,ro,ta,sil,ri,cho,be,sil1,ne,sil2,['catch'],[2.070799999952328],[2.070799999952328],1.554,no_beat,0.5167999999523281,0.5167999999523281,"[""space""]",56:60,2,testConjL2Uns//r1.s1.2.wav,3.0,conjunction_un,unsyncopated,a,s1,rule,rule,L2,m,2.0782,2.0,0.0,1.3491,4.0,2.0,Castellano,0.0,Inglés,6.0,Francés,6.0,Valenciano,22.0,4.0,4.0,no,no,no,Nada,,,,Nada,72.0,yes
62,2024-02-12_15h09.35.233,Unsyncopated_study2,s104,23.0,masculino,right,España,Castellano,Master degree,no,no,B,1,conjunction_syn,L1,syncopated,s1,r2,62,Online_conjL1_syn//b.ta.be25.0.666.wav,ta,ri,ze,be,sil,ni,cho,lu,sil1,ne,sil2,['miss'],,,0.666,no_beat,,,,56:60,2,testConjL2Uns//cat_viol.r2.s1.0.wav,3.0,conjunction_un,unsyncopated,b,s1,no_rule,cat,L2,m,1.0361,4.0,1.0,0.6193,4.0,2.0,Castellano,0.0,Inglés,6.0,Francés,6.0,Valenciano,22.0,4.0,4.0,no,no,no,Nada,,,,Nada,72.0,yes
63,2024-02-12_15h09.35.233,Unsyncopated_study2,s104,23.0,masculino,right,España,Castellano,Master degree,no,no,B,1,conjunction_syn,L1,syncopated,s2,r2,63,Online_conjL1_syn//b.ta.be26.666.1554.wav,cho,lu,la,ta,sil,fo,ro,be,sil1,zu,sil2,['catch'],[2.1948999998569434],[2.1948999998569434],1.554,no_beat,0.6408999998569433,0.6408999998569433,"[""space""]",56:60,2,testConjL2Uns//r2.s2.2.wav,3.0,conjunction_un,unsyncopated,b,s2,rule,rule,L2,m,1.318,4.0,0.0,0.2522,4.0,2.0,Castellano,0.0,Inglés,6.0,Francés,6.0,Valenciano,22.0,4.0,4.0,no,no,no,Nada,,,,Nada,72.0,yes
64,2024-02-12_15h09.35.233,Unsyncopated_study2,s104,23.0,masculino,right,España,Castellano,Master degree,no,no,B,1,conjunction_syn,L1,syncopated,s2,r1,64,Online_conjL1_syn//b.ta.be5.none.none.wav,la,ro,cho,pu,sil,fa,ne,ki,sil1,ze,sil2,['-'],,,none,none,,,,36:40,2,testConjL2Uns//r2.s1.1.wav,3.0,conjunction_un,unsyncopated,b,s1,rule,rule,L2,m,0.425,4.0,0.0,0.3185,4.0,2.0,Castellano,0.0,Inglés,6.0,Francés,6.0,Valenciano,22.0,4.0,4.0,no,no,no,Nada,,,,Nada,72.0,yes
65,2024-02-12_15h09.35.233,Unsyncopated_study2,s104,23.0,masculino,right,España,Castellano,Master degree,no,no,B,1,conjunction_syn,L1,syncopated,s1,r1,65,Online_conjL1_syn//b.ta.be4.none.none.wav,pu,la,fo,ki,sil,cho,ze,lu,sil1,ri,sil2,['-'],,,none,none,,,,36:40,2,testConjL2Uns//r1.s2.2.wav,3.0,conjunction_un,unsyncopated,a,s2,rule,rule,L2,z,0.7588,5.0,1.0,0.452,4.0,2.0,Castellano,0.0,Inglés,6.0,Francés,6.0,Valenciano,22.0,4.0,4.0,no,no,no,Nada,,,,Nada,72.0,yes
66,2024-02-12_15h09.35.233,Unsyncopated_study2,s104,23.0,masculino,right,España,Castellano,Master degree,no,no,B,1,conjunction_syn,L1,syncopated,s2,r1,66,Online_conjL1_syn//b.ta.be7.none.none.wav,fa,ne,lu,pu,sil,zu,fo,ki,sil1,cho,sil2,['-'],,,none,none,,,,36:40,2,testConjL2Uns//cat_viol.r1.s2.0.wav,3.0,conjunction_un,unsyncopated,a,s2,no_rule,cat,L2,z,2.0,5.0,0.0,0.3444,4.0,2.0,Castellano,0.0,Inglés,6.0,Francés,6.0,Valenciano,22.0,4.0,4.0,no,no,no,Nada,,,,Nada,72.0,yes
67,2024-02-12_15h09.35.233,Unsyncopated_study2,s104,23.0,masculino,right,España,Castellano,Master degree,no,no,B,1,conjunction_syn,L1,syncopated,s1,r1,67,Online_conjL1_syn//b.ta.be6.none.none.wav,pu,cho,fo,ki,sil,ni,ro,ri,sil1,lu,sil2,['-'],,,none,none,,,,36:40,2,testConjL2Uns//time_viol.r2.s1.0.wav,3.0,conjunction_un,unsyncopated,b,s1,no_rule,time,L2,m,0.4168,5.0,1.0,0.3172,4.0,2.0,Castellano,0.0,Inglés,6.0,Francés,6.0,Valenciano,22.0,4.0,4.0,no,no,no,Nada,,,,Nada,72.0,yes
68,2024-02-12_15h09.35.233,Unsyncopated_study2,s104,23.0,masculino,right,España,Castellano,Master degree,no,no,B,1,conjunction_syn,L1,syncopated,s2,r2,68,Online_conjL1_syn//c.ro.fo25.none.none.wav,lu,ri,fa,ta,sil,zu,cho,be,sil1,ze,sil2,['-'],,,none,none,,,,88:92,3,testConjL2Uns//r2.s2.0.wav,3.0,conjunction_un,unsyncopated,b,s2,rule,rule,L2,z,1.4698,3.0,1.0,0.2705,4.0,2.0,Castellano,0.0,Inglés,6.0,Francés,6.0,Valenciano,22.0,4.0,4.0,no,no,no,Nada,,,,Nada,72.0,yes
69,2024-02-12_15h09.35.233,Unsyncopated_study2,s104,23.0,masculino,right,España,Castellano,Master degree,no,no,B,1,conjunction_syn,L1,syncopated,s2,r1,69,Online_conjL1_syn//c.ro.fo26.444.0.wav,fo,ne,ro,pu,sil,ze,ni,ki,sil1,fa,sil2,['miss'],,,0.0,beat,,,,88:92,3,testConjL2Uns//r2.s1.0.wav,3.0,conjunction_un,unsyncopated,b,s1,rule,rule,L2,z,1.8087,6.0,1.0,0.3018,4.0,2.0,Castellano,0.0,Inglés,6.0,Francés,6.0,Valenciano,22.0,4.0,4.0,no,no,no,Nada,,,,Nada,72.0,yes
70,2024-02-12_15h09.35.233,Unsyncopated_study2,s104,23.0,masculino,right,España,Castellano,Master degree,no,no,B,1,conjunction_syn,L1,syncopated,s1,r1,70,Online_conjL1_syn//c.ro.fo24.1332.222.wav,pu,fo,ni,ki,sil,la,ro,ze,sil1,zu,sil2,['miss'],,,0.222,no_beat,,,,88:92,3,testConjL2Uns//r2.s2.1.wav,3.0,conjunction_un,unsyncopated,b,s2,rule,rule,L2,z,2.3905,3.0,1.0,0.5037,4.0,2.0,Castellano,0.0,Inglés,6.0,Francés,6.0,Valenciano,22.0,4.0,4.0,no,no,no,Nada,,,,Nada,72.0,yes
71,2024-02-12_15h09.35.233,Unsyncopated_study2,s104,23.0,masculino,right,España,Castellano,Master degree,no,no,B,1,conjunction_syn,L1,syncopated,s2,r2,71,Online_conjL1_syn//c.ro.fo27.444.1110.wav,la,fa,ro,ta,sil,fo,lu,be,sil1,ze,sil2,['miss'],,,1.11,no_beat,,,,88:92,3,testConjL2Uns//r1.s1.0.wav,3.0,conjunction_un,unsyncopated,a,s1,rule,rule,L2,z,2.0244,5.0,1.0,0.6678,4.0,2.0,Castellano,0.0,Inglés,6.0,Francés,6.0,Valenciano,22.0,4.0,4.0,no,no,no,Nada,,,,Nada,72.0,yes
72,2024-02-12_15h09.35.233,Unsyncopated_study2,s104,23.0,masculino,right,España,Castellano,Master degree,no,no,B,1,conjunction_syn,L1,syncopated,s2,r2,72,Online_conjL1_syn//d.ne.ni22.1110.0.wav,ni,ze,lu,ta,sil,ne,cho,be,sil1,zu,sil2,['miss'],,,0.0,beat,,,,116:120,4,testWhatL3Uns//r1.s1.2.wav,4.0,what,unsyncopated,a,s1,rule,rule,L3,z,0.5507,5.0,1.0,0.9657,4.0,2.0,Castellano,0.0,Inglés,6.0,Francés,6.0,Valenciano,22.0,4.0,4.0,no,no,no,Nada,,,,Nada,72.0,yes
73,2024-02-12_15h09.35.233,Unsyncopated_study2,s104,23.0,masculino,right,España,Castellano,Master degree,no,no,B,1,conjunction_syn,L1,syncopated,s2,r2,73,Online_conjL1_syn//d.ne.ni20.none.none.wav,ze,lu,ro,ta,sil,fa,ri,be,sil1,cho,sil2,['-'],,,none,none,,,,116:120,4,testWhatL3Uns//dep_viol.r2.s2.0.wav,4.0,what,unsyncopated,b,s2,no_rule,dep,L3,z,0.2213,6.0,0.0,1.3679,4.0,2.0,Castellano,0.0,Inglés,6.0,Francés,6.0,Valenciano,22.0,4.0,4.0,no,no,no,Nada,,,,Nada,72.0,yes
74,2024-02-12_15h09.35.233,Unsyncopated_study2,s104,23.0,masculino,right,España,Castellano,Master degree,no,no,B,1,conjunction_syn,L1,syncopated,s1,r1,74,Online_conjL1_syn//d.ne.ni21.none.none.wav,pu,lu,fo,ki,sil,ze,cho,ro,sil1,zu,sil2,['-'],,,none,none,,,,116:120,4,testWhatL3Uns//dep_viol.r1.s2.0.wav,4.0,what,unsyncopated,a,s2,no_rule,dep,L3,m,0.5416,5.0,1.0,0.5339,4.0,2.0,Castellano,0.0,Inglés,6.0,Francés,6.0,Valenciano,22.0,4.0,4.0,no,no,no,Nada,,,,Nada,72.0,yes
75,2024-02-12_15h09.35.233,Unsyncopated_study2,s104,23.0,masculino,right,España,Castellano,Master degree,no,no,B,1,conjunction_syn,L1,syncopated,s2,r1,75,Online_conjL1_syn//d.ne.ni23.0.444.wav,ne,fo,ni,pu,sil,ri,fa,ki,sil1,lu,sil2,['miss'],,,0.444,no_beat,,,,116:120,4,testWhatL3Uns//time_viol.r2.s2.0.wav,4.0,what,unsyncopated,b,s2,no_rule,time,L3,m,3.9096,3.0,1.0,0.5703,4.0,2.0,Castellano,0.0,Inglés,6.0,Francés,6.0,Valenciano,22.0,4.0,4.0,no,no,no,Nada,,,,Nada,72.0,yes
76,2024-02-12_15h09.35.233,Unsyncopated_study2,s104,23.0,masculino,right,España,Castellano,Master degree,no,no,B,1,conjunction_syn,L1,syncopated,s1,r1,76,Online_conjL1_syn//d.ne.ni12.none.none.wav,pu,fo,ri,ki,sil,ze,zu,ro,sil1,la,sil2,['-'],,,none,none,,,,108:112,4,testWhatL3Uns//cat_viol.r2.s2.0.wav,4.0,what,unsyncopated,b,s2,no_rule,cat,L3,m,4.0597,3.0,1.0,0.1876,4.0,2.0,Castellano,0.0,Inglés,6.0,Francés,6.0,Valenciano,22.0,4.0,4.0,no,no,no,Nada,,,,Nada,72.0,yes
77,2024-02-12_15h09.35.233,Unsyncopated_study2,s104,23.0,masculino,right,España,Castellano,Master degree,no,no,B,1,conjunction_syn,L1,syncopated,s1,r2,77,Online_conjL1_syn//d.ne.ni14.none.none.wav,ta,ri,cho,be,sil,ze,lu,zu,sil1,la,sil2,['-'],,,none,none,,,,108:112,4,testWhatL3Uns//r1.s1.1.wav,4.0,what,unsyncopated,a,s1,rule,rule,L3,z,0.8522,3.0,1.0,0.5188,4.0,2.0,Castellano,0.0,Inglés,6.0,Francés,6.0,Valenciano,22.0,4.0,4.0,no,no,no,Nada,,,,Nada,72.0,yes
78,2024-02-12_15h09.35.233,Unsyncopated_study2,s104,23.0,masculino,right,España,Castellano,Master degree,no,no,B,1,conjunction_syn,L1,syncopated,s1,r1,78,Online_conjL1_syn//d.ne.ni15.none.none.wav,pu,lu,ze,ki,sil,cho,zu,ri,sil1,la,sil2,['-'],,,none,none,,,,108:112,4,testWhatL3Uns//time_viol.r1.s2.0.wav,4.0,what,unsyncopated,a,s2,no_rule,time,L3,z,0.9509,3.0,0.0,0.4334,4.0,2.0,Castellano,0.0,Inglés,6.0,Francés,6.0,Valenciano,22.0,4.0,4.0,no,no,no,Nada,,,,Nada,72.0,yes
79,2024-02-12_15h09.35.233,Unsyncopated_study2,s104,23.0,masculino,right,España,Castellano,Master degree,no,no,B,1,conjunction_syn,L1,syncopated,s2,r1,79,Online_conjL1_syn//d.ne.ni13.1110.222.wav,ze,ni,lu,pu,sil,ne,ro,ki,sil1,zu,sil2,['miss'],,,0.222,no_beat,,,,108:112,4,testWhatL3Uns//dep_viol.r1.s1.0.wav,4.0,what,unsyncopated,a,s1,no_rule,dep,L3,m,1.3006,3.0,1.0,0.7518,4.0,2.0,Castellano,0.0,Inglés,6.0,Francés,6.0,Valenciano,22.0,4.0,4.0,no,no,no,Nada,,,,Nada,72.0,yes
80,2024-02-12_15h09.35.233,Unsyncopated_study2,s104,23.0,masculino,right,España,Castellano,Master degree,no,no,B,1,conjunction_syn,L1,syncopated,s2,r2,80,Online_conjL1_syn//c.ro.fo21.none.none.wav,ze,zu,la,ta,sil,ne,cho,be,sil1,ni,sil2,['-'],,,none,none,,,,84:88,3,testWhatL3Uns//r2.s1.1.wav,4.0,what,unsyncopated,b,s1,rule,rule,L3,m,2.0687,4.0,0.0,0.201,4.0,2.0,Castellano,0.0,Inglés,6.0,Francés,6.0,Valenciano,22.0,4.0,4.0,no,no,no,Nada,,,,Nada,72.0,yes
81,2024-02-12_15h09.35.233,Unsyncopated_study2,s104,23.0,masculino,right,España,Castellano,Master degree,no,no,B,1,conjunction_syn,L1,syncopated,s2,r1,81,Online_conjL1_syn//c.ro.fo20.none.none.wav,lu,ne,la,pu,sil,zu,cho,ki,sil1,ni,sil2,['-'],,,none,none,,,,84:88,3,testWhatL3Uns//cat_viol.r1.s1.0.wav,4.0,what,unsyncopated,a,s1,no_rule,cat,L3,m,0.969,4.0,1.0,0.4346,4.0,2.0,Castellano,0.0,Inglés,6.0,Francés,6.0,Valenciano,22.0,4.0,4.0,no,no,no,Nada,,,,Nada,72.0,yes
82,2024-02-12_15h09.35.233,Unsyncopated_study2,s104,23.0,masculino,right,España,Castellano,Master degree,no,no,B,1,conjunction_syn,L1,syncopated,s1,r1,82,Online_conjL1_syn//c.ro.fo22.none.none.wav,pu,fa,cho,ki,sil,ne,la,ni,sil1,ze,sil2,['-'],,,none,none,,,,84:88,3,testWhatL3Uns//cat_viol.r1.s2.0.wav,4.0,what,unsyncopated,a,s2,no_rule,cat,L3,z,2.6516,6.0,0.0,0.4681,4.0,2.0,Castellano,0.0,Inglés,6.0,Francés,6.0,Valenciano,22.0,4.0,4.0,no,no,no,Nada,,,,Nada,72.0,yes
83,2024-02-12_15h09.35.233,Unsyncopated_study2,s104,23.0,masculino,right,España,Castellano,Master degree,no,no,B,1,conjunction_syn,L1,syncopated,s1,r2,83,Online_conjL1_syn//c.ro.fo23.1110.1332.wav,ta,ne,cho,be,sil,ro,fo,zu,sil1,ni,sil2,['miss'],,,1.332,no_beat,,,,84:88,3,testWhatL3Uns//r2.s2.0.wav,4.0,what,unsyncopated,b,s2,rule,rule,L3,z,0.2513,4.0,1.0,0.5512,4.0,2.0,Castellano,0.0,Inglés,6.0,Francés,6.0,Valenciano,22.0,4.0,4.0,no,no,no,Nada,,,,Nada,72.0,yes
84,2024-02-12_15h09.35.233,Unsyncopated_study2,s104,23.0,masculino,right,España,Castellano,Master degree,no,no,B,1,conjunction_syn,L1,syncopated,s1,r2,84,Online_conjL1_syn//a.pu.ki15.none.none.wav,ta,fo,ne,be,sil,la,ze,fa,sil1,cho,sil2,['-'],,,none,none,,,,12:16,1,testWhatL3Uns//r2.s1.0.wav,4.0,what,unsyncopated,b,s1,rule,rule,L3,m,2.8501,4.0,0.0,0.3684,4.0,2.0,Castellano,0.0,Inglés,6.0,Francés,6.0,Valenciano,22.0,4.0,4.0,no,no,no,Nada,,,,Nada,72.0,yes
85,2024-02-12_15h09.35.233,Unsyncopated_study2,s104,23.0,masculino,right,España,Castellano,Master degree,no,no,B,1,conjunction_syn,L1,syncopated,s2,r1,85,Online_conjL1_syn//a.pu.ki13.666.1554.wav,fa,ro,ne,pu,sil,fo,lu,ki,sil1,ni,sil2,['catch'],[1.4376000001431066],[1.4376000001431066],0.666,no_beat,0.7716000001431066,0.7716000001431066,"[""space""]",12:16,1,testWhatL3Uns//r2.s1.2.wav,4.0,what,unsyncopated,b,s1,rule,rule,L3,z,0.1515,5.0,1.0,0.5185,4.0,2.0,Castellano,0.0,Inglés,6.0,Francés,6.0,Valenciano,22.0,4.0,4.0,no,no,no,Nada,,,,Nada,72.0,yes
86,2024-02-12_15h09.35.233,Unsyncopated_study2,s104,23.0,masculino,right,España,Castellano,Master degree,no,no,B,1,conjunction_syn,L1,syncopated,s1,r2,86,Online_conjL1_syn//a.pu.ki14.none.none.wav,ta,ri,ze,be,sil,lu,fa,cho,sil1,fo,sil2,['-'],,,none,none,,,,12:16,1,testWhatL3Uns//dep_viol.r2.s1.0.wav,4.0,what,unsyncopated,b,s1,no_rule,dep,L3,m,1.5156,6.0,1.0,0.9018,4.0,2.0,Castellano,0.0,Inglés,6.0,Francés,6.0,Valenciano,22.0,4.0,4.0,no,no,no,Nada,,,,Nada,72.0,yes
87,2024-02-12_15h09.35.233,Unsyncopated_study2,s104,23.0,masculino,right,España,Castellano,Master degree,no,no,B,1,conjunction_syn,L1,syncopated,s1,r1,87,Online_conjL1_syn//a.pu.ki12.0.666.wav,pu,zu,ni,ki,sil,ne,ro,fo,sil1,cho,sil2,['miss'],,,0.0,beat,,,,12:16,1,testWhatL3Uns//r1.s2.0.wav,4.0,what,unsyncopated,a,s2,rule,rule,L3,z,0.1515,6.0,1.0,0.5491,4.0,2.0,Castellano,0.0,Inglés,6.0,Francés,6.0,Valenciano,22.0,4.0,4.0,no,no,no,Nada,,,,Nada,72.0,yes
88,2024-02-12_15h09.35.233,Unsyncopated_study2,s104,23.0,masculino,right,España,Castellano,Master degree,no,no,B,1,conjunction_syn,L1,syncopated,s1,r1,88,Online_conjL1_syn//c.ro.fo15.none.none.wav,pu,ri,ze,ki,sil,lu,ne,la,sil1,cho,sil2,['-'],,,none,none,,,,76:80,3,testWhatL3Uns//time_viol.r2.s1.0.wav,4.0,what,unsyncopated,b,s1,no_rule,time,L3,z,2.0568,1.0,0.0,4.4764,4.0,2.0,Castellano,0.0,Inglés,6.0,Francés,6.0,Valenciano,22.0,4.0,4.0,no,no,no,Nada,,,,Nada,72.0,yes
89,2024-02-12_15h09.35.233,Unsyncopated_study2,s104,23.0,masculino,right,España,Castellano,Master degree,no,no,B,1,conjunction_syn,L1,syncopated,s2,r2,89,Online_conjL1_syn//c.ro.fo14.none.none.wav,fa,zu,ri,ta,sil,la,ni,be,sil1,ne,sil2,['-'],,,none,none,,,,76:80,3,testWhatL3Uns//r2.s2.2.wav,4.0,what,unsyncopated,b,s2,rule,rule,L3,z,6.1325,5.0,1.0,1.3844,4.0,2.0,Castellano,0.0,Inglés,6.0,Francés,6.0,Valenciano,22.0,4.0,4.0,no,no,no,Nada,,,,Nada,72.0,yes
90,2024-02-12_15h09.35.233,Unsyncopated_study2,s104,23.0,masculino,right,España,Castellano,Master degree,no,no,B,1,conjunction_syn,L1,syncopated,s2,r2,90,Online_conjL1_syn//c.ro.fo12.1332.444.wav,fa,zu,fo,ta,sil,cho,ro,be,sil1,ne,sil2,['catch'],[1.157299999952329],[1.157299999952329],0.444,no_beat,0.7132999999523291,0.7132999999523291,"[""space""]",76:80,3,testWhatL3Uns//r2.s2.1.wav,4.0,what,unsyncopated,b,s2,rule,rule,L3,m,3.8003,4.0,0.0,0.3192,4.0,2.0,Castellano,0.0,Inglés,6.0,Francés,6.0,Valenciano,22.0,4.0,4.0,no,no,no,Nada,,,,Nada,72.0,yes
91,2024-02-12_15h09.35.233,Unsyncopated_study2,s104,23.0,masculino,right,España,Castellano,Master degree,no,no,B,1,conjunction_syn,L1,syncopated,s1,r1,91,Online_conjL1_syn//c.ro.fo13.1554.222.wav,pu,fo,fa,ki,sil,ni,cho,ro,sil1,ze,sil2,['miss'],,,0.222,no_beat,,,,76:80,3,testWhatL3Uns//r1.s1.0.wav,4.0,what,unsyncopated,a,s1,rule,rule,L3,z,2.7398,4.0,1.0,0.8182,4.0,2.0,Castellano,0.0,Inglés,6.0,Francés,6.0,Valenciano,22.0,4.0,4.0,no,no,no,Nada,,,,Nada,72.0,yes
92,2024-02-12_15h09.35.233,Unsyncopated_study2,s104,23.0,masculino,right,España,Castellano,Master degree,no,no,B,1,conjunction_syn,L1,syncopated,s1,r1,92,Online_conjL1_syn//a.pu.ki5.0.666.wav,pu,ne,ro,ki,sil,cho,ri,fa,sil1,lu,sil2,['catch'],[0.818099999904689],[0.818099999904689],0.0,beat,0.818099999904689,0.818099999904689,"[""space""]",4:8,1,testWhatL3Uns//r1.s2.2.wav,4.0,what,unsyncopated,a,s2,rule,rule,L3,m,0.3378,6.0,0.0,0.9554,4.0,2.0,Castellano,0.0,Inglés,6.0,Francés,6.0,Valenciano,22.0,4.0,4.0,no,no,no,Nada,,,,Nada,72.0,yes
93,2024-02-12_15h09.35.233,Unsyncopated_study2,s104,23.0,masculino,right,España,Castellano,Master degree,no,no,B,1,conjunction_syn,L1,syncopated,s1,r1,93,Online_conjL1_syn//a.pu.ki7.0.666.wav,pu,ri,zu,ki,sil,ne,ze,cho,sil1,la,sil2,['catch'],[0.6072000000476692],[0.6072000000476692],0.0,beat,0.6072000000476692,0.6072000000476692,"[""space""]",4:8,1,testWhatL3Uns//cat_viol.r2.s1.0.wav,4.0,what,unsyncopated,b,s1,no_rule,cat,L3,z,2.7879,1.0,0.0,3.5526,4.0,2.0,Castellano,0.0,Inglés,6.0,Francés,6.0,Valenciano,22.0,4.0,4.0,no,no,no,Nada,,,,Nada,72.0,yes
94,2024-02-12_15h09.35.233,Unsyncopated_study2,s104,23.0,masculino,right,España,Castellano,Master degree,no,no,B,1,conjunction_syn,L1,syncopated,s1,r2,94,Online_conjL1_syn//a.pu.ki4.none.none.wav,ta,ze,ri,be,sil,zu,fo,ne,sil1,lu,sil2,['-'],,,none,none,,,,4:8,1,testWhatL3Uns//time_viol.r1.s1.0.wav,4.0,what,unsyncopated,a,s1,no_rule,time,L3,z,1.4014,5.0,0.0,1.6174,4.0,2.0,Castellano,0.0,Inglés,6.0,Francés,6.0,Valenciano,22.0,4.0,4.0,no,no,no,Nada,,,,Nada,72.0,yes
95,2024-02-12_15h09.35.233,Unsyncopated_study2,s104,23.0,masculino,right,España,Castellano,Master degree,no,no,B,1,conjunction_syn,L1,syncopated,s2,r2,95,Online_conjL1_syn//a.pu.ki6.none.none.wav,ne,ni,la,ta,sil,zu,cho,be,sil1,ze,sil2,['-'],,,none,none,,,,4:8,1,testWhatL3Uns//r1.s2.1.wav,4.0,what,unsyncopated,a,s2,rule,rule,L3,m,1.2361,5.0,0.0,0.652,4.0,2.0,Castellano,0.0,Inglés,6.0,Francés,6.0,Valenciano,22.0,4.0,4.0,no,no,no,Nada,,,,Nada,72.0,yes
96,2024-02-12_15h09.35.233,Unsyncopated_study2,s104,23.0,masculino,right,España,Castellano,Master degree,no,no,B,1,conjunction_syn,L1,syncopated,s2,r1,96,Online_conjL1_syn//b.ta.be22.none.none.wav,zu,la,cho,pu,sil,ne,ri,ki,sil1,fa,sil2,['-'],,,none,none,,,,52:56,2,,,,,,,,,,,,,,,4.0,2.0,Castellano,0.0,Inglés,6.0,Francés,6.0,Valenciano,22.0,4.0,4.0,no,no,no,Nada,,,,Nada,72.0,yes
97,2024-02-12_15h09.35.233,Unsyncopated_study2,s104,23.0,masculino,right,España,Castellano,Master degree,no,no,B,1,conjunction_syn,L1,syncopated,s1,r1,97,Online_conjL1_syn//b.ta.be20.none.none.wav,pu,lu,ze,ki,sil,ro,la,zu,sil1,fo,sil2,['-'],,,none,none,,,,52:56,2,,,,,,,,,,,,,,,4.0,2.0,Castellano,0.0,Inglés,6.0,Francés,6.0,Valenciano,22.0,4.0,4.0,no,no,no,Nada,,,,Nada,72.0,yes
98,2024-02-12_15h09.35.233,Unsyncopated_study2,s104,23.0,masculino,right,España,Castellano,Master degree,no,no,B,1,conjunction_syn,L1,syncopated,s2,r1,98,Online_conjL1_syn//b.ta.be21.none.none.wav,ri,ro,fa,pu,sil,ni,cho,ki,sil1,ze,sil2,['-'],,,none,none,,,,52:56,2,,,,,,,,,,,,,,,4.0,2.0,Castellano,0.0,Inglés,6.0,Francés,6.0,Valenciano,22.0,4.0,4.0,no,no,no,Nada,,,,Nada,72.0,yes
99,2024-02-12_15h09.35.233,Unsyncopated_study2,s104,23.0,masculino,right,España,Castellano,Master degree,no,no,B,1,conjunction_syn,L1,syncopated,s1,r1,99,Online_conjL1_syn//b.ta.be23.none.none.wav,pu,cho,ze,ki,sil,ne,la,ri,sil1,fa,sil2,['-'],,,none,none,,,,52:56,2,,,,,,,,,,,,,,,4.0,2.0,Castellano,0.0,Inglés,6.0,Francés,6.0,Valenciano,22.0,4.0,4.0,no,no,no,Nada,,,,Nada,72.0,yes
100,2024-02-12_15h09.35.233,Unsyncopated_study2,s104,23.0,masculino,right,España,Castellano,Master degree,no,no,B,1,conjunction_syn,L1,syncopated,s2,r1,100,Online_conjL1_syn//c.ro.fo19.none.none.wav,la,ni,zu,pu,sil,ne,ri,ki,sil1,lu,sil2,['-'],,,none,none,,,,80:84,3,,,,,,,,,,,,,,,4.0,2.0,Castellano,0.0,Inglés,6.0,Francés,6.0,Valenciano,22.0,4.0,4.0,no,no,no,Nada,,,,Nada,72.0,yes
101,2024-02-12_15h09.35.233,Unsyncopated_study2,s104,23.0,masculino,right,España,Castellano,Master degree,no,no,B,1,conjunction_syn,L1,syncopated,s1,r2,101,Online_conjL1_syn//c.ro.fo16.1332.222.wav,ta,fo,ni,be,sil,la,ro,lu,sil1,fa,sil2,['miss'],,,0.222,no_beat,,,,80:84,3,,,,,,,,,,,,,,,4.0,2.0,Castellano,0.0,Inglés,6.0,Francés,6.0,Valenciano,22.0,4.0,4.0,no,no,no,Nada,,,,Nada,72.0,yes
102,2024-02-12_15h09.35.233,Unsyncopated_study2,s104,23.0,masculino,right,España,Castellano,Master degree,no,no,B,1,conjunction_syn,L1,syncopated,s2,r1,102,Online_conjL1_syn//c.ro.fo17.444.0.wav,fo,fa,ro,pu,sil,lu,ze,ki,sil1,ni,sil2,['miss'],,,0.0,beat,,,,80:84,3,,,,,,,,,,,,,,,4.0,2.0,Castellano,0.0,Inglés,6.0,Francés,6.0,Valenciano,22.0,4.0,4.0,no,no,no,Nada,,,,Nada,72.0,yes
103,2024-02-12_15h09.35.233,Unsyncopated_study2,s104,23.0,masculino,right,España,Castellano,Master degree,no,no,B,1,conjunction_syn,L1,syncopated,s1,r1,103,Online_conjL1_syn//c.ro.fo18.1110.222.wav,pu,fo,zu,ki,sil,ro,cho,ze,sil1,ne,sil2,['miss'],,,0.222,no_beat,,,,80:84,3,,,,,,,,,,,,,,,4.0,2.0,Castellano,0.0,Inglés,6.0,Francés,6.0,Valenciano,22.0,4.0,4.0,no,no,no,Nada,,,,Nada,72.0,yes
104,2024-02-12_15h09.35.233,Unsyncopated_study2,s104,23.0,masculino,right,España,Castellano,Master degree,no,no,B,1,conjunction_syn,L1,syncopated,s2,r2,104,Online_conjL1_syn//d.ne.ni17.none.none.wav,ze,lu,ri,ta,sil,fo,cho,be,sil1,fa,sil2,['-'],,,none,none,,,,112:116,4,,,,,,,,,,,,,,,4.0,2.0,Castellano,0.0,Inglés,6.0,Francés,6.0,Valenciano,22.0,4.0,4.0,no,no,no,Nada,,,,Nada,72.0,yes
105,2024-02-12_15h09.35.233,Unsyncopated_study2,s104,23.0,masculino,right,España,Castellano,Master degree,no,no,B,1,conjunction_syn,L1,syncopated,s1,r2,105,Online_conjL1_syn//d.ne.ni16.1332.222.wav,ta,ni,lu,be,sil,ri,ne,fo,sil1,ze,sil2,['catch'],[0.9037000000475928],[0.9037000000475928],0.222,no_beat,0.6817000000475928,0.6817000000475928,"[""space""]",112:116,4,,,,,,,,,,,,,,,4.0,2.0,Castellano,0.0,Inglés,6.0,Francés,6.0,Valenciano,22.0,4.0,4.0,no,no,no,Nada,,,,Nada,72.0,yes
106,2024-02-12_15h09.35.233,Unsyncopated_study2,s104,23.0,masculino,right,España,Castellano,Master degree,no,no,B,1,conjunction_syn,L1,syncopated,s2,r2,106,Online_conjL1_syn//d.ne.ni18.none.none.wav,lu,ri,cho,ta,sil,ze,ro,be,sil1,fo,sil2,['-'],,,none,none,,,,112:116,4,,,,,,,,,,,,,,,4.0,2.0,Castellano,0.0,Inglés,6.0,Francés,6.0,Valenciano,22.0,4.0,4.0,no,no,no,Nada,,,,Nada,72.0,yes
107,2024-02-12_15h09.35.233,Unsyncopated_study2,s104,23.0,masculino,right,España,Castellano,Master degree,no,no,B,1,conjunction_syn,L1,syncopated,s2,r1,107,Online_conjL1_syn//d.ne.ni19.none.none.wav,la,ro,cho,pu,sil,ri,zu,ki,sil1,fo,sil2,['-'],,,none,none,,,,112:116,4,,,,,,,,,,,,,,,4.0,2.0,Castellano,0.0,Inglés,6.0,Francés,6.0,Valenciano,22.0,4.0,4.0,no,no,no,Nada,,,,Nada,72.0,yes
108,2024-02-12_15h09.35.233,Unsyncopated_study2,s104,23.0,masculino,right,España,Castellano,Master degree,no,no,B,1,conjunction_syn,L1,syncopated,s2,r1,108,Online_conjL1_syn//a.pu.ki29.666.1554.wav,ze,ne,ro,pu,sil,lu,la,ki,sil1,fo,sil2,['miss'],,,0.666,no_beat,,,,28:32,1,,,,,,,,,,,,,,,4.0,2.0,Castellano,0.0,Inglés,6.0,Francés,6.0,Valenciano,22.0,4.0,4.0,no,no,no,Nada,,,,Nada,72.0,yes
109,2024-02-12_15h09.35.233,Unsyncopated_study2,s104,23.0,masculino,right,España,Castellano,Master degree,no,no,B,1,conjunction_syn,L1,syncopated,s1,r2,109,Online_conjL1_syn//a.pu.ki30.none.none.wav,ta,fa,ro,be,sil,ni,zu,la,sil1,ze,sil2,['-'],,,none,none,,,,28:32,1,,,,,,,,,,,,,,,4.0,2.0,Castellano,0.0,Inglés,6.0,Francés,6.0,Valenciano,22.0,4.0,4.0,no,no,no,Nada,,,,Nada,72.0,yes
110,2024-02-12_15h09.35.233,Unsyncopated_study2,s104,23.0,masculino,right,España,Castellano,Master degree,no,no,B,1,conjunction_syn,L1,syncopated,s2,r1,110,Online_conjL1_syn//a.pu.ki28.666.1554.wav,cho,ro,fo,pu,sil,ze,ni,ki,sil1,zu,sil2,['catch'],[1.9256000001430493],[1.9256000001430493],0.666,no_beat,,1.2596000001430494,"[""space""]",28:32,1,,,,,,,,,,,,,,,4.0,2.0,Castellano,0.0,Inglés,6.0,Francés,6.0,Valenciano,22.0,4.0,4.0,no,no,no,Nada,,,,Nada,72.0,yes
111,2024-02-12_15h09.35.233,Unsyncopated_study2,s104,23.0,masculino,right,España,Castellano,Master degree,no,no,B,1,conjunction_syn,L1,syncopated,s2,r2,111,Online_conjL1_syn//a.pu.ki31.none.none.wav,lu,fo,fa,ta,sil,ro,ni,be,sil1,la,sil2,['-'],,,none,none,,,,28:32,1,,,,,,,,,,,,,,,4.0,2.0,Castellano,0.0,Inglés,6.0,Francés,6.0,Valenciano,22.0,4.0,4.0,no,no,no,Nada,,,,Nada,72.0,yes
112,2024-02-12_15h09.35.233,Unsyncopated_study2,s104,23.0,masculino,right,España,Castellano,Master degree,no,no,B,1,conjunction_syn,L1,syncopated,s2,r1,112,Online_conjL1_syn//a.pu.ki25.666.1554.wav,cho,la,ro,pu,sil,ze,ne,ki,sil1,ri,sil2,['catch'],[1.3138999998569716],[1.3138999998569716],0.666,no_beat,0.6478999998569716,0.6478999998569716,"[""space""]",24:28,1,,,,,,,,,,,,,,,4.0,2.0,Castellano,0.0,Inglés,6.0,Francés,6.0,Valenciano,22.0,4.0,4.0,no,no,no,Nada,,,,Nada,72.0,yes
113,2024-02-12_15h09.35.233,Unsyncopated_study2,s104,23.0,masculino,right,España,Castellano,Master degree,no,no,B,1,conjunction_syn,L1,syncopated,s1,r2,113,Online_conjL1_syn//a.pu.ki24.none.none.wav,ta,ne,la,be,sil,ri,fa,ze,sil1,zu,sil2,['-'],,,none,none,,,,24:28,1,,,,,,,,,,,,,,,4.0,2.0,Castellano,0.0,Inglés,6.0,Francés,6.0,Valenciano,22.0,4.0,4.0,no,no,no,Nada,,,,Nada,72.0,yes
114,2024-02-12_15h09.35.233,Unsyncopated_study2,s104,23.0,masculino,right,España,Castellano,Master degree,no,no,B,1,conjunction_syn,L1,syncopated,s1,r2,114,Online_conjL1_syn//a.pu.ki26.none.none.wav,ta,zu,lu,be,sil,ro,la,ri,sil1,fa,sil2,['-'],,,none,none,,,,24:28,1,,,,,,,,,,,,,,,4.0,2.0,Castellano,0.0,Inglés,6.0,Francés,6.0,Valenciano,22.0,4.0,4.0,no,no,no,Nada,,,,Nada,72.0,yes
115,2024-02-12_15h09.35.233,Unsyncopated_study2,s104,23.0,masculino,right,España,Castellano,Master degree,no,no,B,1,conjunction_syn,L1,syncopated,s1,r1,115,Online_conjL1_syn//a.pu.ki27.0.666.wav,pu,ze,lu,ki,sil,cho,fa,fo,sil1,ni,sil2,['catch'],[0.6974000000953993],[0.6974000000953993],0.0,beat,0.6974000000953993,0.6974000000953993,"[""space""]",24:28,1,,,,,,,,,,,,,,,4.0,2.0,Castellano,0.0,Inglés,6.0,Francés,6.0,Valenciano,22.0,4.0,4.0,no,no,no,Nada,,,,Nada,72.0,yes
116,2024-02-12_15h09.35.233,Unsyncopated_study2,s104,23.0,masculino,right,España,Castellano,Master degree,no,no,B,1,conjunction_syn,L1,syncopated,s1,r1,116,Online_conjL1_syn//c.ro.fo7.none.none.wav,pu,zu,la,ki,sil,ze,ne,lu,sil1,ri,sil2,['-'],,,none,none,,,,68:72,3,,,,,,,,,,,,,,,4.0,2.0,Castellano,0.0,Inglés,6.0,Francés,6.0,Valenciano,22.0,4.0,4.0,no,no,no,Nada,,,,Nada,72.0,yes
117,2024-02-12_15h09.35.233,Unsyncopated_study2,s104,23.0,masculino,right,España,Castellano,Master degree,no,no,B,1,conjunction_syn,L1,syncopated,s2,r1,117,Online_conjL1_syn//c.ro.fo5.1332.0.wav,fo,zu,cho,pu,sil,ni,ro,ki,sil1,fa,sil2,['catch'],[0.8724999999999454],[0.8724999999999454],0.0,beat,0.8724999999999454,0.8724999999999454,"[""space""]",68:72,3,,,,,,,,,,,,,,,4.0,2.0,Castellano,0.0,Inglés,6.0,Francés,6.0,Valenciano,22.0,4.0,4.0,no,no,no,Nada,,,,Nada,72.0,yes
118,2024-02-12_15h09.35.233,Unsyncopated_study2,s104,23.0,masculino,right,España,Castellano,Master degree,no,no,B,1,conjunction_syn,L1,syncopated,s1,r2,118,Online_conjL1_syn//c.ro.fo4.444.1110.wav,ta,ze,ro,be,sil,fo,ni,cho,sil1,zu,sil2,['miss'],,,1.11,no_beat,,,,68:72,3,,,,,,,,,,,,,,,4.0,2.0,Castellano,0.0,Inglés,6.0,Francés,6.0,Valenciano,22.0,4.0,4.0,no,no,no,Nada,,,,Nada,72.0,yes
119,2024-02-12_15h09.35.233,Unsyncopated_study2,s104,23.0,masculino,right,España,Castellano,Master degree,no,no,B,1,conjunction_syn,L1,syncopated,s1,r2,119,Online_conjL1_syn//c.ro.fo6.none.none.wav,ta,fa,ni,be,sil,la,ne,cho,sil1,ze,sil2,['-'],,,none,none,,,,68:72,3,,,,,,,,,,,,,,,4.0,2.0,Castellano,0.0,Inglés,6.0,Francés,6.0,Valenciano,22.0,4.0,4.0,no,no,no,Nada,,,,Nada,72.0,yes
120,2024-02-12_15h09.35.233,Unsyncopated_study2,s104,23.0,masculino,right,España,Castellano,Master degree,no,no,B,1,conjunction_syn,L1,syncopated,s1,r1,120,Online_conjL1_syn//b.ta.be12.none.none.wav,pu,ro,lu,ki,sil,ri,fa,ni,sil1,cho,sil2,['-'],,,none,none,,,,44:48,2,,,,,,,,,,,,,,,4.0,2.0,Castellano,0.0,Inglés,6.0,Francés,6.0,Valenciano,22.0,4.0,4.0,no,no,no,Nada,,,,Nada,72.0,yes
121,2024-02-12_15h09.35.233,Unsyncopated_study2,s104,23.0,masculino,right,España,Castellano,Master degree,no,no,B,1,conjunction_syn,L1,syncopated,s1,r2,121,Online_conjL1_syn//b.ta.be13.0.666.wav,ta,ni,fo,be,sil,ze,ne,fa,sil1,ri,sil2,['catch'],[1.290099999904669],[1.290099999904669],0.666,no_beat,0.6240999999046689,0.6240999999046689,"[""space""]",44:48,2,,,,,,,,,,,,,,,4.0,2.0,Castellano,0.0,Inglés,6.0,Francés,6.0,Valenciano,22.0,4.0,4.0,no,no,no,Nada,,,,Nada,72.0,yes
122,2024-02-12_15h09.35.233,Unsyncopated_study2,s104,23.0,masculino,right,España,Castellano,Master degree,no,no,B,1,conjunction_syn,L1,syncopated,s2,r1,122,Online_conjL1_syn//b.ta.be15.none.none.wav,la,ni,lu,pu,sil,ri,cho,ki,sil1,fa,sil2,['-'],,,none,none,,,,44:48,2,,,,,,,,,,,,,,,4.0,2.0,Castellano,0.0,Inglés,6.0,Francés,6.0,Valenciano,22.0,4.0,4.0,no,no,no,Nada,,,,Nada,72.0,yes
123,2024-02-12_15h09.35.233,Unsyncopated_study2,s104,23.0,masculino,right,España,Castellano,Master degree,no,no,B,1,conjunction_syn,L1,syncopated,s1,r2,123,Online_conjL1_syn//b.ta.be14.0.666.wav,ta,la,fa,be,sil,ni,fo,ro,sil1,lu,sil2,['catch'],[1.4377000000476983],[1.4377000000476983],0.666,no_beat,0.7717000000476982,0.7717000000476982,"[""space""]",44:48,2,,,,,,,,,,,,,,,4.0,2.0,Castellano,0.0,Inglés,6.0,Francés,6.0,Valenciano,22.0,4.0,4.0,no,no,no,Nada,,,,Nada,72.0,yes
124,2024-02-12_15h09.35.233,Unsyncopated_study2,s104,23.0,masculino,right,España,Castellano,Master degree,no,no,B,1,conjunction_syn,L1,syncopated,s2,r1,124,Online_conjL1_syn//a.pu.ki20.666.1554.wav,ro,lu,ni,pu,sil,la,fo,ki,sil1,cho,sil2,['catch'],[1.3552000000476028],[1.3552000000476028],0.666,no_beat,0.6892000000476027,0.6892000000476027,"[""space""]",20:24,1,,,,,,,,,,,,,,,4.0,2.0,Castellano,0.0,Inglés,6.0,Francés,6.0,Valenciano,22.0,4.0,4.0,no,no,no,Nada,,,,Nada,72.0,yes
125,2024-02-12_15h09.35.233,Unsyncopated_study2,s104,23.0,masculino,right,España,Castellano,Master degree,no,no,B,1,conjunction_syn,L1,syncopated,s2,r2,125,Online_conjL1_syn//a.pu.ki21.none.none.wav,ro,fa,ni,ta,sil,ri,la,be,sil1,lu,sil2,['-'],,,none,none,,,,20:24,1,,,,,,,,,,,,,,,4.0,2.0,Castellano,0.0,Inglés,6.0,Francés,6.0,Valenciano,22.0,4.0,4.0,no,no,no,Nada,,,,Nada,72.0,yes
126,2024-02-12_15h09.35.233,Unsyncopated_study2,s104,23.0,masculino,right,España,Castellano,Master degree,no,no,B,1,conjunction_syn,L1,syncopated,s2,r2,126,Online_conjL1_syn//a.pu.ki22.none.none.wav,fo,ri,ni,ta,sil,lu,la,be,sil1,cho,sil2,['-'],,,none,none,,,,20:24,1,,,,,,,,,,,,,,,4.0,2.0,Castellano,0.0,Inglés,6.0,Francés,6.0,Valenciano,22.0,4.0,4.0,no,no,no,Nada,,,,Nada,72.0,yes
127,2024-02-12_15h09.35.233,Unsyncopated_study2,s104,23.0,masculino,right,España,Castellano,Master degree,no,no,B,1,conjunction_syn,L1,syncopated,s2,r1,127,Online_conjL1_syn//a.pu.ki23.666.1554.wav,ni,la,ro,pu,sil,fo,zu,ki,sil1,ze,sil2,['miss'],,,0.666,no_beat,,,,20:24,1,,,,,,,,,,,,,,,4.0,2.0,Castellano,0.0,Inglés,6.0,Francés,6.0,Valenciano,22.0,4.0,4.0,no,no,no,Nada,,,,Nada,72.0,yes
128,2024-02-12_15h09.35.233,Unsyncopated_study2,s104,23.0,masculino,right,España,Castellano,Master degree,no,no,B,2,when,L4,unsyncopated,when,when,0,Online_whenL4//c.bu8.444.wav,nu,bo,bu,sil,ñi,re,zi,sil1,pe,ci,sil2,['catch'],[0.9764999999999873],[0.9764999999999873],0.444,no_beat,0.5324999999999873,0.5324999999999873,"[""space""]",80:84,3,,,,,,,,,,,,,,,4.0,2.0,Castellano,0.0,Inglés,6.0,Francés,6.0,Valenciano,22.0,4.0,4.0,no,no,no,Nada,,,,Nada,72.0,yes
129,2024-02-12_15h09.35.233,Unsyncopated_study2,s104,23.0,masculino,right,España,Castellano,Master degree,no,no,B,2,when,L4,unsyncopated,when,when,1,Online_whenL4//c.bu10.0.wav,bu,ñi,da,sil,ña,ja,re,sil1,nu,ci,sil2,['catch'],[0.5422000000476146],[0.5422000000476146],0.0,beat,0.5422000000476146,0.5422000000476146,"[""space""]",80:84,3,,,,,,,,,,,,,,,4.0,2.0,Castellano,0.0,Inglés,6.0,Francés,6.0,Valenciano,22.0,4.0,4.0,no,no,no,Nada,,,,Nada,72.0,yes
130,2024-02-12_15h09.35.233,Unsyncopated_study2,s104,23.0,masculino,right,España,Castellano,Master degree,no,no,B,2,when,L4,unsyncopated,when,when,2,Online_whenL4//c.bu11.none.wav,ña,pe,re,sil,nu,bo,lo,sil1,ci,de,sil2,['-'],,,none,none,,,,80:84,3,,,,,,,,,,,,,,,4.0,2.0,Castellano,0.0,Inglés,6.0,Francés,6.0,Valenciano,22.0,4.0,4.0,no,no,no,Nada,,,,Nada,72.0,yes
131,2024-02-12_15h09.35.233,Unsyncopated_study2,s104,23.0,masculino,right,España,Castellano,Master degree,no,no,B,2,when,L4,unsyncopated,when,when,3,Online_whenL4//c.bu9.444.wav,bo,ja,bu,sil,lo,re,pe,sil1,ci,po,sil2,['catch'],[1.0035999999045089],[1.0035999999045089],0.444,no_beat,0.5595999999045089,0.5595999999045089,"[""space""]",80:84,3,,,,,,,,,,,,,,,4.0,2.0,Castellano,0.0,Inglés,6.0,Francés,6.0,Valenciano,22.0,4.0,4.0,no,no,no,Nada,,,,Nada,72.0,yes
132,2024-02-12_15h09.35.233,Unsyncopated_study2,s104,23.0,masculino,right,España,Castellano,Master degree,no,no,B,2,when,L4,unsyncopated,when,when,4,Online_whenL4//a.lo32.1776.wav,bu,pe,ru,sil,ñi,po,ci,sil1,lo,ja,sil2,['catch'],[2.2269999999998618],[2.2269999999998618],1.776,beat,0.4509999999998617,0.4509999999998617,"[""space""]",32:36,1,,,,,,,,,,,,,,,4.0,2.0,Castellano,0.0,Inglés,6.0,Francés,6.0,Valenciano,22.0,4.0,4.0,no,no,no,Nada,,,,Nada,72.0,yes
133,2024-02-12_15h09.35.233,Unsyncopated_study2,s104,23.0,masculino,right,España,Castellano,Master degree,no,no,B,2,when,L4,unsyncopated,when,when,5,Online_whenL4//a.lo34.0.wav,lo,po,ña,sil,de,ci,pe,sil1,ñi,nu,sil2,['catch'],[0.694900000095231],[0.694900000095231],0.0,beat,0.694900000095231,0.694900000095231,"[""space""]",32:36,1,,,,,,,,,,,,,,,4.0,2.0,Castellano,0.0,Inglés,6.0,Francés,6.0,Valenciano,22.0,4.0,4.0,no,no,no,Nada,,,,Nada,72.0,yes
134,2024-02-12_15h09.35.233,Unsyncopated_study2,s104,23.0,masculino,right,España,Castellano,Master degree,no,no,B,2,when,L4,unsyncopated,when,when,6,Online_whenL4//a.lo35.none.wav,zi,pe,ru,sil,bu,ñi,ja,sil1,ña,po,sil2,['-'],,,none,none,,,,32:36,1,,,,,,,,,,,,,,,4.0,2.0,Castellano,0.0,Inglés,6.0,Francés,6.0,Valenciano,22.0,4.0,4.0,no,no,no,Nada,,,,Nada,72.0,yes
135,2024-02-12_15h09.35.233,Unsyncopated_study2,s104,23.0,masculino,right,España,Castellano,Master degree,no,no,B,2,when,L4,unsyncopated,when,when,7,Online_whenL4//a.lo33.888.wav,ñi,bu,nu,sil,lo,de,ña,sil1,ci,po,sil2,['miss'],,,0.888,beat,,,,32:36,1,,,,,,,,,,,,,,,4.0,2.0,Castellano,0.0,Inglés,6.0,Francés,6.0,Valenciano,22.0,4.0,4.0,no,no,no,Nada,,,,Nada,72.0,yes
136,2024-02-12_15h09.35.233,Unsyncopated_study2,s104,23.0,masculino,right,España,Castellano,Master degree,no,no,B,2,when,L4,unsyncopated,when,when,8,Online_whenL4//b.ja9.0.wav,ja,ci,re,sil,de,zi,pe,sil1,po,bu,sil2,['catch'],[0.6817000000478401],[0.6817000000478401],0.0,beat,0.6817000000478401,0.6817000000478401,"[""space""]",44:48,2,,,,,,,,,,,,,,,4.0,2.0,Castellano,0.0,Inglés,6.0,Francés,6.0,Valenciano,22.0,4.0,4.0,no,no,no,Nada,,,,Nada,72.0,yes
137,2024-02-12_15h09.35.233,Unsyncopated_study2,s104,23.0,masculino,right,España,Castellano,Master degree,no,no,B,2,when,L4,unsyncopated,when,when,9,Online_whenL4//b.ja10.none.wav,bu,lo,pe,sil,zi,po,ru,sil1,ci,de,sil2,['-'],,,none,none,,,,44:48,2,,,,,,,,,,,,,,,4.0,2.0,Castellano,0.0,Inglés,6.0,Francés,6.0,Valenciano,22.0,4.0,4.0,no,no,no,Nada,,,,Nada,72.0,yes
138,2024-02-12_15h09.35.233,Unsyncopated_study2,s104,23.0,masculino,right,España,Castellano,Master degree,no,no,B,2,when,L4,unsyncopated,when,when,10,Online_whenL4//b.ja11.444.wav,po,da,ja,sil,nu,ru,bo,sil1,pe,de,sil2,['catch'],[0.8262000000474927],[0.8262000000474927],0.444,no_beat,0.3822000000474927,0.3822000000474927,"[""space""]",44:48,2,,,,,,,,,,,,,,,4.0,2.0,Castellano,0.0,Inglés,6.0,Francés,6.0,Valenciano,22.0,4.0,4.0,no,no,no,Nada,,,,Nada,72.0,yes
139,2024-02-12_15h09.35.233,Unsyncopated_study2,s104,23.0,masculino,right,España,Castellano,Master degree,no,no,B,2,when,L4,unsyncopated,when,when,11,Online_whenL4//b.ja8.1998.wav,nu,de,da,sil,re,pe,ña,sil1,bu,ja,sil2,['miss'],,,1.998,no_beat,,,,44:48,2,,,,,,,,,,,,,,,4.0,2.0,Castellano,0.0,Inglés,6.0,Francés,6.0,Valenciano,22.0,4.0,4.0,no,no,no,Nada,,,,Nada,72.0,yes
140,2024-02-12_15h09.35.233,Unsyncopated_study2,s104,23.0,masculino,right,España,Castellano,Master degree,no,no,B,2,when,L4,unsyncopated,when,when,12,Online_whenL4//b.ja23.444.wav,bu,da,ja,sil,ña,de,nu,sil1,ñi,po,sil2,['catch'],[0.9645000000000437],[0.9645000000000437],0.444,no_beat,0.5205000000000437,0.5205000000000437,"[""space""]",56:60,2,,,,,,,,,,,,,,,4.0,2.0,Castellano,0.0,Inglés,6.0,Francés,6.0,Valenciano,22.0,4.0,4.0,no,no,no,Nada,,,,Nada,72.0,yes
141,2024-02-12_15h09.35.233,Unsyncopated_study2,s104,23.0,masculino,right,España,Castellano,Master degree,no,no,B,2,when,L4,unsyncopated,when,when,13,Online_whenL4//b.ja21.none.wav,bu,da,ci,sil,ru,nu,zi,sil1,de,po,sil2,['-'],,,none,none,,,,56:60,2,,,,,,,,,,,,,,,4.0,2.0,Castellano,0.0,Inglés,6.0,Francés,6.0,Valenciano,22.0,4.0,4.0,no,no,no,Nada,,,,Nada,72.0,yes
142,2024-02-12_15h09.35.233,Unsyncopated_study2,s104,23.0,masculino,right,España,Castellano,Master degree,no,no,B,2,when,L4,unsyncopated,when,when,14,Online_whenL4//b.ja22.1776.wav,da,ci,zi,sil,ña,ru,bo,sil1,ja,bu,sil2,['catch'],[2.2224000000953765],[2.2224000000953765],1.776,beat,0.4464000000953765,0.4464000000953765,"[""space""]",56:60,2,,,,,,,,,,,,,,,4.0,2.0,Castellano,0.0,Inglés,6.0,Francés,6.0,Valenciano,22.0,4.0,4.0,no,no,no,Nada,,,,Nada,72.0,yes
143,2024-02-12_15h09.35.233,Unsyncopated_study2,s104,23.0,masculino,right,España,Castellano,Master degree,no,no,B,2,when,L4,unsyncopated,when,when,15,Online_whenL4//b.ja20.0.wav,ja,bu,ñi,sil,bo,de,lo,sil1,ru,da,sil2,['catch'],[0.6539999999999964],[0.6539999999999964],0.0,beat,0.6539999999999964,0.6539999999999964,"[""space""]",56:60,2,,,,,,,,,,,,,,,4.0,2.0,Castellano,0.0,Inglés,6.0,Francés,6.0,Valenciano,22.0,4.0,4.0,no,no,no,Nada,,,,Nada,72.0,yes
144,2024-02-12_15h09.35.233,Unsyncopated_study2,s104,23.0,masculino,right,España,Castellano,Master degree,no,no,B,2,when,L4,unsyncopated,when,when,16,Online_whenL4//c.bu19.0.wav,bu,de,nu,sil,ja,ru,bo,sil1,ñi,pe,sil2,['catch'],[0.6179999999999382],[0.6179999999999382],0.0,beat,0.6179999999999382,0.6179999999999382,"[""space""]",88:92,3,,,,,,,,,,,,,,,4.0,2.0,Castellano,0.0,Inglés,6.0,Francés,6.0,Valenciano,22.0,4.0,4.0,no,no,no,Nada,,,,Nada,72.0,yes
145,2024-02-12_15h09.35.233,Unsyncopated_study2,s104,23.0,masculino,right,España,Castellano,Master degree,no,no,B,2,when,L4,unsyncopated,when,when,17,Online_whenL4//c.bu18.none.wav,da,re,zi,sil,pe,po,lo,sil1,ci,ña,sil2,['-'],,,none,none,,,,88:92,3,,,,,,,,,,,,,,,4.0,2.0,Castellano,0.0,Inglés,6.0,Francés,6.0,Valenciano,22.0,4.0,4.0,no,no,no,Nada,,,,Nada,72.0,yes
146,2024-02-12_15h09.35.233,Unsyncopated_study2,s104,23.0,masculino,right,España,Castellano,Master degree,no,no,B,2,when,L4,unsyncopated,when,when,18,Online_whenL4//c.bu17.none.wav,bo,zi,de,sil,ña,nu,ci,sil1,ru,po,sil2,['-'],,,none,none,,,,88:92,3,,,,,,,,,,,,,,,4.0,2.0,Castellano,0.0,Inglés,6.0,Francés,6.0,Valenciano,22.0,4.0,4.0,no,no,no,Nada,,,,Nada,72.0,yes
147,2024-02-12_15h09.35.233,Unsyncopated_study2,s104,23.0,masculino,right,España,Castellano,Master degree,no,no,B,2,when,L4,unsyncopated,when,when,19,Online_whenL4//c.bu16.0.wav,bu,ñi,pe,sil,ru,zi,bo,sil1,de,lo,sil2,['catch'],[0.3724000000952401],[0.3724000000952401],0.0,beat,0.3724000000952401,0.3724000000952401,"[""space""]",88:92,3,,,,,,,,,,,,,,,4.0,2.0,Castellano,0.0,Inglés,6.0,Francés,6.0,Valenciano,22.0,4.0,4.0,no,no,no,Nada,,,,Nada,72.0,yes
148,2024-02-12_15h09.35.233,Unsyncopated_study2,s104,23.0,masculino,right,España,Castellano,Master degree,no,no,B,2,when,L4,unsyncopated,when,when,20,Online_whenL4//b.ja2.none.wav,ci,ru,zi,sil,da,de,pe,sil1,re,lo,sil2,['-'],,,none,none,,,,36:40,2,,,,,,,,,,,,,,,4.0,2.0,Castellano,0.0,Inglés,6.0,Francés,6.0,Valenciano,22.0,4.0,4.0,no,no,no,Nada,,,,Nada,72.0,yes
149,2024-02-12_15h09.35.233,Unsyncopated_study2,s104,23.0,masculino,right,España,Castellano,Master degree,no,no,B,2,when,L4,unsyncopated,when,when,21,Online_whenL4//b.ja0.222.wav,re,ja,da,sil,ci,ru,bo,sil1,bu,lo,sil2,['catch'],[0.6938000001907767],[0.6938000001907767],0.222,no_beat,0.4718000001907767,0.4718000001907767,"[""space""]",36:40,2,,,,,,,,,,,,,,,4.0,2.0,Castellano,0.0,Inglés,6.0,Francés,6.0,Valenciano,22.0,4.0,4.0,no,no,no,Nada,,,,Nada,72.0,yes
150,2024-02-12_15h09.35.233,Unsyncopated_study2,s104,23.0,masculino,right,España,Castellano,Master degree,no,no,B,2,when,L4,unsyncopated,when,when,22,Online_whenL4//b.ja1.none.wav,lo,re,po,sil,bu,de,ña,sil1,da,nu,sil2,['-'],,,none,none,,,,36:40,2,,,,,,,,,,,,,,,4.0,2.0,Castellano,0.0,Inglés,6.0,Francés,6.0,Valenciano,22.0,4.0,4.0,no,no,no,Nada,,,,Nada,72.0,yes
151,2024-02-12_15h09.35.233,Unsyncopated_study2,s104,23.0,masculino,right,España,Castellano,Master degree,no,no,B,2,when,L4,unsyncopated,when,when,23,Online_whenL4//b.ja3.none.wav,nu,da,po,sil,ru,zi,bu,sil1,re,ña,sil2,['-'],,,none,none,,,,36:40,2,,,,,,,,,,,,,,,4.0,2.0,Castellano,0.0,Inglés,6.0,Francés,6.0,Valenciano,22.0,4.0,4.0,no,no,no,Nada,,,,Nada,72.0,yes
152,2024-02-12_15h09.35.233,Unsyncopated_study2,s104,23.0,masculino,right,España,Castellano,Master degree,no,no,B,2,when,L4,unsyncopated,when,when,24,Online_whenL4//a.lo14.none.wav,bu,ru,nu,sil,zi,bo,pe,sil1,da,ñi,sil2,['-'],,,none,none,,,,12:16,1,,,,,,,,,,,,,,,4.0,2.0,Castellano,0.0,Inglés,6.0,Francés,6.0,Valenciano,22.0,4.0,4.0,no,no,no,Nada,,,,Nada,72.0,yes
153,2024-02-12_15h09.35.233,Unsyncopated_study2,s104,23.0,masculino,right,España,Castellano,Master degree,no,no,B,2,when,L4,unsyncopated,when,when,25,Online_whenL4//a.lo13.1776.wav,re,ña,ru,sil,ci,ja,ñi,sil1,lo,pe,sil2,['catch'],[2.262899999856927],[2.262899999856927],1.776,beat,0.486899999856927,0.486899999856927,"[""space""]",12:16,1,,,,,,,,,,,,,,,4.0,2.0,Castellano,0.0,Inglés,6.0,Francés,6.0,Valenciano,22.0,4.0,4.0,no,no,no,Nada,,,,Nada,72.0,yes
154,2024-02-12_15h09.35.233,Unsyncopated_study2,s104,23.0,masculino,right,España,Castellano,Master degree,no,no,B,2,when,L4,unsyncopated,when,when,26,Online_whenL4//a.lo15.1776.wav,de,pe,da,sil,ñi,po,re,sil1,lo,ja,sil2,['catch'],[2.3814000000952547],[2.3814000000952547],1.776,beat,0.6054000000952546,0.6054000000952546,"[""space""]",12:16,1,,,,,,,,,,,,,,,4.0,2.0,Castellano,0.0,Inglés,6.0,Francés,6.0,Valenciano,22.0,4.0,4.0,no,no,no,Nada,,,,Nada,72.0,yes
155,2024-02-12_15h09.35.233,Unsyncopated_study2,s104,23.0,masculino,right,España,Castellano,Master degree,no,no,B,2,when,L4,unsyncopated,when,when,27,Online_whenL4//a.lo12.none.wav,nu,bu,zi,sil,ñi,bo,ci,sil1,ru,ña,sil2,['-'],,,none,none,,,,12:16,1,,,,,,,,,,,,,,,4.0,2.0,Castellano,0.0,Inglés,6.0,Francés,6.0,Valenciano,22.0,4.0,4.0,no,no,no,Nada,,,,Nada,72.0,yes
156,2024-02-12_15h09.35.233,Unsyncopated_study2,s104,23.0,masculino,right,España,Castellano,Master degree,no,no,B,2,when,L4,unsyncopated,when,when,28,Online_whenL4//b.ja19.none.wav,ñi,da,nu,sil,ña,bo,de,sil1,po,lo,sil2,['-'],,,none,none,,,,52:56,2,,,,,,,,,,,,,,,4.0,2.0,Castellano,0.0,Inglés,6.0,Francés,6.0,Valenciano,22.0,4.0,4.0,no,no,no,Nada,,,,Nada,72.0,yes
157,2024-02-12_15h09.35.233,Unsyncopated_study2,s104,23.0,masculino,right,España,Castellano,Master degree,no,no,B,2,when,L4,unsyncopated,when,when,29,Online_whenL4//b.ja18.none.wav,bo,re,ru,sil,de,lo,zi,sil1,ci,ña,sil2,['-'],,,none,none,,,,52:56,2,,,,,,,,,,,,,,,4.0,2.0,Castellano,0.0,Inglés,6.0,Francés,6.0,Valenciano,22.0,4.0,4.0,no,no,no,Nada,,,,Nada,72.0,yes
158,2024-02-12_15h09.35.233,Unsyncopated_study2,s104,23.0,masculino,right,España,Castellano,Master degree,no,no,B,2,when,L4,unsyncopated,when,when,30,Online_whenL4//b.ja16.1110.wav,re,ci,bu,sil,de,ja,ru,sil1,pe,nu,sil2,['catch'],[1.5222000000476328],[1.5222000000476328],1.11,no_beat,0.4122000000476327,0.4122000000476327,"[""space""]",52:56,2,,,,,,,,,,,,,,,4.0,2.0,Castellano,0.0,Inglés,6.0,Francés,6.0,Valenciano,22.0,4.0,4.0,no,no,no,Nada,,,,Nada,72.0,yes
159,2024-02-12_15h09.35.233,Unsyncopated_study2,s104,23.0,masculino,right,España,Castellano,Master degree,no,no,B,2,when,L4,unsyncopated,when,when,31,Online_whenL4//b.ja17.none.wav,pe,ru,ñi,sil,zi,lo,re,sil1,de,bu,sil2,['-'],,,none,none,,,,52:56,2,,,,,,,,,,,,,,,4.0,2.0,Castellano,0.0,Inglés,6.0,Francés,6.0,Valenciano,22.0,4.0,4.0,no,no,no,Nada,,,,Nada,72.0,yes
160,2024-02-12_15h09.35.233,Unsyncopated_study2,s104,23.0,masculino,right,España,Castellano,Master degree,no,no,B,2,when,L4,unsyncopated,when,when,32,Online_whenL4//b.ja34.1776.wav,re,bo,da,sil,zi,bu,ña,sil1,ja,ci,sil2,['catch'],[2.4504000000952146],[2.4504000000952146],1.776,beat,0.6744000000952146,0.6744000000952146,"[""space""]",68:72,2,,,,,,,,,,,,,,,4.0,2.0,Castellano,0.0,Inglés,6.0,Francés,6.0,Valenciano,22.0,4.0,4.0,no,no,no,Nada,,,,Nada,72.0,yes
161,2024-02-12_15h09.35.233,Unsyncopated_study2,s104,23.0,masculino,right,España,Castellano,Master degree,no,no,B,2,when,L4,unsyncopated,when,when,33,Online_whenL4//b.ja33.none.wav,ci,po,nu,sil,ñi,zi,pe,sil1,re,bu,sil2,['-'],,,none,none,,,,68:72,2,,,,,,,,,,,,,,,4.0,2.0,Castellano,0.0,Inglés,6.0,Francés,6.0,Valenciano,22.0,4.0,4.0,no,no,no,Nada,,,,Nada,72.0,yes
162,2024-02-12_15h09.35.233,Unsyncopated_study2,s104,23.0,masculino,right,España,Castellano,Master degree,no,no,B,2,when,L4,unsyncopated,when,when,34,Online_whenL4//b.ja35.1998.wav,ru,re,da,sil,lo,bo,ña,sil1,po,ja,sil2,['catch'],[2.496400000095491],[2.496400000095491],1.998,no_beat,0.4984000000954911,0.4984000000954911,"[""space""]",68:72,2,,,,,,,,,,,,,,,4.0,2.0,Castellano,0.0,Inglés,6.0,Francés,6.0,Valenciano,22.0,4.0,4.0,no,no,no,Nada,,,,Nada,72.0,yes
163,2024-02-12_15h09.35.233,Unsyncopated_study2,s104,23.0,masculino,right,España,Castellano,Master degree,no,no,B,2,when,L4,unsyncopated,when,when,35,Online_whenL4//b.ja32.none.wav,ru,bu,de,sil,ña,lo,nu,sil1,re,ci,sil2,['-'],,,none,none,,,,68:72,2,,,,,,,,,,,,,,,4.0,2.0,Castellano,0.0,Inglés,6.0,Francés,6.0,Valenciano,22.0,4.0,4.0,no,no,no,Nada,,,,Nada,72.0,yes
164,2024-02-12_15h09.35.233,Unsyncopated_study2,s104,23.0,masculino,right,España,Castellano,Master degree,no,no,B,2,when,L4,unsyncopated,when,when,36,Online_whenL4//d.pe21.none.wav,ci,lo,bu,sil,ña,po,ja,sil1,bo,ru,sil2,['false alarm'],[1.7857000000476546],[1.7857000000476546],none,none,,,"[""space""]",124:128,4,,,,,,,,,,,,,,,4.0,2.0,Castellano,0.0,Inglés,6.0,Francés,6.0,Valenciano,22.0,4.0,4.0,no,no,no,Nada,,,,Nada,72.0,yes
165,2024-02-12_15h09.35.233,Unsyncopated_study2,s104,23.0,masculino,right,España,Castellano,Master degree,no,no,B,2,when,L4,unsyncopated,when,when,37,Online_whenL4//d.pe23.444.wav,po,ja,pe,sil,de,ru,re,sil1,lo,bo,sil2,['catch'],[0.9712999999524072],[0.9712999999524072],0.444,no_beat,0.5272999999524073,0.5272999999524073,"[""space""]",124:128,4,,,,,,,,,,,,,,,4.0,2.0,Castellano,0.0,Inglés,6.0,Francés,6.0,Valenciano,22.0,4.0,4.0,no,no,no,Nada,,,,Nada,72.0,yes
166,2024-02-12_15h09.35.233,Unsyncopated_study2,s104,23.0,masculino,right,España,Castellano,Master degree,no,no,B,2,when,L4,unsyncopated,when,when,38,Online_whenL4//d.pe20.none.wav,bu,lo,po,sil,ru,ñi,ja,sil1,ña,de,sil2,['-'],,,none,none,,,,124:128,4,,,,,,,,,,,,,,,4.0,2.0,Castellano,0.0,Inglés,6.0,Francés,6.0,Valenciano,22.0,4.0,4.0,no,no,no,Nada,,,,Nada,72.0,yes
167,2024-02-12_15h09.35.233,Unsyncopated_study2,s104,23.0,masculino,right,España,Castellano,Master degree,no,no,B,2,when,L4,unsyncopated,when,when,39,Online_whenL4//d.pe22.0.wav,pe,zi,ña,sil,lo,ci,ñi,sil1,re,da,sil2,['catch'],[0.47359999990453616],[0.47359999990453616],0.0,beat,0.4735999999045361,0.4735999999045361,"[""space""]",124:128,4,,,,,,,,,,,,,,,4.0,2.0,Castellano,0.0,Inglés,6.0,Francés,6.0,Valenciano,22.0,4.0,4.0,no,no,no,Nada,,,,Nada,72.0,yes
168,2024-02-12_15h09.35.233,Unsyncopated_study2,s104,23.0,masculino,right,España,Castellano,Master degree,no,no,B,2,when,L4,unsyncopated,when,when,40,Online_whenL4//d.pe30.none.wav,ru,lo,po,sil,nu,de,da,sil1,ña,ñi,sil2,['-'],,,none,none,,,,132:136,4,,,,,,,,,,,,,,,4.0,2.0,Castellano,0.0,Inglés,6.0,Francés,6.0,Valenciano,22.0,4.0,4.0,no,no,no,Nada,,,,Nada,72.0,yes
169,2024-02-12_15h09.35.233,Unsyncopated_study2,s104,23.0,masculino,right,España,Castellano,Master degree,no,no,B,2,when,L4,unsyncopated,when,when,41,Online_whenL4//d.pe31.1332.wav,bu,re,ru,sil,ja,de,pe,sil1,ci,zi,sil2,['catch'],[1.8942999999521817],[1.8942999999521817],1.332,no_beat,0.5622999999521816,0.5622999999521816,"[""space""]",132:136,4,,,,,,,,,,,,,,,4.0,2.0,Castellano,0.0,Inglés,6.0,Francés,6.0,Valenciano,22.0,4.0,4.0,no,no,no,Nada,,,,Nada,72.0,yes
170,2024-02-12_15h09.35.233,Unsyncopated_study2,s104,23.0,masculino,right,España,Castellano,Master degree,no,no,B,2,when,L4,unsyncopated,when,when,42,Online_whenL4//d.pe29.none.wav,da,po,ja,sil,bu,bo,lo,sil1,ña,de,sil2,['-'],,,none,none,,,,132:136,4,,,,,,,,,,,,,,,4.0,2.0,Castellano,0.0,Inglés,6.0,Francés,6.0,Valenciano,22.0,4.0,4.0,no,no,no,Nada,,,,Nada,72.0,yes
171,2024-02-12_15h09.35.233,Unsyncopated_study2,s104,23.0,masculino,right,España,Castellano,Master degree,no,no,B,2,when,L4,unsyncopated,when,when,43,Online_whenL4//d.pe28.none.wav,bo,nu,lo,sil,ru,re,bu,sil1,po,da,sil2,['-'],,,none,none,,,,132:136,4,,,,,,,,,,,,,,,4.0,2.0,Castellano,0.0,Inglés,6.0,Francés,6.0,Valenciano,22.0,4.0,4.0,no,no,no,Nada,,,,Nada,72.0,yes
172,2024-02-12_15h09.35.233,Unsyncopated_study2,s104,23.0,masculino,right,España,Castellano,Master degree,no,no,B,2,when,L4,unsyncopated,when,when,44,Online_whenL4//b.ja15.444.wav,da,ci,ja,sil,bo,ru,pe,sil1,zi,bu,sil2,['catch'],[1.0089000000953092],[1.0089000000953092],0.444,no_beat,0.5649000000953093,0.5649000000953093,"[""space""]",48:52,2,,,,,,,,,,,,,,,4.0,2.0,Castellano,0.0,Inglés,6.0,Francés,6.0,Valenciano,22.0,4.0,4.0,no,no,no,Nada,,,,Nada,72.0,yes
173,2024-02-12_15h09.35.233,Unsyncopated_study2,s104,23.0,masculino,right,España,Castellano,Master degree,no,no,B,2,when,L4,unsyncopated,when,when,45,Online_whenL4//b.ja13.none.wav,bo,de,ña,sil,re,bu,lo,sil1,pe,zi,sil2,['-'],,,none,none,,,,48:52,2,,,,,,,,,,,,,,,4.0,2.0,Castellano,0.0,Inglés,6.0,Francés,6.0,Valenciano,22.0,4.0,4.0,no,no,no,Nada,,,,Nada,72.0,yes
174,2024-02-12_15h09.35.233,Unsyncopated_study2,s104,23.0,masculino,right,España,Castellano,Master degree,no,no,B,2,when,L4,unsyncopated,when,when,46,Online_whenL4//b.ja14.888.wav,zi,ña,po,sil,ja,bu,de,sil1,bo,ru,sil2,['catch'],[1.4989000000953183],[1.4989000000953183],0.888,beat,0.6109000000953183,0.6109000000953183,"[""space""]",48:52,2,,,,,,,,,,,,,,,4.0,2.0,Castellano,0.0,Inglés,6.0,Francés,6.0,Valenciano,22.0,4.0,4.0,no,no,no,Nada,,,,Nada,72.0,yes
175,2024-02-12_15h09.35.233,Unsyncopated_study2,s104,23.0,masculino,right,España,Castellano,Master degree,no,no,B,2,when,L4,unsyncopated,when,when,47,Online_whenL4//b.ja12.444.wav,nu,ñi,ja,sil,pe,da,ña,sil1,re,ru,sil2,['miss'],,,0.444,no_beat,,,,48:52,2,,,,,,,,,,,,,,,4.0,2.0,Castellano,0.0,Inglés,6.0,Francés,6.0,Valenciano,22.0,4.0,4.0,no,no,no,Nada,,,,Nada,72.0,yes
176,2024-02-12_15h09.35.233,Unsyncopated_study2,s104,23.0,masculino,right,España,Castellano,Master degree,no,no,B,2,when,L4,unsyncopated,when,when,48,Online_whenL4//c.bu14.none.wav,zi,ñi,ja,sil,re,da,de,sil1,ru,bo,sil2,['-'],,,none,none,,,,84:88,3,,,,,,,,,,,,,,,4.0,2.0,Castellano,0.0,Inglés,6.0,Francés,6.0,Valenciano,22.0,4.0,4.0,no,no,no,Nada,,,,Nada,72.0,yes
177,2024-02-12_15h09.35.233,Unsyncopated_study2,s104,23.0,masculino,right,España,Castellano,Master degree,no,no,B,2,when,L4,unsyncopated,when,when,49,Online_whenL4//c.bu12.444.wav,ña,nu,bu,sil,bo,ñi,da,sil1,ru,lo,sil2,['catch'],[1.0326000001430202],[1.0326000001430202],0.444,no_beat,0.5886000001430203,0.5886000001430203,"[""space""]",84:88,3,,,,,,,,,,,,,,,4.0,2.0,Castellano,0.0,Inglés,6.0,Francés,6.0,Valenciano,22.0,4.0,4.0,no,no,no,Nada,,,,Nada,72.0,yes
178,2024-02-12_15h09.35.233,Unsyncopated_study2,s104,23.0,masculino,right,España,Castellano,Master degree,no,no,B,2,when,L4,unsyncopated,when,when,50,Online_whenL4//c.bu15.1776.wav,zi,re,po,sil,pe,ña,lo,sil1,bu,bo,sil2,['catch_delay'],[0.93679999995228],[0.93679999995228],1.776,beat,0.93679999995228,0.93679999995228,,84:88,3,,,,,,,,,,,,,,,4.0,2.0,Castellano,0.0,Inglés,6.0,Francés,6.0,Valenciano,22.0,4.0,4.0,no,no,no,Nada,,,,Nada,72.0,yes
179,2024-02-12_15h09.35.233,Unsyncopated_study2,s104,23.0,masculino,right,España,Castellano,Master degree,no,no,B,2,when,L4,unsyncopated,when,when,51,Online_whenL4//c.bu13.none.wav,bo,po,pe,sil,ja,ña,da,sil1,lo,de,sil2,['-'],[0.048799999952279904],[0.048799999952279904],none,none,,,"[""space""]",84:88,3,,,,,,,,,,,,,,,4.0,2.0,Castellano,0.0,Inglés,6.0,Francés,6.0,Valenciano,22.0,4.0,4.0,no,no,no,Nada,,,,Nada,72.0,yes
180,2024-02-12_15h09.35.233,Unsyncopated_study2,s104,23.0,masculino,right,España,Castellano,Master degree,no,no,B,2,when,L4,unsyncopated,when,when,52,Online_whenL4//d.pe19.none.wav,nu,ci,ñi,sil,de,po,ru,sil1,ña,zi,sil2,['false alarm'],[1.9277000000477074],[1.9277000000477074],none,none,,,"[""space""]",120:124,4,,,,,,,,,,,,,,,4.0,2.0,Castellano,0.0,Inglés,6.0,Francés,6.0,Valenciano,22.0,4.0,4.0,no,no,no,Nada,,,,Nada,72.0,yes
181,2024-02-12_15h09.35.233,Unsyncopated_study2,s104,23.0,masculino,right,España,Castellano,Master degree,no,no,B,2,when,L4,unsyncopated,when,when,53,Online_whenL4//d.pe18.none.wav,zi,re,po,sil,bo,ja,ci,sil1,ru,da,sil2,['-'],,,none,none,,,,120:124,4,,,,,,,,,,,,,,,4.0,2.0,Castellano,0.0,Inglés,6.0,Francés,6.0,Valenciano,22.0,4.0,4.0,no,no,no,Nada,,,,Nada,72.0,yes
182,2024-02-12_15h09.35.233,Unsyncopated_study2,s104,23.0,masculino,right,España,Castellano,Master degree,no,no,B,2,when,L4,unsyncopated,when,when,54,Online_whenL4//d.pe17.444.wav,ci,ru,pe,sil,ña,bu,zi,sil1,ñi,nu,sil2,['catch'],[0.9324000000951855],[0.9324000000951855],0.444,no_beat,0.4884000000951855,0.4884000000951855,"[""space""]",120:124,4,,,,,,,,,,,,,,,4.0,2.0,Castellano,0.0,Inglés,6.0,Francés,6.0,Valenciano,22.0,4.0,4.0,no,no,no,Nada,,,,Nada,72.0,yes
183,2024-02-12_15h09.35.233,Unsyncopated_study2,s104,23.0,masculino,right,España,Castellano,Master degree,no,no,B,2,when,L4,unsyncopated,when,when,55,Online_whenL4//d.pe16.888.wav,lo,bu,zi,sil,pe,ñi,da,sil1,ci,ña,sil2,['catch'],[2.4988999998570307],[2.4988999998570307],0.888,beat,,1.6108999998570308,"[""space""]",120:124,4,,,,,,,,,,,,,,,4.0,2.0,Castellano,0.0,Inglés,6.0,Francés,6.0,Valenciano,22.0,4.0,4.0,no,no,no,Nada,,,,Nada,72.0,yes
184,2024-02-12_15h09.35.233,Unsyncopated_study2,s104,23.0,masculino,right,España,Castellano,Master degree,no,no,B,2,when,L4,unsyncopated,when,when,56,Online_whenL4//d.pe8.1998.wav,bo,ru,ña,sil,nu,ñi,ja,sil1,po,pe,sil2,['catch'],[2.626700000047549],[2.626700000047549],1.998,no_beat,0.6287000000475491,0.6287000000475491,"[""space""]",112:116,4,,,,,,,,,,,,,,,4.0,2.0,Castellano,0.0,Inglés,6.0,Francés,6.0,Valenciano,22.0,4.0,4.0,no,no,no,Nada,,,,Nada,72.0,yes
185,2024-02-12_15h09.35.233,Unsyncopated_study2,s104,23.0,masculino,right,España,Castellano,Master degree,no,no,B,2,when,L4,unsyncopated,when,when,57,Online_whenL4//d.pe10.888.wav,da,zi,po,sil,pe,lo,ru,sil1,ci,re,sil2,['miss'],,,0.888,beat,,,,112:116,4,,,,,,,,,,,,,,,4.0,2.0,Castellano,0.0,Inglés,6.0,Francés,6.0,Valenciano,22.0,4.0,4.0,no,no,no,Nada,,,,Nada,72.0,yes
186,2024-02-12_15h09.35.233,Unsyncopated_study2,s104,23.0,masculino,right,España,Castellano,Master degree,no,no,B,2,when,L4,unsyncopated,when,when,58,Online_whenL4//d.pe11.none.wav,re,da,zi,sil,bu,lo,ña,sil1,ci,po,sil2,['-'],,,none,none,,,,112:116,4,,,,,,,,,,,,,,,4.0,2.0,Castellano,0.0,Inglés,6.0,Francés,6.0,Valenciano,22.0,4.0,4.0,no,no,no,Nada,,,,Nada,72.0,yes
187,2024-02-12_15h09.35.233,Unsyncopated_study2,s104,23.0,masculino,right,España,Castellano,Master degree,no,no,B,2,when,L4,unsyncopated,when,when,59,Online_whenL4//d.pe9.none.wav,de,bu,da,sil,zi,ña,nu,sil1,ci,re,sil2,['-'],,,none,none,,,,112:116,4,,,,,,,,,,,,,,,4.0,2.0,Castellano,0.0,Inglés,6.0,Francés,6.0,Valenciano,22.0,4.0,4.0,no,no,no,Nada,,,,Nada,72.0,yes
188,2024-02-12_15h09.35.233,Unsyncopated_study2,s104,23.0,masculino,right,España,Castellano,Master degree,no,no,B,2,when,L4,unsyncopated,when,when,60,Online_whenL4//a.lo16.none.wav,po,bu,re,sil,ja,pe,zi,sil1,da,ña,sil2,['-'],,,none,none,,,,16:20,1,,,,,,,,,,,,,,,4.0,2.0,Castellano,0.0,Inglés,6.0,Francés,6.0,Valenciano,22.0,4.0,4.0,no,no,no,Nada,,,,Nada,72.0,yes
189,2024-02-12_15h09.35.233,Unsyncopated_study2,s104,23.0,masculino,right,España,Castellano,Master degree,no,no,B,2,when,L4,unsyncopated,when,when,61,Online_whenL4//a.lo18.none.wav,re,ñi,de,sil,nu,bo,ña,sil1,ru,zi,sil2,['-'],,,none,none,,,,16:20,1,,,,,,,,,,,,,,,4.0,2.0,Castellano,0.0,Inglés,6.0,Francés,6.0,Valenciano,22.0,4.0,4.0,no,no,no,Nada,,,,Nada,72.0,yes
190,2024-02-12_15h09.35.233,Unsyncopated_study2,s104,23.0,masculino,right,España,Castellano,Master degree,no,no,B,2,when,L4,unsyncopated,when,when,62,Online_whenL4//a.lo19.0.wav,lo,ru,po,sil,pe,bu,re,sil1,nu,bo,sil2,['catch'],[0.5987999999522344],[0.5987999999522344],0.0,beat,0.5987999999522344,0.5987999999522344,"[""space""]",16:20,1,,,,,,,,,,,,,,,4.0,2.0,Castellano,0.0,Inglés,6.0,Francés,6.0,Valenciano,22.0,4.0,4.0,no,no,no,Nada,,,,Nada,72.0,yes
191,2024-02-12_15h09.35.233,Unsyncopated_study2,s104,23.0,masculino,right,España,Castellano,Master degree,no,no,B,2,when,L4,unsyncopated,when,when,63,Online_whenL4//a.lo17.888.wav,ci,de,re,sil,lo,ru,da,sil1,ñi,zi,sil2,['catch'],[2.082100000142873],[2.082100000142873],0.888,beat,1.194100000142873,1.194100000142873,"[""space""]",16:20,1,,,,,,,,,,,,,,,4.0,2.0,Castellano,0.0,Inglés,6.0,Francés,6.0,Valenciano,22.0,4.0,4.0,no,no,no,Nada,,,,Nada,72.0,yes
192,2024-02-12_15h09.35.233,Unsyncopated_study2,s104,23.0,masculino,right,España,Castellano,Master degree,no,no,B,2,when,L4,unsyncopated,when,when,64,Online_whenL4//a.lo22.444.wav,pe,ña,lo,sil,re,ñi,bo,sil1,ru,ja,sil2,['catch'],[1.060299999952349],[1.060299999952349],0.444,no_beat,0.6162999999523491,0.6162999999523491,"[""space""]",20:24,1,,,,,,,,,,,,,,,4.0,2.0,Castellano,0.0,Inglés,6.0,Francés,6.0,Valenciano,22.0,4.0,4.0,no,no,no,Nada,,,,Nada,72.0,yes
193,2024-02-12_15h09.35.233,Unsyncopated_study2,s104,23.0,masculino,right,España,Castellano,Master degree,no,no,B,2,when,L4,unsyncopated,when,when,65,Online_whenL4//a.lo21.1998.wav,ñi,zi,bu,sil,de,ru,po,sil1,ña,lo,sil2,['catch'],[2.615500000000111],[2.615500000000111],1.998,no_beat,0.617500000000111,0.617500000000111,"[""space""]",20:24,1,,,,,,,,,,,,,,,4.0,2.0,Castellano,0.0,Inglés,6.0,Francés,6.0,Valenciano,22.0,4.0,4.0,no,no,no,Nada,,,,Nada,72.0,yes
194,2024-02-12_15h09.35.233,Unsyncopated_study2,s104,23.0,masculino,right,España,Castellano,Master degree,no,no,B,2,when,L4,unsyncopated,when,when,66,Online_whenL4//a.lo20.none.wav,re,po,ja,sil,de,ña,nu,sil1,pe,ru,sil2,['-'],,,none,none,,,,20:24,1,,,,,,,,,,,,,,,4.0,2.0,Castellano,0.0,Inglés,6.0,Francés,6.0,Valenciano,22.0,4.0,4.0,no,no,no,Nada,,,,Nada,72.0,yes
195,2024-02-12_15h09.35.233,Unsyncopated_study2,s104,23.0,masculino,right,España,Castellano,Master degree,no,no,B,2,when,L4,unsyncopated,when,when,67,Online_whenL4//a.lo23.1332.wav,nu,ña,ci,sil,re,ñi,lo,sil1,pe,bu,sil2,['catch'],[1.8824999999999363],[1.8824999999999363],1.332,no_beat,0.5504999999999363,0.5504999999999363,"[""space""]",20:24,1,,,,,,,,,,,,,,,4.0,2.0,Castellano,0.0,Inglés,6.0,Francés,6.0,Valenciano,22.0,4.0,4.0,no,no,no,Nada,,,,Nada,72.0,yes
196,2024-02-12_15h09.35.233,Unsyncopated_study2,s104,23.0,masculino,right,España,Castellano,Master degree,no,no,B,2,when,L4,unsyncopated,when,when,68,Online_whenL4//d.pe1.222.wav,bo,pe,bu,sil,ja,ña,ru,sil1,ñi,nu,sil2,['catch'],[0.8257999999523236],[0.8257999999523236],0.222,no_beat,0.6037999999523236,0.6037999999523236,"[""space""]",104:108,4,,,,,,,,,,,,,,,4.0,2.0,Castellano,0.0,Inglés,6.0,Francés,6.0,Valenciano,22.0,4.0,4.0,no,no,no,Nada,,,,Nada,72.0,yes
197,2024-02-12_15h09.35.233,Unsyncopated_study2,s104,23.0,masculino,right,España,Castellano,Master degree,no,no,B,2,when,L4,unsyncopated,when,when,69,Online_whenL4//d.pe0.none.wav,ja,zi,ñi,sil,ru,ci,ña,sil1,da,bu,sil2,['-'],,,none,none,,,,104:108,4,,,,,,,,,,,,,,,4.0,2.0,Castellano,0.0,Inglés,6.0,Francés,6.0,Valenciano,22.0,4.0,4.0,no,no,no,Nada,,,,Nada,72.0,yes
198,2024-02-12_15h09.35.233,Unsyncopated_study2,s104,23.0,masculino,right,España,Castellano,Master degree,no,no,B,2,when,L4,unsyncopated,when,when,70,Online_whenL4//d.pe3.888.wav,nu,bo,de,sil,pe,bu,po,sil1,da,zi,sil2,['catch'],[1.4489000000953638],[1.4489000000953638],0.888,beat,0.5609000000953638,0.5609000000953638,"[""space""]",104:108,4,,,,,,,,,,,,,,,4.0,2.0,Castellano,0.0,Inglés,6.0,Francés,6.0,Valenciano,22.0,4.0,4.0,no,no,no,Nada,,,,Nada,72.0,yes
199,2024-02-12_15h09.35.233,Unsyncopated_study2,s104,23.0,masculino,right,España,Castellano,Master degree,no,no,B,2,when,L4,unsyncopated,when,when,71,Online_whenL4//d.pe2.none.wav,ñi,ña,ru,sil,nu,da,po,sil1,de,ja,sil2,['-'],,,none,none,,,,104:108,4,,,,,,,,,,,,,,,4.0,2.0,Castellano,0.0,Inglés,6.0,Francés,6.0,Valenciano,22.0,4.0,4.0,no,no,no,Nada,,,,Nada,72.0,yes
200,2024-02-12_15h09.35.233,Unsyncopated_study2,s104,23.0,masculino,right,España,Castellano,Master degree,no,no,B,2,when,L4,unsyncopated,when,when,72,Online_whenL4//a.lo26.1998.wav,po,ja,bu,sil,ci,pe,ru,sil1,ñi,lo,sil2,['false alarm'],[0.7597000000475873],[0.7597000000475873],1.998,no_beat,,,"[""space""]",24:28,1,,,,,,,,,,,,,,,4.0,2.0,Castellano,0.0,Inglés,6.0,Francés,6.0,Valenciano,22.0,4.0,4.0,no,no,no,Nada,,,,Nada,72.0,yes
201,2024-02-12_15h09.35.233,Unsyncopated_study2,s104,23.0,masculino,right,España,Castellano,Master degree,no,no,B,2,when,L4,unsyncopated,when,when,73,Online_whenL4//a.lo24.1776.wav,de,ja,ci,sil,re,ña,po,sil1,lo,bu,sil2,['miss'],,,1.776,beat,,,,24:28,1,,,,,,,,,,,,,,,4.0,2.0,Castellano,0.0,Inglés,6.0,Francés,6.0,Valenciano,22.0,4.0,4.0,no,no,no,Nada,,,,Nada,72.0,yes
202,2024-02-12_15h09.35.233,Unsyncopated_study2,s104,23.0,masculino,right,España,Castellano,Master degree,no,no,B,2,when,L4,unsyncopated,when,when,74,Online_whenL4//a.lo27.none.wav,ci,nu,ñi,sil,da,ru,ja,sil1,po,bu,sil2,['-'],,,none,none,,,,24:28,1,,,,,,,,,,,,,,,4.0,2.0,Castellano,0.0,Inglés,6.0,Francés,6.0,Valenciano,22.0,4.0,4.0,no,no,no,Nada,,,,Nada,72.0,yes
203,2024-02-12_15h09.35.233,Unsyncopated_study2,s104,23.0,masculino,right,España,Castellano,Master degree,no,no,B,2,when,L4,unsyncopated,when,when,75,Online_whenL4//a.lo25.none.wav,ñi,ja,ru,sil,bo,ci,ña,sil1,de,zi,sil2,['-'],,,none,none,,,,24:28,1,,,,,,,,,,,,,,,4.0,2.0,Castellano,0.0,Inglés,6.0,Francés,6.0,Valenciano,22.0,4.0,4.0,no,no,no,Nada,,,,Nada,72.0,yes
204,2024-02-12_15h09.35.233,Unsyncopated_study2,s104,23.0,masculino,right,España,Castellano,Master degree,no,no,B,2,when,L4,unsyncopated,when,when,76,Online_whenL4//b.ja29.none.wav,bu,da,nu,sil,ci,ru,ña,sil1,lo,bo,sil2,['-'],,,none,none,,,,64:68,2,,,,,,,,,,,,,,,4.0,2.0,Castellano,0.0,Inglés,6.0,Francés,6.0,Valenciano,22.0,4.0,4.0,no,no,no,Nada,,,,Nada,72.0,yes
205,2024-02-12_15h09.35.233,Unsyncopated_study2,s104,23.0,masculino,right,España,Castellano,Master degree,no,no,B,2,when,L4,unsyncopated,when,when,77,Online_whenL4//b.ja31.1332.wav,ci,re,da,sil,lo,pe,ja,sil1,de,ñi,sil2,['catch'],[2.1992000000477674],[2.1992000000477674],1.332,no_beat,0.8672000000477673,0.8672000000477673,"[""space""]",64:68,2,,,,,,,,,,,,,,,4.0,2.0,Castellano,0.0,Inglés,6.0,Francés,6.0,Valenciano,22.0,4.0,4.0,no,no,no,Nada,,,,Nada,72.0,yes
206,2024-02-12_15h09.35.233,Unsyncopated_study2,s104,23.0,masculino,right,España,Castellano,Master degree,no,no,B,2,when,L4,unsyncopated,when,when,78,Online_whenL4//b.ja28.1776.wav,ru,po,bu,sil,bo,da,lo,sil1,ja,pe,sil2,['catch'],[2.4824999999998454],[2.4824999999998454],1.776,beat,0.7064999999998454,0.7064999999998454,"[""space""]",64:68,2,,,,,,,,,,,,,,,4.0,2.0,Castellano,0.0,Inglés,6.0,Francés,6.0,Valenciano,22.0,4.0,4.0,no,no,no,Nada,,,,Nada,72.0,yes
207,2024-02-12_15h09.35.233,Unsyncopated_study2,s104,23.0,masculino,right,España,Castellano,Master degree,no,no,B,2,when,L4,unsyncopated,when,when,79,Online_whenL4//b.ja30.none.wav,zi,ci,de,sil,bo,da,lo,sil1,re,bu,sil2,['-'],,,none,none,,,,64:68,2,,,,,,,,,,,,,,,4.0,2.0,Castellano,0.0,Inglés,6.0,Francés,6.0,Valenciano,22.0,4.0,4.0,no,no,no,Nada,,,,Nada,72.0,yes
208,2024-02-12_15h09.35.233,Unsyncopated_study2,s104,23.0,masculino,right,España,Castellano,Master degree,no,no,B,2,when,L4,unsyncopated,when,when,80,Online_whenL4//c.bu22.none.wav,nu,ci,ña,sil,re,ñi,ru,sil1,zi,pe,sil2,['-'],,,none,none,,,,92:96,3,,,,,,,,,,,,,,,4.0,2.0,Castellano,0.0,Inglés,6.0,Francés,6.0,Valenciano,22.0,4.0,4.0,no,no,no,Nada,,,,Nada,72.0,yes
209,2024-02-12_15h09.35.233,Unsyncopated_study2,s104,23.0,masculino,right,España,Castellano,Master degree,no,no,B,2,when,L4,unsyncopated,when,when,81,Online_whenL4//c.bu20.1332.wav,lo,re,ru,sil,ña,de,bu,sil1,zi,ci,sil2,['catch'],[2.148100000143131],[2.148100000143131],1.332,no_beat,0.8161000001431311,0.8161000001431311,"[""space""]",92:96,3,,,,,,,,,,,,,,,4.0,2.0,Castellano,0.0,Inglés,6.0,Francés,6.0,Valenciano,22.0,4.0,4.0,no,no,no,Nada,,,,Nada,72.0,yes
210,2024-02-12_15h09.35.233,Unsyncopated_study2,s104,23.0,masculino,right,España,Castellano,Master degree,no,no,B,2,when,L4,unsyncopated,when,when,82,Online_whenL4//c.bu21.1332.wav,zi,pe,ci,sil,ña,nu,bu,sil1,bo,ru,sil2,['catch'],[1.8992999999522908],[1.8992999999522908],1.332,no_beat,0.5672999999522907,0.5672999999522907,"[""space""]",92:96,3,,,,,,,,,,,,,,,4.0,2.0,Castellano,0.0,Inglés,6.0,Francés,6.0,Valenciano,22.0,4.0,4.0,no,no,no,Nada,,,,Nada,72.0,yes
211,2024-02-12_15h09.35.233,Unsyncopated_study2,s104,23.0,masculino,right,España,Castellano,Master degree,no,no,B,2,when,L4,unsyncopated,when,when,83,Online_whenL4//c.bu23.none.wav,ña,nu,pe,sil,ru,ja,bo,sil1,re,ñi,sil2,['-'],,,none,none,,,,92:96,3,,,,,,,,,,,,,,,4.0,2.0,Castellano,0.0,Inglés,6.0,Francés,6.0,Valenciano,22.0,4.0,4.0,no,no,no,Nada,,,,Nada,72.0,yes
212,2024-02-12_15h09.35.233,Unsyncopated_study2,s104,23.0,masculino,right,España,Castellano,Master degree,no,no,B,2,when,L4,unsyncopated,when,when,84,Online_whenL4//c.bu30.none.wav,ña,ru,lo,sil,bo,ci,ñi,sil1,nu,po,sil2,['-'],,,none,none,,,,100:104,3,,,,,,,,,,,,,,,4.0,2.0,Castellano,0.0,Inglés,6.0,Francés,6.0,Valenciano,22.0,4.0,4.0,no,no,no,Nada,,,,Nada,72.0,yes
213,2024-02-12_15h09.35.233,Unsyncopated_study2,s104,23.0,masculino,right,España,Castellano,Master degree,no,no,B,2,when,L4,unsyncopated,when,when,85,Online_whenL4//c.bu29.none.wav,ja,nu,po,sil,da,re,de,sil1,ru,ci,sil2,['-'],,,none,none,,,,100:104,3,,,,,,,,,,,,,,,4.0,2.0,Castellano,0.0,Inglés,6.0,Francés,6.0,Valenciano,22.0,4.0,4.0,no,no,no,Nada,,,,Nada,72.0,yes
214,2024-02-12_15h09.35.233,Unsyncopated_study2,s104,23.0,masculino,right,España,Castellano,Master degree,no,no,B,2,when,L4,unsyncopated,when,when,86,Online_whenL4//c.bu31.none.wav,ru,bo,ci,sil,lo,po,pe,sil1,zi,ña,sil2,['-'],,,none,none,,,,100:104,3,,,,,,,,,,,,,,,4.0,2.0,Castellano,0.0,Inglés,6.0,Francés,6.0,Valenciano,22.0,4.0,4.0,no,no,no,Nada,,,,Nada,72.0,yes
215,2024-02-12_15h09.35.233,Unsyncopated_study2,s104,23.0,masculino,right,España,Castellano,Master degree,no,no,B,2,when,L4,unsyncopated,when,when,87,Online_whenL4//c.bu28.1998.wav,ñi,re,ru,sil,ja,zi,ña,sil1,pe,bu,sil2,['catch_delay'],[0.7273000001908405],[0.7273000001908405],1.998,no_beat,0.7273000001908405,0.7273000001908405,,100:104,3,,,,,,,,,,,,,,,4.0,2.0,Castellano,0.0,Inglés,6.0,Francés,6.0,Valenciano,22.0,4.0,4.0,no,no,no,Nada,,,,Nada,72.0,yes
216,2024-02-12_15h09.35.233,Unsyncopated_study2,s104,23.0,masculino,right,España,Castellano,Master degree,no,no,B,2,when,L4,unsyncopated,when,when,88,Online_whenL4//b.ja6.1332.wav,pe,ña,de,sil,bo,ci,ja,sil1,lo,po,sil2,['miss'],[0.061300000190840365],[0.061300000190840365],1.332,no_beat,,,"[""space""]",40:44,2,,,,,,,,,,,,,,,4.0,2.0,Castellano,0.0,Inglés,6.0,Francés,6.0,Valenciano,22.0,4.0,4.0,no,no,no,Nada,,,,Nada,72.0,yes
217,2024-02-12_15h09.35.233,Unsyncopated_study2,s104,23.0,masculino,right,España,Castellano,Master degree,no,no,B,2,when,L4,unsyncopated,when,when,89,Online_whenL4//b.ja5.none.wav,re,pe,ña,sil,bu,po,ci,sil1,lo,nu,sil2,['-'],,,none,none,,,,40:44,2,,,,,,,,,,,,,,,4.0,2.0,Castellano,0.0,Inglés,6.0,Francés,6.0,Valenciano,22.0,4.0,4.0,no,no,no,Nada,,,,Nada,72.0,yes
218,2024-02-12_15h09.35.233,Unsyncopated_study2,s104,23.0,masculino,right,España,Castellano,Master degree,no,no,B,2,when,L4,unsyncopated,when,when,90,Online_whenL4//b.ja7.none.wav,de,bo,zi,sil,ru,pe,da,sil1,po,nu,sil2,['-'],,,none,none,,,,40:44,2,,,,,,,,,,,,,,,4.0,2.0,Castellano,0.0,Inglés,6.0,Francés,6.0,Valenciano,22.0,4.0,4.0,no,no,no,Nada,,,,Nada,72.0,yes
219,2024-02-12_15h09.35.233,Unsyncopated_study2,s104,23.0,masculino,right,España,Castellano,Master degree,no,no,B,2,when,L4,unsyncopated,when,when,91,Online_whenL4//b.ja4.none.wav,ñi,nu,ru,sil,po,de,da,sil1,re,lo,sil2,['-'],,,none,none,,,,40:44,2,,,,,,,,,,,,,,,4.0,2.0,Castellano,0.0,Inglés,6.0,Francés,6.0,Valenciano,22.0,4.0,4.0,no,no,no,Nada,,,,Nada,72.0,yes
