Unnamed: 0,date,expName,participant,age,sex,hand,residence,native_lang,education_level,lang_deficit,aud_deficit,group,block,condition,language,rhythm,rule structure online,rule type online,order_trial_on,trial_online,s1,s2,s3,s4,s5,s6,s7,s8,s9,s10,s11,catch_syll_resp,rts_syll_catch,clean_rts,time_syll,beat_no_beat,catch_rtsTR,catch_rts,syllable_catch.keys,cond_syll,syll_to_catch,test_offline,block_off,condition_off,rhythm_off,rule,rule_str_off,rule_norule,conds_offline,language_off,Partz_no_partm.keys,Partz_no_partm.rt,security_1_7.keys,accuracy,security_1_7.rt,n_lang,n_lang_used,lang_1,age_l1,lang_2,age_l2,lang_3,age_l3,ability_learn_l2,tendence_mix_lan,music_experience,muisc_use,partiture,instr_1,age_M1,preguntas_musica1,BMRQ_answer.response,final comment,BMRQ_Score,bilingual
0,2024-04-22_21h18.49.889,Unsyncopated_study3,s139,31.0,feminino,right,España,Catalán y castellano,Doctorate,no,no,B,1,conjunction_syn,L2,syncopated,s1,r1,0,Online_conjL2_syn//a.go.du31.0.666.wav,go,ba,su,du,sil,ñu,si,bi,sil1,me,sil2,['miss'],,,0.0,beat,,,,go,1,testConjL2Syn//r1.s2.1.wav,1.0,conjunction_syn,syncopated,a,s2,rule,rule,L2,z,4.2711,7.0,1.0,7.9546,3.0,2.0,Catalán,0.0,Castellano,0.0,Inglés,5.0,3.0,6.0,yes,no,yes,Flauta,7,1. Cuando comparto música con alguien siento una complicidad especial con aquella persona.,4.0,Nada ,71.0,yes
1,2024-04-22_21h18.49.889,Unsyncopated_study3,s139,31.0,feminino,right,España,Catalán y castellano,Doctorate,no,no,B,1,conjunction_syn,L2,syncopated,s2,r2,1,Online_conjL2_syn//a.go.du30.none.none.wav,to,ñu,me,fe,sil,bi,ño,ra,sil1,su,sil2,['-'],,,none,none,,,,go,1,testConjL2Syn//r1.s1.0.wav,1.0,conjunction_syn,syncopated,a,s1,rule,rule,L2,z,1.1685,7.0,1.0,1.215,3.0,2.0,Catalán,0.0,Castellano,0.0,Inglés,5.0,3.0,6.0,yes,no,yes,Flauta,7,2. En mi tiempo libre apenas escucho música.,5.0,Nada ,71.0,yes
2,2024-04-22_21h18.49.889,Unsyncopated_study3,s139,31.0,feminino,right,España,Catalán y castellano,Doctorate,no,no,B,1,conjunction_syn,L2,syncopated,s2,r2,2,Online_conjL2_syn//a.go.du28.none.none.wav,me,su,ba,fe,sil,mi,to,ra,sil1,cha,sil2,['-'],,,none,none,,,,go,1,testConjL2Syn//r1.s2.2.wav,1.0,conjunction_syn,syncopated,a,s2,rule,rule,L2,z,0.9517,7.0,1.0,0.7684,3.0,2.0,Catalán,0.0,Castellano,0.0,Inglés,5.0,3.0,6.0,yes,no,yes,Flauta,7,3. Algunas canciones me ponen los pelos de punta,4.0,Nada ,71.0,yes
3,2024-04-22_21h18.49.889,Unsyncopated_study3,s139,31.0,feminino,right,España,Catalán y castellano,Doctorate,no,no,B,1,conjunction_syn,L2,syncopated,s1,r1,3,Online_conjL2_syn//a.go.du29.0.666.wav,go,ñu,su,du,sil,si,me,to,sil1,bi,sil2,['catch'],[0.3986000000237482],[0.3986000000237482],0.0,beat,0.3986000000237482,0.3986000000237482,"[""space""]",go,1,testConjL2Syn//dep_viol.r1.s2.0.wav,1.0,conjunction_syn,syncopated,a,s2,no_rule,dep,L2,z,1.0022,7.0,0.0,0.5515,3.0,2.0,Catalán,0.0,Castellano,0.0,Inglés,5.0,3.0,6.0,yes,no,yes,Flauta,7,4. La música me hace compañía cuando estoy solo,4.0,Nada ,71.0,yes
4,2024-04-22_21h18.49.889,Unsyncopated_study3,s139,31.0,feminino,right,España,Catalán y castellano,Doctorate,no,no,B,1,conjunction_syn,L2,syncopated,s1,r2,4,Online_conjL2_syn//c.cha.me21.222.444.wav,fe,cha,me,ra,sil,su,ñu,to,sil1,mi,sil2,['catch'],[2.5121000000237927],[2.5121000000237927],0.444,no_beat,,2.068100000023793,"[""space""]",me,3,testConjL2Syn//r2.s1.0.wav,1.0,conjunction_syn,syncopated,b,s1,rule,rule,L2,z,0.8311,7.0,1.0,0.4683,3.0,2.0,Catalán,0.0,Castellano,0.0,Inglés,5.0,3.0,6.0,yes,no,yes,Flauta,7,5. No me apetece bailar ni con la música que más me gusta,5.0,Nada ,71.0,yes
5,2024-04-22_21h18.49.889,Unsyncopated_study3,s139,31.0,feminino,right,España,Catalán y castellano,Doctorate,no,no,B,1,conjunction_syn,L2,syncopated,s1,r1,5,Online_conjL2_syn//c.cha.me20.none.none.wav,go,mi,si,du,sil,bi,ba,ño,sil1,su,sil2,['false alarm'],[2.0909999999998945],[2.0909999999998945],none,none,,,"[""space""]",me,3,testConjL2Syn//cat_viol.r2.s2.0.wav,1.0,conjunction_syn,syncopated,b,s2,no_rule,cat,L2,z,0.7689,7.0,0.0,0.4838,3.0,2.0,Catalán,0.0,Castellano,0.0,Inglés,5.0,3.0,6.0,yes,no,yes,Flauta,7,6. La música me hace conectar con la gente,3.0,Nada ,71.0,yes
6,2024-04-22_21h18.49.889,Unsyncopated_study3,s139,31.0,feminino,right,España,Catalán y castellano,Doctorate,no,no,B,1,conjunction_syn,L2,syncopated,s1,r1,6,Online_conjL2_syn//c.cha.me22.1554.444.wav,go,bi,me,du,sil,to,ba,cha,sil1,ño,sil2,['miss'],,,0.444,no_beat,,,,me,3,testConjL2Syn//dep_viol.r2.s2.0.wav,1.0,conjunction_syn,syncopated,b,s2,no_rule,dep,L2,z,2.7924,7.0,0.0,0.283,3.0,2.0,Catalán,0.0,Castellano,0.0,Inglés,5.0,3.0,6.0,yes,no,yes,Flauta,7,7. Me informo sobre la música que me gusta.,3.0,Nada ,71.0,yes
7,2024-04-22_21h18.49.889,Unsyncopated_study3,s139,31.0,feminino,right,España,Catalán y castellano,Doctorate,no,no,B,1,conjunction_syn,L2,syncopated,s1,r2,7,Online_conjL2_syn//c.cha.me23.none.none.wav,fe,bi,ñu,ra,sil,ba,su,to,sil1,te,sil2,['-'],,,none,none,,,,me,3,testConjL2Syn//r2.s2.0.wav,1.0,conjunction_syn,syncopated,b,s2,rule,rule,L2,m,2.0327,3.0,0.0,3.9387,3.0,2.0,Catalán,0.0,Castellano,0.0,Inglés,5.0,3.0,6.0,yes,no,yes,Flauta,7,8.Me emociono escuchando ciertas canciones.,4.0,Nada ,71.0,yes
8,2024-04-22_21h18.49.889,Unsyncopated_study3,s139,31.0,feminino,right,España,Catalán y castellano,Doctorate,no,no,B,1,conjunction_syn,L2,syncopated,s2,r2,8,Online_conjL2_syn//d.si.ñu25.none.none.wav,mi,to,ño,fe,sil,bi,ba,ra,sil1,su,sil2,['false alarm'],[1.0648999999762054],[1.0648999999762054],none,none,,,"[""space""]",ñu,4,testConjL2Syn//r2.s1.1.wav,1.0,conjunction_syn,syncopated,b,s1,rule,rule,L2,z,0.5716,7.0,1.0,1.0355,3.0,2.0,Catalán,0.0,Castellano,0.0,Inglés,5.0,3.0,6.0,yes,no,yes,Flauta,7,9.La música me tranquiliza y me relaja.,4.0,Nada ,71.0,yes
9,2024-04-22_21h18.49.889,Unsyncopated_study3,s139,31.0,feminino,right,España,Catalán y castellano,Doctorate,no,no,B,1,conjunction_syn,L2,syncopated,s2,r2,9,Online_conjL2_syn//d.si.ñu24.222.1110.wav,ba,si,cha,fe,sil,ñu,su,ra,sil1,ño,sil2,['catch'],[1.6261000000238255],[1.6261000000238255],1.11,no_beat,0.5161000000238254,0.5161000000238254,"[""space""]",ñu,4,testConjL2Syn//r1.s1.1.wav,1.0,conjunction_syn,syncopated,a,s1,rule,rule,L2,z,0.6694,7.0,1.0,0.3507,3.0,2.0,Catalán,0.0,Castellano,0.0,Inglés,5.0,3.0,6.0,yes,no,yes,Flauta,7,10.La música me hace bailar,4.0,Nada ,71.0,yes
10,2024-04-22_21h18.49.889,Unsyncopated_study3,s139,31.0,feminino,right,España,Catalán y castellano,Doctorate,no,no,B,1,conjunction_syn,L2,syncopated,s2,r2,10,Online_conjL2_syn//d.si.ñu26.none.none.wav,ba,su,cha,fe,sil,mi,me,ra,sil1,to,sil2,['-'],,,none,none,,,,ñu,4,testConjL2Syn//r2.s2.1.wav,1.0,conjunction_syn,syncopated,b,s2,rule,rule,L2,m,1.9025,5.0,0.0,3.2864,3.0,2.0,Catalán,0.0,Castellano,0.0,Inglés,5.0,3.0,6.0,yes,no,yes,Flauta,7,11.Busco novedades musicales continuamente,1.0,Nada ,71.0,yes
11,2024-04-22_21h18.49.889,Unsyncopated_study3,s139,31.0,feminino,right,España,Catalán y castellano,Doctorate,no,no,B,1,conjunction_syn,L2,syncopated,s2,r1,11,Online_conjL2_syn//d.si.ñu27.none.none.wav,cha,ño,ba,go,sil,mi,to,du,sil1,bi,sil2,['-'],,,none,none,,,,ñu,4,testConjL2Syn//r1.s2.0.wav,1.0,conjunction_syn,syncopated,a,s2,rule,rule,L2,z,0.7082,6.0,1.0,1.3984,3.0,2.0,Catalán,0.0,Castellano,0.0,Inglés,5.0,3.0,6.0,yes,no,yes,Flauta,7,12. Puedo llorar cuando escucho algunas melodías que me gustan mucho.,4.0,Nada ,71.0,yes
12,2024-04-22_21h18.49.889,Unsyncopated_study3,s139,31.0,feminino,right,España,Catalán y castellano,Doctorate,no,no,B,1,conjunction_syn,L2,syncopated,s1,r2,12,Online_conjL2_syn//c.cha.me17.1110.222.wav,fe,me,ñu,ra,sil,cha,ba,mi,sil1,te,sil2,['miss'],,,0.222,no_beat,,,,me,3,testConjL2Syn//r2.s1.2.wav,1.0,conjunction_syn,syncopated,b,s1,rule,rule,L2,z,0.4977,7.0,1.0,0.7513,3.0,2.0,Catalán,0.0,Castellano,0.0,Inglés,5.0,3.0,6.0,yes,no,yes,Flauta,7,13. Me gusta cantar o tocar un instrumento con más gente,2.0,Nada ,71.0,yes
13,2024-04-22_21h18.49.889,Unsyncopated_study3,s139,31.0,feminino,right,España,Catalán y castellano,Doctorate,no,no,B,1,conjunction_syn,L2,syncopated,s2,r1,13,Online_conjL2_syn//c.cha.me16.none.none.wav,mi,ñu,ba,go,sil,to,ño,du,sil1,si,sil2,['-'],,,none,none,,,,me,3,testConjL2Syn//r2.s2.2.wav,1.0,conjunction_syn,syncopated,b,s2,rule,rule,L2,z,0.8556,7.0,1.0,0.3645,3.0,2.0,Catalán,0.0,Castellano,0.0,Inglés,5.0,3.0,6.0,yes,no,yes,Flauta,7,14. La música me ayuda a desconectar.,4.0,Nada ,71.0,yes
14,2024-04-22_21h18.49.889,Unsyncopated_study3,s139,31.0,feminino,right,España,Catalán y castellano,Doctorate,no,no,B,1,conjunction_syn,L2,syncopated,s1,r1,14,Online_conjL2_syn//c.cha.me18.1332.222.wav,go,me,to,du,sil,te,cha,mi,sil1,si,sil2,['catch'],[0.720900000095412],[0.720900000095412],0.222,no_beat,0.498900000095412,0.498900000095412,"[""space""]",me,3,testConjL2Syn//cat_viol.r2.s1.0.wav,1.0,conjunction_syn,syncopated,b,s1,no_rule,cat,L2,m,2.82,3.0,1.0,2.6027,3.0,2.0,Catalán,0.0,Castellano,0.0,Inglés,5.0,3.0,6.0,yes,no,yes,Flauta,7,15. No puedo evitar tararear las canciones que me gustan cuando las escucho.,4.0,Nada ,71.0,yes
15,2024-04-22_21h18.49.889,Unsyncopated_study3,s139,31.0,feminino,right,España,Catalán y castellano,Doctorate,no,no,B,1,conjunction_syn,L2,syncopated,s2,r1,15,Online_conjL2_syn//c.cha.me19.none.none.wav,te,ño,ba,go,sil,ñu,si,du,sil1,bi,sil2,['-'],,,none,none,,,,me,3,testConjL2Syn//time_viol.r1.s2.0.wav,1.0,conjunction_syn,syncopated,a,s2,no_rule,time,L2,z,0.7743,4.0,0.0,2.8565,3.0,2.0,Catalán,0.0,Castellano,0.0,Inglés,5.0,3.0,6.0,yes,no,yes,Flauta,7,16. En los conciertos me siento en sintonía con los artistas y el público.,4.0,Nada ,71.0,yes
16,2024-04-22_21h18.49.889,Unsyncopated_study3,s139,31.0,feminino,right,España,Catalán y castellano,Doctorate,no,no,B,1,conjunction_syn,L2,syncopated,s2,r1,16,Online_conjL2_syn//b.fe.ra6.none.none.wav,te,ño,ba,go,sil,ñu,cha,du,sil1,su,sil2,['-'],,,none,none,,,,ra,2,testConjL2Syn//r1.s1.2.wav,1.0,conjunction_syn,syncopated,a,s1,rule,rule,L2,z,1.1361,6.0,1.0,1.469,3.0,2.0,Catalán,0.0,Castellano,0.0,Inglés,5.0,3.0,6.0,yes,no,yes,Flauta,7,17. Me gasto bastante dinero en música y cosas relacionadas con la música.,0.0,Nada ,71.0,yes
17,2024-04-22_21h18.49.889,Unsyncopated_study3,s139,31.0,feminino,right,España,Catalán y castellano,Doctorate,no,no,B,1,conjunction_syn,L2,syncopated,s2,r1,17,Online_conjL2_syn//b.fe.ra7.none.none.wav,ba,cha,me,go,sil,su,si,du,sil1,mi,sil2,['-'],,,none,none,,,,ra,2,testConjL2Syn//cat_viol.r1.s1.0.wav,1.0,conjunction_syn,syncopated,a,s1,no_rule,cat,L2,z,0.772,6.0,0.0,0.6486,3.0,2.0,Catalán,0.0,Castellano,0.0,Inglés,5.0,3.0,6.0,yes,no,yes,Flauta,7,18. Siento escalofríos cuando escucho una melodía que me gusta.,4.0,Nada ,71.0,yes
18,2024-04-22_21h18.49.889,Unsyncopated_study3,s139,31.0,feminino,right,España,Catalán y castellano,Doctorate,no,no,B,1,conjunction_syn,L2,syncopated,s2,r1,18,Online_conjL2_syn//b.fe.ra4.none.none.wav,me,bi,ño,go,sil,ñu,to,du,sil1,te,sil2,['-'],,,none,none,,,,ra,2,testConjL2Syn//dep_viol.r2.s1.0.wav,1.0,conjunction_syn,syncopated,b,s1,no_rule,dep,L2,m,1.5197,3.0,1.0,2.1325,3.0,2.0,Catalán,0.0,Castellano,0.0,Inglés,5.0,3.0,6.0,yes,no,yes,Flauta,7,19. Con la música me puedo desahogar.,4.0,Nada ,71.0,yes
19,2024-04-22_21h18.49.889,Unsyncopated_study3,s139,31.0,feminino,right,España,Catalán y castellano,Doctorate,no,no,B,1,conjunction_syn,L2,syncopated,s2,r2,19,Online_conjL2_syn//b.fe.ra5.666.1554.wav,ñu,te,to,fe,sil,ba,su,ra,sil1,mi,sil2,['catch'],[2.059700000047769],[2.059700000047769],1.554,no_beat,0.5057000000477692,0.5057000000477692,"[""space""]",ra,2,testConjL2Syn//time_viol.r1.s1.0.wav,1.0,conjunction_syn,syncopated,a,s1,no_rule,time,L2,m,4.4211,4.0,1.0,0.885,3.0,2.0,Catalán,0.0,Castellano,0.0,Inglés,5.0,3.0,6.0,yes,no,yes,Flauta,7,20. Cuando escucho una melodía que me gusta mucho no puedo evitar mover el cuerpo.,4.0,Nada ,71.0,yes
20,2024-04-22_21h18.49.889,Unsyncopated_study3,s139,31.0,feminino,right,España,Catalán y castellano,Doctorate,no,no,B,1,conjunction_syn,L2,syncopated,s1,r2,20,Online_conjL2_syn//b.fe.ra10.0.666.wav,fe,bi,cha,ra,sil,si,te,su,sil1,ba,sil2,['catch'],[1.2652000000476846],[1.2652000000476846],0.666,no_beat,0.5992000000476846,0.5992000000476846,"[""space""]",ra,2,testConjL2Syn//time_viol.r2.s1.0.wav,1.0,conjunction_syn,syncopated,b,s1,no_rule,time,L2,z,0.3815,3.0,0.0,1.3817,3.0,2.0,Catalán,0.0,Castellano,0.0,Inglés,5.0,3.0,6.0,yes,no,yes,Flauta,7,,,Nada ,71.0,yes
21,2024-04-22_21h18.49.889,Unsyncopated_study3,s139,31.0,feminino,right,España,Catalán y castellano,Doctorate,no,no,B,1,conjunction_syn,L2,syncopated,s2,r2,21,Online_conjL2_syn//b.fe.ra8.666.1554.wav,to,mi,ño,fe,sil,cha,te,ra,sil1,me,sil2,['catch'],[2.2817000000476355],[2.2817000000476355],1.554,no_beat,0.7277000000476355,0.7277000000476355,"[""space""]",ra,2,testConjL2Syn//dep_viol.r1.s1.0.wav,1.0,conjunction_syn,syncopated,a,s1,no_rule,dep,L2,z,0.7851,7.0,0.0,0.6024,3.0,2.0,Catalán,0.0,Castellano,0.0,Inglés,5.0,3.0,6.0,yes,no,yes,Flauta,7,,,Nada ,71.0,yes
22,2024-04-22_21h18.49.889,Unsyncopated_study3,s139,31.0,feminino,right,España,Catalán y castellano,Doctorate,no,no,B,1,conjunction_syn,L2,syncopated,s2,r2,22,Online_conjL2_syn//b.fe.ra9.666.1554.wav,cha,to,bi,fe,sil,ñu,me,ra,sil1,ño,sil2,['catch'],[2.042699999928459],[2.042699999928459],1.554,no_beat,0.4886999999284589,0.4886999999284589,"[""space""]",ra,2,testConjL2Syn//cat_viol.r1.s2.0.wav,1.0,conjunction_syn,syncopated,a,s2,no_rule,cat,L2,z,0.6345,6.0,0.0,0.3348,3.0,2.0,Catalán,0.0,Castellano,0.0,Inglés,5.0,3.0,6.0,yes,no,yes,Flauta,7,,,Nada ,71.0,yes
23,2024-04-22_21h18.49.889,Unsyncopated_study3,s139,31.0,feminino,right,España,Catalán y castellano,Doctorate,no,no,B,1,conjunction_syn,L2,syncopated,s1,r2,23,Online_conjL2_syn//b.fe.ra11.0.666.wav,fe,to,bi,ra,sil,mi,me,ñu,sil1,ba,sil2,['catch'],[1.2795999999045762],[1.2795999999045762],0.666,no_beat,0.6135999999045761,0.6135999999045761,"[""space""]",ra,2,testConjL2Syn//time_viol.r2.s2.0.wav,1.0,conjunction_syn,syncopated,b,s2,no_rule,time,L2,z,0.985,6.0,0.0,0.4529,3.0,2.0,Catalán,0.0,Castellano,0.0,Inglés,5.0,3.0,6.0,yes,no,yes,Flauta,7,,,Nada ,71.0,yes
24,2024-04-22_21h18.49.889,Unsyncopated_study3,s139,31.0,feminino,right,España,Catalán y castellano,Doctorate,no,no,B,1,conjunction_syn,L2,syncopated,s1,r1,24,Online_conjL2_syn//a.go.du0.0.666.wav,go,me,bi,du,sil,te,su,ba,sil1,cha,sil2,['catch'],[0.6949999999999363],[0.6949999999999363],0.0,beat,0.6949999999999363,0.6949999999999363,"[""space""]",go,1,testWhatL4Uns//time_viol.r2.s2.0.wav,2.0,what,unsyncopated,b,s2,no_rule,time,L4,z,1.7582,7.0,0.0,0.2929,3.0,2.0,Catalán,0.0,Castellano,0.0,Inglés,5.0,3.0,6.0,yes,no,yes,Flauta,7,,,Nada ,71.0,yes
25,2024-04-22_21h18.49.889,Unsyncopated_study3,s139,31.0,feminino,right,España,Catalán y castellano,Doctorate,no,no,B,1,conjunction_syn,L2,syncopated,s1,r2,25,Online_conjL2_syn//a.go.du2.none.none.wav,fe,me,to,ra,sil,mi,te,ñu,sil1,ño,sil2,['-'],,,none,none,,,,go,1,testWhatL4Uns//time_viol.r2.s1.0.wav,2.0,what,unsyncopated,b,s1,no_rule,time,L4,z,1.9854,6.0,0.0,0.2676,3.0,2.0,Catalán,0.0,Castellano,0.0,Inglés,5.0,3.0,6.0,yes,no,yes,Flauta,7,,,Nada ,71.0,yes
26,2024-04-22_21h18.49.889,Unsyncopated_study3,s139,31.0,feminino,right,España,Catalán y castellano,Doctorate,no,no,B,1,conjunction_syn,L2,syncopated,s2,r1,26,Online_conjL2_syn//a.go.du3.666.1554.wav,su,bi,te,go,sil,ñu,mi,du,sil1,si,sil2,['miss'],,,0.666,no_beat,,,,go,1,testWhatL4Uns//r2.s1.1.wav,2.0,what,unsyncopated,b,s1,rule,rule,L4,m,0.6011,4.0,0.0,1.2556,3.0,2.0,Catalán,0.0,Castellano,0.0,Inglés,5.0,3.0,6.0,yes,no,yes,Flauta,7,,,Nada ,71.0,yes
27,2024-04-22_21h18.49.889,Unsyncopated_study3,s139,31.0,feminino,right,España,Catalán y castellano,Doctorate,no,no,B,1,conjunction_syn,L2,syncopated,s2,r1,27,Online_conjL2_syn//a.go.du1.666.1554.wav,su,me,mi,go,sil,ño,cha,du,sil1,te,sil2,['miss'],,,0.666,no_beat,,,,go,1,testWhatL4Uns//r1.s1.2.wav,2.0,what,unsyncopated,a,s1,rule,rule,L4,z,0.4716,7.0,1.0,0.2648,3.0,2.0,Catalán,0.0,Castellano,0.0,Inglés,5.0,3.0,6.0,yes,no,yes,Flauta,7,,,Nada ,71.0,yes
28,2024-04-22_21h18.49.889,Unsyncopated_study3,s139,31.0,feminino,right,España,Catalán y castellano,Doctorate,no,no,B,1,conjunction_syn,L2,syncopated,s2,r2,28,Online_conjL2_syn//a.go.du20.none.none.wav,to,ba,me,fe,sil,su,te,ra,sil1,ñu,sil2,['-'],,,none,none,,,,go,1,testWhatL4Uns//time_viol.r1.s1.0.wav,2.0,what,unsyncopated,a,s1,no_rule,time,L4,m,1.0254,3.0,1.0,0.9885,3.0,2.0,Catalán,0.0,Castellano,0.0,Inglés,5.0,3.0,6.0,yes,no,yes,Flauta,7,,,Nada ,71.0,yes
29,2024-04-22_21h18.49.889,Unsyncopated_study3,s139,31.0,feminino,right,España,Catalán y castellano,Doctorate,no,no,B,1,conjunction_syn,L2,syncopated,s2,r2,29,Online_conjL2_syn//a.go.du22.none.none.wav,to,cha,mi,fe,sil,bi,ba,ra,sil1,si,sil2,['-'],,,none,none,,,,go,1,testWhatL4Uns//r2.s2.1.wav,2.0,what,unsyncopated,b,s2,rule,rule,L4,m,1.6982,1.0,0.0,1.7821,3.0,2.0,Catalán,0.0,Castellano,0.0,Inglés,5.0,3.0,6.0,yes,no,yes,Flauta,7,,,Nada ,71.0,yes
30,2024-04-22_21h18.49.889,Unsyncopated_study3,s139,31.0,feminino,right,España,Catalán y castellano,Doctorate,no,no,B,1,conjunction_syn,L2,syncopated,s2,r2,30,Online_conjL2_syn//a.go.du21.none.none.wav,cha,te,to,fe,sil,si,ba,ra,sil1,bi,sil2,['-'],,,none,none,,,,go,1,testWhatL4Uns//time_viol.r1.s2.0.wav,2.0,what,unsyncopated,a,s2,no_rule,time,L4,m,0.7205,6.0,1.0,1.0522,3.0,2.0,Catalán,0.0,Castellano,0.0,Inglés,5.0,3.0,6.0,yes,no,yes,Flauta,7,,,Nada ,71.0,yes
31,2024-04-22_21h18.49.889,Unsyncopated_study3,s139,31.0,feminino,right,España,Catalán y castellano,Doctorate,no,no,B,1,conjunction_syn,L2,syncopated,s1,r1,31,Online_conjL2_syn//a.go.du23.0.666.wav,go,te,ba,du,sil,bi,si,su,sil1,ñu,sil2,['catch'],[0.5132000000477319],[0.5132000000477319],0.0,beat,0.5132000000477319,0.5132000000477319,"[""space""]",go,1,testWhatL4Uns//r2.s1.2.wav,2.0,what,unsyncopated,b,s1,rule,rule,L4,z,0.4675,6.0,1.0,0.3325,3.0,2.0,Catalán,0.0,Castellano,0.0,Inglés,5.0,3.0,6.0,yes,no,yes,Flauta,7,,,Nada ,71.0,yes
32,2024-04-22_21h18.49.889,Unsyncopated_study3,s139,31.0,feminino,right,España,Catalán y castellano,Doctorate,no,no,B,1,conjunction_syn,L2,syncopated,s2,r1,32,Online_conjL2_syn//d.si.ñu21.0.1110.wav,si,su,bi,go,sil,ñu,me,du,sil1,mi,sil2,"['false alarm', 'catch']","[0.36170000004767644, 2.0293999999761354]",[2.0293999999761354],1.11,no_beat,0.9193999999761352,0.9193999999761352,"[""space"",""space""]",ñu,4,testWhatL4Uns//dep_viol.r1.s1.0.wav,2.0,what,unsyncopated,a,s1,no_rule,dep,L4,z,0.3179,6.0,0.0,0.1354,3.0,2.0,Catalán,0.0,Castellano,0.0,Inglés,5.0,3.0,6.0,yes,no,yes,Flauta,7,,,Nada ,71.0,yes
33,2024-04-22_21h18.49.889,Unsyncopated_study3,s139,31.0,feminino,right,España,Catalán y castellano,Doctorate,no,no,B,1,conjunction_syn,L2,syncopated,s2,r1,33,Online_conjL2_syn//d.si.ñu20.1110.0.wav,ñu,ño,mi,go,sil,si,to,du,sil1,me,sil2,['catch'],[0.7102000000477346],[0.7102000000477346],0.0,beat,0.7102000000477346,0.7102000000477346,"[""space""]",ñu,4,testWhatL4Uns//r2.s2.0.wav,2.0,what,unsyncopated,b,s2,rule,rule,L4,m,0.6847,3.0,0.0,0.7271,3.0,2.0,Catalán,0.0,Castellano,0.0,Inglés,5.0,3.0,6.0,yes,no,yes,Flauta,7,,,Nada ,71.0,yes
34,2024-04-22_21h18.49.889,Unsyncopated_study3,s139,31.0,feminino,right,España,Catalán y castellano,Doctorate,no,no,B,1,conjunction_syn,L2,syncopated,s2,r1,34,Online_conjL2_syn//d.si.ñu22.1332.222.wav,ba,ñu,me,go,sil,ño,si,du,sil1,te,sil2,['catch'],[0.83039999997618],[0.83039999997618],0.222,no_beat,0.60839999997618,0.60839999997618,"[""space""]",ñu,4,testWhatL4Uns//r1.s2.1.wav,2.0,what,unsyncopated,a,s2,rule,rule,L4,m,1.8409,3.0,0.0,0.4018,3.0,2.0,Catalán,0.0,Castellano,0.0,Inglés,5.0,3.0,6.0,yes,no,yes,Flauta,7,,,Nada ,71.0,yes
35,2024-04-22_21h18.49.889,Unsyncopated_study3,s139,31.0,feminino,right,España,Catalán y castellano,Doctorate,no,no,B,1,conjunction_syn,L2,syncopated,s2,r2,35,Online_conjL2_syn//d.si.ñu23.0.444.wav,si,su,ñu,fe,sil,mi,ño,ra,sil1,cha,sil2,['catch'],[1.8442999999522272],[1.8442999999522272],0.444,no_beat,,1.4002999999522272,"[""space""]",ñu,4,testWhatL4Uns//r1.s2.0.wav,2.0,what,unsyncopated,a,s2,rule,rule,L4,z,0.4685,7.0,1.0,1.2356,3.0,2.0,Catalán,0.0,Castellano,0.0,Inglés,5.0,3.0,6.0,yes,no,yes,Flauta,7,,,Nada ,71.0,yes
36,2024-04-22_21h18.49.889,Unsyncopated_study3,s139,31.0,feminino,right,España,Catalán y castellano,Doctorate,no,no,B,1,conjunction_syn,L2,syncopated,s1,r1,36,Online_conjL2_syn//b.fe.ra28.none.none.wav,go,te,ñu,du,sil,ba,mi,me,sil1,ño,sil2,['-'],,,none,none,,,,ra,2,testWhatL4Uns//cat_viol.r2.s2.0.wav,2.0,what,unsyncopated,b,s2,no_rule,cat,L4,m,2.2028,3.0,1.0,0.3514,3.0,2.0,Catalán,0.0,Castellano,0.0,Inglés,5.0,3.0,6.0,yes,no,yes,Flauta,7,,,Nada ,71.0,yes
37,2024-04-22_21h18.49.889,Unsyncopated_study3,s139,31.0,feminino,right,España,Catalán y castellano,Doctorate,no,no,B,1,conjunction_syn,L2,syncopated,s1,r1,37,Online_conjL2_syn//b.fe.ra29.none.none.wav,go,cha,si,du,sil,bi,to,ñu,sil1,ba,sil2,['-'],,,none,none,,,,ra,2,testWhatL4Uns//dep_viol.r2.s2.0.wav,2.0,what,unsyncopated,b,s2,no_rule,dep,L4,m,1.216,5.0,1.0,0.6864,3.0,2.0,Catalán,0.0,Castellano,0.0,Inglés,5.0,3.0,6.0,yes,no,yes,Flauta,7,,,Nada ,71.0,yes
38,2024-04-22_21h18.49.889,Unsyncopated_study3,s139,31.0,feminino,right,España,Catalán y castellano,Doctorate,no,no,B,1,conjunction_syn,L2,syncopated,s1,r2,38,Online_conjL2_syn//b.fe.ra30.0.666.wav,fe,ba,ñu,ra,sil,su,ño,mi,sil1,cha,sil2,['catch'],[1.289599999904567],[1.289599999904567],0.666,no_beat,0.623599999904567,0.623599999904567,"[""space""]",ra,2,testWhatL4Uns//cat_viol.r1.s1.0.wav,2.0,what,unsyncopated,a,s1,no_rule,cat,L4,z,0.5269,6.0,0.0,0.7196,3.0,2.0,Catalán,0.0,Castellano,0.0,Inglés,5.0,3.0,6.0,yes,no,yes,Flauta,7,,,Nada ,71.0,yes
39,2024-04-22_21h18.49.889,Unsyncopated_study3,s139,31.0,feminino,right,España,Catalán y castellano,Doctorate,no,no,B,1,conjunction_syn,L2,syncopated,s2,r2,39,Online_conjL2_syn//b.fe.ra31.666.1554.wav,bi,cha,te,fe,sil,me,ñu,ra,sil1,si,sil2,['catch'],[2.0990000000000464],[2.0990000000000464],1.554,no_beat,0.5450000000000463,0.5450000000000463,"[""space""]",ra,2,testWhatL4Uns//r2.s1.0.wav,2.0,what,unsyncopated,b,s1,rule,rule,L4,m,0.502,3.0,0.0,0.1899,3.0,2.0,Catalán,0.0,Castellano,0.0,Inglés,5.0,3.0,6.0,yes,no,yes,Flauta,7,,,Nada ,71.0,yes
40,2024-04-22_21h18.49.889,Unsyncopated_study3,s139,31.0,feminino,right,España,Catalán y castellano,Doctorate,no,no,B,1,conjunction_syn,L2,syncopated,s1,r2,40,Online_conjL2_syn//a.go.du5.none.none.wav,fe,ñu,cha,ra,sil,te,ño,ba,sil1,si,sil2,['-'],,,none,none,,,,go,1,testWhatL4Uns//r1.s1.1.wav,2.0,what,unsyncopated,a,s1,rule,rule,L4,z,0.0641,6.0,1.0,0.3021,3.0,2.0,Catalán,0.0,Castellano,0.0,Inglés,5.0,3.0,6.0,yes,no,yes,Flauta,7,,,Nada ,71.0,yes
41,2024-04-22_21h18.49.889,Unsyncopated_study3,s139,31.0,feminino,right,España,Catalán y castellano,Doctorate,no,no,B,1,conjunction_syn,L2,syncopated,s1,r1,41,Online_conjL2_syn//a.go.du6.0.666.wav,go,bi,to,du,sil,me,su,ba,sil1,te,sil2,['catch'],[0.45760000002383094],[0.45760000002383094],0.0,beat,0.4576000000238309,0.4576000000238309,"[""space""]",go,1,testWhatL4Uns//r1.s2.2.wav,2.0,what,unsyncopated,a,s2,rule,rule,L4,z,0.4642,6.0,1.0,0.1477,3.0,2.0,Catalán,0.0,Castellano,0.0,Inglés,5.0,3.0,6.0,yes,no,yes,Flauta,7,,,Nada ,71.0,yes
42,2024-04-22_21h18.49.889,Unsyncopated_study3,s139,31.0,feminino,right,España,Catalán y castellano,Doctorate,no,no,B,1,conjunction_syn,L2,syncopated,s1,r2,42,Online_conjL2_syn//a.go.du7.none.none.wav,fe,mi,ñu,ra,sil,ño,ba,me,sil1,su,sil2,['-'],,,none,none,,,,go,1,testWhatL4Uns//dep_viol.r1.s2.0.wav,2.0,what,unsyncopated,a,s2,no_rule,dep,L4,m,0.5013,3.0,1.0,0.2318,3.0,2.0,Catalán,0.0,Castellano,0.0,Inglés,5.0,3.0,6.0,yes,no,yes,Flauta,7,,,Nada ,71.0,yes
43,2024-04-22_21h18.49.889,Unsyncopated_study3,s139,31.0,feminino,right,España,Catalán y castellano,Doctorate,no,no,B,1,conjunction_syn,L2,syncopated,s2,r1,43,Online_conjL2_syn//a.go.du4.666.1554.wav,mi,si,te,go,sil,ño,to,du,sil1,ñu,sil2,['miss'],,,0.666,no_beat,,,,go,1,testWhatL4Uns//r1.s1.0.wav,2.0,what,unsyncopated,a,s1,rule,rule,L4,z,0.3018,6.0,1.0,0.1349,3.0,2.0,Catalán,0.0,Castellano,0.0,Inglés,5.0,3.0,6.0,yes,no,yes,Flauta,7,,,Nada ,71.0,yes
44,2024-04-22_21h18.49.889,Unsyncopated_study3,s139,31.0,feminino,right,España,Catalán y castellano,Doctorate,no,no,B,1,conjunction_syn,L2,syncopated,s1,r2,44,Online_conjL2_syn//d.si.ñu19.444.1110.wav,fe,bi,si,ra,sil,ñu,te,to,sil1,ño,sil2,"['catch', 'false alarm']","[1.5625, 2.63250000000005]",[1.5625],1.11,no_beat,0.4524999999999999,0.4524999999999999,"[""space"",""space""]",ñu,4,testWhatL4Uns//cat_viol.r1.s2.0.wav,2.0,what,unsyncopated,a,s2,no_rule,cat,L4,z,0.1174,6.0,0.0,0.1685,3.0,2.0,Catalán,0.0,Castellano,0.0,Inglés,5.0,3.0,6.0,yes,no,yes,Flauta,7,,,Nada ,71.0,yes
45,2024-04-22_21h18.49.889,Unsyncopated_study3,s139,31.0,feminino,right,España,Catalán y castellano,Doctorate,no,no,B,1,conjunction_syn,L2,syncopated,s2,r2,45,Online_conjL2_syn//d.si.ñu16.none.none.wav,te,to,bi,fe,sil,me,mi,ra,sil1,cha,sil2,['-'],,,none,none,,,,ñu,4,testWhatL4Uns//dep_viol.r2.s1.0.wav,2.0,what,unsyncopated,b,s1,no_rule,dep,L4,z,0.1179,6.0,0.0,0.2517,3.0,2.0,Catalán,0.0,Castellano,0.0,Inglés,5.0,3.0,6.0,yes,no,yes,Flauta,7,,,Nada ,71.0,yes
46,2024-04-22_21h18.49.889,Unsyncopated_study3,s139,31.0,feminino,right,España,Catalán y castellano,Doctorate,no,no,B,1,conjunction_syn,L2,syncopated,s2,r2,46,Online_conjL2_syn//d.si.ñu18.none.none.wav,te,su,to,fe,sil,me,cha,ra,sil1,ba,sil2,['-'],,,none,none,,,,ñu,4,testWhatL4Uns//r2.s2.2.wav,2.0,what,unsyncopated,b,s2,rule,rule,L4,m,0.4014,3.0,0.0,0.0844,3.0,2.0,Catalán,0.0,Castellano,0.0,Inglés,5.0,3.0,6.0,yes,no,yes,Flauta,7,,,Nada ,71.0,yes
47,2024-04-22_21h18.49.889,Unsyncopated_study3,s139,31.0,feminino,right,España,Catalán y castellano,Doctorate,no,no,B,1,conjunction_syn,L2,syncopated,s2,r1,47,Online_conjL2_syn//d.si.ñu17.0.222.wav,si,ñu,te,go,sil,to,ba,du,sil1,bi,sil2,['catch'],[0.7409000000953938],[0.7409000000953938],0.222,no_beat,0.5189000000953938,0.5189000000953938,"[""space""]",ñu,4,testWhatL4Uns//cat_viol.r2.s1.0.wav,2.0,what,unsyncopated,b,s1,no_rule,cat,L4,z,0.0375,7.0,0.0,0.1682,3.0,2.0,Catalán,0.0,Castellano,0.0,Inglés,5.0,3.0,6.0,yes,no,yes,Flauta,7,,,Nada ,71.0,yes
48,2024-04-22_21h18.49.889,Unsyncopated_study3,s139,31.0,feminino,right,España,Catalán y castellano,Doctorate,no,no,B,1,conjunction_syn,L2,syncopated,s1,r2,48,Online_conjL2_syn//b.fe.ra27.0.666.wav,fe,ñu,si,ra,sil,ño,to,te,sil1,su,sil2,['catch'],[1.1028999999762163],[1.1028999999762163],0.666,no_beat,0.4368999999762163,0.4368999999762163,"[""space""]",ra,2,testWhenL1Uns//cat_viol.r1.s1.0.wav,3.0,when,unsyncopated,a,s1,no_rule,cat,L1,z,1.9849,7.0,1.0,0.2724,3.0,2.0,Catalán,0.0,Castellano,0.0,Inglés,5.0,3.0,6.0,yes,no,yes,Flauta,7,,,Nada ,71.0,yes
49,2024-04-22_21h18.49.889,Unsyncopated_study3,s139,31.0,feminino,right,España,Catalán y castellano,Doctorate,no,no,B,1,conjunction_syn,L2,syncopated,s1,r1,49,Online_conjL2_syn//b.fe.ra26.none.none.wav,go,ño,mi,du,sil,me,si,bi,sil1,ba,sil2,['-'],,,none,none,,,,ra,2,testWhenL1Uns//dep_viol.r1.s2.0.wav,3.0,when,unsyncopated,a,s2,no_rule,dep,L1,z,0.081,7.0,1.0,0.1852,3.0,2.0,Catalán,0.0,Castellano,0.0,Inglés,5.0,3.0,6.0,yes,no,yes,Flauta,7,,,Nada ,71.0,yes
50,2024-04-22_21h18.49.889,Unsyncopated_study3,s139,31.0,feminino,right,España,Catalán y castellano,Doctorate,no,no,B,1,conjunction_syn,L2,syncopated,s1,r1,50,Online_conjL2_syn//b.fe.ra25.none.none.wav,go,to,mi,du,sil,me,ba,si,sil1,su,sil2,['-'],,,none,none,,,,ra,2,testWhenL1Uns//r2.s2.1.wav,3.0,when,unsyncopated,b,s2,rule,rule,L1,m,0.6177,3.0,0.0,0.3176,3.0,2.0,Catalán,0.0,Castellano,0.0,Inglés,5.0,3.0,6.0,yes,no,yes,Flauta,7,,,Nada ,71.0,yes
51,2024-04-22_21h18.49.889,Unsyncopated_study3,s139,31.0,feminino,right,España,Catalán y castellano,Doctorate,no,no,B,1,conjunction_syn,L2,syncopated,s2,r1,51,Online_conjL2_syn//b.fe.ra24.none.none.wav,ñu,me,cha,go,sil,ba,to,du,sil1,si,sil2,['-'],,,none,none,,,,ra,2,testWhenL1Uns//r2.s2.0.wav,3.0,when,unsyncopated,b,s2,rule,rule,L1,m,0.2681,3.0,0.0,0.2226,3.0,2.0,Catalán,0.0,Castellano,0.0,Inglés,5.0,3.0,6.0,yes,no,yes,Flauta,7,,,Nada ,71.0,yes
52,2024-04-22_21h18.49.889,Unsyncopated_study3,s139,31.0,feminino,right,España,Catalán y castellano,Doctorate,no,no,B,1,conjunction_syn,L2,syncopated,s1,r1,52,Online_conjL2_syn//c.cha.me6.none.none.wav,go,to,si,du,sil,ñu,ño,mi,sil1,ba,sil2,['-'],,,none,none,,,,me,3,testWhenL1Uns//dep_viol.r2.s2.0.wav,3.0,when,unsyncopated,b,s2,no_rule,dep,L1,m,5.1608,3.0,0.0,0.1838,3.0,2.0,Catalán,0.0,Castellano,0.0,Inglés,5.0,3.0,6.0,yes,no,yes,Flauta,7,,,Nada ,71.0,yes
53,2024-04-22_21h18.49.889,Unsyncopated_study3,s139,31.0,feminino,right,España,Catalán y castellano,Doctorate,no,no,B,1,conjunction_syn,L2,syncopated,s2,r1,53,Online_conjL2_syn//c.cha.me5.none.none.wav,ño,mi,ñu,go,sil,ba,te,du,sil1,su,sil2,['-'],,,none,none,,,,me,3,testWhenL1Uns//cat_viol.r2.s2.0.wav,3.0,when,unsyncopated,b,s2,no_rule,cat,L1,m,0.2861,3.0,0.0,0.1223,3.0,2.0,Catalán,0.0,Castellano,0.0,Inglés,5.0,3.0,6.0,yes,no,yes,Flauta,7,,,Nada ,71.0,yes
54,2024-04-22_21h18.49.889,Unsyncopated_study3,s139,31.0,feminino,right,España,Catalán y castellano,Doctorate,no,no,B,1,conjunction_syn,L2,syncopated,s2,r2,54,Online_conjL2_syn//c.cha.me4.1110.0.wav,me,si,bi,fe,sil,cha,to,ra,sil1,su,sil2,['catch'],[1.3472000000476783],[1.3472000000476783],0.0,beat,,1.3472000000476785,"[""space""]",me,3,testWhenL1Uns//r2.s1.0.wav,3.0,when,unsyncopated,b,s1,rule,rule,L1,z,0.2232,7.0,1.0,0.2165,3.0,2.0,Catalán,0.0,Castellano,0.0,Inglés,5.0,3.0,6.0,yes,no,yes,Flauta,7,,,Nada ,71.0,yes
55,2024-04-22_21h18.49.889,Unsyncopated_study3,s139,31.0,feminino,right,España,Catalán y castellano,Doctorate,no,no,B,1,conjunction_syn,L2,syncopated,s2,r2,55,Online_conjL2_syn//c.cha.me7.none.none.wav,te,mi,ba,fe,sil,ñu,su,ra,sil1,to,sil2,['-'],,,none,none,,,,me,3,testWhenL1Uns//time_viol.r1.s2.0.wav,3.0,when,unsyncopated,a,s2,no_rule,time,L1,z,0.6717,7.0,1.0,0.1313,3.0,2.0,Catalán,0.0,Castellano,0.0,Inglés,5.0,3.0,6.0,yes,no,yes,Flauta,7,,,Nada ,71.0,yes
56,2024-04-22_21h18.49.889,Unsyncopated_study3,s139,31.0,feminino,right,España,Catalán y castellano,Doctorate,no,no,B,1,conjunction_syn,L2,syncopated,s1,r1,56,Online_conjL2_syn//d.si.ñu4.none.none.wav,go,su,to,du,sil,bi,me,cha,sil1,mi,sil2,['-'],,,none,none,,,,ñu,4,testWhenL1Uns//r2.s2.2.wav,3.0,when,unsyncopated,b,s2,rule,rule,L1,m,0.3871,3.0,0.0,0.2346,3.0,2.0,Catalán,0.0,Castellano,0.0,Inglés,5.0,3.0,6.0,yes,no,yes,Flauta,7,,,Nada ,71.0,yes
57,2024-04-22_21h18.49.889,Unsyncopated_study3,s139,31.0,feminino,right,España,Catalán y castellano,Doctorate,no,no,B,1,conjunction_syn,L2,syncopated,s2,r2,57,Online_conjL2_syn//d.si.ñu5.1332.444.wav,cha,ño,ñu,fe,sil,bi,si,ra,sil1,to,sil2,['catch'],[0.9242999999522681],[0.9242999999522681],0.444,no_beat,0.4802999999522681,0.4802999999522681,"[""space""]",ñu,4,testWhenL1Uns//dep_viol.r2.s1.0.wav,3.0,when,unsyncopated,b,s1,no_rule,dep,L1,z,0.8478,5.0,1.0,0.8692,3.0,2.0,Catalán,0.0,Castellano,0.0,Inglés,5.0,3.0,6.0,yes,no,yes,Flauta,7,,,Nada ,71.0,yes
58,2024-04-22_21h18.49.889,Unsyncopated_study3,s139,31.0,feminino,right,España,Catalán y castellano,Doctorate,no,no,B,1,conjunction_syn,L2,syncopated,s1,r2,58,Online_conjL2_syn//d.si.ñu6.1110.1332.wav,fe,ño,bi,ra,sil,si,ñu,te,sil1,me,sil2,"['false alarm', 'catch']","[0.7939999999999827, 2.04129999995223]",[2.04129999995223],1.332,no_beat,0.7092999999522298,0.7092999999522298,"[""space"",""space""]",ñu,4,testWhenL1Uns//dep_viol.r1.s1.0.wav,3.0,when,unsyncopated,a,s1,no_rule,dep,L1,m,2.3271,3.0,0.0,0.1821,3.0,2.0,Catalán,0.0,Castellano,0.0,Inglés,5.0,3.0,6.0,yes,no,yes,Flauta,7,,,Nada ,71.0,yes
59,2024-04-22_21h18.49.889,Unsyncopated_study3,s139,31.0,feminino,right,España,Catalán y castellano,Doctorate,no,no,B,1,conjunction_syn,L2,syncopated,s1,r1,59,Online_conjL2_syn//d.si.ñu7.444.1110.wav,go,to,si,du,sil,ñu,te,mi,sil1,su,sil2,['catch'],[1.8579000000953556],[1.8579000000953556],1.11,no_beat,0.7479000000953555,0.7479000000953555,"[""space""]",ñu,4,testWhenL1Uns//time_viol.r1.s1.0.wav,3.0,when,unsyncopated,a,s1,no_rule,time,L1,z,0.3173,7.0,1.0,0.1181,3.0,2.0,Catalán,0.0,Castellano,0.0,Inglés,5.0,3.0,6.0,yes,no,yes,Flauta,7,,,Nada ,71.0,yes
60,2024-04-22_21h18.49.889,Unsyncopated_study3,s139,31.0,feminino,right,España,Catalán y castellano,Doctorate,no,no,B,1,conjunction_syn,L2,syncopated,s1,r2,60,Online_conjL2_syn//b.fe.ra17.0.666.wav,fe,ño,ba,ra,sil,me,to,su,sil1,bi,sil2,['catch'],[1.408800000071551],[1.408800000071551],0.666,no_beat,0.742800000071551,0.742800000071551,"[""space""]",ra,2,testWhenL1Uns//r1.s2.2.wav,3.0,when,unsyncopated,a,s2,rule,rule,L1,m,0.4645,4.0,0.0,0.151,3.0,2.0,Catalán,0.0,Castellano,0.0,Inglés,5.0,3.0,6.0,yes,no,yes,Flauta,7,,,Nada ,71.0,yes
61,2024-04-22_21h18.49.889,Unsyncopated_study3,s139,31.0,feminino,right,España,Catalán y castellano,Doctorate,no,no,B,1,conjunction_syn,L2,syncopated,s1,r1,61,Online_conjL2_syn//b.fe.ra18.none.none.wav,go,ba,mi,du,sil,su,ñu,me,sil1,ño,sil2,['-'],,,none,none,,,,ra,2,testWhenL1Uns//cat_viol.r2.s1.0.wav,3.0,when,unsyncopated,b,s1,no_rule,cat,L1,m,0.3346,3.0,0.0,0.1017,3.0,2.0,Catalán,0.0,Castellano,0.0,Inglés,5.0,3.0,6.0,yes,no,yes,Flauta,7,,,Nada ,71.0,yes
62,2024-04-22_21h18.49.889,Unsyncopated_study3,s139,31.0,feminino,right,España,Catalán y castellano,Doctorate,no,no,B,1,conjunction_syn,L2,syncopated,s1,r1,62,Online_conjL2_syn//b.fe.ra19.none.none.wav,go,bi,ño,du,sil,si,mi,me,sil1,cha,sil2,['-'],,,none,none,,,,ra,2,testWhenL1Uns//r1.s2.0.wav,3.0,when,unsyncopated,a,s2,rule,rule,L1,z,0.3011,7.0,1.0,0.1344,3.0,2.0,Catalán,0.0,Castellano,0.0,Inglés,5.0,3.0,6.0,yes,no,yes,Flauta,7,,,Nada ,71.0,yes
63,2024-04-22_21h18.49.889,Unsyncopated_study3,s139,31.0,feminino,right,España,Catalán y castellano,Doctorate,no,no,B,1,conjunction_syn,L2,syncopated,s2,r2,63,Online_conjL2_syn//b.fe.ra16.666.1554.wav,to,ñu,mi,fe,sil,ño,cha,ra,sil1,me,sil2,['catch'],[1.9422999999522972],[1.9422999999522972],1.554,no_beat,0.3882999999522971,0.3882999999522971,"[""space""]",ra,2,testWhenL1Uns//time_viol.r2.s2.0.wav,3.0,when,unsyncopated,b,s2,no_rule,time,L1,m,0.7313,3.0,0.0,0.1978,3.0,2.0,Catalán,0.0,Castellano,0.0,Inglés,5.0,3.0,6.0,yes,no,yes,Flauta,7,,,Nada ,71.0,yes
64,2024-04-22_21h18.49.889,Unsyncopated_study3,s139,31.0,feminino,right,España,Catalán y castellano,Doctorate,no,no,B,1,conjunction_syn,L2,syncopated,s1,r1,64,Online_conjL2_syn//c.cha.me10.none.none.wav,go,te,bi,du,sil,si,ño,ba,sil1,to,sil2,['false alarm'],[1.4123999999761736],[1.4123999999761736],none,none,,,"[""space""]",me,3,testWhenL1Uns//r1.s1.2.wav,3.0,when,unsyncopated,a,s1,rule,rule,L1,z,0.1362,7.0,1.0,0.1965,3.0,2.0,Catalán,0.0,Castellano,0.0,Inglés,5.0,3.0,6.0,yes,no,yes,Flauta,7,,,Nada ,71.0,yes
65,2024-04-22_21h18.49.889,Unsyncopated_study3,s139,31.0,feminino,right,España,Catalán y castellano,Doctorate,no,no,B,1,conjunction_syn,L2,syncopated,s2,r2,65,Online_conjL2_syn//c.cha.me8.222.1110.wav,si,cha,to,fe,sil,me,ba,ra,sil1,ñu,sil2,['miss'],,,1.11,no_beat,,,,me,3,testWhenL1Uns//r2.s1.2.wav,3.0,when,unsyncopated,b,s1,rule,rule,L1,m,2.9417,3.0,0.0,0.1531,3.0,2.0,Catalán,0.0,Castellano,0.0,Inglés,5.0,3.0,6.0,yes,no,yes,Flauta,7,,,Nada ,71.0,yes
66,2024-04-22_21h18.49.889,Unsyncopated_study3,s139,31.0,feminino,right,España,Catalán y castellano,Doctorate,no,no,B,1,conjunction_syn,L2,syncopated,s2,r2,66,Online_conjL2_syn//c.cha.me9.none.none.wav,ño,mi,to,fe,sil,si,te,ra,sil1,ñu,sil2,['false alarm'],[1.3237999999522572],[1.3237999999522572],none,none,,,"[""space""]",me,3,testWhenL1Uns//r1.s2.1.wav,3.0,when,unsyncopated,a,s2,rule,rule,L1,z,0.6575,5.0,1.0,0.7852,3.0,2.0,Catalán,0.0,Castellano,0.0,Inglés,5.0,3.0,6.0,yes,no,yes,Flauta,7,,,Nada ,71.0,yes
67,2024-04-22_21h18.49.889,Unsyncopated_study3,s139,31.0,feminino,right,España,Catalán y castellano,Doctorate,no,no,B,1,conjunction_syn,L2,syncopated,s1,r2,67,Online_conjL2_syn//c.cha.me11.1554.1110.wav,fe,mi,ñu,ra,sil,me,si,cha,sil1,ba,sil2,['catch'],[1.9154999999999518],[1.9154999999999518],1.11,no_beat,0.8054999999999517,0.8054999999999517,"[""space""]",me,3,testWhenL1Uns//cat_viol.r1.s2.0.wav,3.0,when,unsyncopated,a,s2,no_rule,cat,L1,z,0.4179,6.0,1.0,0.2346,3.0,2.0,Catalán,0.0,Castellano,0.0,Inglés,5.0,3.0,6.0,yes,no,yes,Flauta,7,,,Nada ,71.0,yes
68,2024-04-22_21h18.49.889,Unsyncopated_study3,s139,31.0,feminino,right,España,Catalán y castellano,Doctorate,no,no,B,1,conjunction_syn,L2,syncopated,s2,r2,68,Online_conjL2_syn//a.go.du8.none.none.wav,to,bi,te,fe,sil,ñu,mi,ra,sil1,si,sil2,['-'],,,none,none,,,,go,1,testWhenL1Uns//r1.s1.1.wav,3.0,when,unsyncopated,a,s1,rule,rule,L1,z,0.048,6.0,1.0,0.315,3.0,2.0,Catalán,0.0,Castellano,0.0,Inglés,5.0,3.0,6.0,yes,no,yes,Flauta,7,,,Nada ,71.0,yes
69,2024-04-22_21h18.49.889,Unsyncopated_study3,s139,31.0,feminino,right,España,Catalán y castellano,Doctorate,no,no,B,1,conjunction_syn,L2,syncopated,s1,r2,69,Online_conjL2_syn//a.go.du9.none.none.wav,fe,ñu,bi,ra,sil,to,te,si,sil1,su,sil2,['false alarm'],[1.6785000000000991],[1.6785000000000991],none,none,,,"[""space""]",go,1,testWhenL1Uns//r1.s1.0.wav,3.0,when,unsyncopated,a,s1,rule,rule,L1,z,0.4808,7.0,1.0,0.2479,3.0,2.0,Catalán,0.0,Castellano,0.0,Inglés,5.0,3.0,6.0,yes,no,yes,Flauta,7,,,Nada ,71.0,yes
70,2024-04-22_21h18.49.889,Unsyncopated_study3,s139,31.0,feminino,right,España,Catalán y castellano,Doctorate,no,no,B,1,conjunction_syn,L2,syncopated,s2,r2,70,Online_conjL2_syn//a.go.du11.none.none.wav,to,te,ba,fe,sil,cha,me,ra,sil1,bi,sil2,['-'],,,none,none,,,,go,1,testWhenL1Uns//time_viol.r2.s1.0.wav,3.0,when,unsyncopated,b,s1,no_rule,time,L1,m,0.9206,3.0,0.0,0.1346,3.0,2.0,Catalán,0.0,Castellano,0.0,Inglés,5.0,3.0,6.0,yes,no,yes,Flauta,7,,,Nada ,71.0,yes
71,2024-04-22_21h18.49.889,Unsyncopated_study3,s139,31.0,feminino,right,España,Catalán y castellano,Doctorate,no,no,B,1,conjunction_syn,L2,syncopated,s1,r2,71,Online_conjL2_syn//a.go.du10.none.none.wav,fe,cha,ba,ra,sil,ño,si,me,sil1,mi,sil2,['-'],,,none,none,,,,go,1,testWhenL1Uns//r2.s1.1.wav,3.0,when,unsyncopated,b,s1,rule,rule,L1,z,0.1052,7.0,1.0,0.2141,3.0,2.0,Catalán,0.0,Castellano,0.0,Inglés,5.0,3.0,6.0,yes,no,yes,Flauta,7,,,Nada ,71.0,yes
72,2024-04-22_21h18.49.889,Unsyncopated_study3,s139,31.0,feminino,right,España,Catalán y castellano,Doctorate,no,no,B,1,conjunction_syn,L2,syncopated,s2,r1,72,Online_conjL2_syn//c.cha.me1.222.444.wav,bi,cha,me,go,sil,ño,ñu,du,sil1,su,sil2,['catch'],[1.0620000000000118],[1.0620000000000118],0.444,no_beat,0.6180000000000119,0.6180000000000119,"[""space""]",me,3,testConjL3Uns//dep_viol.r1.s1.0.wav,4.0,conjunction_un,unsyncopated,a,s1,no_rule,dep,L3,z,1.0015,7.0,0.0,0.2038,3.0,2.0,Catalán,0.0,Castellano,0.0,Inglés,5.0,3.0,6.0,yes,no,yes,Flauta,7,,,Nada ,71.0,yes
73,2024-04-22_21h18.49.889,Unsyncopated_study3,s139,31.0,feminino,right,España,Catalán y castellano,Doctorate,no,no,B,1,conjunction_syn,L2,syncopated,s2,r1,73,Online_conjL2_syn//c.cha.me3.444.0.wav,me,ba,cha,go,sil,te,mi,du,sil1,ñu,sil2,['catch'],[0.7898000000715228],[0.7898000000715228],0.0,beat,0.7898000000715228,0.7898000000715228,"[""space""]",me,3,testConjL3Uns//cat_viol.r2.s1.0.wav,4.0,conjunction_un,unsyncopated,b,s1,no_rule,cat,L3,z,0.0345,7.0,0.0,0.2914,3.0,2.0,Catalán,0.0,Castellano,0.0,Inglés,5.0,3.0,6.0,yes,no,yes,Flauta,7,,,Nada ,71.0,yes
74,2024-04-22_21h18.49.889,Unsyncopated_study3,s139,31.0,feminino,right,España,Catalán y castellano,Doctorate,no,no,B,1,conjunction_syn,L2,syncopated,s2,r1,74,Online_conjL2_syn//c.cha.me2.444.0.wav,me,te,cha,go,sil,mi,su,du,sil1,ño,sil2,['catch'],[0.4571000000237291],[0.4571000000237291],0.0,beat,0.4571000000237291,0.4571000000237291,"[""space""]",me,3,testConjL3Uns//r2.s2.0.wav,4.0,conjunction_un,unsyncopated,b,s2,rule,rule,L3,m,1.0192,3.0,0.0,0.2546,3.0,2.0,Catalán,0.0,Castellano,0.0,Inglés,5.0,3.0,6.0,yes,no,yes,Flauta,7,,,Nada ,71.0,yes
75,2024-04-22_21h18.49.889,Unsyncopated_study3,s139,31.0,feminino,right,España,Catalán y castellano,Doctorate,no,no,B,1,conjunction_syn,L2,syncopated,s2,r2,75,Online_conjL2_syn//c.cha.me0.444.1110.wav,te,su,cha,fe,sil,me,si,ra,sil1,ba,sil2,['catch'],[1.7419999999999618],[1.7419999999999618],1.11,no_beat,0.6319999999999617,0.6319999999999617,"[""space""]",me,3,testConjL3Uns//dep_viol.r2.s2.0.wav,4.0,conjunction_un,unsyncopated,b,s2,no_rule,dep,L3,m,0.5014,3.0,1.0,0.1685,3.0,2.0,Catalán,0.0,Castellano,0.0,Inglés,5.0,3.0,6.0,yes,no,yes,Flauta,7,,,Nada ,71.0,yes
76,2024-04-22_21h18.49.889,Unsyncopated_study3,s139,31.0,feminino,right,España,Catalán y castellano,Doctorate,no,no,B,1,conjunction_syn,L2,syncopated,s2,r2,76,Online_conjL2_syn//d.si.ñu12.0.222.wav,si,ñu,cha,fe,sil,te,me,ra,sil1,to,sil2,['catch'],[0.8942999999522954],[0.8942999999522954],0.222,no_beat,0.6722999999522954,0.6722999999522954,"[""space""]",ñu,4,testConjL3Uns//r1.s1.1.wav,4.0,conjunction_un,unsyncopated,a,s1,rule,rule,L3,z,0.9852,7.0,1.0,0.1683,3.0,2.0,Catalán,0.0,Castellano,0.0,Inglés,5.0,3.0,6.0,yes,no,yes,Flauta,7,,,Nada ,71.0,yes
77,2024-04-22_21h18.49.889,Unsyncopated_study3,s139,31.0,feminino,right,España,Catalán y castellano,Doctorate,no,no,B,1,conjunction_syn,L2,syncopated,s2,r1,77,Online_conjL2_syn//d.si.ñu15.none.none.wav,su,ño,ba,go,sil,bi,mi,du,sil1,to,sil2,['false alarm'],[0.9701000000237627],[0.9701000000237627],none,none,,,"[""space""]",ñu,4,testConjL3Uns//r2.s2.1.wav,4.0,conjunction_un,unsyncopated,b,s2,rule,rule,L3,z,0.3685,7.0,1.0,0.2178,3.0,2.0,Catalán,0.0,Castellano,0.0,Inglés,5.0,3.0,6.0,yes,no,yes,Flauta,7,,,Nada ,71.0,yes
78,2024-04-22_21h18.49.889,Unsyncopated_study3,s139,31.0,feminino,right,España,Catalán y castellano,Doctorate,no,no,B,1,conjunction_syn,L2,syncopated,s2,r1,78,Online_conjL2_syn//d.si.ñu13.none.none.wav,bi,te,to,go,sil,ño,cha,du,sil1,me,sil2,['-'],,,none,none,,,,ñu,4,testConjL3Uns//r1.s1.2.wav,4.0,conjunction_un,unsyncopated,a,s1,rule,rule,L3,z,0.8188,7.0,1.0,0.1677,3.0,2.0,Catalán,0.0,Castellano,0.0,Inglés,5.0,3.0,6.0,yes,no,yes,Flauta,7,,,Nada ,71.0,yes
79,2024-04-22_21h18.49.889,Unsyncopated_study3,s139,31.0,feminino,right,España,Catalán y castellano,Doctorate,no,no,B,1,conjunction_syn,L2,syncopated,s1,r2,79,Online_conjL2_syn//d.si.ñu14.none.none.wav,fe,cha,bi,ra,sil,to,mi,me,sil1,ba,sil2,['-'],,,none,none,,,,ñu,4,testConjL3Uns//r2.s1.1.wav,4.0,conjunction_un,unsyncopated,b,s1,rule,rule,L3,z,0.2873,6.0,1.0,0.167,3.0,2.0,Catalán,0.0,Castellano,0.0,Inglés,5.0,3.0,6.0,yes,no,yes,Flauta,7,,,Nada ,71.0,yes
80,2024-04-22_21h18.49.889,Unsyncopated_study3,s139,31.0,feminino,right,España,Catalán y castellano,Doctorate,no,no,B,1,conjunction_syn,L2,syncopated,s2,r1,80,Online_conjL2_syn//a.go.du24.666.1554.wav,ño,ñu,si,go,sil,me,su,du,sil1,te,sil2,"['catch', 'false alarm']","[0.9951000000238537, 1.5609999999999218]",[0.9951000000238537],0.666,no_beat,0.3291000000238536,0.3291000000238536,"[""space"",""space""]",go,1,testConjL3Uns//r1.s2.0.wav,4.0,conjunction_un,unsyncopated,a,s2,rule,rule,L3,z,0.4511,7.0,1.0,0.211,3.0,2.0,Catalán,0.0,Castellano,0.0,Inglés,5.0,3.0,6.0,yes,no,yes,Flauta,7,,,Nada ,71.0,yes
81,2024-04-22_21h18.49.889,Unsyncopated_study3,s139,31.0,feminino,right,España,Catalán y castellano,Doctorate,no,no,B,1,conjunction_syn,L2,syncopated,s1,r2,81,Online_conjL2_syn//a.go.du26.none.none.wav,fe,ba,su,ra,sil,bi,me,ñu,sil1,cha,sil2,['-'],,,none,none,,,,go,1,testConjL3Uns//r1.s1.0.wav,4.0,conjunction_un,unsyncopated,a,s1,rule,rule,L3,m,0.4678,3.0,0.0,0.1699,3.0,2.0,Catalán,0.0,Castellano,0.0,Inglés,5.0,3.0,6.0,yes,no,yes,Flauta,7,,,Nada ,71.0,yes
82,2024-04-22_21h18.49.889,Unsyncopated_study3,s139,31.0,feminino,right,España,Catalán y castellano,Doctorate,no,no,B,1,conjunction_syn,L2,syncopated,s1,r2,82,Online_conjL2_syn//a.go.du25.none.none.wav,fe,ba,to,ra,sil,me,cha,si,sil1,ño,sil2,['-'],,,none,none,,,,go,1,testConjL3Uns//r2.s2.2.wav,4.0,conjunction_un,unsyncopated,b,s2,rule,rule,L3,z,0.4014,7.0,1.0,0.1695,3.0,2.0,Catalán,0.0,Castellano,0.0,Inglés,5.0,3.0,6.0,yes,no,yes,Flauta,7,,,Nada ,71.0,yes
83,2024-04-22_21h18.49.889,Unsyncopated_study3,s139,31.0,feminino,right,España,Catalán y castellano,Doctorate,no,no,B,1,conjunction_syn,L2,syncopated,s1,r1,83,Online_conjL2_syn//a.go.du27.0.666.wav,go,te,ñu,du,sil,bi,ño,su,sil1,me,sil2,['catch'],[0.7452999999522945],[0.7452999999522945],0.0,beat,0.7452999999522945,0.7452999999522945,"[""space""]",go,1,testConjL3Uns//r2.s1.0.wav,4.0,conjunction_un,unsyncopated,b,s1,rule,rule,L3,m,1.8859,2.0,0.0,0.2532,3.0,2.0,Catalán,0.0,Castellano,0.0,Inglés,5.0,3.0,6.0,yes,no,yes,Flauta,7,,,Nada ,71.0,yes
84,2024-04-22_21h18.49.889,Unsyncopated_study3,s139,31.0,feminino,right,España,Catalán y castellano,Doctorate,no,no,B,1,conjunction_syn,L2,syncopated,s1,r1,84,Online_conjL2_syn//d.si.ñu1.none.none.wav,go,te,ba,du,sil,bi,mi,me,sil1,to,sil2,['false alarm'],[0.6132000000477547],[0.6132000000477547],none,none,,,"[""space""]",ñu,4,testConjL3Uns//time_viol.r2.s1.0.wav,4.0,conjunction_un,unsyncopated,b,s1,no_rule,time,L3,m,0.3815,2.0,1.0,0.1041,3.0,2.0,Catalán,0.0,Castellano,0.0,Inglés,5.0,3.0,6.0,yes,no,yes,Flauta,7,,,Nada ,71.0,yes
85,2024-04-22_21h18.49.889,Unsyncopated_study3,s139,31.0,feminino,right,España,Catalán y castellano,Doctorate,no,no,B,1,conjunction_syn,L2,syncopated,s1,r2,85,Online_conjL2_syn//d.si.ñu2.none.none.wav,fe,bi,me,ra,sil,te,mi,to,sil1,cha,sil2,['-'],,,none,none,,,,ñu,4,testConjL3Uns//cat_viol.r1.s1.0.wav,4.0,conjunction_un,unsyncopated,a,s1,no_rule,cat,L3,z,0.0011,7.0,0.0,0.9519,3.0,2.0,Catalán,0.0,Castellano,0.0,Inglés,5.0,3.0,6.0,yes,no,yes,Flauta,7,,,Nada ,71.0,yes
86,2024-04-22_21h18.49.889,Unsyncopated_study3,s139,31.0,feminino,right,España,Catalán y castellano,Doctorate,no,no,B,1,conjunction_syn,L2,syncopated,s1,r1,86,Online_conjL2_syn//d.si.ñu3.none.none.wav,go,to,cha,du,sil,bi,te,mi,sil1,ño,sil2,['false alarm'],[2.5795999999045307],[2.5795999999045307],none,none,,,"[""space""]",ñu,4,testConjL3Uns//time_viol.r1.s1.0.wav,4.0,conjunction_un,unsyncopated,a,s1,no_rule,time,L3,z,0.3641,7.0,0.0,0.3188,3.0,2.0,Catalán,0.0,Castellano,0.0,Inglés,5.0,3.0,6.0,yes,no,yes,Flauta,7,,,Nada ,71.0,yes
87,2024-04-22_21h18.49.889,Unsyncopated_study3,s139,31.0,feminino,right,España,Catalán y castellano,Doctorate,no,no,B,1,conjunction_syn,L2,syncopated,s1,r1,87,Online_conjL2_syn//d.si.ñu0.1554.1110.wav,go,su,bi,du,sil,ñu,ba,si,sil1,ño,sil2,['catch'],[2.0618999999761627],[2.0618999999761627],1.11,no_beat,0.9518999999761626,0.9518999999761626,"[""space""]",ñu,4,testConjL3Uns//r2.s1.2.wav,4.0,conjunction_un,unsyncopated,b,s1,rule,rule,L3,z,0.3137,7.0,1.0,0.2525,3.0,2.0,Catalán,0.0,Castellano,0.0,Inglés,5.0,3.0,6.0,yes,no,yes,Flauta,7,,,Nada ,71.0,yes
88,2024-04-22_21h18.49.889,Unsyncopated_study3,s139,31.0,feminino,right,España,Catalán y castellano,Doctorate,no,no,B,1,conjunction_syn,L2,syncopated,s2,r1,88,Online_conjL2_syn//a.go.du19.666.1554.wav,ba,ño,mi,go,sil,me,te,du,sil1,to,sil2,"['false alarm', 'catch']","[0.1493000000715483, 1.2986000000238391]",[1.2986000000238391],0.666,no_beat,0.6326000000238391,0.6326000000238391,"[""space"",""space""]",go,1,testConjL3Uns//r1.s2.2.wav,4.0,conjunction_un,unsyncopated,a,s2,rule,rule,L3,m,9.624,1.0,0.0,0.214,3.0,2.0,Catalán,0.0,Castellano,0.0,Inglés,5.0,3.0,6.0,yes,no,yes,Flauta,7,,,Nada ,71.0,yes
89,2024-04-22_21h18.49.889,Unsyncopated_study3,s139,31.0,feminino,right,España,Catalán y castellano,Doctorate,no,no,B,1,conjunction_syn,L2,syncopated,s2,r2,89,Online_conjL2_syn//a.go.du16.none.none.wav,ño,te,ñu,fe,sil,me,si,ra,sil1,cha,sil2,['-'],,,none,none,,,,go,1,testConjL3Uns//cat_viol.r2.s2.0.wav,4.0,conjunction_un,unsyncopated,b,s2,no_rule,cat,L3,z,1.0853,5.0,0.0,0.1848,3.0,2.0,Catalán,0.0,Castellano,0.0,Inglés,5.0,3.0,6.0,yes,no,yes,Flauta,7,,,Nada ,71.0,yes
90,2024-04-22_21h18.49.889,Unsyncopated_study3,s139,31.0,feminino,right,España,Catalán y castellano,Doctorate,no,no,B,1,conjunction_syn,L2,syncopated,s1,r2,90,Online_conjL2_syn//a.go.du18.none.none.wav,fe,ba,su,ra,sil,cha,mi,to,sil1,ño,sil2,['-'],,,none,none,,,,go,1,testConjL3Uns//time_viol.r2.s2.0.wav,4.0,conjunction_un,unsyncopated,b,s2,no_rule,time,L3,z,0.7181,5.0,0.0,0.1845,3.0,2.0,Catalán,0.0,Castellano,0.0,Inglés,5.0,3.0,6.0,yes,no,yes,Flauta,7,,,Nada ,71.0,yes
91,2024-04-22_21h18.49.889,Unsyncopated_study3,s139,31.0,feminino,right,España,Catalán y castellano,Doctorate,no,no,B,1,conjunction_syn,L2,syncopated,s1,r1,91,Online_conjL2_syn//a.go.du17.0.666.wav,go,ba,ño,du,sil,to,si,te,sil1,cha,sil2,['catch'],[0.5283000000715674],[0.5283000000715674],0.0,beat,0.5283000000715674,0.5283000000715674,"[""space""]",go,1,testConjL3Uns//cat_viol.r1.s2.0.wav,4.0,conjunction_un,unsyncopated,a,s2,no_rule,cat,L3,m,0.6181,3.0,1.0,0.7684,3.0,2.0,Catalán,0.0,Castellano,0.0,Inglés,5.0,3.0,6.0,yes,no,yes,Flauta,7,,,Nada ,71.0,yes
92,2024-04-22_21h18.49.889,Unsyncopated_study3,s139,31.0,feminino,right,España,Catalán y castellano,Doctorate,no,no,B,1,conjunction_syn,L2,syncopated,s1,r1,92,Online_conjL2_syn//c.cha.me26.1332.222.wav,go,me,si,du,sil,ño,cha,su,sil1,ba,sil2,['catch'],[0.5526000000237445],[0.5526000000237445],0.222,no_beat,0.3306000000237445,0.3306000000237445,"[""space""]",me,3,testConjL3Uns//dep_viol.r2.s1.0.wav,4.0,conjunction_un,unsyncopated,b,s1,no_rule,dep,L3,m,0.4379,3.0,1.0,0.4976,3.0,2.0,Catalán,0.0,Castellano,0.0,Inglés,5.0,3.0,6.0,yes,no,yes,Flauta,7,,,Nada ,71.0,yes
93,2024-04-22_21h18.49.889,Unsyncopated_study3,s139,31.0,feminino,right,España,Catalán y castellano,Doctorate,no,no,B,1,conjunction_syn,L2,syncopated,s2,r1,93,Online_conjL2_syn//c.cha.me25.222.1110.wav,mi,cha,ñu,go,sil,me,ño,du,sil1,bi,sil2,['catch'],[1.7737999999523026],[1.7737999999523026],1.11,no_beat,0.6637999999523025,0.6637999999523025,"[""space""]",me,3,testConjL3Uns//r1.s2.1.wav,4.0,conjunction_un,unsyncopated,a,s2,rule,rule,L3,m,0.3188,3.0,0.0,0.1853,3.0,2.0,Catalán,0.0,Castellano,0.0,Inglés,5.0,3.0,6.0,yes,no,yes,Flauta,7,,,Nada ,71.0,yes
94,2024-04-22_21h18.49.889,Unsyncopated_study3,s139,31.0,feminino,right,España,Catalán y castellano,Doctorate,no,no,B,1,conjunction_syn,L2,syncopated,s1,r2,94,Online_conjL2_syn//c.cha.me27.none.none.wav,fe,si,su,ra,sil,ño,to,ñu,sil1,ba,sil2,['-'],,,none,none,,,,me,3,testConjL3Uns//time_viol.r1.s2.0.wav,4.0,conjunction_un,unsyncopated,a,s2,no_rule,time,L3,z,0.3476,7.0,0.0,0.1972,3.0,2.0,Catalán,0.0,Castellano,0.0,Inglés,5.0,3.0,6.0,yes,no,yes,Flauta,7,,,Nada ,71.0,yes
95,2024-04-22_21h18.49.889,Unsyncopated_study3,s139,31.0,feminino,right,España,Catalán y castellano,Doctorate,no,no,B,1,conjunction_syn,L2,syncopated,s1,r2,95,Online_conjL2_syn//c.cha.me24.none.none.wav,fe,ba,su,ra,sil,ñu,to,ño,sil1,si,sil2,['false alarm'],[1.0759000000954302],[1.0759000000954302],none,none,,,"[""space""]",me,3,testConjL3Uns//dep_viol.r1.s2.0.wav,4.0,conjunction_un,unsyncopated,a,s2,no_rule,dep,L3,z,0.4167,7.0,0.0,0.2149,3.0,2.0,Catalán,0.0,Castellano,0.0,Inglés,5.0,3.0,6.0,yes,no,yes,Flauta,7,,,Nada ,71.0,yes
96,2024-04-22_21h18.49.889,Unsyncopated_study3,s139,31.0,feminino,right,España,Catalán y castellano,Doctorate,no,no,B,1,conjunction_syn,L2,syncopated,s2,r1,96,Online_conjL2_syn//b.fe.ra12.none.none.wav,ba,to,mi,go,sil,bi,si,du,sil1,me,sil2,['-'],,,none,none,,,,ra,2,,,,,,,,,,,,,,,3.0,2.0,Catalán,0.0,Castellano,0.0,Inglés,5.0,3.0,6.0,yes,no,yes,Flauta,7,,,Nada ,71.0,yes
97,2024-04-22_21h18.49.889,Unsyncopated_study3,s139,31.0,feminino,right,España,Catalán y castellano,Doctorate,no,no,B,1,conjunction_syn,L2,syncopated,s1,r2,97,Online_conjL2_syn//b.fe.ra14.0.666.wav,fe,te,ño,ra,sil,su,cha,bi,sil1,to,sil2,['catch'],[1.3773999999762054],[1.3773999999762054],0.666,no_beat,0.7113999999762054,0.7113999999762054,"[""space""]",ra,2,,,,,,,,,,,,,,,3.0,2.0,Catalán,0.0,Castellano,0.0,Inglés,5.0,3.0,6.0,yes,no,yes,Flauta,7,,,Nada ,71.0,yes
98,2024-04-22_21h18.49.889,Unsyncopated_study3,s139,31.0,feminino,right,España,Catalán y castellano,Doctorate,no,no,B,1,conjunction_syn,L2,syncopated,s1,r2,98,Online_conjL2_syn//b.fe.ra13.0.666.wav,fe,si,ba,ra,sil,bi,su,ñu,sil1,ño,sil2,['catch'],[1.1789999999999736],[1.1789999999999736],0.666,no_beat,0.5129999999999736,0.5129999999999736,"[""space""]",ra,2,,,,,,,,,,,,,,,3.0,2.0,Catalán,0.0,Castellano,0.0,Inglés,5.0,3.0,6.0,yes,no,yes,Flauta,7,,,Nada ,71.0,yes
99,2024-04-22_21h18.49.889,Unsyncopated_study3,s139,31.0,feminino,right,España,Catalán y castellano,Doctorate,no,no,B,1,conjunction_syn,L2,syncopated,s1,r1,99,Online_conjL2_syn//b.fe.ra15.none.none.wav,go,ñu,to,du,sil,bi,cha,ño,sil1,ba,sil2,['-'],,,none,none,,,,ra,2,,,,,,,,,,,,,,,3.0,2.0,Catalán,0.0,Castellano,0.0,Inglés,5.0,3.0,6.0,yes,no,yes,Flauta,7,,,Nada ,71.0,yes
100,2024-04-22_21h18.49.889,Unsyncopated_study3,s139,31.0,feminino,right,España,Catalán y castellano,Doctorate,no,no,B,1,conjunction_syn,L2,syncopated,s1,r2,100,Online_conjL2_syn//d.si.ñu28.1554.1110.wav,fe,te,su,ra,sil,ñu,bi,si,sil1,mi,sil2,['catch'],[1.6051000000238673],[1.6051000000238673],1.11,no_beat,0.4951000000238672,0.4951000000238672,"[""space""]",ñu,4,,,,,,,,,,,,,,,3.0,2.0,Catalán,0.0,Castellano,0.0,Inglés,5.0,3.0,6.0,yes,no,yes,Flauta,7,,,Nada ,71.0,yes
101,2024-04-22_21h18.49.889,Unsyncopated_study3,s139,31.0,feminino,right,España,Catalán y castellano,Doctorate,no,no,B,1,conjunction_syn,L2,syncopated,s1,r1,101,Online_conjL2_syn//d.si.ñu30.222.1332.wav,go,si,te,du,sil,ño,ñu,mi,sil1,bi,sil2,['catch'],[1.7117999999522908],[1.7117999999522908],1.332,no_beat,0.3797999999522907,0.3797999999522907,"[""space""]",ñu,4,,,,,,,,,,,,,,,3.0,2.0,Catalán,0.0,Castellano,0.0,Inglés,5.0,3.0,6.0,yes,no,yes,Flauta,7,,,Nada ,71.0,yes
102,2024-04-22_21h18.49.889,Unsyncopated_study3,s139,31.0,feminino,right,España,Catalán y castellano,Doctorate,no,no,B,1,conjunction_syn,L2,syncopated,s1,r1,102,Online_conjL2_syn//d.si.ñu29.1554.222.wav,go,ñu,me,du,sil,ño,mi,si,sil1,to,sil2,"['catch', 'false alarm']","[1.131100000023821, 2.3634000000953392]",[1.131100000023821],0.222,no_beat,0.909100000023821,0.909100000023821,"[""space"",""space""]",ñu,4,,,,,,,,,,,,,,,3.0,2.0,Catalán,0.0,Castellano,0.0,Inglés,5.0,3.0,6.0,yes,no,yes,Flauta,7,,,Nada ,71.0,yes
103,2024-04-22_21h18.49.889,Unsyncopated_study3,s139,31.0,feminino,right,España,Catalán y castellano,Doctorate,no,no,B,1,conjunction_syn,L2,syncopated,s1,r1,103,Online_conjL2_syn//d.si.ñu31.none.none.wav,go,me,ño,du,sil,ba,te,mi,sil1,cha,sil2,['false alarm'],[0.9031999999284608],[0.9031999999284608],none,none,,,"[""space""]",ñu,4,,,,,,,,,,,,,,,3.0,2.0,Catalán,0.0,Castellano,0.0,Inglés,5.0,3.0,6.0,yes,no,yes,Flauta,7,,,Nada ,71.0,yes
104,2024-04-22_21h18.49.889,Unsyncopated_study3,s139,31.0,feminino,right,España,Catalán y castellano,Doctorate,no,no,B,1,conjunction_syn,L2,syncopated,s1,r2,104,Online_conjL2_syn//b.fe.ra1.0.666.wav,fe,to,bi,ra,sil,me,te,su,sil1,ño,sil2,['catch'],[1.1640999999046926],[1.1640999999046926],0.666,no_beat,0.4980999999046925,0.4980999999046925,"[""space""]",ra,2,,,,,,,,,,,,,,,3.0,2.0,Catalán,0.0,Castellano,0.0,Inglés,5.0,3.0,6.0,yes,no,yes,Flauta,7,,,Nada ,71.0,yes
105,2024-04-22_21h18.49.889,Unsyncopated_study3,s139,31.0,feminino,right,España,Catalán y castellano,Doctorate,no,no,B,1,conjunction_syn,L2,syncopated,s2,r2,105,Online_conjL2_syn//b.fe.ra3.666.1554.wav,cha,ba,ñu,fe,sil,me,ño,ra,sil1,bi,sil2,['catch'],[2.0652999999523445],[2.0652999999523445],1.554,no_beat,0.5112999999523444,0.5112999999523444,"[""space""]",ra,2,,,,,,,,,,,,,,,3.0,2.0,Catalán,0.0,Castellano,0.0,Inglés,5.0,3.0,6.0,yes,no,yes,Flauta,7,,,Nada ,71.0,yes
106,2024-04-22_21h18.49.889,Unsyncopated_study3,s139,31.0,feminino,right,España,Catalán y castellano,Doctorate,no,no,B,1,conjunction_syn,L2,syncopated,s2,r1,106,Online_conjL2_syn//b.fe.ra2.none.none.wav,te,to,bi,go,sil,cha,ñu,du,sil1,su,sil2,['-'],,,none,none,,,,ra,2,,,,,,,,,,,,,,,3.0,2.0,Catalán,0.0,Castellano,0.0,Inglés,5.0,3.0,6.0,yes,no,yes,Flauta,7,,,Nada ,71.0,yes
107,2024-04-22_21h18.49.889,Unsyncopated_study3,s139,31.0,feminino,right,España,Catalán y castellano,Doctorate,no,no,B,1,conjunction_syn,L2,syncopated,s2,r2,107,Online_conjL2_syn//b.fe.ra0.666.1554.wav,te,si,ba,fe,sil,mi,ño,ra,sil1,cha,sil2,['catch'],[2.1757999999523463],[2.1757999999523463],1.554,no_beat,0.6217999999523462,0.6217999999523462,"[""space""]",ra,2,,,,,,,,,,,,,,,3.0,2.0,Catalán,0.0,Castellano,0.0,Inglés,5.0,3.0,6.0,yes,no,yes,Flauta,7,,,Nada ,71.0,yes
108,2024-04-22_21h18.49.889,Unsyncopated_study3,s139,31.0,feminino,right,España,Catalán y castellano,Doctorate,no,no,B,1,conjunction_syn,L2,syncopated,s2,r1,108,Online_conjL2_syn//b.fe.ra22.none.none.wav,cha,ño,me,go,sil,ñu,to,du,sil1,mi,sil2,['-'],,,none,none,,,,ra,2,,,,,,,,,,,,,,,3.0,2.0,Catalán,0.0,Castellano,0.0,Inglés,5.0,3.0,6.0,yes,no,yes,Flauta,7,,,Nada ,71.0,yes
109,2024-04-22_21h18.49.889,Unsyncopated_study3,s139,31.0,feminino,right,España,Catalán y castellano,Doctorate,no,no,B,1,conjunction_syn,L2,syncopated,s1,r1,109,Online_conjL2_syn//b.fe.ra21.none.none.wav,go,bi,cha,du,sil,te,me,mi,sil1,ba,sil2,['-'],,,none,none,,,,ra,2,,,,,,,,,,,,,,,3.0,2.0,Catalán,0.0,Castellano,0.0,Inglés,5.0,3.0,6.0,yes,no,yes,Flauta,7,,,Nada ,71.0,yes
110,2024-04-22_21h18.49.889,Unsyncopated_study3,s139,31.0,feminino,right,España,Catalán y castellano,Doctorate,no,no,B,1,conjunction_syn,L2,syncopated,s2,r1,110,Online_conjL2_syn//b.fe.ra23.none.none.wav,me,su,bi,go,sil,ñu,mi,du,sil1,si,sil2,['-'],,,none,none,,,,ra,2,,,,,,,,,,,,,,,3.0,2.0,Catalán,0.0,Castellano,0.0,Inglés,5.0,3.0,6.0,yes,no,yes,Flauta,7,,,Nada ,71.0,yes
111,2024-04-22_21h18.49.889,Unsyncopated_study3,s139,31.0,feminino,right,España,Catalán y castellano,Doctorate,no,no,B,1,conjunction_syn,L2,syncopated,s2,r2,111,Online_conjL2_syn//b.fe.ra20.666.1554.wav,si,ño,cha,fe,sil,to,me,ra,sil1,su,sil2,['catch'],[2.0330000000000155],[2.0330000000000155],1.554,no_beat,0.4790000000000154,0.4790000000000154,"[""space""]",ra,2,,,,,,,,,,,,,,,3.0,2.0,Catalán,0.0,Castellano,0.0,Inglés,5.0,3.0,6.0,yes,no,yes,Flauta,7,,,Nada ,71.0,yes
112,2024-04-22_21h18.49.889,Unsyncopated_study3,s139,31.0,feminino,right,España,Catalán y castellano,Doctorate,no,no,B,1,conjunction_syn,L2,syncopated,s1,r2,112,Online_conjL2_syn//d.si.ñu8.none.none.wav,fe,ba,bi,ra,sil,cha,ño,te,sil1,mi,sil2,['-'],,,none,none,,,,ñu,4,,,,,,,,,,,,,,,3.0,2.0,Catalán,0.0,Castellano,0.0,Inglés,5.0,3.0,6.0,yes,no,yes,Flauta,7,,,Nada ,71.0,yes
113,2024-04-22_21h18.49.889,Unsyncopated_study3,s139,31.0,feminino,right,España,Catalán y castellano,Doctorate,no,no,B,1,conjunction_syn,L2,syncopated,s2,r1,113,Online_conjL2_syn//d.si.ñu10.none.none.wav,ño,te,me,go,sil,su,to,du,sil1,ba,sil2,['false alarm'],[0.5359999999999445],[0.5359999999999445],none,none,,,"[""space""]",ñu,4,,,,,,,,,,,,,,,3.0,2.0,Catalán,0.0,Castellano,0.0,Inglés,5.0,3.0,6.0,yes,no,yes,Flauta,7,,,Nada ,71.0,yes
114,2024-04-22_21h18.49.889,Unsyncopated_study3,s139,31.0,feminino,right,España,Catalán y castellano,Doctorate,no,no,B,1,conjunction_syn,L2,syncopated,s1,r2,114,Online_conjL2_syn//d.si.ñu11.none.none.wav,fe,me,ño,ra,sil,su,to,cha,sil1,bi,sil2,['false alarm'],[0.9735000000000582],[0.9735000000000582],none,none,,,"[""space""]",ñu,4,,,,,,,,,,,,,,,3.0,2.0,Catalán,0.0,Castellano,0.0,Inglés,5.0,3.0,6.0,yes,no,yes,Flauta,7,,,Nada ,71.0,yes
115,2024-04-22_21h18.49.889,Unsyncopated_study3,s139,31.0,feminino,right,España,Catalán y castellano,Doctorate,no,no,B,1,conjunction_syn,L2,syncopated,s1,r2,115,Online_conjL2_syn//d.si.ñu9.1110.1332.wav,fe,te,ño,ra,sil,si,ñu,bi,sil1,cha,sil2,['false alarm'],[1.0157999999523781],[1.0157999999523781],1.332,no_beat,,,"[""space""]",ñu,4,,,,,,,,,,,,,,,3.0,2.0,Catalán,0.0,Castellano,0.0,Inglés,5.0,3.0,6.0,yes,no,yes,Flauta,7,,,Nada ,71.0,yes
116,2024-04-22_21h18.49.889,Unsyncopated_study3,s139,31.0,feminino,right,España,Catalán y castellano,Doctorate,no,no,B,1,conjunction_syn,L2,syncopated,s2,r2,116,Online_conjL2_syn//c.cha.me29.none.none.wav,te,bi,to,fe,sil,ño,si,ra,sil1,mi,sil2,['false alarm'],[1.1796000000239246],[1.1796000000239246],none,none,,,"[""space""]",me,3,,,,,,,,,,,,,,,3.0,2.0,Catalán,0.0,Castellano,0.0,Inglés,5.0,3.0,6.0,yes,no,yes,Flauta,7,,,Nada ,71.0,yes
117,2024-04-22_21h18.49.889,Unsyncopated_study3,s139,31.0,feminino,right,España,Catalán y castellano,Doctorate,no,no,B,1,conjunction_syn,L2,syncopated,s2,r2,117,Online_conjL2_syn//c.cha.me31.0.1110.wav,cha,ño,si,fe,sil,me,ba,ra,sil1,su,sil2,['catch'],[1.578400000095371],[1.578400000095371],1.11,no_beat,0.4684000000953709,0.4684000000953709,"[""space""]",me,3,,,,,,,,,,,,,,,3.0,2.0,Catalán,0.0,Castellano,0.0,Inglés,5.0,3.0,6.0,yes,no,yes,Flauta,7,,,Nada ,71.0,yes
118,2024-04-22_21h18.49.889,Unsyncopated_study3,s139,31.0,feminino,right,España,Catalán y castellano,Doctorate,no,no,B,1,conjunction_syn,L2,syncopated,s2,r1,118,Online_conjL2_syn//c.cha.me28.none.none.wav,su,te,ba,go,sil,mi,to,du,sil1,ño,sil2,['false alarm'],[0.19710000002385186],[0.19710000002385186],none,none,,,"[""space""]",me,3,,,,,,,,,,,,,,,3.0,2.0,Catalán,0.0,Castellano,0.0,Inglés,5.0,3.0,6.0,yes,no,yes,Flauta,7,,,Nada ,71.0,yes
119,2024-04-22_21h18.49.889,Unsyncopated_study3,s139,31.0,feminino,right,España,Catalán y castellano,Doctorate,no,no,B,1,conjunction_syn,L2,syncopated,s2,r2,119,Online_conjL2_syn//c.cha.me30.none.none.wav,to,ño,su,fe,sil,te,bi,ra,sil1,ñu,sil2,['-'],,,none,none,,,,me,3,,,,,,,,,,,,,,,3.0,2.0,Catalán,0.0,Castellano,0.0,Inglés,5.0,3.0,6.0,yes,no,yes,Flauta,7,,,Nada ,71.0,yes
120,2024-04-22_21h18.49.889,Unsyncopated_study3,s139,31.0,feminino,right,España,Catalán y castellano,Doctorate,no,no,B,1,conjunction_syn,L2,syncopated,s2,r1,120,Online_conjL2_syn//a.go.du12.666.1554.wav,cha,bi,te,go,sil,ba,ñu,du,sil1,si,sil2,['catch'],[1.1811000000238892],[1.1811000000238892],0.666,no_beat,0.5151000000238891,0.5151000000238891,"[""space""]",go,1,,,,,,,,,,,,,,,3.0,2.0,Catalán,0.0,Castellano,0.0,Inglés,5.0,3.0,6.0,yes,no,yes,Flauta,7,,,Nada ,71.0,yes
121,2024-04-22_21h18.49.889,Unsyncopated_study3,s139,31.0,feminino,right,España,Catalán y castellano,Doctorate,no,no,B,1,conjunction_syn,L2,syncopated,s2,r1,121,Online_conjL2_syn//a.go.du14.666.1554.wav,si,ba,me,go,sil,ño,su,du,sil1,to,sil2,['miss'],,,0.666,no_beat,,,,go,1,,,,,,,,,,,,,,,3.0,2.0,Catalán,0.0,Castellano,0.0,Inglés,5.0,3.0,6.0,yes,no,yes,Flauta,7,,,Nada ,71.0,yes
122,2024-04-22_21h18.49.889,Unsyncopated_study3,s139,31.0,feminino,right,España,Catalán y castellano,Doctorate,no,no,B,1,conjunction_syn,L2,syncopated,s2,r1,122,Online_conjL2_syn//a.go.du13.666.1554.wav,su,bi,ba,go,sil,ño,to,du,sil1,te,sil2,['catch'],[1.2766999999284963],[1.2766999999284963],0.666,no_beat,0.6106999999284962,0.6106999999284962,"[""space""]",go,1,,,,,,,,,,,,,,,3.0,2.0,Catalán,0.0,Castellano,0.0,Inglés,5.0,3.0,6.0,yes,no,yes,Flauta,7,,,Nada ,71.0,yes
123,2024-04-22_21h18.49.889,Unsyncopated_study3,s139,31.0,feminino,right,España,Catalán y castellano,Doctorate,no,no,B,1,conjunction_syn,L2,syncopated,s1,r1,123,Online_conjL2_syn//a.go.du15.0.666.wav,go,bi,cha,du,sil,su,si,ño,sil1,me,sil2,['catch'],[0.6428000000715883],[0.6428000000715883],0.0,beat,0.6428000000715883,0.6428000000715883,"[""space""]",go,1,,,,,,,,,,,,,,,3.0,2.0,Catalán,0.0,Castellano,0.0,Inglés,5.0,3.0,6.0,yes,no,yes,Flauta,7,,,Nada ,71.0,yes
124,2024-04-22_21h18.49.889,Unsyncopated_study3,s139,31.0,feminino,right,España,Catalán y castellano,Doctorate,no,no,B,1,conjunction_syn,L2,syncopated,s1,r1,124,Online_conjL2_syn//c.cha.me13.222.1110.wav,go,cha,su,du,sil,me,ño,ñu,sil1,mi,sil2,['catch'],[1.57779999995239],[1.57779999995239],1.11,no_beat,0.4677999999523898,0.4677999999523898,"[""space""]",me,3,,,,,,,,,,,,,,,3.0,2.0,Catalán,0.0,Castellano,0.0,Inglés,5.0,3.0,6.0,yes,no,yes,Flauta,7,,,Nada ,71.0,yes
125,2024-04-22_21h18.49.889,Unsyncopated_study3,s139,31.0,feminino,right,España,Catalán y castellano,Doctorate,no,no,B,1,conjunction_syn,L2,syncopated,s1,r2,125,Online_conjL2_syn//c.cha.me15.222.1110.wav,fe,cha,si,ra,sil,me,su,ba,sil1,ñu,sil2,['catch'],[1.6133000000716038],[1.6133000000716038],1.11,no_beat,0.5033000000716037,0.5033000000716037,"[""space""]",me,3,,,,,,,,,,,,,,,3.0,2.0,Catalán,0.0,Castellano,0.0,Inglés,5.0,3.0,6.0,yes,no,yes,Flauta,7,,,Nada ,71.0,yes
126,2024-04-22_21h18.49.889,Unsyncopated_study3,s139,31.0,feminino,right,España,Catalán y castellano,Doctorate,no,no,B,1,conjunction_syn,L2,syncopated,s1,r1,126,Online_conjL2_syn//c.cha.me12.none.none.wav,go,te,ño,du,sil,bi,ñu,to,sil1,mi,sil2,['false alarm'],[1.5268999999761945],[1.5268999999761945],none,none,,,"[""space""]",me,3,,,,,,,,,,,,,,,3.0,2.0,Catalán,0.0,Castellano,0.0,Inglés,5.0,3.0,6.0,yes,no,yes,Flauta,7,,,Nada ,71.0,yes
127,2024-04-22_21h18.49.889,Unsyncopated_study3,s139,31.0,feminino,right,España,Catalán y castellano,Doctorate,no,no,B,1,conjunction_syn,L2,syncopated,s1,r2,127,Online_conjL2_syn//c.cha.me14.none.none.wav,fe,to,su,ra,sil,si,te,mi,sil1,bi,sil2,['-'],,,none,none,,,,me,3,,,,,,,,,,,,,,,3.0,2.0,Catalán,0.0,Castellano,0.0,Inglés,5.0,3.0,6.0,yes,no,yes,Flauta,7,,,Nada ,71.0,yes
128,2024-04-22_21h18.49.889,Unsyncopated_study3,s139,31.0,feminino,right,España,Catalán y castellano,Doctorate,no,no,B,2,what,L4,unsyncopated,s2,r2,0,Online_whatL4//b.ja.nu23.888.1776.wav,bo,ci,ña,sil,ja,de,ru,sil1,nu,pe,sil2,['catch'],[2.4915000000000873],[2.4915000000000873],1.776,beat,0.7155000000000873,0.7155000000000873,"[""space""]",nu,2,,,,,,,,,,,,,,,3.0,2.0,Catalán,0.0,Castellano,0.0,Inglés,5.0,3.0,6.0,yes,no,yes,Flauta,7,,,Nada ,71.0,yes
129,2024-04-22_21h18.49.889,Unsyncopated_study3,s139,31.0,feminino,right,España,Catalán y castellano,Doctorate,no,no,B,2,what,L4,unsyncopated,s1,r1,1,Online_whatL4//b.ja.nu22.none.none.wav,zi,ñi,ci,sil,lo,da,pe,sil2,po,bo,sil1,['-'],,,none,none,,,,nu,2,,,,,,,,,,,,,,,3.0,2.0,Catalán,0.0,Castellano,0.0,Inglés,5.0,3.0,6.0,yes,no,yes,Flauta,7,,,Nada ,71.0,yes
130,2024-04-22_21h18.49.889,Unsyncopated_study3,s139,31.0,feminino,right,España,Catalán y castellano,Doctorate,no,no,B,2,what,L4,unsyncopated,s2,r2,2,Online_whatL4//b.ja.nu21.1110.1998.wav,po,da,ci,sil2,ja,bu,re,sil,nu,pe,sil1,['catch_delay'],[0.7627999999525092],[0.7627999999525092],1.998,no_beat,0.7627999999525092,0.7627999999525092,,nu,2,,,,,,,,,,,,,,,3.0,2.0,Catalán,0.0,Castellano,0.0,Inglés,5.0,3.0,6.0,yes,no,yes,Flauta,7,,,Nada ,71.0,yes
131,2024-04-22_21h18.49.889,Unsyncopated_study3,s139,31.0,feminino,right,España,Catalán y castellano,Doctorate,no,no,B,2,what,L4,unsyncopated,s1,r2,3,Online_whatL4//b.ja.nu20.0.888.wav,ja,ñi,ci,sil,nu,bo,de,sil2,po,pe,sil1,['catch'],"[0.0967999999525091, 1.7602999999523945]",[1.7602999999523945],0.888,beat,0.8722999999523945,0.8722999999523945,"[""space"",""space""]",nu,2,,,,,,,,,,,,,,,3.0,2.0,Catalán,0.0,Castellano,0.0,Inglés,5.0,3.0,6.0,yes,no,yes,Flauta,7,,,Nada ,71.0,yes
132,2024-04-22_21h18.49.889,Unsyncopated_study3,s139,31.0,feminino,right,España,Catalán y castellano,Doctorate,no,no,B,2,what,L4,unsyncopated,s2,r1,4,Online_whatL4//c.bu.da14.222.444.wav,po,bu,da,sil,zi,pe,re,sil2,lo,ña,sil1,['miss'],,,0.444,no_beat,,,,da,3,,,,,,,,,,,,,,,3.0,2.0,Catalán,0.0,Castellano,0.0,Inglés,5.0,3.0,6.0,yes,no,yes,Flauta,7,,,Nada ,71.0,yes
133,2024-04-22_21h18.49.889,Unsyncopated_study3,s139,31.0,feminino,right,España,Catalán y castellano,Doctorate,no,no,B,2,what,L4,unsyncopated,s2,r2,5,Online_whatL4//c.bu.da12.none.none.wav,re,ñi,ña,sil,ja,po,bo,sil2,nu,de,sil1,['-'],,,none,none,,,,da,3,,,,,,,,,,,,,,,3.0,2.0,Catalán,0.0,Castellano,0.0,Inglés,5.0,3.0,6.0,yes,no,yes,Flauta,7,,,Nada ,71.0,yes
134,2024-04-22_21h18.49.889,Unsyncopated_study3,s139,31.0,feminino,right,España,Catalán y castellano,Doctorate,no,no,B,2,what,L4,unsyncopated,s1,r2,6,Online_whatL4//c.bu.da13.1332.444.wav,ja,de,da,sil,nu,ci,bu,sil1,ña,po,sil2,['catch'],[1.05729999995242],[1.05729999995242],0.444,no_beat,0.61329999995242,0.61329999995242,"[""space""]",da,3,,,,,,,,,,,,,,,3.0,2.0,Catalán,0.0,Castellano,0.0,Inglés,5.0,3.0,6.0,yes,no,yes,Flauta,7,,,Nada ,71.0,yes
135,2024-04-22_21h18.49.889,Unsyncopated_study3,s139,31.0,feminino,right,España,Catalán y castellano,Doctorate,no,no,B,2,what,L4,unsyncopated,s1,r1,7,Online_whatL4//c.bu.da15.1110.222.wav,zi,da,ru,sil,lo,bu,bo,sil1,ñi,ci,sil2,['miss'],,,0.222,no_beat,,,,da,3,,,,,,,,,,,,,,,3.0,2.0,Catalán,0.0,Castellano,0.0,Inglés,5.0,3.0,6.0,yes,no,yes,Flauta,7,,,Nada ,71.0,yes
136,2024-04-22_21h18.49.889,Unsyncopated_study3,s139,31.0,feminino,right,España,Catalán y castellano,Doctorate,no,no,B,2,what,L4,unsyncopated,s1,r2,8,Online_whatL4//d.pe.po21.none.none.wav,ja,ru,de,sil,nu,da,ñi,sil2,ña,re,sil1,['-'],,,none,none,,,,po,4,,,,,,,,,,,,,,,3.0,2.0,Catalán,0.0,Castellano,0.0,Inglés,5.0,3.0,6.0,yes,no,yes,Flauta,7,,,Nada ,71.0,yes
137,2024-04-22_21h18.49.889,Unsyncopated_study3,s139,31.0,feminino,right,España,Catalán y castellano,Doctorate,no,no,B,2,what,L4,unsyncopated,s1,r1,9,Online_whatL4//d.pe.po20.444.1332.wav,zi,ña,pe,sil,lo,re,po,sil2,de,ci,sil1,['catch'],[1.4575000000002092],[1.4575000000002092],1.332,no_beat,0.1255000000002091,0.1255000000002091,"[""space""]",po,4,,,,,,,,,,,,,,,3.0,2.0,Catalán,0.0,Castellano,0.0,Inglés,5.0,3.0,6.0,yes,no,yes,Flauta,7,,,Nada ,71.0,yes
138,2024-04-22_21h18.49.889,Unsyncopated_study3,s139,31.0,feminino,right,España,Catalán y castellano,Doctorate,no,no,B,2,what,L4,unsyncopated,s1,r1,10,Online_whatL4//d.pe.po22.1332.222.wav,zi,po,bu,sil,lo,ci,pe,sil2,ñi,bo,sil1,['miss'],,,0.222,no_beat,,,,po,4,,,,,,,,,,,,,,,3.0,2.0,Catalán,0.0,Castellano,0.0,Inglés,5.0,3.0,6.0,yes,no,yes,Flauta,7,,,Nada ,71.0,yes
139,2024-04-22_21h18.49.889,Unsyncopated_study3,s139,31.0,feminino,right,España,Catalán y castellano,Doctorate,no,no,B,2,what,L4,unsyncopated,s2,r1,11,Online_whatL4//d.pe.po23.none.none.wav,ña,ñi,de,sil2,zi,ru,bu,sil,lo,ci,sil1,['-'],,,none,none,,,,po,4,,,,,,,,,,,,,,,3.0,2.0,Catalán,0.0,Castellano,0.0,Inglés,5.0,3.0,6.0,yes,no,yes,Flauta,7,,,Nada ,71.0,yes
140,2024-04-22_21h18.49.889,Unsyncopated_study3,s139,31.0,feminino,right,España,Catalán y castellano,Doctorate,no,no,B,2,what,L4,unsyncopated,s1,r1,12,Online_whatL4//a.zi.lo21.0.888.wav,zi,ru,ña,sil,lo,pe,po,sil1,re,bo,sil2,['catch'],[0.9273000000714546],[0.9273000000714546],0.0,beat,0.9273000000714546,0.9273000000714546,"[""space""]",zi,1,,,,,,,,,,,,,,,3.0,2.0,Catalán,0.0,Castellano,0.0,Inglés,5.0,3.0,6.0,yes,no,yes,Flauta,7,,,Nada ,71.0,yes
141,2024-04-22_21h18.49.889,Unsyncopated_study3,s139,31.0,feminino,right,España,Catalán y castellano,Doctorate,no,no,B,2,what,L4,unsyncopated,s2,r2,13,Online_whatL4//a.zi.lo22.none.none.wav,ci,bu,da,sil,ja,re,ñi,sil1,nu,de,sil2,['-'],,,none,none,,,,zi,1,,,,,,,,,,,,,,,3.0,2.0,Catalán,0.0,Castellano,0.0,Inglés,5.0,3.0,6.0,yes,no,yes,Flauta,7,,,Nada ,71.0,yes
142,2024-04-22_21h18.49.889,Unsyncopated_study3,s139,31.0,feminino,right,España,Catalán y castellano,Doctorate,no,no,B,2,what,L4,unsyncopated,s2,r2,14,Online_whatL4//a.zi.lo23.none.none.wav,pe,ci,po,sil,ja,bu,de,sil2,nu,ñi,sil1,['-'],,,none,none,,,,zi,1,,,,,,,,,,,,,,,3.0,2.0,Catalán,0.0,Castellano,0.0,Inglés,5.0,3.0,6.0,yes,no,yes,Flauta,7,,,Nada ,71.0,yes
143,2024-04-22_21h18.49.889,Unsyncopated_study3,s139,31.0,feminino,right,España,Catalán y castellano,Doctorate,no,no,B,2,what,L4,unsyncopated,s2,r2,15,Online_whatL4//a.zi.lo20.none.none.wav,re,ña,ci,sil,ja,ñi,pe,sil1,nu,bo,sil2,['-'],,,none,none,,,,zi,1,,,,,,,,,,,,,,,3.0,2.0,Catalán,0.0,Castellano,0.0,Inglés,5.0,3.0,6.0,yes,no,yes,Flauta,7,,,Nada ,71.0,yes
144,2024-04-22_21h18.49.889,Unsyncopated_study3,s139,31.0,feminino,right,España,Catalán y castellano,Doctorate,no,no,B,2,what,L4,unsyncopated,s2,r1,16,Online_whatL4//c.bu.da8.none.none.wav,ña,ñi,pe,sil,zi,ci,re,sil1,lo,de,sil2,['-'],,,none,none,,,,da,3,,,,,,,,,,,,,,,3.0,2.0,Catalán,0.0,Castellano,0.0,Inglés,5.0,3.0,6.0,yes,no,yes,Flauta,7,,,Nada ,71.0,yes
145,2024-04-22_21h18.49.889,Unsyncopated_study3,s139,31.0,feminino,right,España,Catalán y castellano,Doctorate,no,no,B,2,what,L4,unsyncopated,s2,r2,17,Online_whatL4//c.bu.da11.none.none.wav,ci,bo,po,sil,ja,ña,pe,sil1,nu,re,sil2,['-'],,,none,none,,,,da,3,,,,,,,,,,,,,,,3.0,2.0,Catalán,0.0,Castellano,0.0,Inglés,5.0,3.0,6.0,yes,no,yes,Flauta,7,,,Nada ,71.0,yes
146,2024-04-22_21h18.49.889,Unsyncopated_study3,s139,31.0,feminino,right,España,Catalán y castellano,Doctorate,no,no,B,2,what,L4,unsyncopated,s1,r2,18,Online_whatL4//c.bu.da10.none.none.wav,ja,ru,ña,sil,nu,ci,ñi,sil2,pe,re,sil1,['-'],,,none,none,,,,da,3,,,,,,,,,,,,,,,3.0,2.0,Catalán,0.0,Castellano,0.0,Inglés,5.0,3.0,6.0,yes,no,yes,Flauta,7,,,Nada ,71.0,yes
147,2024-04-22_21h18.49.889,Unsyncopated_study3,s139,31.0,feminino,right,España,Catalán y castellano,Doctorate,no,no,B,2,what,L4,unsyncopated,s2,r2,19,Online_whatL4//c.bu.da9.none.none.wav,pe,po,de,sil,ja,ru,ña,sil2,nu,re,sil1,['false alarm'],[1.0767999999523],[1.0767999999523],none,none,,,"[""space""]",da,3,,,,,,,,,,,,,,,3.0,2.0,Catalán,0.0,Castellano,0.0,Inglés,5.0,3.0,6.0,yes,no,yes,Flauta,7,,,Nada ,71.0,yes
148,2024-04-22_21h18.49.889,Unsyncopated_study3,s139,31.0,feminino,right,España,Catalán y castellano,Doctorate,no,no,B,2,what,L4,unsyncopated,s2,r1,20,Online_whatL4//c.bu.da17.none.none.wav,ña,po,pe,sil,zi,ñi,re,sil1,lo,bo,sil2,['-'],,,none,none,,,,da,3,,,,,,,,,,,,,,,3.0,2.0,Catalán,0.0,Castellano,0.0,Inglés,5.0,3.0,6.0,yes,no,yes,Flauta,7,,,Nada ,71.0,yes
149,2024-04-22_21h18.49.889,Unsyncopated_study3,s139,31.0,feminino,right,España,Catalán y castellano,Doctorate,no,no,B,2,what,L4,unsyncopated,s2,r2,21,Online_whatL4//c.bu.da18.444.1332.wav,ña,pe,bu,sil2,ja,da,de,sil,nu,re,sil1,['catch'],[2.127999999999929],[2.127999999999929],1.332,no_beat,0.795999999999929,0.795999999999929,"[""space""]",da,3,,,,,,,,,,,,,,,3.0,2.0,Catalán,0.0,Castellano,0.0,Inglés,5.0,3.0,6.0,yes,no,yes,Flauta,7,,,Nada ,71.0,yes
150,2024-04-22_21h18.49.889,Unsyncopated_study3,s139,31.0,feminino,right,España,Catalán y castellano,Doctorate,no,no,B,2,what,L4,unsyncopated,s2,r2,22,Online_whatL4//c.bu.da16.none.none.wav,re,de,po,sil,ja,ci,ru,sil2,nu,ña,sil1,['-'],,,none,none,,,,da,3,,,,,,,,,,,,,,,3.0,2.0,Catalán,0.0,Castellano,0.0,Inglés,5.0,3.0,6.0,yes,no,yes,Flauta,7,,,Nada ,71.0,yes
151,2024-04-22_21h18.49.889,Unsyncopated_study3,s139,31.0,feminino,right,España,Catalán y castellano,Doctorate,no,no,B,2,what,L4,unsyncopated,s1,r2,23,Online_whatL4//c.bu.da19.1998.444.wav,ja,de,da,sil,nu,re,ci,sil2,bu,ña,sil1,['catch'],[1.3434000000954711],[1.3434000000954711],0.444,no_beat,0.8994000000954712,0.8994000000954712,"[""space""]",da,3,,,,,,,,,,,,,,,3.0,2.0,Catalán,0.0,Castellano,0.0,Inglés,5.0,3.0,6.0,yes,no,yes,Flauta,7,,,Nada ,71.0,yes
152,2024-04-22_21h18.49.889,Unsyncopated_study3,s139,31.0,feminino,right,España,Catalán y castellano,Doctorate,no,no,B,2,what,L4,unsyncopated,s1,r1,24,Online_whatL4//d.pe.po25.222.444.wav,zi,pe,po,sil2,lo,re,bu,sil,de,ru,sil1,['catch'],[1.0152999999522763],[1.0152999999522763],0.444,no_beat,0.5712999999522763,0.5712999999522763,"[""space""]",po,4,,,,,,,,,,,,,,,3.0,2.0,Catalán,0.0,Castellano,0.0,Inglés,5.0,3.0,6.0,yes,no,yes,Flauta,7,,,Nada ,71.0,yes
153,2024-04-22_21h18.49.889,Unsyncopated_study3,s139,31.0,feminino,right,España,Catalán y castellano,Doctorate,no,no,B,2,what,L4,unsyncopated,s1,r2,25,Online_whatL4//d.pe.po24.1110.1332.wav,ja,re,bu,sil,nu,pe,po,sil2,ci,ru,sil1,['catch'],[2.3268000000714437],[2.3268000000714437],1.332,no_beat,0.9948000000714436,0.9948000000714436,"[""space""]",po,4,,,,,,,,,,,,,,,3.0,2.0,Catalán,0.0,Castellano,0.0,Inglés,5.0,3.0,6.0,yes,no,yes,Flauta,7,,,Nada ,71.0,yes
154,2024-04-22_21h18.49.889,Unsyncopated_study3,s139,31.0,feminino,right,España,Catalán y castellano,Doctorate,no,no,B,2,what,L4,unsyncopated,s2,r2,26,Online_whatL4//d.pe.po26.none.none.wav,ru,da,ñi,sil,ja,bu,re,sil1,nu,de,sil2,['-'],,,none,none,,,,po,4,,,,,,,,,,,,,,,3.0,2.0,Catalán,0.0,Castellano,0.0,Inglés,5.0,3.0,6.0,yes,no,yes,Flauta,7,,,Nada ,71.0,yes
155,2024-04-22_21h18.49.889,Unsyncopated_study3,s139,31.0,feminino,right,España,Catalán y castellano,Doctorate,no,no,B,2,what,L4,unsyncopated,s2,r2,27,Online_whatL4//d.pe.po27.222.444.wav,re,pe,po,sil2,ja,ña,ru,sil,nu,ci,sil1,['catch'],[1.2439999999999145],[1.2439999999999145],0.444,no_beat,0.7999999999999146,0.7999999999999146,"[""space""]",po,4,,,,,,,,,,,,,,,3.0,2.0,Catalán,0.0,Castellano,0.0,Inglés,5.0,3.0,6.0,yes,no,yes,Flauta,7,,,Nada ,71.0,yes
156,2024-04-22_21h18.49.889,Unsyncopated_study3,s139,31.0,feminino,right,España,Catalán y castellano,Doctorate,no,no,B,2,what,L4,unsyncopated,s2,r1,28,Online_whatL4//b.ja.nu16.none.none.wav,bo,pe,po,sil,zi,ci,ñi,sil2,lo,ru,sil1,['-'],,,none,none,,,,nu,2,,,,,,,,,,,,,,,3.0,2.0,Catalán,0.0,Castellano,0.0,Inglés,5.0,3.0,6.0,yes,no,yes,Flauta,7,,,Nada ,71.0,yes
157,2024-04-22_21h18.49.889,Unsyncopated_study3,s139,31.0,feminino,right,España,Catalán y castellano,Doctorate,no,no,B,2,what,L4,unsyncopated,s1,r1,29,Online_whatL4//b.ja.nu17.none.none.wav,zi,ñi,ña,sil2,lo,pe,ci,sil,po,re,sil1,['-'],,,none,none,,,,nu,2,,,,,,,,,,,,,,,3.0,2.0,Catalán,0.0,Castellano,0.0,Inglés,5.0,3.0,6.0,yes,no,yes,Flauta,7,,,Nada ,71.0,yes
158,2024-04-22_21h18.49.889,Unsyncopated_study3,s139,31.0,feminino,right,España,Catalán y castellano,Doctorate,no,no,B,2,what,L4,unsyncopated,s1,r1,30,Online_whatL4//b.ja.nu19.none.none.wav,zi,pe,de,sil2,lo,bo,ru,sil,bu,po,sil1,['-'],,,none,none,,,,nu,2,,,,,,,,,,,,,,,3.0,2.0,Catalán,0.0,Castellano,0.0,Inglés,5.0,3.0,6.0,yes,no,yes,Flauta,7,,,Nada ,71.0,yes
159,2024-04-22_21h18.49.889,Unsyncopated_study3,s139,31.0,feminino,right,España,Catalán y castellano,Doctorate,no,no,B,2,what,L4,unsyncopated,s1,r2,31,Online_whatL4//b.ja.nu18.0.1110.wav,ja,re,ru,sil2,nu,bu,bo,sil,po,de,sil1,['miss'],,,1.11,no_beat,,,,nu,2,,,,,,,,,,,,,,,3.0,2.0,Catalán,0.0,Castellano,0.0,Inglés,5.0,3.0,6.0,yes,no,yes,Flauta,7,,,Nada ,71.0,yes
160,2024-04-22_21h18.49.889,Unsyncopated_study3,s139,31.0,feminino,right,España,Catalán y castellano,Doctorate,no,no,B,2,what,L4,unsyncopated,s2,r1,32,Online_whatL4//b.ja.nu1.none.none.wav,pe,re,de,sil2,zi,ñi,da,sil,lo,po,sil1,['-'],,,none,none,,,,nu,2,,,,,,,,,,,,,,,3.0,2.0,Catalán,0.0,Castellano,0.0,Inglés,5.0,3.0,6.0,yes,no,yes,Flauta,7,,,Nada ,71.0,yes
161,2024-04-22_21h18.49.889,Unsyncopated_study3,s139,31.0,feminino,right,España,Catalán y castellano,Doctorate,no,no,B,2,what,L4,unsyncopated,s2,r1,33,Online_whatL4//b.ja.nu2.none.none.wav,ña,re,ru,sil2,zi,de,bu,sil,lo,pe,sil1,['-'],,,none,none,,,,nu,2,,,,,,,,,,,,,,,3.0,2.0,Catalán,0.0,Castellano,0.0,Inglés,5.0,3.0,6.0,yes,no,yes,Flauta,7,,,Nada ,71.0,yes
162,2024-04-22_21h18.49.889,Unsyncopated_study3,s139,31.0,feminino,right,España,Catalán y castellano,Doctorate,no,no,B,2,what,L4,unsyncopated,s1,r1,34,Online_whatL4//b.ja.nu3.none.none.wav,zi,ci,pe,sil,lo,da,bu,sil2,bo,re,sil1,['-'],,,none,none,,,,nu,2,,,,,,,,,,,,,,,3.0,2.0,Catalán,0.0,Castellano,0.0,Inglés,5.0,3.0,6.0,yes,no,yes,Flauta,7,,,Nada ,71.0,yes
163,2024-04-22_21h18.49.889,Unsyncopated_study3,s139,31.0,feminino,right,España,Catalán y castellano,Doctorate,no,no,B,2,what,L4,unsyncopated,s1,r2,35,Online_whatL4//b.ja.nu0.0.888.wav,ja,pe,da,sil,nu,po,ña,sil1,ci,de,sil2,['catch'],[1.7821999999284799],[1.7821999999284799],0.888,beat,0.8941999999284799,0.8941999999284799,"[""space""]",nu,2,,,,,,,,,,,,,,,3.0,2.0,Catalán,0.0,Castellano,0.0,Inglés,5.0,3.0,6.0,yes,no,yes,Flauta,7,,,Nada ,71.0,yes
164,2024-04-22_21h18.49.889,Unsyncopated_study3,s139,31.0,feminino,right,España,Catalán y castellano,Doctorate,no,no,B,2,what,L4,unsyncopated,s2,r2,36,Online_whatL4//b.ja.nu25.888.1998.wav,bu,ru,de,sil,ja,ñi,bo,sil2,nu,pe,sil1,['catch_delay'],[0.7571000000237438],[0.7571000000237438],1.998,no_beat,0.7571000000237438,0.7571000000237438,,nu,2,,,,,,,,,,,,,,,3.0,2.0,Catalán,0.0,Castellano,0.0,Inglés,5.0,3.0,6.0,yes,no,yes,Flauta,7,,,Nada ,71.0,yes
165,2024-04-22_21h18.49.889,Unsyncopated_study3,s139,31.0,feminino,right,España,Catalán y castellano,Doctorate,no,no,B,2,what,L4,unsyncopated,s1,r2,37,Online_whatL4//b.ja.nu27.0.888.wav,ja,de,re,sil,nu,ci,pe,sil1,po,ñi,sil2,['miss'],[0.09110000002374363],[0.09110000002374363],0.888,beat,,,"[""space""]",nu,2,,,,,,,,,,,,,,,3.0,2.0,Catalán,0.0,Castellano,0.0,Inglés,5.0,3.0,6.0,yes,no,yes,Flauta,7,,,Nada ,71.0,yes
166,2024-04-22_21h18.49.889,Unsyncopated_study3,s139,31.0,feminino,right,España,Catalán y castellano,Doctorate,no,no,B,2,what,L4,unsyncopated,s2,r2,38,Online_whatL4//b.ja.nu26.888.1776.wav,da,ña,re,sil,ja,ci,bo,sil1,nu,bu,sil2,['catch'],[2.3417000000476946],[2.3417000000476946],1.776,beat,0.5657000000476946,0.5657000000476946,"[""space""]",nu,2,,,,,,,,,,,,,,,3.0,2.0,Catalán,0.0,Castellano,0.0,Inglés,5.0,3.0,6.0,yes,no,yes,Flauta,7,,,Nada ,71.0,yes
167,2024-04-22_21h18.49.889,Unsyncopated_study3,s139,31.0,feminino,right,España,Catalán y castellano,Doctorate,no,no,B,2,what,L4,unsyncopated,s2,r2,39,Online_whatL4//b.ja.nu24.888.1998.wav,ñi,ru,bo,sil,ja,po,de,sil2,nu,da,sil1,['catch_delay'],[0.802600000023691],[0.802600000023691],1.998,no_beat,0.802600000023691,0.802600000023691,,nu,2,,,,,,,,,,,,,,,3.0,2.0,Catalán,0.0,Castellano,0.0,Inglés,5.0,3.0,6.0,yes,no,yes,Flauta,7,,,Nada ,71.0,yes
168,2024-04-22_21h18.49.889,Unsyncopated_study3,s139,31.0,feminino,right,España,Catalán y castellano,Doctorate,no,no,B,2,what,L4,unsyncopated,s2,r2,40,Online_whatL4//b.ja.nu7.888.1776.wav,de,bo,re,sil,ja,ñi,bu,sil1,nu,da,sil2,['catch'],"[0.13660000002369088, 2.4303000000713837]",[2.4303000000713837],1.776,beat,0.6543000000713837,0.6543000000713837,"[""space"",""space""]",nu,2,,,,,,,,,,,,,,,3.0,2.0,Catalán,0.0,Castellano,0.0,Inglés,5.0,3.0,6.0,yes,no,yes,Flauta,7,,,Nada ,71.0,yes
169,2024-04-22_21h18.49.889,Unsyncopated_study3,s139,31.0,feminino,right,España,Catalán y castellano,Doctorate,no,no,B,2,what,L4,unsyncopated,s2,r2,41,Online_whatL4//b.ja.nu5.888.1776.wav,re,ña,ci,sil,ja,bu,ru,sil1,nu,de,sil2,['catch'],[2.399299999952291],[2.399299999952291],1.776,beat,0.6232999999522908,0.6232999999522908,"[""space""]",nu,2,,,,,,,,,,,,,,,3.0,2.0,Catalán,0.0,Castellano,0.0,Inglés,5.0,3.0,6.0,yes,no,yes,Flauta,7,,,Nada ,71.0,yes
170,2024-04-22_21h18.49.889,Unsyncopated_study3,s139,31.0,feminino,right,España,Catalán y castellano,Doctorate,no,no,B,2,what,L4,unsyncopated,s1,r2,42,Online_whatL4//b.ja.nu4.0.888.wav,ja,po,ru,sil,nu,ñi,de,sil2,ña,bo,sil1,['miss'],,,0.888,beat,,,,nu,2,,,,,,,,,,,,,,,3.0,2.0,Catalán,0.0,Castellano,0.0,Inglés,5.0,3.0,6.0,yes,no,yes,Flauta,7,,,Nada ,71.0,yes
171,2024-04-22_21h18.49.889,Unsyncopated_study3,s139,31.0,feminino,right,España,Catalán y castellano,Doctorate,no,no,B,2,what,L4,unsyncopated,s2,r2,43,Online_whatL4//b.ja.nu6.888.1776.wav,bo,ña,bu,sil,ja,re,pe,sil1,nu,ci,sil2,['miss'],,,1.776,beat,,,,nu,2,,,,,,,,,,,,,,,3.0,2.0,Catalán,0.0,Castellano,0.0,Inglés,5.0,3.0,6.0,yes,no,yes,Flauta,7,,,Nada ,71.0,yes
172,2024-04-22_21h18.49.889,Unsyncopated_study3,s139,31.0,feminino,right,España,Catalán y castellano,Doctorate,no,no,B,2,what,L4,unsyncopated,s1,r2,44,Online_whatL4//c.bu.da1.none.none.wav,ja,ña,ñi,sil2,nu,re,de,sil,ru,pe,sil1,['-'],,,none,none,,,,da,3,,,,,,,,,,,,,,,3.0,2.0,Catalán,0.0,Castellano,0.0,Inglés,5.0,3.0,6.0,yes,no,yes,Flauta,7,,,Nada ,71.0,yes
173,2024-04-22_21h18.49.889,Unsyncopated_study3,s139,31.0,feminino,right,España,Catalán y castellano,Doctorate,no,no,B,2,what,L4,unsyncopated,s2,r1,45,Online_whatL4//c.bu.da3.none.none.wav,pe,po,bo,sil,zi,re,ña,sil1,lo,ru,sil2,['-'],,,none,none,,,,da,3,,,,,,,,,,,,,,,3.0,2.0,Catalán,0.0,Castellano,0.0,Inglés,5.0,3.0,6.0,yes,no,yes,Flauta,7,,,Nada ,71.0,yes
174,2024-04-22_21h18.49.889,Unsyncopated_study3,s139,31.0,feminino,right,España,Catalán y castellano,Doctorate,no,no,B,2,what,L4,unsyncopated,s2,r1,46,Online_whatL4//c.bu.da2.1332.222.wav,de,da,po,sil,zi,ru,bu,sil2,lo,ña,sil1,['catch'],[1.2402999999524127],[1.2402999999524127],0.222,no_beat,1.0182999999524127,1.0182999999524127,"[""space""]",da,3,,,,,,,,,,,,,,,3.0,2.0,Catalán,0.0,Castellano,0.0,Inglés,5.0,3.0,6.0,yes,no,yes,Flauta,7,,,Nada ,71.0,yes
175,2024-04-22_21h18.49.889,Unsyncopated_study3,s139,31.0,feminino,right,España,Catalán y castellano,Doctorate,no,no,B,2,what,L4,unsyncopated,s2,r2,47,Online_whatL4//c.bu.da0.444.1332.wav,re,de,bu,sil2,ja,da,bo,sil,nu,pe,sil1,['miss'],,,1.332,no_beat,,,,da,3,,,,,,,,,,,,,,,3.0,2.0,Catalán,0.0,Castellano,0.0,Inglés,5.0,3.0,6.0,yes,no,yes,Flauta,7,,,Nada ,71.0,yes
176,2024-04-22_21h18.49.889,Unsyncopated_study3,s139,31.0,feminino,right,España,Catalán y castellano,Doctorate,no,no,B,2,what,L4,unsyncopated,s2,r1,48,Online_whatL4//b.ja.nu31.none.none.wav,bu,po,ru,sil2,zi,re,ña,sil,lo,de,sil1,['-'],,,none,none,,,,nu,2,,,,,,,,,,,,,,,3.0,2.0,Catalán,0.0,Castellano,0.0,Inglés,5.0,3.0,6.0,yes,no,yes,Flauta,7,,,Nada ,71.0,yes
177,2024-04-22_21h18.49.889,Unsyncopated_study3,s139,31.0,feminino,right,España,Catalán y castellano,Doctorate,no,no,B,2,what,L4,unsyncopated,s2,r1,49,Online_whatL4//b.ja.nu28.none.none.wav,de,ci,bu,sil,zi,bo,ña,sil2,lo,re,sil1,['-'],,,none,none,,,,nu,2,,,,,,,,,,,,,,,3.0,2.0,Catalán,0.0,Castellano,0.0,Inglés,5.0,3.0,6.0,yes,no,yes,Flauta,7,,,Nada ,71.0,yes
178,2024-04-22_21h18.49.889,Unsyncopated_study3,s139,31.0,feminino,right,España,Catalán y castellano,Doctorate,no,no,B,2,what,L4,unsyncopated,s1,r2,50,Online_whatL4//b.ja.nu29.0.888.wav,ja,de,da,sil,nu,ñi,ru,sil1,ci,ña,sil2,['catch'],[1.4246000000237018],[1.4246000000237018],0.888,beat,0.5366000000237018,0.5366000000237018,"[""space""]",nu,2,,,,,,,,,,,,,,,3.0,2.0,Catalán,0.0,Castellano,0.0,Inglés,5.0,3.0,6.0,yes,no,yes,Flauta,7,,,Nada ,71.0,yes
179,2024-04-22_21h18.49.889,Unsyncopated_study3,s139,31.0,feminino,right,España,Catalán y castellano,Doctorate,no,no,B,2,what,L4,unsyncopated,s1,r1,51,Online_whatL4//b.ja.nu30.none.none.wav,zi,da,bu,sil2,lo,bo,po,sil,de,ñi,sil1,['-'],,,none,none,,,,nu,2,,,,,,,,,,,,,,,3.0,2.0,Catalán,0.0,Castellano,0.0,Inglés,5.0,3.0,6.0,yes,no,yes,Flauta,7,,,Nada ,71.0,yes
180,2024-04-22_21h18.49.889,Unsyncopated_study3,s139,31.0,feminino,right,España,Catalán y castellano,Doctorate,no,no,B,2,what,L4,unsyncopated,s1,r1,52,Online_whatL4//c.bu.da4.none.none.wav,zi,ru,de,sil2,lo,ci,po,sil,pe,bo,sil1,['-'],,,none,none,,,,da,3,,,,,,,,,,,,,,,3.0,2.0,Catalán,0.0,Castellano,0.0,Inglés,5.0,3.0,6.0,yes,no,yes,Flauta,7,,,Nada ,71.0,yes
181,2024-04-22_21h18.49.889,Unsyncopated_study3,s139,31.0,feminino,right,España,Catalán y castellano,Doctorate,no,no,B,2,what,L4,unsyncopated,s1,r1,53,Online_whatL4//c.bu.da7.222.1332.wav,zi,bu,re,sil,lo,po,da,sil2,bo,ci,sil1,['catch'],[1.9751000000239856],[1.9751000000239856],1.332,no_beat,0.6431000000239855,0.6431000000239855,"[""space""]",da,3,,,,,,,,,,,,,,,3.0,2.0,Catalán,0.0,Castellano,0.0,Inglés,5.0,3.0,6.0,yes,no,yes,Flauta,7,,,Nada ,71.0,yes
182,2024-04-22_21h18.49.889,Unsyncopated_study3,s139,31.0,feminino,right,España,Catalán y castellano,Doctorate,no,no,B,2,what,L4,unsyncopated,s1,r2,54,Online_whatL4//c.bu.da5.none.none.wav,ja,ci,ña,sil2,nu,bo,de,sil,ñi,re,sil1,['-'],,,none,none,,,,da,3,,,,,,,,,,,,,,,3.0,2.0,Catalán,0.0,Castellano,0.0,Inglés,5.0,3.0,6.0,yes,no,yes,Flauta,7,,,Nada ,71.0,yes
183,2024-04-22_21h18.49.889,Unsyncopated_study3,s139,31.0,feminino,right,España,Catalán y castellano,Doctorate,no,no,B,2,what,L4,unsyncopated,s1,r1,55,Online_whatL4//c.bu.da6.1110.1332.wav,zi,ña,ci,sil,lo,bu,da,sil1,pe,ñi,sil2,['catch'],[2.4175999999047235],[2.4175999999047235],1.332,no_beat,1.0855999999047234,1.0855999999047234,"[""space""]",da,3,,,,,,,,,,,,,,,3.0,2.0,Catalán,0.0,Castellano,0.0,Inglés,5.0,3.0,6.0,yes,no,yes,Flauta,7,,,Nada ,71.0,yes
184,2024-04-22_21h18.49.889,Unsyncopated_study3,s139,31.0,feminino,right,España,Catalán y castellano,Doctorate,no,no,B,2,what,L4,unsyncopated,s2,r1,56,Online_whatL4//d.pe.po4.1554.444.wav,bu,ci,po,sil2,zi,de,pe,sil,lo,bo,sil1,['catch'],[1.043099999904598],[1.043099999904598],0.444,no_beat,0.5990999999045981,0.5990999999045981,"[""space""]",po,4,,,,,,,,,,,,,,,3.0,2.0,Catalán,0.0,Castellano,0.0,Inglés,5.0,3.0,6.0,yes,no,yes,Flauta,7,,,Nada ,71.0,yes
185,2024-04-22_21h18.49.889,Unsyncopated_study3,s139,31.0,feminino,right,España,Catalán y castellano,Doctorate,no,no,B,2,what,L4,unsyncopated,s2,r2,57,Online_whatL4//d.pe.po7.444.0.wav,po,bo,pe,sil,ja,ci,da,sil1,nu,ñi,sil2,['catch'],[1.3802000000478074],[1.3802000000478074],0.0,beat,,1.3802000000478074,"[""space""]",po,4,,,,,,,,,,,,,,,3.0,2.0,Catalán,0.0,Castellano,0.0,Inglés,5.0,3.0,6.0,yes,no,yes,Flauta,7,,,Nada ,71.0,yes
186,2024-04-22_21h18.49.889,Unsyncopated_study3,s139,31.0,feminino,right,España,Catalán y castellano,Doctorate,no,no,B,2,what,L4,unsyncopated,s2,r1,58,Online_whatL4//d.pe.po5.none.none.wav,bo,da,ña,sil,zi,bu,re,sil2,lo,de,sil1,['-'],,,none,none,,,,po,4,,,,,,,,,,,,,,,3.0,2.0,Catalán,0.0,Castellano,0.0,Inglés,5.0,3.0,6.0,yes,no,yes,Flauta,7,,,Nada ,71.0,yes
187,2024-04-22_21h18.49.889,Unsyncopated_study3,s139,31.0,feminino,right,España,Catalán y castellano,Doctorate,no,no,B,2,what,L4,unsyncopated,s2,r2,59,Online_whatL4//d.pe.po6.none.none.wav,ñi,bu,ru,sil,ja,ña,ci,sil1,nu,de,sil2,['-'],,,none,none,,,,po,4,,,,,,,,,,,,,,,3.0,2.0,Catalán,0.0,Castellano,0.0,Inglés,5.0,3.0,6.0,yes,no,yes,Flauta,7,,,Nada ,71.0,yes
188,2024-04-22_21h18.49.889,Unsyncopated_study3,s139,31.0,feminino,right,España,Catalán y castellano,Doctorate,no,no,B,2,what,L4,unsyncopated,s2,r2,60,Online_whatL4//d.pe.po16.none.none.wav,ci,bo,ña,sil2,ja,bu,da,sil,nu,ru,sil1,['-'],,,none,none,,,,po,4,,,,,,,,,,,,,,,3.0,2.0,Catalán,0.0,Castellano,0.0,Inglés,5.0,3.0,6.0,yes,no,yes,Flauta,7,,,Nada ,71.0,yes
189,2024-04-22_21h18.49.889,Unsyncopated_study3,s139,31.0,feminino,right,España,Catalán y castellano,Doctorate,no,no,B,2,what,L4,unsyncopated,s1,r2,61,Online_whatL4//d.pe.po17.none.none.wav,ja,re,bo,sil,nu,ci,ru,sil1,ñi,da,sil2,['-'],,,none,none,,,,po,4,,,,,,,,,,,,,,,3.0,2.0,Catalán,0.0,Castellano,0.0,Inglés,5.0,3.0,6.0,yes,no,yes,Flauta,7,,,Nada ,71.0,yes
190,2024-04-22_21h18.49.889,Unsyncopated_study3,s139,31.0,feminino,right,España,Catalán y castellano,Doctorate,no,no,B,2,what,L4,unsyncopated,s2,r2,62,Online_whatL4//d.pe.po18.0.444.wav,pe,de,po,sil,ja,ña,ñi,sil1,nu,re,sil2,['catch'],[0.9598999999759599],[0.9598999999759599],0.444,no_beat,0.5158999999759599,0.5158999999759599,"[""space""]",po,4,,,,,,,,,,,,,,,3.0,2.0,Catalán,0.0,Castellano,0.0,Inglés,5.0,3.0,6.0,yes,no,yes,Flauta,7,,,Nada ,71.0,yes
191,2024-04-22_21h18.49.889,Unsyncopated_study3,s139,31.0,feminino,right,España,Catalán y castellano,Doctorate,no,no,B,2,what,L4,unsyncopated,s1,r2,63,Online_whatL4//d.pe.po19.1776.222.wav,ja,po,re,sil,nu,ru,ña,sil1,pe,da,sil2,['catch'],[1.3293999999762036],[1.3293999999762036],0.222,no_beat,1.1073999999762036,1.1073999999762036,"[""space""]",po,4,,,,,,,,,,,,,,,3.0,2.0,Catalán,0.0,Castellano,0.0,Inglés,5.0,3.0,6.0,yes,no,yes,Flauta,7,,,Nada ,71.0,yes
192,2024-04-22_21h18.49.889,Unsyncopated_study3,s139,31.0,feminino,right,España,Catalán y castellano,Doctorate,no,no,B,2,what,L4,unsyncopated,s1,r2,64,Online_whatL4//d.pe.po12.none.none.wav,ja,ci,da,sil,nu,re,ñi,sil2,ña,bu,sil1,['-'],,,none,none,,,,po,4,,,,,,,,,,,,,,,3.0,2.0,Catalán,0.0,Castellano,0.0,Inglés,5.0,3.0,6.0,yes,no,yes,Flauta,7,,,Nada ,71.0,yes
193,2024-04-22_21h18.49.889,Unsyncopated_study3,s139,31.0,feminino,right,España,Catalán y castellano,Doctorate,no,no,B,2,what,L4,unsyncopated,s1,r2,65,Online_whatL4//d.pe.po13.none.none.wav,ja,da,bo,sil2,nu,ru,re,sil,ci,bu,sil1,['-'],,,none,none,,,,po,4,,,,,,,,,,,,,,,3.0,2.0,Catalán,0.0,Castellano,0.0,Inglés,5.0,3.0,6.0,yes,no,yes,Flauta,7,,,Nada ,71.0,yes
194,2024-04-22_21h18.49.889,Unsyncopated_study3,s139,31.0,feminino,right,España,Catalán y castellano,Doctorate,no,no,B,2,what,L4,unsyncopated,s2,r1,66,Online_whatL4//d.pe.po14.222.444.wav,ñi,pe,po,sil2,zi,ña,da,sil,lo,ci,sil1,['catch'],[0.9491000000236909],[0.9491000000236909],0.444,no_beat,0.5051000000236909,0.5051000000236909,"[""space""]",po,4,,,,,,,,,,,,,,,3.0,2.0,Catalán,0.0,Castellano,0.0,Inglés,5.0,3.0,6.0,yes,no,yes,Flauta,7,,,Nada ,71.0,yes
195,2024-04-22_21h18.49.889,Unsyncopated_study3,s139,31.0,feminino,right,España,Catalán y castellano,Doctorate,no,no,B,2,what,L4,unsyncopated,s2,r2,67,Online_whatL4//d.pe.po15.none.none.wav,ña,ci,bo,sil2,ja,bu,ñi,sil,nu,ru,sil1,['-'],,,none,none,,,,po,4,,,,,,,,,,,,,,,3.0,2.0,Catalán,0.0,Castellano,0.0,Inglés,5.0,3.0,6.0,yes,no,yes,Flauta,7,,,Nada ,71.0,yes
196,2024-04-22_21h18.49.889,Unsyncopated_study3,s139,31.0,feminino,right,España,Catalán y castellano,Doctorate,no,no,B,2,what,L4,unsyncopated,s2,r1,68,Online_whatL4//d.pe.po1.none.none.wav,ña,ru,de,sil,zi,da,bo,sil1,lo,ñi,sil2,['-'],,,none,none,,,,po,4,,,,,,,,,,,,,,,3.0,2.0,Catalán,0.0,Castellano,0.0,Inglés,5.0,3.0,6.0,yes,no,yes,Flauta,7,,,Nada ,71.0,yes
197,2024-04-22_21h18.49.889,Unsyncopated_study3,s139,31.0,feminino,right,España,Catalán y castellano,Doctorate,no,no,B,2,what,L4,unsyncopated,s2,r1,69,Online_whatL4//d.pe.po0.0.222.wav,pe,po,ru,sil,zi,ña,ñi,sil1,lo,bo,sil2,['catch'],[1.4959000000953893],[1.4959000000953893],0.222,no_beat,,1.2739000000953893,"[""space""]",po,4,,,,,,,,,,,,,,,3.0,2.0,Catalán,0.0,Castellano,0.0,Inglés,5.0,3.0,6.0,yes,no,yes,Flauta,7,,,Nada ,71.0,yes
198,2024-04-22_21h18.49.889,Unsyncopated_study3,s139,31.0,feminino,right,España,Catalán y castellano,Doctorate,no,no,B,2,what,L4,unsyncopated,s1,r1,70,Online_whatL4//d.pe.po3.none.none.wav,zi,ci,ñi,sil2,lo,de,ña,sil,da,bu,sil1,['-'],,,none,none,,,,po,4,,,,,,,,,,,,,,,3.0,2.0,Catalán,0.0,Castellano,0.0,Inglés,5.0,3.0,6.0,yes,no,yes,Flauta,7,,,Nada ,71.0,yes
199,2024-04-22_21h18.49.889,Unsyncopated_study3,s139,31.0,feminino,right,España,Catalán y castellano,Doctorate,no,no,B,2,what,L4,unsyncopated,s1,r1,71,Online_whatL4//d.pe.po2.none.none.wav,zi,de,ña,sil,lo,bo,da,sil2,re,ñi,sil1,['-'],,,none,none,,,,po,4,,,,,,,,,,,,,,,3.0,2.0,Catalán,0.0,Castellano,0.0,Inglés,5.0,3.0,6.0,yes,no,yes,Flauta,7,,,Nada ,71.0,yes
200,2024-04-22_21h18.49.889,Unsyncopated_study3,s139,31.0,feminino,right,España,Catalán y castellano,Doctorate,no,no,B,2,what,L4,unsyncopated,s1,r2,72,Online_whatL4//a.zi.lo8.none.none.wav,ja,bo,ña,sil2,nu,po,pe,sil,de,ñi,sil1,['-'],,,none,none,,,,zi,1,,,,,,,,,,,,,,,3.0,2.0,Catalán,0.0,Castellano,0.0,Inglés,5.0,3.0,6.0,yes,no,yes,Flauta,7,,,Nada ,71.0,yes
201,2024-04-22_21h18.49.889,Unsyncopated_study3,s139,31.0,feminino,right,España,Catalán y castellano,Doctorate,no,no,B,2,what,L4,unsyncopated,s2,r1,73,Online_whatL4//a.zi.lo10.888.1776.wav,ña,ci,de,sil,zi,bu,re,sil1,lo,ñi,sil2,['catch'],[1.4746999999283616],[1.4746999999283616],0.888,beat,0.5866999999283616,0.5866999999283616,"[""space""]",zi,1,,,,,,,,,,,,,,,3.0,2.0,Catalán,0.0,Castellano,0.0,Inglés,5.0,3.0,6.0,yes,no,yes,Flauta,7,,,Nada ,71.0,yes
202,2024-04-22_21h18.49.889,Unsyncopated_study3,s139,31.0,feminino,right,España,Catalán y castellano,Doctorate,no,no,B,2,what,L4,unsyncopated,s2,r2,74,Online_whatL4//a.zi.lo9.none.none.wav,pe,bu,ñi,sil2,ja,re,de,sil,nu,ña,sil1,['-'],,,none,none,,,,zi,1,,,,,,,,,,,,,,,3.0,2.0,Catalán,0.0,Castellano,0.0,Inglés,5.0,3.0,6.0,yes,no,yes,Flauta,7,,,Nada ,71.0,yes
203,2024-04-22_21h18.49.889,Unsyncopated_study3,s139,31.0,feminino,right,España,Catalán y castellano,Doctorate,no,no,B,2,what,L4,unsyncopated,s2,r2,75,Online_whatL4//a.zi.lo11.none.none.wav,ru,po,re,sil,ja,bo,ña,sil1,nu,de,sil2,['-'],,,none,none,,,,zi,1,,,,,,,,,,,,,,,3.0,2.0,Catalán,0.0,Castellano,0.0,Inglés,5.0,3.0,6.0,yes,no,yes,Flauta,7,,,Nada ,71.0,yes
204,2024-04-22_21h18.49.889,Unsyncopated_study3,s139,31.0,feminino,right,España,Catalán y castellano,Doctorate,no,no,B,2,what,L4,unsyncopated,s2,r1,76,Online_whatL4//a.zi.lo3.888.1998.wav,po,re,ñi,sil,zi,de,ña,sil2,lo,ci,sil1,['catch'],[1.5276999999284726],[1.5276999999284726],0.888,beat,0.6396999999284726,0.6396999999284726,"[""space""]",zi,1,,,,,,,,,,,,,,,3.0,2.0,Catalán,0.0,Castellano,0.0,Inglés,5.0,3.0,6.0,yes,no,yes,Flauta,7,,,Nada ,71.0,yes
205,2024-04-22_21h18.49.889,Unsyncopated_study3,s139,31.0,feminino,right,España,Catalán y castellano,Doctorate,no,no,B,2,what,L4,unsyncopated,s1,r1,77,Online_whatL4//a.zi.lo0.0.888.wav,zi,re,bo,sil,lo,pe,ña,sil1,de,bu,sil2,['catch'],[0.8476000000237036],[0.8476000000237036],0.0,beat,0.8476000000237036,0.8476000000237036,"[""space""]",zi,1,,,,,,,,,,,,,,,3.0,2.0,Catalán,0.0,Castellano,0.0,Inglés,5.0,3.0,6.0,yes,no,yes,Flauta,7,,,Nada ,71.0,yes
206,2024-04-22_21h18.49.889,Unsyncopated_study3,s139,31.0,feminino,right,España,Catalán y castellano,Doctorate,no,no,B,2,what,L4,unsyncopated,s1,r1,78,Online_whatL4//a.zi.lo1.0.888.wav,zi,ru,po,sil,lo,ñi,da,sil2,de,bu,sil1,['miss'],,,0.0,beat,,,,zi,1,,,,,,,,,,,,,,,3.0,2.0,Catalán,0.0,Castellano,0.0,Inglés,5.0,3.0,6.0,yes,no,yes,Flauta,7,,,Nada ,71.0,yes
207,2024-04-22_21h18.49.889,Unsyncopated_study3,s139,31.0,feminino,right,España,Catalán y castellano,Doctorate,no,no,B,2,what,L4,unsyncopated,s1,r1,79,Online_whatL4//a.zi.lo2.0.1110.wav,zi,ñi,po,sil2,lo,re,bu,sil,de,da,sil1,['catch'],[0.7772000000477419],[0.7772000000477419],0.0,beat,0.7772000000477419,0.7772000000477419,"[""space""]",zi,1,,,,,,,,,,,,,,,3.0,2.0,Catalán,0.0,Castellano,0.0,Inglés,5.0,3.0,6.0,yes,no,yes,Flauta,7,,,Nada ,71.0,yes
208,2024-04-22_21h18.49.889,Unsyncopated_study3,s139,31.0,feminino,right,España,Catalán y castellano,Doctorate,no,no,B,2,what,L4,unsyncopated,s1,r1,80,Online_whatL4//a.zi.lo13.0.888.wav,zi,pe,da,sil,lo,ru,ci,sil2,re,bu,sil1,['catch'],[1.1448999999761327],[1.1448999999761327],0.0,beat,1.144899999976133,1.144899999976133,"[""space""]",zi,1,,,,,,,,,,,,,,,3.0,2.0,Catalán,0.0,Castellano,0.0,Inglés,5.0,3.0,6.0,yes,no,yes,Flauta,7,,,Nada ,71.0,yes
209,2024-04-22_21h18.49.889,Unsyncopated_study3,s139,31.0,feminino,right,España,Catalán y castellano,Doctorate,no,no,B,2,what,L4,unsyncopated,s1,r2,81,Online_whatL4//a.zi.lo15.none.none.wav,ja,ru,po,sil2,nu,de,bo,sil,ña,bu,sil1,['-'],,,none,none,,,,zi,1,,,,,,,,,,,,,,,3.0,2.0,Catalán,0.0,Castellano,0.0,Inglés,5.0,3.0,6.0,yes,no,yes,Flauta,7,,,Nada ,71.0,yes
210,2024-04-22_21h18.49.889,Unsyncopated_study3,s139,31.0,feminino,right,España,Catalán y castellano,Doctorate,no,no,B,2,what,L4,unsyncopated,s2,r1,82,Online_whatL4//a.zi.lo14.888.1998.wav,ru,bo,re,sil,zi,de,po,sil2,lo,ñi,sil1,['catch'],[1.375],[1.375],0.888,beat,0.487,0.487,"[""space""]",zi,1,,,,,,,,,,,,,,,3.0,2.0,Catalán,0.0,Castellano,0.0,Inglés,5.0,3.0,6.0,yes,no,yes,Flauta,7,,,Nada ,71.0,yes
211,2024-04-22_21h18.49.889,Unsyncopated_study3,s139,31.0,feminino,right,España,Catalán y castellano,Doctorate,no,no,B,2,what,L4,unsyncopated,s1,r1,83,Online_whatL4//a.zi.lo12.0.888.wav,zi,po,da,sil,lo,bo,de,sil1,ña,pe,sil2,['catch'],[1.022499999999809],[1.022499999999809],0.0,beat,1.022499999999809,1.022499999999809,"[""space""]",zi,1,,,,,,,,,,,,,,,3.0,2.0,Catalán,0.0,Castellano,0.0,Inglés,5.0,3.0,6.0,yes,no,yes,Flauta,7,,,Nada ,71.0,yes
212,2024-04-22_21h18.49.889,Unsyncopated_study3,s139,31.0,feminino,right,España,Catalán y castellano,Doctorate,no,no,B,2,what,L4,unsyncopated,s1,r2,84,Online_whatL4//d.pe.po29.222.444.wav,ja,pe,po,sil2,nu,de,ñi,sil,ru,da,sil1,['miss'],,,0.444,no_beat,,,,po,4,,,,,,,,,,,,,,,3.0,2.0,Catalán,0.0,Castellano,0.0,Inglés,5.0,3.0,6.0,yes,no,yes,Flauta,7,,,Nada ,71.0,yes
213,2024-04-22_21h18.49.889,Unsyncopated_study3,s139,31.0,feminino,right,España,Catalán y castellano,Doctorate,no,no,B,2,what,L4,unsyncopated,s1,r1,85,Online_whatL4//d.pe.po30.none.none.wav,zi,ci,ña,sil,lo,re,bu,sil2,ñi,de,sil1,['-'],,,none,none,,,,po,4,,,,,,,,,,,,,,,3.0,2.0,Catalán,0.0,Castellano,0.0,Inglés,5.0,3.0,6.0,yes,no,yes,Flauta,7,,,Nada ,71.0,yes
214,2024-04-22_21h18.49.889,Unsyncopated_study3,s139,31.0,feminino,right,España,Catalán y castellano,Doctorate,no,no,B,2,what,L4,unsyncopated,s1,r1,86,Online_whatL4//d.pe.po28.none.none.wav,zi,ci,bu,sil,lo,ru,ñi,sil1,de,da,sil2,['-'],,,none,none,,,,po,4,,,,,,,,,,,,,,,3.0,2.0,Catalán,0.0,Castellano,0.0,Inglés,5.0,3.0,6.0,yes,no,yes,Flauta,7,,,Nada ,71.0,yes
215,2024-04-22_21h18.49.889,Unsyncopated_study3,s139,31.0,feminino,right,España,Catalán y castellano,Doctorate,no,no,B,2,what,L4,unsyncopated,s2,r2,87,Online_whatL4//d.pe.po31.1554.0.wav,po,de,ña,sil2,ja,ci,pe,sil,nu,re,sil1,['catch'],[0.6082999999523508],[0.6082999999523508],0.0,beat,0.6082999999523508,0.6082999999523508,"[""space""]",po,4,,,,,,,,,,,,,,,3.0,2.0,Catalán,0.0,Castellano,0.0,Inglés,5.0,3.0,6.0,yes,no,yes,Flauta,7,,,Nada ,71.0,yes
216,2024-04-22_21h18.49.889,Unsyncopated_study3,s139,31.0,feminino,right,España,Catalán y castellano,Doctorate,no,no,B,2,what,L4,unsyncopated,s2,r1,88,Online_whatL4//b.ja.nu13.none.none.wav,da,po,bu,sil,zi,ña,ru,sil2,lo,de,sil1,['-'],,,none,none,,,,nu,2,,,,,,,,,,,,,,,3.0,2.0,Catalán,0.0,Castellano,0.0,Inglés,5.0,3.0,6.0,yes,no,yes,Flauta,7,,,Nada ,71.0,yes
217,2024-04-22_21h18.49.889,Unsyncopated_study3,s139,31.0,feminino,right,España,Catalán y castellano,Doctorate,no,no,B,2,what,L4,unsyncopated,s1,r1,89,Online_whatL4//b.ja.nu14.none.none.wav,zi,bo,re,sil2,lo,ña,po,sil,ru,ñi,sil1,['-'],,,none,none,,,,nu,2,,,,,,,,,,,,,,,3.0,2.0,Catalán,0.0,Castellano,0.0,Inglés,5.0,3.0,6.0,yes,no,yes,Flauta,7,,,Nada ,71.0,yes
