Unnamed: 0,date,expName,participant,age,sex,hand,residence,native_lang,education_level,lang_deficit,aud_deficit,group,block,condition,language,rhythm,rule structure online,rule type online,order_trial_on,trial_online,s1,s2,s3,s4,s5,s6,s7,s8,s9,s10,s11,catch_syll_resp,rts_syll_catch,clean_rts,time_syll,beat_no_beat,catch_rtsTR,catch_rts,syllable_catch.keys,cond_syll,syll_to_catch,test_offline,block_off,condition_off,rhythm_off,rule,rule_str_off,rule_norule,conds_offline,language_off,Partz_no_partm.keys,Partz_no_partm.rt,security_1_7.keys,accuracy,security_1_7.rt,n_lang,n_lang_used,lang_1,age_l1,lang_2,age_l2,lang_3,age_l3,ability_learn_l2,tendence_mix_lan,music_experience,muisc_use,partiture,instr_1,age_M1,instr_2,age_M2,instr_3,age_M3,instr_4,age_M4,instr_5,age_M5,preguntas_musica1,BMRQ_answer.response,final comment,BMRQ_Score,bilingual
0,2023-09-20_24h30.41.970,Unsyncopated1,s18,30.0,masculino,right,españa,castellano,Bachelor degree,no,no,B,1,what,L2,unsyncopated,s2,r1,0,Online_whatL2//c.cha.me14.none.none.wav,ñu,to,ño,sil,go,ba,si,sil2,du,mi,sil1,['-'],,,none,none,,,,me,3,testWhatL2Uns//r2.s2.2.wav,1.0,what,unsyncopated,b,s2,rule,rule,L2,z,2.942,7.0,1.0,2.7373,3.0,3.0,catalan,3.0,castellano,o,ingles,16.0,4.0,4.0,yes,yes,no,BAJO ELECTRICO,14,GUITARRA,14,VOZ,14,ABLETON LIVE,19.0,PERCUSION,21.0,1. Cuando comparto música con alguien siento una complicidad especial con aquella persona.,4.0,EN EL EJERCICIO CON EL ÚLTIMO LENGUAJE ME ENCONTRABA MENTALMENTE CANSADO Y NO HE CONSEGUIDO PRESTAR LA MISMA ATENCIÓN QUE EN LOS PRIMEROS ,78.0,yes
1,2023-09-20_24h30.41.970,Unsyncopated1,s18,30.0,masculino,right,españa,castellano,Bachelor degree,no,no,B,1,what,L2,unsyncopated,s2,r1,1,Online_whatL2//c.cha.me15.none.none.wav,su,ñu,mi,sil,go,ba,bi,sil1,du,to,sil2,['-'],,,none,none,,,,me,3,testWhatL2Uns//r2.s1.2.wav,1.0,what,unsyncopated,b,s1,rule,rule,L2,z,2.3866,7.0,1.0,1.5491,3.0,3.0,catalan,3.0,castellano,o,ingles,16.0,4.0,4.0,yes,yes,no,BAJO ELECTRICO,14,GUITARRA,14,VOZ,14,ABLETON LIVE,19.0,PERCUSION,21.0,2. En mi tiempo libre apenas escucho música.,5.0,EN EL EJERCICIO CON EL ÚLTIMO LENGUAJE ME ENCONTRABA MENTALMENTE CANSADO Y NO HE CONSEGUIDO PRESTAR LA MISMA ATENCIÓN QUE EN LOS PRIMEROS ,78.0,yes
2,2023-09-20_24h30.41.970,Unsyncopated1,s18,30.0,masculino,right,españa,castellano,Bachelor degree,no,no,B,1,what,L2,unsyncopated,s1,r1,2,Online_whatL2//c.cha.me12.1332.222.wav,go,me,si,sil,du,ñu,cha,sil1,mi,to,sil2,['catch'],[0.8940999999999804],[0.8940999999999804],0.222,no_beat,0.6720999999999804,0.6720999999999804,"[""space""]",me,3,testWhatL2Uns//r2.s2.1.wav,1.0,what,unsyncopated,b,s2,rule,rule,L2,m,4.1317,3.0,0.0,2.5824,3.0,3.0,catalan,3.0,castellano,o,ingles,16.0,4.0,4.0,yes,yes,no,BAJO ELECTRICO,14,GUITARRA,14,VOZ,14,ABLETON LIVE,19.0,PERCUSION,21.0,3. Algunas canciones me ponen los pelos de punta,4.0,EN EL EJERCICIO CON EL ÚLTIMO LENGUAJE ME ENCONTRABA MENTALMENTE CANSADO Y NO HE CONSEGUIDO PRESTAR LA MISMA ATENCIÓN QUE EN LOS PRIMEROS ,78.0,yes
3,2023-09-20_24h30.41.970,Unsyncopated1,s18,30.0,masculino,right,españa,castellano,Bachelor degree,no,no,B,1,what,L2,unsyncopated,s1,r2,3,Online_whatL2//c.cha.me13.none.none.wav,fe,su,te,sil,ra,ño,si,sil2,ba,bi,sil1,['-'],,,none,none,,,,me,3,testWhatL2Uns//cat_viol.r1.s2.0.wav,1.0,what,unsyncopated,a,s2,no_rule,cat,L2,z,2.6025,7.0,0.0,1.5175,3.0,3.0,catalan,3.0,castellano,o,ingles,16.0,4.0,4.0,yes,yes,no,BAJO ELECTRICO,14,GUITARRA,14,VOZ,14,ABLETON LIVE,19.0,PERCUSION,21.0,4. La música me hace compañía cuando estoy solo,4.0,EN EL EJERCICIO CON EL ÚLTIMO LENGUAJE ME ENCONTRABA MENTALMENTE CANSADO Y NO HE CONSEGUIDO PRESTAR LA MISMA ATENCIÓN QUE EN LOS PRIMEROS ,78.0,yes
4,2023-09-20_24h30.41.970,Unsyncopated1,s18,30.0,masculino,right,españa,castellano,Bachelor degree,no,no,B,1,what,L2,unsyncopated,s1,r1,4,Online_whatL2//c.cha.me7.222.444.wav,go,cha,me,sil,du,bi,si,sil1,su,ba,sil2,['catch'],[1.0704999999998108],[1.0704999999998108],0.444,no_beat,0.6264999999998109,0.6264999999998109,"[""space""]",me,3,testWhatL2Uns//r1.s2.2.wav,1.0,what,unsyncopated,a,s2,rule,rule,L2,m,3.6858,2.0,0.0,1.5474,3.0,3.0,catalan,3.0,castellano,o,ingles,16.0,4.0,4.0,yes,yes,no,BAJO ELECTRICO,14,GUITARRA,14,VOZ,14,ABLETON LIVE,19.0,PERCUSION,21.0,5. No me apetece bailar ni con la música que más me gusta,5.0,EN EL EJERCICIO CON EL ÚLTIMO LENGUAJE ME ENCONTRABA MENTALMENTE CANSADO Y NO HE CONSEGUIDO PRESTAR LA MISMA ATENCIÓN QUE EN LOS PRIMEROS ,78.0,yes
5,2023-09-20_24h30.41.970,Unsyncopated1,s18,30.0,masculino,right,españa,castellano,Bachelor degree,no,no,B,1,what,L2,unsyncopated,s2,r1,5,Online_whatL2//c.cha.me5.none.none.wav,ñu,mi,ño,sil2,go,te,ba,sil,du,su,sil1,['-'],,,none,none,,,,me,3,testWhatL2Uns//dep_viol.r1.s2.0.wav,1.0,what,unsyncopated,a,s2,no_rule,dep,L2,z,3.0162,7.0,0.0,2.5352,3.0,3.0,catalan,3.0,castellano,o,ingles,16.0,4.0,4.0,yes,yes,no,BAJO ELECTRICO,14,GUITARRA,14,VOZ,14,ABLETON LIVE,19.0,PERCUSION,21.0,6. La música me hace conectar con la gente,4.0,EN EL EJERCICIO CON EL ÚLTIMO LENGUAJE ME ENCONTRABA MENTALMENTE CANSADO Y NO HE CONSEGUIDO PRESTAR LA MISMA ATENCIÓN QUE EN LOS PRIMEROS ,78.0,yes
6,2023-09-20_24h30.41.970,Unsyncopated1,s18,30.0,masculino,right,españa,castellano,Bachelor degree,no,no,B,1,what,L2,unsyncopated,s2,r2,6,Online_whatL2//c.cha.me4.none.none.wav,ba,te,su,sil2,fe,ño,si,sil,ra,ñu,sil1,['-'],,,none,none,,,,me,3,testWhatL2Uns//cat_viol.r2.s1.0.wav,1.0,what,unsyncopated,b,s1,no_rule,cat,L2,z,1.5979,7.0,0.0,1.2833,3.0,3.0,catalan,3.0,castellano,o,ingles,16.0,4.0,4.0,yes,yes,no,BAJO ELECTRICO,14,GUITARRA,14,VOZ,14,ABLETON LIVE,19.0,PERCUSION,21.0,7. Me informo sobre la música que me gusta.,4.0,EN EL EJERCICIO CON EL ÚLTIMO LENGUAJE ME ENCONTRABA MENTALMENTE CANSADO Y NO HE CONSEGUIDO PRESTAR LA MISMA ATENCIÓN QUE EN LOS PRIMEROS ,78.0,yes
7,2023-09-20_24h30.41.970,Unsyncopated1,s18,30.0,masculino,right,españa,castellano,Bachelor degree,no,no,B,1,what,L2,unsyncopated,s1,r2,7,Online_whatL2//c.cha.me6.222.1110.wav,fe,cha,ba,sil,ra,me,te,sil2,si,mi,sil1,['miss'],,,1.11,no_beat,,,,me,3,testWhatL2Uns//time_viol.r2.s2.0.wav,1.0,what,unsyncopated,b,s2,no_rule,time,L2,m,3.4343,2.0,1.0,1.202,3.0,3.0,catalan,3.0,castellano,o,ingles,16.0,4.0,4.0,yes,yes,no,BAJO ELECTRICO,14,GUITARRA,14,VOZ,14,ABLETON LIVE,19.0,PERCUSION,21.0,8.Me emociono escuchando ciertas canciones.,4.0,EN EL EJERCICIO CON EL ÚLTIMO LENGUAJE ME ENCONTRABA MENTALMENTE CANSADO Y NO HE CONSEGUIDO PRESTAR LA MISMA ATENCIÓN QUE EN LOS PRIMEROS ,78.0,yes
8,2023-09-20_24h30.41.970,Unsyncopated1,s18,30.0,masculino,right,españa,castellano,Bachelor degree,no,no,B,1,what,L2,unsyncopated,s1,r2,8,Online_whatL2//a.go.du5.none.none.wav,fe,su,bi,sil,ra,te,to,sil1,ño,ñu,sil2,['-'],,,none,none,,,,go,1,testWhatL2Uns//r1.s1.0.wav,1.0,what,unsyncopated,a,s1,rule,rule,L2,m,1.8329,2.0,0.0,0.6341,3.0,3.0,catalan,3.0,castellano,o,ingles,16.0,4.0,4.0,yes,yes,no,BAJO ELECTRICO,14,GUITARRA,14,VOZ,14,ABLETON LIVE,19.0,PERCUSION,21.0,9.La música me tranquiliza y me relaja.,4.0,EN EL EJERCICIO CON EL ÚLTIMO LENGUAJE ME ENCONTRABA MENTALMENTE CANSADO Y NO HE CONSEGUIDO PRESTAR LA MISMA ATENCIÓN QUE EN LOS PRIMEROS ,78.0,yes
9,2023-09-20_24h30.41.970,Unsyncopated1,s18,30.0,masculino,right,españa,castellano,Bachelor degree,no,no,B,1,what,L2,unsyncopated,s2,r2,9,Online_whatL2//a.go.du4.none.none.wav,te,mi,cha,sil,fe,bi,ñu,sil1,ra,ba,sil2,['-'],,,none,none,,,,go,1,testWhatL2Uns//dep_viol.r2.s1.0.wav,1.0,what,unsyncopated,b,s1,no_rule,dep,L2,m,2.4799,4.0,1.0,1.9504,3.0,3.0,catalan,3.0,castellano,o,ingles,16.0,4.0,4.0,yes,yes,no,BAJO ELECTRICO,14,GUITARRA,14,VOZ,14,ABLETON LIVE,19.0,PERCUSION,21.0,10.La música me hace bailar,4.0,EN EL EJERCICIO CON EL ÚLTIMO LENGUAJE ME ENCONTRABA MENTALMENTE CANSADO Y NO HE CONSEGUIDO PRESTAR LA MISMA ATENCIÓN QUE EN LOS PRIMEROS ,78.0,yes
10,2023-09-20_24h30.41.970,Unsyncopated1,s18,30.0,masculino,right,españa,castellano,Bachelor degree,no,no,B,1,what,L2,unsyncopated,s1,r2,10,Online_whatL2//a.go.du7.none.none.wav,fe,ñu,me,sil,ra,cha,to,sil1,si,su,sil2,['-'],,,none,none,,,,go,1,testWhatL2Uns//time_viol.r2.s1.0.wav,1.0,what,unsyncopated,b,s1,no_rule,time,L2,m,2.9018,5.0,1.0,1.0005,3.0,3.0,catalan,3.0,castellano,o,ingles,16.0,4.0,4.0,yes,yes,no,BAJO ELECTRICO,14,GUITARRA,14,VOZ,14,ABLETON LIVE,19.0,PERCUSION,21.0,11.Busco novedades musicales continuamente,3.0,EN EL EJERCICIO CON EL ÚLTIMO LENGUAJE ME ENCONTRABA MENTALMENTE CANSADO Y NO HE CONSEGUIDO PRESTAR LA MISMA ATENCIÓN QUE EN LOS PRIMEROS ,78.0,yes
11,2023-09-20_24h30.41.970,Unsyncopated1,s18,30.0,masculino,right,españa,castellano,Bachelor degree,no,no,B,1,what,L2,unsyncopated,s2,r1,11,Online_whatL2//a.go.du6.888.1776.wav,bi,su,cha,sil,go,te,ñu,sil1,du,me,sil2,['catch'],[1.4605000000001382],[1.4605000000001382],0.888,beat,0.5725000000001382,0.5725000000001382,"[""space""]",go,1,testWhatL2Uns//dep_viol.r1.s1.0.wav,1.0,what,unsyncopated,a,s1,no_rule,dep,L2,m,4.3389,5.0,1.0,1.6701,3.0,3.0,catalan,3.0,castellano,o,ingles,16.0,4.0,4.0,yes,yes,no,BAJO ELECTRICO,14,GUITARRA,14,VOZ,14,ABLETON LIVE,19.0,PERCUSION,21.0,12. Puedo llorar cuando escucho algunas melodías que me gustan mucho.,3.0,EN EL EJERCICIO CON EL ÚLTIMO LENGUAJE ME ENCONTRABA MENTALMENTE CANSADO Y NO HE CONSEGUIDO PRESTAR LA MISMA ATENCIÓN QUE EN LOS PRIMEROS ,78.0,yes
12,2023-09-20_24h30.41.970,Unsyncopated1,s18,30.0,masculino,right,españa,castellano,Bachelor degree,no,no,B,1,what,L2,unsyncopated,s2,r2,12,Online_whatL2//d.si.ñu27.none.none.wav,su,te,bi,sil,fe,cha,ño,sil2,ra,ba,sil1,['-'],,,none,none,,,,ñu,4,testWhatL2Uns//r2.s2.0.wav,1.0,what,unsyncopated,b,s2,rule,rule,L2,m,2.5497,4.0,0.0,0.3676,3.0,3.0,catalan,3.0,castellano,o,ingles,16.0,4.0,4.0,yes,yes,no,BAJO ELECTRICO,14,GUITARRA,14,VOZ,14,ABLETON LIVE,19.0,PERCUSION,21.0,13. Me gusta cantar o tocar un instrumento con más gente,4.0,EN EL EJERCICIO CON EL ÚLTIMO LENGUAJE ME ENCONTRABA MENTALMENTE CANSADO Y NO HE CONSEGUIDO PRESTAR LA MISMA ATENCIÓN QUE EN LOS PRIMEROS ,78.0,yes
13,2023-09-20_24h30.41.970,Unsyncopated1,s18,30.0,masculino,right,españa,castellano,Bachelor degree,no,no,B,1,what,L2,unsyncopated,s1,r1,13,Online_whatL2//d.si.ñu25.none.none.wav,go,te,su,sil,du,to,ba,sil2,cha,mi,sil1,['-'],,,none,none,,,,ñu,4,testWhatL2Uns//r1.s1.1.wav,1.0,what,unsyncopated,a,s1,rule,rule,L2,m,1.7649,4.0,0.0,0.9501,3.0,3.0,catalan,3.0,castellano,o,ingles,16.0,4.0,4.0,yes,yes,no,BAJO ELECTRICO,14,GUITARRA,14,VOZ,14,ABLETON LIVE,19.0,PERCUSION,21.0,14. La música me ayuda a desconectar.,4.0,EN EL EJERCICIO CON EL ÚLTIMO LENGUAJE ME ENCONTRABA MENTALMENTE CANSADO Y NO HE CONSEGUIDO PRESTAR LA MISMA ATENCIÓN QUE EN LOS PRIMEROS ,78.0,yes
14,2023-09-20_24h30.41.970,Unsyncopated1,s18,30.0,masculino,right,españa,castellano,Bachelor degree,no,no,B,1,what,L2,unsyncopated,s1,r2,14,Online_whatL2//d.si.ñu24.none.none.wav,fe,ba,cha,sil2,ra,to,mi,sil,te,bi,sil1,['-'],,,none,none,,,,ñu,4,testWhatL2Uns//time_viol.r1.s1.0.wav,1.0,what,unsyncopated,a,s1,no_rule,time,L2,m,1.4846,4.0,1.0,0.1501,3.0,3.0,catalan,3.0,castellano,o,ingles,16.0,4.0,4.0,yes,yes,no,BAJO ELECTRICO,14,GUITARRA,14,VOZ,14,ABLETON LIVE,19.0,PERCUSION,21.0,15. No puedo evitar tararear las canciones que me gustan cuando las escucho.,4.0,EN EL EJERCICIO CON EL ÚLTIMO LENGUAJE ME ENCONTRABA MENTALMENTE CANSADO Y NO HE CONSEGUIDO PRESTAR LA MISMA ATENCIÓN QUE EN LOS PRIMEROS ,78.0,yes
15,2023-09-20_24h30.41.970,Unsyncopated1,s18,30.0,masculino,right,españa,castellano,Bachelor degree,no,no,B,1,what,L2,unsyncopated,s2,r1,15,Online_whatL2//d.si.ñu26.none.none.wav,mi,cha,te,sil,go,ño,su,sil2,du,me,sil1,['-'],,,none,none,,,,ñu,4,testWhatL2Uns//r2.s1.0.wav,1.0,what,unsyncopated,b,s1,rule,rule,L2,z,1.435,4.0,1.0,1.117,3.0,3.0,catalan,3.0,castellano,o,ingles,16.0,4.0,4.0,yes,yes,no,BAJO ELECTRICO,14,GUITARRA,14,VOZ,14,ABLETON LIVE,19.0,PERCUSION,21.0,16. En los conciertos me siento en sintonía con los artistas y el público.,4.0,EN EL EJERCICIO CON EL ÚLTIMO LENGUAJE ME ENCONTRABA MENTALMENTE CANSADO Y NO HE CONSEGUIDO PRESTAR LA MISMA ATENCIÓN QUE EN LOS PRIMEROS ,78.0,yes
16,2023-09-20_24h30.41.970,Unsyncopated1,s18,30.0,masculino,right,españa,castellano,Bachelor degree,no,no,B,1,what,L2,unsyncopated,s1,r1,16,Online_whatL2//a.go.du25.0.888.wav,go,bi,ñu,sil,du,mi,si,sil2,su,cha,sil1,['catch'],[0.8224999999999909],[0.8224999999999909],0.0,beat,0.8224999999999909,0.8224999999999909,"[""space""]",go,1,testWhatL2Uns//r1.s2.1.wav,1.0,what,unsyncopated,a,s2,rule,rule,L2,m,1.6166,3.0,0.0,0.681,3.0,3.0,catalan,3.0,castellano,o,ingles,16.0,4.0,4.0,yes,yes,no,BAJO ELECTRICO,14,GUITARRA,14,VOZ,14,ABLETON LIVE,19.0,PERCUSION,21.0,17. Me gasto bastante dinero en música y cosas relacionadas con la música.,2.0,EN EL EJERCICIO CON EL ÚLTIMO LENGUAJE ME ENCONTRABA MENTALMENTE CANSADO Y NO HE CONSEGUIDO PRESTAR LA MISMA ATENCIÓN QUE EN LOS PRIMEROS ,78.0,yes
17,2023-09-20_24h30.41.970,Unsyncopated1,s18,30.0,masculino,right,españa,castellano,Bachelor degree,no,no,B,1,what,L2,unsyncopated,s1,r2,17,Online_whatL2//a.go.du26.none.none.wav,fe,te,si,sil2,ra,ba,to,sil,su,bi,sil1,['-'],,,none,none,,,,go,1,testWhatL2Uns//time_viol.r1.s2.0.wav,1.0,what,unsyncopated,a,s2,no_rule,time,L2,m,0.786,3.0,1.0,0.1696,3.0,3.0,catalan,3.0,castellano,o,ingles,16.0,4.0,4.0,yes,yes,no,BAJO ELECTRICO,14,GUITARRA,14,VOZ,14,ABLETON LIVE,19.0,PERCUSION,21.0,18. Siento escalofríos cuando escucho una melodía que me gusta.,4.0,EN EL EJERCICIO CON EL ÚLTIMO LENGUAJE ME ENCONTRABA MENTALMENTE CANSADO Y NO HE CONSEGUIDO PRESTAR LA MISMA ATENCIÓN QUE EN LOS PRIMEROS ,78.0,yes
18,2023-09-20_24h30.41.970,Unsyncopated1,s18,30.0,masculino,right,españa,castellano,Bachelor degree,no,no,B,1,what,L2,unsyncopated,s2,r2,18,Online_whatL2//a.go.du24.none.none.wav,me,cha,bi,sil,fe,ño,su,sil2,ra,to,sil1,['-'],,,none,none,,,,go,1,testWhatL2Uns//dep_viol.r2.s2.0.wav,1.0,what,unsyncopated,b,s2,no_rule,dep,L2,m,5.4547,2.0,1.0,0.2512,3.0,3.0,catalan,3.0,castellano,o,ingles,16.0,4.0,4.0,yes,yes,no,BAJO ELECTRICO,14,GUITARRA,14,VOZ,14,ABLETON LIVE,19.0,PERCUSION,21.0,19. Con la música me puedo desahogar.,4.0,EN EL EJERCICIO CON EL ÚLTIMO LENGUAJE ME ENCONTRABA MENTALMENTE CANSADO Y NO HE CONSEGUIDO PRESTAR LA MISMA ATENCIÓN QUE EN LOS PRIMEROS ,78.0,yes
19,2023-09-20_24h30.41.970,Unsyncopated1,s18,30.0,masculino,right,españa,castellano,Bachelor degree,no,no,B,1,what,L2,unsyncopated,s2,r2,19,Online_whatL2//a.go.du27.none.none.wav,mi,cha,ba,sil,fe,bi,su,sil2,ra,ño,sil1,['-'],,,none,none,,,,go,1,testWhatL2Uns//cat_viol.r1.s1.0.wav,1.0,what,unsyncopated,a,s1,no_rule,cat,L2,m,0.6339,3.0,1.0,0.1501,3.0,3.0,catalan,3.0,castellano,o,ingles,16.0,4.0,4.0,yes,yes,no,BAJO ELECTRICO,14,GUITARRA,14,VOZ,14,ABLETON LIVE,19.0,PERCUSION,21.0,20. Cuando escucho una melodía que me gusta mucho no puedo evitar mover el cuerpo.,4.0,EN EL EJERCICIO CON EL ÚLTIMO LENGUAJE ME ENCONTRABA MENTALMENTE CANSADO Y NO HE CONSEGUIDO PRESTAR LA MISMA ATENCIÓN QUE EN LOS PRIMEROS ,78.0,yes
20,2023-09-20_24h30.41.970,Unsyncopated1,s18,30.0,masculino,right,españa,castellano,Bachelor degree,no,no,B,1,what,L2,unsyncopated,s2,r1,20,Online_whatL2//c.cha.me17.0.444.wav,cha,te,me,sil2,go,bi,ñu,sil,du,mi,sil1,['catch'],[1.1571000000001277],[1.1571000000001277],0.444,no_beat,0.7131000000001277,0.7131000000001277,"[""space""]",me,3,testWhatL2Uns//r1.s2.0.wav,1.0,what,unsyncopated,a,s2,rule,rule,L2,m,1.3496,3.0,0.0,0.1172,3.0,3.0,catalan,3.0,castellano,o,ingles,16.0,4.0,4.0,yes,yes,no,BAJO ELECTRICO,14,GUITARRA,14,VOZ,14,ABLETON LIVE,19.0,PERCUSION,21.0,,,EN EL EJERCICIO CON EL ÚLTIMO LENGUAJE ME ENCONTRABA MENTALMENTE CANSADO Y NO HE CONSEGUIDO PRESTAR LA MISMA ATENCIÓN QUE EN LOS PRIMEROS ,78.0,yes
21,2023-09-20_24h30.41.970,Unsyncopated1,s18,30.0,masculino,right,españa,castellano,Bachelor degree,no,no,B,1,what,L2,unsyncopated,s2,r2,21,Online_whatL2//c.cha.me18.none.none.wav,bi,to,ñu,sil,fe,ño,ba,sil1,ra,si,sil2,['-'],,,none,none,,,,me,3,testWhatL2Uns//r1.s1.2.wav,1.0,what,unsyncopated,a,s1,rule,rule,L2,z,1.4844,7.0,1.0,2.1663,3.0,3.0,catalan,3.0,castellano,o,ingles,16.0,4.0,4.0,yes,yes,no,BAJO ELECTRICO,14,GUITARRA,14,VOZ,14,ABLETON LIVE,19.0,PERCUSION,21.0,,,EN EL EJERCICIO CON EL ÚLTIMO LENGUAJE ME ENCONTRABA MENTALMENTE CANSADO Y NO HE CONSEGUIDO PRESTAR LA MISMA ATENCIÓN QUE EN LOS PRIMEROS ,78.0,yes
22,2023-09-20_24h30.41.970,Unsyncopated1,s18,30.0,masculino,right,españa,castellano,Bachelor degree,no,no,B,1,what,L2,unsyncopated,s1,r1,22,Online_whatL2//c.cha.me19.none.none.wav,go,su,bi,sil,du,ño,to,sil2,ñu,ba,sil1,['-'],,,none,none,,,,me,3,testWhatL2Uns//r2.s1.1.wav,1.0,what,unsyncopated,b,s1,rule,rule,L2,z,0.6884,4.0,1.0,0.6164,3.0,3.0,catalan,3.0,castellano,o,ingles,16.0,4.0,4.0,yes,yes,no,BAJO ELECTRICO,14,GUITARRA,14,VOZ,14,ABLETON LIVE,19.0,PERCUSION,21.0,,,EN EL EJERCICIO CON EL ÚLTIMO LENGUAJE ME ENCONTRABA MENTALMENTE CANSADO Y NO HE CONSEGUIDO PRESTAR LA MISMA ATENCIÓN QUE EN LOS PRIMEROS ,78.0,yes
23,2023-09-20_24h30.41.970,Unsyncopated1,s18,30.0,masculino,right,españa,castellano,Bachelor degree,no,no,B,1,what,L2,unsyncopated,s1,r1,23,Online_whatL2//c.cha.me16.none.none.wav,go,ñu,bi,sil2,du,to,te,sil,ño,mi,sil1,['-'],,,none,none,,,,me,3,testWhatL2Uns//cat_viol.r2.s2.0.wav,1.0,what,unsyncopated,b,s2,no_rule,cat,L2,z,0.504,6.0,0.0,0.3499,3.0,3.0,catalan,3.0,castellano,o,ingles,16.0,4.0,4.0,yes,yes,no,BAJO ELECTRICO,14,GUITARRA,14,VOZ,14,ABLETON LIVE,19.0,PERCUSION,21.0,,,EN EL EJERCICIO CON EL ÚLTIMO LENGUAJE ME ENCONTRABA MENTALMENTE CANSADO Y NO HE CONSEGUIDO PRESTAR LA MISMA ATENCIÓN QUE EN LOS PRIMEROS ,78.0,yes
24,2023-09-20_24h30.41.970,Unsyncopated1,s18,30.0,masculino,right,españa,castellano,Bachelor degree,no,no,B,1,what,L2,unsyncopated,s2,r1,24,Online_whatL2//c.cha.me26.444.1110.wav,mi,bi,cha,sil,go,me,ño,sil1,du,te,sil2,['catch'],[1.92899999999986],[1.92899999999986],1.11,no_beat,0.8189999999998598,0.8189999999998598,"[""space""]",me,3,testConjL4Syn//r2.s2.2.wav,2.0,conjunction_syn,syncopated,b,s2,rule,rule,L4,z,7.1662,6.0,1.0,2.9001,3.0,3.0,catalan,3.0,castellano,o,ingles,16.0,4.0,4.0,yes,yes,no,BAJO ELECTRICO,14,GUITARRA,14,VOZ,14,ABLETON LIVE,19.0,PERCUSION,21.0,,,EN EL EJERCICIO CON EL ÚLTIMO LENGUAJE ME ENCONTRABA MENTALMENTE CANSADO Y NO HE CONSEGUIDO PRESTAR LA MISMA ATENCIÓN QUE EN LOS PRIMEROS ,78.0,yes
25,2023-09-20_24h30.41.970,Unsyncopated1,s18,30.0,masculino,right,españa,castellano,Bachelor degree,no,no,B,1,what,L2,unsyncopated,s2,r1,25,Online_whatL2//c.cha.me24.0.444.wav,cha,te,me,sil,go,ba,ño,sil2,du,si,sil1,['miss'],,,0.444,no_beat,,,,me,3,testConjL4Syn//r1.s1.0.wav,2.0,conjunction_syn,syncopated,a,s1,rule,rule,L4,m,1.8873,7.0,0.0,1.5503,3.0,3.0,catalan,3.0,castellano,o,ingles,16.0,4.0,4.0,yes,yes,no,BAJO ELECTRICO,14,GUITARRA,14,VOZ,14,ABLETON LIVE,19.0,PERCUSION,21.0,,,EN EL EJERCICIO CON EL ÚLTIMO LENGUAJE ME ENCONTRABA MENTALMENTE CANSADO Y NO HE CONSEGUIDO PRESTAR LA MISMA ATENCIÓN QUE EN LOS PRIMEROS ,78.0,yes
26,2023-09-20_24h30.41.970,Unsyncopated1,s18,30.0,masculino,right,españa,castellano,Bachelor degree,no,no,B,1,what,L2,unsyncopated,s1,r2,26,Online_whatL2//c.cha.me25.none.none.wav,fe,te,mi,sil,ra,ñu,si,sil2,ba,bi,sil1,['-'],,,none,none,,,,me,3,testConjL4Syn//r1.s1.1.wav,2.0,conjunction_syn,syncopated,a,s1,rule,rule,L4,z,10.3854,7.0,1.0,0.2374,3.0,3.0,catalan,3.0,castellano,o,ingles,16.0,4.0,4.0,yes,yes,no,BAJO ELECTRICO,14,GUITARRA,14,VOZ,14,ABLETON LIVE,19.0,PERCUSION,21.0,,,EN EL EJERCICIO CON EL ÚLTIMO LENGUAJE ME ENCONTRABA MENTALMENTE CANSADO Y NO HE CONSEGUIDO PRESTAR LA MISMA ATENCIÓN QUE EN LOS PRIMEROS ,78.0,yes
27,2023-09-20_24h30.41.970,Unsyncopated1,s18,30.0,masculino,right,españa,castellano,Bachelor degree,no,no,B,1,what,L2,unsyncopated,s1,r2,27,Online_whatL2//c.cha.me27.none.none.wav,fe,si,ñu,sil2,ra,ño,ba,sil,te,bi,sil1,['false alarm'],[0.7818999999997231],[0.7818999999997231],none,none,,,"[""space""]",me,3,testConjL4Syn//r1.s2.1.wav,2.0,conjunction_syn,syncopated,a,s2,rule,rule,L4,m,1.8149,5.0,0.0,1.1514,3.0,3.0,catalan,3.0,castellano,o,ingles,16.0,4.0,4.0,yes,yes,no,BAJO ELECTRICO,14,GUITARRA,14,VOZ,14,ABLETON LIVE,19.0,PERCUSION,21.0,,,EN EL EJERCICIO CON EL ÚLTIMO LENGUAJE ME ENCONTRABA MENTALMENTE CANSADO Y NO HE CONSEGUIDO PRESTAR LA MISMA ATENCIÓN QUE EN LOS PRIMEROS ,78.0,yes
28,2023-09-20_24h30.41.970,Unsyncopated1,s18,30.0,masculino,right,españa,castellano,Bachelor degree,no,no,B,1,what,L2,unsyncopated,s2,r2,28,Online_whatL2//a.go.du13.none.none.wav,te,si,ño,sil2,fe,su,ñu,sil,ra,mi,sil1,['-'],,,none,none,,,,go,1,testConjL4Syn//r1.s1.2.wav,2.0,conjunction_syn,syncopated,a,s1,rule,rule,L4,m,6.5678,4.0,0.0,0.8977,3.0,3.0,catalan,3.0,castellano,o,ingles,16.0,4.0,4.0,yes,yes,no,BAJO ELECTRICO,14,GUITARRA,14,VOZ,14,ABLETON LIVE,19.0,PERCUSION,21.0,,,EN EL EJERCICIO CON EL ÚLTIMO LENGUAJE ME ENCONTRABA MENTALMENTE CANSADO Y NO HE CONSEGUIDO PRESTAR LA MISMA ATENCIÓN QUE EN LOS PRIMEROS ,78.0,yes
29,2023-09-20_24h30.41.970,Unsyncopated1,s18,30.0,masculino,right,españa,castellano,Bachelor degree,no,no,B,1,what,L2,unsyncopated,s2,r2,29,Online_whatL2//a.go.du14.none.none.wav,bi,me,mi,sil2,fe,to,ñu,sil,ra,su,sil1,['-'],,,none,none,,,,go,1,testConjL4Syn//r2.s1.1.wav,2.0,conjunction_syn,syncopated,b,s1,rule,rule,L4,z,2.7723,5.0,1.0,1.1642,3.0,3.0,catalan,3.0,castellano,o,ingles,16.0,4.0,4.0,yes,yes,no,BAJO ELECTRICO,14,GUITARRA,14,VOZ,14,ABLETON LIVE,19.0,PERCUSION,21.0,,,EN EL EJERCICIO CON EL ÚLTIMO LENGUAJE ME ENCONTRABA MENTALMENTE CANSADO Y NO HE CONSEGUIDO PRESTAR LA MISMA ATENCIÓN QUE EN LOS PRIMEROS ,78.0,yes
30,2023-09-20_24h30.41.970,Unsyncopated1,s18,30.0,masculino,right,españa,castellano,Bachelor degree,no,no,B,1,what,L2,unsyncopated,s1,r1,30,Online_whatL2//a.go.du15.0.888.wav,go,cha,mi,sil,du,ñu,to,sil1,ba,ño,sil2,['catch'],[0.4640999999999167],[0.4640999999999167],0.0,beat,0.4640999999999167,0.4640999999999167,"[""space""]",go,1,testConjL4Syn//dep_viol.r1.s2.0.wav,2.0,conjunction_syn,syncopated,a,s2,no_rule,dep,L4,z,1.9638,7.0,0.0,0.2152,3.0,3.0,catalan,3.0,castellano,o,ingles,16.0,4.0,4.0,yes,yes,no,BAJO ELECTRICO,14,GUITARRA,14,VOZ,14,ABLETON LIVE,19.0,PERCUSION,21.0,,,EN EL EJERCICIO CON EL ÚLTIMO LENGUAJE ME ENCONTRABA MENTALMENTE CANSADO Y NO HE CONSEGUIDO PRESTAR LA MISMA ATENCIÓN QUE EN LOS PRIMEROS ,78.0,yes
31,2023-09-20_24h30.41.970,Unsyncopated1,s18,30.0,masculino,right,españa,castellano,Bachelor degree,no,no,B,1,what,L2,unsyncopated,s1,r1,31,Online_whatL2//a.go.du12.0.888.wav,go,su,cha,sil,du,to,te,sil2,me,mi,sil1,['catch'],[0.827900000000227],[0.827900000000227],0.0,beat,0.827900000000227,0.827900000000227,"[""space""]",go,1,testConjL4Syn//cat_viol.r2.s2.0.wav,2.0,conjunction_syn,syncopated,b,s2,no_rule,cat,L4,z,4.3137,2.0,0.0,0.5659,3.0,3.0,catalan,3.0,castellano,o,ingles,16.0,4.0,4.0,yes,yes,no,BAJO ELECTRICO,14,GUITARRA,14,VOZ,14,ABLETON LIVE,19.0,PERCUSION,21.0,,,EN EL EJERCICIO CON EL ÚLTIMO LENGUAJE ME ENCONTRABA MENTALMENTE CANSADO Y NO HE CONSEGUIDO PRESTAR LA MISMA ATENCIÓN QUE EN LOS PRIMEROS ,78.0,yes
32,2023-09-20_24h30.41.970,Unsyncopated1,s18,30.0,masculino,right,españa,castellano,Bachelor degree,no,no,B,1,what,L2,unsyncopated,s2,r2,32,Online_whatL2//c.cha.me23.none.none.wav,si,ñu,te,sil,fe,ba,su,sil2,ra,to,sil1,['-'],,,none,none,,,,me,3,testConjL4Syn//time_viol.r2.s2.0.wav,2.0,conjunction_syn,syncopated,b,s2,no_rule,time,L4,m,2.9197,4.0,1.0,0.6956,3.0,3.0,catalan,3.0,castellano,o,ingles,16.0,4.0,4.0,yes,yes,no,BAJO ELECTRICO,14,GUITARRA,14,VOZ,14,ABLETON LIVE,19.0,PERCUSION,21.0,,,EN EL EJERCICIO CON EL ÚLTIMO LENGUAJE ME ENCONTRABA MENTALMENTE CANSADO Y NO HE CONSEGUIDO PRESTAR LA MISMA ATENCIÓN QUE EN LOS PRIMEROS ,78.0,yes
33,2023-09-20_24h30.41.970,Unsyncopated1,s18,30.0,masculino,right,españa,castellano,Bachelor degree,no,no,B,1,what,L2,unsyncopated,s1,r2,33,Online_whatL2//c.cha.me20.444.1332.wav,fe,si,cha,sil,ra,bi,me,sil2,ño,mi,sil1,['catch'],[2.2293999999999414],[2.2293999999999414],1.332,no_beat,0.8973999999999414,0.8973999999999414,"[""space""]",me,3,testConjL4Syn//time_viol.r1.s1.0.wav,2.0,conjunction_syn,syncopated,a,s1,no_rule,time,L4,m,0.9332,3.0,1.0,0.2,3.0,3.0,catalan,3.0,castellano,o,ingles,16.0,4.0,4.0,yes,yes,no,BAJO ELECTRICO,14,GUITARRA,14,VOZ,14,ABLETON LIVE,19.0,PERCUSION,21.0,,,EN EL EJERCICIO CON EL ÚLTIMO LENGUAJE ME ENCONTRABA MENTALMENTE CANSADO Y NO HE CONSEGUIDO PRESTAR LA MISMA ATENCIÓN QUE EN LOS PRIMEROS ,78.0,yes
34,2023-09-20_24h30.41.970,Unsyncopated1,s18,30.0,masculino,right,españa,castellano,Bachelor degree,no,no,B,1,what,L2,unsyncopated,s2,r1,34,Online_whatL2//c.cha.me22.0.1110.wav,cha,to,su,sil,go,me,ño,sil1,du,ba,sil2,['catch'],[2.230000000000018],[2.230000000000018],1.11,no_beat,1.120000000000018,1.120000000000018,"[""space""]",me,3,testConjL4Syn//r2.s1.2.wav,2.0,conjunction_syn,syncopated,b,s1,rule,rule,L4,m,0.1837,6.0,0.0,0.1492,3.0,3.0,catalan,3.0,castellano,o,ingles,16.0,4.0,4.0,yes,yes,no,BAJO ELECTRICO,14,GUITARRA,14,VOZ,14,ABLETON LIVE,19.0,PERCUSION,21.0,,,EN EL EJERCICIO CON EL ÚLTIMO LENGUAJE ME ENCONTRABA MENTALMENTE CANSADO Y NO HE CONSEGUIDO PRESTAR LA MISMA ATENCIÓN QUE EN LOS PRIMEROS ,78.0,yes
35,2023-09-20_24h30.41.970,Unsyncopated1,s18,30.0,masculino,right,españa,castellano,Bachelor degree,no,no,B,1,what,L2,unsyncopated,s1,r1,35,Online_whatL2//c.cha.me21.none.none.wav,go,mi,bi,sil,du,si,su,sil2,te,ba,sil1,['-'],,,none,none,,,,me,3,testConjL4Syn//time_viol.r2.s1.0.wav,2.0,conjunction_syn,syncopated,b,s1,no_rule,time,L4,m,2.401,6.0,1.0,0.6491,3.0,3.0,catalan,3.0,castellano,o,ingles,16.0,4.0,4.0,yes,yes,no,BAJO ELECTRICO,14,GUITARRA,14,VOZ,14,ABLETON LIVE,19.0,PERCUSION,21.0,,,EN EL EJERCICIO CON EL ÚLTIMO LENGUAJE ME ENCONTRABA MENTALMENTE CANSADO Y NO HE CONSEGUIDO PRESTAR LA MISMA ATENCIÓN QUE EN LOS PRIMEROS ,78.0,yes
36,2023-09-20_24h30.41.970,Unsyncopated1,s18,30.0,masculino,right,españa,castellano,Bachelor degree,no,no,B,1,what,L2,unsyncopated,s2,r2,36,Online_whatL2//c.cha.me11.1332.0.wav,me,ba,si,sil2,fe,cha,ñu,sil,ra,bi,sil1,['catch'],[0.6246000000001004],[0.6246000000001004],0.0,beat,0.6246000000001004,0.6246000000001004,"[""space""]",me,3,testConjL4Syn//r2.s2.1.wav,2.0,conjunction_syn,syncopated,b,s2,rule,rule,L4,z,2.8144,5.0,1.0,0.1658,3.0,3.0,catalan,3.0,castellano,o,ingles,16.0,4.0,4.0,yes,yes,no,BAJO ELECTRICO,14,GUITARRA,14,VOZ,14,ABLETON LIVE,19.0,PERCUSION,21.0,,,EN EL EJERCICIO CON EL ÚLTIMO LENGUAJE ME ENCONTRABA MENTALMENTE CANSADO Y NO HE CONSEGUIDO PRESTAR LA MISMA ATENCIÓN QUE EN LOS PRIMEROS ,78.0,yes
37,2023-09-20_24h30.41.970,Unsyncopated1,s18,30.0,masculino,right,españa,castellano,Bachelor degree,no,no,B,1,what,L2,unsyncopated,s1,r2,37,Online_whatL2//c.cha.me10.222.1110.wav,fe,cha,ño,sil,ra,me,su,sil1,si,to,sil2,['miss'],,,1.11,no_beat,,,,me,3,testConjL4Syn//r1.s2.0.wav,2.0,conjunction_syn,syncopated,a,s2,rule,rule,L4,m,0.2301,6.0,0.0,0.251,3.0,3.0,catalan,3.0,castellano,o,ingles,16.0,4.0,4.0,yes,yes,no,BAJO ELECTRICO,14,GUITARRA,14,VOZ,14,ABLETON LIVE,19.0,PERCUSION,21.0,,,EN EL EJERCICIO CON EL ÚLTIMO LENGUAJE ME ENCONTRABA MENTALMENTE CANSADO Y NO HE CONSEGUIDO PRESTAR LA MISMA ATENCIÓN QUE EN LOS PRIMEROS ,78.0,yes
38,2023-09-20_24h30.41.970,Unsyncopated1,s18,30.0,masculino,right,españa,castellano,Bachelor degree,no,no,B,1,what,L2,unsyncopated,s2,r2,38,Online_whatL2//c.cha.me9.none.none.wav,te,to,si,sil2,fe,su,ñu,sil,ra,bi,sil1,['-'],,,none,none,,,,me,3,testConjL4Syn//dep_viol.r1.s1.0.wav,2.0,conjunction_syn,syncopated,a,s1,no_rule,dep,L4,z,2.1643,4.0,0.0,0.4145,3.0,3.0,catalan,3.0,castellano,o,ingles,16.0,4.0,4.0,yes,yes,no,BAJO ELECTRICO,14,GUITARRA,14,VOZ,14,ABLETON LIVE,19.0,PERCUSION,21.0,,,EN EL EJERCICIO CON EL ÚLTIMO LENGUAJE ME ENCONTRABA MENTALMENTE CANSADO Y NO HE CONSEGUIDO PRESTAR LA MISMA ATENCIÓN QUE EN LOS PRIMEROS ,78.0,yes
39,2023-09-20_24h30.41.970,Unsyncopated1,s18,30.0,masculino,right,españa,castellano,Bachelor degree,no,no,B,1,what,L2,unsyncopated,s1,r1,39,Online_whatL2//c.cha.me8.1998.1332.wav,go,ñu,ño,sil2,du,me,mi,sil,cha,su,sil1,['catch'],[1.949100000000044],[1.949100000000044],1.332,no_beat,0.617100000000044,0.617100000000044,"[""space""]",me,3,testConjL4Syn//r1.s2.2.wav,2.0,conjunction_syn,syncopated,a,s2,rule,rule,L4,z,2.6343,2.0,1.0,0.4864,3.0,3.0,catalan,3.0,castellano,o,ingles,16.0,4.0,4.0,yes,yes,no,BAJO ELECTRICO,14,GUITARRA,14,VOZ,14,ABLETON LIVE,19.0,PERCUSION,21.0,,,EN EL EJERCICIO CON EL ÚLTIMO LENGUAJE ME ENCONTRABA MENTALMENTE CANSADO Y NO HE CONSEGUIDO PRESTAR LA MISMA ATENCIÓN QUE EN LOS PRIMEROS ,78.0,yes
40,2023-09-20_24h30.41.970,Unsyncopated1,s18,30.0,masculino,right,españa,castellano,Bachelor degree,no,no,B,1,what,L2,unsyncopated,s1,r1,40,Online_whatL2//b.fe.ra7.none.none.wav,go,cha,me,sil,du,bi,te,sil1,ñu,su,sil2,['-'],,,none,none,,,,ra,2,testConjL4Syn//r2.s2.0.wav,2.0,conjunction_syn,syncopated,b,s2,rule,rule,L4,m,1.1221,5.0,0.0,0.1679,3.0,3.0,catalan,3.0,castellano,o,ingles,16.0,4.0,4.0,yes,yes,no,BAJO ELECTRICO,14,GUITARRA,14,VOZ,14,ABLETON LIVE,19.0,PERCUSION,21.0,,,EN EL EJERCICIO CON EL ÚLTIMO LENGUAJE ME ENCONTRABA MENTALMENTE CANSADO Y NO HE CONSEGUIDO PRESTAR LA MISMA ATENCIÓN QUE EN LOS PRIMEROS ,78.0,yes
41,2023-09-20_24h30.41.970,Unsyncopated1,s18,30.0,masculino,right,españa,castellano,Bachelor degree,no,no,B,1,what,L2,unsyncopated,s2,r1,41,Online_whatL2//b.fe.ra6.none.none.wav,si,su,te,sil2,go,ba,mi,sil,du,ñu,sil1,['-'],,,none,none,,,,ra,2,testConjL4Syn//cat_viol.r1.s2.0.wav,2.0,conjunction_syn,syncopated,a,s2,no_rule,cat,L4,m,1.2215,3.0,1.0,0.1004,3.0,3.0,catalan,3.0,castellano,o,ingles,16.0,4.0,4.0,yes,yes,no,BAJO ELECTRICO,14,GUITARRA,14,VOZ,14,ABLETON LIVE,19.0,PERCUSION,21.0,,,EN EL EJERCICIO CON EL ÚLTIMO LENGUAJE ME ENCONTRABA MENTALMENTE CANSADO Y NO HE CONSEGUIDO PRESTAR LA MISMA ATENCIÓN QUE EN LOS PRIMEROS ,78.0,yes
42,2023-09-20_24h30.41.970,Unsyncopated1,s18,30.0,masculino,right,españa,castellano,Bachelor degree,no,no,B,1,what,L2,unsyncopated,s2,r2,42,Online_whatL2//b.fe.ra5.888.1776.wav,ñu,ño,mi,sil,fe,me,ba,sil1,ra,te,sil2,['catch'],[2.427800000000161],[2.427800000000161],1.776,beat,0.6518000000001611,0.6518000000001611,"[""space""]",ra,2,testConjL4Syn//r2.s1.0.wav,2.0,conjunction_syn,syncopated,b,s1,rule,rule,L4,z,1.5547,3.0,1.0,0.9973,3.0,3.0,catalan,3.0,castellano,o,ingles,16.0,4.0,4.0,yes,yes,no,BAJO ELECTRICO,14,GUITARRA,14,VOZ,14,ABLETON LIVE,19.0,PERCUSION,21.0,,,EN EL EJERCICIO CON EL ÚLTIMO LENGUAJE ME ENCONTRABA MENTALMENTE CANSADO Y NO HE CONSEGUIDO PRESTAR LA MISMA ATENCIÓN QUE EN LOS PRIMEROS ,78.0,yes
43,2023-09-20_24h30.41.970,Unsyncopated1,s18,30.0,masculino,right,españa,castellano,Bachelor degree,no,no,B,1,what,L2,unsyncopated,s1,r1,43,Online_whatL2//b.fe.ra4.none.none.wav,go,te,to,sil2,du,ño,me,sil,su,cha,sil1,['-'],,,none,none,,,,ra,2,testConjL4Syn//cat_viol.r2.s1.0.wav,2.0,conjunction_syn,syncopated,b,s1,no_rule,cat,L4,z,0.9537,5.0,0.0,0.7998,3.0,3.0,catalan,3.0,castellano,o,ingles,16.0,4.0,4.0,yes,yes,no,BAJO ELECTRICO,14,GUITARRA,14,VOZ,14,ABLETON LIVE,19.0,PERCUSION,21.0,,,EN EL EJERCICIO CON EL ÚLTIMO LENGUAJE ME ENCONTRABA MENTALMENTE CANSADO Y NO HE CONSEGUIDO PRESTAR LA MISMA ATENCIÓN QUE EN LOS PRIMEROS ,78.0,yes
44,2023-09-20_24h30.41.970,Unsyncopated1,s18,30.0,masculino,right,españa,castellano,Bachelor degree,no,no,B,1,what,L2,unsyncopated,s1,r1,44,Online_whatL2//d.si.ñu9.444.1332.wav,go,mi,si,sil,du,me,ñu,sil2,to,su,sil1,['catch'],[1.8264000000001488],[1.8264000000001488],1.332,no_beat,0.4944000000001487,0.4944000000001487,"[""space""]",ñu,4,testConjL4Syn//time_viol.r1.s2.0.wav,2.0,conjunction_syn,syncopated,a,s2,no_rule,time,L4,m,0.5327,4.0,1.0,0.683,3.0,3.0,catalan,3.0,castellano,o,ingles,16.0,4.0,4.0,yes,yes,no,BAJO ELECTRICO,14,GUITARRA,14,VOZ,14,ABLETON LIVE,19.0,PERCUSION,21.0,,,EN EL EJERCICIO CON EL ÚLTIMO LENGUAJE ME ENCONTRABA MENTALMENTE CANSADO Y NO HE CONSEGUIDO PRESTAR LA MISMA ATENCIÓN QUE EN LOS PRIMEROS ,78.0,yes
45,2023-09-20_24h30.41.970,Unsyncopated1,s18,30.0,masculino,right,españa,castellano,Bachelor degree,no,no,B,1,what,L2,unsyncopated,s2,r2,45,Online_whatL2//d.si.ñu10.1554.222.wav,to,ñu,cha,sil2,fe,me,si,sil,ra,te,sil1,['catch'],[0.760600000000295],[0.760600000000295],0.222,no_beat,0.5386000000002951,0.5386000000002951,"[""space""]",ñu,4,testConjL4Syn//dep_viol.r2.s2.0.wav,2.0,conjunction_syn,syncopated,b,s2,no_rule,dep,L4,z,1.8532,5.0,0.0,1.0374,3.0,3.0,catalan,3.0,castellano,o,ingles,16.0,4.0,4.0,yes,yes,no,BAJO ELECTRICO,14,GUITARRA,14,VOZ,14,ABLETON LIVE,19.0,PERCUSION,21.0,,,EN EL EJERCICIO CON EL ÚLTIMO LENGUAJE ME ENCONTRABA MENTALMENTE CANSADO Y NO HE CONSEGUIDO PRESTAR LA MISMA ATENCIÓN QUE EN LOS PRIMEROS ,78.0,yes
46,2023-09-20_24h30.41.970,Unsyncopated1,s18,30.0,masculino,right,españa,castellano,Bachelor degree,no,no,B,1,what,L2,unsyncopated,s1,r1,46,Online_whatL2//d.si.ñu8.none.none.wav,go,ba,to,sil2,du,mi,su,sil,te,cha,sil1,['-'],,,none,none,,,,ñu,4,testConjL4Syn//cat_viol.r1.s1.0.wav,2.0,conjunction_syn,syncopated,a,s1,no_rule,cat,L4,m,0.9341,5.0,1.0,0.4356,3.0,3.0,catalan,3.0,castellano,o,ingles,16.0,4.0,4.0,yes,yes,no,BAJO ELECTRICO,14,GUITARRA,14,VOZ,14,ABLETON LIVE,19.0,PERCUSION,21.0,,,EN EL EJERCICIO CON EL ÚLTIMO LENGUAJE ME ENCONTRABA MENTALMENTE CANSADO Y NO HE CONSEGUIDO PRESTAR LA MISMA ATENCIÓN QUE EN LOS PRIMEROS ,78.0,yes
47,2023-09-20_24h30.41.970,Unsyncopated1,s18,30.0,masculino,right,españa,castellano,Bachelor degree,no,no,B,1,what,L2,unsyncopated,s2,r1,47,Online_whatL2//d.si.ñu11.none.none.wav,su,bi,me,sil,go,te,mi,sil1,du,ño,sil2,['-'],,,none,none,,,,ñu,4,testConjL4Syn//dep_viol.r2.s1.0.wav,2.0,conjunction_syn,syncopated,b,s1,no_rule,dep,L4,m,3.7004,4.0,1.0,0.2351,3.0,3.0,catalan,3.0,castellano,o,ingles,16.0,4.0,4.0,yes,yes,no,BAJO ELECTRICO,14,GUITARRA,14,VOZ,14,ABLETON LIVE,19.0,PERCUSION,21.0,,,EN EL EJERCICIO CON EL ÚLTIMO LENGUAJE ME ENCONTRABA MENTALMENTE CANSADO Y NO HE CONSEGUIDO PRESTAR LA MISMA ATENCIÓN QUE EN LOS PRIMEROS ,78.0,yes
48,2023-09-20_24h30.41.970,Unsyncopated1,s18,30.0,masculino,right,españa,castellano,Bachelor degree,no,no,B,1,what,L2,unsyncopated,s1,r2,48,Online_whatL2//d.si.ñu31.none.none.wav,fe,mi,ño,sil,ra,su,me,sil1,ba,te,sil2,['-'],,,none,none,,,,ñu,4,testWhenL3Uns//time_viol.r1.s1.0.wav,3.0,when,unsyncopated,a,s1,no_rule,time,L3,z,4.6044,7.0,1.0,1.1687,3.0,3.0,catalan,3.0,castellano,o,ingles,16.0,4.0,4.0,yes,yes,no,BAJO ELECTRICO,14,GUITARRA,14,VOZ,14,ABLETON LIVE,19.0,PERCUSION,21.0,,,EN EL EJERCICIO CON EL ÚLTIMO LENGUAJE ME ENCONTRABA MENTALMENTE CANSADO Y NO HE CONSEGUIDO PRESTAR LA MISMA ATENCIÓN QUE EN LOS PRIMEROS ,78.0,yes
49,2023-09-20_24h30.41.970,Unsyncopated1,s18,30.0,masculino,right,españa,castellano,Bachelor degree,no,no,B,1,what,L2,unsyncopated,s1,r2,49,Online_whatL2//d.si.ñu30.1332.222.wav,fe,ñu,te,sil2,ra,si,to,sil,bi,ba,sil1,['catch'],[0.8781999999998789],[0.8781999999998789],0.222,no_beat,0.6561999999998789,0.6561999999998789,"[""space""]",ñu,4,testWhenL3Uns//r1.s1.2.wav,3.0,when,unsyncopated,a,s1,rule,rule,L3,m,2.7034,4.0,0.0,0.1151,3.0,3.0,catalan,3.0,castellano,o,ingles,16.0,4.0,4.0,yes,yes,no,BAJO ELECTRICO,14,GUITARRA,14,VOZ,14,ABLETON LIVE,19.0,PERCUSION,21.0,,,EN EL EJERCICIO CON EL ÚLTIMO LENGUAJE ME ENCONTRABA MENTALMENTE CANSADO Y NO HE CONSEGUIDO PRESTAR LA MISMA ATENCIÓN QUE EN LOS PRIMEROS ,78.0,yes
50,2023-09-20_24h30.41.970,Unsyncopated1,s18,30.0,masculino,right,españa,castellano,Bachelor degree,no,no,B,1,what,L2,unsyncopated,s1,r1,50,Online_whatL2//d.si.ñu28.444.1554.wav,go,me,si,sil2,du,to,ñu,sil,te,mi,sil1,['catch'],[2.411299999999983],[2.411299999999983],1.554,no_beat,0.8572999999999829,0.8572999999999829,"[""space""]",ñu,4,testWhenL3Uns//cat_viol.r1.s2.0.wav,3.0,when,unsyncopated,a,s2,no_rule,cat,L3,m,3.3345,5.0,0.0,0.0846,3.0,3.0,catalan,3.0,castellano,o,ingles,16.0,4.0,4.0,yes,yes,no,BAJO ELECTRICO,14,GUITARRA,14,VOZ,14,ABLETON LIVE,19.0,PERCUSION,21.0,,,EN EL EJERCICIO CON EL ÚLTIMO LENGUAJE ME ENCONTRABA MENTALMENTE CANSADO Y NO HE CONSEGUIDO PRESTAR LA MISMA ATENCIÓN QUE EN LOS PRIMEROS ,78.0,yes
51,2023-09-20_24h30.41.970,Unsyncopated1,s18,30.0,masculino,right,españa,castellano,Bachelor degree,no,no,B,1,what,L2,unsyncopated,s1,r2,51,Online_whatL2//d.si.ñu29.222.1110.wav,fe,si,me,sil,ra,ñu,ño,sil2,mi,te,sil1,['miss'],,,1.11,no_beat,,,,ñu,4,testWhenL3Uns//r2.s1.1.wav,3.0,when,unsyncopated,b,s1,rule,rule,L3,m,1.5002,5.0,0.0,0.1154,3.0,3.0,catalan,3.0,castellano,o,ingles,16.0,4.0,4.0,yes,yes,no,BAJO ELECTRICO,14,GUITARRA,14,VOZ,14,ABLETON LIVE,19.0,PERCUSION,21.0,,,EN EL EJERCICIO CON EL ÚLTIMO LENGUAJE ME ENCONTRABA MENTALMENTE CANSADO Y NO HE CONSEGUIDO PRESTAR LA MISMA ATENCIÓN QUE EN LOS PRIMEROS ,78.0,yes
52,2023-09-20_24h30.41.970,Unsyncopated1,s18,30.0,masculino,right,españa,castellano,Bachelor degree,no,no,B,1,what,L2,unsyncopated,s2,r1,52,Online_whatL2//b.fe.ra27.none.none.wav,mi,me,su,sil,go,cha,ño,sil2,du,te,sil1,['false alarm'],[0.031099999999923966],[0.031099999999923966],none,none,,,"[""space""]",ra,2,testWhenL3Uns//time_viol.r2.s1.0.wav,3.0,when,unsyncopated,b,s1,no_rule,time,L3,m,0.5024,4.0,0.0,0.1163,3.0,3.0,catalan,3.0,castellano,o,ingles,16.0,4.0,4.0,yes,yes,no,BAJO ELECTRICO,14,GUITARRA,14,VOZ,14,ABLETON LIVE,19.0,PERCUSION,21.0,,,EN EL EJERCICIO CON EL ÚLTIMO LENGUAJE ME ENCONTRABA MENTALMENTE CANSADO Y NO HE CONSEGUIDO PRESTAR LA MISMA ATENCIÓN QUE EN LOS PRIMEROS ,78.0,yes
53,2023-09-20_24h30.41.970,Unsyncopated1,s18,30.0,masculino,right,españa,castellano,Bachelor degree,no,no,B,1,what,L2,unsyncopated,s1,r2,53,Online_whatL2//b.fe.ra25.0.888.wav,fe,to,si,sil,ra,mi,su,sil2,cha,ño,sil1,['catch'],[1.5132000000000971],[1.5132000000000971],0.888,beat,0.6252000000000971,0.6252000000000971,"[""space""]",ra,2,testWhenL3Uns//cat_viol.r2.s1.0.wav,3.0,when,unsyncopated,b,s1,no_rule,cat,L3,z,0.5666,7.0,1.0,0.5003,3.0,3.0,catalan,3.0,castellano,o,ingles,16.0,4.0,4.0,yes,yes,no,BAJO ELECTRICO,14,GUITARRA,14,VOZ,14,ABLETON LIVE,19.0,PERCUSION,21.0,,,EN EL EJERCICIO CON EL ÚLTIMO LENGUAJE ME ENCONTRABA MENTALMENTE CANSADO Y NO HE CONSEGUIDO PRESTAR LA MISMA ATENCIÓN QUE EN LOS PRIMEROS ,78.0,yes
54,2023-09-20_24h30.41.970,Unsyncopated1,s18,30.0,masculino,right,españa,castellano,Bachelor degree,no,no,B,1,what,L2,unsyncopated,s2,r2,54,Online_whatL2//b.fe.ra26.1110.1998.wav,si,me,bi,sil2,fe,cha,te,sil,ra,to,sil1,['catch'],[2.5496000000002823],[2.5496000000002823],1.998,no_beat,0.5516000000002823,0.5516000000002823,"[""space""]",ra,2,testWhenL3Uns//cat_viol.r1.s1.0.wav,3.0,when,unsyncopated,a,s1,no_rule,cat,L3,z,2.7712,5.0,1.0,0.3662,3.0,3.0,catalan,3.0,castellano,o,ingles,16.0,4.0,4.0,yes,yes,no,BAJO ELECTRICO,14,GUITARRA,14,VOZ,14,ABLETON LIVE,19.0,PERCUSION,21.0,,,EN EL EJERCICIO CON EL ÚLTIMO LENGUAJE ME ENCONTRABA MENTALMENTE CANSADO Y NO HE CONSEGUIDO PRESTAR LA MISMA ATENCIÓN QUE EN LOS PRIMEROS ,78.0,yes
55,2023-09-20_24h30.41.970,Unsyncopated1,s18,30.0,masculino,right,españa,castellano,Bachelor degree,no,no,B,1,what,L2,unsyncopated,s2,r1,55,Online_whatL2//b.fe.ra24.none.none.wav,si,cha,su,sil2,go,mi,me,sil,du,bi,sil1,['-'],,,none,none,,,,ra,2,testWhenL3Uns//r2.s2.0.wav,3.0,when,unsyncopated,b,s2,rule,rule,L3,m,1.1164,6.0,0.0,0.1206,3.0,3.0,catalan,3.0,castellano,o,ingles,16.0,4.0,4.0,yes,yes,no,BAJO ELECTRICO,14,GUITARRA,14,VOZ,14,ABLETON LIVE,19.0,PERCUSION,21.0,,,EN EL EJERCICIO CON EL ÚLTIMO LENGUAJE ME ENCONTRABA MENTALMENTE CANSADO Y NO HE CONSEGUIDO PRESTAR LA MISMA ATENCIÓN QUE EN LOS PRIMEROS ,78.0,yes
56,2023-09-20_24h30.41.970,Unsyncopated1,s18,30.0,masculino,right,españa,castellano,Bachelor degree,no,no,B,1,what,L2,unsyncopated,s2,r1,56,Online_whatL2//a.go.du2.1110.1998.wav,te,bi,ñu,sil2,go,cha,mi,sil,du,to,sil1,['catch'],[2.241700000000037],[2.241700000000037],1.11,no_beat,1.131700000000037,1.131700000000037,"[""space""]",go,1,testWhenL3Uns//r1.s2.2.wav,3.0,when,unsyncopated,a,s2,rule,rule,L3,z,2.7176,7.0,1.0,2.6647,3.0,3.0,catalan,3.0,castellano,o,ingles,16.0,4.0,4.0,yes,yes,no,BAJO ELECTRICO,14,GUITARRA,14,VOZ,14,ABLETON LIVE,19.0,PERCUSION,21.0,,,EN EL EJERCICIO CON EL ÚLTIMO LENGUAJE ME ENCONTRABA MENTALMENTE CANSADO Y NO HE CONSEGUIDO PRESTAR LA MISMA ATENCIÓN QUE EN LOS PRIMEROS ,78.0,yes
57,2023-09-20_24h30.41.970,Unsyncopated1,s18,30.0,masculino,right,españa,castellano,Bachelor degree,no,no,B,1,what,L2,unsyncopated,s1,r2,57,Online_whatL2//a.go.du0.none.none.wav,fe,ñu,to,sil2,ra,ño,su,sil,ba,bi,sil1,['-'],,,none,none,,,,go,1,testWhenL3Uns//r2.s2.1.wav,3.0,when,unsyncopated,b,s2,rule,rule,L3,z,0.1502,7.0,1.0,0.1195,3.0,3.0,catalan,3.0,castellano,o,ingles,16.0,4.0,4.0,yes,yes,no,BAJO ELECTRICO,14,GUITARRA,14,VOZ,14,ABLETON LIVE,19.0,PERCUSION,21.0,,,EN EL EJERCICIO CON EL ÚLTIMO LENGUAJE ME ENCONTRABA MENTALMENTE CANSADO Y NO HE CONSEGUIDO PRESTAR LA MISMA ATENCIÓN QUE EN LOS PRIMEROS ,78.0,yes
58,2023-09-20_24h30.41.970,Unsyncopated1,s18,30.0,masculino,right,españa,castellano,Bachelor degree,no,no,B,1,what,L2,unsyncopated,s1,r2,58,Online_whatL2//a.go.du1.none.none.wav,fe,cha,me,sil2,ra,to,ñu,sil,ño,mi,sil1,['-'],,,none,none,,,,go,1,testWhenL3Uns//time_viol.r2.s2.0.wav,3.0,when,unsyncopated,b,s2,no_rule,time,L3,m,1.9987,3.0,0.0,0.1174,3.0,3.0,catalan,3.0,castellano,o,ingles,16.0,4.0,4.0,yes,yes,no,BAJO ELECTRICO,14,GUITARRA,14,VOZ,14,ABLETON LIVE,19.0,PERCUSION,21.0,,,EN EL EJERCICIO CON EL ÚLTIMO LENGUAJE ME ENCONTRABA MENTALMENTE CANSADO Y NO HE CONSEGUIDO PRESTAR LA MISMA ATENCIÓN QUE EN LOS PRIMEROS ,78.0,yes
59,2023-09-20_24h30.41.970,Unsyncopated1,s18,30.0,masculino,right,españa,castellano,Bachelor degree,no,no,B,1,what,L2,unsyncopated,s1,r1,59,Online_whatL2//a.go.du3.0.888.wav,go,te,me,sil,du,mi,cha,sil2,ba,ño,sil1,['catch'],[0.6647000000000389],[0.6647000000000389],0.0,beat,0.6647000000000389,0.6647000000000389,"[""space""]",go,1,testWhenL3Uns//r1.s1.1.wav,3.0,when,unsyncopated,a,s1,rule,rule,L3,m,1.6166,1.0,0.0,1.1334,3.0,3.0,catalan,3.0,castellano,o,ingles,16.0,4.0,4.0,yes,yes,no,BAJO ELECTRICO,14,GUITARRA,14,VOZ,14,ABLETON LIVE,19.0,PERCUSION,21.0,,,EN EL EJERCICIO CON EL ÚLTIMO LENGUAJE ME ENCONTRABA MENTALMENTE CANSADO Y NO HE CONSEGUIDO PRESTAR LA MISMA ATENCIÓN QUE EN LOS PRIMEROS ,78.0,yes
60,2023-09-20_24h30.41.970,Unsyncopated1,s18,30.0,masculino,right,españa,castellano,Bachelor degree,no,no,B,1,what,L2,unsyncopated,s1,r1,60,Online_whatL2//a.go.du18.0.1110.wav,go,cha,me,sil2,du,ño,ñu,sil,ba,mi,sil1,['catch'],[0.6080999999999221],[0.6080999999999221],0.0,beat,0.6080999999999221,0.6080999999999221,"[""space""]",go,1,testWhenL3Uns//dep_viol.r1.s2.0.wav,3.0,when,unsyncopated,a,s2,no_rule,dep,L3,z,1.1486,1.0,1.0,0.5807,3.0,3.0,catalan,3.0,castellano,o,ingles,16.0,4.0,4.0,yes,yes,no,BAJO ELECTRICO,14,GUITARRA,14,VOZ,14,ABLETON LIVE,19.0,PERCUSION,21.0,,,EN EL EJERCICIO CON EL ÚLTIMO LENGUAJE ME ENCONTRABA MENTALMENTE CANSADO Y NO HE CONSEGUIDO PRESTAR LA MISMA ATENCIÓN QUE EN LOS PRIMEROS ,78.0,yes
61,2023-09-20_24h30.41.970,Unsyncopated1,s18,30.0,masculino,right,españa,castellano,Bachelor degree,no,no,B,1,what,L2,unsyncopated,s2,r1,61,Online_whatL2//a.go.du19.1110.1998.wav,si,cha,ñu,sil2,go,mi,ño,sil,du,me,sil1,['catch'],[1.9469000000001415],[1.9469000000001415],1.11,no_beat,0.8369000000001414,0.8369000000001414,"[""space""]",go,1,testWhenL3Uns//dep_viol.r1.s1.0.wav,3.0,when,unsyncopated,a,s1,no_rule,dep,L3,m,1.048,3.0,0.0,0.1998,3.0,3.0,catalan,3.0,castellano,o,ingles,16.0,4.0,4.0,yes,yes,no,BAJO ELECTRICO,14,GUITARRA,14,VOZ,14,ABLETON LIVE,19.0,PERCUSION,21.0,,,EN EL EJERCICIO CON EL ÚLTIMO LENGUAJE ME ENCONTRABA MENTALMENTE CANSADO Y NO HE CONSEGUIDO PRESTAR LA MISMA ATENCIÓN QUE EN LOS PRIMEROS ,78.0,yes
62,2023-09-20_24h30.41.970,Unsyncopated1,s18,30.0,masculino,right,españa,castellano,Bachelor degree,no,no,B,1,what,L2,unsyncopated,s2,r1,62,Online_whatL2//a.go.du16.888.1776.wav,cha,bi,mi,sil,go,me,to,sil1,du,ño,sil2,['catch'],[1.599999999999909],[1.599999999999909],0.888,beat,0.711999999999909,0.711999999999909,"[""space""]",go,1,testWhenL3Uns//dep_viol.r2.s1.0.wav,3.0,when,unsyncopated,b,s1,no_rule,dep,L3,m,1.9499,4.0,0.0,0.2172,3.0,3.0,catalan,3.0,castellano,o,ingles,16.0,4.0,4.0,yes,yes,no,BAJO ELECTRICO,14,GUITARRA,14,VOZ,14,ABLETON LIVE,19.0,PERCUSION,21.0,,,EN EL EJERCICIO CON EL ÚLTIMO LENGUAJE ME ENCONTRABA MENTALMENTE CANSADO Y NO HE CONSEGUIDO PRESTAR LA MISMA ATENCIÓN QUE EN LOS PRIMEROS ,78.0,yes
63,2023-09-20_24h30.41.970,Unsyncopated1,s18,30.0,masculino,right,españa,castellano,Bachelor degree,no,no,B,1,what,L2,unsyncopated,s2,r1,63,Online_whatL2//a.go.du17.888.1776.wav,si,ño,bi,sil,go,te,ñu,sil1,du,su,sil2,['catch'],[1.3777000000000044],[1.3777000000000044],0.888,beat,0.4897000000000043,0.4897000000000043,"[""space""]",go,1,testWhenL3Uns//r1.s2.1.wav,3.0,when,unsyncopated,a,s2,rule,rule,L3,z,2.0161,7.0,1.0,3.4175,3.0,3.0,catalan,3.0,castellano,o,ingles,16.0,4.0,4.0,yes,yes,no,BAJO ELECTRICO,14,GUITARRA,14,VOZ,14,ABLETON LIVE,19.0,PERCUSION,21.0,,,EN EL EJERCICIO CON EL ÚLTIMO LENGUAJE ME ENCONTRABA MENTALMENTE CANSADO Y NO HE CONSEGUIDO PRESTAR LA MISMA ATENCIÓN QUE EN LOS PRIMEROS ,78.0,yes
64,2023-09-20_24h30.41.970,Unsyncopated1,s18,30.0,masculino,right,españa,castellano,Bachelor degree,no,no,B,1,what,L2,unsyncopated,s2,r1,64,Online_whatL2//b.fe.ra23.none.none.wav,te,ñu,me,sil,go,cha,ño,sil1,du,bi,sil2,['-'],,,none,none,,,,ra,2,testWhenL3Uns//r1.s2.0.wav,3.0,when,unsyncopated,a,s2,rule,rule,L3,z,1.7157,7.0,1.0,0.0987,3.0,3.0,catalan,3.0,castellano,o,ingles,16.0,4.0,4.0,yes,yes,no,BAJO ELECTRICO,14,GUITARRA,14,VOZ,14,ABLETON LIVE,19.0,PERCUSION,21.0,,,EN EL EJERCICIO CON EL ÚLTIMO LENGUAJE ME ENCONTRABA MENTALMENTE CANSADO Y NO HE CONSEGUIDO PRESTAR LA MISMA ATENCIÓN QUE EN LOS PRIMEROS ,78.0,yes
65,2023-09-20_24h30.41.970,Unsyncopated1,s18,30.0,masculino,right,españa,castellano,Bachelor degree,no,no,B,1,what,L2,unsyncopated,s2,r1,65,Online_whatL2//b.fe.ra20.none.none.wav,te,me,mi,sil,go,to,ñu,sil2,du,ba,sil1,['-'],,,none,none,,,,ra,2,testWhenL3Uns//r2.s1.2.wav,3.0,when,unsyncopated,b,s1,rule,rule,L3,z,2.2546,4.0,1.0,0.4662,3.0,3.0,catalan,3.0,castellano,o,ingles,16.0,4.0,4.0,yes,yes,no,BAJO ELECTRICO,14,GUITARRA,14,VOZ,14,ABLETON LIVE,19.0,PERCUSION,21.0,,,EN EL EJERCICIO CON EL ÚLTIMO LENGUAJE ME ENCONTRABA MENTALMENTE CANSADO Y NO HE CONSEGUIDO PRESTAR LA MISMA ATENCIÓN QUE EN LOS PRIMEROS ,78.0,yes
66,2023-09-20_24h30.41.970,Unsyncopated1,s18,30.0,masculino,right,españa,castellano,Bachelor degree,no,no,B,1,what,L2,unsyncopated,s1,r2,66,Online_whatL2//b.fe.ra21.0.888.wav,fe,bi,su,sil,ra,to,te,sil1,ba,ñu,sil2,['catch'],[1.4634000000000924],[1.4634000000000924],0.888,beat,0.5754000000000924,0.5754000000000924,"[""space""]",ra,2,testWhenL3Uns//time_viol.r1.s2.0.wav,3.0,when,unsyncopated,a,s2,no_rule,time,L3,z,0.3353,4.0,1.0,0.3495,3.0,3.0,catalan,3.0,castellano,o,ingles,16.0,4.0,4.0,yes,yes,no,BAJO ELECTRICO,14,GUITARRA,14,VOZ,14,ABLETON LIVE,19.0,PERCUSION,21.0,,,EN EL EJERCICIO CON EL ÚLTIMO LENGUAJE ME ENCONTRABA MENTALMENTE CANSADO Y NO HE CONSEGUIDO PRESTAR LA MISMA ATENCIÓN QUE EN LOS PRIMEROS ,78.0,yes
67,2023-09-20_24h30.41.970,Unsyncopated1,s18,30.0,masculino,right,españa,castellano,Bachelor degree,no,no,B,1,what,L2,unsyncopated,s2,r2,67,Online_whatL2//b.fe.ra22.888.1776.wav,ba,me,cha,sil,fe,su,ño,sil1,ra,to,sil2,['miss'],,,1.776,beat,,,,ra,2,testWhenL3Uns//r1.s1.0.wav,3.0,when,unsyncopated,a,s1,rule,rule,L3,m,1.6467,4.0,0.0,1.2698,3.0,3.0,catalan,3.0,castellano,o,ingles,16.0,4.0,4.0,yes,yes,no,BAJO ELECTRICO,14,GUITARRA,14,VOZ,14,ABLETON LIVE,19.0,PERCUSION,21.0,,,EN EL EJERCICIO CON EL ÚLTIMO LENGUAJE ME ENCONTRABA MENTALMENTE CANSADO Y NO HE CONSEGUIDO PRESTAR LA MISMA ATENCIÓN QUE EN LOS PRIMEROS ,78.0,yes
68,2023-09-20_24h30.41.970,Unsyncopated1,s18,30.0,masculino,right,españa,castellano,Bachelor degree,no,no,B,1,what,L2,unsyncopated,s2,r2,68,Online_whatL2//d.si.ñu13.444.0.wav,ñu,te,si,sil,fe,bi,cha,sil1,ra,ba,sil2,"['catch', 'false alarm']","[0.0181999999999789, 0.9746000000000095]",[0.0181999999999789],0.0,beat,0.0181999999999789,0.0181999999999789,"[""space"",""space""]",ñu,4,testWhenL3Uns//cat_viol.r2.s2.0.wav,3.0,when,unsyncopated,b,s2,no_rule,cat,L3,z,0.4671,6.0,1.0,0.1667,3.0,3.0,catalan,3.0,castellano,o,ingles,16.0,4.0,4.0,yes,yes,no,BAJO ELECTRICO,14,GUITARRA,14,VOZ,14,ABLETON LIVE,19.0,PERCUSION,21.0,,,EN EL EJERCICIO CON EL ÚLTIMO LENGUAJE ME ENCONTRABA MENTALMENTE CANSADO Y NO HE CONSEGUIDO PRESTAR LA MISMA ATENCIÓN QUE EN LOS PRIMEROS ,78.0,yes
69,2023-09-20_24h30.41.970,Unsyncopated1,s18,30.0,masculino,right,españa,castellano,Bachelor degree,no,no,B,1,what,L2,unsyncopated,s1,r2,69,Online_whatL2//d.si.ñu14.none.none.wav,fe,te,cha,sil,ra,mi,ba,sil1,bi,ño,sil2,['-'],,,none,none,,,,ñu,4,testWhenL3Uns//r2.s2.2.wav,3.0,when,unsyncopated,b,s2,rule,rule,L3,m,0.3833,4.0,0.0,0.2833,3.0,3.0,catalan,3.0,castellano,o,ingles,16.0,4.0,4.0,yes,yes,no,BAJO ELECTRICO,14,GUITARRA,14,VOZ,14,ABLETON LIVE,19.0,PERCUSION,21.0,,,EN EL EJERCICIO CON EL ÚLTIMO LENGUAJE ME ENCONTRABA MENTALMENTE CANSADO Y NO HE CONSEGUIDO PRESTAR LA MISMA ATENCIÓN QUE EN LOS PRIMEROS ,78.0,yes
70,2023-09-20_24h30.41.970,Unsyncopated1,s18,30.0,masculino,right,españa,castellano,Bachelor degree,no,no,B,1,what,L2,unsyncopated,s2,r2,70,Online_whatL2//d.si.ñu15.none.none.wav,su,te,mi,sil2,fe,ño,bi,sil,ra,cha,sil1,['-'],,,none,none,,,,ñu,4,testWhenL3Uns//dep_viol.r2.s2.0.wav,3.0,when,unsyncopated,b,s2,no_rule,dep,L3,z,0.487,1.0,1.0,2.6481,3.0,3.0,catalan,3.0,castellano,o,ingles,16.0,4.0,4.0,yes,yes,no,BAJO ELECTRICO,14,GUITARRA,14,VOZ,14,ABLETON LIVE,19.0,PERCUSION,21.0,,,EN EL EJERCICIO CON EL ÚLTIMO LENGUAJE ME ENCONTRABA MENTALMENTE CANSADO Y NO HE CONSEGUIDO PRESTAR LA MISMA ATENCIÓN QUE EN LOS PRIMEROS ,78.0,yes
71,2023-09-20_24h30.41.970,Unsyncopated1,s18,30.0,masculino,right,españa,castellano,Bachelor degree,no,no,B,1,what,L2,unsyncopated,s1,r1,71,Online_whatL2//d.si.ñu12.222.444.wav,go,si,ñu,sil,du,ba,me,sil1,bi,to,sil2,['catch'],[1.0957000000003063],[1.0957000000003063],0.444,no_beat,0.6517000000003064,0.6517000000003064,"[""space""]",ñu,4,testWhenL3Uns//r2.s1.0.wav,3.0,when,unsyncopated,b,s1,rule,rule,L3,m,1.0038,2.0,0.0,0.3012,3.0,3.0,catalan,3.0,castellano,o,ingles,16.0,4.0,4.0,yes,yes,no,BAJO ELECTRICO,14,GUITARRA,14,VOZ,14,ABLETON LIVE,19.0,PERCUSION,21.0,,,EN EL EJERCICIO CON EL ÚLTIMO LENGUAJE ME ENCONTRABA MENTALMENTE CANSADO Y NO HE CONSEGUIDO PRESTAR LA MISMA ATENCIÓN QUE EN LOS PRIMEROS ,78.0,yes
72,2023-09-20_24h30.41.970,Unsyncopated1,s18,30.0,masculino,right,españa,castellano,Bachelor degree,no,no,B,1,what,L2,unsyncopated,s2,r2,72,Online_whatL2//c.cha.me1.1110.0.wav,me,mi,ba,sil,fe,cha,su,sil2,ra,ñu,sil1,['catch'],[0.7720000000001619],[0.7720000000001619],0.0,beat,0.7720000000001619,0.7720000000001619,"[""space""]",me,3,testConjL1Uns//r2.s1.0.wav,4.0,conjunction_un,unsyncopated,b,s1,rule,rule,L1,z,3.3987,2.0,1.0,0.2797,3.0,3.0,catalan,3.0,castellano,o,ingles,16.0,4.0,4.0,yes,yes,no,BAJO ELECTRICO,14,GUITARRA,14,VOZ,14,ABLETON LIVE,19.0,PERCUSION,21.0,,,EN EL EJERCICIO CON EL ÚLTIMO LENGUAJE ME ENCONTRABA MENTALMENTE CANSADO Y NO HE CONSEGUIDO PRESTAR LA MISMA ATENCIÓN QUE EN LOS PRIMEROS ,78.0,yes
73,2023-09-20_24h30.41.970,Unsyncopated1,s18,30.0,masculino,right,españa,castellano,Bachelor degree,no,no,B,1,what,L2,unsyncopated,s1,r1,73,Online_whatL2//c.cha.me2.none.none.wav,go,ba,si,sil2,du,mi,ñu,sil,bi,ño,sil1,['false alarm'],[0.9006999999999152],[0.9006999999999152],none,none,,,"[""space""]",me,3,testConjL1Uns//r1.s2.0.wav,4.0,conjunction_un,unsyncopated,a,s2,rule,rule,L1,m,0.248,3.0,0.0,0.251,3.0,3.0,catalan,3.0,castellano,o,ingles,16.0,4.0,4.0,yes,yes,no,BAJO ELECTRICO,14,GUITARRA,14,VOZ,14,ABLETON LIVE,19.0,PERCUSION,21.0,,,EN EL EJERCICIO CON EL ÚLTIMO LENGUAJE ME ENCONTRABA MENTALMENTE CANSADO Y NO HE CONSEGUIDO PRESTAR LA MISMA ATENCIÓN QUE EN LOS PRIMEROS ,78.0,yes
74,2023-09-20_24h30.41.970,Unsyncopated1,s18,30.0,masculino,right,españa,castellano,Bachelor degree,no,no,B,1,what,L2,unsyncopated,s1,r2,74,Online_whatL2//c.cha.me0.1998.222.wav,fe,me,ño,sil,ra,su,si,sil2,cha,mi,sil1,['catch'],[1.224400000000287],[1.224400000000287],0.222,no_beat,1.002400000000287,1.002400000000287,"[""space""]",me,3,testConjL1Uns//dep_viol.r1.s1.0.wav,4.0,conjunction_un,unsyncopated,a,s1,no_rule,dep,L1,m,1.3979,1.0,1.0,0.2167,3.0,3.0,catalan,3.0,castellano,o,ingles,16.0,4.0,4.0,yes,yes,no,BAJO ELECTRICO,14,GUITARRA,14,VOZ,14,ABLETON LIVE,19.0,PERCUSION,21.0,,,EN EL EJERCICIO CON EL ÚLTIMO LENGUAJE ME ENCONTRABA MENTALMENTE CANSADO Y NO HE CONSEGUIDO PRESTAR LA MISMA ATENCIÓN QUE EN LOS PRIMEROS ,78.0,yes
75,2023-09-20_24h30.41.970,Unsyncopated1,s18,30.0,masculino,right,españa,castellano,Bachelor degree,no,no,B,1,what,L2,unsyncopated,s1,r1,75,Online_whatL2//c.cha.me3.1332.444.wav,go,to,me,sil,du,si,cha,sil2,ño,te,sil1,['miss'],,,0.444,no_beat,,,,me,3,testConjL1Uns//r1.s1.1.wav,4.0,conjunction_un,unsyncopated,a,s1,rule,rule,L1,z,0.3308,4.0,1.0,0.2668,3.0,3.0,catalan,3.0,castellano,o,ingles,16.0,4.0,4.0,yes,yes,no,BAJO ELECTRICO,14,GUITARRA,14,VOZ,14,ABLETON LIVE,19.0,PERCUSION,21.0,,,EN EL EJERCICIO CON EL ÚLTIMO LENGUAJE ME ENCONTRABA MENTALMENTE CANSADO Y NO HE CONSEGUIDO PRESTAR LA MISMA ATENCIÓN QUE EN LOS PRIMEROS ,78.0,yes
76,2023-09-20_24h30.41.970,Unsyncopated1,s18,30.0,masculino,right,españa,castellano,Bachelor degree,no,no,B,1,what,L2,unsyncopated,s2,r2,76,Online_whatL2//d.si.ñu1.none.none.wav,te,ño,bi,sil,fe,cha,to,sil1,ra,mi,sil2,['-'],,,none,none,,,,ñu,4,testConjL1Uns//dep_viol.r2.s2.0.wav,4.0,conjunction_un,unsyncopated,b,s2,no_rule,dep,L1,m,0.3352,2.0,1.0,0.4348,3.0,3.0,catalan,3.0,castellano,o,ingles,16.0,4.0,4.0,yes,yes,no,BAJO ELECTRICO,14,GUITARRA,14,VOZ,14,ABLETON LIVE,19.0,PERCUSION,21.0,,,EN EL EJERCICIO CON EL ÚLTIMO LENGUAJE ME ENCONTRABA MENTALMENTE CANSADO Y NO HE CONSEGUIDO PRESTAR LA MISMA ATENCIÓN QUE EN LOS PRIMEROS ,78.0,yes
77,2023-09-20_24h30.41.970,Unsyncopated1,s18,30.0,masculino,right,españa,castellano,Bachelor degree,no,no,B,1,what,L2,unsyncopated,s2,r2,77,Online_whatL2//d.si.ñu3.0.444.wav,si,ba,ñu,sil2,fe,te,cha,sil,ra,ño,sil1,['catch'],[1.182299999999941],[1.182299999999941],0.444,no_beat,0.7382999999999411,0.7382999999999411,"[""space""]",ñu,4,testConjL1Uns//cat_viol.r1.s1.0.wav,4.0,conjunction_un,unsyncopated,a,s1,no_rule,cat,L1,m,0.2832,2.0,1.0,0.4846,3.0,3.0,catalan,3.0,castellano,o,ingles,16.0,4.0,4.0,yes,yes,no,BAJO ELECTRICO,14,GUITARRA,14,VOZ,14,ABLETON LIVE,19.0,PERCUSION,21.0,,,EN EL EJERCICIO CON EL ÚLTIMO LENGUAJE ME ENCONTRABA MENTALMENTE CANSADO Y NO HE CONSEGUIDO PRESTAR LA MISMA ATENCIÓN QUE EN LOS PRIMEROS ,78.0,yes
78,2023-09-20_24h30.41.970,Unsyncopated1,s18,30.0,masculino,right,españa,castellano,Bachelor degree,no,no,B,1,what,L2,unsyncopated,s2,r1,78,Online_whatL2//d.si.ñu2.none.none.wav,mi,ño,ba,sil,go,te,cha,sil1,du,su,sil2,['-'],,,none,none,,,,ñu,4,testConjL1Uns//cat_viol.r1.s2.0.wav,4.0,conjunction_un,unsyncopated,a,s2,no_rule,cat,L1,m,0.3141,1.0,1.0,0.217,3.0,3.0,catalan,3.0,castellano,o,ingles,16.0,4.0,4.0,yes,yes,no,BAJO ELECTRICO,14,GUITARRA,14,VOZ,14,ABLETON LIVE,19.0,PERCUSION,21.0,,,EN EL EJERCICIO CON EL ÚLTIMO LENGUAJE ME ENCONTRABA MENTALMENTE CANSADO Y NO HE CONSEGUIDO PRESTAR LA MISMA ATENCIÓN QUE EN LOS PRIMEROS ,78.0,yes
79,2023-09-20_24h30.41.970,Unsyncopated1,s18,30.0,masculino,right,españa,castellano,Bachelor degree,no,no,B,1,what,L2,unsyncopated,s2,r1,79,Online_whatL2//d.si.ñu0.0.444.wav,si,mi,ñu,sil,go,ba,te,sil2,du,to,sil1,['catch'],[0.9457999999999629],[0.9457999999999629],0.444,no_beat,0.5017999999999629,0.5017999999999629,"[""space""]",ñu,4,testConjL1Uns//time_viol.r2.s2.0.wav,4.0,conjunction_un,unsyncopated,b,s2,no_rule,time,L1,z,0.1466,3.0,0.0,0.3689,3.0,3.0,catalan,3.0,castellano,o,ingles,16.0,4.0,4.0,yes,yes,no,BAJO ELECTRICO,14,GUITARRA,14,VOZ,14,ABLETON LIVE,19.0,PERCUSION,21.0,,,EN EL EJERCICIO CON EL ÚLTIMO LENGUAJE ME ENCONTRABA MENTALMENTE CANSADO Y NO HE CONSEGUIDO PRESTAR LA MISMA ATENCIÓN QUE EN LOS PRIMEROS ,78.0,yes
80,2023-09-20_24h30.41.970,Unsyncopated1,s18,30.0,masculino,right,españa,castellano,Bachelor degree,no,no,B,1,what,L2,unsyncopated,s2,r1,80,Online_whatL2//a.go.du11.1110.1998.wav,si,me,to,sil2,go,su,te,sil,du,mi,sil1,['catch'],[1.9408000000000811],[1.9408000000000811],1.11,no_beat,0.830800000000081,0.830800000000081,"[""space""]",go,1,testConjL1Uns//r1.s2.1.wav,4.0,conjunction_un,unsyncopated,a,s2,rule,rule,L1,m,0.0352,2.0,0.0,0.351,3.0,3.0,catalan,3.0,castellano,o,ingles,16.0,4.0,4.0,yes,yes,no,BAJO ELECTRICO,14,GUITARRA,14,VOZ,14,ABLETON LIVE,19.0,PERCUSION,21.0,,,EN EL EJERCICIO CON EL ÚLTIMO LENGUAJE ME ENCONTRABA MENTALMENTE CANSADO Y NO HE CONSEGUIDO PRESTAR LA MISMA ATENCIÓN QUE EN LOS PRIMEROS ,78.0,yes
81,2023-09-20_24h30.41.970,Unsyncopated1,s18,30.0,masculino,right,españa,castellano,Bachelor degree,no,no,B,1,what,L2,unsyncopated,s1,r1,81,Online_whatL2//a.go.du8.0.888.wav,go,su,mi,sil,du,ñu,ño,sil1,to,si,sil2,['catch'],[0.9465999999999894],[0.9465999999999894],0.0,beat,0.9465999999999894,0.9465999999999894,"[""space""]",go,1,testConjL1Uns//r2.s2.1.wav,4.0,conjunction_un,unsyncopated,b,s2,rule,rule,L1,m,0.0358,1.0,0.0,0.2873,3.0,3.0,catalan,3.0,castellano,o,ingles,16.0,4.0,4.0,yes,yes,no,BAJO ELECTRICO,14,GUITARRA,14,VOZ,14,ABLETON LIVE,19.0,PERCUSION,21.0,,,EN EL EJERCICIO CON EL ÚLTIMO LENGUAJE ME ENCONTRABA MENTALMENTE CANSADO Y NO HE CONSEGUIDO PRESTAR LA MISMA ATENCIÓN QUE EN LOS PRIMEROS ,78.0,yes
82,2023-09-20_24h30.41.970,Unsyncopated1,s18,30.0,masculino,right,españa,castellano,Bachelor degree,no,no,B,1,what,L2,unsyncopated,s1,r2,82,Online_whatL2//a.go.du9.none.none.wav,fe,ba,to,sil2,ra,mi,ño,sil,si,ñu,sil1,['-'],,,none,none,,,,go,1,testConjL1Uns//r2.s2.0.wav,4.0,conjunction_un,unsyncopated,b,s2,rule,rule,L1,z,0.0794,1.0,1.0,0.3509,3.0,3.0,catalan,3.0,castellano,o,ingles,16.0,4.0,4.0,yes,yes,no,BAJO ELECTRICO,14,GUITARRA,14,VOZ,14,ABLETON LIVE,19.0,PERCUSION,21.0,,,EN EL EJERCICIO CON EL ÚLTIMO LENGUAJE ME ENCONTRABA MENTALMENTE CANSADO Y NO HE CONSEGUIDO PRESTAR LA MISMA ATENCIÓN QUE EN LOS PRIMEROS ,78.0,yes
83,2023-09-20_24h30.41.970,Unsyncopated1,s18,30.0,masculino,right,españa,castellano,Bachelor degree,no,no,B,1,what,L2,unsyncopated,s1,r1,83,Online_whatL2//a.go.du10.0.888.wav,go,to,ño,sil,du,si,ba,sil2,ñu,me,sil1,['catch'],[0.5591000000001713],[0.5591000000001713],0.0,beat,0.5591000000001713,0.5591000000001713,"[""space""]",go,1,testConjL1Uns//dep_viol.r2.s1.0.wav,4.0,conjunction_un,unsyncopated,b,s1,no_rule,dep,L1,z,0.3353,3.0,0.0,0.3534,3.0,3.0,catalan,3.0,castellano,o,ingles,16.0,4.0,4.0,yes,yes,no,BAJO ELECTRICO,14,GUITARRA,14,VOZ,14,ABLETON LIVE,19.0,PERCUSION,21.0,,,EN EL EJERCICIO CON EL ÚLTIMO LENGUAJE ME ENCONTRABA MENTALMENTE CANSADO Y NO HE CONSEGUIDO PRESTAR LA MISMA ATENCIÓN QUE EN LOS PRIMEROS ,78.0,yes
84,2023-09-20_24h30.41.970,Unsyncopated1,s18,30.0,masculino,right,españa,castellano,Bachelor degree,no,no,B,1,what,L2,unsyncopated,s2,r2,84,Online_whatL2//a.go.du21.none.none.wav,ñu,ba,mi,sil,fe,cha,me,sil2,ra,bi,sil1,['-'],,,none,none,,,,go,1,testConjL1Uns//r1.s1.2.wav,4.0,conjunction_un,unsyncopated,a,s1,rule,rule,L1,z,0.0173,4.0,1.0,0.4182,3.0,3.0,catalan,3.0,castellano,o,ingles,16.0,4.0,4.0,yes,yes,no,BAJO ELECTRICO,14,GUITARRA,14,VOZ,14,ABLETON LIVE,19.0,PERCUSION,21.0,,,EN EL EJERCICIO CON EL ÚLTIMO LENGUAJE ME ENCONTRABA MENTALMENTE CANSADO Y NO HE CONSEGUIDO PRESTAR LA MISMA ATENCIÓN QUE EN LOS PRIMEROS ,78.0,yes
85,2023-09-20_24h30.41.970,Unsyncopated1,s18,30.0,masculino,right,españa,castellano,Bachelor degree,no,no,B,1,what,L2,unsyncopated,s2,r2,85,Online_whatL2//a.go.du20.none.none.wav,mi,ba,cha,sil,fe,to,ñu,sil1,ra,bi,sil2,['-'],,,none,none,,,,go,1,testConjL1Uns//dep_viol.r1.s2.0.wav,4.0,conjunction_un,unsyncopated,a,s2,no_rule,dep,L1,m,1.5378,5.0,1.0,0.1699,3.0,3.0,catalan,3.0,castellano,o,ingles,16.0,4.0,4.0,yes,yes,no,BAJO ELECTRICO,14,GUITARRA,14,VOZ,14,ABLETON LIVE,19.0,PERCUSION,21.0,,,EN EL EJERCICIO CON EL ÚLTIMO LENGUAJE ME ENCONTRABA MENTALMENTE CANSADO Y NO HE CONSEGUIDO PRESTAR LA MISMA ATENCIÓN QUE EN LOS PRIMEROS ,78.0,yes
86,2023-09-20_24h30.41.970,Unsyncopated1,s18,30.0,masculino,right,españa,castellano,Bachelor degree,no,no,B,1,what,L2,unsyncopated,s1,r2,86,Online_whatL2//a.go.du23.none.none.wav,fe,si,me,sil2,ra,mi,ba,sil,ño,ñu,sil1,['-'],,,none,none,,,,go,1,testConjL1Uns//time_viol.r1.s1.0.wav,4.0,conjunction_un,unsyncopated,a,s1,no_rule,time,L1,m,2.231,6.0,1.0,0.1372,3.0,3.0,catalan,3.0,castellano,o,ingles,16.0,4.0,4.0,yes,yes,no,BAJO ELECTRICO,14,GUITARRA,14,VOZ,14,ABLETON LIVE,19.0,PERCUSION,21.0,,,EN EL EJERCICIO CON EL ÚLTIMO LENGUAJE ME ENCONTRABA MENTALMENTE CANSADO Y NO HE CONSEGUIDO PRESTAR LA MISMA ATENCIÓN QUE EN LOS PRIMEROS ,78.0,yes
87,2023-09-20_24h30.41.970,Unsyncopated1,s18,30.0,masculino,right,españa,castellano,Bachelor degree,no,no,B,1,what,L2,unsyncopated,s2,r1,87,Online_whatL2//a.go.du22.888.1776.wav,me,ño,cha,sil,go,te,ñu,sil1,du,to,sil2,['catch'],[1.4990999999999985],[1.4990999999999985],0.888,beat,0.6110999999999985,0.6110999999999985,"[""space""]",go,1,testConjL1Uns//r2.s2.2.wav,4.0,conjunction_un,unsyncopated,b,s2,rule,rule,L1,m,0.149,1.0,0.0,0.9012,3.0,3.0,catalan,3.0,castellano,o,ingles,16.0,4.0,4.0,yes,yes,no,BAJO ELECTRICO,14,GUITARRA,14,VOZ,14,ABLETON LIVE,19.0,PERCUSION,21.0,,,EN EL EJERCICIO CON EL ÚLTIMO LENGUAJE ME ENCONTRABA MENTALMENTE CANSADO Y NO HE CONSEGUIDO PRESTAR LA MISMA ATENCIÓN QUE EN LOS PRIMEROS ,78.0,yes
88,2023-09-20_24h30.41.970,Unsyncopated1,s18,30.0,masculino,right,españa,castellano,Bachelor degree,no,no,B,1,what,L2,unsyncopated,s2,r2,88,Online_whatL2//d.si.ñu23.none.none.wav,me,to,ño,sil2,fe,cha,su,sil,ra,mi,sil1,['-'],,,none,none,,,,ñu,4,testConjL1Uns//time_viol.r2.s1.0.wav,4.0,conjunction_un,unsyncopated,b,s1,no_rule,time,L1,m,0.1868,5.0,1.0,0.148,3.0,3.0,catalan,3.0,castellano,o,ingles,16.0,4.0,4.0,yes,yes,no,BAJO ELECTRICO,14,GUITARRA,14,VOZ,14,ABLETON LIVE,19.0,PERCUSION,21.0,,,EN EL EJERCICIO CON EL ÚLTIMO LENGUAJE ME ENCONTRABA MENTALMENTE CANSADO Y NO HE CONSEGUIDO PRESTAR LA MISMA ATENCIÓN QUE EN LOS PRIMEROS ,78.0,yes
89,2023-09-20_24h30.41.970,Unsyncopated1,s18,30.0,masculino,right,españa,castellano,Bachelor degree,no,no,B,1,what,L2,unsyncopated,s1,r2,89,Online_whatL2//d.si.ñu22.444.1332.wav,fe,to,si,sil,ra,bi,ñu,sil2,ba,me,sil1,['catch'],[1.8957000000002608],[1.8957000000002608],1.332,no_beat,0.5637000000002608,0.5637000000002608,"[""space""]",ñu,4,testConjL1Uns//r2.s1.2.wav,4.0,conjunction_un,unsyncopated,b,s1,rule,rule,L1,m,0.1339,4.0,0.0,0.2326,3.0,3.0,catalan,3.0,castellano,o,ingles,16.0,4.0,4.0,yes,yes,no,BAJO ELECTRICO,14,GUITARRA,14,VOZ,14,ABLETON LIVE,19.0,PERCUSION,21.0,,,EN EL EJERCICIO CON EL ÚLTIMO LENGUAJE ME ENCONTRABA MENTALMENTE CANSADO Y NO HE CONSEGUIDO PRESTAR LA MISMA ATENCIÓN QUE EN LOS PRIMEROS ,78.0,yes
90,2023-09-20_24h30.41.970,Unsyncopated1,s18,30.0,masculino,right,españa,castellano,Bachelor degree,no,no,B,1,what,L2,unsyncopated,s1,r1,90,Online_whatL2//d.si.ñu21.none.none.wav,go,cha,ño,sil,du,su,bi,sil2,ba,te,sil1,['-'],,,none,none,,,,ñu,4,testConjL1Uns//time_viol.r1.s2.0.wav,4.0,conjunction_un,unsyncopated,a,s2,no_rule,time,L1,m,0.1831,2.0,1.0,0.7674,3.0,3.0,catalan,3.0,castellano,o,ingles,16.0,4.0,4.0,yes,yes,no,BAJO ELECTRICO,14,GUITARRA,14,VOZ,14,ABLETON LIVE,19.0,PERCUSION,21.0,,,EN EL EJERCICIO CON EL ÚLTIMO LENGUAJE ME ENCONTRABA MENTALMENTE CANSADO Y NO HE CONSEGUIDO PRESTAR LA MISMA ATENCIÓN QUE EN LOS PRIMEROS ,78.0,yes
91,2023-09-20_24h30.41.970,Unsyncopated1,s18,30.0,masculino,right,españa,castellano,Bachelor degree,no,no,B,1,what,L2,unsyncopated,s1,r2,91,Online_whatL2//d.si.ñu20.none.none.wav,fe,cha,me,sil2,ra,to,bi,sil,mi,ba,sil1,['-'],,,none,none,,,,ñu,4,testConjL1Uns//cat_viol.r2.s2.0.wav,4.0,conjunction_un,unsyncopated,b,s2,no_rule,cat,L1,z,0.1689,7.0,0.0,1.7201,3.0,3.0,catalan,3.0,castellano,o,ingles,16.0,4.0,4.0,yes,yes,no,BAJO ELECTRICO,14,GUITARRA,14,VOZ,14,ABLETON LIVE,19.0,PERCUSION,21.0,,,EN EL EJERCICIO CON EL ÚLTIMO LENGUAJE ME ENCONTRABA MENTALMENTE CANSADO Y NO HE CONSEGUIDO PRESTAR LA MISMA ATENCIÓN QUE EN LOS PRIMEROS ,78.0,yes
92,2023-09-20_24h30.41.970,Unsyncopated1,s18,30.0,masculino,right,españa,castellano,Bachelor degree,no,no,B,1,what,L2,unsyncopated,s2,r1,92,Online_whatL2//c.cha.me29.none.none.wav,ño,ba,mi,sil,go,ñu,bi,sil1,du,te,sil2,['-'],,,none,none,,,,me,3,testConjL1Uns//r2.s1.1.wav,4.0,conjunction_un,unsyncopated,b,s1,rule,rule,L1,m,0.2965,6.0,0.0,0.1526,3.0,3.0,catalan,3.0,castellano,o,ingles,16.0,4.0,4.0,yes,yes,no,BAJO ELECTRICO,14,GUITARRA,14,VOZ,14,ABLETON LIVE,19.0,PERCUSION,21.0,,,EN EL EJERCICIO CON EL ÚLTIMO LENGUAJE ME ENCONTRABA MENTALMENTE CANSADO Y NO HE CONSEGUIDO PRESTAR LA MISMA ATENCIÓN QUE EN LOS PRIMEROS ,78.0,yes
93,2023-09-20_24h30.41.970,Unsyncopated1,s18,30.0,masculino,right,españa,castellano,Bachelor degree,no,no,B,1,what,L2,unsyncopated,s2,r2,93,Online_whatL2//c.cha.me31.1110.222.wav,su,me,ño,sil,fe,cha,bi,sil1,ra,mi,sil2,['miss'],,,0.222,no_beat,,,,me,3,testConjL1Uns//r1.s1.0.wav,4.0,conjunction_un,unsyncopated,a,s1,rule,rule,L1,z,0.0181,5.0,1.0,0.2998,3.0,3.0,catalan,3.0,castellano,o,ingles,16.0,4.0,4.0,yes,yes,no,BAJO ELECTRICO,14,GUITARRA,14,VOZ,14,ABLETON LIVE,19.0,PERCUSION,21.0,,,EN EL EJERCICIO CON EL ÚLTIMO LENGUAJE ME ENCONTRABA MENTALMENTE CANSADO Y NO HE CONSEGUIDO PRESTAR LA MISMA ATENCIÓN QUE EN LOS PRIMEROS ,78.0,yes
94,2023-09-20_24h30.41.970,Unsyncopated1,s18,30.0,masculino,right,españa,castellano,Bachelor degree,no,no,B,1,what,L2,unsyncopated,s2,r2,94,Online_whatL2//c.cha.me28.0.1110.wav,cha,to,su,sil,fe,me,te,sil1,ra,bi,sil2,['miss'],,,1.11,no_beat,,,,me,3,testConjL1Uns//cat_viol.r2.s1.0.wav,4.0,conjunction_un,unsyncopated,b,s1,no_rule,cat,L1,m,0.1962,4.0,1.0,0.1017,3.0,3.0,catalan,3.0,castellano,o,ingles,16.0,4.0,4.0,yes,yes,no,BAJO ELECTRICO,14,GUITARRA,14,VOZ,14,ABLETON LIVE,19.0,PERCUSION,21.0,,,EN EL EJERCICIO CON EL ÚLTIMO LENGUAJE ME ENCONTRABA MENTALMENTE CANSADO Y NO HE CONSEGUIDO PRESTAR LA MISMA ATENCIÓN QUE EN LOS PRIMEROS ,78.0,yes
95,2023-09-20_24h30.41.970,Unsyncopated1,s18,30.0,masculino,right,españa,castellano,Bachelor degree,no,no,B,1,what,L2,unsyncopated,s1,r2,95,Online_whatL2//c.cha.me30.none.none.wav,fe,ba,su,sil,ra,mi,ño,sil1,ñu,to,sil2,['-'],,,none,none,,,,me,3,testConjL1Uns//r1.s2.2.wav,4.0,conjunction_un,unsyncopated,a,s2,rule,rule,L1,z,0.0165,3.0,1.0,0.1154,3.0,3.0,catalan,3.0,castellano,o,ingles,16.0,4.0,4.0,yes,yes,no,BAJO ELECTRICO,14,GUITARRA,14,VOZ,14,ABLETON LIVE,19.0,PERCUSION,21.0,,,EN EL EJERCICIO CON EL ÚLTIMO LENGUAJE ME ENCONTRABA MENTALMENTE CANSADO Y NO HE CONSEGUIDO PRESTAR LA MISMA ATENCIÓN QUE EN LOS PRIMEROS ,78.0,yes
96,2023-09-20_24h30.41.970,Unsyncopated1,s18,30.0,masculino,right,españa,castellano,Bachelor degree,no,no,B,1,what,L2,unsyncopated,s2,r2,96,Online_whatL2//b.fe.ra8.1110.1998.wav,si,me,bi,sil2,fe,te,ba,sil,ra,mi,sil1,['catch'],[2.607699999999795],[2.607699999999795],1.998,no_beat,0.6096999999997952,0.6096999999997952,"[""space""]",ra,2,,,,,,,,,,,,,,,3.0,3.0,catalan,3.0,castellano,o,ingles,16.0,4.0,4.0,yes,yes,no,BAJO ELECTRICO,14,GUITARRA,14,VOZ,14,ABLETON LIVE,19.0,PERCUSION,21.0,,,EN EL EJERCICIO CON EL ÚLTIMO LENGUAJE ME ENCONTRABA MENTALMENTE CANSADO Y NO HE CONSEGUIDO PRESTAR LA MISMA ATENCIÓN QUE EN LOS PRIMEROS ,78.0,yes
97,2023-09-20_24h30.41.970,Unsyncopated1,s18,30.0,masculino,right,españa,castellano,Bachelor degree,no,no,B,1,what,L2,unsyncopated,s1,r1,97,Online_whatL2//b.fe.ra9.none.none.wav,go,mi,bi,sil,du,to,te,sil1,ño,si,sil2,['-'],,,none,none,,,,ra,2,,,,,,,,,,,,,,,3.0,3.0,catalan,3.0,castellano,o,ingles,16.0,4.0,4.0,yes,yes,no,BAJO ELECTRICO,14,GUITARRA,14,VOZ,14,ABLETON LIVE,19.0,PERCUSION,21.0,,,EN EL EJERCICIO CON EL ÚLTIMO LENGUAJE ME ENCONTRABA MENTALMENTE CANSADO Y NO HE CONSEGUIDO PRESTAR LA MISMA ATENCIÓN QUE EN LOS PRIMEROS ,78.0,yes
98,2023-09-20_24h30.41.970,Unsyncopated1,s18,30.0,masculino,right,españa,castellano,Bachelor degree,no,no,B,1,what,L2,unsyncopated,s2,r2,98,Online_whatL2//b.fe.ra11.888.1776.wav,ño,me,su,sil,fe,bi,ñu,sil1,ra,ba,sil2,['miss'],,,1.776,beat,,,,ra,2,,,,,,,,,,,,,,,3.0,3.0,catalan,3.0,castellano,o,ingles,16.0,4.0,4.0,yes,yes,no,BAJO ELECTRICO,14,GUITARRA,14,VOZ,14,ABLETON LIVE,19.0,PERCUSION,21.0,,,EN EL EJERCICIO CON EL ÚLTIMO LENGUAJE ME ENCONTRABA MENTALMENTE CANSADO Y NO HE CONSEGUIDO PRESTAR LA MISMA ATENCIÓN QUE EN LOS PRIMEROS ,78.0,yes
99,2023-09-20_24h30.41.970,Unsyncopated1,s18,30.0,masculino,right,españa,castellano,Bachelor degree,no,no,B,1,what,L2,unsyncopated,s1,r1,99,Online_whatL2//b.fe.ra10.none.none.wav,go,ñu,ño,sil,du,cha,mi,sil2,to,si,sil1,['false alarm'],[0.5466999999998734],[0.5466999999998734],none,none,,,"[""space""]",ra,2,,,,,,,,,,,,,,,3.0,3.0,catalan,3.0,castellano,o,ingles,16.0,4.0,4.0,yes,yes,no,BAJO ELECTRICO,14,GUITARRA,14,VOZ,14,ABLETON LIVE,19.0,PERCUSION,21.0,,,EN EL EJERCICIO CON EL ÚLTIMO LENGUAJE ME ENCONTRABA MENTALMENTE CANSADO Y NO HE CONSEGUIDO PRESTAR LA MISMA ATENCIÓN QUE EN LOS PRIMEROS ,78.0,yes
100,2023-09-20_24h30.41.970,Unsyncopated1,s18,30.0,masculino,right,españa,castellano,Bachelor degree,no,no,B,1,what,L2,unsyncopated,s2,r1,100,Online_whatL2//a.go.du30.888.1776.wav,cha,me,te,sil,go,ba,mi,sil1,du,bi,sil2,['miss'],,,0.888,beat,,,,go,1,,,,,,,,,,,,,,,3.0,3.0,catalan,3.0,castellano,o,ingles,16.0,4.0,4.0,yes,yes,no,BAJO ELECTRICO,14,GUITARRA,14,VOZ,14,ABLETON LIVE,19.0,PERCUSION,21.0,,,EN EL EJERCICIO CON EL ÚLTIMO LENGUAJE ME ENCONTRABA MENTALMENTE CANSADO Y NO HE CONSEGUIDO PRESTAR LA MISMA ATENCIÓN QUE EN LOS PRIMEROS ,78.0,yes
101,2023-09-20_24h30.41.970,Unsyncopated1,s18,30.0,masculino,right,españa,castellano,Bachelor degree,no,no,B,1,what,L2,unsyncopated,s2,r2,101,Online_whatL2//a.go.du31.none.none.wav,cha,su,mi,sil,fe,ño,si,sil2,ra,te,sil1,['-'],,,none,none,,,,go,1,,,,,,,,,,,,,,,3.0,3.0,catalan,3.0,castellano,o,ingles,16.0,4.0,4.0,yes,yes,no,BAJO ELECTRICO,14,GUITARRA,14,VOZ,14,ABLETON LIVE,19.0,PERCUSION,21.0,,,EN EL EJERCICIO CON EL ÚLTIMO LENGUAJE ME ENCONTRABA MENTALMENTE CANSADO Y NO HE CONSEGUIDO PRESTAR LA MISMA ATENCIÓN QUE EN LOS PRIMEROS ,78.0,yes
102,2023-09-20_24h30.41.970,Unsyncopated1,s18,30.0,masculino,right,españa,castellano,Bachelor degree,no,no,B,1,what,L2,unsyncopated,s1,r2,102,Online_whatL2//a.go.du29.none.none.wav,fe,ñu,mi,sil,ra,cha,su,sil2,te,bi,sil1,['-'],,,none,none,,,,go,1,,,,,,,,,,,,,,,3.0,3.0,catalan,3.0,castellano,o,ingles,16.0,4.0,4.0,yes,yes,no,BAJO ELECTRICO,14,GUITARRA,14,VOZ,14,ABLETON LIVE,19.0,PERCUSION,21.0,,,EN EL EJERCICIO CON EL ÚLTIMO LENGUAJE ME ENCONTRABA MENTALMENTE CANSADO Y NO HE CONSEGUIDO PRESTAR LA MISMA ATENCIÓN QUE EN LOS PRIMEROS ,78.0,yes
103,2023-09-20_24h30.41.970,Unsyncopated1,s18,30.0,masculino,right,españa,castellano,Bachelor degree,no,no,B,1,what,L2,unsyncopated,s1,r1,103,Online_whatL2//a.go.du28.0.888.wav,go,ñu,mi,sil,du,ba,ño,sil1,me,su,sil2,['catch'],[0.5125000000000455],[0.5125000000000455],0.0,beat,0.5125000000000455,0.5125000000000455,"[""space""]",go,1,,,,,,,,,,,,,,,3.0,3.0,catalan,3.0,castellano,o,ingles,16.0,4.0,4.0,yes,yes,no,BAJO ELECTRICO,14,GUITARRA,14,VOZ,14,ABLETON LIVE,19.0,PERCUSION,21.0,,,EN EL EJERCICIO CON EL ÚLTIMO LENGUAJE ME ENCONTRABA MENTALMENTE CANSADO Y NO HE CONSEGUIDO PRESTAR LA MISMA ATENCIÓN QUE EN LOS PRIMEROS ,78.0,yes
104,2023-09-20_24h30.41.970,Unsyncopated1,s18,30.0,masculino,right,españa,castellano,Bachelor degree,no,no,B,1,what,L2,unsyncopated,s2,r2,104,Online_whatL2//b.fe.ra29.1110.1998.wav,ñu,si,cha,sil2,fe,ba,ño,sil,ra,me,sil1,['catch_delay'],[0.6975000000000511],[0.6975000000000511],1.998,no_beat,0.6975000000000511,0.6975000000000511,,ra,2,,,,,,,,,,,,,,,3.0,3.0,catalan,3.0,castellano,o,ingles,16.0,4.0,4.0,yes,yes,no,BAJO ELECTRICO,14,GUITARRA,14,VOZ,14,ABLETON LIVE,19.0,PERCUSION,21.0,,,EN EL EJERCICIO CON EL ÚLTIMO LENGUAJE ME ENCONTRABA MENTALMENTE CANSADO Y NO HE CONSEGUIDO PRESTAR LA MISMA ATENCIÓN QUE EN LOS PRIMEROS ,78.0,yes
105,2023-09-20_24h30.41.970,Unsyncopated1,s18,30.0,masculino,right,españa,castellano,Bachelor degree,no,no,B,1,what,L2,unsyncopated,s1,r2,105,Online_whatL2//b.fe.ra28.0.888.wav,fe,me,mi,sil,ra,cha,bi,sil2,su,to,sil1,['catch'],"[0.03150000000005093, 1.6985999999999422]",[1.6985999999999422],0.888,beat,0.8105999999999421,0.8105999999999421,"[""space"",""space""]",ra,2,,,,,,,,,,,,,,,3.0,3.0,catalan,3.0,castellano,o,ingles,16.0,4.0,4.0,yes,yes,no,BAJO ELECTRICO,14,GUITARRA,14,VOZ,14,ABLETON LIVE,19.0,PERCUSION,21.0,,,EN EL EJERCICIO CON EL ÚLTIMO LENGUAJE ME ENCONTRABA MENTALMENTE CANSADO Y NO HE CONSEGUIDO PRESTAR LA MISMA ATENCIÓN QUE EN LOS PRIMEROS ,78.0,yes
106,2023-09-20_24h30.41.970,Unsyncopated1,s18,30.0,masculino,right,españa,castellano,Bachelor degree,no,no,B,1,what,L2,unsyncopated,s1,r2,106,Online_whatL2//b.fe.ra31.0.888.wav,fe,bi,to,sil,ra,ño,me,sil1,su,te,sil2,['catch'],[1.576300000000174],[1.576300000000174],0.888,beat,0.6883000000001739,0.6883000000001739,"[""space""]",ra,2,,,,,,,,,,,,,,,3.0,3.0,catalan,3.0,castellano,o,ingles,16.0,4.0,4.0,yes,yes,no,BAJO ELECTRICO,14,GUITARRA,14,VOZ,14,ABLETON LIVE,19.0,PERCUSION,21.0,,,EN EL EJERCICIO CON EL ÚLTIMO LENGUAJE ME ENCONTRABA MENTALMENTE CANSADO Y NO HE CONSEGUIDO PRESTAR LA MISMA ATENCIÓN QUE EN LOS PRIMEROS ,78.0,yes
107,2023-09-20_24h30.41.970,Unsyncopated1,s18,30.0,masculino,right,españa,castellano,Bachelor degree,no,no,B,1,what,L2,unsyncopated,s2,r1,107,Online_whatL2//b.fe.ra30.none.none.wav,si,cha,bi,sil,go,ba,to,sil1,du,me,sil2,['-'],,,none,none,,,,ra,2,,,,,,,,,,,,,,,3.0,3.0,catalan,3.0,castellano,o,ingles,16.0,4.0,4.0,yes,yes,no,BAJO ELECTRICO,14,GUITARRA,14,VOZ,14,ABLETON LIVE,19.0,PERCUSION,21.0,,,EN EL EJERCICIO CON EL ÚLTIMO LENGUAJE ME ENCONTRABA MENTALMENTE CANSADO Y NO HE CONSEGUIDO PRESTAR LA MISMA ATENCIÓN QUE EN LOS PRIMEROS ,78.0,yes
108,2023-09-20_24h30.41.970,Unsyncopated1,s18,30.0,masculino,right,españa,castellano,Bachelor degree,no,no,B,1,what,L2,unsyncopated,s2,r1,108,Online_whatL2//d.si.ñu17.0.444.wav,si,me,ñu,sil,go,mi,cha,sil2,du,bi,sil1,['miss'],,,0.444,no_beat,,,,ñu,4,,,,,,,,,,,,,,,3.0,3.0,catalan,3.0,castellano,o,ingles,16.0,4.0,4.0,yes,yes,no,BAJO ELECTRICO,14,GUITARRA,14,VOZ,14,ABLETON LIVE,19.0,PERCUSION,21.0,,,EN EL EJERCICIO CON EL ÚLTIMO LENGUAJE ME ENCONTRABA MENTALMENTE CANSADO Y NO HE CONSEGUIDO PRESTAR LA MISMA ATENCIÓN QUE EN LOS PRIMEROS ,78.0,yes
109,2023-09-20_24h30.41.970,Unsyncopated1,s18,30.0,masculino,right,españa,castellano,Bachelor degree,no,no,B,1,what,L2,unsyncopated,s1,r1,109,Online_whatL2//d.si.ñu16.222.1332.wav,go,si,ba,sil2,du,ñu,te,sil,me,ño,sil1,['miss'],,,1.332,no_beat,,,,ñu,4,,,,,,,,,,,,,,,3.0,3.0,catalan,3.0,castellano,o,ingles,16.0,4.0,4.0,yes,yes,no,BAJO ELECTRICO,14,GUITARRA,14,VOZ,14,ABLETON LIVE,19.0,PERCUSION,21.0,,,EN EL EJERCICIO CON EL ÚLTIMO LENGUAJE ME ENCONTRABA MENTALMENTE CANSADO Y NO HE CONSEGUIDO PRESTAR LA MISMA ATENCIÓN QUE EN LOS PRIMEROS ,78.0,yes
110,2023-09-20_24h30.41.970,Unsyncopated1,s18,30.0,masculino,right,españa,castellano,Bachelor degree,no,no,B,1,what,L2,unsyncopated,s2,r1,110,Online_whatL2//d.si.ñu18.222.444.wav,su,si,ñu,sil,go,te,me,sil2,du,ba,sil1,['miss'],,,0.444,no_beat,,,,ñu,4,,,,,,,,,,,,,,,3.0,3.0,catalan,3.0,castellano,o,ingles,16.0,4.0,4.0,yes,yes,no,BAJO ELECTRICO,14,GUITARRA,14,VOZ,14,ABLETON LIVE,19.0,PERCUSION,21.0,,,EN EL EJERCICIO CON EL ÚLTIMO LENGUAJE ME ENCONTRABA MENTALMENTE CANSADO Y NO HE CONSEGUIDO PRESTAR LA MISMA ATENCIÓN QUE EN LOS PRIMEROS ,78.0,yes
111,2023-09-20_24h30.41.970,Unsyncopated1,s18,30.0,masculino,right,españa,castellano,Bachelor degree,no,no,B,1,what,L2,unsyncopated,s2,r1,111,Online_whatL2//d.si.ñu19.1110.0.wav,ñu,mi,me,sil,go,si,su,sil2,du,cha,sil1,['catch'],[1.0824999999999818],[1.0824999999999818],0.0,beat,1.0824999999999818,1.0824999999999818,"[""space""]",ñu,4,,,,,,,,,,,,,,,3.0,3.0,catalan,3.0,castellano,o,ingles,16.0,4.0,4.0,yes,yes,no,BAJO ELECTRICO,14,GUITARRA,14,VOZ,14,ABLETON LIVE,19.0,PERCUSION,21.0,,,EN EL EJERCICIO CON EL ÚLTIMO LENGUAJE ME ENCONTRABA MENTALMENTE CANSADO Y NO HE CONSEGUIDO PRESTAR LA MISMA ATENCIÓN QUE EN LOS PRIMEROS ,78.0,yes
112,2023-09-20_24h30.41.970,Unsyncopated1,s18,30.0,masculino,right,españa,castellano,Bachelor degree,no,no,B,1,what,L2,unsyncopated,s1,r2,112,Online_whatL2//d.si.ñu4.1776.1110.wav,fe,su,to,sil,ra,ñu,cha,sil1,si,me,sil2,['miss'],,,1.11,no_beat,,,,ñu,4,,,,,,,,,,,,,,,3.0,3.0,catalan,3.0,castellano,o,ingles,16.0,4.0,4.0,yes,yes,no,BAJO ELECTRICO,14,GUITARRA,14,VOZ,14,ABLETON LIVE,19.0,PERCUSION,21.0,,,EN EL EJERCICIO CON EL ÚLTIMO LENGUAJE ME ENCONTRABA MENTALMENTE CANSADO Y NO HE CONSEGUIDO PRESTAR LA MISMA ATENCIÓN QUE EN LOS PRIMEROS ,78.0,yes
113,2023-09-20_24h30.41.970,Unsyncopated1,s18,30.0,masculino,right,españa,castellano,Bachelor degree,no,no,B,1,what,L2,unsyncopated,s2,r2,113,Online_whatL2//d.si.ñu7.1332.0.wav,ñu,to,me,sil,fe,su,si,sil1,ra,bi,sil2,['catch'],[1.8494000000000597],[1.8494000000000597],0.0,beat,,1.84940000000006,"[""space""]",ñu,4,,,,,,,,,,,,,,,3.0,3.0,catalan,3.0,castellano,o,ingles,16.0,4.0,4.0,yes,yes,no,BAJO ELECTRICO,14,GUITARRA,14,VOZ,14,ABLETON LIVE,19.0,PERCUSION,21.0,,,EN EL EJERCICIO CON EL ÚLTIMO LENGUAJE ME ENCONTRABA MENTALMENTE CANSADO Y NO HE CONSEGUIDO PRESTAR LA MISMA ATENCIÓN QUE EN LOS PRIMEROS ,78.0,yes
114,2023-09-20_24h30.41.970,Unsyncopated1,s18,30.0,masculino,right,españa,castellano,Bachelor degree,no,no,B,1,what,L2,unsyncopated,s1,r1,114,Online_whatL2//d.si.ñu5.none.none.wav,go,to,me,sil2,du,mi,ño,sil,ba,su,sil1,['-'],,,none,none,,,,ñu,4,,,,,,,,,,,,,,,3.0,3.0,catalan,3.0,castellano,o,ingles,16.0,4.0,4.0,yes,yes,no,BAJO ELECTRICO,14,GUITARRA,14,VOZ,14,ABLETON LIVE,19.0,PERCUSION,21.0,,,EN EL EJERCICIO CON EL ÚLTIMO LENGUAJE ME ENCONTRABA MENTALMENTE CANSADO Y NO HE CONSEGUIDO PRESTAR LA MISMA ATENCIÓN QUE EN LOS PRIMEROS ,78.0,yes
115,2023-09-20_24h30.41.970,Unsyncopated1,s18,30.0,masculino,right,españa,castellano,Bachelor degree,no,no,B,1,what,L2,unsyncopated,s2,r1,115,Online_whatL2//d.si.ñu6.none.none.wav,te,me,mi,sil2,go,su,to,sil,du,bi,sil1,['-'],,,none,none,,,,ñu,4,,,,,,,,,,,,,,,3.0,3.0,catalan,3.0,castellano,o,ingles,16.0,4.0,4.0,yes,yes,no,BAJO ELECTRICO,14,GUITARRA,14,VOZ,14,ABLETON LIVE,19.0,PERCUSION,21.0,,,EN EL EJERCICIO CON EL ÚLTIMO LENGUAJE ME ENCONTRABA MENTALMENTE CANSADO Y NO HE CONSEGUIDO PRESTAR LA MISMA ATENCIÓN QUE EN LOS PRIMEROS ,78.0,yes
116,2023-09-20_24h30.41.970,Unsyncopated1,s18,30.0,masculino,right,españa,castellano,Bachelor degree,no,no,B,1,what,L2,unsyncopated,s1,r1,116,Online_whatL2//b.fe.ra18.none.none.wav,go,si,te,sil,du,to,ño,sil2,me,bi,sil1,['-'],,,none,none,,,,ra,2,,,,,,,,,,,,,,,3.0,3.0,catalan,3.0,castellano,o,ingles,16.0,4.0,4.0,yes,yes,no,BAJO ELECTRICO,14,GUITARRA,14,VOZ,14,ABLETON LIVE,19.0,PERCUSION,21.0,,,EN EL EJERCICIO CON EL ÚLTIMO LENGUAJE ME ENCONTRABA MENTALMENTE CANSADO Y NO HE CONSEGUIDO PRESTAR LA MISMA ATENCIÓN QUE EN LOS PRIMEROS ,78.0,yes
117,2023-09-20_24h30.41.970,Unsyncopated1,s18,30.0,masculino,right,españa,castellano,Bachelor degree,no,no,B,1,what,L2,unsyncopated,s1,r2,117,Online_whatL2//b.fe.ra16.0.1110.wav,fe,te,su,sil2,ra,si,ñu,sil,cha,mi,sil1,['catch'],[1.7453999999997905],[1.7453999999997905],1.11,no_beat,0.6353999999997904,0.6353999999997904,"[""space""]",ra,2,,,,,,,,,,,,,,,3.0,3.0,catalan,3.0,castellano,o,ingles,16.0,4.0,4.0,yes,yes,no,BAJO ELECTRICO,14,GUITARRA,14,VOZ,14,ABLETON LIVE,19.0,PERCUSION,21.0,,,EN EL EJERCICIO CON EL ÚLTIMO LENGUAJE ME ENCONTRABA MENTALMENTE CANSADO Y NO HE CONSEGUIDO PRESTAR LA MISMA ATENCIÓN QUE EN LOS PRIMEROS ,78.0,yes
118,2023-09-20_24h30.41.970,Unsyncopated1,s18,30.0,masculino,right,españa,castellano,Bachelor degree,no,no,B,1,what,L2,unsyncopated,s2,r1,118,Online_whatL2//b.fe.ra17.none.none.wav,ñu,su,to,sil,go,te,bi,sil2,du,si,sil1,['-'],,,none,none,,,,ra,2,,,,,,,,,,,,,,,3.0,3.0,catalan,3.0,castellano,o,ingles,16.0,4.0,4.0,yes,yes,no,BAJO ELECTRICO,14,GUITARRA,14,VOZ,14,ABLETON LIVE,19.0,PERCUSION,21.0,,,EN EL EJERCICIO CON EL ÚLTIMO LENGUAJE ME ENCONTRABA MENTALMENTE CANSADO Y NO HE CONSEGUIDO PRESTAR LA MISMA ATENCIÓN QUE EN LOS PRIMEROS ,78.0,yes
119,2023-09-20_24h30.41.970,Unsyncopated1,s18,30.0,masculino,right,españa,castellano,Bachelor degree,no,no,B,1,what,L2,unsyncopated,s1,r2,119,Online_whatL2//b.fe.ra19.0.888.wav,fe,si,ñu,sil,ra,me,su,sil2,cha,to,sil1,['catch'],[1.4985999999998967],[1.4985999999998967],0.888,beat,0.6105999999998967,0.6105999999998967,"[""space""]",ra,2,,,,,,,,,,,,,,,3.0,3.0,catalan,3.0,castellano,o,ingles,16.0,4.0,4.0,yes,yes,no,BAJO ELECTRICO,14,GUITARRA,14,VOZ,14,ABLETON LIVE,19.0,PERCUSION,21.0,,,EN EL EJERCICIO CON EL ÚLTIMO LENGUAJE ME ENCONTRABA MENTALMENTE CANSADO Y NO HE CONSEGUIDO PRESTAR LA MISMA ATENCIÓN QUE EN LOS PRIMEROS ,78.0,yes
120,2023-09-20_24h30.41.970,Unsyncopated1,s18,30.0,masculino,right,españa,castellano,Bachelor degree,no,no,B,1,what,L2,unsyncopated,s1,r2,120,Online_whatL2//b.fe.ra1.0.1110.wav,fe,bi,ño,sil2,ra,ba,cha,sil,ñu,to,sil1,['catch'],[1.6255000000001019],[1.6255000000001019],1.11,no_beat,0.5155000000001018,0.5155000000001018,"[""space""]",ra,2,,,,,,,,,,,,,,,3.0,3.0,catalan,3.0,castellano,o,ingles,16.0,4.0,4.0,yes,yes,no,BAJO ELECTRICO,14,GUITARRA,14,VOZ,14,ABLETON LIVE,19.0,PERCUSION,21.0,,,EN EL EJERCICIO CON EL ÚLTIMO LENGUAJE ME ENCONTRABA MENTALMENTE CANSADO Y NO HE CONSEGUIDO PRESTAR LA MISMA ATENCIÓN QUE EN LOS PRIMEROS ,78.0,yes
121,2023-09-20_24h30.41.970,Unsyncopated1,s18,30.0,masculino,right,españa,castellano,Bachelor degree,no,no,B,1,what,L2,unsyncopated,s2,r2,121,Online_whatL2//b.fe.ra3.1110.1998.wav,si,ño,me,sil2,fe,ñu,cha,sil,ra,bi,sil1,['catch'],[2.5627999999999247],[2.5627999999999247],1.998,no_beat,0.5647999999999247,0.5647999999999247,"[""space""]",ra,2,,,,,,,,,,,,,,,3.0,3.0,catalan,3.0,castellano,o,ingles,16.0,4.0,4.0,yes,yes,no,BAJO ELECTRICO,14,GUITARRA,14,VOZ,14,ABLETON LIVE,19.0,PERCUSION,21.0,,,EN EL EJERCICIO CON EL ÚLTIMO LENGUAJE ME ENCONTRABA MENTALMENTE CANSADO Y NO HE CONSEGUIDO PRESTAR LA MISMA ATENCIÓN QUE EN LOS PRIMEROS ,78.0,yes
122,2023-09-20_24h30.41.970,Unsyncopated1,s18,30.0,masculino,right,españa,castellano,Bachelor degree,no,no,B,1,what,L2,unsyncopated,s1,r1,122,Online_whatL2//b.fe.ra2.none.none.wav,go,cha,mi,sil2,du,to,bi,sil,ño,ba,sil1,['-'],,,none,none,,,,ra,2,,,,,,,,,,,,,,,3.0,3.0,catalan,3.0,castellano,o,ingles,16.0,4.0,4.0,yes,yes,no,BAJO ELECTRICO,14,GUITARRA,14,VOZ,14,ABLETON LIVE,19.0,PERCUSION,21.0,,,EN EL EJERCICIO CON EL ÚLTIMO LENGUAJE ME ENCONTRABA MENTALMENTE CANSADO Y NO HE CONSEGUIDO PRESTAR LA MISMA ATENCIÓN QUE EN LOS PRIMEROS ,78.0,yes
123,2023-09-20_24h30.41.970,Unsyncopated1,s18,30.0,masculino,right,españa,castellano,Bachelor degree,no,no,B,1,what,L2,unsyncopated,s1,r2,123,Online_whatL2//b.fe.ra0.0.1110.wav,fe,cha,ño,sil2,ra,te,me,sil,to,ñu,sil1,['catch'],[1.7962999999999738],[1.7962999999999738],1.11,no_beat,0.6862999999999737,0.6862999999999737,"[""space""]",ra,2,,,,,,,,,,,,,,,3.0,3.0,catalan,3.0,castellano,o,ingles,16.0,4.0,4.0,yes,yes,no,BAJO ELECTRICO,14,GUITARRA,14,VOZ,14,ABLETON LIVE,19.0,PERCUSION,21.0,,,EN EL EJERCICIO CON EL ÚLTIMO LENGUAJE ME ENCONTRABA MENTALMENTE CANSADO Y NO HE CONSEGUIDO PRESTAR LA MISMA ATENCIÓN QUE EN LOS PRIMEROS ,78.0,yes
124,2023-09-20_24h30.41.970,Unsyncopated1,s18,30.0,masculino,right,españa,castellano,Bachelor degree,no,no,B,1,what,L2,unsyncopated,s1,r1,124,Online_whatL2//b.fe.ra14.none.none.wav,go,bi,su,sil,du,me,te,sil2,to,cha,sil1,['-'],,,none,none,,,,ra,2,,,,,,,,,,,,,,,3.0,3.0,catalan,3.0,castellano,o,ingles,16.0,4.0,4.0,yes,yes,no,BAJO ELECTRICO,14,GUITARRA,14,VOZ,14,ABLETON LIVE,19.0,PERCUSION,21.0,,,EN EL EJERCICIO CON EL ÚLTIMO LENGUAJE ME ENCONTRABA MENTALMENTE CANSADO Y NO HE CONSEGUIDO PRESTAR LA MISMA ATENCIÓN QUE EN LOS PRIMEROS ,78.0,yes
125,2023-09-20_24h30.41.970,Unsyncopated1,s18,30.0,masculino,right,españa,castellano,Bachelor degree,no,no,B,1,what,L2,unsyncopated,s2,r1,125,Online_whatL2//b.fe.ra12.none.none.wav,te,mi,ñu,sil,go,bi,to,sil2,du,cha,sil1,['-'],,,none,none,,,,ra,2,,,,,,,,,,,,,,,3.0,3.0,catalan,3.0,castellano,o,ingles,16.0,4.0,4.0,yes,yes,no,BAJO ELECTRICO,14,GUITARRA,14,VOZ,14,ABLETON LIVE,19.0,PERCUSION,21.0,,,EN EL EJERCICIO CON EL ÚLTIMO LENGUAJE ME ENCONTRABA MENTALMENTE CANSADO Y NO HE CONSEGUIDO PRESTAR LA MISMA ATENCIÓN QUE EN LOS PRIMEROS ,78.0,yes
126,2023-09-20_24h30.41.970,Unsyncopated1,s18,30.0,masculino,right,españa,castellano,Bachelor degree,no,no,B,1,what,L2,unsyncopated,s1,r1,126,Online_whatL2//b.fe.ra13.none.none.wav,go,mi,te,sil2,du,to,si,sil,ñu,me,sil1,['-'],,,none,none,,,,ra,2,,,,,,,,,,,,,,,3.0,3.0,catalan,3.0,castellano,o,ingles,16.0,4.0,4.0,yes,yes,no,BAJO ELECTRICO,14,GUITARRA,14,VOZ,14,ABLETON LIVE,19.0,PERCUSION,21.0,,,EN EL EJERCICIO CON EL ÚLTIMO LENGUAJE ME ENCONTRABA MENTALMENTE CANSADO Y NO HE CONSEGUIDO PRESTAR LA MISMA ATENCIÓN QUE EN LOS PRIMEROS ,78.0,yes
127,2023-09-20_24h30.41.970,Unsyncopated1,s18,30.0,masculino,right,españa,castellano,Bachelor degree,no,no,B,1,what,L2,unsyncopated,s2,r2,127,Online_whatL2//b.fe.ra15.888.1998.wav,to,ñu,cha,sil,fe,me,ba,sil2,ra,si,sil1,['miss'],,,1.998,no_beat,,,,ra,2,,,,,,,,,,,,,,,3.0,3.0,catalan,3.0,castellano,o,ingles,16.0,4.0,4.0,yes,yes,no,BAJO ELECTRICO,14,GUITARRA,14,VOZ,14,ABLETON LIVE,19.0,PERCUSION,21.0,,,EN EL EJERCICIO CON EL ÚLTIMO LENGUAJE ME ENCONTRABA MENTALMENTE CANSADO Y NO HE CONSEGUIDO PRESTAR LA MISMA ATENCIÓN QUE EN LOS PRIMEROS ,78.0,yes
128,2023-09-20_24h30.41.970,Unsyncopated1,s18,30.0,masculino,right,españa,castellano,Bachelor degree,no,no,B,2,conjunction_syn,L4,syncopated,s2,r1,0,Online_conjL4_syn//d.pe.po30.444.0.wav,po,ru,pe,zi,sil,bu,ci,lo,sil1,re,sil2,['catch'],[1.2437000000002172],[1.2437000000002172],0.0,beat,,1.2437000000002172,"[""space""]",po,4,,,,,,,,,,,,,,,3.0,3.0,catalan,3.0,castellano,o,ingles,16.0,4.0,4.0,yes,yes,no,BAJO ELECTRICO,14,GUITARRA,14,VOZ,14,ABLETON LIVE,19.0,PERCUSION,21.0,,,EN EL EJERCICIO CON EL ÚLTIMO LENGUAJE ME ENCONTRABA MENTALMENTE CANSADO Y NO HE CONSEGUIDO PRESTAR LA MISMA ATENCIÓN QUE EN LOS PRIMEROS ,78.0,yes
129,2023-09-20_24h30.41.970,Unsyncopated1,s18,30.0,masculino,right,españa,castellano,Bachelor degree,no,no,B,2,conjunction_syn,L4,syncopated,s1,r2,1,Online_conjL4_syn//d.pe.po28.none.none.wav,ja,ru,ña,nu,sil,re,bu,da,sil1,ci,sil2,['-'],,,none,none,,,,po,4,,,,,,,,,,,,,,,3.0,3.0,catalan,3.0,castellano,o,ingles,16.0,4.0,4.0,yes,yes,no,BAJO ELECTRICO,14,GUITARRA,14,VOZ,14,ABLETON LIVE,19.0,PERCUSION,21.0,,,EN EL EJERCICIO CON EL ÚLTIMO LENGUAJE ME ENCONTRABA MENTALMENTE CANSADO Y NO HE CONSEGUIDO PRESTAR LA MISMA ATENCIÓN QUE EN LOS PRIMEROS ,78.0,yes
130,2023-09-20_24h30.41.970,Unsyncopated1,s18,30.0,masculino,right,españa,castellano,Bachelor degree,no,no,B,2,conjunction_syn,L4,syncopated,s2,r2,2,Online_conjL4_syn//d.pe.po29.none.none.wav,da,ña,ru,ja,sil,ñi,de,nu,sil1,ci,sil2,['-'],,,none,none,,,,po,4,,,,,,,,,,,,,,,3.0,3.0,catalan,3.0,castellano,o,ingles,16.0,4.0,4.0,yes,yes,no,BAJO ELECTRICO,14,GUITARRA,14,VOZ,14,ABLETON LIVE,19.0,PERCUSION,21.0,,,EN EL EJERCICIO CON EL ÚLTIMO LENGUAJE ME ENCONTRABA MENTALMENTE CANSADO Y NO HE CONSEGUIDO PRESTAR LA MISMA ATENCIÓN QUE EN LOS PRIMEROS ,78.0,yes
131,2023-09-20_24h30.41.970,Unsyncopated1,s18,30.0,masculino,right,españa,castellano,Bachelor degree,no,no,B,2,conjunction_syn,L4,syncopated,s1,r2,3,Online_conjL4_syn//d.pe.po31.444.1332.wav,ja,re,pe,nu,sil,de,po,ci,sil1,bo,sil2,['catch'],[1.8275999999998476],[1.8275999999998476],1.332,no_beat,0.4955999999998475,0.4955999999998475,"[""space""]",po,4,,,,,,,,,,,,,,,3.0,3.0,catalan,3.0,castellano,o,ingles,16.0,4.0,4.0,yes,yes,no,BAJO ELECTRICO,14,GUITARRA,14,VOZ,14,ABLETON LIVE,19.0,PERCUSION,21.0,,,EN EL EJERCICIO CON EL ÚLTIMO LENGUAJE ME ENCONTRABA MENTALMENTE CANSADO Y NO HE CONSEGUIDO PRESTAR LA MISMA ATENCIÓN QUE EN LOS PRIMEROS ,78.0,yes
132,2023-09-20_24h30.41.970,Unsyncopated1,s18,30.0,masculino,right,españa,castellano,Bachelor degree,no,no,B,2,conjunction_syn,L4,syncopated,s1,r2,4,Online_conjL4_syn//b.ja.nu4.0.666.wav,ja,re,ru,nu,sil,po,pe,da,sil1,ñi,sil2,['miss'],,,0.666,no_beat,,,,nu,2,,,,,,,,,,,,,,,3.0,3.0,catalan,3.0,castellano,o,ingles,16.0,4.0,4.0,yes,yes,no,BAJO ELECTRICO,14,GUITARRA,14,VOZ,14,ABLETON LIVE,19.0,PERCUSION,21.0,,,EN EL EJERCICIO CON EL ÚLTIMO LENGUAJE ME ENCONTRABA MENTALMENTE CANSADO Y NO HE CONSEGUIDO PRESTAR LA MISMA ATENCIÓN QUE EN LOS PRIMEROS ,78.0,yes
133,2023-09-20_24h30.41.970,Unsyncopated1,s18,30.0,masculino,right,españa,castellano,Bachelor degree,no,no,B,2,conjunction_syn,L4,syncopated,s1,r1,5,Online_conjL4_syn//b.ja.nu5.none.none.wav,zi,bo,pe,lo,sil,po,re,da,sil1,ñi,sil2,['false alarm'],[0.40859999999997854],[0.40859999999997854],none,none,,,"[""space""]",nu,2,,,,,,,,,,,,,,,3.0,3.0,catalan,3.0,castellano,o,ingles,16.0,4.0,4.0,yes,yes,no,BAJO ELECTRICO,14,GUITARRA,14,VOZ,14,ABLETON LIVE,19.0,PERCUSION,21.0,,,EN EL EJERCICIO CON EL ÚLTIMO LENGUAJE ME ENCONTRABA MENTALMENTE CANSADO Y NO HE CONSEGUIDO PRESTAR LA MISMA ATENCIÓN QUE EN LOS PRIMEROS ,78.0,yes
134,2023-09-20_24h30.41.970,Unsyncopated1,s18,30.0,masculino,right,españa,castellano,Bachelor degree,no,no,B,2,conjunction_syn,L4,syncopated,s1,r1,6,Online_conjL4_syn//b.ja.nu7.none.none.wav,zi,po,pe,lo,sil,ci,bu,ñi,sil1,ru,sil2,['-'],,,none,none,,,,nu,2,,,,,,,,,,,,,,,3.0,3.0,catalan,3.0,castellano,o,ingles,16.0,4.0,4.0,yes,yes,no,BAJO ELECTRICO,14,GUITARRA,14,VOZ,14,ABLETON LIVE,19.0,PERCUSION,21.0,,,EN EL EJERCICIO CON EL ÚLTIMO LENGUAJE ME ENCONTRABA MENTALMENTE CANSADO Y NO HE CONSEGUIDO PRESTAR LA MISMA ATENCIÓN QUE EN LOS PRIMEROS ,78.0,yes
135,2023-09-20_24h30.41.970,Unsyncopated1,s18,30.0,masculino,right,españa,castellano,Bachelor degree,no,no,B,2,conjunction_syn,L4,syncopated,s2,r1,7,Online_conjL4_syn//b.ja.nu6.none.none.wav,ña,po,ru,zi,sil,ñi,re,lo,sil1,bo,sil2,['-'],,,none,none,,,,nu,2,,,,,,,,,,,,,,,3.0,3.0,catalan,3.0,castellano,o,ingles,16.0,4.0,4.0,yes,yes,no,BAJO ELECTRICO,14,GUITARRA,14,VOZ,14,ABLETON LIVE,19.0,PERCUSION,21.0,,,EN EL EJERCICIO CON EL ÚLTIMO LENGUAJE ME ENCONTRABA MENTALMENTE CANSADO Y NO HE CONSEGUIDO PRESTAR LA MISMA ATENCIÓN QUE EN LOS PRIMEROS ,78.0,yes
136,2023-09-20_24h30.41.970,Unsyncopated1,s18,30.0,masculino,right,españa,castellano,Bachelor degree,no,no,B,2,conjunction_syn,L4,syncopated,s2,r2,8,Online_conjL4_syn//b.ja.nu8.666.1554.wav,da,bu,de,ja,sil,ci,pe,nu,sil1,re,sil2,['catch'],[2.3759000000000015],[2.3759000000000015],1.554,no_beat,0.8219000000000014,0.8219000000000014,"[""space""]",nu,2,,,,,,,,,,,,,,,3.0,3.0,catalan,3.0,castellano,o,ingles,16.0,4.0,4.0,yes,yes,no,BAJO ELECTRICO,14,GUITARRA,14,VOZ,14,ABLETON LIVE,19.0,PERCUSION,21.0,,,EN EL EJERCICIO CON EL ÚLTIMO LENGUAJE ME ENCONTRABA MENTALMENTE CANSADO Y NO HE CONSEGUIDO PRESTAR LA MISMA ATENCIÓN QUE EN LOS PRIMEROS ,78.0,yes
137,2023-09-20_24h30.41.970,Unsyncopated1,s18,30.0,masculino,right,españa,castellano,Bachelor degree,no,no,B,2,conjunction_syn,L4,syncopated,s2,r2,9,Online_conjL4_syn//b.ja.nu11.666.1554.wav,de,ru,po,ja,sil,ci,pe,nu,sil1,ña,sil2,['miss'],,,1.554,no_beat,,,,nu,2,,,,,,,,,,,,,,,3.0,3.0,catalan,3.0,castellano,o,ingles,16.0,4.0,4.0,yes,yes,no,BAJO ELECTRICO,14,GUITARRA,14,VOZ,14,ABLETON LIVE,19.0,PERCUSION,21.0,,,EN EL EJERCICIO CON EL ÚLTIMO LENGUAJE ME ENCONTRABA MENTALMENTE CANSADO Y NO HE CONSEGUIDO PRESTAR LA MISMA ATENCIÓN QUE EN LOS PRIMEROS ,78.0,yes
138,2023-09-20_24h30.41.970,Unsyncopated1,s18,30.0,masculino,right,españa,castellano,Bachelor degree,no,no,B,2,conjunction_syn,L4,syncopated,s1,r2,10,Online_conjL4_syn//b.ja.nu10.0.666.wav,ja,pe,ñi,nu,sil,bu,ci,de,sil1,ru,sil2,['catch'],[1.6152999999999338],[1.6152999999999338],0.666,no_beat,0.9492999999999338,0.9492999999999338,"[""space""]",nu,2,,,,,,,,,,,,,,,3.0,3.0,catalan,3.0,castellano,o,ingles,16.0,4.0,4.0,yes,yes,no,BAJO ELECTRICO,14,GUITARRA,14,VOZ,14,ABLETON LIVE,19.0,PERCUSION,21.0,,,EN EL EJERCICIO CON EL ÚLTIMO LENGUAJE ME ENCONTRABA MENTALMENTE CANSADO Y NO HE CONSEGUIDO PRESTAR LA MISMA ATENCIÓN QUE EN LOS PRIMEROS ,78.0,yes
139,2023-09-20_24h30.41.970,Unsyncopated1,s18,30.0,masculino,right,españa,castellano,Bachelor degree,no,no,B,2,conjunction_syn,L4,syncopated,s2,r2,11,Online_conjL4_syn//b.ja.nu9.666.1554.wav,bo,ñi,po,ja,sil,da,re,nu,sil1,ru,sil2,['catch'],[2.133000000000038],[2.133000000000038],1.554,no_beat,0.5790000000000382,0.5790000000000382,"[""space""]",nu,2,,,,,,,,,,,,,,,3.0,3.0,catalan,3.0,castellano,o,ingles,16.0,4.0,4.0,yes,yes,no,BAJO ELECTRICO,14,GUITARRA,14,VOZ,14,ABLETON LIVE,19.0,PERCUSION,21.0,,,EN EL EJERCICIO CON EL ÚLTIMO LENGUAJE ME ENCONTRABA MENTALMENTE CANSADO Y NO HE CONSEGUIDO PRESTAR LA MISMA ATENCIÓN QUE EN LOS PRIMEROS ,78.0,yes
140,2023-09-20_24h30.41.970,Unsyncopated1,s18,30.0,masculino,right,españa,castellano,Bachelor degree,no,no,B,2,conjunction_syn,L4,syncopated,s2,r1,12,Online_conjL4_syn//a.zi.lo7.666.1554.wav,ru,de,po,zi,sil,ña,ñi,lo,sil1,da,sil2,['catch'],[1.111399999999776],[1.111399999999776],0.666,no_beat,0.4453999999997758,0.4453999999997758,"[""space""]",zi,1,,,,,,,,,,,,,,,3.0,3.0,catalan,3.0,castellano,o,ingles,16.0,4.0,4.0,yes,yes,no,BAJO ELECTRICO,14,GUITARRA,14,VOZ,14,ABLETON LIVE,19.0,PERCUSION,21.0,,,EN EL EJERCICIO CON EL ÚLTIMO LENGUAJE ME ENCONTRABA MENTALMENTE CANSADO Y NO HE CONSEGUIDO PRESTAR LA MISMA ATENCIÓN QUE EN LOS PRIMEROS ,78.0,yes
141,2023-09-20_24h30.41.970,Unsyncopated1,s18,30.0,masculino,right,españa,castellano,Bachelor degree,no,no,B,2,conjunction_syn,L4,syncopated,s1,r1,13,Online_conjL4_syn//a.zi.lo4.0.666.wav,zi,po,re,lo,sil,ñi,da,bo,sil1,bu,sil2,['catch'],[0.4818999999997686],[0.4818999999997686],0.0,beat,0.4818999999997686,0.4818999999997686,"[""space""]",zi,1,,,,,,,,,,,,,,,3.0,3.0,catalan,3.0,castellano,o,ingles,16.0,4.0,4.0,yes,yes,no,BAJO ELECTRICO,14,GUITARRA,14,VOZ,14,ABLETON LIVE,19.0,PERCUSION,21.0,,,EN EL EJERCICIO CON EL ÚLTIMO LENGUAJE ME ENCONTRABA MENTALMENTE CANSADO Y NO HE CONSEGUIDO PRESTAR LA MISMA ATENCIÓN QUE EN LOS PRIMEROS ,78.0,yes
142,2023-09-20_24h30.41.970,Unsyncopated1,s18,30.0,masculino,right,españa,castellano,Bachelor degree,no,no,B,2,conjunction_syn,L4,syncopated,s1,r1,14,Online_conjL4_syn//a.zi.lo5.0.666.wav,zi,bo,ña,lo,sil,pe,de,re,sil1,ñi,sil2,['catch'],[0.8664000000001124],[0.8664000000001124],0.0,beat,0.8664000000001124,0.8664000000001124,"[""space""]",zi,1,,,,,,,,,,,,,,,3.0,3.0,catalan,3.0,castellano,o,ingles,16.0,4.0,4.0,yes,yes,no,BAJO ELECTRICO,14,GUITARRA,14,VOZ,14,ABLETON LIVE,19.0,PERCUSION,21.0,,,EN EL EJERCICIO CON EL ÚLTIMO LENGUAJE ME ENCONTRABA MENTALMENTE CANSADO Y NO HE CONSEGUIDO PRESTAR LA MISMA ATENCIÓN QUE EN LOS PRIMEROS ,78.0,yes
143,2023-09-20_24h30.41.970,Unsyncopated1,s18,30.0,masculino,right,españa,castellano,Bachelor degree,no,no,B,2,conjunction_syn,L4,syncopated,s2,r2,15,Online_conjL4_syn//a.zi.lo6.none.none.wav,ci,da,ru,ja,sil,bo,pe,nu,sil1,re,sil2,['-'],,,none,none,,,,zi,1,,,,,,,,,,,,,,,3.0,3.0,catalan,3.0,castellano,o,ingles,16.0,4.0,4.0,yes,yes,no,BAJO ELECTRICO,14,GUITARRA,14,VOZ,14,ABLETON LIVE,19.0,PERCUSION,21.0,,,EN EL EJERCICIO CON EL ÚLTIMO LENGUAJE ME ENCONTRABA MENTALMENTE CANSADO Y NO HE CONSEGUIDO PRESTAR LA MISMA ATENCIÓN QUE EN LOS PRIMEROS ,78.0,yes
144,2023-09-20_24h30.41.970,Unsyncopated1,s18,30.0,masculino,right,españa,castellano,Bachelor degree,no,no,B,2,conjunction_syn,L4,syncopated,s2,r2,16,Online_conjL4_syn//b.ja.nu26.666.1554.wav,pe,bu,ña,ja,sil,po,ru,nu,sil1,bo,sil2,['miss'],,,1.554,no_beat,,,,nu,2,,,,,,,,,,,,,,,3.0,3.0,catalan,3.0,castellano,o,ingles,16.0,4.0,4.0,yes,yes,no,BAJO ELECTRICO,14,GUITARRA,14,VOZ,14,ABLETON LIVE,19.0,PERCUSION,21.0,,,EN EL EJERCICIO CON EL ÚLTIMO LENGUAJE ME ENCONTRABA MENTALMENTE CANSADO Y NO HE CONSEGUIDO PRESTAR LA MISMA ATENCIÓN QUE EN LOS PRIMEROS ,78.0,yes
145,2023-09-20_24h30.41.970,Unsyncopated1,s18,30.0,masculino,right,españa,castellano,Bachelor degree,no,no,B,2,conjunction_syn,L4,syncopated,s2,r2,17,Online_conjL4_syn//b.ja.nu27.666.1554.wav,ña,po,re,ja,sil,de,bo,nu,sil1,ci,sil2,['catch'],[2.081100000000106],[2.081100000000106],1.554,no_beat,0.5271000000001058,0.5271000000001058,"[""space""]",nu,2,,,,,,,,,,,,,,,3.0,3.0,catalan,3.0,castellano,o,ingles,16.0,4.0,4.0,yes,yes,no,BAJO ELECTRICO,14,GUITARRA,14,VOZ,14,ABLETON LIVE,19.0,PERCUSION,21.0,,,EN EL EJERCICIO CON EL ÚLTIMO LENGUAJE ME ENCONTRABA MENTALMENTE CANSADO Y NO HE CONSEGUIDO PRESTAR LA MISMA ATENCIÓN QUE EN LOS PRIMEROS ,78.0,yes
146,2023-09-20_24h30.41.970,Unsyncopated1,s18,30.0,masculino,right,españa,castellano,Bachelor degree,no,no,B,2,conjunction_syn,L4,syncopated,s2,r1,18,Online_conjL4_syn//b.ja.nu24.none.none.wav,bo,ñi,re,zi,sil,pe,ci,lo,sil1,de,sil2,['-'],,,none,none,,,,nu,2,,,,,,,,,,,,,,,3.0,3.0,catalan,3.0,castellano,o,ingles,16.0,4.0,4.0,yes,yes,no,BAJO ELECTRICO,14,GUITARRA,14,VOZ,14,ABLETON LIVE,19.0,PERCUSION,21.0,,,EN EL EJERCICIO CON EL ÚLTIMO LENGUAJE ME ENCONTRABA MENTALMENTE CANSADO Y NO HE CONSEGUIDO PRESTAR LA MISMA ATENCIÓN QUE EN LOS PRIMEROS ,78.0,yes
147,2023-09-20_24h30.41.970,Unsyncopated1,s18,30.0,masculino,right,españa,castellano,Bachelor degree,no,no,B,2,conjunction_syn,L4,syncopated,s1,r1,19,Online_conjL4_syn//b.ja.nu25.none.none.wav,zi,pe,da,lo,sil,re,po,bo,sil1,ci,sil2,['-'],,,none,none,,,,nu,2,,,,,,,,,,,,,,,3.0,3.0,catalan,3.0,castellano,o,ingles,16.0,4.0,4.0,yes,yes,no,BAJO ELECTRICO,14,GUITARRA,14,VOZ,14,ABLETON LIVE,19.0,PERCUSION,21.0,,,EN EL EJERCICIO CON EL ÚLTIMO LENGUAJE ME ENCONTRABA MENTALMENTE CANSADO Y NO HE CONSEGUIDO PRESTAR LA MISMA ATENCIÓN QUE EN LOS PRIMEROS ,78.0,yes
148,2023-09-20_24h30.41.970,Unsyncopated1,s18,30.0,masculino,right,españa,castellano,Bachelor degree,no,no,B,2,conjunction_syn,L4,syncopated,s2,r2,20,Online_conjL4_syn//d.pe.po13.none.none.wav,ci,ru,da,ja,sil,de,ñi,nu,sil1,bu,sil2,['-'],,,none,none,,,,po,4,,,,,,,,,,,,,,,3.0,3.0,catalan,3.0,castellano,o,ingles,16.0,4.0,4.0,yes,yes,no,BAJO ELECTRICO,14,GUITARRA,14,VOZ,14,ABLETON LIVE,19.0,PERCUSION,21.0,,,EN EL EJERCICIO CON EL ÚLTIMO LENGUAJE ME ENCONTRABA MENTALMENTE CANSADO Y NO HE CONSEGUIDO PRESTAR LA MISMA ATENCIÓN QUE EN LOS PRIMEROS ,78.0,yes
149,2023-09-20_24h30.41.970,Unsyncopated1,s18,30.0,masculino,right,españa,castellano,Bachelor degree,no,no,B,2,conjunction_syn,L4,syncopated,s2,r2,21,Online_conjL4_syn//d.pe.po15.222.1110.wav,ci,pe,de,ja,sil,po,bo,nu,sil1,da,sil2,['catch'],[1.8485000000000582],[1.8485000000000582],1.11,no_beat,0.7385000000000581,0.7385000000000581,"[""space""]",po,4,,,,,,,,,,,,,,,3.0,3.0,catalan,3.0,castellano,o,ingles,16.0,4.0,4.0,yes,yes,no,BAJO ELECTRICO,14,GUITARRA,14,VOZ,14,ABLETON LIVE,19.0,PERCUSION,21.0,,,EN EL EJERCICIO CON EL ÚLTIMO LENGUAJE ME ENCONTRABA MENTALMENTE CANSADO Y NO HE CONSEGUIDO PRESTAR LA MISMA ATENCIÓN QUE EN LOS PRIMEROS ,78.0,yes
150,2023-09-20_24h30.41.970,Unsyncopated1,s18,30.0,masculino,right,españa,castellano,Bachelor degree,no,no,B,2,conjunction_syn,L4,syncopated,s1,r2,22,Online_conjL4_syn//d.pe.po14.1110.1332.wav,ja,bo,bu,nu,sil,pe,po,de,sil1,da,sil2,['catch'],[2.247100000000046],[2.247100000000046],1.332,no_beat,0.9151000000000458,0.9151000000000458,"[""space""]",po,4,,,,,,,,,,,,,,,3.0,3.0,catalan,3.0,castellano,o,ingles,16.0,4.0,4.0,yes,yes,no,BAJO ELECTRICO,14,GUITARRA,14,VOZ,14,ABLETON LIVE,19.0,PERCUSION,21.0,,,EN EL EJERCICIO CON EL ÚLTIMO LENGUAJE ME ENCONTRABA MENTALMENTE CANSADO Y NO HE CONSEGUIDO PRESTAR LA MISMA ATENCIÓN QUE EN LOS PRIMEROS ,78.0,yes
151,2023-09-20_24h30.41.970,Unsyncopated1,s18,30.0,masculino,right,españa,castellano,Bachelor degree,no,no,B,2,conjunction_syn,L4,syncopated,s2,r1,23,Online_conjL4_syn//d.pe.po12.none.none.wav,bu,de,re,zi,sil,ña,ci,lo,sil1,ñi,sil2,['-'],,,none,none,,,,po,4,,,,,,,,,,,,,,,3.0,3.0,catalan,3.0,castellano,o,ingles,16.0,4.0,4.0,yes,yes,no,BAJO ELECTRICO,14,GUITARRA,14,VOZ,14,ABLETON LIVE,19.0,PERCUSION,21.0,,,EN EL EJERCICIO CON EL ÚLTIMO LENGUAJE ME ENCONTRABA MENTALMENTE CANSADO Y NO HE CONSEGUIDO PRESTAR LA MISMA ATENCIÓN QUE EN LOS PRIMEROS ,78.0,yes
152,2023-09-20_24h30.41.970,Unsyncopated1,s18,30.0,masculino,right,españa,castellano,Bachelor degree,no,no,B,2,conjunction_syn,L4,syncopated,s2,r1,24,Online_conjL4_syn//a.zi.lo9.666.1554.wav,po,ci,bu,zi,sil,de,ña,lo,sil1,ñi,sil2,"['false alarm', 'catch']","[0.5906000000002223, 1.393400000000156]",[1.393400000000156],0.666,no_beat,0.727400000000156,0.727400000000156,"[""space"",""space""]",zi,1,,,,,,,,,,,,,,,3.0,3.0,catalan,3.0,castellano,o,ingles,16.0,4.0,4.0,yes,yes,no,BAJO ELECTRICO,14,GUITARRA,14,VOZ,14,ABLETON LIVE,19.0,PERCUSION,21.0,,,EN EL EJERCICIO CON EL ÚLTIMO LENGUAJE ME ENCONTRABA MENTALMENTE CANSADO Y NO HE CONSEGUIDO PRESTAR LA MISMA ATENCIÓN QUE EN LOS PRIMEROS ,78.0,yes
