Unnamed: 0,date,expName,participant,age,sex,hand,residence,native_lang,education_level,lang_deficit,aud_deficit,group,block,condition,language,rhythm,rule structure online,rule type online,order_trial_on,trial_online,s1,s2,s3,s4,s5,s6,s7,s8,s9,s10,s11,catch_syll_resp,rts_syll_catch,clean_rts,time_syll,beat_no_beat,catch_rtsTR,catch_rts,syllable_catch.keys,cond_syll,syll_to_catch,test_offline,block_off,condition_off,rhythm_off,rule,rule_str_off,rule_norule,conds_offline,language_off,Partz_no_partm.keys,Partz_no_partm.rt,security_1_7.keys,accuracy,security_1_7.rt,n_lang,n_lang_used,lang_1,age_l1,lang_2,age_l2,lang_3,age_l3,lang_4,age_l4,ability_learn_l2,tendence_mix_lan,music_experience,muisc_use,partiture,instr_1,age_M1,preguntas_musica1,BMRQ_answer.response,final comment,BMRQ_Score,bilingual
0,2024-04-11_19h25.21.561,Experiment4_uns,s166,26.0,feminino,right,España,Catalán,Doctorate,no,no,A,1,conjunction_syn,L3,syncopated,s2,r1,0,Online_conjL3_syn//c.gu.je14.none.none.wav,ka,ko,ga,chu,sil,fu,do,mo,sil1,ji,sil2,['-'],,,none,none,,,,gu,3,testConjL3Syn//r1.s1.2.wav,1.0,conjunction_syn,syncopated,a,s1,rule,rule,L3,z,2.5594,6.0,1.0,4.2238,4.0,3.0,Catalán,0.0,Castellano,0.0,Inglés,6.0,Alemán,17.0,4.0,5.0,no,no,yes,nada,,1. Cuando comparto música con alguien siento una complicidad especial con aquella persona.,4.0,nada,61.0,yes
1,2024-04-11_19h25.21.561,Experiment4_uns,s166,26.0,feminino,right,España,Catalán,Doctorate,no,no,A,1,conjunction_syn,L3,syncopated,s1,r1,1,Online_conjL3_syn//c.gu.je13.none.none.wav,chu,le,ka,mo,sil,fu,ko,do,sil1,ji,sil2,['-'],,,none,none,,,,gu,3,testConjL3Syn//r2.s2.2.wav,1.0,conjunction_syn,syncopated,b,s2,rule,rule,L3,z,1.355,5.0,1.0,6.0637,4.0,3.0,Catalán,0.0,Castellano,0.0,Inglés,6.0,Alemán,17.0,4.0,5.0,no,no,yes,nada,,2. En mi tiempo libre apenas escucho música.,5.0,nada,61.0,yes
2,2024-04-11_19h25.21.561,Experiment4_uns,s166,26.0,feminino,right,España,Catalán,Doctorate,no,no,A,1,conjunction_syn,L3,syncopated,s2,r2,2,Online_conjL3_syn//c.gu.je12.none.none.wav,ka,ji,li,ñe,sil,do,ga,sa,sil1,fu,sil2,['-'],,,none,none,,,,gu,3,testConjL3Syn//r2.s1.0.wav,1.0,conjunction_syn,syncopated,b,s1,rule,rule,L3,z,2.8633,4.0,1.0,3.9136,4.0,3.0,Catalán,0.0,Castellano,0.0,Inglés,6.0,Alemán,17.0,4.0,5.0,no,no,yes,nada,,3. Algunas canciones me ponen los pelos de punta,4.0,nada,61.0,yes
3,2024-04-11_19h25.21.561,Experiment4_uns,s166,26.0,feminino,right,España,Catalán,Doctorate,no,no,A,1,conjunction_syn,L3,syncopated,s1,r2,3,Online_conjL3_syn//c.gu.je15.1554.444.wav,ñe,le,je,sa,sil,fu,do,gu,sil1,ga,sil2,['catch'],[2.38900000000001],[2.38900000000001],1.554,no_beat,0.83500000000001,0.83500000000001,"[""space""]",gu,3,testConjL3Syn//time_viol.r1.s2.0.wav,1.0,conjunction_syn,syncopated,a,s2,no_rule,time,L3,z,1.1214,6.0,0.0,1.3669,4.0,3.0,Catalán,0.0,Castellano,0.0,Inglés,6.0,Alemán,17.0,4.0,5.0,no,no,yes,nada,,4. La música me hace compañía cuando estoy solo,2.0,nada,61.0,yes
4,2024-04-11_19h25.21.561,Experiment4_uns,s166,26.0,feminino,right,España,Catalán,Doctorate,no,no,A,1,conjunction_syn,L3,syncopated,s1,r2,4,Online_conjL3_syn//c.gu.je22.1554.444.wav,ñe,li,je,sa,sil,ji,ka,gu,sil1,di,sil2,['catch'],[2.3172000000477055],[2.3172000000477055],1.554,no_beat,0.7632000000477055,0.7632000000477055,"[""space""]",gu,3,testConjL3Syn//cat_viol.r2.s2.0.wav,1.0,conjunction_syn,syncopated,b,s2,no_rule,cat,L3,m,1.4856,4.0,1.0,3.5205,4.0,3.0,Catalán,0.0,Castellano,0.0,Inglés,6.0,Alemán,17.0,4.0,5.0,no,no,yes,nada,,5. No me apetece bailar ni con la música que más me gusta,5.0,nada,61.0,yes
5,2024-04-11_19h25.21.561,Experiment4_uns,s166,26.0,feminino,right,España,Catalán,Doctorate,no,no,A,1,conjunction_syn,L3,syncopated,s1,r2,5,Online_conjL3_syn//c.gu.je20.1554.1110.wav,ñe,fu,di,sa,sil,je,ka,gu,sil1,le,sil2,['catch'],[2.348799999952348],[2.348799999952348],1.554,no_beat,0.7947999999523481,0.7947999999523481,"[""space""]",gu,3,testConjL3Syn//r1.s2.0.wav,1.0,conjunction_syn,syncopated,a,s2,rule,rule,L3,z,3.1992,2.0,1.0,1.3846,4.0,3.0,Catalán,0.0,Castellano,0.0,Inglés,6.0,Alemán,17.0,4.0,5.0,no,no,yes,nada,,6. La música me hace conectar con la gente,3.0,nada,61.0,yes
6,2024-04-11_19h25.21.561,Experiment4_uns,s166,26.0,feminino,right,España,Catalán,Doctorate,no,no,A,1,conjunction_syn,L3,syncopated,s2,r2,6,Online_conjL3_syn//c.gu.je23.222.444.wav,li,gu,je,ñe,sil,ko,ga,sa,sil1,le,sil2,['catch'],[0.9846000000238746],[0.9846000000238746],0.222,no_beat,0.7626000000238746,0.7626000000238746,"[""space""]",gu,3,testConjL3Syn//time_viol.r2.s1.0.wav,1.0,conjunction_syn,syncopated,b,s1,no_rule,time,L3,m,2.0326,4.0,1.0,1.5202,4.0,3.0,Catalán,0.0,Castellano,0.0,Inglés,6.0,Alemán,17.0,4.0,5.0,no,no,yes,nada,,7. Me informo sobre la música que me gusta.,3.0,nada,61.0,yes
7,2024-04-11_19h25.21.561,Experiment4_uns,s166,26.0,feminino,right,España,Catalán,Doctorate,no,no,A,1,conjunction_syn,L3,syncopated,s2,r2,7,Online_conjL3_syn//c.gu.je21.none.none.wav,fu,ko,le,ñe,sil,li,do,sa,sil1,ji,sil2,['-'],,,none,none,,,,gu,3,testConjL3Syn//cat_viol.r1.s1.0.wav,1.0,conjunction_syn,syncopated,a,s1,no_rule,cat,L3,z,2.5841,3.0,0.0,2.2347,4.0,3.0,Catalán,0.0,Castellano,0.0,Inglés,6.0,Alemán,17.0,4.0,5.0,no,no,yes,nada,,8.Me emociono escuchando ciertas canciones.,4.0,nada,61.0,yes
8,2024-04-11_19h25.21.561,Experiment4_uns,s166,26.0,feminino,right,España,Catalán,Doctorate,no,no,A,1,conjunction_syn,L3,syncopated,s1,r1,8,Online_conjL3_syn//b.ñe.sa28.none.none.wav,chu,ji,ga,mo,sil,fu,ka,di,sil1,gu,sil2,['-'],,,none,none,,,,ñe,1,testConjL3Syn//r1.s1.1.wav,1.0,conjunction_syn,syncopated,a,s1,rule,rule,L3,m,3.117,3.0,0.0,3.2485,4.0,3.0,Catalán,0.0,Castellano,0.0,Inglés,6.0,Alemán,17.0,4.0,5.0,no,no,yes,nada,,9.La música me tranquiliza y me relaja.,2.0,nada,61.0,yes
9,2024-04-11_19h25.21.561,Experiment4_uns,s166,26.0,feminino,right,España,Catalán,Doctorate,no,no,A,1,conjunction_syn,L3,syncopated,s2,r2,9,Online_conjL3_syn//b.ñe.sa29.666.1554.wav,je,do,ga,ñe,sil,li,ka,sa,sil1,gu,sil2,['catch'],[1.4484999999999673],[1.4484999999999673],0.666,no_beat,0.7824999999999672,0.7824999999999672,"[""space""]",ñe,1,testConjL3Syn//cat_viol.r2.s1.0.wav,1.0,conjunction_syn,syncopated,b,s1,no_rule,cat,L3,m,2.9304,3.0,1.0,0.9343,4.0,3.0,Catalán,0.0,Castellano,0.0,Inglés,6.0,Alemán,17.0,4.0,5.0,no,no,yes,nada,,10.La música me hace bailar,4.0,nada,61.0,yes
10,2024-04-11_19h25.21.561,Experiment4_uns,s166,26.0,feminino,right,España,Catalán,Doctorate,no,no,A,1,conjunction_syn,L3,syncopated,s1,r1,10,Online_conjL3_syn//b.ñe.sa30.none.none.wav,chu,ka,ji,mo,sil,je,gu,do,sil1,li,sil2,['-'],,,none,none,,,,ñe,1,testConjL3Syn//r2.s2.1.wav,1.0,conjunction_syn,syncopated,b,s2,rule,rule,L3,m,2.9355,4.0,0.0,2.2083,4.0,3.0,Catalán,0.0,Castellano,0.0,Inglés,6.0,Alemán,17.0,4.0,5.0,no,no,yes,nada,,11.Busco novedades musicales continuamente,2.0,nada,61.0,yes
11,2024-04-11_19h25.21.561,Experiment4_uns,s166,26.0,feminino,right,España,Catalán,Doctorate,no,no,A,1,conjunction_syn,L3,syncopated,s1,r1,11,Online_conjL3_syn//b.ñe.sa31.none.none.wav,chu,fu,gu,mo,sil,le,ji,di,sil1,ka,sil2,['-'],,,none,none,,,,ñe,1,testConjL3Syn//r2.s2.0.wav,1.0,conjunction_syn,syncopated,b,s2,rule,rule,L3,z,1.8016,3.0,1.0,1.1667,4.0,3.0,Catalán,0.0,Castellano,0.0,Inglés,6.0,Alemán,17.0,4.0,5.0,no,no,yes,nada,,12. Puedo llorar cuando escucho algunas melodías que me gustan mucho.,3.0,nada,61.0,yes
12,2024-04-11_19h25.21.561,Experiment4_uns,s166,26.0,feminino,right,España,Catalán,Doctorate,no,no,A,1,conjunction_syn,L3,syncopated,s2,r2,12,Online_conjL3_syn//a.chu.mo30.none.none.wav,fu,gu,ji,ñe,sil,li,do,sa,sil1,je,sil2,['-'],,,none,none,,,,mo,2,testConjL3Syn//time_viol.r1.s1.0.wav,1.0,conjunction_syn,syncopated,a,s1,no_rule,time,L3,z,4.0882,2.0,0.0,2.3497,4.0,3.0,Catalán,0.0,Castellano,0.0,Inglés,6.0,Alemán,17.0,4.0,5.0,no,no,yes,nada,,13. Me gusta cantar o tocar un instrumento con más gente,3.0,nada,61.0,yes
13,2024-04-11_19h25.21.561,Experiment4_uns,s166,26.0,feminino,right,España,Catalán,Doctorate,no,no,A,1,conjunction_syn,L3,syncopated,s1,r1,13,Online_conjL3_syn//a.chu.mo31.0.666.wav,chu,ka,je,mo,sil,ga,di,gu,sil1,ko,sil2,['catch'],[1.3198999999760872],[1.3198999999760872],0.666,no_beat,0.6538999999760872,0.6538999999760872,"[""space""]",mo,2,testConjL3Syn//r2.s1.1.wav,1.0,conjunction_syn,syncopated,b,s1,rule,rule,L3,z,3.0999,3.0,1.0,1.0035,4.0,3.0,Catalán,0.0,Castellano,0.0,Inglés,6.0,Alemán,17.0,4.0,5.0,no,no,yes,nada,,14. La música me ayuda a desconectar.,2.0,nada,61.0,yes
14,2024-04-11_19h25.21.561,Experiment4_uns,s166,26.0,feminino,right,España,Catalán,Doctorate,no,no,A,1,conjunction_syn,L3,syncopated,s1,r2,14,Online_conjL3_syn//a.chu.mo28.none.none.wav,ñe,ga,li,sa,sil,je,do,ko,sil1,ka,sil2,['-'],,,none,none,,,,mo,2,testConjL3Syn//cat_viol.r1.s2.0.wav,1.0,conjunction_syn,syncopated,a,s2,no_rule,cat,L3,z,0.9334,3.0,0.0,2.7988,4.0,3.0,Catalán,0.0,Castellano,0.0,Inglés,6.0,Alemán,17.0,4.0,5.0,no,no,yes,nada,,15. No puedo evitar tararear las canciones que me gustan cuando las escucho.,2.0,nada,61.0,yes
15,2024-04-11_19h25.21.561,Experiment4_uns,s166,26.0,feminino,right,España,Catalán,Doctorate,no,no,A,1,conjunction_syn,L3,syncopated,s2,r2,15,Online_conjL3_syn//a.chu.mo29.none.none.wav,ji,ka,do,ñe,sil,gu,di,sa,sil1,ko,sil2,['-'],,,none,none,,,,mo,2,testConjL3Syn//dep_viol.r2.s2.0.wav,1.0,conjunction_syn,syncopated,b,s2,no_rule,dep,L3,m,1.6512,2.0,1.0,1.6892,4.0,3.0,Catalán,0.0,Castellano,0.0,Inglés,6.0,Alemán,17.0,4.0,5.0,no,no,yes,nada,,16. En los conciertos me siento en sintonía con los artistas y el público.,3.0,nada,61.0,yes
16,2024-04-11_19h25.21.561,Experiment4_uns,s166,26.0,feminino,right,España,Catalán,Doctorate,no,no,A,1,conjunction_syn,L3,syncopated,s1,r2,16,Online_conjL3_syn//c.gu.je11.222.1110.wav,ñe,gu,ka,sa,sil,je,fu,ji,sil1,le,sil2,['catch'],[1.0781999999284153],[1.0781999999284153],0.222,no_beat,0.8561999999284153,0.8561999999284153,"[""space""]",gu,3,testConjL3Syn//dep_viol.r2.s1.0.wav,1.0,conjunction_syn,syncopated,b,s1,no_rule,dep,L3,m,0.6332,4.0,1.0,1.0048,4.0,3.0,Catalán,0.0,Castellano,0.0,Inglés,6.0,Alemán,17.0,4.0,5.0,no,no,yes,nada,,17. Me gasto bastante dinero en música y cosas relacionadas con la música.,1.0,nada,61.0,yes
17,2024-04-11_19h25.21.561,Experiment4_uns,s166,26.0,feminino,right,España,Catalán,Doctorate,no,no,A,1,conjunction_syn,L3,syncopated,s2,r1,17,Online_conjL3_syn//c.gu.je9.1332.0.wav,je,le,ko,chu,sil,ka,gu,mo,sil1,ji,sil2,['miss'],,,1.332,no_beat,,,,gu,3,testConjL3Syn//r2.s1.2.wav,1.0,conjunction_syn,syncopated,b,s1,rule,rule,L3,m,2.05,3.0,0.0,1.2839,4.0,3.0,Catalán,0.0,Castellano,0.0,Inglés,6.0,Alemán,17.0,4.0,5.0,no,no,yes,nada,,18. Siento escalofríos cuando escucho una melodía que me gusta.,2.0,nada,61.0,yes
18,2024-04-11_19h25.21.561,Experiment4_uns,s166,26.0,feminino,right,España,Catalán,Doctorate,no,no,A,1,conjunction_syn,L3,syncopated,s1,r1,18,Online_conjL3_syn//c.gu.je8.222.1110.wav,chu,gu,do,mo,sil,je,ga,ko,sil1,ka,sil2,['miss'],,,0.222,no_beat,,,,gu,3,testConjL3Syn//dep_viol.r1.s2.0.wav,1.0,conjunction_syn,syncopated,a,s2,no_rule,dep,L3,m,2.8668,3.0,1.0,1.1389,4.0,3.0,Catalán,0.0,Castellano,0.0,Inglés,6.0,Alemán,17.0,4.0,5.0,no,no,yes,nada,,19. Con la música me puedo desahogar.,3.0,nada,61.0,yes
19,2024-04-11_19h25.21.561,Experiment4_uns,s166,26.0,feminino,right,España,Catalán,Doctorate,no,no,A,1,conjunction_syn,L3,syncopated,s1,r1,19,Online_conjL3_syn//c.gu.je10.none.none.wav,chu,di,do,mo,sil,ko,ga,ji,sil1,ka,sil2,['-'],,,none,none,,,,gu,3,testConjL3Syn//time_viol.r2.s2.0.wav,1.0,conjunction_syn,syncopated,b,s2,no_rule,time,L3,m,0.4845,4.0,1.0,1.8681,4.0,3.0,Catalán,0.0,Castellano,0.0,Inglés,6.0,Alemán,17.0,4.0,5.0,no,no,yes,nada,,20. Cuando escucho una melodía que me gusta mucho no puedo evitar mover el cuerpo.,4.0,nada,61.0,yes
20,2024-04-11_19h25.21.561,Experiment4_uns,s166,26.0,feminino,right,España,Catalán,Doctorate,no,no,A,1,conjunction_syn,L3,syncopated,s1,r1,20,Online_conjL3_syn//a.chu.mo0.0.666.wav,chu,do,ji,mo,sil,ka,ko,di,sil1,li,sil2,['catch'],[1.3458999999761545],[1.3458999999761545],0.666,no_beat,0.6798999999761545,0.6798999999761545,"[""space""]",mo,2,testConjL3Syn//r1.s2.1.wav,1.0,conjunction_syn,syncopated,a,s2,rule,rule,L3,z,1.054,3.0,1.0,1.3161,4.0,3.0,Catalán,0.0,Castellano,0.0,Inglés,6.0,Alemán,17.0,4.0,5.0,no,no,yes,nada,,,,nada,61.0,yes
21,2024-04-11_19h25.21.561,Experiment4_uns,s166,26.0,feminino,right,España,Catalán,Doctorate,no,no,A,1,conjunction_syn,L3,syncopated,s2,r1,21,Online_conjL3_syn//a.chu.mo2.666.1554.wav,ka,ko,fu,chu,sil,le,je,mo,sil1,gu,sil2,['catch'],[2.2218999999762445],[2.2218999999762445],1.554,no_beat,0.6678999999762445,0.6678999999762445,"[""space""]",mo,2,testConjL3Syn//r1.s1.0.wav,1.0,conjunction_syn,syncopated,a,s1,rule,rule,L3,z,0.3873,4.0,1.0,4.6066,4.0,3.0,Catalán,0.0,Castellano,0.0,Inglés,6.0,Alemán,17.0,4.0,5.0,no,no,yes,nada,,,,nada,61.0,yes
22,2024-04-11_19h25.21.561,Experiment4_uns,s166,26.0,feminino,right,España,Catalán,Doctorate,no,no,A,1,conjunction_syn,L3,syncopated,s1,r2,22,Online_conjL3_syn//a.chu.mo1.none.none.wav,ñe,le,ko,sa,sil,gu,do,di,sil1,ka,sil2,['-'],,,none,none,,,,mo,2,testConjL3Syn//dep_viol.r1.s1.0.wav,1.0,conjunction_syn,syncopated,a,s1,no_rule,dep,L3,z,4.3495,2.0,0.0,0.8847,4.0,3.0,Catalán,0.0,Castellano,0.0,Inglés,6.0,Alemán,17.0,4.0,5.0,no,no,yes,nada,,,,nada,61.0,yes
23,2024-04-11_19h25.21.561,Experiment4_uns,s166,26.0,feminino,right,España,Catalán,Doctorate,no,no,A,1,conjunction_syn,L3,syncopated,s1,r1,23,Online_conjL3_syn//a.chu.mo3.0.666.wav,chu,li,do,mo,sil,je,ji,fu,sil1,ga,sil2,['catch'],[1.4546000000237882],[1.4546000000237882],0.666,no_beat,0.7886000000237882,0.7886000000237882,"[""space""]",mo,2,testConjL3Syn//r1.s2.2.wav,1.0,conjunction_syn,syncopated,a,s2,rule,rule,L3,m,0.8912,4.0,0.0,3.5844,4.0,3.0,Catalán,0.0,Castellano,0.0,Inglés,6.0,Alemán,17.0,4.0,5.0,no,no,yes,nada,,,,nada,61.0,yes
24,2024-04-11_19h25.21.561,Experiment4_uns,s166,26.0,feminino,right,España,Catalán,Doctorate,no,no,A,1,conjunction_syn,L3,syncopated,s2,r2,24,Online_conjL3_syn//b.ñe.sa19.666.1554.wav,do,fu,le,ñe,sil,li,je,sa,sil1,ji,sil2,['catch'],[1.2998000000715138],[1.2998000000715138],0.666,no_beat,0.6338000000715137,0.6338000000715137,"[""space""]",ñe,1,testWhenL2Uns//r2.s1.2.wav,2.0,when,unsyncopated,b,s1,rule,rule,L2,z,1.0173,5.0,1.0,6.1576,4.0,3.0,Catalán,0.0,Castellano,0.0,Inglés,6.0,Alemán,17.0,4.0,5.0,no,no,yes,nada,,,,nada,61.0,yes
25,2024-04-11_19h25.21.561,Experiment4_uns,s166,26.0,feminino,right,España,Catalán,Doctorate,no,no,A,1,conjunction_syn,L3,syncopated,s1,r2,25,Online_conjL3_syn//b.ñe.sa16.0.666.wav,ñe,ka,le,sa,sil,do,ga,ji,sil1,fu,sil2,['catch'],[0.7888999999762518],[0.7888999999762518],0.0,beat,0.7888999999762518,0.7888999999762518,"[""space""]",ñe,1,testWhenL2Uns//r1.s1.2.wav,2.0,when,unsyncopated,a,s1,rule,rule,L2,m,2.2328,3.0,0.0,1.6332,4.0,3.0,Catalán,0.0,Castellano,0.0,Inglés,6.0,Alemán,17.0,4.0,5.0,no,no,yes,nada,,,,nada,61.0,yes
26,2024-04-11_19h25.21.561,Experiment4_uns,s166,26.0,feminino,right,España,Catalán,Doctorate,no,no,A,1,conjunction_syn,L3,syncopated,s1,r1,26,Online_conjL3_syn//b.ñe.sa18.none.none.wav,chu,li,ga,mo,sil,di,do,je,sil1,le,sil2,['-'],,,none,none,,,,ñe,1,testWhenL2Uns//r2.s2.0.wav,2.0,when,unsyncopated,b,s2,rule,rule,L2,m,1.0827,4.0,0.0,1.3512,4.0,3.0,Catalán,0.0,Castellano,0.0,Inglés,6.0,Alemán,17.0,4.0,5.0,no,no,yes,nada,,,,nada,61.0,yes
27,2024-04-11_19h25.21.561,Experiment4_uns,s166,26.0,feminino,right,España,Catalán,Doctorate,no,no,A,1,conjunction_syn,L3,syncopated,s2,r1,27,Online_conjL3_syn//b.ñe.sa17.none.none.wav,di,ka,le,chu,sil,ji,ga,mo,sil1,ko,sil2,['-'],,,none,none,,,,ñe,1,testWhenL2Uns//time_viol.r1.s2.0.wav,2.0,when,unsyncopated,a,s2,no_rule,time,L2,z,2.5491,3.0,1.0,1.1751,4.0,3.0,Catalán,0.0,Castellano,0.0,Inglés,6.0,Alemán,17.0,4.0,5.0,no,no,yes,nada,,,,nada,61.0,yes
28,2024-04-11_19h25.21.561,Experiment4_uns,s166,26.0,feminino,right,España,Catalán,Doctorate,no,no,A,1,conjunction_syn,L3,syncopated,s2,r1,28,Online_conjL3_syn//c.gu.je31.none.none.wav,do,li,ga,chu,sil,ka,ko,mo,sil1,fu,sil2,['-'],,,none,none,,,,gu,3,testWhenL2Uns//cat_viol.r2.s1.0.wav,2.0,when,unsyncopated,b,s1,no_rule,cat,L2,z,4.2672,2.0,1.0,0.5516,4.0,3.0,Catalán,0.0,Castellano,0.0,Inglés,6.0,Alemán,17.0,4.0,5.0,no,no,yes,nada,,,,nada,61.0,yes
29,2024-04-11_19h25.21.561,Experiment4_uns,s166,26.0,feminino,right,España,Catalán,Doctorate,no,no,A,1,conjunction_syn,L3,syncopated,s2,r1,29,Online_conjL3_syn//c.gu.je30.none.none.wav,fu,di,ga,chu,sil,ko,li,mo,sil1,ka,sil2,['-'],,,none,none,,,,gu,3,testWhenL2Uns//cat_viol.r1.s2.0.wav,2.0,when,unsyncopated,a,s2,no_rule,cat,L2,z,1.5552,3.0,1.0,0.7342,4.0,3.0,Catalán,0.0,Castellano,0.0,Inglés,6.0,Alemán,17.0,4.0,5.0,no,no,yes,nada,,,,nada,61.0,yes
30,2024-04-11_19h25.21.561,Experiment4_uns,s166,26.0,feminino,right,España,Catalán,Doctorate,no,no,A,1,conjunction_syn,L3,syncopated,s2,r1,30,Online_conjL3_syn//c.gu.je28.none.none.wav,ga,li,ka,chu,sil,di,ji,mo,sil1,do,sil2,['-'],,,none,none,,,,gu,3,testWhenL2Uns//dep_viol.r1.s1.0.wav,2.0,when,unsyncopated,a,s1,no_rule,dep,L2,m,2.5329,4.0,0.0,1.5338,4.0,3.0,Catalán,0.0,Castellano,0.0,Inglés,6.0,Alemán,17.0,4.0,5.0,no,no,yes,nada,,,,nada,61.0,yes
31,2024-04-11_19h25.21.561,Experiment4_uns,s166,26.0,feminino,right,España,Catalán,Doctorate,no,no,A,1,conjunction_syn,L3,syncopated,s2,r1,31,Online_conjL3_syn//c.gu.je29.444.1110.wav,ji,li,gu,chu,sil,je,ko,mo,sil1,do,sil2,['miss'],,,0.444,no_beat,,,,gu,3,testWhenL2Uns//time_viol.r1.s1.0.wav,2.0,when,unsyncopated,a,s1,no_rule,time,L2,z,0.8578,4.0,1.0,2.964,4.0,3.0,Catalán,0.0,Castellano,0.0,Inglés,6.0,Alemán,17.0,4.0,5.0,no,no,yes,nada,,,,nada,61.0,yes
32,2024-04-11_19h25.21.561,Experiment4_uns,s166,26.0,feminino,right,España,Catalán,Doctorate,no,no,A,1,conjunction_syn,L3,syncopated,s2,r2,32,Online_conjL3_syn//b.ñe.sa20.666.1554.wav,le,di,ka,ñe,sil,li,je,sa,sil1,ko,sil2,['catch'],[1.3319999999999936],[1.3319999999999936],0.666,no_beat,0.6659999999999936,0.6659999999999936,"[""space""]",ñe,1,testWhenL2Uns//r1.s2.1.wav,2.0,when,unsyncopated,a,s2,rule,rule,L2,z,0.9841,3.0,1.0,2.1709,4.0,3.0,Catalán,0.0,Castellano,0.0,Inglés,6.0,Alemán,17.0,4.0,5.0,no,no,yes,nada,,,,nada,61.0,yes
33,2024-04-11_19h25.21.561,Experiment4_uns,s166,26.0,feminino,right,España,Catalán,Doctorate,no,no,A,1,conjunction_syn,L3,syncopated,s2,r2,33,Online_conjL3_syn//b.ñe.sa21.666.1554.wav,le,di,gu,ñe,sil,ga,je,sa,sil1,li,sil2,['catch'],[1.2722999999522244],[1.2722999999522244],0.666,no_beat,0.6062999999522244,0.6062999999522244,"[""space""]",ñe,1,testWhenL2Uns//r1.s1.0.wav,2.0,when,unsyncopated,a,s1,rule,rule,L2,m,0.7243,3.0,0.0,0.985,4.0,3.0,Catalán,0.0,Castellano,0.0,Inglés,6.0,Alemán,17.0,4.0,5.0,no,no,yes,nada,,,,nada,61.0,yes
34,2024-04-11_19h25.21.561,Experiment4_uns,s166,26.0,feminino,right,España,Catalán,Doctorate,no,no,A,1,conjunction_syn,L3,syncopated,s1,r1,34,Online_conjL3_syn//b.ñe.sa22.none.none.wav,chu,di,li,mo,sil,le,fu,gu,sil1,je,sil2,['-'],,,none,none,,,,ñe,1,testWhenL2Uns//time_viol.r2.s2.0.wav,2.0,when,unsyncopated,b,s2,no_rule,time,L2,z,1.351,4.0,1.0,0.7322,4.0,3.0,Catalán,0.0,Castellano,0.0,Inglés,6.0,Alemán,17.0,4.0,5.0,no,no,yes,nada,,,,nada,61.0,yes
35,2024-04-11_19h25.21.561,Experiment4_uns,s166,26.0,feminino,right,España,Catalán,Doctorate,no,no,A,1,conjunction_syn,L3,syncopated,s2,r1,35,Online_conjL3_syn//b.ñe.sa23.none.none.wav,ka,le,di,chu,sil,je,gu,mo,sil1,ji,sil2,['-'],,,none,none,,,,ñe,1,testWhenL2Uns//r2.s2.1.wav,2.0,when,unsyncopated,b,s2,rule,rule,L2,m,1.0504,2.0,0.0,1.7002,4.0,3.0,Catalán,0.0,Castellano,0.0,Inglés,6.0,Alemán,17.0,4.0,5.0,no,no,yes,nada,,,,nada,61.0,yes
36,2024-04-11_19h25.21.561,Experiment4_uns,s166,26.0,feminino,right,España,Catalán,Doctorate,no,no,A,1,conjunction_syn,L3,syncopated,s1,r2,36,Online_conjL3_syn//b.ñe.sa3.0.666.wav,ñe,li,do,sa,sil,gu,ka,fu,sil1,ko,sil2,['catch'],[0.6805000000000518],[0.6805000000000518],0.0,beat,0.6805000000000518,0.6805000000000518,"[""space""]",ñe,1,testWhenL2Uns//r1.s1.1.wav,2.0,when,unsyncopated,a,s1,rule,rule,L2,z,0.3526,4.0,1.0,0.8501,4.0,3.0,Catalán,0.0,Castellano,0.0,Inglés,6.0,Alemán,17.0,4.0,5.0,no,no,yes,nada,,,,nada,61.0,yes
37,2024-04-11_19h25.21.561,Experiment4_uns,s166,26.0,feminino,right,España,Catalán,Doctorate,no,no,A,1,conjunction_syn,L3,syncopated,s1,r2,37,Online_conjL3_syn//b.ñe.sa1.0.666.wav,ñe,di,li,sa,sil,ga,ko,je,sil1,ji,sil2,['catch'],[0.8901999999285408],[0.8901999999285408],0.0,beat,0.8901999999285408,0.8901999999285408,"[""space""]",ñe,1,testWhenL2Uns//cat_viol.r1.s1.0.wav,2.0,when,unsyncopated,a,s1,no_rule,cat,L2,z,0.3987,5.0,1.0,2.7725,4.0,3.0,Catalán,0.0,Castellano,0.0,Inglés,6.0,Alemán,17.0,4.0,5.0,no,no,yes,nada,,,,nada,61.0,yes
38,2024-04-11_19h25.21.561,Experiment4_uns,s166,26.0,feminino,right,España,Catalán,Doctorate,no,no,A,1,conjunction_syn,L3,syncopated,s1,r1,38,Online_conjL3_syn//b.ñe.sa2.none.none.wav,chu,fu,di,mo,sil,do,ga,li,sil1,ko,sil2,['-'],,,none,none,,,,ñe,1,testWhenL2Uns//r2.s2.2.wav,2.0,when,unsyncopated,b,s2,rule,rule,L2,m,0.7015,4.0,0.0,1.7418,4.0,3.0,Catalán,0.0,Castellano,0.0,Inglés,6.0,Alemán,17.0,4.0,5.0,no,no,yes,nada,,,,nada,61.0,yes
39,2024-04-11_19h25.21.561,Experiment4_uns,s166,26.0,feminino,right,España,Catalán,Doctorate,no,no,A,1,conjunction_syn,L3,syncopated,s1,r2,39,Online_conjL3_syn//b.ñe.sa0.0.666.wav,ñe,ji,fu,sa,sil,li,do,je,sil1,gu,sil2,['catch'],[0.6536000000238573],[0.6536000000238573],0.0,beat,0.6536000000238573,0.6536000000238573,"[""space""]",ñe,1,testWhenL2Uns//r2.s1.1.wav,2.0,when,unsyncopated,b,s1,rule,rule,L2,m,1.1501,1.0,0.0,2.6663,4.0,3.0,Catalán,0.0,Castellano,0.0,Inglés,6.0,Alemán,17.0,4.0,5.0,no,no,yes,nada,,,,nada,61.0,yes
40,2024-04-11_19h25.21.561,Experiment4_uns,s166,26.0,feminino,right,España,Catalán,Doctorate,no,no,A,1,conjunction_syn,L3,syncopated,s2,r1,40,Online_conjL3_syn//b.ñe.sa24.none.none.wav,ga,di,le,chu,sil,li,ka,mo,sil1,do,sil2,['-'],,,none,none,,,,ñe,1,testWhenL2Uns//time_viol.r2.s1.0.wav,2.0,when,unsyncopated,b,s1,no_rule,time,L2,z,2.21,2.0,1.0,0.8212,4.0,3.0,Catalán,0.0,Castellano,0.0,Inglés,6.0,Alemán,17.0,4.0,5.0,no,no,yes,nada,,,,nada,61.0,yes
41,2024-04-11_19h25.21.561,Experiment4_uns,s166,26.0,feminino,right,España,Catalán,Doctorate,no,no,A,1,conjunction_syn,L3,syncopated,s1,r1,41,Online_conjL3_syn//b.ñe.sa26.none.none.wav,chu,ko,ji,mo,sil,ka,li,do,sil1,gu,sil2,['-'],,,none,none,,,,ñe,1,testWhenL2Uns//cat_viol.r2.s2.0.wav,2.0,when,unsyncopated,b,s2,no_rule,cat,L2,m,0.584,3.0,0.0,0.7517,4.0,3.0,Catalán,0.0,Castellano,0.0,Inglés,6.0,Alemán,17.0,4.0,5.0,no,no,yes,nada,,,,nada,61.0,yes
42,2024-04-11_19h25.21.561,Experiment4_uns,s166,26.0,feminino,right,España,Catalán,Doctorate,no,no,A,1,conjunction_syn,L3,syncopated,s1,r2,42,Online_conjL3_syn//b.ñe.sa25.0.666.wav,ñe,je,li,sa,sil,fu,le,ko,sil1,ji,sil2,['catch'],[0.6733000000715492],[0.6733000000715492],0.0,beat,0.6733000000715492,0.6733000000715492,"[""space""]",ñe,1,testWhenL2Uns//r1.s2.2.wav,2.0,when,unsyncopated,a,s2,rule,rule,L2,z,1.3147,4.0,1.0,0.5509,4.0,3.0,Catalán,0.0,Castellano,0.0,Inglés,6.0,Alemán,17.0,4.0,5.0,no,no,yes,nada,,,,nada,61.0,yes
43,2024-04-11_19h25.21.561,Experiment4_uns,s166,26.0,feminino,right,España,Catalán,Doctorate,no,no,A,1,conjunction_syn,L3,syncopated,s2,r1,43,Online_conjL3_syn//b.ñe.sa27.none.none.wav,ka,gu,je,chu,sil,ko,di,mo,sil1,li,sil2,['-'],,,none,none,,,,ñe,1,testWhenL2Uns//r2.s1.0.wav,2.0,when,unsyncopated,b,s1,rule,rule,L2,m,0.4887,3.0,0.0,1.7181,4.0,3.0,Catalán,0.0,Castellano,0.0,Inglés,6.0,Alemán,17.0,4.0,5.0,no,no,yes,nada,,,,nada,61.0,yes
44,2024-04-11_19h25.21.561,Experiment4_uns,s166,26.0,feminino,right,España,Catalán,Doctorate,no,no,A,1,conjunction_syn,L3,syncopated,s1,r1,44,Online_conjL3_syn//a.chu.mo15.0.666.wav,chu,le,gu,mo,sil,do,li,ka,sil1,ji,sil2,['catch'],[1.213099999904557],[1.213099999904557],0.666,no_beat,0.547099999904557,0.547099999904557,"[""space""]",mo,2,testWhenL2Uns//r1.s2.0.wav,2.0,when,unsyncopated,a,s2,rule,rule,L2,m,5.7331,2.0,0.0,1.2308,4.0,3.0,Catalán,0.0,Castellano,0.0,Inglés,6.0,Alemán,17.0,4.0,5.0,no,no,yes,nada,,,,nada,61.0,yes
45,2024-04-11_19h25.21.561,Experiment4_uns,s166,26.0,feminino,right,España,Catalán,Doctorate,no,no,A,1,conjunction_syn,L3,syncopated,s1,r1,45,Online_conjL3_syn//a.chu.mo13.0.666.wav,chu,ji,fu,mo,sil,je,li,do,sil1,ka,sil2,['catch'],[1.5716000000238637],[1.5716000000238637],0.666,no_beat,0.9056000000238636,0.9056000000238636,"[""space""]",mo,2,testWhenL2Uns//dep_viol.r2.s2.0.wav,2.0,when,unsyncopated,b,s2,no_rule,dep,L2,m,0.5674,3.0,0.0,0.3844,4.0,3.0,Catalán,0.0,Castellano,0.0,Inglés,6.0,Alemán,17.0,4.0,5.0,no,no,yes,nada,,,,nada,61.0,yes
46,2024-04-11_19h25.21.561,Experiment4_uns,s166,26.0,feminino,right,España,Catalán,Doctorate,no,no,A,1,conjunction_syn,L3,syncopated,s1,r2,46,Online_conjL3_syn//a.chu.mo12.none.none.wav,ñe,je,do,sa,sil,ka,le,ji,sil1,ga,sil2,['-'],,,none,none,,,,mo,2,testWhenL2Uns//dep_viol.r2.s1.0.wav,2.0,when,unsyncopated,b,s1,no_rule,dep,L2,m,1.0691,2.0,0.0,0.7472,4.0,3.0,Catalán,0.0,Castellano,0.0,Inglés,6.0,Alemán,17.0,4.0,5.0,no,no,yes,nada,,,,nada,61.0,yes
47,2024-04-11_19h25.21.561,Experiment4_uns,s166,26.0,feminino,right,España,Catalán,Doctorate,no,no,A,1,conjunction_syn,L3,syncopated,s1,r1,47,Online_conjL3_syn//a.chu.mo14.0.666.wav,chu,ka,li,mo,sil,ga,je,ji,sil1,do,sil2,['catch'],[1.5928999999761118],[1.5928999999761118],0.666,no_beat,0.9268999999761116,0.9268999999761116,"[""space""]",mo,2,testWhenL2Uns//dep_viol.r1.s2.0.wav,2.0,when,unsyncopated,a,s2,no_rule,dep,L2,z,0.3484,4.0,1.0,0.3908,4.0,3.0,Catalán,0.0,Castellano,0.0,Inglés,6.0,Alemán,17.0,4.0,5.0,no,no,yes,nada,,,,nada,61.0,yes
48,2024-04-11_19h25.21.561,Experiment4_uns,s166,26.0,feminino,right,España,Catalán,Doctorate,no,no,A,1,conjunction_syn,L3,syncopated,s1,r1,48,Online_conjL3_syn//d.ji.li14.444.1332.wav,chu,gu,ji,mo,sil,do,li,fu,sil1,le,sil2,['miss'],,,0.444,no_beat,,,,ji,4,testConjL4Uns//r1.s1.0.wav,3.0,conjunction_un,unsyncopated,a,s1,rule,rule,L4,m,2.9994,2.0,0.0,0.7444,4.0,3.0,Catalán,0.0,Castellano,0.0,Inglés,6.0,Alemán,17.0,4.0,5.0,no,no,yes,nada,,,,nada,61.0,yes
49,2024-04-11_19h25.21.561,Experiment4_uns,s166,26.0,feminino,right,España,Catalán,Doctorate,no,no,A,1,conjunction_syn,L3,syncopated,s1,r2,49,Online_conjL3_syn//d.ji.li15.1554.444.wav,ñe,je,li,sa,sil,ko,fu,ji,sil1,gu,sil2,['catch'],[2.068600000023821],[2.068600000023821],1.554,no_beat,0.5146000000238209,0.5146000000238209,"[""space""]",ji,4,testConjL4Uns//r2.s1.1.wav,3.0,conjunction_un,unsyncopated,b,s1,rule,rule,L4,z,1.1511,5.0,1.0,1.1822,4.0,3.0,Catalán,0.0,Castellano,0.0,Inglés,6.0,Alemán,17.0,4.0,5.0,no,no,yes,nada,,,,nada,61.0,yes
50,2024-04-11_19h25.21.561,Experiment4_uns,s166,26.0,feminino,right,España,Catalán,Doctorate,no,no,A,1,conjunction_syn,L3,syncopated,s1,r1,50,Online_conjL3_syn//d.ji.li13.none.none.wav,chu,je,ka,mo,sil,di,ko,fu,sil1,ga,sil2,['-'],,,none,none,,,,ji,4,testConjL4Uns//time_viol.r2.s2.0.wav,3.0,conjunction_un,unsyncopated,b,s2,no_rule,time,L4,z,0.8042,3.0,0.0,0.8697,4.0,3.0,Catalán,0.0,Castellano,0.0,Inglés,6.0,Alemán,17.0,4.0,5.0,no,no,yes,nada,,,,nada,61.0,yes
51,2024-04-11_19h25.21.561,Experiment4_uns,s166,26.0,feminino,right,España,Catalán,Doctorate,no,no,A,1,conjunction_syn,L3,syncopated,s2,r1,51,Online_conjL3_syn//d.ji.li12.none.none.wav,gu,ko,le,chu,sil,do,ga,mo,sil1,fu,sil2,['-'],,,none,none,,,,ji,4,testConjL4Uns//r1.s2.1.wav,3.0,conjunction_un,unsyncopated,a,s2,rule,rule,L4,m,0.5178,4.0,0.0,1.2875,4.0,3.0,Catalán,0.0,Castellano,0.0,Inglés,6.0,Alemán,17.0,4.0,5.0,no,no,yes,nada,,,,nada,61.0,yes
52,2024-04-11_19h25.21.561,Experiment4_uns,s166,26.0,feminino,right,España,Catalán,Doctorate,no,no,A,1,conjunction_syn,L3,syncopated,s2,r1,52,Online_conjL3_syn//b.ñe.sa12.none.none.wav,ko,li,di,chu,sil,do,ga,mo,sil1,ka,sil2,['-'],,,none,none,,,,ñe,1,testConjL4Uns//r2.s2.2.wav,3.0,conjunction_un,unsyncopated,b,s2,rule,rule,L4,m,0.5333,3.0,0.0,1.8008,4.0,3.0,Catalán,0.0,Castellano,0.0,Inglés,6.0,Alemán,17.0,4.0,5.0,no,no,yes,nada,,,,nada,61.0,yes
53,2024-04-11_19h25.21.561,Experiment4_uns,s166,26.0,feminino,right,España,Catalán,Doctorate,no,no,A,1,conjunction_syn,L3,syncopated,s2,r2,53,Online_conjL3_syn//b.ñe.sa13.666.1554.wav,fu,li,ka,ñe,sil,ga,le,sa,sil1,je,sil2,['catch'],[1.3682999999523418],[1.3682999999523418],0.666,no_beat,0.7022999999523417,0.7022999999523417,"[""space""]",ñe,1,testConjL4Uns//r1.s1.1.wav,3.0,conjunction_un,unsyncopated,a,s1,rule,rule,L4,m,1.5425,1.0,0.0,0.5757,4.0,3.0,Catalán,0.0,Castellano,0.0,Inglés,6.0,Alemán,17.0,4.0,5.0,no,no,yes,nada,,,,nada,61.0,yes
54,2024-04-11_19h25.21.561,Experiment4_uns,s166,26.0,feminino,right,España,Catalán,Doctorate,no,no,A,1,conjunction_syn,L3,syncopated,s2,r1,54,Online_conjL3_syn//b.ñe.sa15.none.none.wav,di,gu,le,chu,sil,do,fu,mo,sil1,ji,sil2,['-'],,,none,none,,,,ñe,1,testConjL4Uns//time_viol.r2.s1.0.wav,3.0,conjunction_un,unsyncopated,b,s1,no_rule,time,L4,z,0.3831,4.0,0.0,0.9151,4.0,3.0,Catalán,0.0,Castellano,0.0,Inglés,6.0,Alemán,17.0,4.0,5.0,no,no,yes,nada,,,,nada,61.0,yes
55,2024-04-11_19h25.21.561,Experiment4_uns,s166,26.0,feminino,right,España,Catalán,Doctorate,no,no,A,1,conjunction_syn,L3,syncopated,s1,r2,55,Online_conjL3_syn//b.ñe.sa14.0.666.wav,ñe,ko,li,sa,sil,fu,je,gu,sil1,ga,sil2,['catch'],[0.8400000000000318],[0.8400000000000318],0.0,beat,0.8400000000000318,0.8400000000000318,"[""space""]",ñe,1,testConjL4Uns//dep_viol.r1.s1.0.wav,3.0,conjunction_un,unsyncopated,a,s1,no_rule,dep,L4,m,0.4346,3.0,1.0,1.3528,4.0,3.0,Catalán,0.0,Castellano,0.0,Inglés,6.0,Alemán,17.0,4.0,5.0,no,no,yes,nada,,,,nada,61.0,yes
56,2024-04-11_19h25.21.561,Experiment4_uns,s166,26.0,feminino,right,España,Catalán,Doctorate,no,no,A,1,conjunction_syn,L3,syncopated,s2,r1,56,Online_conjL3_syn//a.chu.mo23.666.1554.wav,gu,ga,le,chu,sil,fu,je,mo,sil1,ka,sil2,['catch'],[2.1761999999284853],[2.1761999999284853],1.554,no_beat,0.6221999999284853,0.6221999999284853,"[""space""]",mo,2,testConjL4Uns//cat_viol.r2.s1.0.wav,3.0,conjunction_un,unsyncopated,b,s1,no_rule,cat,L4,z,0.3833,4.0,0.0,0.6311,4.0,3.0,Catalán,0.0,Castellano,0.0,Inglés,6.0,Alemán,17.0,4.0,5.0,no,no,yes,nada,,,,nada,61.0,yes
57,2024-04-11_19h25.21.561,Experiment4_uns,s166,26.0,feminino,right,España,Catalán,Doctorate,no,no,A,1,conjunction_syn,L3,syncopated,s1,r1,57,Online_conjL3_syn//a.chu.mo20.0.666.wav,chu,do,li,mo,sil,je,ka,ga,sil1,gu,sil2,['catch'],[1.3069000000954247],[1.3069000000954247],0.666,no_beat,0.6409000000954247,0.6409000000954247,"[""space""]",mo,2,testConjL4Uns//r1.s2.0.wav,3.0,conjunction_un,unsyncopated,a,s2,rule,rule,L4,z,0.5003,4.0,1.0,0.7341,4.0,3.0,Catalán,0.0,Castellano,0.0,Inglés,6.0,Alemán,17.0,4.0,5.0,no,no,yes,nada,,,,nada,61.0,yes
58,2024-04-11_19h25.21.561,Experiment4_uns,s166,26.0,feminino,right,España,Catalán,Doctorate,no,no,A,1,conjunction_syn,L3,syncopated,s2,r1,58,Online_conjL3_syn//a.chu.mo22.666.1554.wav,ka,li,le,chu,sil,di,ko,mo,sil1,je,sil2,['catch'],[2.4771000000238246],[2.4771000000238246],1.554,no_beat,0.9231000000238244,0.9231000000238244,"[""space""]",mo,2,testConjL4Uns//dep_viol.r1.s2.0.wav,3.0,conjunction_un,unsyncopated,a,s2,no_rule,dep,L4,m,0.6699,2.0,1.0,0.9071,4.0,3.0,Catalán,0.0,Castellano,0.0,Inglés,6.0,Alemán,17.0,4.0,5.0,no,no,yes,nada,,,,nada,61.0,yes
59,2024-04-11_19h25.21.561,Experiment4_uns,s166,26.0,feminino,right,España,Catalán,Doctorate,no,no,A,1,conjunction_syn,L3,syncopated,s2,r1,59,Online_conjL3_syn//a.chu.mo21.666.1554.wav,gu,ka,je,chu,sil,do,ko,mo,sil1,li,sil2,['catch'],[2.3531000000239146],[2.3531000000239146],1.554,no_beat,0.7991000000239146,0.7991000000239146,"[""space""]",mo,2,testConjL4Uns//cat_viol.r1.s1.0.wav,3.0,conjunction_un,unsyncopated,a,s1,no_rule,cat,L4,m,0.6573,2.0,1.0,0.4709,4.0,3.0,Catalán,0.0,Castellano,0.0,Inglés,6.0,Alemán,17.0,4.0,5.0,no,no,yes,nada,,,,nada,61.0,yes
60,2024-04-11_19h25.21.561,Experiment4_uns,s166,26.0,feminino,right,España,Catalán,Doctorate,no,no,A,1,conjunction_syn,L3,syncopated,s1,r2,60,Online_conjL3_syn//d.ji.li23.none.none.wav,ñe,ga,ko,sa,sil,fu,do,le,sil1,gu,sil2,['-'],,,none,none,,,,ji,4,testConjL4Uns//r2.s1.0.wav,3.0,conjunction_un,unsyncopated,b,s1,rule,rule,L4,z,1.084,2.0,1.0,1.0174,4.0,3.0,Catalán,0.0,Castellano,0.0,Inglés,6.0,Alemán,17.0,4.0,5.0,no,no,yes,nada,,,,nada,61.0,yes
61,2024-04-11_19h25.21.561,Experiment4_uns,s166,26.0,feminino,right,España,Catalán,Doctorate,no,no,A,1,conjunction_syn,L3,syncopated,s2,r2,61,Online_conjL3_syn//d.ji.li22.0.1110.wav,ji,do,le,ñe,sil,li,ga,sa,sil1,je,sil2,['catch'],[0.6204999999999927],[0.6204999999999927],0.0,beat,0.6204999999999927,0.6204999999999927,"[""space""]",ji,4,testConjL4Uns//time_viol.r1.s1.0.wav,3.0,conjunction_un,unsyncopated,a,s1,no_rule,time,L4,z,1.4479,1.0,0.0,0.2553,4.0,3.0,Catalán,0.0,Castellano,0.0,Inglés,6.0,Alemán,17.0,4.0,5.0,no,no,yes,nada,,,,nada,61.0,yes
62,2024-04-11_19h25.21.561,Experiment4_uns,s166,26.0,feminino,right,España,Catalán,Doctorate,no,no,A,1,conjunction_syn,L3,syncopated,s2,r1,62,Online_conjL3_syn//d.ji.li21.none.none.wav,ko,gu,je,chu,sil,ka,ga,mo,sil1,di,sil2,['-'],,,none,none,,,,ji,4,testConjL4Uns//dep_viol.r2.s2.0.wav,3.0,conjunction_un,unsyncopated,b,s2,no_rule,dep,L4,z,0.2552,4.0,0.0,0.4834,4.0,3.0,Catalán,0.0,Castellano,0.0,Inglés,6.0,Alemán,17.0,4.0,5.0,no,no,yes,nada,,,,nada,61.0,yes
63,2024-04-11_19h25.21.561,Experiment4_uns,s166,26.0,feminino,right,España,Catalán,Doctorate,no,no,A,1,conjunction_syn,L3,syncopated,s2,r1,63,Online_conjL3_syn//d.ji.li20.none.none.wav,di,le,ko,chu,sil,ka,do,mo,sil1,gu,sil2,['-'],,,none,none,,,,ji,4,testConjL4Uns//time_viol.r1.s2.0.wav,3.0,conjunction_un,unsyncopated,a,s2,no_rule,time,L4,m,0.5013,2.0,1.0,0.7183,4.0,3.0,Catalán,0.0,Castellano,0.0,Inglés,6.0,Alemán,17.0,4.0,5.0,no,no,yes,nada,,,,nada,61.0,yes
64,2024-04-11_19h25.21.561,Experiment4_uns,s166,26.0,feminino,right,España,Catalán,Doctorate,no,no,A,1,conjunction_syn,L3,syncopated,s1,r1,64,Online_conjL3_syn//d.ji.li0.none.none.wav,chu,ga,ko,mo,sil,do,le,gu,sil1,di,sil2,['-'],,,none,none,,,,ji,4,testConjL4Uns//r2.s2.1.wav,3.0,conjunction_un,unsyncopated,b,s2,rule,rule,L4,z,0.336,4.0,1.0,0.4518,4.0,3.0,Catalán,0.0,Castellano,0.0,Inglés,6.0,Alemán,17.0,4.0,5.0,no,no,yes,nada,,,,nada,61.0,yes
65,2024-04-11_19h25.21.561,Experiment4_uns,s166,26.0,feminino,right,España,Catalán,Doctorate,no,no,A,1,conjunction_syn,L3,syncopated,s2,r2,65,Online_conjL3_syn//d.ji.li2.1332.0.wav,li,fu,di,ñe,sil,gu,ji,sa,sil1,ko,sil2,['miss'],,,1.332,no_beat,,,,ji,4,testConjL4Uns//r1.s2.2.wav,3.0,conjunction_un,unsyncopated,a,s2,rule,rule,L4,z,0.4181,2.0,1.0,0.8841,4.0,3.0,Catalán,0.0,Castellano,0.0,Inglés,6.0,Alemán,17.0,4.0,5.0,no,no,yes,nada,,,,nada,61.0,yes
66,2024-04-11_19h25.21.561,Experiment4_uns,s166,26.0,feminino,right,España,Catalán,Doctorate,no,no,A,1,conjunction_syn,L3,syncopated,s1,r2,66,Online_conjL3_syn//d.ji.li3.none.none.wav,ñe,ka,gu,sa,sil,ga,do,di,sil1,ko,sil2,['-'],,,none,none,,,,ji,4,testConjL4Uns//dep_viol.r2.s1.0.wav,3.0,conjunction_un,unsyncopated,b,s1,no_rule,dep,L4,z,0.3379,4.0,0.0,0.6189,4.0,3.0,Catalán,0.0,Castellano,0.0,Inglés,6.0,Alemán,17.0,4.0,5.0,no,no,yes,nada,,,,nada,61.0,yes
67,2024-04-11_19h25.21.561,Experiment4_uns,s166,26.0,feminino,right,España,Catalán,Doctorate,no,no,A,1,conjunction_syn,L3,syncopated,s1,r1,67,Online_conjL3_syn//d.ji.li1.1554.444.wav,chu,gu,li,mo,sil,ga,je,ji,sil1,do,sil2,['catch'],[2.2173999999761236],[2.2173999999761236],1.554,no_beat,0.6633999999761235,0.6633999999761235,"[""space""]",ji,4,testConjL4Uns//cat_viol.r1.s2.0.wav,3.0,conjunction_un,unsyncopated,a,s2,no_rule,cat,L4,z,1.3512,1.0,0.0,0.5663,4.0,3.0,Catalán,0.0,Castellano,0.0,Inglés,6.0,Alemán,17.0,4.0,5.0,no,no,yes,nada,,,,nada,61.0,yes
68,2024-04-11_19h25.21.561,Experiment4_uns,s166,26.0,feminino,right,España,Catalán,Doctorate,no,no,A,1,conjunction_syn,L3,syncopated,s1,r1,68,Online_conjL3_syn//d.ji.li18.1554.444.wav,chu,ga,li,mo,sil,je,do,ji,sil1,fu,sil2,['miss'],,,1.554,no_beat,,,,ji,4,testConjL4Uns//cat_viol.r2.s2.0.wav,3.0,conjunction_un,unsyncopated,b,s2,no_rule,cat,L4,z,1.8907,2.0,0.0,0.4561,4.0,3.0,Catalán,0.0,Castellano,0.0,Inglés,6.0,Alemán,17.0,4.0,5.0,no,no,yes,nada,,,,nada,61.0,yes
69,2024-04-11_19h25.21.561,Experiment4_uns,s166,26.0,feminino,right,España,Catalán,Doctorate,no,no,A,1,conjunction_syn,L3,syncopated,s2,r2,69,Online_conjL3_syn//d.ji.li17.1332.222.wav,fu,li,do,ñe,sil,di,ji,sa,sil1,je,sil2,['false alarm'],[0.398700000047711],[0.398700000047711],1.332,no_beat,,,"[""space""]",ji,4,testConjL4Uns//r2.s1.2.wav,3.0,conjunction_un,unsyncopated,b,s1,rule,rule,L4,m,0.7198,2.0,0.0,1.3045,4.0,3.0,Catalán,0.0,Castellano,0.0,Inglés,6.0,Alemán,17.0,4.0,5.0,no,no,yes,nada,,,,nada,61.0,yes
70,2024-04-11_19h25.21.561,Experiment4_uns,s166,26.0,feminino,right,España,Catalán,Doctorate,no,no,A,1,conjunction_syn,L3,syncopated,s1,r2,70,Online_conjL3_syn//d.ji.li16.none.none.wav,ñe,gu,le,sa,sil,do,ga,ko,sil1,fu,sil2,['-'],,,none,none,,,,ji,4,testConjL4Uns//r1.s1.2.wav,3.0,conjunction_un,unsyncopated,a,s1,rule,rule,L4,m,2.0673,1.0,0.0,1.319,4.0,3.0,Catalán,0.0,Castellano,0.0,Inglés,6.0,Alemán,17.0,4.0,5.0,no,no,yes,nada,,,,nada,61.0,yes
71,2024-04-11_19h25.21.561,Experiment4_uns,s166,26.0,feminino,right,España,Catalán,Doctorate,no,no,A,1,conjunction_syn,L3,syncopated,s2,r2,71,Online_conjL3_syn//d.ji.li19.none.none.wav,je,le,ko,ñe,sil,ga,do,sa,sil1,gu,sil2,['-'],,,none,none,,,,ji,4,testConjL4Uns//r2.s2.0.wav,3.0,conjunction_un,unsyncopated,b,s2,rule,rule,L4,m,0.2523,1.0,0.0,0.532,4.0,3.0,Catalán,0.0,Castellano,0.0,Inglés,6.0,Alemán,17.0,4.0,5.0,no,no,yes,nada,,,,nada,61.0,yes
72,2024-04-11_19h25.21.561,Experiment4_uns,s166,26.0,feminino,right,España,Catalán,Doctorate,no,no,A,1,conjunction_syn,L3,syncopated,s1,r2,72,Online_conjL3_syn//b.ñe.sa9.0.666.wav,ñe,ko,je,sa,sil,fu,li,di,sil1,ji,sil2,['catch'],[0.7652000000476846],[0.7652000000476846],0.0,beat,0.7652000000476846,0.7652000000476846,"[""space""]",ñe,1,testWhatL1Uns//r1.s1.0.wav,4.0,what,unsyncopated,a,s1,rule,rule,L1,m,1.1172,4.0,0.0,1.6118,4.0,3.0,Catalán,0.0,Castellano,0.0,Inglés,6.0,Alemán,17.0,4.0,5.0,no,no,yes,nada,,,,nada,61.0,yes
73,2024-04-11_19h25.21.561,Experiment4_uns,s166,26.0,feminino,right,España,Catalán,Doctorate,no,no,A,1,conjunction_syn,L3,syncopated,s1,r2,73,Online_conjL3_syn//b.ñe.sa8.0.666.wav,ñe,do,di,sa,sil,je,ko,le,sil1,gu,sil2,['catch'],[0.7703999999762345],[0.7703999999762345],0.0,beat,0.7703999999762345,0.7703999999762345,"[""space""]",ñe,1,testWhatL1Uns//r2.s2.2.wav,4.0,what,unsyncopated,b,s2,rule,rule,L1,z,0.9043,3.0,1.0,1.4514,4.0,3.0,Catalán,0.0,Castellano,0.0,Inglés,6.0,Alemán,17.0,4.0,5.0,no,no,yes,nada,,,,nada,61.0,yes
74,2024-04-11_19h25.21.561,Experiment4_uns,s166,26.0,feminino,right,España,Catalán,Doctorate,no,no,A,1,conjunction_syn,L3,syncopated,s2,r2,74,Online_conjL3_syn//b.ñe.sa11.666.1554.wav,li,fu,ga,ñe,sil,do,ka,sa,sil1,ko,sil2,['catch'],[1.5375000000000227],[1.5375000000000227],0.666,no_beat,0.8715000000000227,0.8715000000000227,"[""space""]",ñe,1,testWhatL1Uns//r2.s2.1.wav,4.0,what,unsyncopated,b,s2,rule,rule,L1,z,0.3678,4.0,1.0,3.1728,4.0,3.0,Catalán,0.0,Castellano,0.0,Inglés,6.0,Alemán,17.0,4.0,5.0,no,no,yes,nada,,,,nada,61.0,yes
75,2024-04-11_19h25.21.561,Experiment4_uns,s166,26.0,feminino,right,España,Catalán,Doctorate,no,no,A,1,conjunction_syn,L3,syncopated,s1,r1,75,Online_conjL3_syn//b.ñe.sa10.none.none.wav,chu,ji,li,mo,sil,je,le,gu,sil1,do,sil2,['-'],,,none,none,,,,ñe,1,testWhatL1Uns//time_viol.r2.s2.0.wav,4.0,what,unsyncopated,b,s2,no_rule,time,L1,m,2.9565,2.0,1.0,0.7344,4.0,3.0,Catalán,0.0,Castellano,0.0,Inglés,6.0,Alemán,17.0,4.0,5.0,no,no,yes,nada,,,,nada,61.0,yes
76,2024-04-11_19h25.21.561,Experiment4_uns,s166,26.0,feminino,right,España,Catalán,Doctorate,no,no,A,1,conjunction_syn,L3,syncopated,s1,r2,76,Online_conjL3_syn//d.ji.li24.222.1110.wav,ñe,ji,ga,sa,sil,li,fu,ka,sil1,di,sil2,['catch'],[0.893299999952319],[0.893299999952319],0.222,no_beat,0.671299999952319,0.671299999952319,"[""space""]",ji,4,testWhatL1Uns//time_viol.r2.s1.0.wav,4.0,what,unsyncopated,b,s1,no_rule,time,L1,z,0.5038,3.0,0.0,0.6193,4.0,3.0,Catalán,0.0,Castellano,0.0,Inglés,6.0,Alemán,17.0,4.0,5.0,no,no,yes,nada,,,,nada,61.0,yes
77,2024-04-11_19h25.21.561,Experiment4_uns,s166,26.0,feminino,right,España,Catalán,Doctorate,no,no,A,1,conjunction_syn,L3,syncopated,s2,r1,77,Online_conjL3_syn//d.ji.li25.none.none.wav,le,fu,ka,chu,sil,ga,je,mo,sil1,gu,sil2,['-'],,,none,none,,,,ji,4,testWhatL1Uns//time_viol.r1.s2.0.wav,4.0,what,unsyncopated,a,s2,no_rule,time,L1,m,0.2545,4.0,1.0,1.2335,4.0,3.0,Catalán,0.0,Castellano,0.0,Inglés,6.0,Alemán,17.0,4.0,5.0,no,no,yes,nada,,,,nada,61.0,yes
78,2024-04-11_19h25.21.561,Experiment4_uns,s166,26.0,feminino,right,España,Catalán,Doctorate,no,no,A,1,conjunction_syn,L3,syncopated,s1,r2,78,Online_conjL3_syn//d.ji.li26.1554.222.wav,ñe,li,je,sa,sil,fu,ga,ji,sil1,ka,sil2,['catch'],[2.404900000095381],[2.404900000095381],1.554,no_beat,0.850900000095381,0.850900000095381,"[""space""]",ji,4,testWhatL1Uns//r1.s1.1.wav,4.0,what,unsyncopated,a,s1,rule,rule,L1,z,1.131,5.0,1.0,0.7541,4.0,3.0,Catalán,0.0,Castellano,0.0,Inglés,6.0,Alemán,17.0,4.0,5.0,no,no,yes,nada,,,,nada,61.0,yes
79,2024-04-11_19h25.21.561,Experiment4_uns,s166,26.0,feminino,right,España,Catalán,Doctorate,no,no,A,1,conjunction_syn,L3,syncopated,s1,r1,79,Online_conjL3_syn//d.ji.li27.none.none.wav,chu,je,ga,mo,sil,gu,do,le,sil1,ka,sil2,['-'],,,none,none,,,,ji,4,testWhatL1Uns//r2.s1.2.wav,4.0,what,unsyncopated,b,s1,rule,rule,L1,z,0.4208,3.0,1.0,1.0565,4.0,3.0,Catalán,0.0,Castellano,0.0,Inglés,6.0,Alemán,17.0,4.0,5.0,no,no,yes,nada,,,,nada,61.0,yes
80,2024-04-11_19h25.21.561,Experiment4_uns,s166,26.0,feminino,right,España,Catalán,Doctorate,no,no,A,1,conjunction_syn,L3,syncopated,s1,r1,80,Online_conjL3_syn//d.ji.li6.none.none.wav,chu,je,fu,mo,sil,ka,ga,le,sil1,do,sil2,['-'],,,none,none,,,,ji,4,testWhatL1Uns//cat_viol.r2.s2.0.wav,4.0,what,unsyncopated,b,s2,no_rule,cat,L1,m,0.3336,3.0,1.0,1.0337,4.0,3.0,Catalán,0.0,Castellano,0.0,Inglés,6.0,Alemán,17.0,4.0,5.0,no,no,yes,nada,,,,nada,61.0,yes
81,2024-04-11_19h25.21.561,Experiment4_uns,s166,26.0,feminino,right,España,Catalán,Doctorate,no,no,A,1,conjunction_syn,L3,syncopated,s2,r1,81,Online_conjL3_syn//d.ji.li7.1332.0.wav,li,ko,di,chu,sil,le,ji,mo,sil1,do,sil2,['catch'],[2.1245000000001255],[2.1245000000001255],1.332,no_beat,0.7925000000001254,0.7925000000001254,"[""space""]",ji,4,testWhatL1Uns//r1.s2.1.wav,4.0,what,unsyncopated,a,s2,rule,rule,L1,m,0.6745,2.0,0.0,0.7489,4.0,3.0,Catalán,0.0,Castellano,0.0,Inglés,6.0,Alemán,17.0,4.0,5.0,no,no,yes,nada,,,,nada,61.0,yes
82,2024-04-11_19h25.21.561,Experiment4_uns,s166,26.0,feminino,right,España,Catalán,Doctorate,no,no,A,1,conjunction_syn,L3,syncopated,s1,r2,82,Online_conjL3_syn//d.ji.li5.1332.222.wav,ñe,li,do,sa,sil,le,ji,di,sil1,ko,sil2,['miss'],,,1.332,no_beat,,,,ji,4,testWhatL1Uns//r2.s2.0.wav,4.0,what,unsyncopated,b,s2,rule,rule,L1,z,0.383,4.0,1.0,0.6897,4.0,3.0,Catalán,0.0,Castellano,0.0,Inglés,6.0,Alemán,17.0,4.0,5.0,no,no,yes,nada,,,,nada,61.0,yes
83,2024-04-11_19h25.21.561,Experiment4_uns,s166,26.0,feminino,right,España,Catalán,Doctorate,no,no,A,1,conjunction_syn,L3,syncopated,s2,r1,83,Online_conjL3_syn//d.ji.li4.0.222.wav,ji,li,ka,chu,sil,le,di,mo,sil1,gu,sil2,['catch'],[0.6924000000954038],[0.6924000000954038],0.0,beat,0.6924000000954038,0.6924000000954038,"[""space""]",ji,4,testWhatL1Uns//cat_viol.r1.s2.0.wav,4.0,what,unsyncopated,a,s2,no_rule,cat,L1,m,1.0636,2.0,1.0,1.2835,4.0,3.0,Catalán,0.0,Castellano,0.0,Inglés,6.0,Alemán,17.0,4.0,5.0,no,no,yes,nada,,,,nada,61.0,yes
84,2024-04-11_19h25.21.561,Experiment4_uns,s166,26.0,feminino,right,España,Catalán,Doctorate,no,no,A,1,conjunction_syn,L3,syncopated,s2,r2,84,Online_conjL3_syn//c.gu.je19.none.none.wav,fu,le,li,ñe,sil,ji,ka,sa,sil1,di,sil2,['-'],,,none,none,,,,gu,3,testWhatL1Uns//r1.s2.2.wav,4.0,what,unsyncopated,a,s2,rule,rule,L1,m,3.2755,1.0,0.0,0.2506,4.0,3.0,Catalán,0.0,Castellano,0.0,Inglés,6.0,Alemán,17.0,4.0,5.0,no,no,yes,nada,,,,nada,61.0,yes
85,2024-04-11_19h25.21.561,Experiment4_uns,s166,26.0,feminino,right,España,Catalán,Doctorate,no,no,A,1,conjunction_syn,L3,syncopated,s2,r2,85,Online_conjL3_syn//c.gu.je17.222.1110.wav,fu,gu,le,ñe,sil,je,ka,sa,sil1,ko,sil2,['catch'],[1.0272999999522199],[1.0272999999522199],0.222,no_beat,0.8052999999522199,0.8052999999522199,"[""space""]",gu,3,testWhatL1Uns//r1.s2.0.wav,4.0,what,unsyncopated,a,s2,rule,rule,L1,m,0.2985,3.0,0.0,0.8674,4.0,3.0,Catalán,0.0,Castellano,0.0,Inglés,6.0,Alemán,17.0,4.0,5.0,no,no,yes,nada,,,,nada,61.0,yes
86,2024-04-11_19h25.21.561,Experiment4_uns,s166,26.0,feminino,right,España,Catalán,Doctorate,no,no,A,1,conjunction_syn,L3,syncopated,s2,r1,86,Online_conjL3_syn//c.gu.je16.1332.444.wav,fu,ga,je,chu,sil,do,gu,mo,sil1,ji,sil2,['miss'],,,1.332,no_beat,,,,gu,3,testWhatL1Uns//dep_viol.r2.s2.0.wav,4.0,what,unsyncopated,b,s2,no_rule,dep,L1,m,0.8178,2.0,1.0,1.2358,4.0,3.0,Catalán,0.0,Castellano,0.0,Inglés,6.0,Alemán,17.0,4.0,5.0,no,no,yes,nada,,,,nada,61.0,yes
87,2024-04-11_19h25.21.561,Experiment4_uns,s166,26.0,feminino,right,España,Catalán,Doctorate,no,no,A,1,conjunction_syn,L3,syncopated,s2,r1,87,Online_conjL3_syn//c.gu.je18.1110.0.wav,je,di,ka,chu,sil,gu,ko,mo,sil1,li,sil2,['catch'],[1.9228000000716747],[1.9228000000716747],1.11,no_beat,0.8128000000716746,0.8128000000716746,"[""space""]",gu,3,testWhatL1Uns//dep_viol.r2.s1.0.wav,4.0,what,unsyncopated,b,s1,no_rule,dep,L1,z,0.3684,3.0,0.0,0.7241,4.0,3.0,Catalán,0.0,Castellano,0.0,Inglés,6.0,Alemán,17.0,4.0,5.0,no,no,yes,nada,,,,nada,61.0,yes
88,2024-04-11_19h25.21.561,Experiment4_uns,s166,26.0,feminino,right,España,Catalán,Doctorate,no,no,A,1,conjunction_syn,L3,syncopated,s2,r2,88,Online_conjL3_syn//a.chu.mo27.none.none.wav,ji,li,ko,ñe,sil,di,fu,sa,sil1,le,sil2,['-'],,,none,none,,,,mo,2,testWhatL1Uns//r1.s1.2.wav,4.0,what,unsyncopated,a,s1,rule,rule,L1,m,0.8235,1.0,0.0,0.2022,4.0,3.0,Catalán,0.0,Castellano,0.0,Inglés,6.0,Alemán,17.0,4.0,5.0,no,no,yes,nada,,,,nada,61.0,yes
89,2024-04-11_19h25.21.561,Experiment4_uns,s166,26.0,feminino,right,España,Catalán,Doctorate,no,no,A,1,conjunction_syn,L3,syncopated,s2,r2,89,Online_conjL3_syn//a.chu.mo26.none.none.wav,do,ga,fu,ñe,sil,ko,di,sa,sil1,le,sil2,['-'],,,none,none,,,,mo,2,testWhatL1Uns//time_viol.r1.s1.0.wav,4.0,what,unsyncopated,a,s1,no_rule,time,L1,m,0.3508,4.0,1.0,0.5507,4.0,3.0,Catalán,0.0,Castellano,0.0,Inglés,6.0,Alemán,17.0,4.0,5.0,no,no,yes,nada,,,,nada,61.0,yes
90,2024-04-11_19h25.21.561,Experiment4_uns,s166,26.0,feminino,right,España,Catalán,Doctorate,no,no,A,1,conjunction_syn,L3,syncopated,s2,r1,90,Online_conjL3_syn//a.chu.mo24.666.1554.wav,fu,je,gu,chu,sil,ga,ka,mo,sil1,le,sil2,['catch'],[2.2382000000477547],[2.2382000000477547],1.554,no_beat,0.6842000000477546,0.6842000000477546,"[""space""]",mo,2,testWhatL1Uns//dep_viol.r1.s1.0.wav,4.0,what,unsyncopated,a,s1,no_rule,dep,L1,z,0.3837,3.0,0.0,2.2526,4.0,3.0,Catalán,0.0,Castellano,0.0,Inglés,6.0,Alemán,17.0,4.0,5.0,no,no,yes,nada,,,,nada,61.0,yes
91,2024-04-11_19h25.21.561,Experiment4_uns,s166,26.0,feminino,right,España,Catalán,Doctorate,no,no,A,1,conjunction_syn,L3,syncopated,s1,r1,91,Online_conjL3_syn//a.chu.mo25.0.666.wav,chu,gu,ko,mo,sil,do,ga,fu,sil1,li,sil2,['catch'],[1.3753000000715474],[1.3753000000715474],0.666,no_beat,0.7093000000715474,0.7093000000715474,"[""space""]",mo,2,testWhatL1Uns//cat_viol.r2.s1.0.wav,4.0,what,unsyncopated,b,s1,no_rule,cat,L1,z,0.3004,3.0,0.0,0.4671,4.0,3.0,Catalán,0.0,Castellano,0.0,Inglés,6.0,Alemán,17.0,4.0,5.0,no,no,yes,nada,,,,nada,61.0,yes
92,2024-04-11_19h25.21.561,Experiment4_uns,s166,26.0,feminino,right,España,Catalán,Doctorate,no,no,A,1,conjunction_syn,L3,syncopated,s2,r1,92,Online_conjL3_syn//d.ji.li31.0.222.wav,ji,li,ko,chu,sil,do,ga,mo,sil1,je,sil2,['miss'],,,0.0,beat,,,,ji,4,testWhatL1Uns//dep_viol.r1.s2.0.wav,4.0,what,unsyncopated,a,s2,no_rule,dep,L1,z,1.5669,1.0,0.0,0.8889,4.0,3.0,Catalán,0.0,Castellano,0.0,Inglés,6.0,Alemán,17.0,4.0,5.0,no,no,yes,nada,,,,nada,61.0,yes
93,2024-04-11_19h25.21.561,Experiment4_uns,s166,26.0,feminino,right,España,Catalán,Doctorate,no,no,A,1,conjunction_syn,L3,syncopated,s2,r2,93,Online_conjL3_syn//d.ji.li29.none.none.wav,ka,gu,di,ñe,sil,ko,ga,sa,sil1,le,sil2,['-'],,,none,none,,,,ji,4,testWhatL1Uns//r2.s1.0.wav,4.0,what,unsyncopated,b,s1,rule,rule,L1,z,0.4853,3.0,1.0,1.5621,4.0,3.0,Catalán,0.0,Castellano,0.0,Inglés,6.0,Alemán,17.0,4.0,5.0,no,no,yes,nada,,,,nada,61.0,yes
94,2024-04-11_19h25.21.561,Experiment4_uns,s166,26.0,feminino,right,España,Catalán,Doctorate,no,no,A,1,conjunction_syn,L3,syncopated,s2,r2,94,Online_conjL3_syn//d.ji.li28.none.none.wav,fu,ka,ga,ñe,sil,di,gu,sa,sil1,je,sil2,['-'],,,none,none,,,,ji,4,testWhatL1Uns//cat_viol.r1.s1.0.wav,4.0,what,unsyncopated,a,s1,no_rule,cat,L1,m,0.422,2.0,1.0,0.4981,4.0,3.0,Catalán,0.0,Castellano,0.0,Inglés,6.0,Alemán,17.0,4.0,5.0,no,no,yes,nada,,,,nada,61.0,yes
95,2024-04-11_19h25.21.561,Experiment4_uns,s166,26.0,feminino,right,España,Catalán,Doctorate,no,no,A,1,conjunction_syn,L3,syncopated,s1,r2,95,Online_conjL3_syn//d.ji.li30.none.none.wav,ñe,je,fu,sa,sil,ga,do,le,sil1,di,sil2,['-'],,,none,none,,,,ji,4,testWhatL1Uns//r2.s1.1.wav,4.0,what,unsyncopated,b,s1,rule,rule,L1,z,0.4677,4.0,1.0,0.188,4.0,3.0,Catalán,0.0,Castellano,0.0,Inglés,6.0,Alemán,17.0,4.0,5.0,no,no,yes,nada,,,,nada,61.0,yes
96,2024-04-11_19h25.21.561,Experiment4_uns,s166,26.0,feminino,right,España,Catalán,Doctorate,no,no,A,1,conjunction_syn,L3,syncopated,s2,r1,96,Online_conjL3_syn//a.chu.mo9.666.1554.wav,ka,ko,di,chu,sil,li,ga,mo,sil1,gu,sil2,['miss'],,,1.554,no_beat,,,,mo,2,,,,,,,,,,,,,,,4.0,3.0,Catalán,0.0,Castellano,0.0,Inglés,6.0,Alemán,17.0,4.0,5.0,no,no,yes,nada,,,,nada,61.0,yes
97,2024-04-11_19h25.21.561,Experiment4_uns,s166,26.0,feminino,right,España,Catalán,Doctorate,no,no,A,1,conjunction_syn,L3,syncopated,s1,r2,97,Online_conjL3_syn//a.chu.mo10.none.none.wav,ñe,je,gu,sa,sil,ko,fu,ji,sil1,di,sil2,['-'],,,none,none,,,,mo,2,,,,,,,,,,,,,,,4.0,3.0,Catalán,0.0,Castellano,0.0,Inglés,6.0,Alemán,17.0,4.0,5.0,no,no,yes,nada,,,,nada,61.0,yes
98,2024-04-11_19h25.21.561,Experiment4_uns,s166,26.0,feminino,right,España,Catalán,Doctorate,no,no,A,1,conjunction_syn,L3,syncopated,s2,r2,98,Online_conjL3_syn//a.chu.mo11.none.none.wav,ka,di,je,ñe,sil,ga,ko,sa,sil1,ji,sil2,['-'],,,none,none,,,,mo,2,,,,,,,,,,,,,,,4.0,3.0,Catalán,0.0,Castellano,0.0,Inglés,6.0,Alemán,17.0,4.0,5.0,no,no,yes,nada,,,,nada,61.0,yes
99,2024-04-11_19h25.21.561,Experiment4_uns,s166,26.0,feminino,right,España,Catalán,Doctorate,no,no,A,1,conjunction_syn,L3,syncopated,s1,r2,99,Online_conjL3_syn//a.chu.mo8.none.none.wav,ñe,ga,fu,sa,sil,ji,li,je,sil1,le,sil2,['-'],,,none,none,,,,mo,2,,,,,,,,,,,,,,,4.0,3.0,Catalán,0.0,Castellano,0.0,Inglés,6.0,Alemán,17.0,4.0,5.0,no,no,yes,nada,,,,nada,61.0,yes
100,2024-04-11_19h25.21.561,Experiment4_uns,s166,26.0,feminino,right,España,Catalán,Doctorate,no,no,A,1,conjunction_syn,L3,syncopated,s2,r2,100,Online_conjL3_syn//c.gu.je7.222.444.wav,ko,gu,je,ñe,sil,ji,fu,sa,sil1,ka,sil2,['catch'],[1.1634999999998854],[1.1634999999998854],0.222,no_beat,0.9414999999998854,0.9414999999998854,"[""space""]",gu,3,,,,,,,,,,,,,,,4.0,3.0,Catalán,0.0,Castellano,0.0,Inglés,6.0,Alemán,17.0,4.0,5.0,no,no,yes,nada,,,,nada,61.0,yes
101,2024-04-11_19h25.21.561,Experiment4_uns,s166,26.0,feminino,right,España,Catalán,Doctorate,no,no,A,1,conjunction_syn,L3,syncopated,s1,r2,101,Online_conjL3_syn//c.gu.je4.none.none.wav,ñe,ga,do,sa,sil,ji,ka,fu,sil1,li,sil2,['-'],,,none,none,,,,gu,3,,,,,,,,,,,,,,,4.0,3.0,Catalán,0.0,Castellano,0.0,Inglés,6.0,Alemán,17.0,4.0,5.0,no,no,yes,nada,,,,nada,61.0,yes
102,2024-04-11_19h25.21.561,Experiment4_uns,s166,26.0,feminino,right,España,Catalán,Doctorate,no,no,A,1,conjunction_syn,L3,syncopated,s1,r2,102,Online_conjL3_syn//c.gu.je6.none.none.wav,ñe,di,ka,sa,sil,le,ko,do,sil1,ji,sil2,['-'],,,none,none,,,,gu,3,,,,,,,,,,,,,,,4.0,3.0,Catalán,0.0,Castellano,0.0,Inglés,6.0,Alemán,17.0,4.0,5.0,no,no,yes,nada,,,,nada,61.0,yes
103,2024-04-11_19h25.21.561,Experiment4_uns,s166,26.0,feminino,right,España,Catalán,Doctorate,no,no,A,1,conjunction_syn,L3,syncopated,s2,r2,103,Online_conjL3_syn//c.gu.je5.1332.222.wav,li,je,ko,ñe,sil,di,gu,sa,sil1,do,sil2,['miss'],,,1.332,no_beat,,,,gu,3,,,,,,,,,,,,,,,4.0,3.0,Catalán,0.0,Castellano,0.0,Inglés,6.0,Alemán,17.0,4.0,5.0,no,no,yes,nada,,,,nada,61.0,yes
104,2024-04-11_19h25.21.561,Experiment4_uns,s166,26.0,feminino,right,España,Catalán,Doctorate,no,no,A,1,conjunction_syn,L3,syncopated,s2,r1,104,Online_conjL3_syn//b.ñe.sa6.none.none.wav,le,ka,ko,chu,sil,do,li,mo,sil1,gu,sil2,['-'],,,none,none,,,,ñe,1,,,,,,,,,,,,,,,4.0,3.0,Catalán,0.0,Castellano,0.0,Inglés,6.0,Alemán,17.0,4.0,5.0,no,no,yes,nada,,,,nada,61.0,yes
105,2024-04-11_19h25.21.561,Experiment4_uns,s166,26.0,feminino,right,España,Catalán,Doctorate,no,no,A,1,conjunction_syn,L3,syncopated,s2,r2,105,Online_conjL3_syn//b.ñe.sa4.666.1554.wav,li,di,ka,ñe,sil,do,gu,sa,sil1,ji,sil2,['catch'],[1.3484000000953529],[1.3484000000953529],0.666,no_beat,0.6824000000953528,0.6824000000953528,"[""space""]",ñe,1,,,,,,,,,,,,,,,4.0,3.0,Catalán,0.0,Castellano,0.0,Inglés,6.0,Alemán,17.0,4.0,5.0,no,no,yes,nada,,,,nada,61.0,yes
106,2024-04-11_19h25.21.561,Experiment4_uns,s166,26.0,feminino,right,España,Catalán,Doctorate,no,no,A,1,conjunction_syn,L3,syncopated,s2,r1,106,Online_conjL3_syn//b.ñe.sa5.none.none.wav,le,fu,do,chu,sil,li,ga,mo,sil1,ka,sil2,['-'],,,none,none,,,,ñe,1,,,,,,,,,,,,,,,4.0,3.0,Catalán,0.0,Castellano,0.0,Inglés,6.0,Alemán,17.0,4.0,5.0,no,no,yes,nada,,,,nada,61.0,yes
107,2024-04-11_19h25.21.561,Experiment4_uns,s166,26.0,feminino,right,España,Catalán,Doctorate,no,no,A,1,conjunction_syn,L3,syncopated,s2,r2,107,Online_conjL3_syn//b.ñe.sa7.666.1554.wav,ji,je,ko,ñe,sil,gu,ga,sa,sil1,do,sil2,['catch'],[1.388600000023871],[1.388600000023871],0.666,no_beat,0.7226000000238709,0.7226000000238709,"[""space""]",ñe,1,,,,,,,,,,,,,,,4.0,3.0,Catalán,0.0,Castellano,0.0,Inglés,6.0,Alemán,17.0,4.0,5.0,no,no,yes,nada,,,,nada,61.0,yes
108,2024-04-11_19h25.21.561,Experiment4_uns,s166,26.0,feminino,right,España,Catalán,Doctorate,no,no,A,1,conjunction_syn,L3,syncopated,s1,r1,108,Online_conjL3_syn//c.gu.je1.222.1332.wav,chu,gu,li,mo,sil,di,je,fu,sil1,ka,sil2,['miss'],,,0.222,no_beat,,,,gu,3,,,,,,,,,,,,,,,4.0,3.0,Catalán,0.0,Castellano,0.0,Inglés,6.0,Alemán,17.0,4.0,5.0,no,no,yes,nada,,,,nada,61.0,yes
109,2024-04-11_19h25.21.561,Experiment4_uns,s166,26.0,feminino,right,España,Catalán,Doctorate,no,no,A,1,conjunction_syn,L3,syncopated,s1,r1,109,Online_conjL3_syn//c.gu.je3.none.none.wav,chu,ka,li,mo,sil,ga,le,di,sil1,ji,sil2,['-'],,,none,none,,,,gu,3,,,,,,,,,,,,,,,4.0,3.0,Catalán,0.0,Castellano,0.0,Inglés,6.0,Alemán,17.0,4.0,5.0,no,no,yes,nada,,,,nada,61.0,yes
110,2024-04-11_19h25.21.561,Experiment4_uns,s166,26.0,feminino,right,España,Catalán,Doctorate,no,no,A,1,conjunction_syn,L3,syncopated,s1,r2,110,Online_conjL3_syn//c.gu.je2.none.none.wav,ñe,ka,ga,sa,sil,li,ji,do,sil1,le,sil2,['-'],,,none,none,,,,gu,3,,,,,,,,,,,,,,,4.0,3.0,Catalán,0.0,Castellano,0.0,Inglés,6.0,Alemán,17.0,4.0,5.0,no,no,yes,nada,,,,nada,61.0,yes
111,2024-04-11_19h25.21.561,Experiment4_uns,s166,26.0,feminino,right,España,Catalán,Doctorate,no,no,A,1,conjunction_syn,L3,syncopated,s1,r1,111,Online_conjL3_syn//c.gu.je0.1332.444.wav,chu,ga,je,mo,sil,ko,gu,ji,sil1,do,sil2,['catch'],[2.0722999999522926],[2.0722999999522926],1.332,no_beat,0.7402999999522926,0.7402999999522926,"[""space""]",gu,3,,,,,,,,,,,,,,,4.0,3.0,Catalán,0.0,Castellano,0.0,Inglés,6.0,Alemán,17.0,4.0,5.0,no,no,yes,nada,,,,nada,61.0,yes
112,2024-04-11_19h25.21.561,Experiment4_uns,s166,26.0,feminino,right,España,Catalán,Doctorate,no,no,A,1,conjunction_syn,L3,syncopated,s2,r2,112,Online_conjL3_syn//d.ji.li8.444.0.wav,li,fu,ji,ñe,sil,ko,je,sa,sil1,gu,sil2,['catch'],[1.6922000000477055],[1.6922000000477055],0.444,no_beat,,1.2482000000477056,"[""space""]",ji,4,,,,,,,,,,,,,,,4.0,3.0,Catalán,0.0,Castellano,0.0,Inglés,6.0,Alemán,17.0,4.0,5.0,no,no,yes,nada,,,,nada,61.0,yes
113,2024-04-11_19h25.21.561,Experiment4_uns,s166,26.0,feminino,right,España,Catalán,Doctorate,no,no,A,1,conjunction_syn,L3,syncopated,s1,r1,113,Online_conjL3_syn//d.ji.li10.1554.444.wav,chu,je,li,mo,sil,do,fu,ji,sil1,ko,sil2,['catch'],[2.1541000000238455],[2.1541000000238455],1.554,no_beat,0.6001000000238454,0.6001000000238454,"[""space""]",ji,4,,,,,,,,,,,,,,,4.0,3.0,Catalán,0.0,Castellano,0.0,Inglés,6.0,Alemán,17.0,4.0,5.0,no,no,yes,nada,,,,nada,61.0,yes
114,2024-04-11_19h25.21.561,Experiment4_uns,s166,26.0,feminino,right,España,Catalán,Doctorate,no,no,A,1,conjunction_syn,L3,syncopated,s2,r1,114,Online_conjL3_syn//d.ji.li11.1332.0.wav,li,gu,do,chu,sil,le,ji,mo,sil1,je,sil2,['miss'],,,1.332,no_beat,,,,ji,4,,,,,,,,,,,,,,,4.0,3.0,Catalán,0.0,Castellano,0.0,Inglés,6.0,Alemán,17.0,4.0,5.0,no,no,yes,nada,,,,nada,61.0,yes
115,2024-04-11_19h25.21.561,Experiment4_uns,s166,26.0,feminino,right,España,Catalán,Doctorate,no,no,A,1,conjunction_syn,L3,syncopated,s2,r2,115,Online_conjL3_syn//d.ji.li9.none.none.wav,ka,le,do,ñe,sil,fu,ko,sa,sil1,je,sil2,['-'],,,none,none,,,,ji,4,,,,,,,,,,,,,,,4.0,3.0,Catalán,0.0,Castellano,0.0,Inglés,6.0,Alemán,17.0,4.0,5.0,no,no,yes,nada,,,,nada,61.0,yes
116,2024-04-11_19h25.21.561,Experiment4_uns,s166,26.0,feminino,right,España,Catalán,Doctorate,no,no,A,1,conjunction_syn,L3,syncopated,s2,r2,116,Online_conjL3_syn//c.gu.je25.none.none.wav,fu,ka,di,ñe,sil,do,le,sa,sil1,ji,sil2,['-'],,,none,none,,,,gu,3,,,,,,,,,,,,,,,4.0,3.0,Catalán,0.0,Castellano,0.0,Inglés,6.0,Alemán,17.0,4.0,5.0,no,no,yes,nada,,,,nada,61.0,yes
117,2024-04-11_19h25.21.561,Experiment4_uns,s166,26.0,feminino,right,España,Catalán,Doctorate,no,no,A,1,conjunction_syn,L3,syncopated,s1,r1,117,Online_conjL3_syn//c.gu.je26.none.none.wav,chu,ji,do,mo,sil,ga,le,ko,sil1,ka,sil2,['-'],,,none,none,,,,gu,3,,,,,,,,,,,,,,,4.0,3.0,Catalán,0.0,Castellano,0.0,Inglés,6.0,Alemán,17.0,4.0,5.0,no,no,yes,nada,,,,nada,61.0,yes
118,2024-04-11_19h25.21.561,Experiment4_uns,s166,26.0,feminino,right,España,Catalán,Doctorate,no,no,A,1,conjunction_syn,L3,syncopated,s1,r1,118,Online_conjL3_syn//c.gu.je24.1554.1110.wav,chu,ji,ko,mo,sil,je,li,gu,sil1,ka,sil2,['catch'],[2.5065000000001874],[2.5065000000001874],1.554,no_beat,0.9525000000001872,0.9525000000001872,"[""space""]",gu,3,,,,,,,,,,,,,,,4.0,3.0,Catalán,0.0,Castellano,0.0,Inglés,6.0,Alemán,17.0,4.0,5.0,no,no,yes,nada,,,,nada,61.0,yes
119,2024-04-11_19h25.21.561,Experiment4_uns,s166,26.0,feminino,right,España,Catalán,Doctorate,no,no,A,1,conjunction_syn,L3,syncopated,s1,r2,119,Online_conjL3_syn//c.gu.je27.none.none.wav,ñe,li,fu,sa,sil,di,le,ko,sil1,ji,sil2,['-'],,,none,none,,,,gu,3,,,,,,,,,,,,,,,4.0,3.0,Catalán,0.0,Castellano,0.0,Inglés,6.0,Alemán,17.0,4.0,5.0,no,no,yes,nada,,,,nada,61.0,yes
120,2024-04-11_19h25.21.561,Experiment4_uns,s166,26.0,feminino,right,España,Catalán,Doctorate,no,no,A,1,conjunction_syn,L3,syncopated,s2,r2,120,Online_conjL3_syn//a.chu.mo4.none.none.wav,le,ji,gu,ñe,sil,li,ga,sa,sil1,ka,sil2,['-'],,,none,none,,,,mo,2,,,,,,,,,,,,,,,4.0,3.0,Catalán,0.0,Castellano,0.0,Inglés,6.0,Alemán,17.0,4.0,5.0,no,no,yes,nada,,,,nada,61.0,yes
121,2024-04-11_19h25.21.561,Experiment4_uns,s166,26.0,feminino,right,España,Catalán,Doctorate,no,no,A,1,conjunction_syn,L3,syncopated,s2,r2,121,Online_conjL3_syn//a.chu.mo7.none.none.wav,ko,le,fu,ñe,sil,ka,gu,sa,sil1,do,sil2,['-'],,,none,none,,,,mo,2,,,,,,,,,,,,,,,4.0,3.0,Catalán,0.0,Castellano,0.0,Inglés,6.0,Alemán,17.0,4.0,5.0,no,no,yes,nada,,,,nada,61.0,yes
122,2024-04-11_19h25.21.561,Experiment4_uns,s166,26.0,feminino,right,España,Catalán,Doctorate,no,no,A,1,conjunction_syn,L3,syncopated,s2,r1,122,Online_conjL3_syn//a.chu.mo6.666.1554.wav,ko,di,ga,chu,sil,li,gu,mo,sil1,do,sil2,['miss'],,,1.554,no_beat,,,,mo,2,,,,,,,,,,,,,,,4.0,3.0,Catalán,0.0,Castellano,0.0,Inglés,6.0,Alemán,17.0,4.0,5.0,no,no,yes,nada,,,,nada,61.0,yes
123,2024-04-11_19h25.21.561,Experiment4_uns,s166,26.0,feminino,right,España,Catalán,Doctorate,no,no,A,1,conjunction_syn,L3,syncopated,s2,r2,123,Online_conjL3_syn//a.chu.mo5.none.none.wav,fu,do,le,ñe,sil,di,ga,sa,sil1,ji,sil2,['-'],,,none,none,,,,mo,2,,,,,,,,,,,,,,,4.0,3.0,Catalán,0.0,Castellano,0.0,Inglés,6.0,Alemán,17.0,4.0,5.0,no,no,yes,nada,,,,nada,61.0,yes
124,2024-04-11_19h25.21.561,Experiment4_uns,s166,26.0,feminino,right,España,Catalán,Doctorate,no,no,A,1,conjunction_syn,L3,syncopated,s1,r2,124,Online_conjL3_syn//a.chu.mo18.none.none.wav,ñe,ka,gu,sa,sil,ko,fu,je,sil1,ga,sil2,['-'],,,none,none,,,,mo,2,,,,,,,,,,,,,,,4.0,3.0,Catalán,0.0,Castellano,0.0,Inglés,6.0,Alemán,17.0,4.0,5.0,no,no,yes,nada,,,,nada,61.0,yes
125,2024-04-11_19h25.21.561,Experiment4_uns,s166,26.0,feminino,right,España,Catalán,Doctorate,no,no,A,1,conjunction_syn,L3,syncopated,s1,r2,125,Online_conjL3_syn//a.chu.mo19.none.none.wav,ñe,di,je,sa,sil,ga,do,fu,sil1,ji,sil2,['-'],,,none,none,,,,mo,2,,,,,,,,,,,,,,,4.0,3.0,Catalán,0.0,Castellano,0.0,Inglés,6.0,Alemán,17.0,4.0,5.0,no,no,yes,nada,,,,nada,61.0,yes
126,2024-04-11_19h25.21.561,Experiment4_uns,s166,26.0,feminino,right,España,Catalán,Doctorate,no,no,A,1,conjunction_syn,L3,syncopated,s2,r1,126,Online_conjL3_syn//a.chu.mo16.666.1554.wav,li,je,fu,chu,sil,do,le,mo,sil1,ka,sil2,['catch'],[2.13639999997622],[2.13639999997622],1.554,no_beat,0.5823999999762199,0.5823999999762199,"[""space""]",mo,2,,,,,,,,,,,,,,,4.0,3.0,Catalán,0.0,Castellano,0.0,Inglés,6.0,Alemán,17.0,4.0,5.0,no,no,yes,nada,,,,nada,61.0,yes
127,2024-04-11_19h25.21.561,Experiment4_uns,s166,26.0,feminino,right,España,Catalán,Doctorate,no,no,A,1,conjunction_syn,L3,syncopated,s1,r2,127,Online_conjL3_syn//a.chu.mo17.none.none.wav,ñe,do,ga,sa,sil,fu,je,ji,sil1,ko,sil2,['-'],,,none,none,,,,mo,2,,,,,,,,,,,,,,,4.0,3.0,Catalán,0.0,Castellano,0.0,Inglés,6.0,Alemán,17.0,4.0,5.0,no,no,yes,nada,,,,nada,61.0,yes
128,2024-04-11_19h25.21.561,Experiment4_uns,s166,26.0,feminino,right,España,Catalán,Doctorate,no,no,A,2,when,L2,unsyncopated,when,when,0,Online_whenL2//c.cha30.none.wav,te,mi,to,sil,me,go,si,sil1,ño,du,sil2,['-'],,,none,none,,,,cha,3,,,,,,,,,,,,,,,4.0,3.0,Catalán,0.0,Castellano,0.0,Inglés,6.0,Alemán,17.0,4.0,5.0,no,no,yes,nada,,,,nada,61.0,yes
129,2024-04-11_19h25.21.561,Experiment4_uns,s166,26.0,feminino,right,España,Catalán,Doctorate,no,no,A,2,when,L2,unsyncopated,when,when,1,Online_whenL2//c.cha28.0.wav,cha,fe,to,sil,ba,ñu,me,sil1,go,te,sil2,['catch'],[0.571999999999889],[0.571999999999889],0.0,beat,0.571999999999889,0.571999999999889,"[""space""]",cha,3,,,,,,,,,,,,,,,4.0,3.0,Catalán,0.0,Castellano,0.0,Inglés,6.0,Alemán,17.0,4.0,5.0,no,no,yes,nada,,,,nada,61.0,yes
130,2024-04-11_19h25.21.561,Experiment4_uns,s166,26.0,feminino,right,España,Catalán,Doctorate,no,no,A,2,when,L2,unsyncopated,when,when,2,Online_whenL2//c.cha29.444.wav,go,du,cha,sil,me,ba,su,sil1,ñu,bi,sil2,['catch'],[1.0943000000715983],[1.0943000000715983],0.444,no_beat,0.6503000000715984,0.6503000000715984,"[""space""]",cha,3,,,,,,,,,,,,,,,4.0,3.0,Catalán,0.0,Castellano,0.0,Inglés,6.0,Alemán,17.0,4.0,5.0,no,no,yes,nada,,,,nada,61.0,yes
131,2024-04-11_19h25.21.561,Experiment4_uns,s166,26.0,feminino,right,España,Catalán,Doctorate,no,no,A,2,when,L2,unsyncopated,when,when,3,Online_whenL2//c.cha31.none.wav,to,te,ñu,sil,bi,du,su,sil1,fe,me,sil2,['-'],,,none,none,,,,cha,3,,,,,,,,,,,,,,,4.0,3.0,Catalán,0.0,Castellano,0.0,Inglés,6.0,Alemán,17.0,4.0,5.0,no,no,yes,nada,,,,nada,61.0,yes
132,2024-04-11_19h25.21.561,Experiment4_uns,s166,26.0,feminino,right,España,Catalán,Doctorate,no,no,A,2,when,L2,unsyncopated,when,when,4,Online_whenL2//a.du29.1998.wav,ra,ño,su,sil,bi,si,mi,sil1,me,du,sil2,['catch_delay'],[0.6998999999762565],[0.6998999999762565],1.998,no_beat,0.6998999999762565,0.6998999999762565,,du,2,,,,,,,,,,,,,,,4.0,3.0,Catalán,0.0,Castellano,0.0,Inglés,6.0,Alemán,17.0,4.0,5.0,no,no,yes,nada,,,,nada,61.0,yes
133,2024-04-11_19h25.21.561,Experiment4_uns,s166,26.0,feminino,right,España,Catalán,Doctorate,no,no,A,2,when,L2,unsyncopated,when,when,5,Online_whenL2//a.du28.none.wav,ño,te,to,sil,go,ba,ra,sil1,su,bi,sil2,['-'],[0.03389999997625637],[0.03389999997625637],none,none,,,"[""space""]",du,2,,,,,,,,,,,,,,,4.0,3.0,Catalán,0.0,Castellano,0.0,Inglés,6.0,Alemán,17.0,4.0,5.0,no,no,yes,nada,,,,nada,61.0,yes
134,2024-04-11_19h25.21.561,Experiment4_uns,s166,26.0,feminino,right,España,Catalán,Doctorate,no,no,A,2,when,L2,unsyncopated,when,when,6,Online_whenL2//a.du31.222.wav,ba,du,go,sil,to,si,cha,sil1,mi,bi,sil2,['miss'],,,0.222,no_beat,,,,du,2,,,,,,,,,,,,,,,4.0,3.0,Catalán,0.0,Castellano,0.0,Inglés,6.0,Alemán,17.0,4.0,5.0,no,no,yes,nada,,,,nada,61.0,yes
135,2024-04-11_19h25.21.561,Experiment4_uns,s166,26.0,feminino,right,España,Catalán,Doctorate,no,no,A,2,when,L2,unsyncopated,when,when,7,Online_whenL2//a.du30.none.wav,fe,bi,to,sil,cha,su,ra,sil1,ño,ba,sil2,['-'],,,none,none,,,,du,2,,,,,,,,,,,,,,,4.0,3.0,Catalán,0.0,Castellano,0.0,Inglés,6.0,Alemán,17.0,4.0,5.0,no,no,yes,nada,,,,nada,61.0,yes
136,2024-04-11_19h25.21.561,Experiment4_uns,s166,26.0,feminino,right,España,Catalán,Doctorate,no,no,A,2,when,L2,unsyncopated,when,when,8,Online_whenL2//a.du35.none.wav,to,ñu,su,sil,ba,cha,fe,sil1,ño,go,sil2,['false alarm'],[1.100500000000011],[1.100500000000011],none,none,,,"[""space""]",du,2,,,,,,,,,,,,,,,4.0,3.0,Catalán,0.0,Castellano,0.0,Inglés,6.0,Alemán,17.0,4.0,5.0,no,no,yes,nada,,,,nada,61.0,yes
137,2024-04-11_19h25.21.561,Experiment4_uns,s166,26.0,feminino,right,España,Catalán,Doctorate,no,no,A,2,when,L2,unsyncopated,when,when,9,Online_whenL2//a.du34.1110.wav,ba,ñu,fe,sil,si,du,ño,sil1,te,su,sil2,['miss'],,,1.11,no_beat,,,,du,2,,,,,,,,,,,,,,,4.0,3.0,Catalán,0.0,Castellano,0.0,Inglés,6.0,Alemán,17.0,4.0,5.0,no,no,yes,nada,,,,nada,61.0,yes
138,2024-04-11_19h25.21.561,Experiment4_uns,s166,26.0,feminino,right,España,Catalán,Doctorate,no,no,A,2,when,L2,unsyncopated,when,when,10,Online_whenL2//a.du32.none.wav,to,fe,ñu,sil,cha,te,go,sil1,ño,si,sil2,['false alarm'],[0.26129999995237085],[0.26129999995237085],none,none,,,"[""space""]",du,2,,,,,,,,,,,,,,,4.0,3.0,Catalán,0.0,Castellano,0.0,Inglés,6.0,Alemán,17.0,4.0,5.0,no,no,yes,nada,,,,nada,61.0,yes
139,2024-04-11_19h25.21.561,Experiment4_uns,s166,26.0,feminino,right,España,Catalán,Doctorate,no,no,A,2,when,L2,unsyncopated,when,when,11,Online_whenL2//a.du33.1110.wav,te,su,si,sil,to,du,fe,sil1,mi,me,sil2,['catch'],[1.951100000023871],[1.951100000023871],1.11,no_beat,0.8411000000238709,0.8411000000238709,"[""space""]",du,2,,,,,,,,,,,,,,,4.0,3.0,Catalán,0.0,Castellano,0.0,Inglés,6.0,Alemán,17.0,4.0,5.0,no,no,yes,nada,,,,nada,61.0,yes
140,2024-04-11_19h25.21.561,Experiment4_uns,s166,26.0,feminino,right,España,Catalán,Doctorate,no,no,A,2,when,L2,unsyncopated,when,when,12,Online_whenL2//b.fe26.none.wav,ñu,te,ño,sil,go,mi,me,sil1,du,ba,sil2,['-'],,,none,none,,,,fe,1,,,,,,,,,,,,,,,4.0,3.0,Catalán,0.0,Castellano,0.0,Inglés,6.0,Alemán,17.0,4.0,5.0,no,no,yes,nada,,,,nada,61.0,yes
141,2024-04-11_19h25.21.561,Experiment4_uns,s166,26.0,feminino,right,España,Catalán,Doctorate,no,no,A,2,when,L2,unsyncopated,when,when,13,Online_whenL2//b.fe25.888.wav,ba,me,mi,sil,fe,to,bi,sil1,ñu,du,sil2,['catch'],[1.609300000071471],[1.609300000071471],0.888,beat,0.721300000071471,0.721300000071471,"[""space""]",fe,1,,,,,,,,,,,,,,,4.0,3.0,Catalán,0.0,Castellano,0.0,Inglés,6.0,Alemán,17.0,4.0,5.0,no,no,yes,nada,,,,nada,61.0,yes
142,2024-04-11_19h25.21.561,Experiment4_uns,s166,26.0,feminino,right,España,Catalán,Doctorate,no,no,A,2,when,L2,unsyncopated,when,when,14,Online_whenL2//b.fe24.888.wav,to,te,ñu,sil,fe,su,bi,sil1,du,mi,sil2,['catch'],[1.6197000000477146],[1.6197000000477146],0.888,beat,0.7317000000477146,0.7317000000477146,"[""space""]",fe,1,,,,,,,,,,,,,,,4.0,3.0,Catalán,0.0,Castellano,0.0,Inglés,6.0,Alemán,17.0,4.0,5.0,no,no,yes,nada,,,,nada,61.0,yes
143,2024-04-11_19h25.21.561,Experiment4_uns,s166,26.0,feminino,right,España,Catalán,Doctorate,no,no,A,2,when,L2,unsyncopated,when,when,15,Online_whenL2//b.fe27.888.wav,to,cha,su,sil,fe,me,go,sil1,ñu,ño,sil2,['catch'],[2.1497999999521653],[2.1497999999521653],0.888,beat,,1.2617999999521654,"[""space""]",fe,1,,,,,,,,,,,,,,,4.0,3.0,Catalán,0.0,Castellano,0.0,Inglés,6.0,Alemán,17.0,4.0,5.0,no,no,yes,nada,,,,nada,61.0,yes
144,2024-04-11_19h25.21.561,Experiment4_uns,s166,26.0,feminino,right,España,Catalán,Doctorate,no,no,A,2,when,L2,unsyncopated,when,when,16,Online_whenL2//b.fe30.none.wav,ra,si,su,sil,ñu,go,te,sil1,to,ño,sil2,['-'],,,none,none,,,,fe,1,,,,,,,,,,,,,,,4.0,3.0,Catalán,0.0,Castellano,0.0,Inglés,6.0,Alemán,17.0,4.0,5.0,no,no,yes,nada,,,,nada,61.0,yes
145,2024-04-11_19h25.21.561,Experiment4_uns,s166,26.0,feminino,right,España,Catalán,Doctorate,no,no,A,2,when,L2,unsyncopated,when,when,17,Online_whenL2//b.fe31.none.wav,me,si,ñu,sil,su,go,du,sil1,bi,ba,sil2,['-'],,,none,none,,,,fe,1,,,,,,,,,,,,,,,4.0,3.0,Catalán,0.0,Castellano,0.0,Inglés,6.0,Alemán,17.0,4.0,5.0,no,no,yes,nada,,,,nada,61.0,yes
146,2024-04-11_19h25.21.561,Experiment4_uns,s166,26.0,feminino,right,España,Catalán,Doctorate,no,no,A,2,when,L2,unsyncopated,when,when,18,Online_whenL2//b.fe29.none.wav,ra,ñu,du,sil,ño,bi,to,sil1,mi,su,sil2,['-'],,,none,none,,,,fe,1,,,,,,,,,,,,,,,4.0,3.0,Catalán,0.0,Castellano,0.0,Inglés,6.0,Alemán,17.0,4.0,5.0,no,no,yes,nada,,,,nada,61.0,yes
147,2024-04-11_19h25.21.561,Experiment4_uns,s166,26.0,feminino,right,España,Catalán,Doctorate,no,no,A,2,when,L2,unsyncopated,when,when,19,Online_whenL2//b.fe28.1776.wav,me,su,ba,sil,bi,ño,te,sil1,fe,du,sil2,['catch'],[2.55540000009546],[2.55540000009546],1.776,beat,0.7794000000954602,0.7794000000954602,"[""space""]",fe,1,,,,,,,,,,,,,,,4.0,3.0,Catalán,0.0,Castellano,0.0,Inglés,6.0,Alemán,17.0,4.0,5.0,no,no,yes,nada,,,,nada,61.0,yes
148,2024-04-11_19h25.21.561,Experiment4_uns,s166,26.0,feminino,right,España,Catalán,Doctorate,no,no,A,2,when,L2,unsyncopated,when,when,20,Online_whenL2//a.du7.0.wav,du,ño,te,sil,ñu,to,mi,sil1,su,fe,sil2,['catch'],[0.7173000000716456],[0.7173000000716456],0.0,beat,0.7173000000716456,0.7173000000716456,"[""space""]",du,2,,,,,,,,,,,,,,,4.0,3.0,Catalán,0.0,Castellano,0.0,Inglés,6.0,Alemán,17.0,4.0,5.0,no,no,yes,nada,,,,nada,61.0,yes
149,2024-04-11_19h25.21.561,Experiment4_uns,s166,26.0,feminino,right,España,Catalán,Doctorate,no,no,A,2,when,L2,unsyncopated,when,when,21,Online_whenL2//a.du5.1110.wav,bi,ño,ra,sil,ba,du,mi,sil1,to,ñu,sil2,['catch'],[2.138500000000022],[2.138500000000022],1.11,no_beat,1.0285000000000215,1.0285000000000215,"[""space""]",du,2,,,,,,,,,,,,,,,4.0,3.0,Catalán,0.0,Castellano,0.0,Inglés,6.0,Alemán,17.0,4.0,5.0,no,no,yes,nada,,,,nada,61.0,yes
150,2024-04-11_19h25.21.561,Experiment4_uns,s166,26.0,feminino,right,España,Catalán,Doctorate,no,no,A,2,when,L2,unsyncopated,when,when,22,Online_whenL2//a.du6.888.wav,me,si,bi,sil,du,mi,cha,sil1,te,fe,sil2,['catch'],[1.816799999952309],[1.816799999952309],0.888,beat,0.928799999952309,0.928799999952309,"[""space""]",du,2,,,,,,,,,,,,,,,4.0,3.0,Catalán,0.0,Castellano,0.0,Inglés,6.0,Alemán,17.0,4.0,5.0,no,no,yes,nada,,,,nada,61.0,yes
151,2024-04-11_19h25.21.561,Experiment4_uns,s166,26.0,feminino,right,España,Catalán,Doctorate,no,no,A,2,when,L2,unsyncopated,when,when,23,Online_whenL2//a.du4.1998.wav,cha,si,go,sil,mi,ñu,me,sil1,su,du,sil2,['catch_delay'],[0.6855000000001075],[0.6855000000001075],1.998,no_beat,0.6855000000001075,0.6855000000001075,,du,2,,,,,,,,,,,,,,,4.0,3.0,Catalán,0.0,Castellano,0.0,Inglés,6.0,Alemán,17.0,4.0,5.0,no,no,yes,nada,,,,nada,61.0,yes
152,2024-04-11_19h25.21.561,Experiment4_uns,s166,26.0,feminino,right,España,Catalán,Doctorate,no,no,A,2,when,L2,unsyncopated,when,when,24,Online_whenL2//d.si29.888.wav,cha,me,su,sil,si,mi,te,sil1,ra,go,sil2,['catch'],"[0.01950000000010732, 1.5144999999999982]",[1.5144999999999982],0.888,beat,0.6264999999999982,0.6264999999999982,"[""space"",""space""]",si,4,,,,,,,,,,,,,,,4.0,3.0,Catalán,0.0,Castellano,0.0,Inglés,6.0,Alemán,17.0,4.0,5.0,no,no,yes,nada,,,,nada,61.0,yes
153,2024-04-11_19h25.21.561,Experiment4_uns,s166,26.0,feminino,right,España,Catalán,Doctorate,no,no,A,2,when,L2,unsyncopated,when,when,25,Online_whenL2//d.si30.none.wav,me,ba,cha,sil,ño,te,bi,sil1,du,go,sil2,['-'],,,none,none,,,,si,4,,,,,,,,,,,,,,,4.0,3.0,Catalán,0.0,Castellano,0.0,Inglés,6.0,Alemán,17.0,4.0,5.0,no,no,yes,nada,,,,nada,61.0,yes
154,2024-04-11_19h25.21.561,Experiment4_uns,s166,26.0,feminino,right,España,Catalán,Doctorate,no,no,A,2,when,L2,unsyncopated,when,when,26,Online_whenL2//d.si28.888.wav,ñu,fe,bi,sil,si,cha,to,sil1,du,ba,sil2,['catch'],[1.5231999999284653],[1.5231999999284653],0.888,beat,0.6351999999284653,0.6351999999284653,"[""space""]",si,4,,,,,,,,,,,,,,,4.0,3.0,Catalán,0.0,Castellano,0.0,Inglés,6.0,Alemán,17.0,4.0,5.0,no,no,yes,nada,,,,nada,61.0,yes
155,2024-04-11_19h25.21.561,Experiment4_uns,s166,26.0,feminino,right,España,Catalán,Doctorate,no,no,A,2,when,L2,unsyncopated,when,when,27,Online_whenL2//d.si31.none.wav,su,ba,te,sil,ra,ño,to,sil1,mi,go,sil2,['-'],,,none,none,,,,si,4,,,,,,,,,,,,,,,4.0,3.0,Catalán,0.0,Castellano,0.0,Inglés,6.0,Alemán,17.0,4.0,5.0,no,no,yes,nada,,,,nada,61.0,yes
156,2024-04-11_19h25.21.561,Experiment4_uns,s166,26.0,feminino,right,España,Catalán,Doctorate,no,no,A,2,when,L2,unsyncopated,when,when,28,Online_whenL2//d.si20.1998.wav,ba,mi,ñu,sil,cha,to,go,sil1,ra,si,sil2,['miss'],,,1.998,no_beat,,,,si,4,,,,,,,,,,,,,,,4.0,3.0,Catalán,0.0,Castellano,0.0,Inglés,6.0,Alemán,17.0,4.0,5.0,no,no,yes,nada,,,,nada,61.0,yes
157,2024-04-11_19h25.21.561,Experiment4_uns,s166,26.0,feminino,right,España,Catalán,Doctorate,no,no,A,2,when,L2,unsyncopated,when,when,29,Online_whenL2//d.si21.none.wav,te,me,bi,sil,go,ñu,to,sil1,ra,ño,sil2,['-'],,,none,none,,,,si,4,,,,,,,,,,,,,,,4.0,3.0,Catalán,0.0,Castellano,0.0,Inglés,6.0,Alemán,17.0,4.0,5.0,no,no,yes,nada,,,,nada,61.0,yes
158,2024-04-11_19h25.21.561,Experiment4_uns,s166,26.0,feminino,right,España,Catalán,Doctorate,no,no,A,2,when,L2,unsyncopated,when,when,30,Online_whenL2//d.si22.none.wav,te,du,fe,sil,cha,su,ñu,sil1,me,ba,sil2,['-'],,,none,none,,,,si,4,,,,,,,,,,,,,,,4.0,3.0,Catalán,0.0,Castellano,0.0,Inglés,6.0,Alemán,17.0,4.0,5.0,no,no,yes,nada,,,,nada,61.0,yes
159,2024-04-11_19h25.21.561,Experiment4_uns,s166,26.0,feminino,right,España,Catalán,Doctorate,no,no,A,2,when,L2,unsyncopated,when,when,31,Online_whenL2//d.si23.none.wav,to,mi,ba,sil,go,du,ñu,sil1,te,ño,sil2,['-'],,,none,none,,,,si,4,,,,,,,,,,,,,,,4.0,3.0,Catalán,0.0,Castellano,0.0,Inglés,6.0,Alemán,17.0,4.0,5.0,no,no,yes,nada,,,,nada,61.0,yes
160,2024-04-11_19h25.21.561,Experiment4_uns,s166,26.0,feminino,right,España,Catalán,Doctorate,no,no,A,2,when,L2,unsyncopated,when,when,32,Online_whenL2//a.du25.444.wav,ñu,cha,du,sil,mi,su,si,sil1,go,me,sil2,['catch'],[1.1469999999999345],[1.1469999999999345],0.444,no_beat,0.7029999999999346,0.7029999999999346,"[""space""]",du,2,,,,,,,,,,,,,,,4.0,3.0,Catalán,0.0,Castellano,0.0,Inglés,6.0,Alemán,17.0,4.0,5.0,no,no,yes,nada,,,,nada,61.0,yes
161,2024-04-11_19h25.21.561,Experiment4_uns,s166,26.0,feminino,right,España,Catalán,Doctorate,no,no,A,2,when,L2,unsyncopated,when,when,33,Online_whenL2//a.du26.none.wav,bi,ra,te,sil,ba,si,ño,sil1,go,to,sil2,['-'],,,none,none,,,,du,2,,,,,,,,,,,,,,,4.0,3.0,Catalán,0.0,Castellano,0.0,Inglés,6.0,Alemán,17.0,4.0,5.0,no,no,yes,nada,,,,nada,61.0,yes
162,2024-04-11_19h25.21.561,Experiment4_uns,s166,26.0,feminino,right,España,Catalán,Doctorate,no,no,A,2,when,L2,unsyncopated,when,when,34,Online_whenL2//a.du27.none.wav,su,go,bi,sil,fe,to,ño,sil1,si,te,sil2,['-'],,,none,none,,,,du,2,,,,,,,,,,,,,,,4.0,3.0,Catalán,0.0,Castellano,0.0,Inglés,6.0,Alemán,17.0,4.0,5.0,no,no,yes,nada,,,,nada,61.0,yes
163,2024-04-11_19h25.21.561,Experiment4_uns,s166,26.0,feminino,right,España,Catalán,Doctorate,no,no,A,2,when,L2,unsyncopated,when,when,35,Online_whenL2//a.du24.222.wav,me,du,to,sil,su,te,ra,sil1,bi,ñu,sil2,['catch'],[0.8876000000238946],[0.8876000000238946],0.222,no_beat,0.6656000000238946,0.6656000000238946,"[""space""]",du,2,,,,,,,,,,,,,,,4.0,3.0,Catalán,0.0,Castellano,0.0,Inglés,6.0,Alemán,17.0,4.0,5.0,no,no,yes,nada,,,,nada,61.0,yes
164,2024-04-11_19h25.21.561,Experiment4_uns,s166,26.0,feminino,right,España,Catalán,Doctorate,no,no,A,2,when,L2,unsyncopated,when,when,36,Online_whenL2//b.fe8.none.wav,su,to,go,sil,mi,ra,si,sil1,ba,ñu,sil2,['-'],,,none,none,,,,fe,1,,,,,,,,,,,,,,,4.0,3.0,Catalán,0.0,Castellano,0.0,Inglés,6.0,Alemán,17.0,4.0,5.0,no,no,yes,nada,,,,nada,61.0,yes
165,2024-04-11_19h25.21.561,Experiment4_uns,s166,26.0,feminino,right,España,Catalán,Doctorate,no,no,A,2,when,L2,unsyncopated,when,when,37,Online_whenL2//b.fe10.none.wav,to,du,su,sil,mi,ño,ba,sil1,bi,ra,sil2,['-'],,,none,none,,,,fe,1,,,,,,,,,,,,,,,4.0,3.0,Catalán,0.0,Castellano,0.0,Inglés,6.0,Alemán,17.0,4.0,5.0,no,no,yes,nada,,,,nada,61.0,yes
166,2024-04-11_19h25.21.561,Experiment4_uns,s166,26.0,feminino,right,España,Catalán,Doctorate,no,no,A,2,when,L2,unsyncopated,when,when,38,Online_whenL2//b.fe11.1332.wav,ba,bi,go,sil,su,mi,fe,sil1,si,me,sil2,['catch'],[2.104399999976067],[2.104399999976067],1.332,no_beat,0.7723999999760671,0.7723999999760671,"[""space""]",fe,1,,,,,,,,,,,,,,,4.0,3.0,Catalán,0.0,Castellano,0.0,Inglés,6.0,Alemán,17.0,4.0,5.0,no,no,yes,nada,,,,nada,61.0,yes
167,2024-04-11_19h25.21.561,Experiment4_uns,s166,26.0,feminino,right,España,Catalán,Doctorate,no,no,A,2,when,L2,unsyncopated,when,when,39,Online_whenL2//b.fe9.none.wav,du,ñu,su,sil,te,to,go,sil1,ño,me,sil2,['-'],,,none,none,,,,fe,1,,,,,,,,,,,,,,,4.0,3.0,Catalán,0.0,Castellano,0.0,Inglés,6.0,Alemán,17.0,4.0,5.0,no,no,yes,nada,,,,nada,61.0,yes
168,2024-04-11_19h25.21.561,Experiment4_uns,s166,26.0,feminino,right,España,Catalán,Doctorate,no,no,A,2,when,L2,unsyncopated,when,when,40,Online_whenL2//d.si18.222.wav,ñu,si,bi,sil,cha,du,me,sil1,fe,ño,sil2,['catch'],[0.8025000000000091],[0.8025000000000091],0.222,no_beat,0.5805000000000091,0.5805000000000091,"[""space""]",si,4,,,,,,,,,,,,,,,4.0,3.0,Catalán,0.0,Castellano,0.0,Inglés,6.0,Alemán,17.0,4.0,5.0,no,no,yes,nada,,,,nada,61.0,yes
169,2024-04-11_19h25.21.561,Experiment4_uns,s166,26.0,feminino,right,España,Catalán,Doctorate,no,no,A,2,when,L2,unsyncopated,when,when,41,Online_whenL2//d.si16.none.wav,su,fe,mi,sil,ño,te,me,sil1,du,ba,sil2,['-'],,,none,none,,,,si,4,,,,,,,,,,,,,,,4.0,3.0,Catalán,0.0,Castellano,0.0,Inglés,6.0,Alemán,17.0,4.0,5.0,no,no,yes,nada,,,,nada,61.0,yes
170,2024-04-11_19h25.21.561,Experiment4_uns,s166,26.0,feminino,right,España,Catalán,Doctorate,no,no,A,2,when,L2,unsyncopated,when,when,42,Online_whenL2//d.si17.none.wav,mi,su,to,sil,go,ño,du,sil1,cha,ñu,sil2,['-'],,,none,none,,,,si,4,,,,,,,,,,,,,,,4.0,3.0,Catalán,0.0,Castellano,0.0,Inglés,6.0,Alemán,17.0,4.0,5.0,no,no,yes,nada,,,,nada,61.0,yes
171,2024-04-11_19h25.21.561,Experiment4_uns,s166,26.0,feminino,right,España,Catalán,Doctorate,no,no,A,2,when,L2,unsyncopated,when,when,43,Online_whenL2//d.si19.none.wav,bi,mi,su,sil,me,cha,du,sil1,fe,te,sil2,['-'],,,none,none,,,,si,4,,,,,,,,,,,,,,,4.0,3.0,Catalán,0.0,Castellano,0.0,Inglés,6.0,Alemán,17.0,4.0,5.0,no,no,yes,nada,,,,nada,61.0,yes
172,2024-04-11_19h25.21.561,Experiment4_uns,s166,26.0,feminino,right,España,Catalán,Doctorate,no,no,A,2,when,L2,unsyncopated,when,when,44,Online_whenL2//c.cha17.none.wav,te,ñu,su,sil,mi,go,me,sil1,ra,si,sil2,['-'],,,none,none,,,,cha,3,,,,,,,,,,,,,,,4.0,3.0,Catalán,0.0,Castellano,0.0,Inglés,6.0,Alemán,17.0,4.0,5.0,no,no,yes,nada,,,,nada,61.0,yes
173,2024-04-11_19h25.21.561,Experiment4_uns,s166,26.0,feminino,right,España,Catalán,Doctorate,no,no,A,2,when,L2,unsyncopated,when,when,45,Online_whenL2//c.cha18.1776.wav,ra,ñu,ño,sil,si,to,te,sil1,cha,du,sil2,['catch'],[2.5518999999762855],[2.5518999999762855],1.776,beat,0.7758999999762854,0.7758999999762854,"[""space""]",cha,3,,,,,,,,,,,,,,,4.0,3.0,Catalán,0.0,Castellano,0.0,Inglés,6.0,Alemán,17.0,4.0,5.0,no,no,yes,nada,,,,nada,61.0,yes
174,2024-04-11_19h25.21.561,Experiment4_uns,s166,26.0,feminino,right,España,Catalán,Doctorate,no,no,A,2,when,L2,unsyncopated,when,when,46,Online_whenL2//c.cha19.1998.wav,go,si,du,sil,ñu,to,ba,sil1,te,cha,sil2,['catch_delay'],[0.8016000000237147],[0.8016000000237147],1.998,no_beat,0.8016000000237147,0.8016000000237147,,cha,3,,,,,,,,,,,,,,,4.0,3.0,Catalán,0.0,Castellano,0.0,Inglés,6.0,Alemán,17.0,4.0,5.0,no,no,yes,nada,,,,nada,61.0,yes
175,2024-04-11_19h25.21.561,Experiment4_uns,s166,26.0,feminino,right,España,Catalán,Doctorate,no,no,A,2,when,L2,unsyncopated,when,when,47,Online_whenL2//c.cha16.none.wav,te,su,to,sil,du,ra,me,sil1,si,mi,sil2,['-'],[0.13560000002371453],[0.13560000002371453],none,none,,,"[""space""]",cha,3,,,,,,,,,,,,,,,4.0,3.0,Catalán,0.0,Castellano,0.0,Inglés,6.0,Alemán,17.0,4.0,5.0,no,no,yes,nada,,,,nada,61.0,yes
176,2024-04-11_19h25.21.561,Experiment4_uns,s166,26.0,feminino,right,España,Catalán,Doctorate,no,no,A,2,when,L2,unsyncopated,when,when,48,Online_whenL2//b.fe12.none.wav,su,si,te,sil,cha,go,ñu,sil1,to,du,sil2,['-'],,,none,none,,,,fe,1,,,,,,,,,,,,,,,4.0,3.0,Catalán,0.0,Castellano,0.0,Inglés,6.0,Alemán,17.0,4.0,5.0,no,no,yes,nada,,,,nada,61.0,yes
177,2024-04-11_19h25.21.561,Experiment4_uns,s166,26.0,feminino,right,España,Catalán,Doctorate,no,no,A,2,when,L2,unsyncopated,when,when,49,Online_whenL2//b.fe14.none.wav,ra,du,ba,sil,to,bi,su,sil1,te,ñu,sil2,['-'],,,none,none,,,,fe,1,,,,,,,,,,,,,,,4.0,3.0,Catalán,0.0,Castellano,0.0,Inglés,6.0,Alemán,17.0,4.0,5.0,no,no,yes,nada,,,,nada,61.0,yes
178,2024-04-11_19h25.21.561,Experiment4_uns,s166,26.0,feminino,right,España,Catalán,Doctorate,no,no,A,2,when,L2,unsyncopated,when,when,50,Online_whenL2//b.fe15.none.wav,ño,su,to,sil,du,me,go,sil1,cha,mi,sil2,['-'],,,none,none,,,,fe,1,,,,,,,,,,,,,,,4.0,3.0,Catalán,0.0,Castellano,0.0,Inglés,6.0,Alemán,17.0,4.0,5.0,no,no,yes,nada,,,,nada,61.0,yes
179,2024-04-11_19h25.21.561,Experiment4_uns,s166,26.0,feminino,right,España,Catalán,Doctorate,no,no,A,2,when,L2,unsyncopated,when,when,51,Online_whenL2//b.fe13.none.wav,te,su,ra,sil,si,go,ba,sil1,me,mi,sil2,['-'],,,none,none,,,,fe,1,,,,,,,,,,,,,,,4.0,3.0,Catalán,0.0,Castellano,0.0,Inglés,6.0,Alemán,17.0,4.0,5.0,no,no,yes,nada,,,,nada,61.0,yes
180,2024-04-11_19h25.21.561,Experiment4_uns,s166,26.0,feminino,right,España,Catalán,Doctorate,no,no,A,2,when,L2,unsyncopated,when,when,52,Online_whenL2//b.fe19.none.wav,ño,ra,su,sil,cha,du,to,sil1,si,me,sil2,['-'],,,none,none,,,,fe,1,,,,,,,,,,,,,,,4.0,3.0,Catalán,0.0,Castellano,0.0,Inglés,6.0,Alemán,17.0,4.0,5.0,no,no,yes,nada,,,,nada,61.0,yes
181,2024-04-11_19h25.21.561,Experiment4_uns,s166,26.0,feminino,right,España,Catalán,Doctorate,no,no,A,2,when,L2,unsyncopated,when,when,53,Online_whenL2//b.fe17.222.wav,te,fe,ño,sil,su,mi,ra,sil1,si,ñu,sil2,['catch'],[1.0644999999999527],[1.0644999999999527],0.222,no_beat,0.8424999999999527,0.8424999999999527,"[""space""]",fe,1,,,,,,,,,,,,,,,4.0,3.0,Catalán,0.0,Castellano,0.0,Inglés,6.0,Alemán,17.0,4.0,5.0,no,no,yes,nada,,,,nada,61.0,yes
182,2024-04-11_19h25.21.561,Experiment4_uns,s166,26.0,feminino,right,España,Catalán,Doctorate,no,no,A,2,when,L2,unsyncopated,when,when,54,Online_whenL2//b.fe16.1998.wav,cha,ba,te,sil,ra,ño,si,sil1,me,fe,sil2,['miss'],,,1.998,no_beat,,,,fe,1,,,,,,,,,,,,,,,4.0,3.0,Catalán,0.0,Castellano,0.0,Inglés,6.0,Alemán,17.0,4.0,5.0,no,no,yes,nada,,,,nada,61.0,yes
183,2024-04-11_19h25.21.561,Experiment4_uns,s166,26.0,feminino,right,España,Catalán,Doctorate,no,no,A,2,when,L2,unsyncopated,when,when,55,Online_whenL2//b.fe18.none.wav,mi,go,su,sil,ba,ra,si,sil1,cha,bi,sil2,['-'],,,none,none,,,,fe,1,,,,,,,,,,,,,,,4.0,3.0,Catalán,0.0,Castellano,0.0,Inglés,6.0,Alemán,17.0,4.0,5.0,no,no,yes,nada,,,,nada,61.0,yes
184,2024-04-11_19h25.21.561,Experiment4_uns,s166,26.0,feminino,right,España,Catalán,Doctorate,no,no,A,2,when,L2,unsyncopated,when,when,56,Online_whenL2//a.du9.1332.wav,bi,cha,su,sil,ñu,ba,du,sil1,ra,me,sil2,['catch'],[2.0497999999522563],[2.0497999999522563],1.332,no_beat,0.7177999999522562,0.7177999999522562,"[""space""]",du,2,,,,,,,,,,,,,,,4.0,3.0,Catalán,0.0,Castellano,0.0,Inglés,6.0,Alemán,17.0,4.0,5.0,no,no,yes,nada,,,,nada,61.0,yes
185,2024-04-11_19h25.21.561,Experiment4_uns,s166,26.0,feminino,right,España,Catalán,Doctorate,no,no,A,2,when,L2,unsyncopated,when,when,57,Online_whenL2//a.du10.none.wav,cha,ño,to,sil,ra,bi,fe,sil1,ba,mi,sil2,['-'],,,none,none,,,,du,2,,,,,,,,,,,,,,,4.0,3.0,Catalán,0.0,Castellano,0.0,Inglés,6.0,Alemán,17.0,4.0,5.0,no,no,yes,nada,,,,nada,61.0,yes
186,2024-04-11_19h25.21.561,Experiment4_uns,s166,26.0,feminino,right,España,Catalán,Doctorate,no,no,A,2,when,L2,unsyncopated,when,when,58,Online_whenL2//a.du11.1998.wav,me,te,go,sil,mi,ñu,si,sil1,bi,du,sil2,['catch_delay'],[0.9973000000714511],[0.9973000000714511],1.998,no_beat,0.9973000000714513,0.9973000000714513,,du,2,,,,,,,,,,,,,,,4.0,3.0,Catalán,0.0,Castellano,0.0,Inglés,6.0,Alemán,17.0,4.0,5.0,no,no,yes,nada,,,,nada,61.0,yes
187,2024-04-11_19h25.21.561,Experiment4_uns,s166,26.0,feminino,right,España,Catalán,Doctorate,no,no,A,2,when,L2,unsyncopated,when,when,59,Online_whenL2//a.du8.none.wav,ño,su,to,sil,go,te,bi,sil1,ra,si,sil2,['-'],[0.331300000071451],[0.331300000071451],none,none,,,"[""space""]",du,2,,,,,,,,,,,,,,,4.0,3.0,Catalán,0.0,Castellano,0.0,Inglés,6.0,Alemán,17.0,4.0,5.0,no,no,yes,nada,,,,nada,61.0,yes
188,2024-04-11_19h25.21.561,Experiment4_uns,s166,26.0,feminino,right,España,Catalán,Doctorate,no,no,A,2,when,L2,unsyncopated,when,when,60,Online_whenL2//a.du14.none.wav,ño,to,bi,sil,ra,mi,me,sil1,ba,fe,sil2,['-'],,,none,none,,,,du,2,,,,,,,,,,,,,,,4.0,3.0,Catalán,0.0,Castellano,0.0,Inglés,6.0,Alemán,17.0,4.0,5.0,no,no,yes,nada,,,,nada,61.0,yes
189,2024-04-11_19h25.21.561,Experiment4_uns,s166,26.0,feminino,right,España,Catalán,Doctorate,no,no,A,2,when,L2,unsyncopated,when,when,61,Online_whenL2//a.du12.none.wav,si,bi,fe,sil,ño,mi,su,sil1,ra,me,sil2,['-'],,,none,none,,,,du,2,,,,,,,,,,,,,,,4.0,3.0,Catalán,0.0,Castellano,0.0,Inglés,6.0,Alemán,17.0,4.0,5.0,no,no,yes,nada,,,,nada,61.0,yes
190,2024-04-11_19h25.21.561,Experiment4_uns,s166,26.0,feminino,right,España,Catalán,Doctorate,no,no,A,2,when,L2,unsyncopated,when,when,62,Online_whenL2//a.du13.0.wav,du,ño,to,sil,me,ra,mi,sil1,bi,ba,sil2,['catch'],[0.7976000000239765],[0.7976000000239765],0.0,beat,0.7976000000239765,0.7976000000239765,"[""space""]",du,2,,,,,,,,,,,,,,,4.0,3.0,Catalán,0.0,Castellano,0.0,Inglés,6.0,Alemán,17.0,4.0,5.0,no,no,yes,nada,,,,nada,61.0,yes
191,2024-04-11_19h25.21.561,Experiment4_uns,s166,26.0,feminino,right,España,Catalán,Doctorate,no,no,A,2,when,L2,unsyncopated,when,when,63,Online_whenL2//a.du15.1998.wav,su,si,me,sil,ño,te,mi,sil1,go,du,sil2,['catch_delay'],[0.7604000000954476],[0.7604000000954476],1.998,no_beat,0.7604000000954476,0.7604000000954476,,du,2,,,,,,,,,,,,,,,4.0,3.0,Catalán,0.0,Castellano,0.0,Inglés,6.0,Alemán,17.0,4.0,5.0,no,no,yes,nada,,,,nada,61.0,yes
192,2024-04-11_19h25.21.561,Experiment4_uns,s166,26.0,feminino,right,España,Catalán,Doctorate,no,no,A,2,when,L2,unsyncopated,when,when,64,Online_whenL2//d.si14.1332.wav,ba,te,bi,sil,go,su,si,sil1,du,ñu,sil2,['catch'],"[0.09440000009544747, 2.1720000000000255]",[2.1720000000000255],1.332,no_beat,0.8400000000000254,0.8400000000000254,"[""space"",""space""]",si,4,,,,,,,,,,,,,,,4.0,3.0,Catalán,0.0,Castellano,0.0,Inglés,6.0,Alemán,17.0,4.0,5.0,no,no,yes,nada,,,,nada,61.0,yes
193,2024-04-11_19h25.21.561,Experiment4_uns,s166,26.0,feminino,right,España,Catalán,Doctorate,no,no,A,2,when,L2,unsyncopated,when,when,65,Online_whenL2//d.si12.1776.wav,mi,du,to,sil,go,ño,bi,sil1,si,cha,sil2,['catch'],[2.55310000002396],[2.55310000002396],1.776,beat,0.7771000000239601,0.7771000000239601,"[""space""]",si,4,,,,,,,,,,,,,,,4.0,3.0,Catalán,0.0,Castellano,0.0,Inglés,6.0,Alemán,17.0,4.0,5.0,no,no,yes,nada,,,,nada,61.0,yes
194,2024-04-11_19h25.21.561,Experiment4_uns,s166,26.0,feminino,right,España,Catalán,Doctorate,no,no,A,2,when,L2,unsyncopated,when,when,66,Online_whenL2//d.si13.444.wav,go,ñu,si,sil,bi,to,ño,sil1,fe,mi,sil2,['catch'],[1.3624999999999545],[1.3624999999999545],0.444,no_beat,0.9184999999999546,0.9184999999999546,"[""space""]",si,4,,,,,,,,,,,,,,,4.0,3.0,Catalán,0.0,Castellano,0.0,Inglés,6.0,Alemán,17.0,4.0,5.0,no,no,yes,nada,,,,nada,61.0,yes
195,2024-04-11_19h25.21.561,Experiment4_uns,s166,26.0,feminino,right,España,Catalán,Doctorate,no,no,A,2,when,L2,unsyncopated,when,when,67,Online_whenL2//d.si15.1332.wav,mi,ño,ba,sil,ra,fe,si,sil1,ñu,me,sil2,['catch'],[2.023700000047711],[2.023700000047711],1.332,no_beat,0.6917000000477109,0.6917000000477109,"[""space""]",si,4,,,,,,,,,,,,,,,4.0,3.0,Catalán,0.0,Castellano,0.0,Inglés,6.0,Alemán,17.0,4.0,5.0,no,no,yes,nada,,,,nada,61.0,yes
196,2024-04-11_19h25.21.561,Experiment4_uns,s166,26.0,feminino,right,España,Catalán,Doctorate,no,no,A,2,when,L2,unsyncopated,when,when,68,Online_whenL2//d.si27.1110.wav,fe,te,ñu,sil,ño,si,mi,sil1,me,go,sil2,['catch'],[1.9128000000714565],[1.9128000000714565],1.11,no_beat,0.8028000000714564,0.8028000000714564,"[""space""]",si,4,,,,,,,,,,,,,,,4.0,3.0,Catalán,0.0,Castellano,0.0,Inglés,6.0,Alemán,17.0,4.0,5.0,no,no,yes,nada,,,,nada,61.0,yes
197,2024-04-11_19h25.21.561,Experiment4_uns,s166,26.0,feminino,right,España,Catalán,Doctorate,no,no,A,2,when,L2,unsyncopated,when,when,69,Online_whenL2//d.si25.none.wav,ño,ra,me,sil,to,go,te,sil1,su,mi,sil2,['-'],,,none,none,,,,si,4,,,,,,,,,,,,,,,4.0,3.0,Catalán,0.0,Castellano,0.0,Inglés,6.0,Alemán,17.0,4.0,5.0,no,no,yes,nada,,,,nada,61.0,yes
198,2024-04-11_19h25.21.561,Experiment4_uns,s166,26.0,feminino,right,España,Catalán,Doctorate,no,no,A,2,when,L2,unsyncopated,when,when,70,Online_whenL2//d.si26.none.wav,ra,ño,cha,sil,to,su,bi,sil1,ñu,fe,sil2,['-'],,,none,none,,,,si,4,,,,,,,,,,,,,,,4.0,3.0,Catalán,0.0,Castellano,0.0,Inglés,6.0,Alemán,17.0,4.0,5.0,no,no,yes,nada,,,,nada,61.0,yes
199,2024-04-11_19h25.21.561,Experiment4_uns,s166,26.0,feminino,right,España,Catalán,Doctorate,no,no,A,2,when,L2,unsyncopated,when,when,71,Online_whenL2//d.si24.1332.wav,me,du,bi,sil,ñu,cha,si,sil1,ra,su,sil2,['catch'],[2.1057999999522963],[2.1057999999522963],1.332,no_beat,0.7737999999522962,0.7737999999522962,"[""space""]",si,4,,,,,,,,,,,,,,,4.0,3.0,Catalán,0.0,Castellano,0.0,Inglés,6.0,Alemán,17.0,4.0,5.0,no,no,yes,nada,,,,nada,61.0,yes
200,2024-04-11_19h25.21.561,Experiment4_uns,s166,26.0,feminino,right,España,Catalán,Doctorate,no,no,A,2,when,L2,unsyncopated,when,when,72,Online_whenL2//a.du17.none.wav,ra,go,su,sil,me,si,cha,sil1,bi,te,sil2,['-'],,,none,none,,,,du,2,,,,,,,,,,,,,,,4.0,3.0,Catalán,0.0,Castellano,0.0,Inglés,6.0,Alemán,17.0,4.0,5.0,no,no,yes,nada,,,,nada,61.0,yes
201,2024-04-11_19h25.21.561,Experiment4_uns,s166,26.0,feminino,right,España,Catalán,Doctorate,no,no,A,2,when,L2,unsyncopated,when,when,73,Online_whenL2//a.du19.none.wav,su,ñu,to,sil,bi,fe,me,sil1,ño,go,sil2,['-'],,,none,none,,,,du,2,,,,,,,,,,,,,,,4.0,3.0,Catalán,0.0,Castellano,0.0,Inglés,6.0,Alemán,17.0,4.0,5.0,no,no,yes,nada,,,,nada,61.0,yes
202,2024-04-11_19h25.21.561,Experiment4_uns,s166,26.0,feminino,right,España,Catalán,Doctorate,no,no,A,2,when,L2,unsyncopated,when,when,74,Online_whenL2//a.du16.none.wav,ñu,te,to,sil,su,me,si,sil1,ra,fe,sil2,['-'],,,none,none,,,,du,2,,,,,,,,,,,,,,,4.0,3.0,Catalán,0.0,Castellano,0.0,Inglés,6.0,Alemán,17.0,4.0,5.0,no,no,yes,nada,,,,nada,61.0,yes
203,2024-04-11_19h25.21.561,Experiment4_uns,s166,26.0,feminino,right,España,Catalán,Doctorate,no,no,A,2,when,L2,unsyncopated,when,when,75,Online_whenL2//a.du18.none.wav,go,fe,te,sil,si,cha,ba,sil1,ño,to,sil2,['-'],,,none,none,,,,du,2,,,,,,,,,,,,,,,4.0,3.0,Catalán,0.0,Castellano,0.0,Inglés,6.0,Alemán,17.0,4.0,5.0,no,no,yes,nada,,,,nada,61.0,yes
204,2024-04-11_19h25.21.561,Experiment4_uns,s166,26.0,feminino,right,España,Catalán,Doctorate,no,no,A,2,when,L2,unsyncopated,when,when,76,Online_whenL2//c.cha4.222.wav,bi,cha,ñu,sil,su,mi,du,sil1,si,fe,sil2,['catch'],[0.96389999997632],[0.96389999997632],0.222,no_beat,0.7418999999763201,0.7418999999763201,"[""space""]",cha,3,,,,,,,,,,,,,,,4.0,3.0,Catalán,0.0,Castellano,0.0,Inglés,6.0,Alemán,17.0,4.0,5.0,no,no,yes,nada,,,,nada,61.0,yes
205,2024-04-11_19h25.21.561,Experiment4_uns,s166,26.0,feminino,right,España,Catalán,Doctorate,no,no,A,2,when,L2,unsyncopated,when,when,77,Online_whenL2//c.cha5.none.wav,bi,mi,to,sil,su,fe,te,sil1,du,si,sil2,['-'],,,none,none,,,,cha,3,,,,,,,,,,,,,,,4.0,3.0,Catalán,0.0,Castellano,0.0,Inglés,6.0,Alemán,17.0,4.0,5.0,no,no,yes,nada,,,,nada,61.0,yes
206,2024-04-11_19h25.21.561,Experiment4_uns,s166,26.0,feminino,right,España,Catalán,Doctorate,no,no,A,2,when,L2,unsyncopated,when,when,78,Online_whenL2//c.cha7.none.wav,ba,to,bi,sil,ño,du,si,sil1,mi,fe,sil2,['-'],,,none,none,,,,cha,3,,,,,,,,,,,,,,,4.0,3.0,Catalán,0.0,Castellano,0.0,Inglés,6.0,Alemán,17.0,4.0,5.0,no,no,yes,nada,,,,nada,61.0,yes
207,2024-04-11_19h25.21.561,Experiment4_uns,s166,26.0,feminino,right,España,Catalán,Doctorate,no,no,A,2,when,L2,unsyncopated,when,when,79,Online_whenL2//c.cha6.none.wav,ño,bi,su,sil,ñu,to,si,sil1,du,go,sil2,['-'],,,none,none,,,,cha,3,,,,,,,,,,,,,,,4.0,3.0,Catalán,0.0,Castellano,0.0,Inglés,6.0,Alemán,17.0,4.0,5.0,no,no,yes,nada,,,,nada,61.0,yes
208,2024-04-11_19h25.21.561,Experiment4_uns,s166,26.0,feminino,right,España,Catalán,Doctorate,no,no,A,2,when,L2,unsyncopated,when,when,80,Online_whenL2//b.fe0.none.wav,te,go,to,sil,si,ra,ño,sil1,cha,su,sil2,['-'],,,none,none,,,,fe,1,,,,,,,,,,,,,,,4.0,3.0,Catalán,0.0,Castellano,0.0,Inglés,6.0,Alemán,17.0,4.0,5.0,no,no,yes,nada,,,,nada,61.0,yes
209,2024-04-11_19h25.21.561,Experiment4_uns,s166,26.0,feminino,right,España,Catalán,Doctorate,no,no,A,2,when,L2,unsyncopated,when,when,81,Online_whenL2//b.fe2.1332.wav,ñu,bi,mi,sil,ra,cha,fe,sil1,ba,si,sil2,['catch'],[1.9885999999046362],[1.9885999999046362],1.332,no_beat,0.6565999999046361,0.6565999999046361,"[""space""]",fe,1,,,,,,,,,,,,,,,4.0,3.0,Catalán,0.0,Castellano,0.0,Inglés,6.0,Alemán,17.0,4.0,5.0,no,no,yes,nada,,,,nada,61.0,yes
210,2024-04-11_19h25.21.561,Experiment4_uns,s166,26.0,feminino,right,España,Catalán,Doctorate,no,no,A,2,when,L2,unsyncopated,when,when,82,Online_whenL2//b.fe1.none.wav,du,te,ba,sil,ra,mi,cha,sil1,ñu,to,sil2,['-'],,,none,none,,,,fe,1,,,,,,,,,,,,,,,4.0,3.0,Catalán,0.0,Castellano,0.0,Inglés,6.0,Alemán,17.0,4.0,5.0,no,no,yes,nada,,,,nada,61.0,yes
211,2024-04-11_19h25.21.561,Experiment4_uns,s166,26.0,feminino,right,España,Catalán,Doctorate,no,no,A,2,when,L2,unsyncopated,when,when,83,Online_whenL2//b.fe3.1110.wav,me,mi,ñu,sil,bi,fe,si,sil1,to,go,sil2,['catch'],[1.85710000002382],[1.85710000002382],1.11,no_beat,0.7471000000238199,0.7471000000238199,"[""space""]",fe,1,,,,,,,,,,,,,,,4.0,3.0,Catalán,0.0,Castellano,0.0,Inglés,6.0,Alemán,17.0,4.0,5.0,no,no,yes,nada,,,,nada,61.0,yes
212,2024-04-11_19h25.21.561,Experiment4_uns,s166,26.0,feminino,right,España,Catalán,Doctorate,no,no,A,2,when,L2,unsyncopated,when,when,84,Online_whenL2//d.si7.none.wav,go,cha,te,sil,fe,ñu,ba,sil1,mi,to,sil2,['-'],,,none,none,,,,si,4,,,,,,,,,,,,,,,4.0,3.0,Catalán,0.0,Castellano,0.0,Inglés,6.0,Alemán,17.0,4.0,5.0,no,no,yes,nada,,,,nada,61.0,yes
213,2024-04-11_19h25.21.561,Experiment4_uns,s166,26.0,feminino,right,España,Catalán,Doctorate,no,no,A,2,when,L2,unsyncopated,when,when,85,Online_whenL2//d.si5.1332.wav,to,fe,ra,sil,me,cha,si,sil1,su,te,sil2,['catch'],[1.9716000000237273],[1.9716000000237273],1.332,no_beat,0.6396000000237272,0.6396000000237272,"[""space""]",si,4,,,,,,,,,,,,,,,4.0,3.0,Catalán,0.0,Castellano,0.0,Inglés,6.0,Alemán,17.0,4.0,5.0,no,no,yes,nada,,,,nada,61.0,yes
214,2024-04-11_19h25.21.561,Experiment4_uns,s166,26.0,feminino,right,España,Catalán,Doctorate,no,no,A,2,when,L2,unsyncopated,when,when,86,Online_whenL2//d.si4.444.wav,to,ra,si,sil,me,ñu,go,sil1,ño,mi,sil2,['catch'],[1.0824999999999818],[1.0824999999999818],0.444,no_beat,0.6384999999999819,0.6384999999999819,"[""space""]",si,4,,,,,,,,,,,,,,,4.0,3.0,Catalán,0.0,Castellano,0.0,Inglés,6.0,Alemán,17.0,4.0,5.0,no,no,yes,nada,,,,nada,61.0,yes
215,2024-04-11_19h25.21.561,Experiment4_uns,s166,26.0,feminino,right,España,Catalán,Doctorate,no,no,A,2,when,L2,unsyncopated,when,when,87,Online_whenL2//d.si6.1776.wav,te,cha,du,sil,fe,ño,me,sil1,si,bi,sil2,['catch'],[2.399899999976242],[2.399899999976242],1.776,beat,0.6238999999762418,0.6238999999762418,"[""space""]",si,4,,,,,,,,,,,,,,,4.0,3.0,Catalán,0.0,Castellano,0.0,Inglés,6.0,Alemán,17.0,4.0,5.0,no,no,yes,nada,,,,nada,61.0,yes
216,2024-04-11_19h25.21.561,Experiment4_uns,s166,26.0,feminino,right,España,Catalán,Doctorate,no,no,A,2,when,L2,unsyncopated,when,when,88,Online_whenL2//c.cha15.none.wav,si,su,ñu,sil,mi,ba,ra,sil1,to,go,sil2,['-'],,,none,none,,,,cha,3,,,,,,,,,,,,,,,4.0,3.0,Catalán,0.0,Castellano,0.0,Inglés,6.0,Alemán,17.0,4.0,5.0,no,no,yes,nada,,,,nada,61.0,yes
217,2024-04-11_19h25.21.561,Experiment4_uns,s166,26.0,feminino,right,España,Catalán,Doctorate,no,no,A,2,when,L2,unsyncopated,when,when,89,Online_whenL2//c.cha12.444.wav,du,ba,cha,sil,te,bi,ño,sil1,ñu,fe,sil2,['catch'],[1.132899999976189],[1.132899999976189],0.444,no_beat,0.6888999999761891,0.6888999999761891,"[""space""]",cha,3,,,,,,,,,,,,,,,4.0,3.0,Catalán,0.0,Castellano,0.0,Inglés,6.0,Alemán,17.0,4.0,5.0,no,no,yes,nada,,,,nada,61.0,yes
218,2024-04-11_19h25.21.561,Experiment4_uns,s166,26.0,feminino,right,España,Catalán,Doctorate,no,no,A,2,when,L2,unsyncopated,when,when,90,Online_whenL2//c.cha14.none.wav,go,te,ñu,sil,mi,bi,ba,sil1,ño,du,sil2,['-'],,,none,none,,,,cha,3,,,,,,,,,,,,,,,4.0,3.0,Catalán,0.0,Castellano,0.0,Inglés,6.0,Alemán,17.0,4.0,5.0,no,no,yes,nada,,,,nada,61.0,yes
219,2024-04-11_19h25.21.561,Experiment4_uns,s166,26.0,feminino,right,España,Catalán,Doctorate,no,no,A,2,when,L2,unsyncopated,when,when,91,Online_whenL2//c.cha13.888.wav,te,me,ba,sil,cha,bi,si,sil1,fe,du,sil2,['catch'],[2.1317000000476582],[2.1317000000476582],0.888,beat,,1.2437000000476583,"[""space""]",cha,3,,,,,,,,,,,,,,,4.0,3.0,Catalán,0.0,Castellano,0.0,Inglés,6.0,Alemán,17.0,4.0,5.0,no,no,yes,nada,,,,nada,61.0,yes
220,2024-04-11_19h25.21.561,Experiment4_uns,s166,26.0,feminino,right,España,Catalán,Doctorate,no,no,A,2,when,L2,unsyncopated,when,when,92,Online_whenL2//b.fe4.0.wav,fe,ra,ño,sil,to,ba,cha,sil1,si,te,sil2,['catch'],[0.7594000000954111],[0.7594000000954111],0.0,beat,0.7594000000954111,0.7594000000954111,"[""space""]",fe,1,,,,,,,,,,,,,,,4.0,3.0,Catalán,0.0,Castellano,0.0,Inglés,6.0,Alemán,17.0,4.0,5.0,no,no,yes,nada,,,,nada,61.0,yes
221,2024-04-11_19h25.21.561,Experiment4_uns,s166,26.0,feminino,right,España,Catalán,Doctorate,no,no,A,2,when,L2,unsyncopated,when,when,93,Online_whenL2//b.fe5.1332.wav,si,cha,bi,sil,ñu,su,fe,sil1,ra,te,sil2,['catch'],[2.0133999999761727],[2.0133999999761727],1.332,no_beat,0.6813999999761726,0.6813999999761726,"[""space""]",fe,1,,,,,,,,,,,,,,,4.0,3.0,Catalán,0.0,Castellano,0.0,Inglés,6.0,Alemán,17.0,4.0,5.0,no,no,yes,nada,,,,nada,61.0,yes
222,2024-04-11_19h25.21.561,Experiment4_uns,s166,26.0,feminino,right,España,Catalán,Doctorate,no,no,A,2,when,L2,unsyncopated,when,when,94,Online_whenL2//b.fe7.1998.wav,ba,si,du,sil,cha,ño,bi,sil1,mi,fe,sil2,['catch_delay'],[0.9011000000237492],[0.9011000000237492],1.998,no_beat,0.9011000000237492,0.9011000000237492,,fe,1,,,,,,,,,,,,,,,4.0,3.0,Catalán,0.0,Castellano,0.0,Inglés,6.0,Alemán,17.0,4.0,5.0,no,no,yes,nada,,,,nada,61.0,yes
223,2024-04-11_19h25.21.561,Experiment4_uns,s166,26.0,feminino,right,España,Catalán,Doctorate,no,no,A,2,when,L2,unsyncopated,when,when,95,Online_whenL2//b.fe6.1998.wav,du,su,ñu,sil,cha,ba,to,sil1,te,fe,sil2,['catch_delay'],[0.723400000095413],[0.723400000095413],1.998,no_beat,0.723400000095413,0.723400000095413,"[""space""]",fe,1,,,,,,,,,,,,,,,4.0,3.0,Catalán,0.0,Castellano,0.0,Inglés,6.0,Alemán,17.0,4.0,5.0,no,no,yes,nada,,,,nada,61.0,yes
224,2024-04-11_19h25.21.561,Experiment4_uns,s166,26.0,feminino,right,España,Catalán,Doctorate,no,no,A,2,when,L2,unsyncopated,when,when,96,Online_whenL2//c.cha27.none.wav,bi,fe,mi,sil,te,ra,ño,sil1,to,ñu,sil2,['-'],[0.057400000095412906],[0.057400000095412906],none,none,,,"[""space""]",cha,3,,,,,,,,,,,,,,,4.0,3.0,Catalán,0.0,Castellano,0.0,Inglés,6.0,Alemán,17.0,4.0,5.0,no,no,yes,nada,,,,nada,61.0,yes
225,2024-04-11_19h25.21.561,Experiment4_uns,s166,26.0,feminino,right,España,Catalán,Doctorate,no,no,A,2,when,L2,unsyncopated,when,when,97,Online_whenL2//c.cha24.444.wav,me,bi,cha,sil,su,ra,ño,sil1,to,fe,sil2,['catch'],[1.1092000000476219],[1.1092000000476219],0.444,no_beat,0.6652000000476219,0.6652000000476219,"[""space""]",cha,3,,,,,,,,,,,,,,,4.0,3.0,Catalán,0.0,Castellano,0.0,Inglés,6.0,Alemán,17.0,4.0,5.0,no,no,yes,nada,,,,nada,61.0,yes
