Unnamed: 0,date,expName,participant,age,sex,hand,residence,native_lang,education_level,lang_deficit,aud_deficit,group,block,condition,language,rhythm,rule structure online,rule type online,order_trial_on,trial_online,s1,s2,s3,s4,s5,s6,s7,s8,s9,s10,s11,catch_syll_resp,rts_syll_catch,clean_rts,time_syll,beat_no_beat,catch_rtsTR,catch_rts,syllable_catch.keys,cond_syll,syll_to_catch,test_offline,block_off,condition_off,rhythm_off,rule,rule_str_off,rule_norule,conds_offline,language_off,Partz_no_partm.keys,Partz_no_partm.rt,security_1_7.keys,accuracy,security_1_7.rt,n_lang,n_lang_used,lang_1,age_l1,lang_2,age_l2,ability_learn_l2,tendence_mix_lan,music_experience,muisc_use,partiture,instr_1,age_M1,preguntas_musica1,BMRQ_answer.response,final comment,BMRQ_Score,bilingual
0,2023-11-17_09h39.01.919,Unsyncopated1,s77,22.0,feminino,right,España,castellano,Upper secondary,no,no,B,1,conjunction_syn,L4,syncopated,s1,r1,0,Online_conjL4_syn//a.zi.lo25.0.666.wav,zi,po,ci,lo,sil,re,da,ru,sil1,pe,sil2,['miss'],,,0.0,beat,,,,zi,1,testConjL4Syn//r1.s2.1.wav,1.0,conjunction_syn,syncopated,a,s2,rule,rule,L4,z,0.9341,7.0,1.0,6.6232,2.0,3.0,castellano,0.0,ingles,17.0,3.0,2.0,yes,no,no,canto,15,1. Cuando comparto música con alguien siento una complicidad especial con aquella persona.,4.0,nada ,73.0,yes
1,2023-11-17_09h39.01.919,Unsyncopated1,s77,22.0,feminino,right,España,castellano,Upper secondary,no,no,B,1,conjunction_syn,L4,syncopated,s1,r1,1,Online_conjL4_syn//a.zi.lo26.0.666.wav,zi,bu,po,lo,sil,bo,da,re,sil1,pe,sil2,['catch'],[0.25769999999988613],[0.25769999999988613],0.0,beat,0.2576999999998861,0.2576999999998861,"[""space""]",zi,1,testConjL4Syn//r1.s1.2.wav,1.0,conjunction_syn,syncopated,a,s1,rule,rule,L4,z,1.836,7.0,1.0,1.5073,2.0,3.0,castellano,0.0,ingles,17.0,3.0,2.0,yes,no,no,canto,15,2. En mi tiempo libre apenas escucho música.,5.0,nada ,73.0,yes
2,2023-11-17_09h39.01.919,Unsyncopated1,s77,22.0,feminino,right,España,castellano,Upper secondary,no,no,B,1,conjunction_syn,L4,syncopated,s1,r2,2,Online_conjL4_syn//a.zi.lo27.none.none.wav,ja,re,bo,nu,sil,bu,pe,ru,sil1,ñi,sil2,['-'],,,none,none,,,,zi,1,testConjL4Syn//dep_viol.r2.s2.0.wav,1.0,conjunction_syn,syncopated,b,s2,no_rule,dep,L4,m,1.4053,4.0,1.0,2.3364,2.0,3.0,castellano,0.0,ingles,17.0,3.0,2.0,yes,no,no,canto,15,3. Algunas canciones me ponen los pelos de punta,4.0,nada ,73.0,yes
3,2023-11-17_09h39.01.919,Unsyncopated1,s77,22.0,feminino,right,España,castellano,Upper secondary,no,no,B,1,conjunction_syn,L4,syncopated,s2,r2,3,Online_conjL4_syn//a.zi.lo24.none.none.wav,ñi,po,de,ja,sil,pe,ci,nu,sil1,bo,sil2,['false alarm'],[1.7442999999999529],[1.7442999999999529],none,none,,,"[""space""]",zi,1,testConjL4Syn//r1.s1.0.wav,1.0,conjunction_syn,syncopated,a,s1,rule,rule,L4,z,1.2615,6.0,1.0,1.4506,2.0,3.0,castellano,0.0,ingles,17.0,3.0,2.0,yes,no,no,canto,15,4. La música me hace compañía cuando estoy solo,3.0,nada ,73.0,yes
4,2023-11-17_09h39.01.919,Unsyncopated1,s77,22.0,feminino,right,España,castellano,Upper secondary,no,no,B,1,conjunction_syn,L4,syncopated,s2,r2,4,Online_conjL4_syn//c.bu.da21.none.none.wav,ña,re,po,ja,sil,de,ñi,nu,sil1,ru,sil2,['-'],,,none,none,,,,da,3,testConjL4Syn//dep_viol.r1.s1.0.wav,1.0,conjunction_syn,syncopated,a,s1,no_rule,dep,L4,m,1.7017,5.0,1.0,2.0948,2.0,3.0,castellano,0.0,ingles,17.0,3.0,2.0,yes,no,no,canto,15,5. No me apetece bailar ni con la música que más me gusta,5.0,nada ,73.0,yes
5,2023-11-17_09h39.01.919,Unsyncopated1,s77,22.0,feminino,right,España,castellano,Upper secondary,no,no,B,1,conjunction_syn,L4,syncopated,s1,r2,5,Online_conjL4_syn//c.bu.da20.444.1332.wav,ja,pe,bu,nu,sil,ci,da,re,sil1,ru,sil2,['catch'],[1.5998999999999342],[1.5998999999999342],1.332,no_beat,0.2678999999999341,0.2678999999999341,"[""space""]",da,3,testConjL4Syn//r2.s1.0.wav,1.0,conjunction_syn,syncopated,b,s1,rule,rule,L4,z,1.7939,5.0,1.0,1.7918,2.0,3.0,castellano,0.0,ingles,17.0,3.0,2.0,yes,no,no,canto,15,6. La música me hace conectar con la gente,4.0,nada ,73.0,yes
6,2023-11-17_09h39.01.919,Unsyncopated1,s77,22.0,feminino,right,España,castellano,Upper secondary,no,no,B,1,conjunction_syn,L4,syncopated,s2,r2,6,Online_conjL4_syn//c.bu.da23.444.1110.wav,ña,re,bu,ja,sil,da,de,nu,sil1,ci,sil2,['miss'],,,1.11,no_beat,,,,da,3,testConjL4Syn//cat_viol.r2.s1.0.wav,1.0,conjunction_syn,syncopated,b,s1,no_rule,cat,L4,z,3.7752,6.0,0.0,1.4122,2.0,3.0,castellano,0.0,ingles,17.0,3.0,2.0,yes,no,no,canto,15,7. Me informo sobre la música que me gusta.,3.0,nada ,73.0,yes
7,2023-11-17_09h39.01.919,Unsyncopated1,s77,22.0,feminino,right,España,castellano,Upper secondary,no,no,B,1,conjunction_syn,L4,syncopated,s2,r1,7,Online_conjL4_syn//c.bu.da22.0.222.wav,bu,da,bo,zi,sil,re,ru,lo,sil1,ñi,sil2,['catch'],[1.3886000000001104],[1.3886000000001104],0.222,no_beat,1.1666000000001104,1.1666000000001104,"[""space""]",da,3,testConjL4Syn//r2.s1.1.wav,1.0,conjunction_syn,syncopated,b,s1,rule,rule,L4,z,0.8743,6.0,1.0,0.7256,2.0,3.0,castellano,0.0,ingles,17.0,3.0,2.0,yes,no,no,canto,15,8.Me emociono escuchando ciertas canciones.,4.0,nada ,73.0,yes
8,2023-11-17_09h39.01.919,Unsyncopated1,s77,22.0,feminino,right,España,castellano,Upper secondary,no,no,B,1,conjunction_syn,L4,syncopated,s2,r2,8,Online_conjL4_syn//d.pe.po3.none.none.wav,re,ñi,ña,ja,sil,ci,da,nu,sil1,bo,sil2,['-'],,,none,none,,,,po,4,testConjL4Syn//r1.s2.0.wav,1.0,conjunction_syn,syncopated,a,s2,rule,rule,L4,m,5.5061,3.0,0.0,0.8871,2.0,3.0,castellano,0.0,ingles,17.0,3.0,2.0,yes,no,no,canto,15,9.La música me tranquiliza y me relaja.,4.0,nada ,73.0,yes
9,2023-11-17_09h39.01.919,Unsyncopated1,s77,22.0,feminino,right,España,castellano,Upper secondary,no,no,B,1,conjunction_syn,L4,syncopated,s2,r1,9,Online_conjL4_syn//d.pe.po1.1332.222.wav,ñi,po,da,zi,sil,bu,pe,lo,sil1,bo,sil2,['catch'],[1.2381000000000313],[1.2381000000000313],0.222,no_beat,1.016100000000031,1.016100000000031,"[""space""]",po,4,testConjL4Syn//time_viol.r2.s2.0.wav,1.0,conjunction_syn,syncopated,b,s2,no_rule,time,L4,z,1.1508,7.0,0.0,1.2183,2.0,3.0,castellano,0.0,ingles,17.0,3.0,2.0,yes,no,no,canto,15,10.La música me hace bailar,4.0,nada ,73.0,yes
10,2023-11-17_09h39.01.919,Unsyncopated1,s77,22.0,feminino,right,España,castellano,Upper secondary,no,no,B,1,conjunction_syn,L4,syncopated,s2,r1,10,Online_conjL4_syn//d.pe.po2.none.none.wav,de,bo,da,zi,sil,ci,ñi,lo,sil1,ña,sil2,['false alarm'],[1.1388000000000602],[1.1388000000000602],none,none,,,"[""space""]",po,4,testConjL4Syn//r2.s2.0.wav,1.0,conjunction_syn,syncopated,b,s2,rule,rule,L4,z,0.9354,5.0,1.0,1.287,2.0,3.0,castellano,0.0,ingles,17.0,3.0,2.0,yes,no,no,canto,15,11.Busco novedades musicales continuamente,4.0,nada ,73.0,yes
11,2023-11-17_09h39.01.919,Unsyncopated1,s77,22.0,feminino,right,España,castellano,Upper secondary,no,no,B,1,conjunction_syn,L4,syncopated,s2,r1,11,Online_conjL4_syn//d.pe.po0.none.none.wav,ci,ru,ña,zi,sil,de,bu,lo,sil1,da,sil2,['-'],,,none,none,,,,po,4,testConjL4Syn//time_viol.r2.s1.0.wav,1.0,conjunction_syn,syncopated,b,s1,no_rule,time,L4,z,1.0798,6.0,0.0,0.5582,2.0,3.0,castellano,0.0,ingles,17.0,3.0,2.0,yes,no,no,canto,15,12. Puedo llorar cuando escucho algunas melodías que me gustan mucho.,3.0,nada ,73.0,yes
12,2023-11-17_09h39.01.919,Unsyncopated1,s77,22.0,feminino,right,España,castellano,Upper secondary,no,no,B,1,conjunction_syn,L4,syncopated,s2,r1,12,Online_conjL4_syn//a.zi.lo21.666.1554.wav,ñi,bo,ru,zi,sil,pe,ña,lo,sil1,de,sil2,['catch'],[1.0302999999998974],[1.0302999999998974],0.666,no_beat,0.3642999999998974,0.3642999999998974,"[""space""]",zi,1,testConjL4Syn//cat_viol.r1.s1.0.wav,1.0,conjunction_syn,syncopated,a,s1,no_rule,cat,L4,z,3.1277,3.0,0.0,1.5685,2.0,3.0,castellano,0.0,ingles,17.0,3.0,2.0,yes,no,no,canto,15,13. Me gusta cantar o tocar un instrumento con más gente,2.0,nada ,73.0,yes
13,2023-11-17_09h39.01.919,Unsyncopated1,s77,22.0,feminino,right,España,castellano,Upper secondary,no,no,B,1,conjunction_syn,L4,syncopated,s2,r1,13,Online_conjL4_syn//a.zi.lo22.666.1554.wav,po,bo,pe,zi,sil,re,bu,lo,sil1,da,sil2,['catch'],[1.3909000000001015],[1.3909000000001015],0.666,no_beat,0.7249000000001015,0.7249000000001015,"[""space""]",zi,1,testConjL4Syn//dep_viol.r1.s2.0.wav,1.0,conjunction_syn,syncopated,a,s2,no_rule,dep,L4,z,0.621,6.0,0.0,1.2285,2.0,3.0,castellano,0.0,ingles,17.0,3.0,2.0,yes,no,no,canto,15,14. La música me ayuda a desconectar.,4.0,nada ,73.0,yes
14,2023-11-17_09h39.01.919,Unsyncopated1,s77,22.0,feminino,right,España,castellano,Upper secondary,no,no,B,1,conjunction_syn,L4,syncopated,s2,r2,14,Online_conjL4_syn//a.zi.lo23.none.none.wav,da,ci,po,ja,sil,ñi,pe,nu,sil1,bo,sil2,['false alarm'],[0.826900000000137],[0.826900000000137],none,none,,,"[""space""]",zi,1,testConjL4Syn//r2.s2.2.wav,1.0,conjunction_syn,syncopated,b,s2,rule,rule,L4,z,0.9178,6.0,1.0,1.404,2.0,3.0,castellano,0.0,ingles,17.0,3.0,2.0,yes,no,no,canto,15,15. No puedo evitar tararear las canciones que me gustan cuando las escucho.,4.0,nada ,73.0,yes
15,2023-11-17_09h39.01.919,Unsyncopated1,s77,22.0,feminino,right,España,castellano,Upper secondary,no,no,B,1,conjunction_syn,L4,syncopated,s1,r2,15,Online_conjL4_syn//a.zi.lo20.none.none.wav,ja,ru,po,nu,sil,ña,re,da,sil1,de,sil2,['-'],,,none,none,,,,zi,1,testConjL4Syn//cat_viol.r1.s2.0.wav,1.0,conjunction_syn,syncopated,a,s2,no_rule,cat,L4,m,2.5306,5.0,1.0,1.4267,2.0,3.0,castellano,0.0,ingles,17.0,3.0,2.0,yes,no,no,canto,15,16. En los conciertos me siento en sintonía con los artistas y el público.,3.0,nada ,73.0,yes
16,2023-11-17_09h39.01.919,Unsyncopated1,s77,22.0,feminino,right,España,castellano,Upper secondary,no,no,B,1,conjunction_syn,L4,syncopated,s1,r1,16,Online_conjL4_syn//d.pe.po18.1554.1110.wav,zi,ña,da,lo,sil,po,bo,pe,sil1,ru,sil2,['catch'],[1.6244000000001506],[1.6244000000001506],1.11,no_beat,0.5144000000001505,0.5144000000001505,"[""space""]",po,4,testConjL4Syn//r2.s1.2.wav,1.0,conjunction_syn,syncopated,b,s1,rule,rule,L4,z,5.2734,3.0,1.0,1.2892,2.0,3.0,castellano,0.0,ingles,17.0,3.0,2.0,yes,no,no,canto,15,17. Me gasto bastante dinero en música y cosas relacionadas con la música.,1.0,nada ,73.0,yes
17,2023-11-17_09h39.01.919,Unsyncopated1,s77,22.0,feminino,right,España,castellano,Upper secondary,no,no,B,1,conjunction_syn,L4,syncopated,s2,r1,17,Online_conjL4_syn//d.pe.po19.none.none.wav,da,de,ña,zi,sil,bo,ru,lo,sil1,ñi,sil2,['-'],,,none,none,,,,po,4,testConjL4Syn//cat_viol.r2.s2.0.wav,1.0,conjunction_syn,syncopated,b,s2,no_rule,cat,L4,z,3.6595,2.0,0.0,8.2757,2.0,3.0,castellano,0.0,ingles,17.0,3.0,2.0,yes,no,no,canto,15,18. Siento escalofríos cuando escucho una melodía que me gusta.,4.0,nada ,73.0,yes
18,2023-11-17_09h39.01.919,Unsyncopated1,s77,22.0,feminino,right,España,castellano,Upper secondary,no,no,B,1,conjunction_syn,L4,syncopated,s2,r2,18,Online_conjL4_syn//d.pe.po17.222.444.wav,bo,pe,po,ja,sil,re,ci,nu,sil1,ru,sil2,['catch'],[0.9914000000001124],[0.9914000000001124],0.444,no_beat,0.5474000000001125,0.5474000000001125,"[""space""]",po,4,testConjL4Syn//dep_viol.r2.s1.0.wav,1.0,conjunction_syn,syncopated,b,s1,no_rule,dep,L4,m,1.6264,3.0,1.0,1.4518,2.0,3.0,castellano,0.0,ingles,17.0,3.0,2.0,yes,no,no,canto,15,19. Con la música me puedo desahogar.,4.0,nada ,73.0,yes
19,2023-11-17_09h39.01.919,Unsyncopated1,s77,22.0,feminino,right,España,castellano,Upper secondary,no,no,B,1,conjunction_syn,L4,syncopated,s1,r2,19,Online_conjL4_syn//d.pe.po16.none.none.wav,ja,bo,ci,nu,sil,da,ru,re,sil1,de,sil2,['-'],,,none,none,,,,po,4,testConjL4Syn//r1.s1.1.wav,1.0,conjunction_syn,syncopated,a,s1,rule,rule,L4,z,2.3565,4.0,1.0,1.5085,2.0,3.0,castellano,0.0,ingles,17.0,3.0,2.0,yes,no,no,canto,15,20. Cuando escucho una melodía que me gusta mucho no puedo evitar mover el cuerpo.,4.0,nada ,73.0,yes
20,2023-11-17_09h39.01.919,Unsyncopated1,s77,22.0,feminino,right,España,castellano,Upper secondary,no,no,B,1,conjunction_syn,L4,syncopated,s1,r1,20,Online_conjL4_syn//a.zi.lo30.0.666.wav,zi,ñi,ru,lo,sil,bu,bo,ña,sil1,de,sil2,['catch'],[0.5745999999998048],[0.5745999999998048],0.0,beat,0.5745999999998048,0.5745999999998048,"[""space""]",zi,1,testConjL4Syn//time_viol.r1.s2.0.wav,1.0,conjunction_syn,syncopated,a,s2,no_rule,time,L4,z,1.3741,6.0,0.0,1.1841,2.0,3.0,castellano,0.0,ingles,17.0,3.0,2.0,yes,no,no,canto,15,,,nada ,73.0,yes
21,2023-11-17_09h39.01.919,Unsyncopated1,s77,22.0,feminino,right,España,castellano,Upper secondary,no,no,B,1,conjunction_syn,L4,syncopated,s2,r2,21,Online_conjL4_syn//a.zi.lo29.none.none.wav,ña,da,re,ja,sil,ci,po,nu,sil1,ru,sil2,['-'],,,none,none,,,,zi,1,testConjL4Syn//time_viol.r1.s1.0.wav,1.0,conjunction_syn,syncopated,a,s1,no_rule,time,L4,m,3.2449,2.0,1.0,1.1236,2.0,3.0,castellano,0.0,ingles,17.0,3.0,2.0,yes,no,no,canto,15,,,nada ,73.0,yes
22,2023-11-17_09h39.01.919,Unsyncopated1,s77,22.0,feminino,right,España,castellano,Upper secondary,no,no,B,1,conjunction_syn,L4,syncopated,s1,r2,22,Online_conjL4_syn//a.zi.lo28.none.none.wav,ja,pe,bu,nu,sil,ña,ñi,bo,sil1,ru,sil2,['-'],,,none,none,,,,zi,1,testConjL4Syn//r1.s2.2.wav,1.0,conjunction_syn,syncopated,a,s2,rule,rule,L4,z,0.9043,6.0,1.0,1.0767,2.0,3.0,castellano,0.0,ingles,17.0,3.0,2.0,yes,no,no,canto,15,,,nada ,73.0,yes
23,2023-11-17_09h39.01.919,Unsyncopated1,s77,22.0,feminino,right,España,castellano,Upper secondary,no,no,B,1,conjunction_syn,L4,syncopated,s2,r2,23,Online_conjL4_syn//a.zi.lo31.none.none.wav,bo,ru,ci,ja,sil,po,da,nu,sil1,bu,sil2,['false alarm'],[1.0476000000001022],[1.0476000000001022],none,none,,,"[""space""]",zi,1,testConjL4Syn//r2.s2.1.wav,1.0,conjunction_syn,syncopated,b,s2,rule,rule,L4,m,2.4026,4.0,0.0,0.9348,2.0,3.0,castellano,0.0,ingles,17.0,3.0,2.0,yes,no,no,canto,15,,,nada ,73.0,yes
24,2023-11-17_09h39.01.919,Unsyncopated1,s77,22.0,feminino,right,España,castellano,Upper secondary,no,no,B,1,conjunction_syn,L4,syncopated,s1,r1,24,Online_conjL4_syn//d.pe.po27.none.none.wav,zi,bo,ñi,lo,sil,ña,de,ci,sil1,ru,sil2,['-'],,,none,none,,,,po,4,testWhenL3Uns//r1.s1.1.wav,2.0,when,unsyncopated,a,s1,rule,rule,L3,z,2.0688,3.0,1.0,1.5514,2.0,3.0,castellano,0.0,ingles,17.0,3.0,2.0,yes,no,no,canto,15,,,nada ,73.0,yes
25,2023-11-17_09h39.01.919,Unsyncopated1,s77,22.0,feminino,right,España,castellano,Upper secondary,no,no,B,1,conjunction_syn,L4,syncopated,s1,r2,25,Online_conjL4_syn//d.pe.po24.1332.222.wav,ja,po,ña,nu,sil,re,pe,ñi,sil1,ci,sil2,['catch'],[0.7649999999999864],[0.7649999999999864],0.222,no_beat,0.5429999999999864,0.5429999999999864,"[""space""]",po,4,testWhenL3Uns//dep_viol.r2.s2.0.wav,2.0,when,unsyncopated,b,s2,no_rule,dep,L3,z,1.1077,3.0,1.0,1.8212,2.0,3.0,castellano,0.0,ingles,17.0,3.0,2.0,yes,no,no,canto,15,,,nada ,73.0,yes
26,2023-11-17_09h39.01.919,Unsyncopated1,s77,22.0,feminino,right,España,castellano,Upper secondary,no,no,B,1,conjunction_syn,L4,syncopated,s1,r1,26,Online_conjL4_syn//d.pe.po26.none.none.wav,zi,bo,ci,lo,sil,de,ña,da,sil1,ru,sil2,['-'],,,none,none,,,,po,4,testWhenL3Uns//r2.s1.2.wav,2.0,when,unsyncopated,b,s1,rule,rule,L3,z,0.9229,6.0,1.0,1.0451,2.0,3.0,castellano,0.0,ingles,17.0,3.0,2.0,yes,no,no,canto,15,,,nada ,73.0,yes
27,2023-11-17_09h39.01.919,Unsyncopated1,s77,22.0,feminino,right,España,castellano,Upper secondary,no,no,B,1,conjunction_syn,L4,syncopated,s1,r1,27,Online_conjL4_syn//d.pe.po25.none.none.wav,zi,ña,ru,lo,sil,da,re,bu,sil1,ci,sil2,['-'],,,none,none,,,,po,4,testWhenL3Uns//dep_viol.r2.s1.0.wav,2.0,when,unsyncopated,b,s1,no_rule,dep,L3,z,1.9632,4.0,1.0,1.5944,2.0,3.0,castellano,0.0,ingles,17.0,3.0,2.0,yes,no,no,canto,15,,,nada ,73.0,yes
28,2023-11-17_09h39.01.919,Unsyncopated1,s77,22.0,feminino,right,España,castellano,Upper secondary,no,no,B,1,conjunction_syn,L4,syncopated,s2,r1,28,Online_conjL4_syn//c.bu.da7.0.444.wav,bu,re,da,zi,sil,ña,po,lo,sil1,ñi,sil2,['miss'],,,0.444,no_beat,,,,da,3,testWhenL3Uns//time_viol.r1.s1.0.wav,2.0,when,unsyncopated,a,s1,no_rule,time,L3,z,1.3287,7.0,1.0,0.9546,2.0,3.0,castellano,0.0,ingles,17.0,3.0,2.0,yes,no,no,canto,15,,,nada ,73.0,yes
29,2023-11-17_09h39.01.919,Unsyncopated1,s77,22.0,feminino,right,España,castellano,Upper secondary,no,no,B,1,conjunction_syn,L4,syncopated,s2,r1,29,Online_conjL4_syn//c.bu.da4.none.none.wav,pe,re,ru,zi,sil,ci,bo,lo,sil1,po,sil2,['false alarm'],[0.839800000000082],[0.839800000000082],none,none,,,"[""space""]",da,3,testWhenL3Uns//r2.s2.2.wav,2.0,when,unsyncopated,b,s2,rule,rule,L3,m,1.1881,3.0,0.0,1.3195,2.0,3.0,castellano,0.0,ingles,17.0,3.0,2.0,yes,no,no,canto,15,,,nada ,73.0,yes
30,2023-11-17_09h39.01.919,Unsyncopated1,s77,22.0,feminino,right,España,castellano,Upper secondary,no,no,B,1,conjunction_syn,L4,syncopated,s1,r1,30,Online_conjL4_syn//c.bu.da5.222.1110.wav,zi,bu,ru,lo,sil,da,re,pe,sil1,ña,sil2,['catch'],[1.6438000000000557],[1.6438000000000557],1.11,no_beat,0.5338000000000556,0.5338000000000556,"[""space""]",da,3,testWhenL3Uns//r1.s1.2.wav,2.0,when,unsyncopated,a,s1,rule,rule,L3,z,0.5176,5.0,1.0,1.0178,2.0,3.0,castellano,0.0,ingles,17.0,3.0,2.0,yes,no,no,canto,15,,,nada ,73.0,yes
31,2023-11-17_09h39.01.919,Unsyncopated1,s77,22.0,feminino,right,España,castellano,Upper secondary,no,no,B,1,conjunction_syn,L4,syncopated,s2,r1,31,Online_conjL4_syn//c.bu.da6.none.none.wav,pe,ci,ru,zi,sil,bo,po,lo,sil1,de,sil2,['-'],,,none,none,,,,da,3,testWhenL3Uns//cat_viol.r1.s2.0.wav,2.0,when,unsyncopated,a,s2,no_rule,cat,L3,z,1.6935,2.0,1.0,0.5177,2.0,3.0,castellano,0.0,ingles,17.0,3.0,2.0,yes,no,no,canto,15,,,nada ,73.0,yes
32,2023-11-17_09h39.01.919,Unsyncopated1,s77,22.0,feminino,right,España,castellano,Upper secondary,no,no,B,1,conjunction_syn,L4,syncopated,s2,r2,32,Online_conjL4_syn//c.bu.da15.222.444.wav,de,bu,da,ja,sil,ci,bo,nu,sil1,re,sil2,['miss'],,,0.444,no_beat,,,,da,3,testWhenL3Uns//r1.s2.2.wav,2.0,when,unsyncopated,a,s2,rule,rule,L3,z,2.4361,4.0,1.0,0.858,2.0,3.0,castellano,0.0,ingles,17.0,3.0,2.0,yes,no,no,canto,15,,,nada ,73.0,yes
33,2023-11-17_09h39.01.919,Unsyncopated1,s77,22.0,feminino,right,España,castellano,Upper secondary,no,no,B,1,conjunction_syn,L4,syncopated,s2,r2,33,Online_conjL4_syn//c.bu.da14.none.none.wav,ci,ñi,pe,ja,sil,ru,re,nu,sil1,ña,sil2,['-'],,,none,none,,,,da,3,testWhenL3Uns//r1.s2.0.wav,2.0,when,unsyncopated,a,s2,rule,rule,L3,m,0.918,4.0,0.0,1.0696,2.0,3.0,castellano,0.0,ingles,17.0,3.0,2.0,yes,no,no,canto,15,,,nada ,73.0,yes
34,2023-11-17_09h39.01.919,Unsyncopated1,s77,22.0,feminino,right,España,castellano,Upper secondary,no,no,B,1,conjunction_syn,L4,syncopated,s2,r1,34,Online_conjL4_syn//c.bu.da13.none.none.wav,ci,ñi,ña,zi,sil,ru,re,lo,sil1,po,sil2,['-'],,,none,none,,,,da,3,testWhenL3Uns//r2.s2.0.wav,2.0,when,unsyncopated,b,s2,rule,rule,L3,m,1.557,5.0,0.0,1.2018,2.0,3.0,castellano,0.0,ingles,17.0,3.0,2.0,yes,no,no,canto,15,,,nada ,73.0,yes
35,2023-11-17_09h39.01.919,Unsyncopated1,s77,22.0,feminino,right,España,castellano,Upper secondary,no,no,B,1,conjunction_syn,L4,syncopated,s1,r1,35,Online_conjL4_syn//c.bu.da12.1110.1332.wav,zi,ci,ña,lo,sil,bu,da,pe,sil1,po,sil2,['miss'],,,1.332,no_beat,,,,da,3,testWhenL3Uns//r2.s1.0.wav,2.0,when,unsyncopated,b,s1,rule,rule,L3,z,1.3091,6.0,1.0,0.9181,2.0,3.0,castellano,0.0,ingles,17.0,3.0,2.0,yes,no,no,canto,15,,,nada ,73.0,yes
36,2023-11-17_09h39.01.919,Unsyncopated1,s77,22.0,feminino,right,España,castellano,Upper secondary,no,no,B,1,conjunction_syn,L4,syncopated,s1,r1,36,Online_conjL4_syn//a.zi.lo2.0.666.wav,zi,ñi,re,lo,sil,bu,ci,bo,sil1,ña,sil2,['catch'],[1.0930000000000746],[1.0930000000000746],0.0,beat,1.0930000000000746,1.0930000000000746,"[""space""]",zi,1,testWhenL3Uns//time_viol.r1.s2.0.wav,2.0,when,unsyncopated,a,s2,no_rule,time,L3,z,1.6209,2.0,1.0,0.7869,2.0,3.0,castellano,0.0,ingles,17.0,3.0,2.0,yes,no,no,canto,15,,,nada ,73.0,yes
37,2023-11-17_09h39.01.919,Unsyncopated1,s77,22.0,feminino,right,España,castellano,Upper secondary,no,no,B,1,conjunction_syn,L4,syncopated,s2,r2,37,Online_conjL4_syn//a.zi.lo3.none.none.wav,po,ci,pe,ja,sil,re,bo,nu,sil1,ña,sil2,['-'],,,none,none,,,,zi,1,testWhenL3Uns//cat_viol.r2.s2.0.wav,2.0,when,unsyncopated,b,s2,no_rule,cat,L3,m,2.3697,1.0,0.0,0.8866,2.0,3.0,castellano,0.0,ingles,17.0,3.0,2.0,yes,no,no,canto,15,,,nada ,73.0,yes
38,2023-11-17_09h39.01.919,Unsyncopated1,s77,22.0,feminino,right,España,castellano,Upper secondary,no,no,B,1,conjunction_syn,L4,syncopated,s1,r2,38,Online_conjL4_syn//a.zi.lo1.none.none.wav,ja,re,ru,nu,sil,de,da,bu,sil1,ñi,sil2,['-'],,,none,none,,,,zi,1,testWhenL3Uns//time_viol.r2.s1.0.wav,2.0,when,unsyncopated,b,s1,no_rule,time,L3,z,1.4278,3.0,1.0,1.7359,2.0,3.0,castellano,0.0,ingles,17.0,3.0,2.0,yes,no,no,canto,15,,,nada ,73.0,yes
39,2023-11-17_09h39.01.919,Unsyncopated1,s77,22.0,feminino,right,España,castellano,Upper secondary,no,no,B,1,conjunction_syn,L4,syncopated,s2,r2,39,Online_conjL4_syn//a.zi.lo0.none.none.wav,bu,bo,po,ja,sil,de,ñi,nu,sil1,re,sil2,['-'],,,none,none,,,,zi,1,testWhenL3Uns//r1.s1.0.wav,2.0,when,unsyncopated,a,s1,rule,rule,L3,z,1.1346,4.0,1.0,1.2227,2.0,3.0,castellano,0.0,ingles,17.0,3.0,2.0,yes,no,no,canto,15,,,nada ,73.0,yes
40,2023-11-17_09h39.01.919,Unsyncopated1,s77,22.0,feminino,right,España,castellano,Upper secondary,no,no,B,1,conjunction_syn,L4,syncopated,s1,r1,40,Online_conjL4_syn//d.pe.po6.1110.222.wav,zi,po,de,lo,sil,pe,ñi,ru,sil1,ci,sil2,['catch'],[0.58949999999993],[0.58949999999993],0.222,no_beat,0.36749999999993,0.36749999999993,"[""space""]",po,4,testWhenL3Uns//dep_viol.r1.s2.0.wav,2.0,when,unsyncopated,a,s2,no_rule,dep,L3,z,1.3442,2.0,1.0,0.9942,2.0,3.0,castellano,0.0,ingles,17.0,3.0,2.0,yes,no,no,canto,15,,,nada ,73.0,yes
41,2023-11-17_09h39.01.919,Unsyncopated1,s77,22.0,feminino,right,España,castellano,Upper secondary,no,no,B,1,conjunction_syn,L4,syncopated,s2,r2,41,Online_conjL4_syn//d.pe.po4.none.none.wav,ña,bu,de,ja,sil,re,ci,nu,sil1,bo,sil2,['-'],,,none,none,,,,po,4,testWhenL3Uns//cat_viol.r1.s1.0.wav,2.0,when,unsyncopated,a,s1,no_rule,cat,L3,z,1.6735,3.0,1.0,1.3851,2.0,3.0,castellano,0.0,ingles,17.0,3.0,2.0,yes,no,no,canto,15,,,nada ,73.0,yes
42,2023-11-17_09h39.01.919,Unsyncopated1,s77,22.0,feminino,right,España,castellano,Upper secondary,no,no,B,1,conjunction_syn,L4,syncopated,s2,r1,42,Online_conjL4_syn//d.pe.po5.222.1110.wav,ñi,pe,da,zi,sil,po,ru,lo,sil1,bo,sil2,['catch'],[1.7609999999999673],[1.7609999999999673],1.11,no_beat,0.6509999999999672,0.6509999999999672,"[""space""]",po,4,testWhenL3Uns//r1.s2.1.wav,2.0,when,unsyncopated,a,s2,rule,rule,L3,m,2.5817,3.0,0.0,1.3334,2.0,3.0,castellano,0.0,ingles,17.0,3.0,2.0,yes,no,no,canto,15,,,nada ,73.0,yes
43,2023-11-17_09h39.01.919,Unsyncopated1,s77,22.0,feminino,right,España,castellano,Upper secondary,no,no,B,1,conjunction_syn,L4,syncopated,s2,r1,43,Online_conjL4_syn//d.pe.po7.1110.0.wav,po,ñi,de,zi,sil,pe,bu,lo,sil1,ña,sil2,['catch'],[1.1890999999999394],[1.1890999999999394],0.0,beat,1.1890999999999394,1.1890999999999394,"[""space""]",po,4,testWhenL3Uns//r2.s2.1.wav,2.0,when,unsyncopated,b,s2,rule,rule,L3,m,0.9498,2.0,0.0,0.5245,2.0,3.0,castellano,0.0,ingles,17.0,3.0,2.0,yes,no,no,canto,15,,,nada ,73.0,yes
44,2023-11-17_09h39.01.919,Unsyncopated1,s77,22.0,feminino,right,España,castellano,Upper secondary,no,no,B,1,conjunction_syn,L4,syncopated,s2,r2,44,Online_conjL4_syn//d.pe.po13.none.none.wav,ci,ru,da,ja,sil,de,ñi,nu,sil1,bu,sil2,['-'],,,none,none,,,,po,4,testWhenL3Uns//r2.s1.1.wav,2.0,when,unsyncopated,b,s1,rule,rule,L3,m,2.5364,4.0,0.0,1.6781,2.0,3.0,castellano,0.0,ingles,17.0,3.0,2.0,yes,no,no,canto,15,,,nada ,73.0,yes
45,2023-11-17_09h39.01.919,Unsyncopated1,s77,22.0,feminino,right,España,castellano,Upper secondary,no,no,B,1,conjunction_syn,L4,syncopated,s2,r2,45,Online_conjL4_syn//d.pe.po15.222.1110.wav,ci,pe,de,ja,sil,po,bo,nu,sil1,da,sil2,['catch'],[1.7016000000000986],[1.7016000000000986],1.11,no_beat,0.5916000000000985,0.5916000000000985,"[""space""]",po,4,testWhenL3Uns//cat_viol.r2.s1.0.wav,2.0,when,unsyncopated,b,s1,no_rule,cat,L3,z,3.6889,1.0,1.0,0.9181,2.0,3.0,castellano,0.0,ingles,17.0,3.0,2.0,yes,no,no,canto,15,,,nada ,73.0,yes
46,2023-11-17_09h39.01.919,Unsyncopated1,s77,22.0,feminino,right,España,castellano,Upper secondary,no,no,B,1,conjunction_syn,L4,syncopated,s2,r1,46,Online_conjL4_syn//d.pe.po12.none.none.wav,bu,de,re,zi,sil,ña,ci,lo,sil1,ñi,sil2,['-'],,,none,none,,,,po,4,testWhenL3Uns//dep_viol.r1.s1.0.wav,2.0,when,unsyncopated,a,s1,no_rule,dep,L3,z,0.7841,5.0,1.0,1.2601,2.0,3.0,castellano,0.0,ingles,17.0,3.0,2.0,yes,no,no,canto,15,,,nada ,73.0,yes
47,2023-11-17_09h39.01.919,Unsyncopated1,s77,22.0,feminino,right,España,castellano,Upper secondary,no,no,B,1,conjunction_syn,L4,syncopated,s1,r2,47,Online_conjL4_syn//d.pe.po14.1110.1332.wav,ja,bo,bu,nu,sil,pe,po,de,sil1,da,sil2,['catch'],[1.989500000000021],[1.989500000000021],1.332,no_beat,0.6575000000000208,0.6575000000000208,"[""space""]",po,4,testWhenL3Uns//time_viol.r2.s2.0.wav,2.0,when,unsyncopated,b,s2,no_rule,time,L3,z,1.5703,5.0,1.0,1.7429,2.0,3.0,castellano,0.0,ingles,17.0,3.0,2.0,yes,no,no,canto,15,,,nada ,73.0,yes
48,2023-11-17_09h39.01.919,Unsyncopated1,s77,22.0,feminino,right,España,castellano,Upper secondary,no,no,B,1,conjunction_syn,L4,syncopated,s1,r2,48,Online_conjL4_syn//d.pe.po21.none.none.wav,ja,bo,bu,nu,sil,ci,ña,de,sil1,ru,sil2,['-'],,,none,none,,,,po,4,testConjL1Uns//dep_viol.r2.s2.0.wav,3.0,conjunction_un,unsyncopated,b,s2,no_rule,dep,L1,z,1.9339,4.0,0.0,1.2012,2.0,3.0,castellano,0.0,ingles,17.0,3.0,2.0,yes,no,no,canto,15,,,nada ,73.0,yes
49,2023-11-17_09h39.01.919,Unsyncopated1,s77,22.0,feminino,right,España,castellano,Upper secondary,no,no,B,1,conjunction_syn,L4,syncopated,s2,r2,49,Online_conjL4_syn//d.pe.po22.444.1110.wav,de,ru,pe,ja,sil,po,re,nu,sil1,bo,sil2,['catch'],[1.6447000000001708],[1.6447000000001708],1.11,no_beat,0.5347000000001707,0.5347000000001707,"[""space""]",po,4,testConjL1Uns//time_viol.r2.s2.0.wav,3.0,conjunction_un,unsyncopated,b,s2,no_rule,time,L1,m,1.5257,4.0,1.0,1.7117,2.0,3.0,castellano,0.0,ingles,17.0,3.0,2.0,yes,no,no,canto,15,,,nada ,73.0,yes
50,2023-11-17_09h39.01.919,Unsyncopated1,s77,22.0,feminino,right,España,castellano,Upper secondary,no,no,B,1,conjunction_syn,L4,syncopated,s1,r1,50,Online_conjL4_syn//d.pe.po20.1332.444.wav,zi,ru,po,lo,sil,bo,pe,de,sil1,da,sil2,['catch'],[1.3598999999998114],[1.3598999999998114],0.444,no_beat,0.9158999999998114,0.9158999999998114,"[""space""]",po,4,testConjL1Uns//r2.s1.2.wav,3.0,conjunction_un,unsyncopated,b,s1,rule,rule,L1,z,1.8018,5.0,1.0,0.661,2.0,3.0,castellano,0.0,ingles,17.0,3.0,2.0,yes,no,no,canto,15,,,nada ,73.0,yes
51,2023-11-17_09h39.01.919,Unsyncopated1,s77,22.0,feminino,right,España,castellano,Upper secondary,no,no,B,1,conjunction_syn,L4,syncopated,s1,r1,51,Online_conjL4_syn//d.pe.po23.none.none.wav,zi,bo,da,lo,sil,de,ña,ñi,sil1,ru,sil2,['-'],,,none,none,,,,po,4,testConjL1Uns//dep_viol.r1.s2.0.wav,3.0,conjunction_un,unsyncopated,a,s2,no_rule,dep,L1,z,0.6277,7.0,0.0,0.8366,2.0,3.0,castellano,0.0,ingles,17.0,3.0,2.0,yes,no,no,canto,15,,,nada ,73.0,yes
52,2023-11-17_09h39.01.919,Unsyncopated1,s77,22.0,feminino,right,España,castellano,Upper secondary,no,no,B,1,conjunction_syn,L4,syncopated,s1,r1,52,Online_conjL4_syn//a.zi.lo8.0.666.wav,zi,pe,re,lo,sil,ña,bo,bu,sil1,de,sil2,['miss'],,,0.0,beat,,,,zi,1,testConjL1Uns//r1.s1.0.wav,3.0,conjunction_un,unsyncopated,a,s1,rule,rule,L1,z,2.079,2.0,1.0,0.7057,2.0,3.0,castellano,0.0,ingles,17.0,3.0,2.0,yes,no,no,canto,15,,,nada ,73.0,yes
53,2023-11-17_09h39.01.919,Unsyncopated1,s77,22.0,feminino,right,España,castellano,Upper secondary,no,no,B,1,conjunction_syn,L4,syncopated,s2,r1,53,Online_conjL4_syn//a.zi.lo11.666.1554.wav,bu,ru,ci,zi,sil,po,de,lo,sil1,da,sil2,['catch'],[1.649499999999989],[1.649499999999989],0.666,no_beat,0.983499999999989,0.983499999999989,"[""space""]",zi,1,testConjL1Uns//time_viol.r1.s2.0.wav,3.0,conjunction_un,unsyncopated,a,s2,no_rule,time,L1,m,0.6392,1.0,1.0,0.7031,2.0,3.0,castellano,0.0,ingles,17.0,3.0,2.0,yes,no,no,canto,15,,,nada ,73.0,yes
54,2023-11-17_09h39.01.919,Unsyncopated1,s77,22.0,feminino,right,España,castellano,Upper secondary,no,no,B,1,conjunction_syn,L4,syncopated,s2,r1,54,Online_conjL4_syn//a.zi.lo9.666.1554.wav,po,ci,bu,zi,sil,de,ña,lo,sil1,ñi,sil2,['catch'],[1.3324999999999818],[1.3324999999999818],0.666,no_beat,0.6664999999999818,0.6664999999999818,"[""space""]",zi,1,testConjL1Uns//r2.s1.1.wav,3.0,conjunction_un,unsyncopated,b,s1,rule,rule,L1,z,0.6925,4.0,1.0,1.345,2.0,3.0,castellano,0.0,ingles,17.0,3.0,2.0,yes,no,no,canto,15,,,nada ,73.0,yes
55,2023-11-17_09h39.01.919,Unsyncopated1,s77,22.0,feminino,right,España,castellano,Upper secondary,no,no,B,1,conjunction_syn,L4,syncopated,s1,r2,55,Online_conjL4_syn//a.zi.lo10.none.none.wav,ja,bu,de,nu,sil,re,ci,bo,sil1,ña,sil2,['-'],,,none,none,,,,zi,1,testConjL1Uns//dep_viol.r2.s1.0.wav,3.0,conjunction_un,unsyncopated,b,s1,no_rule,dep,L1,m,0.651,2.0,1.0,0.5435,2.0,3.0,castellano,0.0,ingles,17.0,3.0,2.0,yes,no,no,canto,15,,,nada ,73.0,yes
56,2023-11-17_09h39.01.919,Unsyncopated1,s77,22.0,feminino,right,España,castellano,Upper secondary,no,no,B,1,conjunction_syn,L4,syncopated,s1,r2,56,Online_conjL4_syn//b.ja.nu10.0.666.wav,ja,pe,ñi,nu,sil,bu,ci,de,sil1,ru,sil2,['catch'],[1.5149999999999864],[1.5149999999999864],0.666,no_beat,0.8489999999999863,0.8489999999999863,"[""space""]",nu,2,testConjL1Uns//r1.s2.0.wav,3.0,conjunction_un,unsyncopated,a,s2,rule,rule,L1,m,3.4542,1.0,0.0,1.3246,2.0,3.0,castellano,0.0,ingles,17.0,3.0,2.0,yes,no,no,canto,15,,,nada ,73.0,yes
57,2023-11-17_09h39.01.919,Unsyncopated1,s77,22.0,feminino,right,España,castellano,Upper secondary,no,no,B,1,conjunction_syn,L4,syncopated,s2,r2,57,Online_conjL4_syn//b.ja.nu11.666.1554.wav,de,ru,po,ja,sil,ci,pe,nu,sil1,ña,sil2,['catch'],[2.206600000000094],[2.206600000000094],1.554,no_beat,0.652600000000094,0.652600000000094,"[""space""]",nu,2,testConjL1Uns//cat_viol.r1.s1.0.wav,3.0,conjunction_un,unsyncopated,a,s1,no_rule,cat,L1,z,1.9041,3.0,0.0,0.7753,2.0,3.0,castellano,0.0,ingles,17.0,3.0,2.0,yes,no,no,canto,15,,,nada ,73.0,yes
58,2023-11-17_09h39.01.919,Unsyncopated1,s77,22.0,feminino,right,España,castellano,Upper secondary,no,no,B,1,conjunction_syn,L4,syncopated,s2,r2,58,Online_conjL4_syn//b.ja.nu8.666.1554.wav,da,bu,de,ja,sil,ci,pe,nu,sil1,re,sil2,['miss'],,,1.554,no_beat,,,,nu,2,testConjL1Uns//dep_viol.r1.s1.0.wav,3.0,conjunction_un,unsyncopated,a,s1,no_rule,dep,L1,m,2.673,2.0,1.0,0.6027,2.0,3.0,castellano,0.0,ingles,17.0,3.0,2.0,yes,no,no,canto,15,,,nada ,73.0,yes
59,2023-11-17_09h39.01.919,Unsyncopated1,s77,22.0,feminino,right,España,castellano,Upper secondary,no,no,B,1,conjunction_syn,L4,syncopated,s2,r2,59,Online_conjL4_syn//b.ja.nu9.666.1554.wav,bo,ñi,po,ja,sil,da,re,nu,sil1,ru,sil2,['catch'],[2.0710000000000264],[2.0710000000000264],1.554,no_beat,0.5170000000000263,0.5170000000000263,"[""space""]",nu,2,testConjL1Uns//r2.s2.2.wav,3.0,conjunction_un,unsyncopated,b,s2,rule,rule,L1,m,1.8684,2.0,0.0,0.5342,2.0,3.0,castellano,0.0,ingles,17.0,3.0,2.0,yes,no,no,canto,15,,,nada ,73.0,yes
60,2023-11-17_09h39.01.919,Unsyncopated1,s77,22.0,feminino,right,España,castellano,Upper secondary,no,no,B,1,conjunction_syn,L4,syncopated,s1,r2,60,Online_conjL4_syn//c.bu.da28.none.none.wav,ja,ru,ñi,nu,sil,po,ci,de,sil1,bo,sil2,['-'],,,none,none,,,,da,3,testConjL1Uns//r1.s1.2.wav,3.0,conjunction_un,unsyncopated,a,s1,rule,rule,L1,m,2.3119,3.0,0.0,0.711,2.0,3.0,castellano,0.0,ingles,17.0,3.0,2.0,yes,no,no,canto,15,,,nada ,73.0,yes
61,2023-11-17_09h39.01.919,Unsyncopated1,s77,22.0,feminino,right,España,castellano,Upper secondary,no,no,B,1,conjunction_syn,L4,syncopated,s1,r1,61,Online_conjL4_syn//c.bu.da31.none.none.wav,zi,ñi,pe,lo,sil,de,ci,ña,sil1,bo,sil2,['-'],,,none,none,,,,da,3,testConjL1Uns//r2.s1.0.wav,3.0,conjunction_un,unsyncopated,b,s1,rule,rule,L1,m,2.4112,3.0,0.0,0.6249,2.0,3.0,castellano,0.0,ingles,17.0,3.0,2.0,yes,no,no,canto,15,,,nada ,73.0,yes
62,2023-11-17_09h39.01.919,Unsyncopated1,s77,22.0,feminino,right,España,castellano,Upper secondary,no,no,B,1,conjunction_syn,L4,syncopated,s1,r1,62,Online_conjL4_syn//c.bu.da29.none.none.wav,zi,ñi,pe,lo,sil,re,ci,ru,sil1,ña,sil2,['-'],,,none,none,,,,da,3,testConjL1Uns//r2.s2.0.wav,3.0,conjunction_un,unsyncopated,b,s2,rule,rule,L1,m,4.3985,2.0,0.0,0.4415,2.0,3.0,castellano,0.0,ingles,17.0,3.0,2.0,yes,no,no,canto,15,,,nada ,73.0,yes
63,2023-11-17_09h39.01.919,Unsyncopated1,s77,22.0,feminino,right,España,castellano,Upper secondary,no,no,B,1,conjunction_syn,L4,syncopated,s2,r2,63,Online_conjL4_syn//c.bu.da30.none.none.wav,po,ci,ña,ja,sil,ru,bo,nu,sil1,ñi,sil2,['-'],,,none,none,,,,da,3,testConjL1Uns//r1.s2.1.wav,3.0,conjunction_un,unsyncopated,a,s2,rule,rule,L1,m,1.3442,1.0,0.0,0.6717,2.0,3.0,castellano,0.0,ingles,17.0,3.0,2.0,yes,no,no,canto,15,,,nada ,73.0,yes
64,2023-11-17_09h39.01.919,Unsyncopated1,s77,22.0,feminino,right,España,castellano,Upper secondary,no,no,B,1,conjunction_syn,L4,syncopated,s2,r1,64,Online_conjL4_syn//c.bu.da26.1110.222.wav,ñi,da,de,zi,sil,bu,pe,lo,sil1,bo,sil2,['miss'],,,0.222,no_beat,,,,da,3,testConjL1Uns//time_viol.r2.s1.0.wav,3.0,conjunction_un,unsyncopated,b,s1,no_rule,time,L1,z,1.202,2.0,0.0,0.9347,2.0,3.0,castellano,0.0,ingles,17.0,3.0,2.0,yes,no,no,canto,15,,,nada ,73.0,yes
65,2023-11-17_09h39.01.919,Unsyncopated1,s77,22.0,feminino,right,España,castellano,Upper secondary,no,no,B,1,conjunction_syn,L4,syncopated,s1,r2,65,Online_conjL4_syn//c.bu.da25.1110.222.wav,ja,da,re,nu,sil,bu,ru,po,sil1,bo,sil2,['miss'],,,0.222,no_beat,,,,da,3,testConjL1Uns//cat_viol.r2.s1.0.wav,3.0,conjunction_un,unsyncopated,b,s1,no_rule,cat,L1,m,1.388,1.0,1.0,0.3521,2.0,3.0,castellano,0.0,ingles,17.0,3.0,2.0,yes,no,no,canto,15,,,nada ,73.0,yes
66,2023-11-17_09h39.01.919,Unsyncopated1,s77,22.0,feminino,right,España,castellano,Upper secondary,no,no,B,1,conjunction_syn,L4,syncopated,s1,r1,66,Online_conjL4_syn//c.bu.da24.none.none.wav,zi,po,pe,lo,sil,ñi,ci,ru,sil1,re,sil2,['-'],,,none,none,,,,da,3,testConjL1Uns//r1.s1.1.wav,3.0,conjunction_un,unsyncopated,a,s1,rule,rule,L1,z,1.5737,2.0,1.0,0.6188,2.0,3.0,castellano,0.0,ingles,17.0,3.0,2.0,yes,no,no,canto,15,,,nada ,73.0,yes
67,2023-11-17_09h39.01.919,Unsyncopated1,s77,22.0,feminino,right,España,castellano,Upper secondary,no,no,B,1,conjunction_syn,L4,syncopated,s1,r2,67,Online_conjL4_syn//c.bu.da27.222.1110.wav,ja,bu,re,nu,sil,da,bo,ru,sil1,ci,sil2,['miss'],,,1.11,no_beat,,,,da,3,testConjL1Uns//cat_viol.r2.s2.0.wav,3.0,conjunction_un,unsyncopated,b,s2,no_rule,cat,L1,z,1.3849,2.0,0.0,1.4045,2.0,3.0,castellano,0.0,ingles,17.0,3.0,2.0,yes,no,no,canto,15,,,nada ,73.0,yes
68,2023-11-17_09h39.01.919,Unsyncopated1,s77,22.0,feminino,right,España,castellano,Upper secondary,no,no,B,1,conjunction_syn,L4,syncopated,s1,r2,68,Online_conjL4_syn//b.ja.nu3.0.666.wav,ja,bu,bo,nu,sil,pe,ru,re,sil1,ñi,sil2,['miss'],,,0.666,no_beat,,,,nu,2,testConjL1Uns//r1.s2.2.wav,3.0,conjunction_un,unsyncopated,a,s2,rule,rule,L1,z,1.3116,5.0,1.0,0.6891,2.0,3.0,castellano,0.0,ingles,17.0,3.0,2.0,yes,no,no,canto,15,,,nada ,73.0,yes
69,2023-11-17_09h39.01.919,Unsyncopated1,s77,22.0,feminino,right,España,castellano,Upper secondary,no,no,B,1,conjunction_syn,L4,syncopated,s1,r1,69,Online_conjL4_syn//b.ja.nu2.none.none.wav,zi,da,ru,lo,sil,bo,ci,ñi,sil1,de,sil2,['-'],,,none,none,,,,nu,2,testConjL1Uns//time_viol.r1.s1.0.wav,3.0,conjunction_un,unsyncopated,a,s1,no_rule,time,L1,z,1.0175,6.0,0.0,0.8515,2.0,3.0,castellano,0.0,ingles,17.0,3.0,2.0,yes,no,no,canto,15,,,nada ,73.0,yes
70,2023-11-17_09h39.01.919,Unsyncopated1,s77,22.0,feminino,right,España,castellano,Upper secondary,no,no,B,1,conjunction_syn,L4,syncopated,s2,r2,70,Online_conjL4_syn//b.ja.nu0.666.1554.wav,ña,bu,ci,ja,sil,ñi,re,nu,sil1,po,sil2,['miss'],,,1.554,no_beat,,,,nu,2,testConjL1Uns//cat_viol.r1.s2.0.wav,3.0,conjunction_un,unsyncopated,a,s2,no_rule,cat,L1,m,1.8721,2.0,1.0,1.2273,2.0,3.0,castellano,0.0,ingles,17.0,3.0,2.0,yes,no,no,canto,15,,,nada ,73.0,yes
71,2023-11-17_09h39.01.919,Unsyncopated1,s77,22.0,feminino,right,España,castellano,Upper secondary,no,no,B,1,conjunction_syn,L4,syncopated,s1,r1,71,Online_conjL4_syn//b.ja.nu1.none.none.wav,zi,de,ru,lo,sil,po,ña,bu,sil1,da,sil2,['-'],,,none,none,,,,nu,2,testConjL1Uns//r2.s2.1.wav,3.0,conjunction_un,unsyncopated,b,s2,rule,rule,L1,z,2.3549,2.0,1.0,0.5835,2.0,3.0,castellano,0.0,ingles,17.0,3.0,2.0,yes,no,no,canto,15,,,nada ,73.0,yes
72,2023-11-17_09h39.01.919,Unsyncopated1,s77,22.0,feminino,right,España,castellano,Upper secondary,no,no,B,1,conjunction_syn,L4,syncopated,s2,r2,72,Online_conjL4_syn//b.ja.nu27.666.1554.wav,ña,po,re,ja,sil,de,bo,nu,sil1,ci,sil2,['catch'],[2.192100000000096],[2.192100000000096],1.554,no_beat,0.6381000000000958,0.6381000000000958,"[""space""]",nu,2,testWhatL2Uns//r2.s2.1.wav,4.0,what,unsyncopated,b,s2,rule,rule,L2,z,0.7676,7.0,1.0,0.8714,2.0,3.0,castellano,0.0,ingles,17.0,3.0,2.0,yes,no,no,canto,15,,,nada ,73.0,yes
73,2023-11-17_09h39.01.919,Unsyncopated1,s77,22.0,feminino,right,España,castellano,Upper secondary,no,no,B,1,conjunction_syn,L4,syncopated,s1,r1,73,Online_conjL4_syn//b.ja.nu25.none.none.wav,zi,pe,da,lo,sil,re,po,bo,sil1,ci,sil2,['-'],,,none,none,,,,nu,2,testWhatL2Uns//dep_viol.r2.s2.0.wav,4.0,what,unsyncopated,b,s2,no_rule,dep,L2,z,1.235,6.0,0.0,0.7446,2.0,3.0,castellano,0.0,ingles,17.0,3.0,2.0,yes,no,no,canto,15,,,nada ,73.0,yes
74,2023-11-17_09h39.01.919,Unsyncopated1,s77,22.0,feminino,right,España,castellano,Upper secondary,no,no,B,1,conjunction_syn,L4,syncopated,s2,r1,74,Online_conjL4_syn//b.ja.nu24.none.none.wav,bo,ñi,re,zi,sil,pe,ci,lo,sil1,de,sil2,['-'],,,none,none,,,,nu,2,testWhatL2Uns//r1.s2.2.wav,4.0,what,unsyncopated,a,s2,rule,rule,L2,z,1.8824,2.0,1.0,0.4441,2.0,3.0,castellano,0.0,ingles,17.0,3.0,2.0,yes,no,no,canto,15,,,nada ,73.0,yes
75,2023-11-17_09h39.01.919,Unsyncopated1,s77,22.0,feminino,right,España,castellano,Upper secondary,no,no,B,1,conjunction_syn,L4,syncopated,s2,r2,75,Online_conjL4_syn//b.ja.nu26.666.1554.wav,pe,bu,ña,ja,sil,po,ru,nu,sil1,bo,sil2,['catch'],[2.3471000000001823],[2.3471000000001823],1.554,no_beat,0.7931000000001822,0.7931000000001822,"[""space""]",nu,2,testWhatL2Uns//r1.s1.1.wav,4.0,what,unsyncopated,a,s1,rule,rule,L2,z,1.4503,2.0,1.0,0.9696,2.0,3.0,castellano,0.0,ingles,17.0,3.0,2.0,yes,no,no,canto,15,,,nada ,73.0,yes
76,2023-11-17_09h39.01.919,Unsyncopated1,s77,22.0,feminino,right,España,castellano,Upper secondary,no,no,B,1,conjunction_syn,L4,syncopated,s1,r1,76,Online_conjL4_syn//a.zi.lo4.0.666.wav,zi,po,re,lo,sil,ñi,da,bo,sil1,bu,sil2,['miss'],,,0.0,beat,,,,zi,1,testWhatL2Uns//dep_viol.r1.s2.0.wav,4.0,what,unsyncopated,a,s2,no_rule,dep,L2,m,0.6631,1.0,1.0,0.6501,2.0,3.0,castellano,0.0,ingles,17.0,3.0,2.0,yes,no,no,canto,15,,,nada ,73.0,yes
77,2023-11-17_09h39.01.919,Unsyncopated1,s77,22.0,feminino,right,España,castellano,Upper secondary,no,no,B,1,conjunction_syn,L4,syncopated,s1,r1,77,Online_conjL4_syn//a.zi.lo5.0.666.wav,zi,bo,ña,lo,sil,pe,de,re,sil1,ñi,sil2,['catch'],[0.9147000000000389],[0.9147000000000389],0.0,beat,0.9147000000000388,0.9147000000000388,"[""space""]",zi,1,testWhatL2Uns//time_viol.r2.s1.0.wav,4.0,what,unsyncopated,b,s1,no_rule,time,L2,z,0.7513,5.0,0.0,0.6241,2.0,3.0,castellano,0.0,ingles,17.0,3.0,2.0,yes,no,no,canto,15,,,nada ,73.0,yes
78,2023-11-17_09h39.01.919,Unsyncopated1,s77,22.0,feminino,right,España,castellano,Upper secondary,no,no,B,1,conjunction_syn,L4,syncopated,s2,r2,78,Online_conjL4_syn//a.zi.lo6.none.none.wav,ci,da,ru,ja,sil,bo,pe,nu,sil1,re,sil2,['-'],,,none,none,,,,zi,1,testWhatL2Uns//r2.s1.2.wav,4.0,what,unsyncopated,b,s1,rule,rule,L2,m,0.3965,2.0,0.0,0.5676,2.0,3.0,castellano,0.0,ingles,17.0,3.0,2.0,yes,no,no,canto,15,,,nada ,73.0,yes
79,2023-11-17_09h39.01.919,Unsyncopated1,s77,22.0,feminino,right,España,castellano,Upper secondary,no,no,B,1,conjunction_syn,L4,syncopated,s2,r1,79,Online_conjL4_syn//a.zi.lo7.666.1554.wav,ru,de,po,zi,sil,ña,ñi,lo,sil1,da,sil2,['catch'],[1.496499999999969],[1.496499999999969],0.666,no_beat,0.830499999999969,0.830499999999969,"[""space""]",zi,1,testWhatL2Uns//time_viol.r1.s1.0.wav,4.0,what,unsyncopated,a,s1,no_rule,time,L2,m,1.3861,1.0,1.0,0.3336,2.0,3.0,castellano,0.0,ingles,17.0,3.0,2.0,yes,no,no,canto,15,,,nada ,73.0,yes
80,2023-11-17_09h39.01.919,Unsyncopated1,s77,22.0,feminino,right,España,castellano,Upper secondary,no,no,B,1,conjunction_syn,L4,syncopated,s1,r2,80,Online_conjL4_syn//a.zi.lo18.none.none.wav,ja,pe,ru,nu,sil,de,ñi,bu,sil1,re,sil2,['-'],,,none,none,,,,zi,1,testWhatL2Uns//r2.s2.2.wav,4.0,what,unsyncopated,b,s2,rule,rule,L2,z,1.1439,5.0,1.0,0.738,2.0,3.0,castellano,0.0,ingles,17.0,3.0,2.0,yes,no,no,canto,15,,,nada ,73.0,yes
81,2023-11-17_09h39.01.919,Unsyncopated1,s77,22.0,feminino,right,España,castellano,Upper secondary,no,no,B,1,conjunction_syn,L4,syncopated,s2,r1,81,Online_conjL4_syn//a.zi.lo19.666.1554.wav,da,bo,po,zi,sil,ru,ci,lo,sil1,bu,sil2,['catch'],[2.2474999999999454],[2.2474999999999454],0.666,no_beat,,1.5814999999999455,"[""space""]",zi,1,testWhatL2Uns//r1.s1.2.wav,4.0,what,unsyncopated,a,s1,rule,rule,L2,z,1.3362,4.0,1.0,0.7009,2.0,3.0,castellano,0.0,ingles,17.0,3.0,2.0,yes,no,no,canto,15,,,nada ,73.0,yes
82,2023-11-17_09h39.01.919,Unsyncopated1,s77,22.0,feminino,right,España,castellano,Upper secondary,no,no,B,1,conjunction_syn,L4,syncopated,s2,r1,82,Online_conjL4_syn//a.zi.lo16.666.1554.wav,ña,po,ci,zi,sil,pe,de,lo,sil1,ru,sil2,['catch'],[1.9542999999999893],[1.9542999999999893],0.666,no_beat,,1.2882999999999891,"[""space""]",zi,1,testWhatL2Uns//time_viol.r1.s2.0.wav,4.0,what,unsyncopated,a,s2,no_rule,time,L2,m,3.1431,2.0,1.0,4.5211,2.0,3.0,castellano,0.0,ingles,17.0,3.0,2.0,yes,no,no,canto,15,,,nada ,73.0,yes
83,2023-11-17_09h39.01.919,Unsyncopated1,s77,22.0,feminino,right,España,castellano,Upper secondary,no,no,B,1,conjunction_syn,L4,syncopated,s1,r2,83,Online_conjL4_syn//a.zi.lo17.none.none.wav,ja,po,bu,nu,sil,de,ru,ñi,sil1,ci,sil2,['-'],,,none,none,,,,zi,1,testWhatL2Uns//cat_viol.r1.s1.0.wav,4.0,what,unsyncopated,a,s1,no_rule,cat,L2,z,0.9076,3.0,0.0,1.0772,2.0,3.0,castellano,0.0,ingles,17.0,3.0,2.0,yes,no,no,canto,15,,,nada ,73.0,yes
84,2023-11-17_09h39.01.919,Unsyncopated1,s77,22.0,feminino,right,España,castellano,Upper secondary,no,no,B,1,conjunction_syn,L4,syncopated,s1,r2,84,Online_conjL4_syn//c.bu.da10.none.none.wav,ja,de,bo,nu,sil,ñi,ru,po,sil1,pe,sil2,['-'],,,none,none,,,,da,3,testWhatL2Uns//cat_viol.r2.s2.0.wav,4.0,what,unsyncopated,b,s2,no_rule,cat,L2,z,3.7886,2.0,0.0,0.5832,2.0,3.0,castellano,0.0,ingles,17.0,3.0,2.0,yes,no,no,canto,15,,,nada ,73.0,yes
85,2023-11-17_09h39.01.919,Unsyncopated1,s77,22.0,feminino,right,España,castellano,Upper secondary,no,no,B,1,conjunction_syn,L4,syncopated,s1,r2,85,Online_conjL4_syn//c.bu.da8.222.444.wav,ja,bu,da,nu,sil,re,ru,ñi,sil1,de,sil2,['miss'],,,0.444,no_beat,,,,da,3,testWhatL2Uns//r1.s1.0.wav,4.0,what,unsyncopated,a,s1,rule,rule,L2,m,2.1858,2.0,0.0,1.4344,2.0,3.0,castellano,0.0,ingles,17.0,3.0,2.0,yes,no,no,canto,15,,,nada ,73.0,yes
86,2023-11-17_09h39.01.919,Unsyncopated1,s77,22.0,feminino,right,España,castellano,Upper secondary,no,no,B,1,conjunction_syn,L4,syncopated,s2,r1,86,Online_conjL4_syn//c.bu.da9.444.1110.wav,pe,re,bu,zi,sil,da,po,lo,sil1,de,sil2,['catch'],[1.8273999999998978],[1.8273999999998978],1.11,no_beat,0.7173999999998977,0.7173999999998977,"[""space""]",da,3,testWhatL2Uns//r2.s2.0.wav,4.0,what,unsyncopated,b,s2,rule,rule,L2,z,12.2679,1.0,1.0,0.7348,2.0,3.0,castellano,0.0,ingles,17.0,3.0,2.0,yes,no,no,canto,15,,,nada ,73.0,yes
87,2023-11-17_09h39.01.919,Unsyncopated1,s77,22.0,feminino,right,España,castellano,Upper secondary,no,no,B,1,conjunction_syn,L4,syncopated,s1,r1,87,Online_conjL4_syn//c.bu.da11.1332.222.wav,zi,da,po,lo,sil,bo,bu,ci,sil1,pe,sil2,['miss'],,,0.222,no_beat,,,,da,3,testWhatL2Uns//cat_viol.r1.s2.0.wav,4.0,what,unsyncopated,a,s2,no_rule,cat,L2,z,0.8389,5.0,0.0,0.4681,2.0,3.0,castellano,0.0,ingles,17.0,3.0,2.0,yes,no,no,canto,15,,,nada ,73.0,yes
88,2023-11-17_09h39.01.919,Unsyncopated1,s77,22.0,feminino,right,España,castellano,Upper secondary,no,no,B,1,conjunction_syn,L4,syncopated,s2,r2,88,Online_conjL4_syn//b.ja.nu18.666.1554.wav,ru,pe,po,ja,sil,bu,bo,nu,sil1,da,sil2,['miss'],,,1.554,no_beat,,,,nu,2,testWhatL2Uns//dep_viol.r2.s1.0.wav,4.0,what,unsyncopated,b,s1,no_rule,dep,L2,m,1.0539,1.0,1.0,0.9178,2.0,3.0,castellano,0.0,ingles,17.0,3.0,2.0,yes,no,no,canto,15,,,nada ,73.0,yes
89,2023-11-17_09h39.01.919,Unsyncopated1,s77,22.0,feminino,right,España,castellano,Upper secondary,no,no,B,1,conjunction_syn,L4,syncopated,s1,r2,89,Online_conjL4_syn//b.ja.nu19.0.666.wav,ja,ña,po,nu,sil,ñi,ru,re,sil1,da,sil2,['catch'],[1.4046000000000731],[1.4046000000000731],0.666,no_beat,0.7386000000000731,0.7386000000000731,"[""space""]",nu,2,testWhatL2Uns//dep_viol.r1.s1.0.wav,4.0,what,unsyncopated,a,s1,no_rule,dep,L2,z,2.0018,3.0,0.0,0.9405,2.0,3.0,castellano,0.0,ingles,17.0,3.0,2.0,yes,no,no,canto,15,,,nada ,73.0,yes
90,2023-11-17_09h39.01.919,Unsyncopated1,s77,22.0,feminino,right,España,castellano,Upper secondary,no,no,B,1,conjunction_syn,L4,syncopated,s2,r1,90,Online_conjL4_syn//b.ja.nu16.none.none.wav,da,ru,bo,zi,sil,re,pe,lo,sil1,bu,sil2,['-'],,,none,none,,,,nu,2,testWhatL2Uns//time_viol.r2.s2.0.wav,4.0,what,unsyncopated,b,s2,no_rule,time,L2,m,1.006,3.0,1.0,0.9701,2.0,3.0,castellano,0.0,ingles,17.0,3.0,2.0,yes,no,no,canto,15,,,nada ,73.0,yes
91,2023-11-17_09h39.01.919,Unsyncopated1,s77,22.0,feminino,right,España,castellano,Upper secondary,no,no,B,1,conjunction_syn,L4,syncopated,s2,r1,91,Online_conjL4_syn//b.ja.nu17.none.none.wav,ci,ru,de,zi,sil,bo,po,lo,sil1,bu,sil2,['-'],,,none,none,,,,nu,2,testWhatL2Uns//cat_viol.r2.s1.0.wav,4.0,what,unsyncopated,b,s1,no_rule,cat,L2,z,0.5508,6.0,0.0,0.5854,2.0,3.0,castellano,0.0,ingles,17.0,3.0,2.0,yes,no,no,canto,15,,,nada ,73.0,yes
92,2023-11-17_09h39.01.919,Unsyncopated1,s77,22.0,feminino,right,España,castellano,Upper secondary,no,no,B,1,conjunction_syn,L4,syncopated,s1,r2,92,Online_conjL4_syn//b.ja.nu23.0.666.wav,ja,bu,da,nu,sil,po,ña,pe,sil1,ru,sil2,['catch'],[1.2011000000001104],[1.2011000000001104],0.666,no_beat,0.5351000000001104,0.5351000000001104,"[""space""]",nu,2,testWhatL2Uns//r1.s2.0.wav,4.0,what,unsyncopated,a,s2,rule,rule,L2,m,1.8188,3.0,0.0,1.969,2.0,3.0,castellano,0.0,ingles,17.0,3.0,2.0,yes,no,no,canto,15,,,nada ,73.0,yes
93,2023-11-17_09h39.01.919,Unsyncopated1,s77,22.0,feminino,right,España,castellano,Upper secondary,no,no,B,1,conjunction_syn,L4,syncopated,s1,r1,93,Online_conjL4_syn//b.ja.nu21.none.none.wav,zi,ñi,ru,lo,sil,da,ci,po,sil1,re,sil2,['-'],,,none,none,,,,nu,2,testWhatL2Uns//r2.s1.1.wav,4.0,what,unsyncopated,b,s1,rule,rule,L2,m,2.0922,3.0,0.0,0.95,2.0,3.0,castellano,0.0,ingles,17.0,3.0,2.0,yes,no,no,canto,15,,,nada ,73.0,yes
94,2023-11-17_09h39.01.919,Unsyncopated1,s77,22.0,feminino,right,España,castellano,Upper secondary,no,no,B,1,conjunction_syn,L4,syncopated,s1,r1,94,Online_conjL4_syn//b.ja.nu22.none.none.wav,zi,ñi,re,lo,sil,bu,po,pe,sil1,ña,sil2,['-'],,,none,none,,,,nu,2,testWhatL2Uns//r1.s2.1.wav,4.0,what,unsyncopated,a,s2,rule,rule,L2,z,1.0224,6.0,1.0,0.6509,2.0,3.0,castellano,0.0,ingles,17.0,3.0,2.0,yes,no,no,canto,15,,,nada ,73.0,yes
95,2023-11-17_09h39.01.919,Unsyncopated1,s77,22.0,feminino,right,España,castellano,Upper secondary,no,no,B,1,conjunction_syn,L4,syncopated,s1,r2,95,Online_conjL4_syn//b.ja.nu20.0.666.wav,ja,bu,po,nu,sil,da,ña,ru,sil1,ci,sil2,['catch'],[1.3051000000001522],[1.3051000000001522],0.666,no_beat,0.6391000000001522,0.6391000000001522,"[""space""]",nu,2,testWhatL2Uns//r2.s1.0.wav,4.0,what,unsyncopated,b,s1,rule,rule,L2,z,0.5859,6.0,1.0,0.4511,2.0,3.0,castellano,0.0,ingles,17.0,3.0,2.0,yes,no,no,canto,15,,,nada ,73.0,yes
96,2023-11-17_09h39.01.919,Unsyncopated1,s77,22.0,feminino,right,España,castellano,Upper secondary,no,no,B,1,conjunction_syn,L4,syncopated,s2,r2,96,Online_conjL4_syn//c.bu.da3.0.444.wav,bu,ci,da,ja,sil,pe,po,nu,sil1,bo,sil2,['catch'],[1.3910999999999376],[1.3910999999999376],0.444,no_beat,0.9470999999999375,0.9470999999999375,"[""space""]",da,3,,,,,,,,,,,,,,,2.0,3.0,castellano,0.0,ingles,17.0,3.0,2.0,yes,no,no,canto,15,,,nada ,73.0,yes
97,2023-11-17_09h39.01.919,Unsyncopated1,s77,22.0,feminino,right,España,castellano,Upper secondary,no,no,B,1,conjunction_syn,L4,syncopated,s2,r2,97,Online_conjL4_syn//c.bu.da2.0.222.wav,bu,da,ñi,ja,sil,pe,re,nu,sil1,bo,sil2,['miss'],,,0.222,no_beat,,,,da,3,,,,,,,,,,,,,,,2.0,3.0,castellano,0.0,ingles,17.0,3.0,2.0,yes,no,no,canto,15,,,nada ,73.0,yes
98,2023-11-17_09h39.01.919,Unsyncopated1,s77,22.0,feminino,right,España,castellano,Upper secondary,no,no,B,1,conjunction_syn,L4,syncopated,s1,r2,98,Online_conjL4_syn//c.bu.da1.none.none.wav,ja,po,pe,nu,sil,ñi,ru,bo,sil1,ci,sil2,['-'],,,none,none,,,,da,3,,,,,,,,,,,,,,,2.0,3.0,castellano,0.0,ingles,17.0,3.0,2.0,yes,no,no,canto,15,,,nada ,73.0,yes
99,2023-11-17_09h39.01.919,Unsyncopated1,s77,22.0,feminino,right,España,castellano,Upper secondary,no,no,B,1,conjunction_syn,L4,syncopated,s1,r2,99,Online_conjL4_syn//c.bu.da0.none.none.wav,ja,bo,re,nu,sil,ñi,ña,pe,sil1,ci,sil2,['-'],,,none,none,,,,da,3,,,,,,,,,,,,,,,2.0,3.0,castellano,0.0,ingles,17.0,3.0,2.0,yes,no,no,canto,15,,,nada ,73.0,yes
100,2023-11-17_09h39.01.919,Unsyncopated1,s77,22.0,feminino,right,España,castellano,Upper secondary,no,no,B,1,conjunction_syn,L4,syncopated,s1,r2,100,Online_conjL4_syn//b.ja.nu15.0.666.wav,ja,ru,ci,nu,sil,de,da,po,sil1,bo,sil2,['miss'],,,0.666,no_beat,,,,nu,2,,,,,,,,,,,,,,,2.0,3.0,castellano,0.0,ingles,17.0,3.0,2.0,yes,no,no,canto,15,,,nada ,73.0,yes
101,2023-11-17_09h39.01.919,Unsyncopated1,s77,22.0,feminino,right,España,castellano,Upper secondary,no,no,B,1,conjunction_syn,L4,syncopated,s2,r1,101,Online_conjL4_syn//b.ja.nu13.none.none.wav,re,ci,bu,zi,sil,po,bo,lo,sil1,pe,sil2,['-'],,,none,none,,,,nu,2,,,,,,,,,,,,,,,2.0,3.0,castellano,0.0,ingles,17.0,3.0,2.0,yes,no,no,canto,15,,,nada ,73.0,yes
102,2023-11-17_09h39.01.919,Unsyncopated1,s77,22.0,feminino,right,España,castellano,Upper secondary,no,no,B,1,conjunction_syn,L4,syncopated,s2,r1,102,Online_conjL4_syn//b.ja.nu14.none.none.wav,pe,ci,da,zi,sil,po,bu,lo,sil1,ña,sil2,['-'],,,none,none,,,,nu,2,,,,,,,,,,,,,,,2.0,3.0,castellano,0.0,ingles,17.0,3.0,2.0,yes,no,no,canto,15,,,nada ,73.0,yes
103,2023-11-17_09h39.01.919,Unsyncopated1,s77,22.0,feminino,right,España,castellano,Upper secondary,no,no,B,1,conjunction_syn,L4,syncopated,s1,r2,103,Online_conjL4_syn//b.ja.nu12.0.666.wav,ja,ñi,de,nu,sil,pe,po,da,sil1,ru,sil2,['catch'],[1.2211000000000922],[1.2211000000000922],0.666,no_beat,0.5551000000000922,0.5551000000000922,"[""space""]",nu,2,,,,,,,,,,,,,,,2.0,3.0,castellano,0.0,ingles,17.0,3.0,2.0,yes,no,no,canto,15,,,nada ,73.0,yes
104,2023-11-17_09h39.01.919,Unsyncopated1,s77,22.0,feminino,right,España,castellano,Upper secondary,no,no,B,1,conjunction_syn,L4,syncopated,s2,r2,104,Online_conjL4_syn//c.bu.da16.none.none.wav,po,ci,re,ja,sil,pe,de,nu,sil1,ru,sil2,['-'],,,none,none,,,,da,3,,,,,,,,,,,,,,,2.0,3.0,castellano,0.0,ingles,17.0,3.0,2.0,yes,no,no,canto,15,,,nada ,73.0,yes
105,2023-11-17_09h39.01.919,Unsyncopated1,s77,22.0,feminino,right,España,castellano,Upper secondary,no,no,B,1,conjunction_syn,L4,syncopated,s1,r1,105,Online_conjL4_syn//c.bu.da18.1110.1332.wav,zi,bo,ñi,lo,sil,bu,da,de,sil1,po,sil2,['miss'],,,1.332,no_beat,,,,da,3,,,,,,,,,,,,,,,2.0,3.0,castellano,0.0,ingles,17.0,3.0,2.0,yes,no,no,canto,15,,,nada ,73.0,yes
106,2023-11-17_09h39.01.919,Unsyncopated1,s77,22.0,feminino,right,España,castellano,Upper secondary,no,no,B,1,conjunction_syn,L4,syncopated,s1,r1,106,Online_conjL4_syn//c.bu.da17.none.none.wav,zi,bo,de,lo,sil,po,ña,re,sil1,ci,sil2,['false alarm'],[0.8218000000001666],[0.8218000000001666],none,none,,,"[""space""]",da,3,,,,,,,,,,,,,,,2.0,3.0,castellano,0.0,ingles,17.0,3.0,2.0,yes,no,no,canto,15,,,nada ,73.0,yes
107,2023-11-17_09h39.01.919,Unsyncopated1,s77,22.0,feminino,right,España,castellano,Upper secondary,no,no,B,1,conjunction_syn,L4,syncopated,s2,r1,107,Online_conjL4_syn//c.bu.da19.none.none.wav,po,ña,ru,zi,sil,de,pe,lo,sil1,ci,sil2,['-'],,,none,none,,,,da,3,,,,,,,,,,,,,,,2.0,3.0,castellano,0.0,ingles,17.0,3.0,2.0,yes,no,no,canto,15,,,nada ,73.0,yes
108,2023-11-17_09h39.01.919,Unsyncopated1,s77,22.0,feminino,right,España,castellano,Upper secondary,no,no,B,1,conjunction_syn,L4,syncopated,s1,r2,108,Online_conjL4_syn//d.pe.po31.444.1332.wav,ja,re,pe,nu,sil,de,po,ci,sil1,bo,sil2,['catch'],[1.9558999999999287],[1.9558999999999287],1.332,no_beat,0.6238999999999286,0.6238999999999286,"[""space""]",po,4,,,,,,,,,,,,,,,2.0,3.0,castellano,0.0,ingles,17.0,3.0,2.0,yes,no,no,canto,15,,,nada ,73.0,yes
109,2023-11-17_09h39.01.919,Unsyncopated1,s77,22.0,feminino,right,España,castellano,Upper secondary,no,no,B,1,conjunction_syn,L4,syncopated,s2,r2,109,Online_conjL4_syn//d.pe.po29.none.none.wav,da,ña,ru,ja,sil,ñi,de,nu,sil1,ci,sil2,['-'],,,none,none,,,,po,4,,,,,,,,,,,,,,,2.0,3.0,castellano,0.0,ingles,17.0,3.0,2.0,yes,no,no,canto,15,,,nada ,73.0,yes
110,2023-11-17_09h39.01.919,Unsyncopated1,s77,22.0,feminino,right,España,castellano,Upper secondary,no,no,B,1,conjunction_syn,L4,syncopated,s1,r2,110,Online_conjL4_syn//d.pe.po28.none.none.wav,ja,ru,ña,nu,sil,re,bu,da,sil1,ci,sil2,['-'],,,none,none,,,,po,4,,,,,,,,,,,,,,,2.0,3.0,castellano,0.0,ingles,17.0,3.0,2.0,yes,no,no,canto,15,,,nada ,73.0,yes
111,2023-11-17_09h39.01.919,Unsyncopated1,s77,22.0,feminino,right,España,castellano,Upper secondary,no,no,B,1,conjunction_syn,L4,syncopated,s2,r1,111,Online_conjL4_syn//d.pe.po30.444.0.wav,po,ru,pe,zi,sil,bu,ci,lo,sil1,re,sil2,['catch'],[0.6427000000001044],[0.6427000000001044],0.0,beat,0.6427000000001044,0.6427000000001044,"[""space""]",po,4,,,,,,,,,,,,,,,2.0,3.0,castellano,0.0,ingles,17.0,3.0,2.0,yes,no,no,canto,15,,,nada ,73.0,yes
112,2023-11-17_09h39.01.919,Unsyncopated1,s77,22.0,feminino,right,España,castellano,Upper secondary,no,no,B,1,conjunction_syn,L4,syncopated,s1,r1,112,Online_conjL4_syn//b.ja.nu5.none.none.wav,zi,bo,pe,lo,sil,po,re,da,sil1,ñi,sil2,['false alarm'],[1.772499999999809],[1.772499999999809],none,none,,,"[""space""]",nu,2,,,,,,,,,,,,,,,2.0,3.0,castellano,0.0,ingles,17.0,3.0,2.0,yes,no,no,canto,15,,,nada ,73.0,yes
113,2023-11-17_09h39.01.919,Unsyncopated1,s77,22.0,feminino,right,España,castellano,Upper secondary,no,no,B,1,conjunction_syn,L4,syncopated,s1,r2,113,Online_conjL4_syn//b.ja.nu4.0.666.wav,ja,re,ru,nu,sil,po,pe,da,sil1,ñi,sil2,['catch'],[1.225400000000036],[1.225400000000036],0.666,no_beat,0.559400000000036,0.559400000000036,"[""space""]",nu,2,,,,,,,,,,,,,,,2.0,3.0,castellano,0.0,ingles,17.0,3.0,2.0,yes,no,no,canto,15,,,nada ,73.0,yes
114,2023-11-17_09h39.01.919,Unsyncopated1,s77,22.0,feminino,right,España,castellano,Upper secondary,no,no,B,1,conjunction_syn,L4,syncopated,s1,r1,114,Online_conjL4_syn//b.ja.nu7.none.none.wav,zi,po,pe,lo,sil,ci,bu,ñi,sil1,ru,sil2,['-'],,,none,none,,,,nu,2,,,,,,,,,,,,,,,2.0,3.0,castellano,0.0,ingles,17.0,3.0,2.0,yes,no,no,canto,15,,,nada ,73.0,yes
115,2023-11-17_09h39.01.919,Unsyncopated1,s77,22.0,feminino,right,España,castellano,Upper secondary,no,no,B,1,conjunction_syn,L4,syncopated,s2,r1,115,Online_conjL4_syn//b.ja.nu6.none.none.wav,ña,po,ru,zi,sil,ñi,re,lo,sil1,bo,sil2,['-'],,,none,none,,,,nu,2,,,,,,,,,,,,,,,2.0,3.0,castellano,0.0,ingles,17.0,3.0,2.0,yes,no,no,canto,15,,,nada ,73.0,yes
116,2023-11-17_09h39.01.919,Unsyncopated1,s77,22.0,feminino,right,España,castellano,Upper secondary,no,no,B,1,conjunction_syn,L4,syncopated,s2,r2,116,Online_conjL4_syn//d.pe.po10.1332.444.wav,bu,ci,po,ja,sil,bo,pe,nu,sil1,de,sil2,['miss'],,,0.444,no_beat,,,,po,4,,,,,,,,,,,,,,,2.0,3.0,castellano,0.0,ingles,17.0,3.0,2.0,yes,no,no,canto,15,,,nada ,73.0,yes
117,2023-11-17_09h39.01.919,Unsyncopated1,s77,22.0,feminino,right,España,castellano,Upper secondary,no,no,B,1,conjunction_syn,L4,syncopated,s1,r2,117,Online_conjL4_syn//d.pe.po11.1332.222.wav,ja,po,re,nu,sil,ñi,pe,ña,sil1,ci,sil2,['catch'],[0.678000000000111],[0.678000000000111],0.222,no_beat,0.456000000000111,0.456000000000111,"[""space""]",po,4,,,,,,,,,,,,,,,2.0,3.0,castellano,0.0,ingles,17.0,3.0,2.0,yes,no,no,canto,15,,,nada ,73.0,yes
118,2023-11-17_09h39.01.919,Unsyncopated1,s77,22.0,feminino,right,España,castellano,Upper secondary,no,no,B,1,conjunction_syn,L4,syncopated,s1,r2,118,Online_conjL4_syn//d.pe.po8.none.none.wav,ja,re,de,nu,sil,ci,ru,ñi,sil1,bu,sil2,['-'],,,none,none,,,,po,4,,,,,,,,,,,,,,,2.0,3.0,castellano,0.0,ingles,17.0,3.0,2.0,yes,no,no,canto,15,,,nada ,73.0,yes
119,2023-11-17_09h39.01.919,Unsyncopated1,s77,22.0,feminino,right,España,castellano,Upper secondary,no,no,B,1,conjunction_syn,L4,syncopated,s1,r1,119,Online_conjL4_syn//d.pe.po9.1554.1110.wav,zi,bo,ci,lo,sil,po,de,pe,sil1,ru,sil2,['catch'],[1.6725000000001273],[1.6725000000001273],1.11,no_beat,0.5625000000001272,0.5625000000001272,"[""space""]",po,4,,,,,,,,,,,,,,,2.0,3.0,castellano,0.0,ingles,17.0,3.0,2.0,yes,no,no,canto,15,,,nada ,73.0,yes
120,2023-11-17_09h39.01.919,Unsyncopated1,s77,22.0,feminino,right,España,castellano,Upper secondary,no,no,B,1,conjunction_syn,L4,syncopated,s2,r2,120,Online_conjL4_syn//b.ja.nu31.666.1554.wav,po,ru,ña,ja,sil,da,ci,nu,sil1,re,sil2,['miss'],,,1.554,no_beat,,,,nu,2,,,,,,,,,,,,,,,2.0,3.0,castellano,0.0,ingles,17.0,3.0,2.0,yes,no,no,canto,15,,,nada ,73.0,yes
121,2023-11-17_09h39.01.919,Unsyncopated1,s77,22.0,feminino,right,España,castellano,Upper secondary,no,no,B,1,conjunction_syn,L4,syncopated,s2,r1,121,Online_conjL4_syn//b.ja.nu29.none.none.wav,da,po,ña,zi,sil,pe,re,lo,sil1,bo,sil2,['-'],,,none,none,,,,nu,2,,,,,,,,,,,,,,,2.0,3.0,castellano,0.0,ingles,17.0,3.0,2.0,yes,no,no,canto,15,,,nada ,73.0,yes
122,2023-11-17_09h39.01.919,Unsyncopated1,s77,22.0,feminino,right,España,castellano,Upper secondary,no,no,B,1,conjunction_syn,L4,syncopated,s2,r1,122,Online_conjL4_syn//b.ja.nu30.none.none.wav,ci,ña,ru,zi,sil,bo,pe,lo,sil1,bu,sil2,['-'],,,none,none,,,,nu,2,,,,,,,,,,,,,,,2.0,3.0,castellano,0.0,ingles,17.0,3.0,2.0,yes,no,no,canto,15,,,nada ,73.0,yes
123,2023-11-17_09h39.01.919,Unsyncopated1,s77,22.0,feminino,right,España,castellano,Upper secondary,no,no,B,1,conjunction_syn,L4,syncopated,s1,r1,123,Online_conjL4_syn//b.ja.nu28.none.none.wav,zi,ña,bu,lo,sil,re,de,ci,sil1,pe,sil2,['-'],,,none,none,,,,nu,2,,,,,,,,,,,,,,,2.0,3.0,castellano,0.0,ingles,17.0,3.0,2.0,yes,no,no,canto,15,,,nada ,73.0,yes
124,2023-11-17_09h39.01.919,Unsyncopated1,s77,22.0,feminino,right,España,castellano,Upper secondary,no,no,B,1,conjunction_syn,L4,syncopated,s2,r2,124,Online_conjL4_syn//a.zi.lo13.none.none.wav,pe,de,ña,ja,sil,ci,ru,nu,sil1,po,sil2,['-'],,,none,none,,,,zi,1,,,,,,,,,,,,,,,2.0,3.0,castellano,0.0,ingles,17.0,3.0,2.0,yes,no,no,canto,15,,,nada ,73.0,yes
125,2023-11-17_09h39.01.919,Unsyncopated1,s77,22.0,feminino,right,España,castellano,Upper secondary,no,no,B,1,conjunction_syn,L4,syncopated,s2,r1,125,Online_conjL4_syn//a.zi.lo14.666.1554.wav,ci,bo,pe,zi,sil,re,bu,lo,sil1,da,sil2,['catch'],[1.4069999999999254],[1.4069999999999254],0.666,no_beat,0.7409999999999254,0.7409999999999254,"[""space""]",zi,1,,,,,,,,,,,,,,,2.0,3.0,castellano,0.0,ingles,17.0,3.0,2.0,yes,no,no,canto,15,,,nada ,73.0,yes
126,2023-11-17_09h39.01.919,Unsyncopated1,s77,22.0,feminino,right,España,castellano,Upper secondary,no,no,B,1,conjunction_syn,L4,syncopated,s1,r2,126,Online_conjL4_syn//a.zi.lo12.none.none.wav,ja,ci,ña,nu,sil,bu,bo,de,sil1,re,sil2,['-'],,,none,none,,,,zi,1,,,,,,,,,,,,,,,2.0,3.0,castellano,0.0,ingles,17.0,3.0,2.0,yes,no,no,canto,15,,,nada ,73.0,yes
127,2023-11-17_09h39.01.919,Unsyncopated1,s77,22.0,feminino,right,España,castellano,Upper secondary,no,no,B,1,conjunction_syn,L4,syncopated,s1,r1,127,Online_conjL4_syn//a.zi.lo15.0.666.wav,zi,pe,ci,lo,sil,bo,po,ña,sil1,da,sil2,['catch'],[0.5466999999998734],[0.5466999999998734],0.0,beat,0.5466999999998734,0.5466999999998734,"[""space""]",zi,1,,,,,,,,,,,,,,,2.0,3.0,castellano,0.0,ingles,17.0,3.0,2.0,yes,no,no,canto,15,,,nada ,73.0,yes
128,2023-11-17_09h39.01.919,Unsyncopated1,s77,22.0,feminino,right,España,castellano,Upper secondary,no,no,B,2,when,L3,unsyncopated,when,when,0,Online_whenL3//b.ñe33.none.wav,gu,li,ka,sil,sa,fu,le,sil1,di,chu,sil2,['-'],,,none,none,,,,ñe,2,,,,,,,,,,,,,,,2.0,3.0,castellano,0.0,ingles,17.0,3.0,2.0,yes,no,no,canto,15,,,nada ,73.0,yes
129,2023-11-17_09h39.01.919,Unsyncopated1,s77,22.0,feminino,right,España,castellano,Upper secondary,no,no,B,2,when,L3,unsyncopated,when,when,1,Online_whenL3//b.ñe32.none.wav,li,fu,mo,sil,ko,ji,chu,sil1,gu,do,sil2,['-'],,,none,none,,,,ñe,2,,,,,,,,,,,,,,,2.0,3.0,castellano,0.0,ingles,17.0,3.0,2.0,yes,no,no,canto,15,,,nada ,73.0,yes
130,2023-11-17_09h39.01.919,Unsyncopated1,s77,22.0,feminino,right,España,castellano,Upper secondary,no,no,B,2,when,L3,unsyncopated,when,when,2,Online_whenL3//b.ñe35.1776.wav,le,ka,do,sil,chu,ga,ji,sil1,ñe,gu,sil2,['catch'],[2.3125999999997475],[2.3125999999997475],1.776,beat,0.5365999999997475,0.5365999999997475,"[""space""]",ñe,2,,,,,,,,,,,,,,,2.0,3.0,castellano,0.0,ingles,17.0,3.0,2.0,yes,no,no,canto,15,,,nada ,73.0,yes
131,2023-11-17_09h39.01.919,Unsyncopated1,s77,22.0,feminino,right,España,castellano,Upper secondary,no,no,B,2,when,L3,unsyncopated,when,when,3,Online_whenL3//b.ñe34.444.wav,fu,ka,ñe,sil,ko,do,chu,sil1,ga,je,sil2,['catch'],[1.0914000000000215],[1.0914000000000215],0.444,no_beat,0.6474000000000215,0.6474000000000215,"[""space""]",ñe,2,,,,,,,,,,,,,,,2.0,3.0,castellano,0.0,ingles,17.0,3.0,2.0,yes,no,no,canto,15,,,nada ,73.0,yes
132,2023-11-17_09h39.01.919,Unsyncopated1,s77,22.0,feminino,right,España,castellano,Upper secondary,no,no,B,2,when,L3,unsyncopated,when,when,4,Online_whenL3//a.mo10.none.wav,di,ko,le,sil,chu,fu,ka,sil1,sa,ji,sil2,['-'],,,none,none,,,,mo,1,,,,,,,,,,,,,,,2.0,3.0,castellano,0.0,ingles,17.0,3.0,2.0,yes,no,no,canto,15,,,nada ,73.0,yes
133,2023-11-17_09h39.01.919,Unsyncopated1,s77,22.0,feminino,right,España,castellano,Upper secondary,no,no,B,2,when,L3,unsyncopated,when,when,5,Online_whenL3//a.mo11.none.wav,chu,li,ñe,sil,je,fu,le,sil1,ko,di,sil2,['-'],,,none,none,,,,mo,1,,,,,,,,,,,,,,,2.0,3.0,castellano,0.0,ingles,17.0,3.0,2.0,yes,no,no,canto,15,,,nada ,73.0,yes
134,2023-11-17_09h39.01.919,Unsyncopated1,s77,22.0,feminino,right,España,castellano,Upper secondary,no,no,B,2,when,L3,unsyncopated,when,when,6,Online_whenL3//a.mo9.1332.wav,fu,sa,do,sil,ji,gu,mo,sil1,ka,je,sil2,['catch'],[1.8324000000002343],[1.8324000000002343],1.332,no_beat,0.5004000000002342,0.5004000000002342,"[""space""]",mo,1,,,,,,,,,,,,,,,2.0,3.0,castellano,0.0,ingles,17.0,3.0,2.0,yes,no,no,canto,15,,,nada ,73.0,yes
135,2023-11-17_09h39.01.919,Unsyncopated1,s77,22.0,feminino,right,España,castellano,Upper secondary,no,no,B,2,when,L3,unsyncopated,when,when,7,Online_whenL3//a.mo8.1776.wav,je,ga,ka,sil,le,li,ñe,sil1,mo,gu,sil2,['catch'],[2.3239999999998417],[2.3239999999998417],1.776,beat,0.5479999999998417,0.5479999999998417,"[""space""]",mo,1,,,,,,,,,,,,,,,2.0,3.0,castellano,0.0,ingles,17.0,3.0,2.0,yes,no,no,canto,15,,,nada ,73.0,yes
136,2023-11-17_09h39.01.919,Unsyncopated1,s77,22.0,feminino,right,España,castellano,Upper secondary,no,no,B,2,when,L3,unsyncopated,when,when,8,Online_whenL3//a.mo13.1776.wav,chu,ji,do,sil,gu,le,fu,sil1,mo,ka,sil2,['catch'],[2.5175999999996748],[2.5175999999996748],1.776,beat,0.7415999999996747,0.7415999999996747,"[""space""]",mo,1,,,,,,,,,,,,,,,2.0,3.0,castellano,0.0,ingles,17.0,3.0,2.0,yes,no,no,canto,15,,,nada ,73.0,yes
137,2023-11-17_09h39.01.919,Unsyncopated1,s77,22.0,feminino,right,España,castellano,Upper secondary,no,no,B,2,when,L3,unsyncopated,when,when,9,Online_whenL3//a.mo15.1110.wav,ga,le,do,sil,ñe,mo,fu,sil1,di,li,sil2,['catch'],[1.922399999999925],[1.922399999999925],1.11,no_beat,0.812399999999925,0.812399999999925,"[""space""]",mo,1,,,,,,,,,,,,,,,2.0,3.0,castellano,0.0,ingles,17.0,3.0,2.0,yes,no,no,canto,15,,,nada ,73.0,yes
138,2023-11-17_09h39.01.919,Unsyncopated1,s77,22.0,feminino,right,España,castellano,Upper secondary,no,no,B,2,when,L3,unsyncopated,when,when,10,Online_whenL3//a.mo12.none.wav,je,ji,ñe,sil,le,do,gu,sil1,ga,sa,sil2,['-'],,,none,none,,,,mo,1,,,,,,,,,,,,,,,2.0,3.0,castellano,0.0,ingles,17.0,3.0,2.0,yes,no,no,canto,15,,,nada ,73.0,yes
139,2023-11-17_09h39.01.919,Unsyncopated1,s77,22.0,feminino,right,España,castellano,Upper secondary,no,no,B,2,when,L3,unsyncopated,when,when,11,Online_whenL3//a.mo14.none.wav,di,ko,ga,sil,gu,do,sa,sil1,ka,chu,sil2,['-'],,,none,none,,,,mo,1,,,,,,,,,,,,,,,2.0,3.0,castellano,0.0,ingles,17.0,3.0,2.0,yes,no,no,canto,15,,,nada ,73.0,yes
140,2023-11-17_09h39.01.919,Unsyncopated1,s77,22.0,feminino,right,España,castellano,Upper secondary,no,no,B,2,when,L3,unsyncopated,when,when,12,Online_whenL3//c.gu29.1110.wav,mo,je,ko,sil,ñe,gu,ka,sil1,li,ga,sil2,['catch'],[1.8698000000001684],[1.8698000000001684],1.11,no_beat,0.7598000000001683,0.7598000000001683,"[""space""]",gu,3,,,,,,,,,,,,,,,2.0,3.0,castellano,0.0,ingles,17.0,3.0,2.0,yes,no,no,canto,15,,,nada ,73.0,yes
141,2023-11-17_09h39.01.919,Unsyncopated1,s77,22.0,feminino,right,España,castellano,Upper secondary,no,no,B,2,when,L3,unsyncopated,when,when,13,Online_whenL3//c.gu28.none.wav,chu,di,ko,sil,sa,le,ji,sil1,li,ka,sil2,['-'],,,none,none,,,,gu,3,,,,,,,,,,,,,,,2.0,3.0,castellano,0.0,ingles,17.0,3.0,2.0,yes,no,no,canto,15,,,nada ,73.0,yes
142,2023-11-17_09h39.01.919,Unsyncopated1,s77,22.0,feminino,right,España,castellano,Upper secondary,no,no,B,2,when,L3,unsyncopated,when,when,14,Online_whenL3//c.gu30.0.wav,gu,ka,ga,sil,mo,li,le,sil1,di,sa,sil2,['catch'],[0.8003000000001066],[0.8003000000001066],0.0,beat,0.8003000000001066,0.8003000000001066,"[""space""]",gu,3,,,,,,,,,,,,,,,2.0,3.0,castellano,0.0,ingles,17.0,3.0,2.0,yes,no,no,canto,15,,,nada ,73.0,yes
143,2023-11-17_09h39.01.919,Unsyncopated1,s77,22.0,feminino,right,España,castellano,Upper secondary,no,no,B,2,when,L3,unsyncopated,when,when,15,Online_whenL3//c.gu31.none.wav,ka,ñe,sa,sil,li,do,le,sil1,ji,ko,sil2,['-'],,,none,none,,,,gu,3,,,,,,,,,,,,,,,2.0,3.0,castellano,0.0,ingles,17.0,3.0,2.0,yes,no,no,canto,15,,,nada ,73.0,yes
144,2023-11-17_09h39.01.919,Unsyncopated1,s77,22.0,feminino,right,España,castellano,Upper secondary,no,no,B,2,when,L3,unsyncopated,when,when,16,Online_whenL3//a.mo25.none.wav,sa,ji,ga,sil,do,ñe,je,sil1,di,ka,sil2,['-'],,,none,none,,,,mo,1,,,,,,,,,,,,,,,2.0,3.0,castellano,0.0,ingles,17.0,3.0,2.0,yes,no,no,canto,15,,,nada ,73.0,yes
145,2023-11-17_09h39.01.919,Unsyncopated1,s77,22.0,feminino,right,España,castellano,Upper secondary,no,no,B,2,when,L3,unsyncopated,when,when,17,Online_whenL3//a.mo27.888.wav,fu,le,ka,sil,mo,ko,gu,sil1,chu,di,sil2,['catch'],[1.5726999999999407],[1.5726999999999407],0.888,beat,0.6846999999999407,0.6846999999999407,"[""space""]",mo,1,,,,,,,,,,,,,,,2.0,3.0,castellano,0.0,ingles,17.0,3.0,2.0,yes,no,no,canto,15,,,nada ,73.0,yes
146,2023-11-17_09h39.01.919,Unsyncopated1,s77,22.0,feminino,right,España,castellano,Upper secondary,no,no,B,2,when,L3,unsyncopated,when,when,18,Online_whenL3//a.mo26.none.wav,di,li,ka,sil,chu,ji,je,sil1,do,ñe,sil2,['-'],,,none,none,,,,mo,1,,,,,,,,,,,,,,,2.0,3.0,castellano,0.0,ingles,17.0,3.0,2.0,yes,no,no,canto,15,,,nada ,73.0,yes
147,2023-11-17_09h39.01.919,Unsyncopated1,s77,22.0,feminino,right,España,castellano,Upper secondary,no,no,B,2,when,L3,unsyncopated,when,when,19,Online_whenL3//a.mo24.1998.wav,ji,le,do,sil,li,chu,fu,sil1,gu,mo,sil2,['catch'],[2.4430999999999585],[2.4430999999999585],1.998,no_beat,0.4450999999999585,0.4450999999999585,"[""space""]",mo,1,,,,,,,,,,,,,,,2.0,3.0,castellano,0.0,ingles,17.0,3.0,2.0,yes,no,no,canto,15,,,nada ,73.0,yes
148,2023-11-17_09h39.01.919,Unsyncopated1,s77,22.0,feminino,right,España,castellano,Upper secondary,no,no,B,2,when,L3,unsyncopated,when,when,20,Online_whenL3//c.gu17.none.wav,ga,ji,le,sil,sa,ka,chu,sil1,do,je,sil2,['-'],,,none,none,,,,gu,3,,,,,,,,,,,,,,,2.0,3.0,castellano,0.0,ingles,17.0,3.0,2.0,yes,no,no,canto,15,,,nada ,73.0,yes
149,2023-11-17_09h39.01.919,Unsyncopated1,s77,22.0,feminino,right,España,castellano,Upper secondary,no,no,B,2,when,L3,unsyncopated,when,when,21,Online_whenL3//c.gu18.444.wav,di,ko,gu,sil,chu,sa,ka,sil1,li,do,sil2,['catch'],[1.292599999999993],[1.292599999999993],0.444,no_beat,0.8485999999999931,0.8485999999999931,"[""space""]",gu,3,,,,,,,,,,,,,,,2.0,3.0,castellano,0.0,ingles,17.0,3.0,2.0,yes,no,no,canto,15,,,nada ,73.0,yes
150,2023-11-17_09h39.01.919,Unsyncopated1,s77,22.0,feminino,right,España,castellano,Upper secondary,no,no,B,2,when,L3,unsyncopated,when,when,22,Online_whenL3//c.gu19.1998.wav,ka,sa,je,sil,chu,do,ji,sil1,le,gu,sil2,['catch_delay'],[0.8018999999999925],[0.8018999999999925],1.998,no_beat,0.8018999999999925,0.8018999999999925,,gu,3,,,,,,,,,,,,,,,2.0,3.0,castellano,0.0,ingles,17.0,3.0,2.0,yes,no,no,canto,15,,,nada ,73.0,yes
151,2023-11-17_09h39.01.919,Unsyncopated1,s77,22.0,feminino,right,España,castellano,Upper secondary,no,no,B,2,when,L3,unsyncopated,when,when,23,Online_whenL3//c.gu16.1332.wav,do,ji,ñe,sil,ka,ga,gu,sil1,mo,di,sil2,['catch'],"[0.13589999999999236, 2.438799999999901]",[2.438799999999901],1.332,no_beat,1.106799999999901,1.106799999999901,"[""space"",""space""]",gu,3,,,,,,,,,,,,,,,2.0,3.0,castellano,0.0,ingles,17.0,3.0,2.0,yes,no,no,canto,15,,,nada ,73.0,yes
152,2023-11-17_09h39.01.919,Unsyncopated1,s77,22.0,feminino,right,España,castellano,Upper secondary,no,no,B,2,when,L3,unsyncopated,when,when,24,Online_whenL3//b.ñe22.none.wav,fu,li,ko,sil,mo,je,le,sil1,sa,ka,sil2,['-'],,,none,none,,,,ñe,2,,,,,,,,,,,,,,,2.0,3.0,castellano,0.0,ingles,17.0,3.0,2.0,yes,no,no,canto,15,,,nada ,73.0,yes
153,2023-11-17_09h39.01.919,Unsyncopated1,s77,22.0,feminino,right,España,castellano,Upper secondary,no,no,B,2,when,L3,unsyncopated,when,when,25,Online_whenL3//b.ñe21.1998.wav,gu,li,le,sil,fu,do,di,sil1,sa,ñe,sil2,['catch_delay'],[0.731699999999879],[0.731699999999879],1.998,no_beat,0.731699999999879,0.731699999999879,,ñe,2,,,,,,,,,,,,,,,2.0,3.0,castellano,0.0,ingles,17.0,3.0,2.0,yes,no,no,canto,15,,,nada ,73.0,yes
154,2023-11-17_09h39.01.919,Unsyncopated1,s77,22.0,feminino,right,España,castellano,Upper secondary,no,no,B,2,when,L3,unsyncopated,when,when,26,Online_whenL3//b.ñe20.none.wav,li,gu,di,sil,ko,ka,ga,sil1,sa,chu,sil2,['-'],[0.06569999999987886],[0.06569999999987886],none,none,,,"[""space""]",ñe,2,,,,,,,,,,,,,,,2.0,3.0,castellano,0.0,ingles,17.0,3.0,2.0,yes,no,no,canto,15,,,nada ,73.0,yes
155,2023-11-17_09h39.01.919,Unsyncopated1,s77,22.0,feminino,right,España,castellano,Upper secondary,no,no,B,2,when,L3,unsyncopated,when,when,27,Online_whenL3//b.ñe23.1776.wav,je,ka,ji,sil,mo,gu,do,sil1,ñe,le,sil2,['catch'],[2.493800000000192],[2.493800000000192],1.776,beat,0.7178000000001921,0.7178000000001921,"[""space""]",ñe,2,,,,,,,,,,,,,,,2.0,3.0,castellano,0.0,ingles,17.0,3.0,2.0,yes,no,no,canto,15,,,nada ,73.0,yes
156,2023-11-17_09h39.01.919,Unsyncopated1,s77,22.0,feminino,right,España,castellano,Upper secondary,no,no,B,2,when,L3,unsyncopated,when,when,28,Online_whenL3//c.gu27.none.wav,li,je,ko,sil,ji,fu,mo,sil1,ñe,di,sil2,['-'],,,none,none,,,,gu,3,,,,,,,,,,,,,,,2.0,3.0,castellano,0.0,ingles,17.0,3.0,2.0,yes,no,no,canto,15,,,nada ,73.0,yes
157,2023-11-17_09h39.01.919,Unsyncopated1,s77,22.0,feminino,right,España,castellano,Upper secondary,no,no,B,2,when,L3,unsyncopated,when,when,29,Online_whenL3//c.gu25.222.wav,chu,gu,ko,sil,fu,ga,li,sil1,di,ñe,sil2,['miss'],,,0.222,no_beat,,,,gu,3,,,,,,,,,,,,,,,2.0,3.0,castellano,0.0,ingles,17.0,3.0,2.0,yes,no,no,canto,15,,,nada ,73.0,yes
158,2023-11-17_09h39.01.919,Unsyncopated1,s77,22.0,feminino,right,España,castellano,Upper secondary,no,no,B,2,when,L3,unsyncopated,when,when,30,Online_whenL3//c.gu26.none.wav,sa,ji,li,sil,le,di,ga,sil1,chu,fu,sil2,['-'],,,none,none,,,,gu,3,,,,,,,,,,,,,,,2.0,3.0,castellano,0.0,ingles,17.0,3.0,2.0,yes,no,no,canto,15,,,nada ,73.0,yes
159,2023-11-17_09h39.01.919,Unsyncopated1,s77,22.0,feminino,right,España,castellano,Upper secondary,no,no,B,2,when,L3,unsyncopated,when,when,31,Online_whenL3//c.gu24.1110.wav,ñe,ko,ji,sil,li,gu,le,sil1,chu,ga,sil2,['catch'],[1.1272000000001299],[1.1272000000001299],1.11,no_beat,0.0172000000001297,0.0172000000001297,"[""space""]",gu,3,,,,,,,,,,,,,,,2.0,3.0,castellano,0.0,ingles,17.0,3.0,2.0,yes,no,no,canto,15,,,nada ,73.0,yes
160,2023-11-17_09h39.01.919,Unsyncopated1,s77,22.0,feminino,right,España,castellano,Upper secondary,no,no,B,2,when,L3,unsyncopated,when,when,32,Online_whenL3//a.mo32.none.wav,ji,gu,je,sil,ga,do,ñe,sil1,chu,le,sil2,['-'],,,none,none,,,,mo,1,,,,,,,,,,,,,,,2.0,3.0,castellano,0.0,ingles,17.0,3.0,2.0,yes,no,no,canto,15,,,nada ,73.0,yes
161,2023-11-17_09h39.01.919,Unsyncopated1,s77,22.0,feminino,right,España,castellano,Upper secondary,no,no,B,2,when,L3,unsyncopated,when,when,33,Online_whenL3//a.mo33.0.wav,mo,fu,di,sil,ga,do,le,sil1,ñe,ka,sil2,['catch'],[0.47860000000014224],[0.47860000000014224],0.0,beat,0.4786000000001422,0.4786000000001422,"[""space""]",mo,1,,,,,,,,,,,,,,,2.0,3.0,castellano,0.0,ingles,17.0,3.0,2.0,yes,no,no,canto,15,,,nada ,73.0,yes
162,2023-11-17_09h39.01.919,Unsyncopated1,s77,22.0,feminino,right,España,castellano,Upper secondary,no,no,B,2,when,L3,unsyncopated,when,when,34,Online_whenL3//a.mo34.222.wav,do,mo,ga,sil,chu,ka,ji,sil1,di,ko,sil2,['miss'],,,0.222,no_beat,,,,mo,1,,,,,,,,,,,,,,,2.0,3.0,castellano,0.0,ingles,17.0,3.0,2.0,yes,no,no,canto,15,,,nada ,73.0,yes
163,2023-11-17_09h39.01.919,Unsyncopated1,s77,22.0,feminino,right,España,castellano,Upper secondary,no,no,B,2,when,L3,unsyncopated,when,when,35,Online_whenL3//a.mo35.none.wav,ji,je,ka,sil,ga,fu,ñe,sil1,sa,li,sil2,['-'],,,none,none,,,,mo,1,,,,,,,,,,,,,,,2.0,3.0,castellano,0.0,ingles,17.0,3.0,2.0,yes,no,no,canto,15,,,nada ,73.0,yes
164,2023-11-17_09h39.01.919,Unsyncopated1,s77,22.0,feminino,right,España,castellano,Upper secondary,no,no,B,2,when,L3,unsyncopated,when,when,36,Online_whenL3//c.gu12.0.wav,gu,sa,ji,sil,je,ko,do,sil1,le,chu,sil2,['miss'],,,0.0,beat,,,,gu,3,,,,,,,,,,,,,,,2.0,3.0,castellano,0.0,ingles,17.0,3.0,2.0,yes,no,no,canto,15,,,nada ,73.0,yes
165,2023-11-17_09h39.01.919,Unsyncopated1,s77,22.0,feminino,right,España,castellano,Upper secondary,no,no,B,2,when,L3,unsyncopated,when,when,37,Online_whenL3//c.gu13.none.wav,ñe,ko,chu,sil,di,je,fu,sil1,do,le,sil2,['-'],,,none,none,,,,gu,3,,,,,,,,,,,,,,,2.0,3.0,castellano,0.0,ingles,17.0,3.0,2.0,yes,no,no,canto,15,,,nada ,73.0,yes
166,2023-11-17_09h39.01.919,Unsyncopated1,s77,22.0,feminino,right,España,castellano,Upper secondary,no,no,B,2,when,L3,unsyncopated,when,when,38,Online_whenL3//c.gu14.444.wav,ka,le,gu,sil,chu,mo,do,sil1,fu,ji,sil2,['catch'],[1.2935999999999694],[1.2935999999999694],0.444,no_beat,0.8495999999999695,0.8495999999999695,"[""space""]",gu,3,,,,,,,,,,,,,,,2.0,3.0,castellano,0.0,ingles,17.0,3.0,2.0,yes,no,no,canto,15,,,nada ,73.0,yes
167,2023-11-17_09h39.01.919,Unsyncopated1,s77,22.0,feminino,right,España,castellano,Upper secondary,no,no,B,2,when,L3,unsyncopated,when,when,39,Online_whenL3//c.gu15.none.wav,je,chu,li,sil,mo,ko,di,sil1,ji,do,sil2,['-'],,,none,none,,,,gu,3,,,,,,,,,,,,,,,2.0,3.0,castellano,0.0,ingles,17.0,3.0,2.0,yes,no,no,canto,15,,,nada ,73.0,yes
168,2023-11-17_09h39.01.919,Unsyncopated1,s77,22.0,feminino,right,España,castellano,Upper secondary,no,no,B,2,when,L3,unsyncopated,when,when,40,Online_whenL3//b.ñe15.none.wav,je,di,li,sil,ji,ko,sa,sil1,mo,ga,sil2,['-'],,,none,none,,,,ñe,2,,,,,,,,,,,,,,,2.0,3.0,castellano,0.0,ingles,17.0,3.0,2.0,yes,no,no,canto,15,,,nada ,73.0,yes
169,2023-11-17_09h39.01.919,Unsyncopated1,s77,22.0,feminino,right,España,castellano,Upper secondary,no,no,B,2,when,L3,unsyncopated,when,when,41,Online_whenL3//b.ñe13.none.wav,chu,ka,le,sil,ko,je,mo,sil1,fu,di,sil2,['-'],,,none,none,,,,ñe,2,,,,,,,,,,,,,,,2.0,3.0,castellano,0.0,ingles,17.0,3.0,2.0,yes,no,no,canto,15,,,nada ,73.0,yes
170,2023-11-17_09h39.01.919,Unsyncopated1,s77,22.0,feminino,right,España,castellano,Upper secondary,no,no,B,2,when,L3,unsyncopated,when,when,42,Online_whenL3//b.ñe12.none.wav,ji,li,je,sil,mo,ka,chu,sil1,fu,ko,sil2,['-'],,,none,none,,,,ñe,2,,,,,,,,,,,,,,,2.0,3.0,castellano,0.0,ingles,17.0,3.0,2.0,yes,no,no,canto,15,,,nada ,73.0,yes
171,2023-11-17_09h39.01.919,Unsyncopated1,s77,22.0,feminino,right,España,castellano,Upper secondary,no,no,B,2,when,L3,unsyncopated,when,when,43,Online_whenL3//b.ñe14.1776.wav,do,je,ko,sil,fu,gu,chu,sil1,ñe,ka,sil2,['catch'],[2.5179000000002816],[2.5179000000002816],1.776,beat,0.7419000000002816,0.7419000000002816,"[""space""]",ñe,2,,,,,,,,,,,,,,,2.0,3.0,castellano,0.0,ingles,17.0,3.0,2.0,yes,no,no,canto,15,,,nada ,73.0,yes
172,2023-11-17_09h39.01.919,Unsyncopated1,s77,22.0,feminino,right,España,castellano,Upper secondary,no,no,B,2,when,L3,unsyncopated,when,when,44,Online_whenL3//b.ñe2.888.wav,ji,li,do,sil,ñe,mo,ga,sil1,le,fu,sil2,['catch'],[1.7203000000001794],[1.7203000000001794],0.888,beat,0.8323000000001793,0.8323000000001793,"[""space""]",ñe,2,,,,,,,,,,,,,,,2.0,3.0,castellano,0.0,ingles,17.0,3.0,2.0,yes,no,no,canto,15,,,nada ,73.0,yes
173,2023-11-17_09h39.01.919,Unsyncopated1,s77,22.0,feminino,right,España,castellano,Upper secondary,no,no,B,2,when,L3,unsyncopated,when,when,45,Online_whenL3//b.ñe0.222.wav,ka,ñe,gu,sil,ga,le,chu,sil1,fu,do,sil2,['miss'],,,0.222,no_beat,,,,ñe,2,,,,,,,,,,,,,,,2.0,3.0,castellano,0.0,ingles,17.0,3.0,2.0,yes,no,no,canto,15,,,nada ,73.0,yes
174,2023-11-17_09h39.01.919,Unsyncopated1,s77,22.0,feminino,right,España,castellano,Upper secondary,no,no,B,2,when,L3,unsyncopated,when,when,46,Online_whenL3//b.ñe3.none.wav,chu,ko,mo,sil,li,je,ji,sil1,fu,do,sil2,['-'],,,none,none,,,,ñe,2,,,,,,,,,,,,,,,2.0,3.0,castellano,0.0,ingles,17.0,3.0,2.0,yes,no,no,canto,15,,,nada ,73.0,yes
175,2023-11-17_09h39.01.919,Unsyncopated1,s77,22.0,feminino,right,España,castellano,Upper secondary,no,no,B,2,when,L3,unsyncopated,when,when,47,Online_whenL3//b.ñe1.1998.wav,ka,ko,je,sil,ga,gu,di,sil1,sa,ñe,sil2,['catch_delay'],[0.7844999999998128],[0.7844999999998128],1.998,no_beat,0.7844999999998128,0.7844999999998128,,ñe,2,,,,,,,,,,,,,,,2.0,3.0,castellano,0.0,ingles,17.0,3.0,2.0,yes,no,no,canto,15,,,nada ,73.0,yes
176,2023-11-17_09h39.01.919,Unsyncopated1,s77,22.0,feminino,right,España,castellano,Upper secondary,no,no,B,2,when,L3,unsyncopated,when,when,48,Online_whenL3//b.ñe10.none.wav,ga,fu,le,sil,chu,ko,ka,sil1,mo,je,sil2,['-'],[0.11849999999981264],[0.11849999999981264],none,none,,,"[""space""]",ñe,2,,,,,,,,,,,,,,,2.0,3.0,castellano,0.0,ingles,17.0,3.0,2.0,yes,no,no,canto,15,,,nada ,73.0,yes
177,2023-11-17_09h39.01.919,Unsyncopated1,s77,22.0,feminino,right,España,castellano,Upper secondary,no,no,B,2,when,L3,unsyncopated,when,when,49,Online_whenL3//b.ñe11.none.wav,ka,ji,li,sil,ko,ga,sa,sil1,mo,di,sil2,['-'],,,none,none,,,,ñe,2,,,,,,,,,,,,,,,2.0,3.0,castellano,0.0,ingles,17.0,3.0,2.0,yes,no,no,canto,15,,,nada ,73.0,yes
178,2023-11-17_09h39.01.919,Unsyncopated1,s77,22.0,feminino,right,España,castellano,Upper secondary,no,no,B,2,when,L3,unsyncopated,when,when,50,Online_whenL3//b.ñe8.none.wav,le,do,ko,sil,gu,mo,fu,sil1,ji,sa,sil2,['-'],,,none,none,,,,ñe,2,,,,,,,,,,,,,,,2.0,3.0,castellano,0.0,ingles,17.0,3.0,2.0,yes,no,no,canto,15,,,nada ,73.0,yes
179,2023-11-17_09h39.01.919,Unsyncopated1,s77,22.0,feminino,right,España,castellano,Upper secondary,no,no,B,2,when,L3,unsyncopated,when,when,51,Online_whenL3//b.ñe9.1110.wav,fu,do,ka,sil,li,ñe,chu,sil1,ko,ji,sil2,['miss'],,,1.11,no_beat,,,,ñe,2,,,,,,,,,,,,,,,2.0,3.0,castellano,0.0,ingles,17.0,3.0,2.0,yes,no,no,canto,15,,,nada ,73.0,yes
180,2023-11-17_09h39.01.919,Unsyncopated1,s77,22.0,feminino,right,España,castellano,Upper secondary,no,no,B,2,when,L3,unsyncopated,when,when,52,Online_whenL3//a.mo22.none.wav,je,ga,ka,sil,ñe,chu,fu,sil1,li,ji,sil2,['-'],,,none,none,,,,mo,1,,,,,,,,,,,,,,,2.0,3.0,castellano,0.0,ingles,17.0,3.0,2.0,yes,no,no,canto,15,,,nada ,73.0,yes
181,2023-11-17_09h39.01.919,Unsyncopated1,s77,22.0,feminino,right,España,castellano,Upper secondary,no,no,B,2,when,L3,unsyncopated,when,when,53,Online_whenL3//a.mo20.1776.wav,ga,fu,ko,sil,li,sa,je,sil1,mo,ka,sil2,['catch_delay'],[0.9521999999995734],[0.9521999999995734],1.776,beat,0.9521999999995734,0.9521999999995734,"[""space""]",mo,1,,,,,,,,,,,,,,,2.0,3.0,castellano,0.0,ingles,17.0,3.0,2.0,yes,no,no,canto,15,,,nada ,73.0,yes
182,2023-11-17_09h39.01.919,Unsyncopated1,s77,22.0,feminino,right,España,castellano,Upper secondary,no,no,B,2,when,L3,unsyncopated,when,when,54,Online_whenL3//a.mo21.none.wav,ñe,gu,chu,sil,di,ko,le,sil1,fu,li,sil2,['-'],[0.06419999999957327],[0.06419999999957327],none,none,,,"[""space""]",mo,1,,,,,,,,,,,,,,,2.0,3.0,castellano,0.0,ingles,17.0,3.0,2.0,yes,no,no,canto,15,,,nada ,73.0,yes
183,2023-11-17_09h39.01.919,Unsyncopated1,s77,22.0,feminino,right,España,castellano,Upper secondary,no,no,B,2,when,L3,unsyncopated,when,when,55,Online_whenL3//a.mo23.none.wav,ga,sa,je,sil,ko,fu,li,sil1,di,chu,sil2,['-'],,,none,none,,,,mo,1,,,,,,,,,,,,,,,2.0,3.0,castellano,0.0,ingles,17.0,3.0,2.0,yes,no,no,canto,15,,,nada ,73.0,yes
184,2023-11-17_09h39.01.919,Unsyncopated1,s77,22.0,feminino,right,España,castellano,Upper secondary,no,no,B,2,when,L3,unsyncopated,when,when,56,Online_whenL3//d.ji10.444.wav,do,ga,ji,sil,di,sa,chu,sil1,ka,ko,sil2,['miss'],,,0.444,no_beat,,,,ji,4,,,,,,,,,,,,,,,2.0,3.0,castellano,0.0,ingles,17.0,3.0,2.0,yes,no,no,canto,15,,,nada ,73.0,yes
185,2023-11-17_09h39.01.919,Unsyncopated1,s77,22.0,feminino,right,España,castellano,Upper secondary,no,no,B,2,when,L3,unsyncopated,when,when,57,Online_whenL3//d.ji9.1776.wav,chu,ñe,li,sil,ga,di,gu,sil1,ji,fu,sil2,['miss'],,,1.776,beat,,,,ji,4,,,,,,,,,,,,,,,2.0,3.0,castellano,0.0,ingles,17.0,3.0,2.0,yes,no,no,canto,15,,,nada ,73.0,yes
186,2023-11-17_09h39.01.919,Unsyncopated1,s77,22.0,feminino,right,España,castellano,Upper secondary,no,no,B,2,when,L3,unsyncopated,when,when,58,Online_whenL3//d.ji8.none.wav,je,ko,ñe,sil,chu,ga,do,sil1,li,gu,sil2,['-'],,,none,none,,,,ji,4,,,,,,,,,,,,,,,2.0,3.0,castellano,0.0,ingles,17.0,3.0,2.0,yes,no,no,canto,15,,,nada ,73.0,yes
187,2023-11-17_09h39.01.919,Unsyncopated1,s77,22.0,feminino,right,España,castellano,Upper secondary,no,no,B,2,when,L3,unsyncopated,when,when,59,Online_whenL3//d.ji11.none.wav,ñe,je,fu,sil,mo,ka,li,sil1,ko,gu,sil2,['-'],,,none,none,,,,ji,4,,,,,,,,,,,,,,,2.0,3.0,castellano,0.0,ingles,17.0,3.0,2.0,yes,no,no,canto,15,,,nada ,73.0,yes
188,2023-11-17_09h39.01.919,Unsyncopated1,s77,22.0,feminino,right,España,castellano,Upper secondary,no,no,B,2,when,L3,unsyncopated,when,when,60,Online_whenL3//d.ji21.888.wav,ko,li,ñe,sil,ji,ka,fu,sil1,ga,sa,sil2,['false alarm'],[0.09459999999967295],[0.09459999999967295],0.888,beat,,,"[""space""]",ji,4,,,,,,,,,,,,,,,2.0,3.0,castellano,0.0,ingles,17.0,3.0,2.0,yes,no,no,canto,15,,,nada ,73.0,yes
189,2023-11-17_09h39.01.919,Unsyncopated1,s77,22.0,feminino,right,España,castellano,Upper secondary,no,no,B,2,when,L3,unsyncopated,when,when,61,Online_whenL3//d.ji23.none.wav,mo,ñe,je,sil,fu,ko,le,sil1,li,ka,sil2,['-'],,,none,none,,,,ji,4,,,,,,,,,,,,,,,2.0,3.0,castellano,0.0,ingles,17.0,3.0,2.0,yes,no,no,canto,15,,,nada ,73.0,yes
190,2023-11-17_09h39.01.919,Unsyncopated1,s77,22.0,feminino,right,España,castellano,Upper secondary,no,no,B,2,when,L3,unsyncopated,when,when,62,Online_whenL3//d.ji22.1332.wav,gu,di,mo,sil,fu,ñe,ji,sil1,ko,le,sil2,['miss'],,,1.332,no_beat,,,,ji,4,,,,,,,,,,,,,,,2.0,3.0,castellano,0.0,ingles,17.0,3.0,2.0,yes,no,no,canto,15,,,nada ,73.0,yes
191,2023-11-17_09h39.01.919,Unsyncopated1,s77,22.0,feminino,right,España,castellano,Upper secondary,no,no,B,2,when,L3,unsyncopated,when,when,63,Online_whenL3//d.ji20.none.wav,mo,gu,chu,sil,do,je,fu,sil1,di,le,sil2,['-'],,,none,none,,,,ji,4,,,,,,,,,,,,,,,2.0,3.0,castellano,0.0,ingles,17.0,3.0,2.0,yes,no,no,canto,15,,,nada ,73.0,yes
192,2023-11-17_09h39.01.919,Unsyncopated1,s77,22.0,feminino,right,España,castellano,Upper secondary,no,no,B,2,when,L3,unsyncopated,when,when,64,Online_whenL3//d.ji15.444.wav,ga,do,ji,sil,mo,sa,ko,sil1,fu,gu,sil2,['catch'],[1.2042999999998756],[1.2042999999998756],0.444,no_beat,0.7602999999998756,0.7602999999998756,"[""space""]",ji,4,,,,,,,,,,,,,,,2.0,3.0,castellano,0.0,ingles,17.0,3.0,2.0,yes,no,no,canto,15,,,nada ,73.0,yes
193,2023-11-17_09h39.01.919,Unsyncopated1,s77,22.0,feminino,right,España,castellano,Upper secondary,no,no,B,2,when,L3,unsyncopated,when,when,65,Online_whenL3//d.ji13.222.wav,fu,ji,di,sil,li,ko,je,sil1,chu,mo,sil2,['miss'],,,0.222,no_beat,,,,ji,4,,,,,,,,,,,,,,,2.0,3.0,castellano,0.0,ingles,17.0,3.0,2.0,yes,no,no,canto,15,,,nada ,73.0,yes
194,2023-11-17_09h39.01.919,Unsyncopated1,s77,22.0,feminino,right,España,castellano,Upper secondary,no,no,B,2,when,L3,unsyncopated,when,when,66,Online_whenL3//d.ji14.1998.wav,ga,do,ka,sil,ñe,gu,le,sil1,sa,ji,sil2,['miss'],,,1.998,no_beat,,,,ji,4,,,,,,,,,,,,,,,2.0,3.0,castellano,0.0,ingles,17.0,3.0,2.0,yes,no,no,canto,15,,,nada ,73.0,yes
195,2023-11-17_09h39.01.919,Unsyncopated1,s77,22.0,feminino,right,España,castellano,Upper secondary,no,no,B,2,when,L3,unsyncopated,when,when,67,Online_whenL3//d.ji12.1332.wav,sa,le,gu,sil,ka,ga,ji,sil1,di,mo,sil2,['false alarm'],[0.7054000000000542],[0.7054000000000542],1.332,no_beat,,,"[""space""]",ji,4,,,,,,,,,,,,,,,2.0,3.0,castellano,0.0,ingles,17.0,3.0,2.0,yes,no,no,canto,15,,,nada ,73.0,yes
196,2023-11-17_09h39.01.919,Unsyncopated1,s77,22.0,feminino,right,España,castellano,Upper secondary,no,no,B,2,when,L3,unsyncopated,when,when,68,Online_whenL3//c.gu2.1998.wav,ji,ga,je,sil,le,ñe,di,sil1,sa,gu,sil2,['miss'],,,1.998,no_beat,,,,gu,3,,,,,,,,,,,,,,,2.0,3.0,castellano,0.0,ingles,17.0,3.0,2.0,yes,no,no,canto,15,,,nada ,73.0,yes
197,2023-11-17_09h39.01.919,Unsyncopated1,s77,22.0,feminino,right,España,castellano,Upper secondary,no,no,B,2,when,L3,unsyncopated,when,when,69,Online_whenL3//c.gu0.none.wav,ko,le,ka,sil,mo,di,fu,sil1,ñe,ji,sil2,['-'],,,none,none,,,,gu,3,,,,,,,,,,,,,,,2.0,3.0,castellano,0.0,ingles,17.0,3.0,2.0,yes,no,no,canto,15,,,nada ,73.0,yes
198,2023-11-17_09h39.01.919,Unsyncopated1,s77,22.0,feminino,right,España,castellano,Upper secondary,no,no,B,2,when,L3,unsyncopated,when,when,70,Online_whenL3//c.gu3.1110.wav,li,mo,ko,sil,je,gu,chu,sil1,fu,ka,sil2,['miss'],,,1.11,no_beat,,,,gu,3,,,,,,,,,,,,,,,2.0,3.0,castellano,0.0,ingles,17.0,3.0,2.0,yes,no,no,canto,15,,,nada ,73.0,yes
199,2023-11-17_09h39.01.919,Unsyncopated1,s77,22.0,feminino,right,España,castellano,Upper secondary,no,no,B,2,when,L3,unsyncopated,when,when,71,Online_whenL3//c.gu1.none.wav,sa,ka,ñe,sil,je,di,ji,sil1,ko,le,sil2,['-'],,,none,none,,,,gu,3,,,,,,,,,,,,,,,2.0,3.0,castellano,0.0,ingles,17.0,3.0,2.0,yes,no,no,canto,15,,,nada ,73.0,yes
200,2023-11-17_09h39.01.919,Unsyncopated1,s77,22.0,feminino,right,España,castellano,Upper secondary,no,no,B,2,when,L3,unsyncopated,when,when,72,Online_whenL3//d.ji24.1998.wav,do,sa,gu,sil,li,chu,ka,sil1,ko,ji,sil2,['miss'],,,1.998,no_beat,,,,ji,4,,,,,,,,,,,,,,,2.0,3.0,castellano,0.0,ingles,17.0,3.0,2.0,yes,no,no,canto,15,,,nada ,73.0,yes
201,2023-11-17_09h39.01.919,Unsyncopated1,s77,22.0,feminino,right,España,castellano,Upper secondary,no,no,B,2,when,L3,unsyncopated,when,when,73,Online_whenL3//d.ji27.none.wav,chu,ka,di,sil,ñe,je,fu,sil1,do,gu,sil2,['-'],,,none,none,,,,ji,4,,,,,,,,,,,,,,,2.0,3.0,castellano,0.0,ingles,17.0,3.0,2.0,yes,no,no,canto,15,,,nada ,73.0,yes
202,2023-11-17_09h39.01.919,Unsyncopated1,s77,22.0,feminino,right,España,castellano,Upper secondary,no,no,B,2,when,L3,unsyncopated,when,when,74,Online_whenL3//d.ji25.none.wav,do,li,je,sil,fu,ka,mo,sil1,ñe,di,sil2,['false alarm'],[0.9675999999999476],[0.9675999999999476],none,none,,,"[""space""]",ji,4,,,,,,,,,,,,,,,2.0,3.0,castellano,0.0,ingles,17.0,3.0,2.0,yes,no,no,canto,15,,,nada ,73.0,yes
203,2023-11-17_09h39.01.919,Unsyncopated1,s77,22.0,feminino,right,España,castellano,Upper secondary,no,no,B,2,when,L3,unsyncopated,when,when,75,Online_whenL3//d.ji26.none.wav,chu,fu,je,sil,ko,gu,ka,sil1,mo,di,sil2,['false alarm'],[1.339200000000119],[1.339200000000119],none,none,,,"[""space""]",ji,4,,,,,,,,,,,,,,,2.0,3.0,castellano,0.0,ingles,17.0,3.0,2.0,yes,no,no,canto,15,,,nada ,73.0,yes
204,2023-11-17_09h39.01.919,Unsyncopated1,s77,22.0,feminino,right,España,castellano,Upper secondary,no,no,B,2,when,L3,unsyncopated,when,when,76,Online_whenL3//a.mo5.222.wav,ko,mo,ji,sil,le,di,ga,sil1,li,sa,sil2,['miss'],,,0.222,no_beat,,,,mo,1,,,,,,,,,,,,,,,2.0,3.0,castellano,0.0,ingles,17.0,3.0,2.0,yes,no,no,canto,15,,,nada ,73.0,yes
205,2023-11-17_09h39.01.919,Unsyncopated1,s77,22.0,feminino,right,España,castellano,Upper secondary,no,no,B,2,when,L3,unsyncopated,when,when,77,Online_whenL3//a.mo7.none.wav,di,ko,ñe,sil,fu,je,gu,sil1,sa,ji,sil2,['-'],,,none,none,,,,mo,1,,,,,,,,,,,,,,,2.0,3.0,castellano,0.0,ingles,17.0,3.0,2.0,yes,no,no,canto,15,,,nada ,73.0,yes
206,2023-11-17_09h39.01.919,Unsyncopated1,s77,22.0,feminino,right,España,castellano,Upper secondary,no,no,B,2,when,L3,unsyncopated,when,when,78,Online_whenL3//a.mo4.1776.wav,ga,gu,sa,sil,ko,je,li,sil1,mo,do,sil2,['catch'],[2.3250999999995656],[2.3250999999995656],1.776,beat,0.5490999999995656,0.5490999999995656,"[""space""]",mo,1,,,,,,,,,,,,,,,2.0,3.0,castellano,0.0,ingles,17.0,3.0,2.0,yes,no,no,canto,15,,,nada ,73.0,yes
207,2023-11-17_09h39.01.919,Unsyncopated1,s77,22.0,feminino,right,España,castellano,Upper secondary,no,no,B,2,when,L3,unsyncopated,when,when,79,Online_whenL3//a.mo6.444.wav,fu,ko,mo,sil,chu,le,ji,sil1,ka,je,sil2,['catch'],[1.1137000000003354],[1.1137000000003354],0.444,no_beat,0.6697000000003355,0.6697000000003355,"[""space""]",mo,1,,,,,,,,,,,,,,,2.0,3.0,castellano,0.0,ingles,17.0,3.0,2.0,yes,no,no,canto,15,,,nada ,73.0,yes
208,2023-11-17_09h39.01.919,Unsyncopated1,s77,22.0,feminino,right,España,castellano,Upper secondary,no,no,B,2,when,L3,unsyncopated,when,when,80,Online_whenL3//b.ñe7.1998.wav,ji,je,sa,sil,ka,ga,di,sil1,gu,ñe,sil2,['catch_delay'],[0.8382999999997229],[0.8382999999997229],1.998,no_beat,0.8382999999997229,0.8382999999997229,,ñe,2,,,,,,,,,,,,,,,2.0,3.0,castellano,0.0,ingles,17.0,3.0,2.0,yes,no,no,canto,15,,,nada ,73.0,yes
209,2023-11-17_09h39.01.919,Unsyncopated1,s77,22.0,feminino,right,España,castellano,Upper secondary,no,no,B,2,when,L3,unsyncopated,when,when,81,Online_whenL3//b.ñe5.1110.wav,li,ko,je,sil,fu,ñe,gu,sil1,ga,sa,sil2,['catch'],"[0.17229999999972279, 2.056100000000015]",[2.056100000000015],1.11,no_beat,0.9461000000000148,0.9461000000000148,"[""space"",""space""]",ñe,2,,,,,,,,,,,,,,,2.0,3.0,castellano,0.0,ingles,17.0,3.0,2.0,yes,no,no,canto,15,,,nada ,73.0,yes
210,2023-11-17_09h39.01.919,Unsyncopated1,s77,22.0,feminino,right,España,castellano,Upper secondary,no,no,B,2,when,L3,unsyncopated,when,when,82,Online_whenL3//b.ñe6.444.wav,ga,ka,ñe,sil,mo,ji,li,sil1,do,fu,sil2,['catch'],[1.3147999999998774],[1.3147999999998774],0.444,no_beat,0.8707999999998774,0.8707999999998774,"[""space""]",ñe,2,,,,,,,,,,,,,,,2.0,3.0,castellano,0.0,ingles,17.0,3.0,2.0,yes,no,no,canto,15,,,nada ,73.0,yes
211,2023-11-17_09h39.01.919,Unsyncopated1,s77,22.0,feminino,right,España,castellano,Upper secondary,no,no,B,2,when,L3,unsyncopated,when,when,83,Online_whenL3//b.ñe4.1998.wav,ka,di,ga,sil,ko,gu,je,sil1,mo,ñe,sil2,['catch_delay'],[0.8727000000001828],[0.8727000000001828],1.998,no_beat,0.8727000000001828,0.8727000000001828,,ñe,2,,,,,,,,,,,,,,,2.0,3.0,castellano,0.0,ingles,17.0,3.0,2.0,yes,no,no,canto,15,,,nada ,73.0,yes
212,2023-11-17_09h39.01.919,Unsyncopated1,s77,22.0,feminino,right,España,castellano,Upper secondary,no,no,B,2,when,L3,unsyncopated,when,when,84,Online_whenL3//c.gu21.none.wav,je,ñe,do,sil,sa,ko,ji,sil1,di,li,sil2,['-'],[0.20670000000018263],[0.20670000000018263],none,none,,,"[""space""]",gu,3,,,,,,,,,,,,,,,2.0,3.0,castellano,0.0,ingles,17.0,3.0,2.0,yes,no,no,canto,15,,,nada ,73.0,yes
213,2023-11-17_09h39.01.919,Unsyncopated1,s77,22.0,feminino,right,España,castellano,Upper secondary,no,no,B,2,when,L3,unsyncopated,when,when,85,Online_whenL3//c.gu23.none.wav,ji,fu,di,sil,ñe,je,li,sil1,do,mo,sil2,['-'],,,none,none,,,,gu,3,,,,,,,,,,,,,,,2.0,3.0,castellano,0.0,ingles,17.0,3.0,2.0,yes,no,no,canto,15,,,nada ,73.0,yes
214,2023-11-17_09h39.01.919,Unsyncopated1,s77,22.0,feminino,right,España,castellano,Upper secondary,no,no,B,2,when,L3,unsyncopated,when,when,86,Online_whenL3//c.gu22.1998.wav,do,chu,le,sil,ga,li,ji,sil1,mo,gu,sil2,['miss'],,,1.998,no_beat,,,,gu,3,,,,,,,,,,,,,,,2.0,3.0,castellano,0.0,ingles,17.0,3.0,2.0,yes,no,no,canto,15,,,nada ,73.0,yes
215,2023-11-17_09h39.01.919,Unsyncopated1,s77,22.0,feminino,right,España,castellano,Upper secondary,no,no,B,2,when,L3,unsyncopated,when,when,87,Online_whenL3//c.gu20.none.wav,fu,li,di,sil,ko,chu,ga,sil1,do,ñe,sil2,['-'],,,none,none,,,,gu,3,,,,,,,,,,,,,,,2.0,3.0,castellano,0.0,ingles,17.0,3.0,2.0,yes,no,no,canto,15,,,nada ,73.0,yes
216,2023-11-17_09h39.01.919,Unsyncopated1,s77,22.0,feminino,right,España,castellano,Upper secondary,no,no,B,2,when,L3,unsyncopated,when,when,88,Online_whenL3//d.ji31.none.wav,ga,ko,di,sil,li,sa,ka,sil1,gu,chu,sil2,['-'],,,none,none,,,,ji,4,,,,,,,,,,,,,,,2.0,3.0,castellano,0.0,ingles,17.0,3.0,2.0,yes,no,no,canto,15,,,nada ,73.0,yes
217,2023-11-17_09h39.01.919,Unsyncopated1,s77,22.0,feminino,right,España,castellano,Upper secondary,no,no,B,2,when,L3,unsyncopated,when,when,89,Online_whenL3//d.ji28.888.wav,di,mo,do,sil,ji,chu,je,sil1,ka,ko,sil2,['miss'],,,0.888,beat,,,,ji,4,,,,,,,,,,,,,,,2.0,3.0,castellano,0.0,ingles,17.0,3.0,2.0,yes,no,no,canto,15,,,nada ,73.0,yes
218,2023-11-17_09h39.01.919,Unsyncopated1,s77,22.0,feminino,right,España,castellano,Upper secondary,no,no,B,2,when,L3,unsyncopated,when,when,90,Online_whenL3//d.ji30.none.wav,mo,je,do,sil,sa,fu,di,sil1,li,gu,sil2,['-'],,,none,none,,,,ji,4,,,,,,,,,,,,,,,2.0,3.0,castellano,0.0,ingles,17.0,3.0,2.0,yes,no,no,canto,15,,,nada ,73.0,yes
219,2023-11-17_09h39.01.919,Unsyncopated1,s77,22.0,feminino,right,España,castellano,Upper secondary,no,no,B,2,when,L3,unsyncopated,when,when,91,Online_whenL3//d.ji29.none.wav,ñe,fu,ga,sil,sa,di,ko,sil1,je,gu,sil2,['-'],,,none,none,,,,ji,4,,,,,,,,,,,,,,,2.0,3.0,castellano,0.0,ingles,17.0,3.0,2.0,yes,no,no,canto,15,,,nada ,73.0,yes
220,2023-11-17_09h39.01.919,Unsyncopated1,s77,22.0,feminino,right,España,castellano,Upper secondary,no,no,B,2,when,L3,unsyncopated,when,when,92,Online_whenL3//b.ñe19.1776.wav,ji,mo,li,sil,le,ko,fu,sil1,ñe,do,sil2,['catch'],[2.4387000000001535],[2.4387000000001535],1.776,beat,0.6627000000001535,0.6627000000001535,"[""space""]",ñe,2,,,,,,,,,,,,,,,2.0,3.0,castellano,0.0,ingles,17.0,3.0,2.0,yes,no,no,canto,15,,,nada ,73.0,yes
221,2023-11-17_09h39.01.919,Unsyncopated1,s77,22.0,feminino,right,España,castellano,Upper secondary,no,no,B,2,when,L3,unsyncopated,when,when,93,Online_whenL3//b.ñe16.1110.wav,do,je,li,sil,gu,ñe,sa,sil1,ji,ko,sil2,['catch'],[2.073399999999765],[2.073399999999765],1.11,no_beat,0.9633999999997648,0.9633999999997648,"[""space""]",ñe,2,,,,,,,,,,,,,,,2.0,3.0,castellano,0.0,ingles,17.0,3.0,2.0,yes,no,no,canto,15,,,nada ,73.0,yes
222,2023-11-17_09h39.01.919,Unsyncopated1,s77,22.0,feminino,right,España,castellano,Upper secondary,no,no,B,2,when,L3,unsyncopated,when,when,94,Online_whenL3//b.ñe17.1998.wav,fu,ga,ka,sil,ji,chu,di,sil1,je,ñe,sil2,['miss'],,,1.998,no_beat,,,,ñe,2,,,,,,,,,,,,,,,2.0,3.0,castellano,0.0,ingles,17.0,3.0,2.0,yes,no,no,canto,15,,,nada ,73.0,yes
223,2023-11-17_09h39.01.919,Unsyncopated1,s77,22.0,feminino,right,España,castellano,Upper secondary,no,no,B,2,when,L3,unsyncopated,when,when,95,Online_whenL3//b.ñe18.none.wav,sa,di,chu,sil,do,fu,ko,sil1,gu,ji,sil2,['-'],,,none,none,,,,ñe,2,,,,,,,,,,,,,,,2.0,3.0,castellano,0.0,ingles,17.0,3.0,2.0,yes,no,no,canto,15,,,nada ,73.0,yes
224,2023-11-17_09h39.01.919,Unsyncopated1,s77,22.0,feminino,right,España,castellano,Upper secondary,no,no,B,2,when,L3,unsyncopated,when,when,96,Online_whenL3//d.ji17.none.wav,ñe,ga,di,sil,sa,ka,li,sil1,le,fu,sil2,['false alarm'],[0.7200000000000273],[0.7200000000000273],none,none,,,"[""space""]",ji,4,,,,,,,,,,,,,,,2.0,3.0,castellano,0.0,ingles,17.0,3.0,2.0,yes,no,no,canto,15,,,nada ,73.0,yes
225,2023-11-17_09h39.01.919,Unsyncopated1,s77,22.0,feminino,right,España,castellano,Upper secondary,no,no,B,2,when,L3,unsyncopated,when,when,97,Online_whenL3//d.ji18.none.wav,gu,do,ko,sil,di,chu,mo,sil1,ga,le,sil2,['-'],,,none,none,,,,ji,4,,,,,,,,,,,,,,,2.0,3.0,castellano,0.0,ingles,17.0,3.0,2.0,yes,no,no,canto,15,,,nada ,73.0,yes
226,2023-11-17_09h39.01.919,Unsyncopated1,s77,22.0,feminino,right,España,castellano,Upper secondary,no,no,B,2,when,L3,unsyncopated,when,when,98,Online_whenL3//d.ji19.1776.wav,gu,ñe,chu,sil,li,di,le,sil1,ji,fu,sil2,['miss'],,,1.776,beat,,,,ji,4,,,,,,,,,,,,,,,2.0,3.0,castellano,0.0,ingles,17.0,3.0,2.0,yes,no,no,canto,15,,,nada ,73.0,yes
227,2023-11-17_09h39.01.919,Unsyncopated1,s77,22.0,feminino,right,España,castellano,Upper secondary,no,no,B,2,when,L3,unsyncopated,when,when,99,Online_whenL3//d.ji16.none.wav,ka,je,di,sil,sa,fu,chu,sil1,do,li,sil2,['false alarm'],[1.155799999999772],[1.155799999999772],none,none,,,"[""space""]",ji,4,,,,,,,,,,,,,,,2.0,3.0,castellano,0.0,ingles,17.0,3.0,2.0,yes,no,no,canto,15,,,nada ,73.0,yes
228,2023-11-17_09h39.01.919,Unsyncopated1,s77,22.0,feminino,right,España,castellano,Upper secondary,no,no,B,2,when,L3,unsyncopated,when,when,100,Online_whenL3//d.ji3.none.wav,je,le,do,sil,sa,ka,ga,sil1,gu,mo,sil2,['-'],,,none,none,,,,ji,4,,,,,,,,,,,,,,,2.0,3.0,castellano,0.0,ingles,17.0,3.0,2.0,yes,no,no,canto,15,,,nada ,73.0,yes
229,2023-11-17_09h39.01.919,Unsyncopated1,s77,22.0,feminino,right,España,castellano,Upper secondary,no,no,B,2,when,L3,unsyncopated,when,when,101,Online_whenL3//d.ji2.none.wav,je,ko,sa,sil,le,do,ga,sil1,ñe,di,sil2,['-'],,,none,none,,,,ji,4,,,,,,,,,,,,,,,2.0,3.0,castellano,0.0,ingles,17.0,3.0,2.0,yes,no,no,canto,15,,,nada ,73.0,yes
230,2023-11-17_09h39.01.919,Unsyncopated1,s77,22.0,feminino,right,España,castellano,Upper secondary,no,no,B,2,when,L3,unsyncopated,when,when,102,Online_whenL3//d.ji1.888.wav,sa,je,le,sil,ji,ko,ñe,sil1,di,gu,sil2,['miss'],,,0.888,beat,,,,ji,4,,,,,,,,,,,,,,,2.0,3.0,castellano,0.0,ingles,17.0,3.0,2.0,yes,no,no,canto,15,,,nada ,73.0,yes
231,2023-11-17_09h39.01.919,Unsyncopated1,s77,22.0,feminino,right,España,castellano,Upper secondary,no,no,B,2,when,L3,unsyncopated,when,when,103,Online_whenL3//d.ji0.1332.wav,je,ko,gu,sil,do,ñe,ji,sil1,mo,le,sil2,['catch'],[2.2095999999999094],[2.2095999999999094],1.332,no_beat,0.8775999999999093,0.8775999999999093,"[""space""]",ji,4,,,,,,,,,,,,,,,2.0,3.0,castellano,0.0,ingles,17.0,3.0,2.0,yes,no,no,canto,15,,,nada ,73.0,yes
232,2023-11-17_09h39.01.919,Unsyncopated1,s77,22.0,feminino,right,España,castellano,Upper secondary,no,no,B,2,when,L3,unsyncopated,when,when,104,Online_whenL3//b.ñe25.222.wav,je,ñe,ji,sil,ko,gu,fu,sil1,li,mo,sil2,['catch'],[2.242699999999786],[2.242699999999786],0.222,no_beat,,2.020699999999786,"[""space""]",ñe,2,,,,,,,,,,,,,,,2.0,3.0,castellano,0.0,ingles,17.0,3.0,2.0,yes,no,no,canto,15,,,nada ,73.0,yes
233,2023-11-17_09h39.01.919,Unsyncopated1,s77,22.0,feminino,right,España,castellano,Upper secondary,no,no,B,2,when,L3,unsyncopated,when,when,105,Online_whenL3//b.ñe27.none.wav,di,ko,do,sil,fu,chu,ji,sil1,ka,sa,sil2,['-'],,,none,none,,,,ñe,2,,,,,,,,,,,,,,,2.0,3.0,castellano,0.0,ingles,17.0,3.0,2.0,yes,no,no,canto,15,,,nada ,73.0,yes
234,2023-11-17_09h39.01.919,Unsyncopated1,s77,22.0,feminino,right,España,castellano,Upper secondary,no,no,B,2,when,L3,unsyncopated,when,when,106,Online_whenL3//b.ñe26.none.wav,ko,mo,ji,sil,di,le,sa,sil1,fu,ka,sil2,['-'],,,none,none,,,,ñe,2,,,,,,,,,,,,,,,2.0,3.0,castellano,0.0,ingles,17.0,3.0,2.0,yes,no,no,canto,15,,,nada ,73.0,yes
235,2023-11-17_09h39.01.919,Unsyncopated1,s77,22.0,feminino,right,España,castellano,Upper secondary,no,no,B,2,when,L3,unsyncopated,when,when,107,Online_whenL3//b.ñe24.none.wav,sa,je,ga,sil,mo,fu,ji,sil1,di,gu,sil2,['-'],,,none,none,,,,ñe,2,,,,,,,,,,,,,,,2.0,3.0,castellano,0.0,ingles,17.0,3.0,2.0,yes,no,no,canto,15,,,nada ,73.0,yes
236,2023-11-17_09h39.01.919,Unsyncopated1,s77,22.0,feminino,right,España,castellano,Upper secondary,no,no,B,2,when,L3,unsyncopated,when,when,108,Online_whenL3//a.mo18.888.wav,je,do,fu,sil,mo,sa,ga,sil1,di,le,sil2,['miss'],,,0.888,beat,,,,mo,1,,,,,,,,,,,,,,,2.0,3.0,castellano,0.0,ingles,17.0,3.0,2.0,yes,no,no,canto,15,,,nada ,73.0,yes
237,2023-11-17_09h39.01.919,Unsyncopated1,s77,22.0,feminino,right,España,castellano,Upper secondary,no,no,B,2,when,L3,unsyncopated,when,when,109,Online_whenL3//a.mo16.1998.wav,li,je,gu,sil,ka,chu,le,sil1,ji,mo,sil2,['miss'],,,1.998,no_beat,,,,mo,1,,,,,,,,,,,,,,,2.0,3.0,castellano,0.0,ingles,17.0,3.0,2.0,yes,no,no,canto,15,,,nada ,73.0,yes
