Unnamed: 0,date,expName,participant,age,sex,hand,residence,native_lang,education_level,lang_deficit,aud_deficit,group,block,condition,language,rhythm,rule structure online,rule type online,order_trial_on,trial_online,s1,s2,s3,s4,s5,s6,s7,s8,s9,s10,s11,catch_syll_resp,rts_syll_catch,clean_rts,time_syll,beat_no_beat,catch_rtsTR,catch_rts,syllable_catch.keys,cond_syll,syll_to_catch,test_offline,block_off,condition_off,rhythm_off,rule,rule_str_off,rule_norule,conds_offline,language_off,Partz_no_partm.keys,Partz_no_partm.rt,security_1_7.keys,accuracy,security_1_7.rt,n_lang,n_lang_used,lang_1,age_l1,lang_2,age_l2,lang_3,age_l3,lang_4,age_l4,ability_learn_l2,tendence_mix_lan,music_experience,muisc_use,partiture,instr_1,age_M1,preguntas_musica1,BMRQ_answer.response,final comment,BMRQ_Score,bilingual
0,2024-01-16_09h55.46.063,Unsyncopated_study2,s89,21.0,feminino,right,España,CatalanCastellano,Upper secondary,no,no,A,1,conjunction_un,L2,unsyncopated,s2,r2,0,Online_conjL2_un//b.fe.ra15.888.1776.wav,si,me,to,sil,fe,su,ba,sil1,ra,bi,sil2,['catch'],[1.3306999999880418],[1.3306999999880418],0.888,beat,0.4426999999880417,0.4426999999880417,"[""space""]",fe,1,testConjL2Uns//dep_viol.r1.s1.0.wav,1.0,conjunction_un,unsyncopated,a,s1,no_rule,dep,L2,z,2.4843,7.0,0.0,1.8844,3.0,3.0,Catalan,0.0,Castellano,0.0,Ingles,5.0,Aleman,18.0,4.0,1.0,no,no,no,nada,,1. Cuando comparto música con alguien siento una complicidad especial con aquella persona.,3.0,nada,74.0,yes
1,2024-01-16_09h55.46.063,Unsyncopated_study2,s89,21.0,feminino,right,España,CatalanCastellano,Upper secondary,no,no,A,1,conjunction_un,L2,unsyncopated,s1,r2,1,Online_conjL2_un//b.fe.ra14.0.888.wav,fe,si,ñu,sil,ra,mi,to,sil1,me,bi,sil2,['catch'],[0.3813000000119473],[0.3813000000119473],0.0,beat,0.3813000000119473,0.3813000000119473,"[""space""]",fe,1,testConjL2Uns//r2.s1.2.wav,1.0,conjunction_un,unsyncopated,b,s1,rule,rule,L2,z,0.994,6.0,1.0,1.1688,3.0,3.0,Catalan,0.0,Castellano,0.0,Ingles,5.0,Aleman,18.0,4.0,1.0,no,no,no,nada,,2. En mi tiempo libre apenas escucho música.,5.0,nada,74.0,yes
2,2024-01-16_09h55.46.063,Unsyncopated_study2,s89,21.0,feminino,right,España,CatalanCastellano,Upper secondary,no,no,A,1,conjunction_un,L2,unsyncopated,s2,r1,2,Online_conjL2_un//b.fe.ra13.none.none.wav,ñu,bi,su,sil,go,mi,ba,sil1,du,cha,sil2,['-'],,,none,none,,,,fe,1,testConjL2Uns//cat_viol.r1.s1.0.wav,1.0,conjunction_un,unsyncopated,a,s1,no_rule,cat,L2,z,0.4557,7.0,0.0,1.3355,3.0,3.0,Catalan,0.0,Castellano,0.0,Ingles,5.0,Aleman,18.0,4.0,1.0,no,no,no,nada,,3. Algunas canciones me ponen los pelos de punta,4.0,nada,74.0,yes
3,2024-01-16_09h55.46.063,Unsyncopated_study2,s89,21.0,feminino,right,España,CatalanCastellano,Upper secondary,no,no,A,1,conjunction_un,L2,unsyncopated,s1,r1,3,Online_conjL2_un//b.fe.ra12.none.none.wav,go,ñi,ba,sil,du,me,si,sil1,cha,to,sil2,['-'],,,none,none,,,,fe,1,testConjL2Uns//r2.s1.0.wav,1.0,conjunction_un,unsyncopated,b,s1,rule,rule,L2,z,0.4269,6.0,1.0,1.3292,3.0,3.0,Catalan,0.0,Castellano,0.0,Ingles,5.0,Aleman,18.0,4.0,1.0,no,no,no,nada,,4. La música me hace compañía cuando estoy solo,4.0,nada,74.0,yes
4,2024-01-16_09h55.46.063,Unsyncopated_study2,s89,21.0,feminino,right,España,CatalanCastellano,Upper secondary,no,no,A,1,conjunction_un,L2,unsyncopated,s1,r1,4,Online_conjL2_un//c.cha.me11.none.none.wav,go,su,ñu,sil,du,ñi,mi,sil1,ba,to,sil2,['-'],,,none,none,,,,cha,3,testConjL2Uns//time_viol.r1.s2.0.wav,1.0,conjunction_un,unsyncopated,a,s2,no_rule,time,L2,z,0.5672,7.0,0.0,0.8587,3.0,3.0,Catalan,0.0,Castellano,0.0,Ingles,5.0,Aleman,18.0,4.0,1.0,no,no,no,nada,,5. No me apetece bailar ni con la música que más me gusta,5.0,nada,74.0,yes
5,2024-01-16_09h55.46.063,Unsyncopated_study2,s89,21.0,feminino,right,España,CatalanCastellano,Upper secondary,no,no,A,1,conjunction_un,L2,unsyncopated,s1,r1,5,Online_conjL2_un//c.cha.me9.none.none.wav,go,to,ñi,sil,du,mi,ñu,sil1,bi,su,sil2,['-'],,,none,none,,,,cha,3,testConjL2Uns//cat_viol.r2.s1.0.wav,1.0,conjunction_un,unsyncopated,b,s1,no_rule,cat,L2,z,0.3944,7.0,0.0,1.0463,3.0,3.0,Catalan,0.0,Castellano,0.0,Ingles,5.0,Aleman,18.0,4.0,1.0,no,no,no,nada,,6. La música me hace conectar con la gente,4.0,nada,74.0,yes
6,2024-01-16_09h55.46.063,Unsyncopated_study2,s89,21.0,feminino,right,España,CatalanCastellano,Upper secondary,no,no,A,1,conjunction_un,L2,unsyncopated,s1,r2,6,Online_conjL2_un//c.cha.me8.444.1332.wav,fe,bi,cha,sil,ra,ñi,me,sil1,te,si,sil2,['catch'],[0.77130000001182],[0.77130000001182],0.444,no_beat,0.3273000000118199,0.3273000000118199,"[""space""]",cha,3,testConjL2Uns//time_viol.r1.s1.0.wav,1.0,conjunction_un,unsyncopated,a,s1,no_rule,time,L2,m,0.9463,3.0,1.0,2.7299,3.0,3.0,Catalan,0.0,Castellano,0.0,Ingles,5.0,Aleman,18.0,4.0,1.0,no,no,no,nada,,7. Me informo sobre la música que me gusta.,2.0,nada,74.0,yes
7,2024-01-16_09h55.46.063,Unsyncopated_study2,s89,21.0,feminino,right,España,CatalanCastellano,Upper secondary,no,no,A,1,conjunction_un,L2,unsyncopated,s2,r2,7,Online_conjL2_un//c.cha.me10.0.222.wav,cha,me,mi,sil,fe,su,si,sil1,ra,ba,sil2,['catch'],[0.48699999999996635],[0.48699999999996635],0.0,beat,0.4869999999999663,0.4869999999999663,"[""space""]",cha,3,testConjL2Uns//r1.s1.1.wav,1.0,conjunction_un,unsyncopated,a,s1,rule,rule,L2,z,0.34,7.0,1.0,0.7859,3.0,3.0,Catalan,0.0,Castellano,0.0,Ingles,5.0,Aleman,18.0,4.0,1.0,no,no,no,nada,,8.Me emociono escuchando ciertas canciones.,4.0,nada,74.0,yes
8,2024-01-16_09h55.46.063,Unsyncopated_study2,s89,21.0,feminino,right,España,CatalanCastellano,Upper secondary,no,no,A,1,conjunction_un,L2,unsyncopated,s1,r2,8,Online_conjL2_un//c.cha.me31.none.none.wav,fe,ñi,ba,sil,ra,si,te,sil1,ñu,mi,sil2,['false alarm'],[1.4748000000118964],[1.4748000000118964],none,none,,,"[""space""]",cha,3,testConjL2Uns//dep_viol.r1.s2.0.wav,1.0,conjunction_un,unsyncopated,a,s2,no_rule,dep,L2,z,2.5027,2.0,0.0,1.8692,3.0,3.0,Catalan,0.0,Castellano,0.0,Ingles,5.0,Aleman,18.0,4.0,1.0,no,no,no,nada,,9.La música me tranquiliza y me relaja.,4.0,nada,74.0,yes
9,2024-01-16_09h55.46.063,Unsyncopated_study2,s89,21.0,feminino,right,España,CatalanCastellano,Upper secondary,no,no,A,1,conjunction_un,L2,unsyncopated,s1,r1,9,Online_conjL2_un//c.cha.me28.222.444.wav,go,cha,me,sil,du,mi,ba,sil1,bi,to,sil2,['miss'],,,0.222,no_beat,,,,cha,3,testConjL2Uns//r1.s1.0.wav,1.0,conjunction_un,unsyncopated,a,s1,rule,rule,L2,z,3.3963,2.0,1.0,2.198,3.0,3.0,Catalan,0.0,Castellano,0.0,Ingles,5.0,Aleman,18.0,4.0,1.0,no,no,no,nada,,10.La música me hace bailar,4.0,nada,74.0,yes
10,2024-01-16_09h55.46.063,Unsyncopated_study2,s89,21.0,feminino,right,España,CatalanCastellano,Upper secondary,no,no,A,1,conjunction_un,L2,unsyncopated,s2,r2,10,Online_conjL2_un//c.cha.me29.none.none.wav,ba,ñu,mi,sil,fe,te,si,sil1,ra,ñi,sil2,['-'],,,none,none,,,,cha,3,testConjL2Uns//r1.s2.1.wav,1.0,conjunction_un,unsyncopated,a,s2,rule,rule,L2,z,0.3608,7.0,1.0,0.9406,3.0,3.0,Catalan,0.0,Castellano,0.0,Ingles,5.0,Aleman,18.0,4.0,1.0,no,no,no,nada,,11.Busco novedades musicales continuamente,4.0,nada,74.0,yes
11,2024-01-16_09h55.46.063,Unsyncopated_study2,s89,21.0,feminino,right,España,CatalanCastellano,Upper secondary,no,no,A,1,conjunction_un,L2,unsyncopated,s2,r2,11,Online_conjL2_un//c.cha.me30.0.1110.wav,cha,mi,ba,sil,fe,me,si,sil1,ra,ñi,sil2,['catch'],[0.48960000002375637],[0.48960000002375637],0.0,beat,0.4896000000237563,0.4896000000237563,"[""space""]",cha,3,testConjL2Uns//time_viol.r2.s2.0.wav,1.0,conjunction_un,unsyncopated,b,s2,no_rule,time,L2,z,2.2662,1.0,0.0,1.1024,3.0,3.0,Catalan,0.0,Castellano,0.0,Ingles,5.0,Aleman,18.0,4.0,1.0,no,no,no,nada,,12. Puedo llorar cuando escucho algunas melodías que me gustan mucho.,4.0,nada,74.0,yes
12,2024-01-16_09h55.46.063,Unsyncopated_study2,s89,21.0,feminino,right,España,CatalanCastellano,Upper secondary,no,no,A,1,conjunction_un,L2,unsyncopated,s2,r1,12,Online_conjL2_un//a.go.du9.888.1776.wav,mi,bi,cha,sil,go,ñu,si,sil1,du,to,sil2,['miss'],,,1.776,beat,,,,du,2,testConjL2Uns//dep_viol.r2.s1.0.wav,1.0,conjunction_un,unsyncopated,b,s1,no_rule,dep,L2,z,0.4887,2.0,0.0,0.9353,3.0,3.0,Catalan,0.0,Castellano,0.0,Ingles,5.0,Aleman,18.0,4.0,1.0,no,no,no,nada,,13. Me gusta cantar o tocar un instrumento con más gente,2.0,nada,74.0,yes
13,2024-01-16_09h55.46.063,Unsyncopated_study2,s89,21.0,feminino,right,España,CatalanCastellano,Upper secondary,no,no,A,1,conjunction_un,L2,unsyncopated,s1,r1,13,Online_conjL2_un//a.go.du10.0.888.wav,go,bi,ñi,sil,du,si,te,sil1,ñu,su,sil2,['catch'],[1.7736999999880254],[1.7736999999880254],0.888,beat,0.8856999999880254,0.8856999999880254,"[""space""]",du,2,testConjL2Uns//r1.s2.0.wav,1.0,conjunction_un,unsyncopated,a,s2,rule,rule,L2,z,0.2703,7.0,1.0,0.9905,3.0,3.0,Catalan,0.0,Castellano,0.0,Ingles,5.0,Aleman,18.0,4.0,1.0,no,no,no,nada,,14. La música me ayuda a desconectar.,4.0,nada,74.0,yes
14,2024-01-16_09h55.46.063,Unsyncopated_study2,s89,21.0,feminino,right,España,CatalanCastellano,Upper secondary,no,no,A,1,conjunction_un,L2,unsyncopated,s2,r1,14,Online_conjL2_un//a.go.du11.888.1776.wav,si,ba,ñu,sil,go,ñi,mi,sil1,du,te,sil2,['catch'],[2.2636000000237573],[2.2636000000237573],1.776,beat,0.4876000000237572,0.4876000000237572,"[""space""]",du,2,testConjL2Uns//r2.s2.1.wav,1.0,conjunction_un,unsyncopated,b,s2,rule,rule,L2,z,0.2531,4.0,1.0,1.1875,3.0,3.0,Catalan,0.0,Castellano,0.0,Ingles,5.0,Aleman,18.0,4.0,1.0,no,no,no,nada,,15. No puedo evitar tararear las canciones que me gustan cuando las escucho.,4.0,nada,74.0,yes
15,2024-01-16_09h55.46.063,Unsyncopated_study2,s89,21.0,feminino,right,España,CatalanCastellano,Upper secondary,no,no,A,1,conjunction_un,L2,unsyncopated,s1,r2,15,Online_conjL2_un//a.go.du8.none.none.wav,fe,to,ñi,sil,ra,ba,cha,sil1,ñu,bi,sil2,['-'],,,none,none,,,,du,2,testConjL2Uns//r2.s2.2.wav,1.0,conjunction_un,unsyncopated,b,s2,rule,rule,L2,m,1.0847,3.0,0.0,1.8701,3.0,3.0,Catalan,0.0,Castellano,0.0,Ingles,5.0,Aleman,18.0,4.0,1.0,no,no,no,nada,,16. En los conciertos me siento en sintonía con los artistas y el público.,3.0,nada,74.0,yes
16,2024-01-16_09h55.46.063,Unsyncopated_study2,s89,21.0,feminino,right,España,CatalanCastellano,Upper secondary,no,no,A,1,conjunction_un,L2,unsyncopated,s1,r2,16,Online_conjL2_un//b.fe.ra16.0.888.wav,fe,ñi,mi,sil,ra,bi,su,sil1,ñu,me,sil2,['catch'],[0.6356000000238282],[0.6356000000238282],0.0,beat,0.6356000000238282,0.6356000000238282,"[""space""]",fe,1,testConjL2Uns//time_viol.r2.s1.0.wav,1.0,conjunction_un,unsyncopated,b,s1,no_rule,time,L2,m,1.1517,5.0,1.0,2.2506,3.0,3.0,Catalan,0.0,Castellano,0.0,Ingles,5.0,Aleman,18.0,4.0,1.0,no,no,no,nada,,17. Me gasto bastante dinero en música y cosas relacionadas con la música.,2.0,nada,74.0,yes
17,2024-01-16_09h55.46.063,Unsyncopated_study2,s89,21.0,feminino,right,España,CatalanCastellano,Upper secondary,no,no,A,1,conjunction_un,L2,unsyncopated,s1,r2,17,Online_conjL2_un//b.fe.ra17.0.888.wav,fe,cha,mi,sil,ra,si,su,sil1,ba,ñi,sil2,['catch'],[0.4554000000357519],[0.4554000000357519],0.0,beat,0.4554000000357519,0.4554000000357519,"[""space""]",fe,1,testConjL2Uns//cat_viol.r2.s2.0.wav,1.0,conjunction_un,unsyncopated,b,s2,no_rule,cat,L2,z,0.2189,6.0,0.0,1.0683,3.0,3.0,Catalan,0.0,Castellano,0.0,Ingles,5.0,Aleman,18.0,4.0,1.0,no,no,no,nada,,18. Siento escalofríos cuando escucho una melodía que me gusta.,4.0,nada,74.0,yes
18,2024-01-16_09h55.46.063,Unsyncopated_study2,s89,21.0,feminino,right,España,CatalanCastellano,Upper secondary,no,no,A,1,conjunction_un,L2,unsyncopated,s2,r1,18,Online_conjL2_un//b.fe.ra19.none.none.wav,me,mi,to,sil,go,ñu,ñi,sil1,du,ba,sil2,['-'],,,none,none,,,,fe,1,testConjL2Uns//r2.s1.1.wav,1.0,conjunction_un,unsyncopated,b,s1,rule,rule,L2,z,0.1863,6.0,1.0,0.8703,3.0,3.0,Catalan,0.0,Castellano,0.0,Ingles,5.0,Aleman,18.0,4.0,1.0,no,no,no,nada,,19. Con la música me puedo desahogar.,4.0,nada,74.0,yes
19,2024-01-16_09h55.46.063,Unsyncopated_study2,s89,21.0,feminino,right,España,CatalanCastellano,Upper secondary,no,no,A,1,conjunction_un,L2,unsyncopated,s1,r1,19,Online_conjL2_un//b.fe.ra18.none.none.wav,go,su,bi,sil,du,te,si,sil1,ñu,to,sil2,['-'],,,none,none,,,,fe,1,testConjL2Uns//r1.s1.2.wav,1.0,conjunction_un,unsyncopated,a,s1,rule,rule,L2,z,2.2021,5.0,1.0,1.0355,3.0,3.0,Catalan,0.0,Castellano,0.0,Ingles,5.0,Aleman,18.0,4.0,1.0,no,no,no,nada,,20. Cuando escucho una melodía que me gusta mucho no puedo evitar mover el cuerpo.,4.0,nada,74.0,yes
20,2024-01-16_09h55.46.063,Unsyncopated_study2,s89,21.0,feminino,right,España,CatalanCastellano,Upper secondary,no,no,A,1,conjunction_un,L2,unsyncopated,s1,r2,20,Online_conjL2_un//d.si.ñu20.1776.222.wav,fe,ñu,cha,sil,ra,bi,te,sil1,si,ñi,sil2,"['false alarm', 'catch']","[0.3744000000357346, 2.324800000011919]",[2.324800000011919],1.776,beat,0.5488000000119191,0.5488000000119191,"[""space"",""space""]",si,4,testConjL2Uns//r2.s2.0.wav,1.0,conjunction_un,unsyncopated,b,s2,rule,rule,L2,z,0.2735,6.0,1.0,1.1852,3.0,3.0,Catalan,0.0,Castellano,0.0,Ingles,5.0,Aleman,18.0,4.0,1.0,no,no,no,nada,,,,nada,74.0,yes
21,2024-01-16_09h55.46.063,Unsyncopated_study2,s89,21.0,feminino,right,España,CatalanCastellano,Upper secondary,no,no,A,1,conjunction_un,L2,unsyncopated,s1,r1,21,Online_conjL2_un//d.si.ñu22.none.none.wav,go,su,to,sil,du,ñi,me,sil1,bi,mi,sil2,['-'],,,none,none,,,,si,4,testConjL2Uns//r1.s2.2.wav,1.0,conjunction_un,unsyncopated,a,s2,rule,rule,L2,z,0.2318,6.0,1.0,0.7901,3.0,3.0,Catalan,0.0,Castellano,0.0,Ingles,5.0,Aleman,18.0,4.0,1.0,no,no,no,nada,,,,nada,74.0,yes
22,2024-01-16_09h55.46.063,Unsyncopated_study2,s89,21.0,feminino,right,España,CatalanCastellano,Upper secondary,no,no,A,1,conjunction_un,L2,unsyncopated,s1,r2,22,Online_conjL2_un//d.si.ñu21.none.none.wav,fe,ba,mi,sil,ra,cha,su,sil1,to,me,sil2,['-'],,,none,none,,,,si,4,testConjL2Uns//dep_viol.r2.s2.0.wav,1.0,conjunction_un,unsyncopated,b,s2,no_rule,dep,L2,z,0.895,5.0,0.0,1.0515,3.0,3.0,Catalan,0.0,Castellano,0.0,Ingles,5.0,Aleman,18.0,4.0,1.0,no,no,no,nada,,,,nada,74.0,yes
23,2024-01-16_09h55.46.063,Unsyncopated_study2,s89,21.0,feminino,right,España,CatalanCastellano,Upper secondary,no,no,A,1,conjunction_un,L2,unsyncopated,s2,r1,23,Online_conjL2_un//d.si.ñu23.none.none.wav,su,to,ñi,sil,go,mi,cha,sil1,du,ba,sil2,['-'],,,none,none,,,,si,4,testConjL2Uns//cat_viol.r1.s2.0.wav,1.0,conjunction_un,unsyncopated,a,s2,no_rule,cat,L2,z,0.0182,7.0,0.0,0.9378,3.0,3.0,Catalan,0.0,Castellano,0.0,Ingles,5.0,Aleman,18.0,4.0,1.0,no,no,no,nada,,,,nada,74.0,yes
24,2024-01-16_09h55.46.063,Unsyncopated_study2,s89,21.0,feminino,right,España,CatalanCastellano,Upper secondary,no,no,A,1,conjunction_un,L2,unsyncopated,s2,r2,24,Online_conjL2_un//a.go.du12.none.none.wav,bi,su,mi,sil,fe,ñi,te,sil1,ra,si,sil2,['-'],,,none,none,,,,du,2,testConjL1Syn//r1.s2.1.wav,2.0,conjunction_syn,syncopated,a,s2,rule,rule,L1,m,1.1022,4.0,0.0,1.082,3.0,3.0,Catalan,0.0,Castellano,0.0,Ingles,5.0,Aleman,18.0,4.0,1.0,no,no,no,nada,,,,nada,74.0,yes
25,2024-01-16_09h55.46.063,Unsyncopated_study2,s89,21.0,feminino,right,España,CatalanCastellano,Upper secondary,no,no,A,1,conjunction_un,L2,unsyncopated,s2,r1,25,Online_conjL2_un//a.go.du13.888.1776.wav,mi,bi,ba,sil,go,ñu,to,sil1,du,te,sil2,['catch'],[2.347900000035793],[2.347900000035793],1.776,beat,0.5719000000357928,0.5719000000357928,"[""space""]",du,2,testConjL1Syn//r2.s2.0.wav,2.0,conjunction_syn,syncopated,b,s2,rule,rule,L1,z,0.4521,6.0,1.0,1.2023,3.0,3.0,Catalan,0.0,Castellano,0.0,Ingles,5.0,Aleman,18.0,4.0,1.0,no,no,no,nada,,,,nada,74.0,yes
26,2024-01-16_09h55.46.063,Unsyncopated_study2,s89,21.0,feminino,right,España,CatalanCastellano,Upper secondary,no,no,A,1,conjunction_un,L2,unsyncopated,s1,r1,26,Online_conjL2_un//a.go.du14.0.888.wav,go,su,to,sil,du,te,ba,sil1,ñi,me,sil2,['catch'],[1.4400999999642181],[1.4400999999642181],0.888,beat,0.5520999999642181,0.5520999999642181,"[""space""]",du,2,testConjL1Syn//r2.s2.2.wav,2.0,conjunction_syn,syncopated,b,s2,rule,rule,L1,m,2.5508,5.0,0.0,3.4043,3.0,3.0,Catalan,0.0,Castellano,0.0,Ingles,5.0,Aleman,18.0,4.0,1.0,no,no,no,nada,,,,nada,74.0,yes
27,2024-01-16_09h55.46.063,Unsyncopated_study2,s89,21.0,feminino,right,España,CatalanCastellano,Upper secondary,no,no,A,1,conjunction_un,L2,unsyncopated,s2,r2,27,Online_conjL2_un//a.go.du15.none.none.wav,me,mi,ñu,sil,fe,si,ñi,sil1,ra,su,sil2,['-'],,,none,none,,,,du,2,testConjL1Syn//dep_viol.r2.s1.0.wav,2.0,conjunction_syn,syncopated,b,s1,no_rule,dep,L1,m,8.7535,4.0,1.0,0.9383,3.0,3.0,Catalan,0.0,Castellano,0.0,Ingles,5.0,Aleman,18.0,4.0,1.0,no,no,no,nada,,,,nada,74.0,yes
28,2024-01-16_09h55.46.063,Unsyncopated_study2,s89,21.0,feminino,right,España,CatalanCastellano,Upper secondary,no,no,A,1,conjunction_un,L2,unsyncopated,s2,r2,28,Online_conjL2_un//a.go.du6.none.none.wav,ñu,ba,bi,sil,fe,me,su,sil1,ra,to,sil2,['-'],,,none,none,,,,du,2,testConjL1Syn//cat_viol.r2.s1.0.wav,2.0,conjunction_syn,syncopated,b,s1,no_rule,cat,L1,z,4.8336,4.0,0.0,1.4678,3.0,3.0,Catalan,0.0,Castellano,0.0,Ingles,5.0,Aleman,18.0,4.0,1.0,no,no,no,nada,,,,nada,74.0,yes
29,2024-01-16_09h55.46.063,Unsyncopated_study2,s89,21.0,feminino,right,España,CatalanCastellano,Upper secondary,no,no,A,1,conjunction_un,L2,unsyncopated,s2,r2,29,Online_conjL2_un//a.go.du4.none.none.wav,ñi,ba,cha,sil,fe,bi,ñu,sil1,ra,mi,sil2,['-'],,,none,none,,,,du,2,testConjL1Syn//time_viol.r2.s2.0.wav,2.0,conjunction_syn,syncopated,b,s2,no_rule,time,L1,m,1.0681,4.0,1.0,1.6858,3.0,3.0,Catalan,0.0,Castellano,0.0,Ingles,5.0,Aleman,18.0,4.0,1.0,no,no,no,nada,,,,nada,74.0,yes
30,2024-01-16_09h55.46.063,Unsyncopated_study2,s89,21.0,feminino,right,España,CatalanCastellano,Upper secondary,no,no,A,1,conjunction_un,L2,unsyncopated,s1,r2,30,Online_conjL2_un//a.go.du5.none.none.wav,fe,bi,me,sil,ra,to,si,sil1,ñi,ñu,sil2,['-'],,,none,none,,,,du,2,testConjL1Syn//r2.s1.2.wav,2.0,conjunction_syn,syncopated,b,s1,rule,rule,L1,z,59.205,4.0,1.0,0.2481,3.0,3.0,Catalan,0.0,Castellano,0.0,Ingles,5.0,Aleman,18.0,4.0,1.0,no,no,no,nada,,,,nada,74.0,yes
31,2024-01-16_09h55.46.063,Unsyncopated_study2,s89,21.0,feminino,right,España,CatalanCastellano,Upper secondary,no,no,A,1,conjunction_un,L2,unsyncopated,s2,r2,31,Online_conjL2_un//a.go.du7.none.none.wav,to,ñi,su,sil,fe,si,ñu,sil1,ra,cha,sil2,['-'],,,none,none,,,,du,2,testConjL1Syn//time_viol.r1.s2.0.wav,2.0,conjunction_syn,syncopated,a,s2,no_rule,time,L1,m,3.3845,4.0,1.0,1.0523,3.0,3.0,Catalan,0.0,Castellano,0.0,Ingles,5.0,Aleman,18.0,4.0,1.0,no,no,no,nada,,,,nada,74.0,yes
32,2024-01-16_09h55.46.063,Unsyncopated_study2,s89,21.0,feminino,right,España,CatalanCastellano,Upper secondary,no,no,A,1,conjunction_un,L2,unsyncopated,s2,r1,32,Online_conjL2_un//c.cha.me5.1332.0.wav,me,ñi,mi,sil,go,to,cha,sil1,du,su,sil2,['miss'],,,1.332,no_beat,,,,cha,3,testConjL1Syn//r1.s1.0.wav,2.0,conjunction_syn,syncopated,a,s1,rule,rule,L1,z,0.9179,5.0,1.0,0.7693,3.0,3.0,Catalan,0.0,Castellano,0.0,Ingles,5.0,Aleman,18.0,4.0,1.0,no,no,no,nada,,,,nada,74.0,yes
33,2024-01-16_09h55.46.063,Unsyncopated_study2,s89,21.0,feminino,right,España,CatalanCastellano,Upper secondary,no,no,A,1,conjunction_un,L2,unsyncopated,s1,r2,33,Online_conjL2_un//c.cha.me7.none.none.wav,fe,su,si,sil,ra,te,mi,sil1,ba,to,sil2,['-'],,,none,none,,,,cha,3,testConjL1Syn//r2.s2.1.wav,2.0,conjunction_syn,syncopated,b,s2,rule,rule,L1,m,1.8335,3.0,0.0,0.9892,3.0,3.0,Catalan,0.0,Castellano,0.0,Ingles,5.0,Aleman,18.0,4.0,1.0,no,no,no,nada,,,,nada,74.0,yes
34,2024-01-16_09h55.46.063,Unsyncopated_study2,s89,21.0,feminino,right,España,CatalanCastellano,Upper secondary,no,no,A,1,conjunction_un,L2,unsyncopated,s2,r2,34,Online_conjL2_un//c.cha.me4.none.none.wav,mi,ñu,su,sil,fe,bi,to,sil1,ra,ñi,sil2,['-'],,,none,none,,,,cha,3,testConjL1Syn//cat_viol.r1.s1.0.wav,2.0,conjunction_syn,syncopated,a,s1,no_rule,cat,L1,z,19.0853,5.0,0.0,0.4842,3.0,3.0,Catalan,0.0,Castellano,0.0,Ingles,5.0,Aleman,18.0,4.0,1.0,no,no,no,nada,,,,nada,74.0,yes
35,2024-01-16_09h55.46.063,Unsyncopated_study2,s89,21.0,feminino,right,España,CatalanCastellano,Upper secondary,no,no,A,1,conjunction_un,L2,unsyncopated,s2,r2,35,Online_conjL2_un//c.cha.me6.0.222.wav,cha,me,si,sil,fe,ba,te,sil1,ra,to,sil2,['catch'],[0.5218999999760854],[0.5218999999760854],0.0,beat,0.5218999999760854,0.5218999999760854,"[""space""]",cha,3,testConjL1Syn//dep_viol.r1.s1.0.wav,2.0,conjunction_syn,syncopated,a,s1,no_rule,dep,L1,z,17.2852,4.0,0.0,1.1186,3.0,3.0,Catalan,0.0,Castellano,0.0,Ingles,5.0,Aleman,18.0,4.0,1.0,no,no,no,nada,,,,nada,74.0,yes
36,2024-01-16_09h55.46.063,Unsyncopated_study2,s89,21.0,feminino,right,España,CatalanCastellano,Upper secondary,no,no,A,1,conjunction_un,L2,unsyncopated,s2,r1,36,Online_conjL2_un//c.cha.me18.none.none.wav,ba,su,mi,sil,go,ñu,te,sil1,du,ñi,sil2,['-'],,,none,none,,,,cha,3,testConjL1Syn//cat_viol.r1.s2.0.wav,2.0,conjunction_syn,syncopated,a,s2,no_rule,cat,L1,z,0.9209,7.0,0.0,0.5522,3.0,3.0,Catalan,0.0,Castellano,0.0,Ingles,5.0,Aleman,18.0,4.0,1.0,no,no,no,nada,,,,nada,74.0,yes
37,2024-01-16_09h55.46.063,Unsyncopated_study2,s89,21.0,feminino,right,España,CatalanCastellano,Upper secondary,no,no,A,1,conjunction_un,L2,unsyncopated,s2,r1,37,Online_conjL2_un//c.cha.me17.1332.444.wav,bi,ba,me,sil,go,ñi,cha,sil1,du,si,sil2,['catch'],[1.7876999999880354],[1.7876999999880354],1.332,no_beat,0.4556999999880353,0.4556999999880353,"[""space""]",cha,3,testConjL1Syn//dep_viol.r2.s2.0.wav,2.0,conjunction_syn,syncopated,b,s2,no_rule,dep,L1,z,0.5005,6.0,0.0,1.8751,3.0,3.0,Catalan,0.0,Castellano,0.0,Ingles,5.0,Aleman,18.0,4.0,1.0,no,no,no,nada,,,,nada,74.0,yes
38,2024-01-16_09h55.46.063,Unsyncopated_study2,s89,21.0,feminino,right,España,CatalanCastellano,Upper secondary,no,no,A,1,conjunction_un,L2,unsyncopated,s2,r2,38,Online_conjL2_un//c.cha.me16.none.none.wav,te,mi,si,sil,fe,ñi,bi,sil1,ra,ñu,sil2,['-'],,,none,none,,,,cha,3,testConjL1Syn//time_viol.r1.s1.0.wav,2.0,conjunction_syn,syncopated,a,s1,no_rule,time,L1,m,1.8343,6.0,1.0,1.2684,3.0,3.0,Catalan,0.0,Castellano,0.0,Ingles,5.0,Aleman,18.0,4.0,1.0,no,no,no,nada,,,,nada,74.0,yes
39,2024-01-16_09h55.46.063,Unsyncopated_study2,s89,21.0,feminino,right,España,CatalanCastellano,Upper secondary,no,no,A,1,conjunction_un,L2,unsyncopated,s2,r1,39,Online_conjL2_un//c.cha.me19.none.none.wav,bi,mi,to,sil,go,ñu,si,sil1,du,ñi,sil2,['-'],,,none,none,,,,cha,3,testConjL1Syn//r1.s2.2.wav,2.0,conjunction_syn,syncopated,a,s2,rule,rule,L1,m,1.3166,5.0,0.0,0.5182,3.0,3.0,Catalan,0.0,Castellano,0.0,Ingles,5.0,Aleman,18.0,4.0,1.0,no,no,no,nada,,,,nada,74.0,yes
40,2024-01-16_09h55.46.063,Unsyncopated_study2,s89,21.0,feminino,right,España,CatalanCastellano,Upper secondary,no,no,A,1,conjunction_un,L2,unsyncopated,s2,r1,40,Online_conjL2_un//c.cha.me20.none.none.wav,ñu,su,ñi,sil,go,to,si,sil1,du,ba,sil2,['-'],,,none,none,,,,cha,3,testConjL1Syn//r1.s1.1.wav,2.0,conjunction_syn,syncopated,a,s1,rule,rule,L1,m,4.3705,4.0,0.0,1.152,3.0,3.0,Catalan,0.0,Castellano,0.0,Ingles,5.0,Aleman,18.0,4.0,1.0,no,no,no,nada,,,,nada,74.0,yes
41,2024-01-16_09h55.46.063,Unsyncopated_study2,s89,21.0,feminino,right,España,CatalanCastellano,Upper secondary,no,no,A,1,conjunction_un,L2,unsyncopated,s1,r2,41,Online_conjL2_un//c.cha.me21.1332.444.wav,fe,su,me,sil,ra,si,cha,sil1,ñi,ba,sil2,['catch'],[1.8727000000476437],[1.8727000000476437],1.332,no_beat,0.5407000000476436,0.5407000000476436,"[""space""]",cha,3,testConjL1Syn//dep_viol.r1.s2.0.wav,2.0,conjunction_syn,syncopated,a,s2,no_rule,dep,L1,z,0.2686,6.0,0.0,1.4688,3.0,3.0,Catalan,0.0,Castellano,0.0,Ingles,5.0,Aleman,18.0,4.0,1.0,no,no,no,nada,,,,nada,74.0,yes
42,2024-01-16_09h55.46.063,Unsyncopated_study2,s89,21.0,feminino,right,España,CatalanCastellano,Upper secondary,no,no,A,1,conjunction_un,L2,unsyncopated,s2,r2,42,Online_conjL2_un//c.cha.me23.222.444.wav,su,cha,me,sil,fe,mi,to,sil1,ra,ñu,sil2,['miss'],,,0.222,no_beat,,,,cha,3,testConjL1Syn//r1.s2.0.wav,2.0,conjunction_syn,syncopated,a,s2,rule,rule,L1,z,6.5237,5.0,1.0,0.643,3.0,3.0,Catalan,0.0,Castellano,0.0,Ingles,5.0,Aleman,18.0,4.0,1.0,no,no,no,nada,,,,nada,74.0,yes
43,2024-01-16_09h55.46.063,Unsyncopated_study2,s89,21.0,feminino,right,España,CatalanCastellano,Upper secondary,no,no,A,1,conjunction_un,L2,unsyncopated,s1,r1,43,Online_conjL2_un//c.cha.me22.222.444.wav,go,cha,me,sil,du,ñu,to,sil1,te,su,sil2,['miss'],,,0.222,no_beat,,,,cha,3,testConjL1Syn//cat_viol.r2.s2.0.wav,2.0,conjunction_syn,syncopated,b,s2,no_rule,cat,L1,z,1.4166,7.0,0.0,0.5354,3.0,3.0,Catalan,0.0,Castellano,0.0,Ingles,5.0,Aleman,18.0,4.0,1.0,no,no,no,nada,,,,nada,74.0,yes
44,2024-01-16_09h55.46.063,Unsyncopated_study2,s89,21.0,feminino,right,España,CatalanCastellano,Upper secondary,no,no,A,1,conjunction_un,L2,unsyncopated,s2,r1,44,Online_conjL2_un//d.si.ñu12.none.none.wav,ba,bi,mi,sil,go,to,cha,sil1,du,te,sil2,['-'],,,none,none,,,,si,4,testConjL1Syn//r1.s1.2.wav,2.0,conjunction_syn,syncopated,a,s1,rule,rule,L1,z,0.9026,6.0,1.0,0.4357,3.0,3.0,Catalan,0.0,Castellano,0.0,Ingles,5.0,Aleman,18.0,4.0,1.0,no,no,no,nada,,,,nada,74.0,yes
45,2024-01-16_09h55.46.063,Unsyncopated_study2,s89,21.0,feminino,right,España,CatalanCastellano,Upper secondary,no,no,A,1,conjunction_un,L2,unsyncopated,s2,r2,45,Online_conjL2_un//d.si.ñu13.0.1110.wav,si,su,ba,sil,fe,ñu,ñi,sil1,ra,mi,sil2,['catch'],[0.48130000001197004],[0.48130000001197004],0.0,beat,0.48130000001197,0.48130000001197,"[""space""]",si,4,testConjL1Syn//r2.s1.1.wav,2.0,conjunction_syn,syncopated,b,s1,rule,rule,L1,m,1.156,4.0,0.0,1.056,3.0,3.0,Catalan,0.0,Castellano,0.0,Ingles,5.0,Aleman,18.0,4.0,1.0,no,no,no,nada,,,,nada,74.0,yes
46,2024-01-16_09h55.46.063,Unsyncopated_study2,s89,21.0,feminino,right,España,CatalanCastellano,Upper secondary,no,no,A,1,conjunction_un,L2,unsyncopated,s2,r1,46,Online_conjL2_un//d.si.ñu15.none.none.wav,su,mi,bi,sil,go,me,ba,sil1,du,te,sil2,['-'],,,none,none,,,,si,4,testConjL1Syn//r2.s1.0.wav,2.0,conjunction_syn,syncopated,b,s1,rule,rule,L1,m,0.9266,5.0,0.0,1.0594,3.0,3.0,Catalan,0.0,Castellano,0.0,Ingles,5.0,Aleman,18.0,4.0,1.0,no,no,no,nada,,,,nada,74.0,yes
47,2024-01-16_09h55.46.063,Unsyncopated_study2,s89,21.0,feminino,right,España,CatalanCastellano,Upper secondary,no,no,A,1,conjunction_un,L2,unsyncopated,s1,r2,47,Online_conjL2_un//d.si.ñu14.1110.222.wav,fe,ñu,ñi,sil,ra,si,ba,sil1,te,su,sil2,['miss'],,,1.11,no_beat,,,,si,4,testConjL1Syn//time_viol.r2.s1.0.wav,2.0,conjunction_syn,syncopated,b,s1,no_rule,time,L1,z,1.9366,6.0,0.0,1.1498,3.0,3.0,Catalan,0.0,Castellano,0.0,Ingles,5.0,Aleman,18.0,4.0,1.0,no,no,no,nada,,,,nada,74.0,yes
48,2024-01-16_09h55.46.063,Unsyncopated_study2,s89,21.0,feminino,right,España,CatalanCastellano,Upper secondary,no,no,A,1,conjunction_un,L2,unsyncopated,s1,r1,48,Online_conjL2_un//b.fe.ra1.none.none.wav,go,te,su,sil,du,mi,ba,sil1,si,me,sil2,['-'],,,none,none,,,,fe,1,testWhatL3Uns//r2.s2.0.wav,3.0,what,unsyncopated,b,s2,rule,rule,L3,z,0.3512,7.0,1.0,0.8442,3.0,3.0,Catalan,0.0,Castellano,0.0,Ingles,5.0,Aleman,18.0,4.0,1.0,no,no,no,nada,,,,nada,74.0,yes
49,2024-01-16_09h55.46.063,Unsyncopated_study2,s89,21.0,feminino,right,España,CatalanCastellano,Upper secondary,no,no,A,1,conjunction_un,L2,unsyncopated,s2,r2,49,Online_conjL2_un//b.fe.ra0.888.1776.wav,ñi,mi,si,sil,fe,to,ñu,sil1,ra,ba,sil2,['miss'],,,0.888,beat,,,,fe,1,testWhatL3Uns//cat_viol.r2.s2.0.wav,3.0,what,unsyncopated,b,s2,no_rule,cat,L3,z,0.3276,6.0,0.0,0.7652,3.0,3.0,Catalan,0.0,Castellano,0.0,Ingles,5.0,Aleman,18.0,4.0,1.0,no,no,no,nada,,,,nada,74.0,yes
50,2024-01-16_09h55.46.063,Unsyncopated_study2,s89,21.0,feminino,right,España,CatalanCastellano,Upper secondary,no,no,A,1,conjunction_un,L2,unsyncopated,s2,r2,50,Online_conjL2_un//b.fe.ra2.888.1776.wav,bi,te,mi,sil,fe,ñu,si,sil1,ra,ba,sil2,['catch'],[1.5654000000357655],[1.5654000000357655],0.888,beat,0.6774000000357655,0.6774000000357655,"[""space""]",fe,1,testWhatL3Uns//r2.s2.1.wav,3.0,what,unsyncopated,b,s2,rule,rule,L3,z,1.0923,6.0,1.0,0.5887,3.0,3.0,Catalan,0.0,Castellano,0.0,Ingles,5.0,Aleman,18.0,4.0,1.0,no,no,no,nada,,,,nada,74.0,yes
51,2024-01-16_09h55.46.063,Unsyncopated_study2,s89,21.0,feminino,right,España,CatalanCastellano,Upper secondary,no,no,A,1,conjunction_un,L2,unsyncopated,s1,r1,51,Online_conjL2_un//b.fe.ra3.none.none.wav,go,bi,to,sil,du,me,ba,sil1,su,ñi,sil2,['false alarm'],[1.6154999999999973],[1.6154999999999973],none,none,,,"[""space""]",fe,1,testWhatL3Uns//r1.s1.0.wav,3.0,what,unsyncopated,a,s1,rule,rule,L3,z,0.3014,7.0,1.0,0.8442,3.0,3.0,Catalan,0.0,Castellano,0.0,Ingles,5.0,Aleman,18.0,4.0,1.0,no,no,no,nada,,,,nada,74.0,yes
52,2024-01-16_09h55.46.063,Unsyncopated_study2,s89,21.0,feminino,right,España,CatalanCastellano,Upper secondary,no,no,A,1,conjunction_un,L2,unsyncopated,s2,r2,52,Online_conjL2_un//d.si.ñu5.none.none.wav,bi,ñi,mi,sil,fe,te,ba,sil1,ra,to,sil2,['-'],,,none,none,,,,si,4,testWhatL3Uns//dep_viol.r2.s2.0.wav,3.0,what,unsyncopated,b,s2,no_rule,dep,L3,z,0.4018,6.0,0.0,1.3254,3.0,3.0,Catalan,0.0,Castellano,0.0,Ingles,5.0,Aleman,18.0,4.0,1.0,no,no,no,nada,,,,nada,74.0,yes
53,2024-01-16_09h55.46.063,Unsyncopated_study2,s89,21.0,feminino,right,España,CatalanCastellano,Upper secondary,no,no,A,1,conjunction_un,L2,unsyncopated,s1,r1,53,Online_conjL2_un//d.si.ñu4.1332.444.wav,go,me,ñu,sil,du,cha,si,sil1,bi,to,sil2,['catch'],[1.871499999999969],[1.871499999999969],1.332,no_beat,0.539499999999969,0.539499999999969,"[""space""]",si,4,testWhatL3Uns//r2.s1.1.wav,3.0,what,unsyncopated,b,s1,rule,rule,L3,z,0.3132,7.0,1.0,0.6645,3.0,3.0,Catalan,0.0,Castellano,0.0,Ingles,5.0,Aleman,18.0,4.0,1.0,no,no,no,nada,,,,nada,74.0,yes
54,2024-01-16_09h55.46.063,Unsyncopated_study2,s89,21.0,feminino,right,España,CatalanCastellano,Upper secondary,no,no,A,1,conjunction_un,L2,unsyncopated,s1,r1,54,Online_conjL2_un//d.si.ñu6.444.1110.wav,go,cha,si,sil,du,ñu,ba,sil1,me,to,sil2,['miss'],,,0.444,no_beat,,,,si,4,testWhatL3Uns//time_viol.r2.s2.0.wav,3.0,what,unsyncopated,b,s2,no_rule,time,L3,m,0.3559,6.0,1.0,1.4369,3.0,3.0,Catalan,0.0,Castellano,0.0,Ingles,5.0,Aleman,18.0,4.0,1.0,no,no,no,nada,,,,nada,74.0,yes
55,2024-01-16_09h55.46.063,Unsyncopated_study2,s89,21.0,feminino,right,España,CatalanCastellano,Upper secondary,no,no,A,1,conjunction_un,L2,unsyncopated,s1,r1,55,Online_conjL2_un//d.si.ñu7.none.none.wav,go,ñi,mi,sil,du,te,ba,sil1,su,to,sil2,['-'],,,none,none,,,,si,4,testWhatL3Uns//r2.s1.0.wav,3.0,what,unsyncopated,b,s1,rule,rule,L3,z,0.3353,5.0,1.0,0.8757,3.0,3.0,Catalan,0.0,Castellano,0.0,Ingles,5.0,Aleman,18.0,4.0,1.0,no,no,no,nada,,,,nada,74.0,yes
56,2024-01-16_09h55.46.063,Unsyncopated_study2,s89,21.0,feminino,right,España,CatalanCastellano,Upper secondary,no,no,A,1,conjunction_un,L2,unsyncopated,s2,r2,56,Online_conjL2_un//a.go.du26.none.none.wav,mi,bi,ñi,sil,fe,cha,te,sil1,ra,su,sil2,['-'],,,none,none,,,,du,2,testWhatL3Uns//time_viol.r2.s1.0.wav,3.0,what,unsyncopated,b,s1,no_rule,time,L3,m,0.1404,6.0,1.0,1.2496,3.0,3.0,Catalan,0.0,Castellano,0.0,Ingles,5.0,Aleman,18.0,4.0,1.0,no,no,no,nada,,,,nada,74.0,yes
57,2024-01-16_09h55.46.063,Unsyncopated_study2,s89,21.0,feminino,right,España,CatalanCastellano,Upper secondary,no,no,A,1,conjunction_un,L2,unsyncopated,s2,r1,57,Online_conjL2_un//a.go.du27.888.1776.wav,ñu,ba,bi,sil,go,si,mi,sil1,du,te,sil2,['catch'],[2.4543000000119264],[2.4543000000119264],1.776,beat,0.6783000000119264,0.6783000000119264,"[""space""]",du,2,testWhatL3Uns//r1.s2.2.wav,3.0,what,unsyncopated,a,s2,rule,rule,L3,z,0.8354,6.0,1.0,0.779,3.0,3.0,Catalan,0.0,Castellano,0.0,Ingles,5.0,Aleman,18.0,4.0,1.0,no,no,no,nada,,,,nada,74.0,yes
58,2024-01-16_09h55.46.063,Unsyncopated_study2,s89,21.0,feminino,right,España,CatalanCastellano,Upper secondary,no,no,A,1,conjunction_un,L2,unsyncopated,s2,r2,58,Online_conjL2_un//a.go.du25.none.none.wav,mi,ñu,ba,sil,fe,bi,to,sil1,ra,si,sil2,['-'],,,none,none,,,,du,2,testWhatL3Uns//r1.s1.1.wav,3.0,what,unsyncopated,a,s1,rule,rule,L3,m,0.3851,5.0,0.0,1.1174,3.0,3.0,Catalan,0.0,Castellano,0.0,Ingles,5.0,Aleman,18.0,4.0,1.0,no,no,no,nada,,,,nada,74.0,yes
59,2024-01-16_09h55.46.063,Unsyncopated_study2,s89,21.0,feminino,right,España,CatalanCastellano,Upper secondary,no,no,A,1,conjunction_un,L2,unsyncopated,s1,r1,59,Online_conjL2_un//a.go.du24.0.888.wav,go,si,bi,sil,du,to,me,sil1,ñi,ba,sil2,['catch'],[1.5252000000476755],[1.5252000000476755],0.888,beat,0.6372000000476755,0.6372000000476755,"[""space""]",du,2,testWhatL3Uns//dep_viol.r1.s2.0.wav,3.0,what,unsyncopated,a,s2,no_rule,dep,L3,m,0.387,4.0,1.0,1.1285,3.0,3.0,Catalan,0.0,Castellano,0.0,Ingles,5.0,Aleman,18.0,4.0,1.0,no,no,no,nada,,,,nada,74.0,yes
60,2024-01-16_09h55.46.063,Unsyncopated_study2,s89,21.0,feminino,right,España,CatalanCastellano,Upper secondary,no,no,A,1,conjunction_un,L2,unsyncopated,s2,r1,60,Online_conjL2_un//c.cha.me26.none.none.wav,to,si,ba,sil,go,ñi,ñu,sil1,du,bi,sil2,['-'],,,none,none,,,,cha,3,testWhatL3Uns//r1.s1.2.wav,3.0,what,unsyncopated,a,s1,rule,rule,L3,z,0.1053,6.0,1.0,0.736,3.0,3.0,Catalan,0.0,Castellano,0.0,Ingles,5.0,Aleman,18.0,4.0,1.0,no,no,no,nada,,,,nada,74.0,yes
61,2024-01-16_09h55.46.063,Unsyncopated_study2,s89,21.0,feminino,right,España,CatalanCastellano,Upper secondary,no,no,A,1,conjunction_un,L2,unsyncopated,s2,r1,61,Online_conjL2_un//c.cha.me24.444.0.wav,me,ba,cha,sil,go,su,bi,sil1,du,ñu,sil2,['catch'],[1.0404999999999518],[1.0404999999999518],0.444,no_beat,0.5964999999999518,0.5964999999999518,"[""space""]",cha,3,testWhatL3Uns//r2.s2.2.wav,3.0,what,unsyncopated,b,s2,rule,rule,L3,z,0.2168,5.0,1.0,0.9197,3.0,3.0,Catalan,0.0,Castellano,0.0,Ingles,5.0,Aleman,18.0,4.0,1.0,no,no,no,nada,,,,nada,74.0,yes
62,2024-01-16_09h55.46.063,Unsyncopated_study2,s89,21.0,feminino,right,España,CatalanCastellano,Upper secondary,no,no,A,1,conjunction_un,L2,unsyncopated,s1,r2,62,Online_conjL2_un//c.cha.me27.1776.444.wav,fe,bi,me,sil,ra,mi,ba,sil1,cha,ñu,sil2,['catch'],[2.3883000000118955],[2.3883000000118955],1.776,beat,0.6123000000118954,0.6123000000118954,"[""space""]",cha,3,testWhatL3Uns//dep_viol.r2.s1.0.wav,3.0,what,unsyncopated,b,s1,no_rule,dep,L3,z,1.3246,5.0,0.0,0.4844,3.0,3.0,Catalan,0.0,Castellano,0.0,Ingles,5.0,Aleman,18.0,4.0,1.0,no,no,no,nada,,,,nada,74.0,yes
63,2024-01-16_09h55.46.063,Unsyncopated_study2,s89,21.0,feminino,right,España,CatalanCastellano,Upper secondary,no,no,A,1,conjunction_un,L2,unsyncopated,s1,r2,63,Online_conjL2_un//c.cha.me25.none.none.wav,fe,ñu,ba,sil,ra,ñi,si,sil1,te,su,sil2,['-'],,,none,none,,,,cha,3,testWhatL3Uns//cat_viol.r1.s1.0.wav,3.0,what,unsyncopated,a,s1,no_rule,cat,L3,z,1.6944,3.0,0.0,1.651,3.0,3.0,Catalan,0.0,Castellano,0.0,Ingles,5.0,Aleman,18.0,4.0,1.0,no,no,no,nada,,,,nada,74.0,yes
64,2024-01-16_09h55.46.063,Unsyncopated_study2,s89,21.0,feminino,right,España,CatalanCastellano,Upper secondary,no,no,A,1,conjunction_un,L2,unsyncopated,s2,r2,64,Online_conjL2_un//b.fe.ra25.888.1776.wav,me,bi,si,sil,fe,su,te,sil1,ra,cha,sil2,['catch'],[1.5951000000238764],[1.5951000000238764],0.888,beat,0.7071000000238764,0.7071000000238764,"[""space""]",fe,1,testWhatL3Uns//r1.s2.1.wav,3.0,what,unsyncopated,a,s2,rule,rule,L3,m,0.3189,4.0,0.0,0.3369,3.0,3.0,Catalan,0.0,Castellano,0.0,Ingles,5.0,Aleman,18.0,4.0,1.0,no,no,no,nada,,,,nada,74.0,yes
65,2024-01-16_09h55.46.063,Unsyncopated_study2,s89,21.0,feminino,right,España,CatalanCastellano,Upper secondary,no,no,A,1,conjunction_un,L2,unsyncopated,s2,r1,65,Online_conjL2_un//b.fe.ra27.none.none.wav,mi,si,me,sil,go,ñu,to,sil1,du,te,sil2,['-'],,,none,none,,,,fe,1,testWhatL3Uns//cat_viol.r2.s1.0.wav,3.0,what,unsyncopated,b,s1,no_rule,cat,L3,z,0.2851,7.0,0.0,0.453,3.0,3.0,Catalan,0.0,Castellano,0.0,Ingles,5.0,Aleman,18.0,4.0,1.0,no,no,no,nada,,,,nada,74.0,yes
66,2024-01-16_09h55.46.063,Unsyncopated_study2,s89,21.0,feminino,right,España,CatalanCastellano,Upper secondary,no,no,A,1,conjunction_un,L2,unsyncopated,s2,r2,66,Online_conjL2_un//b.fe.ra26.888.1776.wav,ba,su,si,sil,fe,ñu,mi,sil1,ra,ñi,sil2,['catch'],[1.7908000000118136],[1.7908000000118136],0.888,beat,0.9028000000118136,0.9028000000118136,"[""space""]",fe,1,testWhatL3Uns//r2.s1.2.wav,3.0,what,unsyncopated,b,s1,rule,rule,L3,m,0.2096,6.0,0.0,0.9209,3.0,3.0,Catalan,0.0,Castellano,0.0,Ingles,5.0,Aleman,18.0,4.0,1.0,no,no,no,nada,,,,nada,74.0,yes
67,2024-01-16_09h55.46.063,Unsyncopated_study2,s89,21.0,feminino,right,España,CatalanCastellano,Upper secondary,no,no,A,1,conjunction_un,L2,unsyncopated,s1,r1,67,Online_conjL2_un//b.fe.ra24.none.none.wav,go,su,bi,sil,du,me,ñi,sil1,mi,cha,sil2,['-'],,,none,none,,,,fe,1,testWhatL3Uns//time_viol.r1.s2.0.wav,3.0,what,unsyncopated,a,s2,no_rule,time,L3,z,0.8069,4.0,0.0,1.1198,3.0,3.0,Catalan,0.0,Castellano,0.0,Ingles,5.0,Aleman,18.0,4.0,1.0,no,no,no,nada,,,,nada,74.0,yes
68,2024-01-16_09h55.46.063,Unsyncopated_study2,s89,21.0,feminino,right,España,CatalanCastellano,Upper secondary,no,no,A,1,conjunction_un,L2,unsyncopated,s1,r1,68,Online_conjL2_un//d.si.ñu2.1776.444.wav,go,ba,ñu,sil,du,to,su,sil1,si,ñi,sil2,['catch'],[2.4666000000238455],[2.4666000000238455],1.776,beat,0.6906000000238455,0.6906000000238455,"[""space""]",si,4,testWhatL3Uns//dep_viol.r1.s1.0.wav,3.0,what,unsyncopated,a,s1,no_rule,dep,L3,m,5.6196,5.0,1.0,0.3405,3.0,3.0,Catalan,0.0,Castellano,0.0,Ingles,5.0,Aleman,18.0,4.0,1.0,no,no,no,nada,,,,nada,74.0,yes
69,2024-01-16_09h55.46.063,Unsyncopated_study2,s89,21.0,feminino,right,España,CatalanCastellano,Upper secondary,no,no,A,1,conjunction_un,L2,unsyncopated,s1,r2,69,Online_conjL2_un//d.si.ñu1.222.1332.wav,fe,si,ba,sil,ra,su,ñu,sil1,ñi,me,sil2,['miss'],,,0.222,no_beat,,,,si,4,testWhatL3Uns//time_viol.r1.s1.0.wav,3.0,what,unsyncopated,a,s1,no_rule,time,L3,z,0.2914,6.0,0.0,0.6565,3.0,3.0,Catalan,0.0,Castellano,0.0,Ingles,5.0,Aleman,18.0,4.0,1.0,no,no,no,nada,,,,nada,74.0,yes
70,2024-01-16_09h55.46.063,Unsyncopated_study2,s89,21.0,feminino,right,España,CatalanCastellano,Upper secondary,no,no,A,1,conjunction_un,L2,unsyncopated,s1,r1,70,Online_conjL2_un//d.si.ñu0.none.none.wav,go,cha,ba,sil,du,ñi,bi,sil1,su,to,sil2,['-'],,,none,none,,,,si,4,testWhatL3Uns//r1.s2.0.wav,3.0,what,unsyncopated,a,s2,rule,rule,L3,z,0.322,5.0,1.0,0.6927,3.0,3.0,Catalan,0.0,Castellano,0.0,Ingles,5.0,Aleman,18.0,4.0,1.0,no,no,no,nada,,,,nada,74.0,yes
71,2024-01-16_09h55.46.063,Unsyncopated_study2,s89,21.0,feminino,right,España,CatalanCastellano,Upper secondary,no,no,A,1,conjunction_un,L2,unsyncopated,s2,r2,71,Online_conjL2_un//d.si.ñu3.none.none.wav,to,ba,te,sil,fe,cha,bi,sil1,ra,me,sil2,['-'],,,none,none,,,,si,4,testWhatL3Uns//cat_viol.r1.s2.0.wav,3.0,what,unsyncopated,a,s2,no_rule,cat,L3,m,0.168,5.0,1.0,0.9521,3.0,3.0,Catalan,0.0,Castellano,0.0,Ingles,5.0,Aleman,18.0,4.0,1.0,no,no,no,nada,,,,nada,74.0,yes
72,2024-01-16_09h55.46.063,Unsyncopated_study2,s89,21.0,feminino,right,España,CatalanCastellano,Upper secondary,no,no,A,1,conjunction_un,L2,unsyncopated,s1,r1,72,Online_conjL2_un//a.go.du29.0.888.wav,go,mi,me,sil,du,to,bi,sil1,cha,ñu,sil2,['catch'],[1.7801000000238218],[1.7801000000238218],0.888,beat,0.8921000000238218,0.8921000000238218,"[""space""]",du,2,testWhenL4Uns//r1.s2.0.wav,4.0,when,unsyncopated,a,s2,rule,rule,L4,z,0.7652,5.0,1.0,0.6752,3.0,3.0,Catalan,0.0,Castellano,0.0,Ingles,5.0,Aleman,18.0,4.0,1.0,no,no,no,nada,,,,nada,74.0,yes
73,2024-01-16_09h55.46.063,Unsyncopated_study2,s89,21.0,feminino,right,España,CatalanCastellano,Upper secondary,no,no,A,1,conjunction_un,L2,unsyncopated,s1,r2,73,Online_conjL2_un//a.go.du28.none.none.wav,fe,cha,ba,sil,ra,mi,me,sil1,bi,te,sil2,['-'],,,none,none,,,,du,2,testWhenL4Uns//cat_viol.r1.s1.0.wav,4.0,when,unsyncopated,a,s1,no_rule,cat,L4,z,0.7258,4.0,1.0,1.5845,3.0,3.0,Catalan,0.0,Castellano,0.0,Ingles,5.0,Aleman,18.0,4.0,1.0,no,no,no,nada,,,,nada,74.0,yes
74,2024-01-16_09h55.46.063,Unsyncopated_study2,s89,21.0,feminino,right,España,CatalanCastellano,Upper secondary,no,no,A,1,conjunction_un,L2,unsyncopated,s1,r2,74,Online_conjL2_un//a.go.du30.none.none.wav,fe,cha,si,sil,ra,su,te,sil1,ba,bi,sil2,['-'],,,none,none,,,,du,2,testWhenL4Uns//time_viol.r2.s2.0.wav,4.0,when,unsyncopated,b,s2,no_rule,time,L4,z,0.3492,6.0,1.0,0.116,3.0,3.0,Catalan,0.0,Castellano,0.0,Ingles,5.0,Aleman,18.0,4.0,1.0,no,no,no,nada,,,,nada,74.0,yes
75,2024-01-16_09h55.46.063,Unsyncopated_study2,s89,21.0,feminino,right,España,CatalanCastellano,Upper secondary,no,no,A,1,conjunction_un,L2,unsyncopated,s1,r2,75,Online_conjL2_un//a.go.du31.none.none.wav,fe,to,ñi,sil,ra,bi,ñu,sil1,su,si,sil2,['-'],,,none,none,,,,du,2,testWhenL4Uns//time_viol.r2.s1.0.wav,4.0,when,unsyncopated,b,s1,no_rule,time,L4,m,0.417,5.0,0.0,0.9363,3.0,3.0,Catalan,0.0,Castellano,0.0,Ingles,5.0,Aleman,18.0,4.0,1.0,no,no,no,nada,,,,nada,74.0,yes
76,2024-01-16_09h55.46.063,Unsyncopated_study2,s89,21.0,feminino,right,España,CatalanCastellano,Upper secondary,no,no,A,1,conjunction_un,L2,unsyncopated,s1,r2,76,Online_conjL2_un//c.cha.me2.1776.444.wav,fe,su,me,sil,ra,mi,ba,sil1,cha,ñu,sil2,['catch'],[2.310399999976198],[2.310399999976198],1.776,beat,0.5343999999761981,0.5343999999761981,"[""space""]",cha,3,testWhenL4Uns//r1.s1.1.wav,4.0,when,unsyncopated,a,s1,rule,rule,L4,z,0.5487,7.0,1.0,0.2169,3.0,3.0,Catalan,0.0,Castellano,0.0,Ingles,5.0,Aleman,18.0,4.0,1.0,no,no,no,nada,,,,nada,74.0,yes
77,2024-01-16_09h55.46.063,Unsyncopated_study2,s89,21.0,feminino,right,España,CatalanCastellano,Upper secondary,no,no,A,1,conjunction_un,L2,unsyncopated,s1,r1,77,Online_conjL2_un//c.cha.me1.none.none.wav,go,ba,mi,sil,du,ñi,ñu,sil1,bi,si,sil2,['-'],,,none,none,,,,cha,3,testWhenL4Uns//r1.s1.2.wav,4.0,when,unsyncopated,a,s1,rule,rule,L4,m,2.4379,3.0,0.0,0.3191,3.0,3.0,Catalan,0.0,Castellano,0.0,Ingles,5.0,Aleman,18.0,4.0,1.0,no,no,no,nada,,,,nada,74.0,yes
78,2024-01-16_09h55.46.063,Unsyncopated_study2,s89,21.0,feminino,right,España,CatalanCastellano,Upper secondary,no,no,A,1,conjunction_un,L2,unsyncopated,s2,r2,78,Online_conjL2_un//c.cha.me0.none.none.wav,si,mi,ba,sil,fe,su,te,sil1,ra,ñi,sil2,['-'],,,none,none,,,,cha,3,testWhenL4Uns//dep_viol.r1.s1.0.wav,4.0,when,unsyncopated,a,s1,no_rule,dep,L4,z,0.9069,4.0,1.0,0.3694,3.0,3.0,Catalan,0.0,Castellano,0.0,Ingles,5.0,Aleman,18.0,4.0,1.0,no,no,no,nada,,,,nada,74.0,yes
79,2024-01-16_09h55.46.063,Unsyncopated_study2,s89,21.0,feminino,right,España,CatalanCastellano,Upper secondary,no,no,A,1,conjunction_un,L2,unsyncopated,s1,r1,79,Online_conjL2_un//c.cha.me3.1776.1110.wav,go,mi,te,sil,du,me,bi,sil1,cha,su,sil2,['false alarm'],[1.0308000000119364],[1.0308000000119364],1.776,beat,,,"[""space""]",cha,3,testWhenL4Uns//time_viol.r1.s2.0.wav,4.0,when,unsyncopated,a,s2,no_rule,time,L4,m,0.3661,5.0,0.0,1.017,3.0,3.0,Catalan,0.0,Castellano,0.0,Ingles,5.0,Aleman,18.0,4.0,1.0,no,no,no,nada,,,,nada,74.0,yes
80,2024-01-16_09h55.46.063,Unsyncopated_study2,s89,21.0,feminino,right,España,CatalanCastellano,Upper secondary,no,no,A,1,conjunction_un,L2,unsyncopated,s2,r1,80,Online_conjL2_un//a.go.du23.888.1776.wav,su,te,mi,sil,go,ñu,bi,sil1,du,me,sil2,['catch'],[2.5280999999641836],[2.5280999999641836],1.776,beat,0.7520999999641835,0.7520999999641835,"[""space""]",du,2,testWhenL4Uns//dep_viol.r2.s1.0.wav,4.0,when,unsyncopated,b,s1,no_rule,dep,L4,z,0.6988,5.0,1.0,0.956,3.0,3.0,Catalan,0.0,Castellano,0.0,Ingles,5.0,Aleman,18.0,4.0,1.0,no,no,no,nada,,,,nada,74.0,yes
81,2024-01-16_09h55.46.063,Unsyncopated_study2,s89,21.0,feminino,right,España,CatalanCastellano,Upper secondary,no,no,A,1,conjunction_un,L2,unsyncopated,s2,r1,81,Online_conjL2_un//a.go.du21.888.1776.wav,ba,cha,si,sil,go,to,ñi,sil1,du,te,sil2,['catch_delay'],[1.1270999999641964],[1.1270999999641964],1.776,beat,1.1270999999641964,1.1270999999641964,,du,2,testWhenL4Uns//r2.s1.2.wav,4.0,when,unsyncopated,b,s1,rule,rule,L4,z,4.9829,5.0,1.0,0.5505,3.0,3.0,Catalan,0.0,Castellano,0.0,Ingles,5.0,Aleman,18.0,4.0,1.0,no,no,no,nada,,,,nada,74.0,yes
82,2024-01-16_09h55.46.063,Unsyncopated_study2,s89,21.0,feminino,right,España,CatalanCastellano,Upper secondary,no,no,A,1,conjunction_un,L2,unsyncopated,s1,r2,82,Online_conjL2_un//a.go.du22.none.none.wav,fe,bi,ñi,sil,ra,mi,me,sil1,su,ñu,sil2,['-'],[0.23909999996419629],[0.23909999996419629],none,none,,,"[""space""]",du,2,testWhenL4Uns//r1.s2.2.wav,4.0,when,unsyncopated,a,s2,rule,rule,L4,z,4.9677,5.0,1.0,1.0587,3.0,3.0,Catalan,0.0,Castellano,0.0,Ingles,5.0,Aleman,18.0,4.0,1.0,no,no,no,nada,,,,nada,74.0,yes
83,2024-01-16_09h55.46.063,Unsyncopated_study2,s89,21.0,feminino,right,España,CatalanCastellano,Upper secondary,no,no,A,1,conjunction_un,L2,unsyncopated,s1,r1,83,Online_conjL2_un//a.go.du20.0.888.wav,go,ñi,si,sil,du,mi,me,sil1,bi,te,sil2,['catch'],[1.9383999999761272],[1.9383999999761272],0.888,beat,1.050399999976127,1.050399999976127,"[""space""]",du,2,testWhenL4Uns//cat_viol.r2.s1.0.wav,4.0,when,unsyncopated,b,s1,no_rule,cat,L4,z,2.0033,4.0,1.0,0.8602,3.0,3.0,Catalan,0.0,Castellano,0.0,Ingles,5.0,Aleman,18.0,4.0,1.0,no,no,no,nada,,,,nada,74.0,yes
84,2024-01-16_09h55.46.063,Unsyncopated_study2,s89,21.0,feminino,right,España,CatalanCastellano,Upper secondary,no,no,A,1,conjunction_un,L2,unsyncopated,s1,r1,84,Online_conjL2_un//a.go.du19.0.888.wav,go,ba,si,sil,du,su,mi,sil1,ñi,cha,sil2,['catch'],[1.7098999999761872],[1.7098999999761872],0.888,beat,0.8218999999761872,0.8218999999761872,"[""space""]",du,2,testWhenL4Uns//cat_viol.r2.s2.0.wav,4.0,when,unsyncopated,b,s2,no_rule,cat,L4,m,0.3101,4.0,0.0,1.1879,3.0,3.0,Catalan,0.0,Castellano,0.0,Ingles,5.0,Aleman,18.0,4.0,1.0,no,no,no,nada,,,,nada,74.0,yes
85,2024-01-16_09h55.46.063,Unsyncopated_study2,s89,21.0,feminino,right,España,CatalanCastellano,Upper secondary,no,no,A,1,conjunction_un,L2,unsyncopated,s1,r1,85,Online_conjL2_un//a.go.du18.0.888.wav,go,me,si,sil,du,ñi,ba,sil1,su,to,sil2,['catch'],[1.4710000000000036],[1.4710000000000036],0.888,beat,0.5830000000000036,0.5830000000000036,"[""space""]",du,2,testWhenL4Uns//cat_viol.r1.s2.0.wav,4.0,when,unsyncopated,a,s2,no_rule,cat,L4,z,0.2356,6.0,1.0,0.7506,3.0,3.0,Catalan,0.0,Castellano,0.0,Ingles,5.0,Aleman,18.0,4.0,1.0,no,no,no,nada,,,,nada,74.0,yes
86,2024-01-16_09h55.46.063,Unsyncopated_study2,s89,21.0,feminino,right,España,CatalanCastellano,Upper secondary,no,no,A,1,conjunction_un,L2,unsyncopated,s2,r1,86,Online_conjL2_un//a.go.du16.888.1776.wav,cha,me,ba,sil,go,to,si,sil1,du,ñi,sil2,['catch'],[2.4053999999762254],[2.4053999999762254],1.776,beat,0.6293999999762254,0.6293999999762254,"[""space""]",du,2,testWhenL4Uns//r2.s2.2.wav,4.0,when,unsyncopated,b,s2,rule,rule,L4,m,0.3254,4.0,0.0,1.2922,3.0,3.0,Catalan,0.0,Castellano,0.0,Ingles,5.0,Aleman,18.0,4.0,1.0,no,no,no,nada,,,,nada,74.0,yes
87,2024-01-16_09h55.46.063,Unsyncopated_study2,s89,21.0,feminino,right,España,CatalanCastellano,Upper secondary,no,no,A,1,conjunction_un,L2,unsyncopated,s1,r2,87,Online_conjL2_un//a.go.du17.none.none.wav,fe,mi,su,sil,ra,me,bi,sil1,te,si,sil2,['-'],,,none,none,,,,du,2,testWhenL4Uns//r2.s1.1.wav,4.0,when,unsyncopated,b,s1,rule,rule,L4,z,0.3147,4.0,1.0,0.6674,3.0,3.0,Catalan,0.0,Castellano,0.0,Ingles,5.0,Aleman,18.0,4.0,1.0,no,no,no,nada,,,,nada,74.0,yes
88,2024-01-16_09h55.46.063,Unsyncopated_study2,s89,21.0,feminino,right,España,CatalanCastellano,Upper secondary,no,no,A,1,conjunction_un,L2,unsyncopated,s1,r2,88,Online_conjL2_un//b.fe.ra11.0.888.wav,fe,bi,mi,sil,ra,te,su,sil1,cha,ba,sil2,['miss'],,,0.0,beat,,,,fe,1,testWhenL4Uns//r1.s2.1.wav,4.0,when,unsyncopated,a,s2,rule,rule,L4,m,0.1548,4.0,0.0,0.7513,3.0,3.0,Catalan,0.0,Castellano,0.0,Ingles,5.0,Aleman,18.0,4.0,1.0,no,no,no,nada,,,,nada,74.0,yes
89,2024-01-16_09h55.46.063,Unsyncopated_study2,s89,21.0,feminino,right,España,CatalanCastellano,Upper secondary,no,no,A,1,conjunction_un,L2,unsyncopated,s1,r2,89,Online_conjL2_un//b.fe.ra9.0.888.wav,fe,ñu,cha,sil,ra,to,bi,sil1,te,ba,sil2,['miss'],,,0.0,beat,,,,fe,1,testWhenL4Uns//r2.s1.0.wav,4.0,when,unsyncopated,b,s1,rule,rule,L4,m,0.3834,5.0,0.0,1.0057,3.0,3.0,Catalan,0.0,Castellano,0.0,Ingles,5.0,Aleman,18.0,4.0,1.0,no,no,no,nada,,,,nada,74.0,yes
90,2024-01-16_09h55.46.063,Unsyncopated_study2,s89,21.0,feminino,right,España,CatalanCastellano,Upper secondary,no,no,A,1,conjunction_un,L2,unsyncopated,s2,r1,90,Online_conjL2_un//b.fe.ra8.none.none.wav,si,to,mi,sil,go,cha,me,sil1,du,bi,sil2,['-'],,,none,none,,,,fe,1,testWhenL4Uns//dep_viol.r1.s2.0.wav,4.0,when,unsyncopated,a,s2,no_rule,dep,L4,z,0.1166,7.0,1.0,0.7758,3.0,3.0,Catalan,0.0,Castellano,0.0,Ingles,5.0,Aleman,18.0,4.0,1.0,no,no,no,nada,,,,nada,74.0,yes
91,2024-01-16_09h55.46.063,Unsyncopated_study2,s89,21.0,feminino,right,España,CatalanCastellano,Upper secondary,no,no,A,1,conjunction_un,L2,unsyncopated,s1,r2,91,Online_conjL2_un//b.fe.ra10.0.888.wav,fe,ñu,cha,sil,ra,mi,bi,sil1,me,si,sil2,['miss'],,,0.0,beat,,,,fe,1,testWhenL4Uns//dep_viol.r2.s2.0.wav,4.0,when,unsyncopated,b,s2,no_rule,dep,L4,z,0.8558,5.0,1.0,0.5842,3.0,3.0,Catalan,0.0,Castellano,0.0,Ingles,5.0,Aleman,18.0,4.0,1.0,no,no,no,nada,,,,nada,74.0,yes
92,2024-01-16_09h55.46.063,Unsyncopated_study2,s89,21.0,feminino,right,España,CatalanCastellano,Upper secondary,no,no,A,1,conjunction_un,L2,unsyncopated,s1,r1,92,Online_conjL2_un//c.cha.me13.none.none.wav,go,bi,su,sil,du,si,te,sil1,mi,ñu,sil2,['-'],,,none,none,,,,cha,3,testWhenL4Uns//time_viol.r1.s1.0.wav,4.0,when,unsyncopated,a,s1,no_rule,time,L4,z,0.0327,6.0,1.0,0.5317,3.0,3.0,Catalan,0.0,Castellano,0.0,Ingles,5.0,Aleman,18.0,4.0,1.0,no,no,no,nada,,,,nada,74.0,yes
93,2024-01-16_09h55.46.063,Unsyncopated_study2,s89,21.0,feminino,right,España,CatalanCastellano,Upper secondary,no,no,A,1,conjunction_un,L2,unsyncopated,s1,r1,93,Online_conjL2_un//c.cha.me12.1332.222.wav,go,me,si,sil,du,ñu,cha,sil1,ñi,bi,sil2,['miss'],,,1.332,no_beat,,,,cha,3,testWhenL4Uns//r2.s2.1.wav,4.0,when,unsyncopated,b,s2,rule,rule,L4,z,0.3171,7.0,1.0,0.4606,3.0,3.0,Catalan,0.0,Castellano,0.0,Ingles,5.0,Aleman,18.0,4.0,1.0,no,no,no,nada,,,,nada,74.0,yes
94,2024-01-16_09h55.46.063,Unsyncopated_study2,s89,21.0,feminino,right,España,CatalanCastellano,Upper secondary,no,no,A,1,conjunction_un,L2,unsyncopated,s1,r2,94,Online_conjL2_un//c.cha.me14.none.none.wav,fe,mi,su,sil,ra,si,ba,sil1,te,ñi,sil2,['false alarm'],[0.7878999999761618],[0.7878999999761618],none,none,,,"[""space""]",cha,3,testWhenL4Uns//r2.s2.0.wav,4.0,when,unsyncopated,b,s2,rule,rule,L4,m,0.4179,4.0,0.0,0.8905,3.0,3.0,Catalan,0.0,Castellano,0.0,Ingles,5.0,Aleman,18.0,4.0,1.0,no,no,no,nada,,,,nada,74.0,yes
95,2024-01-16_09h55.46.063,Unsyncopated_study2,s89,21.0,feminino,right,España,CatalanCastellano,Upper secondary,no,no,A,1,conjunction_un,L2,unsyncopated,s2,r1,95,Online_conjL2_un//c.cha.me15.444.1110.wav,mi,ba,cha,sil,go,me,si,sil1,du,te,sil2,['miss'],,,0.444,no_beat,,,,cha,3,testWhenL4Uns//r1.s1.0.wav,4.0,when,unsyncopated,a,s1,rule,rule,L4,z,0.3382,6.0,1.0,0.4596,3.0,3.0,Catalan,0.0,Castellano,0.0,Ingles,5.0,Aleman,18.0,4.0,1.0,no,no,no,nada,,,,nada,74.0,yes
96,2024-01-16_09h55.46.063,Unsyncopated_study2,s89,21.0,feminino,right,España,CatalanCastellano,Upper secondary,no,no,A,1,conjunction_un,L2,unsyncopated,s2,r2,96,Online_conjL2_un//b.fe.ra31.888.1776.wav,ñu,to,me,sil,fe,cha,mi,sil1,ra,ba,sil2,['catch'],[1.3921999999880654],[1.3921999999880654],0.888,beat,0.5041999999880654,0.5041999999880654,"[""space""]",fe,1,,,,,,,,,,,,,,,3.0,3.0,Catalan,0.0,Castellano,0.0,Ingles,5.0,Aleman,18.0,4.0,1.0,no,no,no,nada,,,,nada,74.0,yes
97,2024-01-16_09h55.46.063,Unsyncopated_study2,s89,21.0,feminino,right,España,CatalanCastellano,Upper secondary,no,no,A,1,conjunction_un,L2,unsyncopated,s1,r1,97,Online_conjL2_un//b.fe.ra30.none.none.wav,go,si,cha,sil,du,ba,te,sil1,ñu,ñi,sil2,['-'],,,none,none,,,,fe,1,,,,,,,,,,,,,,,3.0,3.0,Catalan,0.0,Castellano,0.0,Ingles,5.0,Aleman,18.0,4.0,1.0,no,no,no,nada,,,,nada,74.0,yes
98,2024-01-16_09h55.46.063,Unsyncopated_study2,s89,21.0,feminino,right,España,CatalanCastellano,Upper secondary,no,no,A,1,conjunction_un,L2,unsyncopated,s1,r2,98,Online_conjL2_un//b.fe.ra29.0.888.wav,fe,ba,si,sil,ra,bi,cha,sil1,mi,ñu,sil2,['catch'],[0.8065999999641917],[0.8065999999641917],0.0,beat,0.8065999999641917,0.8065999999641917,"[""space""]",fe,1,,,,,,,,,,,,,,,3.0,3.0,Catalan,0.0,Castellano,0.0,Ingles,5.0,Aleman,18.0,4.0,1.0,no,no,no,nada,,,,nada,74.0,yes
99,2024-01-16_09h55.46.063,Unsyncopated_study2,s89,21.0,feminino,right,España,CatalanCastellano,Upper secondary,no,no,A,1,conjunction_un,L2,unsyncopated,s2,r1,99,Online_conjL2_un//b.fe.ra28.none.none.wav,me,cha,mi,sil,go,si,ñi,sil1,du,to,sil2,['false alarm'],[0.8223000000119782],[0.8223000000119782],none,none,,,"[""space""]",fe,1,,,,,,,,,,,,,,,3.0,3.0,Catalan,0.0,Castellano,0.0,Ingles,5.0,Aleman,18.0,4.0,1.0,no,no,no,nada,,,,nada,74.0,yes
100,2024-01-16_09h55.46.063,Unsyncopated_study2,s89,21.0,feminino,right,España,CatalanCastellano,Upper secondary,no,no,A,1,conjunction_un,L2,unsyncopated,s1,r2,100,Online_conjL2_un//b.fe.ra6.0.888.wav,fe,me,ñu,sil,ra,ñi,mi,sil1,to,bi,sil2,['catch'],[0.5771999999881245],[0.5771999999881245],0.0,beat,0.5771999999881245,0.5771999999881245,"[""space""]",fe,1,,,,,,,,,,,,,,,3.0,3.0,Catalan,0.0,Castellano,0.0,Ingles,5.0,Aleman,18.0,4.0,1.0,no,no,no,nada,,,,nada,74.0,yes
101,2024-01-16_09h55.46.063,Unsyncopated_study2,s89,21.0,feminino,right,España,CatalanCastellano,Upper secondary,no,no,A,1,conjunction_un,L2,unsyncopated,s1,r1,101,Online_conjL2_un//b.fe.ra7.none.none.wav,go,ñu,si,sil,du,me,ñi,sil1,te,ba,sil2,['-'],,,none,none,,,,fe,1,,,,,,,,,,,,,,,3.0,3.0,Catalan,0.0,Castellano,0.0,Ingles,5.0,Aleman,18.0,4.0,1.0,no,no,no,nada,,,,nada,74.0,yes
102,2024-01-16_09h55.46.063,Unsyncopated_study2,s89,21.0,feminino,right,España,CatalanCastellano,Upper secondary,no,no,A,1,conjunction_un,L2,unsyncopated,s2,r2,102,Online_conjL2_un//b.fe.ra4.888.1776.wav,bi,ñi,to,sil,fe,me,ba,sil1,ra,cha,sil2,['miss'],,,0.888,beat,,,,fe,1,,,,,,,,,,,,,,,3.0,3.0,Catalan,0.0,Castellano,0.0,Ingles,5.0,Aleman,18.0,4.0,1.0,no,no,no,nada,,,,nada,74.0,yes
103,2024-01-16_09h55.46.063,Unsyncopated_study2,s89,21.0,feminino,right,España,CatalanCastellano,Upper secondary,no,no,A,1,conjunction_un,L2,unsyncopated,s2,r1,103,Online_conjL2_un//b.fe.ra5.none.none.wav,cha,si,su,sil,go,bi,mi,sil1,du,ñu,sil2,['-'],,,none,none,,,,fe,1,,,,,,,,,,,,,,,3.0,3.0,Catalan,0.0,Castellano,0.0,Ingles,5.0,Aleman,18.0,4.0,1.0,no,no,no,nada,,,,nada,74.0,yes
104,2024-01-16_09h55.46.063,Unsyncopated_study2,s89,21.0,feminino,right,España,CatalanCastellano,Upper secondary,no,no,A,1,conjunction_un,L2,unsyncopated,s1,r2,104,Online_conjL2_un//d.si.ñu25.none.none.wav,fe,me,ñi,sil,ra,to,mi,sil1,bi,cha,sil2,['-'],,,none,none,,,,si,4,,,,,,,,,,,,,,,3.0,3.0,Catalan,0.0,Castellano,0.0,Ingles,5.0,Aleman,18.0,4.0,1.0,no,no,no,nada,,,,nada,74.0,yes
105,2024-01-16_09h55.46.063,Unsyncopated_study2,s89,21.0,feminino,right,España,CatalanCastellano,Upper secondary,no,no,A,1,conjunction_un,L2,unsyncopated,s1,r2,105,Online_conjL2_un//d.si.ñu26.none.none.wav,fe,bi,to,sil,ra,mi,me,sil1,te,ba,sil2,['-'],,,none,none,,,,si,4,,,,,,,,,,,,,,,3.0,3.0,Catalan,0.0,Castellano,0.0,Ingles,5.0,Aleman,18.0,4.0,1.0,no,no,no,nada,,,,nada,74.0,yes
106,2024-01-16_09h55.46.063,Unsyncopated_study2,s89,21.0,feminino,right,España,CatalanCastellano,Upper secondary,no,no,A,1,conjunction_un,L2,unsyncopated,s2,r2,106,Online_conjL2_un//d.si.ñu27.1332.0.wav,ñu,bi,to,sil,fe,ba,si,sil1,ra,te,sil2,['catch'],[1.7912999999523436],[1.7912999999523436],1.332,no_beat,0.4592999999523435,0.4592999999523435,"[""space""]",si,4,,,,,,,,,,,,,,,3.0,3.0,Catalan,0.0,Castellano,0.0,Ingles,5.0,Aleman,18.0,4.0,1.0,no,no,no,nada,,,,nada,74.0,yes
107,2024-01-16_09h55.46.063,Unsyncopated_study2,s89,21.0,feminino,right,España,CatalanCastellano,Upper secondary,no,no,A,1,conjunction_un,L2,unsyncopated,s2,r2,107,Online_conjL2_un//d.si.ñu24.0.1110.wav,si,bi,to,sil,fe,ñu,te,sil1,ra,ñi,sil2,['catch'],[0.5760999999640717],[0.5760999999640717],0.0,beat,0.5760999999640717,0.5760999999640717,"[""space""]",si,4,,,,,,,,,,,,,,,3.0,3.0,Catalan,0.0,Castellano,0.0,Ingles,5.0,Aleman,18.0,4.0,1.0,no,no,no,nada,,,,nada,74.0,yes
108,2024-01-16_09h55.46.063,Unsyncopated_study2,s89,21.0,feminino,right,España,CatalanCastellano,Upper secondary,no,no,A,1,conjunction_un,L2,unsyncopated,s2,r1,108,Online_conjL2_un//d.si.ñu16.1110.222.wav,te,ñu,mi,sil,go,si,to,sil1,du,me,sil2,['miss'],,,1.11,no_beat,,,,si,4,,,,,,,,,,,,,,,3.0,3.0,Catalan,0.0,Castellano,0.0,Ingles,5.0,Aleman,18.0,4.0,1.0,no,no,no,nada,,,,nada,74.0,yes
109,2024-01-16_09h55.46.063,Unsyncopated_study2,s89,21.0,feminino,right,España,CatalanCastellano,Upper secondary,no,no,A,1,conjunction_un,L2,unsyncopated,s2,r2,109,Online_conjL2_un//d.si.ñu17.1110.0.wav,ñu,bi,te,sil,fe,si,me,sil1,ra,ba,sil2,['miss'],,,1.11,no_beat,,,,si,4,,,,,,,,,,,,,,,3.0,3.0,Catalan,0.0,Castellano,0.0,Ingles,5.0,Aleman,18.0,4.0,1.0,no,no,no,nada,,,,nada,74.0,yes
110,2024-01-16_09h55.46.063,Unsyncopated_study2,s89,21.0,feminino,right,España,CatalanCastellano,Upper secondary,no,no,A,1,conjunction_un,L2,unsyncopated,s1,r1,110,Online_conjL2_un//d.si.ñu19.444.1332.wav,go,su,si,sil,du,to,ñu,sil1,te,me,sil2,['catch'],[0.9734999999998308],[0.9734999999998308],0.444,no_beat,0.5294999999998309,0.5294999999998309,"[""space""]",si,4,,,,,,,,,,,,,,,3.0,3.0,Catalan,0.0,Castellano,0.0,Ingles,5.0,Aleman,18.0,4.0,1.0,no,no,no,nada,,,,nada,74.0,yes
111,2024-01-16_09h55.46.063,Unsyncopated_study2,s89,21.0,feminino,right,España,CatalanCastellano,Upper secondary,no,no,A,1,conjunction_un,L2,unsyncopated,s2,r1,111,Online_conjL2_un//d.si.ñu18.1332.222.wav,bi,ñu,me,sil,go,cha,si,sil1,du,ba,sil2,['miss'],,,1.332,no_beat,,,,si,4,,,,,,,,,,,,,,,3.0,3.0,Catalan,0.0,Castellano,0.0,Ingles,5.0,Aleman,18.0,4.0,1.0,no,no,no,nada,,,,nada,74.0,yes
112,2024-01-16_09h55.46.063,Unsyncopated_study2,s89,21.0,feminino,right,España,CatalanCastellano,Upper secondary,no,no,A,1,conjunction_un,L2,unsyncopated,s1,r1,112,Online_conjL2_un//a.go.du1.0.888.wav,go,bi,si,sil,du,ñu,ba,sil1,mi,cha,sil2,['miss'],,,0.888,beat,,,,du,2,,,,,,,,,,,,,,,3.0,3.0,Catalan,0.0,Castellano,0.0,Ingles,5.0,Aleman,18.0,4.0,1.0,no,no,no,nada,,,,nada,74.0,yes
113,2024-01-16_09h55.46.063,Unsyncopated_study2,s89,21.0,feminino,right,España,CatalanCastellano,Upper secondary,no,no,A,1,conjunction_un,L2,unsyncopated,s2,r1,113,Online_conjL2_un//a.go.du2.888.1776.wav,si,me,to,sil,go,bi,te,sil1,du,cha,sil2,['catch'],[2.353300000012041],[2.353300000012041],1.776,beat,0.577300000012041,0.577300000012041,"[""space""]",du,2,,,,,,,,,,,,,,,3.0,3.0,Catalan,0.0,Castellano,0.0,Ingles,5.0,Aleman,18.0,4.0,1.0,no,no,no,nada,,,,nada,74.0,yes
114,2024-01-16_09h55.46.063,Unsyncopated_study2,s89,21.0,feminino,right,España,CatalanCastellano,Upper secondary,no,no,A,1,conjunction_un,L2,unsyncopated,s1,r2,114,Online_conjL2_un//a.go.du0.none.none.wav,fe,ñu,ba,sil,ra,mi,cha,sil1,bi,si,sil2,['-'],,,none,none,,,,du,2,,,,,,,,,,,,,,,3.0,3.0,Catalan,0.0,Castellano,0.0,Ingles,5.0,Aleman,18.0,4.0,1.0,no,no,no,nada,,,,nada,74.0,yes
115,2024-01-16_09h55.46.063,Unsyncopated_study2,s89,21.0,feminino,right,España,CatalanCastellano,Upper secondary,no,no,A,1,conjunction_un,L2,unsyncopated,s2,r2,115,Online_conjL2_un//a.go.du3.none.none.wav,te,bi,su,sil,fe,me,ñi,sil1,ra,si,sil2,['-'],,,none,none,,,,du,2,,,,,,,,,,,,,,,3.0,3.0,Catalan,0.0,Castellano,0.0,Ingles,5.0,Aleman,18.0,4.0,1.0,no,no,no,nada,,,,nada,74.0,yes
116,2024-01-16_09h55.46.063,Unsyncopated_study2,s89,21.0,feminino,right,España,CatalanCastellano,Upper secondary,no,no,A,1,conjunction_un,L2,unsyncopated,s2,r2,116,Online_conjL2_un//b.fe.ra20.888.1776.wav,bi,ñi,me,sil,fe,cha,si,sil1,ra,su,sil2,['miss'],,,0.888,beat,,,,fe,1,,,,,,,,,,,,,,,3.0,3.0,Catalan,0.0,Castellano,0.0,Ingles,5.0,Aleman,18.0,4.0,1.0,no,no,no,nada,,,,nada,74.0,yes
117,2024-01-16_09h55.46.063,Unsyncopated_study2,s89,21.0,feminino,right,España,CatalanCastellano,Upper secondary,no,no,A,1,conjunction_un,L2,unsyncopated,s2,r1,117,Online_conjL2_un//b.fe.ra23.none.none.wav,ñu,ba,mi,sil,go,to,ñi,sil1,du,bi,sil2,['-'],,,none,none,,,,fe,1,,,,,,,,,,,,,,,3.0,3.0,Catalan,0.0,Castellano,0.0,Ingles,5.0,Aleman,18.0,4.0,1.0,no,no,no,nada,,,,nada,74.0,yes
118,2024-01-16_09h55.46.063,Unsyncopated_study2,s89,21.0,feminino,right,España,CatalanCastellano,Upper secondary,no,no,A,1,conjunction_un,L2,unsyncopated,s2,r1,118,Online_conjL2_un//b.fe.ra21.none.none.wav,bi,ba,to,sil,go,te,si,sil1,du,me,sil2,['-'],,,none,none,,,,fe,1,,,,,,,,,,,,,,,3.0,3.0,Catalan,0.0,Castellano,0.0,Ingles,5.0,Aleman,18.0,4.0,1.0,no,no,no,nada,,,,nada,74.0,yes
119,2024-01-16_09h55.46.063,Unsyncopated_study2,s89,21.0,feminino,right,España,CatalanCastellano,Upper secondary,no,no,A,1,conjunction_un,L2,unsyncopated,s1,r1,119,Online_conjL2_un//b.fe.ra22.none.none.wav,go,te,to,sil,du,me,ñu,sil1,ñi,si,sil2,['-'],,,none,none,,,,fe,1,,,,,,,,,,,,,,,3.0,3.0,Catalan,0.0,Castellano,0.0,Ingles,5.0,Aleman,18.0,4.0,1.0,no,no,no,nada,,,,nada,74.0,yes
120,2024-01-16_09h55.46.063,Unsyncopated_study2,s89,21.0,feminino,right,España,CatalanCastellano,Upper secondary,no,no,A,1,conjunction_un,L2,unsyncopated,s1,r2,120,Online_conjL2_un//d.si.ñu29.1332.444.wav,fe,mi,ñu,sil,ra,su,si,sil1,ñi,cha,sil2,['catch'],[1.8086000000239437],[1.8086000000239437],1.332,no_beat,0.4766000000239436,0.4766000000239436,"[""space""]",si,4,,,,,,,,,,,,,,,3.0,3.0,Catalan,0.0,Castellano,0.0,Ingles,5.0,Aleman,18.0,4.0,1.0,no,no,no,nada,,,,nada,74.0,yes
121,2024-01-16_09h55.46.063,Unsyncopated_study2,s89,21.0,feminino,right,España,CatalanCastellano,Upper secondary,no,no,A,1,conjunction_un,L2,unsyncopated,s1,r1,121,Online_conjL2_un//d.si.ñu28.none.none.wav,go,me,su,sil,du,te,to,sil1,bi,ba,sil2,['-'],,,none,none,,,,si,4,,,,,,,,,,,,,,,3.0,3.0,Catalan,0.0,Castellano,0.0,Ingles,5.0,Aleman,18.0,4.0,1.0,no,no,no,nada,,,,nada,74.0,yes
122,2024-01-16_09h55.46.063,Unsyncopated_study2,s89,21.0,feminino,right,España,CatalanCastellano,Upper secondary,no,no,A,1,conjunction_un,L2,unsyncopated,s2,r1,122,Online_conjL2_un//d.si.ñu30.1332.222.wav,ba,ñu,ñi,sil,go,mi,si,sil1,du,cha,sil2,['catch'],[2.2390000000000327],[2.2390000000000327],1.332,no_beat,0.9070000000000328,0.9070000000000328,"[""space""]",si,4,,,,,,,,,,,,,,,3.0,3.0,Catalan,0.0,Castellano,0.0,Ingles,5.0,Aleman,18.0,4.0,1.0,no,no,no,nada,,,,nada,74.0,yes
123,2024-01-16_09h55.46.063,Unsyncopated_study2,s89,21.0,feminino,right,España,CatalanCastellano,Upper secondary,no,no,A,1,conjunction_un,L2,unsyncopated,s2,r2,123,Online_conjL2_un//d.si.ñu31.none.none.wav,su,ñi,to,sil,fe,me,ba,sil1,ra,te,sil2,['-'],,,none,none,,,,si,4,,,,,,,,,,,,,,,3.0,3.0,Catalan,0.0,Castellano,0.0,Ingles,5.0,Aleman,18.0,4.0,1.0,no,no,no,nada,,,,nada,74.0,yes
124,2024-01-16_09h55.46.063,Unsyncopated_study2,s89,21.0,feminino,right,España,CatalanCastellano,Upper secondary,no,no,A,1,conjunction_un,L2,unsyncopated,s1,r2,124,Online_conjL2_un//d.si.ñu10.none.none.wav,fe,ba,bi,sil,ra,te,mi,sil1,me,to,sil2,['-'],,,none,none,,,,si,4,,,,,,,,,,,,,,,3.0,3.0,Catalan,0.0,Castellano,0.0,Ingles,5.0,Aleman,18.0,4.0,1.0,no,no,no,nada,,,,nada,74.0,yes
125,2024-01-16_09h55.46.063,Unsyncopated_study2,s89,21.0,feminino,right,España,CatalanCastellano,Upper secondary,no,no,A,1,conjunction_un,L2,unsyncopated,s2,r1,125,Online_conjL2_un//d.si.ñu11.none.none.wav,ba,to,bi,sil,go,mi,te,sil1,du,su,sil2,['-'],,,none,none,,,,si,4,,,,,,,,,,,,,,,3.0,3.0,Catalan,0.0,Castellano,0.0,Ingles,5.0,Aleman,18.0,4.0,1.0,no,no,no,nada,,,,nada,74.0,yes
126,2024-01-16_09h55.46.063,Unsyncopated_study2,s89,21.0,feminino,right,España,CatalanCastellano,Upper secondary,no,no,A,1,conjunction_un,L2,unsyncopated,s2,r1,126,Online_conjL2_un//d.si.ñu8.0.222.wav,si,ñu,bi,sil,go,me,to,sil1,du,ba,sil2,['catch'],[0.6315999999642372],[0.6315999999642372],0.0,beat,0.6315999999642372,0.6315999999642372,"[""space""]",si,4,,,,,,,,,,,,,,,3.0,3.0,Catalan,0.0,Castellano,0.0,Ingles,5.0,Aleman,18.0,4.0,1.0,no,no,no,nada,,,,nada,74.0,yes
127,2024-01-16_09h55.46.063,Unsyncopated_study2,s89,21.0,feminino,right,España,CatalanCastellano,Upper secondary,no,no,A,1,conjunction_un,L2,unsyncopated,s2,r2,127,Online_conjL2_un//d.si.ñu9.none.none.wav,bi,cha,to,sil,fe,te,ba,sil1,ra,me,sil2,['-'],,,none,none,,,,si,4,,,,,,,,,,,,,,,3.0,3.0,Catalan,0.0,Castellano,0.0,Ingles,5.0,Aleman,18.0,4.0,1.0,no,no,no,nada,,,,nada,74.0,yes
128,2024-01-16_09h55.46.063,Unsyncopated_study2,s89,21.0,feminino,right,España,CatalanCastellano,Upper secondary,no,no,A,2,conjunction_syn,L1,syncopated,s1,r1,0,Online_conjL1_syn//d.ne.ni11.222.1332.wav,pu,ne,ri,ki,sil,la,ni,cho,sil1,ro,sil2,['miss'],,,0.222,no_beat,,,,ne,4,,,,,,,,,,,,,,,3.0,3.0,Catalan,0.0,Castellano,0.0,Ingles,5.0,Aleman,18.0,4.0,1.0,no,no,no,nada,,,,nada,74.0,yes
129,2024-01-16_09h55.46.063,Unsyncopated_study2,s89,21.0,feminino,right,España,CatalanCastellano,Upper secondary,no,no,A,2,conjunction_syn,L1,syncopated,s2,r1,1,Online_conjL1_syn//d.ne.ni8.222.444.wav,fo,ne,ni,pu,sil,ri,ze,ki,sil1,ro,sil2,['catch'],[0.923899999976129],[0.923899999976129],0.222,no_beat,0.7018999999761291,0.7018999999761291,"[""space""]",ne,4,,,,,,,,,,,,,,,3.0,3.0,Catalan,0.0,Castellano,0.0,Ingles,5.0,Aleman,18.0,4.0,1.0,no,no,no,nada,,,,nada,74.0,yes
130,2024-01-16_09h55.46.063,Unsyncopated_study2,s89,21.0,feminino,right,España,CatalanCastellano,Upper secondary,no,no,A,2,conjunction_syn,L1,syncopated,s1,r2,2,Online_conjL1_syn//d.ne.ni10.none.none.wav,ta,ze,fo,be,sil,ro,zu,ri,sil1,lu,sil2,['-'],,,none,none,,,,ne,4,,,,,,,,,,,,,,,3.0,3.0,Catalan,0.0,Castellano,0.0,Ingles,5.0,Aleman,18.0,4.0,1.0,no,no,no,nada,,,,nada,74.0,yes
131,2024-01-16_09h55.46.063,Unsyncopated_study2,s89,21.0,feminino,right,España,CatalanCastellano,Upper secondary,no,no,A,2,conjunction_syn,L1,syncopated,s2,r2,3,Online_conjL1_syn//d.ne.ni9.0.444.wav,ne,fo,ni,ta,sil,lu,ri,be,sil1,cho,sil2,['catch'],[0.5078999999761891],[0.5078999999761891],0.0,beat,0.5078999999761891,0.5078999999761891,"[""space""]",ne,4,,,,,,,,,,,,,,,3.0,3.0,Catalan,0.0,Castellano,0.0,Ingles,5.0,Aleman,18.0,4.0,1.0,no,no,no,nada,,,,nada,74.0,yes
132,2024-01-16_09h55.46.063,Unsyncopated_study2,s89,21.0,feminino,right,España,CatalanCastellano,Upper secondary,no,no,A,2,conjunction_syn,L1,syncopated,s2,r2,4,Online_conjL1_syn//a.pu.ki2.none.none.wav,ne,ro,ri,ta,sil,fa,ze,be,sil1,la,sil2,['-'],,,none,none,,,,ki,2,,,,,,,,,,,,,,,3.0,3.0,Catalan,0.0,Castellano,0.0,Ingles,5.0,Aleman,18.0,4.0,1.0,no,no,no,nada,,,,nada,74.0,yes
133,2024-01-16_09h55.46.063,Unsyncopated_study2,s89,21.0,feminino,right,España,CatalanCastellano,Upper secondary,no,no,A,2,conjunction_syn,L1,syncopated,s1,r2,5,Online_conjL1_syn//a.pu.ki0.none.none.wav,ta,la,ni,be,sil,fa,lu,ro,sil1,fo,sil2,['-'],,,none,none,,,,ki,2,,,,,,,,,,,,,,,3.0,3.0,Catalan,0.0,Castellano,0.0,Ingles,5.0,Aleman,18.0,4.0,1.0,no,no,no,nada,,,,nada,74.0,yes
134,2024-01-16_09h55.46.063,Unsyncopated_study2,s89,21.0,feminino,right,España,CatalanCastellano,Upper secondary,no,no,A,2,conjunction_syn,L1,syncopated,s1,r1,6,Online_conjL1_syn//a.pu.ki3.0.666.wav,pu,zu,la,ki,sil,fa,cho,ri,sil1,ro,sil2,['catch'],[1.1655000000000655],[1.1655000000000655],0.666,no_beat,0.4995000000000654,0.4995000000000654,"[""space""]",ki,2,,,,,,,,,,,,,,,3.0,3.0,Catalan,0.0,Castellano,0.0,Ingles,5.0,Aleman,18.0,4.0,1.0,no,no,no,nada,,,,nada,74.0,yes
135,2024-01-16_09h55.46.063,Unsyncopated_study2,s89,21.0,feminino,right,España,CatalanCastellano,Upper secondary,no,no,A,2,conjunction_syn,L1,syncopated,s2,r1,7,Online_conjL1_syn//a.pu.ki1.666.1554.wav,ni,fo,fa,pu,sil,zu,lu,ki,sil1,ne,sil2,['catch'],[1.99790000003577],[1.99790000003577],1.554,no_beat,0.44390000003577,0.44390000003577,"[""space""]",ki,2,,,,,,,,,,,,,,,3.0,3.0,Catalan,0.0,Castellano,0.0,Ingles,5.0,Aleman,18.0,4.0,1.0,no,no,no,nada,,,,nada,74.0,yes
136,2024-01-16_09h55.46.063,Unsyncopated_study2,s89,21.0,feminino,right,España,CatalanCastellano,Upper secondary,no,no,A,2,conjunction_syn,L1,syncopated,s2,r1,8,Online_conjL1_syn//d.ne.ni5.none.none.wav,zu,ri,ze,pu,sil,cho,fa,ki,sil1,la,sil2,['-'],,,none,none,,,,ne,4,,,,,,,,,,,,,,,3.0,3.0,Catalan,0.0,Castellano,0.0,Ingles,5.0,Aleman,18.0,4.0,1.0,no,no,no,nada,,,,nada,74.0,yes
137,2024-01-16_09h55.46.063,Unsyncopated_study2,s89,21.0,feminino,right,España,CatalanCastellano,Upper secondary,no,no,A,2,conjunction_syn,L1,syncopated,s1,r1,9,Online_conjL1_syn//d.ne.ni4.222.1332.wav,pu,ne,cho,ki,sil,ri,ni,ro,sil1,zu,sil2,['catch'],[0.9900000000000091],[0.9900000000000091],0.222,no_beat,0.7680000000000091,0.7680000000000091,"[""space""]",ne,4,,,,,,,,,,,,,,,3.0,3.0,Catalan,0.0,Castellano,0.0,Ingles,5.0,Aleman,18.0,4.0,1.0,no,no,no,nada,,,,nada,74.0,yes
138,2024-01-16_09h55.46.063,Unsyncopated_study2,s89,21.0,feminino,right,España,CatalanCastellano,Upper secondary,no,no,A,2,conjunction_syn,L1,syncopated,s1,r1,10,Online_conjL1_syn//d.ne.ni7.444.1110.wav,pu,lu,ne,ki,sil,ni,ri,ze,sil1,zu,sil2,['catch'],[1.62210000002392],[1.62210000002392],0.444,no_beat,1.17810000002392,1.17810000002392,"[""space""]",ne,4,,,,,,,,,,,,,,,3.0,3.0,Catalan,0.0,Castellano,0.0,Ingles,5.0,Aleman,18.0,4.0,1.0,no,no,no,nada,,,,nada,74.0,yes
139,2024-01-16_09h55.46.063,Unsyncopated_study2,s89,21.0,feminino,right,España,CatalanCastellano,Upper secondary,no,no,A,2,conjunction_syn,L1,syncopated,s1,r2,11,Online_conjL1_syn//d.ne.ni6.444.1110.wav,ta,zu,ne,be,sil,ni,ze,la,sil1,fa,sil2,['catch'],[1.6714999999999236],[1.6714999999999236],0.444,no_beat,,1.2274999999999237,"[""space""]",ne,4,,,,,,,,,,,,,,,3.0,3.0,Catalan,0.0,Castellano,0.0,Ingles,5.0,Aleman,18.0,4.0,1.0,no,no,no,nada,,,,nada,74.0,yes
140,2024-01-16_09h55.46.063,Unsyncopated_study2,s89,21.0,feminino,right,España,CatalanCastellano,Upper secondary,no,no,A,2,conjunction_syn,L1,syncopated,s1,r1,12,Online_conjL1_syn//d.ne.ni12.none.none.wav,pu,fo,ri,ki,sil,ze,zu,ro,sil1,la,sil2,['-'],,,none,none,,,,ne,4,,,,,,,,,,,,,,,3.0,3.0,Catalan,0.0,Castellano,0.0,Ingles,5.0,Aleman,18.0,4.0,1.0,no,no,no,nada,,,,nada,74.0,yes
141,2024-01-16_09h55.46.063,Unsyncopated_study2,s89,21.0,feminino,right,España,CatalanCastellano,Upper secondary,no,no,A,2,conjunction_syn,L1,syncopated,s2,r1,13,Online_conjL1_syn//d.ne.ni13.1110.222.wav,ze,ni,lu,pu,sil,ne,ro,ki,sil1,zu,sil2,['catch'],[1.9541999999880773],[1.9541999999880773],1.11,no_beat,0.8441999999880772,0.8441999999880772,"[""space""]",ne,4,,,,,,,,,,,,,,,3.0,3.0,Catalan,0.0,Castellano,0.0,Ingles,5.0,Aleman,18.0,4.0,1.0,no,no,no,nada,,,,nada,74.0,yes
142,2024-01-16_09h55.46.063,Unsyncopated_study2,s89,21.0,feminino,right,España,CatalanCastellano,Upper secondary,no,no,A,2,conjunction_syn,L1,syncopated,s1,r1,14,Online_conjL1_syn//d.ne.ni15.none.none.wav,pu,lu,ze,ki,sil,cho,zu,ri,sil1,la,sil2,['-'],,,none,none,,,,ne,4,,,,,,,,,,,,,,,3.0,3.0,Catalan,0.0,Castellano,0.0,Ingles,5.0,Aleman,18.0,4.0,1.0,no,no,no,nada,,,,nada,74.0,yes
143,2024-01-16_09h55.46.063,Unsyncopated_study2,s89,21.0,feminino,right,España,CatalanCastellano,Upper secondary,no,no,A,2,conjunction_syn,L1,syncopated,s1,r2,15,Online_conjL1_syn//d.ne.ni14.none.none.wav,ta,ri,cho,be,sil,ze,lu,zu,sil1,la,sil2,['-'],,,none,none,,,,ne,4,,,,,,,,,,,,,,,3.0,3.0,Catalan,0.0,Castellano,0.0,Ingles,5.0,Aleman,18.0,4.0,1.0,no,no,no,nada,,,,nada,74.0,yes
144,2024-01-16_09h55.46.063,Unsyncopated_study2,s89,21.0,feminino,right,España,CatalanCastellano,Upper secondary,no,no,A,2,conjunction_syn,L1,syncopated,s1,r1,16,Online_conjL1_syn//c.ro.fo24.1332.222.wav,pu,fo,ni,ki,sil,la,ro,ze,sil1,zu,sil2,['catch'],[1.779399999976249],[1.779399999976249],1.332,no_beat,0.447399999976249,0.447399999976249,"[""space""]",ro,3,,,,,,,,,,,,,,,3.0,3.0,Catalan,0.0,Castellano,0.0,Ingles,5.0,Aleman,18.0,4.0,1.0,no,no,no,nada,,,,nada,74.0,yes
145,2024-01-16_09h55.46.063,Unsyncopated_study2,s89,21.0,feminino,right,España,CatalanCastellano,Upper secondary,no,no,A,2,conjunction_syn,L1,syncopated,s2,r2,17,Online_conjL1_syn//c.ro.fo25.none.none.wav,lu,ri,fa,ta,sil,zu,cho,be,sil1,ze,sil2,['-'],,,none,none,,,,ro,3,,,,,,,,,,,,,,,3.0,3.0,Catalan,0.0,Castellano,0.0,Ingles,5.0,Aleman,18.0,4.0,1.0,no,no,no,nada,,,,nada,74.0,yes
146,2024-01-16_09h55.46.063,Unsyncopated_study2,s89,21.0,feminino,right,España,CatalanCastellano,Upper secondary,no,no,A,2,conjunction_syn,L1,syncopated,s2,r2,18,Online_conjL1_syn//c.ro.fo27.444.1110.wav,la,fa,ro,ta,sil,fo,lu,be,sil1,ze,sil2,['catch'],[1.1296000000238564],[1.1296000000238564],0.444,no_beat,0.6856000000238565,0.6856000000238565,"[""space""]",ro,3,,,,,,,,,,,,,,,3.0,3.0,Catalan,0.0,Castellano,0.0,Ingles,5.0,Aleman,18.0,4.0,1.0,no,no,no,nada,,,,nada,74.0,yes
147,2024-01-16_09h55.46.063,Unsyncopated_study2,s89,21.0,feminino,right,España,CatalanCastellano,Upper secondary,no,no,A,2,conjunction_syn,L1,syncopated,s2,r1,19,Online_conjL1_syn//c.ro.fo26.444.0.wav,fo,ne,ro,pu,sil,ze,ni,ki,sil1,fa,sil2,['catch'],[1.1531000000238691],[1.1531000000238691],0.444,no_beat,0.7091000000238692,0.7091000000238692,"[""space""]",ro,3,,,,,,,,,,,,,,,3.0,3.0,Catalan,0.0,Castellano,0.0,Ingles,5.0,Aleman,18.0,4.0,1.0,no,no,no,nada,,,,nada,74.0,yes
148,2024-01-16_09h55.46.063,Unsyncopated_study2,s89,21.0,feminino,right,España,CatalanCastellano,Upper secondary,no,no,A,2,conjunction_syn,L1,syncopated,s2,r1,20,Online_conjL1_syn//b.ta.be17.none.none.wav,zu,lu,ze,pu,sil,la,cho,ki,sil1,fa,sil2,['-'],,,none,none,,,,ta,1,,,,,,,,,,,,,,,3.0,3.0,Catalan,0.0,Castellano,0.0,Ingles,5.0,Aleman,18.0,4.0,1.0,no,no,no,nada,,,,nada,74.0,yes
149,2024-01-16_09h55.46.063,Unsyncopated_study2,s89,21.0,feminino,right,España,CatalanCastellano,Upper secondary,no,no,A,2,conjunction_syn,L1,syncopated,s2,r2,21,Online_conjL1_syn//b.ta.be16.666.1554.wav,ro,ne,lu,ta,sil,la,ri,be,sil1,fo,sil2,['catch'],[1.2380999999643336],[1.2380999999643336],0.666,no_beat,0.5720999999643336,0.5720999999643336,"[""space""]",ta,1,,,,,,,,,,,,,,,3.0,3.0,Catalan,0.0,Castellano,0.0,Ingles,5.0,Aleman,18.0,4.0,1.0,no,no,no,nada,,,,nada,74.0,yes
150,2024-01-16_09h55.46.063,Unsyncopated_study2,s89,21.0,feminino,right,España,CatalanCastellano,Upper secondary,no,no,A,2,conjunction_syn,L1,syncopated,s2,r2,22,Online_conjL1_syn//b.ta.be19.666.1554.wav,fa,la,ni,ta,sil,cho,ne,be,sil1,ri,sil2,['catch'],[1.1108999999760272],[1.1108999999760272],0.666,no_beat,0.4448999999760271,0.4448999999760271,"[""space""]",ta,1,,,,,,,,,,,,,,,3.0,3.0,Catalan,0.0,Castellano,0.0,Ingles,5.0,Aleman,18.0,4.0,1.0,no,no,no,nada,,,,nada,74.0,yes
151,2024-01-16_09h55.46.063,Unsyncopated_study2,s89,21.0,feminino,right,España,CatalanCastellano,Upper secondary,no,no,A,2,conjunction_syn,L1,syncopated,s1,r1,23,Online_conjL1_syn//b.ta.be18.none.none.wav,pu,ni,zu,ki,sil,ne,la,ze,sil1,cho,sil2,['-'],,,none,none,,,,ta,1,,,,,,,,,,,,,,,3.0,3.0,Catalan,0.0,Castellano,0.0,Ingles,5.0,Aleman,18.0,4.0,1.0,no,no,no,nada,,,,nada,74.0,yes
152,2024-01-16_09h55.46.063,Unsyncopated_study2,s89,21.0,feminino,right,España,CatalanCastellano,Upper secondary,no,no,A,2,conjunction_syn,L1,syncopated,s1,r2,24,Online_conjL1_syn//b.ta.be31.0.666.wav,ta,fo,cho,be,sil,lu,ri,zu,sil1,la,sil2,['catch'],[0.4266999999881591],[0.4266999999881591],0.0,beat,0.4266999999881591,0.4266999999881591,"[""space""]",ta,1,,,,,,,,,,,,,,,3.0,3.0,Catalan,0.0,Castellano,0.0,Ingles,5.0,Aleman,18.0,4.0,1.0,no,no,no,nada,,,,nada,74.0,yes
153,2024-01-16_09h55.46.063,Unsyncopated_study2,s89,21.0,feminino,right,España,CatalanCastellano,Upper secondary,no,no,A,2,conjunction_syn,L1,syncopated,s1,r1,25,Online_conjL1_syn//b.ta.be29.none.none.wav,pu,ro,fa,ki,sil,zu,ni,la,sil1,ze,sil2,['-'],,,none,none,,,,ta,1,,,,,,,,,,,,,,,3.0,3.0,Catalan,0.0,Castellano,0.0,Ingles,5.0,Aleman,18.0,4.0,1.0,no,no,no,nada,,,,nada,74.0,yes
154,2024-01-16_09h55.46.063,Unsyncopated_study2,s89,21.0,feminino,right,España,CatalanCastellano,Upper secondary,no,no,A,2,conjunction_syn,L1,syncopated,s1,r2,26,Online_conjL1_syn//b.ta.be28.0.666.wav,ta,fa,la,be,sil,zu,fo,ze,sil1,ro,sil2,['catch'],[0.4883000000120319],[0.4883000000120319],0.0,beat,0.4883000000120319,0.4883000000120319,"[""space""]",ta,1,,,,,,,,,,,,,,,3.0,3.0,Catalan,0.0,Castellano,0.0,Ingles,5.0,Aleman,18.0,4.0,1.0,no,no,no,nada,,,,nada,74.0,yes
155,2024-01-16_09h55.46.063,Unsyncopated_study2,s89,21.0,feminino,right,España,CatalanCastellano,Upper secondary,no,no,A,2,conjunction_syn,L1,syncopated,s2,r1,27,Online_conjL1_syn//b.ta.be30.none.none.wav,la,fo,fa,pu,sil,ro,ri,ki,sil1,ze,sil2,['-'],,,none,none,,,,ta,1,,,,,,,,,,,,,,,3.0,3.0,Catalan,0.0,Castellano,0.0,Ingles,5.0,Aleman,18.0,4.0,1.0,no,no,no,nada,,,,nada,74.0,yes
156,2024-01-16_09h55.46.063,Unsyncopated_study2,s89,21.0,feminino,right,España,CatalanCastellano,Upper secondary,no,no,A,2,conjunction_syn,L1,syncopated,s1,r1,28,Online_conjL1_syn//b.ta.be12.none.none.wav,pu,ro,lu,ki,sil,ri,fa,ni,sil1,cho,sil2,['-'],,,none,none,,,,ta,1,,,,,,,,,,,,,,,3.0,3.0,Catalan,0.0,Castellano,0.0,Ingles,5.0,Aleman,18.0,4.0,1.0,no,no,no,nada,,,,nada,74.0,yes
157,2024-01-16_09h55.46.063,Unsyncopated_study2,s89,21.0,feminino,right,España,CatalanCastellano,Upper secondary,no,no,A,2,conjunction_syn,L1,syncopated,s2,r1,29,Online_conjL1_syn//b.ta.be15.none.none.wav,la,ni,lu,pu,sil,ri,cho,ki,sil1,fa,sil2,['-'],,,none,none,,,,ta,1,,,,,,,,,,,,,,,3.0,3.0,Catalan,0.0,Castellano,0.0,Ingles,5.0,Aleman,18.0,4.0,1.0,no,no,no,nada,,,,nada,74.0,yes
158,2024-01-16_09h55.46.063,Unsyncopated_study2,s89,21.0,feminino,right,España,CatalanCastellano,Upper secondary,no,no,A,2,conjunction_syn,L1,syncopated,s1,r2,30,Online_conjL1_syn//b.ta.be13.0.666.wav,ta,ni,fo,be,sil,ze,ne,fa,sil1,ri,sil2,['catch'],[0.5280999999642972],[0.5280999999642972],0.0,beat,0.5280999999642972,0.5280999999642972,"[""space""]",ta,1,,,,,,,,,,,,,,,3.0,3.0,Catalan,0.0,Castellano,0.0,Ingles,5.0,Aleman,18.0,4.0,1.0,no,no,no,nada,,,,nada,74.0,yes
159,2024-01-16_09h55.46.063,Unsyncopated_study2,s89,21.0,feminino,right,España,CatalanCastellano,Upper secondary,no,no,A,2,conjunction_syn,L1,syncopated,s1,r2,31,Online_conjL1_syn//b.ta.be14.0.666.wav,ta,la,fa,be,sil,ni,fo,ro,sil1,lu,sil2,['catch'],[0.5718000000117627],[0.5718000000117627],0.0,beat,0.5718000000117627,0.5718000000117627,"[""space""]",ta,1,,,,,,,,,,,,,,,3.0,3.0,Catalan,0.0,Castellano,0.0,Ingles,5.0,Aleman,18.0,4.0,1.0,no,no,no,nada,,,,nada,74.0,yes
160,2024-01-16_09h55.46.063,Unsyncopated_study2,s89,21.0,feminino,right,España,CatalanCastellano,Upper secondary,no,no,A,2,conjunction_syn,L1,syncopated,s1,r1,32,Online_conjL1_syn//a.pu.ki27.0.666.wav,pu,ze,lu,ki,sil,cho,fa,fo,sil1,ni,sil2,['catch'],[1.0281000000238691],[1.0281000000238691],0.666,no_beat,0.3621000000238691,0.3621000000238691,"[""space""]",ki,2,,,,,,,,,,,,,,,3.0,3.0,Catalan,0.0,Castellano,0.0,Ingles,5.0,Aleman,18.0,4.0,1.0,no,no,no,nada,,,,nada,74.0,yes
161,2024-01-16_09h55.46.063,Unsyncopated_study2,s89,21.0,feminino,right,España,CatalanCastellano,Upper secondary,no,no,A,2,conjunction_syn,L1,syncopated,s2,r1,33,Online_conjL1_syn//a.pu.ki25.666.1554.wav,cho,la,ro,pu,sil,ze,ne,ki,sil1,ri,sil2,['catch'],[2.0213000000119337],[2.0213000000119337],1.554,no_beat,0.4673000000119336,0.4673000000119336,"[""space""]",ki,2,,,,,,,,,,,,,,,3.0,3.0,Catalan,0.0,Castellano,0.0,Ingles,5.0,Aleman,18.0,4.0,1.0,no,no,no,nada,,,,nada,74.0,yes
162,2024-01-16_09h55.46.063,Unsyncopated_study2,s89,21.0,feminino,right,España,CatalanCastellano,Upper secondary,no,no,A,2,conjunction_syn,L1,syncopated,s1,r2,34,Online_conjL1_syn//a.pu.ki26.none.none.wav,ta,zu,lu,be,sil,ro,la,ri,sil1,fa,sil2,['-'],,,none,none,,,,ki,2,,,,,,,,,,,,,,,3.0,3.0,Catalan,0.0,Castellano,0.0,Ingles,5.0,Aleman,18.0,4.0,1.0,no,no,no,nada,,,,nada,74.0,yes
163,2024-01-16_09h55.46.063,Unsyncopated_study2,s89,21.0,feminino,right,España,CatalanCastellano,Upper secondary,no,no,A,2,conjunction_syn,L1,syncopated,s1,r2,35,Online_conjL1_syn//a.pu.ki24.none.none.wav,ta,ne,la,be,sil,ri,fa,ze,sil1,zu,sil2,['-'],,,none,none,,,,ki,2,,,,,,,,,,,,,,,3.0,3.0,Catalan,0.0,Castellano,0.0,Ingles,5.0,Aleman,18.0,4.0,1.0,no,no,no,nada,,,,nada,74.0,yes
164,2024-01-16_09h55.46.063,Unsyncopated_study2,s89,21.0,feminino,right,España,CatalanCastellano,Upper secondary,no,no,A,2,conjunction_syn,L1,syncopated,s2,r1,36,Online_conjL1_syn//d.ne.ni23.0.444.wav,ne,fo,ni,pu,sil,ri,fa,ki,sil1,lu,sil2,['catch'],[0.6266000000239274],[0.6266000000239274],0.0,beat,0.6266000000239274,0.6266000000239274,"[""space""]",ne,4,,,,,,,,,,,,,,,3.0,3.0,Catalan,0.0,Castellano,0.0,Ingles,5.0,Aleman,18.0,4.0,1.0,no,no,no,nada,,,,nada,74.0,yes
165,2024-01-16_09h55.46.063,Unsyncopated_study2,s89,21.0,feminino,right,España,CatalanCastellano,Upper secondary,no,no,A,2,conjunction_syn,L1,syncopated,s2,r2,37,Online_conjL1_syn//d.ne.ni20.none.none.wav,ze,lu,ro,ta,sil,fa,ri,be,sil1,cho,sil2,['-'],,,none,none,,,,ne,4,,,,,,,,,,,,,,,3.0,3.0,Catalan,0.0,Castellano,0.0,Ingles,5.0,Aleman,18.0,4.0,1.0,no,no,no,nada,,,,nada,74.0,yes
166,2024-01-16_09h55.46.063,Unsyncopated_study2,s89,21.0,feminino,right,España,CatalanCastellano,Upper secondary,no,no,A,2,conjunction_syn,L1,syncopated,s2,r2,38,Online_conjL1_syn//d.ne.ni22.1110.0.wav,ni,ze,lu,ta,sil,ne,cho,be,sil1,zu,sil2,['catch'],[1.9724000000358046],[1.9724000000358046],1.11,no_beat,0.8624000000358045,0.8624000000358045,"[""space""]",ne,4,,,,,,,,,,,,,,,3.0,3.0,Catalan,0.0,Castellano,0.0,Ingles,5.0,Aleman,18.0,4.0,1.0,no,no,no,nada,,,,nada,74.0,yes
167,2024-01-16_09h55.46.063,Unsyncopated_study2,s89,21.0,feminino,right,España,CatalanCastellano,Upper secondary,no,no,A,2,conjunction_syn,L1,syncopated,s1,r1,39,Online_conjL1_syn//d.ne.ni21.none.none.wav,pu,lu,fo,ki,sil,ze,cho,ro,sil1,zu,sil2,['-'],,,none,none,,,,ne,4,,,,,,,,,,,,,,,3.0,3.0,Catalan,0.0,Castellano,0.0,Ingles,5.0,Aleman,18.0,4.0,1.0,no,no,no,nada,,,,nada,74.0,yes
168,2024-01-16_09h55.46.063,Unsyncopated_study2,s89,21.0,feminino,right,España,CatalanCastellano,Upper secondary,no,no,A,2,conjunction_syn,L1,syncopated,s1,r2,40,Online_conjL1_syn//a.pu.ki4.none.none.wav,ta,ze,ri,be,sil,zu,fo,ne,sil1,lu,sil2,['-'],,,none,none,,,,ki,2,,,,,,,,,,,,,,,3.0,3.0,Catalan,0.0,Castellano,0.0,Ingles,5.0,Aleman,18.0,4.0,1.0,no,no,no,nada,,,,nada,74.0,yes
169,2024-01-16_09h55.46.063,Unsyncopated_study2,s89,21.0,feminino,right,España,CatalanCastellano,Upper secondary,no,no,A,2,conjunction_syn,L1,syncopated,s1,r1,41,Online_conjL1_syn//a.pu.ki7.0.666.wav,pu,ri,zu,ki,sil,ne,ze,cho,sil1,la,sil2,['catch'],[1.0719000000358392],[1.0719000000358392],0.666,no_beat,0.4059000000358391,0.4059000000358391,"[""space""]",ki,2,,,,,,,,,,,,,,,3.0,3.0,Catalan,0.0,Castellano,0.0,Ingles,5.0,Aleman,18.0,4.0,1.0,no,no,no,nada,,,,nada,74.0,yes
170,2024-01-16_09h55.46.063,Unsyncopated_study2,s89,21.0,feminino,right,España,CatalanCastellano,Upper secondary,no,no,A,2,conjunction_syn,L1,syncopated,s2,r2,42,Online_conjL1_syn//a.pu.ki6.none.none.wav,ne,ni,la,ta,sil,zu,cho,be,sil1,ze,sil2,['-'],,,none,none,,,,ki,2,,,,,,,,,,,,,,,3.0,3.0,Catalan,0.0,Castellano,0.0,Ingles,5.0,Aleman,18.0,4.0,1.0,no,no,no,nada,,,,nada,74.0,yes
171,2024-01-16_09h55.46.063,Unsyncopated_study2,s89,21.0,feminino,right,España,CatalanCastellano,Upper secondary,no,no,A,2,conjunction_syn,L1,syncopated,s1,r1,43,Online_conjL1_syn//a.pu.ki5.0.666.wav,pu,ne,ro,ki,sil,cho,ri,fa,sil1,lu,sil2,['catch'],[1.0474999999999],[1.0474999999999],0.666,no_beat,0.3814999999998999,0.3814999999998999,"[""space""]",ki,2,,,,,,,,,,,,,,,3.0,3.0,Catalan,0.0,Castellano,0.0,Ingles,5.0,Aleman,18.0,4.0,1.0,no,no,no,nada,,,,nada,74.0,yes
172,2024-01-16_09h55.46.063,Unsyncopated_study2,s89,21.0,feminino,right,España,CatalanCastellano,Upper secondary,no,no,A,2,conjunction_syn,L1,syncopated,s1,r2,44,Online_conjL1_syn//d.ne.ni2.222.1332.wav,ta,ne,lu,be,sil,ri,ni,cho,sil1,ze,sil2,['catch'],[0.9249999999999545],[0.9249999999999545],0.222,no_beat,0.7029999999999546,0.7029999999999546,"[""space""]",ne,4,,,,,,,,,,,,,,,3.0,3.0,Catalan,0.0,Castellano,0.0,Ingles,5.0,Aleman,18.0,4.0,1.0,no,no,no,nada,,,,nada,74.0,yes
173,2024-01-16_09h55.46.063,Unsyncopated_study2,s89,21.0,feminino,right,España,CatalanCastellano,Upper secondary,no,no,A,2,conjunction_syn,L1,syncopated,s1,r1,45,Online_conjL1_syn//d.ne.ni1.222.1110.wav,pu,ne,ri,ki,sil,ni,la,ze,sil1,lu,sil2,['catch'],[2.436999999999898],[2.436999999999898],0.222,no_beat,,2.214999999999898,"[""space""]",ne,4,,,,,,,,,,,,,,,3.0,3.0,Catalan,0.0,Castellano,0.0,Ingles,5.0,Aleman,18.0,4.0,1.0,no,no,no,nada,,,,nada,74.0,yes
174,2024-01-16_09h55.46.063,Unsyncopated_study2,s89,21.0,feminino,right,España,CatalanCastellano,Upper secondary,no,no,A,2,conjunction_syn,L1,syncopated,s2,r1,46,Online_conjL1_syn//d.ne.ni0.none.none.wav,lu,ze,zu,pu,sil,ro,ri,ki,sil1,la,sil2,['-'],,,none,none,,,,ne,4,,,,,,,,,,,,,,,3.0,3.0,Catalan,0.0,Castellano,0.0,Ingles,5.0,Aleman,18.0,4.0,1.0,no,no,no,nada,,,,nada,74.0,yes
175,2024-01-16_09h55.46.063,Unsyncopated_study2,s89,21.0,feminino,right,España,CatalanCastellano,Upper secondary,no,no,A,2,conjunction_syn,L1,syncopated,s1,r1,47,Online_conjL1_syn//d.ne.ni3.none.none.wav,pu,fo,la,ki,sil,ro,lu,ri,sil1,cho,sil2,['-'],,,none,none,,,,ne,4,,,,,,,,,,,,,,,3.0,3.0,Catalan,0.0,Castellano,0.0,Ingles,5.0,Aleman,18.0,4.0,1.0,no,no,no,nada,,,,nada,74.0,yes
176,2024-01-16_09h55.46.063,Unsyncopated_study2,s89,21.0,feminino,right,España,CatalanCastellano,Upper secondary,no,no,A,2,conjunction_syn,L1,syncopated,s2,r2,48,Online_conjL1_syn//b.ta.be1.666.1554.wav,ni,la,lu,ta,sil,cho,ro,be,sil1,ne,sil2,['miss'],,,0.666,no_beat,,,,ta,1,,,,,,,,,,,,,,,3.0,3.0,Catalan,0.0,Castellano,0.0,Ingles,5.0,Aleman,18.0,4.0,1.0,no,no,no,nada,,,,nada,74.0,yes
177,2024-01-16_09h55.46.063,Unsyncopated_study2,s89,21.0,feminino,right,España,CatalanCastellano,Upper secondary,no,no,A,2,conjunction_syn,L1,syncopated,s2,r2,49,Online_conjL1_syn//b.ta.be0.666.1554.wav,cho,fa,fo,ta,sil,zu,la,be,sil1,ne,sil2,['catch'],[1.4723000000119555],[1.4723000000119555],0.666,no_beat,0.8063000000119555,0.8063000000119555,"[""space""]",ta,1,,,,,,,,,,,,,,,3.0,3.0,Catalan,0.0,Castellano,0.0,Ingles,5.0,Aleman,18.0,4.0,1.0,no,no,no,nada,,,,nada,74.0,yes
178,2024-01-16_09h55.46.063,Unsyncopated_study2,s89,21.0,feminino,right,España,CatalanCastellano,Upper secondary,no,no,A,2,conjunction_syn,L1,syncopated,s2,r2,50,Online_conjL1_syn//b.ta.be3.666.1554.wav,lu,ro,zu,ta,sil,ne,fo,be,sil1,ni,sil2,['miss'],,,0.666,no_beat,,,,ta,1,,,,,,,,,,,,,,,3.0,3.0,Catalan,0.0,Castellano,0.0,Ingles,5.0,Aleman,18.0,4.0,1.0,no,no,no,nada,,,,nada,74.0,yes
179,2024-01-16_09h55.46.063,Unsyncopated_study2,s89,21.0,feminino,right,España,CatalanCastellano,Upper secondary,no,no,A,2,conjunction_syn,L1,syncopated,s2,r1,51,Online_conjL1_syn//b.ta.be2.none.none.wav,ri,ne,fo,pu,sil,zu,la,ki,sil1,lu,sil2,['-'],,,none,none,,,,ta,1,,,,,,,,,,,,,,,3.0,3.0,Catalan,0.0,Castellano,0.0,Ingles,5.0,Aleman,18.0,4.0,1.0,no,no,no,nada,,,,nada,74.0,yes
180,2024-01-16_09h55.46.063,Unsyncopated_study2,s89,21.0,feminino,right,España,CatalanCastellano,Upper secondary,no,no,A,2,conjunction_syn,L1,syncopated,s2,r2,52,Online_conjL1_syn//b.ta.be9.666.1554.wav,la,lu,ne,ta,sil,ze,fo,be,sil1,zu,sil2,['catch'],[1.6612000000477565],[1.6612000000477565],0.666,no_beat,0.9952000000477564,0.9952000000477564,"[""space""]",ta,1,,,,,,,,,,,,,,,3.0,3.0,Catalan,0.0,Castellano,0.0,Ingles,5.0,Aleman,18.0,4.0,1.0,no,no,no,nada,,,,nada,74.0,yes
181,2024-01-16_09h55.46.063,Unsyncopated_study2,s89,21.0,feminino,right,España,CatalanCastellano,Upper secondary,no,no,A,2,conjunction_syn,L1,syncopated,s1,r2,53,Online_conjL1_syn//b.ta.be8.0.666.wav,ta,la,zu,be,sil,ro,cho,ze,sil1,lu,sil2,['catch'],[0.6371000000237927],[0.6371000000237927],0.0,beat,0.6371000000237927,0.6371000000237927,"[""space""]",ta,1,,,,,,,,,,,,,,,3.0,3.0,Catalan,0.0,Castellano,0.0,Ingles,5.0,Aleman,18.0,4.0,1.0,no,no,no,nada,,,,nada,74.0,yes
182,2024-01-16_09h55.46.063,Unsyncopated_study2,s89,21.0,feminino,right,España,CatalanCastellano,Upper secondary,no,no,A,2,conjunction_syn,L1,syncopated,s1,r2,54,Online_conjL1_syn//b.ta.be10.0.666.wav,ta,cho,ri,be,sil,ni,zu,ze,sil1,ne,sil2,['catch'],[0.6378999999760708],[0.6378999999760708],0.0,beat,0.6378999999760708,0.6378999999760708,"[""space""]",ta,1,,,,,,,,,,,,,,,3.0,3.0,Catalan,0.0,Castellano,0.0,Ingles,5.0,Aleman,18.0,4.0,1.0,no,no,no,nada,,,,nada,74.0,yes
183,2024-01-16_09h55.46.063,Unsyncopated_study2,s89,21.0,feminino,right,España,CatalanCastellano,Upper secondary,no,no,A,2,conjunction_syn,L1,syncopated,s1,r2,55,Online_conjL1_syn//b.ta.be11.0.666.wav,ta,zu,lu,be,sil,ni,ro,cho,sil1,fo,sil2,['catch'],[0.46389999997609266],[0.46389999997609266],0.0,beat,0.4638999999760926,0.4638999999760926,"[""space""]",ta,1,,,,,,,,,,,,,,,3.0,3.0,Catalan,0.0,Castellano,0.0,Ingles,5.0,Aleman,18.0,4.0,1.0,no,no,no,nada,,,,nada,74.0,yes
184,2024-01-16_09h55.46.063,Unsyncopated_study2,s89,21.0,feminino,right,España,CatalanCastellano,Upper secondary,no,no,A,2,conjunction_syn,L1,syncopated,s1,r2,56,Online_conjL1_syn//b.ta.be25.0.666.wav,ta,ri,ze,be,sil,ni,cho,lu,sil1,ne,sil2,['catch'],[0.39589999997610903],[0.39589999997610903],0.0,beat,0.395899999976109,0.395899999976109,"[""space""]",ta,1,,,,,,,,,,,,,,,3.0,3.0,Catalan,0.0,Castellano,0.0,Ingles,5.0,Aleman,18.0,4.0,1.0,no,no,no,nada,,,,nada,74.0,yes
185,2024-01-16_09h55.46.063,Unsyncopated_study2,s89,21.0,feminino,right,España,CatalanCastellano,Upper secondary,no,no,A,2,conjunction_syn,L1,syncopated,s2,r2,57,Online_conjL1_syn//b.ta.be24.666.1554.wav,fo,ni,ro,ta,sil,ri,cho,be,sil1,ne,sil2,['catch'],[1.0630999999641517],[1.0630999999641517],0.666,no_beat,0.3970999999641517,0.3970999999641517,"[""space""]",ta,1,,,,,,,,,,,,,,,3.0,3.0,Catalan,0.0,Castellano,0.0,Ingles,5.0,Aleman,18.0,4.0,1.0,no,no,no,nada,,,,nada,74.0,yes
186,2024-01-16_09h55.46.063,Unsyncopated_study2,s89,21.0,feminino,right,España,CatalanCastellano,Upper secondary,no,no,A,2,conjunction_syn,L1,syncopated,s2,r2,58,Online_conjL1_syn//b.ta.be26.666.1554.wav,cho,lu,la,ta,sil,fo,ro,be,sil1,zu,sil2,['catch'],[1.1224000000356682],[1.1224000000356682],0.666,no_beat,0.4564000000356681,0.4564000000356681,"[""space""]",ta,1,,,,,,,,,,,,,,,3.0,3.0,Catalan,0.0,Castellano,0.0,Ingles,5.0,Aleman,18.0,4.0,1.0,no,no,no,nada,,,,nada,74.0,yes
187,2024-01-16_09h55.46.063,Unsyncopated_study2,s89,21.0,feminino,right,España,CatalanCastellano,Upper secondary,no,no,A,2,conjunction_syn,L1,syncopated,s1,r1,59,Online_conjL1_syn//b.ta.be27.none.none.wav,pu,ze,lu,ki,sil,ro,fo,ni,sil1,ri,sil2,['-'],,,none,none,,,,ta,1,,,,,,,,,,,,,,,3.0,3.0,Catalan,0.0,Castellano,0.0,Ingles,5.0,Aleman,18.0,4.0,1.0,no,no,no,nada,,,,nada,74.0,yes
188,2024-01-16_09h55.46.063,Unsyncopated_study2,s89,21.0,feminino,right,España,CatalanCastellano,Upper secondary,no,no,A,2,conjunction_syn,L1,syncopated,s1,r2,60,Online_conjL1_syn//a.pu.ki19.none.none.wav,ta,fa,lu,be,sil,ne,fo,ri,sil1,ze,sil2,['false alarm'],[1.0628999999762527],[1.0628999999762527],none,none,,,"[""space""]",ki,2,,,,,,,,,,,,,,,3.0,3.0,Catalan,0.0,Castellano,0.0,Ingles,5.0,Aleman,18.0,4.0,1.0,no,no,no,nada,,,,nada,74.0,yes
189,2024-01-16_09h55.46.063,Unsyncopated_study2,s89,21.0,feminino,right,España,CatalanCastellano,Upper secondary,no,no,A,2,conjunction_syn,L1,syncopated,s2,r1,61,Online_conjL1_syn//a.pu.ki18.666.1554.wav,lu,ni,ri,pu,sil,ro,fo,ki,sil1,cho,sil2,['catch'],[2.0368999999761854],[2.0368999999761854],1.554,no_beat,0.4828999999761854,0.4828999999761854,"[""space""]",ki,2,,,,,,,,,,,,,,,3.0,3.0,Catalan,0.0,Castellano,0.0,Ingles,5.0,Aleman,18.0,4.0,1.0,no,no,no,nada,,,,nada,74.0,yes
190,2024-01-16_09h55.46.063,Unsyncopated_study2,s89,21.0,feminino,right,España,CatalanCastellano,Upper secondary,no,no,A,2,conjunction_syn,L1,syncopated,s2,r2,62,Online_conjL1_syn//a.pu.ki17.none.none.wav,lu,fa,zu,ta,sil,la,ze,be,sil1,cho,sil2,['-'],,,none,none,,,,ki,2,,,,,,,,,,,,,,,3.0,3.0,Catalan,0.0,Castellano,0.0,Ingles,5.0,Aleman,18.0,4.0,1.0,no,no,no,nada,,,,nada,74.0,yes
191,2024-01-16_09h55.46.063,Unsyncopated_study2,s89,21.0,feminino,right,España,CatalanCastellano,Upper secondary,no,no,A,2,conjunction_syn,L1,syncopated,s2,r2,63,Online_conjL1_syn//a.pu.ki16.none.none.wav,la,ze,fo,ta,sil,zu,lu,be,sil1,ne,sil2,['-'],,,none,none,,,,ki,2,,,,,,,,,,,,,,,3.0,3.0,Catalan,0.0,Castellano,0.0,Ingles,5.0,Aleman,18.0,4.0,1.0,no,no,no,nada,,,,nada,74.0,yes
192,2024-01-16_09h55.46.063,Unsyncopated_study2,s89,21.0,feminino,right,España,CatalanCastellano,Upper secondary,no,no,A,2,conjunction_syn,L1,syncopated,s2,r1,64,Online_conjL1_syn//c.ro.fo11.none.none.wav,ze,zu,ni,pu,sil,la,cho,ki,sil1,ne,sil2,['-'],,,none,none,,,,ro,3,,,,,,,,,,,,,,,3.0,3.0,Catalan,0.0,Castellano,0.0,Ingles,5.0,Aleman,18.0,4.0,1.0,no,no,no,nada,,,,nada,74.0,yes
193,2024-01-16_09h55.46.063,Unsyncopated_study2,s89,21.0,feminino,right,España,CatalanCastellano,Upper secondary,no,no,A,2,conjunction_syn,L1,syncopated,s1,r2,65,Online_conjL1_syn//c.ro.fo8.444.1332.wav,ta,lu,ro,be,sil,ni,fo,zu,sil1,fa,sil2,['catch'],[1.1076000000236945],[1.1076000000236945],0.444,no_beat,0.6636000000236946,0.6636000000236946,"[""space""]",ro,3,,,,,,,,,,,,,,,3.0,3.0,Catalan,0.0,Castellano,0.0,Ingles,5.0,Aleman,18.0,4.0,1.0,no,no,no,nada,,,,nada,74.0,yes
194,2024-01-16_09h55.46.063,Unsyncopated_study2,s89,21.0,feminino,right,España,CatalanCastellano,Upper secondary,no,no,A,2,conjunction_syn,L1,syncopated,s1,r1,66,Online_conjL1_syn//c.ro.fo9.1554.1110.wav,pu,ni,lu,ki,sil,fo,fa,ro,sil1,ne,sil2,['catch'],[2.0548000000119373],[2.0548000000119373],1.554,no_beat,0.5008000000119373,0.5008000000119373,"[""space""]",ro,3,,,,,,,,,,,,,,,3.0,3.0,Catalan,0.0,Castellano,0.0,Ingles,5.0,Aleman,18.0,4.0,1.0,no,no,no,nada,,,,nada,74.0,yes
195,2024-01-16_09h55.46.063,Unsyncopated_study2,s89,21.0,feminino,right,España,CatalanCastellano,Upper secondary,no,no,A,2,conjunction_syn,L1,syncopated,s2,r2,67,Online_conjL1_syn//c.ro.fo10.222.444.wav,zu,ro,fo,ta,sil,ni,cho,be,sil1,ze,sil2,['miss'],,,0.222,no_beat,,,,ro,3,,,,,,,,,,,,,,,3.0,3.0,Catalan,0.0,Castellano,0.0,Ingles,5.0,Aleman,18.0,4.0,1.0,no,no,no,nada,,,,nada,74.0,yes
196,2024-01-16_09h55.46.063,Unsyncopated_study2,s89,21.0,feminino,right,España,CatalanCastellano,Upper secondary,no,no,A,2,conjunction_syn,L1,syncopated,s2,r2,68,Online_conjL1_syn//c.ro.fo31.none.none.wav,ri,fa,la,ta,sil,lu,ne,be,sil1,zu,sil2,['-'],,,none,none,,,,ro,3,,,,,,,,,,,,,,,3.0,3.0,Catalan,0.0,Castellano,0.0,Ingles,5.0,Aleman,18.0,4.0,1.0,no,no,no,nada,,,,nada,74.0,yes
197,2024-01-16_09h55.46.063,Unsyncopated_study2,s89,21.0,feminino,right,España,CatalanCastellano,Upper secondary,no,no,A,2,conjunction_syn,L1,syncopated,s1,r2,69,Online_conjL1_syn//c.ro.fo29.none.none.wav,ta,zu,ri,be,sil,la,ni,fa,sil1,lu,sil2,['-'],,,none,none,,,,ro,3,,,,,,,,,,,,,,,3.0,3.0,Catalan,0.0,Castellano,0.0,Ingles,5.0,Aleman,18.0,4.0,1.0,no,no,no,nada,,,,nada,74.0,yes
198,2024-01-16_09h55.46.063,Unsyncopated_study2,s89,21.0,feminino,right,España,CatalanCastellano,Upper secondary,no,no,A,2,conjunction_syn,L1,syncopated,s2,r2,70,Online_conjL1_syn//c.ro.fo30.1110.0.wav,fo,ze,fa,ta,sil,ro,ri,be,sil1,ni,sil2,['catch'],[2.254300000011881],[2.254300000011881],1.11,no_beat,1.1443000000118808,1.1443000000118808,"[""space""]",ro,3,,,,,,,,,,,,,,,3.0,3.0,Catalan,0.0,Castellano,0.0,Ingles,5.0,Aleman,18.0,4.0,1.0,no,no,no,nada,,,,nada,74.0,yes
199,2024-01-16_09h55.46.063,Unsyncopated_study2,s89,21.0,feminino,right,España,CatalanCastellano,Upper secondary,no,no,A,2,conjunction_syn,L1,syncopated,s1,r1,71,Online_conjL1_syn//c.ro.fo28.none.none.wav,pu,ni,lu,ki,sil,ne,la,ze,sil1,fa,sil2,['-'],,,none,none,,,,ro,3,,,,,,,,,,,,,,,3.0,3.0,Catalan,0.0,Castellano,0.0,Ingles,5.0,Aleman,18.0,4.0,1.0,no,no,no,nada,,,,nada,74.0,yes
200,2024-01-16_09h55.46.063,Unsyncopated_study2,s89,21.0,feminino,right,España,CatalanCastellano,Upper secondary,no,no,A,2,conjunction_syn,L1,syncopated,s2,r1,72,Online_conjL1_syn//a.pu.ki20.666.1554.wav,ro,lu,ni,pu,sil,la,fo,ki,sil1,cho,sil2,['catch'],[1.9104999999999563],[1.9104999999999563],1.554,no_beat,0.3564999999999563,0.3564999999999563,"[""space""]",ki,2,,,,,,,,,,,,,,,3.0,3.0,Catalan,0.0,Castellano,0.0,Ingles,5.0,Aleman,18.0,4.0,1.0,no,no,no,nada,,,,nada,74.0,yes
201,2024-01-16_09h55.46.063,Unsyncopated_study2,s89,21.0,feminino,right,España,CatalanCastellano,Upper secondary,no,no,A,2,conjunction_syn,L1,syncopated,s2,r2,73,Online_conjL1_syn//a.pu.ki21.none.none.wav,ro,fa,ni,ta,sil,ri,la,be,sil1,lu,sil2,['-'],,,none,none,,,,ki,2,,,,,,,,,,,,,,,3.0,3.0,Catalan,0.0,Castellano,0.0,Ingles,5.0,Aleman,18.0,4.0,1.0,no,no,no,nada,,,,nada,74.0,yes
202,2024-01-16_09h55.46.063,Unsyncopated_study2,s89,21.0,feminino,right,España,CatalanCastellano,Upper secondary,no,no,A,2,conjunction_syn,L1,syncopated,s2,r2,74,Online_conjL1_syn//a.pu.ki22.none.none.wav,fo,ri,ni,ta,sil,lu,la,be,sil1,cho,sil2,['-'],,,none,none,,,,ki,2,,,,,,,,,,,,,,,3.0,3.0,Catalan,0.0,Castellano,0.0,Ingles,5.0,Aleman,18.0,4.0,1.0,no,no,no,nada,,,,nada,74.0,yes
203,2024-01-16_09h55.46.063,Unsyncopated_study2,s89,21.0,feminino,right,España,CatalanCastellano,Upper secondary,no,no,A,2,conjunction_syn,L1,syncopated,s2,r1,75,Online_conjL1_syn//a.pu.ki23.666.1554.wav,ni,la,ro,pu,sil,fo,zu,ki,sil1,ze,sil2,['miss'],,,1.554,no_beat,,,,ki,2,,,,,,,,,,,,,,,3.0,3.0,Catalan,0.0,Castellano,0.0,Ingles,5.0,Aleman,18.0,4.0,1.0,no,no,no,nada,,,,nada,74.0,yes
204,2024-01-16_09h55.46.063,Unsyncopated_study2,s89,21.0,feminino,right,España,CatalanCastellano,Upper secondary,no,no,A,2,conjunction_syn,L1,syncopated,s1,r2,76,Online_conjL1_syn//d.ne.ni25.222.1110.wav,ta,ne,ze,be,sil,ni,cho,la,sil1,lu,sil2,['catch'],[1.0106999999879918],[1.0106999999879918],0.222,no_beat,0.7886999999879918,0.7886999999879918,"[""space""]",ne,4,,,,,,,,,,,,,,,3.0,3.0,Catalan,0.0,Castellano,0.0,Ingles,5.0,Aleman,18.0,4.0,1.0,no,no,no,nada,,,,nada,74.0,yes
205,2024-01-16_09h55.46.063,Unsyncopated_study2,s89,21.0,feminino,right,España,CatalanCastellano,Upper secondary,no,no,A,2,conjunction_syn,L1,syncopated,s2,r2,77,Online_conjL1_syn//d.ne.ni24.none.none.wav,lu,ro,la,ta,sil,fa,fo,be,sil1,zu,sil2,['-'],,,none,none,,,,ne,4,,,,,,,,,,,,,,,3.0,3.0,Catalan,0.0,Castellano,0.0,Ingles,5.0,Aleman,18.0,4.0,1.0,no,no,no,nada,,,,nada,74.0,yes
206,2024-01-16_09h55.46.063,Unsyncopated_study2,s89,21.0,feminino,right,España,CatalanCastellano,Upper secondary,no,no,A,2,conjunction_syn,L1,syncopated,s1,r2,78,Online_conjL1_syn//d.ne.ni27.none.none.wav,ta,la,fo,be,sil,zu,cho,ze,sil1,ri,sil2,['-'],,,none,none,,,,ne,4,,,,,,,,,,,,,,,3.0,3.0,Catalan,0.0,Castellano,0.0,Ingles,5.0,Aleman,18.0,4.0,1.0,no,no,no,nada,,,,nada,74.0,yes
207,2024-01-16_09h55.46.063,Unsyncopated_study2,s89,21.0,feminino,right,España,CatalanCastellano,Upper secondary,no,no,A,2,conjunction_syn,L1,syncopated,s2,r1,79,Online_conjL1_syn//d.ne.ni26.none.none.wav,ze,zu,fa,pu,sil,cho,lu,ki,sil1,fo,sil2,['-'],,,none,none,,,,ne,4,,,,,,,,,,,,,,,3.0,3.0,Catalan,0.0,Castellano,0.0,Ingles,5.0,Aleman,18.0,4.0,1.0,no,no,no,nada,,,,nada,74.0,yes
208,2024-01-16_09h55.46.063,Unsyncopated_study2,s89,21.0,feminino,right,España,CatalanCastellano,Upper secondary,no,no,A,2,conjunction_syn,L1,syncopated,s2,r2,80,Online_conjL1_syn//c.ro.fo14.none.none.wav,fa,zu,ri,ta,sil,la,ni,be,sil1,ne,sil2,['false alarm'],[0.04810000002385095],[0.04810000002385095],none,none,,,"[""space""]",ro,3,,,,,,,,,,,,,,,3.0,3.0,Catalan,0.0,Castellano,0.0,Ingles,5.0,Aleman,18.0,4.0,1.0,no,no,no,nada,,,,nada,74.0,yes
209,2024-01-16_09h55.46.063,Unsyncopated_study2,s89,21.0,feminino,right,España,CatalanCastellano,Upper secondary,no,no,A,2,conjunction_syn,L1,syncopated,s1,r1,81,Online_conjL1_syn//c.ro.fo13.1554.222.wav,pu,fo,fa,ki,sil,ni,cho,ro,sil1,ze,sil2,['catch'],[2.0361999999881846],[2.0361999999881846],1.554,no_beat,0.4821999999881845,0.4821999999881845,"[""space""]",ro,3,,,,,,,,,,,,,,,3.0,3.0,Catalan,0.0,Castellano,0.0,Ingles,5.0,Aleman,18.0,4.0,1.0,no,no,no,nada,,,,nada,74.0,yes
210,2024-01-16_09h55.46.063,Unsyncopated_study2,s89,21.0,feminino,right,España,CatalanCastellano,Upper secondary,no,no,A,2,conjunction_syn,L1,syncopated,s2,r2,82,Online_conjL1_syn//c.ro.fo12.1332.444.wav,fa,zu,fo,ta,sil,cho,ro,be,sil1,ne,sil2,['catch'],[1.9134000000356082],[1.9134000000356082],1.332,no_beat,0.5814000000356081,0.5814000000356081,"[""space""]",ro,3,,,,,,,,,,,,,,,3.0,3.0,Catalan,0.0,Castellano,0.0,Ingles,5.0,Aleman,18.0,4.0,1.0,no,no,no,nada,,,,nada,74.0,yes
211,2024-01-16_09h55.46.063,Unsyncopated_study2,s89,21.0,feminino,right,España,CatalanCastellano,Upper secondary,no,no,A,2,conjunction_syn,L1,syncopated,s1,r1,83,Online_conjL1_syn//c.ro.fo15.none.none.wav,pu,ri,ze,ki,sil,lu,ne,la,sil1,cho,sil2,['-'],,,none,none,,,,ro,3,,,,,,,,,,,,,,,3.0,3.0,Catalan,0.0,Castellano,0.0,Ingles,5.0,Aleman,18.0,4.0,1.0,no,no,no,nada,,,,nada,74.0,yes
212,2024-01-16_09h55.46.063,Unsyncopated_study2,s89,21.0,feminino,right,España,CatalanCastellano,Upper secondary,no,no,A,2,conjunction_syn,L1,syncopated,s2,r1,84,Online_conjL1_syn//a.pu.ki28.666.1554.wav,cho,ro,fo,pu,sil,ze,ni,ki,sil1,zu,sil2,"['false alarm', 'catch']","[0.6953000000119118, 2.1644999999998618]",[2.1644999999998618],1.554,no_beat,0.6104999999998617,0.6104999999998617,"[""space"",""space""]",ki,2,,,,,,,,,,,,,,,3.0,3.0,Catalan,0.0,Castellano,0.0,Ingles,5.0,Aleman,18.0,4.0,1.0,no,no,no,nada,,,,nada,74.0,yes
