Unnamed: 0,date,expName,participant,age,sex,hand,residence,native_lang,education_level,lang_deficit,aud_deficit,group,block,condition,language,rhythm,rule structure online,rule type online,order_trial_on,trial_online,s1,s2,s3,s4,s5,s6,s7,s8,s9,s10,s11,catch_syll_resp,rts_syll_catch,clean_rts,time_syll,beat_no_beat,catch_rtsTR,catch_rts,syllable_catch.keys,cond_syll,syll_to_catch,test_offline,block_off,condition_off,rhythm_off,rule,rule_str_off,rule_norule,conds_offline,language_off,Partz_no_partm.keys,Partz_no_partm.rt,security_1_7.keys,accuracy,security_1_7.rt,n_lang,n_lang_used,lang_1,age_l1,lang_2,age_l2,ability_learn_l2,tendence_mix_lan,music_experience,muisc_use,partiture,instr_1,age_M1,preguntas_musica1,BMRQ_answer.response,final comment,BMRQ_Score,bilingual
0,2024-02-07_13h41.04.986,Unsyncopated_study2,s110,25.0,feminino,right,ESPAÑA,Español,Bachelor degree,no,no,B,1,when,L4,unsyncopated,when,when,0,Online_whenL4//d.pe11.none.wav,re,da,zi,sil,bu,lo,ña,sil1,ci,po,sil2,['-'],,,none,none,,,,pe,4,testWhenL4Uns//cat_viol.r1.s1.0.wav,1.0,when,unsyncopated,a,s1,no_rule,cat,L4,m,6.0636,6.0,0.0,1.8174,2.0,1.0,Español,0.0,Inglés,10.0,4.0,3.0,no,no,yes,Nada,,1. Cuando comparto música con alguien siento una complicidad especial con aquella persona.,3.0,Nada,68.0,yes
1,2024-02-07_13h41.04.986,Unsyncopated_study2,s110,25.0,feminino,right,ESPAÑA,Español,Bachelor degree,no,no,B,1,when,L4,unsyncopated,when,when,1,Online_whenL4//d.pe8.1998.wav,bo,ru,ña,sil,nu,ñi,ja,sil1,po,pe,sil2,['catch'],[2.5756999999991876],[2.5756999999991876],1.998,no_beat,0.5776999999991876,0.5776999999991876,"[""space""]",pe,4,testWhenL4Uns//time_viol.r2.s1.0.wav,1.0,when,unsyncopated,b,s1,no_rule,time,L4,z,0.855,5.0,1.0,2.0259,2.0,1.0,Español,0.0,Inglés,10.0,4.0,3.0,no,no,yes,Nada,,2. En mi tiempo libre apenas escucho música.,5.0,Nada,68.0,yes
2,2024-02-07_13h41.04.986,Unsyncopated_study2,s110,25.0,feminino,right,ESPAÑA,Español,Bachelor degree,no,no,B,1,when,L4,unsyncopated,when,when,2,Online_whenL4//d.pe10.888.wav,da,zi,po,sil,pe,lo,ru,sil1,ci,re,sil2,['catch'],[1.760299999999802],[1.760299999999802],0.888,beat,0.8722999999998019,0.8722999999998019,"[""space""]",pe,4,testWhenL4Uns//r1.s1.1.wav,1.0,when,unsyncopated,a,s1,rule,rule,L4,m,1.1911,4.0,0.0,1.4621,2.0,1.0,Español,0.0,Inglés,10.0,4.0,3.0,no,no,yes,Nada,,3. Algunas canciones me ponen los pelos de punta,4.0,Nada,68.0,yes
3,2024-02-07_13h41.04.986,Unsyncopated_study2,s110,25.0,feminino,right,ESPAÑA,Español,Bachelor degree,no,no,B,1,when,L4,unsyncopated,when,when,3,Online_whenL4//d.pe9.none.wav,de,bu,da,sil,zi,ña,nu,sil1,ci,re,sil2,['-'],,,none,none,,,,pe,4,testWhenL4Uns//r1.s2.0.wav,1.0,when,unsyncopated,a,s2,rule,rule,L4,m,0.9107,4.0,0.0,2.0961,2.0,1.0,Español,0.0,Inglés,10.0,4.0,3.0,no,no,yes,Nada,,4. La música me hace compañía cuando estoy solo,4.0,Nada,68.0,yes
4,2024-02-07_13h41.04.986,Unsyncopated_study2,s110,25.0,feminino,right,ESPAÑA,Español,Bachelor degree,no,no,B,1,when,L4,unsyncopated,when,when,4,Online_whenL4//a.lo21.1998.wav,ñi,zi,bu,sil,de,ru,po,sil1,ña,lo,sil2,['catch'],[2.5315999999996848],[2.5315999999996848],1.998,no_beat,0.5335999999996848,0.5335999999996848,"[""space""]",lo,1,testWhenL4Uns//dep_viol.r1.s1.0.wav,1.0,when,unsyncopated,a,s1,no_rule,dep,L4,m,2.4842,3.0,0.0,2.2545,2.0,1.0,Español,0.0,Inglés,10.0,4.0,3.0,no,no,yes,Nada,,5. No me apetece bailar ni con la música que más me gusta,5.0,Nada,68.0,yes
5,2024-02-07_13h41.04.986,Unsyncopated_study2,s110,25.0,feminino,right,ESPAÑA,Español,Bachelor degree,no,no,B,1,when,L4,unsyncopated,when,when,5,Online_whenL4//a.lo23.1332.wav,nu,ña,ci,sil,re,ñi,lo,sil1,pe,bu,sil2,['catch'],[1.9153999999994085],[1.9153999999994085],1.332,no_beat,0.5833999999994084,0.5833999999994084,"[""space""]",lo,1,testWhenL4Uns//time_viol.r1.s2.0.wav,1.0,when,unsyncopated,a,s2,no_rule,time,L4,m,1.2725,3.0,0.0,2.1632,2.0,1.0,Español,0.0,Inglés,10.0,4.0,3.0,no,no,yes,Nada,,6. La música me hace conectar con la gente,3.0,Nada,68.0,yes
6,2024-02-07_13h41.04.986,Unsyncopated_study2,s110,25.0,feminino,right,ESPAÑA,Español,Bachelor degree,no,no,B,1,when,L4,unsyncopated,when,when,6,Online_whenL4//a.lo20.none.wav,re,po,ja,sil,de,ña,nu,sil1,pe,ru,sil2,['-'],,,none,none,,,,lo,1,testWhenL4Uns//cat_viol.r2.s2.0.wav,1.0,when,unsyncopated,b,s2,no_rule,cat,L4,z,1.6734,5.0,1.0,1.5398,2.0,1.0,Español,0.0,Inglés,10.0,4.0,3.0,no,no,yes,Nada,,7. Me informo sobre la música que me gusta.,4.0,Nada,68.0,yes
7,2024-02-07_13h41.04.986,Unsyncopated_study2,s110,25.0,feminino,right,ESPAÑA,Español,Bachelor degree,no,no,B,1,when,L4,unsyncopated,when,when,7,Online_whenL4//a.lo22.444.wav,pe,ña,lo,sil,re,ñi,bo,sil1,ru,ja,sil2,['catch'],[1.0319000000004053],[1.0319000000004053],0.444,no_beat,0.5879000000004053,0.5879000000004053,"[""space""]",lo,1,testWhenL4Uns//cat_viol.r1.s2.0.wav,1.0,when,unsyncopated,a,s2,no_rule,cat,L4,z,1.1211,6.0,1.0,0.9374,2.0,1.0,Español,0.0,Inglés,10.0,4.0,3.0,no,no,yes,Nada,,8.Me emociono escuchando ciertas canciones.,4.0,Nada,68.0,yes
8,2024-02-07_13h41.04.986,Unsyncopated_study2,s110,25.0,feminino,right,ESPAÑA,Español,Bachelor degree,no,no,B,1,when,L4,unsyncopated,when,when,8,Online_whenL4//c.bu30.none.wav,ña,ru,lo,sil,bo,ci,ñi,sil1,nu,po,sil2,['-'],,,none,none,,,,bu,3,testWhenL4Uns//r2.s2.1.wav,1.0,when,unsyncopated,b,s2,rule,rule,L4,z,1.6878,5.0,1.0,1.0406,2.0,1.0,Español,0.0,Inglés,10.0,4.0,3.0,no,no,yes,Nada,,9.La música me tranquiliza y me relaja.,3.0,Nada,68.0,yes
9,2024-02-07_13h41.04.986,Unsyncopated_study2,s110,25.0,feminino,right,ESPAÑA,Español,Bachelor degree,no,no,B,1,when,L4,unsyncopated,when,when,9,Online_whenL4//c.bu31.none.wav,ru,bo,ci,sil,lo,po,pe,sil1,zi,ña,sil2,['-'],,,none,none,,,,bu,3,testWhenL4Uns//dep_viol.r1.s2.0.wav,1.0,when,unsyncopated,a,s2,no_rule,dep,L4,m,1.8413,4.0,0.0,1.0091,2.0,1.0,Español,0.0,Inglés,10.0,4.0,3.0,no,no,yes,Nada,,10.La música me hace bailar,4.0,Nada,68.0,yes
10,2024-02-07_13h41.04.986,Unsyncopated_study2,s110,25.0,feminino,right,ESPAÑA,Español,Bachelor degree,no,no,B,1,when,L4,unsyncopated,when,when,10,Online_whenL4//c.bu28.1998.wav,ñi,re,ru,sil,ja,zi,ña,sil1,pe,bu,sil2,['catch'],[2.548899999999435],[2.548899999999435],1.998,no_beat,0.5508999999994348,0.5508999999994348,"[""space""]",bu,3,testWhenL4Uns//time_viol.r2.s2.0.wav,1.0,when,unsyncopated,b,s2,no_rule,time,L4,m,1.2607,4.0,0.0,0.6737,2.0,1.0,Español,0.0,Inglés,10.0,4.0,3.0,no,no,yes,Nada,,11.Busco novedades musicales continuamente,2.0,Nada,68.0,yes
11,2024-02-07_13h41.04.986,Unsyncopated_study2,s110,25.0,feminino,right,ESPAÑA,Español,Bachelor degree,no,no,B,1,when,L4,unsyncopated,when,when,11,Online_whenL4//c.bu29.none.wav,ja,nu,po,sil,da,re,de,sil1,ru,ci,sil2,['-'],,,none,none,,,,bu,3,testWhenL4Uns//cat_viol.r2.s1.0.wav,1.0,when,unsyncopated,b,s1,no_rule,cat,L4,m,0.8456,3.0,0.0,0.7057,2.0,1.0,Español,0.0,Inglés,10.0,4.0,3.0,no,no,yes,Nada,,12. Puedo llorar cuando escucho algunas melodías que me gustan mucho.,4.0,Nada,68.0,yes
12,2024-02-07_13h41.04.986,Unsyncopated_study2,s110,25.0,feminino,right,ESPAÑA,Español,Bachelor degree,no,no,B,1,when,L4,unsyncopated,when,when,12,Online_whenL4//a.lo12.none.wav,nu,bu,zi,sil,ñi,bo,ci,sil1,ru,ña,sil2,['-'],,,none,none,,,,lo,1,testWhenL4Uns//r2.s2.0.wav,1.0,when,unsyncopated,b,s2,rule,rule,L4,m,0.7931,5.0,0.0,0.875,2.0,1.0,Español,0.0,Inglés,10.0,4.0,3.0,no,no,yes,Nada,,13. Me gusta cantar o tocar un instrumento con más gente,1.0,Nada,68.0,yes
13,2024-02-07_13h41.04.986,Unsyncopated_study2,s110,25.0,feminino,right,ESPAÑA,Español,Bachelor degree,no,no,B,1,when,L4,unsyncopated,when,when,13,Online_whenL4//a.lo15.1776.wav,de,pe,da,sil,ñi,po,re,sil1,lo,ja,sil2,['catch'],[2.1811000000005833],[2.1811000000005833],1.776,beat,0.4051000000005833,0.4051000000005833,"[""space""]",lo,1,testWhenL4Uns//r2.s1.0.wav,1.0,when,unsyncopated,b,s1,rule,rule,L4,m,1.0716,5.0,0.0,0.6569,2.0,1.0,Español,0.0,Inglés,10.0,4.0,3.0,no,no,yes,Nada,,14. La música me ayuda a desconectar.,4.0,Nada,68.0,yes
14,2024-02-07_13h41.04.986,Unsyncopated_study2,s110,25.0,feminino,right,ESPAÑA,Español,Bachelor degree,no,no,B,1,when,L4,unsyncopated,when,when,14,Online_whenL4//a.lo14.none.wav,bu,ru,nu,sil,zi,bo,pe,sil1,da,ñi,sil2,['-'],,,none,none,,,,lo,1,testWhenL4Uns//time_viol.r1.s1.0.wav,1.0,when,unsyncopated,a,s1,no_rule,time,L4,m,0.4674,5.0,0.0,0.3445,2.0,1.0,Español,0.0,Inglés,10.0,4.0,3.0,no,no,yes,Nada,,15. No puedo evitar tararear las canciones que me gustan cuando las escucho.,4.0,Nada,68.0,yes
15,2024-02-07_13h41.04.986,Unsyncopated_study2,s110,25.0,feminino,right,ESPAÑA,Español,Bachelor degree,no,no,B,1,when,L4,unsyncopated,when,when,15,Online_whenL4//a.lo13.1776.wav,re,ña,ru,sil,ci,ja,ñi,sil1,lo,pe,sil2,['catch'],[2.2522999999998774],[2.2522999999998774],1.776,beat,0.4762999999998774,0.4762999999998774,"[""space""]",lo,1,testWhenL4Uns//r1.s1.0.wav,1.0,when,unsyncopated,a,s1,rule,rule,L4,z,0.9367,7.0,1.0,1.5879,2.0,1.0,Español,0.0,Inglés,10.0,4.0,3.0,no,no,yes,Nada,,16. En los conciertos me siento en sintonía con los artistas y el público.,3.0,Nada,68.0,yes
16,2024-02-07_13h41.04.986,Unsyncopated_study2,s110,25.0,feminino,right,ESPAÑA,Español,Bachelor degree,no,no,B,1,when,L4,unsyncopated,when,when,16,Online_whenL4//b.ja34.1776.wav,re,bo,da,sil,zi,bu,ña,sil1,ja,ci,sil2,['miss'],,,1.776,beat,,,,ja,2,testWhenL4Uns//dep_viol.r2.s1.0.wav,1.0,when,unsyncopated,b,s1,no_rule,dep,L4,m,0.5754,3.0,0.0,0.5369,2.0,1.0,Español,0.0,Inglés,10.0,4.0,3.0,no,no,yes,Nada,,17. Me gasto bastante dinero en música y cosas relacionadas con la música.,1.0,Nada,68.0,yes
17,2024-02-07_13h41.04.986,Unsyncopated_study2,s110,25.0,feminino,right,ESPAÑA,Español,Bachelor degree,no,no,B,1,when,L4,unsyncopated,when,when,17,Online_whenL4//b.ja33.none.wav,ci,po,nu,sil,ñi,zi,pe,sil1,re,bu,sil2,['-'],,,none,none,,,,ja,2,testWhenL4Uns//r1.s2.1.wav,1.0,when,unsyncopated,a,s2,rule,rule,L4,m,0.5921,5.0,0.0,0.2395,2.0,1.0,Español,0.0,Inglés,10.0,4.0,3.0,no,no,yes,Nada,,18. Siento escalofríos cuando escucho una melodía que me gusta.,3.0,Nada,68.0,yes
18,2024-02-07_13h41.04.986,Unsyncopated_study2,s110,25.0,feminino,right,ESPAÑA,Español,Bachelor degree,no,no,B,1,when,L4,unsyncopated,when,when,18,Online_whenL4//b.ja32.none.wav,ru,bu,de,sil,ña,lo,nu,sil1,re,ci,sil2,['false alarm'],[1.423799999999801],[1.423799999999801],none,none,,,"[""space""]",ja,2,testWhenL4Uns//dep_viol.r2.s2.0.wav,1.0,when,unsyncopated,b,s2,no_rule,dep,L4,z,1.6452,3.0,1.0,0.9576,2.0,1.0,Español,0.0,Inglés,10.0,4.0,3.0,no,no,yes,Nada,,19. Con la música me puedo desahogar.,3.0,Nada,68.0,yes
19,2024-02-07_13h41.04.986,Unsyncopated_study2,s110,25.0,feminino,right,ESPAÑA,Español,Bachelor degree,no,no,B,1,when,L4,unsyncopated,when,when,19,Online_whenL4//b.ja35.1998.wav,ru,re,da,sil,lo,bo,ña,sil1,po,ja,sil2,['catch'],[2.3950999999996156],[2.3950999999996156],1.998,no_beat,0.3970999999996156,0.3970999999996156,"[""space""]",ja,2,testWhenL4Uns//r2.s1.1.wav,1.0,when,unsyncopated,b,s1,rule,rule,L4,m,2.5965,1.0,0.0,0.9936,2.0,1.0,Español,0.0,Inglés,10.0,4.0,3.0,no,no,yes,Nada,,20. Cuando escucho una melodía que me gusta mucho no puedo evitar mover el cuerpo.,4.0,Nada,68.0,yes
20,2024-02-07_13h41.04.986,Unsyncopated_study2,s110,25.0,feminino,right,ESPAÑA,Español,Bachelor degree,no,no,B,1,when,L4,unsyncopated,when,when,20,Online_whenL4//a.lo24.1776.wav,de,ja,ci,sil,re,ña,po,sil1,lo,bu,sil2,['catch'],[2.259900000000357],[2.259900000000357],1.776,beat,0.483900000000357,0.483900000000357,"[""space""]",lo,1,testWhenL4Uns//r1.s1.2.wav,1.0,when,unsyncopated,a,s1,rule,rule,L4,m,0.3211,6.0,0.0,0.8859,2.0,1.0,Español,0.0,Inglés,10.0,4.0,3.0,no,no,yes,Nada,,,,Nada,68.0,yes
21,2024-02-07_13h41.04.986,Unsyncopated_study2,s110,25.0,feminino,right,ESPAÑA,Español,Bachelor degree,no,no,B,1,when,L4,unsyncopated,when,when,21,Online_whenL4//a.lo27.none.wav,ci,nu,ñi,sil,da,ru,ja,sil1,po,bu,sil2,['-'],,,none,none,,,,lo,1,testWhenL4Uns//r2.s1.2.wav,1.0,when,unsyncopated,b,s1,rule,rule,L4,z,1.5965,6.0,1.0,1.0276,2.0,1.0,Español,0.0,Inglés,10.0,4.0,3.0,no,no,yes,Nada,,,,Nada,68.0,yes
22,2024-02-07_13h41.04.986,Unsyncopated_study2,s110,25.0,feminino,right,ESPAÑA,Español,Bachelor degree,no,no,B,1,when,L4,unsyncopated,when,when,22,Online_whenL4//a.lo26.1998.wav,po,ja,bu,sil,ci,pe,ru,sil1,ñi,lo,sil2,['catch'],[2.5318000000007714],[2.5318000000007714],1.998,no_beat,0.5338000000007714,0.5338000000007714,"[""space""]",lo,1,testWhenL4Uns//r2.s2.2.wav,1.0,when,unsyncopated,b,s2,rule,rule,L4,m,0.6183,4.0,0.0,1.0059,2.0,1.0,Español,0.0,Inglés,10.0,4.0,3.0,no,no,yes,Nada,,,,Nada,68.0,yes
23,2024-02-07_13h41.04.986,Unsyncopated_study2,s110,25.0,feminino,right,ESPAÑA,Español,Bachelor degree,no,no,B,1,when,L4,unsyncopated,when,when,23,Online_whenL4//a.lo25.none.wav,ñi,ja,ru,sil,bo,ci,ña,sil1,de,zi,sil2,['-'],,,none,none,,,,lo,1,testWhenL4Uns//r1.s2.2.wav,1.0,when,unsyncopated,a,s2,rule,rule,L4,m,1.3061,6.0,0.0,0.7568,2.0,1.0,Español,0.0,Inglés,10.0,4.0,3.0,no,no,yes,Nada,,,,Nada,68.0,yes
24,2024-02-07_13h41.04.986,Unsyncopated_study2,s110,25.0,feminino,right,ESPAÑA,Español,Bachelor degree,no,no,B,1,when,L4,unsyncopated,when,when,24,Online_whenL4//c.bu4.none.wav,ru,ña,ja,sil,ñi,de,ci,sil1,po,zi,sil2,['-'],,,none,none,,,,bu,3,testConjL2Uns//cat_viol.r1.s1.0.wav,2.0,conjunction_un,unsyncopated,a,s1,no_rule,cat,L2,z,0.9242,7.0,0.0,1.0396,2.0,1.0,Español,0.0,Inglés,10.0,4.0,3.0,no,no,yes,Nada,,,,Nada,68.0,yes
25,2024-02-07_13h41.04.986,Unsyncopated_study2,s110,25.0,feminino,right,ESPAÑA,Español,Bachelor degree,no,no,B,1,when,L4,unsyncopated,when,when,25,Online_whenL4//c.bu6.none.wav,nu,de,ci,sil,ru,zi,ña,sil1,po,ñi,sil2,['-'],,,none,none,,,,bu,3,testConjL2Uns//cat_viol.r2.s1.0.wav,2.0,conjunction_un,unsyncopated,b,s1,no_rule,cat,L2,m,0.7858,6.0,1.0,0.6593,2.0,1.0,Español,0.0,Inglés,10.0,4.0,3.0,no,no,yes,Nada,,,,Nada,68.0,yes
26,2024-02-07_13h41.04.986,Unsyncopated_study2,s110,25.0,feminino,right,ESPAÑA,Español,Bachelor degree,no,no,B,1,when,L4,unsyncopated,when,when,26,Online_whenL4//c.bu7.none.wav,lo,ci,ja,sil,pe,ñi,da,sil1,re,ru,sil2,['-'],,,none,none,,,,bu,3,testConjL2Uns//time_viol.r1.s1.0.wav,2.0,conjunction_un,unsyncopated,a,s1,no_rule,time,L2,z,0.3849,7.0,0.0,0.3067,2.0,1.0,Español,0.0,Inglés,10.0,4.0,3.0,no,no,yes,Nada,,,,Nada,68.0,yes
27,2024-02-07_13h41.04.986,Unsyncopated_study2,s110,25.0,feminino,right,ESPAÑA,Español,Bachelor degree,no,no,B,1,when,L4,unsyncopated,when,when,27,Online_whenL4//c.bu5.444.wav,ci,ñi,bu,sil,po,nu,ña,sil1,pe,zi,sil2,['catch'],[0.9607999999998356],[0.9607999999998356],0.444,no_beat,0.5167999999998356,0.5167999999998356,"[""space""]",bu,3,testConjL2Uns//r2.s2.0.wav,2.0,conjunction_un,unsyncopated,b,s2,rule,rule,L2,m,1.6545,5.0,0.0,0.3389,2.0,1.0,Español,0.0,Inglés,10.0,4.0,3.0,no,no,yes,Nada,,,,Nada,68.0,yes
28,2024-02-07_13h41.04.986,Unsyncopated_study2,s110,25.0,feminino,right,ESPAÑA,Español,Bachelor degree,no,no,B,1,when,L4,unsyncopated,when,when,28,Online_whenL4//c.bu19.0.wav,bu,de,nu,sil,ja,ru,bo,sil1,ñi,pe,sil2,['miss'],,,0.0,beat,,,,bu,3,testConjL2Uns//r2.s2.1.wav,2.0,conjunction_un,unsyncopated,b,s2,rule,rule,L2,m,0.3199,6.0,0.0,0.3376,2.0,1.0,Español,0.0,Inglés,10.0,4.0,3.0,no,no,yes,Nada,,,,Nada,68.0,yes
29,2024-02-07_13h41.04.986,Unsyncopated_study2,s110,25.0,feminino,right,ESPAÑA,Español,Bachelor degree,no,no,B,1,when,L4,unsyncopated,when,when,29,Online_whenL4//c.bu18.none.wav,da,re,zi,sil,pe,po,lo,sil1,ci,ña,sil2,['-'],,,none,none,,,,bu,3,testConjL2Uns//r2.s1.0.wav,2.0,conjunction_un,unsyncopated,b,s1,rule,rule,L2,m,2.1317,4.0,0.0,0.4079,2.0,1.0,Español,0.0,Inglés,10.0,4.0,3.0,no,no,yes,Nada,,,,Nada,68.0,yes
30,2024-02-07_13h41.04.986,Unsyncopated_study2,s110,25.0,feminino,right,ESPAÑA,Español,Bachelor degree,no,no,B,1,when,L4,unsyncopated,when,when,30,Online_whenL4//c.bu16.0.wav,bu,ñi,pe,sil,ru,zi,bo,sil1,de,lo,sil2,['catch'],[0.7597000000001799],[0.7597000000001799],0.0,beat,0.7597000000001799,0.7597000000001799,"[""space""]",bu,3,testConjL2Uns//r1.s1.0.wav,2.0,conjunction_un,unsyncopated,a,s1,rule,rule,L2,z,2.5084,7.0,1.0,0.5044,2.0,1.0,Español,0.0,Inglés,10.0,4.0,3.0,no,no,yes,Nada,,,,Nada,68.0,yes
31,2024-02-07_13h41.04.986,Unsyncopated_study2,s110,25.0,feminino,right,ESPAÑA,Español,Bachelor degree,no,no,B,1,when,L4,unsyncopated,when,when,31,Online_whenL4//c.bu17.none.wav,bo,zi,de,sil,ña,nu,ci,sil1,ru,po,sil2,['-'],,,none,none,,,,bu,3,testConjL2Uns//r2.s2.2.wav,2.0,conjunction_un,unsyncopated,b,s2,rule,rule,L2,m,0.3394,7.0,0.0,0.6058,2.0,1.0,Español,0.0,Inglés,10.0,4.0,3.0,no,no,yes,Nada,,,,Nada,68.0,yes
32,2024-02-07_13h41.04.986,Unsyncopated_study2,s110,25.0,feminino,right,ESPAÑA,Español,Bachelor degree,no,no,B,1,when,L4,unsyncopated,when,when,32,Online_whenL4//a.lo28.1110.wav,ña,nu,da,sil,ci,lo,po,sil1,re,pe,sil2,['miss'],,,1.11,no_beat,,,,lo,1,testConjL2Uns//dep_viol.r2.s2.0.wav,2.0,conjunction_un,unsyncopated,b,s2,no_rule,dep,L2,z,0.3306,7.0,0.0,0.5869,2.0,1.0,Español,0.0,Inglés,10.0,4.0,3.0,no,no,yes,Nada,,,,Nada,68.0,yes
33,2024-02-07_13h41.04.986,Unsyncopated_study2,s110,25.0,feminino,right,ESPAÑA,Español,Bachelor degree,no,no,B,1,when,L4,unsyncopated,when,when,33,Online_whenL4//a.lo29.none.wav,pe,ña,ru,sil,de,zi,ñi,sil1,nu,re,sil2,['-'],,,none,none,,,,lo,1,testConjL2Uns//cat_viol.r1.s2.0.wav,2.0,conjunction_un,unsyncopated,a,s2,no_rule,cat,L2,m,0.1039,7.0,1.0,0.3541,2.0,1.0,Español,0.0,Inglés,10.0,4.0,3.0,no,no,yes,Nada,,,,Nada,68.0,yes
34,2024-02-07_13h41.04.986,Unsyncopated_study2,s110,25.0,feminino,right,ESPAÑA,Español,Bachelor degree,no,no,B,1,when,L4,unsyncopated,when,when,34,Online_whenL4//a.lo30.none.wav,de,re,ru,sil,pe,ñi,zi,sil1,bo,nu,sil2,['-'],,,none,none,,,,lo,1,testConjL2Uns//r1.s1.1.wav,2.0,conjunction_un,unsyncopated,a,s1,rule,rule,L2,m,0.1626,7.0,0.0,0.3643,2.0,1.0,Español,0.0,Inglés,10.0,4.0,3.0,no,no,yes,Nada,,,,Nada,68.0,yes
35,2024-02-07_13h41.04.986,Unsyncopated_study2,s110,25.0,feminino,right,ESPAÑA,Español,Bachelor degree,no,no,B,1,when,L4,unsyncopated,when,when,35,Online_whenL4//a.lo31.none.wav,re,de,zi,sil,ru,pe,da,sil1,ci,nu,sil2,['-'],,,none,none,,,,lo,1,testConjL2Uns//r1.s2.2.wav,2.0,conjunction_un,unsyncopated,a,s2,rule,rule,L2,z,0.2727,6.0,1.0,1.0354,2.0,1.0,Español,0.0,Inglés,10.0,4.0,3.0,no,no,yes,Nada,,,,Nada,68.0,yes
36,2024-02-07_13h41.04.986,Unsyncopated_study2,s110,25.0,feminino,right,ESPAÑA,Español,Bachelor degree,no,no,B,1,when,L4,unsyncopated,when,when,36,Online_whenL4//b.ja10.none.wav,bu,lo,pe,sil,zi,po,ru,sil1,ci,de,sil2,['-'],,,none,none,,,,ja,2,testConjL2Uns//r2.s1.1.wav,2.0,conjunction_un,unsyncopated,b,s1,rule,rule,L2,z,0.3045,6.0,1.0,0.2185,2.0,1.0,Español,0.0,Inglés,10.0,4.0,3.0,no,no,yes,Nada,,,,Nada,68.0,yes
37,2024-02-07_13h41.04.986,Unsyncopated_study2,s110,25.0,feminino,right,ESPAÑA,Español,Bachelor degree,no,no,B,1,when,L4,unsyncopated,when,when,37,Online_whenL4//b.ja9.0.wav,ja,ci,re,sil,de,zi,pe,sil1,po,bu,sil2,['catch'],[0.5127000000002226],[0.5127000000002226],0.0,beat,0.5127000000002226,0.5127000000002226,"[""space""]",ja,2,testConjL2Uns//dep_viol.r2.s1.0.wav,2.0,conjunction_un,unsyncopated,b,s1,no_rule,dep,L2,m,0.9927,7.0,1.0,0.5539,2.0,1.0,Español,0.0,Inglés,10.0,4.0,3.0,no,no,yes,Nada,,,,Nada,68.0,yes
38,2024-02-07_13h41.04.986,Unsyncopated_study2,s110,25.0,feminino,right,ESPAÑA,Español,Bachelor degree,no,no,B,1,when,L4,unsyncopated,when,when,38,Online_whenL4//b.ja11.444.wav,po,da,ja,sil,nu,ru,bo,sil1,pe,de,sil2,['catch'],[1.1156000000005406],[1.1156000000005406],0.444,no_beat,0.6716000000005407,0.6716000000005407,"[""space""]",ja,2,testConjL2Uns//dep_viol.r1.s2.0.wav,2.0,conjunction_un,unsyncopated,a,s2,no_rule,dep,L2,m,0.2447,6.0,1.0,0.5346,2.0,1.0,Español,0.0,Inglés,10.0,4.0,3.0,no,no,yes,Nada,,,,Nada,68.0,yes
39,2024-02-07_13h41.04.986,Unsyncopated_study2,s110,25.0,feminino,right,ESPAÑA,Español,Bachelor degree,no,no,B,1,when,L4,unsyncopated,when,when,39,Online_whenL4//b.ja8.1998.wav,nu,de,da,sil,re,pe,ña,sil1,bu,ja,sil2,['catch'],[2.632100000000605],[2.632100000000605],1.998,no_beat,0.6341000000006052,0.6341000000006052,"[""space""]",ja,2,testConjL2Uns//time_viol.r2.s2.0.wav,2.0,conjunction_un,unsyncopated,b,s2,no_rule,time,L2,m,0.5274,4.0,1.0,0.8111,2.0,1.0,Español,0.0,Inglés,10.0,4.0,3.0,no,no,yes,Nada,,,,Nada,68.0,yes
40,2024-02-07_13h41.04.986,Unsyncopated_study2,s110,25.0,feminino,right,ESPAÑA,Español,Bachelor degree,no,no,B,1,when,L4,unsyncopated,when,when,40,Online_whenL4//b.ja12.444.wav,nu,ñi,ja,sil,pe,da,ña,sil1,re,ru,sil2,['miss'],,,0.444,no_beat,,,,ja,2,testConjL2Uns//r2.s1.2.wav,2.0,conjunction_un,unsyncopated,b,s1,rule,rule,L2,m,0.5903,4.0,0.0,0.6734,2.0,1.0,Español,0.0,Inglés,10.0,4.0,3.0,no,no,yes,Nada,,,,Nada,68.0,yes
41,2024-02-07_13h41.04.986,Unsyncopated_study2,s110,25.0,feminino,right,ESPAÑA,Español,Bachelor degree,no,no,B,1,when,L4,unsyncopated,when,when,41,Online_whenL4//b.ja14.888.wav,zi,ña,po,sil,ja,bu,de,sil1,bo,ru,sil2,['miss'],,,0.888,beat,,,,ja,2,testConjL2Uns//r1.s2.0.wav,2.0,conjunction_un,unsyncopated,a,s2,rule,rule,L2,m,0.9237,6.0,0.0,0.4572,2.0,1.0,Español,0.0,Inglés,10.0,4.0,3.0,no,no,yes,Nada,,,,Nada,68.0,yes
42,2024-02-07_13h41.04.986,Unsyncopated_study2,s110,25.0,feminino,right,ESPAÑA,Español,Bachelor degree,no,no,B,1,when,L4,unsyncopated,when,when,42,Online_whenL4//b.ja15.444.wav,da,ci,ja,sil,bo,ru,pe,sil1,zi,bu,sil2,"['false alarm', 'catch']","[0.15929999999980282, 1.46120000000019]",[1.46120000000019],0.444,no_beat,1.01720000000019,1.01720000000019,"[""space"",""space""]",ja,2,testConjL2Uns//dep_viol.r1.s1.0.wav,2.0,conjunction_un,unsyncopated,a,s1,no_rule,dep,L2,m,1.8071,4.0,1.0,0.2765,2.0,1.0,Español,0.0,Inglés,10.0,4.0,3.0,no,no,yes,Nada,,,,Nada,68.0,yes
43,2024-02-07_13h41.04.986,Unsyncopated_study2,s110,25.0,feminino,right,ESPAÑA,Español,Bachelor degree,no,no,B,1,when,L4,unsyncopated,when,when,43,Online_whenL4//b.ja13.none.wav,bo,de,ña,sil,re,bu,lo,sil1,pe,zi,sil2,['-'],,,none,none,,,,ja,2,testConjL2Uns//cat_viol.r2.s2.0.wav,2.0,conjunction_un,unsyncopated,b,s2,no_rule,cat,L2,m,0.3101,7.0,1.0,0.2523,2.0,1.0,Español,0.0,Inglés,10.0,4.0,3.0,no,no,yes,Nada,,,,Nada,68.0,yes
44,2024-02-07_13h41.04.986,Unsyncopated_study2,s110,25.0,feminino,right,ESPAÑA,Español,Bachelor degree,no,no,B,1,when,L4,unsyncopated,when,when,44,Online_whenL4//d.pe28.none.wav,bo,nu,lo,sil,ru,re,bu,sil1,po,da,sil2,['-'],,,none,none,,,,pe,4,testConjL2Uns//time_viol.r1.s2.0.wav,2.0,conjunction_un,unsyncopated,a,s2,no_rule,time,L2,m,1.0438,7.0,1.0,0.3029,2.0,1.0,Español,0.0,Inglés,10.0,4.0,3.0,no,no,yes,Nada,,,,Nada,68.0,yes
45,2024-02-07_13h41.04.986,Unsyncopated_study2,s110,25.0,feminino,right,ESPAÑA,Español,Bachelor degree,no,no,B,1,when,L4,unsyncopated,when,when,45,Online_whenL4//d.pe29.none.wav,da,po,ja,sil,bu,bo,lo,sil1,ña,de,sil2,['-'],,,none,none,,,,pe,4,testConjL2Uns//r1.s1.2.wav,2.0,conjunction_un,unsyncopated,a,s1,rule,rule,L2,m,0.5733,7.0,0.0,0.3011,2.0,1.0,Español,0.0,Inglés,10.0,4.0,3.0,no,no,yes,Nada,,,,Nada,68.0,yes
46,2024-02-07_13h41.04.986,Unsyncopated_study2,s110,25.0,feminino,right,ESPAÑA,Español,Bachelor degree,no,no,B,1,when,L4,unsyncopated,when,when,46,Online_whenL4//d.pe31.1332.wav,bu,re,ru,sil,ja,de,pe,sil1,ci,zi,sil2,['catch'],[1.8804000000003498],[1.8804000000003498],1.332,no_beat,0.5484000000003497,0.5484000000003497,"[""space""]",pe,4,testConjL2Uns//time_viol.r2.s1.0.wav,2.0,conjunction_un,unsyncopated,b,s1,no_rule,time,L2,m,0.2999,6.0,1.0,0.3437,2.0,1.0,Español,0.0,Inglés,10.0,4.0,3.0,no,no,yes,Nada,,,,Nada,68.0,yes
47,2024-02-07_13h41.04.986,Unsyncopated_study2,s110,25.0,feminino,right,ESPAÑA,Español,Bachelor degree,no,no,B,1,when,L4,unsyncopated,when,when,47,Online_whenL4//d.pe30.none.wav,ru,lo,po,sil,nu,de,da,sil1,ña,ñi,sil2,['-'],,,none,none,,,,pe,4,testConjL2Uns//r1.s2.1.wav,2.0,conjunction_un,unsyncopated,a,s2,rule,rule,L2,z,0.2387,7.0,1.0,1.3276,2.0,1.0,Español,0.0,Inglés,10.0,4.0,3.0,no,no,yes,Nada,,,,Nada,68.0,yes
48,2024-02-07_13h41.04.986,Unsyncopated_study2,s110,25.0,feminino,right,ESPAÑA,Español,Bachelor degree,no,no,B,1,when,L4,unsyncopated,when,when,48,Online_whenL4//b.ja30.none.wav,zi,ci,de,sil,bo,da,lo,sil1,re,bu,sil2,['-'],,,none,none,,,,ja,2,testWhatL3Uns//time_viol.r1.s2.0.wav,3.0,what,unsyncopated,a,s2,no_rule,time,L3,m,1.4091,5.0,1.0,0.5461,2.0,1.0,Español,0.0,Inglés,10.0,4.0,3.0,no,no,yes,Nada,,,,Nada,68.0,yes
49,2024-02-07_13h41.04.986,Unsyncopated_study2,s110,25.0,feminino,right,ESPAÑA,Español,Bachelor degree,no,no,B,1,when,L4,unsyncopated,when,when,49,Online_whenL4//b.ja31.1332.wav,ci,re,da,sil,lo,pe,ja,sil1,de,ñi,sil2,['catch'],[1.9494000000003098],[1.9494000000003098],1.332,no_beat,0.6174000000003097,0.6174000000003097,"[""space""]",ja,2,testWhatL3Uns//r1.s1.1.wav,3.0,what,unsyncopated,a,s1,rule,rule,L3,m,1.1249,7.0,0.0,0.9268,2.0,1.0,Español,0.0,Inglés,10.0,4.0,3.0,no,no,yes,Nada,,,,Nada,68.0,yes
50,2024-02-07_13h41.04.986,Unsyncopated_study2,s110,25.0,feminino,right,ESPAÑA,Español,Bachelor degree,no,no,B,1,when,L4,unsyncopated,when,when,50,Online_whenL4//b.ja29.none.wav,bu,da,nu,sil,ci,ru,ña,sil1,lo,bo,sil2,['-'],,,none,none,,,,ja,2,testWhatL3Uns//time_viol.r1.s1.0.wav,3.0,what,unsyncopated,a,s1,no_rule,time,L3,m,0.2918,7.0,1.0,0.2523,2.0,1.0,Español,0.0,Inglés,10.0,4.0,3.0,no,no,yes,Nada,,,,Nada,68.0,yes
51,2024-02-07_13h41.04.986,Unsyncopated_study2,s110,25.0,feminino,right,ESPAÑA,Español,Bachelor degree,no,no,B,1,when,L4,unsyncopated,when,when,51,Online_whenL4//b.ja28.1776.wav,ru,po,bu,sil,bo,da,lo,sil1,ja,pe,sil2,['catch'],[2.4331999999992604],[2.4331999999992604],1.776,beat,0.6571999999992604,0.6571999999992604,"[""space""]",ja,2,testWhatL3Uns//r2.s1.0.wav,3.0,what,unsyncopated,b,s1,rule,rule,L3,z,0.0711,7.0,1.0,0.9744,2.0,1.0,Español,0.0,Inglés,10.0,4.0,3.0,no,no,yes,Nada,,,,Nada,68.0,yes
52,2024-02-07_13h41.04.986,Unsyncopated_study2,s110,25.0,feminino,right,ESPAÑA,Español,Bachelor degree,no,no,B,1,when,L4,unsyncopated,when,when,52,Online_whenL4//a.lo5.1998.wav,ci,bu,zi,sil,ru,bo,pe,sil1,de,lo,sil2,['false alarm'],[1.7072999999998046],[1.7072999999998046],1.998,no_beat,,,"[""space""]",lo,1,testWhatL3Uns//cat_viol.r2.s2.0.wav,3.0,what,unsyncopated,b,s2,no_rule,cat,L3,z,0.8524,4.0,0.0,0.2752,2.0,1.0,Español,0.0,Inglés,10.0,4.0,3.0,no,no,yes,Nada,,,,Nada,68.0,yes
53,2024-02-07_13h41.04.986,Unsyncopated_study2,s110,25.0,feminino,right,ESPAÑA,Español,Bachelor degree,no,no,B,1,when,L4,unsyncopated,when,when,53,Online_whenL4//a.lo7.1776.wav,de,po,da,sil,ru,zi,ñi,sil1,lo,pe,sil2,['catch'],[2.333499999999958],[2.333499999999958],1.776,beat,0.5574999999999581,0.5574999999999581,"[""space""]",lo,1,testWhatL3Uns//r1.s1.2.wav,3.0,what,unsyncopated,a,s1,rule,rule,L3,m,0.6343,7.0,0.0,0.235,2.0,1.0,Español,0.0,Inglés,10.0,4.0,3.0,no,no,yes,Nada,,,,Nada,68.0,yes
54,2024-02-07_13h41.04.986,Unsyncopated_study2,s110,25.0,feminino,right,ESPAÑA,Español,Bachelor degree,no,no,B,1,when,L4,unsyncopated,when,when,54,Online_whenL4//a.lo6.none.wav,ñi,ja,ña,sil,de,re,po,sil1,nu,bo,sil2,['-'],,,none,none,,,,lo,1,testWhatL3Uns//r1.s1.0.wav,3.0,what,unsyncopated,a,s1,rule,rule,L3,z,0.2859,4.0,1.0,0.239,2.0,1.0,Español,0.0,Inglés,10.0,4.0,3.0,no,no,yes,Nada,,,,Nada,68.0,yes
55,2024-02-07_13h41.04.986,Unsyncopated_study2,s110,25.0,feminino,right,ESPAÑA,Español,Bachelor degree,no,no,B,1,when,L4,unsyncopated,when,when,55,Online_whenL4//a.lo4.none.wav,bo,ñi,pe,sil,ja,re,ru,sil1,nu,da,sil2,['-'],,,none,none,,,,lo,1,testWhatL3Uns//time_viol.r2.s1.0.wav,3.0,what,unsyncopated,b,s1,no_rule,time,L3,m,0.1772,7.0,1.0,0.3209,2.0,1.0,Español,0.0,Inglés,10.0,4.0,3.0,no,no,yes,Nada,,,,Nada,68.0,yes
56,2024-02-07_13h41.04.986,Unsyncopated_study2,s110,25.0,feminino,right,ESPAÑA,Español,Bachelor degree,no,no,B,1,when,L4,unsyncopated,when,when,56,Online_whenL4//c.bu11.none.wav,ña,pe,re,sil,nu,bo,lo,sil1,ci,de,sil2,['false alarm'],[1.8562999999998056],[1.8562999999998056],none,none,,,"[""space""]",bu,3,testWhatL3Uns//dep_viol.r1.s2.0.wav,3.0,what,unsyncopated,a,s2,no_rule,dep,L3,m,0.5251,7.0,1.0,0.2207,2.0,1.0,Español,0.0,Inglés,10.0,4.0,3.0,no,no,yes,Nada,,,,Nada,68.0,yes
57,2024-02-07_13h41.04.986,Unsyncopated_study2,s110,25.0,feminino,right,ESPAÑA,Español,Bachelor degree,no,no,B,1,when,L4,unsyncopated,when,when,57,Online_whenL4//c.bu10.0.wav,bu,ñi,da,sil,ña,ja,re,sil1,nu,ci,sil2,['miss'],,,0.0,beat,,,,bu,3,testWhatL3Uns//dep_viol.r1.s1.0.wav,3.0,what,unsyncopated,a,s1,no_rule,dep,L3,m,0.3359,7.0,1.0,0.3577,2.0,1.0,Español,0.0,Inglés,10.0,4.0,3.0,no,no,yes,Nada,,,,Nada,68.0,yes
58,2024-02-07_13h41.04.986,Unsyncopated_study2,s110,25.0,feminino,right,ESPAÑA,Español,Bachelor degree,no,no,B,1,when,L4,unsyncopated,when,when,58,Online_whenL4//c.bu9.444.wav,bo,ja,bu,sil,lo,re,pe,sil1,ci,po,sil2,['catch'],[1.0664999999999054],[1.0664999999999054],0.444,no_beat,0.6224999999999055,0.6224999999999055,"[""space""]",bu,3,testWhatL3Uns//cat_viol.r1.s2.0.wav,3.0,what,unsyncopated,a,s2,no_rule,cat,L3,m,0.3777,7.0,1.0,0.17,2.0,1.0,Español,0.0,Inglés,10.0,4.0,3.0,no,no,yes,Nada,,,,Nada,68.0,yes
59,2024-02-07_13h41.04.986,Unsyncopated_study2,s110,25.0,feminino,right,ESPAÑA,Español,Bachelor degree,no,no,B,1,when,L4,unsyncopated,when,when,59,Online_whenL4//c.bu8.444.wav,nu,bo,bu,sil,ñi,re,zi,sil1,pe,ci,sil2,['catch'],[1.0257000000001426],[1.0257000000001426],0.444,no_beat,0.5817000000001427,0.5817000000001427,"[""space""]",bu,3,testWhatL3Uns//r2.s2.0.wav,3.0,what,unsyncopated,b,s2,rule,rule,L3,m,0.3938,6.0,0.0,0.395,2.0,1.0,Español,0.0,Inglés,10.0,4.0,3.0,no,no,yes,Nada,,,,Nada,68.0,yes
60,2024-02-07_13h41.04.986,Unsyncopated_study2,s110,25.0,feminino,right,ESPAÑA,Español,Bachelor degree,no,no,B,1,when,L4,unsyncopated,when,when,60,Online_whenL4//c.bu14.none.wav,zi,ñi,ja,sil,re,da,de,sil1,ru,bo,sil2,['-'],,,none,none,,,,bu,3,testWhatL3Uns//cat_viol.r1.s1.0.wav,3.0,what,unsyncopated,a,s1,no_rule,cat,L3,z,0.2245,4.0,0.0,0.3714,2.0,1.0,Español,0.0,Inglés,10.0,4.0,3.0,no,no,yes,Nada,,,,Nada,68.0,yes
61,2024-02-07_13h41.04.986,Unsyncopated_study2,s110,25.0,feminino,right,ESPAÑA,Español,Bachelor degree,no,no,B,1,when,L4,unsyncopated,when,when,61,Online_whenL4//c.bu13.none.wav,bo,po,pe,sil,ja,ña,da,sil1,lo,de,sil2,['-'],,,none,none,,,,bu,3,testWhatL3Uns//r2.s1.1.wav,3.0,what,unsyncopated,b,s1,rule,rule,L3,z,0.2581,7.0,1.0,0.2888,2.0,1.0,Español,0.0,Inglés,10.0,4.0,3.0,no,no,yes,Nada,,,,Nada,68.0,yes
62,2024-02-07_13h41.04.986,Unsyncopated_study2,s110,25.0,feminino,right,ESPAÑA,Español,Bachelor degree,no,no,B,1,when,L4,unsyncopated,when,when,62,Online_whenL4//c.bu15.1776.wav,zi,re,po,sil,pe,ña,lo,sil1,bu,bo,sil2,['catch'],[2.1647000000001526],[2.1647000000001526],1.776,beat,0.3887000000001526,0.3887000000001526,"[""space""]",bu,3,testWhatL3Uns//time_viol.r2.s2.0.wav,3.0,what,unsyncopated,b,s2,no_rule,time,L3,m,0.5684,3.0,1.0,0.2739,2.0,1.0,Español,0.0,Inglés,10.0,4.0,3.0,no,no,yes,Nada,,,,Nada,68.0,yes
63,2024-02-07_13h41.04.986,Unsyncopated_study2,s110,25.0,feminino,right,ESPAÑA,Español,Bachelor degree,no,no,B,1,when,L4,unsyncopated,when,when,63,Online_whenL4//c.bu12.444.wav,ña,nu,bu,sil,bo,ñi,da,sil1,ru,lo,sil2,['miss'],,,0.444,no_beat,,,,bu,3,testWhatL3Uns//r1.s2.2.wav,3.0,what,unsyncopated,a,s2,rule,rule,L3,m,0.0052,3.0,0.0,0.41,2.0,1.0,Español,0.0,Inglés,10.0,4.0,3.0,no,no,yes,Nada,,,,Nada,68.0,yes
64,2024-02-07_13h41.04.986,Unsyncopated_study2,s110,25.0,feminino,right,ESPAÑA,Español,Bachelor degree,no,no,B,1,when,L4,unsyncopated,when,when,64,Online_whenL4//a.lo2.444.wav,ñi,bu,lo,sil,da,pe,ña,sil1,zi,bo,sil2,['catch'],[0.9091000000006488],[0.9091000000006488],0.444,no_beat,0.4651000000006488,0.4651000000006488,"[""space""]",lo,1,testWhatL3Uns//r2.s2.1.wav,3.0,what,unsyncopated,b,s2,rule,rule,L3,z,0.27,7.0,1.0,0.2726,2.0,1.0,Español,0.0,Inglés,10.0,4.0,3.0,no,no,yes,Nada,,,,Nada,68.0,yes
65,2024-02-07_13h41.04.986,Unsyncopated_study2,s110,25.0,feminino,right,ESPAÑA,Español,Bachelor degree,no,no,B,1,when,L4,unsyncopated,when,when,65,Online_whenL4//a.lo3.none.wav,ci,nu,ja,sil,re,ña,ru,sil1,po,bo,sil2,['-'],,,none,none,,,,lo,1,testWhatL3Uns//r1.s2.0.wav,3.0,what,unsyncopated,a,s2,rule,rule,L3,z,0.317,7.0,1.0,0.6593,2.0,1.0,Español,0.0,Inglés,10.0,4.0,3.0,no,no,yes,Nada,,,,Nada,68.0,yes
66,2024-02-07_13h41.04.986,Unsyncopated_study2,s110,25.0,feminino,right,ESPAÑA,Español,Bachelor degree,no,no,B,1,when,L4,unsyncopated,when,when,66,Online_whenL4//a.lo1.none.wav,nu,ja,ci,sil,bo,ña,de,sil1,po,re,sil2,['-'],,,none,none,,,,lo,1,testWhatL3Uns//dep_viol.r2.s1.0.wav,3.0,what,unsyncopated,b,s1,no_rule,dep,L3,m,0.709,7.0,1.0,0.1573,2.0,1.0,Español,0.0,Inglés,10.0,4.0,3.0,no,no,yes,Nada,,,,Nada,68.0,yes
67,2024-02-07_13h41.04.986,Unsyncopated_study2,s110,25.0,feminino,right,ESPAÑA,Español,Bachelor degree,no,no,B,1,when,L4,unsyncopated,when,when,67,Online_whenL4//a.lo0.none.wav,ru,pe,ci,sil,zi,ja,da,sil1,ñi,ña,sil2,['-'],,,none,none,,,,lo,1,testWhatL3Uns//r2.s1.2.wav,3.0,what,unsyncopated,b,s1,rule,rule,L3,z,0.6541,6.0,1.0,1.0063,2.0,1.0,Español,0.0,Inglés,10.0,4.0,3.0,no,no,yes,Nada,,,,Nada,68.0,yes
68,2024-02-07_13h41.04.986,Unsyncopated_study2,s110,25.0,feminino,right,ESPAÑA,Español,Bachelor degree,no,no,B,1,when,L4,unsyncopated,when,when,68,Online_whenL4//c.bu0.888.wav,ci,ñi,ja,sil,bu,da,ru,sil1,po,nu,sil2,['catch'],[1.4153000000007978],[1.4153000000007978],0.888,beat,0.5273000000007978,0.5273000000007978,"[""space""]",bu,3,testWhatL3Uns//dep_viol.r2.s2.0.wav,3.0,what,unsyncopated,b,s2,no_rule,dep,L3,z,0.2567,7.0,0.0,0.2098,2.0,1.0,Español,0.0,Inglés,10.0,4.0,3.0,no,no,yes,Nada,,,,Nada,68.0,yes
69,2024-02-07_13h41.04.986,Unsyncopated_study2,s110,25.0,feminino,right,ESPAÑA,Español,Bachelor degree,no,no,B,1,when,L4,unsyncopated,when,when,69,Online_whenL4//c.bu3.none.wav,ja,de,pe,sil,ña,ñi,bo,sil1,nu,po,sil2,['-'],,,none,none,,,,bu,3,testWhatL3Uns//r2.s2.2.wav,3.0,what,unsyncopated,b,s2,rule,rule,L3,z,0.2858,7.0,1.0,0.3377,2.0,1.0,Español,0.0,Inglés,10.0,4.0,3.0,no,no,yes,Nada,,,,Nada,68.0,yes
70,2024-02-07_13h41.04.986,Unsyncopated_study2,s110,25.0,feminino,right,ESPAÑA,Español,Bachelor degree,no,no,B,1,when,L4,unsyncopated,when,when,70,Online_whenL4//c.bu2.1110.wav,lo,bo,ci,sil,da,bu,ñi,sil1,ja,de,sil2,['catch'],[2.3455000000000155],[2.3455000000000155],1.11,no_beat,,1.2355000000000154,"[""space""]",bu,3,testWhatL3Uns//cat_viol.r2.s1.0.wav,3.0,what,unsyncopated,b,s1,no_rule,cat,L3,z,0.2448,7.0,0.0,0.2544,2.0,1.0,Español,0.0,Inglés,10.0,4.0,3.0,no,no,yes,Nada,,,,Nada,68.0,yes
71,2024-02-07_13h41.04.986,Unsyncopated_study2,s110,25.0,feminino,right,ESPAÑA,Español,Bachelor degree,no,no,B,1,when,L4,unsyncopated,when,when,71,Online_whenL4//c.bu1.none.wav,lo,pe,po,sil,ci,ja,de,sil1,bo,ru,sil2,['-'],,,none,none,,,,bu,3,testWhatL3Uns//r1.s2.1.wav,3.0,what,unsyncopated,a,s2,rule,rule,L3,m,0.2848,3.0,0.0,0.2726,2.0,1.0,Español,0.0,Inglés,10.0,4.0,3.0,no,no,yes,Nada,,,,Nada,68.0,yes
72,2024-02-07_13h41.04.986,Unsyncopated_study2,s110,25.0,feminino,right,ESPAÑA,Español,Bachelor degree,no,no,B,1,when,L4,unsyncopated,when,when,72,Online_whenL4//d.pe25.none.wav,re,bu,ja,sil,da,bo,ci,sil1,nu,ru,sil2,['-'],,,none,none,,,,pe,4,testConjL1Syn//dep_viol.r2.s2.0.wav,4.0,conjunction_syn,syncopated,b,s2,no_rule,dep,L1,m,1.2708,5.0,1.0,1.1541,2.0,1.0,Español,0.0,Inglés,10.0,4.0,3.0,no,no,yes,Nada,,,,Nada,68.0,yes
73,2024-02-07_13h41.04.986,Unsyncopated_study2,s110,25.0,feminino,right,ESPAÑA,Español,Bachelor degree,no,no,B,1,when,L4,unsyncopated,when,when,73,Online_whenL4//d.pe26.none.wav,lo,re,ña,sil,bo,po,ñi,sil1,zi,da,sil2,['-'],,,none,none,,,,pe,4,testConjL1Syn//dep_viol.r2.s1.0.wav,4.0,conjunction_syn,syncopated,b,s1,no_rule,dep,L1,m,0.1515,6.0,1.0,0.4177,2.0,1.0,Español,0.0,Inglés,10.0,4.0,3.0,no,no,yes,Nada,,,,Nada,68.0,yes
74,2024-02-07_13h41.04.986,Unsyncopated_study2,s110,25.0,feminino,right,ESPAÑA,Español,Bachelor degree,no,no,B,1,when,L4,unsyncopated,when,when,74,Online_whenL4//d.pe24.0.wav,pe,de,re,sil,zi,ña,bo,sil1,ja,ñi,sil2,['catch'],[0.5248999999994339],[0.5248999999994339],0.0,beat,0.5248999999994339,0.5248999999994339,"[""space""]",pe,4,testConjL1Syn//cat_viol.r1.s2.0.wav,4.0,conjunction_syn,syncopated,a,s2,no_rule,cat,L1,m,0.2857,5.0,1.0,0.3519,2.0,1.0,Español,0.0,Inglés,10.0,4.0,3.0,no,no,yes,Nada,,,,Nada,68.0,yes
75,2024-02-07_13h41.04.986,Unsyncopated_study2,s110,25.0,feminino,right,ESPAÑA,Español,Bachelor degree,no,no,B,1,when,L4,unsyncopated,when,when,75,Online_whenL4//d.pe27.222.wav,ru,pe,nu,sil,zi,ña,ci,sil1,ñi,bu,sil2,['catch'],[2.427500000000009],[2.427500000000009],0.222,no_beat,,2.205500000000009,"[""space""]",pe,4,testConjL1Syn//r2.s2.1.wav,4.0,conjunction_syn,syncopated,b,s2,rule,rule,L1,z,0.2897,1.0,1.0,0.2074,2.0,1.0,Español,0.0,Inglés,10.0,4.0,3.0,no,no,yes,Nada,,,,Nada,68.0,yes
76,2024-02-07_13h41.04.986,Unsyncopated_study2,s110,25.0,feminino,right,ESPAÑA,Español,Bachelor degree,no,no,B,1,when,L4,unsyncopated,when,when,76,Online_whenL4//b.ja16.1110.wav,re,ci,bu,sil,de,ja,ru,sil1,pe,nu,sil2,['catch'],[1.4864999999999782],[1.4864999999999782],1.11,no_beat,0.3764999999999781,0.3764999999999781,"[""space""]",ja,2,testConjL1Syn//time_viol.r2.s2.0.wav,4.0,conjunction_syn,syncopated,b,s2,no_rule,time,L1,m,0.1516,5.0,1.0,0.9939,2.0,1.0,Español,0.0,Inglés,10.0,4.0,3.0,no,no,yes,Nada,,,,Nada,68.0,yes
77,2024-02-07_13h41.04.986,Unsyncopated_study2,s110,25.0,feminino,right,ESPAÑA,Español,Bachelor degree,no,no,B,1,when,L4,unsyncopated,when,when,77,Online_whenL4//b.ja18.none.wav,bo,re,ru,sil,de,lo,zi,sil1,ci,ña,sil2,['-'],,,none,none,,,,ja,2,testConjL1Syn//r2.s2.0.wav,4.0,conjunction_syn,syncopated,b,s2,rule,rule,L1,m,0.2383,6.0,0.0,0.4247,2.0,1.0,Español,0.0,Inglés,10.0,4.0,3.0,no,no,yes,Nada,,,,Nada,68.0,yes
78,2024-02-07_13h41.04.986,Unsyncopated_study2,s110,25.0,feminino,right,ESPAÑA,Español,Bachelor degree,no,no,B,1,when,L4,unsyncopated,when,when,78,Online_whenL4//b.ja17.none.wav,pe,ru,ñi,sil,zi,lo,re,sil1,de,bu,sil2,['-'],,,none,none,,,,ja,2,testConjL1Syn//r1.s1.2.wav,4.0,conjunction_syn,syncopated,a,s1,rule,rule,L1,z,0.1411,7.0,1.0,0.2571,2.0,1.0,Español,0.0,Inglés,10.0,4.0,3.0,no,no,yes,Nada,,,,Nada,68.0,yes
79,2024-02-07_13h41.04.986,Unsyncopated_study2,s110,25.0,feminino,right,ESPAÑA,Español,Bachelor degree,no,no,B,1,when,L4,unsyncopated,when,when,79,Online_whenL4//b.ja19.none.wav,ñi,da,nu,sil,ña,bo,de,sil1,po,lo,sil2,['-'],,,none,none,,,,ja,2,testConjL1Syn//cat_viol.r2.s1.0.wav,4.0,conjunction_syn,syncopated,b,s1,no_rule,cat,L1,m,0.0351,7.0,1.0,0.6406,2.0,1.0,Español,0.0,Inglés,10.0,4.0,3.0,no,no,yes,Nada,,,,Nada,68.0,yes
80,2024-02-07_13h41.04.986,Unsyncopated_study2,s110,25.0,feminino,right,ESPAÑA,Español,Bachelor degree,no,no,B,1,when,L4,unsyncopated,when,when,80,Online_whenL4//d.pe20.none.wav,bu,lo,po,sil,ru,ñi,ja,sil1,ña,de,sil2,['-'],,,none,none,,,,pe,4,testConjL1Syn//r2.s1.1.wav,4.0,conjunction_syn,syncopated,b,s1,rule,rule,L1,z,0.2022,7.0,1.0,0.2007,2.0,1.0,Español,0.0,Inglés,10.0,4.0,3.0,no,no,yes,Nada,,,,Nada,68.0,yes
81,2024-02-07_13h41.04.986,Unsyncopated_study2,s110,25.0,feminino,right,ESPAÑA,Español,Bachelor degree,no,no,B,1,when,L4,unsyncopated,when,when,81,Online_whenL4//d.pe21.none.wav,ci,lo,bu,sil,ña,po,ja,sil1,bo,ru,sil2,['-'],,,none,none,,,,pe,4,testConjL1Syn//cat_viol.r1.s1.0.wav,4.0,conjunction_syn,syncopated,a,s1,no_rule,cat,L1,m,0.4435,4.0,1.0,0.4417,2.0,1.0,Español,0.0,Inglés,10.0,4.0,3.0,no,no,yes,Nada,,,,Nada,68.0,yes
82,2024-02-07_13h41.04.986,Unsyncopated_study2,s110,25.0,feminino,right,ESPAÑA,Español,Bachelor degree,no,no,B,1,when,L4,unsyncopated,when,when,82,Online_whenL4//d.pe23.444.wav,po,ja,pe,sil,de,ru,re,sil1,lo,bo,sil2,['catch'],[0.8602000000001908],[0.8602000000001908],0.444,no_beat,0.4162000000001908,0.4162000000001908,"[""space""]",pe,4,testConjL1Syn//dep_viol.r1.s1.0.wav,4.0,conjunction_syn,syncopated,a,s1,no_rule,dep,L1,m,0.0408,4.0,1.0,0.7024,2.0,1.0,Español,0.0,Inglés,10.0,4.0,3.0,no,no,yes,Nada,,,,Nada,68.0,yes
83,2024-02-07_13h41.04.986,Unsyncopated_study2,s110,25.0,feminino,right,ESPAÑA,Español,Bachelor degree,no,no,B,1,when,L4,unsyncopated,when,when,83,Online_whenL4//d.pe22.0.wav,pe,zi,ña,sil,lo,ci,ñi,sil1,re,da,sil2,['catch'],[1.333400000000438],[1.333400000000438],0.0,beat,,1.333400000000438,"[""space""]",pe,4,testConjL1Syn//r2.s1.0.wav,4.0,conjunction_syn,syncopated,b,s1,rule,rule,L1,z,0.2716,4.0,1.0,0.3553,2.0,1.0,Español,0.0,Inglés,10.0,4.0,3.0,no,no,yes,Nada,,,,Nada,68.0,yes
84,2024-02-07_13h41.04.986,Unsyncopated_study2,s110,25.0,feminino,right,ESPAÑA,Español,Bachelor degree,no,no,B,1,when,L4,unsyncopated,when,when,84,Online_whenL4//c.bu26.none.wav,po,da,ña,sil,zi,ru,lo,sil1,ci,re,sil2,['-'],,,none,none,,,,bu,3,testConjL1Syn//r1.s2.1.wav,4.0,conjunction_syn,syncopated,a,s2,rule,rule,L1,z,0.2754,7.0,1.0,1.4935,2.0,1.0,Español,0.0,Inglés,10.0,4.0,3.0,no,no,yes,Nada,,,,Nada,68.0,yes
85,2024-02-07_13h41.04.986,Unsyncopated_study2,s110,25.0,feminino,right,ESPAÑA,Español,Bachelor degree,no,no,B,1,when,L4,unsyncopated,when,when,85,Online_whenL4//c.bu27.0.wav,bu,de,zi,sil,ja,da,ru,sil1,bo,po,sil2,['catch'],[0.814099999999712],[0.814099999999712],0.0,beat,0.814099999999712,0.814099999999712,"[""space""]",bu,3,testConjL1Syn//r1.s2.0.wav,4.0,conjunction_syn,syncopated,a,s2,rule,rule,L1,z,0.7771,7.0,1.0,0.2529,2.0,1.0,Español,0.0,Inglés,10.0,4.0,3.0,no,no,yes,Nada,,,,Nada,68.0,yes
86,2024-02-07_13h41.04.986,Unsyncopated_study2,s110,25.0,feminino,right,ESPAÑA,Español,Bachelor degree,no,no,B,1,when,L4,unsyncopated,when,when,86,Online_whenL4//c.bu25.222.wav,ña,bu,de,sil,da,po,lo,sil1,ja,pe,sil2,['miss'],,,0.222,no_beat,,,,bu,3,testConjL1Syn//r2.s1.2.wav,4.0,conjunction_syn,syncopated,b,s1,rule,rule,L1,m,0.7705,4.0,0.0,0.4022,2.0,1.0,Español,0.0,Inglés,10.0,4.0,3.0,no,no,yes,Nada,,,,Nada,68.0,yes
87,2024-02-07_13h41.04.986,Unsyncopated_study2,s110,25.0,feminino,right,ESPAÑA,Español,Bachelor degree,no,no,B,1,when,L4,unsyncopated,when,when,87,Online_whenL4//c.bu24.1998.wav,lo,po,ci,sil,nu,re,ñi,sil1,pe,bu,sil2,['catch_delay'],[0.7217000000002292],[0.7217000000002292],1.998,no_beat,0.7217000000002292,0.7217000000002292,,bu,3,testConjL1Syn//time_viol.r2.s1.0.wav,4.0,conjunction_syn,syncopated,b,s1,no_rule,time,L1,m,0.6041,4.0,1.0,0.4949,2.0,1.0,Español,0.0,Inglés,10.0,4.0,3.0,no,no,yes,Nada,,,,Nada,68.0,yes
88,2024-02-07_13h41.04.986,Unsyncopated_study2,s110,25.0,feminino,right,ESPAÑA,Español,Bachelor degree,no,no,B,1,when,L4,unsyncopated,when,when,88,Online_whenL4//b.ja22.1776.wav,da,ci,zi,sil,ña,ru,bo,sil1,ja,bu,sil2,['catch'],"[0.05570000000022901, 2.3104000000004135]",[2.3104000000004135],1.776,beat,0.5344000000004134,0.5344000000004134,"[""space"",""space""]",ja,2,testConjL1Syn//dep_viol.r1.s2.0.wav,4.0,conjunction_syn,syncopated,a,s2,no_rule,dep,L1,z,0.6754,7.0,0.0,0.3728,2.0,1.0,Español,0.0,Inglés,10.0,4.0,3.0,no,no,yes,Nada,,,,Nada,68.0,yes
89,2024-02-07_13h41.04.986,Unsyncopated_study2,s110,25.0,feminino,right,ESPAÑA,Español,Bachelor degree,no,no,B,1,when,L4,unsyncopated,when,when,89,Online_whenL4//b.ja23.444.wav,bu,da,ja,sil,ña,de,nu,sil1,ñi,po,sil2,['miss'],,,0.444,no_beat,,,,ja,2,testConjL1Syn//r1.s1.1.wav,4.0,conjunction_syn,syncopated,a,s1,rule,rule,L1,z,0.4425,7.0,1.0,0.2018,2.0,1.0,Español,0.0,Inglés,10.0,4.0,3.0,no,no,yes,Nada,,,,Nada,68.0,yes
90,2024-02-07_13h41.04.986,Unsyncopated_study2,s110,25.0,feminino,right,ESPAÑA,Español,Bachelor degree,no,no,B,1,when,L4,unsyncopated,when,when,90,Online_whenL4//b.ja21.none.wav,bu,da,ci,sil,ru,nu,zi,sil1,de,po,sil2,['-'],,,none,none,,,,ja,2,testConjL1Syn//r1.s2.2.wav,4.0,conjunction_syn,syncopated,a,s2,rule,rule,L1,z,0.1264,7.0,1.0,0.2279,2.0,1.0,Español,0.0,Inglés,10.0,4.0,3.0,no,no,yes,Nada,,,,Nada,68.0,yes
91,2024-02-07_13h41.04.986,Unsyncopated_study2,s110,25.0,feminino,right,ESPAÑA,Español,Bachelor degree,no,no,B,1,when,L4,unsyncopated,when,when,91,Online_whenL4//b.ja20.0.wav,ja,bu,ñi,sil,bo,de,lo,sil1,ru,da,sil2,['catch'],[0.5594000000003234],[0.5594000000003234],0.0,beat,0.5594000000003234,0.5594000000003234,"[""space""]",ja,2,testConjL1Syn//time_viol.r1.s1.0.wav,4.0,conjunction_syn,syncopated,a,s1,no_rule,time,L1,z,0.4506,4.0,0.0,0.4845,2.0,1.0,Español,0.0,Inglés,10.0,4.0,3.0,no,no,yes,Nada,,,,Nada,68.0,yes
92,2024-02-07_13h41.04.986,Unsyncopated_study2,s110,25.0,feminino,right,ESPAÑA,Español,Bachelor degree,no,no,B,1,when,L4,unsyncopated,when,when,92,Online_whenL4//d.pe6.1110.wav,da,lo,nu,sil,po,pe,ci,sil1,bo,ña,sil2,['catch'],[1.7365999999997257],[1.7365999999997257],1.11,no_beat,0.6265999999997256,0.6265999999997256,"[""space""]",pe,4,testConjL1Syn//r2.s2.2.wav,4.0,conjunction_syn,syncopated,b,s2,rule,rule,L1,z,0.5414,7.0,1.0,0.2239,2.0,1.0,Español,0.0,Inglés,10.0,4.0,3.0,no,no,yes,Nada,,,,Nada,68.0,yes
93,2024-02-07_13h41.04.986,Unsyncopated_study2,s110,25.0,feminino,right,ESPAÑA,Español,Bachelor degree,no,no,B,1,when,L4,unsyncopated,when,when,93,Online_whenL4//d.pe4.1110.wav,da,ru,ja,sil,nu,pe,ña,sil1,ñi,de,sil2,['miss'],,,1.11,no_beat,,,,pe,4,testConjL1Syn//time_viol.r1.s2.0.wav,4.0,conjunction_syn,syncopated,a,s2,no_rule,time,L1,m,0.0192,7.0,1.0,0.459,2.0,1.0,Español,0.0,Inglés,10.0,4.0,3.0,no,no,yes,Nada,,,,Nada,68.0,yes
94,2024-02-07_13h41.04.986,Unsyncopated_study2,s110,25.0,feminino,right,ESPAÑA,Español,Bachelor degree,no,no,B,1,when,L4,unsyncopated,when,when,94,Online_whenL4//d.pe5.444.wav,bu,nu,pe,sil,ci,da,re,sil1,de,lo,sil2,['miss'],,,0.444,no_beat,,,,pe,4,testConjL1Syn//cat_viol.r2.s2.0.wav,4.0,conjunction_syn,syncopated,b,s2,no_rule,cat,L1,z,0.2696,4.0,0.0,0.3189,2.0,1.0,Español,0.0,Inglés,10.0,4.0,3.0,no,no,yes,Nada,,,,Nada,68.0,yes
95,2024-02-07_13h41.04.986,Unsyncopated_study2,s110,25.0,feminino,right,ESPAÑA,Español,Bachelor degree,no,no,B,1,when,L4,unsyncopated,when,when,95,Online_whenL4//d.pe7.1998.wav,da,lo,ña,sil,bu,ñi,ru,sil1,ja,pe,sil2,['miss'],,,1.998,no_beat,,,,pe,4,testConjL1Syn//r1.s1.0.wav,4.0,conjunction_syn,syncopated,a,s1,rule,rule,L1,m,0.437,7.0,0.0,0.7266,2.0,1.0,Español,0.0,Inglés,10.0,4.0,3.0,no,no,yes,Nada,,,,Nada,68.0,yes
96,2024-02-07_13h41.04.986,Unsyncopated_study2,s110,25.0,feminino,right,ESPAÑA,Español,Bachelor degree,no,no,B,1,when,L4,unsyncopated,when,when,96,Online_whenL4//a.lo8.0.wav,lo,ñi,nu,sil,de,bo,pe,sil1,da,bu,sil2,['catch'],[1.309100000000626],[1.309100000000626],0.0,beat,,1.309100000000626,"[""space""]",lo,1,,,,,,,,,,,,,,,2.0,1.0,Español,0.0,Inglés,10.0,4.0,3.0,no,no,yes,Nada,,,,Nada,68.0,yes
97,2024-02-07_13h41.04.986,Unsyncopated_study2,s110,25.0,feminino,right,ESPAÑA,Español,Bachelor degree,no,no,B,1,when,L4,unsyncopated,when,when,97,Online_whenL4//a.lo11.0.wav,lo,ci,pe,sil,ñi,de,zi,sil1,ru,da,sil2,['miss'],,,0.0,beat,,,,lo,1,,,,,,,,,,,,,,,2.0,1.0,Español,0.0,Inglés,10.0,4.0,3.0,no,no,yes,Nada,,,,Nada,68.0,yes
98,2024-02-07_13h41.04.986,Unsyncopated_study2,s110,25.0,feminino,right,ESPAÑA,Español,Bachelor degree,no,no,B,1,when,L4,unsyncopated,when,when,98,Online_whenL4//a.lo10.none.wav,pe,da,re,sil,de,ja,zi,sil1,bu,po,sil2,['-'],,,none,none,,,,lo,1,,,,,,,,,,,,,,,2.0,1.0,Español,0.0,Inglés,10.0,4.0,3.0,no,no,yes,Nada,,,,Nada,68.0,yes
99,2024-02-07_13h41.04.986,Unsyncopated_study2,s110,25.0,feminino,right,ESPAÑA,Español,Bachelor degree,no,no,B,1,when,L4,unsyncopated,when,when,99,Online_whenL4//a.lo9.none.wav,bo,ci,po,sil,de,zi,ñi,sil1,ja,ña,sil2,['-'],,,none,none,,,,lo,1,,,,,,,,,,,,,,,2.0,1.0,Español,0.0,Inglés,10.0,4.0,3.0,no,no,yes,Nada,,,,Nada,68.0,yes
100,2024-02-07_13h41.04.986,Unsyncopated_study2,s110,25.0,feminino,right,ESPAÑA,Español,Bachelor degree,no,no,B,1,when,L4,unsyncopated,when,when,100,Online_whenL4//c.bu20.1332.wav,lo,re,ru,sil,ña,de,bu,sil1,zi,ci,sil2,"['false alarm', 'catch']","[0.5000999999996338, 1.8544000000003962]",[1.8544000000003962],1.332,no_beat,0.5224000000003961,0.5224000000003961,"[""space"",""space""]",bu,3,,,,,,,,,,,,,,,2.0,1.0,Español,0.0,Inglés,10.0,4.0,3.0,no,no,yes,Nada,,,,Nada,68.0,yes
101,2024-02-07_13h41.04.986,Unsyncopated_study2,s110,25.0,feminino,right,ESPAÑA,Español,Bachelor degree,no,no,B,1,when,L4,unsyncopated,when,when,101,Online_whenL4//c.bu23.none.wav,ña,nu,pe,sil,ru,ja,bo,sil1,re,ñi,sil2,['-'],,,none,none,,,,bu,3,,,,,,,,,,,,,,,2.0,1.0,Español,0.0,Inglés,10.0,4.0,3.0,no,no,yes,Nada,,,,Nada,68.0,yes
102,2024-02-07_13h41.04.986,Unsyncopated_study2,s110,25.0,feminino,right,ESPAÑA,Español,Bachelor degree,no,no,B,1,when,L4,unsyncopated,when,when,102,Online_whenL4//c.bu21.1332.wav,zi,pe,ci,sil,ña,nu,bu,sil1,bo,ru,sil2,['catch'],[2.3449000000002798],[2.3449000000002798],1.332,no_beat,1.0129000000002797,1.0129000000002797,"[""space""]",bu,3,,,,,,,,,,,,,,,2.0,1.0,Español,0.0,Inglés,10.0,4.0,3.0,no,no,yes,Nada,,,,Nada,68.0,yes
103,2024-02-07_13h41.04.986,Unsyncopated_study2,s110,25.0,feminino,right,ESPAÑA,Español,Bachelor degree,no,no,B,1,when,L4,unsyncopated,when,when,103,Online_whenL4//c.bu22.none.wav,nu,ci,ña,sil,re,ñi,ru,sil1,zi,pe,sil2,['-'],,,none,none,,,,bu,3,,,,,,,,,,,,,,,2.0,1.0,Español,0.0,Inglés,10.0,4.0,3.0,no,no,yes,Nada,,,,Nada,68.0,yes
104,2024-02-07_13h41.04.986,Unsyncopated_study2,s110,25.0,feminino,right,ESPAÑA,Español,Bachelor degree,no,no,B,1,when,L4,unsyncopated,when,when,104,Online_whenL4//b.ja0.222.wav,re,ja,da,sil,ci,ru,bo,sil1,bu,lo,sil2,['catch'],[0.6515999999996893],[0.6515999999996893],0.222,no_beat,0.4295999999996893,0.4295999999996893,"[""space""]",ja,2,,,,,,,,,,,,,,,2.0,1.0,Español,0.0,Inglés,10.0,4.0,3.0,no,no,yes,Nada,,,,Nada,68.0,yes
105,2024-02-07_13h41.04.986,Unsyncopated_study2,s110,25.0,feminino,right,ESPAÑA,Español,Bachelor degree,no,no,B,1,when,L4,unsyncopated,when,when,105,Online_whenL4//b.ja2.none.wav,ci,ru,zi,sil,da,de,pe,sil1,re,lo,sil2,['-'],,,none,none,,,,ja,2,,,,,,,,,,,,,,,2.0,1.0,Español,0.0,Inglés,10.0,4.0,3.0,no,no,yes,Nada,,,,Nada,68.0,yes
106,2024-02-07_13h41.04.986,Unsyncopated_study2,s110,25.0,feminino,right,ESPAÑA,Español,Bachelor degree,no,no,B,1,when,L4,unsyncopated,when,when,106,Online_whenL4//b.ja1.none.wav,lo,re,po,sil,bu,de,ña,sil1,da,nu,sil2,['-'],,,none,none,,,,ja,2,,,,,,,,,,,,,,,2.0,1.0,Español,0.0,Inglés,10.0,4.0,3.0,no,no,yes,Nada,,,,Nada,68.0,yes
107,2024-02-07_13h41.04.986,Unsyncopated_study2,s110,25.0,feminino,right,ESPAÑA,Español,Bachelor degree,no,no,B,1,when,L4,unsyncopated,when,when,107,Online_whenL4//b.ja3.none.wav,nu,da,po,sil,ru,zi,bu,sil1,re,ña,sil2,['-'],,,none,none,,,,ja,2,,,,,,,,,,,,,,,2.0,1.0,Español,0.0,Inglés,10.0,4.0,3.0,no,no,yes,Nada,,,,Nada,68.0,yes
108,2024-02-07_13h41.04.986,Unsyncopated_study2,s110,25.0,feminino,right,ESPAÑA,Español,Bachelor degree,no,no,B,1,when,L4,unsyncopated,when,when,108,Online_whenL4//d.pe16.888.wav,lo,bu,zi,sil,pe,ñi,da,sil1,ci,ña,sil2,['catch'],[1.3659000000004653],[1.3659000000004653],0.888,beat,0.4779000000004653,0.4779000000004653,"[""space""]",pe,4,,,,,,,,,,,,,,,2.0,1.0,Español,0.0,Inglés,10.0,4.0,3.0,no,no,yes,Nada,,,,Nada,68.0,yes
109,2024-02-07_13h41.04.986,Unsyncopated_study2,s110,25.0,feminino,right,ESPAÑA,Español,Bachelor degree,no,no,B,1,when,L4,unsyncopated,when,when,109,Online_whenL4//d.pe18.none.wav,zi,re,po,sil,bo,ja,ci,sil1,ru,da,sil2,['-'],,,none,none,,,,pe,4,,,,,,,,,,,,,,,2.0,1.0,Español,0.0,Inglés,10.0,4.0,3.0,no,no,yes,Nada,,,,Nada,68.0,yes
110,2024-02-07_13h41.04.986,Unsyncopated_study2,s110,25.0,feminino,right,ESPAÑA,Español,Bachelor degree,no,no,B,1,when,L4,unsyncopated,when,when,110,Online_whenL4//d.pe19.none.wav,nu,ci,ñi,sil,de,po,ru,sil1,ña,zi,sil2,['-'],,,none,none,,,,pe,4,,,,,,,,,,,,,,,2.0,1.0,Español,0.0,Inglés,10.0,4.0,3.0,no,no,yes,Nada,,,,Nada,68.0,yes
111,2024-02-07_13h41.04.986,Unsyncopated_study2,s110,25.0,feminino,right,ESPAÑA,Español,Bachelor degree,no,no,B,1,when,L4,unsyncopated,when,when,111,Online_whenL4//d.pe17.444.wav,ci,ru,pe,sil,ña,bu,zi,sil1,ñi,nu,sil2,['catch'],[0.8789999999999054],[0.8789999999999054],0.444,no_beat,0.4349999999999054,0.4349999999999054,"[""space""]",pe,4,,,,,,,,,,,,,,,2.0,1.0,Español,0.0,Inglés,10.0,4.0,3.0,no,no,yes,Nada,,,,Nada,68.0,yes
112,2024-02-07_13h41.04.986,Unsyncopated_study2,s110,25.0,feminino,right,ESPAÑA,Español,Bachelor degree,no,no,B,1,when,L4,unsyncopated,when,when,112,Online_whenL4//a.lo33.888.wav,ñi,bu,nu,sil,lo,de,ña,sil1,ci,po,sil2,['catch'],[1.5161000000006197],[1.5161000000006197],0.888,beat,0.6281000000006197,0.6281000000006197,"[""space""]",lo,1,,,,,,,,,,,,,,,2.0,1.0,Español,0.0,Inglés,10.0,4.0,3.0,no,no,yes,Nada,,,,Nada,68.0,yes
113,2024-02-07_13h41.04.986,Unsyncopated_study2,s110,25.0,feminino,right,ESPAÑA,Español,Bachelor degree,no,no,B,1,when,L4,unsyncopated,when,when,113,Online_whenL4//a.lo34.0.wav,lo,po,ña,sil,de,ci,pe,sil1,ñi,nu,sil2,['miss'],,,0.0,beat,,,,lo,1,,,,,,,,,,,,,,,2.0,1.0,Español,0.0,Inglés,10.0,4.0,3.0,no,no,yes,Nada,,,,Nada,68.0,yes
114,2024-02-07_13h41.04.986,Unsyncopated_study2,s110,25.0,feminino,right,ESPAÑA,Español,Bachelor degree,no,no,B,1,when,L4,unsyncopated,when,when,114,Online_whenL4//a.lo32.1776.wav,bu,pe,ru,sil,ñi,po,ci,sil1,lo,ja,sil2,['catch_delay'],[0.9097000000001236],[0.9097000000001236],1.776,beat,0.9097000000001236,0.9097000000001236,,lo,1,,,,,,,,,,,,,,,2.0,1.0,Español,0.0,Inglés,10.0,4.0,3.0,no,no,yes,Nada,,,,Nada,68.0,yes
115,2024-02-07_13h41.04.986,Unsyncopated_study2,s110,25.0,feminino,right,ESPAÑA,Español,Bachelor degree,no,no,B,1,when,L4,unsyncopated,when,when,115,Online_whenL4//a.lo35.none.wav,zi,pe,ru,sil,bu,ñi,ja,sil1,ña,po,sil2,['-'],[0.02170000000012351],[0.02170000000012351],none,none,,,"[""space""]",lo,1,,,,,,,,,,,,,,,2.0,1.0,Español,0.0,Inglés,10.0,4.0,3.0,no,no,yes,Nada,,,,Nada,68.0,yes
116,2024-02-07_13h41.04.986,Unsyncopated_study2,s110,25.0,feminino,right,ESPAÑA,Español,Bachelor degree,no,no,B,1,when,L4,unsyncopated,when,when,116,Online_whenL4//a.lo17.888.wav,ci,de,re,sil,lo,ru,da,sil1,ñi,zi,sil2,['catch'],[2.0874999999999773],[2.0874999999999773],0.888,beat,1.1994999999999774,1.1994999999999774,"[""space""]",lo,1,,,,,,,,,,,,,,,2.0,1.0,Español,0.0,Inglés,10.0,4.0,3.0,no,no,yes,Nada,,,,Nada,68.0,yes
117,2024-02-07_13h41.04.986,Unsyncopated_study2,s110,25.0,feminino,right,ESPAÑA,Español,Bachelor degree,no,no,B,1,when,L4,unsyncopated,when,when,117,Online_whenL4//a.lo16.none.wav,po,bu,re,sil,ja,pe,zi,sil1,da,ña,sil2,['-'],,,none,none,,,,lo,1,,,,,,,,,,,,,,,2.0,1.0,Español,0.0,Inglés,10.0,4.0,3.0,no,no,yes,Nada,,,,Nada,68.0,yes
118,2024-02-07_13h41.04.986,Unsyncopated_study2,s110,25.0,feminino,right,ESPAÑA,Español,Bachelor degree,no,no,B,1,when,L4,unsyncopated,when,when,118,Online_whenL4//a.lo19.0.wav,lo,ru,po,sil,pe,bu,re,sil1,nu,bo,sil2,['catch'],[0.7095000000000482],[0.7095000000000482],0.0,beat,0.7095000000000482,0.7095000000000482,"[""space""]",lo,1,,,,,,,,,,,,,,,2.0,1.0,Español,0.0,Inglés,10.0,4.0,3.0,no,no,yes,Nada,,,,Nada,68.0,yes
119,2024-02-07_13h41.04.986,Unsyncopated_study2,s110,25.0,feminino,right,ESPAÑA,Español,Bachelor degree,no,no,B,1,when,L4,unsyncopated,when,when,119,Online_whenL4//a.lo18.none.wav,re,ñi,de,sil,nu,bo,ña,sil1,ru,zi,sil2,['-'],,,none,none,,,,lo,1,,,,,,,,,,,,,,,2.0,1.0,Español,0.0,Inglés,10.0,4.0,3.0,no,no,yes,Nada,,,,Nada,68.0,yes
120,2024-02-07_13h41.04.986,Unsyncopated_study2,s110,25.0,feminino,right,ESPAÑA,Español,Bachelor degree,no,no,B,1,when,L4,unsyncopated,when,when,120,Online_whenL4//b.ja4.none.wav,ñi,nu,ru,sil,po,de,da,sil1,re,lo,sil2,['-'],,,none,none,,,,ja,2,,,,,,,,,,,,,,,2.0,1.0,Español,0.0,Inglés,10.0,4.0,3.0,no,no,yes,Nada,,,,Nada,68.0,yes
121,2024-02-07_13h41.04.986,Unsyncopated_study2,s110,25.0,feminino,right,ESPAÑA,Español,Bachelor degree,no,no,B,1,when,L4,unsyncopated,when,when,121,Online_whenL4//b.ja7.none.wav,de,bo,zi,sil,ru,pe,da,sil1,po,nu,sil2,['-'],,,none,none,,,,ja,2,,,,,,,,,,,,,,,2.0,1.0,Español,0.0,Inglés,10.0,4.0,3.0,no,no,yes,Nada,,,,Nada,68.0,yes
122,2024-02-07_13h41.04.986,Unsyncopated_study2,s110,25.0,feminino,right,ESPAÑA,Español,Bachelor degree,no,no,B,1,when,L4,unsyncopated,when,when,122,Online_whenL4//b.ja5.none.wav,re,pe,ña,sil,bu,po,ci,sil1,lo,nu,sil2,['-'],,,none,none,,,,ja,2,,,,,,,,,,,,,,,2.0,1.0,Español,0.0,Inglés,10.0,4.0,3.0,no,no,yes,Nada,,,,Nada,68.0,yes
123,2024-02-07_13h41.04.986,Unsyncopated_study2,s110,25.0,feminino,right,ESPAÑA,Español,Bachelor degree,no,no,B,1,when,L4,unsyncopated,when,when,123,Online_whenL4//b.ja6.1332.wav,pe,ña,de,sil,bo,ci,ja,sil1,lo,po,sil2,['catch'],[2.0367999999998574],[2.0367999999998574],1.332,no_beat,0.7047999999998573,0.7047999999998573,"[""space""]",ja,2,,,,,,,,,,,,,,,2.0,1.0,Español,0.0,Inglés,10.0,4.0,3.0,no,no,yes,Nada,,,,Nada,68.0,yes
124,2024-02-07_13h41.04.986,Unsyncopated_study2,s110,25.0,feminino,right,ESPAÑA,Español,Bachelor degree,no,no,B,1,when,L4,unsyncopated,when,when,124,Online_whenL4//d.pe14.none.wav,po,ña,bu,sil,de,ru,nu,sil1,ci,zi,sil2,['-'],,,none,none,,,,pe,4,,,,,,,,,,,,,,,2.0,1.0,Español,0.0,Inglés,10.0,4.0,3.0,no,no,yes,Nada,,,,Nada,68.0,yes
125,2024-02-07_13h41.04.986,Unsyncopated_study2,s110,25.0,feminino,right,ESPAÑA,Español,Bachelor degree,no,no,B,1,when,L4,unsyncopated,when,when,125,Online_whenL4//d.pe15.888.wav,po,lo,de,sil,pe,ja,bo,sil1,ña,bu,sil2,['catch'],[1.4165999999996757],[1.4165999999996757],0.888,beat,0.5285999999996757,0.5285999999996757,"[""space""]",pe,4,,,,,,,,,,,,,,,2.0,1.0,Español,0.0,Inglés,10.0,4.0,3.0,no,no,yes,Nada,,,,Nada,68.0,yes
126,2024-02-07_13h41.04.986,Unsyncopated_study2,s110,25.0,feminino,right,ESPAÑA,Español,Bachelor degree,no,no,B,1,when,L4,unsyncopated,when,when,126,Online_whenL4//d.pe13.none.wav,da,ja,nu,sil,ru,ci,ñi,sil1,bu,po,sil2,['-'],,,none,none,,,,pe,4,,,,,,,,,,,,,,,2.0,1.0,Español,0.0,Inglés,10.0,4.0,3.0,no,no,yes,Nada,,,,Nada,68.0,yes
127,2024-02-07_13h41.04.986,Unsyncopated_study2,s110,25.0,feminino,right,ESPAÑA,Español,Bachelor degree,no,no,B,1,when,L4,unsyncopated,when,when,127,Online_whenL4//d.pe12.none.wav,ru,zi,ñi,sil,bu,de,ña,sil1,lo,re,sil2,['-'],,,none,none,,,,pe,4,,,,,,,,,,,,,,,2.0,1.0,Español,0.0,Inglés,10.0,4.0,3.0,no,no,yes,Nada,,,,Nada,68.0,yes
128,2024-02-07_13h41.04.986,Unsyncopated_study2,s110,25.0,feminino,right,ESPAÑA,Español,Bachelor degree,no,no,B,1,when,L4,unsyncopated,when,when,128,Online_whenL4//b.ja27.444.wav,bu,ñi,ja,sil,ci,ru,ña,sil1,bo,zi,sil2,['catch'],[0.8392000000002326],[0.8392000000002326],0.444,no_beat,0.3952000000002326,0.3952000000002326,"[""space""]",ja,2,,,,,,,,,,,,,,,2.0,1.0,Español,0.0,Inglés,10.0,4.0,3.0,no,no,yes,Nada,,,,Nada,68.0,yes
129,2024-02-07_13h41.04.986,Unsyncopated_study2,s110,25.0,feminino,right,ESPAÑA,Español,Bachelor degree,no,no,B,1,when,L4,unsyncopated,when,when,129,Online_whenL4//b.ja26.none.wav,bu,ru,de,sil,zi,bo,re,sil1,ci,nu,sil2,['-'],,,none,none,,,,ja,2,,,,,,,,,,,,,,,2.0,1.0,Español,0.0,Inglés,10.0,4.0,3.0,no,no,yes,Nada,,,,Nada,68.0,yes
130,2024-02-07_13h41.04.986,Unsyncopated_study2,s110,25.0,feminino,right,ESPAÑA,Español,Bachelor degree,no,no,B,1,when,L4,unsyncopated,when,when,130,Online_whenL4//b.ja25.none.wav,ru,zi,bo,sil,bu,nu,po,sil1,ñi,re,sil2,['-'],,,none,none,,,,ja,2,,,,,,,,,,,,,,,2.0,1.0,Español,0.0,Inglés,10.0,4.0,3.0,no,no,yes,Nada,,,,Nada,68.0,yes
131,2024-02-07_13h41.04.986,Unsyncopated_study2,s110,25.0,feminino,right,ESPAÑA,Español,Bachelor degree,no,no,B,1,when,L4,unsyncopated,when,when,131,Online_whenL4//b.ja24.444.wav,bu,nu,ja,sil,ci,pe,de,sil1,po,ña,sil2,['catch'],[0.9781000000006088],[0.9781000000006088],0.444,no_beat,0.5341000000006089,0.5341000000006089,"[""space""]",ja,2,,,,,,,,,,,,,,,2.0,1.0,Español,0.0,Inglés,10.0,4.0,3.0,no,no,yes,Nada,,,,Nada,68.0,yes
132,2024-02-07_13h41.04.986,Unsyncopated_study2,s110,25.0,feminino,right,ESPAÑA,Español,Bachelor degree,no,no,B,1,when,L4,unsyncopated,when,when,132,Online_whenL4//d.pe2.none.wav,ñi,ña,ru,sil,nu,da,po,sil1,de,ja,sil2,['-'],,,none,none,,,,pe,4,,,,,,,,,,,,,,,2.0,1.0,Español,0.0,Inglés,10.0,4.0,3.0,no,no,yes,Nada,,,,Nada,68.0,yes
133,2024-02-07_13h41.04.986,Unsyncopated_study2,s110,25.0,feminino,right,ESPAÑA,Español,Bachelor degree,no,no,B,1,when,L4,unsyncopated,when,when,133,Online_whenL4//d.pe3.888.wav,nu,bo,de,sil,pe,bu,po,sil1,da,zi,sil2,['catch'],[1.469000000000051],[1.469000000000051],0.888,beat,0.5810000000000509,0.5810000000000509,"[""space""]",pe,4,,,,,,,,,,,,,,,2.0,1.0,Español,0.0,Inglés,10.0,4.0,3.0,no,no,yes,Nada,,,,Nada,68.0,yes
134,2024-02-07_13h41.04.986,Unsyncopated_study2,s110,25.0,feminino,right,ESPAÑA,Español,Bachelor degree,no,no,B,1,when,L4,unsyncopated,when,when,134,Online_whenL4//d.pe0.none.wav,ja,zi,ñi,sil,ru,ci,ña,sil1,da,bu,sil2,['-'],,,none,none,,,,pe,4,,,,,,,,,,,,,,,2.0,1.0,Español,0.0,Inglés,10.0,4.0,3.0,no,no,yes,Nada,,,,Nada,68.0,yes
135,2024-02-07_13h41.04.986,Unsyncopated_study2,s110,25.0,feminino,right,ESPAÑA,Español,Bachelor degree,no,no,B,1,when,L4,unsyncopated,when,when,135,Online_whenL4//d.pe1.222.wav,bo,pe,bu,sil,ja,ña,ru,sil1,ñi,nu,sil2,['catch'],[1.1172999999997728],[1.1172999999997728],0.222,no_beat,0.8952999999997728,0.8952999999997728,"[""space""]",pe,4,,,,,,,,,,,,,,,2.0,1.0,Español,0.0,Inglés,10.0,4.0,3.0,no,no,yes,Nada,,,,Nada,68.0,yes
136,2024-02-07_13h41.04.986,Unsyncopated_study2,s110,25.0,feminino,right,ESPAÑA,Español,Bachelor degree,no,no,B,2,conjunction_un,L2,unsyncopated,s2,r2,0,Online_conjL2_un//c.cha.me4.none.none.wav,mi,ñu,su,sil,fe,bi,to,sil1,ra,ñi,sil2,['-'],,,none,none,,,,me,3,,,,,,,,,,,,,,,2.0,1.0,Español,0.0,Inglés,10.0,4.0,3.0,no,no,yes,Nada,,,,Nada,68.0,yes
137,2024-02-07_13h41.04.986,Unsyncopated_study2,s110,25.0,feminino,right,ESPAÑA,Español,Bachelor degree,no,no,B,2,conjunction_un,L2,unsyncopated,s2,r1,1,Online_conjL2_un//c.cha.me5.1332.0.wav,me,ñi,mi,sil,go,to,cha,sil1,du,su,sil2,['catch'],[0.5251000000005206],[0.5251000000005206],0.0,beat,0.5251000000005206,0.5251000000005206,"[""space""]",me,3,,,,,,,,,,,,,,,2.0,1.0,Español,0.0,Inglés,10.0,4.0,3.0,no,no,yes,Nada,,,,Nada,68.0,yes
138,2024-02-07_13h41.04.986,Unsyncopated_study2,s110,25.0,feminino,right,ESPAÑA,Español,Bachelor degree,no,no,B,2,conjunction_un,L2,unsyncopated,s2,r2,2,Online_conjL2_un//c.cha.me6.0.222.wav,cha,me,si,sil,fe,ba,te,sil1,ra,to,sil2,['catch'],[0.6811999999993077],[0.6811999999993077],0.222,no_beat,0.4591999999993077,0.4591999999993077,"[""space""]",me,3,,,,,,,,,,,,,,,2.0,1.0,Español,0.0,Inglés,10.0,4.0,3.0,no,no,yes,Nada,,,,Nada,68.0,yes
139,2024-02-07_13h41.04.986,Unsyncopated_study2,s110,25.0,feminino,right,ESPAÑA,Español,Bachelor degree,no,no,B,2,conjunction_un,L2,unsyncopated,s1,r2,3,Online_conjL2_un//c.cha.me7.none.none.wav,fe,su,si,sil,ra,te,mi,sil1,ba,to,sil2,['-'],,,none,none,,,,me,3,,,,,,,,,,,,,,,2.0,1.0,Español,0.0,Inglés,10.0,4.0,3.0,no,no,yes,Nada,,,,Nada,68.0,yes
140,2024-02-07_13h41.04.986,Unsyncopated_study2,s110,25.0,feminino,right,ESPAÑA,Español,Bachelor degree,no,no,B,2,conjunction_un,L2,unsyncopated,s1,r1,4,Online_conjL2_un//a.go.du19.0.888.wav,go,ba,si,sil,du,su,mi,sil1,ñi,cha,sil2,['catch'],[1.0642999999997755],[1.0642999999997755],0.0,beat,1.0642999999997755,1.0642999999997755,"[""space""]",go,1,,,,,,,,,,,,,,,2.0,1.0,Español,0.0,Inglés,10.0,4.0,3.0,no,no,yes,Nada,,,,Nada,68.0,yes
141,2024-02-07_13h41.04.986,Unsyncopated_study2,s110,25.0,feminino,right,ESPAÑA,Español,Bachelor degree,no,no,B,2,conjunction_un,L2,unsyncopated,s1,r2,5,Online_conjL2_un//a.go.du17.none.none.wav,fe,mi,su,sil,ra,me,bi,sil1,te,si,sil2,['-'],,,none,none,,,,go,1,,,,,,,,,,,,,,,2.0,1.0,Español,0.0,Inglés,10.0,4.0,3.0,no,no,yes,Nada,,,,Nada,68.0,yes
142,2024-02-07_13h41.04.986,Unsyncopated_study2,s110,25.0,feminino,right,ESPAÑA,Español,Bachelor degree,no,no,B,2,conjunction_un,L2,unsyncopated,s2,r1,6,Online_conjL2_un//a.go.du16.888.1776.wav,cha,me,ba,sil,go,to,si,sil1,du,ñi,sil2,['catch'],[1.413100000000668],[1.413100000000668],0.888,beat,0.5251000000006679,0.5251000000006679,"[""space""]",go,1,,,,,,,,,,,,,,,2.0,1.0,Español,0.0,Inglés,10.0,4.0,3.0,no,no,yes,Nada,,,,Nada,68.0,yes
143,2024-02-07_13h41.04.986,Unsyncopated_study2,s110,25.0,feminino,right,ESPAÑA,Español,Bachelor degree,no,no,B,2,conjunction_un,L2,unsyncopated,s1,r1,7,Online_conjL2_un//a.go.du18.0.888.wav,go,me,si,sil,du,ñi,ba,sil1,su,to,sil2,['catch'],[0.8930000000000291],[0.8930000000000291],0.0,beat,0.8930000000000291,0.8930000000000291,"[""space""]",go,1,,,,,,,,,,,,,,,2.0,1.0,Español,0.0,Inglés,10.0,4.0,3.0,no,no,yes,Nada,,,,Nada,68.0,yes
144,2024-02-07_13h41.04.986,Unsyncopated_study2,s110,25.0,feminino,right,ESPAÑA,Español,Bachelor degree,no,no,B,2,conjunction_un,L2,unsyncopated,s2,r2,8,Online_conjL2_un//c.cha.me16.none.none.wav,te,mi,si,sil,fe,ñi,bi,sil1,ra,ñu,sil2,['-'],,,none,none,,,,me,3,,,,,,,,,,,,,,,2.0,1.0,Español,0.0,Inglés,10.0,4.0,3.0,no,no,yes,Nada,,,,Nada,68.0,yes
145,2024-02-07_13h41.04.986,Unsyncopated_study2,s110,25.0,feminino,right,ESPAÑA,Español,Bachelor degree,no,no,B,2,conjunction_un,L2,unsyncopated,s2,r1,9,Online_conjL2_un//c.cha.me19.none.none.wav,bi,mi,to,sil,go,ñu,si,sil1,du,ñi,sil2,['-'],,,none,none,,,,me,3,,,,,,,,,,,,,,,2.0,1.0,Español,0.0,Inglés,10.0,4.0,3.0,no,no,yes,Nada,,,,Nada,68.0,yes
146,2024-02-07_13h41.04.986,Unsyncopated_study2,s110,25.0,feminino,right,ESPAÑA,Español,Bachelor degree,no,no,B,2,conjunction_un,L2,unsyncopated,s2,r1,10,Online_conjL2_un//c.cha.me17.1332.444.wav,bi,ba,me,sil,go,ñi,cha,sil1,du,si,sil2,['catch'],[1.233699999999999],[1.233699999999999],0.444,no_beat,0.789699999999999,0.789699999999999,"[""space""]",me,3,,,,,,,,,,,,,,,2.0,1.0,Español,0.0,Inglés,10.0,4.0,3.0,no,no,yes,Nada,,,,Nada,68.0,yes
147,2024-02-07_13h41.04.986,Unsyncopated_study2,s110,25.0,feminino,right,ESPAÑA,Español,Bachelor degree,no,no,B,2,conjunction_un,L2,unsyncopated,s2,r1,11,Online_conjL2_un//c.cha.me18.none.none.wav,ba,su,mi,sil,go,ñu,te,sil1,du,ñi,sil2,['-'],,,none,none,,,,me,3,,,,,,,,,,,,,,,2.0,1.0,Español,0.0,Inglés,10.0,4.0,3.0,no,no,yes,Nada,,,,Nada,68.0,yes
148,2024-02-07_13h41.04.986,Unsyncopated_study2,s110,25.0,feminino,right,ESPAÑA,Español,Bachelor degree,no,no,B,2,conjunction_un,L2,unsyncopated,s1,r2,12,Online_conjL2_un//b.fe.ra9.0.888.wav,fe,ñu,cha,sil,ra,to,bi,sil1,te,ba,sil2,['catch'],[1.4067999999997483],[1.4067999999997483],0.888,beat,0.5187999999997482,0.5187999999997482,"[""space""]",ra,2,,,,,,,,,,,,,,,2.0,1.0,Español,0.0,Inglés,10.0,4.0,3.0,no,no,yes,Nada,,,,Nada,68.0,yes
149,2024-02-07_13h41.04.986,Unsyncopated_study2,s110,25.0,feminino,right,ESPAÑA,Español,Bachelor degree,no,no,B,2,conjunction_un,L2,unsyncopated,s1,r2,13,Online_conjL2_un//b.fe.ra11.0.888.wav,fe,bi,mi,sil,ra,te,su,sil1,cha,ba,sil2,['catch'],[1.4657999999997173],[1.4657999999997173],0.888,beat,0.5777999999997173,0.5777999999997173,"[""space""]",ra,2,,,,,,,,,,,,,,,2.0,1.0,Español,0.0,Inglés,10.0,4.0,3.0,no,no,yes,Nada,,,,Nada,68.0,yes
150,2024-02-07_13h41.04.986,Unsyncopated_study2,s110,25.0,feminino,right,ESPAÑA,Español,Bachelor degree,no,no,B,2,conjunction_un,L2,unsyncopated,s1,r2,14,Online_conjL2_un//b.fe.ra10.0.888.wav,fe,ñu,cha,sil,ra,mi,bi,sil1,me,si,sil2,['catch'],[1.4802999999999429],[1.4802999999999429],0.888,beat,0.5922999999999429,0.5922999999999429,"[""space""]",ra,2,,,,,,,,,,,,,,,2.0,1.0,Español,0.0,Inglés,10.0,4.0,3.0,no,no,yes,Nada,,,,Nada,68.0,yes
151,2024-02-07_13h41.04.986,Unsyncopated_study2,s110,25.0,feminino,right,ESPAÑA,Español,Bachelor degree,no,no,B,2,conjunction_un,L2,unsyncopated,s2,r1,15,Online_conjL2_un//b.fe.ra8.none.none.wav,si,to,mi,sil,go,cha,me,sil1,du,bi,sil2,['-'],,,none,none,,,,ra,2,,,,,,,,,,,,,,,2.0,1.0,Español,0.0,Inglés,10.0,4.0,3.0,no,no,yes,Nada,,,,Nada,68.0,yes
152,2024-02-07_13h41.04.986,Unsyncopated_study2,s110,25.0,feminino,right,ESPAÑA,Español,Bachelor degree,no,no,B,2,conjunction_un,L2,unsyncopated,s2,r2,16,Online_conjL2_un//a.go.du7.none.none.wav,to,ñi,su,sil,fe,si,ñu,sil1,ra,cha,sil2,['-'],,,none,none,,,,go,1,,,,,,,,,,,,,,,2.0,1.0,Español,0.0,Inglés,10.0,4.0,3.0,no,no,yes,Nada,,,,Nada,68.0,yes
153,2024-02-07_13h41.04.986,Unsyncopated_study2,s110,25.0,feminino,right,ESPAÑA,Español,Bachelor degree,no,no,B,2,conjunction_un,L2,unsyncopated,s2,r2,17,Online_conjL2_un//a.go.du6.none.none.wav,ñu,ba,bi,sil,fe,me,su,sil1,ra,to,sil2,['-'],,,none,none,,,,go,1,,,,,,,,,,,,,,,2.0,1.0,Español,0.0,Inglés,10.0,4.0,3.0,no,no,yes,Nada,,,,Nada,68.0,yes
154,2024-02-07_13h41.04.986,Unsyncopated_study2,s110,25.0,feminino,right,ESPAÑA,Español,Bachelor degree,no,no,B,2,conjunction_un,L2,unsyncopated,s2,r2,18,Online_conjL2_un//a.go.du4.none.none.wav,ñi,ba,cha,sil,fe,bi,ñu,sil1,ra,mi,sil2,['-'],,,none,none,,,,go,1,,,,,,,,,,,,,,,2.0,1.0,Español,0.0,Inglés,10.0,4.0,3.0,no,no,yes,Nada,,,,Nada,68.0,yes
155,2024-02-07_13h41.04.986,Unsyncopated_study2,s110,25.0,feminino,right,ESPAÑA,Español,Bachelor degree,no,no,B,2,conjunction_un,L2,unsyncopated,s1,r2,19,Online_conjL2_un//a.go.du5.none.none.wav,fe,bi,me,sil,ra,to,si,sil1,ñi,ñu,sil2,['-'],,,none,none,,,,go,1,,,,,,,,,,,,,,,2.0,1.0,Español,0.0,Inglés,10.0,4.0,3.0,no,no,yes,Nada,,,,Nada,68.0,yes
156,2024-02-07_13h41.04.986,Unsyncopated_study2,s110,25.0,feminino,right,ESPAÑA,Español,Bachelor degree,no,no,B,2,conjunction_un,L2,unsyncopated,s2,r1,20,Online_conjL2_un//b.fe.ra27.none.none.wav,mi,si,me,sil,go,ñu,to,sil1,du,te,sil2,['-'],,,none,none,,,,ra,2,,,,,,,,,,,,,,,2.0,1.0,Español,0.0,Inglés,10.0,4.0,3.0,no,no,yes,Nada,,,,Nada,68.0,yes
157,2024-02-07_13h41.04.986,Unsyncopated_study2,s110,25.0,feminino,right,ESPAÑA,Español,Bachelor degree,no,no,B,2,conjunction_un,L2,unsyncopated,s1,r1,21,Online_conjL2_un//b.fe.ra24.none.none.wav,go,su,bi,sil,du,me,ñi,sil1,mi,cha,sil2,['-'],,,none,none,,,,ra,2,,,,,,,,,,,,,,,2.0,1.0,Español,0.0,Inglés,10.0,4.0,3.0,no,no,yes,Nada,,,,Nada,68.0,yes
158,2024-02-07_13h41.04.986,Unsyncopated_study2,s110,25.0,feminino,right,ESPAÑA,Español,Bachelor degree,no,no,B,2,conjunction_un,L2,unsyncopated,s2,r2,22,Online_conjL2_un//b.fe.ra26.888.1776.wav,ba,su,si,sil,fe,ñu,mi,sil1,ra,ñi,sil2,['catch'],[2.25200000000018],[2.25200000000018],1.776,beat,0.47600000000018,0.47600000000018,"[""space""]",ra,2,,,,,,,,,,,,,,,2.0,1.0,Español,0.0,Inglés,10.0,4.0,3.0,no,no,yes,Nada,,,,Nada,68.0,yes
159,2024-02-07_13h41.04.986,Unsyncopated_study2,s110,25.0,feminino,right,ESPAÑA,Español,Bachelor degree,no,no,B,2,conjunction_un,L2,unsyncopated,s2,r2,23,Online_conjL2_un//b.fe.ra25.888.1776.wav,me,bi,si,sil,fe,su,te,sil1,ra,cha,sil2,['catch'],[2.535400000000436],[2.535400000000436],1.776,beat,0.7594000000004362,0.7594000000004362,"[""space""]",ra,2,,,,,,,,,,,,,,,2.0,1.0,Español,0.0,Inglés,10.0,4.0,3.0,no,no,yes,Nada,,,,Nada,68.0,yes
160,2024-02-07_13h41.04.986,Unsyncopated_study2,s110,25.0,feminino,right,ESPAÑA,Español,Bachelor degree,no,no,B,2,conjunction_un,L2,unsyncopated,s2,r2,24,Online_conjL2_un//d.si.ñu9.none.none.wav,bi,cha,to,sil,fe,te,ba,sil1,ra,me,sil2,['-'],,,none,none,,,,ñu,4,,,,,,,,,,,,,,,2.0,1.0,Español,0.0,Inglés,10.0,4.0,3.0,no,no,yes,Nada,,,,Nada,68.0,yes
161,2024-02-07_13h41.04.986,Unsyncopated_study2,s110,25.0,feminino,right,ESPAÑA,Español,Bachelor degree,no,no,B,2,conjunction_un,L2,unsyncopated,s2,r1,25,Online_conjL2_un//d.si.ñu11.none.none.wav,ba,to,bi,sil,go,mi,te,sil1,du,su,sil2,['-'],,,none,none,,,,ñu,4,,,,,,,,,,,,,,,2.0,1.0,Español,0.0,Inglés,10.0,4.0,3.0,no,no,yes,Nada,,,,Nada,68.0,yes
162,2024-02-07_13h41.04.986,Unsyncopated_study2,s110,25.0,feminino,right,ESPAÑA,Español,Bachelor degree,no,no,B,2,conjunction_un,L2,unsyncopated,s1,r2,26,Online_conjL2_un//d.si.ñu10.none.none.wav,fe,ba,bi,sil,ra,te,mi,sil1,me,to,sil2,['-'],,,none,none,,,,ñu,4,,,,,,,,,,,,,,,2.0,1.0,Español,0.0,Inglés,10.0,4.0,3.0,no,no,yes,Nada,,,,Nada,68.0,yes
163,2024-02-07_13h41.04.986,Unsyncopated_study2,s110,25.0,feminino,right,ESPAÑA,Español,Bachelor degree,no,no,B,2,conjunction_un,L2,unsyncopated,s2,r1,27,Online_conjL2_un//d.si.ñu8.0.222.wav,si,ñu,bi,sil,go,me,to,sil1,du,ba,sil2,"['catch', 'false alarm']","[1.1012000000000626, 2.2185999999996966]",[1.1012000000000626],0.222,no_beat,0.8792000000000626,0.8792000000000626,"[""space"",""space""]",ñu,4,,,,,,,,,,,,,,,2.0,1.0,Español,0.0,Inglés,10.0,4.0,3.0,no,no,yes,Nada,,,,Nada,68.0,yes
164,2024-02-07_13h41.04.986,Unsyncopated_study2,s110,25.0,feminino,right,ESPAÑA,Español,Bachelor degree,no,no,B,2,conjunction_un,L2,unsyncopated,s2,r2,28,Online_conjL2_un//d.si.ñu5.none.none.wav,bi,ñi,mi,sil,fe,te,ba,sil1,ra,to,sil2,['false alarm'],[1.1217999999996664],[1.1217999999996664],none,none,,,"[""space""]",ñu,4,,,,,,,,,,,,,,,2.0,1.0,Español,0.0,Inglés,10.0,4.0,3.0,no,no,yes,Nada,,,,Nada,68.0,yes
165,2024-02-07_13h41.04.986,Unsyncopated_study2,s110,25.0,feminino,right,ESPAÑA,Español,Bachelor degree,no,no,B,2,conjunction_un,L2,unsyncopated,s1,r1,29,Online_conjL2_un//d.si.ñu6.444.1110.wav,go,cha,si,sil,du,ñu,ba,sil1,me,to,sil2,['catch'],[1.6145000000001346],[1.6145000000001346],1.11,no_beat,0.5045000000001345,0.5045000000001345,"[""space""]",ñu,4,,,,,,,,,,,,,,,2.0,1.0,Español,0.0,Inglés,10.0,4.0,3.0,no,no,yes,Nada,,,,Nada,68.0,yes
166,2024-02-07_13h41.04.986,Unsyncopated_study2,s110,25.0,feminino,right,ESPAÑA,Español,Bachelor degree,no,no,B,2,conjunction_un,L2,unsyncopated,s1,r1,30,Online_conjL2_un//d.si.ñu7.none.none.wav,go,ñi,mi,sil,du,te,ba,sil1,su,to,sil2,['-'],,,none,none,,,,ñu,4,,,,,,,,,,,,,,,2.0,1.0,Español,0.0,Inglés,10.0,4.0,3.0,no,no,yes,Nada,,,,Nada,68.0,yes
167,2024-02-07_13h41.04.986,Unsyncopated_study2,s110,25.0,feminino,right,ESPAÑA,Español,Bachelor degree,no,no,B,2,conjunction_un,L2,unsyncopated,s1,r1,31,Online_conjL2_un//d.si.ñu4.1332.444.wav,go,me,ñu,sil,du,cha,si,sil1,bi,to,sil2,['miss'],,,0.444,no_beat,,,,ñu,4,,,,,,,,,,,,,,,2.0,1.0,Español,0.0,Inglés,10.0,4.0,3.0,no,no,yes,Nada,,,,Nada,68.0,yes
168,2024-02-07_13h41.04.986,Unsyncopated_study2,s110,25.0,feminino,right,ESPAÑA,Español,Bachelor degree,no,no,B,2,conjunction_un,L2,unsyncopated,s2,r2,32,Online_conjL2_un//b.fe.ra15.888.1776.wav,si,me,to,sil,fe,su,ba,sil1,ra,bi,sil2,['catch'],[2.2062999999998283],[2.2062999999998283],1.776,beat,0.4302999999998282,0.4302999999998282,"[""space""]",ra,2,,,,,,,,,,,,,,,2.0,1.0,Español,0.0,Inglés,10.0,4.0,3.0,no,no,yes,Nada,,,,Nada,68.0,yes
169,2024-02-07_13h41.04.986,Unsyncopated_study2,s110,25.0,feminino,right,ESPAÑA,Español,Bachelor degree,no,no,B,2,conjunction_un,L2,unsyncopated,s2,r1,33,Online_conjL2_un//b.fe.ra13.none.none.wav,ñu,bi,su,sil,go,mi,ba,sil1,du,cha,sil2,['-'],,,none,none,,,,ra,2,,,,,,,,,,,,,,,2.0,1.0,Español,0.0,Inglés,10.0,4.0,3.0,no,no,yes,Nada,,,,Nada,68.0,yes
170,2024-02-07_13h41.04.986,Unsyncopated_study2,s110,25.0,feminino,right,ESPAÑA,Español,Bachelor degree,no,no,B,2,conjunction_un,L2,unsyncopated,s1,r1,34,Online_conjL2_un//b.fe.ra12.none.none.wav,go,ñi,ba,sil,du,me,si,sil1,cha,to,sil2,['-'],,,none,none,,,,ra,2,,,,,,,,,,,,,,,2.0,1.0,Español,0.0,Inglés,10.0,4.0,3.0,no,no,yes,Nada,,,,Nada,68.0,yes
171,2024-02-07_13h41.04.986,Unsyncopated_study2,s110,25.0,feminino,right,ESPAÑA,Español,Bachelor degree,no,no,B,2,conjunction_un,L2,unsyncopated,s1,r2,35,Online_conjL2_un//b.fe.ra14.0.888.wav,fe,si,ñu,sil,ra,mi,to,sil1,me,bi,sil2,['catch'],[1.609400000000278],[1.609400000000278],0.888,beat,0.7214000000002779,0.7214000000002779,"[""space""]",ra,2,,,,,,,,,,,,,,,2.0,1.0,Español,0.0,Inglés,10.0,4.0,3.0,no,no,yes,Nada,,,,Nada,68.0,yes
172,2024-02-07_13h41.04.986,Unsyncopated_study2,s110,25.0,feminino,right,ESPAÑA,Español,Bachelor degree,no,no,B,2,conjunction_un,L2,unsyncopated,s1,r2,36,Online_conjL2_un//c.cha.me2.1776.444.wav,fe,su,me,sil,ra,mi,ba,sil1,cha,ñu,sil2,['catch'],[0.9983999999994921],[0.9983999999994921],0.444,no_beat,0.5543999999994922,0.5543999999994922,"[""space""]",me,3,,,,,,,,,,,,,,,2.0,1.0,Español,0.0,Inglés,10.0,4.0,3.0,no,no,yes,Nada,,,,Nada,68.0,yes
173,2024-02-07_13h41.04.986,Unsyncopated_study2,s110,25.0,feminino,right,ESPAÑA,Español,Bachelor degree,no,no,B,2,conjunction_un,L2,unsyncopated,s1,r1,37,Online_conjL2_un//c.cha.me3.1776.1110.wav,go,mi,te,sil,du,me,bi,sil1,cha,su,sil2,['catch'],[1.8176999999991494],[1.8176999999991494],1.11,no_beat,0.7076999999991493,0.7076999999991493,"[""space""]",me,3,,,,,,,,,,,,,,,2.0,1.0,Español,0.0,Inglés,10.0,4.0,3.0,no,no,yes,Nada,,,,Nada,68.0,yes
174,2024-02-07_13h41.04.986,Unsyncopated_study2,s110,25.0,feminino,right,ESPAÑA,Español,Bachelor degree,no,no,B,2,conjunction_un,L2,unsyncopated,s2,r2,38,Online_conjL2_un//c.cha.me0.none.none.wav,si,mi,ba,sil,fe,su,te,sil1,ra,ñi,sil2,['-'],,,none,none,,,,me,3,,,,,,,,,,,,,,,2.0,1.0,Español,0.0,Inglés,10.0,4.0,3.0,no,no,yes,Nada,,,,Nada,68.0,yes
175,2024-02-07_13h41.04.986,Unsyncopated_study2,s110,25.0,feminino,right,ESPAÑA,Español,Bachelor degree,no,no,B,2,conjunction_un,L2,unsyncopated,s1,r1,39,Online_conjL2_un//c.cha.me1.none.none.wav,go,ba,mi,sil,du,ñi,ñu,sil1,bi,si,sil2,['-'],,,none,none,,,,me,3,,,,,,,,,,,,,,,2.0,1.0,Español,0.0,Inglés,10.0,4.0,3.0,no,no,yes,Nada,,,,Nada,68.0,yes
176,2024-02-07_13h41.04.986,Unsyncopated_study2,s110,25.0,feminino,right,ESPAÑA,Español,Bachelor degree,no,no,B,2,conjunction_un,L2,unsyncopated,s2,r2,40,Online_conjL2_un//a.go.du26.none.none.wav,mi,bi,ñi,sil,fe,cha,te,sil1,ra,su,sil2,['-'],,,none,none,,,,go,1,,,,,,,,,,,,,,,2.0,1.0,Español,0.0,Inglés,10.0,4.0,3.0,no,no,yes,Nada,,,,Nada,68.0,yes
177,2024-02-07_13h41.04.986,Unsyncopated_study2,s110,25.0,feminino,right,ESPAÑA,Español,Bachelor degree,no,no,B,2,conjunction_un,L2,unsyncopated,s2,r1,41,Online_conjL2_un//a.go.du27.888.1776.wav,ñu,ba,bi,sil,go,si,mi,sil1,du,te,sil2,['catch'],[1.6862999999998465],[1.6862999999998465],0.888,beat,0.7982999999998465,0.7982999999998465,"[""space""]",go,1,,,,,,,,,,,,,,,2.0,1.0,Español,0.0,Inglés,10.0,4.0,3.0,no,no,yes,Nada,,,,Nada,68.0,yes
178,2024-02-07_13h41.04.986,Unsyncopated_study2,s110,25.0,feminino,right,ESPAÑA,Español,Bachelor degree,no,no,B,2,conjunction_un,L2,unsyncopated,s1,r1,42,Online_conjL2_un//a.go.du24.0.888.wav,go,si,bi,sil,du,to,me,sil1,ñi,ba,sil2,['miss'],,,0.0,beat,,,,go,1,,,,,,,,,,,,,,,2.0,1.0,Español,0.0,Inglés,10.0,4.0,3.0,no,no,yes,Nada,,,,Nada,68.0,yes
179,2024-02-07_13h41.04.986,Unsyncopated_study2,s110,25.0,feminino,right,ESPAÑA,Español,Bachelor degree,no,no,B,2,conjunction_un,L2,unsyncopated,s2,r2,43,Online_conjL2_un//a.go.du25.none.none.wav,mi,ñu,ba,sil,fe,bi,to,sil1,ra,si,sil2,['-'],,,none,none,,,,go,1,,,,,,,,,,,,,,,2.0,1.0,Español,0.0,Inglés,10.0,4.0,3.0,no,no,yes,Nada,,,,Nada,68.0,yes
180,2024-02-07_13h41.04.986,Unsyncopated_study2,s110,25.0,feminino,right,ESPAÑA,Español,Bachelor degree,no,no,B,2,conjunction_un,L2,unsyncopated,s1,r1,44,Online_conjL2_un//b.fe.ra1.none.none.wav,go,te,su,sil,du,mi,ba,sil1,si,me,sil2,['false alarm'],[1.7397000000003118],[1.7397000000003118],none,none,,,"[""space""]",ra,2,,,,,,,,,,,,,,,2.0,1.0,Español,0.0,Inglés,10.0,4.0,3.0,no,no,yes,Nada,,,,Nada,68.0,yes
181,2024-02-07_13h41.04.986,Unsyncopated_study2,s110,25.0,feminino,right,ESPAÑA,Español,Bachelor degree,no,no,B,2,conjunction_un,L2,unsyncopated,s1,r1,45,Online_conjL2_un//b.fe.ra3.none.none.wav,go,bi,to,sil,du,me,ba,sil1,su,ñi,sil2,['-'],,,none,none,,,,ra,2,,,,,,,,,,,,,,,2.0,1.0,Español,0.0,Inglés,10.0,4.0,3.0,no,no,yes,Nada,,,,Nada,68.0,yes
182,2024-02-07_13h41.04.986,Unsyncopated_study2,s110,25.0,feminino,right,ESPAÑA,Español,Bachelor degree,no,no,B,2,conjunction_un,L2,unsyncopated,s2,r2,46,Online_conjL2_un//b.fe.ra2.888.1776.wav,bi,te,mi,sil,fe,ñu,si,sil1,ra,ba,sil2,['catch_delay'],[0.9407000000001864],[0.9407000000001864],1.776,beat,0.9407000000001864,0.9407000000001864,,ra,2,,,,,,,,,,,,,,,2.0,1.0,Español,0.0,Inglés,10.0,4.0,3.0,no,no,yes,Nada,,,,Nada,68.0,yes
183,2024-02-07_13h41.04.986,Unsyncopated_study2,s110,25.0,feminino,right,ESPAÑA,Español,Bachelor degree,no,no,B,2,conjunction_un,L2,unsyncopated,s2,r2,47,Online_conjL2_un//b.fe.ra0.888.1776.wav,ñi,mi,si,sil,fe,to,ñu,sil1,ra,ba,sil2,['catch'],"[0.052700000000186265, 2.4856000000004315]",[2.4856000000004315],1.776,beat,0.7096000000004314,0.7096000000004314,"[""space"",""space""]",ra,2,,,,,,,,,,,,,,,2.0,1.0,Español,0.0,Inglés,10.0,4.0,3.0,no,no,yes,Nada,,,,Nada,68.0,yes
184,2024-02-07_13h41.04.986,Unsyncopated_study2,s110,25.0,feminino,right,ESPAÑA,Español,Bachelor degree,no,no,B,2,conjunction_un,L2,unsyncopated,s1,r1,48,Online_conjL2_un//c.cha.me22.222.444.wav,go,cha,me,sil,du,ñu,to,sil1,te,su,sil2,['catch'],[1.205399999999372],[1.205399999999372],0.444,no_beat,0.7613999999993721,0.7613999999993721,"[""space""]",me,3,,,,,,,,,,,,,,,2.0,1.0,Español,0.0,Inglés,10.0,4.0,3.0,no,no,yes,Nada,,,,Nada,68.0,yes
185,2024-02-07_13h41.04.986,Unsyncopated_study2,s110,25.0,feminino,right,ESPAÑA,Español,Bachelor degree,no,no,B,2,conjunction_un,L2,unsyncopated,s1,r2,49,Online_conjL2_un//c.cha.me21.1332.444.wav,fe,su,me,sil,ra,si,cha,sil1,ñi,ba,sil2,['catch'],[1.5775999999996202],[1.5775999999996202],0.444,no_beat,1.1335999999996202,1.1335999999996202,"[""space""]",me,3,,,,,,,,,,,,,,,2.0,1.0,Español,0.0,Inglés,10.0,4.0,3.0,no,no,yes,Nada,,,,Nada,68.0,yes
186,2024-02-07_13h41.04.986,Unsyncopated_study2,s110,25.0,feminino,right,ESPAÑA,Español,Bachelor degree,no,no,B,2,conjunction_un,L2,unsyncopated,s2,r2,50,Online_conjL2_un//c.cha.me23.222.444.wav,su,cha,me,sil,fe,mi,to,sil1,ra,ñu,sil2,['miss'],,,0.444,no_beat,,,,me,3,,,,,,,,,,,,,,,2.0,1.0,Español,0.0,Inglés,10.0,4.0,3.0,no,no,yes,Nada,,,,Nada,68.0,yes
187,2024-02-07_13h41.04.986,Unsyncopated_study2,s110,25.0,feminino,right,ESPAÑA,Español,Bachelor degree,no,no,B,2,conjunction_un,L2,unsyncopated,s2,r1,51,Online_conjL2_un//c.cha.me20.none.none.wav,ñu,su,ñi,sil,go,to,si,sil1,du,ba,sil2,['-'],,,none,none,,,,me,3,,,,,,,,,,,,,,,2.0,1.0,Español,0.0,Inglés,10.0,4.0,3.0,no,no,yes,Nada,,,,Nada,68.0,yes
188,2024-02-07_13h41.04.986,Unsyncopated_study2,s110,25.0,feminino,right,ESPAÑA,Español,Bachelor degree,no,no,B,2,conjunction_un,L2,unsyncopated,s2,r1,52,Online_conjL2_un//a.go.du23.888.1776.wav,su,te,mi,sil,go,ñu,bi,sil1,du,me,sil2,['catch'],[1.53879999999981],[1.53879999999981],0.888,beat,0.6507999999998101,0.6507999999998101,"[""space""]",go,1,,,,,,,,,,,,,,,2.0,1.0,Español,0.0,Inglés,10.0,4.0,3.0,no,no,yes,Nada,,,,Nada,68.0,yes
189,2024-02-07_13h41.04.986,Unsyncopated_study2,s110,25.0,feminino,right,ESPAÑA,Español,Bachelor degree,no,no,B,2,conjunction_un,L2,unsyncopated,s1,r2,53,Online_conjL2_un//a.go.du22.none.none.wav,fe,bi,ñi,sil,ra,mi,me,sil1,su,ñu,sil2,['false alarm'],[1.8529000000005453],[1.8529000000005453],none,none,,,"[""space""]",go,1,,,,,,,,,,,,,,,2.0,1.0,Español,0.0,Inglés,10.0,4.0,3.0,no,no,yes,Nada,,,,Nada,68.0,yes
190,2024-02-07_13h41.04.986,Unsyncopated_study2,s110,25.0,feminino,right,ESPAÑA,Español,Bachelor degree,no,no,B,2,conjunction_un,L2,unsyncopated,s2,r1,54,Online_conjL2_un//a.go.du21.888.1776.wav,ba,cha,si,sil,go,to,ñi,sil1,du,te,sil2,['catch'],[1.563099999999622],[1.563099999999622],0.888,beat,0.675099999999622,0.675099999999622,"[""space""]",go,1,,,,,,,,,,,,,,,2.0,1.0,Español,0.0,Inglés,10.0,4.0,3.0,no,no,yes,Nada,,,,Nada,68.0,yes
191,2024-02-07_13h41.04.986,Unsyncopated_study2,s110,25.0,feminino,right,ESPAÑA,Español,Bachelor degree,no,no,B,2,conjunction_un,L2,unsyncopated,s1,r1,55,Online_conjL2_un//a.go.du20.0.888.wav,go,ñi,si,sil,du,mi,me,sil1,bi,te,sil2,['catch'],[0.9592000000000098],[0.9592000000000098],0.0,beat,0.9592000000000098,0.9592000000000098,"[""space""]",go,1,,,,,,,,,,,,,,,2.0,1.0,Español,0.0,Inglés,10.0,4.0,3.0,no,no,yes,Nada,,,,Nada,68.0,yes
192,2024-02-07_13h41.04.986,Unsyncopated_study2,s110,25.0,feminino,right,ESPAÑA,Español,Bachelor degree,no,no,B,2,conjunction_un,L2,unsyncopated,s2,r1,56,Online_conjL2_un//a.go.du13.888.1776.wav,mi,bi,ba,sil,go,ñu,to,sil1,du,te,sil2,['catch'],[2.276100000000497],[2.276100000000497],0.888,beat,,1.388100000000497,"[""space""]",go,1,,,,,,,,,,,,,,,2.0,1.0,Español,0.0,Inglés,10.0,4.0,3.0,no,no,yes,Nada,,,,Nada,68.0,yes
193,2024-02-07_13h41.04.986,Unsyncopated_study2,s110,25.0,feminino,right,ESPAÑA,Español,Bachelor degree,no,no,B,2,conjunction_un,L2,unsyncopated,s2,r2,57,Online_conjL2_un//a.go.du12.none.none.wav,bi,su,mi,sil,fe,ñi,te,sil1,ra,si,sil2,['false alarm'],[2.568099999999731],[2.568099999999731],none,none,,,"[""space""]",go,1,,,,,,,,,,,,,,,2.0,1.0,Español,0.0,Inglés,10.0,4.0,3.0,no,no,yes,Nada,,,,Nada,68.0,yes
194,2024-02-07_13h41.04.986,Unsyncopated_study2,s110,25.0,feminino,right,ESPAÑA,Español,Bachelor degree,no,no,B,2,conjunction_un,L2,unsyncopated,s2,r2,58,Online_conjL2_un//a.go.du15.none.none.wav,me,mi,ñu,sil,fe,si,ñi,sil1,ra,su,sil2,['-'],,,none,none,,,,go,1,,,,,,,,,,,,,,,2.0,1.0,Español,0.0,Inglés,10.0,4.0,3.0,no,no,yes,Nada,,,,Nada,68.0,yes
195,2024-02-07_13h41.04.986,Unsyncopated_study2,s110,25.0,feminino,right,ESPAÑA,Español,Bachelor degree,no,no,B,2,conjunction_un,L2,unsyncopated,s1,r1,59,Online_conjL2_un//a.go.du14.0.888.wav,go,su,to,sil,du,te,ba,sil1,ñi,me,sil2,['catch'],[0.7952999999999975],[0.7952999999999975],0.0,beat,0.7952999999999975,0.7952999999999975,"[""space""]",go,1,,,,,,,,,,,,,,,2.0,1.0,Español,0.0,Inglés,10.0,4.0,3.0,no,no,yes,Nada,,,,Nada,68.0,yes
196,2024-02-07_13h41.04.986,Unsyncopated_study2,s110,25.0,feminino,right,ESPAÑA,Español,Bachelor degree,no,no,B,2,conjunction_un,L2,unsyncopated,s2,r1,60,Online_conjL2_un//a.go.du9.888.1776.wav,mi,bi,cha,sil,go,ñu,si,sil1,du,to,sil2,['catch'],[1.7217000000002827],[1.7217000000002827],0.888,beat,0.8337000000002827,0.8337000000002827,"[""space""]",go,1,,,,,,,,,,,,,,,2.0,1.0,Español,0.0,Inglés,10.0,4.0,3.0,no,no,yes,Nada,,,,Nada,68.0,yes
197,2024-02-07_13h41.04.986,Unsyncopated_study2,s110,25.0,feminino,right,ESPAÑA,Español,Bachelor degree,no,no,B,2,conjunction_un,L2,unsyncopated,s2,r1,61,Online_conjL2_un//a.go.du11.888.1776.wav,si,ba,ñu,sil,go,ñi,mi,sil1,du,te,sil2,['miss'],,,0.888,beat,,,,go,1,,,,,,,,,,,,,,,2.0,1.0,Español,0.0,Inglés,10.0,4.0,3.0,no,no,yes,Nada,,,,Nada,68.0,yes
198,2024-02-07_13h41.04.986,Unsyncopated_study2,s110,25.0,feminino,right,ESPAÑA,Español,Bachelor degree,no,no,B,2,conjunction_un,L2,unsyncopated,s1,r2,62,Online_conjL2_un//a.go.du8.none.none.wav,fe,to,ñi,sil,ra,ba,cha,sil1,ñu,bi,sil2,['-'],,,none,none,,,,go,1,,,,,,,,,,,,,,,2.0,1.0,Español,0.0,Inglés,10.0,4.0,3.0,no,no,yes,Nada,,,,Nada,68.0,yes
199,2024-02-07_13h41.04.986,Unsyncopated_study2,s110,25.0,feminino,right,ESPAÑA,Español,Bachelor degree,no,no,B,2,conjunction_un,L2,unsyncopated,s1,r1,63,Online_conjL2_un//a.go.du10.0.888.wav,go,bi,ñi,sil,du,si,te,sil1,ñu,su,sil2,['catch'],[0.5813999999995758],[0.5813999999995758],0.0,beat,0.5813999999995758,0.5813999999995758,"[""space""]",go,1,,,,,,,,,,,,,,,2.0,1.0,Español,0.0,Inglés,10.0,4.0,3.0,no,no,yes,Nada,,,,Nada,68.0,yes
200,2024-02-07_13h41.04.986,Unsyncopated_study2,s110,25.0,feminino,right,ESPAÑA,Español,Bachelor degree,no,no,B,2,conjunction_un,L2,unsyncopated,s2,r2,64,Online_conjL2_un//d.si.ñu17.1110.0.wav,ñu,bi,te,sil,fe,si,me,sil1,ra,ba,sil2,['catch'],[1.0055999999995038],[1.0055999999995038],0.0,beat,1.0055999999995038,1.0055999999995038,"[""space""]",ñu,4,,,,,,,,,,,,,,,2.0,1.0,Español,0.0,Inglés,10.0,4.0,3.0,no,no,yes,Nada,,,,Nada,68.0,yes
201,2024-02-07_13h41.04.986,Unsyncopated_study2,s110,25.0,feminino,right,ESPAÑA,Español,Bachelor degree,no,no,B,2,conjunction_un,L2,unsyncopated,s1,r1,65,Online_conjL2_un//d.si.ñu19.444.1332.wav,go,su,si,sil,du,to,ñu,sil1,te,me,sil2,['catch'],[1.7937999999999192],[1.7937999999999192],1.332,no_beat,0.4617999999999191,0.4617999999999191,"[""space""]",ñu,4,,,,,,,,,,,,,,,2.0,1.0,Español,0.0,Inglés,10.0,4.0,3.0,no,no,yes,Nada,,,,Nada,68.0,yes
202,2024-02-07_13h41.04.986,Unsyncopated_study2,s110,25.0,feminino,right,ESPAÑA,Español,Bachelor degree,no,no,B,2,conjunction_un,L2,unsyncopated,s2,r1,66,Online_conjL2_un//d.si.ñu16.1110.222.wav,te,ñu,mi,sil,go,si,to,sil1,du,me,sil2,['miss'],,,0.222,no_beat,,,,ñu,4,,,,,,,,,,,,,,,2.0,1.0,Español,0.0,Inglés,10.0,4.0,3.0,no,no,yes,Nada,,,,Nada,68.0,yes
203,2024-02-07_13h41.04.986,Unsyncopated_study2,s110,25.0,feminino,right,ESPAÑA,Español,Bachelor degree,no,no,B,2,conjunction_un,L2,unsyncopated,s2,r1,67,Online_conjL2_un//d.si.ñu18.1332.222.wav,bi,ñu,me,sil,go,cha,si,sil1,du,ba,sil2,['miss'],,,0.222,no_beat,,,,ñu,4,,,,,,,,,,,,,,,2.0,1.0,Español,0.0,Inglés,10.0,4.0,3.0,no,no,yes,Nada,,,,Nada,68.0,yes
204,2024-02-07_13h41.04.986,Unsyncopated_study2,s110,25.0,feminino,right,ESPAÑA,Español,Bachelor degree,no,no,B,2,conjunction_un,L2,unsyncopated,s1,r2,68,Online_conjL2_un//c.cha.me8.444.1332.wav,fe,bi,cha,sil,ra,ñi,me,sil1,te,si,sil2,['catch'],[1.705500000000029],[1.705500000000029],1.332,no_beat,0.373500000000029,0.373500000000029,"[""space""]",me,3,,,,,,,,,,,,,,,2.0,1.0,Español,0.0,Inglés,10.0,4.0,3.0,no,no,yes,Nada,,,,Nada,68.0,yes
205,2024-02-07_13h41.04.986,Unsyncopated_study2,s110,25.0,feminino,right,ESPAÑA,Español,Bachelor degree,no,no,B,2,conjunction_un,L2,unsyncopated,s1,r1,69,Online_conjL2_un//c.cha.me9.none.none.wav,go,to,ñi,sil,du,mi,ñu,sil1,bi,su,sil2,['-'],,,none,none,,,,me,3,,,,,,,,,,,,,,,2.0,1.0,Español,0.0,Inglés,10.0,4.0,3.0,no,no,yes,Nada,,,,Nada,68.0,yes
206,2024-02-07_13h41.04.986,Unsyncopated_study2,s110,25.0,feminino,right,ESPAÑA,Español,Bachelor degree,no,no,B,2,conjunction_un,L2,unsyncopated,s1,r1,70,Online_conjL2_un//c.cha.me11.none.none.wav,go,su,ñu,sil,du,ñi,mi,sil1,ba,to,sil2,['-'],,,none,none,,,,me,3,,,,,,,,,,,,,,,2.0,1.0,Español,0.0,Inglés,10.0,4.0,3.0,no,no,yes,Nada,,,,Nada,68.0,yes
207,2024-02-07_13h41.04.986,Unsyncopated_study2,s110,25.0,feminino,right,ESPAÑA,Español,Bachelor degree,no,no,B,2,conjunction_un,L2,unsyncopated,s2,r2,71,Online_conjL2_un//c.cha.me10.0.222.wav,cha,me,mi,sil,fe,su,si,sil1,ra,ba,sil2,['miss'],,,0.222,no_beat,,,,me,3,,,,,,,,,,,,,,,2.0,1.0,Español,0.0,Inglés,10.0,4.0,3.0,no,no,yes,Nada,,,,Nada,68.0,yes
208,2024-02-07_13h41.04.986,Unsyncopated_study2,s110,25.0,feminino,right,ESPAÑA,Español,Bachelor degree,no,no,B,2,conjunction_un,L2,unsyncopated,s1,r2,72,Online_conjL2_un//a.go.du30.none.none.wav,fe,cha,si,sil,ra,su,te,sil1,ba,bi,sil2,['false alarm'],[1.1920000000000073],[1.1920000000000073],none,none,,,"[""space""]",go,1,,,,,,,,,,,,,,,2.0,1.0,Español,0.0,Inglés,10.0,4.0,3.0,no,no,yes,Nada,,,,Nada,68.0,yes
209,2024-02-07_13h41.04.986,Unsyncopated_study2,s110,25.0,feminino,right,ESPAÑA,Español,Bachelor degree,no,no,B,2,conjunction_un,L2,unsyncopated,s1,r2,73,Online_conjL2_un//a.go.du31.none.none.wav,fe,to,ñi,sil,ra,bi,ñu,sil1,su,si,sil2,['-'],,,none,none,,,,go,1,,,,,,,,,,,,,,,2.0,1.0,Español,0.0,Inglés,10.0,4.0,3.0,no,no,yes,Nada,,,,Nada,68.0,yes
210,2024-02-07_13h41.04.986,Unsyncopated_study2,s110,25.0,feminino,right,ESPAÑA,Español,Bachelor degree,no,no,B,2,conjunction_un,L2,unsyncopated,s1,r1,74,Online_conjL2_un//a.go.du29.0.888.wav,go,mi,me,sil,du,to,bi,sil1,cha,ñu,sil2,['miss'],,,0.0,beat,,,,go,1,,,,,,,,,,,,,,,2.0,1.0,Español,0.0,Inglés,10.0,4.0,3.0,no,no,yes,Nada,,,,Nada,68.0,yes
211,2024-02-07_13h41.04.986,Unsyncopated_study2,s110,25.0,feminino,right,ESPAÑA,Español,Bachelor degree,no,no,B,2,conjunction_un,L2,unsyncopated,s1,r2,75,Online_conjL2_un//a.go.du28.none.none.wav,fe,cha,ba,sil,ra,mi,me,sil1,bi,te,sil2,['-'],,,none,none,,,,go,1,,,,,,,,,,,,,,,2.0,1.0,Español,0.0,Inglés,10.0,4.0,3.0,no,no,yes,Nada,,,,Nada,68.0,yes
212,2024-02-07_13h41.04.986,Unsyncopated_study2,s110,25.0,feminino,right,ESPAÑA,Español,Bachelor degree,no,no,B,2,conjunction_un,L2,unsyncopated,s2,r1,76,Online_conjL2_un//a.go.du2.888.1776.wav,si,me,to,sil,go,bi,te,sil1,du,cha,sil2,['catch'],[1.533899999999221],[1.533899999999221],0.888,beat,0.6458999999992211,0.6458999999992211,"[""space""]",go,1,,,,,,,,,,,,,,,2.0,1.0,Español,0.0,Inglés,10.0,4.0,3.0,no,no,yes,Nada,,,,Nada,68.0,yes
213,2024-02-07_13h41.04.986,Unsyncopated_study2,s110,25.0,feminino,right,ESPAÑA,Español,Bachelor degree,no,no,B,2,conjunction_un,L2,unsyncopated,s1,r2,77,Online_conjL2_un//a.go.du0.none.none.wav,fe,ñu,ba,sil,ra,mi,cha,sil1,bi,si,sil2,['-'],,,none,none,,,,go,1,,,,,,,,,,,,,,,2.0,1.0,Español,0.0,Inglés,10.0,4.0,3.0,no,no,yes,Nada,,,,Nada,68.0,yes
214,2024-02-07_13h41.04.986,Unsyncopated_study2,s110,25.0,feminino,right,ESPAÑA,Español,Bachelor degree,no,no,B,2,conjunction_un,L2,unsyncopated,s2,r2,78,Online_conjL2_un//a.go.du3.none.none.wav,te,bi,su,sil,fe,me,ñi,sil1,ra,si,sil2,['-'],,,none,none,,,,go,1,,,,,,,,,,,,,,,2.0,1.0,Español,0.0,Inglés,10.0,4.0,3.0,no,no,yes,Nada,,,,Nada,68.0,yes
215,2024-02-07_13h41.04.986,Unsyncopated_study2,s110,25.0,feminino,right,ESPAÑA,Español,Bachelor degree,no,no,B,2,conjunction_un,L2,unsyncopated,s1,r1,79,Online_conjL2_un//a.go.du1.0.888.wav,go,bi,si,sil,du,ñu,ba,sil1,mi,cha,sil2,['catch'],[0.7927999999999429],[0.7927999999999429],0.0,beat,0.7927999999999429,0.7927999999999429,"[""space""]",go,1,,,,,,,,,,,,,,,2.0,1.0,Español,0.0,Inglés,10.0,4.0,3.0,no,no,yes,Nada,,,,Nada,68.0,yes
216,2024-02-07_13h41.04.986,Unsyncopated_study2,s110,25.0,feminino,right,ESPAÑA,Español,Bachelor degree,no,no,B,2,conjunction_un,L2,unsyncopated,s2,r2,80,Online_conjL2_un//d.si.ñu27.1332.0.wav,ñu,bi,to,sil,fe,ba,si,sil1,ra,te,sil2,['catch'],[0.7175999999994929],[0.7175999999994929],0.0,beat,0.7175999999994929,0.7175999999994929,"[""space""]",ñu,4,,,,,,,,,,,,,,,2.0,1.0,Español,0.0,Inglés,10.0,4.0,3.0,no,no,yes,Nada,,,,Nada,68.0,yes
217,2024-02-07_13h41.04.986,Unsyncopated_study2,s110,25.0,feminino,right,ESPAÑA,Español,Bachelor degree,no,no,B,2,conjunction_un,L2,unsyncopated,s2,r2,81,Online_conjL2_un//d.si.ñu24.0.1110.wav,si,bi,to,sil,fe,ñu,te,sil1,ra,ñi,sil2,['miss'],,,1.11,no_beat,,,,ñu,4,,,,,,,,,,,,,,,2.0,1.0,Español,0.0,Inglés,10.0,4.0,3.0,no,no,yes,Nada,,,,Nada,68.0,yes
218,2024-02-07_13h41.04.986,Unsyncopated_study2,s110,25.0,feminino,right,ESPAÑA,Español,Bachelor degree,no,no,B,2,conjunction_un,L2,unsyncopated,s1,r2,82,Online_conjL2_un//d.si.ñu26.none.none.wav,fe,bi,to,sil,ra,mi,me,sil1,te,ba,sil2,['-'],,,none,none,,,,ñu,4,,,,,,,,,,,,,,,2.0,1.0,Español,0.0,Inglés,10.0,4.0,3.0,no,no,yes,Nada,,,,Nada,68.0,yes
219,2024-02-07_13h41.04.986,Unsyncopated_study2,s110,25.0,feminino,right,ESPAÑA,Español,Bachelor degree,no,no,B,2,conjunction_un,L2,unsyncopated,s1,r2,83,Online_conjL2_un//d.si.ñu25.none.none.wav,fe,me,ñi,sil,ra,to,mi,sil1,bi,cha,sil2,['-'],,,none,none,,,,ñu,4,,,,,,,,,,,,,,,2.0,1.0,Español,0.0,Inglés,10.0,4.0,3.0,no,no,yes,Nada,,,,Nada,68.0,yes
220,2024-02-07_13h41.04.986,Unsyncopated_study2,s110,25.0,feminino,right,ESPAÑA,Español,Bachelor degree,no,no,B,2,conjunction_un,L2,unsyncopated,s1,r2,84,Online_conjL2_un//d.si.ñu1.222.1332.wav,fe,si,ba,sil,ra,su,ñu,sil1,ñi,me,sil2,['catch'],[1.7256999999992786],[1.7256999999992786],1.332,no_beat,0.3936999999992785,0.3936999999992785,"[""space""]",ñu,4,,,,,,,,,,,,,,,2.0,1.0,Español,0.0,Inglés,10.0,4.0,3.0,no,no,yes,Nada,,,,Nada,68.0,yes
221,2024-02-07_13h41.04.986,Unsyncopated_study2,s110,25.0,feminino,right,ESPAÑA,Español,Bachelor degree,no,no,B,2,conjunction_un,L2,unsyncopated,s1,r1,85,Online_conjL2_un//d.si.ñu2.1776.444.wav,go,ba,ñu,sil,du,to,su,sil1,si,ñi,sil2,"['false alarm', 'catch']","[0.14250000000015461, 1.2450000000001182]",[1.2450000000001182],0.444,no_beat,0.8010000000001183,0.8010000000001183,"[""space"",""space""]",ñu,4,,,,,,,,,,,,,,,2.0,1.0,Español,0.0,Inglés,10.0,4.0,3.0,no,no,yes,Nada,,,,Nada,68.0,yes
222,2024-02-07_13h41.04.986,Unsyncopated_study2,s110,25.0,feminino,right,ESPAÑA,Español,Bachelor degree,no,no,B,2,conjunction_un,L2,unsyncopated,s1,r1,86,Online_conjL2_un//d.si.ñu0.none.none.wav,go,cha,ba,sil,du,ñi,bi,sil1,su,to,sil2,['false alarm'],[1.64650000000006],[1.64650000000006],none,none,,,"[""space""]",ñu,4,,,,,,,,,,,,,,,2.0,1.0,Español,0.0,Inglés,10.0,4.0,3.0,no,no,yes,Nada,,,,Nada,68.0,yes
223,2024-02-07_13h41.04.986,Unsyncopated_study2,s110,25.0,feminino,right,ESPAÑA,Español,Bachelor degree,no,no,B,2,conjunction_un,L2,unsyncopated,s2,r2,87,Online_conjL2_un//d.si.ñu3.none.none.wav,to,ba,te,sil,fe,cha,bi,sil1,ra,me,sil2,['-'],,,none,none,,,,ñu,4,,,,,,,,,,,,,,,2.0,1.0,Español,0.0,Inglés,10.0,4.0,3.0,no,no,yes,Nada,,,,Nada,68.0,yes
224,2024-02-07_13h41.04.986,Unsyncopated_study2,s110,25.0,feminino,right,ESPAÑA,Español,Bachelor degree,no,no,B,2,conjunction_un,L2,unsyncopated,s1,r2,88,Online_conjL2_un//b.fe.ra17.0.888.wav,fe,cha,mi,sil,ra,si,su,sil1,ba,ñi,sil2,['catch'],[1.57320000000027],[1.57320000000027],0.888,beat,0.6852000000002699,0.6852000000002699,"[""space""]",ra,2,,,,,,,,,,,,,,,2.0,1.0,Español,0.0,Inglés,10.0,4.0,3.0,no,no,yes,Nada,,,,Nada,68.0,yes
225,2024-02-07_13h41.04.986,Unsyncopated_study2,s110,25.0,feminino,right,ESPAÑA,Español,Bachelor degree,no,no,B,2,conjunction_un,L2,unsyncopated,s1,r1,89,Online_conjL2_un//b.fe.ra18.none.none.wav,go,su,bi,sil,du,te,si,sil1,ñu,to,sil2,['-'],,,none,none,,,,ra,2,,,,,,,,,,,,,,,2.0,1.0,Español,0.0,Inglés,10.0,4.0,3.0,no,no,yes,Nada,,,,Nada,68.0,yes
226,2024-02-07_13h41.04.986,Unsyncopated_study2,s110,25.0,feminino,right,ESPAÑA,Español,Bachelor degree,no,no,B,2,conjunction_un,L2,unsyncopated,s2,r1,90,Online_conjL2_un//b.fe.ra19.none.none.wav,me,mi,to,sil,go,ñu,ñi,sil1,du,ba,sil2,['-'],,,none,none,,,,ra,2,,,,,,,,,,,,,,,2.0,1.0,Español,0.0,Inglés,10.0,4.0,3.0,no,no,yes,Nada,,,,Nada,68.0,yes
227,2024-02-07_13h41.04.986,Unsyncopated_study2,s110,25.0,feminino,right,ESPAÑA,Español,Bachelor degree,no,no,B,2,conjunction_un,L2,unsyncopated,s1,r2,91,Online_conjL2_un//b.fe.ra16.0.888.wav,fe,ñi,mi,sil,ra,bi,su,sil1,ñu,me,sil2,['miss'],,,0.888,beat,,,,ra,2,,,,,,,,,,,,,,,2.0,1.0,Español,0.0,Inglés,10.0,4.0,3.0,no,no,yes,Nada,,,,Nada,68.0,yes
228,2024-02-07_13h41.04.986,Unsyncopated_study2,s110,25.0,feminino,right,ESPAÑA,Español,Bachelor degree,no,no,B,2,conjunction_un,L2,unsyncopated,s1,r2,92,Online_conjL2_un//d.si.ñu29.1332.444.wav,fe,mi,ñu,sil,ra,su,si,sil1,ñi,cha,sil2,['catch'],[1.3379999999999654],[1.3379999999999654],0.444,no_beat,0.8939999999999655,0.8939999999999655,"[""space""]",ñu,4,,,,,,,,,,,,,,,2.0,1.0,Español,0.0,Inglés,10.0,4.0,3.0,no,no,yes,Nada,,,,Nada,68.0,yes
229,2024-02-07_13h41.04.986,Unsyncopated_study2,s110,25.0,feminino,right,ESPAÑA,Español,Bachelor degree,no,no,B,2,conjunction_un,L2,unsyncopated,s2,r2,93,Online_conjL2_un//d.si.ñu31.none.none.wav,su,ñi,to,sil,fe,me,ba,sil1,ra,te,sil2,['-'],,,none,none,,,,ñu,4,,,,,,,,,,,,,,,2.0,1.0,Español,0.0,Inglés,10.0,4.0,3.0,no,no,yes,Nada,,,,Nada,68.0,yes
230,2024-02-07_13h41.04.986,Unsyncopated_study2,s110,25.0,feminino,right,ESPAÑA,Español,Bachelor degree,no,no,B,2,conjunction_un,L2,unsyncopated,s1,r1,94,Online_conjL2_un//d.si.ñu28.none.none.wav,go,me,su,sil,du,te,to,sil1,bi,ba,sil2,['-'],,,none,none,,,,ñu,4,,,,,,,,,,,,,,,2.0,1.0,Español,0.0,Inglés,10.0,4.0,3.0,no,no,yes,Nada,,,,Nada,68.0,yes
231,2024-02-07_13h41.04.986,Unsyncopated_study2,s110,25.0,feminino,right,ESPAÑA,Español,Bachelor degree,no,no,B,2,conjunction_un,L2,unsyncopated,s2,r1,95,Online_conjL2_un//d.si.ñu30.1332.222.wav,ba,ñu,ñi,sil,go,mi,si,sil1,du,cha,sil2,['catch'],[1.0513999999993757],[1.0513999999993757],0.222,no_beat,0.8293999999993757,0.8293999999993757,"[""space""]",ñu,4,,,,,,,,,,,,,,,2.0,1.0,Español,0.0,Inglés,10.0,4.0,3.0,no,no,yes,Nada,,,,Nada,68.0,yes
232,2024-02-07_13h41.04.986,Unsyncopated_study2,s110,25.0,feminino,right,ESPAÑA,Español,Bachelor degree,no,no,B,2,conjunction_un,L2,unsyncopated,s1,r2,96,Online_conjL2_un//b.fe.ra29.0.888.wav,fe,ba,si,sil,ra,bi,cha,sil1,mi,ñu,sil2,['catch'],[1.4884999999999309],[1.4884999999999309],0.888,beat,0.6004999999999309,0.6004999999999309,"[""space""]",ra,2,,,,,,,,,,,,,,,2.0,1.0,Español,0.0,Inglés,10.0,4.0,3.0,no,no,yes,Nada,,,,Nada,68.0,yes
233,2024-02-07_13h41.04.986,Unsyncopated_study2,s110,25.0,feminino,right,ESPAÑA,Español,Bachelor degree,no,no,B,2,conjunction_un,L2,unsyncopated,s2,r1,97,Online_conjL2_un//b.fe.ra28.none.none.wav,me,cha,mi,sil,go,si,ñi,sil1,du,to,sil2,['-'],,,none,none,,,,ra,2,,,,,,,,,,,,,,,2.0,1.0,Español,0.0,Inglés,10.0,4.0,3.0,no,no,yes,Nada,,,,Nada,68.0,yes
234,2024-02-07_13h41.04.986,Unsyncopated_study2,s110,25.0,feminino,right,ESPAÑA,Español,Bachelor degree,no,no,B,2,conjunction_un,L2,unsyncopated,s1,r1,98,Online_conjL2_un//b.fe.ra30.none.none.wav,go,si,cha,sil,du,ba,te,sil1,ñu,ñi,sil2,['-'],,,none,none,,,,ra,2,,,,,,,,,,,,,,,2.0,1.0,Español,0.0,Inglés,10.0,4.0,3.0,no,no,yes,Nada,,,,Nada,68.0,yes
235,2024-02-07_13h41.04.986,Unsyncopated_study2,s110,25.0,feminino,right,ESPAÑA,Español,Bachelor degree,no,no,B,2,conjunction_un,L2,unsyncopated,s2,r2,99,Online_conjL2_un//b.fe.ra31.888.1776.wav,ñu,to,me,sil,fe,cha,mi,sil1,ra,ba,sil2,"['false alarm', 'catch']","[0.24889999999936663, 2.4641999999992095]",[2.4641999999992095],1.776,beat,0.6881999999992094,0.6881999999992094,"[""space"",""space""]",ra,2,,,,,,,,,,,,,,,2.0,1.0,Español,0.0,Inglés,10.0,4.0,3.0,no,no,yes,Nada,,,,Nada,68.0,yes
236,2024-02-07_13h41.04.986,Unsyncopated_study2,s110,25.0,feminino,right,ESPAÑA,Español,Bachelor degree,no,no,B,2,conjunction_un,L2,unsyncopated,s2,r2,100,Online_conjL2_un//c.cha.me30.0.1110.wav,cha,mi,ba,sil,fe,me,si,sil1,ra,ñi,sil2,['catch'],[2.0753000000008797],[2.0753000000008797],1.11,no_beat,0.9653000000008796,0.9653000000008796,"[""space""]",me,3,,,,,,,,,,,,,,,2.0,1.0,Español,0.0,Inglés,10.0,4.0,3.0,no,no,yes,Nada,,,,Nada,68.0,yes
