Unnamed: 0,date,expName,participant,age,sex,hand,residence,native_lang,education_level,lang_deficit,aud_deficit,group,block,condition,language,rhythm,rule structure online,rule type online,order_trial_on,trial_online,s1,s2,s3,s4,s5,s6,s7,s8,s9,s10,s11,catch_syll_resp,rts_syll_catch,clean_rts,time_syll,beat_no_beat,catch_rtsTR,catch_rts,syllable_catch.keys,cond_syll,syll_to_catch,test_offline,block_off,condition_off,rhythm_off,rule,rule_str_off,rule_norule,conds_offline,language_off,Partz_no_partm.keys,Partz_no_partm.rt,security_1_7.keys,accuracy,security_1_7.rt,n_lang,n_lang_used,lang_1,age_l1,lang_2,age_l2,lang_3,age_l3,ability_learn_l2,tendence_mix_lan,music_experience,muisc_use,partiture,instr_1,age_M1,preguntas_musica1,BMRQ_answer.response,final comment,BMRQ_Score,bilingual
0,2024-02-21_21h26.50.451,Unsyncopated_study2,s117,23.0,feminino,right,España,Catalán y castellano,Master degree,no,no,B,1,conjunction_un,L2,unsyncopated,s2,r1,0,Online_conjL2_un//a.go.du23.888.1776.wav,su,te,mi,sil,go,ñu,bi,sil1,du,me,sil2,['catch'],[1.5620999999047172],[1.5620999999047172],0.888,beat,0.6740999999047171,0.6740999999047171,"[""space""]",go,1,testConjL2Uns//time_viol.r1.s1.0.wav,1.0,conjunction_un,unsyncopated,a,s1,no_rule,time,L2,z,1.4939,5.0,0.0,1.6832,3.0,3.0,Català,0.0,Castellano,0.0,Inglés,6.0,4.0,5.0,yes,no,no,Flauta dulce,10,1. Cuando comparto música con alguien siento una complicidad especial con aquella persona.,4.0,Nada ,71.0,yes
1,2024-02-21_21h26.50.451,Unsyncopated_study2,s117,23.0,feminino,right,España,Catalán y castellano,Master degree,no,no,B,1,conjunction_un,L2,unsyncopated,s1,r2,1,Online_conjL2_un//a.go.du22.none.none.wav,fe,bi,ñi,sil,ra,mi,me,sil1,su,ñu,sil2,['-'],,,none,none,,,,go,1,testConjL2Uns//r2.s2.0.wav,1.0,conjunction_un,unsyncopated,b,s2,rule,rule,L2,m,1.17,4.0,0.0,1.8103,3.0,3.0,Català,0.0,Castellano,0.0,Inglés,6.0,4.0,5.0,yes,no,no,Flauta dulce,10,2. En mi tiempo libre apenas escucho música.,5.0,Nada ,71.0,yes
2,2024-02-21_21h26.50.451,Unsyncopated_study2,s117,23.0,feminino,right,España,Catalán y castellano,Master degree,no,no,B,1,conjunction_un,L2,unsyncopated,s1,r1,2,Online_conjL2_un//a.go.du20.0.888.wav,go,ñi,si,sil,du,mi,me,sil1,bi,te,sil2,['catch'],[0.7161999998093052],[0.7161999998093052],0.0,beat,0.7161999998093052,0.7161999998093052,"[""space""]",go,1,testConjL2Uns//dep_viol.r2.s1.0.wav,1.0,conjunction_un,unsyncopated,b,s1,no_rule,dep,L2,z,1.067,4.0,0.0,1.8667,3.0,3.0,Català,0.0,Castellano,0.0,Inglés,6.0,4.0,5.0,yes,no,no,Flauta dulce,10,3. Algunas canciones me ponen los pelos de punta,4.0,Nada ,71.0,yes
3,2024-02-21_21h26.50.451,Unsyncopated_study2,s117,23.0,feminino,right,España,Catalán y castellano,Master degree,no,no,B,1,conjunction_un,L2,unsyncopated,s2,r1,3,Online_conjL2_un//a.go.du21.888.1776.wav,ba,cha,si,sil,go,to,ñi,sil1,du,te,sil2,['catch'],[1.6813000001907312],[1.6813000001907312],0.888,beat,0.7933000001907312,0.7933000001907312,"[""space""]",go,1,testConjL2Uns//dep_viol.r1.s2.0.wav,1.0,conjunction_un,unsyncopated,a,s2,no_rule,dep,L2,z,2.2331,6.0,0.0,1.5829,3.0,3.0,Català,0.0,Castellano,0.0,Inglés,6.0,4.0,5.0,yes,no,no,Flauta dulce,10,4. La música me hace compañía cuando estoy solo,3.0,Nada ,71.0,yes
4,2024-02-21_21h26.50.451,Unsyncopated_study2,s117,23.0,feminino,right,España,Catalán y castellano,Master degree,no,no,B,1,conjunction_un,L2,unsyncopated,s2,r2,4,Online_conjL2_un//a.go.du15.none.none.wav,me,mi,ñu,sil,fe,si,ñi,sil1,ra,su,sil2,['-'],,,none,none,,,,go,1,testConjL2Uns//time_viol.r1.s2.0.wav,1.0,conjunction_un,unsyncopated,a,s2,no_rule,time,L2,m,1.0506,5.0,1.0,1.4434,3.0,3.0,Català,0.0,Castellano,0.0,Inglés,6.0,4.0,5.0,yes,no,no,Flauta dulce,10,5. No me apetece bailar ni con la música que más me gusta,5.0,Nada ,71.0,yes
5,2024-02-21_21h26.50.451,Unsyncopated_study2,s117,23.0,feminino,right,España,Catalán y castellano,Master degree,no,no,B,1,conjunction_un,L2,unsyncopated,s1,r1,5,Online_conjL2_un//a.go.du14.0.888.wav,go,su,to,sil,du,te,ba,sil1,ñi,me,sil2,['catch'],[0.6650999999045553],[0.6650999999045553],0.0,beat,0.6650999999045553,0.6650999999045553,"[""space""]",go,1,testConjL2Uns//r1.s1.0.wav,1.0,conjunction_un,unsyncopated,a,s1,rule,rule,L2,z,0.7839,6.0,1.0,2.4708,3.0,3.0,Català,0.0,Castellano,0.0,Inglés,6.0,4.0,5.0,yes,no,no,Flauta dulce,10,6. La música me hace conectar con la gente,4.0,Nada ,71.0,yes
6,2024-02-21_21h26.50.451,Unsyncopated_study2,s117,23.0,feminino,right,España,Catalán y castellano,Master degree,no,no,B,1,conjunction_un,L2,unsyncopated,s2,r1,6,Online_conjL2_un//a.go.du13.888.1776.wav,mi,bi,ba,sil,go,ñu,to,sil1,du,te,sil2,['catch'],[1.6193000001907194],[1.6193000001907194],0.888,beat,0.7313000001907194,0.7313000001907194,"[""space""]",go,1,testConjL2Uns//r2.s1.2.wav,1.0,conjunction_un,unsyncopated,b,s1,rule,rule,L2,m,1.1741,5.0,0.0,1.0367,3.0,3.0,Català,0.0,Castellano,0.0,Inglés,6.0,4.0,5.0,yes,no,no,Flauta dulce,10,7. Me informo sobre la música que me gusta.,3.0,Nada ,71.0,yes
7,2024-02-21_21h26.50.451,Unsyncopated_study2,s117,23.0,feminino,right,España,Catalán y castellano,Master degree,no,no,B,1,conjunction_un,L2,unsyncopated,s2,r2,7,Online_conjL2_un//a.go.du12.none.none.wav,bi,su,mi,sil,fe,ñi,te,sil1,ra,si,sil2,['-'],,,none,none,,,,go,1,testConjL2Uns//r1.s1.1.wav,1.0,conjunction_un,unsyncopated,a,s1,rule,rule,L2,m,2.1991,4.0,0.0,2.2355,3.0,3.0,Català,0.0,Castellano,0.0,Inglés,6.0,4.0,5.0,yes,no,no,Flauta dulce,10,8.Me emociono escuchando ciertas canciones.,4.0,Nada ,71.0,yes
8,2024-02-21_21h26.50.451,Unsyncopated_study2,s117,23.0,feminino,right,España,Catalán y castellano,Master degree,no,no,B,1,conjunction_un,L2,unsyncopated,s2,r2,8,Online_conjL2_un//b.fe.ra15.888.1776.wav,si,me,to,sil,fe,su,ba,sil1,ra,bi,sil2,"['false alarm', 'catch']","[0.8757999997138768, 2.508799999713915]",[2.508799999713915],1.776,beat,0.732799999713915,0.732799999713915,"[""space"",""space""]",ra,2,testConjL2Uns//r2.s1.0.wav,1.0,conjunction_un,unsyncopated,b,s1,rule,rule,L2,z,1.9066,4.0,1.0,1.2189,3.0,3.0,Català,0.0,Castellano,0.0,Inglés,6.0,4.0,5.0,yes,no,no,Flauta dulce,10,9.La música me tranquiliza y me relaja.,3.0,Nada ,71.0,yes
9,2024-02-21_21h26.50.451,Unsyncopated_study2,s117,23.0,feminino,right,España,Catalán y castellano,Master degree,no,no,B,1,conjunction_un,L2,unsyncopated,s1,r2,9,Online_conjL2_un//b.fe.ra14.0.888.wav,fe,si,ñu,sil,ra,mi,to,sil1,me,bi,sil2,['catch'],[1.648600000381407],[1.648600000381407],0.888,beat,0.760600000381407,0.760600000381407,"[""space""]",ra,2,testConjL2Uns//r2.s2.2.wav,1.0,conjunction_un,unsyncopated,b,s2,rule,rule,L2,z,0.5849,5.0,1.0,1.2538,3.0,3.0,Català,0.0,Castellano,0.0,Inglés,6.0,4.0,5.0,yes,no,no,Flauta dulce,10,10.La música me hace bailar,3.0,Nada ,71.0,yes
10,2024-02-21_21h26.50.451,Unsyncopated_study2,s117,23.0,feminino,right,España,Catalán y castellano,Master degree,no,no,B,1,conjunction_un,L2,unsyncopated,s2,r1,10,Online_conjL2_un//b.fe.ra13.none.none.wav,ñu,bi,su,sil,go,mi,ba,sil1,du,cha,sil2,['-'],,,none,none,,,,ra,2,testConjL2Uns//dep_viol.r1.s1.0.wav,1.0,conjunction_un,unsyncopated,a,s1,no_rule,dep,L2,m,1.0514,3.0,1.0,1.0183,3.0,3.0,Català,0.0,Castellano,0.0,Inglés,6.0,4.0,5.0,yes,no,no,Flauta dulce,10,11.Busco novedades musicales continuamente,2.0,Nada ,71.0,yes
11,2024-02-21_21h26.50.451,Unsyncopated_study2,s117,23.0,feminino,right,España,Catalán y castellano,Master degree,no,no,B,1,conjunction_un,L2,unsyncopated,s1,r1,11,Online_conjL2_un//b.fe.ra12.none.none.wav,go,ñi,ba,sil,du,me,si,sil1,cha,to,sil2,['-'],,,none,none,,,,ra,2,testConjL2Uns//cat_viol.r1.s2.0.wav,1.0,conjunction_un,unsyncopated,a,s2,no_rule,cat,L2,z,2.4195,4.0,0.0,0.9099,3.0,3.0,Català,0.0,Castellano,0.0,Inglés,6.0,4.0,5.0,yes,no,no,Flauta dulce,10,12. Puedo llorar cuando escucho algunas melodías que me gustan mucho.,4.0,Nada ,71.0,yes
12,2024-02-21_21h26.50.451,Unsyncopated_study2,s117,23.0,feminino,right,España,Catalán y castellano,Master degree,no,no,B,1,conjunction_un,L2,unsyncopated,s1,r1,12,Online_conjL2_un//b.fe.ra30.none.none.wav,go,si,cha,sil,du,ba,te,sil1,ñu,ñi,sil2,['-'],,,none,none,,,,ra,2,testConjL2Uns//r1.s1.2.wav,1.0,conjunction_un,unsyncopated,a,s1,rule,rule,L2,z,1.2031,4.0,1.0,0.9197,3.0,3.0,Català,0.0,Castellano,0.0,Inglés,6.0,4.0,5.0,yes,no,no,Flauta dulce,10,13. Me gusta cantar o tocar un instrumento con más gente,3.0,Nada ,71.0,yes
13,2024-02-21_21h26.50.451,Unsyncopated_study2,s117,23.0,feminino,right,España,Catalán y castellano,Master degree,no,no,B,1,conjunction_un,L2,unsyncopated,s1,r2,13,Online_conjL2_un//b.fe.ra29.0.888.wav,fe,ba,si,sil,ra,bi,cha,sil1,mi,ñu,sil2,['catch'],[1.6363000001907722],[1.6363000001907722],0.888,beat,0.7483000001907721,0.7483000001907721,"[""space""]",ra,2,testConjL2Uns//r1.s2.1.wav,1.0,conjunction_un,unsyncopated,a,s2,rule,rule,L2,m,2.2733,3.0,0.0,1.4842,3.0,3.0,Català,0.0,Castellano,0.0,Inglés,6.0,4.0,5.0,yes,no,no,Flauta dulce,10,14. La música me ayuda a desconectar.,3.0,Nada ,71.0,yes
14,2024-02-21_21h26.50.451,Unsyncopated_study2,s117,23.0,feminino,right,España,Catalán y castellano,Master degree,no,no,B,1,conjunction_un,L2,unsyncopated,s2,r1,14,Online_conjL2_un//b.fe.ra28.none.none.wav,me,cha,mi,sil,go,si,ñi,sil1,du,to,sil2,['-'],,,none,none,,,,ra,2,testConjL2Uns//time_viol.r2.s2.0.wav,1.0,conjunction_un,unsyncopated,b,s2,no_rule,time,L2,m,0.7748,6.0,1.0,2.606,3.0,3.0,Català,0.0,Castellano,0.0,Inglés,6.0,4.0,5.0,yes,no,no,Flauta dulce,10,15. No puedo evitar tararear las canciones que me gustan cuando las escucho.,4.0,Nada ,71.0,yes
15,2024-02-21_21h26.50.451,Unsyncopated_study2,s117,23.0,feminino,right,España,Catalán y castellano,Master degree,no,no,B,1,conjunction_un,L2,unsyncopated,s2,r2,15,Online_conjL2_un//b.fe.ra31.888.1776.wav,ñu,to,me,sil,fe,cha,mi,sil1,ra,ba,sil2,['catch'],[2.4983000001907385],[2.4983000001907385],1.776,beat,0.7223000001907385,0.7223000001907385,"[""space""]",ra,2,testConjL2Uns//dep_viol.r2.s2.0.wav,1.0,conjunction_un,unsyncopated,b,s2,no_rule,dep,L2,z,1.0194,5.0,0.0,0.6561,3.0,3.0,Català,0.0,Castellano,0.0,Inglés,6.0,4.0,5.0,yes,no,no,Flauta dulce,10,16. En los conciertos me siento en sintonía con los artistas y el público.,4.0,Nada ,71.0,yes
16,2024-02-21_21h26.50.451,Unsyncopated_study2,s117,23.0,feminino,right,España,Catalán y castellano,Master degree,no,no,B,1,conjunction_un,L2,unsyncopated,s2,r2,16,Online_conjL2_un//c.cha.me29.none.none.wav,ba,ñu,mi,sil,fe,te,si,sil1,ra,ñi,sil2,['false alarm'],[1.1269999999999527],[1.1269999999999527],none,none,,,"[""space""]",me,3,testConjL2Uns//r1.s2.0.wav,1.0,conjunction_un,unsyncopated,a,s2,rule,rule,L2,z,0.4091,6.0,1.0,1.0686,3.0,3.0,Català,0.0,Castellano,0.0,Inglés,6.0,4.0,5.0,yes,no,no,Flauta dulce,10,17. Me gasto bastante dinero en música y cosas relacionadas con la música.,2.0,Nada ,71.0,yes
17,2024-02-21_21h26.50.451,Unsyncopated_study2,s117,23.0,feminino,right,España,Catalán y castellano,Master degree,no,no,B,1,conjunction_un,L2,unsyncopated,s1,r1,17,Online_conjL2_un//c.cha.me28.222.444.wav,go,cha,me,sil,du,mi,ba,sil1,bi,to,sil2,['catch'],[1.2410000000000991],[1.2410000000000991],0.444,no_beat,0.7970000000000992,0.7970000000000992,"[""space""]",me,3,testConjL2Uns//time_viol.r2.s1.0.wav,1.0,conjunction_un,unsyncopated,b,s1,no_rule,time,L2,m,0.5676,5.0,1.0,1.0911,3.0,3.0,Català,0.0,Castellano,0.0,Inglés,6.0,4.0,5.0,yes,no,no,Flauta dulce,10,18. Siento escalofríos cuando escucho una melodía que me gusta.,4.0,Nada ,71.0,yes
18,2024-02-21_21h26.50.451,Unsyncopated_study2,s117,23.0,feminino,right,España,Catalán y castellano,Master degree,no,no,B,1,conjunction_un,L2,unsyncopated,s2,r2,18,Online_conjL2_un//c.cha.me30.0.1110.wav,cha,mi,ba,sil,fe,me,si,sil1,ra,ñi,sil2,['catch'],[1.899000000000001],[1.899000000000001],1.11,no_beat,0.7890000000000008,0.7890000000000008,"[""space""]",me,3,testConjL2Uns//r1.s2.2.wav,1.0,conjunction_un,unsyncopated,a,s2,rule,rule,L2,z,2.398,4.0,1.0,0.8829,3.0,3.0,Català,0.0,Castellano,0.0,Inglés,6.0,4.0,5.0,yes,no,no,Flauta dulce,10,19. Con la música me puedo desahogar.,4.0,Nada ,71.0,yes
19,2024-02-21_21h26.50.451,Unsyncopated_study2,s117,23.0,feminino,right,España,Catalán y castellano,Master degree,no,no,B,1,conjunction_un,L2,unsyncopated,s1,r2,19,Online_conjL2_un//c.cha.me31.none.none.wav,fe,ñi,ba,sil,ra,si,te,sil1,ñu,mi,sil2,['-'],,,none,none,,,,me,3,testConjL2Uns//cat_viol.r2.s1.0.wav,1.0,conjunction_un,unsyncopated,b,s1,no_rule,cat,L2,z,2.3895,6.0,0.0,0.6103,3.0,3.0,Català,0.0,Castellano,0.0,Inglés,6.0,4.0,5.0,yes,no,no,Flauta dulce,10,20. Cuando escucho una melodía que me gusta mucho no puedo evitar mover el cuerpo.,3.0,Nada ,71.0,yes
20,2024-02-21_21h26.50.451,Unsyncopated_study2,s117,23.0,feminino,right,España,Catalán y castellano,Master degree,no,no,B,1,conjunction_un,L2,unsyncopated,s1,r2,20,Online_conjL2_un//b.fe.ra6.0.888.wav,fe,me,ñu,sil,ra,ñi,mi,sil1,to,bi,sil2,['catch'],[1.6351999998092879],[1.6351999998092879],0.888,beat,0.7471999998092879,0.7471999998092879,"[""space""]",ra,2,testConjL2Uns//r2.s1.1.wav,1.0,conjunction_un,unsyncopated,b,s1,rule,rule,L2,m,0.9994,6.0,0.0,1.5227,3.0,3.0,Català,0.0,Castellano,0.0,Inglés,6.0,4.0,5.0,yes,no,no,Flauta dulce,10,,,Nada ,71.0,yes
21,2024-02-21_21h26.50.451,Unsyncopated_study2,s117,23.0,feminino,right,España,Catalán y castellano,Master degree,no,no,B,1,conjunction_un,L2,unsyncopated,s2,r2,21,Online_conjL2_un//b.fe.ra4.888.1776.wav,bi,ñi,to,sil,fe,me,ba,sil1,ra,cha,sil2,['catch_delay'],[0.9741999998093098],[0.9741999998093098],1.776,beat,0.9741999998093098,0.9741999998093098,,ra,2,testConjL2Uns//cat_viol.r2.s2.0.wav,1.0,conjunction_un,unsyncopated,b,s2,no_rule,cat,L2,m,3.3242,2.0,1.0,1.1564,3.0,3.0,Català,0.0,Castellano,0.0,Inglés,6.0,4.0,5.0,yes,no,no,Flauta dulce,10,,,Nada ,71.0,yes
22,2024-02-21_21h26.50.451,Unsyncopated_study2,s117,23.0,feminino,right,España,Catalán y castellano,Master degree,no,no,B,1,conjunction_un,L2,unsyncopated,s1,r1,22,Online_conjL2_un//b.fe.ra7.none.none.wav,go,ñu,si,sil,du,me,ñi,sil1,te,ba,sil2,['-'],[0.0861999998093097],[0.0861999998093097],none,none,,,"[""space""]",ra,2,testConjL2Uns//cat_viol.r1.s1.0.wav,1.0,conjunction_un,unsyncopated,a,s1,no_rule,cat,L2,z,1.167,7.0,0.0,1.2159,3.0,3.0,Català,0.0,Castellano,0.0,Inglés,6.0,4.0,5.0,yes,no,no,Flauta dulce,10,,,Nada ,71.0,yes
23,2024-02-21_21h26.50.451,Unsyncopated_study2,s117,23.0,feminino,right,España,Catalán y castellano,Master degree,no,no,B,1,conjunction_un,L2,unsyncopated,s2,r1,23,Online_conjL2_un//b.fe.ra5.none.none.wav,cha,si,su,sil,go,bi,mi,sil1,du,ñu,sil2,['-'],,,none,none,,,,ra,2,testConjL2Uns//r2.s2.1.wav,1.0,conjunction_un,unsyncopated,b,s2,rule,rule,L2,m,3.1855,3.0,0.0,0.889,3.0,3.0,Català,0.0,Castellano,0.0,Inglés,6.0,4.0,5.0,yes,no,no,Flauta dulce,10,,,Nada ,71.0,yes
24,2024-02-21_21h26.50.451,Unsyncopated_study2,s117,23.0,feminino,right,España,Catalán y castellano,Master degree,no,no,B,1,conjunction_un,L2,unsyncopated,s2,r1,24,Online_conjL2_un//d.si.ñu8.0.222.wav,si,ñu,bi,sil,go,me,to,sil1,du,ba,sil2,['catch'],[1.1643000001907922],[1.1643000001907922],0.222,no_beat,0.9423000001907922,0.9423000001907922,"[""space""]",ñu,4,testWhenL4Uns//r1.s2.1.wav,2.0,when,unsyncopated,a,s2,rule,rule,L4,z,0.8889,6.0,1.0,1.1423,3.0,3.0,Català,0.0,Castellano,0.0,Inglés,6.0,4.0,5.0,yes,no,no,Flauta dulce,10,,,Nada ,71.0,yes
25,2024-02-21_21h26.50.451,Unsyncopated_study2,s117,23.0,feminino,right,España,Catalán y castellano,Master degree,no,no,B,1,conjunction_un,L2,unsyncopated,s2,r1,25,Online_conjL2_un//d.si.ñu11.none.none.wav,ba,to,bi,sil,go,mi,te,sil1,du,su,sil2,['-'],,,none,none,,,,ñu,4,testWhenL4Uns//cat_viol.r1.s2.0.wav,2.0,when,unsyncopated,a,s2,no_rule,cat,L4,z,1.1846,4.0,1.0,0.9657,3.0,3.0,Català,0.0,Castellano,0.0,Inglés,6.0,4.0,5.0,yes,no,no,Flauta dulce,10,,,Nada ,71.0,yes
26,2024-02-21_21h26.50.451,Unsyncopated_study2,s117,23.0,feminino,right,España,Catalán y castellano,Master degree,no,no,B,1,conjunction_un,L2,unsyncopated,s1,r2,26,Online_conjL2_un//d.si.ñu10.none.none.wav,fe,ba,bi,sil,ra,te,mi,sil1,me,to,sil2,['-'],,,none,none,,,,ñu,4,testWhenL4Uns//cat_viol.r1.s1.0.wav,2.0,when,unsyncopated,a,s1,no_rule,cat,L4,m,2.29,4.0,0.0,0.527,3.0,3.0,Català,0.0,Castellano,0.0,Inglés,6.0,4.0,5.0,yes,no,no,Flauta dulce,10,,,Nada ,71.0,yes
27,2024-02-21_21h26.50.451,Unsyncopated_study2,s117,23.0,feminino,right,España,Catalán y castellano,Master degree,no,no,B,1,conjunction_un,L2,unsyncopated,s2,r2,27,Online_conjL2_un//d.si.ñu9.none.none.wav,bi,cha,to,sil,fe,te,ba,sil1,ra,me,sil2,['-'],,,none,none,,,,ñu,4,testWhenL4Uns//r1.s2.2.wav,2.0,when,unsyncopated,a,s2,rule,rule,L4,z,1.3035,4.0,1.0,0.7069,3.0,3.0,Català,0.0,Castellano,0.0,Inglés,6.0,4.0,5.0,yes,no,no,Flauta dulce,10,,,Nada ,71.0,yes
28,2024-02-21_21h26.50.451,Unsyncopated_study2,s117,23.0,feminino,right,España,Catalán y castellano,Master degree,no,no,B,1,conjunction_un,L2,unsyncopated,s1,r2,28,Online_conjL2_un//c.cha.me25.none.none.wav,fe,ñu,ba,sil,ra,ñi,si,sil1,te,su,sil2,['false alarm'],[1.7465999999046744],[1.7465999999046744],none,none,,,"[""space""]",me,3,testWhenL4Uns//r1.s1.1.wav,2.0,when,unsyncopated,a,s1,rule,rule,L4,m,1.0672,3.0,0.0,0.7243,3.0,3.0,Català,0.0,Castellano,0.0,Inglés,6.0,4.0,5.0,yes,no,no,Flauta dulce,10,,,Nada ,71.0,yes
29,2024-02-21_21h26.50.451,Unsyncopated_study2,s117,23.0,feminino,right,España,Catalán y castellano,Master degree,no,no,B,1,conjunction_un,L2,unsyncopated,s2,r1,29,Online_conjL2_un//c.cha.me26.none.none.wav,to,si,ba,sil,go,ñi,ñu,sil1,du,bi,sil2,['-'],,,none,none,,,,me,3,testWhenL4Uns//dep_viol.r2.s2.0.wav,2.0,when,unsyncopated,b,s2,no_rule,dep,L4,z,2.1152,3.0,1.0,1.0357,3.0,3.0,Català,0.0,Castellano,0.0,Inglés,6.0,4.0,5.0,yes,no,no,Flauta dulce,10,,,Nada ,71.0,yes
30,2024-02-21_21h26.50.451,Unsyncopated_study2,s117,23.0,feminino,right,España,Catalán y castellano,Master degree,no,no,B,1,conjunction_un,L2,unsyncopated,s1,r2,30,Online_conjL2_un//c.cha.me27.1776.444.wav,fe,bi,me,sil,ra,mi,ba,sil1,cha,ñu,sil2,['catch'],[1.202900000095383],[1.202900000095383],0.444,no_beat,0.7589000000953829,0.7589000000953829,"[""space""]",me,3,testWhenL4Uns//r1.s1.0.wav,2.0,when,unsyncopated,a,s1,rule,rule,L4,m,1.685,4.0,0.0,1.401,3.0,3.0,Català,0.0,Castellano,0.0,Inglés,6.0,4.0,5.0,yes,no,no,Flauta dulce,10,,,Nada ,71.0,yes
31,2024-02-21_21h26.50.451,Unsyncopated_study2,s117,23.0,feminino,right,España,Catalán y castellano,Master degree,no,no,B,1,conjunction_un,L2,unsyncopated,s2,r1,31,Online_conjL2_un//c.cha.me24.444.0.wav,me,ba,cha,sil,go,su,bi,sil1,du,ñu,sil2,['catch'],[0.8854999999999791],[0.8854999999999791],0.0,beat,0.8854999999999791,0.8854999999999791,"[""space""]",me,3,testWhenL4Uns//cat_viol.r2.s2.0.wav,2.0,when,unsyncopated,b,s2,no_rule,cat,L4,z,0.9523,6.0,1.0,0.9503,3.0,3.0,Català,0.0,Castellano,0.0,Inglés,6.0,4.0,5.0,yes,no,no,Flauta dulce,10,,,Nada ,71.0,yes
32,2024-02-21_21h26.50.451,Unsyncopated_study2,s117,23.0,feminino,right,España,Catalán y castellano,Master degree,no,no,B,1,conjunction_un,L2,unsyncopated,s1,r2,32,Online_conjL2_un//a.go.du0.none.none.wav,fe,ñu,ba,sil,ra,mi,cha,sil1,bi,si,sil2,['-'],,,none,none,,,,go,1,testWhenL4Uns//r2.s1.2.wav,2.0,when,unsyncopated,b,s1,rule,rule,L4,z,1.3109,6.0,1.0,0.5873,3.0,3.0,Català,0.0,Castellano,0.0,Inglés,6.0,4.0,5.0,yes,no,no,Flauta dulce,10,,,Nada ,71.0,yes
33,2024-02-21_21h26.50.451,Unsyncopated_study2,s117,23.0,feminino,right,España,Catalán y castellano,Master degree,no,no,B,1,conjunction_un,L2,unsyncopated,s1,r1,33,Online_conjL2_un//a.go.du1.0.888.wav,go,bi,si,sil,du,ñu,ba,sil1,mi,cha,sil2,['catch'],[0.7189999999999372],[0.7189999999999372],0.0,beat,0.7189999999999372,0.7189999999999372,"[""space""]",go,1,testWhenL4Uns//time_viol.r1.s2.0.wav,2.0,when,unsyncopated,a,s2,no_rule,time,L4,m,1.9739,3.0,0.0,0.5332,3.0,3.0,Català,0.0,Castellano,0.0,Inglés,6.0,4.0,5.0,yes,no,no,Flauta dulce,10,,,Nada ,71.0,yes
34,2024-02-21_21h26.50.451,Unsyncopated_study2,s117,23.0,feminino,right,España,Catalán y castellano,Master degree,no,no,B,1,conjunction_un,L2,unsyncopated,s2,r1,34,Online_conjL2_un//a.go.du2.888.1776.wav,si,me,to,sil,go,bi,te,sil1,du,cha,sil2,['catch'],[1.6825000000000045],[1.6825000000000045],0.888,beat,0.7945000000000045,0.7945000000000045,"[""space""]",go,1,testWhenL4Uns//dep_viol.r2.s1.0.wav,2.0,when,unsyncopated,b,s1,no_rule,dep,L4,m,0.7173,5.0,0.0,1.1679,3.0,3.0,Català,0.0,Castellano,0.0,Inglés,6.0,4.0,5.0,yes,no,no,Flauta dulce,10,,,Nada ,71.0,yes
35,2024-02-21_21h26.50.451,Unsyncopated_study2,s117,23.0,feminino,right,España,Catalán y castellano,Master degree,no,no,B,1,conjunction_un,L2,unsyncopated,s2,r2,35,Online_conjL2_un//a.go.du3.none.none.wav,te,bi,su,sil,fe,me,ñi,sil1,ra,si,sil2,['-'],,,none,none,,,,go,1,testWhenL4Uns//dep_viol.r1.s2.0.wav,2.0,when,unsyncopated,a,s2,no_rule,dep,L4,m,1.2695,5.0,0.0,0.4908,3.0,3.0,Català,0.0,Castellano,0.0,Inglés,6.0,4.0,5.0,yes,no,no,Flauta dulce,10,,,Nada ,71.0,yes
36,2024-02-21_21h26.50.451,Unsyncopated_study2,s117,23.0,feminino,right,España,Catalán y castellano,Master degree,no,no,B,1,conjunction_un,L2,unsyncopated,s2,r1,36,Online_conjL2_un//b.fe.ra27.none.none.wav,mi,si,me,sil,go,ñu,to,sil1,du,te,sil2,['false alarm'],[0.6607000002860559],[0.6607000002860559],none,none,,,"[""space""]",ra,2,testWhenL4Uns//dep_viol.r1.s1.0.wav,2.0,when,unsyncopated,a,s1,no_rule,dep,L4,z,1.3392,5.0,1.0,0.5184,3.0,3.0,Català,0.0,Castellano,0.0,Inglés,6.0,4.0,5.0,yes,no,no,Flauta dulce,10,,,Nada ,71.0,yes
37,2024-02-21_21h26.50.451,Unsyncopated_study2,s117,23.0,feminino,right,España,Catalán y castellano,Master degree,no,no,B,1,conjunction_un,L2,unsyncopated,s2,r2,37,Online_conjL2_un//b.fe.ra26.888.1776.wav,ba,su,si,sil,fe,ñu,mi,sil1,ra,ñi,sil2,['catch'],[2.5021999998092497],[2.5021999998092497],1.776,beat,0.7261999998092497,0.7261999998092497,"[""space""]",ra,2,testWhenL4Uns//r2.s1.1.wav,2.0,when,unsyncopated,b,s1,rule,rule,L4,m,1.3494,4.0,0.0,0.9503,3.0,3.0,Català,0.0,Castellano,0.0,Inglés,6.0,4.0,5.0,yes,no,no,Flauta dulce,10,,,Nada ,71.0,yes
38,2024-02-21_21h26.50.451,Unsyncopated_study2,s117,23.0,feminino,right,España,Catalán y castellano,Master degree,no,no,B,1,conjunction_un,L2,unsyncopated,s2,r2,38,Online_conjL2_un//b.fe.ra25.888.1776.wav,me,bi,si,sil,fe,su,te,sil1,ra,cha,sil2,['catch_delay'],[0.9872000002860324],[0.9872000002860324],1.776,beat,0.9872000002860324,0.9872000002860324,,ra,2,testWhenL4Uns//time_viol.r2.s2.0.wav,2.0,when,unsyncopated,b,s2,no_rule,time,L4,m,2.4168,4.0,0.0,0.5692,3.0,3.0,Català,0.0,Castellano,0.0,Inglés,6.0,4.0,5.0,yes,no,no,Flauta dulce,10,,,Nada ,71.0,yes
39,2024-02-21_21h26.50.451,Unsyncopated_study2,s117,23.0,feminino,right,España,Catalán y castellano,Master degree,no,no,B,1,conjunction_un,L2,unsyncopated,s1,r1,39,Online_conjL2_un//b.fe.ra24.none.none.wav,go,su,bi,sil,du,me,ñi,sil1,mi,cha,sil2,['-'],[0.09920000028603226],[0.09920000028603226],none,none,,,"[""space""]",ra,2,testWhenL4Uns//time_viol.r2.s1.0.wav,2.0,when,unsyncopated,b,s1,no_rule,time,L4,z,1.1342,6.0,1.0,0.5675,3.0,3.0,Català,0.0,Castellano,0.0,Inglés,6.0,4.0,5.0,yes,no,no,Flauta dulce,10,,,Nada ,71.0,yes
40,2024-02-21_21h26.50.451,Unsyncopated_study2,s117,23.0,feminino,right,España,Catalán y castellano,Master degree,no,no,B,1,conjunction_un,L2,unsyncopated,s1,r2,40,Online_conjL2_un//d.si.ñu20.1776.222.wav,fe,ñu,cha,sil,ra,bi,te,sil1,si,ñi,sil2,['miss'],,,0.222,no_beat,,,,ñu,4,testWhenL4Uns//time_viol.r1.s1.0.wav,2.0,when,unsyncopated,a,s1,no_rule,time,L4,m,1.911,4.0,0.0,0.7718,3.0,3.0,Català,0.0,Castellano,0.0,Inglés,6.0,4.0,5.0,yes,no,no,Flauta dulce,10,,,Nada ,71.0,yes
41,2024-02-21_21h26.50.451,Unsyncopated_study2,s117,23.0,feminino,right,España,Catalán y castellano,Master degree,no,no,B,1,conjunction_un,L2,unsyncopated,s1,r1,41,Online_conjL2_un//d.si.ñu22.none.none.wav,go,su,to,sil,du,ñi,me,sil1,bi,mi,sil2,['false alarm'],[0.13649999999995543],[0.13649999999995543],none,none,,,"[""space""]",ñu,4,testWhenL4Uns//r2.s2.2.wav,2.0,when,unsyncopated,b,s2,rule,rule,L4,m,1.6238,4.0,0.0,0.4393,3.0,3.0,Català,0.0,Castellano,0.0,Inglés,6.0,4.0,5.0,yes,no,no,Flauta dulce,10,,,Nada ,71.0,yes
42,2024-02-21_21h26.50.451,Unsyncopated_study2,s117,23.0,feminino,right,España,Catalán y castellano,Master degree,no,no,B,1,conjunction_un,L2,unsyncopated,s2,r1,42,Online_conjL2_un//d.si.ñu23.none.none.wav,su,to,ñi,sil,go,mi,cha,sil1,du,ba,sil2,['-'],,,none,none,,,,ñu,4,testWhenL4Uns//r1.s1.2.wav,2.0,when,unsyncopated,a,s1,rule,rule,L4,z,0.6659,6.0,1.0,0.5906,3.0,3.0,Català,0.0,Castellano,0.0,Inglés,6.0,4.0,5.0,yes,no,no,Flauta dulce,10,,,Nada ,71.0,yes
43,2024-02-21_21h26.50.451,Unsyncopated_study2,s117,23.0,feminino,right,España,Catalán y castellano,Master degree,no,no,B,1,conjunction_un,L2,unsyncopated,s1,r2,43,Online_conjL2_un//d.si.ñu21.none.none.wav,fe,ba,mi,sil,ra,cha,su,sil1,to,me,sil2,['-'],,,none,none,,,,ñu,4,testWhenL4Uns//r2.s1.0.wav,2.0,when,unsyncopated,b,s1,rule,rule,L4,m,1.3204,5.0,0.0,0.6991,3.0,3.0,Català,0.0,Castellano,0.0,Inglés,6.0,4.0,5.0,yes,no,no,Flauta dulce,10,,,Nada ,71.0,yes
44,2024-02-21_21h26.50.451,Unsyncopated_study2,s117,23.0,feminino,right,España,Catalán y castellano,Master degree,no,no,B,1,conjunction_un,L2,unsyncopated,s2,r2,44,Online_conjL2_un//d.si.ñu13.0.1110.wav,si,su,ba,sil,fe,ñu,ñi,sil1,ra,mi,sil2,['catch'],[1.9940000000000282],[1.9940000000000282],1.11,no_beat,0.8840000000000281,0.8840000000000281,"[""space""]",ñu,4,testWhenL4Uns//cat_viol.r2.s1.0.wav,2.0,when,unsyncopated,b,s1,no_rule,cat,L4,z,0.7921,5.0,1.0,0.6361,3.0,3.0,Català,0.0,Castellano,0.0,Inglés,6.0,4.0,5.0,yes,no,no,Flauta dulce,10,,,Nada ,71.0,yes
45,2024-02-21_21h26.50.451,Unsyncopated_study2,s117,23.0,feminino,right,España,Catalán y castellano,Master degree,no,no,B,1,conjunction_un,L2,unsyncopated,s2,r1,45,Online_conjL2_un//d.si.ñu12.none.none.wav,ba,bi,mi,sil,go,to,cha,sil1,du,te,sil2,['-'],,,none,none,,,,ñu,4,testWhenL4Uns//r2.s2.1.wav,2.0,when,unsyncopated,b,s2,rule,rule,L4,z,1.9683,4.0,1.0,0.5317,3.0,3.0,Català,0.0,Castellano,0.0,Inglés,6.0,4.0,5.0,yes,no,no,Flauta dulce,10,,,Nada ,71.0,yes
46,2024-02-21_21h26.50.451,Unsyncopated_study2,s117,23.0,feminino,right,España,Catalán y castellano,Master degree,no,no,B,1,conjunction_un,L2,unsyncopated,s2,r1,46,Online_conjL2_un//d.si.ñu15.none.none.wav,su,mi,bi,sil,go,me,ba,sil1,du,te,sil2,['-'],,,none,none,,,,ñu,4,testWhenL4Uns//r2.s2.0.wav,2.0,when,unsyncopated,b,s2,rule,rule,L4,m,0.7248,5.0,0.0,0.5215,3.0,3.0,Català,0.0,Castellano,0.0,Inglés,6.0,4.0,5.0,yes,no,no,Flauta dulce,10,,,Nada ,71.0,yes
47,2024-02-21_21h26.50.451,Unsyncopated_study2,s117,23.0,feminino,right,España,Catalán y castellano,Master degree,no,no,B,1,conjunction_un,L2,unsyncopated,s1,r2,47,Online_conjL2_un//d.si.ñu14.1110.222.wav,fe,ñu,ñi,sil,ra,si,ba,sil1,te,su,sil2,['miss'],,,0.222,no_beat,,,,ñu,4,testWhenL4Uns//r1.s2.0.wav,2.0,when,unsyncopated,a,s2,rule,rule,L4,z,0.8097,5.0,1.0,0.644,3.0,3.0,Català,0.0,Castellano,0.0,Inglés,6.0,4.0,5.0,yes,no,no,Flauta dulce,10,,,Nada ,71.0,yes
48,2024-02-21_21h26.50.451,Unsyncopated_study2,s117,23.0,feminino,right,España,Catalán y castellano,Master degree,no,no,B,1,conjunction_un,L2,unsyncopated,s1,r2,48,Online_conjL2_un//a.go.du17.none.none.wav,fe,mi,su,sil,ra,me,bi,sil1,te,si,sil2,['-'],,,none,none,,,,go,1,testWhatL3Uns//dep_viol.r2.s1.0.wav,3.0,what,unsyncopated,b,s1,no_rule,dep,L3,m,1.0705,5.0,1.0,1.0648,3.0,3.0,Català,0.0,Castellano,0.0,Inglés,6.0,4.0,5.0,yes,no,no,Flauta dulce,10,,,Nada ,71.0,yes
49,2024-02-21_21h26.50.451,Unsyncopated_study2,s117,23.0,feminino,right,España,Catalán y castellano,Master degree,no,no,B,1,conjunction_un,L2,unsyncopated,s2,r1,49,Online_conjL2_un//a.go.du16.888.1776.wav,cha,me,ba,sil,go,to,si,sil1,du,ñi,sil2,['catch'],[1.9174000000954265],[1.9174000000954265],0.888,beat,1.0294000000954266,1.0294000000954266,"[""space""]",go,1,testWhatL3Uns//r2.s2.1.wav,3.0,what,unsyncopated,b,s2,rule,rule,L3,z,1.1515,6.0,1.0,1.1023,3.0,3.0,Català,0.0,Castellano,0.0,Inglés,6.0,4.0,5.0,yes,no,no,Flauta dulce,10,,,Nada ,71.0,yes
50,2024-02-21_21h26.50.451,Unsyncopated_study2,s117,23.0,feminino,right,España,Catalán y castellano,Master degree,no,no,B,1,conjunction_un,L2,unsyncopated,s1,r1,50,Online_conjL2_un//a.go.du18.0.888.wav,go,me,si,sil,du,ñi,ba,sil1,su,to,sil2,['miss'],,,0.0,beat,,,,go,1,testWhatL3Uns//time_viol.r2.s2.0.wav,3.0,what,unsyncopated,b,s2,no_rule,time,L3,m,1.8346,3.0,1.0,1.0369,3.0,3.0,Català,0.0,Castellano,0.0,Inglés,6.0,4.0,5.0,yes,no,no,Flauta dulce,10,,,Nada ,71.0,yes
51,2024-02-21_21h26.50.451,Unsyncopated_study2,s117,23.0,feminino,right,España,Catalán y castellano,Master degree,no,no,B,1,conjunction_un,L2,unsyncopated,s1,r1,51,Online_conjL2_un//a.go.du19.0.888.wav,go,ba,si,sil,du,su,mi,sil1,ñi,cha,sil2,['catch'],[1.268599999904609],[1.268599999904609],0.0,beat,,1.268599999904609,"[""space""]",go,1,testWhatL3Uns//r1.s2.1.wav,3.0,what,unsyncopated,a,s2,rule,rule,L3,m,1.3408,4.0,0.0,0.6007,3.0,3.0,Català,0.0,Castellano,0.0,Inglés,6.0,4.0,5.0,yes,no,no,Flauta dulce,10,,,Nada ,71.0,yes
52,2024-02-21_21h26.50.451,Unsyncopated_study2,s117,23.0,feminino,right,España,Catalán y castellano,Master degree,no,no,B,1,conjunction_un,L2,unsyncopated,s2,r1,52,Online_conjL2_un//b.fe.ra8.none.none.wav,si,to,mi,sil,go,cha,me,sil1,du,bi,sil2,['-'],,,none,none,,,,ra,2,testWhatL3Uns//dep_viol.r1.s2.0.wav,3.0,what,unsyncopated,a,s2,no_rule,dep,L3,m,0.4025,3.0,1.0,0.5718,3.0,3.0,Català,0.0,Castellano,0.0,Inglés,6.0,4.0,5.0,yes,no,no,Flauta dulce,10,,,Nada ,71.0,yes
53,2024-02-21_21h26.50.451,Unsyncopated_study2,s117,23.0,feminino,right,España,Catalán y castellano,Master degree,no,no,B,1,conjunction_un,L2,unsyncopated,s1,r2,53,Online_conjL2_un//b.fe.ra10.0.888.wav,fe,ñu,cha,sil,ra,mi,bi,sil1,me,si,sil2,['catch'],[1.7160000000000082],[1.7160000000000082],0.888,beat,0.8280000000000082,0.8280000000000082,"[""space""]",ra,2,testWhatL3Uns//dep_viol.r1.s1.0.wav,3.0,what,unsyncopated,a,s1,no_rule,dep,L3,m,0.652,3.0,1.0,0.2851,3.0,3.0,Català,0.0,Castellano,0.0,Inglés,6.0,4.0,5.0,yes,no,no,Flauta dulce,10,,,Nada ,71.0,yes
54,2024-02-21_21h26.50.451,Unsyncopated_study2,s117,23.0,feminino,right,España,Catalán y castellano,Master degree,no,no,B,1,conjunction_un,L2,unsyncopated,s1,r2,54,Online_conjL2_un//b.fe.ra11.0.888.wav,fe,bi,mi,sil,ra,te,su,sil1,cha,ba,sil2,['catch'],[1.599099999904638],[1.599099999904638],0.888,beat,0.711099999904638,0.711099999904638,"[""space""]",ra,2,testWhatL3Uns//r1.s1.0.wav,3.0,what,unsyncopated,a,s1,rule,rule,L3,z,0.8455,5.0,1.0,0.5817,3.0,3.0,Català,0.0,Castellano,0.0,Inglés,6.0,4.0,5.0,yes,no,no,Flauta dulce,10,,,Nada ,71.0,yes
55,2024-02-21_21h26.50.451,Unsyncopated_study2,s117,23.0,feminino,right,España,Catalán y castellano,Master degree,no,no,B,1,conjunction_un,L2,unsyncopated,s1,r2,55,Online_conjL2_un//b.fe.ra9.0.888.wav,fe,ñu,cha,sil,ra,to,bi,sil1,te,ba,sil2,['catch'],[1.7645999999045898],[1.7645999999045898],0.888,beat,0.8765999999045898,0.8765999999045898,"[""space""]",ra,2,testWhatL3Uns//cat_viol.r1.s2.0.wav,3.0,what,unsyncopated,a,s2,no_rule,cat,L3,z,0.4008,4.0,0.0,0.2847,3.0,3.0,Català,0.0,Castellano,0.0,Inglés,6.0,4.0,5.0,yes,no,no,Flauta dulce,10,,,Nada ,71.0,yes
56,2024-02-21_21h26.50.451,Unsyncopated_study2,s117,23.0,feminino,right,España,Catalán y castellano,Master degree,no,no,B,1,conjunction_un,L2,unsyncopated,s1,r2,56,Online_conjL2_un//c.cha.me7.none.none.wav,fe,su,si,sil,ra,te,mi,sil1,ba,to,sil2,['-'],,,none,none,,,,me,3,testWhatL3Uns//r1.s2.0.wav,3.0,what,unsyncopated,a,s2,rule,rule,L3,m,0.9185,3.0,0.0,0.4024,3.0,3.0,Català,0.0,Castellano,0.0,Inglés,6.0,4.0,5.0,yes,no,no,Flauta dulce,10,,,Nada ,71.0,yes
57,2024-02-21_21h26.50.451,Unsyncopated_study2,s117,23.0,feminino,right,España,Catalán y castellano,Master degree,no,no,B,1,conjunction_un,L2,unsyncopated,s2,r1,57,Online_conjL2_un//c.cha.me5.1332.0.wav,me,ñi,mi,sil,go,to,cha,sil1,du,su,sil2,['catch'],[0.9153000001906548],[0.9153000001906548],0.0,beat,0.9153000001906548,0.9153000001906548,"[""space""]",me,3,testWhatL3Uns//cat_viol.r2.s1.0.wav,3.0,what,unsyncopated,b,s1,no_rule,cat,L3,m,1.6568,4.0,1.0,0.366,3.0,3.0,Català,0.0,Castellano,0.0,Inglés,6.0,4.0,5.0,yes,no,no,Flauta dulce,10,,,Nada ,71.0,yes
58,2024-02-21_21h26.50.451,Unsyncopated_study2,s117,23.0,feminino,right,España,Catalán y castellano,Master degree,no,no,B,1,conjunction_un,L2,unsyncopated,s2,r2,58,Online_conjL2_un//c.cha.me4.none.none.wav,mi,ñu,su,sil,fe,bi,to,sil1,ra,ñi,sil2,['-'],,,none,none,,,,me,3,testWhatL3Uns//r2.s1.0.wav,3.0,what,unsyncopated,b,s1,rule,rule,L3,m,1.4407,3.0,0.0,0.6568,3.0,3.0,Català,0.0,Castellano,0.0,Inglés,6.0,4.0,5.0,yes,no,no,Flauta dulce,10,,,Nada ,71.0,yes
59,2024-02-21_21h26.50.451,Unsyncopated_study2,s117,23.0,feminino,right,España,Catalán y castellano,Master degree,no,no,B,1,conjunction_un,L2,unsyncopated,s2,r2,59,Online_conjL2_un//c.cha.me6.0.222.wav,cha,me,si,sil,fe,ba,te,sil1,ra,to,sil2,['catch'],[1.0489999999999782],[1.0489999999999782],0.222,no_beat,0.8269999999999782,0.8269999999999782,"[""space""]",me,3,testWhatL3Uns//r2.s1.2.wav,3.0,what,unsyncopated,b,s1,rule,rule,L3,z,0.9186,3.0,1.0,0.4348,3.0,3.0,Català,0.0,Castellano,0.0,Inglés,6.0,4.0,5.0,yes,no,no,Flauta dulce,10,,,Nada ,71.0,yes
60,2024-02-21_21h26.50.451,Unsyncopated_study2,s117,23.0,feminino,right,España,Catalán y castellano,Master degree,no,no,B,1,conjunction_un,L2,unsyncopated,s2,r2,60,Online_conjL2_un//b.fe.ra2.888.1776.wav,bi,te,mi,sil,fe,ñu,si,sil1,ra,ba,sil2,['catch'],[2.497400000095354],[2.497400000095354],1.776,beat,0.7214000000953538,0.7214000000953538,"[""space""]",ra,2,testWhatL3Uns//r1.s1.2.wav,3.0,what,unsyncopated,a,s1,rule,rule,L3,m,0.7053,6.0,0.0,0.6354,3.0,3.0,Català,0.0,Castellano,0.0,Inglés,6.0,4.0,5.0,yes,no,no,Flauta dulce,10,,,Nada ,71.0,yes
61,2024-02-21_21h26.50.451,Unsyncopated_study2,s117,23.0,feminino,right,España,Catalán y castellano,Master degree,no,no,B,1,conjunction_un,L2,unsyncopated,s1,r1,61,Online_conjL2_un//b.fe.ra3.none.none.wav,go,bi,to,sil,du,me,ba,sil1,su,ñi,sil2,['-'],,,none,none,,,,ra,2,testWhatL3Uns//r2.s1.1.wav,3.0,what,unsyncopated,b,s1,rule,rule,L3,z,0.6528,6.0,1.0,0.5748,3.0,3.0,Català,0.0,Castellano,0.0,Inglés,6.0,4.0,5.0,yes,no,no,Flauta dulce,10,,,Nada ,71.0,yes
62,2024-02-21_21h26.50.451,Unsyncopated_study2,s117,23.0,feminino,right,España,Catalán y castellano,Master degree,no,no,B,1,conjunction_un,L2,unsyncopated,s1,r1,62,Online_conjL2_un//b.fe.ra1.none.none.wav,go,te,su,sil,du,mi,ba,sil1,si,me,sil2,['-'],,,none,none,,,,ra,2,testWhatL3Uns//cat_viol.r1.s1.0.wav,3.0,what,unsyncopated,a,s1,no_rule,cat,L3,z,0.5511,5.0,0.0,0.4522,3.0,3.0,Català,0.0,Castellano,0.0,Inglés,6.0,4.0,5.0,yes,no,no,Flauta dulce,10,,,Nada ,71.0,yes
63,2024-02-21_21h26.50.451,Unsyncopated_study2,s117,23.0,feminino,right,España,Catalán y castellano,Master degree,no,no,B,1,conjunction_un,L2,unsyncopated,s2,r2,63,Online_conjL2_un//b.fe.ra0.888.1776.wav,ñi,mi,si,sil,fe,to,ñu,sil1,ra,ba,sil2,['catch'],[2.6256999998091715],[2.6256999998091715],1.776,beat,0.8496999998091714,0.8496999998091714,"[""space""]",ra,2,testWhatL3Uns//cat_viol.r2.s2.0.wav,3.0,what,unsyncopated,b,s2,no_rule,cat,L3,m,1.668,3.0,1.0,0.3526,3.0,3.0,Català,0.0,Castellano,0.0,Inglés,6.0,4.0,5.0,yes,no,no,Flauta dulce,10,,,Nada ,71.0,yes
64,2024-02-21_21h26.50.451,Unsyncopated_study2,s117,23.0,feminino,right,España,Catalán y castellano,Master degree,no,no,B,1,conjunction_un,L2,unsyncopated,s1,r1,64,Online_conjL2_un//d.si.ñu0.none.none.wav,go,cha,ba,sil,du,ñi,bi,sil1,su,to,sil2,['false alarm'],[2.1269999999999527],[2.1269999999999527],none,none,,,"[""space""]",ñu,4,testWhatL3Uns//r1.s2.2.wav,3.0,what,unsyncopated,a,s2,rule,rule,L3,z,2.0058,4.0,1.0,0.3657,3.0,3.0,Català,0.0,Castellano,0.0,Inglés,6.0,4.0,5.0,yes,no,no,Flauta dulce,10,,,Nada ,71.0,yes
65,2024-02-21_21h26.50.451,Unsyncopated_study2,s117,23.0,feminino,right,España,Catalán y castellano,Master degree,no,no,B,1,conjunction_un,L2,unsyncopated,s2,r2,65,Online_conjL2_un//d.si.ñu3.none.none.wav,to,ba,te,sil,fe,cha,bi,sil1,ra,me,sil2,['-'],,,none,none,,,,ñu,4,testWhatL3Uns//r2.s2.2.wav,3.0,what,unsyncopated,b,s2,rule,rule,L3,m,0.3777,2.0,0.0,1.4868,3.0,3.0,Català,0.0,Castellano,0.0,Inglés,6.0,4.0,5.0,yes,no,no,Flauta dulce,10,,,Nada ,71.0,yes
66,2024-02-21_21h26.50.451,Unsyncopated_study2,s117,23.0,feminino,right,España,Catalán y castellano,Master degree,no,no,B,1,conjunction_un,L2,unsyncopated,s1,r1,66,Online_conjL2_un//d.si.ñu2.1776.444.wav,go,ba,ñu,sil,du,to,su,sil1,si,ñi,sil2,['catch'],[1.3319999999999936],[1.3319999999999936],0.444,no_beat,0.8879999999999937,0.8879999999999937,"[""space""]",ñu,4,testWhatL3Uns//dep_viol.r2.s2.0.wav,3.0,what,unsyncopated,b,s2,no_rule,dep,L3,m,0.4211,1.0,1.0,0.6021,3.0,3.0,Català,0.0,Castellano,0.0,Inglés,6.0,4.0,5.0,yes,no,no,Flauta dulce,10,,,Nada ,71.0,yes
67,2024-02-21_21h26.50.451,Unsyncopated_study2,s117,23.0,feminino,right,España,Catalán y castellano,Master degree,no,no,B,1,conjunction_un,L2,unsyncopated,s1,r2,67,Online_conjL2_un//d.si.ñu1.222.1332.wav,fe,si,ba,sil,ra,su,ñu,sil1,ñi,me,sil2,['catch'],[2.1620000000000346],[2.1620000000000346],1.332,no_beat,0.8300000000000345,0.8300000000000345,"[""space""]",ñu,4,testWhatL3Uns//time_viol.r1.s2.0.wav,3.0,what,unsyncopated,a,s2,no_rule,time,L3,m,1.7029,2.0,1.0,0.5855,3.0,3.0,Català,0.0,Castellano,0.0,Inglés,6.0,4.0,5.0,yes,no,no,Flauta dulce,10,,,Nada ,71.0,yes
68,2024-02-21_21h26.50.451,Unsyncopated_study2,s117,23.0,feminino,right,España,Catalán y castellano,Master degree,no,no,B,1,conjunction_un,L2,unsyncopated,s2,r2,68,Online_conjL2_un//a.go.du26.none.none.wav,mi,bi,ñi,sil,fe,cha,te,sil1,ra,su,sil2,['-'],,,none,none,,,,go,1,testWhatL3Uns//r2.s2.0.wav,3.0,what,unsyncopated,b,s2,rule,rule,L3,m,0.4698,3.0,0.0,0.585,3.0,3.0,Català,0.0,Castellano,0.0,Inglés,6.0,4.0,5.0,yes,no,no,Flauta dulce,10,,,Nada ,71.0,yes
69,2024-02-21_21h26.50.451,Unsyncopated_study2,s117,23.0,feminino,right,España,Catalán y castellano,Master degree,no,no,B,1,conjunction_un,L2,unsyncopated,s2,r1,69,Online_conjL2_un//a.go.du27.888.1776.wav,ñu,ba,bi,sil,go,si,mi,sil1,du,te,sil2,['catch'],[1.785799999713845],[1.785799999713845],0.888,beat,0.8977999997138449,0.8977999997138449,"[""space""]",go,1,testWhatL3Uns//r1.s1.1.wav,3.0,what,unsyncopated,a,s1,rule,rule,L3,m,0.8336,5.0,0.0,1.1181,3.0,3.0,Català,0.0,Castellano,0.0,Inglés,6.0,4.0,5.0,yes,no,no,Flauta dulce,10,,,Nada ,71.0,yes
70,2024-02-21_21h26.50.451,Unsyncopated_study2,s117,23.0,feminino,right,España,Catalán y castellano,Master degree,no,no,B,1,conjunction_un,L2,unsyncopated,s1,r1,70,Online_conjL2_un//a.go.du24.0.888.wav,go,si,bi,sil,du,to,me,sil1,ñi,ba,sil2,['catch'],[0.9813000001907994],[0.9813000001907994],0.0,beat,0.9813000001907994,0.9813000001907994,"[""space""]",go,1,testWhatL3Uns//time_viol.r1.s1.0.wav,3.0,what,unsyncopated,a,s1,no_rule,time,L3,z,1.3517,4.0,0.0,0.4007,3.0,3.0,Català,0.0,Castellano,0.0,Inglés,6.0,4.0,5.0,yes,no,no,Flauta dulce,10,,,Nada ,71.0,yes
71,2024-02-21_21h26.50.451,Unsyncopated_study2,s117,23.0,feminino,right,España,Catalán y castellano,Master degree,no,no,B,1,conjunction_un,L2,unsyncopated,s2,r2,71,Online_conjL2_un//a.go.du25.none.none.wav,mi,ñu,ba,sil,fe,bi,to,sil1,ra,si,sil2,['-'],,,none,none,,,,go,1,testWhatL3Uns//time_viol.r2.s1.0.wav,3.0,what,unsyncopated,b,s1,no_rule,time,L3,z,0.6355,3.0,0.0,0.5232,3.0,3.0,Català,0.0,Castellano,0.0,Inglés,6.0,4.0,5.0,yes,no,no,Flauta dulce,10,,,Nada ,71.0,yes
72,2024-02-21_21h26.50.451,Unsyncopated_study2,s117,23.0,feminino,right,España,Catalán y castellano,Master degree,no,no,B,1,conjunction_un,L2,unsyncopated,s2,r1,72,Online_conjL2_un//c.cha.me18.none.none.wav,ba,su,mi,sil,go,ñu,te,sil1,du,ñi,sil2,['-'],,,none,none,,,,me,3,testConjL1Syn//dep_viol.r2.s2.0.wav,4.0,conjunction_syn,syncopated,b,s2,no_rule,dep,L1,m,0.7318,6.0,1.0,1.1233,3.0,3.0,Català,0.0,Castellano,0.0,Inglés,6.0,4.0,5.0,yes,no,no,Flauta dulce,10,,,Nada ,71.0,yes
73,2024-02-21_21h26.50.451,Unsyncopated_study2,s117,23.0,feminino,right,España,Catalán y castellano,Master degree,no,no,B,1,conjunction_un,L2,unsyncopated,s2,r1,73,Online_conjL2_un//c.cha.me19.none.none.wav,bi,mi,to,sil,go,ñu,si,sil1,du,ñi,sil2,['-'],,,none,none,,,,me,3,testConjL1Syn//r2.s2.0.wav,4.0,conjunction_syn,syncopated,b,s2,rule,rule,L1,m,1.9361,5.0,0.0,1.018,3.0,3.0,Català,0.0,Castellano,0.0,Inglés,6.0,4.0,5.0,yes,no,no,Flauta dulce,10,,,Nada ,71.0,yes
74,2024-02-21_21h26.50.451,Unsyncopated_study2,s117,23.0,feminino,right,España,Catalán y castellano,Master degree,no,no,B,1,conjunction_un,L2,unsyncopated,s2,r1,74,Online_conjL2_un//c.cha.me17.1332.444.wav,bi,ba,me,sil,go,ñi,cha,sil1,du,si,sil2,['catch'],[1.5356999998092533],[1.5356999998092533],0.444,no_beat,1.0916999998092534,1.0916999998092534,"[""space""]",me,3,testConjL1Syn//dep_viol.r2.s1.0.wav,4.0,conjunction_syn,syncopated,b,s1,no_rule,dep,L1,z,0.8738,3.0,0.0,1.5545,3.0,3.0,Català,0.0,Castellano,0.0,Inglés,6.0,4.0,5.0,yes,no,no,Flauta dulce,10,,,Nada ,71.0,yes
75,2024-02-21_21h26.50.451,Unsyncopated_study2,s117,23.0,feminino,right,España,Catalán y castellano,Master degree,no,no,B,1,conjunction_un,L2,unsyncopated,s2,r2,75,Online_conjL2_un//c.cha.me16.none.none.wav,te,mi,si,sil,fe,ñi,bi,sil1,ra,ñu,sil2,['-'],,,none,none,,,,me,3,testConjL1Syn//cat_viol.r2.s2.0.wav,4.0,conjunction_syn,syncopated,b,s2,no_rule,cat,L1,m,1.6235,4.0,1.0,1.1509,3.0,3.0,Català,0.0,Castellano,0.0,Inglés,6.0,4.0,5.0,yes,no,no,Flauta dulce,10,,,Nada ,71.0,yes
76,2024-02-21_21h26.50.451,Unsyncopated_study2,s117,23.0,feminino,right,España,Catalán y castellano,Master degree,no,no,B,1,conjunction_un,L2,unsyncopated,s2,r1,76,Online_conjL2_un//c.cha.me15.444.1110.wav,mi,ba,cha,sil,go,me,si,sil1,du,te,sil2,['catch'],[2.0568000001907194],[2.0568000001907194],1.11,no_beat,0.9468000001907192,0.9468000001907192,"[""space""]",me,3,testConjL1Syn//time_viol.r2.s2.0.wav,4.0,conjunction_syn,syncopated,b,s2,no_rule,time,L1,z,1.2052,5.0,0.0,0.9873,3.0,3.0,Català,0.0,Castellano,0.0,Inglés,6.0,4.0,5.0,yes,no,no,Flauta dulce,10,,,Nada ,71.0,yes
77,2024-02-21_21h26.50.451,Unsyncopated_study2,s117,23.0,feminino,right,España,Catalán y castellano,Master degree,no,no,B,1,conjunction_un,L2,unsyncopated,s1,r1,77,Online_conjL2_un//c.cha.me13.none.none.wav,go,bi,su,sil,du,si,te,sil1,mi,ñu,sil2,['-'],,,none,none,,,,me,3,testConjL1Syn//r1.s2.2.wav,4.0,conjunction_syn,syncopated,a,s2,rule,rule,L1,m,1.4018,4.0,0.0,0.5212,3.0,3.0,Català,0.0,Castellano,0.0,Inglés,6.0,4.0,5.0,yes,no,no,Flauta dulce,10,,,Nada ,71.0,yes
78,2024-02-21_21h26.50.451,Unsyncopated_study2,s117,23.0,feminino,right,España,Catalán y castellano,Master degree,no,no,B,1,conjunction_un,L2,unsyncopated,s1,r2,78,Online_conjL2_un//c.cha.me14.none.none.wav,fe,mi,su,sil,ra,si,ba,sil1,te,ñi,sil2,['-'],,,none,none,,,,me,3,testConjL1Syn//r1.s2.0.wav,4.0,conjunction_syn,syncopated,a,s2,rule,rule,L1,m,1.4342,4.0,0.0,0.9012,3.0,3.0,Català,0.0,Castellano,0.0,Inglés,6.0,4.0,5.0,yes,no,no,Flauta dulce,10,,,Nada ,71.0,yes
79,2024-02-21_21h26.50.451,Unsyncopated_study2,s117,23.0,feminino,right,España,Catalán y castellano,Master degree,no,no,B,1,conjunction_un,L2,unsyncopated,s1,r1,79,Online_conjL2_un//c.cha.me12.1332.222.wav,go,me,si,sil,du,ñu,cha,sil1,ñi,bi,sil2,['catch'],[1.191500000000019],[1.191500000000019],0.222,no_beat,0.9695000000000192,0.9695000000000192,"[""space""]",me,3,testConjL1Syn//r1.s1.0.wav,4.0,conjunction_syn,syncopated,a,s1,rule,rule,L1,z,2.59,2.0,1.0,0.3156,3.0,3.0,Català,0.0,Castellano,0.0,Inglés,6.0,4.0,5.0,yes,no,no,Flauta dulce,10,,,Nada ,71.0,yes
80,2024-02-21_21h26.50.451,Unsyncopated_study2,s117,23.0,feminino,right,España,Catalán y castellano,Master degree,no,no,B,1,conjunction_un,L2,unsyncopated,s1,r1,80,Online_conjL2_un//d.si.ñu7.none.none.wav,go,ñi,mi,sil,du,te,ba,sil1,su,to,sil2,['-'],,,none,none,,,,ñu,4,testConjL1Syn//r2.s2.2.wav,4.0,conjunction_syn,syncopated,b,s2,rule,rule,L1,z,0.867,5.0,1.0,0.5181,3.0,3.0,Català,0.0,Castellano,0.0,Inglés,6.0,4.0,5.0,yes,no,no,Flauta dulce,10,,,Nada ,71.0,yes
81,2024-02-21_21h26.50.451,Unsyncopated_study2,s117,23.0,feminino,right,España,Catalán y castellano,Master degree,no,no,B,1,conjunction_un,L2,unsyncopated,s2,r2,81,Online_conjL2_un//d.si.ñu5.none.none.wav,bi,ñi,mi,sil,fe,te,ba,sil1,ra,to,sil2,['false alarm'],[1.5876000003814852],[1.5876000003814852],none,none,,,"[""space""]",ñu,4,testConjL1Syn//r2.s2.1.wav,4.0,conjunction_syn,syncopated,b,s2,rule,rule,L1,m,2.3065,2.0,0.0,0.5221,3.0,3.0,Català,0.0,Castellano,0.0,Inglés,6.0,4.0,5.0,yes,no,no,Flauta dulce,10,,,Nada ,71.0,yes
82,2024-02-21_21h26.50.451,Unsyncopated_study2,s117,23.0,feminino,right,España,Catalán y castellano,Master degree,no,no,B,1,conjunction_un,L2,unsyncopated,s1,r1,82,Online_conjL2_un//d.si.ñu4.1332.444.wav,go,me,ñu,sil,du,cha,si,sil1,bi,to,sil2,['catch'],[1.2600000000001046],[1.2600000000001046],0.444,no_beat,0.8160000000001046,0.8160000000001046,"[""space""]",ñu,4,testConjL1Syn//r1.s1.1.wav,4.0,conjunction_syn,syncopated,a,s1,rule,rule,L1,m,1.0179,4.0,0.0,0.5356,3.0,3.0,Català,0.0,Castellano,0.0,Inglés,6.0,4.0,5.0,yes,no,no,Flauta dulce,10,,,Nada ,71.0,yes
83,2024-02-21_21h26.50.451,Unsyncopated_study2,s117,23.0,feminino,right,España,Catalán y castellano,Master degree,no,no,B,1,conjunction_un,L2,unsyncopated,s1,r1,83,Online_conjL2_un//d.si.ñu6.444.1110.wav,go,cha,si,sil,du,ñu,ba,sil1,me,to,sil2,['catch'],[2.1149000000953038],[2.1149000000953038],1.11,no_beat,1.0049000000953037,1.0049000000953037,"[""space""]",ñu,4,testConjL1Syn//time_viol.r1.s1.0.wav,4.0,conjunction_syn,syncopated,a,s1,no_rule,time,L1,z,0.7277,5.0,0.0,0.4654,3.0,3.0,Català,0.0,Castellano,0.0,Inglés,6.0,4.0,5.0,yes,no,no,Flauta dulce,10,,,Nada ,71.0,yes
84,2024-02-21_21h26.50.451,Unsyncopated_study2,s117,23.0,feminino,right,España,Catalán y castellano,Master degree,no,no,B,1,conjunction_un,L2,unsyncopated,s1,r2,84,Online_conjL2_un//a.go.du30.none.none.wav,fe,cha,si,sil,ra,su,te,sil1,ba,bi,sil2,['-'],,,none,none,,,,go,1,testConjL1Syn//r2.s1.2.wav,4.0,conjunction_syn,syncopated,b,s1,rule,rule,L1,z,0.7242,3.0,1.0,0.6529,3.0,3.0,Català,0.0,Castellano,0.0,Inglés,6.0,4.0,5.0,yes,no,no,Flauta dulce,10,,,Nada ,71.0,yes
85,2024-02-21_21h26.50.451,Unsyncopated_study2,s117,23.0,feminino,right,España,Catalán y castellano,Master degree,no,no,B,1,conjunction_un,L2,unsyncopated,s1,r2,85,Online_conjL2_un//a.go.du28.none.none.wav,fe,cha,ba,sil,ra,mi,me,sil1,bi,te,sil2,['-'],,,none,none,,,,go,1,testConjL1Syn//r2.s1.1.wav,4.0,conjunction_syn,syncopated,b,s1,rule,rule,L1,m,1.0176,5.0,0.0,0.5901,3.0,3.0,Català,0.0,Castellano,0.0,Inglés,6.0,4.0,5.0,yes,no,no,Flauta dulce,10,,,Nada ,71.0,yes
86,2024-02-21_21h26.50.451,Unsyncopated_study2,s117,23.0,feminino,right,España,Catalán y castellano,Master degree,no,no,B,1,conjunction_un,L2,unsyncopated,s1,r2,86,Online_conjL2_un//a.go.du31.none.none.wav,fe,to,ñi,sil,ra,bi,ñu,sil1,su,si,sil2,['-'],,,none,none,,,,go,1,testConjL1Syn//cat_viol.r2.s1.0.wav,4.0,conjunction_syn,syncopated,b,s1,no_rule,cat,L1,m,0.7016,4.0,1.0,0.5102,3.0,3.0,Català,0.0,Castellano,0.0,Inglés,6.0,4.0,5.0,yes,no,no,Flauta dulce,10,,,Nada ,71.0,yes
87,2024-02-21_21h26.50.451,Unsyncopated_study2,s117,23.0,feminino,right,España,Catalán y castellano,Master degree,no,no,B,1,conjunction_un,L2,unsyncopated,s1,r1,87,Online_conjL2_un//a.go.du29.0.888.wav,go,mi,me,sil,du,to,bi,sil1,cha,ñu,sil2,['catch'],[0.8068000001907194],[0.8068000001907194],0.0,beat,0.8068000001907194,0.8068000001907194,"[""space""]",go,1,testConjL1Syn//cat_viol.r1.s2.0.wav,4.0,conjunction_syn,syncopated,a,s2,no_rule,cat,L1,m,0.7517,5.0,1.0,0.8862,3.0,3.0,Català,0.0,Castellano,0.0,Inglés,6.0,4.0,5.0,yes,no,no,Flauta dulce,10,,,Nada ,71.0,yes
88,2024-02-21_21h26.50.451,Unsyncopated_study2,s117,23.0,feminino,right,España,Catalán y castellano,Master degree,no,no,B,1,conjunction_un,L2,unsyncopated,s1,r2,88,Online_conjL2_un//a.go.du8.none.none.wav,fe,to,ñi,sil,ra,ba,cha,sil1,ñu,bi,sil2,['-'],,,none,none,,,,go,1,testConjL1Syn//time_viol.r2.s1.0.wav,4.0,conjunction_syn,syncopated,b,s1,no_rule,time,L1,m,0.7861,3.0,1.0,0.485,3.0,3.0,Català,0.0,Castellano,0.0,Inglés,6.0,4.0,5.0,yes,no,no,Flauta dulce,10,,,Nada ,71.0,yes
89,2024-02-21_21h26.50.451,Unsyncopated_study2,s117,23.0,feminino,right,España,Catalán y castellano,Master degree,no,no,B,1,conjunction_un,L2,unsyncopated,s2,r1,89,Online_conjL2_un//a.go.du9.888.1776.wav,mi,bi,cha,sil,go,ñu,si,sil1,du,to,sil2,['catch'],[1.7220999999045716],[1.7220999999045716],0.888,beat,0.8340999999045716,0.8340999999045716,"[""space""]",go,1,testConjL1Syn//time_viol.r1.s2.0.wav,4.0,conjunction_syn,syncopated,a,s2,no_rule,time,L1,m,1.5705,3.0,1.0,0.4693,3.0,3.0,Català,0.0,Castellano,0.0,Inglés,6.0,4.0,5.0,yes,no,no,Flauta dulce,10,,,Nada ,71.0,yes
90,2024-02-21_21h26.50.451,Unsyncopated_study2,s117,23.0,feminino,right,España,Catalán y castellano,Master degree,no,no,B,1,conjunction_un,L2,unsyncopated,s1,r1,90,Online_conjL2_un//a.go.du10.0.888.wav,go,bi,ñi,sil,du,si,te,sil1,ñu,su,sil2,['miss'],,,0.0,beat,,,,go,1,testConjL1Syn//r2.s1.0.wav,4.0,conjunction_syn,syncopated,b,s1,rule,rule,L1,z,0.9692,4.0,1.0,0.4533,3.0,3.0,Català,0.0,Castellano,0.0,Inglés,6.0,4.0,5.0,yes,no,no,Flauta dulce,10,,,Nada ,71.0,yes
91,2024-02-21_21h26.50.451,Unsyncopated_study2,s117,23.0,feminino,right,España,Catalán y castellano,Master degree,no,no,B,1,conjunction_un,L2,unsyncopated,s2,r1,91,Online_conjL2_un//a.go.du11.888.1776.wav,si,ba,ñu,sil,go,ñi,mi,sil1,du,te,sil2,['miss'],,,0.888,beat,,,,go,1,testConjL1Syn//r1.s2.1.wav,4.0,conjunction_syn,syncopated,a,s2,rule,rule,L1,z,1.7407,3.0,1.0,0.4118,3.0,3.0,Català,0.0,Castellano,0.0,Inglés,6.0,4.0,5.0,yes,no,no,Flauta dulce,10,,,Nada ,71.0,yes
92,2024-02-21_21h26.50.451,Unsyncopated_study2,s117,23.0,feminino,right,España,Catalán y castellano,Master degree,no,no,B,1,conjunction_un,L2,unsyncopated,s2,r2,92,Online_conjL2_un//a.go.du4.none.none.wav,ñi,ba,cha,sil,fe,bi,ñu,sil1,ra,mi,sil2,['-'],,,none,none,,,,go,1,testConjL1Syn//cat_viol.r1.s1.0.wav,4.0,conjunction_syn,syncopated,a,s1,no_rule,cat,L1,m,0.676,5.0,1.0,0.7355,3.0,3.0,Català,0.0,Castellano,0.0,Inglés,6.0,4.0,5.0,yes,no,no,Flauta dulce,10,,,Nada ,71.0,yes
93,2024-02-21_21h26.50.451,Unsyncopated_study2,s117,23.0,feminino,right,España,Catalán y castellano,Master degree,no,no,B,1,conjunction_un,L2,unsyncopated,s2,r2,93,Online_conjL2_un//a.go.du7.none.none.wav,to,ñi,su,sil,fe,si,ñu,sil1,ra,cha,sil2,['-'],,,none,none,,,,go,1,testConjL1Syn//dep_viol.r1.s1.0.wav,4.0,conjunction_syn,syncopated,a,s1,no_rule,dep,L1,m,1.1023,4.0,1.0,0.5177,3.0,3.0,Català,0.0,Castellano,0.0,Inglés,6.0,4.0,5.0,yes,no,no,Flauta dulce,10,,,Nada ,71.0,yes
94,2024-02-21_21h26.50.451,Unsyncopated_study2,s117,23.0,feminino,right,España,Catalán y castellano,Master degree,no,no,B,1,conjunction_un,L2,unsyncopated,s2,r2,94,Online_conjL2_un//a.go.du6.none.none.wav,ñu,ba,bi,sil,fe,me,su,sil1,ra,to,sil2,['-'],,,none,none,,,,go,1,testConjL1Syn//dep_viol.r1.s2.0.wav,4.0,conjunction_syn,syncopated,a,s2,no_rule,dep,L1,m,1.3683,2.0,1.0,0.7031,3.0,3.0,Català,0.0,Castellano,0.0,Inglés,6.0,4.0,5.0,yes,no,no,Flauta dulce,10,,,Nada ,71.0,yes
95,2024-02-21_21h26.50.451,Unsyncopated_study2,s117,23.0,feminino,right,España,Catalán y castellano,Master degree,no,no,B,1,conjunction_un,L2,unsyncopated,s1,r2,95,Online_conjL2_un//a.go.du5.none.none.wav,fe,bi,me,sil,ra,to,si,sil1,ñi,ñu,sil2,['-'],,,none,none,,,,go,1,testConjL1Syn//r1.s1.2.wav,4.0,conjunction_syn,syncopated,a,s1,rule,rule,L1,m,0.735,4.0,0.0,0.5194,3.0,3.0,Català,0.0,Castellano,0.0,Inglés,6.0,4.0,5.0,yes,no,no,Flauta dulce,10,,,Nada ,71.0,yes
96,2024-02-21_21h26.50.451,Unsyncopated_study2,s117,23.0,feminino,right,España,Catalán y castellano,Master degree,no,no,B,1,conjunction_un,L2,unsyncopated,s1,r2,96,Online_conjL2_un//d.si.ñu26.none.none.wav,fe,bi,to,sil,ra,mi,me,sil1,te,ba,sil2,['-'],,,none,none,,,,ñu,4,,,,,,,,,,,,,,,3.0,3.0,Català,0.0,Castellano,0.0,Inglés,6.0,4.0,5.0,yes,no,no,Flauta dulce,10,,,Nada ,71.0,yes
97,2024-02-21_21h26.50.451,Unsyncopated_study2,s117,23.0,feminino,right,España,Catalán y castellano,Master degree,no,no,B,1,conjunction_un,L2,unsyncopated,s2,r2,97,Online_conjL2_un//d.si.ñu27.1332.0.wav,ñu,bi,to,sil,fe,ba,si,sil1,ra,te,sil2,['catch'],[0.8045999999046671],[0.8045999999046671],0.0,beat,0.8045999999046671,0.8045999999046671,"[""space""]",ñu,4,,,,,,,,,,,,,,,3.0,3.0,Català,0.0,Castellano,0.0,Inglés,6.0,4.0,5.0,yes,no,no,Flauta dulce,10,,,Nada ,71.0,yes
98,2024-02-21_21h26.50.451,Unsyncopated_study2,s117,23.0,feminino,right,España,Catalán y castellano,Master degree,no,no,B,1,conjunction_un,L2,unsyncopated,s1,r2,98,Online_conjL2_un//d.si.ñu25.none.none.wav,fe,me,ñi,sil,ra,to,mi,sil1,bi,cha,sil2,['-'],,,none,none,,,,ñu,4,,,,,,,,,,,,,,,3.0,3.0,Català,0.0,Castellano,0.0,Inglés,6.0,4.0,5.0,yes,no,no,Flauta dulce,10,,,Nada ,71.0,yes
99,2024-02-21_21h26.50.451,Unsyncopated_study2,s117,23.0,feminino,right,España,Catalán y castellano,Master degree,no,no,B,1,conjunction_un,L2,unsyncopated,s2,r2,99,Online_conjL2_un//d.si.ñu24.0.1110.wav,si,bi,to,sil,fe,ñu,te,sil1,ra,ñi,sil2,['catch'],[2.1285999999046226],[2.1285999999046226],1.11,no_beat,1.0185999999046225,1.0185999999046225,"[""space""]",ñu,4,,,,,,,,,,,,,,,3.0,3.0,Català,0.0,Castellano,0.0,Inglés,6.0,4.0,5.0,yes,no,no,Flauta dulce,10,,,Nada ,71.0,yes
100,2024-02-21_21h26.50.451,Unsyncopated_study2,s117,23.0,feminino,right,España,Catalán y castellano,Master degree,no,no,B,1,conjunction_un,L2,unsyncopated,s1,r1,100,Online_conjL2_un//c.cha.me9.none.none.wav,go,to,ñi,sil,du,mi,ñu,sil1,bi,su,sil2,['-'],,,none,none,,,,me,3,,,,,,,,,,,,,,,3.0,3.0,Català,0.0,Castellano,0.0,Inglés,6.0,4.0,5.0,yes,no,no,Flauta dulce,10,,,Nada ,71.0,yes
101,2024-02-21_21h26.50.451,Unsyncopated_study2,s117,23.0,feminino,right,España,Catalán y castellano,Master degree,no,no,B,1,conjunction_un,L2,unsyncopated,s1,r1,101,Online_conjL2_un//c.cha.me11.none.none.wav,go,su,ñu,sil,du,ñi,mi,sil1,ba,to,sil2,['-'],,,none,none,,,,me,3,,,,,,,,,,,,,,,3.0,3.0,Català,0.0,Castellano,0.0,Inglés,6.0,4.0,5.0,yes,no,no,Flauta dulce,10,,,Nada ,71.0,yes
102,2024-02-21_21h26.50.451,Unsyncopated_study2,s117,23.0,feminino,right,España,Catalán y castellano,Master degree,no,no,B,1,conjunction_un,L2,unsyncopated,s1,r2,102,Online_conjL2_un//c.cha.me8.444.1332.wav,fe,bi,cha,sil,ra,ñi,me,sil1,te,si,sil2,['miss'],,,1.332,no_beat,,,,me,3,,,,,,,,,,,,,,,3.0,3.0,Català,0.0,Castellano,0.0,Inglés,6.0,4.0,5.0,yes,no,no,Flauta dulce,10,,,Nada ,71.0,yes
103,2024-02-21_21h26.50.451,Unsyncopated_study2,s117,23.0,feminino,right,España,Catalán y castellano,Master degree,no,no,B,1,conjunction_un,L2,unsyncopated,s2,r2,103,Online_conjL2_un//c.cha.me10.0.222.wav,cha,me,mi,sil,fe,su,si,sil1,ra,ba,sil2,['miss'],,,0.222,no_beat,,,,me,3,,,,,,,,,,,,,,,3.0,3.0,Català,0.0,Castellano,0.0,Inglés,6.0,4.0,5.0,yes,no,no,Flauta dulce,10,,,Nada ,71.0,yes
104,2024-02-21_21h26.50.451,Unsyncopated_study2,s117,23.0,feminino,right,España,Catalán y castellano,Master degree,no,no,B,1,conjunction_un,L2,unsyncopated,s1,r2,104,Online_conjL2_un//b.fe.ra16.0.888.wav,fe,ñi,mi,sil,ra,bi,su,sil1,ñu,me,sil2,['catch'],[1.5565000000000282],[1.5565000000000282],0.888,beat,0.6685000000000282,0.6685000000000282,"[""space""]",ra,2,,,,,,,,,,,,,,,3.0,3.0,Català,0.0,Castellano,0.0,Inglés,6.0,4.0,5.0,yes,no,no,Flauta dulce,10,,,Nada ,71.0,yes
105,2024-02-21_21h26.50.451,Unsyncopated_study2,s117,23.0,feminino,right,España,Catalán y castellano,Master degree,no,no,B,1,conjunction_un,L2,unsyncopated,s2,r1,105,Online_conjL2_un//b.fe.ra19.none.none.wav,me,mi,to,sil,go,ñu,ñi,sil1,du,ba,sil2,['-'],,,none,none,,,,ra,2,,,,,,,,,,,,,,,3.0,3.0,Català,0.0,Castellano,0.0,Inglés,6.0,4.0,5.0,yes,no,no,Flauta dulce,10,,,Nada ,71.0,yes
106,2024-02-21_21h26.50.451,Unsyncopated_study2,s117,23.0,feminino,right,España,Catalán y castellano,Master degree,no,no,B,1,conjunction_un,L2,unsyncopated,s1,r2,106,Online_conjL2_un//b.fe.ra17.0.888.wav,fe,cha,mi,sil,ra,si,su,sil1,ba,ñi,sil2,['catch'],[1.638399999618514],[1.638399999618514],0.888,beat,0.7503999996185139,0.7503999996185139,"[""space""]",ra,2,,,,,,,,,,,,,,,3.0,3.0,Català,0.0,Castellano,0.0,Inglés,6.0,4.0,5.0,yes,no,no,Flauta dulce,10,,,Nada ,71.0,yes
107,2024-02-21_21h26.50.451,Unsyncopated_study2,s117,23.0,feminino,right,España,Catalán y castellano,Master degree,no,no,B,1,conjunction_un,L2,unsyncopated,s1,r1,107,Online_conjL2_un//b.fe.ra18.none.none.wav,go,su,bi,sil,du,te,si,sil1,ñu,to,sil2,['-'],,,none,none,,,,ra,2,,,,,,,,,,,,,,,3.0,3.0,Català,0.0,Castellano,0.0,Inglés,6.0,4.0,5.0,yes,no,no,Flauta dulce,10,,,Nada ,71.0,yes
108,2024-02-21_21h26.50.451,Unsyncopated_study2,s117,23.0,feminino,right,España,Catalán y castellano,Master degree,no,no,B,1,conjunction_un,L2,unsyncopated,s2,r1,108,Online_conjL2_un//c.cha.me20.none.none.wav,ñu,su,ñi,sil,go,to,si,sil1,du,ba,sil2,['-'],,,none,none,,,,me,3,,,,,,,,,,,,,,,3.0,3.0,Català,0.0,Castellano,0.0,Inglés,6.0,4.0,5.0,yes,no,no,Flauta dulce,10,,,Nada ,71.0,yes
109,2024-02-21_21h26.50.451,Unsyncopated_study2,s117,23.0,feminino,right,España,Catalán y castellano,Master degree,no,no,B,1,conjunction_un,L2,unsyncopated,s2,r2,109,Online_conjL2_un//c.cha.me23.222.444.wav,su,cha,me,sil,fe,mi,to,sil1,ra,ñu,sil2,['catch'],[1.2583999996185185],[1.2583999996185185],0.444,no_beat,0.8143999996185185,0.8143999996185185,"[""space""]",me,3,,,,,,,,,,,,,,,3.0,3.0,Català,0.0,Castellano,0.0,Inglés,6.0,4.0,5.0,yes,no,no,Flauta dulce,10,,,Nada ,71.0,yes
110,2024-02-21_21h26.50.451,Unsyncopated_study2,s117,23.0,feminino,right,España,Catalán y castellano,Master degree,no,no,B,1,conjunction_un,L2,unsyncopated,s1,r1,110,Online_conjL2_un//c.cha.me22.222.444.wav,go,cha,me,sil,du,ñu,to,sil1,te,su,sil2,['catch'],[1.4941000003814224],[1.4941000003814224],0.444,no_beat,1.0501000003814225,1.0501000003814225,"[""space""]",me,3,,,,,,,,,,,,,,,3.0,3.0,Català,0.0,Castellano,0.0,Inglés,6.0,4.0,5.0,yes,no,no,Flauta dulce,10,,,Nada ,71.0,yes
111,2024-02-21_21h26.50.451,Unsyncopated_study2,s117,23.0,feminino,right,España,Catalán y castellano,Master degree,no,no,B,1,conjunction_un,L2,unsyncopated,s1,r2,111,Online_conjL2_un//c.cha.me21.1332.444.wav,fe,su,me,sil,ra,si,cha,sil1,ñi,ba,sil2,['catch'],[1.2881999998093079],[1.2881999998093079],0.444,no_beat,0.8441999998093079,0.8441999998093079,"[""space""]",me,3,,,,,,,,,,,,,,,3.0,3.0,Català,0.0,Castellano,0.0,Inglés,6.0,4.0,5.0,yes,no,no,Flauta dulce,10,,,Nada ,71.0,yes
112,2024-02-21_21h26.50.451,Unsyncopated_study2,s117,23.0,feminino,right,España,Catalán y castellano,Master degree,no,no,B,1,conjunction_un,L2,unsyncopated,s1,r1,112,Online_conjL2_un//c.cha.me1.none.none.wav,go,ba,mi,sil,du,ñi,ñu,sil1,bi,si,sil2,['-'],,,none,none,,,,me,3,,,,,,,,,,,,,,,3.0,3.0,Català,0.0,Castellano,0.0,Inglés,6.0,4.0,5.0,yes,no,no,Flauta dulce,10,,,Nada ,71.0,yes
113,2024-02-21_21h26.50.451,Unsyncopated_study2,s117,23.0,feminino,right,España,Catalán y castellano,Master degree,no,no,B,1,conjunction_un,L2,unsyncopated,s1,r2,113,Online_conjL2_un//c.cha.me2.1776.444.wav,fe,su,me,sil,ra,mi,ba,sil1,cha,ñu,sil2,['catch'],[1.5708000001907294],[1.5708000001907294],0.444,no_beat,1.1268000001907297,1.1268000001907297,"[""space""]",me,3,,,,,,,,,,,,,,,3.0,3.0,Català,0.0,Castellano,0.0,Inglés,6.0,4.0,5.0,yes,no,no,Flauta dulce,10,,,Nada ,71.0,yes
114,2024-02-21_21h26.50.451,Unsyncopated_study2,s117,23.0,feminino,right,España,Catalán y castellano,Master degree,no,no,B,1,conjunction_un,L2,unsyncopated,s2,r2,114,Online_conjL2_un//c.cha.me0.none.none.wav,si,mi,ba,sil,fe,su,te,sil1,ra,ñi,sil2,['-'],,,none,none,,,,me,3,,,,,,,,,,,,,,,3.0,3.0,Català,0.0,Castellano,0.0,Inglés,6.0,4.0,5.0,yes,no,no,Flauta dulce,10,,,Nada ,71.0,yes
115,2024-02-21_21h26.50.451,Unsyncopated_study2,s117,23.0,feminino,right,España,Catalán y castellano,Master degree,no,no,B,1,conjunction_un,L2,unsyncopated,s1,r1,115,Online_conjL2_un//c.cha.me3.1776.1110.wav,go,mi,te,sil,du,me,bi,sil1,cha,su,sil2,['catch'],[2.255599999904689],[2.255599999904689],1.11,no_beat,1.1455999999046889,1.1455999999046889,"[""space""]",me,3,,,,,,,,,,,,,,,3.0,3.0,Català,0.0,Castellano,0.0,Inglés,6.0,4.0,5.0,yes,no,no,Flauta dulce,10,,,Nada ,71.0,yes
116,2024-02-21_21h26.50.451,Unsyncopated_study2,s117,23.0,feminino,right,España,Catalán y castellano,Master degree,no,no,B,1,conjunction_un,L2,unsyncopated,s2,r2,116,Online_conjL2_un//d.si.ñu31.none.none.wav,su,ñi,to,sil,fe,me,ba,sil1,ra,te,sil2,['false alarm'],[1.085900000095421],[1.085900000095421],none,none,,,"[""space""]",ñu,4,,,,,,,,,,,,,,,3.0,3.0,Català,0.0,Castellano,0.0,Inglés,6.0,4.0,5.0,yes,no,no,Flauta dulce,10,,,Nada ,71.0,yes
117,2024-02-21_21h26.50.451,Unsyncopated_study2,s117,23.0,feminino,right,España,Catalán y castellano,Master degree,no,no,B,1,conjunction_un,L2,unsyncopated,s2,r1,117,Online_conjL2_un//d.si.ñu30.1332.222.wav,ba,ñu,ñi,sil,go,mi,si,sil1,du,cha,sil2,['catch'],[1.5439999999999827],[1.5439999999999827],0.222,no_beat,,1.3219999999999827,"[""space""]",ñu,4,,,,,,,,,,,,,,,3.0,3.0,Català,0.0,Castellano,0.0,Inglés,6.0,4.0,5.0,yes,no,no,Flauta dulce,10,,,Nada ,71.0,yes
118,2024-02-21_21h26.50.451,Unsyncopated_study2,s117,23.0,feminino,right,España,Catalán y castellano,Master degree,no,no,B,1,conjunction_un,L2,unsyncopated,s1,r1,118,Online_conjL2_un//d.si.ñu28.none.none.wav,go,me,su,sil,du,te,to,sil1,bi,ba,sil2,['-'],,,none,none,,,,ñu,4,,,,,,,,,,,,,,,3.0,3.0,Català,0.0,Castellano,0.0,Inglés,6.0,4.0,5.0,yes,no,no,Flauta dulce,10,,,Nada ,71.0,yes
119,2024-02-21_21h26.50.451,Unsyncopated_study2,s117,23.0,feminino,right,España,Catalán y castellano,Master degree,no,no,B,1,conjunction_un,L2,unsyncopated,s1,r2,119,Online_conjL2_un//d.si.ñu29.1332.444.wav,fe,mi,ñu,sil,ra,su,si,sil1,ñi,cha,sil2,['catch'],[1.6044000000953247],[1.6044000000953247],0.444,no_beat,1.1604000000953247,1.1604000000953247,"[""space""]",ñu,4,,,,,,,,,,,,,,,3.0,3.0,Català,0.0,Castellano,0.0,Inglés,6.0,4.0,5.0,yes,no,no,Flauta dulce,10,,,Nada ,71.0,yes
120,2024-02-21_21h26.50.451,Unsyncopated_study2,s117,23.0,feminino,right,España,Catalán y castellano,Master degree,no,no,B,1,conjunction_un,L2,unsyncopated,s2,r2,120,Online_conjL2_un//d.si.ñu17.1110.0.wav,ñu,bi,te,sil,fe,si,me,sil1,ra,ba,sil2,['catch'],[0.10940000009532014],[0.10940000009532014],0.0,beat,0.1094000000953201,0.1094000000953201,"[""space""]",ñu,4,,,,,,,,,,,,,,,3.0,3.0,Català,0.0,Castellano,0.0,Inglés,6.0,4.0,5.0,yes,no,no,Flauta dulce,10,,,Nada ,71.0,yes
121,2024-02-21_21h26.50.451,Unsyncopated_study2,s117,23.0,feminino,right,España,Catalán y castellano,Master degree,no,no,B,1,conjunction_un,L2,unsyncopated,s2,r1,121,Online_conjL2_un//d.si.ñu16.1110.222.wav,te,ñu,mi,sil,go,si,to,sil1,du,me,sil2,['catch'],[1.177600000381517],[1.177600000381517],0.222,no_beat,0.955600000381517,0.955600000381517,"[""space""]",ñu,4,,,,,,,,,,,,,,,3.0,3.0,Català,0.0,Castellano,0.0,Inglés,6.0,4.0,5.0,yes,no,no,Flauta dulce,10,,,Nada ,71.0,yes
122,2024-02-21_21h26.50.451,Unsyncopated_study2,s117,23.0,feminino,right,España,Catalán y castellano,Master degree,no,no,B,1,conjunction_un,L2,unsyncopated,s2,r1,122,Online_conjL2_un//d.si.ñu18.1332.222.wav,bi,ñu,me,sil,go,cha,si,sil1,du,ba,sil2,['catch'],[1.1401000003814943],[1.1401000003814943],0.222,no_beat,0.9181000003814944,0.9181000003814944,"[""space""]",ñu,4,,,,,,,,,,,,,,,3.0,3.0,Català,0.0,Castellano,0.0,Inglés,6.0,4.0,5.0,yes,no,no,Flauta dulce,10,,,Nada ,71.0,yes
123,2024-02-21_21h26.50.451,Unsyncopated_study2,s117,23.0,feminino,right,España,Catalán y castellano,Master degree,no,no,B,1,conjunction_un,L2,unsyncopated,s1,r1,123,Online_conjL2_un//d.si.ñu19.444.1332.wav,go,su,si,sil,du,to,ñu,sil1,te,me,sil2,['catch'],[2.2385000000000446],[2.2385000000000446],1.332,no_beat,0.9065000000000444,0.9065000000000444,"[""space""]",ñu,4,,,,,,,,,,,,,,,3.0,3.0,Català,0.0,Castellano,0.0,Inglés,6.0,4.0,5.0,yes,no,no,Flauta dulce,10,,,Nada ,71.0,yes
124,2024-02-21_21h26.50.451,Unsyncopated_study2,s117,23.0,feminino,right,España,Catalán y castellano,Master degree,no,no,B,1,conjunction_un,L2,unsyncopated,s2,r1,124,Online_conjL2_un//b.fe.ra23.none.none.wav,ñu,ba,mi,sil,go,to,ñi,sil1,du,bi,sil2,['-'],,,none,none,,,,ra,2,,,,,,,,,,,,,,,3.0,3.0,Català,0.0,Castellano,0.0,Inglés,6.0,4.0,5.0,yes,no,no,Flauta dulce,10,,,Nada ,71.0,yes
125,2024-02-21_21h26.50.451,Unsyncopated_study2,s117,23.0,feminino,right,España,Catalán y castellano,Master degree,no,no,B,1,conjunction_un,L2,unsyncopated,s2,r1,125,Online_conjL2_un//b.fe.ra21.none.none.wav,bi,ba,to,sil,go,te,si,sil1,du,me,sil2,['-'],,,none,none,,,,ra,2,,,,,,,,,,,,,,,3.0,3.0,Català,0.0,Castellano,0.0,Inglés,6.0,4.0,5.0,yes,no,no,Flauta dulce,10,,,Nada ,71.0,yes
126,2024-02-21_21h26.50.451,Unsyncopated_study2,s117,23.0,feminino,right,España,Catalán y castellano,Master degree,no,no,B,1,conjunction_un,L2,unsyncopated,s1,r1,126,Online_conjL2_un//b.fe.ra22.none.none.wav,go,te,to,sil,du,me,ñu,sil1,ñi,si,sil2,['-'],,,none,none,,,,ra,2,,,,,,,,,,,,,,,3.0,3.0,Català,0.0,Castellano,0.0,Inglés,6.0,4.0,5.0,yes,no,no,Flauta dulce,10,,,Nada ,71.0,yes
127,2024-02-21_21h26.50.451,Unsyncopated_study2,s117,23.0,feminino,right,España,Catalán y castellano,Master degree,no,no,B,1,conjunction_un,L2,unsyncopated,s2,r2,127,Online_conjL2_un//b.fe.ra20.888.1776.wav,bi,ñi,me,sil,fe,cha,si,sil1,ra,su,sil2,['catch'],[2.543099999904598],[2.543099999904598],1.776,beat,0.767099999904598,0.767099999904598,"[""space""]",ra,2,,,,,,,,,,,,,,,3.0,3.0,Català,0.0,Castellano,0.0,Inglés,6.0,4.0,5.0,yes,no,no,Flauta dulce,10,,,Nada ,71.0,yes
128,2024-02-21_21h26.50.451,Unsyncopated_study2,s117,23.0,feminino,right,España,Catalán y castellano,Master degree,no,no,B,2,when,L4,unsyncopated,when,when,0,Online_whenL4//c.bu9.444.wav,bo,ja,bu,sil,lo,re,pe,sil1,ci,po,sil2,['catch'],[1.2299000000955402],[1.2299000000955402],0.444,no_beat,0.7859000000955403,0.7859000000955403,"[""space""]",bu,3,,,,,,,,,,,,,,,3.0,3.0,Català,0.0,Castellano,0.0,Inglés,6.0,4.0,5.0,yes,no,no,Flauta dulce,10,,,Nada ,71.0,yes
129,2024-02-21_21h26.50.451,Unsyncopated_study2,s117,23.0,feminino,right,España,Catalán y castellano,Master degree,no,no,B,2,when,L4,unsyncopated,when,when,1,Online_whenL4//c.bu10.0.wav,bu,ñi,da,sil,ña,ja,re,sil1,nu,ci,sil2,['catch'],[0.7919000000954384],[0.7919000000954384],0.0,beat,0.7919000000954384,0.7919000000954384,"[""space""]",bu,3,,,,,,,,,,,,,,,3.0,3.0,Català,0.0,Castellano,0.0,Inglés,6.0,4.0,5.0,yes,no,no,Flauta dulce,10,,,Nada ,71.0,yes
130,2024-02-21_21h26.50.451,Unsyncopated_study2,s117,23.0,feminino,right,España,Catalán y castellano,Master degree,no,no,B,2,when,L4,unsyncopated,when,when,2,Online_whenL4//c.bu11.none.wav,ña,pe,re,sil,nu,bo,lo,sil1,ci,de,sil2,['-'],,,none,none,,,,bu,3,,,,,,,,,,,,,,,3.0,3.0,Català,0.0,Castellano,0.0,Inglés,6.0,4.0,5.0,yes,no,no,Flauta dulce,10,,,Nada ,71.0,yes
131,2024-02-21_21h26.50.451,Unsyncopated_study2,s117,23.0,feminino,right,España,Catalán y castellano,Master degree,no,no,B,2,when,L4,unsyncopated,when,when,3,Online_whenL4//c.bu8.444.wav,nu,bo,bu,sil,ñi,re,zi,sil1,pe,ci,sil2,['catch'],[1.2076999998093925],[1.2076999998093925],0.444,no_beat,0.7636999998093925,0.7636999998093925,"[""space""]",bu,3,,,,,,,,,,,,,,,3.0,3.0,Català,0.0,Castellano,0.0,Inglés,6.0,4.0,5.0,yes,no,no,Flauta dulce,10,,,Nada ,71.0,yes
132,2024-02-21_21h26.50.451,Unsyncopated_study2,s117,23.0,feminino,right,España,Catalán y castellano,Master degree,no,no,B,2,when,L4,unsyncopated,when,when,4,Online_whenL4//a.lo8.0.wav,lo,ñi,nu,sil,de,bo,pe,sil1,da,bu,sil2,['catch'],[0.8795000000000073],[0.8795000000000073],0.0,beat,0.8795000000000073,0.8795000000000073,"[""space""]",lo,1,,,,,,,,,,,,,,,3.0,3.0,Català,0.0,Castellano,0.0,Inglés,6.0,4.0,5.0,yes,no,no,Flauta dulce,10,,,Nada ,71.0,yes
133,2024-02-21_21h26.50.451,Unsyncopated_study2,s117,23.0,feminino,right,España,Catalán y castellano,Master degree,no,no,B,2,when,L4,unsyncopated,when,when,5,Online_whenL4//a.lo9.none.wav,bo,ci,po,sil,de,zi,ñi,sil1,ja,ña,sil2,['-'],,,none,none,,,,lo,1,,,,,,,,,,,,,,,3.0,3.0,Català,0.0,Castellano,0.0,Inglés,6.0,4.0,5.0,yes,no,no,Flauta dulce,10,,,Nada ,71.0,yes
134,2024-02-21_21h26.50.451,Unsyncopated_study2,s117,23.0,feminino,right,España,Catalán y castellano,Master degree,no,no,B,2,when,L4,unsyncopated,when,when,6,Online_whenL4//a.lo10.none.wav,pe,da,re,sil,de,ja,zi,sil1,bu,po,sil2,['-'],,,none,none,,,,lo,1,,,,,,,,,,,,,,,3.0,3.0,Català,0.0,Castellano,0.0,Inglés,6.0,4.0,5.0,yes,no,no,Flauta dulce,10,,,Nada ,71.0,yes
135,2024-02-21_21h26.50.451,Unsyncopated_study2,s117,23.0,feminino,right,España,Catalán y castellano,Master degree,no,no,B,2,when,L4,unsyncopated,when,when,7,Online_whenL4//a.lo11.0.wav,lo,ci,pe,sil,ñi,de,zi,sil1,ru,da,sil2,['catch'],[0.9913999996185794],[0.9913999996185794],0.0,beat,0.9913999996185794,0.9913999996185794,"[""space""]",lo,1,,,,,,,,,,,,,,,3.0,3.0,Català,0.0,Castellano,0.0,Inglés,6.0,4.0,5.0,yes,no,no,Flauta dulce,10,,,Nada ,71.0,yes
136,2024-02-21_21h26.50.451,Unsyncopated_study2,s117,23.0,feminino,right,España,Catalán y castellano,Master degree,no,no,B,2,when,L4,unsyncopated,when,when,8,Online_whenL4//c.bu3.none.wav,ja,de,pe,sil,ña,ñi,bo,sil1,nu,po,sil2,['-'],,,none,none,,,,bu,3,,,,,,,,,,,,,,,3.0,3.0,Català,0.0,Castellano,0.0,Inglés,6.0,4.0,5.0,yes,no,no,Flauta dulce,10,,,Nada ,71.0,yes
137,2024-02-21_21h26.50.451,Unsyncopated_study2,s117,23.0,feminino,right,España,Catalán y castellano,Master degree,no,no,B,2,when,L4,unsyncopated,when,when,9,Online_whenL4//c.bu2.1110.wav,lo,bo,ci,sil,da,bu,ñi,sil1,ja,de,sil2,['catch'],[2.086900000095511],[2.086900000095511],1.11,no_beat,0.976900000095511,0.976900000095511,"[""space""]",bu,3,,,,,,,,,,,,,,,3.0,3.0,Català,0.0,Castellano,0.0,Inglés,6.0,4.0,5.0,yes,no,no,Flauta dulce,10,,,Nada ,71.0,yes
138,2024-02-21_21h26.50.451,Unsyncopated_study2,s117,23.0,feminino,right,España,Catalán y castellano,Master degree,no,no,B,2,when,L4,unsyncopated,when,when,10,Online_whenL4//c.bu1.none.wav,lo,pe,po,sil,ci,ja,de,sil1,bo,ru,sil2,['-'],,,none,none,,,,bu,3,,,,,,,,,,,,,,,3.0,3.0,Català,0.0,Castellano,0.0,Inglés,6.0,4.0,5.0,yes,no,no,Flauta dulce,10,,,Nada ,71.0,yes
139,2024-02-21_21h26.50.451,Unsyncopated_study2,s117,23.0,feminino,right,España,Catalán y castellano,Master degree,no,no,B,2,when,L4,unsyncopated,when,when,11,Online_whenL4//c.bu0.888.wav,ci,ñi,ja,sil,bu,da,ru,sil1,po,nu,sil2,['catch'],[1.8442999997139395],[1.8442999997139395],0.888,beat,0.9562999997139396,0.9562999997139396,"[""space""]",bu,3,,,,,,,,,,,,,,,3.0,3.0,Català,0.0,Castellano,0.0,Inglés,6.0,4.0,5.0,yes,no,no,Flauta dulce,10,,,Nada ,71.0,yes
140,2024-02-21_21h26.50.451,Unsyncopated_study2,s117,23.0,feminino,right,España,Catalán y castellano,Master degree,no,no,B,2,when,L4,unsyncopated,when,when,12,Online_whenL4//b.ja35.1998.wav,ru,re,da,sil,lo,bo,ña,sil1,po,ja,sil2,['catch_delay'],[0.770800000190835],[0.770800000190835],1.998,no_beat,0.770800000190835,0.770800000190835,,ja,2,,,,,,,,,,,,,,,3.0,3.0,Català,0.0,Castellano,0.0,Inglés,6.0,4.0,5.0,yes,no,no,Flauta dulce,10,,,Nada ,71.0,yes
141,2024-02-21_21h26.50.451,Unsyncopated_study2,s117,23.0,feminino,right,España,Catalán y castellano,Master degree,no,no,B,2,when,L4,unsyncopated,when,when,13,Online_whenL4//b.ja32.none.wav,ru,bu,de,sil,ña,lo,nu,sil1,re,ci,sil2,['-'],[0.10480000019083491],[0.10480000019083491],none,none,,,"[""space""]",ja,2,,,,,,,,,,,,,,,3.0,3.0,Català,0.0,Castellano,0.0,Inglés,6.0,4.0,5.0,yes,no,no,Flauta dulce,10,,,Nada ,71.0,yes
142,2024-02-21_21h26.50.451,Unsyncopated_study2,s117,23.0,feminino,right,España,Catalán y castellano,Master degree,no,no,B,2,when,L4,unsyncopated,when,when,14,Online_whenL4//b.ja34.1776.wav,re,bo,da,sil,zi,bu,ña,sil1,ja,ci,sil2,['catch'],[2.495099999904596],[2.495099999904596],1.776,beat,0.7190999999045962,0.7190999999045962,"[""space""]",ja,2,,,,,,,,,,,,,,,3.0,3.0,Català,0.0,Castellano,0.0,Inglés,6.0,4.0,5.0,yes,no,no,Flauta dulce,10,,,Nada ,71.0,yes
143,2024-02-21_21h26.50.451,Unsyncopated_study2,s117,23.0,feminino,right,España,Catalán y castellano,Master degree,no,no,B,2,when,L4,unsyncopated,when,when,15,Online_whenL4//b.ja33.none.wav,ci,po,nu,sil,ñi,zi,pe,sil1,re,bu,sil2,['-'],,,none,none,,,,ja,2,,,,,,,,,,,,,,,3.0,3.0,Català,0.0,Castellano,0.0,Inglés,6.0,4.0,5.0,yes,no,no,Flauta dulce,10,,,Nada ,71.0,yes
144,2024-02-21_21h26.50.451,Unsyncopated_study2,s117,23.0,feminino,right,España,Catalán y castellano,Master degree,no,no,B,2,when,L4,unsyncopated,when,when,16,Online_whenL4//a.lo6.none.wav,ñi,ja,ña,sil,de,re,po,sil1,nu,bo,sil2,['-'],,,none,none,,,,lo,1,,,,,,,,,,,,,,,3.0,3.0,Català,0.0,Castellano,0.0,Inglés,6.0,4.0,5.0,yes,no,no,Flauta dulce,10,,,Nada ,71.0,yes
145,2024-02-21_21h26.50.451,Unsyncopated_study2,s117,23.0,feminino,right,España,Catalán y castellano,Master degree,no,no,B,2,when,L4,unsyncopated,when,when,17,Online_whenL4//a.lo7.1776.wav,de,po,da,sil,ru,zi,ñi,sil1,lo,pe,sil2,['catch'],[2.594900000095322],[2.594900000095322],1.776,beat,0.8189000000953219,0.8189000000953219,"[""space""]",lo,1,,,,,,,,,,,,,,,3.0,3.0,Català,0.0,Castellano,0.0,Inglés,6.0,4.0,5.0,yes,no,no,Flauta dulce,10,,,Nada ,71.0,yes
146,2024-02-21_21h26.50.451,Unsyncopated_study2,s117,23.0,feminino,right,España,Catalán y castellano,Master degree,no,no,B,2,when,L4,unsyncopated,when,when,18,Online_whenL4//a.lo4.none.wav,bo,ñi,pe,sil,ja,re,ru,sil1,nu,da,sil2,['-'],,,none,none,,,,lo,1,,,,,,,,,,,,,,,3.0,3.0,Català,0.0,Castellano,0.0,Inglés,6.0,4.0,5.0,yes,no,no,Flauta dulce,10,,,Nada ,71.0,yes
147,2024-02-21_21h26.50.451,Unsyncopated_study2,s117,23.0,feminino,right,España,Catalán y castellano,Master degree,no,no,B,2,when,L4,unsyncopated,when,when,19,Online_whenL4//a.lo5.1998.wav,ci,bu,zi,sil,ru,bo,pe,sil1,de,lo,sil2,['catch_delay'],[0.9183000001908714],[0.9183000001908714],1.998,no_beat,0.9183000001908714,0.9183000001908714,,lo,1,,,,,,,,,,,,,,,3.0,3.0,Català,0.0,Castellano,0.0,Inglés,6.0,4.0,5.0,yes,no,no,Flauta dulce,10,,,Nada ,71.0,yes
148,2024-02-21_21h26.50.451,Unsyncopated_study2,s117,23.0,feminino,right,España,Catalán y castellano,Master degree,no,no,B,2,when,L4,unsyncopated,when,when,20,Online_whenL4//d.pe29.none.wav,da,po,ja,sil,bu,bo,lo,sil1,ña,de,sil2,['-'],[0.2523000001908713],[0.2523000001908713],none,none,,,"[""space""]",pe,4,,,,,,,,,,,,,,,3.0,3.0,Català,0.0,Castellano,0.0,Inglés,6.0,4.0,5.0,yes,no,no,Flauta dulce,10,,,Nada ,71.0,yes
149,2024-02-21_21h26.50.451,Unsyncopated_study2,s117,23.0,feminino,right,España,Catalán y castellano,Master degree,no,no,B,2,when,L4,unsyncopated,when,when,21,Online_whenL4//d.pe30.none.wav,ru,lo,po,sil,nu,de,da,sil1,ña,ñi,sil2,['-'],,,none,none,,,,pe,4,,,,,,,,,,,,,,,3.0,3.0,Català,0.0,Castellano,0.0,Inglés,6.0,4.0,5.0,yes,no,no,Flauta dulce,10,,,Nada ,71.0,yes
150,2024-02-21_21h26.50.451,Unsyncopated_study2,s117,23.0,feminino,right,España,Catalán y castellano,Master degree,no,no,B,2,when,L4,unsyncopated,when,when,22,Online_whenL4//d.pe31.1332.wav,bu,re,ru,sil,ja,de,pe,sil1,ci,zi,sil2,['catch'],[2.0364999999999327],[2.0364999999999327],1.332,no_beat,0.7044999999999326,0.7044999999999326,"[""space""]",pe,4,,,,,,,,,,,,,,,3.0,3.0,Català,0.0,Castellano,0.0,Inglés,6.0,4.0,5.0,yes,no,no,Flauta dulce,10,,,Nada ,71.0,yes
151,2024-02-21_21h26.50.451,Unsyncopated_study2,s117,23.0,feminino,right,España,Catalán y castellano,Master degree,no,no,B,2,when,L4,unsyncopated,when,when,23,Online_whenL4//d.pe28.none.wav,bo,nu,lo,sil,ru,re,bu,sil1,po,da,sil2,['-'],,,none,none,,,,pe,4,,,,,,,,,,,,,,,3.0,3.0,Català,0.0,Castellano,0.0,Inglés,6.0,4.0,5.0,yes,no,no,Flauta dulce,10,,,Nada ,71.0,yes
152,2024-02-21_21h26.50.451,Unsyncopated_study2,s117,23.0,feminino,right,España,Catalán y castellano,Master degree,no,no,B,2,when,L4,unsyncopated,when,when,24,Online_whenL4//d.pe25.none.wav,re,bu,ja,sil,da,bo,ci,sil1,nu,ru,sil2,['-'],,,none,none,,,,pe,4,,,,,,,,,,,,,,,3.0,3.0,Català,0.0,Castellano,0.0,Inglés,6.0,4.0,5.0,yes,no,no,Flauta dulce,10,,,Nada ,71.0,yes
153,2024-02-21_21h26.50.451,Unsyncopated_study2,s117,23.0,feminino,right,España,Catalán y castellano,Master degree,no,no,B,2,when,L4,unsyncopated,when,when,25,Online_whenL4//d.pe26.none.wav,lo,re,ña,sil,bo,po,ñi,sil1,zi,da,sil2,['-'],,,none,none,,,,pe,4,,,,,,,,,,,,,,,3.0,3.0,Català,0.0,Castellano,0.0,Inglés,6.0,4.0,5.0,yes,no,no,Flauta dulce,10,,,Nada ,71.0,yes
154,2024-02-21_21h26.50.451,Unsyncopated_study2,s117,23.0,feminino,right,España,Catalán y castellano,Master degree,no,no,B,2,when,L4,unsyncopated,when,when,26,Online_whenL4//d.pe27.222.wav,ru,pe,nu,sil,zi,ña,ci,sil1,ñi,bu,sil2,['catch'],[1.140900000095371],[1.140900000095371],0.222,no_beat,0.9189000000953712,0.9189000000953712,"[""space""]",pe,4,,,,,,,,,,,,,,,3.0,3.0,Català,0.0,Castellano,0.0,Inglés,6.0,4.0,5.0,yes,no,no,Flauta dulce,10,,,Nada ,71.0,yes
155,2024-02-21_21h26.50.451,Unsyncopated_study2,s117,23.0,feminino,right,España,Catalán y castellano,Master degree,no,no,B,2,when,L4,unsyncopated,when,when,27,Online_whenL4//d.pe24.0.wav,pe,de,re,sil,zi,ña,bo,sil1,ja,ñi,sil2,['catch'],[0.9786000003814479],[0.9786000003814479],0.0,beat,0.978600000381448,0.978600000381448,"[""space""]",pe,4,,,,,,,,,,,,,,,3.0,3.0,Català,0.0,Castellano,0.0,Inglés,6.0,4.0,5.0,yes,no,no,Flauta dulce,10,,,Nada ,71.0,yes
156,2024-02-21_21h26.50.451,Unsyncopated_study2,s117,23.0,feminino,right,España,Catalán y castellano,Master degree,no,no,B,2,when,L4,unsyncopated,when,when,28,Online_whenL4//a.lo29.none.wav,pe,ña,ru,sil,de,zi,ñi,sil1,nu,re,sil2,['-'],,,none,none,,,,lo,1,,,,,,,,,,,,,,,3.0,3.0,Català,0.0,Castellano,0.0,Inglés,6.0,4.0,5.0,yes,no,no,Flauta dulce,10,,,Nada ,71.0,yes
157,2024-02-21_21h26.50.451,Unsyncopated_study2,s117,23.0,feminino,right,España,Catalán y castellano,Master degree,no,no,B,2,when,L4,unsyncopated,when,when,29,Online_whenL4//a.lo30.none.wav,de,re,ru,sil,pe,ñi,zi,sil1,bo,nu,sil2,['-'],,,none,none,,,,lo,1,,,,,,,,,,,,,,,3.0,3.0,Català,0.0,Castellano,0.0,Inglés,6.0,4.0,5.0,yes,no,no,Flauta dulce,10,,,Nada ,71.0,yes
158,2024-02-21_21h26.50.451,Unsyncopated_study2,s117,23.0,feminino,right,España,Catalán y castellano,Master degree,no,no,B,2,when,L4,unsyncopated,when,when,30,Online_whenL4//a.lo31.none.wav,re,de,zi,sil,ru,pe,da,sil1,ci,nu,sil2,['-'],,,none,none,,,,lo,1,,,,,,,,,,,,,,,3.0,3.0,Català,0.0,Castellano,0.0,Inglés,6.0,4.0,5.0,yes,no,no,Flauta dulce,10,,,Nada ,71.0,yes
159,2024-02-21_21h26.50.451,Unsyncopated_study2,s117,23.0,feminino,right,España,Catalán y castellano,Master degree,no,no,B,2,when,L4,unsyncopated,when,when,31,Online_whenL4//a.lo28.1110.wav,ña,nu,da,sil,ci,lo,po,sil1,re,pe,sil2,['catch'],[2.0880999999044434],[2.0880999999044434],1.11,no_beat,0.9780999999044432,0.9780999999044432,"[""space""]",lo,1,,,,,,,,,,,,,,,3.0,3.0,Català,0.0,Castellano,0.0,Inglés,6.0,4.0,5.0,yes,no,no,Flauta dulce,10,,,Nada ,71.0,yes
160,2024-02-21_21h26.50.451,Unsyncopated_study2,s117,23.0,feminino,right,España,Catalán y castellano,Master degree,no,no,B,2,when,L4,unsyncopated,when,when,32,Online_whenL4//a.lo3.none.wav,ci,nu,ja,sil,re,ña,ru,sil1,po,bo,sil2,['-'],,,none,none,,,,lo,1,,,,,,,,,,,,,,,3.0,3.0,Català,0.0,Castellano,0.0,Inglés,6.0,4.0,5.0,yes,no,no,Flauta dulce,10,,,Nada ,71.0,yes
161,2024-02-21_21h26.50.451,Unsyncopated_study2,s117,23.0,feminino,right,España,Catalán y castellano,Master degree,no,no,B,2,when,L4,unsyncopated,when,when,33,Online_whenL4//a.lo1.none.wav,nu,ja,ci,sil,bo,ña,de,sil1,po,re,sil2,['-'],,,none,none,,,,lo,1,,,,,,,,,,,,,,,3.0,3.0,Català,0.0,Castellano,0.0,Inglés,6.0,4.0,5.0,yes,no,no,Flauta dulce,10,,,Nada ,71.0,yes
162,2024-02-21_21h26.50.451,Unsyncopated_study2,s117,23.0,feminino,right,España,Catalán y castellano,Master degree,no,no,B,2,when,L4,unsyncopated,when,when,34,Online_whenL4//a.lo0.none.wav,ru,pe,ci,sil,zi,ja,da,sil1,ñi,ña,sil2,['-'],,,none,none,,,,lo,1,,,,,,,,,,,,,,,3.0,3.0,Català,0.0,Castellano,0.0,Inglés,6.0,4.0,5.0,yes,no,no,Flauta dulce,10,,,Nada ,71.0,yes
163,2024-02-21_21h26.50.451,Unsyncopated_study2,s117,23.0,feminino,right,España,Catalán y castellano,Master degree,no,no,B,2,when,L4,unsyncopated,when,when,35,Online_whenL4//a.lo2.444.wav,ñi,bu,lo,sil,da,pe,ña,sil1,zi,bo,sil2,['catch'],[1.4957999997138813],[1.4957999997138813],0.444,no_beat,1.0517999997138814,1.0517999997138814,"[""space""]",lo,1,,,,,,,,,,,,,,,3.0,3.0,Català,0.0,Castellano,0.0,Inglés,6.0,4.0,5.0,yes,no,no,Flauta dulce,10,,,Nada ,71.0,yes
164,2024-02-21_21h26.50.451,Unsyncopated_study2,s117,23.0,feminino,right,España,Catalán y castellano,Master degree,no,no,B,2,when,L4,unsyncopated,when,when,36,Online_whenL4//c.bu18.none.wav,da,re,zi,sil,pe,po,lo,sil1,ci,ña,sil2,['false alarm'],[2.167299999713805],[2.167299999713805],none,none,,,"[""space""]",bu,3,,,,,,,,,,,,,,,3.0,3.0,Català,0.0,Castellano,0.0,Inglés,6.0,4.0,5.0,yes,no,no,Flauta dulce,10,,,Nada ,71.0,yes
165,2024-02-21_21h26.50.451,Unsyncopated_study2,s117,23.0,feminino,right,España,Catalán y castellano,Master degree,no,no,B,2,when,L4,unsyncopated,when,when,37,Online_whenL4//c.bu17.none.wav,bo,zi,de,sil,ña,nu,ci,sil1,ru,po,sil2,['-'],,,none,none,,,,bu,3,,,,,,,,,,,,,,,3.0,3.0,Català,0.0,Castellano,0.0,Inglés,6.0,4.0,5.0,yes,no,no,Flauta dulce,10,,,Nada ,71.0,yes
166,2024-02-21_21h26.50.451,Unsyncopated_study2,s117,23.0,feminino,right,España,Catalán y castellano,Master degree,no,no,B,2,when,L4,unsyncopated,when,when,38,Online_whenL4//c.bu16.0.wav,bu,ñi,pe,sil,ru,zi,bo,sil1,de,lo,sil2,['catch'],[0.85349999999994],[0.85349999999994],0.0,beat,0.85349999999994,0.85349999999994,"[""space""]",bu,3,,,,,,,,,,,,,,,3.0,3.0,Català,0.0,Castellano,0.0,Inglés,6.0,4.0,5.0,yes,no,no,Flauta dulce,10,,,Nada ,71.0,yes
167,2024-02-21_21h26.50.451,Unsyncopated_study2,s117,23.0,feminino,right,España,Catalán y castellano,Master degree,no,no,B,2,when,L4,unsyncopated,when,when,39,Online_whenL4//c.bu19.0.wav,bu,de,nu,sil,ja,ru,bo,sil1,ñi,pe,sil2,['catch'],[0.8375999999045689],[0.8375999999045689],0.0,beat,0.8375999999045689,0.8375999999045689,"[""space""]",bu,3,,,,,,,,,,,,,,,3.0,3.0,Català,0.0,Castellano,0.0,Inglés,6.0,4.0,5.0,yes,no,no,Flauta dulce,10,,,Nada ,71.0,yes
168,2024-02-21_21h26.50.451,Unsyncopated_study2,s117,23.0,feminino,right,España,Catalán y castellano,Master degree,no,no,B,2,when,L4,unsyncopated,when,when,40,Online_whenL4//c.bu28.1998.wav,ñi,re,ru,sil,ja,zi,ña,sil1,pe,bu,sil2,['catch_delay'],[0.8855999999046309],[0.8855999999046309],1.998,no_beat,0.8855999999046309,0.8855999999046309,,bu,3,,,,,,,,,,,,,,,3.0,3.0,Català,0.0,Castellano,0.0,Inglés,6.0,4.0,5.0,yes,no,no,Flauta dulce,10,,,Nada ,71.0,yes
169,2024-02-21_21h26.50.451,Unsyncopated_study2,s117,23.0,feminino,right,España,Catalán y castellano,Master degree,no,no,B,2,when,L4,unsyncopated,when,when,41,Online_whenL4//c.bu29.none.wav,ja,nu,po,sil,da,re,de,sil1,ru,ci,sil2,['-'],[0.21959999990463075],[0.21959999990463075],none,none,,,"[""space""]",bu,3,,,,,,,,,,,,,,,3.0,3.0,Català,0.0,Castellano,0.0,Inglés,6.0,4.0,5.0,yes,no,no,Flauta dulce,10,,,Nada ,71.0,yes
170,2024-02-21_21h26.50.451,Unsyncopated_study2,s117,23.0,feminino,right,España,Catalán y castellano,Master degree,no,no,B,2,when,L4,unsyncopated,when,when,42,Online_whenL4//c.bu30.none.wav,ña,ru,lo,sil,bo,ci,ñi,sil1,nu,po,sil2,['-'],,,none,none,,,,bu,3,,,,,,,,,,,,,,,3.0,3.0,Català,0.0,Castellano,0.0,Inglés,6.0,4.0,5.0,yes,no,no,Flauta dulce,10,,,Nada ,71.0,yes
171,2024-02-21_21h26.50.451,Unsyncopated_study2,s117,23.0,feminino,right,España,Catalán y castellano,Master degree,no,no,B,2,when,L4,unsyncopated,when,when,43,Online_whenL4//c.bu31.none.wav,ru,bo,ci,sil,lo,po,pe,sil1,zi,ña,sil2,['-'],,,none,none,,,,bu,3,,,,,,,,,,,,,,,3.0,3.0,Català,0.0,Castellano,0.0,Inglés,6.0,4.0,5.0,yes,no,no,Flauta dulce,10,,,Nada ,71.0,yes
172,2024-02-21_21h26.50.451,Unsyncopated_study2,s117,23.0,feminino,right,España,Catalán y castellano,Master degree,no,no,B,2,when,L4,unsyncopated,when,when,44,Online_whenL4//d.pe22.0.wav,pe,zi,ña,sil,lo,ci,ñi,sil1,re,da,sil2,['catch'],[0.7684000000954256],[0.7684000000954256],0.0,beat,0.7684000000954256,0.7684000000954256,"[""space""]",pe,4,,,,,,,,,,,,,,,3.0,3.0,Català,0.0,Castellano,0.0,Inglés,6.0,4.0,5.0,yes,no,no,Flauta dulce,10,,,Nada ,71.0,yes
173,2024-02-21_21h26.50.451,Unsyncopated_study2,s117,23.0,feminino,right,España,Catalán y castellano,Master degree,no,no,B,2,when,L4,unsyncopated,when,when,45,Online_whenL4//d.pe23.444.wav,po,ja,pe,sil,de,ru,re,sil1,lo,bo,sil2,['miss'],,,0.444,no_beat,,,,pe,4,,,,,,,,,,,,,,,3.0,3.0,Català,0.0,Castellano,0.0,Inglés,6.0,4.0,5.0,yes,no,no,Flauta dulce,10,,,Nada ,71.0,yes
174,2024-02-21_21h26.50.451,Unsyncopated_study2,s117,23.0,feminino,right,España,Catalán y castellano,Master degree,no,no,B,2,when,L4,unsyncopated,when,when,46,Online_whenL4//d.pe20.none.wav,bu,lo,po,sil,ru,ñi,ja,sil1,ña,de,sil2,['-'],,,none,none,,,,pe,4,,,,,,,,,,,,,,,3.0,3.0,Català,0.0,Castellano,0.0,Inglés,6.0,4.0,5.0,yes,no,no,Flauta dulce,10,,,Nada ,71.0,yes
175,2024-02-21_21h26.50.451,Unsyncopated_study2,s117,23.0,feminino,right,España,Catalán y castellano,Master degree,no,no,B,2,when,L4,unsyncopated,when,when,47,Online_whenL4//d.pe21.none.wav,ci,lo,bu,sil,ña,po,ja,sil1,bo,ru,sil2,['-'],,,none,none,,,,pe,4,,,,,,,,,,,,,,,3.0,3.0,Català,0.0,Castellano,0.0,Inglés,6.0,4.0,5.0,yes,no,no,Flauta dulce,10,,,Nada ,71.0,yes
176,2024-02-21_21h26.50.451,Unsyncopated_study2,s117,23.0,feminino,right,España,Catalán y castellano,Master degree,no,no,B,2,when,L4,unsyncopated,when,when,48,Online_whenL4//c.bu5.444.wav,ci,ñi,bu,sil,po,nu,ña,sil1,pe,zi,sil2,['catch'],[1.272799999713925],[1.272799999713925],0.444,no_beat,0.828799999713925,0.828799999713925,"[""space""]",bu,3,,,,,,,,,,,,,,,3.0,3.0,Català,0.0,Castellano,0.0,Inglés,6.0,4.0,5.0,yes,no,no,Flauta dulce,10,,,Nada ,71.0,yes
177,2024-02-21_21h26.50.451,Unsyncopated_study2,s117,23.0,feminino,right,España,Catalán y castellano,Master degree,no,no,B,2,when,L4,unsyncopated,when,when,49,Online_whenL4//c.bu4.none.wav,ru,ña,ja,sil,ñi,de,ci,sil1,po,zi,sil2,['-'],,,none,none,,,,bu,3,,,,,,,,,,,,,,,3.0,3.0,Català,0.0,Castellano,0.0,Inglés,6.0,4.0,5.0,yes,no,no,Flauta dulce,10,,,Nada ,71.0,yes
178,2024-02-21_21h26.50.451,Unsyncopated_study2,s117,23.0,feminino,right,España,Catalán y castellano,Master degree,no,no,B,2,when,L4,unsyncopated,when,when,50,Online_whenL4//c.bu7.none.wav,lo,ci,ja,sil,pe,ñi,da,sil1,re,ru,sil2,['-'],,,none,none,,,,bu,3,,,,,,,,,,,,,,,3.0,3.0,Català,0.0,Castellano,0.0,Inglés,6.0,4.0,5.0,yes,no,no,Flauta dulce,10,,,Nada ,71.0,yes
179,2024-02-21_21h26.50.451,Unsyncopated_study2,s117,23.0,feminino,right,España,Catalán y castellano,Master degree,no,no,B,2,when,L4,unsyncopated,when,when,51,Online_whenL4//c.bu6.none.wav,nu,de,ci,sil,ru,zi,ña,sil1,po,ñi,sil2,['-'],,,none,none,,,,bu,3,,,,,,,,,,,,,,,3.0,3.0,Català,0.0,Castellano,0.0,Inglés,6.0,4.0,5.0,yes,no,no,Flauta dulce,10,,,Nada ,71.0,yes
180,2024-02-21_21h26.50.451,Unsyncopated_study2,s117,23.0,feminino,right,España,Catalán y castellano,Master degree,no,no,B,2,when,L4,unsyncopated,when,when,52,Online_whenL4//d.pe1.222.wav,bo,pe,bu,sil,ja,ña,ru,sil1,ñi,nu,sil2,['catch'],[1.0149999999998727],[1.0149999999998727],0.222,no_beat,0.7929999999998727,0.7929999999998727,"[""space""]",pe,4,,,,,,,,,,,,,,,3.0,3.0,Català,0.0,Castellano,0.0,Inglés,6.0,4.0,5.0,yes,no,no,Flauta dulce,10,,,Nada ,71.0,yes
181,2024-02-21_21h26.50.451,Unsyncopated_study2,s117,23.0,feminino,right,España,Catalán y castellano,Master degree,no,no,B,2,when,L4,unsyncopated,when,when,53,Online_whenL4//d.pe3.888.wav,nu,bo,de,sil,pe,bu,po,sil1,da,zi,sil2,['catch'],[1.6787000002861987],[1.6787000002861987],0.888,beat,0.7907000002861987,0.7907000002861987,"[""space""]",pe,4,,,,,,,,,,,,,,,3.0,3.0,Català,0.0,Castellano,0.0,Inglés,6.0,4.0,5.0,yes,no,no,Flauta dulce,10,,,Nada ,71.0,yes
182,2024-02-21_21h26.50.451,Unsyncopated_study2,s117,23.0,feminino,right,España,Catalán y castellano,Master degree,no,no,B,2,when,L4,unsyncopated,when,when,54,Online_whenL4//d.pe0.none.wav,ja,zi,ñi,sil,ru,ci,ña,sil1,da,bu,sil2,['-'],,,none,none,,,,pe,4,,,,,,,,,,,,,,,3.0,3.0,Català,0.0,Castellano,0.0,Inglés,6.0,4.0,5.0,yes,no,no,Flauta dulce,10,,,Nada ,71.0,yes
183,2024-02-21_21h26.50.451,Unsyncopated_study2,s117,23.0,feminino,right,España,Catalán y castellano,Master degree,no,no,B,2,when,L4,unsyncopated,when,when,55,Online_whenL4//d.pe2.none.wav,ñi,ña,ru,sil,nu,da,po,sil1,de,ja,sil2,['-'],,,none,none,,,,pe,4,,,,,,,,,,,,,,,3.0,3.0,Català,0.0,Castellano,0.0,Inglés,6.0,4.0,5.0,yes,no,no,Flauta dulce,10,,,Nada ,71.0,yes
184,2024-02-21_21h26.50.451,Unsyncopated_study2,s117,23.0,feminino,right,España,Catalán y castellano,Master degree,no,no,B,2,when,L4,unsyncopated,when,when,56,Online_whenL4//b.ja8.1998.wav,nu,de,da,sil,re,pe,ña,sil1,bu,ja,sil2,['miss'],,,1.998,no_beat,,,,ja,2,,,,,,,,,,,,,,,3.0,3.0,Català,0.0,Castellano,0.0,Inglés,6.0,4.0,5.0,yes,no,no,Flauta dulce,10,,,Nada ,71.0,yes
185,2024-02-21_21h26.50.451,Unsyncopated_study2,s117,23.0,feminino,right,España,Catalán y castellano,Master degree,no,no,B,2,when,L4,unsyncopated,when,when,57,Online_whenL4//b.ja9.0.wav,ja,ci,re,sil,de,zi,pe,sil1,po,bu,sil2,"['catch', 'false alarm']","[0.13780000019073668, 1.0044000000955293]",[0.13780000019073668],0.0,beat,0.1378000001907366,0.1378000001907366,"[""space"",""space""]",ja,2,,,,,,,,,,,,,,,3.0,3.0,Català,0.0,Castellano,0.0,Inglés,6.0,4.0,5.0,yes,no,no,Flauta dulce,10,,,Nada ,71.0,yes
186,2024-02-21_21h26.50.451,Unsyncopated_study2,s117,23.0,feminino,right,España,Catalán y castellano,Master degree,no,no,B,2,when,L4,unsyncopated,when,when,58,Online_whenL4//b.ja10.none.wav,bu,lo,pe,sil,zi,po,ru,sil1,ci,de,sil2,['-'],,,none,none,,,,ja,2,,,,,,,,,,,,,,,3.0,3.0,Català,0.0,Castellano,0.0,Inglés,6.0,4.0,5.0,yes,no,no,Flauta dulce,10,,,Nada ,71.0,yes
187,2024-02-21_21h26.50.451,Unsyncopated_study2,s117,23.0,feminino,right,España,Catalán y castellano,Master degree,no,no,B,2,when,L4,unsyncopated,when,when,59,Online_whenL4//b.ja11.444.wav,po,da,ja,sil,nu,ru,bo,sil1,pe,de,sil2,['catch'],[1.2374000000952492],[1.2374000000952492],0.444,no_beat,0.7934000000952492,0.7934000000952492,"[""space""]",ja,2,,,,,,,,,,,,,,,3.0,3.0,Català,0.0,Castellano,0.0,Inglés,6.0,4.0,5.0,yes,no,no,Flauta dulce,10,,,Nada ,71.0,yes
188,2024-02-21_21h26.50.451,Unsyncopated_study2,s117,23.0,feminino,right,España,Catalán y castellano,Master degree,no,no,B,2,when,L4,unsyncopated,when,when,60,Online_whenL4//b.ja17.none.wav,pe,ru,ñi,sil,zi,lo,re,sil1,de,bu,sil2,['-'],,,none,none,,,,ja,2,,,,,,,,,,,,,,,3.0,3.0,Català,0.0,Castellano,0.0,Inglés,6.0,4.0,5.0,yes,no,no,Flauta dulce,10,,,Nada ,71.0,yes
189,2024-02-21_21h26.50.451,Unsyncopated_study2,s117,23.0,feminino,right,España,Catalán y castellano,Master degree,no,no,B,2,when,L4,unsyncopated,when,when,61,Online_whenL4//b.ja19.none.wav,ñi,da,nu,sil,ña,bo,de,sil1,po,lo,sil2,['-'],,,none,none,,,,ja,2,,,,,,,,,,,,,,,3.0,3.0,Català,0.0,Castellano,0.0,Inglés,6.0,4.0,5.0,yes,no,no,Flauta dulce,10,,,Nada ,71.0,yes
190,2024-02-21_21h26.50.451,Unsyncopated_study2,s117,23.0,feminino,right,España,Catalán y castellano,Master degree,no,no,B,2,when,L4,unsyncopated,when,when,62,Online_whenL4//b.ja18.none.wav,bo,re,ru,sil,de,lo,zi,sil1,ci,ña,sil2,['-'],,,none,none,,,,ja,2,,,,,,,,,,,,,,,3.0,3.0,Català,0.0,Castellano,0.0,Inglés,6.0,4.0,5.0,yes,no,no,Flauta dulce,10,,,Nada ,71.0,yes
191,2024-02-21_21h26.50.451,Unsyncopated_study2,s117,23.0,feminino,right,España,Catalán y castellano,Master degree,no,no,B,2,when,L4,unsyncopated,when,when,63,Online_whenL4//b.ja16.1110.wav,re,ci,bu,sil,de,ja,ru,sil1,pe,nu,sil2,['catch'],[2.025799999713854],[2.025799999713854],1.11,no_beat,0.915799999713854,0.915799999713854,"[""space""]",ja,2,,,,,,,,,,,,,,,3.0,3.0,Català,0.0,Castellano,0.0,Inglés,6.0,4.0,5.0,yes,no,no,Flauta dulce,10,,,Nada ,71.0,yes
192,2024-02-21_21h26.50.451,Unsyncopated_study2,s117,23.0,feminino,right,España,Catalán y castellano,Master degree,no,no,B,2,when,L4,unsyncopated,when,when,64,Online_whenL4//d.pe10.888.wav,da,zi,po,sil,pe,lo,ru,sil1,ci,re,sil2,['catch'],[1.6660999999046453],[1.6660999999046453],0.888,beat,0.7780999999046453,0.7780999999046453,"[""space""]",pe,4,,,,,,,,,,,,,,,3.0,3.0,Català,0.0,Castellano,0.0,Inglés,6.0,4.0,5.0,yes,no,no,Flauta dulce,10,,,Nada ,71.0,yes
193,2024-02-21_21h26.50.451,Unsyncopated_study2,s117,23.0,feminino,right,España,Catalán y castellano,Master degree,no,no,B,2,when,L4,unsyncopated,when,when,65,Online_whenL4//d.pe11.none.wav,re,da,zi,sil,bu,lo,ña,sil1,ci,po,sil2,['-'],,,none,none,,,,pe,4,,,,,,,,,,,,,,,3.0,3.0,Català,0.0,Castellano,0.0,Inglés,6.0,4.0,5.0,yes,no,no,Flauta dulce,10,,,Nada ,71.0,yes
194,2024-02-21_21h26.50.451,Unsyncopated_study2,s117,23.0,feminino,right,España,Catalán y castellano,Master degree,no,no,B,2,when,L4,unsyncopated,when,when,66,Online_whenL4//d.pe9.none.wav,de,bu,da,sil,zi,ña,nu,sil1,ci,re,sil2,['-'],,,none,none,,,,pe,4,,,,,,,,,,,,,,,3.0,3.0,Català,0.0,Castellano,0.0,Inglés,6.0,4.0,5.0,yes,no,no,Flauta dulce,10,,,Nada ,71.0,yes
195,2024-02-21_21h26.50.451,Unsyncopated_study2,s117,23.0,feminino,right,España,Catalán y castellano,Master degree,no,no,B,2,when,L4,unsyncopated,when,when,67,Online_whenL4//d.pe8.1998.wav,bo,ru,ña,sil,nu,ñi,ja,sil1,po,pe,sil2,['catch_delay'],[0.748499999999982],[0.748499999999982],1.998,no_beat,0.748499999999982,0.748499999999982,,pe,4,,,,,,,,,,,,,,,3.0,3.0,Català,0.0,Castellano,0.0,Inglés,6.0,4.0,5.0,yes,no,no,Flauta dulce,10,,,Nada ,71.0,yes
196,2024-02-21_21h26.50.451,Unsyncopated_study2,s117,23.0,feminino,right,España,Catalán y castellano,Master degree,no,no,B,2,when,L4,unsyncopated,when,when,68,Online_whenL4//b.ja4.none.wav,ñi,nu,ru,sil,po,de,da,sil1,re,lo,sil2,['-'],[0.08249999999998181],[0.08249999999998181],none,none,,,"[""space""]",ja,2,,,,,,,,,,,,,,,3.0,3.0,Català,0.0,Castellano,0.0,Inglés,6.0,4.0,5.0,yes,no,no,Flauta dulce,10,,,Nada ,71.0,yes
197,2024-02-21_21h26.50.451,Unsyncopated_study2,s117,23.0,feminino,right,España,Catalán y castellano,Master degree,no,no,B,2,when,L4,unsyncopated,when,when,69,Online_whenL4//b.ja5.none.wav,re,pe,ña,sil,bu,po,ci,sil1,lo,nu,sil2,['-'],,,none,none,,,,ja,2,,,,,,,,,,,,,,,3.0,3.0,Català,0.0,Castellano,0.0,Inglés,6.0,4.0,5.0,yes,no,no,Flauta dulce,10,,,Nada ,71.0,yes
198,2024-02-21_21h26.50.451,Unsyncopated_study2,s117,23.0,feminino,right,España,Catalán y castellano,Master degree,no,no,B,2,when,L4,unsyncopated,when,when,70,Online_whenL4//b.ja7.none.wav,de,bo,zi,sil,ru,pe,da,sil1,po,nu,sil2,['-'],,,none,none,,,,ja,2,,,,,,,,,,,,,,,3.0,3.0,Català,0.0,Castellano,0.0,Inglés,6.0,4.0,5.0,yes,no,no,Flauta dulce,10,,,Nada ,71.0,yes
199,2024-02-21_21h26.50.451,Unsyncopated_study2,s117,23.0,feminino,right,España,Catalán y castellano,Master degree,no,no,B,2,when,L4,unsyncopated,when,when,71,Online_whenL4//b.ja6.1332.wav,pe,ña,de,sil,bo,ci,ja,sil1,lo,po,sil2,['catch'],[2.137599999904751],[2.137599999904751],1.332,no_beat,0.8055999999047507,0.8055999999047507,"[""space""]",ja,2,,,,,,,,,,,,,,,3.0,3.0,Català,0.0,Castellano,0.0,Inglés,6.0,4.0,5.0,yes,no,no,Flauta dulce,10,,,Nada ,71.0,yes
200,2024-02-21_21h26.50.451,Unsyncopated_study2,s117,23.0,feminino,right,España,Catalán y castellano,Master degree,no,no,B,2,when,L4,unsyncopated,when,when,72,Online_whenL4//a.lo19.0.wav,lo,ru,po,sil,pe,bu,re,sil1,nu,bo,sil2,['catch'],[1.448400000095262],[1.448400000095262],0.0,beat,,1.448400000095262,"[""space""]",lo,1,,,,,,,,,,,,,,,3.0,3.0,Català,0.0,Castellano,0.0,Inglés,6.0,4.0,5.0,yes,no,no,Flauta dulce,10,,,Nada ,71.0,yes
201,2024-02-21_21h26.50.451,Unsyncopated_study2,s117,23.0,feminino,right,España,Catalán y castellano,Master degree,no,no,B,2,when,L4,unsyncopated,when,when,73,Online_whenL4//a.lo18.none.wav,re,ñi,de,sil,nu,bo,ña,sil1,ru,zi,sil2,['-'],,,none,none,,,,lo,1,,,,,,,,,,,,,,,3.0,3.0,Català,0.0,Castellano,0.0,Inglés,6.0,4.0,5.0,yes,no,no,Flauta dulce,10,,,Nada ,71.0,yes
202,2024-02-21_21h26.50.451,Unsyncopated_study2,s117,23.0,feminino,right,España,Catalán y castellano,Master degree,no,no,B,2,when,L4,unsyncopated,when,when,74,Online_whenL4//a.lo16.none.wav,po,bu,re,sil,ja,pe,zi,sil1,da,ña,sil2,['-'],,,none,none,,,,lo,1,,,,,,,,,,,,,,,3.0,3.0,Català,0.0,Castellano,0.0,Inglés,6.0,4.0,5.0,yes,no,no,Flauta dulce,10,,,Nada ,71.0,yes
203,2024-02-21_21h26.50.451,Unsyncopated_study2,s117,23.0,feminino,right,España,Catalán y castellano,Master degree,no,no,B,2,when,L4,unsyncopated,when,when,75,Online_whenL4//a.lo17.888.wav,ci,de,re,sil,lo,ru,da,sil1,ñi,zi,sil2,['miss'],,,0.888,beat,,,,lo,1,,,,,,,,,,,,,,,3.0,3.0,Català,0.0,Castellano,0.0,Inglés,6.0,4.0,5.0,yes,no,no,Flauta dulce,10,,,Nada ,71.0,yes
204,2024-02-21_21h26.50.451,Unsyncopated_study2,s117,23.0,feminino,right,España,Catalán y castellano,Master degree,no,no,B,2,when,L4,unsyncopated,when,when,76,Online_whenL4//c.bu27.0.wav,bu,de,zi,sil,ja,da,ru,sil1,bo,po,sil2,['catch'],[0.8024000000955311],[0.8024000000955311],0.0,beat,0.8024000000955311,0.8024000000955311,"[""space""]",bu,3,,,,,,,,,,,,,,,3.0,3.0,Català,0.0,Castellano,0.0,Inglés,6.0,4.0,5.0,yes,no,no,Flauta dulce,10,,,Nada ,71.0,yes
205,2024-02-21_21h26.50.451,Unsyncopated_study2,s117,23.0,feminino,right,España,Catalán y castellano,Master degree,no,no,B,2,when,L4,unsyncopated,when,when,77,Online_whenL4//c.bu24.1998.wav,lo,po,ci,sil,nu,re,ñi,sil1,pe,bu,sil2,['miss'],,,1.998,no_beat,,,,bu,3,,,,,,,,,,,,,,,3.0,3.0,Català,0.0,Castellano,0.0,Inglés,6.0,4.0,5.0,yes,no,no,Flauta dulce,10,,,Nada ,71.0,yes
206,2024-02-21_21h26.50.451,Unsyncopated_study2,s117,23.0,feminino,right,España,Catalán y castellano,Master degree,no,no,B,2,when,L4,unsyncopated,when,when,78,Online_whenL4//c.bu25.222.wav,ña,bu,de,sil,da,po,lo,sil1,ja,pe,sil2,['catch'],[0.3087999997139832],[0.3087999997139832],0.222,no_beat,0.0867999997139832,0.0867999997139832,"[""space""]",bu,3,,,,,,,,,,,,,,,3.0,3.0,Català,0.0,Castellano,0.0,Inglés,6.0,4.0,5.0,yes,no,no,Flauta dulce,10,,,Nada ,71.0,yes
207,2024-02-21_21h26.50.451,Unsyncopated_study2,s117,23.0,feminino,right,España,Catalán y castellano,Master degree,no,no,B,2,when,L4,unsyncopated,when,when,79,Online_whenL4//c.bu26.none.wav,po,da,ña,sil,zi,ru,lo,sil1,ci,re,sil2,['-'],,,none,none,,,,bu,3,,,,,,,,,,,,,,,3.0,3.0,Català,0.0,Castellano,0.0,Inglés,6.0,4.0,5.0,yes,no,no,Flauta dulce,10,,,Nada ,71.0,yes
208,2024-02-21_21h26.50.451,Unsyncopated_study2,s117,23.0,feminino,right,España,Catalán y castellano,Master degree,no,no,B,2,when,L4,unsyncopated,when,when,80,Online_whenL4//a.lo14.none.wav,bu,ru,nu,sil,zi,bo,pe,sil1,da,ñi,sil2,['-'],,,none,none,,,,lo,1,,,,,,,,,,,,,,,3.0,3.0,Català,0.0,Castellano,0.0,Inglés,6.0,4.0,5.0,yes,no,no,Flauta dulce,10,,,Nada ,71.0,yes
209,2024-02-21_21h26.50.451,Unsyncopated_study2,s117,23.0,feminino,right,España,Catalán y castellano,Master degree,no,no,B,2,when,L4,unsyncopated,when,when,81,Online_whenL4//a.lo15.1776.wav,de,pe,da,sil,ñi,po,re,sil1,lo,ja,sil2,['miss'],,,1.776,beat,,,,lo,1,,,,,,,,,,,,,,,3.0,3.0,Català,0.0,Castellano,0.0,Inglés,6.0,4.0,5.0,yes,no,no,Flauta dulce,10,,,Nada ,71.0,yes
210,2024-02-21_21h26.50.451,Unsyncopated_study2,s117,23.0,feminino,right,España,Catalán y castellano,Master degree,no,no,B,2,when,L4,unsyncopated,when,when,82,Online_whenL4//a.lo13.1776.wav,re,ña,ru,sil,ci,ja,ñi,sil1,lo,pe,sil2,['miss'],,,1.776,beat,,,,lo,1,,,,,,,,,,,,,,,3.0,3.0,Català,0.0,Castellano,0.0,Inglés,6.0,4.0,5.0,yes,no,no,Flauta dulce,10,,,Nada ,71.0,yes
211,2024-02-21_21h26.50.451,Unsyncopated_study2,s117,23.0,feminino,right,España,Catalán y castellano,Master degree,no,no,B,2,when,L4,unsyncopated,when,when,83,Online_whenL4//a.lo12.none.wav,nu,bu,zi,sil,ñi,bo,ci,sil1,ru,ña,sil2,['-'],,,none,none,,,,lo,1,,,,,,,,,,,,,,,3.0,3.0,Català,0.0,Castellano,0.0,Inglés,6.0,4.0,5.0,yes,no,no,Flauta dulce,10,,,Nada ,71.0,yes
212,2024-02-21_21h26.50.451,Unsyncopated_study2,s117,23.0,feminino,right,España,Catalán y castellano,Master degree,no,no,B,2,when,L4,unsyncopated,when,when,84,Online_whenL4//a.lo25.none.wav,ñi,ja,ru,sil,bo,ci,ña,sil1,de,zi,sil2,['-'],,,none,none,,,,lo,1,,,,,,,,,,,,,,,3.0,3.0,Català,0.0,Castellano,0.0,Inglés,6.0,4.0,5.0,yes,no,no,Flauta dulce,10,,,Nada ,71.0,yes
213,2024-02-21_21h26.50.451,Unsyncopated_study2,s117,23.0,feminino,right,España,Catalán y castellano,Master degree,no,no,B,2,when,L4,unsyncopated,when,when,85,Online_whenL4//a.lo26.1998.wav,po,ja,bu,sil,ci,pe,ru,sil1,ñi,lo,sil2,['catch_delay'],[1.0864999999999474],[1.0864999999999474],1.998,no_beat,1.0864999999999474,1.0864999999999474,,lo,1,,,,,,,,,,,,,,,3.0,3.0,Català,0.0,Castellano,0.0,Inglés,6.0,4.0,5.0,yes,no,no,Flauta dulce,10,,,Nada ,71.0,yes
214,2024-02-21_21h26.50.451,Unsyncopated_study2,s117,23.0,feminino,right,España,Catalán y castellano,Master degree,no,no,B,2,when,L4,unsyncopated,when,when,86,Online_whenL4//a.lo24.1776.wav,de,ja,ci,sil,re,ña,po,sil1,lo,bu,sil2,['catch_delay'],[1.0036000003813916],[1.0036000003813916],1.776,beat,1.0036000003813916,1.0036000003813916,"[""space""]",lo,1,,,,,,,,,,,,,,,3.0,3.0,Català,0.0,Castellano,0.0,Inglés,6.0,4.0,5.0,yes,no,no,Flauta dulce,10,,,Nada ,71.0,yes
