Unnamed: 0,date,expName,participant,age,sex,hand,residence,native_lang,education_level,lang_deficit,aud_deficit,group,block,condition,language,rhythm,rule structure online,rule type online,order_trial_on,trial_online,s1,s2,s3,s4,s5,s6,s7,s8,s9,s10,s11,catch_syll_resp,rts_syll_catch,clean_rts,time_syll,beat_no_beat,catch_rtsTR,catch_rts,syllable_catch.keys,cond_syll,syll_to_catch,test_offline,block_off,condition_off,rhythm_off,rule,rule_str_off,rule_norule,conds_offline,language_off,Partz_no_partm.keys,Partz_no_partm.rt,security_1_7.keys,accuracy,security_1_7.rt,n_lang,n_lang_used,lang_1,age_l1,lang_2,age_l2,lang_3,age_l3,ability_learn_l2,tendence_mix_lan,music_experience,muisc_use,partiture,instr_1,age_M1,instr_2,age_M2,preguntas_musica1,BMRQ_answer.response,final comment,BMRQ_Score,bilingual
0,2023-11-19_12h42.00.600,Unsyncopated1,s75,23.0,masculino,right,España,Lengua castellana y catalán,Upper secondary,no,no,A,1,when,L3,unsyncopated,when,when,0,Online_whenL3//b.ñe33.none.wav,gu,li,ka,sil,sa,fu,le,sil1,di,chu,sil2,['-'],,,none,none,,,,ñe,1,testWhenL3Uns//time_viol.r2.s2.0.wav,1.0,when,unsyncopated,b,s2,no_rule,time,L3,z,0.716,7.0,1.0,1.5498,3 ,3.0,Castellano,Desde que tengo uso de razón,Catalán,9 aprox,Inglés,9 aprox,4.0,4.0,yes,yes,yes,Guitarra,9,Voz,9,1. Cuando comparto música con alguien siento una complicidad especial con aquella persona.,4.0,"Quizá hacia al final de la prueba es más difícil mantener la atención porque se hace repetitiva la tarea y entras en una especie de somnolencia por repetición... Espero que sirva de algo, gracias por dejarnos participar. ",68.0,yes
1,2023-11-19_12h42.00.600,Unsyncopated1,s75,23.0,masculino,right,España,Lengua castellana y catalán,Upper secondary,no,no,A,1,when,L3,unsyncopated,when,when,1,Online_whenL3//b.ñe35.1776.wav,le,ka,do,sil,chu,ga,ji,sil1,ñe,gu,sil2,['catch'],[2.527599999994095],[2.527599999994095],1.776,beat,0.751599999994095,0.751599999994095,"[""space""]",ñe,1,testWhenL3Uns//time_viol.r1.s1.0.wav,1.0,when,unsyncopated,a,s1,no_rule,time,L3,z,0.9008,7.0,1.0,0.6013,3 ,3.0,Castellano,Desde que tengo uso de razón,Catalán,9 aprox,Inglés,9 aprox,4.0,4.0,yes,yes,yes,Guitarra,9,Voz,9,2. En mi tiempo libre apenas escucho música.,5.0,"Quizá hacia al final de la prueba es más difícil mantener la atención porque se hace repetitiva la tarea y entras en una especie de somnolencia por repetición... Espero que sirva de algo, gracias por dejarnos participar. ",68.0,yes
2,2023-11-19_12h42.00.600,Unsyncopated1,s75,23.0,masculino,right,España,Lengua castellana y catalán,Upper secondary,no,no,A,1,when,L3,unsyncopated,when,when,2,Online_whenL3//b.ñe34.444.wav,fu,ka,ñe,sil,ko,do,chu,sil1,ga,je,sil2,['miss'],,,0.444,no_beat,,,,ñe,1,testWhenL3Uns//cat_viol.r1.s1.0.wav,1.0,when,unsyncopated,a,s1,no_rule,cat,L3,z,0.6374,7.0,1.0,0.8166,3 ,3.0,Castellano,Desde que tengo uso de razón,Catalán,9 aprox,Inglés,9 aprox,4.0,4.0,yes,yes,yes,Guitarra,9,Voz,9,3. Algunas canciones me ponen los pelos de punta,4.0,"Quizá hacia al final de la prueba es más difícil mantener la atención porque se hace repetitiva la tarea y entras en una especie de somnolencia por repetición... Espero que sirva de algo, gracias por dejarnos participar. ",68.0,yes
3,2023-11-19_12h42.00.600,Unsyncopated1,s75,23.0,masculino,right,España,Lengua castellana y catalán,Upper secondary,no,no,A,1,when,L3,unsyncopated,when,when,3,Online_whenL3//b.ñe32.none.wav,li,fu,mo,sil,ko,ji,chu,sil1,gu,do,sil2,['-'],,,none,none,,,,ñe,1,testWhenL3Uns//dep_viol.r2.s1.0.wav,1.0,when,unsyncopated,b,s1,no_rule,dep,L3,z,0.3174,7.0,1.0,0.3341,3 ,3.0,Castellano,Desde que tengo uso de razón,Catalán,9 aprox,Inglés,9 aprox,4.0,4.0,yes,yes,yes,Guitarra,9,Voz,9,4. La música me hace compañía cuando estoy solo,4.0,"Quizá hacia al final de la prueba es más difícil mantener la atención porque se hace repetitiva la tarea y entras en una especie de somnolencia por repetición... Espero que sirva de algo, gracias por dejarnos participar. ",68.0,yes
4,2023-11-19_12h42.00.600,Unsyncopated1,s75,23.0,masculino,right,España,Lengua castellana y catalán,Upper secondary,no,no,A,1,when,L3,unsyncopated,when,when,4,Online_whenL3//c.gu9.none.wav,di,ko,le,sil,sa,ji,li,sil1,ka,mo,sil2,['-'],,,none,none,,,,gu,3,testWhenL3Uns//r1.s1.0.wav,1.0,when,unsyncopated,a,s1,rule,rule,L3,z,0.868,6.0,1.0,1.7327,3 ,3.0,Castellano,Desde que tengo uso de razón,Catalán,9 aprox,Inglés,9 aprox,4.0,4.0,yes,yes,yes,Guitarra,9,Voz,9,5. No me apetece bailar ni con la música que más me gusta,4.0,"Quizá hacia al final de la prueba es más difícil mantener la atención porque se hace repetitiva la tarea y entras en una especie de somnolencia por repetición... Espero que sirva de algo, gracias por dejarnos participar. ",68.0,yes
5,2023-11-19_12h42.00.600,Unsyncopated1,s75,23.0,masculino,right,España,Lengua castellana y catalán,Upper secondary,no,no,A,1,when,L3,unsyncopated,when,when,5,Online_whenL3//c.gu11.1110.wav,do,mo,ñe,sil,ga,gu,li,sil1,di,le,sil2,['catch'],[1.9279999999999973],[1.9279999999999973],1.11,no_beat,0.8179999999999972,0.8179999999999972,"[""space""]",gu,3,testWhenL3Uns//r1.s2.1.wav,1.0,when,unsyncopated,a,s2,rule,rule,L3,z,0.3347,7.0,1.0,0.2186,3 ,3.0,Castellano,Desde que tengo uso de razón,Catalán,9 aprox,Inglés,9 aprox,4.0,4.0,yes,yes,yes,Guitarra,9,Voz,9,6. La música me hace conectar con la gente,4.0,"Quizá hacia al final de la prueba es más difícil mantener la atención porque se hace repetitiva la tarea y entras en una especie de somnolencia por repetición... Espero que sirva de algo, gracias por dejarnos participar. ",68.0,yes
6,2023-11-19_12h42.00.600,Unsyncopated1,s75,23.0,masculino,right,España,Lengua castellana y catalán,Upper secondary,no,no,A,1,when,L3,unsyncopated,when,when,6,Online_whenL3//c.gu10.none.wav,ji,je,mo,sil,li,do,le,sil1,ka,chu,sil2,['-'],,,none,none,,,,gu,3,testWhenL3Uns//r2.s1.2.wav,1.0,when,unsyncopated,b,s1,rule,rule,L3,m,4.2182,5.0,0.0,5.0846,3 ,3.0,Castellano,Desde que tengo uso de razón,Catalán,9 aprox,Inglés,9 aprox,4.0,4.0,yes,yes,yes,Guitarra,9,Voz,9,7. Me informo sobre la música que me gusta.,4.0,"Quizá hacia al final de la prueba es más difícil mantener la atención porque se hace repetitiva la tarea y entras en una especie de somnolencia por repetición... Espero que sirva de algo, gracias por dejarnos participar. ",68.0,yes
7,2023-11-19_12h42.00.600,Unsyncopated1,s75,23.0,masculino,right,España,Lengua castellana y catalán,Upper secondary,no,no,A,1,when,L3,unsyncopated,when,when,7,Online_whenL3//c.gu8.1332.wav,ka,ñe,li,sil,ko,le,gu,sil1,sa,fu,sil2,['catch'],[1.98599999999999],[1.98599999999999],1.332,no_beat,0.6539999999999899,0.6539999999999899,"[""space""]",gu,3,testWhenL3Uns//cat_viol.r2.s2.0.wav,1.0,when,unsyncopated,b,s2,no_rule,cat,L3,z,1.251,5.0,1.0,1.2827,3 ,3.0,Castellano,Desde que tengo uso de razón,Catalán,9 aprox,Inglés,9 aprox,4.0,4.0,yes,yes,yes,Guitarra,9,Voz,9,8.Me emociono escuchando ciertas canciones.,4.0,"Quizá hacia al final de la prueba es más difícil mantener la atención porque se hace repetitiva la tarea y entras en una especie de somnolencia por repetición... Espero que sirva de algo, gracias por dejarnos participar. ",68.0,yes
8,2023-11-19_12h42.00.600,Unsyncopated1,s75,23.0,masculino,right,España,Lengua castellana y catalán,Upper secondary,no,no,A,1,when,L3,unsyncopated,when,when,8,Online_whenL3//c.gu20.none.wav,fu,li,di,sil,ko,chu,ga,sil1,do,ñe,sil2,['-'],,,none,none,,,,gu,3,testWhenL3Uns//cat_viol.r1.s2.0.wav,1.0,when,unsyncopated,a,s2,no_rule,cat,L3,z,0.3012,7.0,1.0,0.2184,3 ,3.0,Castellano,Desde que tengo uso de razón,Catalán,9 aprox,Inglés,9 aprox,4.0,4.0,yes,yes,yes,Guitarra,9,Voz,9,9.La música me tranquiliza y me relaja.,4.0,"Quizá hacia al final de la prueba es más difícil mantener la atención porque se hace repetitiva la tarea y entras en una especie de somnolencia por repetición... Espero que sirva de algo, gracias por dejarnos participar. ",68.0,yes
9,2023-11-19_12h42.00.600,Unsyncopated1,s75,23.0,masculino,right,España,Lengua castellana y catalán,Upper secondary,no,no,A,1,when,L3,unsyncopated,when,when,9,Online_whenL3//c.gu23.none.wav,ji,fu,di,sil,ñe,je,li,sil1,do,mo,sil2,['-'],,,none,none,,,,gu,3,testWhenL3Uns//r2.s1.1.wav,1.0,when,unsyncopated,b,s1,rule,rule,L3,m,1.1839,5.0,0.0,2.0679,3 ,3.0,Castellano,Desde que tengo uso de razón,Catalán,9 aprox,Inglés,9 aprox,4.0,4.0,yes,yes,yes,Guitarra,9,Voz,9,10.La música me hace bailar,3.0,"Quizá hacia al final de la prueba es más difícil mantener la atención porque se hace repetitiva la tarea y entras en una especie de somnolencia por repetición... Espero que sirva de algo, gracias por dejarnos participar. ",68.0,yes
10,2023-11-19_12h42.00.600,Unsyncopated1,s75,23.0,masculino,right,España,Lengua castellana y catalán,Upper secondary,no,no,A,1,when,L3,unsyncopated,when,when,10,Online_whenL3//c.gu22.1998.wav,do,chu,le,sil,ga,li,ji,sil1,mo,gu,sil2,['catch_delay'],[0.7721000000089508],[0.7721000000089508],1.998,no_beat,0.7721000000089508,0.7721000000089508,,gu,3,testWhenL3Uns//r2.s2.1.wav,1.0,when,unsyncopated,b,s2,rule,rule,L3,z,0.3505,7.0,1.0,0.2415,3 ,3.0,Castellano,Desde que tengo uso de razón,Catalán,9 aprox,Inglés,9 aprox,4.0,4.0,yes,yes,yes,Guitarra,9,Voz,9,11.Busco novedades musicales continuamente,3.0,"Quizá hacia al final de la prueba es más difícil mantener la atención porque se hace repetitiva la tarea y entras en una especie de somnolencia por repetición... Espero que sirva de algo, gracias por dejarnos participar. ",68.0,yes
11,2023-11-19_12h42.00.600,Unsyncopated1,s75,23.0,masculino,right,España,Lengua castellana y catalán,Upper secondary,no,no,A,1,when,L3,unsyncopated,when,when,11,Online_whenL3//c.gu21.none.wav,je,ñe,do,sil,sa,ko,ji,sil1,di,li,sil2,['-'],[0.1061000000089507],[0.1061000000089507],none,none,,,"[""space""]",gu,3,testWhenL3Uns//cat_viol.r2.s1.0.wav,1.0,when,unsyncopated,b,s1,no_rule,cat,L3,z,0.2843,7.0,1.0,0.2217,3 ,3.0,Castellano,Desde que tengo uso de razón,Catalán,9 aprox,Inglés,9 aprox,4.0,4.0,yes,yes,yes,Guitarra,9,Voz,9,12. Puedo llorar cuando escucho algunas melodías que me gustan mucho.,4.0,"Quizá hacia al final de la prueba es más difícil mantener la atención porque se hace repetitiva la tarea y entras en una especie de somnolencia por repetición... Espero que sirva de algo, gracias por dejarnos participar. ",68.0,yes
12,2023-11-19_12h42.00.600,Unsyncopated1,s75,23.0,masculino,right,España,Lengua castellana y catalán,Upper secondary,no,no,A,1,when,L3,unsyncopated,when,when,12,Online_whenL3//a.mo19.none.wav,fu,ka,ko,sil,chu,sa,do,sil1,li,le,sil2,['-'],,,none,none,,,,mo,2,testWhenL3Uns//r1.s2.2.wav,1.0,when,unsyncopated,a,s2,rule,rule,L3,z,0.2673,7.0,1.0,0.2393,3 ,3.0,Castellano,Desde que tengo uso de razón,Catalán,9 aprox,Inglés,9 aprox,4.0,4.0,yes,yes,yes,Guitarra,9,Voz,9,13. Me gusta cantar o tocar un instrumento con más gente,3.0,"Quizá hacia al final de la prueba es más difícil mantener la atención porque se hace repetitiva la tarea y entras en una especie de somnolencia por repetición... Espero que sirva de algo, gracias por dejarnos participar. ",68.0,yes
13,2023-11-19_12h42.00.600,Unsyncopated1,s75,23.0,masculino,right,España,Lengua castellana y catalán,Upper secondary,no,no,A,1,when,L3,unsyncopated,when,when,13,Online_whenL3//a.mo18.888.wav,je,do,fu,sil,mo,sa,ga,sil1,di,le,sil2,['catch'],[1.7029999999999745],[1.7029999999999745],0.888,beat,0.8149999999999745,0.8149999999999745,"[""space""]",mo,2,testWhenL3Uns//r1.s1.1.wav,1.0,when,unsyncopated,a,s1,rule,rule,L3,m,0.199,5.0,0.0,0.6184,3 ,3.0,Castellano,Desde que tengo uso de razón,Catalán,9 aprox,Inglés,9 aprox,4.0,4.0,yes,yes,yes,Guitarra,9,Voz,9,14. La música me ayuda a desconectar.,4.0,"Quizá hacia al final de la prueba es más difícil mantener la atención porque se hace repetitiva la tarea y entras en una especie de somnolencia por repetición... Espero que sirva de algo, gracias por dejarnos participar. ",68.0,yes
14,2023-11-19_12h42.00.600,Unsyncopated1,s75,23.0,masculino,right,España,Lengua castellana y catalán,Upper secondary,no,no,A,1,when,L3,unsyncopated,when,when,14,Online_whenL3//a.mo16.1998.wav,li,je,gu,sil,ka,chu,le,sil1,ji,mo,sil2,['catch_delay'],[0.6915999999940288],[0.6915999999940288],1.998,no_beat,0.6915999999940288,0.6915999999940288,,mo,2,testWhenL3Uns//dep_viol.r1.s1.0.wav,1.0,when,unsyncopated,a,s1,no_rule,dep,L3,m,0.067,5.0,0.0,0.3511,3 ,3.0,Castellano,Desde que tengo uso de razón,Catalán,9 aprox,Inglés,9 aprox,4.0,4.0,yes,yes,yes,Guitarra,9,Voz,9,15. No puedo evitar tararear las canciones que me gustan cuando las escucho.,1.0,"Quizá hacia al final de la prueba es más difícil mantener la atención porque se hace repetitiva la tarea y entras en una especie de somnolencia por repetición... Espero que sirva de algo, gracias por dejarnos participar. ",68.0,yes
15,2023-11-19_12h42.00.600,Unsyncopated1,s75,23.0,masculino,right,España,Lengua castellana y catalán,Upper secondary,no,no,A,1,when,L3,unsyncopated,when,when,15,Online_whenL3//a.mo17.none.wav,ji,ko,sa,sil,di,ka,do,sil1,chu,ga,sil2,['-'],[0.02559999999402862],[0.02559999999402862],none,none,,,"[""space""]",mo,2,testWhenL3Uns//r2.s2.2.wav,1.0,when,unsyncopated,b,s2,rule,rule,L3,z,1.519,7.0,1.0,0.2397,3 ,3.0,Castellano,Desde que tengo uso de razón,Catalán,9 aprox,Inglés,9 aprox,4.0,4.0,yes,yes,yes,Guitarra,9,Voz,9,16. En los conciertos me siento en sintonía con los artistas y el público.,1.0,"Quizá hacia al final de la prueba es más difícil mantener la atención porque se hace repetitiva la tarea y entras en una especie de somnolencia por repetición... Espero que sirva de algo, gracias por dejarnos participar. ",68.0,yes
16,2023-11-19_12h42.00.600,Unsyncopated1,s75,23.0,masculino,right,España,Lengua castellana y catalán,Upper secondary,no,no,A,1,when,L3,unsyncopated,when,when,16,Online_whenL3//b.ñe20.none.wav,li,gu,di,sil,ko,ka,ga,sil1,sa,chu,sil2,['-'],,,none,none,,,,ñe,1,testWhenL3Uns//r1.s1.2.wav,1.0,when,unsyncopated,a,s1,rule,rule,L3,m,0.7007,7.0,0.0,2.0013,3 ,3.0,Castellano,Desde que tengo uso de razón,Catalán,9 aprox,Inglés,9 aprox,4.0,4.0,yes,yes,yes,Guitarra,9,Voz,9,17. Me gasto bastante dinero en música y cosas relacionadas con la música.,1.0,"Quizá hacia al final de la prueba es más difícil mantener la atención porque se hace repetitiva la tarea y entras en una especie de somnolencia por repetición... Espero que sirva de algo, gracias por dejarnos participar. ",68.0,yes
17,2023-11-19_12h42.00.600,Unsyncopated1,s75,23.0,masculino,right,España,Lengua castellana y catalán,Upper secondary,no,no,A,1,when,L3,unsyncopated,when,when,17,Online_whenL3//b.ñe21.1998.wav,gu,li,le,sil,fu,do,di,sil1,sa,ñe,sil2,['catch_delay'],[0.701800000011932],[0.701800000011932],1.998,no_beat,0.701800000011932,0.701800000011932,,ñe,1,testWhenL3Uns//r1.s2.0.wav,1.0,when,unsyncopated,a,s2,rule,rule,L3,z,1.3995,6.0,1.0,0.5185,3 ,3.0,Castellano,Desde que tengo uso de razón,Catalán,9 aprox,Inglés,9 aprox,4.0,4.0,yes,yes,yes,Guitarra,9,Voz,9,18. Siento escalofríos cuando escucho una melodía que me gusta.,4.0,"Quizá hacia al final de la prueba es más difícil mantener la atención porque se hace repetitiva la tarea y entras en una especie de somnolencia por repetición... Espero que sirva de algo, gracias por dejarnos participar. ",68.0,yes
18,2023-11-19_12h42.00.600,Unsyncopated1,s75,23.0,masculino,right,España,Lengua castellana y catalán,Upper secondary,no,no,A,1,when,L3,unsyncopated,when,when,18,Online_whenL3//b.ñe22.none.wav,fu,li,ko,sil,mo,je,le,sil1,sa,ka,sil2,['-'],[0.03580000001193184],[0.03580000001193184],none,none,,,"[""space""]",ñe,1,testWhenL3Uns//time_viol.r2.s1.0.wav,1.0,when,unsyncopated,b,s1,no_rule,time,L3,m,0.6678,5.0,0.0,0.4011,3 ,3.0,Castellano,Desde que tengo uso de razón,Catalán,9 aprox,Inglés,9 aprox,4.0,4.0,yes,yes,yes,Guitarra,9,Voz,9,19. Con la música me puedo desahogar.,4.0,"Quizá hacia al final de la prueba es más difícil mantener la atención porque se hace repetitiva la tarea y entras en una especie de somnolencia por repetición... Espero que sirva de algo, gracias por dejarnos participar. ",68.0,yes
19,2023-11-19_12h42.00.600,Unsyncopated1,s75,23.0,masculino,right,España,Lengua castellana y catalán,Upper secondary,no,no,A,1,when,L3,unsyncopated,when,when,19,Online_whenL3//b.ñe23.1776.wav,je,ka,ji,sil,mo,gu,do,sil1,ñe,le,sil2,['catch'],[2.5469000000059623],[2.5469000000059623],1.776,beat,0.7709000000059623,0.7709000000059623,"[""space""]",ñe,1,testWhenL3Uns//dep_viol.r1.s2.0.wav,1.0,when,unsyncopated,a,s2,no_rule,dep,L3,z,0.7386,6.0,1.0,0.3674,3 ,3.0,Castellano,Desde que tengo uso de razón,Catalán,9 aprox,Inglés,9 aprox,4.0,4.0,yes,yes,yes,Guitarra,9,Voz,9,20. Cuando escucho una melodía que me gusta mucho no puedo evitar mover el cuerpo.,3.0,"Quizá hacia al final de la prueba es más difícil mantener la atención porque se hace repetitiva la tarea y entras en una especie de somnolencia por repetición... Espero que sirva de algo, gracias por dejarnos participar. ",68.0,yes
20,2023-11-19_12h42.00.600,Unsyncopated1,s75,23.0,masculino,right,España,Lengua castellana y catalán,Upper secondary,no,no,A,1,when,L3,unsyncopated,when,when,20,Online_whenL3//d.ji27.none.wav,chu,ka,di,sil,ñe,je,fu,sil1,do,gu,sil2,['false alarm'],[1.0990999999939959],[1.0990999999939959],none,none,,,"[""space""]",ji,4,testWhenL3Uns//time_viol.r1.s2.0.wav,1.0,when,unsyncopated,a,s2,no_rule,time,L3,z,0.8679,7.0,1.0,0.2182,3 ,3.0,Castellano,Desde que tengo uso de razón,Catalán,9 aprox,Inglés,9 aprox,4.0,4.0,yes,yes,yes,Guitarra,9,Voz,9,,,"Quizá hacia al final de la prueba es más difícil mantener la atención porque se hace repetitiva la tarea y entras en una especie de somnolencia por repetición... Espero que sirva de algo, gracias por dejarnos participar. ",68.0,yes
21,2023-11-19_12h42.00.600,Unsyncopated1,s75,23.0,masculino,right,España,Lengua castellana y catalán,Upper secondary,no,no,A,1,when,L3,unsyncopated,when,when,21,Online_whenL3//d.ji25.none.wav,do,li,je,sil,fu,ka,mo,sil1,ñe,di,sil2,['-'],,,none,none,,,,ji,4,testWhenL3Uns//dep_viol.r2.s2.0.wav,1.0,when,unsyncopated,b,s2,no_rule,dep,L3,m,1.6513,6.0,0.0,1.0656,3 ,3.0,Castellano,Desde que tengo uso de razón,Catalán,9 aprox,Inglés,9 aprox,4.0,4.0,yes,yes,yes,Guitarra,9,Voz,9,,,"Quizá hacia al final de la prueba es más difícil mantener la atención porque se hace repetitiva la tarea y entras en una especie de somnolencia por repetición... Espero que sirva de algo, gracias por dejarnos participar. ",68.0,yes
22,2023-11-19_12h42.00.600,Unsyncopated1,s75,23.0,masculino,right,España,Lengua castellana y catalán,Upper secondary,no,no,A,1,when,L3,unsyncopated,when,when,22,Online_whenL3//d.ji24.1998.wav,do,sa,gu,sil,li,chu,ka,sil1,ko,ji,sil2,['catch'],[2.6417000000029702],[2.6417000000029702],1.998,no_beat,0.6437000000029702,0.6437000000029702,"[""space""]",ji,4,testWhenL3Uns//r2.s1.0.wav,1.0,when,unsyncopated,b,s1,rule,rule,L3,z,0.2664,7.0,1.0,0.2838,3 ,3.0,Castellano,Desde que tengo uso de razón,Catalán,9 aprox,Inglés,9 aprox,4.0,4.0,yes,yes,yes,Guitarra,9,Voz,9,,,"Quizá hacia al final de la prueba es más difícil mantener la atención porque se hace repetitiva la tarea y entras en una especie de somnolencia por repetición... Espero que sirva de algo, gracias por dejarnos participar. ",68.0,yes
23,2023-11-19_12h42.00.600,Unsyncopated1,s75,23.0,masculino,right,España,Lengua castellana y catalán,Upper secondary,no,no,A,1,when,L3,unsyncopated,when,when,23,Online_whenL3//d.ji26.none.wav,chu,fu,je,sil,ko,gu,ka,sil1,mo,di,sil2,['-'],,,none,none,,,,ji,4,testWhenL3Uns//r2.s2.0.wav,1.0,when,unsyncopated,b,s2,rule,rule,L3,z,0.5338,6.0,1.0,0.1181,3 ,3.0,Castellano,Desde que tengo uso de razón,Catalán,9 aprox,Inglés,9 aprox,4.0,4.0,yes,yes,yes,Guitarra,9,Voz,9,,,"Quizá hacia al final de la prueba es más difícil mantener la atención porque se hace repetitiva la tarea y entras en una especie de somnolencia por repetición... Espero que sirva de algo, gracias por dejarnos participar. ",68.0,yes
24,2023-11-19_12h42.00.600,Unsyncopated1,s75,23.0,masculino,right,España,Lengua castellana y catalán,Upper secondary,no,no,A,1,when,L3,unsyncopated,when,when,24,Online_whenL3//a.mo32.none.wav,ji,gu,je,sil,ga,do,ñe,sil1,chu,le,sil2,['-'],,,none,none,,,,mo,2,testConjL4Syn//time_viol.r1.s1.0.wav,2.0,conjunction_syn,syncopated,a,s1,no_rule,time,L4,m,1.9252,6.0,1.0,1.644,3 ,3.0,Castellano,Desde que tengo uso de razón,Catalán,9 aprox,Inglés,9 aprox,4.0,4.0,yes,yes,yes,Guitarra,9,Voz,9,,,"Quizá hacia al final de la prueba es más difícil mantener la atención porque se hace repetitiva la tarea y entras en una especie de somnolencia por repetición... Espero que sirva de algo, gracias por dejarnos participar. ",68.0,yes
25,2023-11-19_12h42.00.600,Unsyncopated1,s75,23.0,masculino,right,España,Lengua castellana y catalán,Upper secondary,no,no,A,1,when,L3,unsyncopated,when,when,25,Online_whenL3//a.mo33.0.wav,mo,fu,di,sil,ga,do,le,sil1,ñe,ka,sil2,['catch'],[0.6712000000030685],[0.6712000000030685],0.0,beat,0.6712000000030685,0.6712000000030685,"[""space""]",mo,2,testConjL4Syn//dep_viol.r2.s1.0.wav,2.0,conjunction_syn,syncopated,b,s1,no_rule,dep,L4,z,0.3008,6.0,0.0,1.2092,3 ,3.0,Castellano,Desde que tengo uso de razón,Catalán,9 aprox,Inglés,9 aprox,4.0,4.0,yes,yes,yes,Guitarra,9,Voz,9,,,"Quizá hacia al final de la prueba es más difícil mantener la atención porque se hace repetitiva la tarea y entras en una especie de somnolencia por repetición... Espero que sirva de algo, gracias por dejarnos participar. ",68.0,yes
26,2023-11-19_12h42.00.600,Unsyncopated1,s75,23.0,masculino,right,España,Lengua castellana y catalán,Upper secondary,no,no,A,1,when,L3,unsyncopated,when,when,26,Online_whenL3//a.mo35.none.wav,ji,je,ka,sil,ga,fu,ñe,sil1,sa,li,sil2,['-'],,,none,none,,,,mo,2,testConjL4Syn//r2.s1.0.wav,2.0,conjunction_syn,syncopated,b,s1,rule,rule,L4,m,0.7865,6.0,0.0,0.3935,3 ,3.0,Castellano,Desde que tengo uso de razón,Catalán,9 aprox,Inglés,9 aprox,4.0,4.0,yes,yes,yes,Guitarra,9,Voz,9,,,"Quizá hacia al final de la prueba es más difícil mantener la atención porque se hace repetitiva la tarea y entras en una especie de somnolencia por repetición... Espero que sirva de algo, gracias por dejarnos participar. ",68.0,yes
27,2023-11-19_12h42.00.600,Unsyncopated1,s75,23.0,masculino,right,España,Lengua castellana y catalán,Upper secondary,no,no,A,1,when,L3,unsyncopated,when,when,27,Online_whenL3//a.mo34.222.wav,do,mo,ga,sil,chu,ka,ji,sil1,di,ko,sil2,['catch'],[0.9278999999911548],[0.9278999999911548],0.222,no_beat,0.7058999999911548,0.7058999999911548,"[""space""]",mo,2,testConjL4Syn//dep_viol.r1.s1.0.wav,2.0,conjunction_syn,syncopated,a,s1,no_rule,dep,L4,m,2.7767,6.0,1.0,0.051,3 ,3.0,Castellano,Desde que tengo uso de razón,Catalán,9 aprox,Inglés,9 aprox,4.0,4.0,yes,yes,yes,Guitarra,9,Voz,9,,,"Quizá hacia al final de la prueba es más difícil mantener la atención porque se hace repetitiva la tarea y entras en una especie de somnolencia por repetición... Espero que sirva de algo, gracias por dejarnos participar. ",68.0,yes
28,2023-11-19_12h42.00.600,Unsyncopated1,s75,23.0,masculino,right,España,Lengua castellana y catalán,Upper secondary,no,no,A,1,when,L3,unsyncopated,when,when,28,Online_whenL3//a.mo9.1332.wav,fu,sa,do,sil,ji,gu,mo,sil1,ka,je,sil2,['catch'],[2.189400000006003],[2.189400000006003],1.332,no_beat,0.8574000000060031,0.8574000000060031,"[""space""]",mo,2,testConjL4Syn//r1.s2.1.wav,2.0,conjunction_syn,syncopated,a,s2,rule,rule,L4,z,1.5276,6.0,1.0,0.1508,3 ,3.0,Castellano,Desde que tengo uso de razón,Catalán,9 aprox,Inglés,9 aprox,4.0,4.0,yes,yes,yes,Guitarra,9,Voz,9,,,"Quizá hacia al final de la prueba es más difícil mantener la atención porque se hace repetitiva la tarea y entras en una especie de somnolencia por repetición... Espero que sirva de algo, gracias por dejarnos participar. ",68.0,yes
29,2023-11-19_12h42.00.600,Unsyncopated1,s75,23.0,masculino,right,España,Lengua castellana y catalán,Upper secondary,no,no,A,1,when,L3,unsyncopated,when,when,29,Online_whenL3//a.mo8.1776.wav,je,ga,ka,sil,le,li,ñe,sil1,mo,gu,sil2,['catch'],[2.528399999991052],[2.528399999991052],1.776,beat,0.752399999991052,0.752399999991052,"[""space""]",mo,2,testConjL4Syn//r1.s2.0.wav,2.0,conjunction_syn,syncopated,a,s2,rule,rule,L4,z,0.7367,6.0,1.0,0.1998,3 ,3.0,Castellano,Desde que tengo uso de razón,Catalán,9 aprox,Inglés,9 aprox,4.0,4.0,yes,yes,yes,Guitarra,9,Voz,9,,,"Quizá hacia al final de la prueba es más difícil mantener la atención porque se hace repetitiva la tarea y entras en una especie de somnolencia por repetición... Espero que sirva de algo, gracias por dejarnos participar. ",68.0,yes
30,2023-11-19_12h42.00.600,Unsyncopated1,s75,23.0,masculino,right,España,Lengua castellana y catalán,Upper secondary,no,no,A,1,when,L3,unsyncopated,when,when,30,Online_whenL3//a.mo11.none.wav,chu,li,ñe,sil,je,fu,le,sil1,ko,di,sil2,['-'],,,none,none,,,,mo,2,testConjL4Syn//r1.s1.2.wav,2.0,conjunction_syn,syncopated,a,s1,rule,rule,L4,m,0.4053,6.0,0.0,0.135,3 ,3.0,Castellano,Desde que tengo uso de razón,Catalán,9 aprox,Inglés,9 aprox,4.0,4.0,yes,yes,yes,Guitarra,9,Voz,9,,,"Quizá hacia al final de la prueba es más difícil mantener la atención porque se hace repetitiva la tarea y entras en una especie de somnolencia por repetición... Espero que sirva de algo, gracias por dejarnos participar. ",68.0,yes
31,2023-11-19_12h42.00.600,Unsyncopated1,s75,23.0,masculino,right,España,Lengua castellana y catalán,Upper secondary,no,no,A,1,when,L3,unsyncopated,when,when,31,Online_whenL3//a.mo10.none.wav,di,ko,le,sil,chu,fu,ka,sil1,sa,ji,sil2,['-'],,,none,none,,,,mo,2,testConjL4Syn//time_viol.r1.s2.0.wav,2.0,conjunction_syn,syncopated,a,s2,no_rule,time,L4,m,0.3009,6.0,1.0,0.1343,3 ,3.0,Castellano,Desde que tengo uso de razón,Catalán,9 aprox,Inglés,9 aprox,4.0,4.0,yes,yes,yes,Guitarra,9,Voz,9,,,"Quizá hacia al final de la prueba es más difícil mantener la atención porque se hace repetitiva la tarea y entras en una especie de somnolencia por repetición... Espero que sirva de algo, gracias por dejarnos participar. ",68.0,yes
32,2023-11-19_12h42.00.600,Unsyncopated1,s75,23.0,masculino,right,España,Lengua castellana y catalán,Upper secondary,no,no,A,1,when,L3,unsyncopated,when,when,32,Online_whenL3//d.ji22.1332.wav,gu,di,mo,sil,fu,ñe,ji,sil1,ko,le,sil2,['catch'],[2.558999999999969],[2.558999999999969],1.332,no_beat,,1.226999999999969,"[""space""]",ji,4,testConjL4Syn//r2.s1.1.wav,2.0,conjunction_syn,syncopated,b,s1,rule,rule,L4,z,0.3938,6.0,1.0,0.2181,3 ,3.0,Castellano,Desde que tengo uso de razón,Catalán,9 aprox,Inglés,9 aprox,4.0,4.0,yes,yes,yes,Guitarra,9,Voz,9,,,"Quizá hacia al final de la prueba es más difícil mantener la atención porque se hace repetitiva la tarea y entras en una especie de somnolencia por repetición... Espero que sirva de algo, gracias por dejarnos participar. ",68.0,yes
33,2023-11-19_12h42.00.600,Unsyncopated1,s75,23.0,masculino,right,España,Lengua castellana y catalán,Upper secondary,no,no,A,1,when,L3,unsyncopated,when,when,33,Online_whenL3//d.ji23.none.wav,mo,ñe,je,sil,fu,ko,le,sil1,li,ka,sil2,['-'],,,none,none,,,,ji,4,testConjL4Syn//r2.s2.1.wav,2.0,conjunction_syn,syncopated,b,s2,rule,rule,L4,z,0.3599,6.0,1.0,0.2883,3 ,3.0,Castellano,Desde que tengo uso de razón,Catalán,9 aprox,Inglés,9 aprox,4.0,4.0,yes,yes,yes,Guitarra,9,Voz,9,,,"Quizá hacia al final de la prueba es más difícil mantener la atención porque se hace repetitiva la tarea y entras en una especie de somnolencia por repetición... Espero que sirva de algo, gracias por dejarnos participar. ",68.0,yes
34,2023-11-19_12h42.00.600,Unsyncopated1,s75,23.0,masculino,right,España,Lengua castellana y catalán,Upper secondary,no,no,A,1,when,L3,unsyncopated,when,when,34,Online_whenL3//d.ji21.888.wav,ko,li,ñe,sil,ji,ka,fu,sil1,ga,sa,sil2,['catch'],[1.6324000000058732],[1.6324000000058732],0.888,beat,0.7444000000058731,0.7444000000058731,"[""space""]",ji,4,testConjL4Syn//dep_viol.r2.s2.0.wav,2.0,conjunction_syn,syncopated,b,s2,no_rule,dep,L4,z,0.2267,7.0,0.0,0.153,3 ,3.0,Castellano,Desde que tengo uso de razón,Catalán,9 aprox,Inglés,9 aprox,4.0,4.0,yes,yes,yes,Guitarra,9,Voz,9,,,"Quizá hacia al final de la prueba es más difícil mantener la atención porque se hace repetitiva la tarea y entras en una especie de somnolencia por repetición... Espero que sirva de algo, gracias por dejarnos participar. ",68.0,yes
35,2023-11-19_12h42.00.600,Unsyncopated1,s75,23.0,masculino,right,España,Lengua castellana y catalán,Upper secondary,no,no,A,1,when,L3,unsyncopated,when,when,35,Online_whenL3//d.ji20.none.wav,mo,gu,chu,sil,do,je,fu,sil1,di,le,sil2,['-'],,,none,none,,,,ji,4,testConjL4Syn//r2.s1.2.wav,2.0,conjunction_syn,syncopated,b,s1,rule,rule,L4,z,0.1013,7.0,1.0,0.2227,3 ,3.0,Castellano,Desde que tengo uso de razón,Catalán,9 aprox,Inglés,9 aprox,4.0,4.0,yes,yes,yes,Guitarra,9,Voz,9,,,"Quizá hacia al final de la prueba es más difícil mantener la atención porque se hace repetitiva la tarea y entras en una especie de somnolencia por repetición... Espero que sirva de algo, gracias por dejarnos participar. ",68.0,yes
36,2023-11-19_12h42.00.600,Unsyncopated1,s75,23.0,masculino,right,España,Lengua castellana y catalán,Upper secondary,no,no,A,1,when,L3,unsyncopated,when,when,36,Online_whenL3//b.ñe6.444.wav,ga,ka,ñe,sil,mo,ji,li,sil1,do,fu,sil2,['catch'],[1.0140999999940732],[1.0140999999940732],0.444,no_beat,0.5700999999940732,0.5700999999940732,"[""space""]",ñe,1,testConjL4Syn//r2.s2.2.wav,2.0,conjunction_syn,syncopated,b,s2,rule,rule,L4,z,0.5009,7.0,1.0,0.2929,3 ,3.0,Castellano,Desde que tengo uso de razón,Catalán,9 aprox,Inglés,9 aprox,4.0,4.0,yes,yes,yes,Guitarra,9,Voz,9,,,"Quizá hacia al final de la prueba es más difícil mantener la atención porque se hace repetitiva la tarea y entras en una especie de somnolencia por repetición... Espero que sirva de algo, gracias por dejarnos participar. ",68.0,yes
37,2023-11-19_12h42.00.600,Unsyncopated1,s75,23.0,masculino,right,España,Lengua castellana y catalán,Upper secondary,no,no,A,1,when,L3,unsyncopated,when,when,37,Online_whenL3//b.ñe4.1998.wav,ka,di,ga,sil,ko,gu,je,sil1,mo,ñe,sil2,['catch_delay'],[0.8357999999970536],[0.8357999999970536],1.998,no_beat,0.8357999999970536,0.8357999999970536,,ñe,1,testConjL4Syn//r1.s1.1.wav,2.0,conjunction_syn,syncopated,a,s1,rule,rule,L4,z,0.3355,7.0,1.0,0.2875,3 ,3.0,Castellano,Desde que tengo uso de razón,Catalán,9 aprox,Inglés,9 aprox,4.0,4.0,yes,yes,yes,Guitarra,9,Voz,9,,,"Quizá hacia al final de la prueba es más difícil mantener la atención porque se hace repetitiva la tarea y entras en una especie de somnolencia por repetición... Espero que sirva de algo, gracias por dejarnos participar. ",68.0,yes
38,2023-11-19_12h42.00.600,Unsyncopated1,s75,23.0,masculino,right,España,Lengua castellana y catalán,Upper secondary,no,no,A,1,when,L3,unsyncopated,when,when,38,Online_whenL3//b.ñe5.1110.wav,li,ko,je,sil,fu,ñe,gu,sil1,ga,sa,sil2,['miss'],[0.16979999999705342],[0.16979999999705342],1.11,no_beat,,,"[""space""]",ñe,1,testConjL4Syn//cat_viol.r1.s1.0.wav,2.0,conjunction_syn,syncopated,a,s1,no_rule,cat,L4,z,0.0605,7.0,0.0,0.2865,3 ,3.0,Castellano,Desde que tengo uso de razón,Catalán,9 aprox,Inglés,9 aprox,4.0,4.0,yes,yes,yes,Guitarra,9,Voz,9,,,"Quizá hacia al final de la prueba es más difícil mantener la atención porque se hace repetitiva la tarea y entras en una especie de somnolencia por repetición... Espero que sirva de algo, gracias por dejarnos participar. ",68.0,yes
39,2023-11-19_12h42.00.600,Unsyncopated1,s75,23.0,masculino,right,España,Lengua castellana y catalán,Upper secondary,no,no,A,1,when,L3,unsyncopated,when,when,39,Online_whenL3//b.ñe7.1998.wav,ji,je,sa,sil,ka,ga,di,sil1,gu,ñe,sil2,['catch'],[2.5142999999970925],[2.5142999999970925],1.998,no_beat,0.5162999999970925,0.5162999999970925,"[""space""]",ñe,1,testConjL4Syn//time_viol.r2.s2.0.wav,2.0,conjunction_syn,syncopated,b,s2,no_rule,time,L4,z,0.3017,6.0,0.0,0.4688,3 ,3.0,Castellano,Desde que tengo uso de razón,Catalán,9 aprox,Inglés,9 aprox,4.0,4.0,yes,yes,yes,Guitarra,9,Voz,9,,,"Quizá hacia al final de la prueba es más difícil mantener la atención porque se hace repetitiva la tarea y entras en una especie de somnolencia por repetición... Espero que sirva de algo, gracias por dejarnos participar. ",68.0,yes
40,2023-11-19_12h42.00.600,Unsyncopated1,s75,23.0,masculino,right,España,Lengua castellana y catalán,Upper secondary,no,no,A,1,when,L3,unsyncopated,when,when,40,Online_whenL3//c.gu3.1110.wav,li,mo,ko,sil,je,gu,chu,sil1,fu,ka,sil2,['miss'],,,1.11,no_beat,,,,gu,3,testConjL4Syn//cat_viol.r2.s2.0.wav,2.0,conjunction_syn,syncopated,b,s2,no_rule,cat,L4,z,0.3266,6.0,0.0,0.2041,3 ,3.0,Castellano,Desde que tengo uso de razón,Catalán,9 aprox,Inglés,9 aprox,4.0,4.0,yes,yes,yes,Guitarra,9,Voz,9,,,"Quizá hacia al final de la prueba es más difícil mantener la atención porque se hace repetitiva la tarea y entras en una especie de somnolencia por repetición... Espero que sirva de algo, gracias por dejarnos participar. ",68.0,yes
41,2023-11-19_12h42.00.600,Unsyncopated1,s75,23.0,masculino,right,España,Lengua castellana y catalán,Upper secondary,no,no,A,1,when,L3,unsyncopated,when,when,41,Online_whenL3//c.gu2.1998.wav,ji,ga,je,sil,le,ñe,di,sil1,sa,gu,sil2,['catch'],[2.527599999994095],[2.527599999994095],1.998,no_beat,0.529599999994095,0.529599999994095,"[""space""]",gu,3,testConjL4Syn//r1.s2.2.wav,2.0,conjunction_syn,syncopated,a,s2,rule,rule,L4,z,0.3343,6.0,1.0,0.184,3 ,3.0,Castellano,Desde que tengo uso de razón,Catalán,9 aprox,Inglés,9 aprox,4.0,4.0,yes,yes,yes,Guitarra,9,Voz,9,,,"Quizá hacia al final de la prueba es más difícil mantener la atención porque se hace repetitiva la tarea y entras en una especie de somnolencia por repetición... Espero que sirva de algo, gracias por dejarnos participar. ",68.0,yes
42,2023-11-19_12h42.00.600,Unsyncopated1,s75,23.0,masculino,right,España,Lengua castellana y catalán,Upper secondary,no,no,A,1,when,L3,unsyncopated,when,when,42,Online_whenL3//c.gu1.none.wav,sa,ka,ñe,sil,je,di,ji,sil1,ko,le,sil2,['-'],,,none,none,,,,gu,3,testConjL4Syn//r1.s1.0.wav,2.0,conjunction_syn,syncopated,a,s1,rule,rule,L4,z,3.3827,6.0,1.0,0.2351,3 ,3.0,Castellano,Desde que tengo uso de razón,Catalán,9 aprox,Inglés,9 aprox,4.0,4.0,yes,yes,yes,Guitarra,9,Voz,9,,,"Quizá hacia al final de la prueba es más difícil mantener la atención porque se hace repetitiva la tarea y entras en una especie de somnolencia por repetición... Espero que sirva de algo, gracias por dejarnos participar. ",68.0,yes
43,2023-11-19_12h42.00.600,Unsyncopated1,s75,23.0,masculino,right,España,Lengua castellana y catalán,Upper secondary,no,no,A,1,when,L3,unsyncopated,when,when,43,Online_whenL3//c.gu0.none.wav,ko,le,ka,sil,mo,di,fu,sil1,ñe,ji,sil2,['-'],,,none,none,,,,gu,3,testConjL4Syn//cat_viol.r1.s2.0.wav,2.0,conjunction_syn,syncopated,a,s2,no_rule,cat,L4,m,0.6176,5.0,1.0,0.7903,3 ,3.0,Castellano,Desde que tengo uso de razón,Catalán,9 aprox,Inglés,9 aprox,4.0,4.0,yes,yes,yes,Guitarra,9,Voz,9,,,"Quizá hacia al final de la prueba es más difícil mantener la atención porque se hace repetitiva la tarea y entras en una especie de somnolencia por repetición... Espero que sirva de algo, gracias por dejarnos participar. ",68.0,yes
44,2023-11-19_12h42.00.600,Unsyncopated1,s75,23.0,masculino,right,España,Lengua castellana y catalán,Upper secondary,no,no,A,1,when,L3,unsyncopated,when,when,44,Online_whenL3//c.gu25.222.wav,chu,gu,ko,sil,fu,ga,li,sil1,di,ñe,sil2,['miss'],,,0.222,no_beat,,,,gu,3,testConjL4Syn//r2.s2.0.wav,2.0,conjunction_syn,syncopated,b,s2,rule,rule,L4,z,0.8673,6.0,1.0,0.6867,3 ,3.0,Castellano,Desde que tengo uso de razón,Catalán,9 aprox,Inglés,9 aprox,4.0,4.0,yes,yes,yes,Guitarra,9,Voz,9,,,"Quizá hacia al final de la prueba es más difícil mantener la atención porque se hace repetitiva la tarea y entras en una especie de somnolencia por repetición... Espero que sirva de algo, gracias por dejarnos participar. ",68.0,yes
45,2023-11-19_12h42.00.600,Unsyncopated1,s75,23.0,masculino,right,España,Lengua castellana y catalán,Upper secondary,no,no,A,1,when,L3,unsyncopated,when,when,45,Online_whenL3//c.gu27.none.wav,li,je,ko,sil,ji,fu,mo,sil1,ñe,di,sil2,['-'],,,none,none,,,,gu,3,testConjL4Syn//dep_viol.r1.s2.0.wav,2.0,conjunction_syn,syncopated,a,s2,no_rule,dep,L4,m,0.4014,3.0,1.0,1.0125,3 ,3.0,Castellano,Desde que tengo uso de razón,Catalán,9 aprox,Inglés,9 aprox,4.0,4.0,yes,yes,yes,Guitarra,9,Voz,9,,,"Quizá hacia al final de la prueba es más difícil mantener la atención porque se hace repetitiva la tarea y entras en una especie de somnolencia por repetición... Espero que sirva de algo, gracias por dejarnos participar. ",68.0,yes
46,2023-11-19_12h42.00.600,Unsyncopated1,s75,23.0,masculino,right,España,Lengua castellana y catalán,Upper secondary,no,no,A,1,when,L3,unsyncopated,when,when,46,Online_whenL3//c.gu24.1110.wav,ñe,ko,ji,sil,li,gu,le,sil1,chu,ga,sil2,['miss'],,,1.11,no_beat,,,,gu,3,testConjL4Syn//cat_viol.r2.s1.0.wav,2.0,conjunction_syn,syncopated,b,s1,no_rule,cat,L4,m,0.8244,3.0,1.0,0.3179,3 ,3.0,Castellano,Desde que tengo uso de razón,Catalán,9 aprox,Inglés,9 aprox,4.0,4.0,yes,yes,yes,Guitarra,9,Voz,9,,,"Quizá hacia al final de la prueba es más difícil mantener la atención porque se hace repetitiva la tarea y entras en una especie de somnolencia por repetición... Espero que sirva de algo, gracias por dejarnos participar. ",68.0,yes
47,2023-11-19_12h42.00.600,Unsyncopated1,s75,23.0,masculino,right,España,Lengua castellana y catalán,Upper secondary,no,no,A,1,when,L3,unsyncopated,when,when,47,Online_whenL3//c.gu26.none.wav,sa,ji,li,sil,le,di,ga,sil1,chu,fu,sil2,['-'],,,none,none,,,,gu,3,testConjL4Syn//time_viol.r2.s1.0.wav,2.0,conjunction_syn,syncopated,b,s1,no_rule,time,L4,m,0.3014,6.0,1.0,0.4577,3 ,3.0,Castellano,Desde que tengo uso de razón,Catalán,9 aprox,Inglés,9 aprox,4.0,4.0,yes,yes,yes,Guitarra,9,Voz,9,,,"Quizá hacia al final de la prueba es más difícil mantener la atención porque se hace repetitiva la tarea y entras en una especie de somnolencia por repetición... Espero que sirva de algo, gracias por dejarnos participar. ",68.0,yes
48,2023-11-19_12h42.00.600,Unsyncopated1,s75,23.0,masculino,right,España,Lengua castellana y catalán,Upper secondary,no,no,A,1,when,L3,unsyncopated,when,when,48,Online_whenL3//d.ji5.none.wav,di,fu,li,sil,le,chu,je,sil1,ko,sa,sil2,['-'],,,none,none,,,,ji,4,testConjL1Uns//r1.s2.1.wav,3.0,conjunction_un,unsyncopated,a,s2,rule,rule,L1,z,0.5499,6.0,1.0,0.2615,3 ,3.0,Castellano,Desde que tengo uso de razón,Catalán,9 aprox,Inglés,9 aprox,4.0,4.0,yes,yes,yes,Guitarra,9,Voz,9,,,"Quizá hacia al final de la prueba es más difícil mantener la atención porque se hace repetitiva la tarea y entras en una especie de somnolencia por repetición... Espero que sirva de algo, gracias por dejarnos participar. ",68.0,yes
49,2023-11-19_12h42.00.600,Unsyncopated1,s75,23.0,masculino,right,España,Lengua castellana y catalán,Upper secondary,no,no,A,1,when,L3,unsyncopated,when,when,49,Online_whenL3//d.ji6.1998.wav,gu,di,ko,sil,mo,fu,le,sil1,ñe,ji,sil2,['miss'],,,1.998,no_beat,,,,ji,4,testConjL1Uns//dep_viol.r1.s1.0.wav,3.0,conjunction_un,unsyncopated,a,s1,no_rule,dep,L1,m,0.3328,5.0,1.0,0.1167,3 ,3.0,Castellano,Desde que tengo uso de razón,Catalán,9 aprox,Inglés,9 aprox,4.0,4.0,yes,yes,yes,Guitarra,9,Voz,9,,,"Quizá hacia al final de la prueba es más difícil mantener la atención porque se hace repetitiva la tarea y entras en una especie de somnolencia por repetición... Espero que sirva de algo, gracias por dejarnos participar. ",68.0,yes
50,2023-11-19_12h42.00.600,Unsyncopated1,s75,23.0,masculino,right,España,Lengua castellana y catalán,Upper secondary,no,no,A,1,when,L3,unsyncopated,when,when,50,Online_whenL3//d.ji4.0.wav,ji,chu,do,sil,mo,ka,ga,sil1,ko,fu,sil2,['catch'],[0.05709999999407955],[0.05709999999407955],0.0,beat,0.0570999999940795,0.0570999999940795,"[""space""]",ji,4,testConjL1Uns//cat_viol.r1.s2.0.wav,3.0,conjunction_un,unsyncopated,a,s2,no_rule,cat,L1,z,0.2559,6.0,0.0,0.2005,3 ,3.0,Castellano,Desde que tengo uso de razón,Catalán,9 aprox,Inglés,9 aprox,4.0,4.0,yes,yes,yes,Guitarra,9,Voz,9,,,"Quizá hacia al final de la prueba es más difícil mantener la atención porque se hace repetitiva la tarea y entras en una especie de somnolencia por repetición... Espero que sirva de algo, gracias por dejarnos participar. ",68.0,yes
51,2023-11-19_12h42.00.600,Unsyncopated1,s75,23.0,masculino,right,España,Lengua castellana y catalán,Upper secondary,no,no,A,1,when,L3,unsyncopated,when,when,51,Online_whenL3//d.ji7.1776.wav,do,ko,ga,sil,di,chu,sa,sil1,ji,le,sil2,['catch'],[2.4217000000030566],[2.4217000000030566],1.776,beat,0.6457000000030566,0.6457000000030566,"[""space""]",ji,4,testConjL1Uns//r1.s2.0.wav,3.0,conjunction_un,unsyncopated,a,s2,rule,rule,L1,z,0.136,6.0,1.0,0.1908,3 ,3.0,Castellano,Desde que tengo uso de razón,Catalán,9 aprox,Inglés,9 aprox,4.0,4.0,yes,yes,yes,Guitarra,9,Voz,9,,,"Quizá hacia al final de la prueba es más difícil mantener la atención porque se hace repetitiva la tarea y entras en una especie de somnolencia por repetición... Espero que sirva de algo, gracias por dejarnos participar. ",68.0,yes
52,2023-11-19_12h42.00.600,Unsyncopated1,s75,23.0,masculino,right,España,Lengua castellana y catalán,Upper secondary,no,no,A,1,when,L3,unsyncopated,when,when,52,Online_whenL3//a.mo20.1776.wav,ga,fu,ko,sil,li,sa,je,sil1,mo,ka,sil2,['catch'],[2.3455000000000155],[2.3455000000000155],1.776,beat,0.5695000000000154,0.5695000000000154,"[""space""]",mo,2,testConjL1Uns//r1.s1.1.wav,3.0,conjunction_un,unsyncopated,a,s1,rule,rule,L1,z,0.2933,6.0,1.0,0.4586,3 ,3.0,Castellano,Desde que tengo uso de razón,Catalán,9 aprox,Inglés,9 aprox,4.0,4.0,yes,yes,yes,Guitarra,9,Voz,9,,,"Quizá hacia al final de la prueba es más difícil mantener la atención porque se hace repetitiva la tarea y entras en una especie de somnolencia por repetición... Espero que sirva de algo, gracias por dejarnos participar. ",68.0,yes
53,2023-11-19_12h42.00.600,Unsyncopated1,s75,23.0,masculino,right,España,Lengua castellana y catalán,Upper secondary,no,no,A,1,when,L3,unsyncopated,when,when,53,Online_whenL3//a.mo21.none.wav,ñe,gu,chu,sil,di,ko,le,sil1,fu,li,sil2,['-'],,,none,none,,,,mo,2,testConjL1Uns//time_viol.r1.s2.0.wav,3.0,conjunction_un,unsyncopated,a,s2,no_rule,time,L1,m,0.4615,3.0,1.0,0.9347,3 ,3.0,Castellano,Desde que tengo uso de razón,Catalán,9 aprox,Inglés,9 aprox,4.0,4.0,yes,yes,yes,Guitarra,9,Voz,9,,,"Quizá hacia al final de la prueba es más difícil mantener la atención porque se hace repetitiva la tarea y entras en una especie de somnolencia por repetición... Espero que sirva de algo, gracias por dejarnos participar. ",68.0,yes
54,2023-11-19_12h42.00.600,Unsyncopated1,s75,23.0,masculino,right,España,Lengua castellana y catalán,Upper secondary,no,no,A,1,when,L3,unsyncopated,when,when,54,Online_whenL3//a.mo22.none.wav,je,ga,ka,sil,ñe,chu,fu,sil1,li,ji,sil2,['-'],,,none,none,,,,mo,2,testConjL1Uns//time_viol.r1.s1.0.wav,3.0,conjunction_un,unsyncopated,a,s1,no_rule,time,L1,z,0.7999,6.0,0.0,0.1737,3 ,3.0,Castellano,Desde que tengo uso de razón,Catalán,9 aprox,Inglés,9 aprox,4.0,4.0,yes,yes,yes,Guitarra,9,Voz,9,,,"Quizá hacia al final de la prueba es más difícil mantener la atención porque se hace repetitiva la tarea y entras en una especie de somnolencia por repetición... Espero que sirva de algo, gracias por dejarnos participar. ",68.0,yes
55,2023-11-19_12h42.00.600,Unsyncopated1,s75,23.0,masculino,right,España,Lengua castellana y catalán,Upper secondary,no,no,A,1,when,L3,unsyncopated,when,when,55,Online_whenL3//a.mo23.none.wav,ga,sa,je,sil,ko,fu,li,sil1,di,chu,sil2,['-'],,,none,none,,,,mo,2,testConjL1Uns//r2.s1.0.wav,3.0,conjunction_un,unsyncopated,b,s1,rule,rule,L1,z,0.9256,6.0,1.0,0.468,3 ,3.0,Castellano,Desde que tengo uso de razón,Catalán,9 aprox,Inglés,9 aprox,4.0,4.0,yes,yes,yes,Guitarra,9,Voz,9,,,"Quizá hacia al final de la prueba es más difícil mantener la atención porque se hace repetitiva la tarea y entras en una especie de somnolencia por repetición... Espero que sirva de algo, gracias por dejarnos participar. ",68.0,yes
56,2023-11-19_12h42.00.600,Unsyncopated1,s75,23.0,masculino,right,España,Lengua castellana y catalán,Upper secondary,no,no,A,1,when,L3,unsyncopated,when,when,56,Online_whenL3//d.ji9.1776.wav,chu,ñe,li,sil,ga,di,gu,sil1,ji,fu,sil2,['catch'],[2.4494000000058804],[2.4494000000058804],1.776,beat,0.6734000000058804,0.6734000000058804,"[""space""]",ji,4,testConjL1Uns//cat_viol.r2.s1.0.wav,3.0,conjunction_un,unsyncopated,b,s1,no_rule,cat,L1,m,0.0674,6.0,1.0,0.5667,3 ,3.0,Castellano,Desde que tengo uso de razón,Catalán,9 aprox,Inglés,9 aprox,4.0,4.0,yes,yes,yes,Guitarra,9,Voz,9,,,"Quizá hacia al final de la prueba es más difícil mantener la atención porque se hace repetitiva la tarea y entras en una especie de somnolencia por repetición... Espero que sirva de algo, gracias por dejarnos participar. ",68.0,yes
57,2023-11-19_12h42.00.600,Unsyncopated1,s75,23.0,masculino,right,España,Lengua castellana y catalán,Upper secondary,no,no,A,1,when,L3,unsyncopated,when,when,57,Online_whenL3//d.ji10.444.wav,do,ga,ji,sil,di,sa,chu,sil1,ka,ko,sil2,['catch'],[1.7379000000059932],[1.7379000000059932],0.444,no_beat,,1.2939000000059933,"[""space""]",ji,4,testConjL1Uns//r2.s2.2.wav,3.0,conjunction_un,unsyncopated,b,s2,rule,rule,L1,z,0.2888,6.0,1.0,0.3231,3 ,3.0,Castellano,Desde que tengo uso de razón,Catalán,9 aprox,Inglés,9 aprox,4.0,4.0,yes,yes,yes,Guitarra,9,Voz,9,,,"Quizá hacia al final de la prueba es más difícil mantener la atención porque se hace repetitiva la tarea y entras en una especie de somnolencia por repetición... Espero que sirva de algo, gracias por dejarnos participar. ",68.0,yes
58,2023-11-19_12h42.00.600,Unsyncopated1,s75,23.0,masculino,right,España,Lengua castellana y catalán,Upper secondary,no,no,A,1,when,L3,unsyncopated,when,when,58,Online_whenL3//d.ji8.none.wav,je,ko,ñe,sil,chu,ga,do,sil1,li,gu,sil2,['-'],,,none,none,,,,ji,4,testConjL1Uns//cat_viol.r1.s1.0.wav,3.0,conjunction_un,unsyncopated,a,s1,no_rule,cat,L1,m,0.243,3.0,1.0,2.5668,3 ,3.0,Castellano,Desde que tengo uso de razón,Catalán,9 aprox,Inglés,9 aprox,4.0,4.0,yes,yes,yes,Guitarra,9,Voz,9,,,"Quizá hacia al final de la prueba es más difícil mantener la atención porque se hace repetitiva la tarea y entras en una especie de somnolencia por repetición... Espero que sirva de algo, gracias por dejarnos participar. ",68.0,yes
59,2023-11-19_12h42.00.600,Unsyncopated1,s75,23.0,masculino,right,España,Lengua castellana y catalán,Upper secondary,no,no,A,1,when,L3,unsyncopated,when,when,59,Online_whenL3//d.ji11.none.wav,ñe,je,fu,sil,mo,ka,li,sil1,ko,gu,sil2,['-'],,,none,none,,,,ji,4,testConjL1Uns//dep_viol.r2.s1.0.wav,3.0,conjunction_un,unsyncopated,b,s1,no_rule,dep,L1,m,0.4342,6.0,1.0,0.4592,3 ,3.0,Castellano,Desde que tengo uso de razón,Catalán,9 aprox,Inglés,9 aprox,4.0,4.0,yes,yes,yes,Guitarra,9,Voz,9,,,"Quizá hacia al final de la prueba es más difícil mantener la atención porque se hace repetitiva la tarea y entras en una especie de somnolencia por repetición... Espero que sirva de algo, gracias por dejarnos participar. ",68.0,yes
60,2023-11-19_12h42.00.600,Unsyncopated1,s75,23.0,masculino,right,España,Lengua castellana y catalán,Upper secondary,no,no,A,1,when,L3,unsyncopated,when,when,60,Online_whenL3//d.ji13.222.wav,fu,ji,di,sil,li,ko,je,sil1,chu,mo,sil2,['miss'],,,0.222,no_beat,,,,ji,4,testConjL1Uns//r2.s1.2.wav,3.0,conjunction_un,unsyncopated,b,s1,rule,rule,L1,m,1.2513,3.0,0.0,1.0838,3 ,3.0,Castellano,Desde que tengo uso de razón,Catalán,9 aprox,Inglés,9 aprox,4.0,4.0,yes,yes,yes,Guitarra,9,Voz,9,,,"Quizá hacia al final de la prueba es más difícil mantener la atención porque se hace repetitiva la tarea y entras en una especie de somnolencia por repetición... Espero que sirva de algo, gracias por dejarnos participar. ",68.0,yes
61,2023-11-19_12h42.00.600,Unsyncopated1,s75,23.0,masculino,right,España,Lengua castellana y catalán,Upper secondary,no,no,A,1,when,L3,unsyncopated,when,when,61,Online_whenL3//d.ji14.1998.wav,ga,do,ka,sil,ñe,gu,le,sil1,sa,ji,sil2,['catch'],[2.521800000011922],[2.521800000011922],1.998,no_beat,0.5238000000119218,0.5238000000119218,"[""space""]",ji,4,testConjL1Uns//time_viol.r2.s2.0.wav,3.0,conjunction_un,unsyncopated,b,s2,no_rule,time,L1,z,1.9592,6.0,0.0,0.2157,3 ,3.0,Castellano,Desde que tengo uso de razón,Catalán,9 aprox,Inglés,9 aprox,4.0,4.0,yes,yes,yes,Guitarra,9,Voz,9,,,"Quizá hacia al final de la prueba es más difícil mantener la atención porque se hace repetitiva la tarea y entras en una especie de somnolencia por repetición... Espero que sirva de algo, gracias por dejarnos participar. ",68.0,yes
62,2023-11-19_12h42.00.600,Unsyncopated1,s75,23.0,masculino,right,España,Lengua castellana y catalán,Upper secondary,no,no,A,1,when,L3,unsyncopated,when,when,62,Online_whenL3//d.ji15.444.wav,ga,do,ji,sil,mo,sa,ko,sil1,fu,gu,sil2,['miss'],,,0.444,no_beat,,,,ji,4,testConjL1Uns//time_viol.r2.s1.0.wav,3.0,conjunction_un,unsyncopated,b,s1,no_rule,time,L1,m,0.1591,3.0,1.0,0.6031,3 ,3.0,Castellano,Desde que tengo uso de razón,Catalán,9 aprox,Inglés,9 aprox,4.0,4.0,yes,yes,yes,Guitarra,9,Voz,9,,,"Quizá hacia al final de la prueba es más difícil mantener la atención porque se hace repetitiva la tarea y entras en una especie de somnolencia por repetición... Espero que sirva de algo, gracias por dejarnos participar. ",68.0,yes
63,2023-11-19_12h42.00.600,Unsyncopated1,s75,23.0,masculino,right,España,Lengua castellana y catalán,Upper secondary,no,no,A,1,when,L3,unsyncopated,when,when,63,Online_whenL3//d.ji12.1332.wav,sa,le,gu,sil,ka,ga,ji,sil1,di,mo,sil2,['catch'],[1.9286000000089416],[1.9286000000089416],1.332,no_beat,0.5966000000089415,0.5966000000089415,"[""space""]",ji,4,testConjL1Uns//dep_viol.r2.s2.0.wav,3.0,conjunction_un,unsyncopated,b,s2,no_rule,dep,L1,m,1.7844,3.0,1.0,0.651,3 ,3.0,Castellano,Desde que tengo uso de razón,Catalán,9 aprox,Inglés,9 aprox,4.0,4.0,yes,yes,yes,Guitarra,9,Voz,9,,,"Quizá hacia al final de la prueba es más difícil mantener la atención porque se hace repetitiva la tarea y entras en una especie de somnolencia por repetición... Espero que sirva de algo, gracias por dejarnos participar. ",68.0,yes
64,2023-11-19_12h42.00.600,Unsyncopated1,s75,23.0,masculino,right,España,Lengua castellana y catalán,Upper secondary,no,no,A,1,when,L3,unsyncopated,when,when,64,Online_whenL3//a.mo31.1776.wav,li,gu,ñe,sil,ga,ji,le,sil1,mo,je,sil2,['catch'],[2.3935000000000173],[2.3935000000000173],1.776,beat,0.6175000000000173,0.6175000000000173,"[""space""]",mo,2,testConjL1Uns//r1.s1.2.wav,3.0,conjunction_un,unsyncopated,a,s1,rule,rule,L1,z,0.7343,6.0,1.0,0.1343,3 ,3.0,Castellano,Desde que tengo uso de razón,Catalán,9 aprox,Inglés,9 aprox,4.0,4.0,yes,yes,yes,Guitarra,9,Voz,9,,,"Quizá hacia al final de la prueba es más difícil mantener la atención porque se hace repetitiva la tarea y entras en una especie de somnolencia por repetición... Espero que sirva de algo, gracias por dejarnos participar. ",68.0,yes
65,2023-11-19_12h42.00.600,Unsyncopated1,s75,23.0,masculino,right,España,Lengua castellana y catalán,Upper secondary,no,no,A,1,when,L3,unsyncopated,when,when,65,Online_whenL3//a.mo29.none.wav,sa,di,je,sil,li,ko,ji,sil1,ga,ñe,sil2,['-'],,,none,none,,,,mo,2,testConjL1Uns//r2.s1.1.wav,3.0,conjunction_un,unsyncopated,b,s1,rule,rule,L1,m,0.311,3.0,0.0,0.2849,3 ,3.0,Castellano,Desde que tengo uso de razón,Catalán,9 aprox,Inglés,9 aprox,4.0,4.0,yes,yes,yes,Guitarra,9,Voz,9,,,"Quizá hacia al final de la prueba es más difícil mantener la atención porque se hace repetitiva la tarea y entras en una especie de somnolencia por repetición... Espero que sirva de algo, gracias por dejarnos participar. ",68.0,yes
66,2023-11-19_12h42.00.600,Unsyncopated1,s75,23.0,masculino,right,España,Lengua castellana y catalán,Upper secondary,no,no,A,1,when,L3,unsyncopated,when,when,66,Online_whenL3//a.mo28.0.wav,mo,sa,ka,sil,ga,ko,fu,sil1,gu,do,sil2,['miss'],,,0.0,beat,,,,mo,2,testConjL1Uns//dep_viol.r1.s2.0.wav,3.0,conjunction_un,unsyncopated,a,s2,no_rule,dep,L1,m,0.7295,3.0,1.0,0.4676,3 ,3.0,Castellano,Desde que tengo uso de razón,Catalán,9 aprox,Inglés,9 aprox,4.0,4.0,yes,yes,yes,Guitarra,9,Voz,9,,,"Quizá hacia al final de la prueba es más difícil mantener la atención porque se hace repetitiva la tarea y entras en una especie de somnolencia por repetición... Espero que sirva de algo, gracias por dejarnos participar. ",68.0,yes
67,2023-11-19_12h42.00.600,Unsyncopated1,s75,23.0,masculino,right,España,Lengua castellana y catalán,Upper secondary,no,no,A,1,when,L3,unsyncopated,when,when,67,Online_whenL3//a.mo30.none.wav,ga,li,gu,sil,chu,le,fu,sil1,ka,ñe,sil2,['-'],,,none,none,,,,mo,2,testConjL1Uns//cat_viol.r2.s2.0.wav,3.0,conjunction_un,unsyncopated,b,s2,no_rule,cat,L1,m,0.3173,3.0,1.0,0.1343,3 ,3.0,Castellano,Desde que tengo uso de razón,Catalán,9 aprox,Inglés,9 aprox,4.0,4.0,yes,yes,yes,Guitarra,9,Voz,9,,,"Quizá hacia al final de la prueba es más difícil mantener la atención porque se hace repetitiva la tarea y entras en una especie de somnolencia por repetición... Espero que sirva de algo, gracias por dejarnos participar. ",68.0,yes
68,2023-11-19_12h42.00.600,Unsyncopated1,s75,23.0,masculino,right,España,Lengua castellana y catalán,Upper secondary,no,no,A,1,when,L3,unsyncopated,when,when,68,Online_whenL3//c.gu19.1998.wav,ka,sa,je,sil,chu,do,ji,sil1,le,gu,sil2,['catch_delay'],[1.098700000003024],[1.098700000003024],1.998,no_beat,1.098700000003024,1.098700000003024,,gu,3,testConjL1Uns//r2.s2.0.wav,3.0,conjunction_un,unsyncopated,b,s2,rule,rule,L1,z,0.3689,6.0,1.0,0.3007,3 ,3.0,Castellano,Desde que tengo uso de razón,Catalán,9 aprox,Inglés,9 aprox,4.0,4.0,yes,yes,yes,Guitarra,9,Voz,9,,,"Quizá hacia al final de la prueba es más difícil mantener la atención porque se hace repetitiva la tarea y entras en una especie de somnolencia por repetición... Espero que sirva de algo, gracias por dejarnos participar. ",68.0,yes
69,2023-11-19_12h42.00.600,Unsyncopated1,s75,23.0,masculino,right,España,Lengua castellana y catalán,Upper secondary,no,no,A,1,when,L3,unsyncopated,when,when,69,Online_whenL3//c.gu18.444.wav,di,ko,gu,sil,chu,sa,ka,sil1,li,do,sil2,['catch'],"[0.4327000000030239, 1.3996000000089452]",[1.3996000000089452],0.444,no_beat,0.9556000000089452,0.9556000000089452,"[""space"",""space""]",gu,3,testConjL1Uns//r1.s2.2.wav,3.0,conjunction_un,unsyncopated,a,s2,rule,rule,L1,z,0.0012,6.0,1.0,0.2516,3 ,3.0,Castellano,Desde que tengo uso de razón,Catalán,9 aprox,Inglés,9 aprox,4.0,4.0,yes,yes,yes,Guitarra,9,Voz,9,,,"Quizá hacia al final de la prueba es más difícil mantener la atención porque se hace repetitiva la tarea y entras en una especie de somnolencia por repetición... Espero que sirva de algo, gracias por dejarnos participar. ",68.0,yes
70,2023-11-19_12h42.00.600,Unsyncopated1,s75,23.0,masculino,right,España,Lengua castellana y catalán,Upper secondary,no,no,A,1,when,L3,unsyncopated,when,when,70,Online_whenL3//c.gu16.1332.wav,do,ji,ñe,sil,ka,ga,gu,sil1,mo,di,sil2,['catch'],[1.9035999999940714],[1.9035999999940714],1.332,no_beat,0.5715999999940713,0.5715999999940713,"[""space""]",gu,3,testConjL1Uns//r1.s1.0.wav,3.0,conjunction_un,unsyncopated,a,s1,rule,rule,L1,m,0.7229,3.0,0.0,0.3776,3 ,3.0,Castellano,Desde que tengo uso de razón,Catalán,9 aprox,Inglés,9 aprox,4.0,4.0,yes,yes,yes,Guitarra,9,Voz,9,,,"Quizá hacia al final de la prueba es más difícil mantener la atención porque se hace repetitiva la tarea y entras en una especie de somnolencia por repetición... Espero que sirva de algo, gracias por dejarnos participar. ",68.0,yes
71,2023-11-19_12h42.00.600,Unsyncopated1,s75,23.0,masculino,right,España,Lengua castellana y catalán,Upper secondary,no,no,A,1,when,L3,unsyncopated,when,when,71,Online_whenL3//c.gu17.none.wav,ga,ji,le,sil,sa,ka,chu,sil1,do,je,sil2,['-'],,,none,none,,,,gu,3,testConjL1Uns//r2.s2.1.wav,3.0,conjunction_un,unsyncopated,b,s2,rule,rule,L1,z,0.4841,6.0,1.0,0.6509,3 ,3.0,Castellano,Desde que tengo uso de razón,Catalán,9 aprox,Inglés,9 aprox,4.0,4.0,yes,yes,yes,Guitarra,9,Voz,9,,,"Quizá hacia al final de la prueba es más difícil mantener la atención porque se hace repetitiva la tarea y entras en una especie de somnolencia por repetición... Espero que sirva de algo, gracias por dejarnos participar. ",68.0,yes
72,2023-11-19_12h42.00.600,Unsyncopated1,s75,23.0,masculino,right,España,Lengua castellana y catalán,Upper secondary,no,no,A,1,when,L3,unsyncopated,when,when,72,Online_whenL3//b.ñe28.none.wav,fu,je,chu,sil,sa,le,ga,sil1,li,ka,sil2,['-'],,,none,none,,,,ñe,1,testWhatL2Uns//r2.s2.0.wav,4.0,what,unsyncopated,b,s2,rule,rule,L2,z,0.3329,6.0,1.0,0.2306,3 ,3.0,Castellano,Desde que tengo uso de razón,Catalán,9 aprox,Inglés,9 aprox,4.0,4.0,yes,yes,yes,Guitarra,9,Voz,9,,,"Quizá hacia al final de la prueba es más difícil mantener la atención porque se hace repetitiva la tarea y entras en una especie de somnolencia por repetición... Espero que sirva de algo, gracias por dejarnos participar. ",68.0,yes
73,2023-11-19_12h42.00.600,Unsyncopated1,s75,23.0,masculino,right,España,Lengua castellana y catalán,Upper secondary,no,no,A,1,when,L3,unsyncopated,when,when,73,Online_whenL3//b.ñe29.0.wav,ñe,gu,ga,sil,ko,li,le,sil1,ka,sa,sil2,['miss'],,,0.0,beat,,,,ñe,1,testWhatL2Uns//dep_viol.r1.s1.0.wav,4.0,what,unsyncopated,a,s1,no_rule,dep,L2,z,0.2556,6.0,0.0,0.1102,3 ,3.0,Castellano,Desde que tengo uso de razón,Catalán,9 aprox,Inglés,9 aprox,4.0,4.0,yes,yes,yes,Guitarra,9,Voz,9,,,"Quizá hacia al final de la prueba es más difícil mantener la atención porque se hace repetitiva la tarea y entras en una especie de somnolencia por repetición... Espero que sirva de algo, gracias por dejarnos participar. ",68.0,yes
74,2023-11-19_12h42.00.600,Unsyncopated1,s75,23.0,masculino,right,España,Lengua castellana y catalán,Upper secondary,no,no,A,1,when,L3,unsyncopated,when,when,74,Online_whenL3//b.ñe30.none.wav,ka,di,mo,sil,ko,chu,je,sil1,fu,gu,sil2,['-'],,,none,none,,,,ñe,1,testWhatL2Uns//time_viol.r2.s1.0.wav,4.0,what,unsyncopated,b,s1,no_rule,time,L2,z,0.4844,6.0,0.0,0.0874,3 ,3.0,Castellano,Desde que tengo uso de razón,Catalán,9 aprox,Inglés,9 aprox,4.0,4.0,yes,yes,yes,Guitarra,9,Voz,9,,,"Quizá hacia al final de la prueba es más difícil mantener la atención porque se hace repetitiva la tarea y entras en una especie de somnolencia por repetición... Espero que sirva de algo, gracias por dejarnos participar. ",68.0,yes
75,2023-11-19_12h42.00.600,Unsyncopated1,s75,23.0,masculino,right,España,Lengua castellana y catalán,Upper secondary,no,no,A,1,when,L3,unsyncopated,when,when,75,Online_whenL3//b.ñe31.none.wav,chu,je,do,sil,le,ka,sa,sil1,li,ga,sil2,['-'],,,none,none,,,,ñe,1,testWhatL2Uns//r1.s1.1.wav,4.0,what,unsyncopated,a,s1,rule,rule,L2,z,0.5001,6.0,1.0,0.1067,3 ,3.0,Castellano,Desde que tengo uso de razón,Catalán,9 aprox,Inglés,9 aprox,4.0,4.0,yes,yes,yes,Guitarra,9,Voz,9,,,"Quizá hacia al final de la prueba es más difícil mantener la atención porque se hace repetitiva la tarea y entras en una especie de somnolencia por repetición... Espero que sirva de algo, gracias por dejarnos participar. ",68.0,yes
76,2023-11-19_12h42.00.600,Unsyncopated1,s75,23.0,masculino,right,España,Lengua castellana y catalán,Upper secondary,no,no,A,1,when,L3,unsyncopated,when,when,76,Online_whenL3//c.gu5.0.wav,gu,ko,ji,sil,sa,ñe,le,sil1,fu,di,sil2,['miss'],,,0.0,beat,,,,gu,3,testWhatL2Uns//r2.s1.2.wav,4.0,what,unsyncopated,b,s1,rule,rule,L2,m,0.2579,3.0,0.0,0.7004,3 ,3.0,Castellano,Desde que tengo uso de razón,Catalán,9 aprox,Inglés,9 aprox,4.0,4.0,yes,yes,yes,Guitarra,9,Voz,9,,,"Quizá hacia al final de la prueba es más difícil mantener la atención porque se hace repetitiva la tarea y entras en una especie de somnolencia por repetición... Espero que sirva de algo, gracias por dejarnos participar. ",68.0,yes
77,2023-11-19_12h42.00.600,Unsyncopated1,s75,23.0,masculino,right,España,Lengua castellana y catalán,Upper secondary,no,no,A,1,when,L3,unsyncopated,when,when,77,Online_whenL3//c.gu7.1776.wav,sa,ga,di,sil,mo,ka,ko,sil1,gu,le,sil2,['catch'],[2.6479000000059614],[2.6479000000059614],1.776,beat,0.8719000000059614,0.8719000000059614,"[""space""]",gu,3,testWhatL2Uns//r2.s2.2.wav,4.0,what,unsyncopated,b,s2,rule,rule,L2,m,0.338,6.0,0.0,0.3825,3 ,3.0,Castellano,Desde que tengo uso de razón,Catalán,9 aprox,Inglés,9 aprox,4.0,4.0,yes,yes,yes,Guitarra,9,Voz,9,,,"Quizá hacia al final de la prueba es más difícil mantener la atención porque se hace repetitiva la tarea y entras en una especie de somnolencia por repetición... Espero que sirva de algo, gracias por dejarnos participar. ",68.0,yes
78,2023-11-19_12h42.00.600,Unsyncopated1,s75,23.0,masculino,right,España,Lengua castellana y catalán,Upper secondary,no,no,A,1,when,L3,unsyncopated,when,when,78,Online_whenL3//c.gu4.none.wav,do,ka,ko,sil,fu,chu,mo,sil1,le,ji,sil2,['-'],,,none,none,,,,gu,3,testWhatL2Uns//r1.s2.2.wav,4.0,what,unsyncopated,a,s2,rule,rule,L2,m,1.0106,6.0,0.0,1.3339,3 ,3.0,Castellano,Desde que tengo uso de razón,Catalán,9 aprox,Inglés,9 aprox,4.0,4.0,yes,yes,yes,Guitarra,9,Voz,9,,,"Quizá hacia al final de la prueba es más difícil mantener la atención porque se hace repetitiva la tarea y entras en una especie de somnolencia por repetición... Espero que sirva de algo, gracias por dejarnos participar. ",68.0,yes
79,2023-11-19_12h42.00.600,Unsyncopated1,s75,23.0,masculino,right,España,Lengua castellana y catalán,Upper secondary,no,no,A,1,when,L3,unsyncopated,when,when,79,Online_whenL3//c.gu6.none.wav,do,je,mo,sil,fu,ko,sa,sil1,ka,di,sil2,['-'],,,none,none,,,,gu,3,testWhatL2Uns//dep_viol.r2.s2.0.wav,4.0,what,unsyncopated,b,s2,no_rule,dep,L2,z,0.5068,6.0,0.0,0.5152,3 ,3.0,Castellano,Desde que tengo uso de razón,Catalán,9 aprox,Inglés,9 aprox,4.0,4.0,yes,yes,yes,Guitarra,9,Voz,9,,,"Quizá hacia al final de la prueba es más difícil mantener la atención porque se hace repetitiva la tarea y entras en una especie de somnolencia por repetición... Espero que sirva de algo, gracias por dejarnos participar. ",68.0,yes
80,2023-11-19_12h42.00.600,Unsyncopated1,s75,23.0,masculino,right,España,Lengua castellana y catalán,Upper secondary,no,no,A,1,when,L3,unsyncopated,when,when,80,Online_whenL3//b.ñe8.none.wav,le,do,ko,sil,gu,mo,fu,sil1,ji,sa,sil2,['-'],,,none,none,,,,ñe,1,testWhatL2Uns//r1.s2.1.wav,4.0,what,unsyncopated,a,s2,rule,rule,L2,m,1.8408,3.0,0.0,0.3786,3 ,3.0,Castellano,Desde que tengo uso de razón,Catalán,9 aprox,Inglés,9 aprox,4.0,4.0,yes,yes,yes,Guitarra,9,Voz,9,,,"Quizá hacia al final de la prueba es más difícil mantener la atención porque se hace repetitiva la tarea y entras en una especie de somnolencia por repetición... Espero que sirva de algo, gracias por dejarnos participar. ",68.0,yes
81,2023-11-19_12h42.00.600,Unsyncopated1,s75,23.0,masculino,right,España,Lengua castellana y catalán,Upper secondary,no,no,A,1,when,L3,unsyncopated,when,when,81,Online_whenL3//b.ñe11.none.wav,ka,ji,li,sil,ko,ga,sa,sil1,mo,di,sil2,['-'],,,none,none,,,,ñe,1,testWhatL2Uns//cat_viol.r2.s2.0.wav,4.0,what,unsyncopated,b,s2,no_rule,cat,L2,m,0.9544,3.0,1.0,0.2245,3 ,3.0,Castellano,Desde que tengo uso de razón,Catalán,9 aprox,Inglés,9 aprox,4.0,4.0,yes,yes,yes,Guitarra,9,Voz,9,,,"Quizá hacia al final de la prueba es más difícil mantener la atención porque se hace repetitiva la tarea y entras en una especie de somnolencia por repetición... Espero que sirva de algo, gracias por dejarnos participar. ",68.0,yes
82,2023-11-19_12h42.00.600,Unsyncopated1,s75,23.0,masculino,right,España,Lengua castellana y catalán,Upper secondary,no,no,A,1,when,L3,unsyncopated,when,when,82,Online_whenL3//b.ñe9.1110.wav,fu,do,ka,sil,li,ñe,chu,sil1,ko,ji,sil2,['miss'],,,1.11,no_beat,,,,ñe,1,testWhatL2Uns//r1.s1.2.wav,4.0,what,unsyncopated,a,s1,rule,rule,L2,z,0.2438,7.0,1.0,0.1508,3 ,3.0,Castellano,Desde que tengo uso de razón,Catalán,9 aprox,Inglés,9 aprox,4.0,4.0,yes,yes,yes,Guitarra,9,Voz,9,,,"Quizá hacia al final de la prueba es más difícil mantener la atención porque se hace repetitiva la tarea y entras en una especie de somnolencia por repetición... Espero que sirva de algo, gracias por dejarnos participar. ",68.0,yes
83,2023-11-19_12h42.00.600,Unsyncopated1,s75,23.0,masculino,right,España,Lengua castellana y catalán,Upper secondary,no,no,A,1,when,L3,unsyncopated,when,when,83,Online_whenL3//b.ñe10.none.wav,ga,fu,le,sil,chu,ko,ka,sil1,mo,je,sil2,['-'],,,none,none,,,,ñe,1,testWhatL2Uns//cat_viol.r2.s1.0.wav,4.0,what,unsyncopated,b,s1,no_rule,cat,L2,z,0.0172,6.0,0.0,0.2854,3 ,3.0,Castellano,Desde que tengo uso de razón,Catalán,9 aprox,Inglés,9 aprox,4.0,4.0,yes,yes,yes,Guitarra,9,Voz,9,,,"Quizá hacia al final de la prueba es más difícil mantener la atención porque se hace repetitiva la tarea y entras en una especie de somnolencia por repetición... Espero que sirva de algo, gracias por dejarnos participar. ",68.0,yes
84,2023-11-19_12h42.00.600,Unsyncopated1,s75,23.0,masculino,right,España,Lengua castellana y catalán,Upper secondary,no,no,A,1,when,L3,unsyncopated,when,when,84,Online_whenL3//b.ñe3.none.wav,chu,ko,mo,sil,li,je,ji,sil1,fu,do,sil2,['-'],,,none,none,,,,ñe,1,testWhatL2Uns//r2.s1.0.wav,4.0,what,unsyncopated,b,s1,rule,rule,L2,z,0.2006,7.0,1.0,0.2344,3 ,3.0,Castellano,Desde que tengo uso de razón,Catalán,9 aprox,Inglés,9 aprox,4.0,4.0,yes,yes,yes,Guitarra,9,Voz,9,,,"Quizá hacia al final de la prueba es más difícil mantener la atención porque se hace repetitiva la tarea y entras en una especie de somnolencia por repetición... Espero que sirva de algo, gracias por dejarnos participar. ",68.0,yes
85,2023-11-19_12h42.00.600,Unsyncopated1,s75,23.0,masculino,right,España,Lengua castellana y catalán,Upper secondary,no,no,A,1,when,L3,unsyncopated,when,when,85,Online_whenL3//b.ñe2.888.wav,ji,li,do,sil,ñe,mo,ga,sil1,le,fu,sil2,['catch'],[2.271099999994135],[2.271099999994135],0.888,beat,,1.3830999999941351,"[""space""]",ñe,1,testWhatL2Uns//dep_viol.r1.s2.0.wav,4.0,what,unsyncopated,a,s2,no_rule,dep,L2,z,0.2588,7.0,0.0,0.3915,3 ,3.0,Castellano,Desde que tengo uso de razón,Catalán,9 aprox,Inglés,9 aprox,4.0,4.0,yes,yes,yes,Guitarra,9,Voz,9,,,"Quizá hacia al final de la prueba es más difícil mantener la atención porque se hace repetitiva la tarea y entras en una especie de somnolencia por repetición... Espero que sirva de algo, gracias por dejarnos participar. ",68.0,yes
86,2023-11-19_12h42.00.600,Unsyncopated1,s75,23.0,masculino,right,España,Lengua castellana y catalán,Upper secondary,no,no,A,1,when,L3,unsyncopated,when,when,86,Online_whenL3//b.ñe1.1998.wav,ka,ko,je,sil,ga,gu,di,sil1,sa,ñe,sil2,['miss'],,,1.998,no_beat,,,,ñe,1,testWhatL2Uns//dep_viol.r2.s1.0.wav,4.0,what,unsyncopated,b,s1,no_rule,dep,L2,z,1.4337,6.0,0.0,0.1175,3 ,3.0,Castellano,Desde que tengo uso de razón,Catalán,9 aprox,Inglés,9 aprox,4.0,4.0,yes,yes,yes,Guitarra,9,Voz,9,,,"Quizá hacia al final de la prueba es más difícil mantener la atención porque se hace repetitiva la tarea y entras en una especie de somnolencia por repetición... Espero que sirva de algo, gracias por dejarnos participar. ",68.0,yes
87,2023-11-19_12h42.00.600,Unsyncopated1,s75,23.0,masculino,right,España,Lengua castellana y catalán,Upper secondary,no,no,A,1,when,L3,unsyncopated,when,when,87,Online_whenL3//b.ñe0.222.wav,ka,ñe,gu,sil,ga,le,chu,sil1,fu,do,sil2,['miss'],,,0.222,no_beat,,,,ñe,1,testWhatL2Uns//cat_viol.r1.s1.0.wav,4.0,what,unsyncopated,a,s1,no_rule,cat,L2,m,0.2663,3.0,1.0,0.1367,3 ,3.0,Castellano,Desde que tengo uso de razón,Catalán,9 aprox,Inglés,9 aprox,4.0,4.0,yes,yes,yes,Guitarra,9,Voz,9,,,"Quizá hacia al final de la prueba es más difícil mantener la atención porque se hace repetitiva la tarea y entras en una especie de somnolencia por repetición... Espero que sirva de algo, gracias por dejarnos participar. ",68.0,yes
88,2023-11-19_12h42.00.600,Unsyncopated1,s75,23.0,masculino,right,España,Lengua castellana y catalán,Upper secondary,no,no,A,1,when,L3,unsyncopated,when,when,88,Online_whenL3//d.ji0.1332.wav,je,ko,gu,sil,do,ñe,ji,sil1,mo,le,sil2,['catch'],[2.195299999997019],[2.195299999997019],1.332,no_beat,0.8632999999970188,0.8632999999970188,"[""space""]",ji,4,testWhatL2Uns//r2.s1.1.wav,4.0,what,unsyncopated,b,s1,rule,rule,L2,m,0.3363,3.0,0.0,0.1536,3 ,3.0,Castellano,Desde que tengo uso de razón,Catalán,9 aprox,Inglés,9 aprox,4.0,4.0,yes,yes,yes,Guitarra,9,Voz,9,,,"Quizá hacia al final de la prueba es más difícil mantener la atención porque se hace repetitiva la tarea y entras en una especie de somnolencia por repetición... Espero que sirva de algo, gracias por dejarnos participar. ",68.0,yes
89,2023-11-19_12h42.00.600,Unsyncopated1,s75,23.0,masculino,right,España,Lengua castellana y catalán,Upper secondary,no,no,A,1,when,L3,unsyncopated,when,when,89,Online_whenL3//d.ji2.none.wav,je,ko,sa,sil,le,do,ga,sil1,ñe,di,sil2,['-'],,,none,none,,,,ji,4,testWhatL2Uns//time_viol.r1.s2.0.wav,4.0,what,unsyncopated,a,s2,no_rule,time,L2,m,1.0077,3.0,1.0,0.0736,3 ,3.0,Castellano,Desde que tengo uso de razón,Catalán,9 aprox,Inglés,9 aprox,4.0,4.0,yes,yes,yes,Guitarra,9,Voz,9,,,"Quizá hacia al final de la prueba es más difícil mantener la atención porque se hace repetitiva la tarea y entras en una especie de somnolencia por repetición... Espero que sirva de algo, gracias por dejarnos participar. ",68.0,yes
90,2023-11-19_12h42.00.600,Unsyncopated1,s75,23.0,masculino,right,España,Lengua castellana y catalán,Upper secondary,no,no,A,1,when,L3,unsyncopated,when,when,90,Online_whenL3//d.ji1.888.wav,sa,je,le,sil,ji,ko,ñe,sil1,di,gu,sil2,['catch'],[1.5827000000030012],[1.5827000000030012],0.888,beat,0.6947000000030011,0.6947000000030011,"[""space""]",ji,4,testWhatL2Uns//cat_viol.r1.s2.0.wav,4.0,what,unsyncopated,a,s2,no_rule,cat,L2,z,0.0664,6.0,0.0,0.2043,3 ,3.0,Castellano,Desde que tengo uso de razón,Catalán,9 aprox,Inglés,9 aprox,4.0,4.0,yes,yes,yes,Guitarra,9,Voz,9,,,"Quizá hacia al final de la prueba es más difícil mantener la atención porque se hace repetitiva la tarea y entras en una especie de somnolencia por repetición... Espero que sirva de algo, gracias por dejarnos participar. ",68.0,yes
91,2023-11-19_12h42.00.600,Unsyncopated1,s75,23.0,masculino,right,España,Lengua castellana y catalán,Upper secondary,no,no,A,1,when,L3,unsyncopated,when,when,91,Online_whenL3//d.ji3.none.wav,je,le,do,sil,sa,ka,ga,sil1,gu,mo,sil2,['-'],,,none,none,,,,ji,4,testWhatL2Uns//time_viol.r2.s2.0.wav,4.0,what,unsyncopated,b,s2,no_rule,time,L2,z,0.2271,6.0,0.0,0.1495,3 ,3.0,Castellano,Desde que tengo uso de razón,Catalán,9 aprox,Inglés,9 aprox,4.0,4.0,yes,yes,yes,Guitarra,9,Voz,9,,,"Quizá hacia al final de la prueba es más difícil mantener la atención porque se hace repetitiva la tarea y entras en una especie de somnolencia por repetición... Espero que sirva de algo, gracias por dejarnos participar. ",68.0,yes
92,2023-11-19_12h42.00.600,Unsyncopated1,s75,23.0,masculino,right,España,Lengua castellana y catalán,Upper secondary,no,no,A,1,when,L3,unsyncopated,when,when,92,Online_whenL3//d.ji31.none.wav,ga,ko,di,sil,li,sa,ka,sil1,gu,chu,sil2,['-'],,,none,none,,,,ji,4,testWhatL2Uns//r1.s2.0.wav,4.0,what,unsyncopated,a,s2,rule,rule,L2,z,0.1685,6.0,1.0,0.1369,3 ,3.0,Castellano,Desde que tengo uso de razón,Catalán,9 aprox,Inglés,9 aprox,4.0,4.0,yes,yes,yes,Guitarra,9,Voz,9,,,"Quizá hacia al final de la prueba es más difícil mantener la atención porque se hace repetitiva la tarea y entras en una especie de somnolencia por repetición... Espero que sirva de algo, gracias por dejarnos participar. ",68.0,yes
93,2023-11-19_12h42.00.600,Unsyncopated1,s75,23.0,masculino,right,España,Lengua castellana y catalán,Upper secondary,no,no,A,1,when,L3,unsyncopated,when,when,93,Online_whenL3//d.ji28.888.wav,di,mo,do,sil,ji,chu,je,sil1,ka,ko,sil2,['miss'],,,0.888,beat,,,,ji,4,testWhatL2Uns//r1.s1.0.wav,4.0,what,unsyncopated,a,s1,rule,rule,L2,z,0.7714,6.0,1.0,0.1375,3 ,3.0,Castellano,Desde que tengo uso de razón,Catalán,9 aprox,Inglés,9 aprox,4.0,4.0,yes,yes,yes,Guitarra,9,Voz,9,,,"Quizá hacia al final de la prueba es más difícil mantener la atención porque se hace repetitiva la tarea y entras en una especie de somnolencia por repetición... Espero que sirva de algo, gracias por dejarnos participar. ",68.0,yes
94,2023-11-19_12h42.00.600,Unsyncopated1,s75,23.0,masculino,right,España,Lengua castellana y catalán,Upper secondary,no,no,A,1,when,L3,unsyncopated,when,when,94,Online_whenL3//d.ji30.none.wav,mo,je,do,sil,sa,fu,di,sil1,li,gu,sil2,['-'],,,none,none,,,,ji,4,testWhatL2Uns//r2.s2.1.wav,4.0,what,unsyncopated,b,s2,rule,rule,L2,m,0.3992,3.0,0.0,1.0172,3 ,3.0,Castellano,Desde que tengo uso de razón,Catalán,9 aprox,Inglés,9 aprox,4.0,4.0,yes,yes,yes,Guitarra,9,Voz,9,,,"Quizá hacia al final de la prueba es más difícil mantener la atención porque se hace repetitiva la tarea y entras en una especie de somnolencia por repetición... Espero que sirva de algo, gracias por dejarnos participar. ",68.0,yes
95,2023-11-19_12h42.00.600,Unsyncopated1,s75,23.0,masculino,right,España,Lengua castellana y catalán,Upper secondary,no,no,A,1,when,L3,unsyncopated,when,when,95,Online_whenL3//d.ji29.none.wav,ñe,fu,ga,sil,sa,di,ko,sil1,je,gu,sil2,['-'],,,none,none,,,,ji,4,testWhatL2Uns//time_viol.r1.s1.0.wav,4.0,what,unsyncopated,a,s1,no_rule,time,L2,z,2.5725,6.0,0.0,0.1417,3 ,3.0,Castellano,Desde que tengo uso de razón,Catalán,9 aprox,Inglés,9 aprox,4.0,4.0,yes,yes,yes,Guitarra,9,Voz,9,,,"Quizá hacia al final de la prueba es más difícil mantener la atención porque se hace repetitiva la tarea y entras en una especie de somnolencia por repetición... Espero que sirva de algo, gracias por dejarnos participar. ",68.0,yes
96,2023-11-19_12h42.00.600,Unsyncopated1,s75,23.0,masculino,right,España,Lengua castellana y catalán,Upper secondary,no,no,A,1,when,L3,unsyncopated,when,when,96,Online_whenL3//b.ñe15.none.wav,je,di,li,sil,ji,ko,sa,sil1,mo,ga,sil2,['-'],,,none,none,,,,ñe,1,,,,,,,,,,,,,,,3 ,3.0,Castellano,Desde que tengo uso de razón,Catalán,9 aprox,Inglés,9 aprox,4.0,4.0,yes,yes,yes,Guitarra,9,Voz,9,,,"Quizá hacia al final de la prueba es más difícil mantener la atención porque se hace repetitiva la tarea y entras en una especie de somnolencia por repetición... Espero que sirva de algo, gracias por dejarnos participar. ",68.0,yes
97,2023-11-19_12h42.00.600,Unsyncopated1,s75,23.0,masculino,right,España,Lengua castellana y catalán,Upper secondary,no,no,A,1,when,L3,unsyncopated,when,when,97,Online_whenL3//b.ñe13.none.wav,chu,ka,le,sil,ko,je,mo,sil1,fu,di,sil2,['-'],,,none,none,,,,ñe,1,,,,,,,,,,,,,,,3 ,3.0,Castellano,Desde que tengo uso de razón,Catalán,9 aprox,Inglés,9 aprox,4.0,4.0,yes,yes,yes,Guitarra,9,Voz,9,,,"Quizá hacia al final de la prueba es más difícil mantener la atención porque se hace repetitiva la tarea y entras en una especie de somnolencia por repetición... Espero que sirva de algo, gracias por dejarnos participar. ",68.0,yes
98,2023-11-19_12h42.00.600,Unsyncopated1,s75,23.0,masculino,right,España,Lengua castellana y catalán,Upper secondary,no,no,A,1,when,L3,unsyncopated,when,when,98,Online_whenL3//b.ñe14.1776.wav,do,je,ko,sil,fu,gu,chu,sil1,ñe,ka,sil2,['catch'],[2.45230000001186],[2.45230000001186],1.776,beat,0.67630000001186,0.67630000001186,"[""space""]",ñe,1,,,,,,,,,,,,,,,3 ,3.0,Castellano,Desde que tengo uso de razón,Catalán,9 aprox,Inglés,9 aprox,4.0,4.0,yes,yes,yes,Guitarra,9,Voz,9,,,"Quizá hacia al final de la prueba es más difícil mantener la atención porque se hace repetitiva la tarea y entras en una especie de somnolencia por repetición... Espero que sirva de algo, gracias por dejarnos participar. ",68.0,yes
99,2023-11-19_12h42.00.600,Unsyncopated1,s75,23.0,masculino,right,España,Lengua castellana y catalán,Upper secondary,no,no,A,1,when,L3,unsyncopated,when,when,99,Online_whenL3//b.ñe12.none.wav,ji,li,je,sil,mo,ka,chu,sil1,fu,ko,sil2,['-'],,,none,none,,,,ñe,1,,,,,,,,,,,,,,,3 ,3.0,Castellano,Desde que tengo uso de razón,Catalán,9 aprox,Inglés,9 aprox,4.0,4.0,yes,yes,yes,Guitarra,9,Voz,9,,,"Quizá hacia al final de la prueba es más difícil mantener la atención porque se hace repetitiva la tarea y entras en una especie de somnolencia por repetición... Espero que sirva de algo, gracias por dejarnos participar. ",68.0,yes
100,2023-11-19_12h42.00.600,Unsyncopated1,s75,23.0,masculino,right,España,Lengua castellana y catalán,Upper secondary,no,no,A,1,when,L3,unsyncopated,when,when,100,Online_whenL3//a.mo25.none.wav,sa,ji,ga,sil,do,ñe,je,sil1,di,ka,sil2,['-'],,,none,none,,,,mo,2,,,,,,,,,,,,,,,3 ,3.0,Castellano,Desde que tengo uso de razón,Catalán,9 aprox,Inglés,9 aprox,4.0,4.0,yes,yes,yes,Guitarra,9,Voz,9,,,"Quizá hacia al final de la prueba es más difícil mantener la atención porque se hace repetitiva la tarea y entras en una especie de somnolencia por repetición... Espero que sirva de algo, gracias por dejarnos participar. ",68.0,yes
101,2023-11-19_12h42.00.600,Unsyncopated1,s75,23.0,masculino,right,España,Lengua castellana y catalán,Upper secondary,no,no,A,1,when,L3,unsyncopated,when,when,101,Online_whenL3//a.mo27.888.wav,fu,le,ka,sil,mo,ko,gu,sil1,chu,di,sil2,['catch'],[1.4143999999910193],[1.4143999999910193],0.888,beat,0.5263999999910193,0.5263999999910193,"[""space""]",mo,2,,,,,,,,,,,,,,,3 ,3.0,Castellano,Desde que tengo uso de razón,Catalán,9 aprox,Inglés,9 aprox,4.0,4.0,yes,yes,yes,Guitarra,9,Voz,9,,,"Quizá hacia al final de la prueba es más difícil mantener la atención porque se hace repetitiva la tarea y entras en una especie de somnolencia por repetición... Espero que sirva de algo, gracias por dejarnos participar. ",68.0,yes
102,2023-11-19_12h42.00.600,Unsyncopated1,s75,23.0,masculino,right,España,Lengua castellana y catalán,Upper secondary,no,no,A,1,when,L3,unsyncopated,when,when,102,Online_whenL3//a.mo26.none.wav,di,li,ka,sil,chu,ji,je,sil1,do,ñe,sil2,['-'],,,none,none,,,,mo,2,,,,,,,,,,,,,,,3 ,3.0,Castellano,Desde que tengo uso de razón,Catalán,9 aprox,Inglés,9 aprox,4.0,4.0,yes,yes,yes,Guitarra,9,Voz,9,,,"Quizá hacia al final de la prueba es más difícil mantener la atención porque se hace repetitiva la tarea y entras en una especie de somnolencia por repetición... Espero que sirva de algo, gracias por dejarnos participar. ",68.0,yes
103,2023-11-19_12h42.00.600,Unsyncopated1,s75,23.0,masculino,right,España,Lengua castellana y catalán,Upper secondary,no,no,A,1,when,L3,unsyncopated,when,when,103,Online_whenL3//a.mo24.1998.wav,ji,le,do,sil,li,chu,fu,sil1,gu,mo,sil2,['catch_delay'],[0.671999999999972],[0.671999999999972],1.998,no_beat,0.671999999999972,0.671999999999972,,mo,2,,,,,,,,,,,,,,,3 ,3.0,Castellano,Desde que tengo uso de razón,Catalán,9 aprox,Inglés,9 aprox,4.0,4.0,yes,yes,yes,Guitarra,9,Voz,9,,,"Quizá hacia al final de la prueba es más difícil mantener la atención porque se hace repetitiva la tarea y entras en una especie de somnolencia por repetición... Espero que sirva de algo, gracias por dejarnos participar. ",68.0,yes
104,2023-11-19_12h42.00.600,Unsyncopated1,s75,23.0,masculino,right,España,Lengua castellana y catalán,Upper secondary,no,no,A,1,when,L3,unsyncopated,when,when,104,Online_whenL3//a.mo14.none.wav,di,ko,ga,sil,gu,do,sa,sil1,ka,chu,sil2,['-'],[0.005999999999971806],[0.005999999999971806],none,none,,,"[""space""]",mo,2,,,,,,,,,,,,,,,3 ,3.0,Castellano,Desde que tengo uso de razón,Catalán,9 aprox,Inglés,9 aprox,4.0,4.0,yes,yes,yes,Guitarra,9,Voz,9,,,"Quizá hacia al final de la prueba es más difícil mantener la atención porque se hace repetitiva la tarea y entras en una especie de somnolencia por repetición... Espero que sirva de algo, gracias por dejarnos participar. ",68.0,yes
105,2023-11-19_12h42.00.600,Unsyncopated1,s75,23.0,masculino,right,España,Lengua castellana y catalán,Upper secondary,no,no,A,1,when,L3,unsyncopated,when,when,105,Online_whenL3//a.mo15.1110.wav,ga,le,do,sil,ñe,mo,fu,sil1,di,li,sil2,['miss'],,,1.11,no_beat,,,,mo,2,,,,,,,,,,,,,,,3 ,3.0,Castellano,Desde que tengo uso de razón,Catalán,9 aprox,Inglés,9 aprox,4.0,4.0,yes,yes,yes,Guitarra,9,Voz,9,,,"Quizá hacia al final de la prueba es más difícil mantener la atención porque se hace repetitiva la tarea y entras en una especie de somnolencia por repetición... Espero que sirva de algo, gracias por dejarnos participar. ",68.0,yes
106,2023-11-19_12h42.00.600,Unsyncopated1,s75,23.0,masculino,right,España,Lengua castellana y catalán,Upper secondary,no,no,A,1,when,L3,unsyncopated,when,when,106,Online_whenL3//a.mo12.none.wav,je,ji,ñe,sil,le,do,gu,sil1,ga,sa,sil2,['-'],,,none,none,,,,mo,2,,,,,,,,,,,,,,,3 ,3.0,Castellano,Desde que tengo uso de razón,Catalán,9 aprox,Inglés,9 aprox,4.0,4.0,yes,yes,yes,Guitarra,9,Voz,9,,,"Quizá hacia al final de la prueba es más difícil mantener la atención porque se hace repetitiva la tarea y entras en una especie de somnolencia por repetición... Espero que sirva de algo, gracias por dejarnos participar. ",68.0,yes
107,2023-11-19_12h42.00.600,Unsyncopated1,s75,23.0,masculino,right,España,Lengua castellana y catalán,Upper secondary,no,no,A,1,when,L3,unsyncopated,when,when,107,Online_whenL3//a.mo13.1776.wav,chu,ji,do,sil,gu,le,fu,sil1,mo,ka,sil2,['miss'],,,1.776,beat,,,,mo,2,,,,,,,,,,,,,,,3 ,3.0,Castellano,Desde que tengo uso de razón,Catalán,9 aprox,Inglés,9 aprox,4.0,4.0,yes,yes,yes,Guitarra,9,Voz,9,,,"Quizá hacia al final de la prueba es más difícil mantener la atención porque se hace repetitiva la tarea y entras en una especie de somnolencia por repetición... Espero que sirva de algo, gracias por dejarnos participar. ",68.0,yes
108,2023-11-19_12h42.00.600,Unsyncopated1,s75,23.0,masculino,right,España,Lengua castellana y catalán,Upper secondary,no,no,A,1,when,L3,unsyncopated,when,when,108,Online_whenL3//b.ñe24.none.wav,sa,je,ga,sil,mo,fu,ji,sil1,di,gu,sil2,['-'],,,none,none,,,,ñe,1,,,,,,,,,,,,,,,3 ,3.0,Castellano,Desde que tengo uso de razón,Catalán,9 aprox,Inglés,9 aprox,4.0,4.0,yes,yes,yes,Guitarra,9,Voz,9,,,"Quizá hacia al final de la prueba es más difícil mantener la atención porque se hace repetitiva la tarea y entras en una especie de somnolencia por repetición... Espero que sirva de algo, gracias por dejarnos participar. ",68.0,yes
109,2023-11-19_12h42.00.600,Unsyncopated1,s75,23.0,masculino,right,España,Lengua castellana y catalán,Upper secondary,no,no,A,1,when,L3,unsyncopated,when,when,109,Online_whenL3//b.ñe25.222.wav,je,ñe,ji,sil,ko,gu,fu,sil1,li,mo,sil2,['catch'],[0.9307999999970207],[0.9307999999970207],0.222,no_beat,0.7087999999970207,0.7087999999970207,"[""space""]",ñe,1,,,,,,,,,,,,,,,3 ,3.0,Castellano,Desde que tengo uso de razón,Catalán,9 aprox,Inglés,9 aprox,4.0,4.0,yes,yes,yes,Guitarra,9,Voz,9,,,"Quizá hacia al final de la prueba es más difícil mantener la atención porque se hace repetitiva la tarea y entras en una especie de somnolencia por repetición... Espero que sirva de algo, gracias por dejarnos participar. ",68.0,yes
110,2023-11-19_12h42.00.600,Unsyncopated1,s75,23.0,masculino,right,España,Lengua castellana y catalán,Upper secondary,no,no,A,1,when,L3,unsyncopated,when,when,110,Online_whenL3//b.ñe27.none.wav,di,ko,do,sil,fu,chu,ji,sil1,ka,sa,sil2,['-'],,,none,none,,,,ñe,1,,,,,,,,,,,,,,,3 ,3.0,Castellano,Desde que tengo uso de razón,Catalán,9 aprox,Inglés,9 aprox,4.0,4.0,yes,yes,yes,Guitarra,9,Voz,9,,,"Quizá hacia al final de la prueba es más difícil mantener la atención porque se hace repetitiva la tarea y entras en una especie de somnolencia por repetición... Espero que sirva de algo, gracias por dejarnos participar. ",68.0,yes
111,2023-11-19_12h42.00.600,Unsyncopated1,s75,23.0,masculino,right,España,Lengua castellana y catalán,Upper secondary,no,no,A,1,when,L3,unsyncopated,when,when,111,Online_whenL3//b.ñe26.none.wav,ko,mo,ji,sil,di,le,sa,sil1,fu,ka,sil2,['-'],,,none,none,,,,ñe,1,,,,,,,,,,,,,,,3 ,3.0,Castellano,Desde que tengo uso de razón,Catalán,9 aprox,Inglés,9 aprox,4.0,4.0,yes,yes,yes,Guitarra,9,Voz,9,,,"Quizá hacia al final de la prueba es más difícil mantener la atención porque se hace repetitiva la tarea y entras en una especie de somnolencia por repetición... Espero que sirva de algo, gracias por dejarnos participar. ",68.0,yes
112,2023-11-19_12h42.00.600,Unsyncopated1,s75,23.0,masculino,right,España,Lengua castellana y catalán,Upper secondary,no,no,A,1,when,L3,unsyncopated,when,when,112,Online_whenL3//d.ji17.none.wav,ñe,ga,di,sil,sa,ka,li,sil1,le,fu,sil2,['-'],,,none,none,,,,ji,4,,,,,,,,,,,,,,,3 ,3.0,Castellano,Desde que tengo uso de razón,Catalán,9 aprox,Inglés,9 aprox,4.0,4.0,yes,yes,yes,Guitarra,9,Voz,9,,,"Quizá hacia al final de la prueba es más difícil mantener la atención porque se hace repetitiva la tarea y entras en una especie de somnolencia por repetición... Espero que sirva de algo, gracias por dejarnos participar. ",68.0,yes
113,2023-11-19_12h42.00.600,Unsyncopated1,s75,23.0,masculino,right,España,Lengua castellana y catalán,Upper secondary,no,no,A,1,when,L3,unsyncopated,when,when,113,Online_whenL3//d.ji16.none.wav,ka,je,di,sil,sa,fu,chu,sil1,do,li,sil2,['-'],,,none,none,,,,ji,4,,,,,,,,,,,,,,,3 ,3.0,Castellano,Desde que tengo uso de razón,Catalán,9 aprox,Inglés,9 aprox,4.0,4.0,yes,yes,yes,Guitarra,9,Voz,9,,,"Quizá hacia al final de la prueba es más difícil mantener la atención porque se hace repetitiva la tarea y entras en una especie de somnolencia por repetición... Espero que sirva de algo, gracias por dejarnos participar. ",68.0,yes
114,2023-11-19_12h42.00.600,Unsyncopated1,s75,23.0,masculino,right,España,Lengua castellana y catalán,Upper secondary,no,no,A,1,when,L3,unsyncopated,when,when,114,Online_whenL3//d.ji18.none.wav,gu,do,ko,sil,di,chu,mo,sil1,ga,le,sil2,['-'],,,none,none,,,,ji,4,,,,,,,,,,,,,,,3 ,3.0,Castellano,Desde que tengo uso de razón,Catalán,9 aprox,Inglés,9 aprox,4.0,4.0,yes,yes,yes,Guitarra,9,Voz,9,,,"Quizá hacia al final de la prueba es más difícil mantener la atención porque se hace repetitiva la tarea y entras en una especie de somnolencia por repetición... Espero que sirva de algo, gracias por dejarnos participar. ",68.0,yes
115,2023-11-19_12h42.00.600,Unsyncopated1,s75,23.0,masculino,right,España,Lengua castellana y catalán,Upper secondary,no,no,A,1,when,L3,unsyncopated,when,when,115,Online_whenL3//d.ji19.1776.wav,gu,ñe,chu,sil,li,di,le,sil1,ji,fu,sil2,['catch'],[2.6161000000089416],[2.6161000000089416],1.776,beat,0.8401000000089416,0.8401000000089416,"[""space""]",ji,4,,,,,,,,,,,,,,,3 ,3.0,Castellano,Desde que tengo uso de razón,Catalán,9 aprox,Inglés,9 aprox,4.0,4.0,yes,yes,yes,Guitarra,9,Voz,9,,,"Quizá hacia al final de la prueba es más difícil mantener la atención porque se hace repetitiva la tarea y entras en una especie de somnolencia por repetición... Espero que sirva de algo, gracias por dejarnos participar. ",68.0,yes
116,2023-11-19_12h42.00.600,Unsyncopated1,s75,23.0,masculino,right,España,Lengua castellana y catalán,Upper secondary,no,no,A,1,when,L3,unsyncopated,when,when,116,Online_whenL3//b.ñe16.1110.wav,do,je,li,sil,gu,ñe,sa,sil1,ji,ko,sil2,['catch'],[1.7900999999940268],[1.7900999999940268],1.11,no_beat,0.6800999999940267,0.6800999999940267,"[""space""]",ñe,1,,,,,,,,,,,,,,,3 ,3.0,Castellano,Desde que tengo uso de razón,Catalán,9 aprox,Inglés,9 aprox,4.0,4.0,yes,yes,yes,Guitarra,9,Voz,9,,,"Quizá hacia al final de la prueba es más difícil mantener la atención porque se hace repetitiva la tarea y entras en una especie de somnolencia por repetición... Espero que sirva de algo, gracias por dejarnos participar. ",68.0,yes
117,2023-11-19_12h42.00.600,Unsyncopated1,s75,23.0,masculino,right,España,Lengua castellana y catalán,Upper secondary,no,no,A,1,when,L3,unsyncopated,when,when,117,Online_whenL3//b.ñe19.1776.wav,ji,mo,li,sil,le,ko,fu,sil1,ñe,do,sil2,['catch_delay'],[0.9779000000058551],[0.9779000000058551],1.776,beat,0.9779000000058552,0.9779000000058552,,ñe,1,,,,,,,,,,,,,,,3 ,3.0,Castellano,Desde que tengo uso de razón,Catalán,9 aprox,Inglés,9 aprox,4.0,4.0,yes,yes,yes,Guitarra,9,Voz,9,,,"Quizá hacia al final de la prueba es más difícil mantener la atención porque se hace repetitiva la tarea y entras en una especie de somnolencia por repetición... Espero que sirva de algo, gracias por dejarnos participar. ",68.0,yes
118,2023-11-19_12h42.00.600,Unsyncopated1,s75,23.0,masculino,right,España,Lengua castellana y catalán,Upper secondary,no,no,A,1,when,L3,unsyncopated,when,when,118,Online_whenL3//b.ñe17.1998.wav,fu,ga,ka,sil,ji,chu,di,sil1,je,ñe,sil2,['catch_delay'],[0.7557000000030631],[0.7557000000030631],1.998,no_beat,0.7557000000030631,0.7557000000030631,"[""space""]",ñe,1,,,,,,,,,,,,,,,3 ,3.0,Castellano,Desde que tengo uso de razón,Catalán,9 aprox,Inglés,9 aprox,4.0,4.0,yes,yes,yes,Guitarra,9,Voz,9,,,"Quizá hacia al final de la prueba es más difícil mantener la atención porque se hace repetitiva la tarea y entras en una especie de somnolencia por repetición... Espero que sirva de algo, gracias por dejarnos participar. ",68.0,yes
119,2023-11-19_12h42.00.600,Unsyncopated1,s75,23.0,masculino,right,España,Lengua castellana y catalán,Upper secondary,no,no,A,1,when,L3,unsyncopated,when,when,119,Online_whenL3//b.ñe18.none.wav,sa,di,chu,sil,do,fu,ko,sil1,gu,ji,sil2,['-'],[0.089700000003063],[0.089700000003063],none,none,,,"[""space""]",ñe,1,,,,,,,,,,,,,,,3 ,3.0,Castellano,Desde que tengo uso de razón,Catalán,9 aprox,Inglés,9 aprox,4.0,4.0,yes,yes,yes,Guitarra,9,Voz,9,,,"Quizá hacia al final de la prueba es más difícil mantener la atención porque se hace repetitiva la tarea y entras en una especie de somnolencia por repetición... Espero que sirva de algo, gracias por dejarnos participar. ",68.0,yes
120,2023-11-19_12h42.00.600,Unsyncopated1,s75,23.0,masculino,right,España,Lengua castellana y catalán,Upper secondary,no,no,A,1,when,L3,unsyncopated,when,when,120,Online_whenL3//c.gu29.1110.wav,mo,je,ko,sil,ñe,gu,ka,sil1,li,ga,sil2,['false alarm'],[1.0342999999969607],[1.0342999999969607],1.11,no_beat,,,"[""space""]",gu,3,,,,,,,,,,,,,,,3 ,3.0,Castellano,Desde que tengo uso de razón,Catalán,9 aprox,Inglés,9 aprox,4.0,4.0,yes,yes,yes,Guitarra,9,Voz,9,,,"Quizá hacia al final de la prueba es más difícil mantener la atención porque se hace repetitiva la tarea y entras en una especie de somnolencia por repetición... Espero que sirva de algo, gracias por dejarnos participar. ",68.0,yes
121,2023-11-19_12h42.00.600,Unsyncopated1,s75,23.0,masculino,right,España,Lengua castellana y catalán,Upper secondary,no,no,A,1,when,L3,unsyncopated,when,when,121,Online_whenL3//c.gu31.none.wav,ka,ñe,sa,sil,li,do,le,sil1,ji,ko,sil2,['-'],,,none,none,,,,gu,3,,,,,,,,,,,,,,,3 ,3.0,Castellano,Desde que tengo uso de razón,Catalán,9 aprox,Inglés,9 aprox,4.0,4.0,yes,yes,yes,Guitarra,9,Voz,9,,,"Quizá hacia al final de la prueba es más difícil mantener la atención porque se hace repetitiva la tarea y entras en una especie de somnolencia por repetición... Espero que sirva de algo, gracias por dejarnos participar. ",68.0,yes
122,2023-11-19_12h42.00.600,Unsyncopated1,s75,23.0,masculino,right,España,Lengua castellana y catalán,Upper secondary,no,no,A,1,when,L3,unsyncopated,when,when,122,Online_whenL3//c.gu28.none.wav,chu,di,ko,sil,sa,le,ji,sil1,li,ka,sil2,['-'],,,none,none,,,,gu,3,,,,,,,,,,,,,,,3 ,3.0,Castellano,Desde que tengo uso de razón,Catalán,9 aprox,Inglés,9 aprox,4.0,4.0,yes,yes,yes,Guitarra,9,Voz,9,,,"Quizá hacia al final de la prueba es más difícil mantener la atención porque se hace repetitiva la tarea y entras en una especie de somnolencia por repetición... Espero que sirva de algo, gracias por dejarnos participar. ",68.0,yes
123,2023-11-19_12h42.00.600,Unsyncopated1,s75,23.0,masculino,right,España,Lengua castellana y catalán,Upper secondary,no,no,A,1,when,L3,unsyncopated,when,when,123,Online_whenL3//c.gu30.0.wav,gu,ka,ga,sil,mo,li,le,sil1,di,sa,sil2,['catch'],[0.9295000000000755],[0.9295000000000755],0.0,beat,0.9295000000000756,0.9295000000000756,"[""space""]",gu,3,,,,,,,,,,,,,,,3 ,3.0,Castellano,Desde que tengo uso de razón,Catalán,9 aprox,Inglés,9 aprox,4.0,4.0,yes,yes,yes,Guitarra,9,Voz,9,,,"Quizá hacia al final de la prueba es más difícil mantener la atención porque se hace repetitiva la tarea y entras en una especie de somnolencia por repetición... Espero que sirva de algo, gracias por dejarnos participar. ",68.0,yes
124,2023-11-19_12h42.00.600,Unsyncopated1,s75,23.0,masculino,right,España,Lengua castellana y catalán,Upper secondary,no,no,A,1,when,L3,unsyncopated,when,when,124,Online_whenL3//c.gu13.none.wav,ñe,ko,chu,sil,di,je,fu,sil1,do,le,sil2,['-'],,,none,none,,,,gu,3,,,,,,,,,,,,,,,3 ,3.0,Castellano,Desde que tengo uso de razón,Catalán,9 aprox,Inglés,9 aprox,4.0,4.0,yes,yes,yes,Guitarra,9,Voz,9,,,"Quizá hacia al final de la prueba es más difícil mantener la atención porque se hace repetitiva la tarea y entras en una especie de somnolencia por repetición... Espero que sirva de algo, gracias por dejarnos participar. ",68.0,yes
125,2023-11-19_12h42.00.600,Unsyncopated1,s75,23.0,masculino,right,España,Lengua castellana y catalán,Upper secondary,no,no,A,1,when,L3,unsyncopated,when,when,125,Online_whenL3//c.gu15.none.wav,je,chu,li,sil,mo,ko,di,sil1,ji,do,sil2,['-'],,,none,none,,,,gu,3,,,,,,,,,,,,,,,3 ,3.0,Castellano,Desde que tengo uso de razón,Catalán,9 aprox,Inglés,9 aprox,4.0,4.0,yes,yes,yes,Guitarra,9,Voz,9,,,"Quizá hacia al final de la prueba es más difícil mantener la atención porque se hace repetitiva la tarea y entras en una especie de somnolencia por repetición... Espero que sirva de algo, gracias por dejarnos participar. ",68.0,yes
126,2023-11-19_12h42.00.600,Unsyncopated1,s75,23.0,masculino,right,España,Lengua castellana y catalán,Upper secondary,no,no,A,1,when,L3,unsyncopated,when,when,126,Online_whenL3//c.gu12.0.wav,gu,sa,ji,sil,je,ko,do,sil1,le,chu,sil2,['miss'],,,0.0,beat,,,,gu,3,,,,,,,,,,,,,,,3 ,3.0,Castellano,Desde que tengo uso de razón,Catalán,9 aprox,Inglés,9 aprox,4.0,4.0,yes,yes,yes,Guitarra,9,Voz,9,,,"Quizá hacia al final de la prueba es más difícil mantener la atención porque se hace repetitiva la tarea y entras en una especie de somnolencia por repetición... Espero que sirva de algo, gracias por dejarnos participar. ",68.0,yes
127,2023-11-19_12h42.00.600,Unsyncopated1,s75,23.0,masculino,right,España,Lengua castellana y catalán,Upper secondary,no,no,A,1,when,L3,unsyncopated,when,when,127,Online_whenL3//c.gu14.444.wav,ka,le,gu,sil,chu,mo,do,sil1,fu,ji,sil2,['miss'],,,0.444,no_beat,,,,gu,3,,,,,,,,,,,,,,,3 ,3.0,Castellano,Desde que tengo uso de razón,Catalán,9 aprox,Inglés,9 aprox,4.0,4.0,yes,yes,yes,Guitarra,9,Voz,9,,,"Quizá hacia al final de la prueba es más difícil mantener la atención porque se hace repetitiva la tarea y entras en una especie de somnolencia por repetición... Espero que sirva de algo, gracias por dejarnos participar. ",68.0,yes
128,2023-11-19_12h42.00.600,Unsyncopated1,s75,23.0,masculino,right,España,Lengua castellana y catalán,Upper secondary,no,no,A,1,when,L3,unsyncopated,when,when,128,Online_whenL3//a.mo1.888.wav,do,ka,fu,sil,mo,ñe,le,sil1,ko,ji,sil2,['catch'],[1.8281000000090444],[1.8281000000090444],0.888,beat,0.9401000000090444,0.9401000000090444,"[""space""]",mo,2,,,,,,,,,,,,,,,3 ,3.0,Castellano,Desde que tengo uso de razón,Catalán,9 aprox,Inglés,9 aprox,4.0,4.0,yes,yes,yes,Guitarra,9,Voz,9,,,"Quizá hacia al final de la prueba es más difícil mantener la atención porque se hace repetitiva la tarea y entras en una especie de somnolencia por repetición... Espero que sirva de algo, gracias por dejarnos participar. ",68.0,yes
129,2023-11-19_12h42.00.600,Unsyncopated1,s75,23.0,masculino,right,España,Lengua castellana y catalán,Upper secondary,no,no,A,1,when,L3,unsyncopated,when,when,129,Online_whenL3//a.mo0.222.wav,do,mo,fu,sil,le,ji,gu,sil1,ka,ñe,sil2,['miss'],,,0.222,no_beat,,,,mo,2,,,,,,,,,,,,,,,3 ,3.0,Castellano,Desde que tengo uso de razón,Catalán,9 aprox,Inglés,9 aprox,4.0,4.0,yes,yes,yes,Guitarra,9,Voz,9,,,"Quizá hacia al final de la prueba es más difícil mantener la atención porque se hace repetitiva la tarea y entras en una especie de somnolencia por repetición... Espero que sirva de algo, gracias por dejarnos participar. ",68.0,yes
130,2023-11-19_12h42.00.600,Unsyncopated1,s75,23.0,masculino,right,España,Lengua castellana y catalán,Upper secondary,no,no,A,1,when,L3,unsyncopated,when,when,130,Online_whenL3//a.mo2.none.wav,ko,li,ji,sil,je,sa,ñe,sil1,gu,ka,sil2,['-'],,,none,none,,,,mo,2,,,,,,,,,,,,,,,3 ,3.0,Castellano,Desde que tengo uso de razón,Catalán,9 aprox,Inglés,9 aprox,4.0,4.0,yes,yes,yes,Guitarra,9,Voz,9,,,"Quizá hacia al final de la prueba es más difícil mantener la atención porque se hace repetitiva la tarea y entras en una especie de somnolencia por repetición... Espero que sirva de algo, gracias por dejarnos participar. ",68.0,yes
131,2023-11-19_12h42.00.600,Unsyncopated1,s75,23.0,masculino,right,España,Lengua castellana y catalán,Upper secondary,no,no,A,1,when,L3,unsyncopated,when,when,131,Online_whenL3//a.mo3.none.wav,chu,sa,gu,sil,ka,le,je,sil1,ga,di,sil2,['-'],,,none,none,,,,mo,2,,,,,,,,,,,,,,,3 ,3.0,Castellano,Desde que tengo uso de razón,Catalán,9 aprox,Inglés,9 aprox,4.0,4.0,yes,yes,yes,Guitarra,9,Voz,9,,,"Quizá hacia al final de la prueba es más difícil mantener la atención porque se hace repetitiva la tarea y entras en una especie de somnolencia por repetición... Espero que sirva de algo, gracias por dejarnos participar. ",68.0,yes
132,2023-11-19_12h42.00.600,Unsyncopated1,s75,23.0,masculino,right,España,Lengua castellana y catalán,Upper secondary,no,no,A,1,when,L3,unsyncopated,when,when,132,Online_whenL3//a.mo6.444.wav,fu,ko,mo,sil,chu,le,ji,sil1,ka,je,sil2,['catch'],[1.9122000000029402],[1.9122000000029402],0.444,no_beat,,1.4682000000029405,"[""space""]",mo,2,,,,,,,,,,,,,,,3 ,3.0,Castellano,Desde que tengo uso de razón,Catalán,9 aprox,Inglés,9 aprox,4.0,4.0,yes,yes,yes,Guitarra,9,Voz,9,,,"Quizá hacia al final de la prueba es más difícil mantener la atención porque se hace repetitiva la tarea y entras en una especie de somnolencia por repetición... Espero que sirva de algo, gracias por dejarnos participar. ",68.0,yes
133,2023-11-19_12h42.00.600,Unsyncopated1,s75,23.0,masculino,right,España,Lengua castellana y catalán,Upper secondary,no,no,A,1,when,L3,unsyncopated,when,when,133,Online_whenL3//a.mo7.none.wav,di,ko,ñe,sil,fu,je,gu,sil1,sa,ji,sil2,['-'],,,none,none,,,,mo,2,,,,,,,,,,,,,,,3 ,3.0,Castellano,Desde que tengo uso de razón,Catalán,9 aprox,Inglés,9 aprox,4.0,4.0,yes,yes,yes,Guitarra,9,Voz,9,,,"Quizá hacia al final de la prueba es más difícil mantener la atención porque se hace repetitiva la tarea y entras en una especie de somnolencia por repetición... Espero que sirva de algo, gracias por dejarnos participar. ",68.0,yes
134,2023-11-19_12h42.00.600,Unsyncopated1,s75,23.0,masculino,right,España,Lengua castellana y catalán,Upper secondary,no,no,A,1,when,L3,unsyncopated,when,when,134,Online_whenL3//a.mo4.1776.wav,ga,gu,sa,sil,ko,je,li,sil1,mo,do,sil2,['catch_delay'],[0.9813000000120502],[0.9813000000120502],1.776,beat,0.9813000000120502,0.9813000000120502,,mo,2,,,,,,,,,,,,,,,3 ,3.0,Castellano,Desde que tengo uso de razón,Catalán,9 aprox,Inglés,9 aprox,4.0,4.0,yes,yes,yes,Guitarra,9,Voz,9,,,"Quizá hacia al final de la prueba es más difícil mantener la atención porque se hace repetitiva la tarea y entras en una especie de somnolencia por repetición... Espero que sirva de algo, gracias por dejarnos participar. ",68.0,yes
135,2023-11-19_12h42.00.600,Unsyncopated1,s75,23.0,masculino,right,España,Lengua castellana y catalán,Upper secondary,no,no,A,1,when,L3,unsyncopated,when,when,135,Online_whenL3//a.mo5.222.wav,ko,mo,ji,sil,le,di,ga,sil1,li,sa,sil2,['catch'],"[0.09330000001205008, 1.6373000000121465]",[1.6373000000121465],0.222,no_beat,,1.4153000000121465,"[""space"",""space""]",mo,2,,,,,,,,,,,,,,,3 ,3.0,Castellano,Desde que tengo uso de razón,Catalán,9 aprox,Inglés,9 aprox,4.0,4.0,yes,yes,yes,Guitarra,9,Voz,9,,,"Quizá hacia al final de la prueba es más difícil mantener la atención porque se hace repetitiva la tarea y entras en una especie de somnolencia por repetición... Espero que sirva de algo, gracias por dejarnos participar. ",68.0,yes
