Unnamed: 0,date,expName,participant,age,sex,hand,residence,native_lang,education_level,lang_deficit,aud_deficit,group,block,condition,language,rhythm,rule structure online,rule type online,order_trial_on,trial_online,s1,s2,s3,s4,s5,s6,s7,s8,s9,s10,s11,catch_syll_resp,rts_syll_catch,clean_rts,time_syll,beat_no_beat,catch_rtsTR,catch_rts,syllable_catch.keys,cond_syll,syll_to_catch,test_offline,block_off,condition_off,rhythm_off,rule,rule_str_off,rule_norule,conds_offline,language_off,Partz_no_partm.keys,Partz_no_partm.rt,security_1_7.keys,accuracy,security_1_7.rt,n_lang,n_lang_used,lang_1,age_l1,lang_2,age_l2,lang_3,age_l3,ability_learn_l2,tendence_mix_lan,music_experience,muisc_use,partiture,instr_1,age_M1,preguntas_musica1,BMRQ_answer.response,final comment,BMRQ_Score,bilingual
0,2024-05-21_21h20.45.786,Unsyncopated_study2,s190,19.0,masculino,left,ESPAÑA,CatalánCastellano,Upper secondary,no,no,A,1,conjunction_syn,L1,syncopated,s2,r1,0,Online_conjL1_syn//b.ta.be7.none.none.wav,fa,ne,lu,pu,sil,zu,fo,ki,sil1,cho,sil2,['-'],,,none,none,,,,be,1,testConjL1Syn//dep_viol.r2.s1.0.wav,1.0,conjunction_syn,syncopated,b,s1,no_rule,dep,L1,m,4.8304,4.0,1.0,4.2509,3.0,2.0,Catalán,0.0,Castellano,0.0,Inglés,4.0,3.0,1.0,no,no,no,nada,,1. Cuando comparto música con alguien siento una complicidad especial con aquella persona.,3.0,nada,59.0,yes
1,2024-05-21_21h20.45.786,Unsyncopated_study2,s190,19.0,masculino,left,ESPAÑA,CatalánCastellano,Upper secondary,no,no,A,1,conjunction_syn,L1,syncopated,s2,r1,1,Online_conjL1_syn//b.ta.be5.none.none.wav,la,ro,cho,pu,sil,fa,ne,ki,sil1,ze,sil2,['-'],,,none,none,,,,be,1,testConjL1Syn//dep_viol.r1.s2.0.wav,1.0,conjunction_syn,syncopated,a,s2,no_rule,dep,L1,z,1.469,6.0,0.0,2.8747,3.0,2.0,Catalán,0.0,Castellano,0.0,Inglés,4.0,3.0,1.0,no,no,no,nada,,2. En mi tiempo libre apenas escucho música.,4.0,nada,59.0,yes
2,2024-05-21_21h20.45.786,Unsyncopated_study2,s190,19.0,masculino,left,ESPAÑA,CatalánCastellano,Upper secondary,no,no,A,1,conjunction_syn,L1,syncopated,s1,r1,2,Online_conjL1_syn//b.ta.be6.none.none.wav,pu,cho,fo,ki,sil,ni,ro,ri,sil1,lu,sil2,['-'],,,none,none,,,,be,1,testConjL1Syn//cat_viol.r1.s1.0.wav,1.0,conjunction_syn,syncopated,a,s1,no_rule,cat,L1,m,1.6521,3.0,1.0,3.2992,3.0,2.0,Catalán,0.0,Castellano,0.0,Inglés,4.0,3.0,1.0,no,no,no,nada,,3. Algunas canciones me ponen los pelos de punta,3.0,nada,59.0,yes
3,2024-05-21_21h20.45.786,Unsyncopated_study2,s190,19.0,masculino,left,ESPAÑA,CatalánCastellano,Upper secondary,no,no,A,1,conjunction_syn,L1,syncopated,s1,r1,3,Online_conjL1_syn//b.ta.be4.none.none.wav,pu,la,fo,ki,sil,cho,ze,lu,sil1,ri,sil2,['-'],,,none,none,,,,be,1,testConjL1Syn//r2.s2.1.wav,1.0,conjunction_syn,syncopated,b,s2,rule,rule,L1,z,1.5803,3.0,1.0,0.9399,3.0,2.0,Catalán,0.0,Castellano,0.0,Inglés,4.0,3.0,1.0,no,no,no,nada,,4. La música me hace compañía cuando estoy solo,2.0,nada,59.0,yes
4,2024-05-21_21h20.45.786,Unsyncopated_study2,s190,19.0,masculino,left,ESPAÑA,CatalánCastellano,Upper secondary,no,no,A,1,conjunction_syn,L1,syncopated,s1,r2,4,Online_conjL1_syn//c.ro.fo1.none.none.wav,ta,ni,lu,be,sil,zu,ze,fa,sil1,la,sil2,['-'],,,none,none,,,,fo,3,testConjL1Syn//cat_viol.r2.s1.0.wav,1.0,conjunction_syn,syncopated,b,s1,no_rule,cat,L1,m,0.974,3.0,1.0,1.1869,3.0,2.0,Catalán,0.0,Castellano,0.0,Inglés,4.0,3.0,1.0,no,no,no,nada,,5. No me apetece bailar ni con la música que más me gusta,4.0,nada,59.0,yes
5,2024-05-21_21h20.45.786,Unsyncopated_study2,s190,19.0,masculino,left,ESPAÑA,CatalánCastellano,Upper secondary,no,no,A,1,conjunction_syn,L1,syncopated,s2,r1,5,Online_conjL1_syn//c.ro.fo3.none.none.wav,lu,ni,ze,pu,sil,ne,ri,ki,sil1,cho,sil2,['-'],,,none,none,,,,fo,3,testConjL1Syn//r1.s2.2.wav,1.0,conjunction_syn,syncopated,a,s2,rule,rule,L1,z,1.1757,5.0,1.0,1.2593,3.0,2.0,Catalán,0.0,Castellano,0.0,Inglés,4.0,3.0,1.0,no,no,no,nada,,6. La música me hace conectar con la gente,3.0,nada,59.0,yes
6,2024-05-21_21h20.45.786,Unsyncopated_study2,s190,19.0,masculino,left,ESPAÑA,CatalánCastellano,Upper secondary,no,no,A,1,conjunction_syn,L1,syncopated,s2,r1,6,Online_conjL1_syn//c.ro.fo0.444.1110.wav,fa,la,ro,pu,sil,fo,lu,ki,sil1,ze,sil2,['false alarm'],[0.008700000003045716],[0.008700000003045716],0.444,no_beat,,,"[""space""]",fo,3,testConjL1Syn//r2.s2.0.wav,1.0,conjunction_syn,syncopated,b,s2,rule,rule,L1,z,3.318,5.0,1.0,2.1768,3.0,2.0,Catalán,0.0,Castellano,0.0,Inglés,4.0,3.0,1.0,no,no,no,nada,,7. Me informo sobre la música que me gusta.,3.0,nada,59.0,yes
7,2024-05-21_21h20.45.786,Unsyncopated_study2,s190,19.0,masculino,left,ESPAÑA,CatalánCastellano,Upper secondary,no,no,A,1,conjunction_syn,L1,syncopated,s1,r2,7,Online_conjL1_syn//c.ro.fo2.none.none.wav,ta,ze,ni,be,sil,zu,cho,lu,sil1,la,sil2,['-'],,,none,none,,,,fo,3,testConjL1Syn//r1.s1.2.wav,1.0,conjunction_syn,syncopated,a,s1,rule,rule,L1,m,1.3646,3.0,0.0,1.5944,3.0,2.0,Catalán,0.0,Castellano,0.0,Inglés,4.0,3.0,1.0,no,no,no,nada,,8.Me emociono escuchando ciertas canciones.,3.0,nada,59.0,yes
8,2024-05-21_21h20.45.786,Unsyncopated_study2,s190,19.0,masculino,left,ESPAÑA,CatalánCastellano,Upper secondary,no,no,A,1,conjunction_syn,L1,syncopated,s2,r2,8,Online_conjL1_syn//c.ro.fo10.222.444.wav,zu,ro,fo,ta,sil,ni,cho,be,sil1,ze,sil2,['catch'],[0.8105000000000473],[0.8105000000000473],0.222,no_beat,0.5885000000000473,0.5885000000000473,"[""space""]",fo,3,testConjL1Syn//time_viol.r1.s2.0.wav,1.0,conjunction_syn,syncopated,a,s2,no_rule,time,L1,m,1.3217,6.0,1.0,1.5794,3.0,2.0,Catalán,0.0,Castellano,0.0,Inglés,4.0,3.0,1.0,no,no,no,nada,,9.La música me tranquiliza y me relaja.,3.0,nada,59.0,yes
9,2024-05-21_21h20.45.786,Unsyncopated_study2,s190,19.0,masculino,left,ESPAÑA,CatalánCastellano,Upper secondary,no,no,A,1,conjunction_syn,L1,syncopated,s1,r2,9,Online_conjL1_syn//c.ro.fo8.444.1332.wav,ta,lu,ro,be,sil,ni,fo,zu,sil1,fa,sil2,['catch'],[1.5870999999940523],[1.5870999999940523],0.444,no_beat,1.1430999999940523,1.1430999999940523,"[""space""]",fo,3,testConjL1Syn//r2.s1.0.wav,1.0,conjunction_syn,syncopated,b,s1,rule,rule,L1,m,2.0036,6.0,0.0,1.1291,3.0,2.0,Catalán,0.0,Castellano,0.0,Inglés,4.0,3.0,1.0,no,no,no,nada,,10.La música me hace bailar,3.0,nada,59.0,yes
10,2024-05-21_21h20.45.786,Unsyncopated_study2,s190,19.0,masculino,left,ESPAÑA,CatalánCastellano,Upper secondary,no,no,A,1,conjunction_syn,L1,syncopated,s2,r1,10,Online_conjL1_syn//c.ro.fo11.none.none.wav,ze,zu,ni,pu,sil,la,cho,ki,sil1,ne,sil2,['-'],,,none,none,,,,fo,3,testConjL1Syn//time_viol.r2.s1.0.wav,1.0,conjunction_syn,syncopated,b,s1,no_rule,time,L1,m,0.4777,7.0,1.0,0.4766,3.0,2.0,Catalán,0.0,Castellano,0.0,Inglés,4.0,3.0,1.0,no,no,no,nada,,11.Busco novedades musicales continuamente,1.0,nada,59.0,yes
11,2024-05-21_21h20.45.786,Unsyncopated_study2,s190,19.0,masculino,left,ESPAÑA,CatalánCastellano,Upper secondary,no,no,A,1,conjunction_syn,L1,syncopated,s1,r1,11,Online_conjL1_syn//c.ro.fo9.1554.1110.wav,pu,ni,lu,ki,sil,fo,fa,ro,sil1,ne,sil2,['catch'],[2.087799999996946],[2.087799999996946],1.554,no_beat,0.533799999996946,0.533799999996946,"[""space""]",fo,3,testConjL1Syn//r1.s2.0.wav,1.0,conjunction_syn,syncopated,a,s2,rule,rule,L1,z,0.8302,6.0,1.0,1.2542,3.0,2.0,Catalán,0.0,Castellano,0.0,Inglés,4.0,3.0,1.0,no,no,no,nada,,12. Puedo llorar cuando escucho algunas melodías que me gustan mucho.,3.0,nada,59.0,yes
12,2024-05-21_21h20.45.786,Unsyncopated_study2,s190,19.0,masculino,left,ESPAÑA,CatalánCastellano,Upper secondary,no,no,A,1,conjunction_syn,L1,syncopated,s1,r1,12,Online_conjL1_syn//d.ne.ni4.222.1332.wav,pu,ne,cho,ki,sil,ri,ni,ro,sil1,zu,sil2,['catch'],[1.0148999999911439],[1.0148999999911439],0.222,no_beat,0.7928999999911439,0.7928999999911439,"[""space""]",ni,4,testConjL1Syn//r2.s1.2.wav,1.0,conjunction_syn,syncopated,b,s1,rule,rule,L1,m,0.5716,7.0,0.0,0.8967,3.0,2.0,Catalán,0.0,Castellano,0.0,Inglés,4.0,3.0,1.0,no,no,no,nada,,13. Me gusta cantar o tocar un instrumento con más gente,3.0,nada,59.0,yes
13,2024-05-21_21h20.45.786,Unsyncopated_study2,s190,19.0,masculino,left,ESPAÑA,CatalánCastellano,Upper secondary,no,no,A,1,conjunction_syn,L1,syncopated,s1,r1,13,Online_conjL1_syn//d.ne.ni7.444.1110.wav,pu,lu,ne,ki,sil,ni,ri,ze,sil1,zu,sil2,"['catch', 'false alarm']","[0.877200000002972, 1.7397000000030403]",[0.877200000002972],0.444,no_beat,0.433200000002972,0.433200000002972,"[""space"",""space""]",ni,4,testConjL1Syn//cat_viol.r2.s2.0.wav,1.0,conjunction_syn,syncopated,b,s2,no_rule,cat,L1,z,0.3347,7.0,0.0,1.4052,3.0,2.0,Catalán,0.0,Castellano,0.0,Inglés,4.0,3.0,1.0,no,no,no,nada,,14. La música me ayuda a desconectar.,3.0,nada,59.0,yes
14,2024-05-21_21h20.45.786,Unsyncopated_study2,s190,19.0,masculino,left,ESPAÑA,CatalánCastellano,Upper secondary,no,no,A,1,conjunction_syn,L1,syncopated,s2,r1,14,Online_conjL1_syn//d.ne.ni5.none.none.wav,zu,ri,ze,pu,sil,cho,fa,ki,sil1,la,sil2,['-'],,,none,none,,,,ni,4,testConjL1Syn//r1.s2.1.wav,1.0,conjunction_syn,syncopated,a,s2,rule,rule,L1,z,0.572,4.0,1.0,2.0631,3.0,2.0,Catalán,0.0,Castellano,0.0,Inglés,4.0,3.0,1.0,no,no,no,nada,,15. No puedo evitar tararear las canciones que me gustan cuando las escucho.,4.0,nada,59.0,yes
15,2024-05-21_21h20.45.786,Unsyncopated_study2,s190,19.0,masculino,left,ESPAÑA,CatalánCastellano,Upper secondary,no,no,A,1,conjunction_syn,L1,syncopated,s1,r2,15,Online_conjL1_syn//d.ne.ni6.444.1110.wav,ta,zu,ne,be,sil,ni,ze,la,sil1,fa,sil2,['catch'],[1.0093999999910466],[1.0093999999910466],0.444,no_beat,0.5653999999910466,0.5653999999910466,"[""space""]",ni,4,testConjL1Syn//time_viol.r2.s2.0.wav,1.0,conjunction_syn,syncopated,b,s2,no_rule,time,L1,m,2.3521,5.0,1.0,1.5461,3.0,2.0,Catalán,0.0,Castellano,0.0,Inglés,4.0,3.0,1.0,no,no,no,nada,,16. En los conciertos me siento en sintonía con los artistas y el público.,3.0,nada,59.0,yes
16,2024-05-21_21h20.45.786,Unsyncopated_study2,s190,19.0,masculino,left,ESPAÑA,CatalánCastellano,Upper secondary,no,no,A,1,conjunction_syn,L1,syncopated,s2,r2,16,Online_conjL1_syn//b.ta.be24.666.1554.wav,fo,ni,ro,ta,sil,ri,cho,be,sil1,ne,sil2,['catch'],[1.162200000003054],[1.162200000003054],0.666,no_beat,0.4962000000030538,0.4962000000030538,"[""space""]",be,1,testConjL1Syn//dep_viol.r1.s1.0.wav,1.0,conjunction_syn,syncopated,a,s1,no_rule,dep,L1,m,1.3557,6.0,1.0,0.809,3.0,2.0,Catalán,0.0,Castellano,0.0,Inglés,4.0,3.0,1.0,no,no,no,nada,,17. Me gasto bastante dinero en música y cosas relacionadas con la música.,3.0,nada,59.0,yes
17,2024-05-21_21h20.45.786,Unsyncopated_study2,s190,19.0,masculino,left,ESPAÑA,CatalánCastellano,Upper secondary,no,no,A,1,conjunction_syn,L1,syncopated,s1,r1,17,Online_conjL1_syn//b.ta.be27.none.none.wav,pu,ze,lu,ki,sil,ro,fo,ni,sil1,ri,sil2,['-'],,,none,none,,,,be,1,testConjL1Syn//r1.s1.0.wav,1.0,conjunction_syn,syncopated,a,s1,rule,rule,L1,z,0.7527,6.0,1.0,1.0087,3.0,2.0,Catalán,0.0,Castellano,0.0,Inglés,4.0,3.0,1.0,no,no,no,nada,,18. Siento escalofríos cuando escucho una melodía que me gusta.,2.0,nada,59.0,yes
18,2024-05-21_21h20.45.786,Unsyncopated_study2,s190,19.0,masculino,left,ESPAÑA,CatalánCastellano,Upper secondary,no,no,A,1,conjunction_syn,L1,syncopated,s2,r2,18,Online_conjL1_syn//b.ta.be26.666.1554.wav,cho,lu,la,ta,sil,fo,ro,be,sil1,zu,sil2,['catch'],[1.0881999999880918],[1.0881999999880918],0.666,no_beat,0.4221999999880917,0.4221999999880917,"[""space""]",be,1,testConjL1Syn//r1.s1.1.wav,1.0,conjunction_syn,syncopated,a,s1,rule,rule,L1,m,1.6833,4.0,0.0,0.1813,3.0,2.0,Catalán,0.0,Castellano,0.0,Inglés,4.0,3.0,1.0,no,no,no,nada,,19. Con la música me puedo desahogar.,3.0,nada,59.0,yes
19,2024-05-21_21h20.45.786,Unsyncopated_study2,s190,19.0,masculino,left,ESPAÑA,CatalánCastellano,Upper secondary,no,no,A,1,conjunction_syn,L1,syncopated,s1,r2,19,Online_conjL1_syn//b.ta.be25.0.666.wav,ta,ri,ze,be,sil,ni,cho,lu,sil1,ne,sil2,['miss'],,,0.0,beat,,,,be,1,testConjL1Syn//r2.s2.2.wav,1.0,conjunction_syn,syncopated,b,s2,rule,rule,L1,m,0.31,5.0,0.0,0.5009,3.0,2.0,Catalán,0.0,Castellano,0.0,Inglés,4.0,3.0,1.0,no,no,no,nada,,20. Cuando escucho una melodía que me gusta mucho no puedo evitar mover el cuerpo.,3.0,nada,59.0,yes
20,2024-05-21_21h20.45.786,Unsyncopated_study2,s190,19.0,masculino,left,ESPAÑA,CatalánCastellano,Upper secondary,no,no,A,1,conjunction_syn,L1,syncopated,s2,r1,20,Online_conjL1_syn//d.ne.ni19.none.none.wav,la,ro,cho,pu,sil,ri,zu,ki,sil1,fo,sil2,['false alarm'],[1.6435000000000173],[1.6435000000000173],none,none,,,"[""space""]",ni,4,testConjL1Syn//dep_viol.r2.s2.0.wav,1.0,conjunction_syn,syncopated,b,s2,no_rule,dep,L1,m,0.4037,3.0,1.0,0.2445,3.0,2.0,Catalán,0.0,Castellano,0.0,Inglés,4.0,3.0,1.0,no,no,no,nada,,,,nada,59.0,yes
21,2024-05-21_21h20.45.786,Unsyncopated_study2,s190,19.0,masculino,left,ESPAÑA,CatalánCastellano,Upper secondary,no,no,A,1,conjunction_syn,L1,syncopated,s1,r2,21,Online_conjL1_syn//d.ne.ni16.1332.222.wav,ta,ni,lu,be,sil,ri,ne,fo,sil1,ze,sil2,['catch'],[1.884099999993964],[1.884099999993964],1.332,no_beat,0.552099999993964,0.552099999993964,"[""space""]",ni,4,testConjL1Syn//time_viol.r1.s1.0.wav,1.0,conjunction_syn,syncopated,a,s1,no_rule,time,L1,m,0.6684,6.0,1.0,0.8697,3.0,2.0,Catalán,0.0,Castellano,0.0,Inglés,4.0,3.0,1.0,no,no,no,nada,,,,nada,59.0,yes
22,2024-05-21_21h20.45.786,Unsyncopated_study2,s190,19.0,masculino,left,ESPAÑA,CatalánCastellano,Upper secondary,no,no,A,1,conjunction_syn,L1,syncopated,s2,r2,22,Online_conjL1_syn//d.ne.ni17.none.none.wav,ze,lu,ri,ta,sil,fo,cho,be,sil1,fa,sil2,['-'],,,none,none,,,,ni,4,testConjL1Syn//cat_viol.r1.s2.0.wav,1.0,conjunction_syn,syncopated,a,s2,no_rule,cat,L1,z,0.5633,5.0,0.0,0.9129,3.0,2.0,Catalán,0.0,Castellano,0.0,Inglés,4.0,3.0,1.0,no,no,no,nada,,,,nada,59.0,yes
23,2024-05-21_21h20.45.786,Unsyncopated_study2,s190,19.0,masculino,left,ESPAÑA,CatalánCastellano,Upper secondary,no,no,A,1,conjunction_syn,L1,syncopated,s2,r2,23,Online_conjL1_syn//d.ne.ni18.none.none.wav,lu,ri,cho,ta,sil,ze,ro,be,sil1,fo,sil2,['-'],,,none,none,,,,ni,4,testConjL1Syn//r2.s1.1.wav,1.0,conjunction_syn,syncopated,b,s1,rule,rule,L1,m,0.4525,6.0,0.0,0.4339,3.0,2.0,Catalán,0.0,Castellano,0.0,Inglés,4.0,3.0,1.0,no,no,no,nada,,,,nada,59.0,yes
24,2024-05-21_21h20.45.786,Unsyncopated_study2,s190,19.0,masculino,left,ESPAÑA,CatalánCastellano,Upper secondary,no,no,A,1,conjunction_syn,L1,syncopated,s1,r1,24,Online_conjL1_syn//a.pu.ki7.0.666.wav,pu,ri,zu,ki,sil,ne,ze,cho,sil1,la,sil2,['catch'],[1.086900000005926],[1.086900000005926],0.666,no_beat,0.4209000000059258,0.4209000000059258,"[""space""]",pu,2,testConjL2Uns//dep_viol.r1.s1.0.wav,2.0,conjunction_un,unsyncopated,a,s1,no_rule,dep,L2,z,1.4438,7.0,0.0,0.6977,3.0,2.0,Catalán,0.0,Castellano,0.0,Inglés,4.0,3.0,1.0,no,no,no,nada,,,,nada,59.0,yes
25,2024-05-21_21h20.45.786,Unsyncopated_study2,s190,19.0,masculino,left,ESPAÑA,CatalánCastellano,Upper secondary,no,no,A,1,conjunction_syn,L1,syncopated,s2,r2,25,Online_conjL1_syn//a.pu.ki6.none.none.wav,ne,ni,la,ta,sil,zu,cho,be,sil1,ze,sil2,['false alarm'],[0.9115000000000464],[0.9115000000000464],none,none,,,"[""space""]",pu,2,testConjL2Uns//cat_viol.r1.s2.0.wav,2.0,conjunction_un,unsyncopated,a,s2,no_rule,cat,L2,z,0.8575,5.0,0.0,1.0457,3.0,2.0,Catalán,0.0,Castellano,0.0,Inglés,4.0,3.0,1.0,no,no,no,nada,,,,nada,59.0,yes
26,2024-05-21_21h20.45.786,Unsyncopated_study2,s190,19.0,masculino,left,ESPAÑA,CatalánCastellano,Upper secondary,no,no,A,1,conjunction_syn,L1,syncopated,s1,r1,26,Online_conjL1_syn//a.pu.ki5.0.666.wav,pu,ne,ro,ki,sil,cho,ri,fa,sil1,lu,sil2,['catch'],[2.13339999999107],[2.13339999999107],0.666,no_beat,,1.4673999999910703,"[""space""]",pu,2,testConjL2Uns//dep_viol.r2.s1.0.wav,2.0,conjunction_un,unsyncopated,b,s1,no_rule,dep,L2,m,0.3197,2.0,1.0,1.7043,3.0,2.0,Catalán,0.0,Castellano,0.0,Inglés,4.0,3.0,1.0,no,no,no,nada,,,,nada,59.0,yes
27,2024-05-21_21h20.45.786,Unsyncopated_study2,s190,19.0,masculino,left,ESPAÑA,CatalánCastellano,Upper secondary,no,no,A,1,conjunction_syn,L1,syncopated,s1,r2,27,Online_conjL1_syn//a.pu.ki4.none.none.wav,ta,ze,ri,be,sil,zu,fo,ne,sil1,lu,sil2,['-'],,,none,none,,,,pu,2,testConjL2Uns//dep_viol.r1.s2.0.wav,2.0,conjunction_un,unsyncopated,a,s2,no_rule,dep,L2,m,0.9324,4.0,1.0,0.3234,3.0,2.0,Catalán,0.0,Castellano,0.0,Inglés,4.0,3.0,1.0,no,no,no,nada,,,,nada,59.0,yes
28,2024-05-21_21h20.45.786,Unsyncopated_study2,s190,19.0,masculino,left,ESPAÑA,CatalánCastellano,Upper secondary,no,no,A,1,conjunction_syn,L1,syncopated,s2,r1,28,Online_conjL1_syn//d.ne.ni8.222.444.wav,fo,ne,ni,pu,sil,ri,ze,ki,sil1,ro,sil2,['catch'],[0.9632999999969343],[0.9632999999969343],0.222,no_beat,0.7412999999969343,0.7412999999969343,"[""space""]",ni,4,testConjL2Uns//r2.s1.2.wav,2.0,conjunction_un,unsyncopated,b,s1,rule,rule,L2,z,1.3436,4.0,1.0,2.5878,3.0,2.0,Catalán,0.0,Castellano,0.0,Inglés,4.0,3.0,1.0,no,no,no,nada,,,,nada,59.0,yes
29,2024-05-21_21h20.45.786,Unsyncopated_study2,s190,19.0,masculino,left,ESPAÑA,CatalánCastellano,Upper secondary,no,no,A,1,conjunction_syn,L1,syncopated,s1,r2,29,Online_conjL1_syn//d.ne.ni10.none.none.wav,ta,ze,fo,be,sil,ro,zu,ri,sil1,lu,sil2,['-'],,,none,none,,,,ni,4,testConjL2Uns//r1.s1.1.wav,2.0,conjunction_un,unsyncopated,a,s1,rule,rule,L2,m,0.7171,5.0,0.0,0.586,3.0,2.0,Catalán,0.0,Castellano,0.0,Inglés,4.0,3.0,1.0,no,no,no,nada,,,,nada,59.0,yes
30,2024-05-21_21h20.45.786,Unsyncopated_study2,s190,19.0,masculino,left,ESPAÑA,CatalánCastellano,Upper secondary,no,no,A,1,conjunction_syn,L1,syncopated,s2,r2,30,Online_conjL1_syn//d.ne.ni9.0.444.wav,ne,fo,ni,ta,sil,lu,ri,be,sil1,cho,sil2,['catch'],[0.5502000000029739],[0.5502000000029739],0.0,beat,0.5502000000029739,0.5502000000029739,"[""space""]",ni,4,testConjL2Uns//r2.s1.0.wav,2.0,conjunction_un,unsyncopated,b,s1,rule,rule,L2,m,0.6257,7.0,0.0,0.9184,3.0,2.0,Catalán,0.0,Castellano,0.0,Inglés,4.0,3.0,1.0,no,no,no,nada,,,,nada,59.0,yes
31,2024-05-21_21h20.45.786,Unsyncopated_study2,s190,19.0,masculino,left,ESPAÑA,CatalánCastellano,Upper secondary,no,no,A,1,conjunction_syn,L1,syncopated,s1,r1,31,Online_conjL1_syn//d.ne.ni11.222.1332.wav,pu,ne,ri,ki,sil,la,ni,cho,sil1,ro,sil2,['catch'],[2.0461000000088916],[2.0461000000088916],0.222,no_beat,,1.824100000008892,"[""space""]",ni,4,testConjL2Uns//cat_viol.r2.s1.0.wav,2.0,conjunction_un,unsyncopated,b,s1,no_rule,cat,L2,m,0.232,6.0,1.0,0.5502,3.0,2.0,Catalán,0.0,Castellano,0.0,Inglés,4.0,3.0,1.0,no,no,no,nada,,,,nada,59.0,yes
32,2024-05-21_21h20.45.786,Unsyncopated_study2,s190,19.0,masculino,left,ESPAÑA,CatalánCastellano,Upper secondary,no,no,A,1,conjunction_syn,L1,syncopated,s1,r2,32,Online_conjL1_syn//a.pu.ki24.none.none.wav,ta,ne,la,be,sil,ri,fa,ze,sil1,zu,sil2,['-'],,,none,none,,,,pu,2,testConjL2Uns//r1.s2.1.wav,2.0,conjunction_un,unsyncopated,a,s2,rule,rule,L2,z,0.1112,6.0,1.0,1.6309,3.0,2.0,Catalán,0.0,Castellano,0.0,Inglés,4.0,3.0,1.0,no,no,no,nada,,,,nada,59.0,yes
33,2024-05-21_21h20.45.786,Unsyncopated_study2,s190,19.0,masculino,left,ESPAÑA,CatalánCastellano,Upper secondary,no,no,A,1,conjunction_syn,L1,syncopated,s1,r1,33,Online_conjL1_syn//a.pu.ki27.0.666.wav,pu,ze,lu,ki,sil,cho,fa,fo,sil1,ni,sil2,['catch'],[0.9600999999939859],[0.9600999999939859],0.666,no_beat,0.2940999999939858,0.2940999999939858,"[""space""]",pu,2,testConjL2Uns//r2.s2.1.wav,2.0,conjunction_un,unsyncopated,b,s2,rule,rule,L2,m,0.0348,6.0,0.0,0.5373,3.0,2.0,Catalán,0.0,Castellano,0.0,Inglés,4.0,3.0,1.0,no,no,no,nada,,,,nada,59.0,yes
34,2024-05-21_21h20.45.786,Unsyncopated_study2,s190,19.0,masculino,left,ESPAÑA,CatalánCastellano,Upper secondary,no,no,A,1,conjunction_syn,L1,syncopated,s2,r1,34,Online_conjL1_syn//a.pu.ki25.666.1554.wav,cho,la,ro,pu,sil,ze,ne,ki,sil1,ri,sil2,['catch'],[2.0801999999881673],[2.0801999999881673],1.554,no_beat,0.5261999999881672,0.5261999999881672,"[""space""]",pu,2,testConjL2Uns//cat_viol.r1.s1.0.wav,2.0,conjunction_un,unsyncopated,a,s1,no_rule,cat,L2,m,1.0713,4.0,1.0,0.1214,3.0,2.0,Catalán,0.0,Castellano,0.0,Inglés,4.0,3.0,1.0,no,no,no,nada,,,,nada,59.0,yes
35,2024-05-21_21h20.45.786,Unsyncopated_study2,s190,19.0,masculino,left,ESPAÑA,CatalánCastellano,Upper secondary,no,no,A,1,conjunction_syn,L1,syncopated,s1,r2,35,Online_conjL1_syn//a.pu.ki26.none.none.wav,ta,zu,lu,be,sil,ro,la,ri,sil1,fa,sil2,['-'],,,none,none,,,,pu,2,testConjL2Uns//time_viol.r1.s2.0.wav,2.0,conjunction_un,unsyncopated,a,s2,no_rule,time,L2,z,0.6477,6.0,0.0,1.5284,3.0,2.0,Catalán,0.0,Castellano,0.0,Inglés,4.0,3.0,1.0,no,no,no,nada,,,,nada,59.0,yes
36,2024-05-21_21h20.45.786,Unsyncopated_study2,s190,19.0,masculino,left,ESPAÑA,CatalánCastellano,Upper secondary,no,no,A,1,conjunction_syn,L1,syncopated,s1,r1,36,Online_conjL1_syn//a.pu.ki3.0.666.wav,pu,zu,la,ki,sil,fa,cho,ri,sil1,ro,sil2,['catch'],[1.3099999999999454],[1.3099999999999454],0.666,no_beat,0.6439999999999454,0.6439999999999454,"[""space""]",pu,2,testConjL2Uns//r2.s2.0.wav,2.0,conjunction_un,unsyncopated,b,s2,rule,rule,L2,z,0.9786,5.0,1.0,0.2258,3.0,2.0,Catalán,0.0,Castellano,0.0,Inglés,4.0,3.0,1.0,no,no,no,nada,,,,nada,59.0,yes
37,2024-05-21_21h20.45.786,Unsyncopated_study2,s190,19.0,masculino,left,ESPAÑA,CatalánCastellano,Upper secondary,no,no,A,1,conjunction_syn,L1,syncopated,s2,r1,37,Online_conjL1_syn//a.pu.ki1.666.1554.wav,ni,fo,fa,pu,sil,zu,lu,ki,sil1,ne,sil2,['catch'],[1.9986999999880481],[1.9986999999880481],1.554,no_beat,0.4446999999880481,0.4446999999880481,"[""space""]",pu,2,testConjL2Uns//dep_viol.r2.s2.0.wav,2.0,conjunction_un,unsyncopated,b,s2,no_rule,dep,L2,m,0.1811,3.0,1.0,0.1271,3.0,2.0,Catalán,0.0,Castellano,0.0,Inglés,4.0,3.0,1.0,no,no,no,nada,,,,nada,59.0,yes
38,2024-05-21_21h20.45.786,Unsyncopated_study2,s190,19.0,masculino,left,ESPAÑA,CatalánCastellano,Upper secondary,no,no,A,1,conjunction_syn,L1,syncopated,s1,r2,38,Online_conjL1_syn//a.pu.ki0.none.none.wav,ta,la,ni,be,sil,fa,lu,ro,sil1,fo,sil2,['-'],,,none,none,,,,pu,2,testConjL2Uns//r1.s2.2.wav,2.0,conjunction_un,unsyncopated,a,s2,rule,rule,L2,z,0.0242,6.0,1.0,0.2418,3.0,2.0,Catalán,0.0,Castellano,0.0,Inglés,4.0,3.0,1.0,no,no,no,nada,,,,nada,59.0,yes
39,2024-05-21_21h20.45.786,Unsyncopated_study2,s190,19.0,masculino,left,ESPAÑA,CatalánCastellano,Upper secondary,no,no,A,1,conjunction_syn,L1,syncopated,s2,r2,39,Online_conjL1_syn//a.pu.ki2.none.none.wav,ne,ro,ri,ta,sil,fa,ze,be,sil1,la,sil2,['-'],,,none,none,,,,pu,2,testConjL2Uns//time_viol.r2.s2.0.wav,2.0,conjunction_un,unsyncopated,b,s2,no_rule,time,L2,m,1.5463,4.0,1.0,0.0976,3.0,2.0,Catalán,0.0,Castellano,0.0,Inglés,4.0,3.0,1.0,no,no,no,nada,,,,nada,59.0,yes
40,2024-05-21_21h20.45.786,Unsyncopated_study2,s190,19.0,masculino,left,ESPAÑA,CatalánCastellano,Upper secondary,no,no,A,1,conjunction_syn,L1,syncopated,s2,r2,40,Online_conjL1_syn//d.ne.ni20.none.none.wav,ze,lu,ro,ta,sil,fa,ri,be,sil1,cho,sil2,['-'],,,none,none,,,,ni,4,testConjL2Uns//time_viol.r1.s1.0.wav,2.0,conjunction_un,unsyncopated,a,s1,no_rule,time,L2,m,0.2461,5.0,1.0,0.0912,3.0,2.0,Catalán,0.0,Castellano,0.0,Inglés,4.0,3.0,1.0,no,no,no,nada,,,,nada,59.0,yes
41,2024-05-21_21h20.45.786,Unsyncopated_study2,s190,19.0,masculino,left,ESPAÑA,CatalánCastellano,Upper secondary,no,no,A,1,conjunction_syn,L1,syncopated,s2,r2,41,Online_conjL1_syn//d.ne.ni22.1110.0.wav,ni,ze,lu,ta,sil,ne,cho,be,sil1,zu,sil2,['catch'],[2.4294000000060123],[2.4294000000060123],1.11,no_beat,,1.3194000000060122,"[""space""]",ni,4,testConjL2Uns//r1.s1.0.wav,2.0,conjunction_un,unsyncopated,a,s1,rule,rule,L2,m,0.0307,5.0,0.0,0.0979,3.0,2.0,Catalán,0.0,Castellano,0.0,Inglés,4.0,3.0,1.0,no,no,no,nada,,,,nada,59.0,yes
42,2024-05-21_21h20.45.786,Unsyncopated_study2,s190,19.0,masculino,left,ESPAÑA,CatalánCastellano,Upper secondary,no,no,A,1,conjunction_syn,L1,syncopated,s2,r1,42,Online_conjL1_syn//d.ne.ni23.0.444.wav,ne,fo,ni,pu,sil,ri,fa,ki,sil1,lu,sil2,['catch'],[0.6870000000000118],[0.6870000000000118],0.0,beat,0.6870000000000118,0.6870000000000118,"[""space""]",ni,4,testConjL2Uns//r1.s1.2.wav,2.0,conjunction_un,unsyncopated,a,s1,rule,rule,L2,m,0.5593,3.0,0.0,0.1677,3.0,2.0,Catalán,0.0,Castellano,0.0,Inglés,4.0,3.0,1.0,no,no,no,nada,,,,nada,59.0,yes
43,2024-05-21_21h20.45.786,Unsyncopated_study2,s190,19.0,masculino,left,ESPAÑA,CatalánCastellano,Upper secondary,no,no,A,1,conjunction_syn,L1,syncopated,s1,r1,43,Online_conjL1_syn//d.ne.ni21.none.none.wav,pu,lu,fo,ki,sil,ze,cho,ro,sil1,zu,sil2,['-'],,,none,none,,,,ni,4,testConjL2Uns//time_viol.r2.s1.0.wav,2.0,conjunction_un,unsyncopated,b,s1,no_rule,time,L2,z,0.4452,5.0,0.0,0.7026,3.0,2.0,Catalán,0.0,Castellano,0.0,Inglés,4.0,3.0,1.0,no,no,no,nada,,,,nada,59.0,yes
44,2024-05-21_21h20.45.786,Unsyncopated_study2,s190,19.0,masculino,left,ESPAÑA,CatalánCastellano,Upper secondary,no,no,A,1,conjunction_syn,L1,syncopated,s1,r1,44,Online_conjL1_syn//a.pu.ki12.0.666.wav,pu,zu,ni,ki,sil,ne,ro,fo,sil1,cho,sil2,['catch'],[1.4067999999970198],[1.4067999999970198],0.666,no_beat,0.7407999999970197,0.7407999999970197,"[""space""]",pu,2,testConjL2Uns//r1.s2.0.wav,2.0,conjunction_un,unsyncopated,a,s2,rule,rule,L2,z,0.056,6.0,1.0,0.2852,3.0,2.0,Catalán,0.0,Castellano,0.0,Inglés,4.0,3.0,1.0,no,no,no,nada,,,,nada,59.0,yes
45,2024-05-21_21h20.45.786,Unsyncopated_study2,s190,19.0,masculino,left,ESPAÑA,CatalánCastellano,Upper secondary,no,no,A,1,conjunction_syn,L1,syncopated,s2,r1,45,Online_conjL1_syn//a.pu.ki13.666.1554.wav,fa,ro,ne,pu,sil,fo,lu,ki,sil1,ni,sil2,['catch'],[2.1073999999911166],[2.1073999999911166],1.554,no_beat,0.5533999999911166,0.5533999999911166,"[""space""]",pu,2,testConjL2Uns//r2.s2.2.wav,2.0,conjunction_un,unsyncopated,b,s2,rule,rule,L2,m,0.1817,4.0,0.0,0.1675,3.0,2.0,Catalán,0.0,Castellano,0.0,Inglés,4.0,3.0,1.0,no,no,no,nada,,,,nada,59.0,yes
46,2024-05-21_21h20.45.786,Unsyncopated_study2,s190,19.0,masculino,left,ESPAÑA,CatalánCastellano,Upper secondary,no,no,A,1,conjunction_syn,L1,syncopated,s1,r2,46,Online_conjL1_syn//a.pu.ki14.none.none.wav,ta,ri,ze,be,sil,lu,fa,cho,sil1,fo,sil2,['-'],,,none,none,,,,pu,2,testConjL2Uns//r2.s1.1.wav,2.0,conjunction_un,unsyncopated,b,s1,rule,rule,L2,z,0.2152,6.0,1.0,0.4087,3.0,2.0,Catalán,0.0,Castellano,0.0,Inglés,4.0,3.0,1.0,no,no,no,nada,,,,nada,59.0,yes
47,2024-05-21_21h20.45.786,Unsyncopated_study2,s190,19.0,masculino,left,ESPAÑA,CatalánCastellano,Upper secondary,no,no,A,1,conjunction_syn,L1,syncopated,s1,r2,47,Online_conjL1_syn//a.pu.ki15.none.none.wav,ta,fo,ne,be,sil,la,ze,fa,sil1,cho,sil2,['-'],,,none,none,,,,pu,2,testConjL2Uns//cat_viol.r2.s2.0.wav,2.0,conjunction_un,unsyncopated,b,s2,no_rule,cat,L2,m,0.0975,6.0,1.0,0.2922,3.0,2.0,Catalán,0.0,Castellano,0.0,Inglés,4.0,3.0,1.0,no,no,no,nada,,,,nada,59.0,yes
48,2024-05-21_21h20.45.786,Unsyncopated_study2,s190,19.0,masculino,left,ESPAÑA,CatalánCastellano,Upper secondary,no,no,A,1,conjunction_syn,L1,syncopated,s2,r1,48,Online_conjL1_syn//c.ro.fo5.1332.0.wav,fo,zu,cho,pu,sil,ni,ro,ki,sil1,fa,sil2,['catch'],[1.8809999999999718],[1.8809999999999718],1.332,no_beat,0.5489999999999717,0.5489999999999717,"[""space""]",fo,3,testWhenL4Uns//r2.s1.0.wav,3.0,when,unsyncopated,b,s1,rule,rule,L4,z,1.6379,7.0,1.0,0.2659,3.0,2.0,Catalán,0.0,Castellano,0.0,Inglés,4.0,3.0,1.0,no,no,no,nada,,,,nada,59.0,yes
49,2024-05-21_21h20.45.786,Unsyncopated_study2,s190,19.0,masculino,left,ESPAÑA,CatalánCastellano,Upper secondary,no,no,A,1,conjunction_syn,L1,syncopated,s1,r2,49,Online_conjL1_syn//c.ro.fo4.444.1110.wav,ta,ze,ro,be,sil,fo,ni,cho,sil1,zu,sil2,['catch'],[0.9189000000059195],[0.9189000000059195],0.444,no_beat,0.4749000000059195,0.4749000000059195,"[""space""]",fo,3,testWhenL4Uns//dep_viol.r1.s2.0.wav,3.0,when,unsyncopated,a,s2,no_rule,dep,L4,z,1.2297,7.0,1.0,1.0792,3.0,2.0,Catalán,0.0,Castellano,0.0,Inglés,4.0,3.0,1.0,no,no,no,nada,,,,nada,59.0,yes
50,2024-05-21_21h20.45.786,Unsyncopated_study2,s190,19.0,masculino,left,ESPAÑA,CatalánCastellano,Upper secondary,no,no,A,1,conjunction_syn,L1,syncopated,s1,r2,50,Online_conjL1_syn//c.ro.fo6.none.none.wav,ta,fa,ni,be,sil,la,ne,cho,sil1,ze,sil2,['-'],,,none,none,,,,fo,3,testWhenL4Uns//r1.s2.0.wav,3.0,when,unsyncopated,a,s2,rule,rule,L4,z,0.9279,5.0,1.0,0.4108,3.0,2.0,Catalán,0.0,Castellano,0.0,Inglés,4.0,3.0,1.0,no,no,no,nada,,,,nada,59.0,yes
51,2024-05-21_21h20.45.786,Unsyncopated_study2,s190,19.0,masculino,left,ESPAÑA,CatalánCastellano,Upper secondary,no,no,A,1,conjunction_syn,L1,syncopated,s1,r1,51,Online_conjL1_syn//c.ro.fo7.none.none.wav,pu,zu,la,ki,sil,ze,ne,lu,sil1,ri,sil2,['-'],,,none,none,,,,fo,3,testWhenL4Uns//time_viol.r2.s1.0.wav,3.0,when,unsyncopated,b,s1,no_rule,time,L4,z,0.6757,6.0,1.0,0.0933,3.0,2.0,Catalán,0.0,Castellano,0.0,Inglés,4.0,3.0,1.0,no,no,no,nada,,,,nada,59.0,yes
52,2024-05-21_21h20.45.786,Unsyncopated_study2,s190,19.0,masculino,left,ESPAÑA,CatalánCastellano,Upper secondary,no,no,A,1,conjunction_syn,L1,syncopated,s1,r1,52,Online_conjL1_syn//d.ne.ni3.none.none.wav,pu,fo,la,ki,sil,ro,lu,ri,sil1,cho,sil2,['-'],,,none,none,,,,ni,4,testWhenL4Uns//r2.s1.1.wav,3.0,when,unsyncopated,b,s1,rule,rule,L4,m,0.0412,4.0,0.0,0.1768,3.0,2.0,Catalán,0.0,Castellano,0.0,Inglés,4.0,3.0,1.0,no,no,no,nada,,,,nada,59.0,yes
53,2024-05-21_21h20.45.786,Unsyncopated_study2,s190,19.0,masculino,left,ESPAÑA,CatalánCastellano,Upper secondary,no,no,A,1,conjunction_syn,L1,syncopated,s1,r1,53,Online_conjL1_syn//d.ne.ni1.222.1110.wav,pu,ne,ri,ki,sil,ni,la,ze,sil1,lu,sil2,['catch'],[0.8006000000090125],[0.8006000000090125],0.222,no_beat,0.5786000000090126,0.5786000000090126,"[""space""]",ni,4,testWhenL4Uns//cat_viol.r1.s2.0.wav,3.0,when,unsyncopated,a,s2,no_rule,cat,L4,z,0.0505,5.0,1.0,0.2302,3.0,2.0,Catalán,0.0,Castellano,0.0,Inglés,4.0,3.0,1.0,no,no,no,nada,,,,nada,59.0,yes
54,2024-05-21_21h20.45.786,Unsyncopated_study2,s190,19.0,masculino,left,ESPAÑA,CatalánCastellano,Upper secondary,no,no,A,1,conjunction_syn,L1,syncopated,s1,r2,54,Online_conjL1_syn//d.ne.ni2.222.1332.wav,ta,ne,lu,be,sil,ri,ni,cho,sil1,ze,sil2,['false alarm'],[0.06640000000595592],[0.06640000000595592],0.222,no_beat,,,"[""space""]",ni,4,testWhenL4Uns//cat_viol.r1.s1.0.wav,3.0,when,unsyncopated,a,s1,no_rule,cat,L4,m,0.5985,3.0,0.0,0.2782,3.0,2.0,Catalán,0.0,Castellano,0.0,Inglés,4.0,3.0,1.0,no,no,no,nada,,,,nada,59.0,yes
55,2024-05-21_21h20.45.786,Unsyncopated_study2,s190,19.0,masculino,left,ESPAÑA,CatalánCastellano,Upper secondary,no,no,A,1,conjunction_syn,L1,syncopated,s2,r1,55,Online_conjL1_syn//d.ne.ni0.none.none.wav,lu,ze,zu,pu,sil,ro,ri,ki,sil1,la,sil2,['-'],,,none,none,,,,ni,4,testWhenL4Uns//r1.s2.2.wav,3.0,when,unsyncopated,a,s2,rule,rule,L4,m,0.5836,4.0,0.0,0.1161,3.0,2.0,Catalán,0.0,Castellano,0.0,Inglés,4.0,3.0,1.0,no,no,no,nada,,,,nada,59.0,yes
56,2024-05-21_21h20.45.786,Unsyncopated_study2,s190,19.0,masculino,left,ESPAÑA,CatalánCastellano,Upper secondary,no,no,A,1,conjunction_syn,L1,syncopated,s1,r1,56,Online_conjL1_syn//b.ta.be29.none.none.wav,pu,ro,fa,ki,sil,zu,ni,la,sil1,ze,sil2,"['false alarm', 'false alarm']","[0.8034999999999854, 2.3642000000029384]",2.3642000000029384,none,none,,,"[""space"",""space""]",be,1,testWhenL4Uns//r2.s1.2.wav,3.0,when,unsyncopated,b,s1,rule,rule,L4,m,0.0324,6.0,0.0,0.1403,3.0,2.0,Catalán,0.0,Castellano,0.0,Inglés,4.0,3.0,1.0,no,no,no,nada,,,,nada,59.0,yes
57,2024-05-21_21h20.45.786,Unsyncopated_study2,s190,19.0,masculino,left,ESPAÑA,CatalánCastellano,Upper secondary,no,no,A,1,conjunction_syn,L1,syncopated,s2,r1,57,Online_conjL1_syn//b.ta.be30.none.none.wav,la,fo,fa,pu,sil,ro,ri,ki,sil1,ze,sil2,['-'],,,none,none,,,,be,1,testWhenL4Uns//cat_viol.r2.s2.0.wav,3.0,when,unsyncopated,b,s2,no_rule,cat,L4,m,1.6669,6.0,0.0,0.279,3.0,2.0,Catalán,0.0,Castellano,0.0,Inglés,4.0,3.0,1.0,no,no,no,nada,,,,nada,59.0,yes
58,2024-05-21_21h20.45.786,Unsyncopated_study2,s190,19.0,masculino,left,ESPAÑA,CatalánCastellano,Upper secondary,no,no,A,1,conjunction_syn,L1,syncopated,s1,r2,58,Online_conjL1_syn//b.ta.be28.0.666.wav,ta,fa,la,be,sil,zu,fo,ze,sil1,ro,sil2,['catch'],[0.4596000000088907],[0.4596000000088907],0.0,beat,0.4596000000088907,0.4596000000088907,"[""space""]",be,1,testWhenL4Uns//r2.s2.1.wav,3.0,when,unsyncopated,b,s2,rule,rule,L4,z,3.2626,5.0,1.0,0.3819,3.0,2.0,Catalán,0.0,Castellano,0.0,Inglés,4.0,3.0,1.0,no,no,no,nada,,,,nada,59.0,yes
59,2024-05-21_21h20.45.786,Unsyncopated_study2,s190,19.0,masculino,left,ESPAÑA,CatalánCastellano,Upper secondary,no,no,A,1,conjunction_syn,L1,syncopated,s1,r2,59,Online_conjL1_syn//b.ta.be31.0.666.wav,ta,fo,cho,be,sil,lu,ri,zu,sil1,la,sil2,['catch'],[0.6319999999999482],[0.6319999999999482],0.0,beat,0.6319999999999482,0.6319999999999482,"[""space""]",be,1,testWhenL4Uns//r1.s1.1.wav,3.0,when,unsyncopated,a,s1,rule,rule,L4,z,1.2839,7.0,1.0,0.4035,3.0,2.0,Catalán,0.0,Castellano,0.0,Inglés,4.0,3.0,1.0,no,no,no,nada,,,,nada,59.0,yes
60,2024-05-21_21h20.45.786,Unsyncopated_study2,s190,19.0,masculino,left,ESPAÑA,CatalánCastellano,Upper secondary,no,no,A,1,conjunction_syn,L1,syncopated,s2,r2,60,Online_conjL1_syn//b.ta.be3.666.1554.wav,lu,ro,zu,ta,sil,ne,fo,be,sil1,ni,sil2,['catch'],[1.5682999999970662],[1.5682999999970662],0.666,no_beat,0.902299999997066,0.902299999997066,"[""space""]",be,1,testWhenL4Uns//r2.s2.2.wav,3.0,when,unsyncopated,b,s2,rule,rule,L4,m,0.5212,3.0,0.0,0.2195,3.0,2.0,Catalán,0.0,Castellano,0.0,Inglés,4.0,3.0,1.0,no,no,no,nada,,,,nada,59.0,yes
61,2024-05-21_21h20.45.786,Unsyncopated_study2,s190,19.0,masculino,left,ESPAÑA,CatalánCastellano,Upper secondary,no,no,A,1,conjunction_syn,L1,syncopated,s2,r2,61,Online_conjL1_syn//b.ta.be1.666.1554.wav,ni,la,lu,ta,sil,cho,ro,be,sil1,ne,sil2,['catch'],[1.4053000000119482],[1.4053000000119482],0.666,no_beat,0.7393000000119482,0.7393000000119482,"[""space""]",be,1,testWhenL4Uns//time_viol.r1.s1.0.wav,3.0,when,unsyncopated,a,s1,no_rule,time,L4,m,0.3731,5.0,0.0,0.1877,3.0,2.0,Catalán,0.0,Castellano,0.0,Inglés,4.0,3.0,1.0,no,no,no,nada,,,,nada,59.0,yes
62,2024-05-21_21h20.45.786,Unsyncopated_study2,s190,19.0,masculino,left,ESPAÑA,CatalánCastellano,Upper secondary,no,no,A,1,conjunction_syn,L1,syncopated,s2,r1,62,Online_conjL1_syn//b.ta.be2.none.none.wav,ri,ne,fo,pu,sil,zu,la,ki,sil1,lu,sil2,['-'],,,none,none,,,,be,1,testWhenL4Uns//r2.s2.0.wav,3.0,when,unsyncopated,b,s2,rule,rule,L4,m,0.2596,6.0,0.0,0.1426,3.0,2.0,Catalán,0.0,Castellano,0.0,Inglés,4.0,3.0,1.0,no,no,no,nada,,,,nada,59.0,yes
63,2024-05-21_21h20.45.786,Unsyncopated_study2,s190,19.0,masculino,left,ESPAÑA,CatalánCastellano,Upper secondary,no,no,A,1,conjunction_syn,L1,syncopated,s2,r2,63,Online_conjL1_syn//b.ta.be0.666.1554.wav,cho,fa,fo,ta,sil,zu,la,be,sil1,ne,sil2,['catch'],[1.1833999999910247],[1.1833999999910247],0.666,no_beat,0.5173999999910247,0.5173999999910247,"[""space""]",be,1,testWhenL4Uns//time_viol.r1.s2.0.wav,3.0,when,unsyncopated,a,s2,no_rule,time,L4,z,2.2065,5.0,1.0,0.3204,3.0,2.0,Catalán,0.0,Castellano,0.0,Inglés,4.0,3.0,1.0,no,no,no,nada,,,,nada,59.0,yes
64,2024-05-21_21h20.45.786,Unsyncopated_study2,s190,19.0,masculino,left,ESPAÑA,CatalánCastellano,Upper secondary,no,no,A,1,conjunction_syn,L1,syncopated,s1,r2,64,Online_conjL1_syn//d.ne.ni25.222.1110.wav,ta,ne,ze,be,sil,ni,cho,la,sil1,lu,sil2,['catch'],[0.7269999999999754],[0.7269999999999754],0.222,no_beat,0.5049999999999755,0.5049999999999755,"[""space""]",ni,4,testWhenL4Uns//time_viol.r2.s2.0.wav,3.0,when,unsyncopated,b,s2,no_rule,time,L4,z,0.1392,6.0,1.0,0.376,3.0,2.0,Catalán,0.0,Castellano,0.0,Inglés,4.0,3.0,1.0,no,no,no,nada,,,,nada,59.0,yes
65,2024-05-21_21h20.45.786,Unsyncopated_study2,s190,19.0,masculino,left,ESPAÑA,CatalánCastellano,Upper secondary,no,no,A,1,conjunction_syn,L1,syncopated,s1,r2,65,Online_conjL1_syn//d.ne.ni27.none.none.wav,ta,la,fo,be,sil,zu,cho,ze,sil1,ri,sil2,['-'],,,none,none,,,,ni,4,testWhenL4Uns//r1.s1.2.wav,3.0,when,unsyncopated,a,s1,rule,rule,L4,m,1.7242,4.0,0.0,0.1159,3.0,2.0,Catalán,0.0,Castellano,0.0,Inglés,4.0,3.0,1.0,no,no,no,nada,,,,nada,59.0,yes
66,2024-05-21_21h20.45.786,Unsyncopated_study2,s190,19.0,masculino,left,ESPAÑA,CatalánCastellano,Upper secondary,no,no,A,1,conjunction_syn,L1,syncopated,s2,r2,66,Online_conjL1_syn//d.ne.ni24.none.none.wav,lu,ro,la,ta,sil,fa,fo,be,sil1,zu,sil2,['-'],,,none,none,,,,ni,4,testWhenL4Uns//cat_viol.r2.s1.0.wav,3.0,when,unsyncopated,b,s1,no_rule,cat,L4,m,0.6587,6.0,0.0,0.1329,3.0,2.0,Catalán,0.0,Castellano,0.0,Inglés,4.0,3.0,1.0,no,no,no,nada,,,,nada,59.0,yes
67,2024-05-21_21h20.45.786,Unsyncopated_study2,s190,19.0,masculino,left,ESPAÑA,CatalánCastellano,Upper secondary,no,no,A,1,conjunction_syn,L1,syncopated,s2,r1,67,Online_conjL1_syn//d.ne.ni26.none.none.wav,ze,zu,fa,pu,sil,cho,lu,ki,sil1,fo,sil2,['-'],,,none,none,,,,ni,4,testWhenL4Uns//dep_viol.r2.s2.0.wav,3.0,when,unsyncopated,b,s2,no_rule,dep,L4,m,1.6692,6.0,0.0,0.2024,3.0,2.0,Catalán,0.0,Castellano,0.0,Inglés,4.0,3.0,1.0,no,no,no,nada,,,,nada,59.0,yes
68,2024-05-21_21h20.45.786,Unsyncopated_study2,s190,19.0,masculino,left,ESPAÑA,CatalánCastellano,Upper secondary,no,no,A,1,conjunction_syn,L1,syncopated,s2,r2,68,Online_conjL1_syn//a.pu.ki21.none.none.wav,ro,fa,ni,ta,sil,ri,la,be,sil1,lu,sil2,['false alarm'],[0.41370000000290474],[0.41370000000290474],none,none,,,"[""space""]",pu,2,testWhenL4Uns//r1.s1.0.wav,3.0,when,unsyncopated,a,s1,rule,rule,L4,m,0.5416,4.0,0.0,0.2851,3.0,2.0,Catalán,0.0,Castellano,0.0,Inglés,4.0,3.0,1.0,no,no,no,nada,,,,nada,59.0,yes
69,2024-05-21_21h20.45.786,Unsyncopated_study2,s190,19.0,masculino,left,ESPAÑA,CatalánCastellano,Upper secondary,no,no,A,1,conjunction_syn,L1,syncopated,s2,r1,69,Online_conjL1_syn//a.pu.ki20.666.1554.wav,ro,lu,ni,pu,sil,la,fo,ki,sil1,cho,sil2,['false alarm'],[0.8016000000089889],[0.8016000000089889],1.554,no_beat,,,"[""space""]",pu,2,testWhenL4Uns//dep_viol.r2.s1.0.wav,3.0,when,unsyncopated,b,s1,no_rule,dep,L4,m,0.5704,5.0,0.0,0.46,3.0,2.0,Catalán,0.0,Castellano,0.0,Inglés,4.0,3.0,1.0,no,no,no,nada,,,,nada,59.0,yes
70,2024-05-21_21h20.45.786,Unsyncopated_study2,s190,19.0,masculino,left,ESPAÑA,CatalánCastellano,Upper secondary,no,no,A,1,conjunction_syn,L1,syncopated,s2,r1,70,Online_conjL1_syn//a.pu.ki23.666.1554.wav,ni,la,ro,pu,sil,fo,zu,ki,sil1,ze,sil2,['catch'],[2.251300000011952],[2.251300000011952],1.554,no_beat,0.6973000000119518,0.6973000000119518,"[""space""]",pu,2,testWhenL4Uns//dep_viol.r1.s1.0.wav,3.0,when,unsyncopated,a,s1,no_rule,dep,L4,z,0.1122,6.0,1.0,0.4732,3.0,2.0,Catalán,0.0,Castellano,0.0,Inglés,4.0,3.0,1.0,no,no,no,nada,,,,nada,59.0,yes
71,2024-05-21_21h20.45.786,Unsyncopated_study2,s190,19.0,masculino,left,ESPAÑA,CatalánCastellano,Upper secondary,no,no,A,1,conjunction_syn,L1,syncopated,s2,r2,71,Online_conjL1_syn//a.pu.ki22.none.none.wav,fo,ri,ni,ta,sil,lu,la,be,sil1,cho,sil2,"['false alarm', 'false alarm']","[0.7872999999970034, 2.180900000005977]",2.180900000005977,none,none,,,"[""space"",""space""]",pu,2,testWhenL4Uns//r1.s2.1.wav,3.0,when,unsyncopated,a,s2,rule,rule,L4,z,0.0894,4.0,1.0,0.2699,3.0,2.0,Catalán,0.0,Castellano,0.0,Inglés,4.0,3.0,1.0,no,no,no,nada,,,,nada,59.0,yes
72,2024-05-21_21h20.45.786,Unsyncopated_study2,s190,19.0,masculino,left,ESPAÑA,CatalánCastellano,Upper secondary,no,no,A,1,conjunction_syn,L1,syncopated,s1,r2,72,Online_conjL1_syn//b.ta.be14.0.666.wav,ta,la,fa,be,sil,ni,fo,ro,sil1,lu,sil2,['catch'],[1.1083000000119227],[1.1083000000119227],0.0,beat,1.1083000000119227,1.1083000000119227,"[""space""]",be,1,testWhatL3Uns//r2.s2.1.wav,4.0,what,unsyncopated,b,s2,rule,rule,L3,m,1.9821,6.0,0.0,0.2092,3.0,2.0,Catalán,0.0,Castellano,0.0,Inglés,4.0,3.0,1.0,no,no,no,nada,,,,nada,59.0,yes
73,2024-05-21_21h20.45.786,Unsyncopated_study2,s190,19.0,masculino,left,ESPAÑA,CatalánCastellano,Upper secondary,no,no,A,1,conjunction_syn,L1,syncopated,s2,r1,73,Online_conjL1_syn//b.ta.be15.none.none.wav,la,ni,lu,pu,sil,ri,cho,ki,sil1,fa,sil2,['-'],,,none,none,,,,be,1,testWhatL3Uns//dep_viol.r2.s1.0.wav,4.0,what,unsyncopated,b,s1,no_rule,dep,L3,z,0.9017,4.0,0.0,0.436,3.0,2.0,Catalán,0.0,Castellano,0.0,Inglés,4.0,3.0,1.0,no,no,no,nada,,,,nada,59.0,yes
74,2024-05-21_21h20.45.786,Unsyncopated_study2,s190,19.0,masculino,left,ESPAÑA,CatalánCastellano,Upper secondary,no,no,A,1,conjunction_syn,L1,syncopated,s1,r1,74,Online_conjL1_syn//b.ta.be12.none.none.wav,pu,ro,lu,ki,sil,ri,fa,ni,sil1,cho,sil2,['false alarm'],[0.01419999998813637],[0.01419999998813637],none,none,,,"[""space""]",be,1,testWhatL3Uns//cat_viol.r2.s2.0.wav,4.0,what,unsyncopated,b,s2,no_rule,cat,L3,m,0.5065,3.0,1.0,0.5254,3.0,2.0,Catalán,0.0,Castellano,0.0,Inglés,4.0,3.0,1.0,no,no,no,nada,,,,nada,59.0,yes
75,2024-05-21_21h20.45.786,Unsyncopated_study2,s190,19.0,masculino,left,ESPAÑA,CatalánCastellano,Upper secondary,no,no,A,1,conjunction_syn,L1,syncopated,s1,r2,75,Online_conjL1_syn//b.ta.be13.0.666.wav,ta,ni,fo,be,sil,ze,ne,fa,sil1,ri,sil2,['miss'],,,0.0,beat,,,,be,1,testWhatL3Uns//time_viol.r1.s2.0.wav,4.0,what,unsyncopated,a,s2,no_rule,time,L3,m,2.0381,6.0,1.0,0.192,3.0,2.0,Catalán,0.0,Castellano,0.0,Inglés,4.0,3.0,1.0,no,no,no,nada,,,,nada,59.0,yes
76,2024-05-21_21h20.45.786,Unsyncopated_study2,s190,19.0,masculino,left,ESPAÑA,CatalánCastellano,Upper secondary,no,no,A,1,conjunction_syn,L1,syncopated,s1,r2,76,Online_conjL1_syn//a.pu.ki19.none.none.wav,ta,fa,lu,be,sil,ne,fo,ri,sil1,ze,sil2,['-'],,,none,none,,,,pu,2,testWhatL3Uns//r1.s1.1.wav,4.0,what,unsyncopated,a,s1,rule,rule,L3,z,0.5718,7.0,1.0,0.7652,3.0,2.0,Catalán,0.0,Castellano,0.0,Inglés,4.0,3.0,1.0,no,no,no,nada,,,,nada,59.0,yes
77,2024-05-21_21h20.45.786,Unsyncopated_study2,s190,19.0,masculino,left,ESPAÑA,CatalánCastellano,Upper secondary,no,no,A,1,conjunction_syn,L1,syncopated,s2,r1,77,Online_conjL1_syn//a.pu.ki18.666.1554.wav,lu,ni,ri,pu,sil,ro,fo,ki,sil1,cho,sil2,['false alarm'],[0.5487999999969588],[0.5487999999969588],1.554,no_beat,,,"[""space""]",pu,2,testWhatL3Uns//r1.s2.1.wav,4.0,what,unsyncopated,a,s2,rule,rule,L3,z,0.9437,5.0,1.0,0.3897,3.0,2.0,Catalán,0.0,Castellano,0.0,Inglés,4.0,3.0,1.0,no,no,no,nada,,,,nada,59.0,yes
78,2024-05-21_21h20.45.786,Unsyncopated_study2,s190,19.0,masculino,left,ESPAÑA,CatalánCastellano,Upper secondary,no,no,A,1,conjunction_syn,L1,syncopated,s2,r2,78,Online_conjL1_syn//a.pu.ki16.none.none.wav,la,ze,fo,ta,sil,zu,lu,be,sil1,ne,sil2,['-'],,,none,none,,,,pu,2,testWhatL3Uns//r1.s1.2.wav,4.0,what,unsyncopated,a,s1,rule,rule,L3,z,0.4191,5.0,1.0,0.3933,3.0,2.0,Catalán,0.0,Castellano,0.0,Inglés,4.0,3.0,1.0,no,no,no,nada,,,,nada,59.0,yes
79,2024-05-21_21h20.45.786,Unsyncopated_study2,s190,19.0,masculino,left,ESPAÑA,CatalánCastellano,Upper secondary,no,no,A,1,conjunction_syn,L1,syncopated,s2,r2,79,Online_conjL1_syn//a.pu.ki17.none.none.wav,lu,fa,zu,ta,sil,la,ze,be,sil1,cho,sil2,['-'],,,none,none,,,,pu,2,testWhatL3Uns//r1.s2.2.wav,4.0,what,unsyncopated,a,s2,rule,rule,L3,m,0.0422,5.0,0.0,0.275,3.0,2.0,Catalán,0.0,Castellano,0.0,Inglés,4.0,3.0,1.0,no,no,no,nada,,,,nada,59.0,yes
80,2024-05-21_21h20.45.786,Unsyncopated_study2,s190,19.0,masculino,left,ESPAÑA,CatalánCastellano,Upper secondary,no,no,A,1,conjunction_syn,L1,syncopated,s2,r2,80,Online_conjL1_syn//c.ro.fo21.none.none.wav,ze,zu,la,ta,sil,ne,cho,be,sil1,ni,sil2,['-'],,,none,none,,,,fo,3,testWhatL3Uns//dep_viol.r2.s2.0.wav,4.0,what,unsyncopated,b,s2,no_rule,dep,L3,m,0.2766,5.0,1.0,0.2573,3.0,2.0,Catalán,0.0,Castellano,0.0,Inglés,4.0,3.0,1.0,no,no,no,nada,,,,nada,59.0,yes
81,2024-05-21_21h20.45.786,Unsyncopated_study2,s190,19.0,masculino,left,ESPAÑA,CatalánCastellano,Upper secondary,no,no,A,1,conjunction_syn,L1,syncopated,s2,r1,81,Online_conjL1_syn//c.ro.fo20.none.none.wav,lu,ne,la,pu,sil,zu,cho,ki,sil1,ni,sil2,['-'],,,none,none,,,,fo,3,testWhatL3Uns//cat_viol.r1.s2.0.wav,4.0,what,unsyncopated,a,s2,no_rule,cat,L3,m,0.0032,4.0,1.0,0.3534,3.0,2.0,Catalán,0.0,Castellano,0.0,Inglés,4.0,3.0,1.0,no,no,no,nada,,,,nada,59.0,yes
82,2024-05-21_21h20.45.786,Unsyncopated_study2,s190,19.0,masculino,left,ESPAÑA,CatalánCastellano,Upper secondary,no,no,A,1,conjunction_syn,L1,syncopated,s1,r2,82,Online_conjL1_syn//c.ro.fo23.1110.1332.wav,ta,ne,cho,be,sil,ro,fo,zu,sil1,ni,sil2,['catch'],[1.5459999999999354],[1.5459999999999354],1.11,no_beat,0.4359999999999353,0.4359999999999353,"[""space""]",fo,3,testWhatL3Uns//dep_viol.r1.s1.0.wav,4.0,what,unsyncopated,a,s1,no_rule,dep,L3,z,1.2186,5.0,0.0,0.2232,3.0,2.0,Catalán,0.0,Castellano,0.0,Inglés,4.0,3.0,1.0,no,no,no,nada,,,,nada,59.0,yes
83,2024-05-21_21h20.45.786,Unsyncopated_study2,s190,19.0,masculino,left,ESPAÑA,CatalánCastellano,Upper secondary,no,no,A,1,conjunction_syn,L1,syncopated,s1,r1,83,Online_conjL1_syn//c.ro.fo22.none.none.wav,pu,fa,cho,ki,sil,ne,la,ni,sil1,ze,sil2,['-'],,,none,none,,,,fo,3,testWhatL3Uns//cat_viol.r2.s1.0.wav,4.0,what,unsyncopated,b,s1,no_rule,cat,L3,m,0.4124,4.0,1.0,0.1639,3.0,2.0,Catalán,0.0,Castellano,0.0,Inglés,4.0,3.0,1.0,no,no,no,nada,,,,nada,59.0,yes
84,2024-05-21_21h20.45.786,Unsyncopated_study2,s190,19.0,masculino,left,ESPAÑA,CatalánCastellano,Upper secondary,no,no,A,1,conjunction_syn,L1,syncopated,s2,r1,84,Online_conjL1_syn//c.ro.fo19.none.none.wav,la,ni,zu,pu,sil,ne,ri,ki,sil1,lu,sil2,['-'],,,none,none,,,,fo,3,testWhatL3Uns//time_viol.r1.s1.0.wav,4.0,what,unsyncopated,a,s1,no_rule,time,L3,z,0.8423,5.0,0.0,0.1622,3.0,2.0,Catalán,0.0,Castellano,0.0,Inglés,4.0,3.0,1.0,no,no,no,nada,,,,nada,59.0,yes
85,2024-05-21_21h20.45.786,Unsyncopated_study2,s190,19.0,masculino,left,ESPAÑA,CatalánCastellano,Upper secondary,no,no,A,1,conjunction_syn,L1,syncopated,s1,r2,85,Online_conjL1_syn//c.ro.fo16.1332.222.wav,ta,fo,ni,be,sil,la,ro,lu,sil1,fa,sil2,['miss'],,,1.332,no_beat,,,,fo,3,testWhatL3Uns//time_viol.r2.s1.0.wav,4.0,what,unsyncopated,b,s1,no_rule,time,L3,m,0.372,5.0,1.0,0.1861,3.0,2.0,Catalán,0.0,Castellano,0.0,Inglés,4.0,3.0,1.0,no,no,no,nada,,,,nada,59.0,yes
86,2024-05-21_21h20.45.786,Unsyncopated_study2,s190,19.0,masculino,left,ESPAÑA,CatalánCastellano,Upper secondary,no,no,A,1,conjunction_syn,L1,syncopated,s2,r1,86,Online_conjL1_syn//c.ro.fo17.444.0.wav,fo,fa,ro,pu,sil,lu,ze,ki,sil1,ni,sil2,['miss'],,,0.444,no_beat,,,,fo,3,testWhatL3Uns//r2.s2.0.wav,4.0,what,unsyncopated,b,s2,rule,rule,L3,z,0.501,5.0,1.0,0.1951,3.0,2.0,Catalán,0.0,Castellano,0.0,Inglés,4.0,3.0,1.0,no,no,no,nada,,,,nada,59.0,yes
87,2024-05-21_21h20.45.786,Unsyncopated_study2,s190,19.0,masculino,left,ESPAÑA,CatalánCastellano,Upper secondary,no,no,A,1,conjunction_syn,L1,syncopated,s1,r1,87,Online_conjL1_syn//c.ro.fo18.1110.222.wav,pu,fo,zu,ki,sil,ro,cho,ze,sil1,ne,sil2,['catch'],[2.069299999996929],[2.069299999996929],1.11,no_beat,0.9592999999969288,0.9592999999969288,"[""space""]",fo,3,testWhatL3Uns//dep_viol.r1.s2.0.wav,4.0,what,unsyncopated,a,s2,no_rule,dep,L3,z,0.3343,3.0,0.0,0.1814,3.0,2.0,Catalán,0.0,Castellano,0.0,Inglés,4.0,3.0,1.0,no,no,no,nada,,,,nada,59.0,yes
88,2024-05-21_21h20.45.786,Unsyncopated_study2,s190,19.0,masculino,left,ESPAÑA,CatalánCastellano,Upper secondary,no,no,A,1,conjunction_syn,L1,syncopated,s1,r1,88,Online_conjL1_syn//b.ta.be23.none.none.wav,pu,cho,ze,ki,sil,ne,la,ri,sil1,fa,sil2,['-'],,,none,none,,,,be,1,testWhatL3Uns//r2.s1.2.wav,4.0,what,unsyncopated,b,s1,rule,rule,L3,z,0.8927,4.0,1.0,0.1673,3.0,2.0,Catalán,0.0,Castellano,0.0,Inglés,4.0,3.0,1.0,no,no,no,nada,,,,nada,59.0,yes
89,2024-05-21_21h20.45.786,Unsyncopated_study2,s190,19.0,masculino,left,ESPAÑA,CatalánCastellano,Upper secondary,no,no,A,1,conjunction_syn,L1,syncopated,s2,r1,89,Online_conjL1_syn//b.ta.be21.none.none.wav,ri,ro,fa,pu,sil,ni,cho,ki,sil1,ze,sil2,['false alarm'],[0.11529999999709162],[0.11529999999709162],none,none,,,"[""space""]",be,1,testWhatL3Uns//r2.s2.2.wav,4.0,what,unsyncopated,b,s2,rule,rule,L3,m,0.1807,2.0,0.0,0.2853,3.0,2.0,Catalán,0.0,Castellano,0.0,Inglés,4.0,3.0,1.0,no,no,no,nada,,,,nada,59.0,yes
90,2024-05-21_21h20.45.786,Unsyncopated_study2,s190,19.0,masculino,left,ESPAÑA,CatalánCastellano,Upper secondary,no,no,A,1,conjunction_syn,L1,syncopated,s2,r1,90,Online_conjL1_syn//b.ta.be22.none.none.wav,zu,la,cho,pu,sil,ne,ri,ki,sil1,fa,sil2,['-'],,,none,none,,,,be,1,testWhatL3Uns//r2.s1.0.wav,4.0,what,unsyncopated,b,s1,rule,rule,L3,m,0.2329,6.0,0.0,0.6331,3.0,2.0,Catalán,0.0,Castellano,0.0,Inglés,4.0,3.0,1.0,no,no,no,nada,,,,nada,59.0,yes
91,2024-05-21_21h20.45.786,Unsyncopated_study2,s190,19.0,masculino,left,ESPAÑA,CatalánCastellano,Upper secondary,no,no,A,1,conjunction_syn,L1,syncopated,s1,r1,91,Online_conjL1_syn//b.ta.be20.none.none.wav,pu,lu,ze,ki,sil,ro,la,zu,sil1,fo,sil2,['-'],,,none,none,,,,be,1,testWhatL3Uns//time_viol.r2.s2.0.wav,4.0,what,unsyncopated,b,s2,no_rule,time,L3,m,0.408,4.0,1.0,0.1469,3.0,2.0,Catalán,0.0,Castellano,0.0,Inglés,4.0,3.0,1.0,no,no,no,nada,,,,nada,59.0,yes
92,2024-05-21_21h20.45.786,Unsyncopated_study2,s190,19.0,masculino,left,ESPAÑA,CatalánCastellano,Upper secondary,no,no,A,1,conjunction_syn,L1,syncopated,s2,r1,92,Online_conjL1_syn//a.pu.ki28.666.1554.wav,cho,ro,fo,pu,sil,ze,ni,ki,sil1,zu,sil2,['catch'],[1.9202000000029784],[1.9202000000029784],1.554,no_beat,0.3662000000029783,0.3662000000029783,"[""space""]",pu,2,testWhatL3Uns//cat_viol.r1.s1.0.wav,4.0,what,unsyncopated,a,s1,no_rule,cat,L3,z,0.1694,7.0,0.0,0.2726,3.0,2.0,Catalán,0.0,Castellano,0.0,Inglés,4.0,3.0,1.0,no,no,no,nada,,,,nada,59.0,yes
93,2024-05-21_21h20.45.786,Unsyncopated_study2,s190,19.0,masculino,left,ESPAÑA,CatalánCastellano,Upper secondary,no,no,A,1,conjunction_syn,L1,syncopated,s1,r2,93,Online_conjL1_syn//a.pu.ki30.none.none.wav,ta,fa,ro,be,sil,ni,zu,la,sil1,ze,sil2,['-'],,,none,none,,,,pu,2,testWhatL3Uns//r1.s1.0.wav,4.0,what,unsyncopated,a,s1,rule,rule,L3,m,1.4128,4.0,0.0,0.2031,3.0,2.0,Catalán,0.0,Castellano,0.0,Inglés,4.0,3.0,1.0,no,no,no,nada,,,,nada,59.0,yes
94,2024-05-21_21h20.45.786,Unsyncopated_study2,s190,19.0,masculino,left,ESPAÑA,CatalánCastellano,Upper secondary,no,no,A,1,conjunction_syn,L1,syncopated,s2,r1,94,Online_conjL1_syn//a.pu.ki29.666.1554.wav,ze,ne,ro,pu,sil,lu,la,ki,sil1,fo,sil2,['catch'],[2.1889999999999645],[2.1889999999999645],1.554,no_beat,0.6349999999999645,0.6349999999999645,"[""space""]",pu,2,testWhatL3Uns//r2.s1.1.wav,4.0,what,unsyncopated,b,s1,rule,rule,L3,m,0.4743,3.0,0.0,0.3319,3.0,2.0,Catalán,0.0,Castellano,0.0,Inglés,4.0,3.0,1.0,no,no,no,nada,,,,nada,59.0,yes
95,2024-05-21_21h20.45.786,Unsyncopated_study2,s190,19.0,masculino,left,ESPAÑA,CatalánCastellano,Upper secondary,no,no,A,1,conjunction_syn,L1,syncopated,s2,r2,95,Online_conjL1_syn//a.pu.ki31.none.none.wav,lu,fo,fa,ta,sil,ro,ni,be,sil1,la,sil2,['false alarm'],[1.9634999999999536],[1.9634999999999536],none,none,,,"[""space""]",pu,2,testWhatL3Uns//r1.s2.0.wav,4.0,what,unsyncopated,a,s2,rule,rule,L3,m,0.2463,4.0,0.0,0.2478,3.0,2.0,Catalán,0.0,Castellano,0.0,Inglés,4.0,3.0,1.0,no,no,no,nada,,,,nada,59.0,yes
96,2024-05-21_21h20.45.786,Unsyncopated_study2,s190,19.0,masculino,left,ESPAÑA,CatalánCastellano,Upper secondary,no,no,A,1,conjunction_syn,L1,syncopated,s1,r2,96,Online_conjL1_syn//d.ne.ni28.none.none.wav,ta,lu,zu,be,sil,fa,la,ro,sil1,ri,sil2,['-'],,,none,none,,,,ni,4,,,,,,,,,,,,,,,3.0,2.0,Catalán,0.0,Castellano,0.0,Inglés,4.0,3.0,1.0,no,no,no,nada,,,,nada,59.0,yes
97,2024-05-21_21h20.45.786,Unsyncopated_study2,s190,19.0,masculino,left,ESPAÑA,CatalánCastellano,Upper secondary,no,no,A,1,conjunction_syn,L1,syncopated,s2,r2,97,Online_conjL1_syn//d.ne.ni29.0.444.wav,ne,fa,ni,ta,sil,ri,zu,be,sil1,lu,sil2,['catch'],[0.6457999999970525],[0.6457999999970525],0.0,beat,0.6457999999970525,0.6457999999970525,"[""space""]",ni,4,,,,,,,,,,,,,,,3.0,2.0,Catalán,0.0,Castellano,0.0,Inglés,4.0,3.0,1.0,no,no,no,nada,,,,nada,59.0,yes
98,2024-05-21_21h20.45.786,Unsyncopated_study2,s190,19.0,masculino,left,ESPAÑA,CatalánCastellano,Upper secondary,no,no,A,1,conjunction_syn,L1,syncopated,s2,r1,98,Online_conjL1_syn//d.ne.ni31.0.1110.wav,ne,zu,fa,pu,sil,ni,lu,ki,sil1,ro,sil2,['catch'],[0.5092999999970971],[0.5092999999970971],0.0,beat,0.5092999999970971,0.5092999999970971,"[""space""]",ni,4,,,,,,,,,,,,,,,3.0,2.0,Catalán,0.0,Castellano,0.0,Inglés,4.0,3.0,1.0,no,no,no,nada,,,,nada,59.0,yes
99,2024-05-21_21h20.45.786,Unsyncopated_study2,s190,19.0,masculino,left,ESPAÑA,CatalánCastellano,Upper secondary,no,no,A,1,conjunction_syn,L1,syncopated,s2,r2,99,Online_conjL1_syn//d.ne.ni30.222.1110.wav,fa,ne,lu,ta,sil,ni,ri,be,sil1,ze,sil2,['catch'],[1.1692999999970652],[1.1692999999970652],0.222,no_beat,0.9472999999970652,0.9472999999970652,"[""space""]",ni,4,,,,,,,,,,,,,,,3.0,2.0,Catalán,0.0,Castellano,0.0,Inglés,4.0,3.0,1.0,no,no,no,nada,,,,nada,59.0,yes
100,2024-05-21_21h20.45.786,Unsyncopated_study2,s190,19.0,masculino,left,ESPAÑA,CatalánCastellano,Upper secondary,no,no,A,1,conjunction_syn,L1,syncopated,s2,r1,100,Online_conjL1_syn//d.ne.ni13.1110.222.wav,ze,ni,lu,pu,sil,ne,ro,ki,sil1,zu,sil2,['miss'],,,1.11,no_beat,,,,ni,4,,,,,,,,,,,,,,,3.0,2.0,Catalán,0.0,Castellano,0.0,Inglés,4.0,3.0,1.0,no,no,no,nada,,,,nada,59.0,yes
101,2024-05-21_21h20.45.786,Unsyncopated_study2,s190,19.0,masculino,left,ESPAÑA,CatalánCastellano,Upper secondary,no,no,A,1,conjunction_syn,L1,syncopated,s1,r2,101,Online_conjL1_syn//d.ne.ni14.none.none.wav,ta,ri,cho,be,sil,ze,lu,zu,sil1,la,sil2,['-'],,,none,none,,,,ni,4,,,,,,,,,,,,,,,3.0,2.0,Catalán,0.0,Castellano,0.0,Inglés,4.0,3.0,1.0,no,no,no,nada,,,,nada,59.0,yes
102,2024-05-21_21h20.45.786,Unsyncopated_study2,s190,19.0,masculino,left,ESPAÑA,CatalánCastellano,Upper secondary,no,no,A,1,conjunction_syn,L1,syncopated,s1,r1,102,Online_conjL1_syn//d.ne.ni12.none.none.wav,pu,fo,ri,ki,sil,ze,zu,ro,sil1,la,sil2,['-'],,,none,none,,,,ni,4,,,,,,,,,,,,,,,3.0,2.0,Catalán,0.0,Castellano,0.0,Inglés,4.0,3.0,1.0,no,no,no,nada,,,,nada,59.0,yes
103,2024-05-21_21h20.45.786,Unsyncopated_study2,s190,19.0,masculino,left,ESPAÑA,CatalánCastellano,Upper secondary,no,no,A,1,conjunction_syn,L1,syncopated,s1,r1,103,Online_conjL1_syn//d.ne.ni15.none.none.wav,pu,lu,ze,ki,sil,cho,zu,ri,sil1,la,sil2,['-'],,,none,none,,,,ni,4,,,,,,,,,,,,,,,3.0,2.0,Catalán,0.0,Castellano,0.0,Inglés,4.0,3.0,1.0,no,no,no,nada,,,,nada,59.0,yes
104,2024-05-21_21h20.45.786,Unsyncopated_study2,s190,19.0,masculino,left,ESPAÑA,CatalánCastellano,Upper secondary,no,no,A,1,conjunction_syn,L1,syncopated,s1,r1,104,Online_conjL1_syn//b.ta.be18.none.none.wav,pu,ni,zu,ki,sil,ne,la,ze,sil1,cho,sil2,"['false alarm', 'false alarm']","[0.6487000000029184, 1.9682000000029802]",1.9682000000029802,none,none,,,"[""space"",""space""]",be,1,,,,,,,,,,,,,,,3.0,2.0,Catalán,0.0,Castellano,0.0,Inglés,4.0,3.0,1.0,no,no,no,nada,,,,nada,59.0,yes
105,2024-05-21_21h20.45.786,Unsyncopated_study2,s190,19.0,masculino,left,ESPAÑA,CatalánCastellano,Upper secondary,no,no,A,1,conjunction_syn,L1,syncopated,s2,r2,105,Online_conjL1_syn//b.ta.be16.666.1554.wav,ro,ne,lu,ta,sil,la,ri,be,sil1,fo,sil2,"['catch', 'false alarm']","[1.2359000000059268, 1.9776000000089198]",[1.2359000000059268],0.666,no_beat,0.5699000000059268,0.5699000000059268,"[""space"",""space""]",be,1,,,,,,,,,,,,,,,3.0,2.0,Catalán,0.0,Castellano,0.0,Inglés,4.0,3.0,1.0,no,no,no,nada,,,,nada,59.0,yes
106,2024-05-21_21h20.45.786,Unsyncopated_study2,s190,19.0,masculino,left,ESPAÑA,CatalánCastellano,Upper secondary,no,no,A,1,conjunction_syn,L1,syncopated,s2,r2,106,Online_conjL1_syn//b.ta.be19.666.1554.wav,fa,la,ni,ta,sil,cho,ne,be,sil1,ri,sil2,['catch'],[1.0359999999999445],[1.0359999999999445],0.666,no_beat,0.3699999999999445,0.3699999999999445,"[""space""]",be,1,,,,,,,,,,,,,,,3.0,2.0,Catalán,0.0,Castellano,0.0,Inglés,4.0,3.0,1.0,no,no,no,nada,,,,nada,59.0,yes
107,2024-05-21_21h20.45.786,Unsyncopated_study2,s190,19.0,masculino,left,ESPAÑA,CatalánCastellano,Upper secondary,no,no,A,1,conjunction_syn,L1,syncopated,s2,r1,107,Online_conjL1_syn//b.ta.be17.none.none.wav,zu,lu,ze,pu,sil,la,cho,ki,sil1,fa,sil2,['-'],,,none,none,,,,be,1,,,,,,,,,,,,,,,3.0,2.0,Catalán,0.0,Castellano,0.0,Inglés,4.0,3.0,1.0,no,no,no,nada,,,,nada,59.0,yes
108,2024-05-21_21h20.45.786,Unsyncopated_study2,s190,19.0,masculino,left,ESPAÑA,CatalánCastellano,Upper secondary,no,no,A,1,conjunction_syn,L1,syncopated,s2,r1,108,Online_conjL1_syn//c.ro.fo26.444.0.wav,fo,ne,ro,pu,sil,ze,ni,ki,sil1,fa,sil2,['catch'],[1.0407999999970343],[1.0407999999970343],0.444,no_beat,0.5967999999970344,0.5967999999970344,"[""space""]",fo,3,,,,,,,,,,,,,,,3.0,2.0,Catalán,0.0,Castellano,0.0,Inglés,4.0,3.0,1.0,no,no,no,nada,,,,nada,59.0,yes
109,2024-05-21_21h20.45.786,Unsyncopated_study2,s190,19.0,masculino,left,ESPAÑA,CatalánCastellano,Upper secondary,no,no,A,1,conjunction_syn,L1,syncopated,s2,r2,109,Online_conjL1_syn//c.ro.fo27.444.1110.wav,la,fa,ro,ta,sil,fo,lu,be,sil1,ze,sil2,['catch'],[0.9285999999939349],[0.9285999999939349],0.444,no_beat,0.4845999999939349,0.4845999999939349,"[""space""]",fo,3,,,,,,,,,,,,,,,3.0,2.0,Catalán,0.0,Castellano,0.0,Inglés,4.0,3.0,1.0,no,no,no,nada,,,,nada,59.0,yes
110,2024-05-21_21h20.45.786,Unsyncopated_study2,s190,19.0,masculino,left,ESPAÑA,CatalánCastellano,Upper secondary,no,no,A,1,conjunction_syn,L1,syncopated,s1,r1,110,Online_conjL1_syn//c.ro.fo24.1332.222.wav,pu,fo,ni,ki,sil,la,ro,ze,sil1,zu,sil2,['catch'],[1.8922999999970216],[1.8922999999970216],1.332,no_beat,0.5602999999970215,0.5602999999970215,"[""space""]",fo,3,,,,,,,,,,,,,,,3.0,2.0,Catalán,0.0,Castellano,0.0,Inglés,4.0,3.0,1.0,no,no,no,nada,,,,nada,59.0,yes
111,2024-05-21_21h20.45.786,Unsyncopated_study2,s190,19.0,masculino,left,ESPAÑA,CatalánCastellano,Upper secondary,no,no,A,1,conjunction_syn,L1,syncopated,s2,r2,111,Online_conjL1_syn//c.ro.fo25.none.none.wav,lu,ri,fa,ta,sil,zu,cho,be,sil1,ze,sil2,['false alarm'],[1.8042999999969425],[1.8042999999969425],none,none,,,"[""space""]",fo,3,,,,,,,,,,,,,,,3.0,2.0,Catalán,0.0,Castellano,0.0,Inglés,4.0,3.0,1.0,no,no,no,nada,,,,nada,59.0,yes
112,2024-05-21_21h20.45.786,Unsyncopated_study2,s190,19.0,masculino,left,ESPAÑA,CatalánCastellano,Upper secondary,no,no,A,1,conjunction_syn,L1,syncopated,s2,r2,112,Online_conjL1_syn//c.ro.fo14.none.none.wav,fa,zu,ri,ta,sil,la,ni,be,sil1,ne,sil2,['-'],,,none,none,,,,fo,3,,,,,,,,,,,,,,,3.0,2.0,Catalán,0.0,Castellano,0.0,Inglés,4.0,3.0,1.0,no,no,no,nada,,,,nada,59.0,yes
113,2024-05-21_21h20.45.786,Unsyncopated_study2,s190,19.0,masculino,left,ESPAÑA,CatalánCastellano,Upper secondary,no,no,A,1,conjunction_syn,L1,syncopated,s1,r1,113,Online_conjL1_syn//c.ro.fo15.none.none.wav,pu,ri,ze,ki,sil,lu,ne,la,sil1,cho,sil2,['-'],,,none,none,,,,fo,3,,,,,,,,,,,,,,,3.0,2.0,Catalán,0.0,Castellano,0.0,Inglés,4.0,3.0,1.0,no,no,no,nada,,,,nada,59.0,yes
114,2024-05-21_21h20.45.786,Unsyncopated_study2,s190,19.0,masculino,left,ESPAÑA,CatalánCastellano,Upper secondary,no,no,A,1,conjunction_syn,L1,syncopated,s1,r1,114,Online_conjL1_syn//c.ro.fo13.1554.222.wav,pu,fo,fa,ki,sil,ni,cho,ro,sil1,ze,sil2,['false alarm'],[0.06320000000300752],[0.06320000000300752],1.554,no_beat,,,"[""space""]",fo,3,,,,,,,,,,,,,,,3.0,2.0,Catalán,0.0,Castellano,0.0,Inglés,4.0,3.0,1.0,no,no,no,nada,,,,nada,59.0,yes
115,2024-05-21_21h20.45.786,Unsyncopated_study2,s190,19.0,masculino,left,ESPAÑA,CatalánCastellano,Upper secondary,no,no,A,1,conjunction_syn,L1,syncopated,s2,r2,115,Online_conjL1_syn//c.ro.fo12.1332.444.wav,fa,zu,fo,ta,sil,cho,ro,be,sil1,ne,sil2,['catch'],[2.559400000005894],[2.559400000005894],1.332,no_beat,,1.227400000005894,"[""space""]",fo,3,,,,,,,,,,,,,,,3.0,2.0,Catalán,0.0,Castellano,0.0,Inglés,4.0,3.0,1.0,no,no,no,nada,,,,nada,59.0,yes
116,2024-05-21_21h20.45.786,Unsyncopated_study2,s190,19.0,masculino,left,ESPAÑA,CatalánCastellano,Upper secondary,no,no,A,1,conjunction_syn,L1,syncopated,s1,r1,116,Online_conjL1_syn//c.ro.fo28.none.none.wav,pu,ni,lu,ki,sil,ne,la,ze,sil1,fa,sil2,['-'],,,none,none,,,,fo,3,,,,,,,,,,,,,,,3.0,2.0,Catalán,0.0,Castellano,0.0,Inglés,4.0,3.0,1.0,no,no,no,nada,,,,nada,59.0,yes
117,2024-05-21_21h20.45.786,Unsyncopated_study2,s190,19.0,masculino,left,ESPAÑA,CatalánCastellano,Upper secondary,no,no,A,1,conjunction_syn,L1,syncopated,s2,r2,117,Online_conjL1_syn//c.ro.fo31.none.none.wav,ri,fa,la,ta,sil,lu,ne,be,sil1,zu,sil2,['-'],,,none,none,,,,fo,3,,,,,,,,,,,,,,,3.0,2.0,Catalán,0.0,Castellano,0.0,Inglés,4.0,3.0,1.0,no,no,no,nada,,,,nada,59.0,yes
118,2024-05-21_21h20.45.786,Unsyncopated_study2,s190,19.0,masculino,left,ESPAÑA,CatalánCastellano,Upper secondary,no,no,A,1,conjunction_syn,L1,syncopated,s1,r2,118,Online_conjL1_syn//c.ro.fo29.none.none.wav,ta,zu,ri,be,sil,la,ni,fa,sil1,lu,sil2,['-'],,,none,none,,,,fo,3,,,,,,,,,,,,,,,3.0,2.0,Catalán,0.0,Castellano,0.0,Inglés,4.0,3.0,1.0,no,no,no,nada,,,,nada,59.0,yes
119,2024-05-21_21h20.45.786,Unsyncopated_study2,s190,19.0,masculino,left,ESPAÑA,CatalánCastellano,Upper secondary,no,no,A,1,conjunction_syn,L1,syncopated,s2,r2,119,Online_conjL1_syn//c.ro.fo30.1110.0.wav,fo,ze,fa,ta,sil,ro,ri,be,sil1,ni,sil2,['catch'],[1.8942000000030248],[1.8942000000030248],1.11,no_beat,0.7842000000030247,0.7842000000030247,"[""space""]",fo,3,,,,,,,,,,,,,,,3.0,2.0,Catalán,0.0,Castellano,0.0,Inglés,4.0,3.0,1.0,no,no,no,nada,,,,nada,59.0,yes
120,2024-05-21_21h20.45.786,Unsyncopated_study2,s190,19.0,masculino,left,ESPAÑA,CatalánCastellano,Upper secondary,no,no,A,1,conjunction_syn,L1,syncopated,s1,r1,120,Online_conjL1_syn//a.pu.ki8.0.666.wav,pu,ze,ni,ki,sil,ne,ro,ri,sil1,fa,sil2,"['catch', 'false alarm']","[1.1940999999940232, 2.585099999993986]",[1.1940999999940232],0.666,no_beat,0.5280999999940231,0.5280999999940231,"[""space"",""space""]",pu,2,,,,,,,,,,,,,,,3.0,2.0,Catalán,0.0,Castellano,0.0,Inglés,4.0,3.0,1.0,no,no,no,nada,,,,nada,59.0,yes
121,2024-05-21_21h20.45.786,Unsyncopated_study2,s190,19.0,masculino,left,ESPAÑA,CatalánCastellano,Upper secondary,no,no,A,1,conjunction_syn,L1,syncopated,s2,r2,121,Online_conjL1_syn//a.pu.ki9.none.none.wav,fa,ne,cho,ta,sil,ni,zu,be,sil1,lu,sil2,['-'],,,none,none,,,,pu,2,,,,,,,,,,,,,,,3.0,2.0,Catalán,0.0,Castellano,0.0,Inglés,4.0,3.0,1.0,no,no,no,nada,,,,nada,59.0,yes
122,2024-05-21_21h20.45.786,Unsyncopated_study2,s190,19.0,masculino,left,ESPAÑA,CatalánCastellano,Upper secondary,no,no,A,1,conjunction_syn,L1,syncopated,s1,r1,122,Online_conjL1_syn//a.pu.ki10.0.666.wav,pu,ro,cho,ki,sil,zu,la,fa,sil1,ne,sil2,['catch'],[1.4452999999970189],[1.4452999999970189],0.666,no_beat,0.7792999999970188,0.7792999999970188,"[""space""]",pu,2,,,,,,,,,,,,,,,3.0,2.0,Catalán,0.0,Castellano,0.0,Inglés,4.0,3.0,1.0,no,no,no,nada,,,,nada,59.0,yes
123,2024-05-21_21h20.45.786,Unsyncopated_study2,s190,19.0,masculino,left,ESPAÑA,CatalánCastellano,Upper secondary,no,no,A,1,conjunction_syn,L1,syncopated,s1,r1,123,Online_conjL1_syn//a.pu.ki11.0.666.wav,pu,fa,ri,ki,sil,lu,cho,zu,sil1,ni,sil2,['catch'],[1.3467999999970743],[1.3467999999970743],0.666,no_beat,0.6807999999970743,0.6807999999970743,"[""space""]",pu,2,,,,,,,,,,,,,,,3.0,2.0,Catalán,0.0,Castellano,0.0,Inglés,4.0,3.0,1.0,no,no,no,nada,,,,nada,59.0,yes
124,2024-05-21_21h20.45.786,Unsyncopated_study2,s190,19.0,masculino,left,ESPAÑA,CatalánCastellano,Upper secondary,no,no,A,1,conjunction_syn,L1,syncopated,s2,r2,124,Online_conjL1_syn//b.ta.be9.666.1554.wav,la,lu,ne,ta,sil,ze,fo,be,sil1,zu,sil2,['catch'],[1.105299999996987],[1.105299999996987],0.666,no_beat,0.439299999996987,0.439299999996987,"[""space""]",be,1,,,,,,,,,,,,,,,3.0,2.0,Catalán,0.0,Castellano,0.0,Inglés,4.0,3.0,1.0,no,no,no,nada,,,,nada,59.0,yes
125,2024-05-21_21h20.45.786,Unsyncopated_study2,s190,19.0,masculino,left,ESPAÑA,CatalánCastellano,Upper secondary,no,no,A,1,conjunction_syn,L1,syncopated,s1,r2,125,Online_conjL1_syn//b.ta.be10.0.666.wav,ta,cho,ri,be,sil,ni,zu,ze,sil1,ne,sil2,['miss'],,,0.0,beat,,,,be,1,,,,,,,,,,,,,,,3.0,2.0,Catalán,0.0,Castellano,0.0,Inglés,4.0,3.0,1.0,no,no,no,nada,,,,nada,59.0,yes
126,2024-05-21_21h20.45.786,Unsyncopated_study2,s190,19.0,masculino,left,ESPAÑA,CatalánCastellano,Upper secondary,no,no,A,1,conjunction_syn,L1,syncopated,s1,r2,126,Online_conjL1_syn//b.ta.be8.0.666.wav,ta,la,zu,be,sil,ro,cho,ze,sil1,lu,sil2,['miss'],,,0.0,beat,,,,be,1,,,,,,,,,,,,,,,3.0,2.0,Catalán,0.0,Castellano,0.0,Inglés,4.0,3.0,1.0,no,no,no,nada,,,,nada,59.0,yes
127,2024-05-21_21h20.45.786,Unsyncopated_study2,s190,19.0,masculino,left,ESPAÑA,CatalánCastellano,Upper secondary,no,no,A,1,conjunction_syn,L1,syncopated,s1,r2,127,Online_conjL1_syn//b.ta.be11.0.666.wav,ta,zu,lu,be,sil,ni,ro,cho,sil1,fo,sil2,['miss'],,,0.0,beat,,,,be,1,,,,,,,,,,,,,,,3.0,2.0,Catalán,0.0,Castellano,0.0,Inglés,4.0,3.0,1.0,no,no,no,nada,,,,nada,59.0,yes
128,2024-05-21_21h20.45.786,Unsyncopated_study2,s190,19.0,masculino,left,ESPAÑA,CatalánCastellano,Upper secondary,no,no,A,2,conjunction_un,L2,unsyncopated,s2,r2,0,Online_conjL2_un//d.si.ñu5.none.none.wav,bi,ñi,mi,sil,fe,te,ba,sil1,ra,to,sil2,['-'],,,none,none,,,,ñu,4,,,,,,,,,,,,,,,3.0,2.0,Catalán,0.0,Castellano,0.0,Inglés,4.0,3.0,1.0,no,no,no,nada,,,,nada,59.0,yes
129,2024-05-21_21h20.45.786,Unsyncopated_study2,s190,19.0,masculino,left,ESPAÑA,CatalánCastellano,Upper secondary,no,no,A,2,conjunction_un,L2,unsyncopated,s1,r1,1,Online_conjL2_un//d.si.ñu7.none.none.wav,go,ñi,mi,sil,du,te,ba,sil1,su,to,sil2,['-'],,,none,none,,,,ñu,4,,,,,,,,,,,,,,,3.0,2.0,Catalán,0.0,Castellano,0.0,Inglés,4.0,3.0,1.0,no,no,no,nada,,,,nada,59.0,yes
130,2024-05-21_21h20.45.786,Unsyncopated_study2,s190,19.0,masculino,left,ESPAÑA,CatalánCastellano,Upper secondary,no,no,A,2,conjunction_un,L2,unsyncopated,s1,r1,2,Online_conjL2_un//d.si.ñu4.1332.444.wav,go,me,ñu,sil,du,cha,si,sil1,bi,to,sil2,['catch'],[1.8309999999999036],[1.8309999999999036],1.332,no_beat,0.4989999999999035,0.4989999999999035,"[""space""]",ñu,4,,,,,,,,,,,,,,,3.0,2.0,Catalán,0.0,Castellano,0.0,Inglés,4.0,3.0,1.0,no,no,no,nada,,,,nada,59.0,yes
131,2024-05-21_21h20.45.786,Unsyncopated_study2,s190,19.0,masculino,left,ESPAÑA,CatalánCastellano,Upper secondary,no,no,A,2,conjunction_un,L2,unsyncopated,s1,r1,3,Online_conjL2_un//d.si.ñu6.444.1110.wav,go,cha,si,sil,du,ñu,ba,sil1,me,to,sil2,['catch'],[0.9127000000030421],[0.9127000000030421],0.444,no_beat,0.468700000003042,0.468700000003042,"[""space""]",ñu,4,,,,,,,,,,,,,,,3.0,2.0,Catalán,0.0,Castellano,0.0,Inglés,4.0,3.0,1.0,no,no,no,nada,,,,nada,59.0,yes
132,2024-05-21_21h20.45.786,Unsyncopated_study2,s190,19.0,masculino,left,ESPAÑA,CatalánCastellano,Upper secondary,no,no,A,2,conjunction_un,L2,unsyncopated,s1,r2,4,Online_conjL2_un//d.si.ñu14.1110.222.wav,fe,ñu,ñi,sil,ra,si,ba,sil1,te,su,sil2,['catch'],[1.6336000000089825],[1.6336000000089825],1.11,no_beat,0.5236000000089824,0.5236000000089824,"[""space""]",ñu,4,,,,,,,,,,,,,,,3.0,2.0,Catalán,0.0,Castellano,0.0,Inglés,4.0,3.0,1.0,no,no,no,nada,,,,nada,59.0,yes
133,2024-05-21_21h20.45.786,Unsyncopated_study2,s190,19.0,masculino,left,ESPAÑA,CatalánCastellano,Upper secondary,no,no,A,2,conjunction_un,L2,unsyncopated,s2,r2,5,Online_conjL2_un//d.si.ñu13.0.1110.wav,si,su,ba,sil,fe,ñu,ñi,sil1,ra,mi,sil2,['catch'],[0.7692000000029111],[0.7692000000029111],0.0,beat,0.7692000000029111,0.7692000000029111,"[""space""]",ñu,4,,,,,,,,,,,,,,,3.0,2.0,Catalán,0.0,Castellano,0.0,Inglés,4.0,3.0,1.0,no,no,no,nada,,,,nada,59.0,yes
134,2024-05-21_21h20.45.786,Unsyncopated_study2,s190,19.0,masculino,left,ESPAÑA,CatalánCastellano,Upper secondary,no,no,A,2,conjunction_un,L2,unsyncopated,s2,r1,6,Online_conjL2_un//d.si.ñu15.none.none.wav,su,mi,bi,sil,go,me,ba,sil1,du,te,sil2,['-'],,,none,none,,,,ñu,4,,,,,,,,,,,,,,,3.0,2.0,Catalán,0.0,Castellano,0.0,Inglés,4.0,3.0,1.0,no,no,no,nada,,,,nada,59.0,yes
135,2024-05-21_21h20.45.786,Unsyncopated_study2,s190,19.0,masculino,left,ESPAÑA,CatalánCastellano,Upper secondary,no,no,A,2,conjunction_un,L2,unsyncopated,s2,r1,7,Online_conjL2_un//d.si.ñu12.none.none.wav,ba,bi,mi,sil,go,to,cha,sil1,du,te,sil2,['-'],,,none,none,,,,ñu,4,,,,,,,,,,,,,,,3.0,2.0,Catalán,0.0,Castellano,0.0,Inglés,4.0,3.0,1.0,no,no,no,nada,,,,nada,59.0,yes
136,2024-05-21_21h20.45.786,Unsyncopated_study2,s190,19.0,masculino,left,ESPAÑA,CatalánCastellano,Upper secondary,no,no,A,2,conjunction_un,L2,unsyncopated,s1,r2,8,Online_conjL2_un//c.cha.me7.none.none.wav,fe,su,si,sil,ra,te,mi,sil1,ba,to,sil2,['-'],,,none,none,,,,me,3,,,,,,,,,,,,,,,3.0,2.0,Catalán,0.0,Castellano,0.0,Inglés,4.0,3.0,1.0,no,no,no,nada,,,,nada,59.0,yes
137,2024-05-21_21h20.45.786,Unsyncopated_study2,s190,19.0,masculino,left,ESPAÑA,CatalánCastellano,Upper secondary,no,no,A,2,conjunction_un,L2,unsyncopated,s2,r2,9,Online_conjL2_un//c.cha.me4.none.none.wav,mi,ñu,su,sil,fe,bi,to,sil1,ra,ñi,sil2,['-'],,,none,none,,,,me,3,,,,,,,,,,,,,,,3.0,2.0,Catalán,0.0,Castellano,0.0,Inglés,4.0,3.0,1.0,no,no,no,nada,,,,nada,59.0,yes
138,2024-05-21_21h20.45.786,Unsyncopated_study2,s190,19.0,masculino,left,ESPAÑA,CatalánCastellano,Upper secondary,no,no,A,2,conjunction_un,L2,unsyncopated,s2,r1,10,Online_conjL2_un//c.cha.me5.1332.0.wav,me,ñi,mi,sil,go,to,cha,sil1,du,su,sil2,['catch'],[2.0049999999998818],[2.0049999999998818],1.332,no_beat,0.6729999999998817,0.6729999999998817,"[""space""]",me,3,,,,,,,,,,,,,,,3.0,2.0,Catalán,0.0,Castellano,0.0,Inglés,4.0,3.0,1.0,no,no,no,nada,,,,nada,59.0,yes
139,2024-05-21_21h20.45.786,Unsyncopated_study2,s190,19.0,masculino,left,ESPAÑA,CatalánCastellano,Upper secondary,no,no,A,2,conjunction_un,L2,unsyncopated,s2,r2,11,Online_conjL2_un//c.cha.me6.0.222.wav,cha,me,si,sil,fe,ba,te,sil1,ra,to,sil2,['catch'],[0.9585999999940213],[0.9585999999940213],0.0,beat,0.9585999999940212,0.9585999999940212,"[""space""]",me,3,,,,,,,,,,,,,,,3.0,2.0,Catalán,0.0,Castellano,0.0,Inglés,4.0,3.0,1.0,no,no,no,nada,,,,nada,59.0,yes
140,2024-05-21_21h20.45.786,Unsyncopated_study2,s190,19.0,masculino,left,ESPAÑA,CatalánCastellano,Upper secondary,no,no,A,2,conjunction_un,L2,unsyncopated,s1,r2,12,Online_conjL2_un//c.cha.me8.444.1332.wav,fe,bi,cha,sil,ra,ñi,me,sil1,te,si,sil2,"['false alarm', 'catch']","[0.07120000000304572, 1.0638999999912357]",[1.0638999999912357],0.444,no_beat,0.6198999999912358,0.6198999999912358,"[""space"",""space""]",me,3,,,,,,,,,,,,,,,3.0,2.0,Catalán,0.0,Castellano,0.0,Inglés,4.0,3.0,1.0,no,no,no,nada,,,,nada,59.0,yes
141,2024-05-21_21h20.45.786,Unsyncopated_study2,s190,19.0,masculino,left,ESPAÑA,CatalánCastellano,Upper secondary,no,no,A,2,conjunction_un,L2,unsyncopated,s1,r1,13,Online_conjL2_un//c.cha.me9.none.none.wav,go,to,ñi,sil,du,mi,ñu,sil1,bi,su,sil2,['-'],,,none,none,,,,me,3,,,,,,,,,,,,,,,3.0,2.0,Catalán,0.0,Castellano,0.0,Inglés,4.0,3.0,1.0,no,no,no,nada,,,,nada,59.0,yes
142,2024-05-21_21h20.45.786,Unsyncopated_study2,s190,19.0,masculino,left,ESPAÑA,CatalánCastellano,Upper secondary,no,no,A,2,conjunction_un,L2,unsyncopated,s1,r1,14,Online_conjL2_un//c.cha.me11.none.none.wav,go,su,ñu,sil,du,ñi,mi,sil1,ba,to,sil2,['-'],,,none,none,,,,me,3,,,,,,,,,,,,,,,3.0,2.0,Catalán,0.0,Castellano,0.0,Inglés,4.0,3.0,1.0,no,no,no,nada,,,,nada,59.0,yes
143,2024-05-21_21h20.45.786,Unsyncopated_study2,s190,19.0,masculino,left,ESPAÑA,CatalánCastellano,Upper secondary,no,no,A,2,conjunction_un,L2,unsyncopated,s2,r2,15,Online_conjL2_un//c.cha.me10.0.222.wav,cha,me,mi,sil,fe,su,si,sil1,ra,ba,sil2,['catch'],[0.4407000000030621],[0.4407000000030621],0.0,beat,0.4407000000030621,0.4407000000030621,"[""space""]",me,3,,,,,,,,,,,,,,,3.0,2.0,Catalán,0.0,Castellano,0.0,Inglés,4.0,3.0,1.0,no,no,no,nada,,,,nada,59.0,yes
144,2024-05-21_21h20.45.786,Unsyncopated_study2,s190,19.0,masculino,left,ESPAÑA,CatalánCastellano,Upper secondary,no,no,A,2,conjunction_un,L2,unsyncopated,s2,r2,16,Online_conjL2_un//c.cha.me23.222.444.wav,su,cha,me,sil,fe,mi,to,sil1,ra,ñu,sil2,"['catch', 'false alarm']","[0.8762999999969452, 1.7632999999968888]",[0.8762999999969452],0.222,no_beat,0.6542999999969452,0.6542999999969452,"[""space"",""space""]",me,3,,,,,,,,,,,,,,,3.0,2.0,Catalán,0.0,Castellano,0.0,Inglés,4.0,3.0,1.0,no,no,no,nada,,,,nada,59.0,yes
145,2024-05-21_21h20.45.786,Unsyncopated_study2,s190,19.0,masculino,left,ESPAÑA,CatalánCastellano,Upper secondary,no,no,A,2,conjunction_un,L2,unsyncopated,s2,r1,17,Online_conjL2_un//c.cha.me20.none.none.wav,ñu,su,ñi,sil,go,to,si,sil1,du,ba,sil2,['-'],,,none,none,,,,me,3,,,,,,,,,,,,,,,3.0,2.0,Catalán,0.0,Castellano,0.0,Inglés,4.0,3.0,1.0,no,no,no,nada,,,,nada,59.0,yes
146,2024-05-21_21h20.45.786,Unsyncopated_study2,s190,19.0,masculino,left,ESPAÑA,CatalánCastellano,Upper secondary,no,no,A,2,conjunction_un,L2,unsyncopated,s1,r2,18,Online_conjL2_un//c.cha.me21.1332.444.wav,fe,su,me,sil,ra,si,cha,sil1,ñi,ba,sil2,['catch'],[1.9702999999969961],[1.9702999999969961],1.332,no_beat,0.638299999996996,0.638299999996996,"[""space""]",me,3,,,,,,,,,,,,,,,3.0,2.0,Catalán,0.0,Castellano,0.0,Inglés,4.0,3.0,1.0,no,no,no,nada,,,,nada,59.0,yes
147,2024-05-21_21h20.45.786,Unsyncopated_study2,s190,19.0,masculino,left,ESPAÑA,CatalánCastellano,Upper secondary,no,no,A,2,conjunction_un,L2,unsyncopated,s1,r1,19,Online_conjL2_un//c.cha.me22.222.444.wav,go,cha,me,sil,du,ñu,to,sil1,te,su,sil2,['catch'],[0.9884999999999309],[0.9884999999999309],0.222,no_beat,0.7664999999999309,0.7664999999999309,"[""space""]",me,3,,,,,,,,,,,,,,,3.0,2.0,Catalán,0.0,Castellano,0.0,Inglés,4.0,3.0,1.0,no,no,no,nada,,,,nada,59.0,yes
148,2024-05-21_21h20.45.786,Unsyncopated_study2,s190,19.0,masculino,left,ESPAÑA,CatalánCastellano,Upper secondary,no,no,A,2,conjunction_un,L2,unsyncopated,s2,r1,20,Online_conjL2_un//b.fe.ra21.none.none.wav,bi,ba,to,sil,go,te,si,sil1,du,me,sil2,['-'],,,none,none,,,,ra,1,,,,,,,,,,,,,,,3.0,2.0,Catalán,0.0,Castellano,0.0,Inglés,4.0,3.0,1.0,no,no,no,nada,,,,nada,59.0,yes
149,2024-05-21_21h20.45.786,Unsyncopated_study2,s190,19.0,masculino,left,ESPAÑA,CatalánCastellano,Upper secondary,no,no,A,2,conjunction_un,L2,unsyncopated,s2,r2,21,Online_conjL2_un//b.fe.ra20.888.1776.wav,bi,ñi,me,sil,fe,cha,si,sil1,ra,su,sil2,['catch'],[1.3503000000118845],[1.3503000000118845],0.888,beat,0.4623000000118845,0.4623000000118845,"[""space""]",ra,1,,,,,,,,,,,,,,,3.0,2.0,Catalán,0.0,Castellano,0.0,Inglés,4.0,3.0,1.0,no,no,no,nada,,,,nada,59.0,yes
150,2024-05-21_21h20.45.786,Unsyncopated_study2,s190,19.0,masculino,left,ESPAÑA,CatalánCastellano,Upper secondary,no,no,A,2,conjunction_un,L2,unsyncopated,s1,r1,22,Online_conjL2_un//b.fe.ra22.none.none.wav,go,te,to,sil,du,me,ñu,sil1,ñi,si,sil2,['-'],,,none,none,,,,ra,1,,,,,,,,,,,,,,,3.0,2.0,Catalán,0.0,Castellano,0.0,Inglés,4.0,3.0,1.0,no,no,no,nada,,,,nada,59.0,yes
151,2024-05-21_21h20.45.786,Unsyncopated_study2,s190,19.0,masculino,left,ESPAÑA,CatalánCastellano,Upper secondary,no,no,A,2,conjunction_un,L2,unsyncopated,s2,r1,23,Online_conjL2_un//b.fe.ra23.none.none.wav,ñu,ba,mi,sil,go,to,ñi,sil1,du,bi,sil2,['-'],,,none,none,,,,ra,1,,,,,,,,,,,,,,,3.0,2.0,Catalán,0.0,Castellano,0.0,Inglés,4.0,3.0,1.0,no,no,no,nada,,,,nada,59.0,yes
152,2024-05-21_21h20.45.786,Unsyncopated_study2,s190,19.0,masculino,left,ESPAÑA,CatalánCastellano,Upper secondary,no,no,A,2,conjunction_un,L2,unsyncopated,s1,r2,24,Online_conjL2_un//b.fe.ra29.0.888.wav,fe,ba,si,sil,ra,bi,cha,sil1,mi,ñu,sil2,['catch'],[1.19399999999996],[1.19399999999996],0.0,beat,1.19399999999996,1.19399999999996,"[""space""]",ra,1,,,,,,,,,,,,,,,3.0,2.0,Catalán,0.0,Castellano,0.0,Inglés,4.0,3.0,1.0,no,no,no,nada,,,,nada,59.0,yes
153,2024-05-21_21h20.45.786,Unsyncopated_study2,s190,19.0,masculino,left,ESPAÑA,CatalánCastellano,Upper secondary,no,no,A,2,conjunction_un,L2,unsyncopated,s1,r1,25,Online_conjL2_un//b.fe.ra30.none.none.wav,go,si,cha,sil,du,ba,te,sil1,ñu,ñi,sil2,['-'],,,none,none,,,,ra,1,,,,,,,,,,,,,,,3.0,2.0,Catalán,0.0,Castellano,0.0,Inglés,4.0,3.0,1.0,no,no,no,nada,,,,nada,59.0,yes
154,2024-05-21_21h20.45.786,Unsyncopated_study2,s190,19.0,masculino,left,ESPAÑA,CatalánCastellano,Upper secondary,no,no,A,2,conjunction_un,L2,unsyncopated,s2,r2,26,Online_conjL2_un//b.fe.ra31.888.1776.wav,ñu,to,me,sil,fe,cha,mi,sil1,ra,ba,sil2,['catch'],[1.5874000000060278],[1.5874000000060278],0.888,beat,0.6994000000060278,0.6994000000060278,"[""space""]",ra,1,,,,,,,,,,,,,,,3.0,2.0,Catalán,0.0,Castellano,0.0,Inglés,4.0,3.0,1.0,no,no,no,nada,,,,nada,59.0,yes
155,2024-05-21_21h20.45.786,Unsyncopated_study2,s190,19.0,masculino,left,ESPAÑA,CatalánCastellano,Upper secondary,no,no,A,2,conjunction_un,L2,unsyncopated,s2,r1,27,Online_conjL2_un//b.fe.ra28.none.none.wav,me,cha,mi,sil,go,si,ñi,sil1,du,to,sil2,['-'],,,none,none,,,,ra,1,,,,,,,,,,,,,,,3.0,2.0,Catalán,0.0,Castellano,0.0,Inglés,4.0,3.0,1.0,no,no,no,nada,,,,nada,59.0,yes
156,2024-05-21_21h20.45.786,Unsyncopated_study2,s190,19.0,masculino,left,ESPAÑA,CatalánCastellano,Upper secondary,no,no,A,2,conjunction_un,L2,unsyncopated,s1,r2,28,Online_conjL2_un//a.go.du28.none.none.wav,fe,cha,ba,sil,ra,mi,me,sil1,bi,te,sil2,['-'],,,none,none,,,,go,2,,,,,,,,,,,,,,,3.0,2.0,Catalán,0.0,Castellano,0.0,Inglés,4.0,3.0,1.0,no,no,no,nada,,,,nada,59.0,yes
157,2024-05-21_21h20.45.786,Unsyncopated_study2,s190,19.0,masculino,left,ESPAÑA,CatalánCastellano,Upper secondary,no,no,A,2,conjunction_un,L2,unsyncopated,s1,r2,29,Online_conjL2_un//a.go.du31.none.none.wav,fe,to,ñi,sil,ra,bi,ñu,sil1,su,si,sil2,['-'],,,none,none,,,,go,2,,,,,,,,,,,,,,,3.0,2.0,Catalán,0.0,Castellano,0.0,Inglés,4.0,3.0,1.0,no,no,no,nada,,,,nada,59.0,yes
158,2024-05-21_21h20.45.786,Unsyncopated_study2,s190,19.0,masculino,left,ESPAÑA,CatalánCastellano,Upper secondary,no,no,A,2,conjunction_un,L2,unsyncopated,s1,r1,30,Online_conjL2_un//a.go.du29.0.888.wav,go,mi,me,sil,du,to,bi,sil1,cha,ñu,sil2,['catch'],[1.3724000000058822],[1.3724000000058822],0.888,beat,0.4844000000058822,0.4844000000058822,"[""space""]",go,2,,,,,,,,,,,,,,,3.0,2.0,Catalán,0.0,Castellano,0.0,Inglés,4.0,3.0,1.0,no,no,no,nada,,,,nada,59.0,yes
159,2024-05-21_21h20.45.786,Unsyncopated_study2,s190,19.0,masculino,left,ESPAÑA,CatalánCastellano,Upper secondary,no,no,A,2,conjunction_un,L2,unsyncopated,s1,r2,31,Online_conjL2_un//a.go.du30.none.none.wav,fe,cha,si,sil,ra,su,te,sil1,ba,bi,sil2,['false alarm'],[1.9920000000001892],[1.9920000000001892],none,none,,,"[""space""]",go,2,,,,,,,,,,,,,,,3.0,2.0,Catalán,0.0,Castellano,0.0,Inglés,4.0,3.0,1.0,no,no,no,nada,,,,nada,59.0,yes
160,2024-05-21_21h20.45.786,Unsyncopated_study2,s190,19.0,masculino,left,ESPAÑA,CatalánCastellano,Upper secondary,no,no,A,2,conjunction_un,L2,unsyncopated,s1,r2,32,Online_conjL2_un//c.cha.me14.none.none.wav,fe,mi,su,sil,ra,si,ba,sil1,te,ñi,sil2,['-'],,,none,none,,,,me,3,,,,,,,,,,,,,,,3.0,2.0,Catalán,0.0,Castellano,0.0,Inglés,4.0,3.0,1.0,no,no,no,nada,,,,nada,59.0,yes
161,2024-05-21_21h20.45.786,Unsyncopated_study2,s190,19.0,masculino,left,ESPAÑA,CatalánCastellano,Upper secondary,no,no,A,2,conjunction_un,L2,unsyncopated,s1,r1,33,Online_conjL2_un//c.cha.me12.1332.222.wav,go,me,si,sil,du,ñu,cha,sil1,ñi,bi,sil2,['catch'],[2.028900000005933],[2.028900000005933],1.332,no_beat,0.6969000000059331,0.6969000000059331,"[""space""]",me,3,,,,,,,,,,,,,,,3.0,2.0,Catalán,0.0,Castellano,0.0,Inglés,4.0,3.0,1.0,no,no,no,nada,,,,nada,59.0,yes
162,2024-05-21_21h20.45.786,Unsyncopated_study2,s190,19.0,masculino,left,ESPAÑA,CatalánCastellano,Upper secondary,no,no,A,2,conjunction_un,L2,unsyncopated,s2,r1,34,Online_conjL2_un//c.cha.me15.444.1110.wav,mi,ba,cha,sil,go,me,si,sil1,du,te,sil2,['catch'],[0.8977999999970052],[0.8977999999970052],0.444,no_beat,0.4537999999970052,0.4537999999970052,"[""space""]",me,3,,,,,,,,,,,,,,,3.0,2.0,Catalán,0.0,Castellano,0.0,Inglés,4.0,3.0,1.0,no,no,no,nada,,,,nada,59.0,yes
163,2024-05-21_21h20.45.786,Unsyncopated_study2,s190,19.0,masculino,left,ESPAÑA,CatalánCastellano,Upper secondary,no,no,A,2,conjunction_un,L2,unsyncopated,s1,r1,35,Online_conjL2_un//c.cha.me13.none.none.wav,go,bi,su,sil,du,si,te,sil1,mi,ñu,sil2,['-'],,,none,none,,,,me,3,,,,,,,,,,,,,,,3.0,2.0,Catalán,0.0,Castellano,0.0,Inglés,4.0,3.0,1.0,no,no,no,nada,,,,nada,59.0,yes
164,2024-05-21_21h20.45.786,Unsyncopated_study2,s190,19.0,masculino,left,ESPAÑA,CatalánCastellano,Upper secondary,no,no,A,2,conjunction_un,L2,unsyncopated,s1,r2,36,Online_conjL2_un//a.go.du0.none.none.wav,fe,ñu,ba,sil,ra,mi,cha,sil1,bi,si,sil2,['-'],,,none,none,,,,go,2,,,,,,,,,,,,,,,3.0,2.0,Catalán,0.0,Castellano,0.0,Inglés,4.0,3.0,1.0,no,no,no,nada,,,,nada,59.0,yes
165,2024-05-21_21h20.45.786,Unsyncopated_study2,s190,19.0,masculino,left,ESPAÑA,CatalánCastellano,Upper secondary,no,no,A,2,conjunction_un,L2,unsyncopated,s1,r1,37,Online_conjL2_un//a.go.du1.0.888.wav,go,bi,si,sil,du,ñu,ba,sil1,mi,cha,sil2,['catch'],[1.4235999999941669],[1.4235999999941669],0.888,beat,0.5355999999941669,0.5355999999941669,"[""space""]",go,2,,,,,,,,,,,,,,,3.0,2.0,Catalán,0.0,Castellano,0.0,Inglés,4.0,3.0,1.0,no,no,no,nada,,,,nada,59.0,yes
166,2024-05-21_21h20.45.786,Unsyncopated_study2,s190,19.0,masculino,left,ESPAÑA,CatalánCastellano,Upper secondary,no,no,A,2,conjunction_un,L2,unsyncopated,s2,r1,38,Online_conjL2_un//a.go.du2.888.1776.wav,si,me,to,sil,go,bi,te,sil1,du,cha,sil2,['catch'],[2.401699999988068],[2.401699999988068],1.776,beat,0.6256999999880681,0.6256999999880681,"[""space""]",go,2,,,,,,,,,,,,,,,3.0,2.0,Catalán,0.0,Castellano,0.0,Inglés,4.0,3.0,1.0,no,no,no,nada,,,,nada,59.0,yes
167,2024-05-21_21h20.45.786,Unsyncopated_study2,s190,19.0,masculino,left,ESPAÑA,CatalánCastellano,Upper secondary,no,no,A,2,conjunction_un,L2,unsyncopated,s2,r2,39,Online_conjL2_un//a.go.du3.none.none.wav,te,bi,su,sil,fe,me,ñi,sil1,ra,si,sil2,['-'],,,none,none,,,,go,2,,,,,,,,,,,,,,,3.0,2.0,Catalán,0.0,Castellano,0.0,Inglés,4.0,3.0,1.0,no,no,no,nada,,,,nada,59.0,yes
168,2024-05-21_21h20.45.786,Unsyncopated_study2,s190,19.0,masculino,left,ESPAÑA,CatalánCastellano,Upper secondary,no,no,A,2,conjunction_un,L2,unsyncopated,s2,r2,40,Online_conjL2_un//a.go.du25.none.none.wav,mi,ñu,ba,sil,fe,bi,to,sil1,ra,si,sil2,['-'],,,none,none,,,,go,2,,,,,,,,,,,,,,,3.0,2.0,Catalán,0.0,Castellano,0.0,Inglés,4.0,3.0,1.0,no,no,no,nada,,,,nada,59.0,yes
169,2024-05-21_21h20.45.786,Unsyncopated_study2,s190,19.0,masculino,left,ESPAÑA,CatalánCastellano,Upper secondary,no,no,A,2,conjunction_un,L2,unsyncopated,s1,r1,41,Online_conjL2_un//a.go.du24.0.888.wav,go,si,bi,sil,du,to,me,sil1,ñi,ba,sil2,['miss'],,,0.888,beat,,,,go,2,,,,,,,,,,,,,,,3.0,2.0,Catalán,0.0,Castellano,0.0,Inglés,4.0,3.0,1.0,no,no,no,nada,,,,nada,59.0,yes
170,2024-05-21_21h20.45.786,Unsyncopated_study2,s190,19.0,masculino,left,ESPAÑA,CatalánCastellano,Upper secondary,no,no,A,2,conjunction_un,L2,unsyncopated,s2,r2,42,Online_conjL2_un//a.go.du26.none.none.wav,mi,bi,ñi,sil,fe,cha,te,sil1,ra,su,sil2,['-'],,,none,none,,,,go,2,,,,,,,,,,,,,,,3.0,2.0,Catalán,0.0,Castellano,0.0,Inglés,4.0,3.0,1.0,no,no,no,nada,,,,nada,59.0,yes
171,2024-05-21_21h20.45.786,Unsyncopated_study2,s190,19.0,masculino,left,ESPAÑA,CatalánCastellano,Upper secondary,no,no,A,2,conjunction_un,L2,unsyncopated,s2,r1,43,Online_conjL2_un//a.go.du27.888.1776.wav,ñu,ba,bi,sil,go,si,mi,sil1,du,te,sil2,['catch'],[2.4459999999999127],[2.4459999999999127],1.776,beat,0.6699999999999127,0.6699999999999127,"[""space""]",go,2,,,,,,,,,,,,,,,3.0,2.0,Catalán,0.0,Castellano,0.0,Inglés,4.0,3.0,1.0,no,no,no,nada,,,,nada,59.0,yes
172,2024-05-21_21h20.45.786,Unsyncopated_study2,s190,19.0,masculino,left,ESPAÑA,CatalánCastellano,Upper secondary,no,no,A,2,conjunction_un,L2,unsyncopated,s1,r1,44,Online_conjL2_un//d.si.ñu22.none.none.wav,go,su,to,sil,du,ñi,me,sil1,bi,mi,sil2,['-'],,,none,none,,,,ñu,4,,,,,,,,,,,,,,,3.0,2.0,Catalán,0.0,Castellano,0.0,Inglés,4.0,3.0,1.0,no,no,no,nada,,,,nada,59.0,yes
173,2024-05-21_21h20.45.786,Unsyncopated_study2,s190,19.0,masculino,left,ESPAÑA,CatalánCastellano,Upper secondary,no,no,A,2,conjunction_un,L2,unsyncopated,s1,r2,45,Online_conjL2_un//d.si.ñu21.none.none.wav,fe,ba,mi,sil,ra,cha,su,sil1,to,me,sil2,['-'],,,none,none,,,,ñu,4,,,,,,,,,,,,,,,3.0,2.0,Catalán,0.0,Castellano,0.0,Inglés,4.0,3.0,1.0,no,no,no,nada,,,,nada,59.0,yes
174,2024-05-21_21h20.45.786,Unsyncopated_study2,s190,19.0,masculino,left,ESPAÑA,CatalánCastellano,Upper secondary,no,no,A,2,conjunction_un,L2,unsyncopated,s2,r1,46,Online_conjL2_un//d.si.ñu23.none.none.wav,su,to,ñi,sil,go,mi,cha,sil1,du,ba,sil2,['false alarm'],[1.0937999999971453],[1.0937999999971453],none,none,,,"[""space""]",ñu,4,,,,,,,,,,,,,,,3.0,2.0,Catalán,0.0,Castellano,0.0,Inglés,4.0,3.0,1.0,no,no,no,nada,,,,nada,59.0,yes
175,2024-05-21_21h20.45.786,Unsyncopated_study2,s190,19.0,masculino,left,ESPAÑA,CatalánCastellano,Upper secondary,no,no,A,2,conjunction_un,L2,unsyncopated,s1,r2,47,Online_conjL2_un//d.si.ñu20.1776.222.wav,fe,ñu,cha,sil,ra,bi,te,sil1,si,ñi,sil2,['catch'],[2.4867999999971744],[2.4867999999971744],1.776,beat,0.7107999999971744,0.7107999999971744,"[""space""]",ñu,4,,,,,,,,,,,,,,,3.0,2.0,Catalán,0.0,Castellano,0.0,Inglés,4.0,3.0,1.0,no,no,no,nada,,,,nada,59.0,yes
176,2024-05-21_21h20.45.786,Unsyncopated_study2,s190,19.0,masculino,left,ESPAÑA,CatalánCastellano,Upper secondary,no,no,A,2,conjunction_un,L2,unsyncopated,s2,r2,48,Online_conjL2_un//d.si.ñu17.1110.0.wav,ñu,bi,te,sil,fe,si,me,sil1,ra,ba,sil2,['catch'],[1.958799999996927],[1.958799999996927],1.11,no_beat,0.8487999999969269,0.8487999999969269,"[""space""]",ñu,4,,,,,,,,,,,,,,,3.0,2.0,Catalán,0.0,Castellano,0.0,Inglés,4.0,3.0,1.0,no,no,no,nada,,,,nada,59.0,yes
177,2024-05-21_21h20.45.786,Unsyncopated_study2,s190,19.0,masculino,left,ESPAÑA,CatalánCastellano,Upper secondary,no,no,A,2,conjunction_un,L2,unsyncopated,s1,r1,49,Online_conjL2_un//d.si.ñu19.444.1332.wav,go,su,si,sil,du,to,ñu,sil1,te,me,sil2,['catch'],[0.797700000003033],[0.797700000003033],0.444,no_beat,0.353700000003033,0.353700000003033,"[""space""]",ñu,4,,,,,,,,,,,,,,,3.0,2.0,Catalán,0.0,Castellano,0.0,Inglés,4.0,3.0,1.0,no,no,no,nada,,,,nada,59.0,yes
178,2024-05-21_21h20.45.786,Unsyncopated_study2,s190,19.0,masculino,left,ESPAÑA,CatalánCastellano,Upper secondary,no,no,A,2,conjunction_un,L2,unsyncopated,s2,r1,50,Online_conjL2_un//d.si.ñu18.1332.222.wav,bi,ñu,me,sil,go,cha,si,sil1,du,ba,sil2,['miss'],,,1.332,no_beat,,,,ñu,4,,,,,,,,,,,,,,,3.0,2.0,Catalán,0.0,Castellano,0.0,Inglés,4.0,3.0,1.0,no,no,no,nada,,,,nada,59.0,yes
179,2024-05-21_21h20.45.786,Unsyncopated_study2,s190,19.0,masculino,left,ESPAÑA,CatalánCastellano,Upper secondary,no,no,A,2,conjunction_un,L2,unsyncopated,s2,r1,51,Online_conjL2_un//d.si.ñu16.1110.222.wav,te,ñu,mi,sil,go,si,to,sil1,du,me,sil2,"['false alarm', 'catch']","[0.48820000000296204, 1.6909000000059677]",[1.6909000000059677],1.11,no_beat,0.5809000000059676,0.5809000000059676,"[""space"",""space""]",ñu,4,,,,,,,,,,,,,,,3.0,2.0,Catalán,0.0,Castellano,0.0,Inglés,4.0,3.0,1.0,no,no,no,nada,,,,nada,59.0,yes
180,2024-05-21_21h20.45.786,Unsyncopated_study2,s190,19.0,masculino,left,ESPAÑA,CatalánCastellano,Upper secondary,no,no,A,2,conjunction_un,L2,unsyncopated,s1,r2,52,Online_conjL2_un//c.cha.me27.1776.444.wav,fe,bi,me,sil,ra,mi,ba,sil1,cha,ñu,sil2,['catch'],[2.209299999997029],[2.209299999997029],1.776,beat,0.4332999999970288,0.4332999999970288,"[""space""]",me,3,,,,,,,,,,,,,,,3.0,2.0,Catalán,0.0,Castellano,0.0,Inglés,4.0,3.0,1.0,no,no,no,nada,,,,nada,59.0,yes
181,2024-05-21_21h20.45.786,Unsyncopated_study2,s190,19.0,masculino,left,ESPAÑA,CatalánCastellano,Upper secondary,no,no,A,2,conjunction_un,L2,unsyncopated,s2,r1,53,Online_conjL2_un//c.cha.me26.none.none.wav,to,si,ba,sil,go,ñi,ñu,sil1,du,bi,sil2,['-'],,,none,none,,,,me,3,,,,,,,,,,,,,,,3.0,2.0,Catalán,0.0,Castellano,0.0,Inglés,4.0,3.0,1.0,no,no,no,nada,,,,nada,59.0,yes
182,2024-05-21_21h20.45.786,Unsyncopated_study2,s190,19.0,masculino,left,ESPAÑA,CatalánCastellano,Upper secondary,no,no,A,2,conjunction_un,L2,unsyncopated,s2,r1,54,Online_conjL2_un//c.cha.me24.444.0.wav,me,ba,cha,sil,go,su,bi,sil1,du,ñu,sil2,['catch'],[1.1918000000121083],[1.1918000000121083],0.444,no_beat,0.7478000000121083,0.7478000000121083,"[""space""]",me,3,,,,,,,,,,,,,,,3.0,2.0,Catalán,0.0,Castellano,0.0,Inglés,4.0,3.0,1.0,no,no,no,nada,,,,nada,59.0,yes
183,2024-05-21_21h20.45.786,Unsyncopated_study2,s190,19.0,masculino,left,ESPAÑA,CatalánCastellano,Upper secondary,no,no,A,2,conjunction_un,L2,unsyncopated,s1,r2,55,Online_conjL2_un//c.cha.me25.none.none.wav,fe,ñu,ba,sil,ra,ñi,si,sil1,te,su,sil2,['-'],,,none,none,,,,me,3,,,,,,,,,,,,,,,3.0,2.0,Catalán,0.0,Castellano,0.0,Inglés,4.0,3.0,1.0,no,no,no,nada,,,,nada,59.0,yes
184,2024-05-21_21h20.45.786,Unsyncopated_study2,s190,19.0,masculino,left,ESPAÑA,CatalánCastellano,Upper secondary,no,no,A,2,conjunction_un,L2,unsyncopated,s2,r2,56,Online_conjL2_un//a.go.du4.none.none.wav,ñi,ba,cha,sil,fe,bi,ñu,sil1,ra,mi,sil2,['-'],,,none,none,,,,go,2,,,,,,,,,,,,,,,3.0,2.0,Catalán,0.0,Castellano,0.0,Inglés,4.0,3.0,1.0,no,no,no,nada,,,,nada,59.0,yes
185,2024-05-21_21h20.45.786,Unsyncopated_study2,s190,19.0,masculino,left,ESPAÑA,CatalánCastellano,Upper secondary,no,no,A,2,conjunction_un,L2,unsyncopated,s1,r2,57,Online_conjL2_un//a.go.du5.none.none.wav,fe,bi,me,sil,ra,to,si,sil1,ñi,ñu,sil2,"['false alarm', 'false alarm']","[0.4427000000027874, 2.3099999999999454]",2.3099999999999454,none,none,,,"[""space"",""space""]",go,2,,,,,,,,,,,,,,,3.0,2.0,Catalán,0.0,Castellano,0.0,Inglés,4.0,3.0,1.0,no,no,no,nada,,,,nada,59.0,yes
186,2024-05-21_21h20.45.786,Unsyncopated_study2,s190,19.0,masculino,left,ESPAÑA,CatalánCastellano,Upper secondary,no,no,A,2,conjunction_un,L2,unsyncopated,s2,r2,58,Online_conjL2_un//a.go.du7.none.none.wav,to,ñi,su,sil,fe,si,ñu,sil1,ra,cha,sil2,['-'],,,none,none,,,,go,2,,,,,,,,,,,,,,,3.0,2.0,Catalán,0.0,Castellano,0.0,Inglés,4.0,3.0,1.0,no,no,no,nada,,,,nada,59.0,yes
187,2024-05-21_21h20.45.786,Unsyncopated_study2,s190,19.0,masculino,left,ESPAÑA,CatalánCastellano,Upper secondary,no,no,A,2,conjunction_un,L2,unsyncopated,s2,r2,59,Online_conjL2_un//a.go.du6.none.none.wav,ñu,ba,bi,sil,fe,me,su,sil1,ra,to,sil2,['false alarm'],[0.6817999999971107],[0.6817999999971107],none,none,,,"[""space""]",go,2,,,,,,,,,,,,,,,3.0,2.0,Catalán,0.0,Castellano,0.0,Inglés,4.0,3.0,1.0,no,no,no,nada,,,,nada,59.0,yes
188,2024-05-21_21h20.45.786,Unsyncopated_study2,s190,19.0,masculino,left,ESPAÑA,CatalánCastellano,Upper secondary,no,no,A,2,conjunction_un,L2,unsyncopated,s2,r1,60,Online_conjL2_un//a.go.du11.888.1776.wav,si,ba,ñu,sil,go,ñi,mi,sil1,du,te,sil2,['catch_delay'],[1.1180999999940815],[1.1180999999940815],1.776,beat,1.1180999999940815,1.1180999999940815,,go,2,,,,,,,,,,,,,,,3.0,2.0,Catalán,0.0,Castellano,0.0,Inglés,4.0,3.0,1.0,no,no,no,nada,,,,nada,59.0,yes
189,2024-05-21_21h20.45.786,Unsyncopated_study2,s190,19.0,masculino,left,ESPAÑA,CatalánCastellano,Upper secondary,no,no,A,2,conjunction_un,L2,unsyncopated,s1,r2,61,Online_conjL2_un//a.go.du8.none.none.wav,fe,to,ñi,sil,ra,ba,cha,sil1,ñu,bi,sil2,['-'],[0.23009999999408137],[0.23009999999408137],none,none,,,"[""space""]",go,2,,,,,,,,,,,,,,,3.0,2.0,Catalán,0.0,Castellano,0.0,Inglés,4.0,3.0,1.0,no,no,no,nada,,,,nada,59.0,yes
190,2024-05-21_21h20.45.786,Unsyncopated_study2,s190,19.0,masculino,left,ESPAÑA,CatalánCastellano,Upper secondary,no,no,A,2,conjunction_un,L2,unsyncopated,s2,r1,62,Online_conjL2_un//a.go.du9.888.1776.wav,mi,bi,cha,sil,go,ñu,si,sil1,du,to,sil2,['catch_delay'],[1.0900999999940615],[1.0900999999940615],1.776,beat,1.0900999999940617,1.0900999999940617,,go,2,,,,,,,,,,,,,,,3.0,2.0,Catalán,0.0,Castellano,0.0,Inglés,4.0,3.0,1.0,no,no,no,nada,,,,nada,59.0,yes
191,2024-05-21_21h20.45.786,Unsyncopated_study2,s190,19.0,masculino,left,ESPAÑA,CatalánCastellano,Upper secondary,no,no,A,2,conjunction_un,L2,unsyncopated,s1,r1,63,Online_conjL2_un//a.go.du10.0.888.wav,go,bi,ñi,sil,du,si,te,sil1,ñu,su,sil2,['miss'],[0.20209999999406136],[0.20209999999406136],0.888,beat,,,"[""space""]",go,2,,,,,,,,,,,,,,,3.0,2.0,Catalán,0.0,Castellano,0.0,Inglés,4.0,3.0,1.0,no,no,no,nada,,,,nada,59.0,yes
192,2024-05-21_21h20.45.786,Unsyncopated_study2,s190,19.0,masculino,left,ESPAÑA,CatalánCastellano,Upper secondary,no,no,A,2,conjunction_un,L2,unsyncopated,s2,r1,64,Online_conjL2_un//d.si.ñu11.none.none.wav,ba,to,bi,sil,go,mi,te,sil1,du,su,sil2,['-'],,,none,none,,,,ñu,4,,,,,,,,,,,,,,,3.0,2.0,Catalán,0.0,Castellano,0.0,Inglés,4.0,3.0,1.0,no,no,no,nada,,,,nada,59.0,yes
193,2024-05-21_21h20.45.786,Unsyncopated_study2,s190,19.0,masculino,left,ESPAÑA,CatalánCastellano,Upper secondary,no,no,A,2,conjunction_un,L2,unsyncopated,s1,r2,65,Online_conjL2_un//d.si.ñu10.none.none.wav,fe,ba,bi,sil,ra,te,mi,sil1,me,to,sil2,['false alarm'],[0.16720000000304935],[0.16720000000304935],none,none,,,"[""space""]",ñu,4,,,,,,,,,,,,,,,3.0,2.0,Catalán,0.0,Castellano,0.0,Inglés,4.0,3.0,1.0,no,no,no,nada,,,,nada,59.0,yes
194,2024-05-21_21h20.45.786,Unsyncopated_study2,s190,19.0,masculino,left,ESPAÑA,CatalánCastellano,Upper secondary,no,no,A,2,conjunction_un,L2,unsyncopated,s2,r1,66,Online_conjL2_un//d.si.ñu8.0.222.wav,si,ñu,bi,sil,go,me,to,sil1,du,ba,sil2,['catch'],[0.8704999999999927],[0.8704999999999927],0.0,beat,0.8704999999999927,0.8704999999999927,"[""space""]",ñu,4,,,,,,,,,,,,,,,3.0,2.0,Catalán,0.0,Castellano,0.0,Inglés,4.0,3.0,1.0,no,no,no,nada,,,,nada,59.0,yes
195,2024-05-21_21h20.45.786,Unsyncopated_study2,s190,19.0,masculino,left,ESPAÑA,CatalánCastellano,Upper secondary,no,no,A,2,conjunction_un,L2,unsyncopated,s2,r2,67,Online_conjL2_un//d.si.ñu9.none.none.wav,bi,cha,to,sil,fe,te,ba,sil1,ra,me,sil2,['-'],,,none,none,,,,ñu,4,,,,,,,,,,,,,,,3.0,2.0,Catalán,0.0,Castellano,0.0,Inglés,4.0,3.0,1.0,no,no,no,nada,,,,nada,59.0,yes
196,2024-05-21_21h20.45.786,Unsyncopated_study2,s190,19.0,masculino,left,ESPAÑA,CatalánCastellano,Upper secondary,no,no,A,2,conjunction_un,L2,unsyncopated,s1,r1,68,Online_conjL2_un//b.fe.ra3.none.none.wav,go,bi,to,sil,du,me,ba,sil1,su,ñi,sil2,['-'],,,none,none,,,,ra,1,,,,,,,,,,,,,,,3.0,2.0,Catalán,0.0,Castellano,0.0,Inglés,4.0,3.0,1.0,no,no,no,nada,,,,nada,59.0,yes
197,2024-05-21_21h20.45.786,Unsyncopated_study2,s190,19.0,masculino,left,ESPAÑA,CatalánCastellano,Upper secondary,no,no,A,2,conjunction_un,L2,unsyncopated,s1,r1,69,Online_conjL2_un//b.fe.ra1.none.none.wav,go,te,su,sil,du,mi,ba,sil1,si,me,sil2,['-'],,,none,none,,,,ra,1,,,,,,,,,,,,,,,3.0,2.0,Catalán,0.0,Castellano,0.0,Inglés,4.0,3.0,1.0,no,no,no,nada,,,,nada,59.0,yes
198,2024-05-21_21h20.45.786,Unsyncopated_study2,s190,19.0,masculino,left,ESPAÑA,CatalánCastellano,Upper secondary,no,no,A,2,conjunction_un,L2,unsyncopated,s2,r2,70,Online_conjL2_un//b.fe.ra0.888.1776.wav,ñi,mi,si,sil,fe,to,ñu,sil1,ra,ba,sil2,['miss'],,,0.888,beat,,,,ra,1,,,,,,,,,,,,,,,3.0,2.0,Catalán,0.0,Castellano,0.0,Inglés,4.0,3.0,1.0,no,no,no,nada,,,,nada,59.0,yes
199,2024-05-21_21h20.45.786,Unsyncopated_study2,s190,19.0,masculino,left,ESPAÑA,CatalánCastellano,Upper secondary,no,no,A,2,conjunction_un,L2,unsyncopated,s2,r2,71,Online_conjL2_un//b.fe.ra2.888.1776.wav,bi,te,mi,sil,fe,ñu,si,sil1,ra,ba,sil2,['miss'],,,0.888,beat,,,,ra,1,,,,,,,,,,,,,,,3.0,2.0,Catalán,0.0,Castellano,0.0,Inglés,4.0,3.0,1.0,no,no,no,nada,,,,nada,59.0,yes
200,2024-05-21_21h20.45.786,Unsyncopated_study2,s190,19.0,masculino,left,ESPAÑA,CatalánCastellano,Upper secondary,no,no,A,2,conjunction_un,L2,unsyncopated,s1,r2,72,Online_conjL2_un//b.fe.ra6.0.888.wav,fe,me,ñu,sil,ra,ñi,mi,sil1,to,bi,sil2,['miss'],,,0.0,beat,,,,ra,1,,,,,,,,,,,,,,,3.0,2.0,Catalán,0.0,Castellano,0.0,Inglés,4.0,3.0,1.0,no,no,no,nada,,,,nada,59.0,yes
201,2024-05-21_21h20.45.786,Unsyncopated_study2,s190,19.0,masculino,left,ESPAÑA,CatalánCastellano,Upper secondary,no,no,A,2,conjunction_un,L2,unsyncopated,s1,r1,73,Online_conjL2_un//b.fe.ra7.none.none.wav,go,ñu,si,sil,du,me,ñi,sil1,te,ba,sil2,['-'],,,none,none,,,,ra,1,,,,,,,,,,,,,,,3.0,2.0,Catalán,0.0,Castellano,0.0,Inglés,4.0,3.0,1.0,no,no,no,nada,,,,nada,59.0,yes
202,2024-05-21_21h20.45.786,Unsyncopated_study2,s190,19.0,masculino,left,ESPAÑA,CatalánCastellano,Upper secondary,no,no,A,2,conjunction_un,L2,unsyncopated,s2,r1,74,Online_conjL2_un//b.fe.ra5.none.none.wav,cha,si,su,sil,go,bi,mi,sil1,du,ñu,sil2,['false alarm'],[2.490899999991143],[2.490899999991143],none,none,,,"[""space""]",ra,1,,,,,,,,,,,,,,,3.0,2.0,Catalán,0.0,Castellano,0.0,Inglés,4.0,3.0,1.0,no,no,no,nada,,,,nada,59.0,yes
203,2024-05-21_21h20.45.786,Unsyncopated_study2,s190,19.0,masculino,left,ESPAÑA,CatalánCastellano,Upper secondary,no,no,A,2,conjunction_un,L2,unsyncopated,s2,r2,75,Online_conjL2_un//b.fe.ra4.888.1776.wav,bi,ñi,to,sil,fe,me,ba,sil1,ra,cha,sil2,['catch'],[1.349299999997129],[1.349299999997129],0.888,beat,0.4612999999971289,0.4612999999971289,"[""space""]",ra,1,,,,,,,,,,,,,,,3.0,2.0,Catalán,0.0,Castellano,0.0,Inglés,4.0,3.0,1.0,no,no,no,nada,,,,nada,59.0,yes
204,2024-05-21_21h20.45.786,Unsyncopated_study2,s190,19.0,masculino,left,ESPAÑA,CatalánCastellano,Upper secondary,no,no,A,2,conjunction_un,L2,unsyncopated,s1,r2,76,Online_conjL2_un//b.fe.ra9.0.888.wav,fe,ñu,cha,sil,ra,to,bi,sil1,te,ba,sil2,['catch'],[0.6037999999971362],[0.6037999999971362],0.0,beat,0.6037999999971362,0.6037999999971362,"[""space""]",ra,1,,,,,,,,,,,,,,,3.0,2.0,Catalán,0.0,Castellano,0.0,Inglés,4.0,3.0,1.0,no,no,no,nada,,,,nada,59.0,yes
205,2024-05-21_21h20.45.786,Unsyncopated_study2,s190,19.0,masculino,left,ESPAÑA,CatalánCastellano,Upper secondary,no,no,A,2,conjunction_un,L2,unsyncopated,s2,r1,77,Online_conjL2_un//b.fe.ra8.none.none.wav,si,to,mi,sil,go,cha,me,sil1,du,bi,sil2,['-'],,,none,none,,,,ra,1,,,,,,,,,,,,,,,3.0,2.0,Catalán,0.0,Castellano,0.0,Inglés,4.0,3.0,1.0,no,no,no,nada,,,,nada,59.0,yes
206,2024-05-21_21h20.45.786,Unsyncopated_study2,s190,19.0,masculino,left,ESPAÑA,CatalánCastellano,Upper secondary,no,no,A,2,conjunction_un,L2,unsyncopated,s1,r2,78,Online_conjL2_un//b.fe.ra11.0.888.wav,fe,bi,mi,sil,ra,te,su,sil1,cha,ba,sil2,['catch'],[0.7022000000029038],[0.7022000000029038],0.0,beat,0.7022000000029038,0.7022000000029038,"[""space""]",ra,1,,,,,,,,,,,,,,,3.0,2.0,Catalán,0.0,Castellano,0.0,Inglés,4.0,3.0,1.0,no,no,no,nada,,,,nada,59.0,yes
207,2024-05-21_21h20.45.786,Unsyncopated_study2,s190,19.0,masculino,left,ESPAÑA,CatalánCastellano,Upper secondary,no,no,A,2,conjunction_un,L2,unsyncopated,s1,r2,79,Online_conjL2_un//b.fe.ra10.0.888.wav,fe,ñu,cha,sil,ra,mi,bi,sil1,me,si,sil2,['catch'],[0.4944000000059532],[0.4944000000059532],0.0,beat,0.4944000000059532,0.4944000000059532,"[""space""]",ra,1,,,,,,,,,,,,,,,3.0,2.0,Catalán,0.0,Castellano,0.0,Inglés,4.0,3.0,1.0,no,no,no,nada,,,,nada,59.0,yes
208,2024-05-21_21h20.45.786,Unsyncopated_study2,s190,19.0,masculino,left,ESPAÑA,CatalánCastellano,Upper secondary,no,no,A,2,conjunction_un,L2,unsyncopated,s2,r1,80,Online_conjL2_un//b.fe.ra27.none.none.wav,mi,si,me,sil,go,ñu,to,sil1,du,te,sil2,['-'],,,none,none,,,,ra,1,,,,,,,,,,,,,,,3.0,2.0,Catalán,0.0,Castellano,0.0,Inglés,4.0,3.0,1.0,no,no,no,nada,,,,nada,59.0,yes
209,2024-05-21_21h20.45.786,Unsyncopated_study2,s190,19.0,masculino,left,ESPAÑA,CatalánCastellano,Upper secondary,no,no,A,2,conjunction_un,L2,unsyncopated,s2,r2,81,Online_conjL2_un//b.fe.ra25.888.1776.wav,me,bi,si,sil,fe,su,te,sil1,ra,cha,sil2,['catch'],[1.0909000000060587],[1.0909000000060587],0.888,beat,0.2029000000060586,0.2029000000060586,"[""space""]",ra,1,,,,,,,,,,,,,,,3.0,2.0,Catalán,0.0,Castellano,0.0,Inglés,4.0,3.0,1.0,no,no,no,nada,,,,nada,59.0,yes
210,2024-05-21_21h20.45.786,Unsyncopated_study2,s190,19.0,masculino,left,ESPAÑA,CatalánCastellano,Upper secondary,no,no,A,2,conjunction_un,L2,unsyncopated,s2,r2,82,Online_conjL2_un//b.fe.ra26.888.1776.wav,ba,su,si,sil,fe,ñu,mi,sil1,ra,ñi,sil2,['miss'],,,0.888,beat,,,,ra,1,,,,,,,,,,,,,,,3.0,2.0,Catalán,0.0,Castellano,0.0,Inglés,4.0,3.0,1.0,no,no,no,nada,,,,nada,59.0,yes
211,2024-05-21_21h20.45.786,Unsyncopated_study2,s190,19.0,masculino,left,ESPAÑA,CatalánCastellano,Upper secondary,no,no,A,2,conjunction_un,L2,unsyncopated,s1,r1,83,Online_conjL2_un//b.fe.ra24.none.none.wav,go,su,bi,sil,du,me,ñi,sil1,mi,cha,sil2,['-'],,,none,none,,,,ra,1,,,,,,,,,,,,,,,3.0,2.0,Catalán,0.0,Castellano,0.0,Inglés,4.0,3.0,1.0,no,no,no,nada,,,,nada,59.0,yes
212,2024-05-21_21h20.45.786,Unsyncopated_study2,s190,19.0,masculino,left,ESPAÑA,CatalánCastellano,Upper secondary,no,no,A,2,conjunction_un,L2,unsyncopated,s1,r1,84,Online_conjL2_un//a.go.du18.0.888.wav,go,me,si,sil,du,ñi,ba,sil1,su,to,sil2,['catch'],[1.4462000000030457],[1.4462000000030457],0.888,beat,0.5582000000030457,0.5582000000030457,"[""space""]",go,2,,,,,,,,,,,,,,,3.0,2.0,Catalán,0.0,Castellano,0.0,Inglés,4.0,3.0,1.0,no,no,no,nada,,,,nada,59.0,yes
213,2024-05-21_21h20.45.786,Unsyncopated_study2,s190,19.0,masculino,left,ESPAÑA,CatalánCastellano,Upper secondary,no,no,A,2,conjunction_un,L2,unsyncopated,s1,r2,85,Online_conjL2_un//a.go.du17.none.none.wav,fe,mi,su,sil,ra,me,bi,sil1,te,si,sil2,['-'],,,none,none,,,,go,2,,,,,,,,,,,,,,,3.0,2.0,Catalán,0.0,Castellano,0.0,Inglés,4.0,3.0,1.0,no,no,no,nada,,,,nada,59.0,yes
214,2024-05-21_21h20.45.786,Unsyncopated_study2,s190,19.0,masculino,left,ESPAÑA,CatalánCastellano,Upper secondary,no,no,A,2,conjunction_un,L2,unsyncopated,s1,r1,86,Online_conjL2_un//a.go.du19.0.888.wav,go,ba,si,sil,du,su,mi,sil1,ñi,cha,sil2,['miss'],,,0.888,beat,,,,go,2,,,,,,,,,,,,,,,3.0,2.0,Catalán,0.0,Castellano,0.0,Inglés,4.0,3.0,1.0,no,no,no,nada,,,,nada,59.0,yes
215,2024-05-21_21h20.45.786,Unsyncopated_study2,s190,19.0,masculino,left,ESPAÑA,CatalánCastellano,Upper secondary,no,no,A,2,conjunction_un,L2,unsyncopated,s2,r1,87,Online_conjL2_un//a.go.du16.888.1776.wav,cha,me,ba,sil,go,to,si,sil1,du,ñi,sil2,['catch'],[2.4543999999912103],[2.4543999999912103],1.776,beat,0.6783999999912103,0.6783999999912103,"[""space""]",go,2,,,,,,,,,,,,,,,3.0,2.0,Catalán,0.0,Castellano,0.0,Inglés,4.0,3.0,1.0,no,no,no,nada,,,,nada,59.0,yes
