Unnamed: 0,date,expName,participant,age,sex,hand,residence,native_lang,education_level,lang_deficit,aud_deficit,group,block,condition,language,rhythm,rule structure online,rule type online,order_trial_on,trial_online,s1,s2,s3,s4,s5,s6,s7,s8,s9,s10,s11,catch_syll_resp,rts_syll_catch,clean_rts,time_syll,beat_no_beat,catch_rtsTR,catch_rts,syllable_catch.keys,cond_syll,syll_to_catch,test_offline,block_off,condition_off,rhythm_off,rule,rule_str_off,rule_norule,conds_offline,language_off,Partz_no_partm.keys,Partz_no_partm.rt,security_1_7.keys,accuracy,security_1_7.rt,n_lang,n_lang_used,lang_1,age_l1,lang_2,age_l2,lang_3,age_l3,ability_learn_l2,tendence_mix_lan,music_experience,muisc_use,partiture,instr_1,age_M1,preguntas_musica1,BMRQ_answer.response,final comment,BMRQ_Score,bilingual
0,2024-02-19_14h23.37.442,Unsyncopated_study2,s94,28.0,feminino,right,España,Castellano,Master degree,no,no,A,1,conjunction_syn,L1,syncopated,s1,r1,0,Online_conjL1_syn//c.ro.fo7.none.none.wav,pu,zu,la,ki,sil,ze,ne,lu,sil1,ri,sil2,['-'],,,none,none,,,,ro,3,testConjL1Syn//r2.s2.1.wav,1.0,conjunction_syn,syncopated,b,s2,rule,rule,L1,z,1.4952,7.0,1.0,7.7396,3.0,2.0,Castellano,0.0,Catalan ,7.0,Inglés,3.0,5.0,2.0,no,no,no,nada,,1. Cuando comparto música con alguien siento una complicidad especial con aquella persona.,4.0,"En algun momento me ha costado mantener la atención. Al tener la consigna anterior algunas respuestas son debidas a la falta de control inhibitorio. Además, a veces se hacia difícil descifrar bien el sonido, sobre todo el /j/. ",80.0,yes
1,2024-02-19_14h23.37.442,Unsyncopated_study2,s94,28.0,feminino,right,España,Castellano,Master degree,no,no,A,1,conjunction_syn,L1,syncopated,s2,r1,1,Online_conjL1_syn//c.ro.fo5.1332.0.wav,fo,zu,cho,pu,sil,ni,ro,ki,sil1,fa,sil2,['catch'],[2.0734999999999673],[2.0734999999999673],1.332,no_beat,0.7414999999999672,0.7414999999999672,"[""space""]",ro,3,testConjL1Syn//cat_viol.r2.s1.0.wav,1.0,conjunction_syn,syncopated,b,s1,no_rule,cat,L1,z,1.565,7.0,0.0,1.1924,3.0,2.0,Castellano,0.0,Catalan ,7.0,Inglés,3.0,5.0,2.0,no,no,no,nada,,2. En mi tiempo libre apenas escucho música.,5.0,"En algun momento me ha costado mantener la atención. Al tener la consigna anterior algunas respuestas son debidas a la falta de control inhibitorio. Además, a veces se hacia difícil descifrar bien el sonido, sobre todo el /j/. ",80.0,yes
2,2024-02-19_14h23.37.442,Unsyncopated_study2,s94,28.0,feminino,right,España,Castellano,Master degree,no,no,A,1,conjunction_syn,L1,syncopated,s1,r2,2,Online_conjL1_syn//c.ro.fo4.444.1110.wav,ta,ze,ro,be,sil,fo,ni,cho,sil1,zu,sil2,['catch'],[0.9093000000119673],[0.9093000000119673],0.444,no_beat,0.4653000000119673,0.4653000000119673,"[""space""]",ro,3,testConjL1Syn//time_viol.r2.s1.0.wav,1.0,conjunction_syn,syncopated,b,s1,no_rule,time,L1,z,0.9291,6.0,0.0,1.5163,3.0,2.0,Castellano,0.0,Catalan ,7.0,Inglés,3.0,5.0,2.0,no,no,no,nada,,3. Algunas canciones me ponen los pelos de punta,4.0,"En algun momento me ha costado mantener la atención. Al tener la consigna anterior algunas respuestas son debidas a la falta de control inhibitorio. Además, a veces se hacia difícil descifrar bien el sonido, sobre todo el /j/. ",80.0,yes
3,2024-02-19_14h23.37.442,Unsyncopated_study2,s94,28.0,feminino,right,España,Castellano,Master degree,no,no,A,1,conjunction_syn,L1,syncopated,s1,r2,3,Online_conjL1_syn//c.ro.fo6.none.none.wav,ta,fa,ni,be,sil,la,ne,cho,sil1,ze,sil2,['-'],,,none,none,,,,ro,3,testConjL1Syn//time_viol.r2.s2.0.wav,1.0,conjunction_syn,syncopated,b,s2,no_rule,time,L1,z,5.3944,3.0,0.0,3.5139,3.0,2.0,Castellano,0.0,Catalan ,7.0,Inglés,3.0,5.0,2.0,no,no,no,nada,,4. La música me hace compañía cuando estoy solo,4.0,"En algun momento me ha costado mantener la atención. Al tener la consigna anterior algunas respuestas son debidas a la falta de control inhibitorio. Además, a veces se hacia difícil descifrar bien el sonido, sobre todo el /j/. ",80.0,yes
4,2024-02-19_14h23.37.442,Unsyncopated_study2,s94,28.0,feminino,right,España,Castellano,Master degree,no,no,A,1,conjunction_syn,L1,syncopated,s1,r1,4,Online_conjL1_syn//c.ro.fo18.1110.222.wav,pu,fo,zu,ki,sil,ro,cho,ze,sil1,ne,sil2,['catch'],[1.6486999999880254],[1.6486999999880254],1.11,no_beat,0.5386999999880253,0.5386999999880253,"[""space""]",ro,3,testConjL1Syn//r1.s1.0.wav,1.0,conjunction_syn,syncopated,a,s1,rule,rule,L1,z,0.557,7.0,1.0,1.0874,3.0,2.0,Castellano,0.0,Catalan ,7.0,Inglés,3.0,5.0,2.0,no,no,no,nada,,5. No me apetece bailar ni con la música que más me gusta,5.0,"En algun momento me ha costado mantener la atención. Al tener la consigna anterior algunas respuestas son debidas a la falta de control inhibitorio. Además, a veces se hacia difícil descifrar bien el sonido, sobre todo el /j/. ",80.0,yes
5,2024-02-19_14h23.37.442,Unsyncopated_study2,s94,28.0,feminino,right,España,Castellano,Master degree,no,no,A,1,conjunction_syn,L1,syncopated,s2,r1,5,Online_conjL1_syn//c.ro.fo17.444.0.wav,fo,fa,ro,pu,sil,lu,ze,ki,sil1,ni,sil2,['catch'],[1.0479000000357246],[1.0479000000357246],0.444,no_beat,0.6039000000357246,0.6039000000357246,"[""space""]",ro,3,testConjL1Syn//cat_viol.r2.s2.0.wav,1.0,conjunction_syn,syncopated,b,s2,no_rule,cat,L1,m,1.9518,4.0,1.0,3.0155,3.0,2.0,Castellano,0.0,Catalan ,7.0,Inglés,3.0,5.0,2.0,no,no,no,nada,,6. La música me hace conectar con la gente,4.0,"En algun momento me ha costado mantener la atención. Al tener la consigna anterior algunas respuestas son debidas a la falta de control inhibitorio. Además, a veces se hacia difícil descifrar bien el sonido, sobre todo el /j/. ",80.0,yes
6,2024-02-19_14h23.37.442,Unsyncopated_study2,s94,28.0,feminino,right,España,Castellano,Master degree,no,no,A,1,conjunction_syn,L1,syncopated,s2,r1,6,Online_conjL1_syn//c.ro.fo19.none.none.wav,la,ni,zu,pu,sil,ne,ri,ki,sil1,lu,sil2,['false alarm'],[1.88120000004767],[1.88120000004767],none,none,,,"[""space""]",ro,3,testConjL1Syn//r1.s1.2.wav,1.0,conjunction_syn,syncopated,a,s1,rule,rule,L1,m,4.1084,4.0,0.0,1.9234,3.0,2.0,Castellano,0.0,Catalan ,7.0,Inglés,3.0,5.0,2.0,no,no,no,nada,,7. Me informo sobre la música que me gusta.,3.0,"En algun momento me ha costado mantener la atención. Al tener la consigna anterior algunas respuestas son debidas a la falta de control inhibitorio. Además, a veces se hacia difícil descifrar bien el sonido, sobre todo el /j/. ",80.0,yes
7,2024-02-19_14h23.37.442,Unsyncopated_study2,s94,28.0,feminino,right,España,Castellano,Master degree,no,no,A,1,conjunction_syn,L1,syncopated,s1,r2,7,Online_conjL1_syn//c.ro.fo16.1332.222.wav,ta,fo,ni,be,sil,la,ro,lu,sil1,fa,sil2,['catch'],[1.7751999999881036],[1.7751999999881036],1.332,no_beat,0.4431999999881035,0.4431999999881035,"[""space""]",ro,3,testConjL1Syn//r1.s2.1.wav,1.0,conjunction_syn,syncopated,a,s2,rule,rule,L1,z,0.6044,5.0,1.0,1.915,3.0,2.0,Castellano,0.0,Catalan ,7.0,Inglés,3.0,5.0,2.0,no,no,no,nada,,8.Me emociono escuchando ciertas canciones.,4.0,"En algun momento me ha costado mantener la atención. Al tener la consigna anterior algunas respuestas son debidas a la falta de control inhibitorio. Además, a veces se hacia difícil descifrar bien el sonido, sobre todo el /j/. ",80.0,yes
8,2024-02-19_14h23.37.442,Unsyncopated_study2,s94,28.0,feminino,right,España,Castellano,Master degree,no,no,A,1,conjunction_syn,L1,syncopated,s2,r1,8,Online_conjL1_syn//a.pu.ki29.666.1554.wav,ze,ne,ro,pu,sil,lu,la,ki,sil1,fo,sil2,['catch'],[1.9996999999881382],[1.9996999999881382],1.554,no_beat,0.4456999999881381,0.4456999999881381,"[""space""]",ki,2,testConjL1Syn//dep_viol.r1.s2.0.wav,1.0,conjunction_syn,syncopated,a,s2,no_rule,dep,L1,z,0.6076,7.0,0.0,1.2143,3.0,2.0,Castellano,0.0,Catalan ,7.0,Inglés,3.0,5.0,2.0,no,no,no,nada,,9.La música me tranquiliza y me relaja.,4.0,"En algun momento me ha costado mantener la atención. Al tener la consigna anterior algunas respuestas son debidas a la falta de control inhibitorio. Además, a veces se hacia difícil descifrar bien el sonido, sobre todo el /j/. ",80.0,yes
9,2024-02-19_14h23.37.442,Unsyncopated_study2,s94,28.0,feminino,right,España,Castellano,Master degree,no,no,A,1,conjunction_syn,L1,syncopated,s2,r2,9,Online_conjL1_syn//a.pu.ki31.none.none.wav,lu,fo,fa,ta,sil,ro,ni,be,sil1,la,sil2,['-'],,,none,none,,,,ki,2,testConjL1Syn//r1.s2.2.wav,1.0,conjunction_syn,syncopated,a,s2,rule,rule,L1,z,1.8177,5.0,1.0,1.8487,3.0,2.0,Castellano,0.0,Catalan ,7.0,Inglés,3.0,5.0,2.0,no,no,no,nada,,10.La música me hace bailar,4.0,"En algun momento me ha costado mantener la atención. Al tener la consigna anterior algunas respuestas son debidas a la falta de control inhibitorio. Además, a veces se hacia difícil descifrar bien el sonido, sobre todo el /j/. ",80.0,yes
10,2024-02-19_14h23.37.442,Unsyncopated_study2,s94,28.0,feminino,right,España,Castellano,Master degree,no,no,A,1,conjunction_syn,L1,syncopated,s2,r1,10,Online_conjL1_syn//a.pu.ki28.666.1554.wav,cho,ro,fo,pu,sil,ze,ni,ki,sil1,zu,sil2,['catch'],[1.896399999976211],[1.896399999976211],1.554,no_beat,0.3423999999762108,0.3423999999762108,"[""space""]",ki,2,testConjL1Syn//r2.s2.0.wav,1.0,conjunction_syn,syncopated,b,s2,rule,rule,L1,z,0.5608,7.0,1.0,1.0299,3.0,2.0,Castellano,0.0,Catalan ,7.0,Inglés,3.0,5.0,2.0,no,no,no,nada,,11.Busco novedades musicales continuamente,4.0,"En algun momento me ha costado mantener la atención. Al tener la consigna anterior algunas respuestas son debidas a la falta de control inhibitorio. Además, a veces se hacia difícil descifrar bien el sonido, sobre todo el /j/. ",80.0,yes
11,2024-02-19_14h23.37.442,Unsyncopated_study2,s94,28.0,feminino,right,España,Castellano,Master degree,no,no,A,1,conjunction_syn,L1,syncopated,s1,r2,11,Online_conjL1_syn//a.pu.ki30.none.none.wav,ta,fa,ro,be,sil,ni,zu,la,sil1,ze,sil2,['-'],,,none,none,,,,ki,2,testConjL1Syn//r1.s2.0.wav,1.0,conjunction_syn,syncopated,a,s2,rule,rule,L1,z,0.9414,6.0,1.0,1.3423,3.0,2.0,Castellano,0.0,Catalan ,7.0,Inglés,3.0,5.0,2.0,no,no,no,nada,,12. Puedo llorar cuando escucho algunas melodías que me gustan mucho.,4.0,"En algun momento me ha costado mantener la atención. Al tener la consigna anterior algunas respuestas son debidas a la falta de control inhibitorio. Además, a veces se hacia difícil descifrar bien el sonido, sobre todo el /j/. ",80.0,yes
12,2024-02-19_14h23.37.442,Unsyncopated_study2,s94,28.0,feminino,right,España,Castellano,Master degree,no,no,A,1,conjunction_syn,L1,syncopated,s2,r2,12,Online_conjL1_syn//d.ne.ni18.none.none.wav,lu,ri,cho,ta,sil,ze,ro,be,sil1,fo,sil2,['-'],,,none,none,,,,ne,4,testConjL1Syn//time_viol.r1.s2.0.wav,1.0,conjunction_syn,syncopated,a,s2,no_rule,time,L1,m,2.226,3.0,1.0,3.7254,3.0,2.0,Castellano,0.0,Catalan ,7.0,Inglés,3.0,5.0,2.0,no,no,no,nada,,13. Me gusta cantar o tocar un instrumento con más gente,3.0,"En algun momento me ha costado mantener la atención. Al tener la consigna anterior algunas respuestas son debidas a la falta de control inhibitorio. Además, a veces se hacia difícil descifrar bien el sonido, sobre todo el /j/. ",80.0,yes
13,2024-02-19_14h23.37.442,Unsyncopated_study2,s94,28.0,feminino,right,España,Castellano,Master degree,no,no,A,1,conjunction_syn,L1,syncopated,s1,r2,13,Online_conjL1_syn//d.ne.ni16.1332.222.wav,ta,ni,lu,be,sil,ri,ne,fo,sil1,ze,sil2,['catch'],[1.7799999999999727],[1.7799999999999727],1.332,no_beat,0.4479999999999726,0.4479999999999726,"[""space""]",ne,4,testConjL1Syn//cat_viol.r1.s1.0.wav,1.0,conjunction_syn,syncopated,a,s1,no_rule,cat,L1,z,1.6629,7.0,0.0,0.6851,3.0,2.0,Castellano,0.0,Catalan ,7.0,Inglés,3.0,5.0,2.0,no,no,no,nada,,14. La música me ayuda a desconectar.,4.0,"En algun momento me ha costado mantener la atención. Al tener la consigna anterior algunas respuestas son debidas a la falta de control inhibitorio. Además, a veces se hacia difícil descifrar bien el sonido, sobre todo el /j/. ",80.0,yes
14,2024-02-19_14h23.37.442,Unsyncopated_study2,s94,28.0,feminino,right,España,Castellano,Master degree,no,no,A,1,conjunction_syn,L1,syncopated,s2,r2,14,Online_conjL1_syn//d.ne.ni17.none.none.wav,ze,lu,ri,ta,sil,fo,cho,be,sil1,fa,sil2,['-'],,,none,none,,,,ne,4,testConjL1Syn//r2.s1.1.wav,1.0,conjunction_syn,syncopated,b,s1,rule,rule,L1,z,2.0127,6.0,1.0,1.4244,3.0,2.0,Castellano,0.0,Catalan ,7.0,Inglés,3.0,5.0,2.0,no,no,no,nada,,15. No puedo evitar tararear las canciones que me gustan cuando las escucho.,4.0,"En algun momento me ha costado mantener la atención. Al tener la consigna anterior algunas respuestas son debidas a la falta de control inhibitorio. Además, a veces se hacia difícil descifrar bien el sonido, sobre todo el /j/. ",80.0,yes
15,2024-02-19_14h23.37.442,Unsyncopated_study2,s94,28.0,feminino,right,España,Castellano,Master degree,no,no,A,1,conjunction_syn,L1,syncopated,s2,r1,15,Online_conjL1_syn//d.ne.ni19.none.none.wav,la,ro,cho,pu,sil,ri,zu,ki,sil1,fo,sil2,['-'],,,none,none,,,,ne,4,testConjL1Syn//r2.s1.2.wav,1.0,conjunction_syn,syncopated,b,s1,rule,rule,L1,m,3.1727,4.0,0.0,1.9026,3.0,2.0,Castellano,0.0,Catalan ,7.0,Inglés,3.0,5.0,2.0,no,no,no,nada,,16. En los conciertos me siento en sintonía con los artistas y el público.,4.0,"En algun momento me ha costado mantener la atención. Al tener la consigna anterior algunas respuestas son debidas a la falta de control inhibitorio. Además, a veces se hacia difícil descifrar bien el sonido, sobre todo el /j/. ",80.0,yes
16,2024-02-19_14h23.37.442,Unsyncopated_study2,s94,28.0,feminino,right,España,Castellano,Master degree,no,no,A,1,conjunction_syn,L1,syncopated,s2,r2,16,Online_conjL1_syn//d.ne.ni20.none.none.wav,ze,lu,ro,ta,sil,fa,ri,be,sil1,cho,sil2,['-'],,,none,none,,,,ne,4,testConjL1Syn//time_viol.r1.s1.0.wav,1.0,conjunction_syn,syncopated,a,s1,no_rule,time,L1,z,1.0903,5.0,0.0,1.0868,3.0,2.0,Castellano,0.0,Catalan ,7.0,Inglés,3.0,5.0,2.0,no,no,no,nada,,17. Me gasto bastante dinero en música y cosas relacionadas con la música.,4.0,"En algun momento me ha costado mantener la atención. Al tener la consigna anterior algunas respuestas son debidas a la falta de control inhibitorio. Además, a veces se hacia difícil descifrar bien el sonido, sobre todo el /j/. ",80.0,yes
17,2024-02-19_14h23.37.442,Unsyncopated_study2,s94,28.0,feminino,right,España,Castellano,Master degree,no,no,A,1,conjunction_syn,L1,syncopated,s2,r1,17,Online_conjL1_syn//d.ne.ni23.0.444.wav,ne,fo,ni,pu,sil,ri,fa,ki,sil1,lu,sil2,['catch'],[0.5489999999999782],[0.5489999999999782],0.0,beat,0.5489999999999782,0.5489999999999782,"[""space""]",ne,4,testConjL1Syn//dep_viol.r2.s2.0.wav,1.0,conjunction_syn,syncopated,b,s2,no_rule,dep,L1,z,0.9925,5.0,0.0,1.4026,3.0,2.0,Castellano,0.0,Catalan ,7.0,Inglés,3.0,5.0,2.0,no,no,no,nada,,18. Siento escalofríos cuando escucho una melodía que me gusta.,4.0,"En algun momento me ha costado mantener la atención. Al tener la consigna anterior algunas respuestas son debidas a la falta de control inhibitorio. Además, a veces se hacia difícil descifrar bien el sonido, sobre todo el /j/. ",80.0,yes
18,2024-02-19_14h23.37.442,Unsyncopated_study2,s94,28.0,feminino,right,España,Castellano,Master degree,no,no,A,1,conjunction_syn,L1,syncopated,s1,r1,18,Online_conjL1_syn//d.ne.ni21.none.none.wav,pu,lu,fo,ki,sil,ze,cho,ro,sil1,zu,sil2,['-'],,,none,none,,,,ne,4,testConjL1Syn//cat_viol.r1.s2.0.wav,1.0,conjunction_syn,syncopated,a,s2,no_rule,cat,L1,z,3.7397,4.0,0.0,10.7931,3.0,2.0,Castellano,0.0,Catalan ,7.0,Inglés,3.0,5.0,2.0,no,no,no,nada,,19. Con la música me puedo desahogar.,4.0,"En algun momento me ha costado mantener la atención. Al tener la consigna anterior algunas respuestas son debidas a la falta de control inhibitorio. Además, a veces se hacia difícil descifrar bien el sonido, sobre todo el /j/. ",80.0,yes
19,2024-02-19_14h23.37.442,Unsyncopated_study2,s94,28.0,feminino,right,España,Castellano,Master degree,no,no,A,1,conjunction_syn,L1,syncopated,s2,r2,19,Online_conjL1_syn//d.ne.ni22.1110.0.wav,ni,ze,lu,ta,sil,ne,cho,be,sil1,zu,sil2,['catch'],[1.54489999997611],[1.54489999997611],1.11,no_beat,0.4348999999761098,0.4348999999761098,"[""space""]",ne,4,testConjL1Syn//dep_viol.r2.s1.0.wav,1.0,conjunction_syn,syncopated,b,s1,no_rule,dep,L1,z,1.1005,5.0,0.0,1.2925,3.0,2.0,Castellano,0.0,Catalan ,7.0,Inglés,3.0,5.0,2.0,no,no,no,nada,,20. Cuando escucho una melodía que me gusta mucho no puedo evitar mover el cuerpo.,4.0,"En algun momento me ha costado mantener la atención. Al tener la consigna anterior algunas respuestas son debidas a la falta de control inhibitorio. Además, a veces se hacia difícil descifrar bien el sonido, sobre todo el /j/. ",80.0,yes
20,2024-02-19_14h23.37.442,Unsyncopated_study2,s94,28.0,feminino,right,España,Castellano,Master degree,no,no,A,1,conjunction_syn,L1,syncopated,s2,r2,20,Online_conjL1_syn//b.ta.be1.666.1554.wav,ni,la,lu,ta,sil,cho,ro,be,sil1,ne,sil2,['miss'],,,0.666,no_beat,,,,ta,1,testConjL1Syn//dep_viol.r1.s1.0.wav,1.0,conjunction_syn,syncopated,a,s1,no_rule,dep,L1,m,1.8776,4.0,1.0,1.4412,3.0,2.0,Castellano,0.0,Catalan ,7.0,Inglés,3.0,5.0,2.0,no,no,no,nada,,,,"En algun momento me ha costado mantener la atención. Al tener la consigna anterior algunas respuestas son debidas a la falta de control inhibitorio. Además, a veces se hacia difícil descifrar bien el sonido, sobre todo el /j/. ",80.0,yes
21,2024-02-19_14h23.37.442,Unsyncopated_study2,s94,28.0,feminino,right,España,Castellano,Master degree,no,no,A,1,conjunction_syn,L1,syncopated,s2,r1,21,Online_conjL1_syn//b.ta.be2.none.none.wav,ri,ne,fo,pu,sil,zu,la,ki,sil1,lu,sil2,['false alarm'],[0.5899000000357546],[0.5899000000357546],none,none,,,"[""space""]",ta,1,testConjL1Syn//r2.s2.2.wav,1.0,conjunction_syn,syncopated,b,s2,rule,rule,L1,m,3.2889,3.0,0.0,1.4372,3.0,2.0,Castellano,0.0,Catalan ,7.0,Inglés,3.0,5.0,2.0,no,no,no,nada,,,,"En algun momento me ha costado mantener la atención. Al tener la consigna anterior algunas respuestas son debidas a la falta de control inhibitorio. Además, a veces se hacia difícil descifrar bien el sonido, sobre todo el /j/. ",80.0,yes
22,2024-02-19_14h23.37.442,Unsyncopated_study2,s94,28.0,feminino,right,España,Castellano,Master degree,no,no,A,1,conjunction_syn,L1,syncopated,s2,r2,22,Online_conjL1_syn//b.ta.be3.666.1554.wav,lu,ro,zu,ta,sil,ne,fo,be,sil1,ni,sil2,['catch'],[1.4905999999642745],[1.4905999999642745],0.666,no_beat,0.8245999999642745,0.8245999999642745,"[""space""]",ta,1,testConjL1Syn//r1.s1.1.wav,1.0,conjunction_syn,syncopated,a,s1,rule,rule,L1,m,1.8595,4.0,0.0,1.3844,3.0,2.0,Castellano,0.0,Catalan ,7.0,Inglés,3.0,5.0,2.0,no,no,no,nada,,,,"En algun momento me ha costado mantener la atención. Al tener la consigna anterior algunas respuestas son debidas a la falta de control inhibitorio. Además, a veces se hacia difícil descifrar bien el sonido, sobre todo el /j/. ",80.0,yes
23,2024-02-19_14h23.37.442,Unsyncopated_study2,s94,28.0,feminino,right,España,Castellano,Master degree,no,no,A,1,conjunction_syn,L1,syncopated,s2,r2,23,Online_conjL1_syn//b.ta.be0.666.1554.wav,cho,fa,fo,ta,sil,zu,la,be,sil1,ne,sil2,['miss'],,,0.666,no_beat,,,,ta,1,testConjL1Syn//r2.s1.0.wav,1.0,conjunction_syn,syncopated,b,s1,rule,rule,L1,m,3.0734,2.0,0.0,1.1751,3.0,2.0,Castellano,0.0,Catalan ,7.0,Inglés,3.0,5.0,2.0,no,no,no,nada,,,,"En algun momento me ha costado mantener la atención. Al tener la consigna anterior algunas respuestas son debidas a la falta de control inhibitorio. Además, a veces se hacia difícil descifrar bien el sonido, sobre todo el /j/. ",80.0,yes
24,2024-02-19_14h23.37.442,Unsyncopated_study2,s94,28.0,feminino,right,España,Castellano,Master degree,no,no,A,1,conjunction_syn,L1,syncopated,s2,r1,24,Online_conjL1_syn//b.ta.be21.none.none.wav,ri,ro,fa,pu,sil,ni,cho,ki,sil1,ze,sil2,['false alarm'],[0.1019000000358119],[0.1019000000358119],none,none,,,"[""space""]",ta,1,testConjL2Uns//time_viol.r1.s1.0.wav,2.0,conjunction_un,unsyncopated,a,s1,no_rule,time,L2,z,3.2709,7.0,0.0,0.9577,3.0,2.0,Castellano,0.0,Catalan ,7.0,Inglés,3.0,5.0,2.0,no,no,no,nada,,,,"En algun momento me ha costado mantener la atención. Al tener la consigna anterior algunas respuestas son debidas a la falta de control inhibitorio. Además, a veces se hacia difícil descifrar bien el sonido, sobre todo el /j/. ",80.0,yes
25,2024-02-19_14h23.37.442,Unsyncopated_study2,s94,28.0,feminino,right,España,Castellano,Master degree,no,no,A,1,conjunction_syn,L1,syncopated,s1,r1,25,Online_conjL1_syn//b.ta.be20.none.none.wav,pu,lu,ze,ki,sil,ro,la,zu,sil1,fo,sil2,['-'],,,none,none,,,,ta,1,testConjL2Uns//r1.s2.0.wav,2.0,conjunction_un,unsyncopated,a,s2,rule,rule,L2,z,2.0105,7.0,1.0,0.5407,3.0,2.0,Castellano,0.0,Catalan ,7.0,Inglés,3.0,5.0,2.0,no,no,no,nada,,,,"En algun momento me ha costado mantener la atención. Al tener la consigna anterior algunas respuestas son debidas a la falta de control inhibitorio. Además, a veces se hacia difícil descifrar bien el sonido, sobre todo el /j/. ",80.0,yes
26,2024-02-19_14h23.37.442,Unsyncopated_study2,s94,28.0,feminino,right,España,Castellano,Master degree,no,no,A,1,conjunction_syn,L1,syncopated,s1,r1,26,Online_conjL1_syn//b.ta.be23.none.none.wav,pu,cho,ze,ki,sil,ne,la,ri,sil1,fa,sil2,['-'],,,none,none,,,,ta,1,testConjL2Uns//cat_viol.r1.s1.0.wav,2.0,conjunction_un,unsyncopated,a,s1,no_rule,cat,L2,z,2.5093,5.0,0.0,0.7563,3.0,2.0,Castellano,0.0,Catalan ,7.0,Inglés,3.0,5.0,2.0,no,no,no,nada,,,,"En algun momento me ha costado mantener la atención. Al tener la consigna anterior algunas respuestas son debidas a la falta de control inhibitorio. Además, a veces se hacia difícil descifrar bien el sonido, sobre todo el /j/. ",80.0,yes
27,2024-02-19_14h23.37.442,Unsyncopated_study2,s94,28.0,feminino,right,España,Castellano,Master degree,no,no,A,1,conjunction_syn,L1,syncopated,s2,r1,27,Online_conjL1_syn//b.ta.be22.none.none.wav,zu,la,cho,pu,sil,ne,ri,ki,sil1,fa,sil2,['-'],,,none,none,,,,ta,1,testConjL2Uns//r2.s1.1.wav,2.0,conjunction_un,unsyncopated,b,s1,rule,rule,L2,z,4.673,4.0,1.0,1.1618,3.0,2.0,Castellano,0.0,Catalan ,7.0,Inglés,3.0,5.0,2.0,no,no,no,nada,,,,"En algun momento me ha costado mantener la atención. Al tener la consigna anterior algunas respuestas son debidas a la falta de control inhibitorio. Además, a veces se hacia difícil descifrar bien el sonido, sobre todo el /j/. ",80.0,yes
28,2024-02-19_14h23.37.442,Unsyncopated_study2,s94,28.0,feminino,right,España,Castellano,Master degree,no,no,A,1,conjunction_syn,L1,syncopated,s1,r2,28,Online_conjL1_syn//d.ne.ni14.none.none.wav,ta,ri,cho,be,sil,ze,lu,zu,sil1,la,sil2,['false alarm'],[2.069099999964237],[2.069099999964237],none,none,,,"[""space""]",ne,4,testConjL2Uns//r2.s2.1.wav,2.0,conjunction_un,unsyncopated,b,s2,rule,rule,L2,z,0.9492,7.0,1.0,0.4053,3.0,2.0,Castellano,0.0,Catalan ,7.0,Inglés,3.0,5.0,2.0,no,no,no,nada,,,,"En algun momento me ha costado mantener la atención. Al tener la consigna anterior algunas respuestas son debidas a la falta de control inhibitorio. Además, a veces se hacia difícil descifrar bien el sonido, sobre todo el /j/. ",80.0,yes
29,2024-02-19_14h23.37.442,Unsyncopated_study2,s94,28.0,feminino,right,España,Castellano,Master degree,no,no,A,1,conjunction_syn,L1,syncopated,s2,r1,29,Online_conjL1_syn//d.ne.ni13.1110.222.wav,ze,ni,lu,pu,sil,ne,ro,ki,sil1,zu,sil2,['miss'],,,1.11,no_beat,,,,ne,4,testConjL2Uns//r2.s2.2.wav,2.0,conjunction_un,unsyncopated,b,s2,rule,rule,L2,m,3.9962,4.0,0.0,3.2751,3.0,2.0,Castellano,0.0,Catalan ,7.0,Inglés,3.0,5.0,2.0,no,no,no,nada,,,,"En algun momento me ha costado mantener la atención. Al tener la consigna anterior algunas respuestas son debidas a la falta de control inhibitorio. Además, a veces se hacia difícil descifrar bien el sonido, sobre todo el /j/. ",80.0,yes
30,2024-02-19_14h23.37.442,Unsyncopated_study2,s94,28.0,feminino,right,España,Castellano,Master degree,no,no,A,1,conjunction_syn,L1,syncopated,s1,r1,30,Online_conjL1_syn//d.ne.ni12.none.none.wav,pu,fo,ri,ki,sil,ze,zu,ro,sil1,la,sil2,['-'],,,none,none,,,,ne,4,testConjL2Uns//dep_viol.r2.s2.0.wav,2.0,conjunction_un,unsyncopated,b,s2,no_rule,dep,L2,z,1.0531,7.0,0.0,0.4986,3.0,2.0,Castellano,0.0,Catalan ,7.0,Inglés,3.0,5.0,2.0,no,no,no,nada,,,,"En algun momento me ha costado mantener la atención. Al tener la consigna anterior algunas respuestas son debidas a la falta de control inhibitorio. Además, a veces se hacia difícil descifrar bien el sonido, sobre todo el /j/. ",80.0,yes
31,2024-02-19_14h23.37.442,Unsyncopated_study2,s94,28.0,feminino,right,España,Castellano,Master degree,no,no,A,1,conjunction_syn,L1,syncopated,s1,r1,31,Online_conjL1_syn//d.ne.ni15.none.none.wav,pu,lu,ze,ki,sil,cho,zu,ri,sil1,la,sil2,['-'],,,none,none,,,,ne,4,testConjL2Uns//cat_viol.r1.s2.0.wav,2.0,conjunction_un,unsyncopated,a,s2,no_rule,cat,L2,z,2.5081,7.0,0.0,0.6758,3.0,2.0,Castellano,0.0,Catalan ,7.0,Inglés,3.0,5.0,2.0,no,no,no,nada,,,,"En algun momento me ha costado mantener la atención. Al tener la consigna anterior algunas respuestas son debidas a la falta de control inhibitorio. Además, a veces se hacia difícil descifrar bien el sonido, sobre todo el /j/. ",80.0,yes
32,2024-02-19_14h23.37.442,Unsyncopated_study2,s94,28.0,feminino,right,España,Castellano,Master degree,no,no,A,1,conjunction_syn,L1,syncopated,s1,r1,32,Online_conjL1_syn//d.ne.ni1.222.1110.wav,pu,ne,ri,ki,sil,ni,la,ze,sil1,lu,sil2,['catch'],[0.7358000000119773],[0.7358000000119773],0.222,no_beat,0.5138000000119773,0.5138000000119773,"[""space""]",ne,4,testConjL2Uns//r2.s1.2.wav,2.0,conjunction_un,unsyncopated,b,s1,rule,rule,L2,z,6.1763,6.0,1.0,0.499,3.0,2.0,Castellano,0.0,Catalan ,7.0,Inglés,3.0,5.0,2.0,no,no,no,nada,,,,"En algun momento me ha costado mantener la atención. Al tener la consigna anterior algunas respuestas son debidas a la falta de control inhibitorio. Además, a veces se hacia difícil descifrar bien el sonido, sobre todo el /j/. ",80.0,yes
33,2024-02-19_14h23.37.442,Unsyncopated_study2,s94,28.0,feminino,right,España,Castellano,Master degree,no,no,A,1,conjunction_syn,L1,syncopated,s1,r2,33,Online_conjL1_syn//d.ne.ni2.222.1332.wav,ta,ne,lu,be,sil,ri,ni,cho,sil1,ze,sil2,['catch'],[0.7926999999880309],[0.7926999999880309],0.222,no_beat,0.5706999999880309,0.5706999999880309,"[""space""]",ne,4,testConjL2Uns//r1.s2.1.wav,2.0,conjunction_un,unsyncopated,a,s2,rule,rule,L2,m,2.5241,6.0,0.0,2.5016,3.0,2.0,Castellano,0.0,Catalan ,7.0,Inglés,3.0,5.0,2.0,no,no,no,nada,,,,"En algun momento me ha costado mantener la atención. Al tener la consigna anterior algunas respuestas son debidas a la falta de control inhibitorio. Además, a veces se hacia difícil descifrar bien el sonido, sobre todo el /j/. ",80.0,yes
34,2024-02-19_14h23.37.442,Unsyncopated_study2,s94,28.0,feminino,right,España,Castellano,Master degree,no,no,A,1,conjunction_syn,L1,syncopated,s2,r1,34,Online_conjL1_syn//d.ne.ni0.none.none.wav,lu,ze,zu,pu,sil,ro,ri,ki,sil1,la,sil2,['-'],,,none,none,,,,ne,4,testConjL2Uns//r1.s1.1.wav,2.0,conjunction_un,unsyncopated,a,s1,rule,rule,L2,m,5.23,4.0,0.0,1.6039,3.0,2.0,Castellano,0.0,Catalan ,7.0,Inglés,3.0,5.0,2.0,no,no,no,nada,,,,"En algun momento me ha costado mantener la atención. Al tener la consigna anterior algunas respuestas son debidas a la falta de control inhibitorio. Además, a veces se hacia difícil descifrar bien el sonido, sobre todo el /j/. ",80.0,yes
35,2024-02-19_14h23.37.442,Unsyncopated_study2,s94,28.0,feminino,right,España,Castellano,Master degree,no,no,A,1,conjunction_syn,L1,syncopated,s1,r1,35,Online_conjL1_syn//d.ne.ni3.none.none.wav,pu,fo,la,ki,sil,ro,lu,ri,sil1,cho,sil2,['-'],,,none,none,,,,ne,4,testConjL2Uns//dep_viol.r1.s1.0.wav,2.0,conjunction_un,unsyncopated,a,s1,no_rule,dep,L2,z,1.6424,6.0,0.0,0.949,3.0,2.0,Castellano,0.0,Catalan ,7.0,Inglés,3.0,5.0,2.0,no,no,no,nada,,,,"En algun momento me ha costado mantener la atención. Al tener la consigna anterior algunas respuestas son debidas a la falta de control inhibitorio. Además, a veces se hacia difícil descifrar bien el sonido, sobre todo el /j/. ",80.0,yes
36,2024-02-19_14h23.37.442,Unsyncopated_study2,s94,28.0,feminino,right,España,Castellano,Master degree,no,no,A,1,conjunction_syn,L1,syncopated,s1,r2,36,Online_conjL1_syn//d.ne.ni27.none.none.wav,ta,la,fo,be,sil,zu,cho,ze,sil1,ri,sil2,['-'],,,none,none,,,,ne,4,testConjL2Uns//r1.s2.2.wav,2.0,conjunction_un,unsyncopated,a,s2,rule,rule,L2,z,0.7937,5.0,1.0,0.5686,3.0,2.0,Castellano,0.0,Catalan ,7.0,Inglés,3.0,5.0,2.0,no,no,no,nada,,,,"En algun momento me ha costado mantener la atención. Al tener la consigna anterior algunas respuestas son debidas a la falta de control inhibitorio. Además, a veces se hacia difícil descifrar bien el sonido, sobre todo el /j/. ",80.0,yes
37,2024-02-19_14h23.37.442,Unsyncopated_study2,s94,28.0,feminino,right,España,Castellano,Master degree,no,no,A,1,conjunction_syn,L1,syncopated,s1,r2,37,Online_conjL1_syn//d.ne.ni25.222.1110.wav,ta,ne,ze,be,sil,ni,cho,la,sil1,lu,sil2,['catch'],[0.9711000000238528],[0.9711000000238528],0.222,no_beat,0.7491000000238528,0.7491000000238528,"[""space""]",ne,4,testConjL2Uns//cat_viol.r2.s2.0.wav,2.0,conjunction_un,unsyncopated,b,s2,no_rule,cat,L2,m,1.7745,5.0,1.0,1.654,3.0,2.0,Castellano,0.0,Catalan ,7.0,Inglés,3.0,5.0,2.0,no,no,no,nada,,,,"En algun momento me ha costado mantener la atención. Al tener la consigna anterior algunas respuestas son debidas a la falta de control inhibitorio. Además, a veces se hacia difícil descifrar bien el sonido, sobre todo el /j/. ",80.0,yes
38,2024-02-19_14h23.37.442,Unsyncopated_study2,s94,28.0,feminino,right,España,Castellano,Master degree,no,no,A,1,conjunction_syn,L1,syncopated,s2,r1,38,Online_conjL1_syn//d.ne.ni26.none.none.wav,ze,zu,fa,pu,sil,cho,lu,ki,sil1,fo,sil2,['-'],,,none,none,,,,ne,4,testConjL2Uns//r2.s2.0.wav,2.0,conjunction_un,unsyncopated,b,s2,rule,rule,L2,z,0.9177,7.0,1.0,0.4139,3.0,2.0,Castellano,0.0,Catalan ,7.0,Inglés,3.0,5.0,2.0,no,no,no,nada,,,,"En algun momento me ha costado mantener la atención. Al tener la consigna anterior algunas respuestas son debidas a la falta de control inhibitorio. Además, a veces se hacia difícil descifrar bien el sonido, sobre todo el /j/. ",80.0,yes
39,2024-02-19_14h23.37.442,Unsyncopated_study2,s94,28.0,feminino,right,España,Castellano,Master degree,no,no,A,1,conjunction_syn,L1,syncopated,s2,r2,39,Online_conjL1_syn//d.ne.ni24.none.none.wav,lu,ro,la,ta,sil,fa,fo,be,sil1,zu,sil2,['-'],,,none,none,,,,ne,4,testConjL2Uns//dep_viol.r2.s1.0.wav,2.0,conjunction_un,unsyncopated,b,s1,no_rule,dep,L2,m,1.6871,4.0,1.0,1.6565,3.0,2.0,Castellano,0.0,Catalan ,7.0,Inglés,3.0,5.0,2.0,no,no,no,nada,,,,"En algun momento me ha costado mantener la atención. Al tener la consigna anterior algunas respuestas son debidas a la falta de control inhibitorio. Además, a veces se hacia difícil descifrar bien el sonido, sobre todo el /j/. ",80.0,yes
40,2024-02-19_14h23.37.442,Unsyncopated_study2,s94,28.0,feminino,right,España,Castellano,Master degree,no,no,A,1,conjunction_syn,L1,syncopated,s2,r1,40,Online_conjL1_syn//c.ro.fo26.444.0.wav,fo,ne,ro,pu,sil,ze,ni,ki,sil1,fa,sil2,['catch'],[0.9446999999880745],[0.9446999999880745],0.444,no_beat,0.5006999999880746,0.5006999999880746,"[""space""]",ro,3,testConjL2Uns//time_viol.r2.s2.0.wav,2.0,conjunction_un,unsyncopated,b,s2,no_rule,time,L2,z,1.8815,6.0,0.0,0.8674,3.0,2.0,Castellano,0.0,Catalan ,7.0,Inglés,3.0,5.0,2.0,no,no,no,nada,,,,"En algun momento me ha costado mantener la atención. Al tener la consigna anterior algunas respuestas son debidas a la falta de control inhibitorio. Además, a veces se hacia difícil descifrar bien el sonido, sobre todo el /j/. ",80.0,yes
41,2024-02-19_14h23.37.442,Unsyncopated_study2,s94,28.0,feminino,right,España,Castellano,Master degree,no,no,A,1,conjunction_syn,L1,syncopated,s1,r1,41,Online_conjL1_syn//c.ro.fo24.1332.222.wav,pu,fo,ni,ki,sil,la,ro,ze,sil1,zu,sil2,['catch'],[2.2171000000238337],[2.2171000000238337],1.332,no_beat,0.8851000000238336,0.8851000000238336,"[""space""]",ro,3,testConjL2Uns//dep_viol.r1.s2.0.wav,2.0,conjunction_un,unsyncopated,a,s2,no_rule,dep,L2,m,4.5027,3.0,1.0,1.388,3.0,2.0,Castellano,0.0,Catalan ,7.0,Inglés,3.0,5.0,2.0,no,no,no,nada,,,,"En algun momento me ha costado mantener la atención. Al tener la consigna anterior algunas respuestas son debidas a la falta de control inhibitorio. Además, a veces se hacia difícil descifrar bien el sonido, sobre todo el /j/. ",80.0,yes
42,2024-02-19_14h23.37.442,Unsyncopated_study2,s94,28.0,feminino,right,España,Castellano,Master degree,no,no,A,1,conjunction_syn,L1,syncopated,s2,r2,42,Online_conjL1_syn//c.ro.fo25.none.none.wav,lu,ri,fa,ta,sil,zu,cho,be,sil1,ze,sil2,['-'],,,none,none,,,,ro,3,testConjL2Uns//cat_viol.r2.s1.0.wav,2.0,conjunction_un,unsyncopated,b,s1,no_rule,cat,L2,m,4.2307,3.0,1.0,1.2687,3.0,2.0,Castellano,0.0,Catalan ,7.0,Inglés,3.0,5.0,2.0,no,no,no,nada,,,,"En algun momento me ha costado mantener la atención. Al tener la consigna anterior algunas respuestas son debidas a la falta de control inhibitorio. Además, a veces se hacia difícil descifrar bien el sonido, sobre todo el /j/. ",80.0,yes
43,2024-02-19_14h23.37.442,Unsyncopated_study2,s94,28.0,feminino,right,España,Castellano,Master degree,no,no,A,1,conjunction_syn,L1,syncopated,s2,r2,43,Online_conjL1_syn//c.ro.fo27.444.1110.wav,la,fa,ro,ta,sil,fo,lu,be,sil1,ze,sil2,['catch'],[1.0066999999880863],[1.0066999999880863],0.444,no_beat,0.5626999999880864,0.5626999999880864,"[""space""]",ro,3,testConjL2Uns//r1.s1.2.wav,2.0,conjunction_un,unsyncopated,a,s1,rule,rule,L2,m,2.7131,2.0,0.0,0.7612,3.0,2.0,Castellano,0.0,Catalan ,7.0,Inglés,3.0,5.0,2.0,no,no,no,nada,,,,"En algun momento me ha costado mantener la atención. Al tener la consigna anterior algunas respuestas son debidas a la falta de control inhibitorio. Además, a veces se hacia difícil descifrar bien el sonido, sobre todo el /j/. ",80.0,yes
44,2024-02-19_14h23.37.442,Unsyncopated_study2,s94,28.0,feminino,right,España,Castellano,Master degree,no,no,A,1,conjunction_syn,L1,syncopated,s1,r2,44,Online_conjL1_syn//a.pu.ki0.none.none.wav,ta,la,ni,be,sil,fa,lu,ro,sil1,fo,sil2,['-'],,,none,none,,,,ki,2,testConjL2Uns//time_viol.r1.s2.0.wav,2.0,conjunction_un,unsyncopated,a,s2,no_rule,time,L2,m,1.2871,1.0,1.0,0.8412,3.0,2.0,Castellano,0.0,Catalan ,7.0,Inglés,3.0,5.0,2.0,no,no,no,nada,,,,"En algun momento me ha costado mantener la atención. Al tener la consigna anterior algunas respuestas son debidas a la falta de control inhibitorio. Además, a veces se hacia difícil descifrar bien el sonido, sobre todo el /j/. ",80.0,yes
45,2024-02-19_14h23.37.442,Unsyncopated_study2,s94,28.0,feminino,right,España,Castellano,Master degree,no,no,A,1,conjunction_syn,L1,syncopated,s2,r2,45,Online_conjL1_syn//a.pu.ki2.none.none.wav,ne,ro,ri,ta,sil,fa,ze,be,sil1,la,sil2,['-'],,,none,none,,,,ki,2,testConjL2Uns//r2.s1.0.wav,2.0,conjunction_un,unsyncopated,b,s1,rule,rule,L2,m,1.7523,7.0,0.0,1.3838,3.0,2.0,Castellano,0.0,Catalan ,7.0,Inglés,3.0,5.0,2.0,no,no,no,nada,,,,"En algun momento me ha costado mantener la atención. Al tener la consigna anterior algunas respuestas son debidas a la falta de control inhibitorio. Además, a veces se hacia difícil descifrar bien el sonido, sobre todo el /j/. ",80.0,yes
46,2024-02-19_14h23.37.442,Unsyncopated_study2,s94,28.0,feminino,right,España,Castellano,Master degree,no,no,A,1,conjunction_syn,L1,syncopated,s1,r1,46,Online_conjL1_syn//a.pu.ki3.0.666.wav,pu,zu,la,ki,sil,fa,cho,ri,sil1,ro,sil2,['catch'],[1.0174000000358774],[1.0174000000358774],0.666,no_beat,0.3514000000358773,0.3514000000358773,"[""space""]",ki,2,testConjL2Uns//time_viol.r2.s1.0.wav,2.0,conjunction_un,unsyncopated,b,s1,no_rule,time,L2,m,3.969,1.0,1.0,1.7541,3.0,2.0,Castellano,0.0,Catalan ,7.0,Inglés,3.0,5.0,2.0,no,no,no,nada,,,,"En algun momento me ha costado mantener la atención. Al tener la consigna anterior algunas respuestas son debidas a la falta de control inhibitorio. Además, a veces se hacia difícil descifrar bien el sonido, sobre todo el /j/. ",80.0,yes
47,2024-02-19_14h23.37.442,Unsyncopated_study2,s94,28.0,feminino,right,España,Castellano,Master degree,no,no,A,1,conjunction_syn,L1,syncopated,s2,r1,47,Online_conjL1_syn//a.pu.ki1.666.1554.wav,ni,fo,fa,pu,sil,zu,lu,ki,sil1,ne,sil2,['catch'],[2.0778999999761254],[2.0778999999761254],1.554,no_beat,0.5238999999761254,0.5238999999761254,"[""space""]",ki,2,testConjL2Uns//r1.s1.0.wav,2.0,conjunction_un,unsyncopated,a,s1,rule,rule,L2,z,1.7257,5.0,1.0,1.3348,3.0,2.0,Castellano,0.0,Catalan ,7.0,Inglés,3.0,5.0,2.0,no,no,no,nada,,,,"En algun momento me ha costado mantener la atención. Al tener la consigna anterior algunas respuestas son debidas a la falta de control inhibitorio. Además, a veces se hacia difícil descifrar bien el sonido, sobre todo el /j/. ",80.0,yes
48,2024-02-19_14h23.37.442,Unsyncopated_study2,s94,28.0,feminino,right,España,Castellano,Master degree,no,no,A,1,conjunction_syn,L1,syncopated,s2,r2,48,Online_conjL1_syn//b.ta.be19.666.1554.wav,fa,la,ni,ta,sil,cho,ne,be,sil1,ri,sil2,['catch'],[1.2123000000119646],[1.2123000000119646],0.666,no_beat,0.5463000000119645,0.5463000000119645,"[""space""]",ta,1,testWhatL3Uns//dep_viol.r1.s1.0.wav,3.0,what,unsyncopated,a,s1,no_rule,dep,L3,z,0.9737,7.0,0.0,0.9598,3.0,2.0,Castellano,0.0,Catalan ,7.0,Inglés,3.0,5.0,2.0,no,no,no,nada,,,,"En algun momento me ha costado mantener la atención. Al tener la consigna anterior algunas respuestas son debidas a la falta de control inhibitorio. Además, a veces se hacia difícil descifrar bien el sonido, sobre todo el /j/. ",80.0,yes
49,2024-02-19_14h23.37.442,Unsyncopated_study2,s94,28.0,feminino,right,España,Castellano,Master degree,no,no,A,1,conjunction_syn,L1,syncopated,s2,r2,49,Online_conjL1_syn//b.ta.be16.666.1554.wav,ro,ne,lu,ta,sil,la,ri,be,sil1,fo,sil2,['catch'],[1.3801999999880081],[1.3801999999880081],0.666,no_beat,0.7141999999880081,0.7141999999880081,"[""space""]",ta,1,testWhatL3Uns//cat_viol.r1.s1.0.wav,3.0,what,unsyncopated,a,s1,no_rule,cat,L3,z,0.4881,7.0,0.0,0.6673,3.0,2.0,Castellano,0.0,Catalan ,7.0,Inglés,3.0,5.0,2.0,no,no,no,nada,,,,"En algun momento me ha costado mantener la atención. Al tener la consigna anterior algunas respuestas son debidas a la falta de control inhibitorio. Además, a veces se hacia difícil descifrar bien el sonido, sobre todo el /j/. ",80.0,yes
50,2024-02-19_14h23.37.442,Unsyncopated_study2,s94,28.0,feminino,right,España,Castellano,Master degree,no,no,A,1,conjunction_syn,L1,syncopated,s2,r1,50,Online_conjL1_syn//b.ta.be17.none.none.wav,zu,lu,ze,pu,sil,la,cho,ki,sil1,fa,sil2,['-'],,,none,none,,,,ta,1,testWhatL3Uns//r1.s2.0.wav,3.0,what,unsyncopated,a,s2,rule,rule,L3,z,1.0009,5.0,1.0,0.4484,3.0,2.0,Castellano,0.0,Catalan ,7.0,Inglés,3.0,5.0,2.0,no,no,no,nada,,,,"En algun momento me ha costado mantener la atención. Al tener la consigna anterior algunas respuestas son debidas a la falta de control inhibitorio. Además, a veces se hacia difícil descifrar bien el sonido, sobre todo el /j/. ",80.0,yes
51,2024-02-19_14h23.37.442,Unsyncopated_study2,s94,28.0,feminino,right,España,Castellano,Master degree,no,no,A,1,conjunction_syn,L1,syncopated,s1,r1,51,Online_conjL1_syn//b.ta.be18.none.none.wav,pu,ni,zu,ki,sil,ne,la,ze,sil1,cho,sil2,"['false alarm', 'false alarm']","[0.9705000000001291, 1.8346000000237837]",1.8346000000237837,none,none,,,"[""space"",""space""]",ta,1,testWhatL3Uns//r2.s2.2.wav,3.0,what,unsyncopated,b,s2,rule,rule,L3,m,3.8544,5.0,0.0,1.2248,3.0,2.0,Castellano,0.0,Catalan ,7.0,Inglés,3.0,5.0,2.0,no,no,no,nada,,,,"En algun momento me ha costado mantener la atención. Al tener la consigna anterior algunas respuestas son debidas a la falta de control inhibitorio. Además, a veces se hacia difícil descifrar bien el sonido, sobre todo el /j/. ",80.0,yes
52,2024-02-19_14h23.37.442,Unsyncopated_study2,s94,28.0,feminino,right,España,Castellano,Master degree,no,no,A,1,conjunction_syn,L1,syncopated,s1,r1,52,Online_conjL1_syn//d.ne.ni7.444.1110.wav,pu,lu,ne,ki,sil,ni,ri,ze,sil1,zu,sil2,['catch'],[0.8603999999761527],[0.8603999999761527],0.444,no_beat,0.4163999999761527,0.4163999999761527,"[""space""]",ne,4,testWhatL3Uns//r1.s1.0.wav,3.0,what,unsyncopated,a,s1,rule,rule,L3,z,1.6006,7.0,1.0,0.3087,3.0,2.0,Castellano,0.0,Catalan ,7.0,Inglés,3.0,5.0,2.0,no,no,no,nada,,,,"En algun momento me ha costado mantener la atención. Al tener la consigna anterior algunas respuestas son debidas a la falta de control inhibitorio. Además, a veces se hacia difícil descifrar bien el sonido, sobre todo el /j/. ",80.0,yes
53,2024-02-19_14h23.37.442,Unsyncopated_study2,s94,28.0,feminino,right,España,Castellano,Master degree,no,no,A,1,conjunction_syn,L1,syncopated,s2,r1,53,Online_conjL1_syn//d.ne.ni5.none.none.wav,zu,ri,ze,pu,sil,cho,fa,ki,sil1,la,sil2,['-'],,,none,none,,,,ne,4,testWhatL3Uns//r2.s1.1.wav,3.0,what,unsyncopated,b,s1,rule,rule,L3,z,0.347,7.0,1.0,0.3529,3.0,2.0,Castellano,0.0,Catalan ,7.0,Inglés,3.0,5.0,2.0,no,no,no,nada,,,,"En algun momento me ha costado mantener la atención. Al tener la consigna anterior algunas respuestas son debidas a la falta de control inhibitorio. Además, a veces se hacia difícil descifrar bien el sonido, sobre todo el /j/. ",80.0,yes
54,2024-02-19_14h23.37.442,Unsyncopated_study2,s94,28.0,feminino,right,España,Castellano,Master degree,no,no,A,1,conjunction_syn,L1,syncopated,s1,r2,54,Online_conjL1_syn//d.ne.ni6.444.1110.wav,ta,zu,ne,be,sil,ni,ze,la,sil1,fa,sil2,['miss'],,,0.444,no_beat,,,,ne,4,testWhatL3Uns//time_viol.r2.s1.0.wav,3.0,what,unsyncopated,b,s1,no_rule,time,L3,z,0.2941,6.0,0.0,1.1615,3.0,2.0,Castellano,0.0,Catalan ,7.0,Inglés,3.0,5.0,2.0,no,no,no,nada,,,,"En algun momento me ha costado mantener la atención. Al tener la consigna anterior algunas respuestas son debidas a la falta de control inhibitorio. Además, a veces se hacia difícil descifrar bien el sonido, sobre todo el /j/. ",80.0,yes
55,2024-02-19_14h23.37.442,Unsyncopated_study2,s94,28.0,feminino,right,España,Castellano,Master degree,no,no,A,1,conjunction_syn,L1,syncopated,s1,r1,55,Online_conjL1_syn//d.ne.ni4.222.1332.wav,pu,ne,cho,ki,sil,ri,ni,ro,sil1,zu,sil2,['catch'],[0.7291999999881682],[0.7291999999881682],0.222,no_beat,0.5071999999881682,0.5071999999881682,"[""space""]",ne,4,testWhatL3Uns//r2.s1.0.wav,3.0,what,unsyncopated,b,s1,rule,rule,L3,m,1.4944,2.0,0.0,1.6556,3.0,2.0,Castellano,0.0,Catalan ,7.0,Inglés,3.0,5.0,2.0,no,no,no,nada,,,,"En algun momento me ha costado mantener la atención. Al tener la consigna anterior algunas respuestas son debidas a la falta de control inhibitorio. Además, a veces se hacia difícil descifrar bien el sonido, sobre todo el /j/. ",80.0,yes
56,2024-02-19_14h23.37.442,Unsyncopated_study2,s94,28.0,feminino,right,España,Castellano,Master degree,no,no,A,1,conjunction_syn,L1,syncopated,s1,r1,56,Online_conjL1_syn//a.pu.ki12.0.666.wav,pu,zu,ni,ki,sil,ne,ro,fo,sil1,cho,sil2,['catch'],[0.9710000000000036],[0.9710000000000036],0.666,no_beat,0.3050000000000036,0.3050000000000036,"[""space""]",ki,2,testWhatL3Uns//dep_viol.r2.s1.0.wav,3.0,what,unsyncopated,b,s1,no_rule,dep,L3,z,0.6402,5.0,0.0,1.3747,3.0,2.0,Castellano,0.0,Catalan ,7.0,Inglés,3.0,5.0,2.0,no,no,no,nada,,,,"En algun momento me ha costado mantener la atención. Al tener la consigna anterior algunas respuestas son debidas a la falta de control inhibitorio. Además, a veces se hacia difícil descifrar bien el sonido, sobre todo el /j/. ",80.0,yes
57,2024-02-19_14h23.37.442,Unsyncopated_study2,s94,28.0,feminino,right,España,Castellano,Master degree,no,no,A,1,conjunction_syn,L1,syncopated,s2,r1,57,Online_conjL1_syn//a.pu.ki13.666.1554.wav,fa,ro,ne,pu,sil,fo,lu,ki,sil1,ni,sil2,['catch'],[1.9696000000237746],[1.9696000000237746],1.554,no_beat,0.4156000000237745,0.4156000000237745,"[""space""]",ki,2,testWhatL3Uns//cat_viol.r1.s2.0.wav,3.0,what,unsyncopated,a,s2,no_rule,cat,L3,z,0.6812,7.0,0.0,0.8826,3.0,2.0,Castellano,0.0,Catalan ,7.0,Inglés,3.0,5.0,2.0,no,no,no,nada,,,,"En algun momento me ha costado mantener la atención. Al tener la consigna anterior algunas respuestas son debidas a la falta de control inhibitorio. Además, a veces se hacia difícil descifrar bien el sonido, sobre todo el /j/. ",80.0,yes
58,2024-02-19_14h23.37.442,Unsyncopated_study2,s94,28.0,feminino,right,España,Castellano,Master degree,no,no,A,1,conjunction_syn,L1,syncopated,s1,r2,58,Online_conjL1_syn//a.pu.ki14.none.none.wav,ta,ri,ze,be,sil,lu,fa,cho,sil1,fo,sil2,['-'],,,none,none,,,,ki,2,testWhatL3Uns//r1.s2.1.wav,3.0,what,unsyncopated,a,s2,rule,rule,L3,z,0.3471,7.0,1.0,0.801,3.0,2.0,Castellano,0.0,Catalan ,7.0,Inglés,3.0,5.0,2.0,no,no,no,nada,,,,"En algun momento me ha costado mantener la atención. Al tener la consigna anterior algunas respuestas son debidas a la falta de control inhibitorio. Además, a veces se hacia difícil descifrar bien el sonido, sobre todo el /j/. ",80.0,yes
59,2024-02-19_14h23.37.442,Unsyncopated_study2,s94,28.0,feminino,right,España,Castellano,Master degree,no,no,A,1,conjunction_syn,L1,syncopated,s1,r2,59,Online_conjL1_syn//a.pu.ki15.none.none.wav,ta,fo,ne,be,sil,la,ze,fa,sil1,cho,sil2,['-'],,,none,none,,,,ki,2,testWhatL3Uns//r2.s1.2.wav,3.0,what,unsyncopated,b,s1,rule,rule,L3,m,1.6092,2.0,0.0,1.2147,3.0,2.0,Castellano,0.0,Catalan ,7.0,Inglés,3.0,5.0,2.0,no,no,no,nada,,,,"En algun momento me ha costado mantener la atención. Al tener la consigna anterior algunas respuestas son debidas a la falta de control inhibitorio. Además, a veces se hacia difícil descifrar bien el sonido, sobre todo el /j/. ",80.0,yes
60,2024-02-19_14h23.37.442,Unsyncopated_study2,s94,28.0,feminino,right,España,Castellano,Master degree,no,no,A,1,conjunction_syn,L1,syncopated,s1,r2,60,Online_conjL1_syn//b.ta.be14.0.666.wav,ta,la,fa,be,sil,ni,fo,ro,sil1,lu,sil2,['catch'],[0.6169999999999618],[0.6169999999999618],0.0,beat,0.6169999999999618,0.6169999999999618,"[""space""]",ta,1,testWhatL3Uns//r2.s2.1.wav,3.0,what,unsyncopated,b,s2,rule,rule,L3,z,1.4811,7.0,1.0,1.0305,3.0,2.0,Castellano,0.0,Catalan ,7.0,Inglés,3.0,5.0,2.0,no,no,no,nada,,,,"En algun momento me ha costado mantener la atención. Al tener la consigna anterior algunas respuestas son debidas a la falta de control inhibitorio. Además, a veces se hacia difícil descifrar bien el sonido, sobre todo el /j/. ",80.0,yes
61,2024-02-19_14h23.37.442,Unsyncopated_study2,s94,28.0,feminino,right,España,Castellano,Master degree,no,no,A,1,conjunction_syn,L1,syncopated,s1,r1,61,Online_conjL1_syn//b.ta.be12.none.none.wav,pu,ro,lu,ki,sil,ri,fa,ni,sil1,cho,sil2,['-'],,,none,none,,,,ta,1,testWhatL3Uns//dep_viol.r1.s2.0.wav,3.0,what,unsyncopated,a,s2,no_rule,dep,L3,z,2.6554,5.0,0.0,0.6441,3.0,2.0,Castellano,0.0,Catalan ,7.0,Inglés,3.0,5.0,2.0,no,no,no,nada,,,,"En algun momento me ha costado mantener la atención. Al tener la consigna anterior algunas respuestas son debidas a la falta de control inhibitorio. Además, a veces se hacia difícil descifrar bien el sonido, sobre todo el /j/. ",80.0,yes
62,2024-02-19_14h23.37.442,Unsyncopated_study2,s94,28.0,feminino,right,España,Castellano,Master degree,no,no,A,1,conjunction_syn,L1,syncopated,s2,r1,62,Online_conjL1_syn//b.ta.be15.none.none.wav,la,ni,lu,pu,sil,ri,cho,ki,sil1,fa,sil2,['-'],,,none,none,,,,ta,1,testWhatL3Uns//time_viol.r2.s2.0.wav,3.0,what,unsyncopated,b,s2,no_rule,time,L3,m,1.3601,3.0,1.0,2.0948,3.0,2.0,Castellano,0.0,Catalan ,7.0,Inglés,3.0,5.0,2.0,no,no,no,nada,,,,"En algun momento me ha costado mantener la atención. Al tener la consigna anterior algunas respuestas son debidas a la falta de control inhibitorio. Además, a veces se hacia difícil descifrar bien el sonido, sobre todo el /j/. ",80.0,yes
63,2024-02-19_14h23.37.442,Unsyncopated_study2,s94,28.0,feminino,right,España,Castellano,Master degree,no,no,A,1,conjunction_syn,L1,syncopated,s1,r2,63,Online_conjL1_syn//b.ta.be13.0.666.wav,ta,ni,fo,be,sil,ze,ne,fa,sil1,ri,sil2,['catch'],[0.4095999999642572],[0.4095999999642572],0.0,beat,0.4095999999642572,0.4095999999642572,"[""space""]",ta,1,testWhatL3Uns//time_viol.r1.s2.0.wav,3.0,what,unsyncopated,a,s2,no_rule,time,L3,m,2.3928,2.0,1.0,1.4012,3.0,2.0,Castellano,0.0,Catalan ,7.0,Inglés,3.0,5.0,2.0,no,no,no,nada,,,,"En algun momento me ha costado mantener la atención. Al tener la consigna anterior algunas respuestas son debidas a la falta de control inhibitorio. Además, a veces se hacia difícil descifrar bien el sonido, sobre todo el /j/. ",80.0,yes
64,2024-02-19_14h23.37.442,Unsyncopated_study2,s94,28.0,feminino,right,España,Castellano,Master degree,no,no,A,1,conjunction_syn,L1,syncopated,s1,r1,64,Online_conjL1_syn//c.ro.fo22.none.none.wav,pu,fa,cho,ki,sil,ne,la,ni,sil1,ze,sil2,['-'],,,none,none,,,,ro,3,testWhatL3Uns//r1.s1.1.wav,3.0,what,unsyncopated,a,s1,rule,rule,L3,z,2.4887,7.0,1.0,0.2228,3.0,2.0,Castellano,0.0,Catalan ,7.0,Inglés,3.0,5.0,2.0,no,no,no,nada,,,,"En algun momento me ha costado mantener la atención. Al tener la consigna anterior algunas respuestas son debidas a la falta de control inhibitorio. Además, a veces se hacia difícil descifrar bien el sonido, sobre todo el /j/. ",80.0,yes
65,2024-02-19_14h23.37.442,Unsyncopated_study2,s94,28.0,feminino,right,España,Castellano,Master degree,no,no,A,1,conjunction_syn,L1,syncopated,s1,r2,65,Online_conjL1_syn//c.ro.fo23.1110.1332.wav,ta,ne,cho,be,sil,ro,fo,zu,sil1,ni,sil2,['catch'],[1.7778000000118936],[1.7778000000118936],1.11,no_beat,0.6678000000118935,0.6678000000118935,"[""space""]",ro,3,testWhatL3Uns//cat_viol.r2.s1.0.wav,3.0,what,unsyncopated,b,s1,no_rule,cat,L3,m,1.4279,4.0,1.0,1.0245,3.0,2.0,Castellano,0.0,Catalan ,7.0,Inglés,3.0,5.0,2.0,no,no,no,nada,,,,"En algun momento me ha costado mantener la atención. Al tener la consigna anterior algunas respuestas son debidas a la falta de control inhibitorio. Además, a veces se hacia difícil descifrar bien el sonido, sobre todo el /j/. ",80.0,yes
66,2024-02-19_14h23.37.442,Unsyncopated_study2,s94,28.0,feminino,right,España,Castellano,Master degree,no,no,A,1,conjunction_syn,L1,syncopated,s2,r1,66,Online_conjL1_syn//c.ro.fo20.none.none.wav,lu,ne,la,pu,sil,zu,cho,ki,sil1,ni,sil2,['-'],,,none,none,,,,ro,3,testWhatL3Uns//time_viol.r1.s1.0.wav,3.0,what,unsyncopated,a,s1,no_rule,time,L3,z,2.0681,3.0,0.0,1.4582,3.0,2.0,Castellano,0.0,Catalan ,7.0,Inglés,3.0,5.0,2.0,no,no,no,nada,,,,"En algun momento me ha costado mantener la atención. Al tener la consigna anterior algunas respuestas son debidas a la falta de control inhibitorio. Además, a veces se hacia difícil descifrar bien el sonido, sobre todo el /j/. ",80.0,yes
67,2024-02-19_14h23.37.442,Unsyncopated_study2,s94,28.0,feminino,right,España,Castellano,Master degree,no,no,A,1,conjunction_syn,L1,syncopated,s2,r2,67,Online_conjL1_syn//c.ro.fo21.none.none.wav,ze,zu,la,ta,sil,ne,cho,be,sil1,ni,sil2,['-'],,,none,none,,,,ro,3,testWhatL3Uns//dep_viol.r2.s2.0.wav,3.0,what,unsyncopated,b,s2,no_rule,dep,L3,z,1.0939,2.0,0.0,0.8423,3.0,2.0,Castellano,0.0,Catalan ,7.0,Inglés,3.0,5.0,2.0,no,no,no,nada,,,,"En algun momento me ha costado mantener la atención. Al tener la consigna anterior algunas respuestas son debidas a la falta de control inhibitorio. Además, a veces se hacia difícil descifrar bien el sonido, sobre todo el /j/. ",80.0,yes
68,2024-02-19_14h23.37.442,Unsyncopated_study2,s94,28.0,feminino,right,España,Castellano,Master degree,no,no,A,1,conjunction_syn,L1,syncopated,s1,r1,68,Online_conjL1_syn//c.ro.fo15.none.none.wav,pu,ri,ze,ki,sil,lu,ne,la,sil1,cho,sil2,['-'],,,none,none,,,,ro,3,testWhatL3Uns//cat_viol.r2.s2.0.wav,3.0,what,unsyncopated,b,s2,no_rule,cat,L3,z,0.387,7.0,0.0,0.9079,3.0,2.0,Castellano,0.0,Catalan ,7.0,Inglés,3.0,5.0,2.0,no,no,no,nada,,,,"En algun momento me ha costado mantener la atención. Al tener la consigna anterior algunas respuestas son debidas a la falta de control inhibitorio. Además, a veces se hacia difícil descifrar bien el sonido, sobre todo el /j/. ",80.0,yes
69,2024-02-19_14h23.37.442,Unsyncopated_study2,s94,28.0,feminino,right,España,Castellano,Master degree,no,no,A,1,conjunction_syn,L1,syncopated,s2,r2,69,Online_conjL1_syn//c.ro.fo12.1332.444.wav,fa,zu,fo,ta,sil,cho,ro,be,sil1,ne,sil2,['catch'],[1.9235000000001037],[1.9235000000001037],1.332,no_beat,0.5915000000001036,0.5915000000001036,"[""space""]",ro,3,testWhatL3Uns//r1.s2.2.wav,3.0,what,unsyncopated,a,s2,rule,rule,L3,z,0.9165,5.0,1.0,0.7609,3.0,2.0,Castellano,0.0,Catalan ,7.0,Inglés,3.0,5.0,2.0,no,no,no,nada,,,,"En algun momento me ha costado mantener la atención. Al tener la consigna anterior algunas respuestas son debidas a la falta de control inhibitorio. Además, a veces se hacia difícil descifrar bien el sonido, sobre todo el /j/. ",80.0,yes
70,2024-02-19_14h23.37.442,Unsyncopated_study2,s94,28.0,feminino,right,España,Castellano,Master degree,no,no,A,1,conjunction_syn,L1,syncopated,s2,r2,70,Online_conjL1_syn//c.ro.fo14.none.none.wav,fa,zu,ri,ta,sil,la,ni,be,sil1,ne,sil2,['-'],,,none,none,,,,ro,3,testWhatL3Uns//r1.s1.2.wav,3.0,what,unsyncopated,a,s1,rule,rule,L3,m,1.0151,4.0,0.0,1.2597,3.0,2.0,Castellano,0.0,Catalan ,7.0,Inglés,3.0,5.0,2.0,no,no,no,nada,,,,"En algun momento me ha costado mantener la atención. Al tener la consigna anterior algunas respuestas son debidas a la falta de control inhibitorio. Además, a veces se hacia difícil descifrar bien el sonido, sobre todo el /j/. ",80.0,yes
71,2024-02-19_14h23.37.442,Unsyncopated_study2,s94,28.0,feminino,right,España,Castellano,Master degree,no,no,A,1,conjunction_syn,L1,syncopated,s1,r1,71,Online_conjL1_syn//c.ro.fo13.1554.222.wav,pu,fo,fa,ki,sil,ni,cho,ro,sil1,ze,sil2,['catch'],[2.0443999999761218],[2.0443999999761218],1.554,no_beat,0.4903999999761217,0.4903999999761217,"[""space""]",ro,3,testWhatL3Uns//r2.s2.0.wav,3.0,what,unsyncopated,b,s2,rule,rule,L3,z,2.6144,7.0,1.0,0.9048,3.0,2.0,Castellano,0.0,Catalan ,7.0,Inglés,3.0,5.0,2.0,no,no,no,nada,,,,"En algun momento me ha costado mantener la atención. Al tener la consigna anterior algunas respuestas son debidas a la falta de control inhibitorio. Además, a veces se hacia difícil descifrar bien el sonido, sobre todo el /j/. ",80.0,yes
72,2024-02-19_14h23.37.442,Unsyncopated_study2,s94,28.0,feminino,right,España,Castellano,Master degree,no,no,A,1,conjunction_syn,L1,syncopated,s1,r1,72,Online_conjL1_syn//c.ro.fo9.1554.1110.wav,pu,ni,lu,ki,sil,fo,fa,ro,sil1,ne,sil2,['catch'],[2.1561999999880754],[2.1561999999880754],1.554,no_beat,0.6021999999880754,0.6021999999880754,"[""space""]",ro,3,testWhenL4Uns//r1.s1.1.wav,4.0,when,unsyncopated,a,s1,rule,rule,L4,z,0.4832,7.0,1.0,0.9642,3.0,2.0,Castellano,0.0,Catalan ,7.0,Inglés,3.0,5.0,2.0,no,no,no,nada,,,,"En algun momento me ha costado mantener la atención. Al tener la consigna anterior algunas respuestas son debidas a la falta de control inhibitorio. Además, a veces se hacia difícil descifrar bien el sonido, sobre todo el /j/. ",80.0,yes
73,2024-02-19_14h23.37.442,Unsyncopated_study2,s94,28.0,feminino,right,España,Castellano,Master degree,no,no,A,1,conjunction_syn,L1,syncopated,s2,r2,73,Online_conjL1_syn//c.ro.fo10.222.444.wav,zu,ro,fo,ta,sil,ni,cho,be,sil1,ze,sil2,['catch'],[0.9626999999879899],[0.9626999999879899],0.222,no_beat,0.74069999998799,0.74069999998799,"[""space""]",ro,3,testWhenL4Uns//cat_viol.r2.s1.0.wav,4.0,when,unsyncopated,b,s1,no_rule,cat,L4,z,0.298,7.0,1.0,0.28,3.0,2.0,Castellano,0.0,Catalan ,7.0,Inglés,3.0,5.0,2.0,no,no,no,nada,,,,"En algun momento me ha costado mantener la atención. Al tener la consigna anterior algunas respuestas son debidas a la falta de control inhibitorio. Además, a veces se hacia difícil descifrar bien el sonido, sobre todo el /j/. ",80.0,yes
74,2024-02-19_14h23.37.442,Unsyncopated_study2,s94,28.0,feminino,right,España,Castellano,Master degree,no,no,A,1,conjunction_syn,L1,syncopated,s2,r1,74,Online_conjL1_syn//c.ro.fo11.none.none.wav,ze,zu,ni,pu,sil,la,cho,ki,sil1,ne,sil2,['-'],,,none,none,,,,ro,3,testWhenL4Uns//r1.s1.0.wav,4.0,when,unsyncopated,a,s1,rule,rule,L4,m,3.3018,5.0,0.0,0.3135,3.0,2.0,Castellano,0.0,Catalan ,7.0,Inglés,3.0,5.0,2.0,no,no,no,nada,,,,"En algun momento me ha costado mantener la atención. Al tener la consigna anterior algunas respuestas son debidas a la falta de control inhibitorio. Además, a veces se hacia difícil descifrar bien el sonido, sobre todo el /j/. ",80.0,yes
75,2024-02-19_14h23.37.442,Unsyncopated_study2,s94,28.0,feminino,right,España,Castellano,Master degree,no,no,A,1,conjunction_syn,L1,syncopated,s1,r2,75,Online_conjL1_syn//c.ro.fo8.444.1332.wav,ta,lu,ro,be,sil,ni,fo,zu,sil1,fa,sil2,['catch'],[1.4835000000000491],[1.4835000000000491],0.444,no_beat,1.0395000000000492,1.0395000000000492,"[""space""]",ro,3,testWhenL4Uns//r1.s1.2.wav,4.0,when,unsyncopated,a,s1,rule,rule,L4,z,0.2541,7.0,1.0,0.8547,3.0,2.0,Castellano,0.0,Catalan ,7.0,Inglés,3.0,5.0,2.0,no,no,no,nada,,,,"En algun momento me ha costado mantener la atención. Al tener la consigna anterior algunas respuestas son debidas a la falta de control inhibitorio. Además, a veces se hacia difícil descifrar bien el sonido, sobre todo el /j/. ",80.0,yes
76,2024-02-19_14h23.37.442,Unsyncopated_study2,s94,28.0,feminino,right,España,Castellano,Master degree,no,no,A,1,conjunction_syn,L1,syncopated,s2,r2,76,Online_conjL1_syn//b.ta.be9.666.1554.wav,la,lu,ne,ta,sil,ze,fo,be,sil1,zu,sil2,['catch'],[1.0523000000118827],[1.0523000000118827],0.666,no_beat,0.3863000000118827,0.3863000000118827,"[""space""]",ta,1,testWhenL4Uns//r1.s2.0.wav,4.0,when,unsyncopated,a,s2,rule,rule,L4,z,0.4534,7.0,1.0,0.2898,3.0,2.0,Castellano,0.0,Catalan ,7.0,Inglés,3.0,5.0,2.0,no,no,no,nada,,,,"En algun momento me ha costado mantener la atención. Al tener la consigna anterior algunas respuestas son debidas a la falta de control inhibitorio. Además, a veces se hacia difícil descifrar bien el sonido, sobre todo el /j/. ",80.0,yes
77,2024-02-19_14h23.37.442,Unsyncopated_study2,s94,28.0,feminino,right,España,Castellano,Master degree,no,no,A,1,conjunction_syn,L1,syncopated,s1,r2,77,Online_conjL1_syn//b.ta.be10.0.666.wav,ta,cho,ri,be,sil,ni,zu,ze,sil1,ne,sil2,['catch'],[0.6418999999762036],[0.6418999999762036],0.0,beat,0.6418999999762036,0.6418999999762036,"[""space""]",ta,1,testWhenL4Uns//cat_viol.r2.s2.0.wav,4.0,when,unsyncopated,b,s2,no_rule,cat,L4,m,1.9873,4.0,0.0,2.5929,3.0,2.0,Castellano,0.0,Catalan ,7.0,Inglés,3.0,5.0,2.0,no,no,no,nada,,,,"En algun momento me ha costado mantener la atención. Al tener la consigna anterior algunas respuestas son debidas a la falta de control inhibitorio. Además, a veces se hacia difícil descifrar bien el sonido, sobre todo el /j/. ",80.0,yes
78,2024-02-19_14h23.37.442,Unsyncopated_study2,s94,28.0,feminino,right,España,Castellano,Master degree,no,no,A,1,conjunction_syn,L1,syncopated,s1,r2,78,Online_conjL1_syn//b.ta.be11.0.666.wav,ta,zu,lu,be,sil,ni,ro,cho,sil1,fo,sil2,['catch'],[0.6613000000120337],[0.6613000000120337],0.0,beat,0.6613000000120337,0.6613000000120337,"[""space""]",ta,1,testWhenL4Uns//r2.s1.2.wav,4.0,when,unsyncopated,b,s1,rule,rule,L4,z,0.8762,7.0,1.0,0.4271,3.0,2.0,Castellano,0.0,Catalan ,7.0,Inglés,3.0,5.0,2.0,no,no,no,nada,,,,"En algun momento me ha costado mantener la atención. Al tener la consigna anterior algunas respuestas son debidas a la falta de control inhibitorio. Además, a veces se hacia difícil descifrar bien el sonido, sobre todo el /j/. ",80.0,yes
79,2024-02-19_14h23.37.442,Unsyncopated_study2,s94,28.0,feminino,right,España,Castellano,Master degree,no,no,A,1,conjunction_syn,L1,syncopated,s1,r2,79,Online_conjL1_syn//b.ta.be8.0.666.wav,ta,la,zu,be,sil,ro,cho,ze,sil1,lu,sil2,['catch'],[0.5883000000119409],[0.5883000000119409],0.0,beat,0.5883000000119409,0.5883000000119409,"[""space""]",ta,1,testWhenL4Uns//time_viol.r1.s2.0.wav,4.0,when,unsyncopated,a,s2,no_rule,time,L4,m,0.9344,2.0,0.0,0.9959,3.0,2.0,Castellano,0.0,Catalan ,7.0,Inglés,3.0,5.0,2.0,no,no,no,nada,,,,"En algun momento me ha costado mantener la atención. Al tener la consigna anterior algunas respuestas son debidas a la falta de control inhibitorio. Además, a veces se hacia difícil descifrar bien el sonido, sobre todo el /j/. ",80.0,yes
80,2024-02-19_14h23.37.442,Unsyncopated_study2,s94,28.0,feminino,right,España,Castellano,Master degree,no,no,A,1,conjunction_syn,L1,syncopated,s2,r2,80,Online_conjL1_syn//a.pu.ki21.none.none.wav,ro,fa,ni,ta,sil,ri,la,be,sil1,lu,sil2,['-'],,,none,none,,,,ki,2,testWhenL4Uns//r1.s2.2.wav,4.0,when,unsyncopated,a,s2,rule,rule,L4,m,0.9764,1.0,0.0,0.8366,3.0,2.0,Castellano,0.0,Catalan ,7.0,Inglés,3.0,5.0,2.0,no,no,no,nada,,,,"En algun momento me ha costado mantener la atención. Al tener la consigna anterior algunas respuestas son debidas a la falta de control inhibitorio. Además, a veces se hacia difícil descifrar bien el sonido, sobre todo el /j/. ",80.0,yes
81,2024-02-19_14h23.37.442,Unsyncopated_study2,s94,28.0,feminino,right,España,Castellano,Master degree,no,no,A,1,conjunction_syn,L1,syncopated,s2,r1,81,Online_conjL1_syn//a.pu.ki23.666.1554.wav,ni,la,ro,pu,sil,fo,zu,ki,sil1,ze,sil2,['catch'],[2.064699999988079],[2.064699999988079],1.554,no_beat,0.510699999988079,0.510699999988079,"[""space""]",ki,2,testWhenL4Uns//dep_viol.r1.s1.0.wav,4.0,when,unsyncopated,a,s1,no_rule,dep,L4,z,2.3077,7.0,1.0,0.8323,3.0,2.0,Castellano,0.0,Catalan ,7.0,Inglés,3.0,5.0,2.0,no,no,no,nada,,,,"En algun momento me ha costado mantener la atención. Al tener la consigna anterior algunas respuestas son debidas a la falta de control inhibitorio. Además, a veces se hacia difícil descifrar bien el sonido, sobre todo el /j/. ",80.0,yes
82,2024-02-19_14h23.37.442,Unsyncopated_study2,s94,28.0,feminino,right,España,Castellano,Master degree,no,no,A,1,conjunction_syn,L1,syncopated,s2,r2,82,Online_conjL1_syn//a.pu.ki22.none.none.wav,fo,ri,ni,ta,sil,lu,la,be,sil1,cho,sil2,['-'],,,none,none,,,,ki,2,testWhenL4Uns//dep_viol.r1.s2.0.wav,4.0,when,unsyncopated,a,s2,no_rule,dep,L4,z,0.6365,4.0,1.0,1.3885,3.0,2.0,Castellano,0.0,Catalan ,7.0,Inglés,3.0,5.0,2.0,no,no,no,nada,,,,"En algun momento me ha costado mantener la atención. Al tener la consigna anterior algunas respuestas son debidas a la falta de control inhibitorio. Además, a veces se hacia difícil descifrar bien el sonido, sobre todo el /j/. ",80.0,yes
83,2024-02-19_14h23.37.442,Unsyncopated_study2,s94,28.0,feminino,right,España,Castellano,Master degree,no,no,A,1,conjunction_syn,L1,syncopated,s2,r1,83,Online_conjL1_syn//a.pu.ki20.666.1554.wav,ro,lu,ni,pu,sil,la,fo,ki,sil1,cho,sil2,"['false alarm', 'catch']","[0.6966999999881409, 2.042399999976169]",[2.042399999976169],1.554,no_beat,0.488399999976169,0.488399999976169,"[""space"",""space""]",ki,2,testWhenL4Uns//cat_viol.r1.s2.0.wav,4.0,when,unsyncopated,a,s2,no_rule,cat,L4,z,0.3272,5.0,1.0,1.4505,3.0,2.0,Castellano,0.0,Catalan ,7.0,Inglés,3.0,5.0,2.0,no,no,no,nada,,,,"En algun momento me ha costado mantener la atención. Al tener la consigna anterior algunas respuestas son debidas a la falta de control inhibitorio. Además, a veces se hacia difícil descifrar bien el sonido, sobre todo el /j/. ",80.0,yes
84,2024-02-19_14h23.37.442,Unsyncopated_study2,s94,28.0,feminino,right,España,Castellano,Master degree,no,no,A,1,conjunction_syn,L1,syncopated,s1,r2,84,Online_conjL1_syn//b.ta.be31.0.666.wav,ta,fo,cho,be,sil,lu,ri,zu,sil1,la,sil2,['catch'],[0.5836999999880845],[0.5836999999880845],0.0,beat,0.5836999999880845,0.5836999999880845,"[""space""]",ta,1,testWhenL4Uns//r1.s2.1.wav,4.0,when,unsyncopated,a,s2,rule,rule,L4,m,2.0492,3.0,0.0,1.4515,3.0,2.0,Castellano,0.0,Catalan ,7.0,Inglés,3.0,5.0,2.0,no,no,no,nada,,,,"En algun momento me ha costado mantener la atención. Al tener la consigna anterior algunas respuestas son debidas a la falta de control inhibitorio. Además, a veces se hacia difícil descifrar bien el sonido, sobre todo el /j/. ",80.0,yes
85,2024-02-19_14h23.37.442,Unsyncopated_study2,s94,28.0,feminino,right,España,Castellano,Master degree,no,no,A,1,conjunction_syn,L1,syncopated,s1,r2,85,Online_conjL1_syn//b.ta.be28.0.666.wav,ta,fa,la,be,sil,zu,fo,ze,sil1,ro,sil2,['catch'],[0.5609000000356446],[0.5609000000356446],0.0,beat,0.5609000000356446,0.5609000000356446,"[""space""]",ta,1,testWhenL4Uns//time_viol.r2.s2.0.wav,4.0,when,unsyncopated,b,s2,no_rule,time,L4,z,3.0733,7.0,1.0,0.6165,3.0,2.0,Castellano,0.0,Catalan ,7.0,Inglés,3.0,5.0,2.0,no,no,no,nada,,,,"En algun momento me ha costado mantener la atención. Al tener la consigna anterior algunas respuestas son debidas a la falta de control inhibitorio. Además, a veces se hacia difícil descifrar bien el sonido, sobre todo el /j/. ",80.0,yes
86,2024-02-19_14h23.37.442,Unsyncopated_study2,s94,28.0,feminino,right,España,Castellano,Master degree,no,no,A,1,conjunction_syn,L1,syncopated,s2,r1,86,Online_conjL1_syn//b.ta.be30.none.none.wav,la,fo,fa,pu,sil,ro,ri,ki,sil1,ze,sil2,['-'],,,none,none,,,,ta,1,testWhenL4Uns//r2.s2.0.wav,4.0,when,unsyncopated,b,s2,rule,rule,L4,z,1.9143,1.0,1.0,0.3283,3.0,2.0,Castellano,0.0,Catalan ,7.0,Inglés,3.0,5.0,2.0,no,no,no,nada,,,,"En algun momento me ha costado mantener la atención. Al tener la consigna anterior algunas respuestas son debidas a la falta de control inhibitorio. Además, a veces se hacia difícil descifrar bien el sonido, sobre todo el /j/. ",80.0,yes
87,2024-02-19_14h23.37.442,Unsyncopated_study2,s94,28.0,feminino,right,España,Castellano,Master degree,no,no,A,1,conjunction_syn,L1,syncopated,s1,r1,87,Online_conjL1_syn//b.ta.be29.none.none.wav,pu,ro,fa,ki,sil,zu,ni,la,sil1,ze,sil2,['-'],,,none,none,,,,ta,1,testWhenL4Uns//cat_viol.r1.s1.0.wav,4.0,when,unsyncopated,a,s1,no_rule,cat,L4,m,0.8157,5.0,0.0,1.5571,3.0,2.0,Castellano,0.0,Catalan ,7.0,Inglés,3.0,5.0,2.0,no,no,no,nada,,,,"En algun momento me ha costado mantener la atención. Al tener la consigna anterior algunas respuestas son debidas a la falta de control inhibitorio. Además, a veces se hacia difícil descifrar bien el sonido, sobre todo el /j/. ",80.0,yes
88,2024-02-19_14h23.37.442,Unsyncopated_study2,s94,28.0,feminino,right,España,Castellano,Master degree,no,no,A,1,conjunction_syn,L1,syncopated,s1,r2,88,Online_conjL1_syn//c.ro.fo29.none.none.wav,ta,zu,ri,be,sil,la,ni,fa,sil1,lu,sil2,"['false alarm', 'false alarm']","[0.4860000000001037, 0.9973999999763237]",0.9973999999763237,none,none,,,"[""space"",""space""]",ro,3,testWhenL4Uns//r2.s1.0.wav,4.0,when,unsyncopated,b,s1,rule,rule,L4,z,2.7533,2.0,1.0,2.0402,3.0,2.0,Castellano,0.0,Catalan ,7.0,Inglés,3.0,5.0,2.0,no,no,no,nada,,,,"En algun momento me ha costado mantener la atención. Al tener la consigna anterior algunas respuestas son debidas a la falta de control inhibitorio. Además, a veces se hacia difícil descifrar bien el sonido, sobre todo el /j/. ",80.0,yes
89,2024-02-19_14h23.37.442,Unsyncopated_study2,s94,28.0,feminino,right,España,Castellano,Master degree,no,no,A,1,conjunction_syn,L1,syncopated,s1,r1,89,Online_conjL1_syn//c.ro.fo28.none.none.wav,pu,ni,lu,ki,sil,ne,la,ze,sil1,fa,sil2,['-'],,,none,none,,,,ro,3,testWhenL4Uns//r2.s1.1.wav,4.0,when,unsyncopated,b,s1,rule,rule,L4,z,0.7259,7.0,1.0,1.1603,3.0,2.0,Castellano,0.0,Catalan ,7.0,Inglés,3.0,5.0,2.0,no,no,no,nada,,,,"En algun momento me ha costado mantener la atención. Al tener la consigna anterior algunas respuestas son debidas a la falta de control inhibitorio. Además, a veces se hacia difícil descifrar bien el sonido, sobre todo el /j/. ",80.0,yes
90,2024-02-19_14h23.37.442,Unsyncopated_study2,s94,28.0,feminino,right,España,Castellano,Master degree,no,no,A,1,conjunction_syn,L1,syncopated,s2,r2,90,Online_conjL1_syn//c.ro.fo31.none.none.wav,ri,fa,la,ta,sil,lu,ne,be,sil1,zu,sil2,['-'],,,none,none,,,,ro,3,testWhenL4Uns//time_viol.r2.s1.0.wav,4.0,when,unsyncopated,b,s1,no_rule,time,L4,m,2.1673,3.0,0.0,1.0966,3.0,2.0,Castellano,0.0,Catalan ,7.0,Inglés,3.0,5.0,2.0,no,no,no,nada,,,,"En algun momento me ha costado mantener la atención. Al tener la consigna anterior algunas respuestas son debidas a la falta de control inhibitorio. Además, a veces se hacia difícil descifrar bien el sonido, sobre todo el /j/. ",80.0,yes
91,2024-02-19_14h23.37.442,Unsyncopated_study2,s94,28.0,feminino,right,España,Castellano,Master degree,no,no,A,1,conjunction_syn,L1,syncopated,s2,r2,91,Online_conjL1_syn//c.ro.fo30.1110.0.wav,fo,ze,fa,ta,sil,ro,ri,be,sil1,ni,sil2,['catch'],[1.7829999999999018],[1.7829999999999018],1.11,no_beat,0.6729999999999017,0.6729999999999017,"[""space""]",ro,3,testWhenL4Uns//r2.s2.1.wav,4.0,when,unsyncopated,b,s2,rule,rule,L4,z,0.4587,7.0,1.0,1.0631,3.0,2.0,Castellano,0.0,Catalan ,7.0,Inglés,3.0,5.0,2.0,no,no,no,nada,,,,"En algun momento me ha costado mantener la atención. Al tener la consigna anterior algunas respuestas son debidas a la falta de control inhibitorio. Además, a veces se hacia difícil descifrar bien el sonido, sobre todo el /j/. ",80.0,yes
92,2024-02-19_14h23.37.442,Unsyncopated_study2,s94,28.0,feminino,right,España,Castellano,Master degree,no,no,A,1,conjunction_syn,L1,syncopated,s1,r1,92,Online_conjL1_syn//d.ne.ni11.222.1332.wav,pu,ne,ri,ki,sil,la,ni,cho,sil1,ro,sil2,['catch'],[0.7281999999881918],[0.7281999999881918],0.222,no_beat,0.5061999999881919,0.5061999999881919,"[""space""]",ne,4,testWhenL4Uns//r2.s2.2.wav,4.0,when,unsyncopated,b,s2,rule,rule,L4,z,4.1933,1.0,1.0,1.0945,3.0,2.0,Castellano,0.0,Catalan ,7.0,Inglés,3.0,5.0,2.0,no,no,no,nada,,,,"En algun momento me ha costado mantener la atención. Al tener la consigna anterior algunas respuestas son debidas a la falta de control inhibitorio. Además, a veces se hacia difícil descifrar bien el sonido, sobre todo el /j/. ",80.0,yes
93,2024-02-19_14h23.37.442,Unsyncopated_study2,s94,28.0,feminino,right,España,Castellano,Master degree,no,no,A,1,conjunction_syn,L1,syncopated,s2,r2,93,Online_conjL1_syn//d.ne.ni9.0.444.wav,ne,fo,ni,ta,sil,lu,ri,be,sil1,cho,sil2,['catch'],[0.7678999999759526],[0.7678999999759526],0.0,beat,0.7678999999759526,0.7678999999759526,"[""space""]",ne,4,testWhenL4Uns//time_viol.r1.s1.0.wav,4.0,when,unsyncopated,a,s1,no_rule,time,L4,m,0.8724,3.0,0.0,1.3837,3.0,2.0,Castellano,0.0,Catalan ,7.0,Inglés,3.0,5.0,2.0,no,no,no,nada,,,,"En algun momento me ha costado mantener la atención. Al tener la consigna anterior algunas respuestas son debidas a la falta de control inhibitorio. Además, a veces se hacia difícil descifrar bien el sonido, sobre todo el /j/. ",80.0,yes
94,2024-02-19_14h23.37.442,Unsyncopated_study2,s94,28.0,feminino,right,España,Castellano,Master degree,no,no,A,1,conjunction_syn,L1,syncopated,s2,r1,94,Online_conjL1_syn//d.ne.ni8.222.444.wav,fo,ne,ni,pu,sil,ri,ze,ki,sil1,ro,sil2,['miss'],,,0.222,no_beat,,,,ne,4,testWhenL4Uns//dep_viol.r2.s1.0.wav,4.0,when,unsyncopated,b,s1,no_rule,dep,L4,m,5.0734,1.0,0.0,1.6076,3.0,2.0,Castellano,0.0,Catalan ,7.0,Inglés,3.0,5.0,2.0,no,no,no,nada,,,,"En algun momento me ha costado mantener la atención. Al tener la consigna anterior algunas respuestas son debidas a la falta de control inhibitorio. Además, a veces se hacia difícil descifrar bien el sonido, sobre todo el /j/. ",80.0,yes
95,2024-02-19_14h23.37.442,Unsyncopated_study2,s94,28.0,feminino,right,España,Castellano,Master degree,no,no,A,1,conjunction_syn,L1,syncopated,s1,r2,95,Online_conjL1_syn//d.ne.ni10.none.none.wav,ta,ze,fo,be,sil,ro,zu,ri,sil1,lu,sil2,['-'],,,none,none,,,,ne,4,testWhenL4Uns//dep_viol.r2.s2.0.wav,4.0,when,unsyncopated,b,s2,no_rule,dep,L4,z,1.9183,5.0,1.0,1.2288,3.0,2.0,Castellano,0.0,Catalan ,7.0,Inglés,3.0,5.0,2.0,no,no,no,nada,,,,"En algun momento me ha costado mantener la atención. Al tener la consigna anterior algunas respuestas son debidas a la falta de control inhibitorio. Además, a veces se hacia difícil descifrar bien el sonido, sobre todo el /j/. ",80.0,yes
96,2024-02-19_14h23.37.442,Unsyncopated_study2,s94,28.0,feminino,right,España,Castellano,Master degree,no,no,A,1,conjunction_syn,L1,syncopated,s1,r2,96,Online_conjL1_syn//a.pu.ki24.none.none.wav,ta,ne,la,be,sil,ri,fa,ze,sil1,zu,sil2,['-'],,,none,none,,,,ki,2,,,,,,,,,,,,,,,3.0,2.0,Castellano,0.0,Catalan ,7.0,Inglés,3.0,5.0,2.0,no,no,no,nada,,,,"En algun momento me ha costado mantener la atención. Al tener la consigna anterior algunas respuestas son debidas a la falta de control inhibitorio. Además, a veces se hacia difícil descifrar bien el sonido, sobre todo el /j/. ",80.0,yes
97,2024-02-19_14h23.37.442,Unsyncopated_study2,s94,28.0,feminino,right,España,Castellano,Master degree,no,no,A,1,conjunction_syn,L1,syncopated,s2,r1,97,Online_conjL1_syn//a.pu.ki25.666.1554.wav,cho,la,ro,pu,sil,ze,ne,ki,sil1,ri,sil2,['catch'],[1.9638000000120428],[1.9638000000120428],1.554,no_beat,0.4098000000120427,0.4098000000120427,"[""space""]",ki,2,,,,,,,,,,,,,,,3.0,2.0,Castellano,0.0,Catalan ,7.0,Inglés,3.0,5.0,2.0,no,no,no,nada,,,,"En algun momento me ha costado mantener la atención. Al tener la consigna anterior algunas respuestas son debidas a la falta de control inhibitorio. Además, a veces se hacia difícil descifrar bien el sonido, sobre todo el /j/. ",80.0,yes
98,2024-02-19_14h23.37.442,Unsyncopated_study2,s94,28.0,feminino,right,España,Castellano,Master degree,no,no,A,1,conjunction_syn,L1,syncopated,s1,r1,98,Online_conjL1_syn//a.pu.ki27.0.666.wav,pu,ze,lu,ki,sil,cho,fa,fo,sil1,ni,sil2,['catch'],[1.1043999999760672],[1.1043999999760672],0.666,no_beat,0.4383999999760671,0.4383999999760671,"[""space""]",ki,2,,,,,,,,,,,,,,,3.0,2.0,Castellano,0.0,Catalan ,7.0,Inglés,3.0,5.0,2.0,no,no,no,nada,,,,"En algun momento me ha costado mantener la atención. Al tener la consigna anterior algunas respuestas son debidas a la falta de control inhibitorio. Además, a veces se hacia difícil descifrar bien el sonido, sobre todo el /j/. ",80.0,yes
99,2024-02-19_14h23.37.442,Unsyncopated_study2,s94,28.0,feminino,right,España,Castellano,Master degree,no,no,A,1,conjunction_syn,L1,syncopated,s1,r2,99,Online_conjL1_syn//a.pu.ki26.none.none.wav,ta,zu,lu,be,sil,ro,la,ri,sil1,fa,sil2,['-'],,,none,none,,,,ki,2,,,,,,,,,,,,,,,3.0,2.0,Castellano,0.0,Catalan ,7.0,Inglés,3.0,5.0,2.0,no,no,no,nada,,,,"En algun momento me ha costado mantener la atención. Al tener la consigna anterior algunas respuestas son debidas a la falta de control inhibitorio. Además, a veces se hacia difícil descifrar bien el sonido, sobre todo el /j/. ",80.0,yes
100,2024-02-19_14h23.37.442,Unsyncopated_study2,s94,28.0,feminino,right,España,Castellano,Master degree,no,no,A,1,conjunction_syn,L1,syncopated,s2,r2,100,Online_conjL1_syn//d.ne.ni29.0.444.wav,ne,fa,ni,ta,sil,ri,zu,be,sil1,lu,sil2,['catch'],[0.46620000004759277],[0.46620000004759277],0.0,beat,0.4662000000475927,0.4662000000475927,"[""space""]",ne,4,,,,,,,,,,,,,,,3.0,2.0,Castellano,0.0,Catalan ,7.0,Inglés,3.0,5.0,2.0,no,no,no,nada,,,,"En algun momento me ha costado mantener la atención. Al tener la consigna anterior algunas respuestas son debidas a la falta de control inhibitorio. Además, a veces se hacia difícil descifrar bien el sonido, sobre todo el /j/. ",80.0,yes
101,2024-02-19_14h23.37.442,Unsyncopated_study2,s94,28.0,feminino,right,España,Castellano,Master degree,no,no,A,1,conjunction_syn,L1,syncopated,s2,r2,101,Online_conjL1_syn//d.ne.ni30.222.1110.wav,fa,ne,lu,ta,sil,ni,ri,be,sil1,ze,sil2,['catch'],[2.1552999999523763],[2.1552999999523763],0.222,no_beat,,1.9332999999523763,"[""space""]",ne,4,,,,,,,,,,,,,,,3.0,2.0,Castellano,0.0,Catalan ,7.0,Inglés,3.0,5.0,2.0,no,no,no,nada,,,,"En algun momento me ha costado mantener la atención. Al tener la consigna anterior algunas respuestas son debidas a la falta de control inhibitorio. Además, a veces se hacia difícil descifrar bien el sonido, sobre todo el /j/. ",80.0,yes
102,2024-02-19_14h23.37.442,Unsyncopated_study2,s94,28.0,feminino,right,España,Castellano,Master degree,no,no,A,1,conjunction_syn,L1,syncopated,s1,r2,102,Online_conjL1_syn//d.ne.ni28.none.none.wav,ta,lu,zu,be,sil,fa,la,ro,sil1,ri,sil2,['-'],,,none,none,,,,ne,4,,,,,,,,,,,,,,,3.0,2.0,Castellano,0.0,Catalan ,7.0,Inglés,3.0,5.0,2.0,no,no,no,nada,,,,"En algun momento me ha costado mantener la atención. Al tener la consigna anterior algunas respuestas son debidas a la falta de control inhibitorio. Además, a veces se hacia difícil descifrar bien el sonido, sobre todo el /j/. ",80.0,yes
103,2024-02-19_14h23.37.442,Unsyncopated_study2,s94,28.0,feminino,right,España,Castellano,Master degree,no,no,A,1,conjunction_syn,L1,syncopated,s2,r1,103,Online_conjL1_syn//d.ne.ni31.0.1110.wav,ne,zu,fa,pu,sil,ni,lu,ki,sil1,ro,sil2,['catch'],[0.704700000047751],[0.704700000047751],0.0,beat,0.704700000047751,0.704700000047751,"[""space""]",ne,4,,,,,,,,,,,,,,,3.0,2.0,Castellano,0.0,Catalan ,7.0,Inglés,3.0,5.0,2.0,no,no,no,nada,,,,"En algun momento me ha costado mantener la atención. Al tener la consigna anterior algunas respuestas son debidas a la falta de control inhibitorio. Además, a veces se hacia difícil descifrar bien el sonido, sobre todo el /j/. ",80.0,yes
104,2024-02-19_14h23.37.442,Unsyncopated_study2,s94,28.0,feminino,right,España,Castellano,Master degree,no,no,A,1,conjunction_syn,L1,syncopated,s1,r1,104,Online_conjL1_syn//b.ta.be4.none.none.wav,pu,la,fo,ki,sil,cho,ze,lu,sil1,ri,sil2,['-'],,,none,none,,,,ta,1,,,,,,,,,,,,,,,3.0,2.0,Castellano,0.0,Catalan ,7.0,Inglés,3.0,5.0,2.0,no,no,no,nada,,,,"En algun momento me ha costado mantener la atención. Al tener la consigna anterior algunas respuestas son debidas a la falta de control inhibitorio. Además, a veces se hacia difícil descifrar bien el sonido, sobre todo el /j/. ",80.0,yes
105,2024-02-19_14h23.37.442,Unsyncopated_study2,s94,28.0,feminino,right,España,Castellano,Master degree,no,no,A,1,conjunction_syn,L1,syncopated,s1,r1,105,Online_conjL1_syn//b.ta.be6.none.none.wav,pu,cho,fo,ki,sil,ni,ro,ri,sil1,lu,sil2,['-'],,,none,none,,,,ta,1,,,,,,,,,,,,,,,3.0,2.0,Castellano,0.0,Catalan ,7.0,Inglés,3.0,5.0,2.0,no,no,no,nada,,,,"En algun momento me ha costado mantener la atención. Al tener la consigna anterior algunas respuestas son debidas a la falta de control inhibitorio. Además, a veces se hacia difícil descifrar bien el sonido, sobre todo el /j/. ",80.0,yes
106,2024-02-19_14h23.37.442,Unsyncopated_study2,s94,28.0,feminino,right,España,Castellano,Master degree,no,no,A,1,conjunction_syn,L1,syncopated,s2,r1,106,Online_conjL1_syn//b.ta.be5.none.none.wav,la,ro,cho,pu,sil,fa,ne,ki,sil1,ze,sil2,['false alarm'],[1.8866000000239183],[1.8866000000239183],none,none,,,"[""space""]",ta,1,,,,,,,,,,,,,,,3.0,2.0,Castellano,0.0,Catalan ,7.0,Inglés,3.0,5.0,2.0,no,no,no,nada,,,,"En algun momento me ha costado mantener la atención. Al tener la consigna anterior algunas respuestas son debidas a la falta de control inhibitorio. Además, a veces se hacia difícil descifrar bien el sonido, sobre todo el /j/. ",80.0,yes
107,2024-02-19_14h23.37.442,Unsyncopated_study2,s94,28.0,feminino,right,España,Castellano,Master degree,no,no,A,1,conjunction_syn,L1,syncopated,s2,r1,107,Online_conjL1_syn//b.ta.be7.none.none.wav,fa,ne,lu,pu,sil,zu,fo,ki,sil1,cho,sil2,['-'],,,none,none,,,,ta,1,,,,,,,,,,,,,,,3.0,2.0,Castellano,0.0,Catalan ,7.0,Inglés,3.0,5.0,2.0,no,no,no,nada,,,,"En algun momento me ha costado mantener la atención. Al tener la consigna anterior algunas respuestas son debidas a la falta de control inhibitorio. Además, a veces se hacia difícil descifrar bien el sonido, sobre todo el /j/. ",80.0,yes
108,2024-02-19_14h23.37.442,Unsyncopated_study2,s94,28.0,feminino,right,España,Castellano,Master degree,no,no,A,1,conjunction_syn,L1,syncopated,s1,r1,108,Online_conjL1_syn//a.pu.ki8.0.666.wav,pu,ze,ni,ki,sil,ne,ro,ri,sil1,fa,sil2,['catch'],[1.3128000000117481],[1.3128000000117481],0.666,no_beat,0.6468000000117481,0.6468000000117481,"[""space""]",ki,2,,,,,,,,,,,,,,,3.0,2.0,Castellano,0.0,Catalan ,7.0,Inglés,3.0,5.0,2.0,no,no,no,nada,,,,"En algun momento me ha costado mantener la atención. Al tener la consigna anterior algunas respuestas son debidas a la falta de control inhibitorio. Además, a veces se hacia difícil descifrar bien el sonido, sobre todo el /j/. ",80.0,yes
109,2024-02-19_14h23.37.442,Unsyncopated_study2,s94,28.0,feminino,right,España,Castellano,Master degree,no,no,A,1,conjunction_syn,L1,syncopated,s1,r1,109,Online_conjL1_syn//a.pu.ki10.0.666.wav,pu,ro,cho,ki,sil,zu,la,fa,sil1,ne,sil2,['catch'],[1.1611000000239073],[1.1611000000239073],0.666,no_beat,0.4951000000239073,0.4951000000239073,"[""space""]",ki,2,,,,,,,,,,,,,,,3.0,2.0,Castellano,0.0,Catalan ,7.0,Inglés,3.0,5.0,2.0,no,no,no,nada,,,,"En algun momento me ha costado mantener la atención. Al tener la consigna anterior algunas respuestas son debidas a la falta de control inhibitorio. Además, a veces se hacia difícil descifrar bien el sonido, sobre todo el /j/. ",80.0,yes
110,2024-02-19_14h23.37.442,Unsyncopated_study2,s94,28.0,feminino,right,España,Castellano,Master degree,no,no,A,1,conjunction_syn,L1,syncopated,s1,r1,110,Online_conjL1_syn//a.pu.ki11.0.666.wav,pu,fa,ri,ki,sil,lu,cho,zu,sil1,ni,sil2,['miss'],,,0.666,no_beat,,,,ki,2,,,,,,,,,,,,,,,3.0,2.0,Castellano,0.0,Catalan ,7.0,Inglés,3.0,5.0,2.0,no,no,no,nada,,,,"En algun momento me ha costado mantener la atención. Al tener la consigna anterior algunas respuestas son debidas a la falta de control inhibitorio. Además, a veces se hacia difícil descifrar bien el sonido, sobre todo el /j/. ",80.0,yes
111,2024-02-19_14h23.37.442,Unsyncopated_study2,s94,28.0,feminino,right,España,Castellano,Master degree,no,no,A,1,conjunction_syn,L1,syncopated,s2,r2,111,Online_conjL1_syn//a.pu.ki9.none.none.wav,fa,ne,cho,ta,sil,ni,zu,be,sil1,lu,sil2,['-'],,,none,none,,,,ki,2,,,,,,,,,,,,,,,3.0,2.0,Castellano,0.0,Catalan ,7.0,Inglés,3.0,5.0,2.0,no,no,no,nada,,,,"En algun momento me ha costado mantener la atención. Al tener la consigna anterior algunas respuestas son debidas a la falta de control inhibitorio. Además, a veces se hacia difícil descifrar bien el sonido, sobre todo el /j/. ",80.0,yes
112,2024-02-19_14h23.37.442,Unsyncopated_study2,s94,28.0,feminino,right,España,Castellano,Master degree,no,no,A,1,conjunction_syn,L1,syncopated,s1,r2,112,Online_conjL1_syn//c.ro.fo1.none.none.wav,ta,ni,lu,be,sil,zu,ze,fa,sil1,la,sil2,['false alarm'],[0.5791000000240274],[0.5791000000240274],none,none,,,"[""space""]",ro,3,,,,,,,,,,,,,,,3.0,2.0,Castellano,0.0,Catalan ,7.0,Inglés,3.0,5.0,2.0,no,no,no,nada,,,,"En algun momento me ha costado mantener la atención. Al tener la consigna anterior algunas respuestas son debidas a la falta de control inhibitorio. Además, a veces se hacia difícil descifrar bien el sonido, sobre todo el /j/. ",80.0,yes
113,2024-02-19_14h23.37.442,Unsyncopated_study2,s94,28.0,feminino,right,España,Castellano,Master degree,no,no,A,1,conjunction_syn,L1,syncopated,s2,r1,113,Online_conjL1_syn//c.ro.fo3.none.none.wav,lu,ni,ze,pu,sil,ne,ri,ki,sil1,cho,sil2,['-'],,,none,none,,,,ro,3,,,,,,,,,,,,,,,3.0,2.0,Castellano,0.0,Catalan ,7.0,Inglés,3.0,5.0,2.0,no,no,no,nada,,,,"En algun momento me ha costado mantener la atención. Al tener la consigna anterior algunas respuestas son debidas a la falta de control inhibitorio. Además, a veces se hacia difícil descifrar bien el sonido, sobre todo el /j/. ",80.0,yes
114,2024-02-19_14h23.37.442,Unsyncopated_study2,s94,28.0,feminino,right,España,Castellano,Master degree,no,no,A,1,conjunction_syn,L1,syncopated,s2,r1,114,Online_conjL1_syn//c.ro.fo0.444.1110.wav,fa,la,ro,pu,sil,fo,lu,ki,sil1,ze,sil2,['catch'],[1.328199999988101],[1.328199999988101],0.444,no_beat,0.884199999988101,0.884199999988101,"[""space""]",ro,3,,,,,,,,,,,,,,,3.0,2.0,Castellano,0.0,Catalan ,7.0,Inglés,3.0,5.0,2.0,no,no,no,nada,,,,"En algun momento me ha costado mantener la atención. Al tener la consigna anterior algunas respuestas son debidas a la falta de control inhibitorio. Además, a veces se hacia difícil descifrar bien el sonido, sobre todo el /j/. ",80.0,yes
115,2024-02-19_14h23.37.442,Unsyncopated_study2,s94,28.0,feminino,right,España,Castellano,Master degree,no,no,A,1,conjunction_syn,L1,syncopated,s1,r2,115,Online_conjL1_syn//c.ro.fo2.none.none.wav,ta,ze,ni,be,sil,zu,cho,lu,sil1,la,sil2,['-'],,,none,none,,,,ro,3,,,,,,,,,,,,,,,3.0,2.0,Castellano,0.0,Catalan ,7.0,Inglés,3.0,5.0,2.0,no,no,no,nada,,,,"En algun momento me ha costado mantener la atención. Al tener la consigna anterior algunas respuestas son debidas a la falta de control inhibitorio. Además, a veces se hacia difícil descifrar bien el sonido, sobre todo el /j/. ",80.0,yes
116,2024-02-19_14h23.37.442,Unsyncopated_study2,s94,28.0,feminino,right,España,Castellano,Master degree,no,no,A,1,conjunction_syn,L1,syncopated,s2,r1,116,Online_conjL1_syn//a.pu.ki18.666.1554.wav,lu,ni,ri,pu,sil,ro,fo,ki,sil1,cho,sil2,['catch'],[1.9704999999999018],[1.9704999999999018],1.554,no_beat,0.4164999999999017,0.4164999999999017,"[""space""]",ki,2,,,,,,,,,,,,,,,3.0,2.0,Castellano,0.0,Catalan ,7.0,Inglés,3.0,5.0,2.0,no,no,no,nada,,,,"En algun momento me ha costado mantener la atención. Al tener la consigna anterior algunas respuestas son debidas a la falta de control inhibitorio. Además, a veces se hacia difícil descifrar bien el sonido, sobre todo el /j/. ",80.0,yes
117,2024-02-19_14h23.37.442,Unsyncopated_study2,s94,28.0,feminino,right,España,Castellano,Master degree,no,no,A,1,conjunction_syn,L1,syncopated,s1,r2,117,Online_conjL1_syn//a.pu.ki19.none.none.wav,ta,fa,lu,be,sil,ne,fo,ri,sil1,ze,sil2,['-'],,,none,none,,,,ki,2,,,,,,,,,,,,,,,3.0,2.0,Castellano,0.0,Catalan ,7.0,Inglés,3.0,5.0,2.0,no,no,no,nada,,,,"En algun momento me ha costado mantener la atención. Al tener la consigna anterior algunas respuestas son debidas a la falta de control inhibitorio. Además, a veces se hacia difícil descifrar bien el sonido, sobre todo el /j/. ",80.0,yes
118,2024-02-19_14h23.37.442,Unsyncopated_study2,s94,28.0,feminino,right,España,Castellano,Master degree,no,no,A,1,conjunction_syn,L1,syncopated,s2,r2,118,Online_conjL1_syn//a.pu.ki16.none.none.wav,la,ze,fo,ta,sil,zu,lu,be,sil1,ne,sil2,['-'],,,none,none,,,,ki,2,,,,,,,,,,,,,,,3.0,2.0,Castellano,0.0,Catalan ,7.0,Inglés,3.0,5.0,2.0,no,no,no,nada,,,,"En algun momento me ha costado mantener la atención. Al tener la consigna anterior algunas respuestas son debidas a la falta de control inhibitorio. Además, a veces se hacia difícil descifrar bien el sonido, sobre todo el /j/. ",80.0,yes
119,2024-02-19_14h23.37.442,Unsyncopated_study2,s94,28.0,feminino,right,España,Castellano,Master degree,no,no,A,1,conjunction_syn,L1,syncopated,s2,r2,119,Online_conjL1_syn//a.pu.ki17.none.none.wav,lu,fa,zu,ta,sil,la,ze,be,sil1,cho,sil2,['-'],,,none,none,,,,ki,2,,,,,,,,,,,,,,,3.0,2.0,Castellano,0.0,Catalan ,7.0,Inglés,3.0,5.0,2.0,no,no,no,nada,,,,"En algun momento me ha costado mantener la atención. Al tener la consigna anterior algunas respuestas son debidas a la falta de control inhibitorio. Además, a veces se hacia difícil descifrar bien el sonido, sobre todo el /j/. ",80.0,yes
120,2024-02-19_14h23.37.442,Unsyncopated_study2,s94,28.0,feminino,right,España,Castellano,Master degree,no,no,A,1,conjunction_syn,L1,syncopated,s1,r1,120,Online_conjL1_syn//a.pu.ki5.0.666.wav,pu,ne,ro,ki,sil,cho,ri,fa,sil1,lu,sil2,['catch'],[1.10469999998827],[1.10469999998827],0.666,no_beat,0.43869999998827,0.43869999998827,"[""space""]",ki,2,,,,,,,,,,,,,,,3.0,2.0,Castellano,0.0,Catalan ,7.0,Inglés,3.0,5.0,2.0,no,no,no,nada,,,,"En algun momento me ha costado mantener la atención. Al tener la consigna anterior algunas respuestas son debidas a la falta de control inhibitorio. Además, a veces se hacia difícil descifrar bien el sonido, sobre todo el /j/. ",80.0,yes
121,2024-02-19_14h23.37.442,Unsyncopated_study2,s94,28.0,feminino,right,España,Castellano,Master degree,no,no,A,1,conjunction_syn,L1,syncopated,s2,r2,121,Online_conjL1_syn//a.pu.ki6.none.none.wav,ne,ni,la,ta,sil,zu,cho,be,sil1,ze,sil2,['-'],,,none,none,,,,ki,2,,,,,,,,,,,,,,,3.0,2.0,Castellano,0.0,Catalan ,7.0,Inglés,3.0,5.0,2.0,no,no,no,nada,,,,"En algun momento me ha costado mantener la atención. Al tener la consigna anterior algunas respuestas son debidas a la falta de control inhibitorio. Además, a veces se hacia difícil descifrar bien el sonido, sobre todo el /j/. ",80.0,yes
122,2024-02-19_14h23.37.442,Unsyncopated_study2,s94,28.0,feminino,right,España,Castellano,Master degree,no,no,A,1,conjunction_syn,L1,syncopated,s1,r1,122,Online_conjL1_syn//a.pu.ki7.0.666.wav,pu,ri,zu,ki,sil,ne,ze,cho,sil1,la,sil2,['catch'],[0.9755000000000109],[0.9755000000000109],0.666,no_beat,0.3095000000000109,0.3095000000000109,"[""space""]",ki,2,,,,,,,,,,,,,,,3.0,2.0,Castellano,0.0,Catalan ,7.0,Inglés,3.0,5.0,2.0,no,no,no,nada,,,,"En algun momento me ha costado mantener la atención. Al tener la consigna anterior algunas respuestas son debidas a la falta de control inhibitorio. Además, a veces se hacia difícil descifrar bien el sonido, sobre todo el /j/. ",80.0,yes
123,2024-02-19_14h23.37.442,Unsyncopated_study2,s94,28.0,feminino,right,España,Castellano,Master degree,no,no,A,1,conjunction_syn,L1,syncopated,s1,r2,123,Online_conjL1_syn//a.pu.ki4.none.none.wav,ta,ze,ri,be,sil,zu,fo,ne,sil1,lu,sil2,['-'],,,none,none,,,,ki,2,,,,,,,,,,,,,,,3.0,2.0,Castellano,0.0,Catalan ,7.0,Inglés,3.0,5.0,2.0,no,no,no,nada,,,,"En algun momento me ha costado mantener la atención. Al tener la consigna anterior algunas respuestas son debidas a la falta de control inhibitorio. Además, a veces se hacia difícil descifrar bien el sonido, sobre todo el /j/. ",80.0,yes
124,2024-02-19_14h23.37.442,Unsyncopated_study2,s94,28.0,feminino,right,España,Castellano,Master degree,no,no,A,1,conjunction_syn,L1,syncopated,s2,r2,124,Online_conjL1_syn//b.ta.be26.666.1554.wav,cho,lu,la,ta,sil,fo,ro,be,sil1,zu,sil2,['catch'],[1.0253999999761163],[1.0253999999761163],0.666,no_beat,0.3593999999761162,0.3593999999761162,"[""space""]",ta,1,,,,,,,,,,,,,,,3.0,2.0,Castellano,0.0,Catalan ,7.0,Inglés,3.0,5.0,2.0,no,no,no,nada,,,,"En algun momento me ha costado mantener la atención. Al tener la consigna anterior algunas respuestas son debidas a la falta de control inhibitorio. Además, a veces se hacia difícil descifrar bien el sonido, sobre todo el /j/. ",80.0,yes
125,2024-02-19_14h23.37.442,Unsyncopated_study2,s94,28.0,feminino,right,España,Castellano,Master degree,no,no,A,1,conjunction_syn,L1,syncopated,s1,r1,125,Online_conjL1_syn//b.ta.be27.none.none.wav,pu,ze,lu,ki,sil,ro,fo,ni,sil1,ri,sil2,['-'],,,none,none,,,,ta,1,,,,,,,,,,,,,,,3.0,2.0,Castellano,0.0,Catalan ,7.0,Inglés,3.0,5.0,2.0,no,no,no,nada,,,,"En algun momento me ha costado mantener la atención. Al tener la consigna anterior algunas respuestas son debidas a la falta de control inhibitorio. Además, a veces se hacia difícil descifrar bien el sonido, sobre todo el /j/. ",80.0,yes
126,2024-02-19_14h23.37.442,Unsyncopated_study2,s94,28.0,feminino,right,España,Castellano,Master degree,no,no,A,1,conjunction_syn,L1,syncopated,s2,r2,126,Online_conjL1_syn//b.ta.be24.666.1554.wav,fo,ni,ro,ta,sil,ri,cho,be,sil1,ne,sil2,['catch'],[1.5828000000119573],[1.5828000000119573],0.666,no_beat,0.9168000000119572,0.9168000000119572,"[""space""]",ta,1,,,,,,,,,,,,,,,3.0,2.0,Castellano,0.0,Catalan ,7.0,Inglés,3.0,5.0,2.0,no,no,no,nada,,,,"En algun momento me ha costado mantener la atención. Al tener la consigna anterior algunas respuestas son debidas a la falta de control inhibitorio. Además, a veces se hacia difícil descifrar bien el sonido, sobre todo el /j/. ",80.0,yes
127,2024-02-19_14h23.37.442,Unsyncopated_study2,s94,28.0,feminino,right,España,Castellano,Master degree,no,no,A,1,conjunction_syn,L1,syncopated,s1,r2,127,Online_conjL1_syn//b.ta.be25.0.666.wav,ta,ri,ze,be,sil,ni,cho,lu,sil1,ne,sil2,['catch'],[0.6419999999998254],[0.6419999999998254],0.0,beat,0.6419999999998254,0.6419999999998254,"[""space""]",ta,1,,,,,,,,,,,,,,,3.0,2.0,Castellano,0.0,Catalan ,7.0,Inglés,3.0,5.0,2.0,no,no,no,nada,,,,"En algun momento me ha costado mantener la atención. Al tener la consigna anterior algunas respuestas son debidas a la falta de control inhibitorio. Además, a veces se hacia difícil descifrar bien el sonido, sobre todo el /j/. ",80.0,yes
128,2024-02-19_14h23.37.442,Unsyncopated_study2,s94,28.0,feminino,right,España,Castellano,Master degree,no,no,A,2,conjunction_un,L2,unsyncopated,s1,r1,0,Online_conjL2_un//a.go.du18.0.888.wav,go,me,si,sil,du,ñi,ba,sil1,su,to,sil2,['catch'],[1.3777000000477528],[1.3777000000477528],0.888,beat,0.4897000000477528,0.4897000000477528,"[""space""]",du,2,,,,,,,,,,,,,,,3.0,2.0,Castellano,0.0,Catalan ,7.0,Inglés,3.0,5.0,2.0,no,no,no,nada,,,,"En algun momento me ha costado mantener la atención. Al tener la consigna anterior algunas respuestas son debidas a la falta de control inhibitorio. Además, a veces se hacia difícil descifrar bien el sonido, sobre todo el /j/. ",80.0,yes
129,2024-02-19_14h23.37.442,Unsyncopated_study2,s94,28.0,feminino,right,España,Castellano,Master degree,no,no,A,2,conjunction_un,L2,unsyncopated,s1,r2,1,Online_conjL2_un//a.go.du17.none.none.wav,fe,mi,su,sil,ra,me,bi,sil1,te,si,sil2,['-'],,,none,none,,,,du,2,,,,,,,,,,,,,,,3.0,2.0,Castellano,0.0,Catalan ,7.0,Inglés,3.0,5.0,2.0,no,no,no,nada,,,,"En algun momento me ha costado mantener la atención. Al tener la consigna anterior algunas respuestas son debidas a la falta de control inhibitorio. Además, a veces se hacia difícil descifrar bien el sonido, sobre todo el /j/. ",80.0,yes
130,2024-02-19_14h23.37.442,Unsyncopated_study2,s94,28.0,feminino,right,España,Castellano,Master degree,no,no,A,2,conjunction_un,L2,unsyncopated,s1,r1,2,Online_conjL2_un//a.go.du19.0.888.wav,go,ba,si,sil,du,su,mi,sil1,ñi,cha,sil2,['catch'],[1.3622999999522563],[1.3622999999522563],0.888,beat,0.4742999999522562,0.4742999999522562,"[""space""]",du,2,,,,,,,,,,,,,,,3.0,2.0,Castellano,0.0,Catalan ,7.0,Inglés,3.0,5.0,2.0,no,no,no,nada,,,,"En algun momento me ha costado mantener la atención. Al tener la consigna anterior algunas respuestas son debidas a la falta de control inhibitorio. Además, a veces se hacia difícil descifrar bien el sonido, sobre todo el /j/. ",80.0,yes
131,2024-02-19_14h23.37.442,Unsyncopated_study2,s94,28.0,feminino,right,España,Castellano,Master degree,no,no,A,2,conjunction_un,L2,unsyncopated,s2,r1,3,Online_conjL2_un//a.go.du16.888.1776.wav,cha,me,ba,sil,go,to,si,sil1,du,ñi,sil2,['catch'],[2.310900000035872],[2.310900000035872],1.776,beat,0.5349000000358719,0.5349000000358719,"[""space""]",du,2,,,,,,,,,,,,,,,3.0,2.0,Castellano,0.0,Catalan ,7.0,Inglés,3.0,5.0,2.0,no,no,no,nada,,,,"En algun momento me ha costado mantener la atención. Al tener la consigna anterior algunas respuestas son debidas a la falta de control inhibitorio. Además, a veces se hacia difícil descifrar bien el sonido, sobre todo el /j/. ",80.0,yes
132,2024-02-19_14h23.37.442,Unsyncopated_study2,s94,28.0,feminino,right,España,Castellano,Master degree,no,no,A,2,conjunction_un,L2,unsyncopated,s1,r1,4,Online_conjL2_un//c.cha.me12.1332.222.wav,go,me,si,sil,du,ñu,cha,sil1,ñi,bi,sil2,['catch'],[1.7046000000239019],[1.7046000000239019],1.332,no_beat,0.3726000000239018,0.3726000000239018,"[""space""]",cha,3,,,,,,,,,,,,,,,3.0,2.0,Castellano,0.0,Catalan ,7.0,Inglés,3.0,5.0,2.0,no,no,no,nada,,,,"En algun momento me ha costado mantener la atención. Al tener la consigna anterior algunas respuestas son debidas a la falta de control inhibitorio. Además, a veces se hacia difícil descifrar bien el sonido, sobre todo el /j/. ",80.0,yes
133,2024-02-19_14h23.37.442,Unsyncopated_study2,s94,28.0,feminino,right,España,Castellano,Master degree,no,no,A,2,conjunction_un,L2,unsyncopated,s1,r1,5,Online_conjL2_un//c.cha.me13.none.none.wav,go,bi,su,sil,du,si,te,sil1,mi,ñu,sil2,['-'],,,none,none,,,,cha,3,,,,,,,,,,,,,,,3.0,2.0,Castellano,0.0,Catalan ,7.0,Inglés,3.0,5.0,2.0,no,no,no,nada,,,,"En algun momento me ha costado mantener la atención. Al tener la consigna anterior algunas respuestas son debidas a la falta de control inhibitorio. Además, a veces se hacia difícil descifrar bien el sonido, sobre todo el /j/. ",80.0,yes
134,2024-02-19_14h23.37.442,Unsyncopated_study2,s94,28.0,feminino,right,España,Castellano,Master degree,no,no,A,2,conjunction_un,L2,unsyncopated,s1,r2,6,Online_conjL2_un//c.cha.me14.none.none.wav,fe,mi,su,sil,ra,si,ba,sil1,te,ñi,sil2,['-'],,,none,none,,,,cha,3,,,,,,,,,,,,,,,3.0,2.0,Castellano,0.0,Catalan ,7.0,Inglés,3.0,5.0,2.0,no,no,no,nada,,,,"En algun momento me ha costado mantener la atención. Al tener la consigna anterior algunas respuestas son debidas a la falta de control inhibitorio. Además, a veces se hacia difícil descifrar bien el sonido, sobre todo el /j/. ",80.0,yes
135,2024-02-19_14h23.37.442,Unsyncopated_study2,s94,28.0,feminino,right,España,Castellano,Master degree,no,no,A,2,conjunction_un,L2,unsyncopated,s2,r1,7,Online_conjL2_un//c.cha.me15.444.1110.wav,mi,ba,cha,sil,go,me,si,sil1,du,te,sil2,['catch'],[0.9365000000000236],[0.9365000000000236],0.444,no_beat,0.4925000000000236,0.4925000000000236,"[""space""]",cha,3,,,,,,,,,,,,,,,3.0,2.0,Castellano,0.0,Catalan ,7.0,Inglés,3.0,5.0,2.0,no,no,no,nada,,,,"En algun momento me ha costado mantener la atención. Al tener la consigna anterior algunas respuestas son debidas a la falta de control inhibitorio. Además, a veces se hacia difícil descifrar bien el sonido, sobre todo el /j/. ",80.0,yes
136,2024-02-19_14h23.37.442,Unsyncopated_study2,s94,28.0,feminino,right,España,Castellano,Master degree,no,no,A,2,conjunction_un,L2,unsyncopated,s1,r2,8,Online_conjL2_un//a.go.du5.none.none.wav,fe,bi,me,sil,ra,to,si,sil1,ñi,ñu,sil2,['-'],,,none,none,,,,du,2,,,,,,,,,,,,,,,3.0,2.0,Castellano,0.0,Catalan ,7.0,Inglés,3.0,5.0,2.0,no,no,no,nada,,,,"En algun momento me ha costado mantener la atención. Al tener la consigna anterior algunas respuestas son debidas a la falta de control inhibitorio. Además, a veces se hacia difícil descifrar bien el sonido, sobre todo el /j/. ",80.0,yes
137,2024-02-19_14h23.37.442,Unsyncopated_study2,s94,28.0,feminino,right,España,Castellano,Master degree,no,no,A,2,conjunction_un,L2,unsyncopated,s2,r2,9,Online_conjL2_un//a.go.du7.none.none.wav,to,ñi,su,sil,fe,si,ñu,sil1,ra,cha,sil2,['-'],,,none,none,,,,du,2,,,,,,,,,,,,,,,3.0,2.0,Castellano,0.0,Catalan ,7.0,Inglés,3.0,5.0,2.0,no,no,no,nada,,,,"En algun momento me ha costado mantener la atención. Al tener la consigna anterior algunas respuestas son debidas a la falta de control inhibitorio. Además, a veces se hacia difícil descifrar bien el sonido, sobre todo el /j/. ",80.0,yes
138,2024-02-19_14h23.37.442,Unsyncopated_study2,s94,28.0,feminino,right,España,Castellano,Master degree,no,no,A,2,conjunction_un,L2,unsyncopated,s2,r2,10,Online_conjL2_un//a.go.du6.none.none.wav,ñu,ba,bi,sil,fe,me,su,sil1,ra,to,sil2,['-'],,,none,none,,,,du,2,,,,,,,,,,,,,,,3.0,2.0,Castellano,0.0,Catalan ,7.0,Inglés,3.0,5.0,2.0,no,no,no,nada,,,,"En algun momento me ha costado mantener la atención. Al tener la consigna anterior algunas respuestas son debidas a la falta de control inhibitorio. Además, a veces se hacia difícil descifrar bien el sonido, sobre todo el /j/. ",80.0,yes
139,2024-02-19_14h23.37.442,Unsyncopated_study2,s94,28.0,feminino,right,España,Castellano,Master degree,no,no,A,2,conjunction_un,L2,unsyncopated,s2,r2,11,Online_conjL2_un//a.go.du4.none.none.wav,ñi,ba,cha,sil,fe,bi,ñu,sil1,ra,mi,sil2,['false alarm'],[1.8446999999880518],[1.8446999999880518],none,none,,,"[""space""]",du,2,,,,,,,,,,,,,,,3.0,2.0,Castellano,0.0,Catalan ,7.0,Inglés,3.0,5.0,2.0,no,no,no,nada,,,,"En algun momento me ha costado mantener la atención. Al tener la consigna anterior algunas respuestas son debidas a la falta de control inhibitorio. Además, a veces se hacia difícil descifrar bien el sonido, sobre todo el /j/. ",80.0,yes
140,2024-02-19_14h23.37.442,Unsyncopated_study2,s94,28.0,feminino,right,España,Castellano,Master degree,no,no,A,2,conjunction_un,L2,unsyncopated,s2,r2,12,Online_conjL2_un//c.cha.me0.none.none.wav,si,mi,ba,sil,fe,su,te,sil1,ra,ñi,sil2,['false alarm'],[2.3105000000000473],[2.3105000000000473],none,none,,,"[""space""]",cha,3,,,,,,,,,,,,,,,3.0,2.0,Castellano,0.0,Catalan ,7.0,Inglés,3.0,5.0,2.0,no,no,no,nada,,,,"En algun momento me ha costado mantener la atención. Al tener la consigna anterior algunas respuestas son debidas a la falta de control inhibitorio. Además, a veces se hacia difícil descifrar bien el sonido, sobre todo el /j/. ",80.0,yes
