Unnamed: 0,date,expName,participant,age,sex,hand,residence,native_lang,education_level,lang_deficit,aud_deficit,group,block,condition,language,rhythm,rule structure online,rule type online,order_trial_on,trial_online,s1,s2,s3,s4,s5,s6,s7,s8,s9,s10,s11,catch_syll_resp,rts_syll_catch,clean_rts,time_syll,beat_no_beat,catch_rtsTR,catch_rts,syllable_catch.keys,cond_syll,syll_to_catch,test_offline,block_off,condition_off,rhythm_off,rule,rule_str_off,rule_norule,conds_offline,language_off,Partz_no_partm.keys,Partz_no_partm.rt,security_1_7.keys,accuracy,security_1_7.rt,n_lang,n_lang_used,lang_1,age_l1,lang_2,age_l2,lang_3,age_l3,ability_learn_l2,tendence_mix_lan,music_experience,muisc_use,partiture,instr_1,age_M1,preguntas_musica1,BMRQ_answer.response,final comment,BMRQ_Score,bilingual
0,2024-04-15_12h51.36.127,Experiment4_uns,s182,24.0,feminino,right,españa,castellano,Bachelor degree,no,no,A,1,what,L1,unsyncopated,s1,r2,0,Online_whatL1//a.pu.ki22.none.none.wav,ta,ne,cho,sil2,be,ro,lu,sil,fa,fo,sil1,['-'],,,none,none,,,,ki,2,testWhatL1Uns//cat_viol.r1.s2.0.wav,1.0,what,unsyncopated,a,s2,no_rule,cat,L1,z,2.3462,7.0,0.0,1.8296,3.0,2.0,castellano,0.0,catalan,3.0,ingles,5.0,4.0,3.0,no,no,yes,nada,,1. Cuando comparto música con alguien siento una complicidad especial con aquella persona.,1.0,nada ,51.0,yes
1,2024-04-15_12h51.36.127,Experiment4_uns,s182,24.0,feminino,right,españa,castellano,Bachelor degree,no,no,A,1,what,L1,unsyncopated,s1,r1,1,Online_whatL1//a.pu.ki20.0.888.wav,pu,ze,ni,sil,ki,la,ne,sil2,zu,ro,sil1,['catch'],[1.3305999999046207],[1.3305999999046207],0.888,beat,0.4425999999046207,0.4425999999046207,"[""space""]",ki,2,testWhatL1Uns//r2.s1.1.wav,1.0,what,unsyncopated,b,s1,rule,rule,L1,z,1.5191,7.0,1.0,0.7186,3.0,2.0,castellano,0.0,catalan,3.0,ingles,5.0,4.0,3.0,no,no,yes,nada,,2. En mi tiempo libre apenas escucho música.,4.0,nada ,51.0,yes
2,2024-04-15_12h51.36.127,Experiment4_uns,s182,24.0,feminino,right,españa,castellano,Bachelor degree,no,no,A,1,what,L1,unsyncopated,s2,r2,2,Online_whatL1//a.pu.ki21.none.none.wav,ze,fo,ri,sil,ta,lu,cho,sil2,be,la,sil1,['-'],,,none,none,,,,ki,2,testWhatL1Uns//dep_viol.r1.s1.0.wav,1.0,what,unsyncopated,a,s1,no_rule,dep,L1,z,1.1177,7.0,0.0,0.5744,3.0,2.0,castellano,0.0,catalan,3.0,ingles,5.0,4.0,3.0,no,no,yes,nada,,3. Algunas canciones me ponen los pelos de punta,1.0,nada ,51.0,yes
3,2024-04-15_12h51.36.127,Experiment4_uns,s182,24.0,feminino,right,españa,castellano,Bachelor degree,no,no,A,1,what,L1,unsyncopated,s1,r2,3,Online_whatL1//a.pu.ki23.none.none.wav,ta,ne,la,sil2,be,fo,lu,sil,cho,ze,sil1,['-'],,,none,none,,,,ki,2,testWhatL1Uns//cat_viol.r1.s1.0.wav,1.0,what,unsyncopated,a,s1,no_rule,cat,L1,z,2.6426,7.0,0.0,0.4184,3.0,2.0,castellano,0.0,catalan,3.0,ingles,5.0,4.0,3.0,no,no,yes,nada,,4. La música me hace compañía cuando estoy solo,4.0,nada ,51.0,yes
4,2024-04-15_12h51.36.127,Experiment4_uns,s182,24.0,feminino,right,españa,castellano,Bachelor degree,no,no,A,1,what,L1,unsyncopated,s1,r1,4,Online_whatL1//d.ne.ni5.none.none.wav,pu,cho,fo,sil,ki,zu,ro,sil2,fa,la,sil1,['-'],,,none,none,,,,ne,4,testWhatL1Uns//dep_viol.r2.s2.0.wav,1.0,what,unsyncopated,b,s2,no_rule,dep,L1,z,0.9107,4.0,0.0,3.0713,3.0,2.0,castellano,0.0,catalan,3.0,ingles,5.0,4.0,3.0,no,no,yes,nada,,5. No me apetece bailar ni con la música que más me gusta,5.0,nada ,51.0,yes
5,2024-04-15_12h51.36.127,Experiment4_uns,s182,24.0,feminino,right,españa,castellano,Bachelor degree,no,no,A,1,what,L1,unsyncopated,s2,r2,5,Online_whatL1//d.ne.ni7.none.none.wav,ze,lu,fa,sil,ta,cho,ri,sil1,be,ro,sil2,['-'],,,none,none,,,,ne,4,testWhatL1Uns//r1.s2.2.wav,1.0,what,unsyncopated,a,s2,rule,rule,L1,m,1.3222,4.0,0.0,2.9921,3.0,2.0,castellano,0.0,catalan,3.0,ingles,5.0,4.0,3.0,no,no,yes,nada,,6. La música me hace conectar con la gente,3.0,nada ,51.0,yes
6,2024-04-15_12h51.36.127,Experiment4_uns,s182,24.0,feminino,right,españa,castellano,Bachelor degree,no,no,A,1,what,L1,unsyncopated,s2,r2,6,Online_whatL1//d.ne.ni6.none.none.wav,fa,fo,ri,sil,ta,lu,zu,sil1,be,ro,sil2,['-'],,,none,none,,,,ne,4,testWhatL1Uns//r2.s1.0.wav,1.0,what,unsyncopated,b,s1,rule,rule,L1,m,1.6348,3.0,0.0,2.9035,3.0,2.0,castellano,0.0,catalan,3.0,ingles,5.0,4.0,3.0,no,no,yes,nada,,7. Me informo sobre la música que me gusta.,2.0,nada ,51.0,yes
7,2024-04-15_12h51.36.127,Experiment4_uns,s182,24.0,feminino,right,españa,castellano,Bachelor degree,no,no,A,1,what,L1,unsyncopated,s1,r2,7,Online_whatL1//d.ne.ni4.none.none.wav,ta,cho,lu,sil,be,fa,zu,sil1,ro,ze,sil2,['-'],,,none,none,,,,ne,4,testWhatL1Uns//r1.s1.1.wav,1.0,what,unsyncopated,a,s1,rule,rule,L1,m,2.5017,7.0,0.0,3.1829,3.0,2.0,castellano,0.0,catalan,3.0,ingles,5.0,4.0,3.0,no,no,yes,nada,,8.Me emociono escuchando ciertas canciones.,3.0,nada ,51.0,yes
8,2024-04-15_12h51.36.127,Experiment4_uns,s182,24.0,feminino,right,españa,castellano,Bachelor degree,no,no,A,1,what,L1,unsyncopated,s2,r2,8,Online_whatL1//b.ta.be31.1110.1998.wav,fo,ze,ri,sil2,ta,ne,zu,sil,be,lu,sil1,['catch'],[1.517699999809338],[1.517699999809338],1.11,no_beat,0.4076999998093378,0.4076999998093378,"[""space""]",ta,1,testWhatL1Uns//r2.s1.2.wav,1.0,what,unsyncopated,b,s1,rule,rule,L1,m,1.4723,6.0,0.0,0.8707,3.0,2.0,castellano,0.0,catalan,3.0,ingles,5.0,4.0,3.0,no,no,yes,nada,,9.La música me tranquiliza y me relaja.,2.0,nada ,51.0,yes
9,2024-04-15_12h51.36.127,Experiment4_uns,s182,24.0,feminino,right,españa,castellano,Bachelor degree,no,no,A,1,what,L1,unsyncopated,s2,r1,9,Online_whatL1//b.ta.be28.none.none.wav,zu,fo,ni,sil,pu,ri,lu,sil1,ki,ne,sil2,['-'],,,none,none,,,,ta,1,testWhatL1Uns//dep_viol.r2.s1.0.wav,1.0,what,unsyncopated,b,s1,no_rule,dep,L1,z,0.8295,7.0,0.0,0.8088,3.0,2.0,castellano,0.0,catalan,3.0,ingles,5.0,4.0,3.0,no,no,yes,nada,,10.La música me hace bailar,4.0,nada ,51.0,yes
10,2024-04-15_12h51.36.127,Experiment4_uns,s182,24.0,feminino,right,españa,castellano,Bachelor degree,no,no,A,1,what,L1,unsyncopated,s2,r2,10,Online_whatL1//b.ta.be30.1110.1998.wav,ze,lu,fa,sil2,ta,ro,ni,sil,be,la,sil1,['catch'],[1.6684999999999945],[1.6684999999999945],1.11,no_beat,0.5584999999999944,0.5584999999999944,"[""space""]",ta,1,testWhatL1Uns//r1.s1.0.wav,1.0,what,unsyncopated,a,s1,rule,rule,L1,z,0.968,7.0,1.0,0.7193,3.0,2.0,castellano,0.0,catalan,3.0,ingles,5.0,4.0,3.0,no,no,yes,nada,,11.Busco novedades musicales continuamente,3.0,nada ,51.0,yes
11,2024-04-15_12h51.36.127,Experiment4_uns,s182,24.0,feminino,right,españa,castellano,Bachelor degree,no,no,A,1,what,L1,unsyncopated,s2,r1,11,Online_whatL1//b.ta.be29.none.none.wav,fa,ro,ni,sil,pu,ne,ri,sil1,ki,ze,sil2,['-'],,,none,none,,,,ta,1,testWhatL1Uns//time_viol.r2.s1.0.wav,1.0,what,unsyncopated,b,s1,no_rule,time,L1,m,2.9383,3.0,1.0,0.8768,3.0,2.0,castellano,0.0,catalan,3.0,ingles,5.0,4.0,3.0,no,no,yes,nada,,12. Puedo llorar cuando escucho algunas melodías que me gustan mucho.,1.0,nada ,51.0,yes
12,2024-04-15_12h51.36.127,Experiment4_uns,s182,24.0,feminino,right,españa,castellano,Bachelor degree,no,no,A,1,what,L1,unsyncopated,s1,r2,12,Online_whatL1//a.pu.ki26.none.none.wav,ta,zu,lu,sil,be,cho,ri,sil1,la,ze,sil2,['-'],,,none,none,,,,ki,2,testWhatL1Uns//time_viol.r1.s1.0.wav,1.0,what,unsyncopated,a,s1,no_rule,time,L1,m,0.7843,3.0,1.0,1.1971,3.0,2.0,castellano,0.0,catalan,3.0,ingles,5.0,4.0,3.0,no,no,yes,nada,,13. Me gusta cantar o tocar un instrumento con más gente,1.0,nada ,51.0,yes
13,2024-04-15_12h51.36.127,Experiment4_uns,s182,24.0,feminino,right,españa,castellano,Bachelor degree,no,no,A,1,what,L1,unsyncopated,s1,r1,13,Online_whatL1//a.pu.ki27.0.888.wav,pu,ri,fa,sil,ki,la,ne,sil2,ze,cho,sil1,['catch'],[1.3184000000953802],[1.3184000000953802],0.888,beat,0.4304000000953801,0.4304000000953801,"[""space""]",ki,2,testWhatL1Uns//r1.s1.2.wav,1.0,what,unsyncopated,a,s1,rule,rule,L1,m,0.8399,3.0,0.0,1.1843,3.0,2.0,castellano,0.0,catalan,3.0,ingles,5.0,4.0,3.0,no,no,yes,nada,,14. La música me ayuda a desconectar.,3.0,nada ,51.0,yes
14,2024-04-15_12h51.36.127,Experiment4_uns,s182,24.0,feminino,right,españa,castellano,Bachelor degree,no,no,A,1,what,L1,unsyncopated,s2,r1,14,Online_whatL1//a.pu.ki25.888.1998.wav,la,cho,ne,sil,pu,zu,fa,sil2,ki,lu,sil1,['catch'],[2.4900999999047144],[2.4900999999047144],1.998,no_beat,0.4920999999047144,0.4920999999047144,"[""space""]",ki,2,testWhatL1Uns//r2.s2.0.wav,1.0,what,unsyncopated,b,s2,rule,rule,L1,m,1.1801,5.0,0.0,1.4017,3.0,2.0,castellano,0.0,catalan,3.0,ingles,5.0,4.0,3.0,no,no,yes,nada,,15. No puedo evitar tararear las canciones que me gustan cuando las escucho.,4.0,nada ,51.0,yes
15,2024-04-15_12h51.36.127,Experiment4_uns,s182,24.0,feminino,right,españa,castellano,Bachelor degree,no,no,A,1,what,L1,unsyncopated,s1,r1,15,Online_whatL1//a.pu.ki24.0.888.wav,pu,fa,cho,sil,ki,zu,ne,sil2,fo,ni,sil1,['catch'],[1.7035999999045544],[1.7035999999045544],0.888,beat,0.8155999999045543,0.8155999999045543,"[""space""]",ki,2,testWhatL1Uns//r1.s2.0.wav,1.0,what,unsyncopated,a,s2,rule,rule,L1,z,0.9178,5.0,1.0,0.9684,3.0,2.0,castellano,0.0,catalan,3.0,ingles,5.0,4.0,3.0,no,no,yes,nada,,16. En los conciertos me siento en sintonía con los artistas y el público.,3.0,nada ,51.0,yes
16,2024-04-15_12h51.36.127,Experiment4_uns,s182,24.0,feminino,right,españa,castellano,Bachelor degree,no,no,A,1,what,L1,unsyncopated,s1,r1,16,Online_whatL1//b.ta.be10.none.none.wav,pu,fo,fa,sil,ki,zu,cho,sil1,la,ri,sil2,['-'],,,none,none,,,,ta,1,testWhatL1Uns//r2.s2.1.wav,1.0,what,unsyncopated,b,s2,rule,rule,L1,m,3.7957,1.0,0.0,1.1811,3.0,2.0,castellano,0.0,catalan,3.0,ingles,5.0,4.0,3.0,no,no,yes,nada,,17. Me gasto bastante dinero en música y cosas relacionadas con la música.,1.0,nada ,51.0,yes
17,2024-04-15_12h51.36.127,Experiment4_uns,s182,24.0,feminino,right,españa,castellano,Bachelor degree,no,no,A,1,what,L1,unsyncopated,s2,r1,17,Online_whatL1//b.ta.be9.none.none.wav,ze,zu,ni,sil,pu,fa,ne,sil1,ki,fo,sil2,['-'],,,none,none,,,,ta,1,testWhatL1Uns//time_viol.r2.s2.0.wav,1.0,what,unsyncopated,b,s2,no_rule,time,L1,z,1.7516,4.0,0.0,1.6299,3.0,2.0,castellano,0.0,catalan,3.0,ingles,5.0,4.0,3.0,no,no,yes,nada,,18. Siento escalofríos cuando escucho una melodía que me gusta.,1.0,nada ,51.0,yes
18,2024-04-15_12h51.36.127,Experiment4_uns,s182,24.0,feminino,right,españa,castellano,Bachelor degree,no,no,A,1,what,L1,unsyncopated,s1,r2,18,Online_whatL1//b.ta.be8.0.1110.wav,ta,la,zu,sil2,be,fo,ri,sil,ne,ze,sil1,['catch'],[0.5180000000000291],[0.5180000000000291],0.0,beat,0.5180000000000291,0.5180000000000291,"[""space""]",ta,1,testWhatL1Uns//cat_viol.r2.s1.0.wav,1.0,what,unsyncopated,b,s1,no_rule,cat,L1,z,2.052,4.0,0.0,1.0575,3.0,2.0,castellano,0.0,catalan,3.0,ingles,5.0,4.0,3.0,no,no,yes,nada,,19. Con la música me puedo desahogar.,2.0,nada ,51.0,yes
19,2024-04-15_12h51.36.127,Experiment4_uns,s182,24.0,feminino,right,españa,castellano,Bachelor degree,no,no,A,1,what,L1,unsyncopated,s1,r2,19,Online_whatL1//b.ta.be11.0.888.wav,ta,ne,fa,sil,be,ri,fo,sil2,cho,ni,sil1,['catch'],[0.5262000002861669],[0.5262000002861669],0.0,beat,0.5262000002861669,0.5262000002861669,"[""space""]",ta,1,testWhatL1Uns//dep_viol.r1.s2.0.wav,1.0,what,unsyncopated,a,s2,no_rule,dep,L1,m,1.6881,3.0,1.0,0.9018,3.0,2.0,castellano,0.0,catalan,3.0,ingles,5.0,4.0,3.0,no,no,yes,nada,,20. Cuando escucho una melodía que me gusta mucho no puedo evitar mover el cuerpo.,3.0,nada ,51.0,yes
20,2024-04-15_12h51.36.127,Experiment4_uns,s182,24.0,feminino,right,españa,castellano,Bachelor degree,no,no,A,1,what,L1,unsyncopated,s1,r1,20,Online_whatL1//c.ro.fo3.1998.444.wav,pu,lu,fo,sil,ki,cho,fa,sil2,ro,ni,sil1,['catch'],[2.4568000001908104],[2.4568000001908104],1.998,no_beat,0.4588000001908103,0.4588000001908103,"[""space""]",ro,3,testWhatL1Uns//r1.s2.1.wav,1.0,what,unsyncopated,a,s2,rule,rule,L1,m,0.9836,3.0,0.0,0.809,3.0,2.0,castellano,0.0,catalan,3.0,ingles,5.0,4.0,3.0,no,no,yes,nada,,,,nada ,51.0,yes
21,2024-04-15_12h51.36.127,Experiment4_uns,s182,24.0,feminino,right,españa,castellano,Bachelor degree,no,no,A,1,what,L1,unsyncopated,s1,r2,21,Online_whatL1//c.ro.fo2.none.none.wav,ta,fa,ze,sil,be,ri,lu,sil1,ni,la,sil2,['-'],,,none,none,,,,ro,3,testWhatL1Uns//r2.s2.2.wav,1.0,what,unsyncopated,b,s2,rule,rule,L1,z,1.22,7.0,1.0,0.9352,3.0,2.0,castellano,0.0,catalan,3.0,ingles,5.0,4.0,3.0,no,no,yes,nada,,,,nada ,51.0,yes
22,2024-04-15_12h51.36.127,Experiment4_uns,s182,24.0,feminino,right,españa,castellano,Bachelor degree,no,no,A,1,what,L1,unsyncopated,s2,r2,22,Online_whatL1//c.ro.fo1.0.444.wav,ro,zu,fo,sil2,ta,ri,ne,sil,be,fa,sil1,['catch'],[0.5408000001907567],[0.5408000001907567],0.0,beat,0.5408000001907567,0.5408000001907567,"[""space""]",ro,3,testWhatL1Uns//cat_viol.r2.s2.0.wav,1.0,what,unsyncopated,b,s2,no_rule,cat,L1,m,0.5455,7.0,1.0,0.6149,3.0,2.0,castellano,0.0,catalan,3.0,ingles,5.0,4.0,3.0,no,no,yes,nada,,,,nada ,51.0,yes
23,2024-04-15_12h51.36.127,Experiment4_uns,s182,24.0,feminino,right,españa,castellano,Bachelor degree,no,no,A,1,what,L1,unsyncopated,s1,r2,23,Online_whatL1//c.ro.fo0.none.none.wav,ta,lu,ri,sil,be,ze,zu,sil2,ni,la,sil1,['-'],,,none,none,,,,ro,3,testWhatL1Uns//time_viol.r1.s2.0.wav,1.0,what,unsyncopated,a,s2,no_rule,time,L1,m,0.7127,7.0,1.0,1.2437,3.0,2.0,castellano,0.0,catalan,3.0,ingles,5.0,4.0,3.0,no,no,yes,nada,,,,nada ,51.0,yes
24,2024-04-15_12h51.36.127,Experiment4_uns,s182,24.0,feminino,right,españa,castellano,Bachelor degree,no,no,A,1,what,L1,unsyncopated,s2,r1,24,Online_whatL1//c.ro.fo13.1332.444.wav,ni,fa,fo,sil,pu,la,ro,sil1,ki,cho,sil2,['catch'],[1.8712999997138695],[1.8712999997138695],1.332,no_beat,0.5392999997138694,0.5392999997138694,"[""space""]",ro,3,testWhenL2Uns//dep_viol.r1.s2.0.wav,2.0,when,unsyncopated,a,s2,no_rule,dep,L2,z,3.1601,6.0,1.0,1.3515,3.0,2.0,castellano,0.0,catalan,3.0,ingles,5.0,4.0,3.0,no,no,yes,nada,,,,nada ,51.0,yes
25,2024-04-15_12h51.36.127,Experiment4_uns,s182,24.0,feminino,right,españa,castellano,Bachelor degree,no,no,A,1,what,L1,unsyncopated,s1,r2,25,Online_whatL1//c.ro.fo15.none.none.wav,ta,ri,lu,sil,be,ze,zu,sil1,cho,ni,sil2,['-'],,,none,none,,,,ro,3,testWhenL2Uns//dep_viol.r2.s2.0.wav,2.0,when,unsyncopated,b,s2,no_rule,dep,L2,z,1.65,7.0,1.0,0.4008,3.0,2.0,castellano,0.0,catalan,3.0,ingles,5.0,4.0,3.0,no,no,yes,nada,,,,nada ,51.0,yes
26,2024-04-15_12h51.36.127,Experiment4_uns,s182,24.0,feminino,right,españa,castellano,Bachelor degree,no,no,A,1,what,L1,unsyncopated,s2,r2,26,Online_whatL1//c.ro.fo12.1332.222.wav,ri,fo,zu,sil,ta,fa,ro,sil2,be,ni,sil1,['catch'],[1.8107000002860332],[1.8107000002860332],1.332,no_beat,0.4787000002860331,0.4787000002860331,"[""space""]",ro,3,testWhenL2Uns//r2.s1.2.wav,2.0,when,unsyncopated,b,s1,rule,rule,L2,m,0.7003,7.0,0.0,0.9879,3.0,2.0,castellano,0.0,catalan,3.0,ingles,5.0,4.0,3.0,no,no,yes,nada,,,,nada ,51.0,yes
27,2024-04-15_12h51.36.127,Experiment4_uns,s182,24.0,feminino,right,españa,castellano,Bachelor degree,no,no,A,1,what,L1,unsyncopated,s1,r2,27,Online_whatL1//c.ro.fo14.1332.222.wav,ta,fo,cho,sil,be,fa,ro,sil1,lu,ni,sil2,['catch'],[1.9029999999999063],[1.9029999999999063],1.332,no_beat,0.5709999999999062,0.5709999999999062,"[""space""]",ro,3,testWhenL2Uns//r1.s1.1.wav,2.0,when,unsyncopated,a,s1,rule,rule,L2,z,0.4159,7.0,1.0,0.433,3.0,2.0,castellano,0.0,catalan,3.0,ingles,5.0,4.0,3.0,no,no,yes,nada,,,,nada ,51.0,yes
28,2024-04-15_12h51.36.127,Experiment4_uns,s182,24.0,feminino,right,españa,castellano,Bachelor degree,no,no,A,1,what,L1,unsyncopated,s1,r1,28,Online_whatL1//c.ro.fo11.none.none.wav,pu,la,fa,sil2,ki,ri,zu,sil,ni,ne,sil1,['-'],,,none,none,,,,ro,3,testWhenL2Uns//cat_viol.r1.s2.0.wav,2.0,when,unsyncopated,a,s2,no_rule,cat,L2,m,0.7174,7.0,0.0,0.4341,3.0,2.0,castellano,0.0,catalan,3.0,ingles,5.0,4.0,3.0,no,no,yes,nada,,,,nada ,51.0,yes
29,2024-04-15_12h51.36.127,Experiment4_uns,s182,24.0,feminino,right,españa,castellano,Bachelor degree,no,no,A,1,what,L1,unsyncopated,s1,r2,29,Online_whatL1//c.ro.fo8.222.444.wav,ta,ro,fo,sil,be,ri,fa,sil2,cho,lu,sil1,['catch'],[0.788800000190804],[0.788800000190804],0.222,no_beat,0.566800000190804,0.566800000190804,"[""space""]",ro,3,testWhenL2Uns//time_viol.r2.s2.0.wav,2.0,when,unsyncopated,b,s2,no_rule,time,L2,z,0.2588,7.0,1.0,0.3584,3.0,2.0,castellano,0.0,catalan,3.0,ingles,5.0,4.0,3.0,no,no,yes,nada,,,,nada ,51.0,yes
30,2024-04-15_12h51.36.127,Experiment4_uns,s182,24.0,feminino,right,españa,castellano,Bachelor degree,no,no,A,1,what,L1,unsyncopated,s2,r2,30,Online_whatL1//c.ro.fo9.0.1110.wav,ro,lu,zu,sil,ta,fo,cho,sil2,be,ze,sil1,['catch'],[0.5954000000953101],[0.5954000000953101],0.0,beat,0.5954000000953101,0.5954000000953101,"[""space""]",ro,3,testWhenL2Uns//r1.s2.2.wav,2.0,when,unsyncopated,a,s2,rule,rule,L2,z,0.9507,5.0,1.0,0.9221,3.0,2.0,castellano,0.0,catalan,3.0,ingles,5.0,4.0,3.0,no,no,yes,nada,,,,nada ,51.0,yes
31,2024-04-15_12h51.36.127,Experiment4_uns,s182,24.0,feminino,right,españa,castellano,Bachelor degree,no,no,A,1,what,L1,unsyncopated,s1,r1,31,Online_whatL1//c.ro.fo10.1332.444.wav,pu,fa,fo,sil,ki,ne,ro,sil1,ni,cho,sil2,['catch'],[1.8725000000000591],[1.8725000000000591],1.332,no_beat,0.540500000000059,0.540500000000059,"[""space""]",ro,3,testWhenL2Uns//r2.s2.0.wav,2.0,when,unsyncopated,b,s2,rule,rule,L2,m,0.3915,4.0,0.0,0.5827,3.0,2.0,castellano,0.0,catalan,3.0,ingles,5.0,4.0,3.0,no,no,yes,nada,,,,nada ,51.0,yes
32,2024-04-15_12h51.36.127,Experiment4_uns,s182,24.0,feminino,right,españa,castellano,Bachelor degree,no,no,A,1,what,L1,unsyncopated,s2,r2,32,Online_whatL1//b.ta.be4.888.1998.wav,zu,ne,fa,sil,ta,lu,ni,sil2,be,ri,sil1,['catch'],[1.469000000000051],[1.469000000000051],0.888,beat,0.5810000000000509,0.5810000000000509,"[""space""]",ta,1,testWhenL2Uns//time_viol.r2.s1.0.wav,2.0,when,unsyncopated,b,s1,no_rule,time,L2,z,1.0661,5.0,1.0,0.3362,3.0,2.0,castellano,0.0,catalan,3.0,ingles,5.0,4.0,3.0,no,no,yes,nada,,,,nada ,51.0,yes
33,2024-04-15_12h51.36.127,Experiment4_uns,s182,24.0,feminino,right,españa,castellano,Bachelor degree,no,no,A,1,what,L1,unsyncopated,s2,r1,33,Online_whatL1//b.ta.be5.none.none.wav,ni,fa,ro,sil2,pu,ze,la,sil,ki,ne,sil1,['-'],,,none,none,,,,ta,1,testWhenL2Uns//time_viol.r1.s2.0.wav,2.0,when,unsyncopated,a,s2,no_rule,time,L2,m,0.4671,5.0,0.0,0.4304,3.0,2.0,castellano,0.0,catalan,3.0,ingles,5.0,4.0,3.0,no,no,yes,nada,,,,nada ,51.0,yes
34,2024-04-15_12h51.36.127,Experiment4_uns,s182,24.0,feminino,right,españa,castellano,Bachelor degree,no,no,A,1,what,L1,unsyncopated,s1,r1,34,Online_whatL1//b.ta.be7.none.none.wav,pu,ro,fa,sil,ki,fo,ni,sil2,la,ze,sil1,['-'],,,none,none,,,,ta,1,testWhenL2Uns//r1.s1.2.wav,2.0,when,unsyncopated,a,s1,rule,rule,L2,m,0.2626,7.0,0.0,0.3664,3.0,2.0,castellano,0.0,catalan,3.0,ingles,5.0,4.0,3.0,no,no,yes,nada,,,,nada ,51.0,yes
35,2024-04-15_12h51.36.127,Experiment4_uns,s182,24.0,feminino,right,españa,castellano,Bachelor degree,no,no,A,1,what,L1,unsyncopated,s2,r1,35,Online_whatL1//b.ta.be6.none.none.wav,cho,fa,fo,sil,pu,ne,ri,sil2,ki,ni,sil1,['-'],,,none,none,,,,ta,1,testWhenL2Uns//r1.s2.0.wav,2.0,when,unsyncopated,a,s2,rule,rule,L2,m,1.5053,7.0,0.0,1.3349,3.0,2.0,castellano,0.0,catalan,3.0,ingles,5.0,4.0,3.0,no,no,yes,nada,,,,nada ,51.0,yes
36,2024-04-15_12h51.36.127,Experiment4_uns,s182,24.0,feminino,right,españa,castellano,Bachelor degree,no,no,A,1,what,L1,unsyncopated,s2,r2,36,Online_whatL1//a.pu.ki5.none.none.wav,cho,ri,ne,sil2,ta,ro,ni,sil,be,lu,sil1,['-'],,,none,none,,,,ki,2,testWhenL2Uns//r2.s2.2.wav,2.0,when,unsyncopated,b,s2,rule,rule,L2,z,0.0715,7.0,1.0,0.5886,3.0,2.0,castellano,0.0,catalan,3.0,ingles,5.0,4.0,3.0,no,no,yes,nada,,,,nada ,51.0,yes
37,2024-04-15_12h51.36.127,Experiment4_uns,s182,24.0,feminino,right,españa,castellano,Bachelor degree,no,no,A,1,what,L1,unsyncopated,s2,r1,37,Online_whatL1//a.pu.ki6.888.1776.wav,fa,lu,ro,sil,pu,ni,ze,sil1,ki,ri,sil2,['catch'],[2.222199999809277],[2.222199999809277],1.776,beat,0.4461999998092769,0.4461999998092769,"[""space""]",ki,2,testWhenL2Uns//r2.s1.1.wav,2.0,when,unsyncopated,b,s1,rule,rule,L2,z,0.5173,5.0,1.0,0.9721,3.0,2.0,castellano,0.0,catalan,3.0,ingles,5.0,4.0,3.0,no,no,yes,nada,,,,nada ,51.0,yes
38,2024-04-15_12h51.36.127,Experiment4_uns,s182,24.0,feminino,right,españa,castellano,Bachelor degree,no,no,A,1,what,L1,unsyncopated,s2,r2,38,Online_whatL1//a.pu.ki7.none.none.wav,zu,ne,ri,sil,ta,ro,ze,sil1,be,fo,sil2,['-'],,,none,none,,,,ki,2,testWhenL2Uns//r2.s1.0.wav,2.0,when,unsyncopated,b,s1,rule,rule,L2,m,0.5289,3.0,0.0,0.8586,3.0,2.0,castellano,0.0,catalan,3.0,ingles,5.0,4.0,3.0,no,no,yes,nada,,,,nada ,51.0,yes
39,2024-04-15_12h51.36.127,Experiment4_uns,s182,24.0,feminino,right,españa,castellano,Bachelor degree,no,no,A,1,what,L1,unsyncopated,s2,r1,39,Online_whatL1//a.pu.ki4.888.1776.wav,cho,zu,fa,sil,pu,lu,fo,sil1,ki,ze,sil2,['catch'],[2.364899999618501],[2.364899999618501],1.776,beat,0.5888999996185011,0.5888999996185011,"[""space""]",ki,2,testWhenL2Uns//dep_viol.r1.s1.0.wav,2.0,when,unsyncopated,a,s1,no_rule,dep,L2,m,0.3008,5.0,0.0,0.8429,3.0,2.0,castellano,0.0,catalan,3.0,ingles,5.0,4.0,3.0,no,no,yes,nada,,,,nada ,51.0,yes
40,2024-04-15_12h51.36.127,Experiment4_uns,s182,24.0,feminino,right,españa,castellano,Bachelor degree,no,no,A,1,what,L1,unsyncopated,s1,r1,40,Online_whatL1//a.pu.ki0.0.888.wav,pu,la,ne,sil,ki,lu,fa,sil1,ni,fo,sil2,['catch'],[1.7578000001907412],[1.7578000001907412],0.888,beat,0.8698000001907412,0.8698000001907412,"[""space""]",ki,2,testWhenL2Uns//r1.s2.1.wav,2.0,when,unsyncopated,a,s2,rule,rule,L2,m,2.1266,2.0,0.0,0.3553,3.0,2.0,castellano,0.0,catalan,3.0,ingles,5.0,4.0,3.0,no,no,yes,nada,,,,nada ,51.0,yes
41,2024-04-15_12h51.36.127,Experiment4_uns,s182,24.0,feminino,right,españa,castellano,Bachelor degree,no,no,A,1,what,L1,unsyncopated,s1,r2,41,Online_whatL1//a.pu.ki2.none.none.wav,ta,zu,lu,sil2,be,ni,ze,sil,ne,fa,sil1,['-'],,,none,none,,,,ki,2,testWhenL2Uns//r1.s1.0.wav,2.0,when,unsyncopated,a,s1,rule,rule,L2,m,0.6334,6.0,0.0,0.6756,3.0,2.0,castellano,0.0,catalan,3.0,ingles,5.0,4.0,3.0,no,no,yes,nada,,,,nada ,51.0,yes
42,2024-04-15_12h51.36.127,Experiment4_uns,s182,24.0,feminino,right,españa,castellano,Bachelor degree,no,no,A,1,what,L1,unsyncopated,s1,r1,42,Online_whatL1//a.pu.ki1.0.888.wav,pu,ni,ne,sil,ki,ri,la,sil2,ro,cho,sil1,['catch'],[1.3367000002861005],[1.3367000002861005],0.888,beat,0.4487000002861004,0.4487000002861004,"[""space""]",ki,2,testWhenL2Uns//dep_viol.r2.s1.0.wav,2.0,when,unsyncopated,b,s1,no_rule,dep,L2,m,0.5446,4.0,0.0,0.9511,3.0,2.0,castellano,0.0,catalan,3.0,ingles,5.0,4.0,3.0,no,no,yes,nada,,,,nada ,51.0,yes
43,2024-04-15_12h51.36.127,Experiment4_uns,s182,24.0,feminino,right,españa,castellano,Bachelor degree,no,no,A,1,what,L1,unsyncopated,s1,r2,43,Online_whatL1//a.pu.ki3.none.none.wav,ta,la,ne,sil,be,cho,ni,sil2,fo,ri,sil1,['-'],,,none,none,,,,ki,2,testWhenL2Uns//cat_viol.r2.s2.0.wav,2.0,when,unsyncopated,b,s2,no_rule,cat,L2,z,0.3909,4.0,1.0,0.9918,3.0,2.0,castellano,0.0,catalan,3.0,ingles,5.0,4.0,3.0,no,no,yes,nada,,,,nada ,51.0,yes
44,2024-04-15_12h51.36.127,Experiment4_uns,s182,24.0,feminino,right,españa,castellano,Bachelor degree,no,no,A,1,what,L1,unsyncopated,s1,r1,44,Online_whatL1//d.ne.ni12.1554.222.wav,pu,ni,fa,sil2,ki,lu,ne,sil,cho,ro,sil1,['catch'],[2.503699999809328],[2.503699999809328],1.554,no_beat,0.9496999998093278,0.9496999998093278,"[""space""]",ne,4,testWhenL2Uns//cat_viol.r2.s1.0.wav,2.0,when,unsyncopated,b,s1,no_rule,cat,L2,z,0.5521,3.0,1.0,0.5557,3.0,2.0,castellano,0.0,catalan,3.0,ingles,5.0,4.0,3.0,no,no,yes,nada,,,,nada ,51.0,yes
45,2024-04-15_12h51.36.127,Experiment4_uns,s182,24.0,feminino,right,españa,castellano,Bachelor degree,no,no,A,1,what,L1,unsyncopated,s2,r2,45,Online_whatL1//d.ne.ni14.1332.0.wav,ni,cho,fo,sil,ta,zu,ne,sil2,be,lu,sil1,['catch'],[2.1364999999999554],[2.1364999999999554],1.332,no_beat,0.8044999999999554,0.8044999999999554,"[""space""]",ne,4,testWhenL2Uns//r2.s2.1.wav,2.0,when,unsyncopated,b,s2,rule,rule,L2,z,3.7335,2.0,1.0,0.5731,3.0,2.0,castellano,0.0,catalan,3.0,ingles,5.0,4.0,3.0,no,no,yes,nada,,,,nada ,51.0,yes
46,2024-04-15_12h51.36.127,Experiment4_uns,s182,24.0,feminino,right,españa,castellano,Bachelor degree,no,no,A,1,what,L1,unsyncopated,s2,r2,46,Online_whatL1//d.ne.ni15.222.1110.wav,la,ne,ro,sil,ta,ni,cho,sil1,be,zu,sil2,['miss'],,,0.222,no_beat,,,,ne,4,testWhenL2Uns//cat_viol.r1.s1.0.wav,2.0,when,unsyncopated,a,s1,no_rule,cat,L2,m,0.6256,3.0,0.0,0.9551,3.0,2.0,castellano,0.0,catalan,3.0,ingles,5.0,4.0,3.0,no,no,yes,nada,,,,nada ,51.0,yes
47,2024-04-15_12h51.36.127,Experiment4_uns,s182,24.0,feminino,right,españa,castellano,Bachelor degree,no,no,A,1,what,L1,unsyncopated,s1,r2,47,Online_whatL1//d.ne.ni13.1998.222.wav,ta,ni,fa,sil2,be,ro,ze,sil,ne,fo,sil1,['catch'],[2.593699999809246],[2.593699999809246],1.998,no_beat,0.595699999809246,0.595699999809246,"[""space""]",ne,4,testWhenL2Uns//time_viol.r1.s1.0.wav,2.0,when,unsyncopated,a,s1,no_rule,time,L2,m,0.8174,4.0,0.0,0.6184,3.0,2.0,castellano,0.0,catalan,3.0,ingles,5.0,4.0,3.0,no,no,yes,nada,,,,nada ,51.0,yes
48,2024-04-15_12h51.36.127,Experiment4_uns,s182,24.0,feminino,right,españa,castellano,Bachelor degree,no,no,A,1,what,L1,unsyncopated,s2,r2,48,Online_whatL1//b.ta.be13.888.1998.wav,cho,fa,ro,sil,ta,lu,zu,sil2,be,fo,sil1,['catch'],[1.5869000000952838],[1.5869000000952838],0.888,beat,0.6989000000952837,0.6989000000952837,"[""space""]",ta,1,testConjL4Uns//r2.s2.0.wav,3.0,conjunction_un,unsyncopated,b,s2,rule,rule,L4,z,0.9561,7.0,1.0,1.1207,3.0,2.0,castellano,0.0,catalan,3.0,ingles,5.0,4.0,3.0,no,no,yes,nada,,,,nada ,51.0,yes
49,2024-04-15_12h51.36.127,Experiment4_uns,s182,24.0,feminino,right,españa,castellano,Bachelor degree,no,no,A,1,what,L1,unsyncopated,s2,r1,49,Online_whatL1//b.ta.be14.none.none.wav,cho,zu,fo,sil2,pu,ne,ri,sil,ki,ni,sil1,['-'],,,none,none,,,,ta,1,testConjL4Uns//cat_viol.r2.s1.0.wav,3.0,conjunction_un,unsyncopated,b,s1,no_rule,cat,L4,z,0.4925,6.0,0.0,0.5995,3.0,2.0,castellano,0.0,catalan,3.0,ingles,5.0,4.0,3.0,no,no,yes,nada,,,,nada ,51.0,yes
50,2024-04-15_12h51.36.127,Experiment4_uns,s182,24.0,feminino,right,españa,castellano,Bachelor degree,no,no,A,1,what,L1,unsyncopated,s1,r1,50,Online_whatL1//b.ta.be15.none.none.wav,pu,ne,lu,sil2,ki,fo,la,sil,fa,ze,sil1,['-'],,,none,none,,,,ta,1,testConjL4Uns//time_viol.r2.s1.0.wav,3.0,conjunction_un,unsyncopated,b,s1,no_rule,time,L4,m,0.4716,6.0,1.0,0.8335,3.0,2.0,castellano,0.0,catalan,3.0,ingles,5.0,4.0,3.0,no,no,yes,nada,,,,nada ,51.0,yes
51,2024-04-15_12h51.36.127,Experiment4_uns,s182,24.0,feminino,right,españa,castellano,Bachelor degree,no,no,A,1,what,L1,unsyncopated,s1,r2,51,Online_whatL1//b.ta.be12.0.888.wav,ta,fo,lu,sil,be,zu,fa,sil2,cho,ne,sil1,['catch'],[0.6058000001906976],[0.6058000001906976],0.0,beat,0.6058000001906976,0.6058000001906976,"[""space""]",ta,1,testConjL4Uns//r2.s1.2.wav,3.0,conjunction_un,unsyncopated,b,s1,rule,rule,L4,m,0.9583,4.0,0.0,0.4404,3.0,2.0,castellano,0.0,catalan,3.0,ingles,5.0,4.0,3.0,no,no,yes,nada,,,,nada ,51.0,yes
52,2024-04-15_12h51.36.127,Experiment4_uns,s182,24.0,feminino,right,españa,castellano,Bachelor degree,no,no,A,1,what,L1,unsyncopated,s2,r1,52,Online_whatL1//c.ro.fo21.none.none.wav,ze,cho,ne,sil2,pu,ri,zu,sil,ki,fa,sil1,['-'],,,none,none,,,,ro,3,testConjL4Uns//dep_viol.r2.s2.0.wav,3.0,conjunction_un,unsyncopated,b,s2,no_rule,dep,L4,z,0.9216,4.0,0.0,0.6224,3.0,2.0,castellano,0.0,catalan,3.0,ingles,5.0,4.0,3.0,no,no,yes,nada,,,,nada ,51.0,yes
53,2024-04-15_12h51.36.127,Experiment4_uns,s182,24.0,feminino,right,españa,castellano,Bachelor degree,no,no,A,1,what,L1,unsyncopated,s2,r2,53,Online_whatL1//c.ro.fo23.none.none.wav,ne,ni,zu,sil,ta,lu,la,sil1,be,ri,sil2,['-'],,,none,none,,,,ro,3,testConjL4Uns//cat_viol.r2.s2.0.wav,3.0,conjunction_un,unsyncopated,b,s2,no_rule,cat,L4,z,0.3279,6.0,0.0,0.5833,3.0,2.0,castellano,0.0,catalan,3.0,ingles,5.0,4.0,3.0,no,no,yes,nada,,,,nada ,51.0,yes
54,2024-04-15_12h51.36.127,Experiment4_uns,s182,24.0,feminino,right,españa,castellano,Bachelor degree,no,no,A,1,what,L1,unsyncopated,s1,r1,54,Online_whatL1//c.ro.fo20.222.1332.wav,pu,ro,la,sil,ki,fa,fo,sil2,ni,ne,sil1,['catch'],[0.9370000000000118],[0.9370000000000118],0.222,no_beat,0.7150000000000118,0.7150000000000118,"[""space""]",ro,3,testConjL4Uns//dep_viol.r1.s2.0.wav,3.0,conjunction_un,unsyncopated,a,s2,no_rule,dep,L4,m,0.4753,5.0,1.0,0.9047,3.0,2.0,castellano,0.0,catalan,3.0,ingles,5.0,4.0,3.0,no,no,yes,nada,,,,nada ,51.0,yes
55,2024-04-15_12h51.36.127,Experiment4_uns,s182,24.0,feminino,right,españa,castellano,Bachelor degree,no,no,A,1,what,L1,unsyncopated,s2,r2,55,Online_whatL1//c.ro.fo22.0.1110.wav,ro,ne,zu,sil,ta,fo,cho,sil1,be,la,sil2,['catch'],[0.7408999996184775],[0.7408999996184775],0.0,beat,0.7408999996184775,0.7408999996184775,"[""space""]",ro,3,testConjL4Uns//r1.s1.0.wav,3.0,conjunction_un,unsyncopated,a,s1,rule,rule,L4,z,1.3514,4.0,1.0,0.7016,3.0,2.0,castellano,0.0,catalan,3.0,ingles,5.0,4.0,3.0,no,no,yes,nada,,,,nada ,51.0,yes
56,2024-04-15_12h51.36.127,Experiment4_uns,s182,24.0,feminino,right,españa,castellano,Bachelor degree,no,no,A,1,what,L1,unsyncopated,s2,r1,56,Online_whatL1//a.pu.ki28.888.1776.wav,fo,ro,fa,sil,pu,ze,zu,sil1,ki,ni,sil2,['catch'],[2.2477000002861587],[2.2477000002861587],1.776,beat,0.4717000002861586,0.4717000002861586,"[""space""]",ki,2,testConjL4Uns//r2.s1.0.wav,3.0,conjunction_un,unsyncopated,b,s1,rule,rule,L4,m,0.5669,3.0,0.0,0.3597,3.0,2.0,castellano,0.0,catalan,3.0,ingles,5.0,4.0,3.0,no,no,yes,nada,,,,nada ,51.0,yes
57,2024-04-15_12h51.36.127,Experiment4_uns,s182,24.0,feminino,right,españa,castellano,Bachelor degree,no,no,A,1,what,L1,unsyncopated,s2,r2,57,Online_whatL1//a.pu.ki29.none.none.wav,zu,lu,ne,sil,ta,ze,ni,sil1,be,ro,sil2,['-'],,,none,none,,,,ki,2,testConjL4Uns//time_viol.r2.s2.0.wav,3.0,conjunction_un,unsyncopated,b,s2,no_rule,time,L4,m,0.7337,5.0,1.0,0.8106,3.0,2.0,castellano,0.0,catalan,3.0,ingles,5.0,4.0,3.0,no,no,yes,nada,,,,nada ,51.0,yes
58,2024-04-15_12h51.36.127,Experiment4_uns,s182,24.0,feminino,right,españa,castellano,Bachelor degree,no,no,A,1,what,L1,unsyncopated,s1,r2,58,Online_whatL1//a.pu.ki30.none.none.wav,ta,zu,cho,sil,be,ri,ni,sil2,ne,la,sil1,['-'],,,none,none,,,,ki,2,testConjL4Uns//r1.s2.2.wav,3.0,conjunction_un,unsyncopated,a,s2,rule,rule,L4,m,0.1092,6.0,0.0,0.9034,3.0,2.0,castellano,0.0,catalan,3.0,ingles,5.0,4.0,3.0,no,no,yes,nada,,,,nada ,51.0,yes
59,2024-04-15_12h51.36.127,Experiment4_uns,s182,24.0,feminino,right,españa,castellano,Bachelor degree,no,no,A,1,what,L1,unsyncopated,s1,r1,59,Online_whatL1//a.pu.ki31.0.888.wav,pu,la,lu,sil,ki,ro,zu,sil2,ne,cho,sil1,['catch'],[1.3773000001907576],[1.3773000001907576],0.888,beat,0.4893000001907576,0.4893000001907576,"[""space""]",ki,2,testConjL4Uns//r2.s1.1.wav,3.0,conjunction_un,unsyncopated,b,s1,rule,rule,L4,z,0.7707,3.0,1.0,0.3593,3.0,2.0,castellano,0.0,catalan,3.0,ingles,5.0,4.0,3.0,no,no,yes,nada,,,,nada ,51.0,yes
60,2024-04-15_12h51.36.127,Experiment4_uns,s182,24.0,feminino,right,españa,castellano,Bachelor degree,no,no,A,1,what,L1,unsyncopated,s1,r2,60,Online_whatL1//d.ne.ni29.none.none.wav,ta,la,zu,sil2,be,fo,ri,sil,fa,ro,sil1,['-'],,,none,none,,,,ne,4,testConjL4Uns//time_viol.r1.s1.0.wav,3.0,conjunction_un,unsyncopated,a,s1,no_rule,time,L4,z,2.5356,2.0,0.0,0.3789,3.0,2.0,castellano,0.0,catalan,3.0,ingles,5.0,4.0,3.0,no,no,yes,nada,,,,nada ,51.0,yes
61,2024-04-15_12h51.36.127,Experiment4_uns,s182,24.0,feminino,right,españa,castellano,Bachelor degree,no,no,A,1,what,L1,unsyncopated,s1,r2,61,Online_whatL1//d.ne.ni30.444.1332.wav,ta,lu,ne,sil,be,fo,ni,sil2,ro,cho,sil1,['catch'],[1.023699999809196],[1.023699999809196],0.444,no_beat,0.5796999998091961,0.5796999998091961,"[""space""]",ne,4,testConjL4Uns//r1.s2.1.wav,3.0,conjunction_un,unsyncopated,a,s2,rule,rule,L4,z,1.1177,4.0,1.0,0.8013,3.0,2.0,castellano,0.0,catalan,3.0,ingles,5.0,4.0,3.0,no,no,yes,nada,,,,nada ,51.0,yes
62,2024-04-15_12h51.36.127,Experiment4_uns,s182,24.0,feminino,right,españa,castellano,Bachelor degree,no,no,A,1,what,L1,unsyncopated,s1,r1,62,Online_whatL1//d.ne.ni31.1998.1332.wav,pu,la,cho,sil2,ki,ni,lu,sil,ne,fa,sil1,['catch'],[2.6465999999046517],[2.6465999999046517],1.998,no_beat,0.6485999999046517,0.6485999999046517,"[""space""]",ne,4,testConjL4Uns//cat_viol.r1.s2.0.wav,3.0,conjunction_un,unsyncopated,a,s2,no_rule,cat,L4,m,0.5342,1.0,1.0,0.3013,3.0,2.0,castellano,0.0,catalan,3.0,ingles,5.0,4.0,3.0,no,no,yes,nada,,,,nada ,51.0,yes
63,2024-04-15_12h51.36.127,Experiment4_uns,s182,24.0,feminino,right,españa,castellano,Bachelor degree,no,no,A,1,what,L1,unsyncopated,s1,r1,63,Online_whatL1//d.ne.ni28.1332.222.wav,pu,ni,lu,sil2,ki,ne,cho,sil,fo,zu,sil1,['catch'],[2.1644999999999754],[2.1644999999999754],1.332,no_beat,0.8324999999999754,0.8324999999999754,"[""space""]",ne,4,testConjL4Uns//cat_viol.r1.s1.0.wav,3.0,conjunction_un,unsyncopated,a,s1,no_rule,cat,L4,z,0.4291,4.0,0.0,0.4469,3.0,2.0,castellano,0.0,catalan,3.0,ingles,5.0,4.0,3.0,no,no,yes,nada,,,,nada ,51.0,yes
64,2024-04-15_12h51.36.127,Experiment4_uns,s182,24.0,feminino,right,españa,castellano,Bachelor degree,no,no,A,1,what,L1,unsyncopated,s2,r1,64,Online_whatL1//d.ne.ni0.0.1332.wav,ne,zu,fo,sil2,pu,ni,cho,sil,ki,ro,sil1,['catch'],[0.9986999998093324],[0.9986999998093324],0.0,beat,0.9986999998093324,0.9986999998093324,"[""space""]",ne,4,testConjL4Uns//time_viol.r1.s2.0.wav,3.0,conjunction_un,unsyncopated,a,s2,no_rule,time,L4,m,0.4672,5.0,1.0,0.7507,3.0,2.0,castellano,0.0,catalan,3.0,ingles,5.0,4.0,3.0,no,no,yes,nada,,,,nada ,51.0,yes
65,2024-04-15_12h51.36.127,Experiment4_uns,s182,24.0,feminino,right,españa,castellano,Bachelor degree,no,no,A,1,what,L1,unsyncopated,s2,r1,65,Online_whatL1//d.ne.ni1.none.none.wav,ze,lu,zu,sil,pu,fa,ri,sil2,ki,la,sil1,['-'],,,none,none,,,,ne,4,testConjL4Uns//r1.s1.2.wav,3.0,conjunction_un,unsyncopated,a,s1,rule,rule,L4,m,1.3558,3.0,0.0,0.8353,3.0,2.0,castellano,0.0,catalan,3.0,ingles,5.0,4.0,3.0,no,no,yes,nada,,,,nada ,51.0,yes
66,2024-04-15_12h51.36.127,Experiment4_uns,s182,24.0,feminino,right,españa,castellano,Bachelor degree,no,no,A,1,what,L1,unsyncopated,s2,r2,66,Online_whatL1//d.ne.ni3.none.none.wav,ro,lu,la,sil,ta,ri,fa,sil1,be,ze,sil2,['-'],,,none,none,,,,ne,4,testConjL4Uns//dep_viol.r1.s1.0.wav,3.0,conjunction_un,unsyncopated,a,s1,no_rule,dep,L4,m,0.7172,3.0,1.0,0.3176,3.0,2.0,castellano,0.0,catalan,3.0,ingles,5.0,4.0,3.0,no,no,yes,nada,,,,nada ,51.0,yes
67,2024-04-15_12h51.36.127,Experiment4_uns,s182,24.0,feminino,right,españa,castellano,Bachelor degree,no,no,A,1,what,L1,unsyncopated,s2,r1,67,Online_whatL1//d.ne.ni2.444.0.wav,ni,fa,ne,sil,pu,la,ze,sil2,ki,fo,sil1,['catch'],[0.9874000000953629],[0.9874000000953629],0.444,no_beat,0.5434000000953629,0.5434000000953629,"[""space""]",ne,4,testConjL4Uns//r1.s1.1.wav,3.0,conjunction_un,unsyncopated,a,s1,rule,rule,L4,m,0.1057,3.0,0.0,0.4674,3.0,2.0,castellano,0.0,catalan,3.0,ingles,5.0,4.0,3.0,no,no,yes,nada,,,,nada ,51.0,yes
68,2024-04-15_12h51.36.127,Experiment4_uns,s182,24.0,feminino,right,españa,castellano,Bachelor degree,no,no,A,1,what,L1,unsyncopated,s2,r2,68,Online_whatL1//d.ne.ni24.1332.444.wav,zu,la,ni,sil,ta,ri,ne,sil2,be,fo,sil1,['catch'],[2.08299999999997],[2.08299999999997],1.332,no_beat,0.7509999999999699,0.7509999999999699,"[""space""]",ne,4,testConjL4Uns//r2.s2.2.wav,3.0,conjunction_un,unsyncopated,b,s2,rule,rule,L4,z,0.6006,2.0,1.0,0.3841,3.0,2.0,castellano,0.0,catalan,3.0,ingles,5.0,4.0,3.0,no,no,yes,nada,,,,nada ,51.0,yes
69,2024-04-15_12h51.36.127,Experiment4_uns,s182,24.0,feminino,right,españa,castellano,Bachelor degree,no,no,A,1,what,L1,unsyncopated,s1,r2,69,Online_whatL1//d.ne.ni27.none.none.wav,ta,ri,fa,sil2,be,cho,ro,sil,lu,la,sil1,['-'],,,none,none,,,,ne,4,testConjL4Uns//r2.s2.1.wav,3.0,conjunction_un,unsyncopated,b,s2,rule,rule,L4,z,0.4059,3.0,1.0,0.5327,3.0,2.0,castellano,0.0,catalan,3.0,ingles,5.0,4.0,3.0,no,no,yes,nada,,,,nada ,51.0,yes
70,2024-04-15_12h51.36.127,Experiment4_uns,s182,24.0,feminino,right,españa,castellano,Bachelor degree,no,no,A,1,what,L1,unsyncopated,s1,r2,70,Online_whatL1//d.ne.ni25.1332.222.wav,ta,ni,ri,sil2,be,ne,cho,sil,lu,zu,sil1,['catch'],[1.9708999996186094],[1.9708999996186094],1.332,no_beat,0.6388999996186093,0.6388999996186093,"[""space""]",ne,4,testConjL4Uns//r1.s2.0.wav,3.0,conjunction_un,unsyncopated,a,s2,rule,rule,L4,z,1.004,4.0,1.0,0.6337,3.0,2.0,castellano,0.0,catalan,3.0,ingles,5.0,4.0,3.0,no,no,yes,nada,,,,nada ,51.0,yes
71,2024-04-15_12h51.36.127,Experiment4_uns,s182,24.0,feminino,right,españa,castellano,Bachelor degree,no,no,A,1,what,L1,unsyncopated,s2,r1,71,Online_whatL1//d.ne.ni26.0.444.wav,ne,lu,ni,sil,pu,ze,fa,sil1,ki,ro,sil2,['catch'],[0.9708999996184957],[0.9708999996184957],0.0,beat,0.9708999996184956,0.9708999996184956,"[""space""]",ne,4,testConjL4Uns//dep_viol.r2.s1.0.wav,3.0,conjunction_un,unsyncopated,b,s1,no_rule,dep,L4,z,0.7739,4.0,0.0,0.3853,3.0,2.0,castellano,0.0,catalan,3.0,ingles,5.0,4.0,3.0,no,no,yes,nada,,,,nada ,51.0,yes
72,2024-04-15_12h51.36.127,Experiment4_uns,s182,24.0,feminino,right,españa,castellano,Bachelor degree,no,no,A,1,what,L1,unsyncopated,s1,r2,72,Online_whatL1//a.pu.ki9.none.none.wav,ta,ne,la,sil2,be,zu,ze,sil,fo,lu,sil1,['-'],,,none,none,,,,ki,2,testConjL3Syn//dep_viol.r1.s1.0.wav,4.0,conjunction_syn,syncopated,a,s1,no_rule,dep,L3,m,1.1445,3.0,1.0,1.368,3.0,2.0,castellano,0.0,catalan,3.0,ingles,5.0,4.0,3.0,no,no,yes,nada,,,,nada ,51.0,yes
73,2024-04-15_12h51.36.127,Experiment4_uns,s182,24.0,feminino,right,españa,castellano,Bachelor degree,no,no,A,1,what,L1,unsyncopated,s2,r1,73,Online_whatL1//a.pu.ki8.1110.1998.wav,ri,ro,cho,sil2,pu,zu,ne,sil,ki,lu,sil1,['catch'],[2.457700000286195],[2.457700000286195],1.998,no_beat,0.459700000286195,0.459700000286195,"[""space""]",ki,2,testConjL3Syn//time_viol.r2.s2.0.wav,4.0,conjunction_syn,syncopated,b,s2,no_rule,time,L3,z,1.3336,5.0,0.0,0.6218,3.0,2.0,castellano,0.0,catalan,3.0,ingles,5.0,4.0,3.0,no,no,yes,nada,,,,nada ,51.0,yes
74,2024-04-15_12h51.36.127,Experiment4_uns,s182,24.0,feminino,right,españa,castellano,Bachelor degree,no,no,A,1,what,L1,unsyncopated,s1,r2,74,Online_whatL1//a.pu.ki11.none.none.wav,ta,lu,ri,sil,be,la,fa,sil1,ne,ze,sil2,['-'],,,none,none,,,,ki,2,testConjL3Syn//cat_viol.r2.s2.0.wav,4.0,conjunction_syn,syncopated,b,s2,no_rule,cat,L3,z,0.2997,7.0,0.0,0.4005,3.0,2.0,castellano,0.0,catalan,3.0,ingles,5.0,4.0,3.0,no,no,yes,nada,,,,nada ,51.0,yes
75,2024-04-15_12h51.36.127,Experiment4_uns,s182,24.0,feminino,right,españa,castellano,Bachelor degree,no,no,A,1,what,L1,unsyncopated,s2,r1,75,Online_whatL1//a.pu.ki10.888.1776.wav,ni,la,lu,sil,pu,zu,ze,sil1,ki,ne,sil2,['catch'],[2.2873000001907258],[2.2873000001907258],1.776,beat,0.5113000001907257,0.5113000001907257,"[""space""]",ki,2,testConjL3Syn//r1.s1.0.wav,4.0,conjunction_syn,syncopated,a,s1,rule,rule,L3,z,0.4951,7.0,1.0,0.3354,3.0,2.0,castellano,0.0,catalan,3.0,ingles,5.0,4.0,3.0,no,no,yes,nada,,,,nada ,51.0,yes
76,2024-04-15_12h51.36.127,Experiment4_uns,s182,24.0,feminino,right,españa,castellano,Bachelor degree,no,no,A,1,what,L1,unsyncopated,s2,r1,76,Online_whatL1//c.ro.fo19.none.none.wav,fa,ri,zu,sil,pu,ze,cho,sil2,ki,ni,sil1,['-'],,,none,none,,,,ro,3,testConjL3Syn//r1.s2.2.wav,4.0,conjunction_syn,syncopated,a,s2,rule,rule,L3,m,0.8729,5.0,0.0,0.7506,3.0,2.0,castellano,0.0,catalan,3.0,ingles,5.0,4.0,3.0,no,no,yes,nada,,,,nada ,51.0,yes
77,2024-04-15_12h51.36.127,Experiment4_uns,s182,24.0,feminino,right,españa,castellano,Bachelor degree,no,no,A,1,what,L1,unsyncopated,s2,r1,77,Online_whatL1//c.ro.fo18.none.none.wav,ne,zu,la,sil2,pu,fa,ni,sil,ki,lu,sil1,['-'],,,none,none,,,,ro,3,testConjL3Syn//dep_viol.r1.s2.0.wav,4.0,conjunction_syn,syncopated,a,s2,no_rule,dep,L3,z,0.3012,7.0,0.0,0.4537,3.0,2.0,castellano,0.0,catalan,3.0,ingles,5.0,4.0,3.0,no,no,yes,nada,,,,nada ,51.0,yes
78,2024-04-15_12h51.36.127,Experiment4_uns,s182,24.0,feminino,right,españa,castellano,Bachelor degree,no,no,A,1,what,L1,unsyncopated,s2,r1,78,Online_whatL1//c.ro.fo16.222.444.wav,zu,ro,fo,sil,pu,lu,fa,sil2,ki,la,sil1,['catch'],[0.9540999999045425],[0.9540999999045425],0.222,no_beat,0.7320999999045426,0.7320999999045426,"[""space""]",ro,3,testConjL3Syn//cat_viol.r1.s1.0.wav,4.0,conjunction_syn,syncopated,a,s1,no_rule,cat,L3,m,0.2838,7.0,1.0,0.4396,3.0,2.0,castellano,0.0,catalan,3.0,ingles,5.0,4.0,3.0,no,no,yes,nada,,,,nada ,51.0,yes
79,2024-04-15_12h51.36.127,Experiment4_uns,s182,24.0,feminino,right,españa,castellano,Bachelor degree,no,no,A,1,what,L1,unsyncopated,s2,r1,79,Online_whatL1//c.ro.fo17.444.0.wav,fo,lu,ro,sil,pu,zu,ne,sil1,ki,fa,sil2,['catch'],[1.4369000000953065],[1.4369000000953065],0.444,no_beat,0.9929000000953064,0.9929000000953064,"[""space""]",ro,3,testConjL3Syn//cat_viol.r1.s2.0.wav,4.0,conjunction_syn,syncopated,a,s2,no_rule,cat,L3,m,0.0508,7.0,1.0,0.3732,3.0,2.0,castellano,0.0,catalan,3.0,ingles,5.0,4.0,3.0,no,no,yes,nada,,,,nada ,51.0,yes
80,2024-04-15_12h51.36.127,Experiment4_uns,s182,24.0,feminino,right,españa,castellano,Bachelor degree,no,no,A,1,what,L1,unsyncopated,s2,r1,80,Online_whatL1//a.pu.ki19.1110.1998.wav,ne,ze,la,sil2,pu,fo,zu,sil,ki,cho,sil1,['catch'],[2.5344000000952747],[2.5344000000952747],1.998,no_beat,0.5364000000952747,0.5364000000952747,"[""space""]",ki,2,testConjL3Syn//time_viol.r2.s1.0.wav,4.0,conjunction_syn,syncopated,b,s1,no_rule,time,L3,m,0.8344,5.0,1.0,0.6657,3.0,2.0,castellano,0.0,catalan,3.0,ingles,5.0,4.0,3.0,no,no,yes,nada,,,,nada ,51.0,yes
81,2024-04-15_12h51.36.127,Experiment4_uns,s182,24.0,feminino,right,españa,castellano,Bachelor degree,no,no,A,1,what,L1,unsyncopated,s1,r1,81,Online_whatL1//a.pu.ki17.0.1110.wav,pu,ro,ni,sil2,ki,zu,la,sil,cho,ri,sil1,['catch'],[1.8479999999999563],[1.8479999999999563],1.11,no_beat,0.7379999999999562,0.7379999999999562,"[""space""]",ki,2,testConjL3Syn//r2.s2.0.wav,4.0,conjunction_syn,syncopated,b,s2,rule,rule,L3,z,0.6838,5.0,1.0,0.5673,3.0,2.0,castellano,0.0,catalan,3.0,ingles,5.0,4.0,3.0,no,no,yes,nada,,,,nada ,51.0,yes
82,2024-04-15_12h51.36.127,Experiment4_uns,s182,24.0,feminino,right,españa,castellano,Bachelor degree,no,no,A,1,what,L1,unsyncopated,s2,r2,82,Online_whatL1//a.pu.ki18.none.none.wav,zu,ne,cho,sil,ta,fo,ri,sil1,be,fa,sil2,['-'],,,none,none,,,,ki,2,testConjL3Syn//dep_viol.r2.s2.0.wav,4.0,conjunction_syn,syncopated,b,s2,no_rule,dep,L3,z,0.1173,7.0,0.0,0.4353,3.0,2.0,castellano,0.0,catalan,3.0,ingles,5.0,4.0,3.0,no,no,yes,nada,,,,nada ,51.0,yes
83,2024-04-15_12h51.36.127,Experiment4_uns,s182,24.0,feminino,right,españa,castellano,Bachelor degree,no,no,A,1,what,L1,unsyncopated,s1,r1,83,Online_whatL1//a.pu.ki16.0.888.wav,pu,cho,ze,sil,ki,ri,ni,sil1,lu,fa,sil2,['catch'],[1.4974000000953538],[1.4974000000953538],0.888,beat,0.6094000000953538,0.6094000000953538,"[""space""]",ki,2,testConjL3Syn//r2.s1.1.wav,4.0,conjunction_syn,syncopated,b,s1,rule,rule,L3,z,0.0604,7.0,1.0,0.2847,3.0,2.0,castellano,0.0,catalan,3.0,ingles,5.0,4.0,3.0,no,no,yes,nada,,,,nada ,51.0,yes
84,2024-04-15_12h51.36.127,Experiment4_uns,s182,24.0,feminino,right,españa,castellano,Bachelor degree,no,no,A,1,what,L1,unsyncopated,s1,r1,84,Online_whatL1//c.ro.fo4.none.none.wav,pu,lu,fa,sil2,ki,la,zu,sil,cho,ze,sil1,['-'],,,none,none,,,,ro,3,testConjL3Syn//r2.s2.1.wav,4.0,conjunction_syn,syncopated,b,s2,rule,rule,L3,z,0.5051,6.0,1.0,0.4622,3.0,2.0,castellano,0.0,catalan,3.0,ingles,5.0,4.0,3.0,no,no,yes,nada,,,,nada ,51.0,yes
85,2024-04-15_12h51.36.127,Experiment4_uns,s182,24.0,feminino,right,españa,castellano,Bachelor degree,no,no,A,1,what,L1,unsyncopated,s2,r2,85,Online_whatL1//c.ro.fo7.none.none.wav,ri,lu,ni,sil2,ta,la,ne,sil,be,ze,sil1,['-'],,,none,none,,,,ro,3,testConjL3Syn//r1.s2.0.wav,4.0,conjunction_syn,syncopated,a,s2,rule,rule,L3,z,0.1341,7.0,1.0,0.3667,3.0,2.0,castellano,0.0,catalan,3.0,ingles,5.0,4.0,3.0,no,no,yes,nada,,,,nada ,51.0,yes
86,2024-04-15_12h51.36.127,Experiment4_uns,s182,24.0,feminino,right,españa,castellano,Bachelor degree,no,no,A,1,what,L1,unsyncopated,s2,r1,86,Online_whatL1//c.ro.fo6.none.none.wav,la,ri,cho,sil,pu,ne,ni,sil1,ki,fa,sil2,['-'],,,none,none,,,,ro,3,testConjL3Syn//r1.s2.1.wav,4.0,conjunction_syn,syncopated,a,s2,rule,rule,L3,z,0.234,7.0,1.0,0.4345,3.0,2.0,castellano,0.0,catalan,3.0,ingles,5.0,4.0,3.0,no,no,yes,nada,,,,nada ,51.0,yes
87,2024-04-15_12h51.36.127,Experiment4_uns,s182,24.0,feminino,right,españa,castellano,Bachelor degree,no,no,A,1,what,L1,unsyncopated,s1,r2,87,Online_whatL1//c.ro.fo5.none.none.wav,ta,ze,lu,sil,be,ne,zu,sil2,ri,ni,sil1,['-'],,,none,none,,,,ro,3,testConjL3Syn//r1.s1.2.wav,4.0,conjunction_syn,syncopated,a,s1,rule,rule,L3,m,0.4567,5.0,0.0,0.6175,3.0,2.0,castellano,0.0,catalan,3.0,ingles,5.0,4.0,3.0,no,no,yes,nada,,,,nada ,51.0,yes
88,2024-04-15_12h51.36.127,Experiment4_uns,s182,24.0,feminino,right,españa,castellano,Bachelor degree,no,no,A,1,what,L1,unsyncopated,s1,r1,88,Online_whatL1//d.ne.ni23.none.none.wav,pu,fo,zu,sil,ki,cho,ro,sil1,ri,la,sil2,['-'],,,none,none,,,,ne,4,testConjL3Syn//r2.s1.0.wav,4.0,conjunction_syn,syncopated,b,s1,rule,rule,L3,m,0.3381,6.0,0.0,0.5178,3.0,2.0,castellano,0.0,catalan,3.0,ingles,5.0,4.0,3.0,no,no,yes,nada,,,,nada ,51.0,yes
89,2024-04-15_12h51.36.127,Experiment4_uns,s182,24.0,feminino,right,españa,castellano,Bachelor degree,no,no,A,1,what,L1,unsyncopated,s1,r1,89,Online_whatL1//d.ne.ni22.none.none.wav,pu,ro,cho,sil2,ki,lu,ze,sil,zu,ri,sil1,['-'],,,none,none,,,,ne,4,testConjL3Syn//cat_viol.r2.s1.0.wav,4.0,conjunction_syn,syncopated,b,s1,no_rule,cat,L3,z,0.0123,7.0,0.0,0.3994,3.0,2.0,castellano,0.0,catalan,3.0,ingles,5.0,4.0,3.0,no,no,yes,nada,,,,nada ,51.0,yes
90,2024-04-15_12h51.36.127,Experiment4_uns,s182,24.0,feminino,right,españa,castellano,Bachelor degree,no,no,A,1,what,L1,unsyncopated,s1,r2,90,Online_whatL1//d.ne.ni20.none.none.wav,ta,fa,ro,sil2,be,ze,cho,sil,la,zu,sil1,['-'],,,none,none,,,,ne,4,testConjL3Syn//time_viol.r1.s1.0.wav,4.0,conjunction_syn,syncopated,a,s1,no_rule,time,L3,m,0.2335,4.0,1.0,1.0006,3.0,2.0,castellano,0.0,catalan,3.0,ingles,5.0,4.0,3.0,no,no,yes,nada,,,,nada ,51.0,yes
91,2024-04-15_12h51.36.127,Experiment4_uns,s182,24.0,feminino,right,españa,castellano,Bachelor degree,no,no,A,1,what,L1,unsyncopated,s2,r1,91,Online_whatL1//d.ne.ni21.none.none.wav,zu,fo,la,sil,pu,ze,cho,sil2,ki,lu,sil1,['-'],,,none,none,,,,ne,4,testConjL3Syn//time_viol.r1.s2.0.wav,4.0,conjunction_syn,syncopated,a,s2,no_rule,time,L3,m,1.6215,4.0,1.0,0.4747,3.0,2.0,castellano,0.0,catalan,3.0,ingles,5.0,4.0,3.0,no,no,yes,nada,,,,nada ,51.0,yes
92,2024-04-15_12h51.36.127,Experiment4_uns,s182,24.0,feminino,right,españa,castellano,Bachelor degree,no,no,A,1,what,L1,unsyncopated,s1,r2,92,Online_whatL1//c.ro.fo25.222.1110.wav,ta,ro,lu,sil,be,fo,ri,sil2,ni,zu,sil1,"['catch', 'false alarm']","[1.1589999999999918, 1.3759999999999764]",[1.1589999999999918],0.222,no_beat,0.9369999999999918,0.9369999999999918,"[""space"",""space""]",ro,3,testConjL3Syn//r2.s2.2.wav,4.0,conjunction_syn,syncopated,b,s2,rule,rule,L3,z,0.3229,2.0,1.0,0.4009,3.0,2.0,castellano,0.0,catalan,3.0,ingles,5.0,4.0,3.0,no,no,yes,nada,,,,nada ,51.0,yes
93,2024-04-15_12h51.36.127,Experiment4_uns,s182,24.0,feminino,right,españa,castellano,Bachelor degree,no,no,A,1,what,L1,unsyncopated,s1,r1,93,Online_whatL1//c.ro.fo27.none.none.wav,pu,lu,ze,sil,ki,ne,fa,sil2,cho,zu,sil1,['-'],,,none,none,,,,ro,3,testConjL3Syn//dep_viol.r2.s1.0.wav,4.0,conjunction_syn,syncopated,b,s1,no_rule,dep,L3,m,0.184,7.0,1.0,0.4675,3.0,2.0,castellano,0.0,catalan,3.0,ingles,5.0,4.0,3.0,no,no,yes,nada,,,,nada ,51.0,yes
94,2024-04-15_12h51.36.127,Experiment4_uns,s182,24.0,feminino,right,españa,castellano,Bachelor degree,no,no,A,1,what,L1,unsyncopated,s1,r2,94,Online_whatL1//c.ro.fo26.1332.1554.wav,ta,fa,ri,sil2,be,ro,fo,sil,ze,zu,sil1,['catch'],[2.020699999809267],[2.020699999809267],1.332,no_beat,0.6886999998092669,0.6886999998092669,"[""space""]",ro,3,testConjL3Syn//r1.s1.1.wav,4.0,conjunction_syn,syncopated,a,s1,rule,rule,L3,z,2.2717,5.0,1.0,0.3987,3.0,2.0,castellano,0.0,catalan,3.0,ingles,5.0,4.0,3.0,no,no,yes,nada,,,,nada ,51.0,yes
95,2024-04-15_12h51.36.127,Experiment4_uns,s182,24.0,feminino,right,españa,castellano,Bachelor degree,no,no,A,1,what,L1,unsyncopated,s1,r1,95,Online_whatL1//c.ro.fo24.none.none.wav,pu,la,ri,sil,ki,fa,ne,sil1,ni,lu,sil2,['-'],,,none,none,,,,ro,3,testConjL3Syn//r2.s1.2.wav,4.0,conjunction_syn,syncopated,b,s1,rule,rule,L3,m,0.1173,4.0,0.0,0.5885,3.0,2.0,castellano,0.0,catalan,3.0,ingles,5.0,4.0,3.0,no,no,yes,nada,,,,nada ,51.0,yes
96,2024-04-15_12h51.36.127,Experiment4_uns,s182,24.0,feminino,right,españa,castellano,Bachelor degree,no,no,A,1,what,L1,unsyncopated,s1,r2,96,Online_whatL1//b.ta.be22.0.888.wav,ta,ze,lu,sil,be,fo,la,sil2,cho,zu,sil1,['catch'],[0.7634999999999081],[0.7634999999999081],0.0,beat,0.7634999999999081,0.7634999999999081,"[""space""]",ta,1,,,,,,,,,,,,,,,3.0,2.0,castellano,0.0,catalan,3.0,ingles,5.0,4.0,3.0,no,no,yes,nada,,,,nada ,51.0,yes
97,2024-04-15_12h51.36.127,Experiment4_uns,s182,24.0,feminino,right,españa,castellano,Bachelor degree,no,no,A,1,what,L1,unsyncopated,s1,r1,97,Online_whatL1//b.ta.be23.none.none.wav,pu,zu,ri,sil,ki,ni,fa,sil1,lu,cho,sil2,['-'],,,none,none,,,,ta,1,,,,,,,,,,,,,,,3.0,2.0,castellano,0.0,catalan,3.0,ingles,5.0,4.0,3.0,no,no,yes,nada,,,,nada ,51.0,yes
98,2024-04-15_12h51.36.127,Experiment4_uns,s182,24.0,feminino,right,españa,castellano,Bachelor degree,no,no,A,1,what,L1,unsyncopated,s1,r2,98,Online_whatL1//b.ta.be20.0.888.wav,ta,ro,ne,sil,be,la,cho,sil1,lu,ri,sil2,['catch'],[0.7105999999046162],[0.7105999999046162],0.0,beat,0.7105999999046162,0.7105999999046162,"[""space""]",ta,1,,,,,,,,,,,,,,,3.0,2.0,castellano,0.0,catalan,3.0,ingles,5.0,4.0,3.0,no,no,yes,nada,,,,nada ,51.0,yes
99,2024-04-15_12h51.36.127,Experiment4_uns,s182,24.0,feminino,right,españa,castellano,Bachelor degree,no,no,A,1,what,L1,unsyncopated,s2,r2,99,Online_whatL1//b.ta.be21.1110.1998.wav,fa,ri,zu,sil2,ta,lu,ne,sil,be,la,sil1,['miss'],,,1.11,no_beat,,,,ta,1,,,,,,,,,,,,,,,3.0,2.0,castellano,0.0,catalan,3.0,ingles,5.0,4.0,3.0,no,no,yes,nada,,,,nada ,51.0,yes
100,2024-04-15_12h51.36.127,Experiment4_uns,s182,24.0,feminino,right,españa,castellano,Bachelor degree,no,no,A,1,what,L1,unsyncopated,s2,r2,100,Online_whatL1//c.ro.fo30.none.none.wav,ri,cho,ze,sil,ta,lu,zu,sil2,be,la,sil1,['false alarm'],[1.4448000001906394],[1.4448000001906394],none,none,,,"[""space""]",ro,3,,,,,,,,,,,,,,,3.0,2.0,castellano,0.0,catalan,3.0,ingles,5.0,4.0,3.0,no,no,yes,nada,,,,nada ,51.0,yes
101,2024-04-15_12h51.36.127,Experiment4_uns,s182,24.0,feminino,right,españa,castellano,Bachelor degree,no,no,A,1,what,L1,unsyncopated,s2,r2,101,Online_whatL1//c.ro.fo31.none.none.wav,ze,zu,ne,sil,ta,la,ri,sil1,be,cho,sil2,['-'],,,none,none,,,,ro,3,,,,,,,,,,,,,,,3.0,2.0,castellano,0.0,catalan,3.0,ingles,5.0,4.0,3.0,no,no,yes,nada,,,,nada ,51.0,yes
102,2024-04-15_12h51.36.127,Experiment4_uns,s182,24.0,feminino,right,españa,castellano,Bachelor degree,no,no,A,1,what,L1,unsyncopated,s1,r1,102,Online_whatL1//c.ro.fo28.222.1332.wav,pu,ro,ni,sil2,ki,fo,cho,sil,zu,lu,sil1,['catch'],[1.0283000001907112],[1.0283000001907112],0.222,no_beat,0.8063000001907112,0.8063000001907112,"[""space""]",ro,3,,,,,,,,,,,,,,,3.0,2.0,castellano,0.0,catalan,3.0,ingles,5.0,4.0,3.0,no,no,yes,nada,,,,nada ,51.0,yes
103,2024-04-15_12h51.36.127,Experiment4_uns,s182,24.0,feminino,right,españa,castellano,Bachelor degree,no,no,A,1,what,L1,unsyncopated,s2,r1,103,Online_whatL1//c.ro.fo29.1332.222.wav,lu,fo,ni,sil2,pu,ro,la,sil,ki,ze,sil1,['catch'],[2.1606999998092533],[2.1606999998092533],1.332,no_beat,0.8286999998092532,0.8286999998092532,"[""space""]",ro,3,,,,,,,,,,,,,,,3.0,2.0,castellano,0.0,catalan,3.0,ingles,5.0,4.0,3.0,no,no,yes,nada,,,,nada ,51.0,yes
104,2024-04-15_12h51.36.127,Experiment4_uns,s182,24.0,feminino,right,españa,castellano,Bachelor degree,no,no,A,1,what,L1,unsyncopated,s2,r1,104,Online_whatL1//d.ne.ni8.none.none.wav,lu,fa,la,sil,pu,cho,ze,sil2,ki,fo,sil1,['-'],,,none,none,,,,ne,4,,,,,,,,,,,,,,,3.0,2.0,castellano,0.0,catalan,3.0,ingles,5.0,4.0,3.0,no,no,yes,nada,,,,nada ,51.0,yes
105,2024-04-15_12h51.36.127,Experiment4_uns,s182,24.0,feminino,right,españa,castellano,Bachelor degree,no,no,A,1,what,L1,unsyncopated,s1,r1,105,Online_whatL1//d.ne.ni9.222.444.wav,pu,ne,ni,sil,ki,fa,zu,sil2,fo,ro,sil1,['catch'],[0.8813000001907767],[0.8813000001907767],0.222,no_beat,0.6593000001907767,0.6593000001907767,"[""space""]",ne,4,,,,,,,,,,,,,,,3.0,2.0,castellano,0.0,catalan,3.0,ingles,5.0,4.0,3.0,no,no,yes,nada,,,,nada ,51.0,yes
106,2024-04-15_12h51.36.127,Experiment4_uns,s182,24.0,feminino,right,españa,castellano,Bachelor degree,no,no,A,1,what,L1,unsyncopated,s2,r1,106,Online_whatL1//d.ne.ni10.none.none.wav,ri,fa,ro,sil2,pu,zu,ze,sil,ki,la,sil1,['-'],,,none,none,,,,ne,4,,,,,,,,,,,,,,,3.0,2.0,castellano,0.0,catalan,3.0,ingles,5.0,4.0,3.0,no,no,yes,nada,,,,nada ,51.0,yes
107,2024-04-15_12h51.36.127,Experiment4_uns,s182,24.0,feminino,right,españa,castellano,Bachelor degree,no,no,A,1,what,L1,unsyncopated,s2,r2,107,Online_whatL1//d.ne.ni11.none.none.wav,lu,fa,ze,sil,ta,ri,la,sil1,be,fo,sil2,['-'],,,none,none,,,,ne,4,,,,,,,,,,,,,,,3.0,2.0,castellano,0.0,catalan,3.0,ingles,5.0,4.0,3.0,no,no,yes,nada,,,,nada ,51.0,yes
108,2024-04-15_12h51.36.127,Experiment4_uns,s182,24.0,feminino,right,españa,castellano,Bachelor degree,no,no,A,1,what,L1,unsyncopated,s2,r2,108,Online_whatL1//a.pu.ki14.none.none.wav,ni,ne,ze,sil2,ta,fa,ri,sil,be,ro,sil1,['-'],,,none,none,,,,ki,2,,,,,,,,,,,,,,,3.0,2.0,castellano,0.0,catalan,3.0,ingles,5.0,4.0,3.0,no,no,yes,nada,,,,nada ,51.0,yes
109,2024-04-15_12h51.36.127,Experiment4_uns,s182,24.0,feminino,right,españa,castellano,Bachelor degree,no,no,A,1,what,L1,unsyncopated,s2,r1,109,Online_whatL1//a.pu.ki12.1110.1998.wav,ni,zu,ro,sil2,pu,lu,ze,sil,ki,fa,sil1,['catch'],[2.511300000190772],[2.511300000190772],1.998,no_beat,0.5133000001907722,0.5133000001907722,"[""space""]",ki,2,,,,,,,,,,,,,,,3.0,2.0,castellano,0.0,catalan,3.0,ingles,5.0,4.0,3.0,no,no,yes,nada,,,,nada ,51.0,yes
110,2024-04-15_12h51.36.127,Experiment4_uns,s182,24.0,feminino,right,españa,castellano,Bachelor degree,no,no,A,1,what,L1,unsyncopated,s2,r2,110,Online_whatL1//a.pu.ki13.none.none.wav,la,fa,ri,sil,ta,cho,ni,sil1,be,fo,sil2,['-'],,,none,none,,,,ki,2,,,,,,,,,,,,,,,3.0,2.0,castellano,0.0,catalan,3.0,ingles,5.0,4.0,3.0,no,no,yes,nada,,,,nada ,51.0,yes
111,2024-04-15_12h51.36.127,Experiment4_uns,s182,24.0,feminino,right,españa,castellano,Bachelor degree,no,no,A,1,what,L1,unsyncopated,s2,r2,111,Online_whatL1//a.pu.ki15.none.none.wav,fo,ne,ro,sil2,ta,cho,lu,sil,be,ze,sil1,['-'],,,none,none,,,,ki,2,,,,,,,,,,,,,,,3.0,2.0,castellano,0.0,catalan,3.0,ingles,5.0,4.0,3.0,no,no,yes,nada,,,,nada ,51.0,yes
112,2024-04-15_12h51.36.127,Experiment4_uns,s182,24.0,feminino,right,españa,castellano,Bachelor degree,no,no,A,1,what,L1,unsyncopated,s1,r1,112,Online_whatL1//b.ta.be26.none.none.wav,pu,lu,cho,sil,ki,ne,ro,sil2,fa,la,sil1,['-'],,,none,none,,,,ta,1,,,,,,,,,,,,,,,3.0,2.0,castellano,0.0,catalan,3.0,ingles,5.0,4.0,3.0,no,no,yes,nada,,,,nada ,51.0,yes
113,2024-04-15_12h51.36.127,Experiment4_uns,s182,24.0,feminino,right,españa,castellano,Bachelor degree,no,no,A,1,what,L1,unsyncopated,s1,r1,113,Online_whatL1//b.ta.be25.none.none.wav,pu,ze,cho,sil2,ki,fo,ro,sil,ni,ri,sil1,['-'],,,none,none,,,,ta,1,,,,,,,,,,,,,,,3.0,2.0,castellano,0.0,catalan,3.0,ingles,5.0,4.0,3.0,no,no,yes,nada,,,,nada ,51.0,yes
114,2024-04-15_12h51.36.127,Experiment4_uns,s182,24.0,feminino,right,españa,castellano,Bachelor degree,no,no,A,1,what,L1,unsyncopated,s2,r1,114,Online_whatL1//b.ta.be24.none.none.wav,lu,zu,cho,sil,pu,ni,fa,sil2,ki,fo,sil1,['-'],,,none,none,,,,ta,1,,,,,,,,,,,,,,,3.0,2.0,castellano,0.0,catalan,3.0,ingles,5.0,4.0,3.0,no,no,yes,nada,,,,nada ,51.0,yes
115,2024-04-15_12h51.36.127,Experiment4_uns,s182,24.0,feminino,right,españa,castellano,Bachelor degree,no,no,A,1,what,L1,unsyncopated,s1,r1,115,Online_whatL1//b.ta.be27.none.none.wav,pu,lu,zu,sil,ki,la,ro,sil2,ni,fa,sil1,['-'],,,none,none,,,,ta,1,,,,,,,,,,,,,,,3.0,2.0,castellano,0.0,catalan,3.0,ingles,5.0,4.0,3.0,no,no,yes,nada,,,,nada ,51.0,yes
116,2024-04-15_12h51.36.127,Experiment4_uns,s182,24.0,feminino,right,españa,castellano,Bachelor degree,no,no,A,1,what,L1,unsyncopated,s2,r2,116,Online_whatL1//b.ta.be16.1110.1998.wav,zu,fa,cho,sil2,ta,ri,ro,sil,be,ze,sil1,['catch'],[1.6509999999999536],[1.6509999999999536],1.11,no_beat,0.5409999999999535,0.5409999999999535,"[""space""]",ta,1,,,,,,,,,,,,,,,3.0,2.0,castellano,0.0,catalan,3.0,ingles,5.0,4.0,3.0,no,no,yes,nada,,,,nada ,51.0,yes
117,2024-04-15_12h51.36.127,Experiment4_uns,s182,24.0,feminino,right,españa,castellano,Bachelor degree,no,no,A,1,what,L1,unsyncopated,s1,r2,117,Online_whatL1//b.ta.be18.0.1110.wav,ta,zu,lu,sil2,be,ni,ne,sil,ze,la,sil1,['miss'],,,0.0,beat,,,,ta,1,,,,,,,,,,,,,,,3.0,2.0,castellano,0.0,catalan,3.0,ingles,5.0,4.0,3.0,no,no,yes,nada,,,,nada ,51.0,yes
118,2024-04-15_12h51.36.127,Experiment4_uns,s182,24.0,feminino,right,españa,castellano,Bachelor degree,no,no,A,1,what,L1,unsyncopated,s1,r2,118,Online_whatL1//b.ta.be19.0.888.wav,ta,lu,ze,sil,be,la,ro,sil2,cho,fo,sil1,['catch'],[0.7204000000953101],[0.7204000000953101],0.0,beat,0.7204000000953101,0.7204000000953101,"[""space""]",ta,1,,,,,,,,,,,,,,,3.0,2.0,castellano,0.0,catalan,3.0,ingles,5.0,4.0,3.0,no,no,yes,nada,,,,nada ,51.0,yes
119,2024-04-15_12h51.36.127,Experiment4_uns,s182,24.0,feminino,right,españa,castellano,Bachelor degree,no,no,A,1,what,L1,unsyncopated,s1,r2,119,Online_whatL1//b.ta.be17.0.888.wav,ta,fa,zu,sil,be,ze,la,sil1,ni,ro,sil2,['miss'],,,0.0,beat,,,,ta,1,,,,,,,,,,,,,,,3.0,2.0,castellano,0.0,catalan,3.0,ingles,5.0,4.0,3.0,no,no,yes,nada,,,,nada ,51.0,yes
120,2024-04-15_12h51.36.127,Experiment4_uns,s182,24.0,feminino,right,españa,castellano,Bachelor degree,no,no,A,1,what,L1,unsyncopated,s1,r1,120,Online_whatL1//b.ta.be1.none.none.wav,pu,fa,fo,sil2,ki,la,zu,sil,ze,ri,sil1,['-'],,,none,none,,,,ta,1,,,,,,,,,,,,,,,3.0,2.0,castellano,0.0,catalan,3.0,ingles,5.0,4.0,3.0,no,no,yes,nada,,,,nada ,51.0,yes
121,2024-04-15_12h51.36.127,Experiment4_uns,s182,24.0,feminino,right,españa,castellano,Bachelor degree,no,no,A,1,what,L1,unsyncopated,s2,r2,121,Online_whatL1//b.ta.be2.1110.1998.wav,ze,fa,lu,sil2,ta,ne,cho,sil,be,ri,sil1,['catch'],[1.9069000000953338],[1.9069000000953338],1.11,no_beat,0.7969000000953337,0.7969000000953337,"[""space""]",ta,1,,,,,,,,,,,,,,,3.0,2.0,castellano,0.0,catalan,3.0,ingles,5.0,4.0,3.0,no,no,yes,nada,,,,nada ,51.0,yes
122,2024-04-15_12h51.36.127,Experiment4_uns,s182,24.0,feminino,right,españa,castellano,Bachelor degree,no,no,A,1,what,L1,unsyncopated,s2,r1,122,Online_whatL1//b.ta.be3.none.none.wav,ze,ri,la,sil,pu,ni,fo,sil1,ki,cho,sil2,['-'],,,none,none,,,,ta,1,,,,,,,,,,,,,,,3.0,2.0,castellano,0.0,catalan,3.0,ingles,5.0,4.0,3.0,no,no,yes,nada,,,,nada ,51.0,yes
123,2024-04-15_12h51.36.127,Experiment4_uns,s182,24.0,feminino,right,españa,castellano,Bachelor degree,no,no,A,1,what,L1,unsyncopated,s2,r2,123,Online_whatL1//b.ta.be0.888.1776.wav,ni,lu,ne,sil,ta,ze,zu,sil1,be,la,sil2,['catch'],[1.7280999999046571],[1.7280999999046571],0.888,beat,0.8400999999046571,0.8400999999046571,"[""space""]",ta,1,,,,,,,,,,,,,,,3.0,2.0,castellano,0.0,catalan,3.0,ingles,5.0,4.0,3.0,no,no,yes,nada,,,,nada ,51.0,yes
124,2024-04-15_12h51.36.127,Experiment4_uns,s182,24.0,feminino,right,españa,castellano,Bachelor degree,no,no,A,1,what,L1,unsyncopated,s1,r2,124,Online_whatL1//d.ne.ni17.222.1332.wav,ta,ne,fo,sil,be,ri,ni,sil2,lu,fa,sil1,['miss'],,,0.222,no_beat,,,,ne,4,,,,,,,,,,,,,,,3.0,2.0,castellano,0.0,catalan,3.0,ingles,5.0,4.0,3.0,no,no,yes,nada,,,,nada ,51.0,yes
125,2024-04-15_12h51.36.127,Experiment4_uns,s182,24.0,feminino,right,españa,castellano,Bachelor degree,no,no,A,1,what,L1,unsyncopated,s2,r1,125,Online_whatL1//d.ne.ni16.0.444.wav,ne,la,ni,sil,pu,ri,zu,sil1,ki,fa,sil2,['catch'],[0.7043000001906421],[0.7043000001906421],0.0,beat,0.7043000001906421,0.7043000001906421,"[""space""]",ne,4,,,,,,,,,,,,,,,3.0,2.0,castellano,0.0,catalan,3.0,ingles,5.0,4.0,3.0,no,no,yes,nada,,,,nada ,51.0,yes
126,2024-04-15_12h51.36.127,Experiment4_uns,s182,24.0,feminino,right,españa,castellano,Bachelor degree,no,no,A,1,what,L1,unsyncopated,s1,r1,126,Online_whatL1//d.ne.ni18.none.none.wav,pu,ro,fo,sil,ki,ze,zu,sil2,cho,fa,sil1,['-'],,,none,none,,,,ne,4,,,,,,,,,,,,,,,3.0,2.0,castellano,0.0,catalan,3.0,ingles,5.0,4.0,3.0,no,no,yes,nada,,,,nada ,51.0,yes
127,2024-04-15_12h51.36.127,Experiment4_uns,s182,24.0,feminino,right,españa,castellano,Bachelor degree,no,no,A,1,what,L1,unsyncopated,s2,r2,127,Online_whatL1//d.ne.ni19.1554.444.wav,la,fa,ni,sil2,ta,cho,ne,sil,be,ri,sil1,['miss'],,,1.554,no_beat,,,,ne,4,,,,,,,,,,,,,,,3.0,2.0,castellano,0.0,catalan,3.0,ingles,5.0,4.0,3.0,no,no,yes,nada,,,,nada ,51.0,yes
128,2024-04-15_12h51.36.127,Experiment4_uns,s182,24.0,feminino,right,españa,castellano,Bachelor degree,no,no,A,2,when,L2,unsyncopated,when,when,0,Online_whenL2//a.du16.none.wav,ñu,te,to,sil,su,me,si,sil1,ra,fe,sil2,['-'],,,none,none,,,,du,2,,,,,,,,,,,,,,,3.0,2.0,castellano,0.0,catalan,3.0,ingles,5.0,4.0,3.0,no,no,yes,nada,,,,nada ,51.0,yes
129,2024-04-15_12h51.36.127,Experiment4_uns,s182,24.0,feminino,right,españa,castellano,Bachelor degree,no,no,A,2,when,L2,unsyncopated,when,when,1,Online_whenL2//a.du18.none.wav,go,fe,te,sil,si,cha,ba,sil1,ño,to,sil2,['-'],,,none,none,,,,du,2,,,,,,,,,,,,,,,3.0,2.0,castellano,0.0,catalan,3.0,ingles,5.0,4.0,3.0,no,no,yes,nada,,,,nada ,51.0,yes
130,2024-04-15_12h51.36.127,Experiment4_uns,s182,24.0,feminino,right,españa,castellano,Bachelor degree,no,no,A,2,when,L2,unsyncopated,when,when,2,Online_whenL2//a.du17.none.wav,ra,go,su,sil,me,si,cha,sil1,bi,te,sil2,['-'],,,none,none,,,,du,2,,,,,,,,,,,,,,,3.0,2.0,castellano,0.0,catalan,3.0,ingles,5.0,4.0,3.0,no,no,yes,nada,,,,nada ,51.0,yes
131,2024-04-15_12h51.36.127,Experiment4_uns,s182,24.0,feminino,right,españa,castellano,Bachelor degree,no,no,A,2,when,L2,unsyncopated,when,when,3,Online_whenL2//a.du19.none.wav,su,ñu,to,sil,bi,fe,me,sil1,ño,go,sil2,['-'],,,none,none,,,,du,2,,,,,,,,,,,,,,,3.0,2.0,castellano,0.0,catalan,3.0,ingles,5.0,4.0,3.0,no,no,yes,nada,,,,nada ,51.0,yes
132,2024-04-15_12h51.36.127,Experiment4_uns,s182,24.0,feminino,right,españa,castellano,Bachelor degree,no,no,A,2,when,L2,unsyncopated,when,when,4,Online_whenL2//c.cha18.1776.wav,ra,ñu,ño,sil,si,to,te,sil1,cha,du,sil2,['catch'],[2.2227000002860677],[2.2227000002860677],1.776,beat,0.4467000002860677,0.4467000002860677,"[""space""]",cha,3,,,,,,,,,,,,,,,3.0,2.0,castellano,0.0,catalan,3.0,ingles,5.0,4.0,3.0,no,no,yes,nada,,,,nada ,51.0,yes
133,2024-04-15_12h51.36.127,Experiment4_uns,s182,24.0,feminino,right,españa,castellano,Bachelor degree,no,no,A,2,when,L2,unsyncopated,when,when,5,Online_whenL2//c.cha17.none.wav,te,ñu,su,sil,mi,go,me,sil1,ra,si,sil2,['-'],,,none,none,,,,cha,3,,,,,,,,,,,,,,,3.0,2.0,castellano,0.0,catalan,3.0,ingles,5.0,4.0,3.0,no,no,yes,nada,,,,nada ,51.0,yes
134,2024-04-15_12h51.36.127,Experiment4_uns,s182,24.0,feminino,right,españa,castellano,Bachelor degree,no,no,A,2,when,L2,unsyncopated,when,when,6,Online_whenL2//c.cha19.1998.wav,go,si,du,sil,ñu,to,ba,sil1,te,cha,sil2,['catch'],[2.592299999713987],[2.592299999713987],1.998,no_beat,0.5942999997139868,0.5942999997139868,"[""space""]",cha,3,,,,,,,,,,,,,,,3.0,2.0,castellano,0.0,catalan,3.0,ingles,5.0,4.0,3.0,no,no,yes,nada,,,,nada ,51.0,yes
135,2024-04-15_12h51.36.127,Experiment4_uns,s182,24.0,feminino,right,españa,castellano,Bachelor degree,no,no,A,2,when,L2,unsyncopated,when,when,7,Online_whenL2//c.cha16.none.wav,te,su,to,sil,du,ra,me,sil1,si,mi,sil2,['-'],,,none,none,,,,cha,3,,,,,,,,,,,,,,,3.0,2.0,castellano,0.0,catalan,3.0,ingles,5.0,4.0,3.0,no,no,yes,nada,,,,nada ,51.0,yes
136,2024-04-15_12h51.36.127,Experiment4_uns,s182,24.0,feminino,right,españa,castellano,Bachelor degree,no,no,A,2,when,L2,unsyncopated,when,when,8,Online_whenL2//b.fe14.none.wav,ra,du,ba,sil,to,bi,su,sil1,te,ñu,sil2,['-'],,,none,none,,,,fe,1,,,,,,,,,,,,,,,3.0,2.0,castellano,0.0,catalan,3.0,ingles,5.0,4.0,3.0,no,no,yes,nada,,,,nada ,51.0,yes
137,2024-04-15_12h51.36.127,Experiment4_uns,s182,24.0,feminino,right,españa,castellano,Bachelor degree,no,no,A,2,when,L2,unsyncopated,when,when,9,Online_whenL2//b.fe12.none.wav,su,si,te,sil,cha,go,ñu,sil1,to,du,sil2,['-'],,,none,none,,,,fe,1,,,,,,,,,,,,,,,3.0,2.0,castellano,0.0,catalan,3.0,ingles,5.0,4.0,3.0,no,no,yes,nada,,,,nada ,51.0,yes
138,2024-04-15_12h51.36.127,Experiment4_uns,s182,24.0,feminino,right,españa,castellano,Bachelor degree,no,no,A,2,when,L2,unsyncopated,when,when,10,Online_whenL2//b.fe15.none.wav,ño,su,to,sil,du,me,go,sil1,cha,mi,sil2,['-'],,,none,none,,,,fe,1,,,,,,,,,,,,,,,3.0,2.0,castellano,0.0,catalan,3.0,ingles,5.0,4.0,3.0,no,no,yes,nada,,,,nada ,51.0,yes
139,2024-04-15_12h51.36.127,Experiment4_uns,s182,24.0,feminino,right,españa,castellano,Bachelor degree,no,no,A,2,when,L2,unsyncopated,when,when,11,Online_whenL2//b.fe13.none.wav,te,su,ra,sil,si,go,ba,sil1,me,mi,sil2,['-'],,,none,none,,,,fe,1,,,,,,,,,,,,,,,3.0,2.0,castellano,0.0,catalan,3.0,ingles,5.0,4.0,3.0,no,no,yes,nada,,,,nada ,51.0,yes
140,2024-04-15_12h51.36.127,Experiment4_uns,s182,24.0,feminino,right,españa,castellano,Bachelor degree,no,no,A,2,when,L2,unsyncopated,when,when,12,Online_whenL2//b.fe0.none.wav,te,go,to,sil,si,ra,ño,sil1,cha,su,sil2,['-'],,,none,none,,,,fe,1,,,,,,,,,,,,,,,3.0,2.0,castellano,0.0,catalan,3.0,ingles,5.0,4.0,3.0,no,no,yes,nada,,,,nada ,51.0,yes
141,2024-04-15_12h51.36.127,Experiment4_uns,s182,24.0,feminino,right,españa,castellano,Bachelor degree,no,no,A,2,when,L2,unsyncopated,when,when,13,Online_whenL2//b.fe3.1110.wav,me,mi,ñu,sil,bi,fe,si,sil1,to,go,sil2,['catch'],[1.931099999904518],[1.931099999904518],1.11,no_beat,0.8210999999045179,0.8210999999045179,"[""space""]",fe,1,,,,,,,,,,,,,,,3.0,2.0,castellano,0.0,catalan,3.0,ingles,5.0,4.0,3.0,no,no,yes,nada,,,,nada ,51.0,yes
142,2024-04-15_12h51.36.127,Experiment4_uns,s182,24.0,feminino,right,españa,castellano,Bachelor degree,no,no,A,2,when,L2,unsyncopated,when,when,14,Online_whenL2//b.fe1.none.wav,du,te,ba,sil,ra,mi,cha,sil1,ñu,to,sil2,['-'],,,none,none,,,,fe,1,,,,,,,,,,,,,,,3.0,2.0,castellano,0.0,catalan,3.0,ingles,5.0,4.0,3.0,no,no,yes,nada,,,,nada ,51.0,yes
143,2024-04-15_12h51.36.127,Experiment4_uns,s182,24.0,feminino,right,españa,castellano,Bachelor degree,no,no,A,2,when,L2,unsyncopated,when,when,15,Online_whenL2//b.fe2.1332.wav,ñu,bi,mi,sil,ra,cha,fe,sil1,ba,si,sil2,['catch'],[2.0493000001906694],[2.0493000001906694],1.332,no_beat,0.7173000001906693,0.7173000001906693,"[""space""]",fe,1,,,,,,,,,,,,,,,3.0,2.0,castellano,0.0,catalan,3.0,ingles,5.0,4.0,3.0,no,no,yes,nada,,,,nada ,51.0,yes
144,2024-04-15_12h51.36.127,Experiment4_uns,s182,24.0,feminino,right,españa,castellano,Bachelor degree,no,no,A,2,when,L2,unsyncopated,when,when,16,Online_whenL2//d.si5.1332.wav,to,fe,ra,sil,me,cha,si,sil1,su,te,sil2,['catch'],[1.8421999998092815],[1.8421999998092815],1.332,no_beat,0.5101999998092814,0.5101999998092814,"[""space""]",si,4,,,,,,,,,,,,,,,3.0,2.0,castellano,0.0,catalan,3.0,ingles,5.0,4.0,3.0,no,no,yes,nada,,,,nada ,51.0,yes
145,2024-04-15_12h51.36.127,Experiment4_uns,s182,24.0,feminino,right,españa,castellano,Bachelor degree,no,no,A,2,when,L2,unsyncopated,when,when,17,Online_whenL2//d.si7.none.wav,go,cha,te,sil,fe,ñu,ba,sil1,mi,to,sil2,['-'],,,none,none,,,,si,4,,,,,,,,,,,,,,,3.0,2.0,castellano,0.0,catalan,3.0,ingles,5.0,4.0,3.0,no,no,yes,nada,,,,nada ,51.0,yes
146,2024-04-15_12h51.36.127,Experiment4_uns,s182,24.0,feminino,right,españa,castellano,Bachelor degree,no,no,A,2,when,L2,unsyncopated,when,when,18,Online_whenL2//d.si4.444.wav,to,ra,si,sil,me,ñu,go,sil1,ño,mi,sil2,['catch'],[1.1005999999047162],[1.1005999999047162],0.444,no_beat,0.6565999999047163,0.6565999999047163,"[""space""]",si,4,,,,,,,,,,,,,,,3.0,2.0,castellano,0.0,catalan,3.0,ingles,5.0,4.0,3.0,no,no,yes,nada,,,,nada ,51.0,yes
147,2024-04-15_12h51.36.127,Experiment4_uns,s182,24.0,feminino,right,españa,castellano,Bachelor degree,no,no,A,2,when,L2,unsyncopated,when,when,19,Online_whenL2//d.si6.1776.wav,te,cha,du,sil,fe,ño,me,sil1,si,bi,sil2,['catch'],[2.3588000001907403],[2.3588000001907403],1.776,beat,0.5828000001907403,0.5828000001907403,"[""space""]",si,4,,,,,,,,,,,,,,,3.0,2.0,castellano,0.0,catalan,3.0,ingles,5.0,4.0,3.0,no,no,yes,nada,,,,nada ,51.0,yes
148,2024-04-15_12h51.36.127,Experiment4_uns,s182,24.0,feminino,right,españa,castellano,Bachelor degree,no,no,A,2,when,L2,unsyncopated,when,when,20,Online_whenL2//c.cha4.222.wav,bi,cha,ñu,sil,su,mi,du,sil1,si,fe,sil2,['catch'],[1.0215999999047654],[1.0215999999047654],0.222,no_beat,0.7995999999047654,0.7995999999047654,"[""space""]",cha,3,,,,,,,,,,,,,,,3.0,2.0,castellano,0.0,catalan,3.0,ingles,5.0,4.0,3.0,no,no,yes,nada,,,,nada ,51.0,yes
149,2024-04-15_12h51.36.127,Experiment4_uns,s182,24.0,feminino,right,españa,castellano,Bachelor degree,no,no,A,2,when,L2,unsyncopated,when,when,21,Online_whenL2//c.cha6.none.wav,ño,bi,su,sil,ñu,to,si,sil1,du,go,sil2,['-'],,,none,none,,,,cha,3,,,,,,,,,,,,,,,3.0,2.0,castellano,0.0,catalan,3.0,ingles,5.0,4.0,3.0,no,no,yes,nada,,,,nada ,51.0,yes
150,2024-04-15_12h51.36.127,Experiment4_uns,s182,24.0,feminino,right,españa,castellano,Bachelor degree,no,no,A,2,when,L2,unsyncopated,when,when,22,Online_whenL2//c.cha5.none.wav,bi,mi,to,sil,su,fe,te,sil1,du,si,sil2,['-'],,,none,none,,,,cha,3,,,,,,,,,,,,,,,3.0,2.0,castellano,0.0,catalan,3.0,ingles,5.0,4.0,3.0,no,no,yes,nada,,,,nada ,51.0,yes
151,2024-04-15_12h51.36.127,Experiment4_uns,s182,24.0,feminino,right,españa,castellano,Bachelor degree,no,no,A,2,when,L2,unsyncopated,when,when,23,Online_whenL2//c.cha7.none.wav,ba,to,bi,sil,ño,du,si,sil1,mi,fe,sil2,['-'],,,none,none,,,,cha,3,,,,,,,,,,,,,,,3.0,2.0,castellano,0.0,catalan,3.0,ingles,5.0,4.0,3.0,no,no,yes,nada,,,,nada ,51.0,yes
152,2024-04-15_12h51.36.127,Experiment4_uns,s182,24.0,feminino,right,españa,castellano,Bachelor degree,no,no,A,2,when,L2,unsyncopated,when,when,24,Online_whenL2//a.du13.0.wav,du,ño,to,sil,me,ra,mi,sil1,bi,ba,sil2,['catch'],[0.8524000000954857],[0.8524000000954857],0.0,beat,0.8524000000954857,0.8524000000954857,"[""space""]",du,2,,,,,,,,,,,,,,,3.0,2.0,castellano,0.0,catalan,3.0,ingles,5.0,4.0,3.0,no,no,yes,nada,,,,nada ,51.0,yes
153,2024-04-15_12h51.36.127,Experiment4_uns,s182,24.0,feminino,right,españa,castellano,Bachelor degree,no,no,A,2,when,L2,unsyncopated,when,when,25,Online_whenL2//a.du12.none.wav,si,bi,fe,sil,ño,mi,su,sil1,ra,me,sil2,['-'],,,none,none,,,,du,2,,,,,,,,,,,,,,,3.0,2.0,castellano,0.0,catalan,3.0,ingles,5.0,4.0,3.0,no,no,yes,nada,,,,nada ,51.0,yes
154,2024-04-15_12h51.36.127,Experiment4_uns,s182,24.0,feminino,right,españa,castellano,Bachelor degree,no,no,A,2,when,L2,unsyncopated,when,when,26,Online_whenL2//a.du14.none.wav,ño,to,bi,sil,ra,mi,me,sil1,ba,fe,sil2,['-'],,,none,none,,,,du,2,,,,,,,,,,,,,,,3.0,2.0,castellano,0.0,catalan,3.0,ingles,5.0,4.0,3.0,no,no,yes,nada,,,,nada ,51.0,yes
155,2024-04-15_12h51.36.127,Experiment4_uns,s182,24.0,feminino,right,españa,castellano,Bachelor degree,no,no,A,2,when,L2,unsyncopated,when,when,27,Online_whenL2//a.du15.1998.wav,su,si,me,sil,ño,te,mi,sil1,go,du,sil2,['catch_delay'],[1.0378000001906604],[1.0378000001906604],1.998,no_beat,1.0378000001906604,1.0378000001906604,,du,2,,,,,,,,,,,,,,,3.0,2.0,castellano,0.0,catalan,3.0,ingles,5.0,4.0,3.0,no,no,yes,nada,,,,nada ,51.0,yes
156,2024-04-15_12h51.36.127,Experiment4_uns,s182,24.0,feminino,right,españa,castellano,Bachelor degree,no,no,A,2,when,L2,unsyncopated,when,when,28,Online_whenL2//c.cha23.none.wav,me,ba,fe,sil,ño,ñu,mi,sil1,go,te,sil2,['-'],[0.3718000001906603],[0.3718000001906603],none,none,,,"[""space""]",cha,3,,,,,,,,,,,,,,,3.0,2.0,castellano,0.0,catalan,3.0,ingles,5.0,4.0,3.0,no,no,yes,nada,,,,nada ,51.0,yes
157,2024-04-15_12h51.36.127,Experiment4_uns,s182,24.0,feminino,right,españa,castellano,Bachelor degree,no,no,A,2,when,L2,unsyncopated,when,when,29,Online_whenL2//c.cha20.none.wav,fe,ño,mi,sil,ra,su,ba,sil1,ñu,to,sil2,['-'],,,none,none,,,,cha,3,,,,,,,,,,,,,,,3.0,2.0,castellano,0.0,catalan,3.0,ingles,5.0,4.0,3.0,no,no,yes,nada,,,,nada ,51.0,yes
158,2024-04-15_12h51.36.127,Experiment4_uns,s182,24.0,feminino,right,españa,castellano,Bachelor degree,no,no,A,2,when,L2,unsyncopated,when,when,30,Online_whenL2//c.cha22.none.wav,ra,to,mi,sil,bi,te,ba,sil1,fe,ñu,sil2,['-'],,,none,none,,,,cha,3,,,,,,,,,,,,,,,3.0,2.0,castellano,0.0,catalan,3.0,ingles,5.0,4.0,3.0,no,no,yes,nada,,,,nada ,51.0,yes
159,2024-04-15_12h51.36.127,Experiment4_uns,s182,24.0,feminino,right,españa,castellano,Bachelor degree,no,no,A,2,when,L2,unsyncopated,when,when,31,Online_whenL2//c.cha21.1998.wav,si,du,ñu,sil,mi,go,to,sil1,ño,cha,sil2,['catch'],[2.5902000002861314],[2.5902000002861314],1.998,no_beat,0.5922000002861314,0.5922000002861314,"[""space""]",cha,3,,,,,,,,,,,,,,,3.0,2.0,castellano,0.0,catalan,3.0,ingles,5.0,4.0,3.0,no,no,yes,nada,,,,nada ,51.0,yes
160,2024-04-15_12h51.36.127,Experiment4_uns,s182,24.0,feminino,right,españa,castellano,Bachelor degree,no,no,A,2,when,L2,unsyncopated,when,when,32,Online_whenL2//d.si19.none.wav,bi,mi,su,sil,me,cha,du,sil1,fe,te,sil2,['-'],,,none,none,,,,si,4,,,,,,,,,,,,,,,3.0,2.0,castellano,0.0,catalan,3.0,ingles,5.0,4.0,3.0,no,no,yes,nada,,,,nada ,51.0,yes
161,2024-04-15_12h51.36.127,Experiment4_uns,s182,24.0,feminino,right,españa,castellano,Bachelor degree,no,no,A,2,when,L2,unsyncopated,when,when,33,Online_whenL2//d.si17.none.wav,mi,su,to,sil,go,ño,du,sil1,cha,ñu,sil2,['false alarm'],[1.1688999996185885],[1.1688999996185885],none,none,,,"[""space""]",si,4,,,,,,,,,,,,,,,3.0,2.0,castellano,0.0,catalan,3.0,ingles,5.0,4.0,3.0,no,no,yes,nada,,,,nada ,51.0,yes
162,2024-04-15_12h51.36.127,Experiment4_uns,s182,24.0,feminino,right,españa,castellano,Bachelor degree,no,no,A,2,when,L2,unsyncopated,when,when,34,Online_whenL2//d.si16.none.wav,su,fe,mi,sil,ño,te,me,sil1,du,ba,sil2,['-'],,,none,none,,,,si,4,,,,,,,,,,,,,,,3.0,2.0,castellano,0.0,catalan,3.0,ingles,5.0,4.0,3.0,no,no,yes,nada,,,,nada ,51.0,yes
163,2024-04-15_12h51.36.127,Experiment4_uns,s182,24.0,feminino,right,españa,castellano,Bachelor degree,no,no,A,2,when,L2,unsyncopated,when,when,35,Online_whenL2//d.si18.222.wav,ñu,si,bi,sil,cha,du,me,sil1,fe,ño,sil2,['catch'],[0.7485999999046271],[0.7485999999046271],0.222,no_beat,0.5265999999046271,0.5265999999046271,"[""space""]",si,4,,,,,,,,,,,,,,,3.0,2.0,castellano,0.0,catalan,3.0,ingles,5.0,4.0,3.0,no,no,yes,nada,,,,nada ,51.0,yes
164,2024-04-15_12h51.36.127,Experiment4_uns,s182,24.0,feminino,right,españa,castellano,Bachelor degree,no,no,A,2,when,L2,unsyncopated,when,when,36,Online_whenL2//d.si25.none.wav,ño,ra,me,sil,to,go,te,sil1,su,mi,sil2,['-'],,,none,none,,,,si,4,,,,,,,,,,,,,,,3.0,2.0,castellano,0.0,catalan,3.0,ingles,5.0,4.0,3.0,no,no,yes,nada,,,,nada ,51.0,yes
165,2024-04-15_12h51.36.127,Experiment4_uns,s182,24.0,feminino,right,españa,castellano,Bachelor degree,no,no,A,2,when,L2,unsyncopated,when,when,37,Online_whenL2//d.si24.1332.wav,me,du,bi,sil,ñu,cha,si,sil1,ra,su,sil2,['catch'],[1.8953000001909004],[1.8953000001909004],1.332,no_beat,0.5633000001909003,0.5633000001909003,"[""space""]",si,4,,,,,,,,,,,,,,,3.0,2.0,castellano,0.0,catalan,3.0,ingles,5.0,4.0,3.0,no,no,yes,nada,,,,nada ,51.0,yes
166,2024-04-15_12h51.36.127,Experiment4_uns,s182,24.0,feminino,right,españa,castellano,Bachelor degree,no,no,A,2,when,L2,unsyncopated,when,when,38,Online_whenL2//d.si27.1110.wav,fe,te,ñu,sil,ño,si,mi,sil1,me,go,sil2,['catch'],[1.7820999999046307],[1.7820999999046307],1.11,no_beat,0.6720999999046307,0.6720999999046307,"[""space""]",si,4,,,,,,,,,,,,,,,3.0,2.0,castellano,0.0,catalan,3.0,ingles,5.0,4.0,3.0,no,no,yes,nada,,,,nada ,51.0,yes
167,2024-04-15_12h51.36.127,Experiment4_uns,s182,24.0,feminino,right,españa,castellano,Bachelor degree,no,no,A,2,when,L2,unsyncopated,when,when,39,Online_whenL2//d.si26.none.wav,ra,ño,cha,sil,to,su,bi,sil1,ñu,fe,sil2,['false alarm'],[2.285799999713845],[2.285799999713845],none,none,,,"[""space""]",si,4,,,,,,,,,,,,,,,3.0,2.0,castellano,0.0,catalan,3.0,ingles,5.0,4.0,3.0,no,no,yes,nada,,,,nada ,51.0,yes
168,2024-04-15_12h51.36.127,Experiment4_uns,s182,24.0,feminino,right,españa,castellano,Bachelor degree,no,no,A,2,when,L2,unsyncopated,when,when,40,Online_whenL2//c.cha25.888.wav,fe,ño,su,sil,cha,te,bi,sil1,me,ra,sil2,['catch'],[1.479200000286255],[1.479200000286255],0.888,beat,0.5912000002862551,0.5912000002862551,"[""space""]",cha,3,,,,,,,,,,,,,,,3.0,2.0,castellano,0.0,catalan,3.0,ingles,5.0,4.0,3.0,no,no,yes,nada,,,,nada ,51.0,yes
169,2024-04-15_12h51.36.127,Experiment4_uns,s182,24.0,feminino,right,españa,castellano,Bachelor degree,no,no,A,2,when,L2,unsyncopated,when,when,41,Online_whenL2//c.cha24.444.wav,me,bi,cha,sil,su,ra,ño,sil1,to,fe,sil2,['catch'],[1.3056999998093488],[1.3056999998093488],0.444,no_beat,0.8616999998093489,0.8616999998093489,"[""space""]",cha,3,,,,,,,,,,,,,,,3.0,2.0,castellano,0.0,catalan,3.0,ingles,5.0,4.0,3.0,no,no,yes,nada,,,,nada ,51.0,yes
170,2024-04-15_12h51.36.127,Experiment4_uns,s182,24.0,feminino,right,españa,castellano,Bachelor degree,no,no,A,2,when,L2,unsyncopated,when,when,42,Online_whenL2//c.cha27.none.wav,bi,fe,mi,sil,te,ra,ño,sil1,to,ñu,sil2,['-'],,,none,none,,,,cha,3,,,,,,,,,,,,,,,3.0,2.0,castellano,0.0,catalan,3.0,ingles,5.0,4.0,3.0,no,no,yes,nada,,,,nada ,51.0,yes
171,2024-04-15_12h51.36.127,Experiment4_uns,s182,24.0,feminino,right,españa,castellano,Bachelor degree,no,no,A,2,when,L2,unsyncopated,when,when,43,Online_whenL2//c.cha26.0.wav,cha,to,ra,sil,go,ñu,ba,sil1,bi,te,sil2,['catch'],[0.6342000002862278],[0.6342000002862278],0.0,beat,0.6342000002862278,0.6342000002862278,"[""space""]",cha,3,,,,,,,,,,,,,,,3.0,2.0,castellano,0.0,catalan,3.0,ingles,5.0,4.0,3.0,no,no,yes,nada,,,,nada ,51.0,yes
172,2024-04-15_12h51.36.127,Experiment4_uns,s182,24.0,feminino,right,españa,castellano,Bachelor degree,no,no,A,2,when,L2,unsyncopated,when,when,44,Online_whenL2//c.cha10.444.wav,mi,su,cha,sil,si,me,go,sil1,ra,ñu,sil2,['catch'],[1.1272999997138413],[1.1272999997138413],0.444,no_beat,0.6832999997138414,0.6832999997138414,"[""space""]",cha,3,,,,,,,,,,,,,,,3.0,2.0,castellano,0.0,catalan,3.0,ingles,5.0,4.0,3.0,no,no,yes,nada,,,,nada ,51.0,yes
173,2024-04-15_12h51.36.127,Experiment4_uns,s182,24.0,feminino,right,españa,castellano,Bachelor degree,no,no,A,2,when,L2,unsyncopated,when,when,45,Online_whenL2//c.cha8.none.wav,mi,si,to,sil,ra,ba,ño,sil1,du,su,sil2,['-'],,,none,none,,,,cha,3,,,,,,,,,,,,,,,3.0,2.0,castellano,0.0,catalan,3.0,ingles,5.0,4.0,3.0,no,no,yes,nada,,,,nada ,51.0,yes
174,2024-04-15_12h51.36.127,Experiment4_uns,s182,24.0,feminino,right,españa,castellano,Bachelor degree,no,no,A,2,when,L2,unsyncopated,when,when,46,Online_whenL2//c.cha11.1998.wav,bi,te,ra,sil,si,su,ñu,sil1,go,cha,sil2,['miss'],,,1.998,no_beat,,,,cha,3,,,,,,,,,,,,,,,3.0,2.0,castellano,0.0,catalan,3.0,ingles,5.0,4.0,3.0,no,no,yes,nada,,,,nada ,51.0,yes
175,2024-04-15_12h51.36.127,Experiment4_uns,s182,24.0,feminino,right,españa,castellano,Bachelor degree,no,no,A,2,when,L2,unsyncopated,when,when,47,Online_whenL2//c.cha9.none.wav,go,ba,ñu,sil,bi,fe,to,sil1,mi,ño,sil2,['-'],,,none,none,,,,cha,3,,,,,,,,,,,,,,,3.0,2.0,castellano,0.0,catalan,3.0,ingles,5.0,4.0,3.0,no,no,yes,nada,,,,nada ,51.0,yes
176,2024-04-15_12h51.36.127,Experiment4_uns,s182,24.0,feminino,right,españa,castellano,Bachelor degree,no,no,A,2,when,L2,unsyncopated,when,when,48,Online_whenL2//b.fe25.888.wav,ba,me,mi,sil,fe,to,bi,sil1,ñu,du,sil2,['catch'],[1.6395999999047035],[1.6395999999047035],0.888,beat,0.7515999999047035,0.7515999999047035,"[""space""]",fe,1,,,,,,,,,,,,,,,3.0,2.0,castellano,0.0,catalan,3.0,ingles,5.0,4.0,3.0,no,no,yes,nada,,,,nada ,51.0,yes
177,2024-04-15_12h51.36.127,Experiment4_uns,s182,24.0,feminino,right,españa,castellano,Bachelor degree,no,no,A,2,when,L2,unsyncopated,when,when,49,Online_whenL2//b.fe27.888.wav,to,cha,su,sil,fe,me,go,sil1,ñu,ño,sil2,['catch'],[1.8312000002861168],[1.8312000002861168],0.888,beat,0.9432000002861168,0.9432000002861168,"[""space""]",fe,1,,,,,,,,,,,,,,,3.0,2.0,castellano,0.0,catalan,3.0,ingles,5.0,4.0,3.0,no,no,yes,nada,,,,nada ,51.0,yes
178,2024-04-15_12h51.36.127,Experiment4_uns,s182,24.0,feminino,right,españa,castellano,Bachelor degree,no,no,A,2,when,L2,unsyncopated,when,when,50,Online_whenL2//b.fe24.888.wav,to,te,ñu,sil,fe,su,bi,sil1,du,mi,sil2,['catch'],[1.727099999904567],[1.727099999904567],0.888,beat,0.8390999999045671,0.8390999999045671,"[""space""]",fe,1,,,,,,,,,,,,,,,3.0,2.0,castellano,0.0,catalan,3.0,ingles,5.0,4.0,3.0,no,no,yes,nada,,,,nada ,51.0,yes
179,2024-04-15_12h51.36.127,Experiment4_uns,s182,24.0,feminino,right,españa,castellano,Bachelor degree,no,no,A,2,when,L2,unsyncopated,when,when,51,Online_whenL2//b.fe26.none.wav,ñu,te,ño,sil,go,mi,me,sil1,du,ba,sil2,['-'],,,none,none,,,,fe,1,,,,,,,,,,,,,,,3.0,2.0,castellano,0.0,catalan,3.0,ingles,5.0,4.0,3.0,no,no,yes,nada,,,,nada ,51.0,yes
180,2024-04-15_12h51.36.127,Experiment4_uns,s182,24.0,feminino,right,españa,castellano,Bachelor degree,no,no,A,2,when,L2,unsyncopated,when,when,52,Online_whenL2//d.si13.444.wav,go,ñu,si,sil,bi,to,ño,sil1,fe,mi,sil2,['catch'],[1.0074000000954584],[1.0074000000954584],0.444,no_beat,0.5634000000954584,0.5634000000954584,"[""space""]",si,4,,,,,,,,,,,,,,,3.0,2.0,castellano,0.0,catalan,3.0,ingles,5.0,4.0,3.0,no,no,yes,nada,,,,nada ,51.0,yes
181,2024-04-15_12h51.36.127,Experiment4_uns,s182,24.0,feminino,right,españa,castellano,Bachelor degree,no,no,A,2,when,L2,unsyncopated,when,when,53,Online_whenL2//d.si15.1332.wav,mi,ño,ba,sil,ra,fe,si,sil1,ñu,me,sil2,['catch'],[2.1330999999047435],[2.1330999999047435],1.332,no_beat,0.8010999999047435,0.8010999999047435,"[""space""]",si,4,,,,,,,,,,,,,,,3.0,2.0,castellano,0.0,catalan,3.0,ingles,5.0,4.0,3.0,no,no,yes,nada,,,,nada ,51.0,yes
182,2024-04-15_12h51.36.127,Experiment4_uns,s182,24.0,feminino,right,españa,castellano,Bachelor degree,no,no,A,2,when,L2,unsyncopated,when,when,54,Online_whenL2//d.si14.1332.wav,ba,te,bi,sil,go,su,si,sil1,du,ñu,sil2,['catch'],[1.831800000190924],[1.831800000190924],1.332,no_beat,0.4998000001909239,0.4998000001909239,"[""space""]",si,4,,,,,,,,,,,,,,,3.0,2.0,castellano,0.0,catalan,3.0,ingles,5.0,4.0,3.0,no,no,yes,nada,,,,nada ,51.0,yes
183,2024-04-15_12h51.36.127,Experiment4_uns,s182,24.0,feminino,right,españa,castellano,Bachelor degree,no,no,A,2,when,L2,unsyncopated,when,when,55,Online_whenL2//d.si12.1776.wav,mi,du,to,sil,go,ño,bi,sil1,si,cha,sil2,['catch'],[2.3351999998092197],[2.3351999998092197],1.776,beat,0.5591999998092196,0.5591999998092196,"[""space""]",si,4,,,,,,,,,,,,,,,3.0,2.0,castellano,0.0,catalan,3.0,ingles,5.0,4.0,3.0,no,no,yes,nada,,,,nada ,51.0,yes
184,2024-04-15_12h51.36.127,Experiment4_uns,s182,24.0,feminino,right,españa,castellano,Bachelor degree,no,no,A,2,when,L2,unsyncopated,when,when,56,Online_whenL2//b.fe20.1332.wav,cha,ño,du,sil,si,me,fe,sil1,te,mi,sil2,['catch'],[2.285000000000082],[2.285000000000082],1.332,no_beat,0.9530000000000818,0.9530000000000818,"[""space""]",fe,1,,,,,,,,,,,,,,,3.0,2.0,castellano,0.0,catalan,3.0,ingles,5.0,4.0,3.0,no,no,yes,nada,,,,nada ,51.0,yes
185,2024-04-15_12h51.36.127,Experiment4_uns,s182,24.0,feminino,right,españa,castellano,Bachelor degree,no,no,A,2,when,L2,unsyncopated,when,when,57,Online_whenL2//b.fe22.none.wav,ño,ra,go,sil,ñu,bi,su,sil1,to,te,sil2,['-'],,,none,none,,,,fe,1,,,,,,,,,,,,,,,3.0,2.0,castellano,0.0,catalan,3.0,ingles,5.0,4.0,3.0,no,no,yes,nada,,,,nada ,51.0,yes
186,2024-04-15_12h51.36.127,Experiment4_uns,s182,24.0,feminino,right,españa,castellano,Bachelor degree,no,no,A,2,when,L2,unsyncopated,when,when,58,Online_whenL2//b.fe23.none.wav,me,ba,du,sil,ra,to,bi,sil1,si,ñu,sil2,['-'],,,none,none,,,,fe,1,,,,,,,,,,,,,,,3.0,2.0,castellano,0.0,catalan,3.0,ingles,5.0,4.0,3.0,no,no,yes,nada,,,,nada ,51.0,yes
187,2024-04-15_12h51.36.127,Experiment4_uns,s182,24.0,feminino,right,españa,castellano,Bachelor degree,no,no,A,2,when,L2,unsyncopated,when,when,59,Online_whenL2//b.fe21.1332.wav,ñu,mi,go,sil,te,su,fe,sil1,me,cha,sil2,['catch'],[2.1441999998091887],[2.1441999998091887],1.332,no_beat,0.8121999998091887,0.8121999998091887,"[""space""]",fe,1,,,,,,,,,,,,,,,3.0,2.0,castellano,0.0,catalan,3.0,ingles,5.0,4.0,3.0,no,no,yes,nada,,,,nada ,51.0,yes
188,2024-04-15_12h51.36.127,Experiment4_uns,s182,24.0,feminino,right,españa,castellano,Bachelor degree,no,no,A,2,when,L2,unsyncopated,when,when,60,Online_whenL2//c.cha2.none.wav,si,me,ra,sil,bi,te,ño,sil1,go,to,sil2,['-'],,,none,none,,,,cha,3,,,,,,,,,,,,,,,3.0,2.0,castellano,0.0,catalan,3.0,ingles,5.0,4.0,3.0,no,no,yes,nada,,,,nada ,51.0,yes
189,2024-04-15_12h51.36.127,Experiment4_uns,s182,24.0,feminino,right,españa,castellano,Bachelor degree,no,no,A,2,when,L2,unsyncopated,when,when,61,Online_whenL2//c.cha3.1998.wav,te,to,bi,sil,du,ra,ño,sil1,su,cha,sil2,['catch'],[2.5319999999999254],[2.5319999999999254],1.998,no_beat,0.5339999999999254,0.5339999999999254,"[""space""]",cha,3,,,,,,,,,,,,,,,3.0,2.0,castellano,0.0,catalan,3.0,ingles,5.0,4.0,3.0,no,no,yes,nada,,,,nada ,51.0,yes
190,2024-04-15_12h51.36.127,Experiment4_uns,s182,24.0,feminino,right,españa,castellano,Bachelor degree,no,no,A,2,when,L2,unsyncopated,when,when,62,Online_whenL2//c.cha1.1332.wav,bi,ba,te,sil,me,ñu,cha,sil1,go,fe,sil2,['catch'],[2.0751999998092288],[2.0751999998092288],1.332,no_beat,0.7431999998092287,0.7431999998092287,"[""space""]",cha,3,,,,,,,,,,,,,,,3.0,2.0,castellano,0.0,catalan,3.0,ingles,5.0,4.0,3.0,no,no,yes,nada,,,,nada ,51.0,yes
191,2024-04-15_12h51.36.127,Experiment4_uns,s182,24.0,feminino,right,españa,castellano,Bachelor degree,no,no,A,2,when,L2,unsyncopated,when,when,63,Online_whenL2//c.cha0.1332.wav,mi,ñu,bi,sil,fe,to,cha,sil1,ra,su,sil2,['catch'],[2.008600000381648],[2.008600000381648],1.332,no_beat,0.6766000003816479,0.6766000003816479,"[""space""]",cha,3,,,,,,,,,,,,,,,3.0,2.0,castellano,0.0,catalan,3.0,ingles,5.0,4.0,3.0,no,no,yes,nada,,,,nada ,51.0,yes
192,2024-04-15_12h51.36.127,Experiment4_uns,s182,24.0,feminino,right,españa,castellano,Bachelor degree,no,no,A,2,when,L2,unsyncopated,when,when,64,Online_whenL2//a.du27.none.wav,su,go,bi,sil,fe,to,ño,sil1,si,te,sil2,['-'],,,none,none,,,,du,2,,,,,,,,,,,,,,,3.0,2.0,castellano,0.0,catalan,3.0,ingles,5.0,4.0,3.0,no,no,yes,nada,,,,nada ,51.0,yes
193,2024-04-15_12h51.36.127,Experiment4_uns,s182,24.0,feminino,right,españa,castellano,Bachelor degree,no,no,A,2,when,L2,unsyncopated,when,when,65,Online_whenL2//a.du25.444.wav,ñu,cha,du,sil,mi,su,si,sil1,go,me,sil2,['catch'],[1.0688000001905493],[1.0688000001905493],0.444,no_beat,0.6248000001905494,0.6248000001905494,"[""space""]",du,2,,,,,,,,,,,,,,,3.0,2.0,castellano,0.0,catalan,3.0,ingles,5.0,4.0,3.0,no,no,yes,nada,,,,nada ,51.0,yes
194,2024-04-15_12h51.36.127,Experiment4_uns,s182,24.0,feminino,right,españa,castellano,Bachelor degree,no,no,A,2,when,L2,unsyncopated,when,when,66,Online_whenL2//a.du26.none.wav,bi,ra,te,sil,ba,si,ño,sil1,go,to,sil2,['-'],,,none,none,,,,du,2,,,,,,,,,,,,,,,3.0,2.0,castellano,0.0,catalan,3.0,ingles,5.0,4.0,3.0,no,no,yes,nada,,,,nada ,51.0,yes
195,2024-04-15_12h51.36.127,Experiment4_uns,s182,24.0,feminino,right,españa,castellano,Bachelor degree,no,no,A,2,when,L2,unsyncopated,when,when,67,Online_whenL2//a.du24.222.wav,me,du,to,sil,su,te,ra,sil1,bi,ñu,sil2,['catch'],[0.9541000003816862],[0.9541000003816862],0.222,no_beat,0.7321000003816862,0.7321000003816862,"[""space""]",du,2,,,,,,,,,,,,,,,3.0,2.0,castellano,0.0,catalan,3.0,ingles,5.0,4.0,3.0,no,no,yes,nada,,,,nada ,51.0,yes
196,2024-04-15_12h51.36.127,Experiment4_uns,s182,24.0,feminino,right,españa,castellano,Bachelor degree,no,no,A,2,when,L2,unsyncopated,when,when,68,Online_whenL2//a.du4.1998.wav,cha,si,go,sil,mi,ñu,me,sil1,su,du,sil2,['catch'],[2.5673000001906985],[2.5673000001906985],1.998,no_beat,0.5693000001906985,0.5693000001906985,"[""space""]",du,2,,,,,,,,,,,,,,,3.0,2.0,castellano,0.0,catalan,3.0,ingles,5.0,4.0,3.0,no,no,yes,nada,,,,nada ,51.0,yes
197,2024-04-15_12h51.36.127,Experiment4_uns,s182,24.0,feminino,right,españa,castellano,Bachelor degree,no,no,A,2,when,L2,unsyncopated,when,when,69,Online_whenL2//a.du5.1110.wav,bi,ño,ra,sil,ba,du,mi,sil1,to,ñu,sil2,['catch'],[2.423199999809185],[2.423199999809185],1.11,no_beat,,1.313199999809185,"[""space""]",du,2,,,,,,,,,,,,,,,3.0,2.0,castellano,0.0,catalan,3.0,ingles,5.0,4.0,3.0,no,no,yes,nada,,,,nada ,51.0,yes
198,2024-04-15_12h51.36.127,Experiment4_uns,s182,24.0,feminino,right,españa,castellano,Bachelor degree,no,no,A,2,when,L2,unsyncopated,when,when,70,Online_whenL2//a.du6.888.wav,me,si,bi,sil,du,mi,cha,sil1,te,fe,sil2,['catch'],[1.6265999999047835],[1.6265999999047835],0.888,beat,0.7385999999047835,0.7385999999047835,"[""space""]",du,2,,,,,,,,,,,,,,,3.0,2.0,castellano,0.0,catalan,3.0,ingles,5.0,4.0,3.0,no,no,yes,nada,,,,nada ,51.0,yes
199,2024-04-15_12h51.36.127,Experiment4_uns,s182,24.0,feminino,right,españa,castellano,Bachelor degree,no,no,A,2,when,L2,unsyncopated,when,when,71,Online_whenL2//a.du7.0.wav,du,ño,te,sil,ñu,to,mi,sil1,su,fe,sil2,['catch'],[0.97199999999998],[0.97199999999998],0.0,beat,0.97199999999998,0.97199999999998,"[""space""]",du,2,,,,,,,,,,,,,,,3.0,2.0,castellano,0.0,catalan,3.0,ingles,5.0,4.0,3.0,no,no,yes,nada,,,,nada ,51.0,yes
200,2024-04-15_12h51.36.127,Experiment4_uns,s182,24.0,feminino,right,españa,castellano,Bachelor degree,no,no,A,2,when,L2,unsyncopated,when,when,72,Online_whenL2//d.si10.none.wav,to,bi,fe,sil,me,mi,ra,sil1,ba,cha,sil2,['-'],,,none,none,,,,si,4,,,,,,,,,,,,,,,3.0,2.0,castellano,0.0,catalan,3.0,ingles,5.0,4.0,3.0,no,no,yes,nada,,,,nada ,51.0,yes
201,2024-04-15_12h51.36.127,Experiment4_uns,s182,24.0,feminino,right,españa,castellano,Bachelor degree,no,no,A,2,when,L2,unsyncopated,when,when,73,Online_whenL2//d.si11.none.wav,to,mi,me,sil,ra,ñu,cha,sil1,su,du,sil2,['-'],,,none,none,,,,si,4,,,,,,,,,,,,,,,3.0,2.0,castellano,0.0,catalan,3.0,ingles,5.0,4.0,3.0,no,no,yes,nada,,,,nada ,51.0,yes
202,2024-04-15_12h51.36.127,Experiment4_uns,s182,24.0,feminino,right,españa,castellano,Bachelor degree,no,no,A,2,when,L2,unsyncopated,when,when,74,Online_whenL2//d.si8.none.wav,ñu,su,fe,sil,ra,ño,me,sil1,cha,mi,sil2,['-'],,,none,none,,,,si,4,,,,,,,,,,,,,,,3.0,2.0,castellano,0.0,catalan,3.0,ingles,5.0,4.0,3.0,no,no,yes,nada,,,,nada ,51.0,yes
203,2024-04-15_12h51.36.127,Experiment4_uns,s182,24.0,feminino,right,españa,castellano,Bachelor degree,no,no,A,2,when,L2,unsyncopated,when,when,75,Online_whenL2//d.si9.none.wav,du,su,to,sil,ba,ra,mi,sil1,te,ño,sil2,['-'],,,none,none,,,,si,4,,,,,,,,,,,,,,,3.0,2.0,castellano,0.0,catalan,3.0,ingles,5.0,4.0,3.0,no,no,yes,nada,,,,nada ,51.0,yes
204,2024-04-15_12h51.36.127,Experiment4_uns,s182,24.0,feminino,right,españa,castellano,Bachelor degree,no,no,A,2,when,L2,unsyncopated,when,when,76,Online_whenL2//d.si3.444.wav,bi,su,si,sil,go,mi,ba,sil1,ñu,du,sil2,['catch'],[0.9549000000954493],[0.9549000000954493],0.444,no_beat,0.5109000000954493,0.5109000000954493,"[""space""]",si,4,,,,,,,,,,,,,,,3.0,2.0,castellano,0.0,catalan,3.0,ingles,5.0,4.0,3.0,no,no,yes,nada,,,,nada ,51.0,yes
205,2024-04-15_12h51.36.127,Experiment4_uns,s182,24.0,feminino,right,españa,castellano,Bachelor degree,no,no,A,2,when,L2,unsyncopated,when,when,77,Online_whenL2//d.si1.444.wav,ra,cha,si,sil,te,du,mi,sil1,su,bi,sil2,['catch'],[1.0233999996185048],[1.0233999996185048],0.444,no_beat,0.5793999996185049,0.5793999996185049,"[""space""]",si,4,,,,,,,,,,,,,,,3.0,2.0,castellano,0.0,catalan,3.0,ingles,5.0,4.0,3.0,no,no,yes,nada,,,,nada ,51.0,yes
206,2024-04-15_12h51.36.127,Experiment4_uns,s182,24.0,feminino,right,españa,castellano,Bachelor degree,no,no,A,2,when,L2,unsyncopated,when,when,78,Online_whenL2//d.si2.0.wav,si,me,fe,sil,to,ba,ñu,sil1,su,ra,sil2,['catch'],[0.7660999999045544],[0.7660999999045544],0.0,beat,0.7660999999045544,0.7660999999045544,"[""space""]",si,4,,,,,,,,,,,,,,,3.0,2.0,castellano,0.0,catalan,3.0,ingles,5.0,4.0,3.0,no,no,yes,nada,,,,nada ,51.0,yes
207,2024-04-15_12h51.36.127,Experiment4_uns,s182,24.0,feminino,right,españa,castellano,Bachelor degree,no,no,A,2,when,L2,unsyncopated,when,when,79,Online_whenL2//d.si0.none.wav,ño,fe,go,sil,bi,te,cha,sil1,mi,to,sil2,['-'],,,none,none,,,,si,4,,,,,,,,,,,,,,,3.0,2.0,castellano,0.0,catalan,3.0,ingles,5.0,4.0,3.0,no,no,yes,nada,,,,nada ,51.0,yes
208,2024-04-15_12h51.36.127,Experiment4_uns,s182,24.0,feminino,right,españa,castellano,Bachelor degree,no,no,A,2,when,L2,unsyncopated,when,when,80,Online_whenL2//d.si20.1998.wav,ba,mi,ñu,sil,cha,to,go,sil1,ra,si,sil2,['miss'],,,1.998,no_beat,,,,si,4,,,,,,,,,,,,,,,3.0,2.0,castellano,0.0,catalan,3.0,ingles,5.0,4.0,3.0,no,no,yes,nada,,,,nada ,51.0,yes
209,2024-04-15_12h51.36.127,Experiment4_uns,s182,24.0,feminino,right,españa,castellano,Bachelor degree,no,no,A,2,when,L2,unsyncopated,when,when,81,Online_whenL2//d.si23.none.wav,to,mi,ba,sil,go,du,ñu,sil1,te,ño,sil2,['-'],,,none,none,,,,si,4,,,,,,,,,,,,,,,3.0,2.0,castellano,0.0,catalan,3.0,ingles,5.0,4.0,3.0,no,no,yes,nada,,,,nada ,51.0,yes
210,2024-04-15_12h51.36.127,Experiment4_uns,s182,24.0,feminino,right,españa,castellano,Bachelor degree,no,no,A,2,when,L2,unsyncopated,when,when,82,Online_whenL2//d.si22.none.wav,te,du,fe,sil,cha,su,ñu,sil1,me,ba,sil2,['-'],,,none,none,,,,si,4,,,,,,,,,,,,,,,3.0,2.0,castellano,0.0,catalan,3.0,ingles,5.0,4.0,3.0,no,no,yes,nada,,,,nada ,51.0,yes
211,2024-04-15_12h51.36.127,Experiment4_uns,s182,24.0,feminino,right,españa,castellano,Bachelor degree,no,no,A,2,when,L2,unsyncopated,when,when,83,Online_whenL2//d.si21.none.wav,te,me,bi,sil,go,ñu,to,sil1,ra,ño,sil2,['-'],,,none,none,,,,si,4,,,,,,,,,,,,,,,3.0,2.0,castellano,0.0,catalan,3.0,ingles,5.0,4.0,3.0,no,no,yes,nada,,,,nada ,51.0,yes
212,2024-04-15_12h51.36.127,Experiment4_uns,s182,24.0,feminino,right,españa,castellano,Bachelor degree,no,no,A,2,when,L2,unsyncopated,when,when,84,Online_whenL2//c.cha15.none.wav,si,su,ñu,sil,mi,ba,ra,sil1,to,go,sil2,['-'],,,none,none,,,,cha,3,,,,,,,,,,,,,,,3.0,2.0,castellano,0.0,catalan,3.0,ingles,5.0,4.0,3.0,no,no,yes,nada,,,,nada ,51.0,yes
213,2024-04-15_12h51.36.127,Experiment4_uns,s182,24.0,feminino,right,españa,castellano,Bachelor degree,no,no,A,2,when,L2,unsyncopated,when,when,85,Online_whenL2//c.cha13.888.wav,te,me,ba,sil,cha,bi,si,sil1,fe,du,sil2,['catch'],[1.7345999999047308],[1.7345999999047308],0.888,beat,0.8465999999047308,0.8465999999047308,"[""space""]",cha,3,,,,,,,,,,,,,,,3.0,2.0,castellano,0.0,catalan,3.0,ingles,5.0,4.0,3.0,no,no,yes,nada,,,,nada ,51.0,yes
214,2024-04-15_12h51.36.127,Experiment4_uns,s182,24.0,feminino,right,españa,castellano,Bachelor degree,no,no,A,2,when,L2,unsyncopated,when,when,86,Online_whenL2//c.cha14.none.wav,go,te,ñu,sil,mi,bi,ba,sil1,ño,du,sil2,['-'],,,none,none,,,,cha,3,,,,,,,,,,,,,,,3.0,2.0,castellano,0.0,catalan,3.0,ingles,5.0,4.0,3.0,no,no,yes,nada,,,,nada ,51.0,yes
215,2024-04-15_12h51.36.127,Experiment4_uns,s182,24.0,feminino,right,españa,castellano,Bachelor degree,no,no,A,2,when,L2,unsyncopated,when,when,87,Online_whenL2//c.cha12.444.wav,du,ba,cha,sil,te,bi,ño,sil1,ñu,fe,sil2,['catch'],[1.102099999904567],[1.102099999904567],0.444,no_beat,0.6580999999045671,0.6580999999045671,"[""space""]",cha,3,,,,,,,,,,,,,,,3.0,2.0,castellano,0.0,catalan,3.0,ingles,5.0,4.0,3.0,no,no,yes,nada,,,,nada ,51.0,yes
216,2024-04-15_12h51.36.127,Experiment4_uns,s182,24.0,feminino,right,españa,castellano,Bachelor degree,no,no,A,2,when,L2,unsyncopated,when,when,88,Online_whenL2//b.fe16.1998.wav,cha,ba,te,sil,ra,ño,si,sil1,me,fe,sil2,['catch'],[2.59759999990456],[2.59759999990456],1.998,no_beat,0.5995999999045598,0.5995999999045598,"[""space""]",fe,1,,,,,,,,,,,,,,,3.0,2.0,castellano,0.0,catalan,3.0,ingles,5.0,4.0,3.0,no,no,yes,nada,,,,nada ,51.0,yes
217,2024-04-15_12h51.36.127,Experiment4_uns,s182,24.0,feminino,right,españa,castellano,Bachelor degree,no,no,A,2,when,L2,unsyncopated,when,when,89,Online_whenL2//b.fe19.none.wav,ño,ra,su,sil,cha,du,to,sil1,si,me,sil2,['-'],,,none,none,,,,fe,1,,,,,,,,,,,,,,,3.0,2.0,castellano,0.0,catalan,3.0,ingles,5.0,4.0,3.0,no,no,yes,nada,,,,nada ,51.0,yes
218,2024-04-15_12h51.36.127,Experiment4_uns,s182,24.0,feminino,right,españa,castellano,Bachelor degree,no,no,A,2,when,L2,unsyncopated,when,when,90,Online_whenL2//b.fe18.none.wav,mi,go,su,sil,ba,ra,si,sil1,cha,bi,sil2,['-'],,,none,none,,,,fe,1,,,,,,,,,,,,,,,3.0,2.0,castellano,0.0,catalan,3.0,ingles,5.0,4.0,3.0,no,no,yes,nada,,,,nada ,51.0,yes
219,2024-04-15_12h51.36.127,Experiment4_uns,s182,24.0,feminino,right,españa,castellano,Bachelor degree,no,no,A,2,when,L2,unsyncopated,when,when,91,Online_whenL2//b.fe17.222.wav,te,fe,ño,sil,su,mi,ra,sil1,si,ñu,sil2,['catch'],[0.9143000001906785],[0.9143000001906785],0.222,no_beat,0.6923000001906785,0.6923000001906785,"[""space""]",fe,1,,,,,,,,,,,,,,,3.0,2.0,castellano,0.0,catalan,3.0,ingles,5.0,4.0,3.0,no,no,yes,nada,,,,nada ,51.0,yes
220,2024-04-15_12h51.36.127,Experiment4_uns,s182,24.0,feminino,right,españa,castellano,Bachelor degree,no,no,A,2,when,L2,unsyncopated,when,when,92,Online_whenL2//a.du20.none.wav,su,go,te,sil,ra,si,bi,sil1,ñu,cha,sil2,['-'],,,none,none,,,,du,2,,,,,,,,,,,,,,,3.0,2.0,castellano,0.0,catalan,3.0,ingles,5.0,4.0,3.0,no,no,yes,nada,,,,nada ,51.0,yes
221,2024-04-15_12h51.36.127,Experiment4_uns,s182,24.0,feminino,right,españa,castellano,Bachelor degree,no,no,A,2,when,L2,unsyncopated,when,when,93,Online_whenL2//a.du23.888.wav,si,fe,to,sil,du,su,ño,sil1,me,ba,sil2,['catch'],[1.6244000000954202],[1.6244000000954202],0.888,beat,0.7364000000954202,0.7364000000954202,"[""space""]",du,2,,,,,,,,,,,,,,,3.0,2.0,castellano,0.0,catalan,3.0,ingles,5.0,4.0,3.0,no,no,yes,nada,,,,nada ,51.0,yes
222,2024-04-15_12h51.36.127,Experiment4_uns,s182,24.0,feminino,right,españa,castellano,Bachelor degree,no,no,A,2,when,L2,unsyncopated,when,when,94,Online_whenL2//a.du22.444.wav,me,fe,du,sil,to,ba,te,sil1,su,ñu,sil2,['miss'],,,0.444,no_beat,,,,du,2,,,,,,,,,,,,,,,3.0,2.0,castellano,0.0,catalan,3.0,ingles,5.0,4.0,3.0,no,no,yes,nada,,,,nada ,51.0,yes
223,2024-04-15_12h51.36.127,Experiment4_uns,s182,24.0,feminino,right,españa,castellano,Bachelor degree,no,no,A,2,when,L2,unsyncopated,when,when,95,Online_whenL2//a.du21.none.wav,cha,si,bi,sil,ñu,ra,ño,sil1,ba,go,sil2,['-'],,,none,none,,,,du,2,,,,,,,,,,,,,,,3.0,2.0,castellano,0.0,catalan,3.0,ingles,5.0,4.0,3.0,no,no,yes,nada,,,,nada ,51.0,yes
224,2024-04-15_12h51.36.127,Experiment4_uns,s182,24.0,feminino,right,españa,castellano,Bachelor degree,no,no,A,2,when,L2,unsyncopated,when,when,96,Online_whenL2//a.du1.none.wav,bi,si,fe,sil,mi,ra,ba,sil1,su,me,sil2,['-'],,,none,none,,,,du,2,,,,,,,,,,,,,,,3.0,2.0,castellano,0.0,catalan,3.0,ingles,5.0,4.0,3.0,no,no,yes,nada,,,,nada ,51.0,yes
225,2024-04-15_12h51.36.127,Experiment4_uns,s182,24.0,feminino,right,españa,castellano,Bachelor degree,no,no,A,2,when,L2,unsyncopated,when,when,97,Online_whenL2//a.du3.none.wav,me,mi,te,sil,cha,go,ñu,sil1,fe,si,sil2,['-'],,,none,none,,,,du,2,,,,,,,,,,,,,,,3.0,2.0,castellano,0.0,catalan,3.0,ingles,5.0,4.0,3.0,no,no,yes,nada,,,,nada ,51.0,yes
226,2024-04-15_12h51.36.127,Experiment4_uns,s182,24.0,feminino,right,españa,castellano,Bachelor degree,no,no,A,2,when,L2,unsyncopated,when,when,98,Online_whenL2//a.du2.0.wav,du,me,si,sil,mi,to,go,sil1,cha,bi,sil2,['catch'],[0.7129999999999654],[0.7129999999999654],0.0,beat,0.7129999999999654,0.7129999999999654,"[""space""]",du,2,,,,,,,,,,,,,,,3.0,2.0,castellano,0.0,catalan,3.0,ingles,5.0,4.0,3.0,no,no,yes,nada,,,,nada ,51.0,yes
227,2024-04-15_12h51.36.127,Experiment4_uns,s182,24.0,feminino,right,españa,castellano,Bachelor degree,no,no,A,2,when,L2,unsyncopated,when,when,99,Online_whenL2//a.du0.888.wav,ñu,ba,ra,sil,du,su,ño,sil1,cha,te,sil2,['catch'],[1.9866999998091615],[1.9866999998091615],0.888,beat,1.0986999998091616,1.0986999998091616,"[""space""]",du,2,,,,,,,,,,,,,,,3.0,2.0,castellano,0.0,catalan,3.0,ingles,5.0,4.0,3.0,no,no,yes,nada,,,,nada ,51.0,yes
228,2024-04-15_12h51.36.127,Experiment4_uns,s182,24.0,feminino,right,españa,castellano,Bachelor degree,no,no,A,2,when,L2,unsyncopated,when,when,100,Online_whenL2//a.du8.none.wav,ño,su,to,sil,go,te,bi,sil1,ra,si,sil2,['-'],,,none,none,,,,du,2,,,,,,,,,,,,,,,3.0,2.0,castellano,0.0,catalan,3.0,ingles,5.0,4.0,3.0,no,no,yes,nada,,,,nada ,51.0,yes
229,2024-04-15_12h51.36.127,Experiment4_uns,s182,24.0,feminino,right,españa,castellano,Bachelor degree,no,no,A,2,when,L2,unsyncopated,when,when,101,Online_whenL2//a.du9.1332.wav,bi,cha,su,sil,ñu,ba,du,sil1,ra,me,sil2,['catch'],[2.057799999714007],[2.057799999714007],1.332,no_beat,0.7257999997140068,0.7257999997140068,"[""space""]",du,2,,,,,,,,,,,,,,,3.0,2.0,castellano,0.0,catalan,3.0,ingles,5.0,4.0,3.0,no,no,yes,nada,,,,nada ,51.0,yes
