Unnamed: 0,date,expName,participant,age,sex,hand,residence,native_lang,education_level,lang_deficit,aud_deficit,group,block,condition,language,rhythm,rule structure online,rule type online,order_trial_on,trial_online,s1,s2,s3,s4,s5,s6,s7,s8,s9,s10,s11,catch_syll_resp,rts_syll_catch,clean_rts,time_syll,beat_no_beat,catch_rtsTR,catch_rts,syllable_catch.keys,cond_syll,syll_to_catch,test_offline,block_off,condition_off,rhythm_off,rule,rule_str_off,rule_norule,conds_offline,language_off,Partz_no_partm.keys,Partz_no_partm.rt,security_1_7.keys,accuracy,security_1_7.rt,n_lang,n_lang_used,lang_1,age_l1,lang_2,age_l2,lang_3,age_l3,ability_learn_l2,tendence_mix_lan,music_experience,muisc_use,partiture,instr_1,age_M1,instr_2,age_M2,preguntas_musica1,BMRQ_answer.response,final comment,BMRQ_Score,bilingual
0,2023-10-30_18h41.49.248,Unsyncopated1,s27,20.0,feminino,right,España,catalán y castellano,Bachelor degree,no,no,B,1,what,L2,unsyncopated,s2,r2,0,Online_whatL2//d.si.ñu7.1332.0.wav,ñu,to,me,sil,fe,su,si,sil1,ra,bi,sil2,['catch'],[0.84310000002381],[0.84310000002381],0.0,beat,0.84310000002381,0.84310000002381,"[""space""]",ñu,4,testWhatL2Uns//cat_viol.r1.s1.0.wav,1.0,what,unsyncopated,a,s1,no_rule,cat,L2,m,3.9144,3.0,1.0,4.0203,3.0,2 ,catalán,0.0,castellano,0.0,inglés,3.0,3.0,2.0,yes,no,no,flauta,12,guitarra,12,1. Cuando comparto música con alguien siento una complicidad especial con aquella persona.,4.0,nada,82.0,yes
1,2023-10-30_18h41.49.248,Unsyncopated1,s27,20.0,feminino,right,España,catalán y castellano,Bachelor degree,no,no,B,1,what,L2,unsyncopated,s1,r2,1,Online_whatL2//d.si.ñu4.1776.1110.wav,fe,su,to,sil,ra,ñu,cha,sil1,si,me,sil2,['catch'],[2.303699999988055],[2.303699999988055],1.11,no_beat,1.1936999999880549,1.1936999999880549,"[""space""]",ñu,4,testWhatL2Uns//time_viol.r1.s2.0.wav,1.0,what,unsyncopated,a,s2,no_rule,time,L2,z,0.5532,5.0,0.0,3.201,3.0,2 ,catalán,0.0,castellano,0.0,inglés,3.0,3.0,2.0,yes,no,no,flauta,12,guitarra,12,2. En mi tiempo libre apenas escucho música.,5.0,nada,82.0,yes
2,2023-10-30_18h41.49.248,Unsyncopated1,s27,20.0,feminino,right,España,catalán y castellano,Bachelor degree,no,no,B,1,what,L2,unsyncopated,s1,r1,2,Online_whatL2//d.si.ñu5.none.none.wav,go,to,me,sil2,du,mi,ño,sil,ba,su,sil1,['-'],,,none,none,,,,ñu,4,testWhatL2Uns//r2.s1.0.wav,1.0,what,unsyncopated,b,s1,rule,rule,L2,z,0.6171,4.0,1.0,3.2008,3.0,2 ,catalán,0.0,castellano,0.0,inglés,3.0,3.0,2.0,yes,no,no,flauta,12,guitarra,12,3. Algunas canciones me ponen los pelos de punta,4.0,nada,82.0,yes
3,2023-10-30_18h41.49.248,Unsyncopated1,s27,20.0,feminino,right,España,catalán y castellano,Bachelor degree,no,no,B,1,what,L2,unsyncopated,s2,r1,3,Online_whatL2//d.si.ñu6.none.none.wav,te,me,mi,sil2,go,su,to,sil,du,bi,sil1,['-'],,,none,none,,,,ñu,4,testWhatL2Uns//r1.s2.2.wav,1.0,what,unsyncopated,a,s2,rule,rule,L2,m,0.5168,3.0,0.0,2.475,3.0,2 ,catalán,0.0,castellano,0.0,inglés,3.0,3.0,2.0,yes,no,no,flauta,12,guitarra,12,4. La música me hace compañía cuando estoy solo,4.0,nada,82.0,yes
4,2023-10-30_18h41.49.248,Unsyncopated1,s27,20.0,feminino,right,España,catalán y castellano,Bachelor degree,no,no,B,1,what,L2,unsyncopated,s1,r2,4,Online_whatL2//b.fe.ra31.0.888.wav,fe,bi,to,sil,ra,ño,me,sil1,su,te,sil2,['catch'],[1.4851999999880832],[1.4851999999880832],0.888,beat,0.5971999999880832,0.5971999999880832,"[""space""]",ra,2,testWhatL2Uns//r2.s2.1.wav,1.0,what,unsyncopated,b,s2,rule,rule,L2,m,0.2674,5.0,0.0,3.0188,3.0,2 ,catalán,0.0,castellano,0.0,inglés,3.0,3.0,2.0,yes,no,no,flauta,12,guitarra,12,5. No me apetece bailar ni con la música que más me gusta,5.0,nada,82.0,yes
5,2023-10-30_18h41.49.248,Unsyncopated1,s27,20.0,feminino,right,España,catalán y castellano,Bachelor degree,no,no,B,1,what,L2,unsyncopated,s2,r1,5,Online_whatL2//b.fe.ra30.none.none.wav,si,cha,bi,sil,go,ba,to,sil1,du,me,sil2,['-'],,,none,none,,,,ra,2,testWhatL2Uns//r1.s1.0.wav,1.0,what,unsyncopated,a,s1,rule,rule,L2,m,0.3342,5.0,0.0,0.9507,3.0,2 ,catalán,0.0,castellano,0.0,inglés,3.0,3.0,2.0,yes,no,no,flauta,12,guitarra,12,6. La música me hace conectar con la gente,4.0,nada,82.0,yes
6,2023-10-30_18h41.49.248,Unsyncopated1,s27,20.0,feminino,right,España,catalán y castellano,Bachelor degree,no,no,B,1,what,L2,unsyncopated,s1,r2,6,Online_whatL2//b.fe.ra28.0.888.wav,fe,me,mi,sil,ra,cha,bi,sil2,su,to,sil1,['catch'],[1.388099999964254],[1.388099999964254],0.888,beat,0.500099999964254,0.500099999964254,"[""space""]",ra,2,testWhatL2Uns//cat_viol.r2.s2.0.wav,1.0,what,unsyncopated,b,s2,no_rule,cat,L2,m,0.318,4.0,1.0,0.6012,3.0,2 ,catalán,0.0,castellano,0.0,inglés,3.0,3.0,2.0,yes,no,no,flauta,12,guitarra,12,7. Me informo sobre la música que me gusta.,4.0,nada,82.0,yes
7,2023-10-30_18h41.49.248,Unsyncopated1,s27,20.0,feminino,right,España,catalán y castellano,Bachelor degree,no,no,B,1,what,L2,unsyncopated,s2,r2,7,Online_whatL2//b.fe.ra29.1110.1998.wav,ñu,si,cha,sil2,fe,ba,ño,sil,ra,me,sil1,['catch'],[2.596499999999992],[2.596499999999992],1.998,no_beat,0.5984999999999918,0.5984999999999918,"[""space""]",ra,2,testWhatL2Uns//dep_viol.r1.s1.0.wav,1.0,what,unsyncopated,a,s1,no_rule,dep,L2,z,0.6674,6.0,0.0,1.3013,3.0,2 ,catalán,0.0,castellano,0.0,inglés,3.0,3.0,2.0,yes,no,no,flauta,12,guitarra,12,8.Me emociono escuchando ciertas canciones.,4.0,nada,82.0,yes
8,2023-10-30_18h41.49.248,Unsyncopated1,s27,20.0,feminino,right,España,catalán y castellano,Bachelor degree,no,no,B,1,what,L2,unsyncopated,s1,r1,8,Online_whatL2//c.cha.me16.none.none.wav,go,ñu,bi,sil2,du,to,te,sil,ño,mi,sil1,['false alarm'],[0.8834000000357491],[0.8834000000357491],none,none,,,"[""space""]",me,3,testWhatL2Uns//time_viol.r1.s1.0.wav,1.0,what,unsyncopated,a,s1,no_rule,time,L2,m,0.5061,4.0,1.0,0.5674,3.0,2 ,catalán,0.0,castellano,0.0,inglés,3.0,3.0,2.0,yes,no,no,flauta,12,guitarra,12,9.La música me tranquiliza y me relaja.,4.0,nada,82.0,yes
9,2023-10-30_18h41.49.248,Unsyncopated1,s27,20.0,feminino,right,España,catalán y castellano,Bachelor degree,no,no,B,1,what,L2,unsyncopated,s1,r1,9,Online_whatL2//c.cha.me19.none.none.wav,go,su,bi,sil,du,ño,to,sil2,ñu,ba,sil1,['-'],,,none,none,,,,me,3,testWhatL2Uns//r2.s2.2.wav,1.0,what,unsyncopated,b,s2,rule,rule,L2,m,0.3175,6.0,0.0,0.3833,3.0,2 ,catalán,0.0,castellano,0.0,inglés,3.0,3.0,2.0,yes,no,no,flauta,12,guitarra,12,10.La música me hace bailar,4.0,nada,82.0,yes
10,2023-10-30_18h41.49.248,Unsyncopated1,s27,20.0,feminino,right,España,catalán y castellano,Bachelor degree,no,no,B,1,what,L2,unsyncopated,s2,r1,10,Online_whatL2//c.cha.me17.0.444.wav,cha,te,me,sil2,go,bi,ñu,sil,du,mi,sil1,['miss'],,,0.444,no_beat,,,,me,3,testWhatL2Uns//dep_viol.r2.s1.0.wav,1.0,what,unsyncopated,b,s1,no_rule,dep,L2,z,0.4164,3.0,0.0,0.7001,3.0,2 ,catalán,0.0,castellano,0.0,inglés,3.0,3.0,2.0,yes,no,no,flauta,12,guitarra,12,11.Busco novedades musicales continuamente,4.0,nada,82.0,yes
11,2023-10-30_18h41.49.248,Unsyncopated1,s27,20.0,feminino,right,España,catalán y castellano,Bachelor degree,no,no,B,1,what,L2,unsyncopated,s2,r2,11,Online_whatL2//c.cha.me18.none.none.wav,bi,to,ñu,sil,fe,ño,ba,sil1,ra,si,sil2,['-'],,,none,none,,,,me,3,testWhatL2Uns//r1.s1.1.wav,1.0,what,unsyncopated,a,s1,rule,rule,L2,m,0.2515,6.0,0.0,1.3231,3.0,2 ,catalán,0.0,castellano,0.0,inglés,3.0,3.0,2.0,yes,no,no,flauta,12,guitarra,12,12. Puedo llorar cuando escucho algunas melodías que me gustan mucho.,4.0,nada,82.0,yes
12,2023-10-30_18h41.49.248,Unsyncopated1,s27,20.0,feminino,right,España,catalán y castellano,Bachelor degree,no,no,B,1,what,L2,unsyncopated,s2,r1,12,Online_whatL2//a.go.du30.888.1776.wav,cha,me,te,sil,go,ba,mi,sil1,du,bi,sil2,['catch'],[1.5219999999999914],[1.5219999999999914],0.888,beat,0.6339999999999913,0.6339999999999913,"[""space""]",go,1,testWhatL2Uns//cat_viol.r2.s1.0.wav,1.0,what,unsyncopated,b,s1,no_rule,cat,L2,z,0.4222,3.0,0.0,0.2682,3.0,2 ,catalán,0.0,castellano,0.0,inglés,3.0,3.0,2.0,yes,no,no,flauta,12,guitarra,12,13. Me gusta cantar o tocar un instrumento con más gente,4.0,nada,82.0,yes
13,2023-10-30_18h41.49.248,Unsyncopated1,s27,20.0,feminino,right,España,catalán y castellano,Bachelor degree,no,no,B,1,what,L2,unsyncopated,s2,r2,13,Online_whatL2//a.go.du31.none.none.wav,cha,su,mi,sil,fe,ño,si,sil2,ra,te,sil1,['-'],,,none,none,,,,go,1,testWhatL2Uns//cat_viol.r1.s2.0.wav,1.0,what,unsyncopated,a,s2,no_rule,cat,L2,m,0.3006,3.0,1.0,0.2814,3.0,2 ,catalán,0.0,castellano,0.0,inglés,3.0,3.0,2.0,yes,no,no,flauta,12,guitarra,12,14. La música me ayuda a desconectar.,4.0,nada,82.0,yes
14,2023-10-30_18h41.49.248,Unsyncopated1,s27,20.0,feminino,right,España,catalán y castellano,Bachelor degree,no,no,B,1,what,L2,unsyncopated,s1,r1,14,Online_whatL2//a.go.du28.0.888.wav,go,ñu,mi,sil,du,ba,ño,sil1,me,su,sil2,"['catch', 'false alarm']","[0.6900999999642181, 2.5075999999642136]",[0.6900999999642181],0.0,beat,0.6900999999642181,0.6900999999642181,"[""space"",""space""]",go,1,testWhatL2Uns//time_viol.r2.s2.0.wav,1.0,what,unsyncopated,b,s2,no_rule,time,L2,m,0.3001,4.0,1.0,1.1854,3.0,2 ,catalán,0.0,castellano,0.0,inglés,3.0,3.0,2.0,yes,no,no,flauta,12,guitarra,12,15. No puedo evitar tararear las canciones que me gustan cuando las escucho.,4.0,nada,82.0,yes
15,2023-10-30_18h41.49.248,Unsyncopated1,s27,20.0,feminino,right,España,catalán y castellano,Bachelor degree,no,no,B,1,what,L2,unsyncopated,s1,r2,15,Online_whatL2//a.go.du29.none.none.wav,fe,ñu,mi,sil,ra,cha,su,sil2,te,bi,sil1,['-'],,,none,none,,,,go,1,testWhatL2Uns//dep_viol.r1.s2.0.wav,1.0,what,unsyncopated,a,s2,no_rule,dep,L2,z,0.3404,5.0,0.0,0.3206,3.0,2 ,catalán,0.0,castellano,0.0,inglés,3.0,3.0,2.0,yes,no,no,flauta,12,guitarra,12,16. En los conciertos me siento en sintonía con los artistas y el público.,4.0,nada,82.0,yes
16,2023-10-30_18h41.49.248,Unsyncopated1,s27,20.0,feminino,right,España,catalán y castellano,Bachelor degree,no,no,B,1,what,L2,unsyncopated,s1,r2,16,Online_whatL2//a.go.du0.none.none.wav,fe,ñu,to,sil2,ra,ño,su,sil,ba,bi,sil1,['false alarm'],[2.035400000035793],[2.035400000035793],none,none,,,"[""space""]",go,1,testWhatL2Uns//r1.s1.2.wav,1.0,what,unsyncopated,a,s1,rule,rule,L2,m,0.2524,4.0,0.0,0.287,3.0,2 ,catalán,0.0,castellano,0.0,inglés,3.0,3.0,2.0,yes,no,no,flauta,12,guitarra,12,17. Me gasto bastante dinero en música y cosas relacionadas con la música.,4.0,nada,82.0,yes
17,2023-10-30_18h41.49.248,Unsyncopated1,s27,20.0,feminino,right,España,catalán y castellano,Bachelor degree,no,no,B,1,what,L2,unsyncopated,s1,r1,17,Online_whatL2//a.go.du3.0.888.wav,go,te,me,sil,du,mi,cha,sil2,ba,ño,sil1,['catch'],[1.0278000000118936],[1.0278000000118936],0.0,beat,1.0278000000118936,1.0278000000118936,"[""space""]",go,1,testWhatL2Uns//r2.s1.1.wav,1.0,what,unsyncopated,b,s1,rule,rule,L2,m,1.5194,7.0,0.0,0.585,3.0,2 ,catalán,0.0,castellano,0.0,inglés,3.0,3.0,2.0,yes,no,no,flauta,12,guitarra,12,18. Siento escalofríos cuando escucho una melodía que me gusta.,4.0,nada,82.0,yes
18,2023-10-30_18h41.49.248,Unsyncopated1,s27,20.0,feminino,right,España,catalán y castellano,Bachelor degree,no,no,B,1,what,L2,unsyncopated,s1,r2,18,Online_whatL2//a.go.du1.none.none.wav,fe,cha,me,sil2,ra,to,ñu,sil,ño,mi,sil1,['-'],,,none,none,,,,go,1,testWhatL2Uns//time_viol.r2.s1.0.wav,1.0,what,unsyncopated,b,s1,no_rule,time,L2,m,0.3734,6.0,1.0,0.2843,3.0,2 ,catalán,0.0,castellano,0.0,inglés,3.0,3.0,2.0,yes,no,no,flauta,12,guitarra,12,19. Con la música me puedo desahogar.,4.0,nada,82.0,yes
19,2023-10-30_18h41.49.248,Unsyncopated1,s27,20.0,feminino,right,España,catalán y castellano,Bachelor degree,no,no,B,1,what,L2,unsyncopated,s2,r1,19,Online_whatL2//a.go.du2.1110.1998.wav,te,bi,ñu,sil2,go,cha,mi,sil,du,to,sil1,['catch'],[1.8058000000119137],[1.8058000000119137],1.11,no_beat,0.6958000000119136,0.6958000000119136,"[""space""]",go,1,testWhatL2Uns//r1.s2.0.wav,1.0,what,unsyncopated,a,s2,rule,rule,L2,z,0.3001,6.0,1.0,0.2707,3.0,2 ,catalán,0.0,castellano,0.0,inglés,3.0,3.0,2.0,yes,no,no,flauta,12,guitarra,12,20. Cuando escucho una melodía que me gusta mucho no puedo evitar mover el cuerpo.,4.0,nada,82.0,yes
20,2023-10-30_18h41.49.248,Unsyncopated1,s27,20.0,feminino,right,España,catalán y castellano,Bachelor degree,no,no,B,1,what,L2,unsyncopated,s2,r2,20,Online_whatL2//c.cha.me11.1332.0.wav,me,ba,si,sil2,fe,cha,ñu,sil,ra,bi,sil1,['catch'],[0.7166000000238455],[0.7166000000238455],0.0,beat,0.7166000000238455,0.7166000000238455,"[""space""]",me,3,testWhatL2Uns//r1.s2.1.wav,1.0,what,unsyncopated,a,s2,rule,rule,L2,z,0.3034,6.0,1.0,0.2674,3.0,2 ,catalán,0.0,castellano,0.0,inglés,3.0,3.0,2.0,yes,no,no,flauta,12,guitarra,12,,,nada,82.0,yes
21,2023-10-30_18h41.49.248,Unsyncopated1,s27,20.0,feminino,right,España,catalán y castellano,Bachelor degree,no,no,B,1,what,L2,unsyncopated,s2,r2,21,Online_whatL2//c.cha.me9.none.none.wav,te,to,si,sil2,fe,su,ñu,sil,ra,bi,sil1,['-'],,,none,none,,,,me,3,testWhatL2Uns//dep_viol.r2.s2.0.wav,1.0,what,unsyncopated,b,s2,no_rule,dep,L2,z,0.5524,6.0,0.0,0.3347,3.0,2 ,catalán,0.0,castellano,0.0,inglés,3.0,3.0,2.0,yes,no,no,flauta,12,guitarra,12,,,nada,82.0,yes
22,2023-10-30_18h41.49.248,Unsyncopated1,s27,20.0,feminino,right,España,catalán y castellano,Bachelor degree,no,no,B,1,what,L2,unsyncopated,s1,r1,22,Online_whatL2//c.cha.me8.1998.1332.wav,go,ñu,ño,sil2,du,me,mi,sil,cha,su,sil1,['false alarm'],[0.06190000003573459],[0.06190000003573459],1.332,no_beat,,,"[""space""]",me,3,testWhatL2Uns//r2.s2.0.wav,1.0,what,unsyncopated,b,s2,rule,rule,L2,m,0.1837,2.0,0.0,0.3714,3.0,2 ,catalán,0.0,castellano,0.0,inglés,3.0,3.0,2.0,yes,no,no,flauta,12,guitarra,12,,,nada,82.0,yes
23,2023-10-30_18h41.49.248,Unsyncopated1,s27,20.0,feminino,right,España,catalán y castellano,Bachelor degree,no,no,B,1,what,L2,unsyncopated,s1,r2,23,Online_whatL2//c.cha.me10.222.1110.wav,fe,cha,ño,sil,ra,me,su,sil1,si,to,sil2,"['false alarm', 'catch']","[0.06439999997610357, 1.690499999999986]",[1.690499999999986],1.11,no_beat,0.5804999999999858,0.5804999999999858,"[""space"",""space""]",me,3,testWhatL2Uns//r2.s1.2.wav,1.0,what,unsyncopated,b,s1,rule,rule,L2,m,0.0005,5.0,0.0,0.3839,3.0,2 ,catalán,0.0,castellano,0.0,inglés,3.0,3.0,2.0,yes,no,no,flauta,12,guitarra,12,,,nada,82.0,yes
24,2023-10-30_18h41.49.248,Unsyncopated1,s27,20.0,feminino,right,España,catalán y castellano,Bachelor degree,no,no,B,1,what,L2,unsyncopated,s2,r2,24,Online_whatL2//d.si.ñu23.none.none.wav,me,to,ño,sil2,fe,cha,su,sil,ra,mi,sil1,['-'],,,none,none,,,,ñu,4,testConjL1Uns//r2.s2.1.wav,2.0,conjunction_un,unsyncopated,b,s2,rule,rule,L1,z,0.6005,7.0,1.0,0.4086,3.0,2 ,catalán,0.0,castellano,0.0,inglés,3.0,3.0,2.0,yes,no,no,flauta,12,guitarra,12,,,nada,82.0,yes
25,2023-10-30_18h41.49.248,Unsyncopated1,s27,20.0,feminino,right,España,catalán y castellano,Bachelor degree,no,no,B,1,what,L2,unsyncopated,s1,r2,25,Online_whatL2//d.si.ñu20.none.none.wav,fe,cha,me,sil2,ra,to,bi,sil,mi,ba,sil1,['-'],,,none,none,,,,ñu,4,testConjL1Uns//r2.s1.1.wav,2.0,conjunction_un,unsyncopated,b,s1,rule,rule,L1,z,0.3164,5.0,1.0,0.5333,3.0,2 ,catalán,0.0,castellano,0.0,inglés,3.0,3.0,2.0,yes,no,no,flauta,12,guitarra,12,,,nada,82.0,yes
26,2023-10-30_18h41.49.248,Unsyncopated1,s27,20.0,feminino,right,España,catalán y castellano,Bachelor degree,no,no,B,1,what,L2,unsyncopated,s1,r2,26,Online_whatL2//d.si.ñu22.444.1332.wav,fe,to,si,sil,ra,bi,ñu,sil2,ba,me,sil1,['catch'],[1.9247000000476646],[1.9247000000476646],1.332,no_beat,0.5927000000476645,0.5927000000476645,"[""space""]",ñu,4,testConjL1Uns//r2.s1.0.wav,2.0,conjunction_un,unsyncopated,b,s1,rule,rule,L1,m,0.1071,3.0,0.0,0.5351,3.0,2 ,catalán,0.0,castellano,0.0,inglés,3.0,3.0,2.0,yes,no,no,flauta,12,guitarra,12,,,nada,82.0,yes
27,2023-10-30_18h41.49.248,Unsyncopated1,s27,20.0,feminino,right,España,catalán y castellano,Bachelor degree,no,no,B,1,what,L2,unsyncopated,s1,r1,27,Online_whatL2//d.si.ñu21.none.none.wav,go,cha,ño,sil,du,su,bi,sil2,ba,te,sil1,['-'],,,none,none,,,,ñu,4,testConjL1Uns//cat_viol.r2.s1.0.wav,2.0,conjunction_un,unsyncopated,b,s1,no_rule,cat,L1,m,0.3095,6.0,1.0,0.3683,3.0,2 ,catalán,0.0,castellano,0.0,inglés,3.0,3.0,2.0,yes,no,no,flauta,12,guitarra,12,,,nada,82.0,yes
28,2023-10-30_18h41.49.248,Unsyncopated1,s27,20.0,feminino,right,España,catalán y castellano,Bachelor degree,no,no,B,1,what,L2,unsyncopated,s1,r2,28,Online_whatL2//c.cha.me27.none.none.wav,fe,si,ñu,sil2,ra,ño,ba,sil,te,bi,sil1,['false alarm'],[1.098300000011875],[1.098300000011875],none,none,,,"[""space""]",me,3,testConjL1Uns//time_viol.r1.s1.0.wav,2.0,conjunction_un,unsyncopated,a,s1,no_rule,time,L1,z,0.286,4.0,0.0,0.3034,3.0,2 ,catalán,0.0,castellano,0.0,inglés,3.0,3.0,2.0,yes,no,no,flauta,12,guitarra,12,,,nada,82.0,yes
29,2023-10-30_18h41.49.248,Unsyncopated1,s27,20.0,feminino,right,España,catalán y castellano,Bachelor degree,no,no,B,1,what,L2,unsyncopated,s2,r1,29,Online_whatL2//c.cha.me26.444.1110.wav,mi,bi,cha,sil,go,me,ño,sil1,du,te,sil2,['catch'],[1.7732999999523145],[1.7732999999523145],1.11,no_beat,0.6632999999523144,0.6632999999523144,"[""space""]",me,3,testConjL1Uns//r1.s2.2.wav,2.0,conjunction_un,unsyncopated,a,s2,rule,rule,L1,m,0.0504,2.0,0.0,0.318,3.0,2 ,catalán,0.0,castellano,0.0,inglés,3.0,3.0,2.0,yes,no,no,flauta,12,guitarra,12,,,nada,82.0,yes
30,2023-10-30_18h41.49.248,Unsyncopated1,s27,20.0,feminino,right,España,catalán y castellano,Bachelor degree,no,no,B,1,what,L2,unsyncopated,s1,r2,30,Online_whatL2//c.cha.me25.none.none.wav,fe,te,mi,sil,ra,ñu,si,sil2,ba,bi,sil1,['-'],,,none,none,,,,me,3,testConjL1Uns//cat_viol.r1.s2.0.wav,2.0,conjunction_un,unsyncopated,a,s2,no_rule,cat,L1,m,0.4112,6.0,1.0,0.3411,3.0,2 ,catalán,0.0,castellano,0.0,inglés,3.0,3.0,2.0,yes,no,no,flauta,12,guitarra,12,,,nada,82.0,yes
31,2023-10-30_18h41.49.248,Unsyncopated1,s27,20.0,feminino,right,España,catalán y castellano,Bachelor degree,no,no,B,1,what,L2,unsyncopated,s2,r1,31,Online_whatL2//c.cha.me24.0.444.wav,cha,te,me,sil,go,ba,ño,sil2,du,si,sil1,['catch'],[1.4549000000357637],[1.4549000000357637],0.444,no_beat,1.0109000000357635,1.0109000000357635,"[""space""]",me,3,testConjL1Uns//time_viol.r1.s2.0.wav,2.0,conjunction_un,unsyncopated,a,s2,no_rule,time,L1,z,0.1003,6.0,0.0,0.2844,3.0,2 ,catalán,0.0,castellano,0.0,inglés,3.0,3.0,2.0,yes,no,no,flauta,12,guitarra,12,,,nada,82.0,yes
32,2023-10-30_18h41.49.248,Unsyncopated1,s27,20.0,feminino,right,España,catalán y castellano,Bachelor degree,no,no,B,1,what,L2,unsyncopated,s1,r1,32,Online_whatL2//d.si.ñu16.222.1332.wav,go,si,ba,sil2,du,ñu,te,sil,me,ño,sil1,['catch'],[1.9678000000119482],[1.9678000000119482],1.332,no_beat,0.6358000000119481,0.6358000000119481,"[""space""]",ñu,4,testConjL1Uns//time_viol.r2.s2.0.wav,2.0,conjunction_un,unsyncopated,b,s2,no_rule,time,L1,m,0.0206,3.0,1.0,0.407,3.0,2 ,catalán,0.0,castellano,0.0,inglés,3.0,3.0,2.0,yes,no,no,flauta,12,guitarra,12,,,nada,82.0,yes
33,2023-10-30_18h41.49.248,Unsyncopated1,s27,20.0,feminino,right,España,catalán y castellano,Bachelor degree,no,no,B,1,what,L2,unsyncopated,s2,r1,33,Online_whatL2//d.si.ñu17.0.444.wav,si,me,ñu,sil,go,mi,cha,sil2,du,bi,sil1,['false alarm'],[0.3421000000238905],[0.3421000000238905],0.444,no_beat,,,"[""space""]",ñu,4,testConjL1Uns//r1.s1.0.wav,2.0,conjunction_un,unsyncopated,a,s1,rule,rule,L1,m,0.45,5.0,0.0,0.3876,3.0,2 ,catalán,0.0,castellano,0.0,inglés,3.0,3.0,2.0,yes,no,no,flauta,12,guitarra,12,,,nada,82.0,yes
34,2023-10-30_18h41.49.248,Unsyncopated1,s27,20.0,feminino,right,España,catalán y castellano,Bachelor degree,no,no,B,1,what,L2,unsyncopated,s2,r1,34,Online_whatL2//d.si.ñu19.1110.0.wav,ñu,mi,me,sil,go,si,su,sil2,du,cha,sil1,['catch'],[0.660900000035781],[0.660900000035781],0.0,beat,0.660900000035781,0.660900000035781,"[""space""]",ñu,4,testConjL1Uns//r2.s2.0.wav,2.0,conjunction_un,unsyncopated,b,s2,rule,rule,L1,z,0.0513,7.0,1.0,0.3036,3.0,2 ,catalán,0.0,castellano,0.0,inglés,3.0,3.0,2.0,yes,no,no,flauta,12,guitarra,12,,,nada,82.0,yes
35,2023-10-30_18h41.49.248,Unsyncopated1,s27,20.0,feminino,right,España,catalán y castellano,Bachelor degree,no,no,B,1,what,L2,unsyncopated,s2,r1,35,Online_whatL2//d.si.ñu18.222.444.wav,su,si,ñu,sil,go,te,me,sil2,du,ba,sil1,['catch'],[1.0576000000238537],[1.0576000000238537],0.444,no_beat,0.6136000000238537,0.6136000000238537,"[""space""]",ñu,4,testConjL1Uns//dep_viol.r2.s1.0.wav,2.0,conjunction_un,unsyncopated,b,s1,no_rule,dep,L1,z,0.0005,5.0,0.0,0.3004,3.0,2 ,catalán,0.0,castellano,0.0,inglés,3.0,3.0,2.0,yes,no,no,flauta,12,guitarra,12,,,nada,82.0,yes
36,2023-10-30_18h41.49.248,Unsyncopated1,s27,20.0,feminino,right,España,catalán y castellano,Bachelor degree,no,no,B,1,what,L2,unsyncopated,s1,r2,36,Online_whatL2//a.go.du9.none.none.wav,fe,ba,to,sil2,ra,mi,ño,sil,si,ñu,sil1,['-'],,,none,none,,,,go,1,testConjL1Uns//dep_viol.r2.s2.0.wav,2.0,conjunction_un,unsyncopated,b,s2,no_rule,dep,L1,z,0.4005,4.0,0.0,0.3694,3.0,2 ,catalán,0.0,castellano,0.0,inglés,3.0,3.0,2.0,yes,no,no,flauta,12,guitarra,12,,,nada,82.0,yes
37,2023-10-30_18h41.49.248,Unsyncopated1,s27,20.0,feminino,right,España,catalán y castellano,Bachelor degree,no,no,B,1,what,L2,unsyncopated,s2,r1,37,Online_whatL2//a.go.du11.1110.1998.wav,si,me,to,sil2,go,su,te,sil,du,mi,sil1,['catch'],[1.7469999999999573],[1.7469999999999573],1.11,no_beat,0.6369999999999572,0.6369999999999572,"[""space""]",go,1,testConjL1Uns//cat_viol.r2.s2.0.wav,2.0,conjunction_un,unsyncopated,b,s2,no_rule,cat,L1,m,0.2189,4.0,1.0,0.2259,3.0,2 ,catalán,0.0,castellano,0.0,inglés,3.0,3.0,2.0,yes,no,no,flauta,12,guitarra,12,,,nada,82.0,yes
38,2023-10-30_18h41.49.248,Unsyncopated1,s27,20.0,feminino,right,España,catalán y castellano,Bachelor degree,no,no,B,1,what,L2,unsyncopated,s1,r1,38,Online_whatL2//a.go.du8.0.888.wav,go,su,mi,sil,du,ñu,ño,sil1,to,si,sil2,['catch'],[0.8925000000000409],[0.8925000000000409],0.0,beat,0.8925000000000409,0.8925000000000409,"[""space""]",go,1,testConjL1Uns//r1.s2.1.wav,2.0,conjunction_un,unsyncopated,a,s2,rule,rule,L1,m,0.1366,5.0,0.0,0.2679,3.0,2 ,catalán,0.0,castellano,0.0,inglés,3.0,3.0,2.0,yes,no,no,flauta,12,guitarra,12,,,nada,82.0,yes
39,2023-10-30_18h41.49.248,Unsyncopated1,s27,20.0,feminino,right,España,catalán y castellano,Bachelor degree,no,no,B,1,what,L2,unsyncopated,s1,r1,39,Online_whatL2//a.go.du10.0.888.wav,go,to,ño,sil,du,si,ba,sil2,ñu,me,sil1,['catch'],[0.6720000000000255],[0.6720000000000255],0.0,beat,0.6720000000000255,0.6720000000000255,"[""space""]",go,1,testConjL1Uns//dep_viol.r1.s2.0.wav,2.0,conjunction_un,unsyncopated,a,s2,no_rule,dep,L1,z,0.3787,6.0,0.0,0.4346,3.0,2 ,catalán,0.0,castellano,0.0,inglés,3.0,3.0,2.0,yes,no,no,flauta,12,guitarra,12,,,nada,82.0,yes
40,2023-10-30_18h41.49.248,Unsyncopated1,s27,20.0,feminino,right,España,catalán y castellano,Bachelor degree,no,no,B,1,what,L2,unsyncopated,s2,r2,40,Online_whatL2//a.go.du14.none.none.wav,bi,me,mi,sil2,fe,to,ñu,sil,ra,su,sil1,['-'],,,none,none,,,,go,1,testConjL1Uns//cat_viol.r1.s1.0.wav,2.0,conjunction_un,unsyncopated,a,s1,no_rule,cat,L1,z,0.037,3.0,0.0,0.2753,3.0,2 ,catalán,0.0,castellano,0.0,inglés,3.0,3.0,2.0,yes,no,no,flauta,12,guitarra,12,,,nada,82.0,yes
41,2023-10-30_18h41.49.248,Unsyncopated1,s27,20.0,feminino,right,España,catalán y castellano,Bachelor degree,no,no,B,1,what,L2,unsyncopated,s1,r1,41,Online_whatL2//a.go.du12.0.888.wav,go,su,cha,sil,du,to,te,sil2,me,mi,sil1,['catch'],[0.5941000000238432],[0.5941000000238432],0.0,beat,0.5941000000238432,0.5941000000238432,"[""space""]",go,1,testConjL1Uns//r2.s2.2.wav,2.0,conjunction_un,unsyncopated,b,s2,rule,rule,L1,m,0.3038,4.0,0.0,0.2341,3.0,2 ,catalán,0.0,castellano,0.0,inglés,3.0,3.0,2.0,yes,no,no,flauta,12,guitarra,12,,,nada,82.0,yes
42,2023-10-30_18h41.49.248,Unsyncopated1,s27,20.0,feminino,right,España,catalán y castellano,Bachelor degree,no,no,B,1,what,L2,unsyncopated,s1,r1,42,Online_whatL2//a.go.du15.0.888.wav,go,cha,mi,sil,du,ñu,to,sil1,ba,ño,sil2,['catch'],[0.6383999999761159],[0.6383999999761159],0.0,beat,0.6383999999761159,0.6383999999761159,"[""space""]",go,1,testConjL1Uns//time_viol.r2.s1.0.wav,2.0,conjunction_un,unsyncopated,b,s1,no_rule,time,L1,m,1.1516,6.0,1.0,0.2728,3.0,2 ,catalán,0.0,castellano,0.0,inglés,3.0,3.0,2.0,yes,no,no,flauta,12,guitarra,12,,,nada,82.0,yes
43,2023-10-30_18h41.49.248,Unsyncopated1,s27,20.0,feminino,right,España,catalán y castellano,Bachelor degree,no,no,B,1,what,L2,unsyncopated,s2,r2,43,Online_whatL2//a.go.du13.none.none.wav,te,si,ño,sil2,fe,su,ñu,sil,ra,mi,sil1,['-'],,,none,none,,,,go,1,testConjL1Uns//dep_viol.r1.s1.0.wav,2.0,conjunction_un,unsyncopated,a,s1,no_rule,dep,L1,m,0.4066,4.0,1.0,0.4832,3.0,2 ,catalán,0.0,castellano,0.0,inglés,3.0,3.0,2.0,yes,no,no,flauta,12,guitarra,12,,,nada,82.0,yes
44,2023-10-30_18h41.49.248,Unsyncopated1,s27,20.0,feminino,right,España,catalán y castellano,Bachelor degree,no,no,B,1,what,L2,unsyncopated,s2,r2,44,Online_whatL2//b.fe.ra26.1110.1998.wav,si,me,bi,sil2,fe,cha,te,sil,ra,to,sil1,['miss'],,,1.998,no_beat,,,,ra,2,testConjL1Uns//r1.s1.2.wav,2.0,conjunction_un,unsyncopated,a,s1,rule,rule,L1,z,0.3359,4.0,1.0,0.3727,3.0,2 ,catalán,0.0,castellano,0.0,inglés,3.0,3.0,2.0,yes,no,no,flauta,12,guitarra,12,,,nada,82.0,yes
45,2023-10-30_18h41.49.248,Unsyncopated1,s27,20.0,feminino,right,España,catalán y castellano,Bachelor degree,no,no,B,1,what,L2,unsyncopated,s2,r1,45,Online_whatL2//b.fe.ra24.none.none.wav,si,cha,su,sil2,go,mi,me,sil,du,bi,sil1,['-'],,,none,none,,,,ra,2,testConjL1Uns//r2.s1.2.wav,2.0,conjunction_un,unsyncopated,b,s1,rule,rule,L1,z,0.3382,5.0,1.0,0.2052,3.0,2 ,catalán,0.0,castellano,0.0,inglés,3.0,3.0,2.0,yes,no,no,flauta,12,guitarra,12,,,nada,82.0,yes
46,2023-10-30_18h41.49.248,Unsyncopated1,s27,20.0,feminino,right,España,catalán y castellano,Bachelor degree,no,no,B,1,what,L2,unsyncopated,s2,r1,46,Online_whatL2//b.fe.ra27.none.none.wav,mi,me,su,sil,go,cha,ño,sil2,du,te,sil1,['-'],,,none,none,,,,ra,2,testConjL1Uns//r1.s1.1.wav,2.0,conjunction_un,unsyncopated,a,s1,rule,rule,L1,m,0.3394,3.0,0.0,0.218,3.0,2 ,catalán,0.0,castellano,0.0,inglés,3.0,3.0,2.0,yes,no,no,flauta,12,guitarra,12,,,nada,82.0,yes
47,2023-10-30_18h41.49.248,Unsyncopated1,s27,20.0,feminino,right,España,catalán y castellano,Bachelor degree,no,no,B,1,what,L2,unsyncopated,s1,r2,47,Online_whatL2//b.fe.ra25.0.888.wav,fe,to,si,sil,ra,mi,su,sil2,cha,ño,sil1,['catch'],[1.5148000000119168],[1.5148000000119168],0.888,beat,0.6268000000119168,0.6268000000119168,"[""space""]",ra,2,testConjL1Uns//r1.s2.0.wav,2.0,conjunction_un,unsyncopated,a,s2,rule,rule,L1,z,0.3509,3.0,1.0,0.2016,3.0,2 ,catalán,0.0,castellano,0.0,inglés,3.0,3.0,2.0,yes,no,no,flauta,12,guitarra,12,,,nada,82.0,yes
48,2023-10-30_18h41.49.248,Unsyncopated1,s27,20.0,feminino,right,España,catalán y castellano,Bachelor degree,no,no,B,1,what,L2,unsyncopated,s2,r1,48,Online_whatL2//b.fe.ra17.none.none.wav,ñu,su,to,sil,go,te,bi,sil2,du,si,sil1,['-'],,,none,none,,,,ra,2,testConjL4Syn//cat_viol.r2.s2.0.wav,3.0,conjunction_syn,syncopated,b,s2,no_rule,cat,L4,z,0.3908,7.0,0.0,0.2345,3.0,2 ,catalán,0.0,castellano,0.0,inglés,3.0,3.0,2.0,yes,no,no,flauta,12,guitarra,12,,,nada,82.0,yes
49,2023-10-30_18h41.49.248,Unsyncopated1,s27,20.0,feminino,right,España,catalán y castellano,Bachelor degree,no,no,B,1,what,L2,unsyncopated,s1,r1,49,Online_whatL2//b.fe.ra18.none.none.wav,go,si,te,sil,du,to,ño,sil2,me,bi,sil1,['-'],,,none,none,,,,ra,2,testConjL4Syn//dep_viol.r2.s2.0.wav,3.0,conjunction_syn,syncopated,b,s2,no_rule,dep,L4,m,0.0007,3.0,1.0,0.2919,3.0,2 ,catalán,0.0,castellano,0.0,inglés,3.0,3.0,2.0,yes,no,no,flauta,12,guitarra,12,,,nada,82.0,yes
50,2023-10-30_18h41.49.248,Unsyncopated1,s27,20.0,feminino,right,España,catalán y castellano,Bachelor degree,no,no,B,1,what,L2,unsyncopated,s1,r2,50,Online_whatL2//b.fe.ra16.0.1110.wav,fe,te,su,sil2,ra,si,ñu,sil,cha,mi,sil1,['catch'],[1.6715999999642008],[1.6715999999642008],1.11,no_beat,0.5615999999642007,0.5615999999642007,"[""space""]",ra,2,testConjL4Syn//dep_viol.r1.s2.0.wav,3.0,conjunction_syn,syncopated,a,s2,no_rule,dep,L4,m,0.1538,5.0,1.0,0.5838,3.0,2 ,catalán,0.0,castellano,0.0,inglés,3.0,3.0,2.0,yes,no,no,flauta,12,guitarra,12,,,nada,82.0,yes
51,2023-10-30_18h41.49.248,Unsyncopated1,s27,20.0,feminino,right,España,catalán y castellano,Bachelor degree,no,no,B,1,what,L2,unsyncopated,s1,r2,51,Online_whatL2//b.fe.ra19.0.888.wav,fe,si,ñu,sil,ra,me,su,sil2,cha,to,sil1,['catch'],[1.509600000023795],[1.509600000023795],0.888,beat,0.621600000023795,0.621600000023795,"[""space""]",ra,2,testConjL4Syn//r2.s1.0.wav,3.0,conjunction_syn,syncopated,b,s1,rule,rule,L4,z,0.2173,5.0,1.0,0.2011,3.0,2 ,catalán,0.0,castellano,0.0,inglés,3.0,3.0,2.0,yes,no,no,flauta,12,guitarra,12,,,nada,82.0,yes
52,2023-10-30_18h41.49.248,Unsyncopated1,s27,20.0,feminino,right,España,catalán y castellano,Bachelor degree,no,no,B,1,what,L2,unsyncopated,s2,r2,52,Online_whatL2//a.go.du24.none.none.wav,me,cha,bi,sil,fe,ño,su,sil2,ra,to,sil1,['-'],,,none,none,,,,go,1,testConjL4Syn//time_viol.r2.s2.0.wav,3.0,conjunction_syn,syncopated,b,s2,no_rule,time,L4,m,0.0238,3.0,1.0,0.2837,3.0,2 ,catalán,0.0,castellano,0.0,inglés,3.0,3.0,2.0,yes,no,no,flauta,12,guitarra,12,,,nada,82.0,yes
53,2023-10-30_18h41.49.248,Unsyncopated1,s27,20.0,feminino,right,España,catalán y castellano,Bachelor degree,no,no,B,1,what,L2,unsyncopated,s1,r1,53,Online_whatL2//a.go.du25.0.888.wav,go,bi,ñu,sil,du,mi,si,sil2,su,cha,sil1,['catch'],[0.7891999999880568],[0.7891999999880568],0.0,beat,0.7891999999880568,0.7891999999880568,"[""space""]",go,1,testConjL4Syn//dep_viol.r2.s1.0.wav,3.0,conjunction_syn,syncopated,b,s1,no_rule,dep,L4,m,0.0753,6.0,1.0,0.4005,3.0,2 ,catalán,0.0,castellano,0.0,inglés,3.0,3.0,2.0,yes,no,no,flauta,12,guitarra,12,,,nada,82.0,yes
54,2023-10-30_18h41.49.248,Unsyncopated1,s27,20.0,feminino,right,España,catalán y castellano,Bachelor degree,no,no,B,1,what,L2,unsyncopated,s2,r2,54,Online_whatL2//a.go.du27.none.none.wav,mi,cha,ba,sil,fe,bi,su,sil2,ra,ño,sil1,['-'],,,none,none,,,,go,1,testConjL4Syn//r2.s2.0.wav,3.0,conjunction_syn,syncopated,b,s2,rule,rule,L4,z,0.1835,6.0,1.0,0.17,3.0,2 ,catalán,0.0,castellano,0.0,inglés,3.0,3.0,2.0,yes,no,no,flauta,12,guitarra,12,,,nada,82.0,yes
55,2023-10-30_18h41.49.248,Unsyncopated1,s27,20.0,feminino,right,España,catalán y castellano,Bachelor degree,no,no,B,1,what,L2,unsyncopated,s1,r2,55,Online_whatL2//a.go.du26.none.none.wav,fe,te,si,sil2,ra,ba,to,sil,su,bi,sil1,['-'],,,none,none,,,,go,1,testConjL4Syn//dep_viol.r1.s1.0.wav,3.0,conjunction_syn,syncopated,a,s1,no_rule,dep,L4,z,0.0917,7.0,0.0,0.202,3.0,2 ,catalán,0.0,castellano,0.0,inglés,3.0,3.0,2.0,yes,no,no,flauta,12,guitarra,12,,,nada,82.0,yes
56,2023-10-30_18h41.49.248,Unsyncopated1,s27,20.0,feminino,right,España,catalán y castellano,Bachelor degree,no,no,B,1,what,L2,unsyncopated,s2,r1,56,Online_whatL2//a.go.du22.888.1776.wav,me,ño,cha,sil,go,te,ñu,sil1,du,to,sil2,['catch'],[0.9047000000476828],[0.9047000000476828],0.888,beat,0.0167000000476827,0.0167000000476827,"[""space""]",go,1,testConjL4Syn//cat_viol.r2.s1.0.wav,3.0,conjunction_syn,syncopated,b,s1,no_rule,cat,L4,z,0.0504,5.0,0.0,0.2025,3.0,2 ,catalán,0.0,castellano,0.0,inglés,3.0,3.0,2.0,yes,no,no,flauta,12,guitarra,12,,,nada,82.0,yes
57,2023-10-30_18h41.49.248,Unsyncopated1,s27,20.0,feminino,right,España,catalán y castellano,Bachelor degree,no,no,B,1,what,L2,unsyncopated,s2,r2,57,Online_whatL2//a.go.du20.none.none.wav,mi,ba,cha,sil,fe,to,ñu,sil1,ra,bi,sil2,['-'],,,none,none,,,,go,1,testConjL4Syn//cat_viol.r1.s2.0.wav,3.0,conjunction_syn,syncopated,a,s2,no_rule,cat,L4,z,0.0212,6.0,0.0,0.205,3.0,2 ,catalán,0.0,castellano,0.0,inglés,3.0,3.0,2.0,yes,no,no,flauta,12,guitarra,12,,,nada,82.0,yes
58,2023-10-30_18h41.49.248,Unsyncopated1,s27,20.0,feminino,right,España,catalán y castellano,Bachelor degree,no,no,B,1,what,L2,unsyncopated,s2,r2,58,Online_whatL2//a.go.du21.none.none.wav,ñu,ba,mi,sil,fe,cha,me,sil2,ra,bi,sil1,['-'],,,none,none,,,,go,1,testConjL4Syn//cat_viol.r1.s1.0.wav,3.0,conjunction_syn,syncopated,a,s1,no_rule,cat,L4,m,0.167,3.0,1.0,0.3018,3.0,2 ,catalán,0.0,castellano,0.0,inglés,3.0,3.0,2.0,yes,no,no,flauta,12,guitarra,12,,,nada,82.0,yes
59,2023-10-30_18h41.49.248,Unsyncopated1,s27,20.0,feminino,right,España,catalán y castellano,Bachelor degree,no,no,B,1,what,L2,unsyncopated,s1,r2,59,Online_whatL2//a.go.du23.none.none.wav,fe,si,me,sil2,ra,mi,ba,sil,ño,ñu,sil1,['-'],,,none,none,,,,go,1,testConjL4Syn//r1.s2.1.wav,3.0,conjunction_syn,syncopated,a,s2,rule,rule,L4,m,0.051,5.0,0.0,0.301,3.0,2 ,catalán,0.0,castellano,0.0,inglés,3.0,3.0,2.0,yes,no,no,flauta,12,guitarra,12,,,nada,82.0,yes
60,2023-10-30_18h41.49.248,Unsyncopated1,s27,20.0,feminino,right,España,catalán y castellano,Bachelor degree,no,no,B,1,what,L2,unsyncopated,s1,r1,60,Online_whatL2//c.cha.me2.none.none.wav,go,ba,si,sil2,du,mi,ñu,sil,bi,ño,sil1,['-'],,,none,none,,,,me,3,testConjL4Syn//time_viol.r1.s2.0.wav,3.0,conjunction_syn,syncopated,a,s2,no_rule,time,L4,z,0.0368,6.0,0.0,0.2675,3.0,2 ,catalán,0.0,castellano,0.0,inglés,3.0,3.0,2.0,yes,no,no,flauta,12,guitarra,12,,,nada,82.0,yes
61,2023-10-30_18h41.49.248,Unsyncopated1,s27,20.0,feminino,right,España,catalán y castellano,Bachelor degree,no,no,B,1,what,L2,unsyncopated,s1,r2,61,Online_whatL2//c.cha.me0.1998.222.wav,fe,me,ño,sil,ra,su,si,sil2,cha,mi,sil1,['catch'],[1.3724000000356682],[1.3724000000356682],0.222,no_beat,1.1504000000356682,1.1504000000356682,"[""space""]",me,3,testConjL4Syn//r1.s2.0.wav,3.0,conjunction_syn,syncopated,a,s2,rule,rule,L4,m,0.0384,5.0,0.0,0.2028,3.0,2 ,catalán,0.0,castellano,0.0,inglés,3.0,3.0,2.0,yes,no,no,flauta,12,guitarra,12,,,nada,82.0,yes
62,2023-10-30_18h41.49.248,Unsyncopated1,s27,20.0,feminino,right,España,catalán y castellano,Bachelor degree,no,no,B,1,what,L2,unsyncopated,s1,r1,62,Online_whatL2//c.cha.me3.1332.444.wav,go,to,me,sil,du,si,cha,sil2,ño,te,sil1,['miss'],,,0.444,no_beat,,,,me,3,testConjL4Syn//r1.s1.0.wav,3.0,conjunction_syn,syncopated,a,s1,rule,rule,L4,m,0.0379,4.0,0.0,0.3077,3.0,2 ,catalán,0.0,castellano,0.0,inglés,3.0,3.0,2.0,yes,no,no,flauta,12,guitarra,12,,,nada,82.0,yes
63,2023-10-30_18h41.49.248,Unsyncopated1,s27,20.0,feminino,right,España,catalán y castellano,Bachelor degree,no,no,B,1,what,L2,unsyncopated,s2,r2,63,Online_whatL2//c.cha.me1.1110.0.wav,me,mi,ba,sil,fe,cha,su,sil2,ra,ñu,sil1,['catch'],[0.6225000000000591],[0.6225000000000591],0.0,beat,0.6225000000000591,0.6225000000000591,"[""space""]",me,3,testConjL4Syn//time_viol.r1.s1.0.wav,3.0,conjunction_syn,syncopated,a,s1,no_rule,time,L4,m,0.2842,6.0,1.0,0.3621,3.0,2 ,catalán,0.0,castellano,0.0,inglés,3.0,3.0,2.0,yes,no,no,flauta,12,guitarra,12,,,nada,82.0,yes
64,2023-10-30_18h41.49.248,Unsyncopated1,s27,20.0,feminino,right,España,catalán y castellano,Bachelor degree,no,no,B,1,what,L2,unsyncopated,s1,r2,64,Online_whatL2//a.go.du7.none.none.wav,fe,ñu,me,sil,ra,cha,to,sil1,si,su,sil2,['-'],,,none,none,,,,go,1,testConjL4Syn//r1.s1.1.wav,3.0,conjunction_syn,syncopated,a,s1,rule,rule,L4,z,0.2011,4.0,1.0,0.1681,3.0,2 ,catalán,0.0,castellano,0.0,inglés,3.0,3.0,2.0,yes,no,no,flauta,12,guitarra,12,,,nada,82.0,yes
65,2023-10-30_18h41.49.248,Unsyncopated1,s27,20.0,feminino,right,España,catalán y castellano,Bachelor degree,no,no,B,1,what,L2,unsyncopated,s1,r2,65,Online_whatL2//a.go.du5.none.none.wav,fe,su,bi,sil,ra,te,to,sil1,ño,ñu,sil2,['-'],,,none,none,,,,go,1,testConjL4Syn//r2.s2.1.wav,3.0,conjunction_syn,syncopated,b,s2,rule,rule,L4,z,0.1358,6.0,1.0,0.2006,3.0,2 ,catalán,0.0,castellano,0.0,inglés,3.0,3.0,2.0,yes,no,no,flauta,12,guitarra,12,,,nada,82.0,yes
66,2023-10-30_18h41.49.248,Unsyncopated1,s27,20.0,feminino,right,España,catalán y castellano,Bachelor degree,no,no,B,1,what,L2,unsyncopated,s2,r1,66,Online_whatL2//a.go.du6.888.1776.wav,bi,su,cha,sil,go,te,ñu,sil1,du,me,sil2,['miss'],,,0.888,beat,,,,go,1,testConjL4Syn//r1.s2.2.wav,3.0,conjunction_syn,syncopated,a,s2,rule,rule,L4,z,0.2004,4.0,1.0,0.1495,3.0,2 ,catalán,0.0,castellano,0.0,inglés,3.0,3.0,2.0,yes,no,no,flauta,12,guitarra,12,,,nada,82.0,yes
67,2023-10-30_18h41.49.248,Unsyncopated1,s27,20.0,feminino,right,España,catalán y castellano,Bachelor degree,no,no,B,1,what,L2,unsyncopated,s2,r2,67,Online_whatL2//a.go.du4.none.none.wav,te,mi,cha,sil,fe,bi,ñu,sil1,ra,ba,sil2,['false alarm'],[2.391599999964228],[2.391599999964228],none,none,,,"[""space""]",go,1,testConjL4Syn//time_viol.r2.s1.0.wav,3.0,conjunction_syn,syncopated,b,s1,no_rule,time,L4,m,0.0839,2.0,1.0,0.3003,3.0,2 ,catalán,0.0,castellano,0.0,inglés,3.0,3.0,2.0,yes,no,no,flauta,12,guitarra,12,,,nada,82.0,yes
68,2023-10-30_18h41.49.248,Unsyncopated1,s27,20.0,feminino,right,España,catalán y castellano,Bachelor degree,no,no,B,1,what,L2,unsyncopated,s2,r2,68,Online_whatL2//b.fe.ra11.888.1776.wav,ño,me,su,sil,fe,bi,ñu,sil1,ra,ba,sil2,['catch'],[2.3581000000237964],[2.3581000000237964],1.776,beat,0.5821000000237964,0.5821000000237964,"[""space""]",ra,2,testConjL4Syn//r2.s1.2.wav,3.0,conjunction_syn,syncopated,b,s1,rule,rule,L4,m,1.4751,4.0,0.0,0.2051,3.0,2 ,catalán,0.0,castellano,0.0,inglés,3.0,3.0,2.0,yes,no,no,flauta,12,guitarra,12,,,nada,82.0,yes
69,2023-10-30_18h41.49.248,Unsyncopated1,s27,20.0,feminino,right,España,catalán y castellano,Bachelor degree,no,no,B,1,what,L2,unsyncopated,s1,r1,69,Online_whatL2//b.fe.ra9.none.none.wav,go,mi,bi,sil,du,to,te,sil1,ño,si,sil2,['-'],,,none,none,,,,ra,2,testConjL4Syn//r2.s2.2.wav,3.0,conjunction_syn,syncopated,b,s2,rule,rule,L4,z,0.2044,3.0,1.0,0.2685,3.0,2 ,catalán,0.0,castellano,0.0,inglés,3.0,3.0,2.0,yes,no,no,flauta,12,guitarra,12,,,nada,82.0,yes
70,2023-10-30_18h41.49.248,Unsyncopated1,s27,20.0,feminino,right,España,catalán y castellano,Bachelor degree,no,no,B,1,what,L2,unsyncopated,s1,r1,70,Online_whatL2//b.fe.ra10.none.none.wav,go,ñu,ño,sil,du,cha,mi,sil2,to,si,sil1,['-'],,,none,none,,,,ra,2,testConjL4Syn//r1.s1.2.wav,3.0,conjunction_syn,syncopated,a,s1,rule,rule,L4,z,0.2509,6.0,1.0,0.1173,3.0,2 ,catalán,0.0,castellano,0.0,inglés,3.0,3.0,2.0,yes,no,no,flauta,12,guitarra,12,,,nada,82.0,yes
71,2023-10-30_18h41.49.248,Unsyncopated1,s27,20.0,feminino,right,España,catalán y castellano,Bachelor degree,no,no,B,1,what,L2,unsyncopated,s2,r2,71,Online_whatL2//b.fe.ra8.1110.1998.wav,si,me,bi,sil2,fe,te,ba,sil,ra,mi,sil1,['catch'],[2.594899999976178],[2.594899999976178],1.998,no_beat,0.5968999999761782,0.5968999999761782,"[""space""]",ra,2,testConjL4Syn//r2.s1.1.wav,3.0,conjunction_syn,syncopated,b,s1,rule,rule,L4,m,0.2326,4.0,0.0,0.0679,3.0,2 ,catalán,0.0,castellano,0.0,inglés,3.0,3.0,2.0,yes,no,no,flauta,12,guitarra,12,,,nada,82.0,yes
72,2023-10-30_18h41.49.248,Unsyncopated1,s27,20.0,feminino,right,España,catalán y castellano,Bachelor degree,no,no,B,1,what,L2,unsyncopated,s2,r2,72,Online_whatL2//d.si.ñu27.none.none.wav,su,te,bi,sil,fe,cha,ño,sil2,ra,ba,sil1,['-'],,,none,none,,,,ñu,4,testWhenL3Uns//r2.s2.1.wav,4.0,when,unsyncopated,b,s2,rule,rule,L3,z,0.2254,7.0,1.0,0.1629,3.0,2 ,catalán,0.0,castellano,0.0,inglés,3.0,3.0,2.0,yes,no,no,flauta,12,guitarra,12,,,nada,82.0,yes
73,2023-10-30_18h41.49.248,Unsyncopated1,s27,20.0,feminino,right,España,catalán y castellano,Bachelor degree,no,no,B,1,what,L2,unsyncopated,s1,r2,73,Online_whatL2//d.si.ñu24.none.none.wav,fe,ba,cha,sil2,ra,to,mi,sil,te,bi,sil1,['-'],,,none,none,,,,ñu,4,testWhenL3Uns//time_viol.r1.s1.0.wav,4.0,when,unsyncopated,a,s1,no_rule,time,L3,z,0.375,5.0,1.0,0.1353,3.0,2 ,catalán,0.0,castellano,0.0,inglés,3.0,3.0,2.0,yes,no,no,flauta,12,guitarra,12,,,nada,82.0,yes
74,2023-10-30_18h41.49.248,Unsyncopated1,s27,20.0,feminino,right,España,catalán y castellano,Bachelor degree,no,no,B,1,what,L2,unsyncopated,s1,r1,74,Online_whatL2//d.si.ñu25.none.none.wav,go,te,su,sil,du,to,ba,sil2,cha,mi,sil1,['-'],,,none,none,,,,ñu,4,testWhenL3Uns//dep_viol.r1.s2.0.wav,4.0,when,unsyncopated,a,s2,no_rule,dep,L3,m,0.0394,4.0,0.0,0.2735,3.0,2 ,catalán,0.0,castellano,0.0,inglés,3.0,3.0,2.0,yes,no,no,flauta,12,guitarra,12,,,nada,82.0,yes
75,2023-10-30_18h41.49.248,Unsyncopated1,s27,20.0,feminino,right,España,catalán y castellano,Bachelor degree,no,no,B,1,what,L2,unsyncopated,s2,r1,75,Online_whatL2//d.si.ñu26.none.none.wav,mi,cha,te,sil,go,ño,su,sil2,du,me,sil1,['-'],,,none,none,,,,ñu,4,testWhenL3Uns//r1.s2.2.wav,4.0,when,unsyncopated,a,s2,rule,rule,L3,m,0.7568,3.0,0.0,0.1728,3.0,2 ,catalán,0.0,castellano,0.0,inglés,3.0,3.0,2.0,yes,no,no,flauta,12,guitarra,12,,,nada,82.0,yes
76,2023-10-30_18h41.49.248,Unsyncopated1,s27,20.0,feminino,right,España,catalán y castellano,Bachelor degree,no,no,B,1,what,L2,unsyncopated,s1,r1,76,Online_whatL2//a.go.du18.0.1110.wav,go,cha,me,sil2,du,ño,ñu,sil,ba,mi,sil1,['miss'],,,0.0,beat,,,,go,1,testWhenL3Uns//r1.s2.1.wav,4.0,when,unsyncopated,a,s2,rule,rule,L3,z,0.2396,5.0,1.0,0.3372,3.0,2 ,catalán,0.0,castellano,0.0,inglés,3.0,3.0,2.0,yes,no,no,flauta,12,guitarra,12,,,nada,82.0,yes
77,2023-10-30_18h41.49.248,Unsyncopated1,s27,20.0,feminino,right,España,catalán y castellano,Bachelor degree,no,no,B,1,what,L2,unsyncopated,s2,r1,77,Online_whatL2//a.go.du19.1110.1998.wav,si,cha,ñu,sil2,go,mi,ño,sil,du,me,sil1,['miss'],,,1.11,no_beat,,,,go,1,testWhenL3Uns//dep_viol.r1.s1.0.wav,4.0,when,unsyncopated,a,s1,no_rule,dep,L3,z,0.2727,3.0,1.0,0.3231,3.0,2 ,catalán,0.0,castellano,0.0,inglés,3.0,3.0,2.0,yes,no,no,flauta,12,guitarra,12,,,nada,82.0,yes
78,2023-10-30_18h41.49.248,Unsyncopated1,s27,20.0,feminino,right,España,catalán y castellano,Bachelor degree,no,no,B,1,what,L2,unsyncopated,s2,r1,78,Online_whatL2//a.go.du16.888.1776.wav,cha,bi,mi,sil,go,me,to,sil1,du,ño,sil2,['false alarm'],[0.19200000000000728],[0.19200000000000728],0.888,beat,,,"[""space""]",go,1,testWhenL3Uns//r2.s2.0.wav,4.0,when,unsyncopated,b,s2,rule,rule,L3,m,0.3162,4.0,0.0,0.1828,3.0,2 ,catalán,0.0,castellano,0.0,inglés,3.0,3.0,2.0,yes,no,no,flauta,12,guitarra,12,,,nada,82.0,yes
79,2023-10-30_18h41.49.248,Unsyncopated1,s27,20.0,feminino,right,España,catalán y castellano,Bachelor degree,no,no,B,1,what,L2,unsyncopated,s2,r1,79,Online_whatL2//a.go.du17.888.1776.wav,si,ño,bi,sil,go,te,ñu,sil1,du,su,sil2,['catch'],[1.4914999999999736],[1.4914999999999736],0.888,beat,0.6034999999999736,0.6034999999999736,"[""space""]",go,1,testWhenL3Uns//r2.s1.0.wav,4.0,when,unsyncopated,b,s1,rule,rule,L3,m,0.6517,4.0,0.0,0.2513,3.0,2 ,catalán,0.0,castellano,0.0,inglés,3.0,3.0,2.0,yes,no,no,flauta,12,guitarra,12,,,nada,82.0,yes
80,2023-10-30_18h41.49.248,Unsyncopated1,s27,20.0,feminino,right,España,catalán y castellano,Bachelor degree,no,no,B,1,what,L2,unsyncopated,s2,r2,80,Online_whatL2//d.si.ñu1.none.none.wav,te,ño,bi,sil,fe,cha,to,sil1,ra,mi,sil2,['-'],,,none,none,,,,ñu,4,testWhenL3Uns//dep_viol.r2.s2.0.wav,4.0,when,unsyncopated,b,s2,no_rule,dep,L3,z,0.0837,6.0,1.0,0.3671,3.0,2 ,catalán,0.0,castellano,0.0,inglés,3.0,3.0,2.0,yes,no,no,flauta,12,guitarra,12,,,nada,82.0,yes
81,2023-10-30_18h41.49.248,Unsyncopated1,s27,20.0,feminino,right,España,catalán y castellano,Bachelor degree,no,no,B,1,what,L2,unsyncopated,s2,r1,81,Online_whatL2//d.si.ñu2.none.none.wav,mi,ño,ba,sil,go,te,cha,sil1,du,su,sil2,['-'],,,none,none,,,,ñu,4,testWhenL3Uns//r2.s1.2.wav,4.0,when,unsyncopated,b,s1,rule,rule,L3,z,0.2352,7.0,1.0,0.3577,3.0,2 ,catalán,0.0,castellano,0.0,inglés,3.0,3.0,2.0,yes,no,no,flauta,12,guitarra,12,,,nada,82.0,yes
82,2023-10-30_18h41.49.248,Unsyncopated1,s27,20.0,feminino,right,España,catalán y castellano,Bachelor degree,no,no,B,1,what,L2,unsyncopated,s2,r2,82,Online_whatL2//d.si.ñu3.0.444.wav,si,ba,ñu,sil2,fe,te,cha,sil,ra,ño,sil1,['catch'],[1.1725000000000136],[1.1725000000000136],0.444,no_beat,0.7285000000000137,0.7285000000000137,"[""space""]",ñu,4,testWhenL3Uns//r2.s1.1.wav,4.0,when,unsyncopated,b,s1,rule,rule,L3,m,0.0207,3.0,0.0,0.284,3.0,2 ,catalán,0.0,castellano,0.0,inglés,3.0,3.0,2.0,yes,no,no,flauta,12,guitarra,12,,,nada,82.0,yes
83,2023-10-30_18h41.49.248,Unsyncopated1,s27,20.0,feminino,right,España,catalán y castellano,Bachelor degree,no,no,B,1,what,L2,unsyncopated,s2,r1,83,Online_whatL2//d.si.ñu0.0.444.wav,si,mi,ñu,sil,go,ba,te,sil2,du,to,sil1,['catch'],[1.0928000000119482],[1.0928000000119482],0.444,no_beat,0.6488000000119483,0.6488000000119483,"[""space""]",ñu,4,testWhenL3Uns//cat_viol.r2.s1.0.wav,4.0,when,unsyncopated,b,s1,no_rule,cat,L3,m,0.0376,6.0,0.0,0.3218,3.0,2 ,catalán,0.0,castellano,0.0,inglés,3.0,3.0,2.0,yes,no,no,flauta,12,guitarra,12,,,nada,82.0,yes
84,2023-10-30_18h41.49.248,Unsyncopated1,s27,20.0,feminino,right,España,catalán y castellano,Bachelor degree,no,no,B,1,what,L2,unsyncopated,s2,r2,84,Online_whatL2//d.si.ñu15.none.none.wav,su,te,mi,sil2,fe,ño,bi,sil,ra,cha,sil1,['false alarm'],[2.1495999999642663],[2.1495999999642663],none,none,,,"[""space""]",ñu,4,testWhenL3Uns//r1.s1.2.wav,4.0,when,unsyncopated,a,s1,rule,rule,L3,z,1.118,3.0,1.0,0.1388,3.0,2 ,catalán,0.0,castellano,0.0,inglés,3.0,3.0,2.0,yes,no,no,flauta,12,guitarra,12,,,nada,82.0,yes
85,2023-10-30_18h41.49.248,Unsyncopated1,s27,20.0,feminino,right,España,catalán y castellano,Bachelor degree,no,no,B,1,what,L2,unsyncopated,s1,r1,85,Online_whatL2//d.si.ñu12.222.444.wav,go,si,ñu,sil,du,ba,me,sil1,bi,to,sil2,['catch'],[1.0378000000119982],[1.0378000000119982],0.444,no_beat,0.5938000000119983,0.5938000000119983,"[""space""]",ñu,4,testWhenL3Uns//cat_viol.r2.s2.0.wav,4.0,when,unsyncopated,b,s2,no_rule,cat,L3,m,0.3047,2.0,0.0,0.3173,3.0,2 ,catalán,0.0,castellano,0.0,inglés,3.0,3.0,2.0,yes,no,no,flauta,12,guitarra,12,,,nada,82.0,yes
86,2023-10-30_18h41.49.248,Unsyncopated1,s27,20.0,feminino,right,España,catalán y castellano,Bachelor degree,no,no,B,1,what,L2,unsyncopated,s1,r2,86,Online_whatL2//d.si.ñu14.none.none.wav,fe,te,cha,sil,ra,mi,ba,sil1,bi,ño,sil2,['-'],,,none,none,,,,ñu,4,testWhenL3Uns//r1.s1.1.wav,4.0,when,unsyncopated,a,s1,rule,rule,L3,z,0.2325,7.0,1.0,0.1508,3.0,2 ,catalán,0.0,castellano,0.0,inglés,3.0,3.0,2.0,yes,no,no,flauta,12,guitarra,12,,,nada,82.0,yes
87,2023-10-30_18h41.49.248,Unsyncopated1,s27,20.0,feminino,right,España,catalán y castellano,Bachelor degree,no,no,B,1,what,L2,unsyncopated,s2,r2,87,Online_whatL2//d.si.ñu13.444.0.wav,ñu,te,si,sil,fe,bi,cha,sil1,ra,ba,sil2,['catch'],[0.6946999999880745],[0.6946999999880745],0.0,beat,0.6946999999880745,0.6946999999880745,"[""space""]",ñu,4,testWhenL3Uns//r1.s1.0.wav,4.0,when,unsyncopated,a,s1,rule,rule,L3,z,0.2573,7.0,1.0,0.205,3.0,2 ,catalán,0.0,castellano,0.0,inglés,3.0,3.0,2.0,yes,no,no,flauta,12,guitarra,12,,,nada,82.0,yes
88,2023-10-30_18h41.49.248,Unsyncopated1,s27,20.0,feminino,right,España,catalán y castellano,Bachelor degree,no,no,B,1,what,L2,unsyncopated,s1,r2,88,Online_whatL2//c.cha.me13.none.none.wav,fe,su,te,sil,ra,ño,si,sil2,ba,bi,sil1,['-'],,,none,none,,,,me,3,testWhenL3Uns//dep_viol.r2.s1.0.wav,4.0,when,unsyncopated,b,s1,no_rule,dep,L3,m,0.3913,4.0,0.0,0.3839,3.0,2 ,catalán,0.0,castellano,0.0,inglés,3.0,3.0,2.0,yes,no,no,flauta,12,guitarra,12,,,nada,82.0,yes
89,2023-10-30_18h41.49.248,Unsyncopated1,s27,20.0,feminino,right,España,catalán y castellano,Bachelor degree,no,no,B,1,what,L2,unsyncopated,s2,r1,89,Online_whatL2//c.cha.me14.none.none.wav,ñu,to,ño,sil,go,ba,si,sil2,du,mi,sil1,['-'],,,none,none,,,,me,3,testWhenL3Uns//r2.s2.2.wav,4.0,when,unsyncopated,b,s2,rule,rule,L3,z,0.1577,5.0,1.0,0.2181,3.0,2 ,catalán,0.0,castellano,0.0,inglés,3.0,3.0,2.0,yes,no,no,flauta,12,guitarra,12,,,nada,82.0,yes
90,2023-10-30_18h41.49.248,Unsyncopated1,s27,20.0,feminino,right,España,catalán y castellano,Bachelor degree,no,no,B,1,what,L2,unsyncopated,s2,r1,90,Online_whatL2//c.cha.me15.none.none.wav,su,ñu,mi,sil,go,ba,bi,sil1,du,to,sil2,['-'],,,none,none,,,,me,3,testWhenL3Uns//cat_viol.r1.s2.0.wav,4.0,when,unsyncopated,a,s2,no_rule,cat,L3,m,0.1338,5.0,0.0,0.2344,3.0,2 ,catalán,0.0,castellano,0.0,inglés,3.0,3.0,2.0,yes,no,no,flauta,12,guitarra,12,,,nada,82.0,yes
91,2023-10-30_18h41.49.248,Unsyncopated1,s27,20.0,feminino,right,España,catalán y castellano,Bachelor degree,no,no,B,1,what,L2,unsyncopated,s1,r1,91,Online_whatL2//c.cha.me12.1332.222.wav,go,me,si,sil,du,ñu,cha,sil1,mi,to,sil2,['catch'],[0.9215999999643145],[0.9215999999643145],0.222,no_beat,0.6995999999643145,0.6995999999643145,"[""space""]",me,3,testWhenL3Uns//time_viol.r1.s2.0.wav,4.0,when,unsyncopated,a,s2,no_rule,time,L3,m,0.2831,6.0,0.0,0.2678,3.0,2 ,catalán,0.0,castellano,0.0,inglés,3.0,3.0,2.0,yes,no,no,flauta,12,guitarra,12,,,nada,82.0,yes
92,2023-10-30_18h41.49.248,Unsyncopated1,s27,20.0,feminino,right,España,catalán y castellano,Bachelor degree,no,no,B,1,what,L2,unsyncopated,s1,r1,92,Online_whatL2//b.fe.ra13.none.none.wav,go,mi,te,sil2,du,to,si,sil,ñu,me,sil1,['-'],,,none,none,,,,ra,2,testWhenL3Uns//time_viol.r2.s2.0.wav,4.0,when,unsyncopated,b,s2,no_rule,time,L3,z,0.4216,3.0,1.0,0.168,3.0,2 ,catalán,0.0,castellano,0.0,inglés,3.0,3.0,2.0,yes,no,no,flauta,12,guitarra,12,,,nada,82.0,yes
93,2023-10-30_18h41.49.248,Unsyncopated1,s27,20.0,feminino,right,España,catalán y castellano,Bachelor degree,no,no,B,1,what,L2,unsyncopated,s1,r1,93,Online_whatL2//b.fe.ra14.none.none.wav,go,bi,su,sil,du,me,te,sil2,to,cha,sil1,['-'],,,none,none,,,,ra,2,testWhenL3Uns//time_viol.r2.s1.0.wav,4.0,when,unsyncopated,b,s1,no_rule,time,L3,z,0.3041,4.0,1.0,0.1349,3.0,2 ,catalán,0.0,castellano,0.0,inglés,3.0,3.0,2.0,yes,no,no,flauta,12,guitarra,12,,,nada,82.0,yes
94,2023-10-30_18h41.49.248,Unsyncopated1,s27,20.0,feminino,right,España,catalán y castellano,Bachelor degree,no,no,B,1,what,L2,unsyncopated,s2,r2,94,Online_whatL2//b.fe.ra15.888.1998.wav,to,ñu,cha,sil,fe,me,ba,sil2,ra,si,sil1,['catch'],[2.556500000000028],[2.556500000000028],1.998,no_beat,0.5585000000000282,0.5585000000000282,"[""space""]",ra,2,testWhenL3Uns//r1.s2.0.wav,4.0,when,unsyncopated,a,s2,rule,rule,L3,m,0.1673,5.0,0.0,0.1873,3.0,2 ,catalán,0.0,castellano,0.0,inglés,3.0,3.0,2.0,yes,no,no,flauta,12,guitarra,12,,,nada,82.0,yes
95,2023-10-30_18h41.49.248,Unsyncopated1,s27,20.0,feminino,right,España,catalán y castellano,Bachelor degree,no,no,B,1,what,L2,unsyncopated,s2,r1,95,Online_whatL2//b.fe.ra12.none.none.wav,te,mi,ñu,sil,go,bi,to,sil2,du,cha,sil1,['-'],,,none,none,,,,ra,2,testWhenL3Uns//cat_viol.r1.s1.0.wav,4.0,when,unsyncopated,a,s1,no_rule,cat,L3,z,0.15,7.0,1.0,0.1889,3.0,2 ,catalán,0.0,castellano,0.0,inglés,3.0,3.0,2.0,yes,no,no,flauta,12,guitarra,12,,,nada,82.0,yes
96,2023-10-30_18h41.49.248,Unsyncopated1,s27,20.0,feminino,right,España,catalán y castellano,Bachelor degree,no,no,B,1,what,L2,unsyncopated,s2,r1,96,Online_whatL2//c.cha.me29.none.none.wav,ño,ba,mi,sil,go,ñu,bi,sil1,du,te,sil2,['-'],,,none,none,,,,me,3,,,,,,,,,,,,,,,3.0,2 ,catalán,0.0,castellano,0.0,inglés,3.0,3.0,2.0,yes,no,no,flauta,12,guitarra,12,,,nada,82.0,yes
97,2023-10-30_18h41.49.248,Unsyncopated1,s27,20.0,feminino,right,España,catalán y castellano,Bachelor degree,no,no,B,1,what,L2,unsyncopated,s2,r2,97,Online_whatL2//c.cha.me28.0.1110.wav,cha,to,su,sil,fe,me,te,sil1,ra,bi,sil2,"['false alarm', 'catch']","[0.4443000000119355, 1.7828999999761663]",[1.7828999999761663],1.11,no_beat,0.6728999999761662,0.6728999999761662,"[""space"",""space""]",me,3,,,,,,,,,,,,,,,3.0,2 ,catalán,0.0,castellano,0.0,inglés,3.0,3.0,2.0,yes,no,no,flauta,12,guitarra,12,,,nada,82.0,yes
98,2023-10-30_18h41.49.248,Unsyncopated1,s27,20.0,feminino,right,España,catalán y castellano,Bachelor degree,no,no,B,1,what,L2,unsyncopated,s2,r2,98,Online_whatL2//c.cha.me31.1110.222.wav,su,me,ño,sil,fe,cha,bi,sil1,ra,mi,sil2,['catch'],[1.3572999999523745],[1.3572999999523745],0.222,no_beat,1.1352999999523743,1.1352999999523743,"[""space""]",me,3,,,,,,,,,,,,,,,3.0,2 ,catalán,0.0,castellano,0.0,inglés,3.0,3.0,2.0,yes,no,no,flauta,12,guitarra,12,,,nada,82.0,yes
99,2023-10-30_18h41.49.248,Unsyncopated1,s27,20.0,feminino,right,España,catalán y castellano,Bachelor degree,no,no,B,1,what,L2,unsyncopated,s1,r2,99,Online_whatL2//c.cha.me30.none.none.wav,fe,ba,su,sil,ra,mi,ño,sil1,ñu,to,sil2,['false alarm'],[2.054300000011949],[2.054300000011949],none,none,,,"[""space""]",me,3,,,,,,,,,,,,,,,3.0,2 ,catalán,0.0,castellano,0.0,inglés,3.0,3.0,2.0,yes,no,no,flauta,12,guitarra,12,,,nada,82.0,yes
100,2023-10-30_18h41.49.248,Unsyncopated1,s27,20.0,feminino,right,España,catalán y castellano,Bachelor degree,no,no,B,1,what,L2,unsyncopated,s1,r2,100,Online_whatL2//c.cha.me20.444.1332.wav,fe,si,cha,sil,ra,bi,me,sil2,ño,mi,sil1,['catch'],[2.2045999999642163],[2.2045999999642163],1.332,no_beat,0.8725999999642162,0.8725999999642162,"[""space""]",me,3,,,,,,,,,,,,,,,3.0,2 ,catalán,0.0,castellano,0.0,inglés,3.0,3.0,2.0,yes,no,no,flauta,12,guitarra,12,,,nada,82.0,yes
101,2023-10-30_18h41.49.248,Unsyncopated1,s27,20.0,feminino,right,España,catalán y castellano,Bachelor degree,no,no,B,1,what,L2,unsyncopated,s1,r1,101,Online_whatL2//c.cha.me21.none.none.wav,go,mi,bi,sil,du,si,su,sil2,te,ba,sil1,['-'],,,none,none,,,,me,3,,,,,,,,,,,,,,,3.0,2 ,catalán,0.0,castellano,0.0,inglés,3.0,3.0,2.0,yes,no,no,flauta,12,guitarra,12,,,nada,82.0,yes
102,2023-10-30_18h41.49.248,Unsyncopated1,s27,20.0,feminino,right,España,catalán y castellano,Bachelor degree,no,no,B,1,what,L2,unsyncopated,s2,r1,102,Online_whatL2//c.cha.me22.0.1110.wav,cha,to,su,sil,go,me,ño,sil1,du,ba,sil2,['miss'],,,1.11,no_beat,,,,me,3,,,,,,,,,,,,,,,3.0,2 ,catalán,0.0,castellano,0.0,inglés,3.0,3.0,2.0,yes,no,no,flauta,12,guitarra,12,,,nada,82.0,yes
103,2023-10-30_18h41.49.248,Unsyncopated1,s27,20.0,feminino,right,España,catalán y castellano,Bachelor degree,no,no,B,1,what,L2,unsyncopated,s2,r2,103,Online_whatL2//c.cha.me23.none.none.wav,si,ñu,te,sil,fe,ba,su,sil2,ra,to,sil1,['-'],,,none,none,,,,me,3,,,,,,,,,,,,,,,3.0,2 ,catalán,0.0,castellano,0.0,inglés,3.0,3.0,2.0,yes,no,no,flauta,12,guitarra,12,,,nada,82.0,yes
104,2023-10-30_18h41.49.248,Unsyncopated1,s27,20.0,feminino,right,España,catalán y castellano,Bachelor degree,no,no,B,1,what,L2,unsyncopated,s1,r2,104,Online_whatL2//b.fe.ra0.0.1110.wav,fe,cha,ño,sil2,ra,te,me,sil,to,ñu,sil1,"['false alarm', 'catch']","[1.0485999999641535, 2.114500000000021]",[2.114500000000021],1.11,no_beat,1.0045000000000208,1.0045000000000208,"[""space"",""space""]",ra,2,,,,,,,,,,,,,,,3.0,2 ,catalán,0.0,castellano,0.0,inglés,3.0,3.0,2.0,yes,no,no,flauta,12,guitarra,12,,,nada,82.0,yes
105,2023-10-30_18h41.49.248,Unsyncopated1,s27,20.0,feminino,right,España,catalán y castellano,Bachelor degree,no,no,B,1,what,L2,unsyncopated,s1,r2,105,Online_whatL2//b.fe.ra1.0.1110.wav,fe,bi,ño,sil2,ra,ba,cha,sil,ñu,to,sil1,['catch'],[1.7551000000238446],[1.7551000000238446],1.11,no_beat,0.6451000000238445,0.6451000000238445,"[""space""]",ra,2,,,,,,,,,,,,,,,3.0,2 ,catalán,0.0,castellano,0.0,inglés,3.0,3.0,2.0,yes,no,no,flauta,12,guitarra,12,,,nada,82.0,yes
106,2023-10-30_18h41.49.248,Unsyncopated1,s27,20.0,feminino,right,España,catalán y castellano,Bachelor degree,no,no,B,1,what,L2,unsyncopated,s2,r2,106,Online_whatL2//b.fe.ra3.1110.1998.wav,si,ño,me,sil2,fe,ñu,cha,sil,ra,bi,sil1,['miss'],,,1.998,no_beat,,,,ra,2,,,,,,,,,,,,,,,3.0,2 ,catalán,0.0,castellano,0.0,inglés,3.0,3.0,2.0,yes,no,no,flauta,12,guitarra,12,,,nada,82.0,yes
107,2023-10-30_18h41.49.248,Unsyncopated1,s27,20.0,feminino,right,España,catalán y castellano,Bachelor degree,no,no,B,1,what,L2,unsyncopated,s1,r1,107,Online_whatL2//b.fe.ra2.none.none.wav,go,cha,mi,sil2,du,to,bi,sil,ño,ba,sil1,['false alarm'],[0.7919000000357528],[0.7919000000357528],none,none,,,"[""space""]",ra,2,,,,,,,,,,,,,,,3.0,2 ,catalán,0.0,castellano,0.0,inglés,3.0,3.0,2.0,yes,no,no,flauta,12,guitarra,12,,,nada,82.0,yes
108,2023-10-30_18h41.49.248,Unsyncopated1,s27,20.0,feminino,right,España,catalán y castellano,Bachelor degree,no,no,B,1,what,L2,unsyncopated,s1,r2,108,Online_whatL2//c.cha.me6.222.1110.wav,fe,cha,ba,sil,ra,me,te,sil2,si,mi,sil1,['catch'],[1.786699999988059],[1.786699999988059],1.11,no_beat,0.676699999988059,0.676699999988059,"[""space""]",me,3,,,,,,,,,,,,,,,3.0,2 ,catalán,0.0,castellano,0.0,inglés,3.0,3.0,2.0,yes,no,no,flauta,12,guitarra,12,,,nada,82.0,yes
109,2023-10-30_18h41.49.248,Unsyncopated1,s27,20.0,feminino,right,España,catalán y castellano,Bachelor degree,no,no,B,1,what,L2,unsyncopated,s2,r1,109,Online_whatL2//c.cha.me5.none.none.wav,ñu,mi,ño,sil2,go,te,ba,sil,du,su,sil1,['-'],,,none,none,,,,me,3,,,,,,,,,,,,,,,3.0,2 ,catalán,0.0,castellano,0.0,inglés,3.0,3.0,2.0,yes,no,no,flauta,12,guitarra,12,,,nada,82.0,yes
110,2023-10-30_18h41.49.248,Unsyncopated1,s27,20.0,feminino,right,España,catalán y castellano,Bachelor degree,no,no,B,1,what,L2,unsyncopated,s1,r1,110,Online_whatL2//c.cha.me7.222.444.wav,go,cha,me,sil,du,bi,si,sil1,su,ba,sil2,['catch'],[1.1631999999880236],[1.1631999999880236],0.444,no_beat,0.7191999999880236,0.7191999999880236,"[""space""]",me,3,,,,,,,,,,,,,,,3.0,2 ,catalán,0.0,castellano,0.0,inglés,3.0,3.0,2.0,yes,no,no,flauta,12,guitarra,12,,,nada,82.0,yes
111,2023-10-30_18h41.49.248,Unsyncopated1,s27,20.0,feminino,right,España,catalán y castellano,Bachelor degree,no,no,B,1,what,L2,unsyncopated,s2,r2,111,Online_whatL2//c.cha.me4.none.none.wav,ba,te,su,sil2,fe,ño,si,sil,ra,ñu,sil1,['-'],,,none,none,,,,me,3,,,,,,,,,,,,,,,3.0,2 ,catalán,0.0,castellano,0.0,inglés,3.0,3.0,2.0,yes,no,no,flauta,12,guitarra,12,,,nada,82.0,yes
112,2023-10-30_18h41.49.248,Unsyncopated1,s27,20.0,feminino,right,España,catalán y castellano,Bachelor degree,no,no,B,1,what,L2,unsyncopated,s1,r1,112,Online_whatL2//b.fe.ra4.none.none.wav,go,te,to,sil2,du,ño,me,sil,su,cha,sil1,['-'],,,none,none,,,,ra,2,,,,,,,,,,,,,,,3.0,2 ,catalán,0.0,castellano,0.0,inglés,3.0,3.0,2.0,yes,no,no,flauta,12,guitarra,12,,,nada,82.0,yes
113,2023-10-30_18h41.49.248,Unsyncopated1,s27,20.0,feminino,right,España,catalán y castellano,Bachelor degree,no,no,B,1,what,L2,unsyncopated,s2,r2,113,Online_whatL2//b.fe.ra5.888.1776.wav,ñu,ño,mi,sil,fe,me,ba,sil1,ra,te,sil2,['catch'],[2.3562999999522845],[2.3562999999522845],1.776,beat,0.5802999999522844,0.5802999999522844,"[""space""]",ra,2,,,,,,,,,,,,,,,3.0,2 ,catalán,0.0,castellano,0.0,inglés,3.0,3.0,2.0,yes,no,no,flauta,12,guitarra,12,,,nada,82.0,yes
114,2023-10-30_18h41.49.248,Unsyncopated1,s27,20.0,feminino,right,España,catalán y castellano,Bachelor degree,no,no,B,1,what,L2,unsyncopated,s2,r1,114,Online_whatL2//b.fe.ra6.none.none.wav,si,su,te,sil2,go,ba,mi,sil,du,ñu,sil1,['-'],,,none,none,,,,ra,2,,,,,,,,,,,,,,,3.0,2 ,catalán,0.0,castellano,0.0,inglés,3.0,3.0,2.0,yes,no,no,flauta,12,guitarra,12,,,nada,82.0,yes
115,2023-10-30_18h41.49.248,Unsyncopated1,s27,20.0,feminino,right,España,catalán y castellano,Bachelor degree,no,no,B,1,what,L2,unsyncopated,s1,r1,115,Online_whatL2//b.fe.ra7.none.none.wav,go,cha,me,sil,du,bi,te,sil1,ñu,su,sil2,['-'],,,none,none,,,,ra,2,,,,,,,,,,,,,,,3.0,2 ,catalán,0.0,castellano,0.0,inglés,3.0,3.0,2.0,yes,no,no,flauta,12,guitarra,12,,,nada,82.0,yes
116,2023-10-30_18h41.49.248,Unsyncopated1,s27,20.0,feminino,right,España,catalán y castellano,Bachelor degree,no,no,B,1,what,L2,unsyncopated,s1,r1,116,Online_whatL2//d.si.ñu28.444.1554.wav,go,me,si,sil2,du,to,ñu,sil,te,mi,sil1,['catch'],[2.399899999976128],[2.399899999976128],1.554,no_beat,0.8458999999761281,0.8458999999761281,"[""space""]",ñu,4,,,,,,,,,,,,,,,3.0,2 ,catalán,0.0,castellano,0.0,inglés,3.0,3.0,2.0,yes,no,no,flauta,12,guitarra,12,,,nada,82.0,yes
117,2023-10-30_18h41.49.248,Unsyncopated1,s27,20.0,feminino,right,España,catalán y castellano,Bachelor degree,no,no,B,1,what,L2,unsyncopated,s1,r2,117,Online_whatL2//d.si.ñu30.1332.222.wav,fe,ñu,te,sil2,ra,si,to,sil,bi,ba,sil1,['miss'],,,0.222,no_beat,,,,ñu,4,,,,,,,,,,,,,,,3.0,2 ,catalán,0.0,castellano,0.0,inglés,3.0,3.0,2.0,yes,no,no,flauta,12,guitarra,12,,,nada,82.0,yes
118,2023-10-30_18h41.49.248,Unsyncopated1,s27,20.0,feminino,right,España,catalán y castellano,Bachelor degree,no,no,B,1,what,L2,unsyncopated,s1,r2,118,Online_whatL2//d.si.ñu31.none.none.wav,fe,mi,ño,sil,ra,su,me,sil1,ba,te,sil2,['-'],,,none,none,,,,ñu,4,,,,,,,,,,,,,,,3.0,2 ,catalán,0.0,castellano,0.0,inglés,3.0,3.0,2.0,yes,no,no,flauta,12,guitarra,12,,,nada,82.0,yes
119,2023-10-30_18h41.49.248,Unsyncopated1,s27,20.0,feminino,right,España,catalán y castellano,Bachelor degree,no,no,B,1,what,L2,unsyncopated,s1,r2,119,Online_whatL2//d.si.ñu29.222.1110.wav,fe,si,me,sil,ra,ñu,ño,sil2,mi,te,sil1,['catch'],[1.7551000000238446],[1.7551000000238446],1.11,no_beat,0.6451000000238445,0.6451000000238445,"[""space""]",ñu,4,,,,,,,,,,,,,,,3.0,2 ,catalán,0.0,castellano,0.0,inglés,3.0,3.0,2.0,yes,no,no,flauta,12,guitarra,12,,,nada,82.0,yes
120,2023-10-30_18h41.49.248,Unsyncopated1,s27,20.0,feminino,right,España,catalán y castellano,Bachelor degree,no,no,B,1,what,L2,unsyncopated,s2,r1,120,Online_whatL2//b.fe.ra20.none.none.wav,te,me,mi,sil,go,to,ñu,sil2,du,ba,sil1,['-'],,,none,none,,,,ra,2,,,,,,,,,,,,,,,3.0,2 ,catalán,0.0,castellano,0.0,inglés,3.0,3.0,2.0,yes,no,no,flauta,12,guitarra,12,,,nada,82.0,yes
121,2023-10-30_18h41.49.248,Unsyncopated1,s27,20.0,feminino,right,España,catalán y castellano,Bachelor degree,no,no,B,1,what,L2,unsyncopated,s2,r1,121,Online_whatL2//b.fe.ra23.none.none.wav,te,ñu,me,sil,go,cha,ño,sil1,du,bi,sil2,['-'],,,none,none,,,,ra,2,,,,,,,,,,,,,,,3.0,2 ,catalán,0.0,castellano,0.0,inglés,3.0,3.0,2.0,yes,no,no,flauta,12,guitarra,12,,,nada,82.0,yes
122,2023-10-30_18h41.49.248,Unsyncopated1,s27,20.0,feminino,right,España,catalán y castellano,Bachelor degree,no,no,B,1,what,L2,unsyncopated,s2,r2,122,Online_whatL2//b.fe.ra22.888.1776.wav,ba,me,cha,sil,fe,su,ño,sil1,ra,to,sil2,['catch'],[2.455800000011891],[2.455800000011891],1.776,beat,0.6798000000118909,0.6798000000118909,"[""space""]",ra,2,,,,,,,,,,,,,,,3.0,2 ,catalán,0.0,castellano,0.0,inglés,3.0,3.0,2.0,yes,no,no,flauta,12,guitarra,12,,,nada,82.0,yes
123,2023-10-30_18h41.49.248,Unsyncopated1,s27,20.0,feminino,right,España,catalán y castellano,Bachelor degree,no,no,B,1,what,L2,unsyncopated,s1,r2,123,Online_whatL2//b.fe.ra21.0.888.wav,fe,bi,su,sil,ra,to,te,sil1,ba,ñu,sil2,['miss'],,,0.888,beat,,,,ra,2,,,,,,,,,,,,,,,3.0,2 ,catalán,0.0,castellano,0.0,inglés,3.0,3.0,2.0,yes,no,no,flauta,12,guitarra,12,,,nada,82.0,yes
124,2023-10-30_18h41.49.248,Unsyncopated1,s27,20.0,feminino,right,España,catalán y castellano,Bachelor degree,no,no,B,1,what,L2,unsyncopated,s1,r1,124,Online_whatL2//d.si.ñu9.444.1332.wav,go,mi,si,sil,du,me,ñu,sil2,to,su,sil1,['false alarm'],[0.43310000002384186],[0.43310000002384186],1.332,no_beat,,,"[""space""]",ñu,4,,,,,,,,,,,,,,,3.0,2 ,catalán,0.0,castellano,0.0,inglés,3.0,3.0,2.0,yes,no,no,flauta,12,guitarra,12,,,nada,82.0,yes
125,2023-10-30_18h41.49.248,Unsyncopated1,s27,20.0,feminino,right,España,catalán y castellano,Bachelor degree,no,no,B,1,what,L2,unsyncopated,s2,r1,125,Online_whatL2//d.si.ñu11.none.none.wav,su,bi,me,sil,go,te,mi,sil1,du,ño,sil2,['-'],,,none,none,,,,ñu,4,,,,,,,,,,,,,,,3.0,2 ,catalán,0.0,castellano,0.0,inglés,3.0,3.0,2.0,yes,no,no,flauta,12,guitarra,12,,,nada,82.0,yes
126,2023-10-30_18h41.49.248,Unsyncopated1,s27,20.0,feminino,right,España,catalán y castellano,Bachelor degree,no,no,B,1,what,L2,unsyncopated,s2,r2,126,Online_whatL2//d.si.ñu10.1554.222.wav,to,ñu,cha,sil2,fe,me,si,sil,ra,te,sil1,"['false alarm', 'catch']","[0.026099999964230847, 1.3633999999761954]",[1.3633999999761954],0.222,no_beat,1.1413999999761957,1.1413999999761957,"[""space"",""space""]",ñu,4,,,,,,,,,,,,,,,3.0,2 ,catalán,0.0,castellano,0.0,inglés,3.0,3.0,2.0,yes,no,no,flauta,12,guitarra,12,,,nada,82.0,yes
127,2023-10-30_18h41.49.248,Unsyncopated1,s27,20.0,feminino,right,España,catalán y castellano,Bachelor degree,no,no,B,1,what,L2,unsyncopated,s1,r1,127,Online_whatL2//d.si.ñu8.none.none.wav,go,ba,to,sil2,du,mi,su,sil,te,cha,sil1,['-'],,,none,none,,,,ñu,4,,,,,,,,,,,,,,,3.0,2 ,catalán,0.0,castellano,0.0,inglés,3.0,3.0,2.0,yes,no,no,flauta,12,guitarra,12,,,nada,82.0,yes
128,2023-10-30_18h41.49.248,Unsyncopated1,s27,20.0,feminino,right,España,catalán y castellano,Bachelor degree,no,no,B,2,conjunction_un,L1,unsyncopated,s2,r2,0,Online_conjL1_un//c.ro.fo31.0.1110.wav,ro,ne,zu,sil,ta,fo,cho,sil1,be,ri,sil2,['miss'],,,1.11,no_beat,,,,fo,3,,,,,,,,,,,,,,,3.0,2 ,catalán,0.0,castellano,0.0,inglés,3.0,3.0,2.0,yes,no,no,flauta,12,guitarra,12,,,nada,82.0,yes
129,2023-10-30_18h41.49.248,Unsyncopated1,s27,20.0,feminino,right,España,catalán y castellano,Bachelor degree,no,no,B,2,conjunction_un,L1,unsyncopated,s1,r1,1,Online_conjL1_un//c.ro.fo29.1110.1332.wav,pu,fa,ni,sil,ki,ro,fo,sil1,zu,cho,sil2,['catch'],[1.9761999999880118],[1.9761999999880118],1.332,no_beat,0.6441999999880117,0.6441999999880117,"[""space""]",fo,3,,,,,,,,,,,,,,,3.0,2 ,catalán,0.0,castellano,0.0,inglés,3.0,3.0,2.0,yes,no,no,flauta,12,guitarra,12,,,nada,82.0,yes
130,2023-10-30_18h41.49.248,Unsyncopated1,s27,20.0,feminino,right,España,catalán y castellano,Bachelor degree,no,no,B,2,conjunction_un,L1,unsyncopated,s1,r1,2,Online_conjL1_un//c.ro.fo30.none.none.wav,pu,ni,cho,sil,ki,la,lu,sil1,ne,fa,sil2,['-'],,,none,none,,,,fo,3,,,,,,,,,,,,,,,3.0,2 ,catalán,0.0,castellano,0.0,inglés,3.0,3.0,2.0,yes,no,no,flauta,12,guitarra,12,,,nada,82.0,yes
131,2023-10-30_18h41.49.248,Unsyncopated1,s27,20.0,feminino,right,España,catalán y castellano,Bachelor degree,no,no,B,2,conjunction_un,L1,unsyncopated,s1,r2,3,Online_conjL1_un//c.ro.fo28.444.1110.wav,ta,lu,ro,sil,be,fo,ri,sil1,cho,fa,sil2,['catch'],[1.7083000000120592],[1.7083000000120592],1.11,no_beat,0.5983000000120591,0.5983000000120591,"[""space""]",fo,3,,,,,,,,,,,,,,,3.0,2 ,catalán,0.0,castellano,0.0,inglés,3.0,3.0,2.0,yes,no,no,flauta,12,guitarra,12,,,nada,82.0,yes
132,2023-10-30_18h41.49.248,Unsyncopated1,s27,20.0,feminino,right,España,catalán y castellano,Bachelor degree,no,no,B,2,conjunction_un,L1,unsyncopated,s2,r1,4,Online_conjL1_un//b.ta.be7.none.none.wav,zu,fa,lu,sil,pu,fo,ri,sil1,ki,ne,sil2,['-'],,,none,none,,,,be,2,,,,,,,,,,,,,,,3.0,2 ,catalán,0.0,castellano,0.0,inglés,3.0,3.0,2.0,yes,no,no,flauta,12,guitarra,12,,,nada,82.0,yes
133,2023-10-30_18h41.49.248,Unsyncopated1,s27,20.0,feminino,right,España,catalán y castellano,Bachelor degree,no,no,B,2,conjunction_un,L1,unsyncopated,s2,r1,5,Online_conjL1_un//b.ta.be6.none.none.wav,la,fo,cho,sil,pu,fa,ro,sil1,ki,ze,sil2,['-'],,,none,none,,,,be,2,,,,,,,,,,,,,,,3.0,2 ,catalán,0.0,castellano,0.0,inglés,3.0,3.0,2.0,yes,no,no,flauta,12,guitarra,12,,,nada,82.0,yes
134,2023-10-30_18h41.49.248,Unsyncopated1,s27,20.0,feminino,right,España,catalán y castellano,Bachelor degree,no,no,B,2,conjunction_un,L1,unsyncopated,s2,r1,6,Online_conjL1_un//b.ta.be5.none.none.wav,ri,ni,fo,sil,pu,la,ze,sil1,ki,zu,sil2,['false alarm'],[1.8038999999760108],[1.8038999999760108],none,none,,,"[""space""]",be,2,,,,,,,,,,,,,,,3.0,2 ,catalán,0.0,castellano,0.0,inglés,3.0,3.0,2.0,yes,no,no,flauta,12,guitarra,12,,,nada,82.0,yes
135,2023-10-30_18h41.49.248,Unsyncopated1,s27,20.0,feminino,right,España,catalán y castellano,Bachelor degree,no,no,B,2,conjunction_un,L1,unsyncopated,s2,r2,7,Online_conjL1_un//b.ta.be4.888.1776.wav,fa,ri,cho,sil,ta,ni,ze,sil1,be,ro,sil2,['catch'],[1.8698999999760417],[1.8698999999760417],1.776,beat,0.0938999999760417,0.0938999999760417,"[""space""]",be,2,,,,,,,,,,,,,,,3.0,2 ,catalán,0.0,castellano,0.0,inglés,3.0,3.0,2.0,yes,no,no,flauta,12,guitarra,12,,,nada,82.0,yes
136,2023-10-30_18h41.49.248,Unsyncopated1,s27,20.0,feminino,right,España,catalán y castellano,Bachelor degree,no,no,B,2,conjunction_un,L1,unsyncopated,s2,r1,8,Online_conjL1_un//d.ne.ni3.none.none.wav,cho,lu,zu,sil,pu,ro,la,sil1,ki,ri,sil2,['false alarm'],[2.4320999999642936],[2.4320999999642936],none,none,,,"[""space""]",ni,4,,,,,,,,,,,,,,,3.0,2 ,catalán,0.0,castellano,0.0,inglés,3.0,3.0,2.0,yes,no,no,flauta,12,guitarra,12,,,nada,82.0,yes
137,2023-10-30_18h41.49.248,Unsyncopated1,s27,20.0,feminino,right,España,catalán y castellano,Bachelor degree,no,no,B,2,conjunction_un,L1,unsyncopated,s2,r1,9,Online_conjL1_un//d.ne.ni0.none.none.wav,ro,lu,fa,sil,pu,fo,ri,sil1,ki,ze,sil2,['-'],,,none,none,,,,ni,4,,,,,,,,,,,,,,,3.0,2 ,catalán,0.0,castellano,0.0,inglés,3.0,3.0,2.0,yes,no,no,flauta,12,guitarra,12,,,nada,82.0,yes
138,2023-10-30_18h41.49.248,Unsyncopated1,s27,20.0,feminino,right,España,catalán y castellano,Bachelor degree,no,no,B,2,conjunction_un,L1,unsyncopated,s2,r1,10,Online_conjL1_un//d.ne.ni1.222.444.wav,ro,ne,ni,sil,pu,ze,fo,sil1,ki,cho,sil2,['catch'],[0.9389999999998508],[0.9389999999998508],0.444,no_beat,0.4949999999998508,0.4949999999998508,"[""space""]",ni,4,,,,,,,,,,,,,,,3.0,2 ,catalán,0.0,castellano,0.0,inglés,3.0,3.0,2.0,yes,no,no,flauta,12,guitarra,12,,,nada,82.0,yes
139,2023-10-30_18h41.49.248,Unsyncopated1,s27,20.0,feminino,right,España,catalán y castellano,Bachelor degree,no,no,B,2,conjunction_un,L1,unsyncopated,s1,r1,11,Online_conjL1_un//d.ne.ni2.none.none.wav,pu,ze,fa,sil,ki,ro,cho,sil1,lu,zu,sil2,['-'],,,none,none,,,,ni,4,,,,,,,,,,,,,,,3.0,2 ,catalán,0.0,castellano,0.0,inglés,3.0,3.0,2.0,yes,no,no,flauta,12,guitarra,12,,,nada,82.0,yes
140,2023-10-30_18h41.49.248,Unsyncopated1,s27,20.0,feminino,right,España,catalán y castellano,Bachelor degree,no,no,B,2,conjunction_un,L1,unsyncopated,s1,r2,12,Online_conjL1_un//c.ro.fo20.none.none.wav,ta,ri,ni,sil,be,ze,cho,sil1,la,fa,sil2,['-'],,,none,none,,,,fo,3,,,,,,,,,,,,,,,3.0,2 ,catalán,0.0,castellano,0.0,inglés,3.0,3.0,2.0,yes,no,no,flauta,12,guitarra,12,,,nada,82.0,yes
141,2023-10-30_18h41.49.248,Unsyncopated1,s27,20.0,feminino,right,España,catalán y castellano,Bachelor degree,no,no,B,2,conjunction_un,L1,unsyncopated,s2,r1,13,Online_conjL1_un//c.ro.fo21.none.none.wav,zu,lu,cho,sil,pu,la,ne,sil1,ki,fa,sil2,['-'],,,none,none,,,,fo,3,,,,,,,,,,,,,,,3.0,2 ,catalán,0.0,castellano,0.0,inglés,3.0,3.0,2.0,yes,no,no,flauta,12,guitarra,12,,,nada,82.0,yes
142,2023-10-30_18h41.49.248,Unsyncopated1,s27,20.0,feminino,right,España,catalán y castellano,Bachelor degree,no,no,B,2,conjunction_un,L1,unsyncopated,s1,r1,14,Online_conjL1_un//c.ro.fo23.444.1332.wav,pu,ri,ro,sil,ki,ne,fo,sil1,cho,ze,sil2,['catch'],[1.7570000000000618],[1.7570000000000618],1.332,no_beat,0.4250000000000618,0.4250000000000618,"[""space""]",fo,3,,,,,,,,,,,,,,,3.0,2 ,catalán,0.0,castellano,0.0,inglés,3.0,3.0,2.0,yes,no,no,flauta,12,guitarra,12,,,nada,82.0,yes
143,2023-10-30_18h41.49.248,Unsyncopated1,s27,20.0,feminino,right,España,catalán y castellano,Bachelor degree,no,no,B,2,conjunction_un,L1,unsyncopated,s1,r1,15,Online_conjL1_un//c.ro.fo22.444.1332.wav,pu,la,ro,sil,ki,ri,fo,sil1,cho,ni,sil2,['catch'],[1.7749000000358137],[1.7749000000358137],1.332,no_beat,0.4429000000358136,0.4429000000358136,"[""space""]",fo,3,,,,,,,,,,,,,,,3.0,2 ,catalán,0.0,castellano,0.0,inglés,3.0,3.0,2.0,yes,no,no,flauta,12,guitarra,12,,,nada,82.0,yes
144,2023-10-30_18h41.49.248,Unsyncopated1,s27,20.0,feminino,right,España,catalán y castellano,Bachelor degree,no,no,B,2,conjunction_un,L1,unsyncopated,s2,r1,16,Online_conjL1_un//a.pu.ki0.888.1776.wav,ni,zu,ne,sil,pu,fa,ze,sil1,ki,ri,sil2,['catch'],[1.3419999999998709],[1.3419999999998709],0.888,beat,0.4539999999998708,0.4539999999998708,"[""space""]",pu,1,,,,,,,,,,,,,,,3.0,2 ,catalán,0.0,castellano,0.0,inglés,3.0,3.0,2.0,yes,no,no,flauta,12,guitarra,12,,,nada,82.0,yes
145,2023-10-30_18h41.49.248,Unsyncopated1,s27,20.0,feminino,right,España,catalán y castellano,Bachelor degree,no,no,B,2,conjunction_un,L1,unsyncopated,s2,r1,17,Online_conjL1_un//a.pu.ki1.888.1776.wav,ro,fa,ne,sil,pu,lu,cho,sil1,ki,ri,sil2,['catch'],[1.3208000000117863],[1.3208000000117863],0.888,beat,0.4328000000117863,0.4328000000117863,"[""space""]",pu,1,,,,,,,,,,,,,,,3.0,2 ,catalán,0.0,castellano,0.0,inglés,3.0,3.0,2.0,yes,no,no,flauta,12,guitarra,12,,,nada,82.0,yes
146,2023-10-30_18h41.49.248,Unsyncopated1,s27,20.0,feminino,right,España,catalán y castellano,Bachelor degree,no,no,B,2,conjunction_un,L1,unsyncopated,s1,r2,18,Online_conjL1_un//a.pu.ki3.none.none.wav,ta,fo,lu,sil,be,ze,cho,sil1,ri,la,sil2,['-'],,,none,none,,,,pu,1,,,,,,,,,,,,,,,3.0,2 ,catalán,0.0,castellano,0.0,inglés,3.0,3.0,2.0,yes,no,no,flauta,12,guitarra,12,,,nada,82.0,yes
147,2023-10-30_18h41.49.248,Unsyncopated1,s27,20.0,feminino,right,España,catalán y castellano,Bachelor degree,no,no,B,2,conjunction_un,L1,unsyncopated,s1,r2,19,Online_conjL1_un//a.pu.ki2.none.none.wav,ta,ro,ne,sil,be,lu,fo,sil1,la,ri,sil2,['false alarm'],[1.3893000000120992],[1.3893000000120992],none,none,,,"[""space""]",pu,1,,,,,,,,,,,,,,,3.0,2 ,catalán,0.0,castellano,0.0,inglés,3.0,3.0,2.0,yes,no,no,flauta,12,guitarra,12,,,nada,82.0,yes
148,2023-10-30_18h41.49.248,Unsyncopated1,s27,20.0,feminino,right,España,catalán y castellano,Bachelor degree,no,no,B,2,conjunction_un,L1,unsyncopated,s1,r1,20,Online_conjL1_un//a.pu.ki23.0.888.wav,pu,la,ze,sil,ki,cho,fo,sil1,ne,zu,sil2,['catch'],[0.4006999999880918],[0.4006999999880918],0.0,beat,0.4006999999880918,0.4006999999880918,"[""space""]",pu,1,,,,,,,,,,,,,,,3.0,2 ,catalán,0.0,castellano,0.0,inglés,3.0,3.0,2.0,yes,no,no,flauta,12,guitarra,12,,,nada,82.0,yes
149,2023-10-30_18h41.49.248,Unsyncopated1,s27,20.0,feminino,right,España,catalán y castellano,Bachelor degree,no,no,B,2,conjunction_un,L1,unsyncopated,s2,r1,21,Online_conjL1_un//a.pu.ki22.888.1776.wav,la,ze,zu,sil,pu,ne,cho,sil1,ki,ri,sil2,['catch'],[1.3476999999879808],[1.3476999999879808],0.888,beat,0.4596999999879808,0.4596999999879808,"[""space""]",pu,1,,,,,,,,,,,,,,,3.0,2 ,catalán,0.0,castellano,0.0,inglés,3.0,3.0,2.0,yes,no,no,flauta,12,guitarra,12,,,nada,82.0,yes
150,2023-10-30_18h41.49.248,Unsyncopated1,s27,20.0,feminino,right,España,catalán y castellano,Bachelor degree,no,no,B,2,conjunction_un,L1,unsyncopated,s2,r1,22,Online_conjL1_un//a.pu.ki21.888.1776.wav,zu,ri,ni,sil,pu,lu,fa,sil1,ki,ro,sil2,['catch'],[1.3716999999880954],[1.3716999999880954],0.888,beat,0.4836999999880954,0.4836999999880954,"[""space""]",pu,1,,,,,,,,,,,,,,,3.0,2 ,catalán,0.0,castellano,0.0,inglés,3.0,3.0,2.0,yes,no,no,flauta,12,guitarra,12,,,nada,82.0,yes
151,2023-10-30_18h41.49.248,Unsyncopated1,s27,20.0,feminino,right,España,catalán y castellano,Bachelor degree,no,no,B,2,conjunction_un,L1,unsyncopated,s1,r2,23,Online_conjL1_un//a.pu.ki20.none.none.wav,ta,ni,ze,sil,be,ri,ne,sil1,cho,fo,sil2,['-'],,,none,none,,,,pu,1,,,,,,,,,,,,,,,3.0,2 ,catalán,0.0,castellano,0.0,inglés,3.0,3.0,2.0,yes,no,no,flauta,12,guitarra,12,,,nada,82.0,yes
152,2023-10-30_18h41.49.248,Unsyncopated1,s27,20.0,feminino,right,España,catalán y castellano,Bachelor degree,no,no,B,2,conjunction_un,L1,unsyncopated,s2,r2,24,Online_conjL1_un//d.ne.ni16.444.1110.wav,ze,zu,ne,sil,ta,ni,fo,sil1,be,cho,sil2,['catch'],[1.7173000000118464],[1.7173000000118464],1.11,no_beat,0.6073000000118463,0.6073000000118463,"[""space""]",ni,4,,,,,,,,,,,,,,,3.0,2 ,catalán,0.0,castellano,0.0,inglés,3.0,3.0,2.0,yes,no,no,flauta,12,guitarra,12,,,nada,82.0,yes
153,2023-10-30_18h41.49.248,Unsyncopated1,s27,20.0,feminino,right,España,catalán y castellano,Bachelor degree,no,no,B,2,conjunction_un,L1,unsyncopated,s2,r2,25,Online_conjL1_un//d.ne.ni18.none.none.wav,fa,ro,fo,sil,ta,ri,lu,sil1,be,la,sil2,['-'],,,none,none,,,,ni,4,,,,,,,,,,,,,,,3.0,2 ,catalán,0.0,castellano,0.0,inglés,3.0,3.0,2.0,yes,no,no,flauta,12,guitarra,12,,,nada,82.0,yes
154,2023-10-30_18h41.49.248,Unsyncopated1,s27,20.0,feminino,right,España,catalán y castellano,Bachelor degree,no,no,B,2,conjunction_un,L1,unsyncopated,s2,r1,26,Online_conjL1_un//d.ne.ni19.none.none.wav,zu,fa,ri,sil,pu,lu,la,sil1,ki,ze,sil2,['-'],,,none,none,,,,ni,4,,,,,,,,,,,,,,,3.0,2 ,catalán,0.0,castellano,0.0,inglés,3.0,3.0,2.0,yes,no,no,flauta,12,guitarra,12,,,nada,82.0,yes
155,2023-10-30_18h41.49.248,Unsyncopated1,s27,20.0,feminino,right,España,catalán y castellano,Bachelor degree,no,no,B,2,conjunction_un,L1,unsyncopated,s2,r2,27,Online_conjL1_un//d.ne.ni17.0.1110.wav,ne,la,ro,sil,ta,ni,ri,sil1,be,cho,sil2,['catch'],[1.6721999999881518],[1.6721999999881518],1.11,no_beat,0.5621999999881517,0.5621999999881517,"[""space""]",ni,4,,,,,,,,,,,,,,,3.0,2 ,catalán,0.0,castellano,0.0,inglés,3.0,3.0,2.0,yes,no,no,flauta,12,guitarra,12,,,nada,82.0,yes
156,2023-10-30_18h41.49.248,Unsyncopated1,s27,20.0,feminino,right,España,catalán y castellano,Bachelor degree,no,no,B,2,conjunction_un,L1,unsyncopated,s2,r2,28,Online_conjL1_un//a.pu.ki31.none.none.wav,ze,la,ni,sil,ta,ne,lu,sil1,be,cho,sil2,['-'],,,none,none,,,,pu,1,,,,,,,,,,,,,,,3.0,2 ,catalán,0.0,castellano,0.0,inglés,3.0,3.0,2.0,yes,no,no,flauta,12,guitarra,12,,,nada,82.0,yes
157,2023-10-30_18h41.49.248,Unsyncopated1,s27,20.0,feminino,right,España,catalán y castellano,Bachelor degree,no,no,B,2,conjunction_un,L1,unsyncopated,s2,r2,29,Online_conjL1_un//a.pu.ki28.none.none.wav,ne,zu,ze,sil,ta,ni,fa,sil1,be,lu,sil2,['-'],,,none,none,,,,pu,1,,,,,,,,,,,,,,,3.0,2 ,catalán,0.0,castellano,0.0,inglés,3.0,3.0,2.0,yes,no,no,flauta,12,guitarra,12,,,nada,82.0,yes
158,2023-10-30_18h41.49.248,Unsyncopated1,s27,20.0,feminino,right,España,catalán y castellano,Bachelor degree,no,no,B,2,conjunction_un,L1,unsyncopated,s1,r1,30,Online_conjL1_un//a.pu.ki29.0.888.wav,pu,fa,ze,sil,ki,la,cho,sil1,ro,ni,sil2,['catch'],[0.4614999999998872],[0.4614999999998872],0.0,beat,0.4614999999998872,0.4614999999998872,"[""space""]",pu,1,,,,,,,,,,,,,,,3.0,2 ,catalán,0.0,castellano,0.0,inglés,3.0,3.0,2.0,yes,no,no,flauta,12,guitarra,12,,,nada,82.0,yes
159,2023-10-30_18h41.49.248,Unsyncopated1,s27,20.0,feminino,right,España,catalán y castellano,Bachelor degree,no,no,B,2,conjunction_un,L1,unsyncopated,s2,r2,31,Online_conjL1_un//a.pu.ki30.none.none.wav,ri,lu,ze,sil,ta,zu,fa,sil1,be,ne,sil2,['-'],,,none,none,,,,pu,1,,,,,,,,,,,,,,,3.0,2 ,catalán,0.0,castellano,0.0,inglés,3.0,3.0,2.0,yes,no,no,flauta,12,guitarra,12,,,nada,82.0,yes
160,2023-10-30_18h41.49.248,Unsyncopated1,s27,20.0,feminino,right,España,catalán y castellano,Bachelor degree,no,no,B,2,conjunction_un,L1,unsyncopated,s2,r2,32,Online_conjL1_un//d.ne.ni21.none.none.wav,lu,ro,ze,sil,ta,fo,cho,sil1,be,zu,sil2,['-'],,,none,none,,,,ni,4,,,,,,,,,,,,,,,3.0,2 ,catalán,0.0,castellano,0.0,inglés,3.0,3.0,2.0,yes,no,no,flauta,12,guitarra,12,,,nada,82.0,yes
161,2023-10-30_18h41.49.248,Unsyncopated1,s27,20.0,feminino,right,España,catalán y castellano,Bachelor degree,no,no,B,2,conjunction_un,L1,unsyncopated,s1,r1,33,Online_conjL1_un//d.ne.ni20.1110.1332.wav,pu,ro,fa,sil,ki,ne,ni,sil1,cho,fo,sil2,['catch'],[1.7803999999762254],[1.7803999999762254],1.332,no_beat,0.4483999999762253,0.4483999999762253,"[""space""]",ni,4,,,,,,,,,,,,,,,3.0,2 ,catalán,0.0,castellano,0.0,inglés,3.0,3.0,2.0,yes,no,no,flauta,12,guitarra,12,,,nada,82.0,yes
162,2023-10-30_18h41.49.248,Unsyncopated1,s27,20.0,feminino,right,España,catalán y castellano,Bachelor degree,no,no,B,2,conjunction_un,L1,unsyncopated,s1,r1,34,Online_conjL1_un//d.ne.ni23.1110.222.wav,pu,ni,ro,sil,ki,ne,lu,sil1,zu,fa,sil2,['catch'],[0.9868999999762309],[0.9868999999762309],0.222,no_beat,0.7648999999762309,0.7648999999762309,"[""space""]",ni,4,,,,,,,,,,,,,,,3.0,2 ,catalán,0.0,castellano,0.0,inglés,3.0,3.0,2.0,yes,no,no,flauta,12,guitarra,12,,,nada,82.0,yes
163,2023-10-30_18h41.49.248,Unsyncopated1,s27,20.0,feminino,right,España,catalán y castellano,Bachelor degree,no,no,B,2,conjunction_un,L1,unsyncopated,s1,r1,35,Online_conjL1_un//d.ne.ni22.none.none.wav,pu,cho,la,sil,ki,ro,ze,sil1,ri,lu,sil2,['false alarm'],[1.3734999999999218],[1.3734999999999218],none,none,,,"[""space""]",ni,4,,,,,,,,,,,,,,,3.0,2 ,catalán,0.0,castellano,0.0,inglés,3.0,3.0,2.0,yes,no,no,flauta,12,guitarra,12,,,nada,82.0,yes
164,2023-10-30_18h41.49.248,Unsyncopated1,s27,20.0,feminino,right,España,catalán y castellano,Bachelor degree,no,no,B,2,conjunction_un,L1,unsyncopated,s1,r2,36,Online_conjL1_un//b.ta.be21.0.888.wav,ta,fo,ri,sil,be,lu,ni,sil1,zu,la,sil2,['catch'],[1.3855000000000928],[1.3855000000000928],0.888,beat,0.4975000000000927,0.4975000000000927,"[""space""]",be,2,,,,,,,,,,,,,,,3.0,2 ,catalán,0.0,castellano,0.0,inglés,3.0,3.0,2.0,yes,no,no,flauta,12,guitarra,12,,,nada,82.0,yes
165,2023-10-30_18h41.49.248,Unsyncopated1,s27,20.0,feminino,right,España,catalán y castellano,Bachelor degree,no,no,B,2,conjunction_un,L1,unsyncopated,s1,r1,37,Online_conjL1_un//b.ta.be22.none.none.wav,pu,ze,fa,sil,ki,zu,cho,sil1,ro,la,sil2,['-'],,,none,none,,,,be,2,,,,,,,,,,,,,,,3.0,2 ,catalán,0.0,castellano,0.0,inglés,3.0,3.0,2.0,yes,no,no,flauta,12,guitarra,12,,,nada,82.0,yes
166,2023-10-30_18h41.49.248,Unsyncopated1,s27,20.0,feminino,right,España,catalán y castellano,Bachelor degree,no,no,B,2,conjunction_un,L1,unsyncopated,s1,r1,38,Online_conjL1_un//b.ta.be20.none.none.wav,pu,ri,ro,sil,ki,ze,ne,sil1,zu,fa,sil2,['-'],,,none,none,,,,be,2,,,,,,,,,,,,,,,3.0,2 ,catalán,0.0,castellano,0.0,inglés,3.0,3.0,2.0,yes,no,no,flauta,12,guitarra,12,,,nada,82.0,yes
167,2023-10-30_18h41.49.248,Unsyncopated1,s27,20.0,feminino,right,España,catalán y castellano,Bachelor degree,no,no,B,2,conjunction_un,L1,unsyncopated,s1,r1,39,Online_conjL1_un//b.ta.be23.none.none.wav,pu,ro,zu,sil,ki,ze,ni,sil1,fo,ri,sil2,['-'],,,none,none,,,,be,2,,,,,,,,,,,,,,,3.0,2 ,catalán,0.0,castellano,0.0,inglés,3.0,3.0,2.0,yes,no,no,flauta,12,guitarra,12,,,nada,82.0,yes
168,2023-10-30_18h41.49.248,Unsyncopated1,s27,20.0,feminino,right,España,catalán y castellano,Bachelor degree,no,no,B,2,conjunction_un,L1,unsyncopated,s2,r1,40,Online_conjL1_un//c.ro.fo9.1332.444.wav,ri,ze,fo,sil,pu,fa,ro,sil1,ki,ne,sil2,['catch'],[1.0095999999643936],[1.0095999999643936],0.444,no_beat,0.5655999999643937,0.5655999999643937,"[""space""]",fo,3,,,,,,,,,,,,,,,3.0,2 ,catalán,0.0,castellano,0.0,inglés,3.0,3.0,2.0,yes,no,no,flauta,12,guitarra,12,,,nada,82.0,yes
169,2023-10-30_18h41.49.248,Unsyncopated1,s27,20.0,feminino,right,España,catalán y castellano,Bachelor degree,no,no,B,2,conjunction_un,L1,unsyncopated,s1,r2,41,Online_conjL1_un//c.ro.fo10.none.none.wav,ta,zu,cho,sil,be,ze,la,sil1,ne,lu,sil2,['-'],,,none,none,,,,fo,3,,,,,,,,,,,,,,,3.0,2 ,catalán,0.0,castellano,0.0,inglés,3.0,3.0,2.0,yes,no,no,flauta,12,guitarra,12,,,nada,82.0,yes
170,2023-10-30_18h41.49.248,Unsyncopated1,s27,20.0,feminino,right,España,catalán y castellano,Bachelor degree,no,no,B,2,conjunction_un,L1,unsyncopated,s1,r2,42,Online_conjL1_un//c.ro.fo11.none.none.wav,ta,lu,la,sil,be,fa,ne,sil1,ze,ni,sil2,['-'],,,none,none,,,,fo,3,,,,,,,,,,,,,,,3.0,2 ,catalán,0.0,castellano,0.0,inglés,3.0,3.0,2.0,yes,no,no,flauta,12,guitarra,12,,,nada,82.0,yes
171,2023-10-30_18h41.49.248,Unsyncopated1,s27,20.0,feminino,right,España,catalán y castellano,Bachelor degree,no,no,B,2,conjunction_un,L1,unsyncopated,s2,r2,43,Online_conjL1_un//c.ro.fo8.none.none.wav,ni,cho,ri,sil,ta,la,ze,sil1,be,zu,sil2,['-'],,,none,none,,,,fo,3,,,,,,,,,,,,,,,3.0,2 ,catalán,0.0,castellano,0.0,inglés,3.0,3.0,2.0,yes,no,no,flauta,12,guitarra,12,,,nada,82.0,yes
172,2023-10-30_18h41.49.248,Unsyncopated1,s27,20.0,feminino,right,España,catalán y castellano,Bachelor degree,no,no,B,2,conjunction_un,L1,unsyncopated,s2,r2,44,Online_conjL1_un//a.pu.ki18.none.none.wav,zu,ro,ze,sil,ta,fa,cho,sil1,be,ne,sil2,['-'],,,none,none,,,,pu,1,,,,,,,,,,,,,,,3.0,2 ,catalán,0.0,castellano,0.0,inglés,3.0,3.0,2.0,yes,no,no,flauta,12,guitarra,12,,,nada,82.0,yes
173,2023-10-30_18h41.49.248,Unsyncopated1,s27,20.0,feminino,right,España,catalán y castellano,Bachelor degree,no,no,B,2,conjunction_un,L1,unsyncopated,s2,r2,45,Online_conjL1_un//a.pu.ki16.none.none.wav,ze,zu,ni,sil,ta,lu,ne,sil1,be,ri,sil2,['-'],,,none,none,,,,pu,1,,,,,,,,,,,,,,,3.0,2 ,catalán,0.0,castellano,0.0,inglés,3.0,3.0,2.0,yes,no,no,flauta,12,guitarra,12,,,nada,82.0,yes
174,2023-10-30_18h41.49.248,Unsyncopated1,s27,20.0,feminino,right,España,catalán y castellano,Bachelor degree,no,no,B,2,conjunction_un,L1,unsyncopated,s2,r1,46,Online_conjL1_un//a.pu.ki17.888.1776.wav,ne,ro,ze,sil,pu,fo,lu,sil1,ki,zu,sil2,['catch'],[1.3723000000120464],[1.3723000000120464],0.888,beat,0.4843000000120464,0.4843000000120464,"[""space""]",pu,1,,,,,,,,,,,,,,,3.0,2 ,catalán,0.0,castellano,0.0,inglés,3.0,3.0,2.0,yes,no,no,flauta,12,guitarra,12,,,nada,82.0,yes
175,2023-10-30_18h41.49.248,Unsyncopated1,s27,20.0,feminino,right,España,catalán y castellano,Bachelor degree,no,no,B,2,conjunction_un,L1,unsyncopated,s2,r2,47,Online_conjL1_un//a.pu.ki19.none.none.wav,ze,fo,cho,sil,ta,fa,lu,sil1,be,ne,sil2,['-'],,,none,none,,,,pu,1,,,,,,,,,,,,,,,3.0,2 ,catalán,0.0,castellano,0.0,inglés,3.0,3.0,2.0,yes,no,no,flauta,12,guitarra,12,,,nada,82.0,yes
176,2023-10-30_18h41.49.248,Unsyncopated1,s27,20.0,feminino,right,España,catalán y castellano,Bachelor degree,no,no,B,2,conjunction_un,L1,unsyncopated,s1,r2,48,Online_conjL1_un//c.ro.fo18.1776.222.wav,ta,fo,ni,sil,be,cho,zu,sil1,ro,ne,sil2,['miss'],,,0.222,no_beat,,,,fo,3,,,,,,,,,,,,,,,3.0,2 ,catalán,0.0,castellano,0.0,inglés,3.0,3.0,2.0,yes,no,no,flauta,12,guitarra,12,,,nada,82.0,yes
177,2023-10-30_18h41.49.248,Unsyncopated1,s27,20.0,feminino,right,España,catalán y castellano,Bachelor degree,no,no,B,2,conjunction_un,L1,unsyncopated,s2,r2,49,Online_conjL1_un//c.ro.fo19.none.none.wav,cho,ne,zu,sil,ta,fa,lu,sil1,be,ze,sil2,['-'],,,none,none,,,,fo,3,,,,,,,,,,,,,,,3.0,2 ,catalán,0.0,castellano,0.0,inglés,3.0,3.0,2.0,yes,no,no,flauta,12,guitarra,12,,,nada,82.0,yes
178,2023-10-30_18h41.49.248,Unsyncopated1,s27,20.0,feminino,right,España,catalán y castellano,Bachelor degree,no,no,B,2,conjunction_un,L1,unsyncopated,s1,r2,50,Online_conjL1_un//c.ro.fo16.none.none.wav,ta,lu,fa,sil,be,zu,ze,sil1,ne,cho,sil2,['-'],,,none,none,,,,fo,3,,,,,,,,,,,,,,,3.0,2 ,catalán,0.0,castellano,0.0,inglés,3.0,3.0,2.0,yes,no,no,flauta,12,guitarra,12,,,nada,82.0,yes
179,2023-10-30_18h41.49.248,Unsyncopated1,s27,20.0,feminino,right,España,catalán y castellano,Bachelor degree,no,no,B,2,conjunction_un,L1,unsyncopated,s2,r1,51,Online_conjL1_un//c.ro.fo17.none.none.wav,cho,lu,zu,sil,pu,ze,ni,sil1,ki,la,sil2,['-'],,,none,none,,,,fo,3,,,,,,,,,,,,,,,3.0,2 ,catalán,0.0,castellano,0.0,inglés,3.0,3.0,2.0,yes,no,no,flauta,12,guitarra,12,,,nada,82.0,yes
180,2023-10-30_18h41.49.248,Unsyncopated1,s27,20.0,feminino,right,España,catalán y castellano,Bachelor degree,no,no,B,2,conjunction_un,L1,unsyncopated,s1,r2,52,Online_conjL1_un//d.ne.ni31.none.none.wav,ta,ro,cho,sil,be,ri,lu,sil1,fo,fa,sil2,['-'],,,none,none,,,,ni,4,,,,,,,,,,,,,,,3.0,2 ,catalán,0.0,castellano,0.0,inglés,3.0,3.0,2.0,yes,no,no,flauta,12,guitarra,12,,,nada,82.0,yes
181,2023-10-30_18h41.49.248,Unsyncopated1,s27,20.0,feminino,right,España,catalán y castellano,Bachelor degree,no,no,B,2,conjunction_un,L1,unsyncopated,s1,r1,53,Online_conjL1_un//d.ne.ni30.none.none.wav,pu,la,ro,sil,ki,ze,fa,sil1,ri,lu,sil2,['-'],,,none,none,,,,ni,4,,,,,,,,,,,,,,,3.0,2 ,catalán,0.0,castellano,0.0,inglés,3.0,3.0,2.0,yes,no,no,flauta,12,guitarra,12,,,nada,82.0,yes
182,2023-10-30_18h41.49.248,Unsyncopated1,s27,20.0,feminino,right,España,catalán y castellano,Bachelor degree,no,no,B,2,conjunction_un,L1,unsyncopated,s1,r1,54,Online_conjL1_un//d.ne.ni28.none.none.wav,pu,ro,ri,sil,ki,la,zu,sil1,lu,cho,sil2,['-'],,,none,none,,,,ni,4,,,,,,,,,,,,,,,3.0,2 ,catalán,0.0,castellano,0.0,inglés,3.0,3.0,2.0,yes,no,no,flauta,12,guitarra,12,,,nada,82.0,yes
183,2023-10-30_18h41.49.248,Unsyncopated1,s27,20.0,feminino,right,España,catalán y castellano,Bachelor degree,no,no,B,2,conjunction_un,L1,unsyncopated,s2,r2,55,Online_conjL1_un//d.ne.ni29.0.444.wav,ne,ro,ni,sil,ta,fa,cho,sil1,be,ri,sil2,['catch'],[1.004300000011881],[1.004300000011881],0.444,no_beat,0.560300000011881,0.560300000011881,"[""space""]",ni,4,,,,,,,,,,,,,,,3.0,2 ,catalán,0.0,castellano,0.0,inglés,3.0,3.0,2.0,yes,no,no,flauta,12,guitarra,12,,,nada,82.0,yes
184,2023-10-30_18h41.49.248,Unsyncopated1,s27,20.0,feminino,right,España,catalán y castellano,Bachelor degree,no,no,B,2,conjunction_un,L1,unsyncopated,s1,r2,56,Online_conjL1_un//a.pu.ki10.none.none.wav,ta,ze,ni,sil,be,zu,fa,sil1,ro,fo,sil2,['-'],,,none,none,,,,pu,1,,,,,,,,,,,,,,,3.0,2 ,catalán,0.0,castellano,0.0,inglés,3.0,3.0,2.0,yes,no,no,flauta,12,guitarra,12,,,nada,82.0,yes
185,2023-10-30_18h41.49.248,Unsyncopated1,s27,20.0,feminino,right,España,catalán y castellano,Bachelor degree,no,no,B,2,conjunction_un,L1,unsyncopated,s1,r1,57,Online_conjL1_un//a.pu.ki9.0.888.wav,pu,ne,fo,sil,ki,fa,ni,sil1,ze,ri,sil2,['catch'],[0.5492999999521544],[0.5492999999521544],0.0,beat,0.5492999999521544,0.5492999999521544,"[""space""]",pu,1,,,,,,,,,,,,,,,3.0,2 ,catalán,0.0,castellano,0.0,inglés,3.0,3.0,2.0,yes,no,no,flauta,12,guitarra,12,,,nada,82.0,yes
186,2023-10-30_18h41.49.248,Unsyncopated1,s27,20.0,feminino,right,España,catalán y castellano,Bachelor degree,no,no,B,2,conjunction_un,L1,unsyncopated,s1,r1,58,Online_conjL1_un//a.pu.ki8.0.888.wav,pu,ne,ro,sil,ki,ze,zu,sil1,la,ni,sil2,['catch'],[0.5371000000238837],[0.5371000000238837],0.0,beat,0.5371000000238837,0.5371000000238837,"[""space""]",pu,1,,,,,,,,,,,,,,,3.0,2 ,catalán,0.0,castellano,0.0,inglés,3.0,3.0,2.0,yes,no,no,flauta,12,guitarra,12,,,nada,82.0,yes
187,2023-10-30_18h41.49.248,Unsyncopated1,s27,20.0,feminino,right,España,catalán y castellano,Bachelor degree,no,no,B,2,conjunction_un,L1,unsyncopated,s1,r1,59,Online_conjL1_un//a.pu.ki11.0.888.wav,pu,fa,fo,sil,ki,ze,lu,sil1,ri,ni,sil2,['catch'],[0.5733999999761181],[0.5733999999761181],0.0,beat,0.5733999999761181,0.5733999999761181,"[""space""]",pu,1,,,,,,,,,,,,,,,3.0,2 ,catalán,0.0,castellano,0.0,inglés,3.0,3.0,2.0,yes,no,no,flauta,12,guitarra,12,,,nada,82.0,yes
188,2023-10-30_18h41.49.248,Unsyncopated1,s27,20.0,feminino,right,España,catalán y castellano,Bachelor degree,no,no,B,2,conjunction_un,L1,unsyncopated,s1,r2,60,Online_conjL1_un//b.ta.be11.0.888.wav,ta,fa,lu,sil,be,ni,ze,sil1,ri,ro,sil2,['catch'],[1.3544999999999163],[1.3544999999999163],0.888,beat,0.4664999999999163,0.4664999999999163,"[""space""]",be,2,,,,,,,,,,,,,,,3.0,2 ,catalán,0.0,castellano,0.0,inglés,3.0,3.0,2.0,yes,no,no,flauta,12,guitarra,12,,,nada,82.0,yes
189,2023-10-30_18h41.49.248,Unsyncopated1,s27,20.0,feminino,right,España,catalán y castellano,Bachelor degree,no,no,B,2,conjunction_un,L1,unsyncopated,s2,r1,61,Online_conjL1_un//b.ta.be9.none.none.wav,fa,ne,lu,sil,pu,ri,la,sil1,ki,ni,sil2,['false alarm'],[2.258800000011888],[2.258800000011888],none,none,,,"[""space""]",be,2,,,,,,,,,,,,,,,3.0,2 ,catalán,0.0,castellano,0.0,inglés,3.0,3.0,2.0,yes,no,no,flauta,12,guitarra,12,,,nada,82.0,yes
190,2023-10-30_18h41.49.248,Unsyncopated1,s27,20.0,feminino,right,España,catalán y castellano,Bachelor degree,no,no,B,2,conjunction_un,L1,unsyncopated,s1,r2,62,Online_conjL1_un//b.ta.be8.0.888.wav,ta,la,ne,sil,be,lu,ni,sil1,ro,fa,sil2,['catch'],[1.3581999999880736],[1.3581999999880736],0.888,beat,0.4701999999880736,0.4701999999880736,"[""space""]",be,2,,,,,,,,,,,,,,,3.0,2 ,catalán,0.0,castellano,0.0,inglés,3.0,3.0,2.0,yes,no,no,flauta,12,guitarra,12,,,nada,82.0,yes
191,2023-10-30_18h41.49.248,Unsyncopated1,s27,20.0,feminino,right,España,catalán y castellano,Bachelor degree,no,no,B,2,conjunction_un,L1,unsyncopated,s2,r1,63,Online_conjL1_un//b.ta.be10.none.none.wav,ni,lu,cho,sil,pu,fa,zu,sil1,ki,fo,sil2,['-'],,,none,none,,,,be,2,,,,,,,,,,,,,,,3.0,2 ,catalán,0.0,castellano,0.0,inglés,3.0,3.0,2.0,yes,no,no,flauta,12,guitarra,12,,,nada,82.0,yes
192,2023-10-30_18h41.49.248,Unsyncopated1,s27,20.0,feminino,right,España,catalán y castellano,Bachelor degree,no,no,B,2,conjunction_un,L1,unsyncopated,s2,r1,64,Online_conjL1_un//b.ta.be18.none.none.wav,ne,ze,ro,sil,pu,la,cho,sil1,ki,lu,sil2,['-'],,,none,none,,,,be,2,,,,,,,,,,,,,,,3.0,2 ,catalán,0.0,castellano,0.0,inglés,3.0,3.0,2.0,yes,no,no,flauta,12,guitarra,12,,,nada,82.0,yes
193,2023-10-30_18h41.49.248,Unsyncopated1,s27,20.0,feminino,right,España,catalán y castellano,Bachelor degree,no,no,B,2,conjunction_un,L1,unsyncopated,s2,r2,65,Online_conjL1_un//b.ta.be16.888.1776.wav,ze,cho,fo,sil,ta,ne,zu,sil1,be,lu,sil2,['catch'],[2.230000000000018],[2.230000000000018],1.776,beat,0.4540000000000181,0.4540000000000181,"[""space""]",be,2,,,,,,,,,,,,,,,3.0,2 ,catalán,0.0,castellano,0.0,inglés,3.0,3.0,2.0,yes,no,no,flauta,12,guitarra,12,,,nada,82.0,yes
194,2023-10-30_18h41.49.248,Unsyncopated1,s27,20.0,feminino,right,España,catalán y castellano,Bachelor degree,no,no,B,2,conjunction_un,L1,unsyncopated,s2,r2,66,Online_conjL1_un//b.ta.be17.888.1776.wav,ro,zu,ne,sil,ta,ze,fo,sil1,be,ri,sil2,['catch'],[2.2223000000119555],[2.2223000000119555],1.776,beat,0.4463000000119554,0.4463000000119554,"[""space""]",be,2,,,,,,,,,,,,,,,3.0,2 ,catalán,0.0,castellano,0.0,inglés,3.0,3.0,2.0,yes,no,no,flauta,12,guitarra,12,,,nada,82.0,yes
195,2023-10-30_18h41.49.248,Unsyncopated1,s27,20.0,feminino,right,España,catalán y castellano,Bachelor degree,no,no,B,2,conjunction_un,L1,unsyncopated,s2,r2,67,Online_conjL1_un//b.ta.be19.888.1776.wav,zu,ni,lu,sil,ta,ri,la,sil1,be,ze,sil2,['catch'],[2.2080999999641335],[2.2080999999641335],1.776,beat,0.4320999999641335,0.4320999999641335,"[""space""]",be,2,,,,,,,,,,,,,,,3.0,2 ,catalán,0.0,castellano,0.0,inglés,3.0,3.0,2.0,yes,no,no,flauta,12,guitarra,12,,,nada,82.0,yes
196,2023-10-30_18h41.49.248,Unsyncopated1,s27,20.0,feminino,right,España,catalán y castellano,Bachelor degree,no,no,B,2,conjunction_un,L1,unsyncopated,s2,r1,68,Online_conjL1_un//b.ta.be0.none.none.wav,fa,fo,ze,sil,pu,ri,zu,sil1,ki,ne,sil2,['-'],,,none,none,,,,be,2,,,,,,,,,,,,,,,3.0,2 ,catalán,0.0,castellano,0.0,inglés,3.0,3.0,2.0,yes,no,no,flauta,12,guitarra,12,,,nada,82.0,yes
197,2023-10-30_18h41.49.248,Unsyncopated1,s27,20.0,feminino,right,España,catalán y castellano,Bachelor degree,no,no,B,2,conjunction_un,L1,unsyncopated,s1,r2,69,Online_conjL1_un//b.ta.be3.0.888.wav,ta,fa,ri,sil,be,lu,ro,sil1,zu,la,sil2,['catch'],[1.52510000002394],[1.52510000002394],0.888,beat,0.6371000000239401,0.6371000000239401,"[""space""]",be,2,,,,,,,,,,,,,,,3.0,2 ,catalán,0.0,castellano,0.0,inglés,3.0,3.0,2.0,yes,no,no,flauta,12,guitarra,12,,,nada,82.0,yes
198,2023-10-30_18h41.49.248,Unsyncopated1,s27,20.0,feminino,right,España,catalán y castellano,Bachelor degree,no,no,B,2,conjunction_un,L1,unsyncopated,s1,r1,70,Online_conjL1_un//b.ta.be1.none.none.wav,pu,fa,ne,sil,ki,fo,lu,sil1,cho,la,sil2,['-'],,,none,none,,,,be,2,,,,,,,,,,,,,,,3.0,2 ,catalán,0.0,castellano,0.0,inglés,3.0,3.0,2.0,yes,no,no,flauta,12,guitarra,12,,,nada,82.0,yes
199,2023-10-30_18h41.49.248,Unsyncopated1,s27,20.0,feminino,right,España,catalán y castellano,Bachelor degree,no,no,B,2,conjunction_un,L1,unsyncopated,s1,r1,71,Online_conjL1_un//b.ta.be2.none.none.wav,pu,ro,ri,sil,ki,fa,la,sil1,ze,zu,sil2,['-'],,,none,none,,,,be,2,,,,,,,,,,,,,,,3.0,2 ,catalán,0.0,castellano,0.0,inglés,3.0,3.0,2.0,yes,no,no,flauta,12,guitarra,12,,,nada,82.0,yes
200,2023-10-30_18h41.49.248,Unsyncopated1,s27,20.0,feminino,right,España,catalán y castellano,Bachelor degree,no,no,B,2,conjunction_un,L1,unsyncopated,s1,r2,72,Online_conjL1_un//a.pu.ki27.none.none.wav,ta,fa,ro,sil,be,ze,ni,sil1,lu,fo,sil2,['-'],,,none,none,,,,pu,1,,,,,,,,,,,,,,,3.0,2 ,catalán,0.0,castellano,0.0,inglés,3.0,3.0,2.0,yes,no,no,flauta,12,guitarra,12,,,nada,82.0,yes
201,2023-10-30_18h41.49.248,Unsyncopated1,s27,20.0,feminino,right,España,catalán y castellano,Bachelor degree,no,no,B,2,conjunction_un,L1,unsyncopated,s1,r2,73,Online_conjL1_un//a.pu.ki24.none.none.wav,ta,lu,ri,sil,be,la,zu,sil1,fa,ze,sil2,['-'],,,none,none,,,,pu,1,,,,,,,,,,,,,,,3.0,2 ,catalán,0.0,castellano,0.0,inglés,3.0,3.0,2.0,yes,no,no,flauta,12,guitarra,12,,,nada,82.0,yes
202,2023-10-30_18h41.49.248,Unsyncopated1,s27,20.0,feminino,right,España,catalán y castellano,Bachelor degree,no,no,B,2,conjunction_un,L1,unsyncopated,s2,r1,74,Online_conjL1_un//a.pu.ki26.888.1776.wav,zu,ze,cho,sil,pu,ni,ne,sil1,ki,fo,sil2,['catch'],[1.2731999999882646],[1.2731999999882646],0.888,beat,0.3851999999882646,0.3851999999882646,"[""space""]",pu,1,,,,,,,,,,,,,,,3.0,2 ,catalán,0.0,castellano,0.0,inglés,3.0,3.0,2.0,yes,no,no,flauta,12,guitarra,12,,,nada,82.0,yes
203,2023-10-30_18h41.49.248,Unsyncopated1,s27,20.0,feminino,right,España,catalán y castellano,Bachelor degree,no,no,B,2,conjunction_un,L1,unsyncopated,s1,r2,75,Online_conjL1_un//a.pu.ki25.none.none.wav,ta,lu,la,sil,be,cho,ro,sil1,ni,zu,sil2,['-'],,,none,none,,,,pu,1,,,,,,,,,,,,,,,3.0,2 ,catalán,0.0,castellano,0.0,inglés,3.0,3.0,2.0,yes,no,no,flauta,12,guitarra,12,,,nada,82.0,yes
204,2023-10-30_18h41.49.248,Unsyncopated1,s27,20.0,feminino,right,España,catalán y castellano,Bachelor degree,no,no,B,2,conjunction_un,L1,unsyncopated,s1,r1,76,Online_conjL1_un//a.pu.ki6.0.888.wav,pu,cho,fa,sil,ki,zu,ni,sil1,ne,ro,sil2,['catch'],[0.4716999999880045],[0.4716999999880045],0.0,beat,0.4716999999880045,0.4716999999880045,"[""space""]",pu,1,,,,,,,,,,,,,,,3.0,2 ,catalán,0.0,castellano,0.0,inglés,3.0,3.0,2.0,yes,no,no,flauta,12,guitarra,12,,,nada,82.0,yes
205,2023-10-30_18h41.49.248,Unsyncopated1,s27,20.0,feminino,right,España,catalán y castellano,Bachelor degree,no,no,B,2,conjunction_un,L1,unsyncopated,s1,r1,77,Online_conjL1_un//a.pu.ki7.0.888.wav,pu,la,fa,sil,ki,ri,ze,sil1,lu,ro,sil2,['catch'],[0.3271000000238473],[0.3271000000238473],0.0,beat,0.3271000000238473,0.3271000000238473,"[""space""]",pu,1,,,,,,,,,,,,,,,3.0,2 ,catalán,0.0,castellano,0.0,inglés,3.0,3.0,2.0,yes,no,no,flauta,12,guitarra,12,,,nada,82.0,yes
206,2023-10-30_18h41.49.248,Unsyncopated1,s27,20.0,feminino,right,España,catalán y castellano,Bachelor degree,no,no,B,2,conjunction_un,L1,unsyncopated,s1,r1,78,Online_conjL1_un//a.pu.ki5.0.888.wav,pu,lu,zu,sil,ki,fo,la,sil1,cho,ze,sil2,['catch'],[0.35660000002371817],[0.35660000002371817],0.0,beat,0.3566000000237181,0.3566000000237181,"[""space""]",pu,1,,,,,,,,,,,,,,,3.0,2 ,catalán,0.0,castellano,0.0,inglés,3.0,3.0,2.0,yes,no,no,flauta,12,guitarra,12,,,nada,82.0,yes
207,2023-10-30_18h41.49.248,Unsyncopated1,s27,20.0,feminino,right,España,catalán y castellano,Bachelor degree,no,no,B,2,conjunction_un,L1,unsyncopated,s2,r1,79,Online_conjL1_un//a.pu.ki4.888.1776.wav,ni,cho,fa,sil,pu,fo,ne,sil1,ki,la,sil2,['catch'],[1.273899999976038],[1.273899999976038],0.888,beat,0.3858999999760381,0.3858999999760381,"[""space""]",pu,1,,,,,,,,,,,,,,,3.0,2 ,catalán,0.0,castellano,0.0,inglés,3.0,3.0,2.0,yes,no,no,flauta,12,guitarra,12,,,nada,82.0,yes
208,2023-10-30_18h41.49.248,Unsyncopated1,s27,20.0,feminino,right,España,catalán y castellano,Bachelor degree,no,no,B,2,conjunction_un,L1,unsyncopated,s2,r2,80,Online_conjL1_un//a.pu.ki12.none.none.wav,ri,ze,fo,sil,ta,lu,ro,sil1,be,ne,sil2,['-'],,,none,none,,,,pu,1,,,,,,,,,,,,,,,3.0,2 ,catalán,0.0,castellano,0.0,inglés,3.0,3.0,2.0,yes,no,no,flauta,12,guitarra,12,,,nada,82.0,yes
209,2023-10-30_18h41.49.248,Unsyncopated1,s27,20.0,feminino,right,España,catalán y castellano,Bachelor degree,no,no,B,2,conjunction_un,L1,unsyncopated,s2,r2,81,Online_conjL1_un//a.pu.ki14.none.none.wav,ne,ze,ni,sil,ta,zu,fo,sil1,be,lu,sil2,['-'],,,none,none,,,,pu,1,,,,,,,,,,,,,,,3.0,2 ,catalán,0.0,castellano,0.0,inglés,3.0,3.0,2.0,yes,no,no,flauta,12,guitarra,12,,,nada,82.0,yes
210,2023-10-30_18h41.49.248,Unsyncopated1,s27,20.0,feminino,right,España,catalán y castellano,Bachelor degree,no,no,B,2,conjunction_un,L1,unsyncopated,s1,r2,82,Online_conjL1_un//a.pu.ki13.none.none.wav,ta,ne,ro,sil,be,lu,fa,sil1,zu,la,sil2,['-'],,,none,none,,,,pu,1,,,,,,,,,,,,,,,3.0,2 ,catalán,0.0,castellano,0.0,inglés,3.0,3.0,2.0,yes,no,no,flauta,12,guitarra,12,,,nada,82.0,yes
211,2023-10-30_18h41.49.248,Unsyncopated1,s27,20.0,feminino,right,España,catalán y castellano,Bachelor degree,no,no,B,2,conjunction_un,L1,unsyncopated,s2,r1,83,Online_conjL1_un//a.pu.ki15.888.1776.wav,cho,ri,ne,sil,pu,ze,ni,sil1,ki,zu,sil2,['catch'],[1.4714999999998781],[1.4714999999998781],0.888,beat,0.5834999999998781,0.5834999999998781,"[""space""]",pu,1,,,,,,,,,,,,,,,3.0,2 ,catalán,0.0,castellano,0.0,inglés,3.0,3.0,2.0,yes,no,no,flauta,12,guitarra,12,,,nada,82.0,yes
212,2023-10-30_18h41.49.248,Unsyncopated1,s27,20.0,feminino,right,España,catalán y castellano,Bachelor degree,no,no,B,2,conjunction_un,L1,unsyncopated,s2,r2,84,Online_conjL1_un//b.ta.be27.888.1776.wav,fo,ni,lu,sil,ta,ne,ro,sil1,be,fa,sil2,['catch'],[2.319699999988188],[2.319699999988188],1.776,beat,0.5436999999881882,0.5436999999881882,"[""space""]",be,2,,,,,,,,,,,,,,,3.0,2 ,catalán,0.0,castellano,0.0,inglés,3.0,3.0,2.0,yes,no,no,flauta,12,guitarra,12,,,nada,82.0,yes
213,2023-10-30_18h41.49.248,Unsyncopated1,s27,20.0,feminino,right,España,catalán y castellano,Bachelor degree,no,no,B,2,conjunction_un,L1,unsyncopated,s2,r2,85,Online_conjL1_un//b.ta.be24.888.1776.wav,ze,ne,ri,sil,ta,fa,la,sil1,be,fo,sil2,['catch'],[2.414500000000089],[2.414500000000089],1.776,beat,0.6385000000000891,0.6385000000000891,"[""space""]",be,2,,,,,,,,,,,,,,,3.0,2 ,catalán,0.0,castellano,0.0,inglés,3.0,3.0,2.0,yes,no,no,flauta,12,guitarra,12,,,nada,82.0,yes
214,2023-10-30_18h41.49.248,Unsyncopated1,s27,20.0,feminino,right,España,catalán y castellano,Bachelor degree,no,no,B,2,conjunction_un,L1,unsyncopated,s2,r2,86,Online_conjL1_un//b.ta.be26.888.1776.wav,ni,ri,fa,sil,ta,zu,lu,sil1,be,ze,sil2,['catch'],[2.1436000000237527],[2.1436000000237527],1.776,beat,0.3676000000237527,0.3676000000237527,"[""space""]",be,2,,,,,,,,,,,,,,,3.0,2 ,catalán,0.0,castellano,0.0,inglés,3.0,3.0,2.0,yes,no,no,flauta,12,guitarra,12,,,nada,82.0,yes
