Unnamed: 0,date,expName,participant,age,sex,hand,residence,native_lang,education_level,lang_deficit,aud_deficit,group,block,condition,language,rhythm,rule structure online,rule type online,order_trial_on,trial_online,s1,s2,s3,s4,s5,s6,s7,s8,s9,s10,s11,catch_syll_resp,rts_syll_catch,clean_rts,time_syll,beat_no_beat,catch_rtsTR,catch_rts,syllable_catch.keys,cond_syll,syll_to_catch,test_offline,block_off,condition_off,rhythm_off,rule,rule_str_off,rule_norule,conds_offline,language_off,Partz_no_partm.keys,Partz_no_partm.rt,security_1_7.keys,accuracy,security_1_7.rt,n_lang,n_lang_used,lang_1,age_l1,lang_2,age_l2,lang_3,age_l3,lang_4,age_l4,lang_5,age_l5,ability_learn_l2,tendence_mix_lan,music_experience,muisc_use,partiture,instr_1,age_M1,preguntas_musica1,BMRQ_answer.response,final comment,BMRQ_Score,bilingual
0,2023-10-09_12h16.53.811,Unsyncopated1,s12,19.0,feminino,left,España,"Español, catalán",Upper secondary,no,no,A,1,conjunction_syn,L4,syncopated,s2,r1,0,Online_conjL4_syn//c.bu.da22.0.222.wav,bu,da,bo,zi,sil,re,ru,lo,sil1,ñi,sil2,['miss'],,,0.0,beat,,,,da,3,testConjL4Syn//dep_viol.r2.s2.0.wav,1.0,conjunction_syn,syncopated,b,s2,no_rule,dep,L4,z,0.6879,5.0,0.0,5.4519,5.0,3.0,Español,0.0,Catalán,0.0,Inglés,3.0,Francés,13.0,Italiano,18.0,4.0,4.0,yes,yes,no,Canto,13,1. Cuando comparto música con alguien siento una complicidad especial con aquella persona.,4.0,"He tenido múltiples interrupciones mientras hacía el experimento, especialmente en los dos últimos idiomas. ¡Gracias! ",70.0,yes
1,2023-10-09_12h16.53.811,Unsyncopated1,s12,19.0,feminino,left,España,"Español, catalán",Upper secondary,no,no,A,1,conjunction_syn,L4,syncopated,s2,r2,1,Online_conjL4_syn//c.bu.da21.none.none.wav,ña,re,po,ja,sil,de,ñi,nu,sil1,ru,sil2,['-'],,,none,none,,,,da,3,testConjL4Syn//r2.s1.2.wav,1.0,conjunction_syn,syncopated,b,s1,rule,rule,L4,z,1.3869,4.0,1.0,4.7672,5.0,3.0,Español,0.0,Catalán,0.0,Inglés,3.0,Francés,13.0,Italiano,18.0,4.0,4.0,yes,yes,no,Canto,13,2. En mi tiempo libre apenas escucho música.,5.0,"He tenido múltiples interrupciones mientras hacía el experimento, especialmente en los dos últimos idiomas. ¡Gracias! ",70.0,yes
2,2023-10-09_12h16.53.811,Unsyncopated1,s12,19.0,feminino,left,España,"Español, catalán",Upper secondary,no,no,A,1,conjunction_syn,L4,syncopated,s1,r2,2,Online_conjL4_syn//c.bu.da20.444.1332.wav,ja,pe,bu,nu,sil,ci,da,re,sil1,ru,sil2,['miss'],,,0.444,no_beat,,,,da,3,testConjL4Syn//time_viol.r2.s1.0.wav,1.0,conjunction_syn,syncopated,b,s1,no_rule,time,L4,z,4.7674,4.0,0.0,3.8369,5.0,3.0,Español,0.0,Catalán,0.0,Inglés,3.0,Francés,13.0,Italiano,18.0,4.0,4.0,yes,yes,no,Canto,13,3. Algunas canciones me ponen los pelos de punta,3.0,"He tenido múltiples interrupciones mientras hacía el experimento, especialmente en los dos últimos idiomas. ¡Gracias! ",70.0,yes
3,2023-10-09_12h16.53.811,Unsyncopated1,s12,19.0,feminino,left,España,"Español, catalán",Upper secondary,no,no,A,1,conjunction_syn,L4,syncopated,s2,r2,3,Online_conjL4_syn//c.bu.da23.444.1110.wav,ña,re,bu,ja,sil,da,de,nu,sil1,ci,sil2,['miss'],,,0.444,no_beat,,,,da,3,testConjL4Syn//r2.s1.0.wav,1.0,conjunction_syn,syncopated,b,s1,rule,rule,L4,m,1.083,5.0,0.0,2.3581,5.0,3.0,Español,0.0,Catalán,0.0,Inglés,3.0,Francés,13.0,Italiano,18.0,4.0,4.0,yes,yes,no,Canto,13,4. La música me hace compañía cuando estoy solo,3.0,"He tenido múltiples interrupciones mientras hacía el experimento, especialmente en los dos últimos idiomas. ¡Gracias! ",70.0,yes
4,2023-10-09_12h16.53.811,Unsyncopated1,s12,19.0,feminino,left,España,"Español, catalán",Upper secondary,no,no,A,1,conjunction_syn,L4,syncopated,s2,r2,4,Online_conjL4_syn//b.ja.nu31.666.1554.wav,po,ru,ña,ja,sil,da,ci,nu,sil1,re,sil2,['miss'],,,0.666,no_beat,,,,nu,1,testConjL4Syn//r1.s2.0.wav,1.0,conjunction_syn,syncopated,a,s2,rule,rule,L4,m,3.1476,5.0,0.0,3.2176,5.0,3.0,Español,0.0,Catalán,0.0,Inglés,3.0,Francés,13.0,Italiano,18.0,4.0,4.0,yes,yes,no,Canto,13,5. No me apetece bailar ni con la música que más me gusta,5.0,"He tenido múltiples interrupciones mientras hacía el experimento, especialmente en los dos últimos idiomas. ¡Gracias! ",70.0,yes
5,2023-10-09_12h16.53.811,Unsyncopated1,s12,19.0,feminino,left,España,"Español, catalán",Upper secondary,no,no,A,1,conjunction_syn,L4,syncopated,s1,r1,5,Online_conjL4_syn//b.ja.nu28.none.none.wav,zi,ña,bu,lo,sil,re,de,ci,sil1,pe,sil2,['false alarm'],[1.0737000000000307],[1.0737000000000307],none,none,,,"[""space""]",nu,1,testConjL4Syn//r2.s2.2.wav,1.0,conjunction_syn,syncopated,b,s2,rule,rule,L4,z,2.4635,4.0,1.0,1.9613,5.0,3.0,Español,0.0,Catalán,0.0,Inglés,3.0,Francés,13.0,Italiano,18.0,4.0,4.0,yes,yes,no,Canto,13,6. La música me hace conectar con la gente,3.0,"He tenido múltiples interrupciones mientras hacía el experimento, especialmente en los dos últimos idiomas. ¡Gracias! ",70.0,yes
6,2023-10-09_12h16.53.811,Unsyncopated1,s12,19.0,feminino,left,España,"Español, catalán",Upper secondary,no,no,A,1,conjunction_syn,L4,syncopated,s2,r1,6,Online_conjL4_syn//b.ja.nu30.none.none.wav,ci,ña,ru,zi,sil,bo,pe,lo,sil1,bu,sil2,['-'],,,none,none,,,,nu,1,testConjL4Syn//dep_viol.r1.s1.0.wav,1.0,conjunction_syn,syncopated,a,s1,no_rule,dep,L4,m,1.9162,3.0,1.0,4.8318,5.0,3.0,Español,0.0,Catalán,0.0,Inglés,3.0,Francés,13.0,Italiano,18.0,4.0,4.0,yes,yes,no,Canto,13,7. Me informo sobre la música que me gusta.,1.0,"He tenido múltiples interrupciones mientras hacía el experimento, especialmente en los dos últimos idiomas. ¡Gracias! ",70.0,yes
7,2023-10-09_12h16.53.811,Unsyncopated1,s12,19.0,feminino,left,España,"Español, catalán",Upper secondary,no,no,A,1,conjunction_syn,L4,syncopated,s2,r1,7,Online_conjL4_syn//b.ja.nu29.none.none.wav,da,po,ña,zi,sil,pe,re,lo,sil1,bo,sil2,['-'],,,none,none,,,,nu,1,testConjL4Syn//dep_viol.r1.s2.0.wav,1.0,conjunction_syn,syncopated,a,s2,no_rule,dep,L4,z,0.3697,5.0,0.0,3.5966,5.0,3.0,Español,0.0,Catalán,0.0,Inglés,3.0,Francés,13.0,Italiano,18.0,4.0,4.0,yes,yes,no,Canto,13,8.Me emociono escuchando ciertas canciones.,4.0,"He tenido múltiples interrupciones mientras hacía el experimento, especialmente en los dos últimos idiomas. ¡Gracias! ",70.0,yes
8,2023-10-09_12h16.53.811,Unsyncopated1,s12,19.0,feminino,left,España,"Español, catalán",Upper secondary,no,no,A,1,conjunction_syn,L4,syncopated,s2,r2,8,Online_conjL4_syn//b.ja.nu8.666.1554.wav,da,bu,de,ja,sil,ci,pe,nu,sil1,re,sil2,['miss'],,,0.666,no_beat,,,,nu,1,testConjL4Syn//time_viol.r1.s1.0.wav,1.0,conjunction_syn,syncopated,a,s1,no_rule,time,L4,m,0.2007,6.0,1.0,1.8638,5.0,3.0,Español,0.0,Catalán,0.0,Inglés,3.0,Francés,13.0,Italiano,18.0,4.0,4.0,yes,yes,no,Canto,13,9.La música me tranquiliza y me relaja.,4.0,"He tenido múltiples interrupciones mientras hacía el experimento, especialmente en los dos últimos idiomas. ¡Gracias! ",70.0,yes
9,2023-10-09_12h16.53.811,Unsyncopated1,s12,19.0,feminino,left,España,"Español, catalán",Upper secondary,no,no,A,1,conjunction_syn,L4,syncopated,s2,r2,9,Online_conjL4_syn//b.ja.nu9.666.1554.wav,bo,ñi,po,ja,sil,da,re,nu,sil1,ru,sil2,['miss'],,,0.666,no_beat,,,,nu,1,testConjL4Syn//r1.s2.2.wav,1.0,conjunction_syn,syncopated,a,s2,rule,rule,L4,m,7.8788,2.0,0.0,2.0931,5.0,3.0,Español,0.0,Catalán,0.0,Inglés,3.0,Francés,13.0,Italiano,18.0,4.0,4.0,yes,yes,no,Canto,13,10.La música me hace bailar,3.0,"He tenido múltiples interrupciones mientras hacía el experimento, especialmente en los dos últimos idiomas. ¡Gracias! ",70.0,yes
10,2023-10-09_12h16.53.811,Unsyncopated1,s12,19.0,feminino,left,España,"Español, catalán",Upper secondary,no,no,A,1,conjunction_syn,L4,syncopated,s1,r2,10,Online_conjL4_syn//b.ja.nu10.0.666.wav,ja,pe,ñi,nu,sil,bu,ci,de,sil1,ru,sil2,['miss'],,,0.0,beat,,,,nu,1,testConjL4Syn//time_viol.r2.s2.0.wav,1.0,conjunction_syn,syncopated,b,s2,no_rule,time,L4,m,2.052,3.0,1.0,1.8138,5.0,3.0,Español,0.0,Catalán,0.0,Inglés,3.0,Francés,13.0,Italiano,18.0,4.0,4.0,yes,yes,no,Canto,13,11.Busco novedades musicales continuamente,4.0,"He tenido múltiples interrupciones mientras hacía el experimento, especialmente en los dos últimos idiomas. ¡Gracias! ",70.0,yes
11,2023-10-09_12h16.53.811,Unsyncopated1,s12,19.0,feminino,left,España,"Español, catalán",Upper secondary,no,no,A,1,conjunction_syn,L4,syncopated,s2,r2,11,Online_conjL4_syn//b.ja.nu11.666.1554.wav,de,ru,po,ja,sil,ci,pe,nu,sil1,ña,sil2,['miss'],,,0.666,no_beat,,,,nu,1,testConjL4Syn//r1.s1.0.wav,1.0,conjunction_syn,syncopated,a,s1,rule,rule,L4,m,1.3149,5.0,0.0,1.7041,5.0,3.0,Español,0.0,Catalán,0.0,Inglés,3.0,Francés,13.0,Italiano,18.0,4.0,4.0,yes,yes,no,Canto,13,12. Puedo llorar cuando escucho algunas melodías que me gustan mucho.,3.0,"He tenido múltiples interrupciones mientras hacía el experimento, especialmente en los dos últimos idiomas. ¡Gracias! ",70.0,yes
12,2023-10-09_12h16.53.811,Unsyncopated1,s12,19.0,feminino,left,España,"Español, catalán",Upper secondary,no,no,A,1,conjunction_syn,L4,syncopated,s2,r2,12,Online_conjL4_syn//d.pe.po13.none.none.wav,ci,ru,da,ja,sil,de,ñi,nu,sil1,bu,sil2,['-'],,,none,none,,,,po,4,testConjL4Syn//dep_viol.r2.s1.0.wav,1.0,conjunction_syn,syncopated,b,s1,no_rule,dep,L4,z,3.4845,4.0,0.0,2.9056,5.0,3.0,Español,0.0,Catalán,0.0,Inglés,3.0,Francés,13.0,Italiano,18.0,4.0,4.0,yes,yes,no,Canto,13,13. Me gusta cantar o tocar un instrumento con más gente,4.0,"He tenido múltiples interrupciones mientras hacía el experimento, especialmente en los dos últimos idiomas. ¡Gracias! ",70.0,yes
13,2023-10-09_12h16.53.811,Unsyncopated1,s12,19.0,feminino,left,España,"Español, catalán",Upper secondary,no,no,A,1,conjunction_syn,L4,syncopated,s2,r2,13,Online_conjL4_syn//d.pe.po15.222.1110.wav,ci,pe,de,ja,sil,po,bo,nu,sil1,da,sil2,['miss'],,,0.222,no_beat,,,,po,4,testConjL4Syn//cat_viol.r2.s1.0.wav,1.0,conjunction_syn,syncopated,b,s1,no_rule,cat,L4,z,0.2864,5.0,0.0,3.6302,5.0,3.0,Español,0.0,Catalán,0.0,Inglés,3.0,Francés,13.0,Italiano,18.0,4.0,4.0,yes,yes,no,Canto,13,14. La música me ayuda a desconectar.,3.0,"He tenido múltiples interrupciones mientras hacía el experimento, especialmente en los dos últimos idiomas. ¡Gracias! ",70.0,yes
14,2023-10-09_12h16.53.811,Unsyncopated1,s12,19.0,feminino,left,España,"Español, catalán",Upper secondary,no,no,A,1,conjunction_syn,L4,syncopated,s1,r2,14,Online_conjL4_syn//d.pe.po14.1110.1332.wav,ja,bo,bu,nu,sil,pe,po,de,sil1,da,sil2,['miss'],,,1.11,no_beat,,,,po,4,testConjL4Syn//r1.s1.2.wav,1.0,conjunction_syn,syncopated,a,s1,rule,rule,L4,m,2.0466,3.0,0.0,1.7369,5.0,3.0,Español,0.0,Catalán,0.0,Inglés,3.0,Francés,13.0,Italiano,18.0,4.0,4.0,yes,yes,no,Canto,13,15. No puedo evitar tararear las canciones que me gustan cuando las escucho.,4.0,"He tenido múltiples interrupciones mientras hacía el experimento, especialmente en los dos últimos idiomas. ¡Gracias! ",70.0,yes
15,2023-10-09_12h16.53.811,Unsyncopated1,s12,19.0,feminino,left,España,"Español, catalán",Upper secondary,no,no,A,1,conjunction_syn,L4,syncopated,s2,r1,15,Online_conjL4_syn//d.pe.po12.none.none.wav,bu,de,re,zi,sil,ña,ci,lo,sil1,ñi,sil2,['-'],,,none,none,,,,po,4,testConjL4Syn//r1.s2.1.wav,1.0,conjunction_syn,syncopated,a,s2,rule,rule,L4,m,1.324,4.0,0.0,5.1787,5.0,3.0,Español,0.0,Catalán,0.0,Inglés,3.0,Francés,13.0,Italiano,18.0,4.0,4.0,yes,yes,no,Canto,13,16. En los conciertos me siento en sintonía con los artistas y el público.,4.0,"He tenido múltiples interrupciones mientras hacía el experimento, especialmente en los dos últimos idiomas. ¡Gracias! ",70.0,yes
16,2023-10-09_12h16.53.811,Unsyncopated1,s12,19.0,feminino,left,España,"Español, catalán",Upper secondary,no,no,A,1,conjunction_syn,L4,syncopated,s2,r2,16,Online_conjL4_syn//a.zi.lo6.none.none.wav,ci,da,ru,ja,sil,bo,pe,nu,sil1,re,sil2,['-'],,,none,none,,,,zi,2,testConjL4Syn//cat_viol.r1.s2.0.wav,1.0,conjunction_syn,syncopated,a,s2,no_rule,cat,L4,m,11.4671,2.0,1.0,1.4651,5.0,3.0,Español,0.0,Catalán,0.0,Inglés,3.0,Francés,13.0,Italiano,18.0,4.0,4.0,yes,yes,no,Canto,13,17. Me gasto bastante dinero en música y cosas relacionadas con la música.,1.0,"He tenido múltiples interrupciones mientras hacía el experimento, especialmente en los dos últimos idiomas. ¡Gracias! ",70.0,yes
17,2023-10-09_12h16.53.811,Unsyncopated1,s12,19.0,feminino,left,España,"Español, catalán",Upper secondary,no,no,A,1,conjunction_syn,L4,syncopated,s2,r1,17,Online_conjL4_syn//a.zi.lo7.666.1554.wav,ru,de,po,zi,sil,ña,ñi,lo,sil1,da,sil2,['miss'],,,1.554,no_beat,,,,zi,2,testConjL4Syn//r1.s1.1.wav,1.0,conjunction_syn,syncopated,a,s1,rule,rule,L4,m,3.2166,4.0,0.0,1.3696,5.0,3.0,Español,0.0,Catalán,0.0,Inglés,3.0,Francés,13.0,Italiano,18.0,4.0,4.0,yes,yes,no,Canto,13,18. Siento escalofríos cuando escucho una melodía que me gusta.,4.0,"He tenido múltiples interrupciones mientras hacía el experimento, especialmente en los dos últimos idiomas. ¡Gracias! ",70.0,yes
18,2023-10-09_12h16.53.811,Unsyncopated1,s12,19.0,feminino,left,España,"Español, catalán",Upper secondary,no,no,A,1,conjunction_syn,L4,syncopated,s1,r1,18,Online_conjL4_syn//a.zi.lo4.0.666.wav,zi,po,re,lo,sil,ñi,da,bo,sil1,bu,sil2,['miss'],,,0.666,no_beat,,,,zi,2,testConjL4Syn//r2.s2.0.wav,1.0,conjunction_syn,syncopated,b,s2,rule,rule,L4,z,0.8355,4.0,1.0,1.8539,5.0,3.0,Español,0.0,Catalán,0.0,Inglés,3.0,Francés,13.0,Italiano,18.0,4.0,4.0,yes,yes,no,Canto,13,19. Con la música me puedo desahogar.,4.0,"He tenido múltiples interrupciones mientras hacía el experimento, especialmente en los dos últimos idiomas. ¡Gracias! ",70.0,yes
19,2023-10-09_12h16.53.811,Unsyncopated1,s12,19.0,feminino,left,España,"Español, catalán",Upper secondary,no,no,A,1,conjunction_syn,L4,syncopated,s1,r1,19,Online_conjL4_syn//a.zi.lo5.0.666.wav,zi,bo,ña,lo,sil,pe,de,re,sil1,ñi,sil2,['miss'],,,0.666,no_beat,,,,zi,2,testConjL4Syn//cat_viol.r1.s1.0.wav,1.0,conjunction_syn,syncopated,a,s1,no_rule,cat,L4,z,11.5682,4.0,0.0,1.9636,5.0,3.0,Español,0.0,Catalán,0.0,Inglés,3.0,Francés,13.0,Italiano,18.0,4.0,4.0,yes,yes,no,Canto,13,20. Cuando escucho una melodía que me gusta mucho no puedo evitar mover el cuerpo.,4.0,"He tenido múltiples interrupciones mientras hacía el experimento, especialmente en los dos últimos idiomas. ¡Gracias! ",70.0,yes
20,2023-10-09_12h16.53.811,Unsyncopated1,s12,19.0,feminino,left,España,"Español, catalán",Upper secondary,no,no,A,1,conjunction_syn,L4,syncopated,s2,r1,20,Online_conjL4_syn//a.zi.lo11.666.1554.wav,bu,ru,ci,zi,sil,po,de,lo,sil1,da,sil2,['miss'],,,1.554,no_beat,,,,zi,2,testConjL4Syn//r2.s1.1.wav,1.0,conjunction_syn,syncopated,b,s1,rule,rule,L4,z,9.7161,3.0,1.0,1.7817,5.0,3.0,Español,0.0,Catalán,0.0,Inglés,3.0,Francés,13.0,Italiano,18.0,4.0,4.0,yes,yes,no,Canto,13,,,"He tenido múltiples interrupciones mientras hacía el experimento, especialmente en los dos últimos idiomas. ¡Gracias! ",70.0,yes
21,2023-10-09_12h16.53.811,Unsyncopated1,s12,19.0,feminino,left,España,"Español, catalán",Upper secondary,no,no,A,1,conjunction_syn,L4,syncopated,s2,r1,21,Online_conjL4_syn//a.zi.lo9.666.1554.wav,po,ci,bu,zi,sil,de,ña,lo,sil1,ñi,sil2,['miss'],,,1.554,no_beat,,,,zi,2,testConjL4Syn//time_viol.r1.s2.0.wav,1.0,conjunction_syn,syncopated,a,s2,no_rule,time,L4,m,0.7922,4.0,1.0,1.1734,5.0,3.0,Español,0.0,Catalán,0.0,Inglés,3.0,Francés,13.0,Italiano,18.0,4.0,4.0,yes,yes,no,Canto,13,,,"He tenido múltiples interrupciones mientras hacía el experimento, especialmente en los dos últimos idiomas. ¡Gracias! ",70.0,yes
22,2023-10-09_12h16.53.811,Unsyncopated1,s12,19.0,feminino,left,España,"Español, catalán",Upper secondary,no,no,A,1,conjunction_syn,L4,syncopated,s1,r2,22,Online_conjL4_syn//a.zi.lo10.none.none.wav,ja,bu,de,nu,sil,re,ci,bo,sil1,ña,sil2,['-'],,,none,none,,,,zi,2,testConjL4Syn//cat_viol.r2.s2.0.wav,1.0,conjunction_syn,syncopated,b,s2,no_rule,cat,L4,z,7.8591,5.0,0.0,1.4597,5.0,3.0,Español,0.0,Catalán,0.0,Inglés,3.0,Francés,13.0,Italiano,18.0,4.0,4.0,yes,yes,no,Canto,13,,,"He tenido múltiples interrupciones mientras hacía el experimento, especialmente en los dos últimos idiomas. ¡Gracias! ",70.0,yes
23,2023-10-09_12h16.53.811,Unsyncopated1,s12,19.0,feminino,left,España,"Español, catalán",Upper secondary,no,no,A,1,conjunction_syn,L4,syncopated,s1,r1,23,Online_conjL4_syn//a.zi.lo8.0.666.wav,zi,pe,re,lo,sil,ña,bo,bu,sil1,de,sil2,['miss'],,,0.666,no_beat,,,,zi,2,testConjL4Syn//r2.s2.1.wav,1.0,conjunction_syn,syncopated,b,s2,rule,rule,L4,m,0.818,2.0,0.0,0.9427,5.0,3.0,Español,0.0,Catalán,0.0,Inglés,3.0,Francés,13.0,Italiano,18.0,4.0,4.0,yes,yes,no,Canto,13,,,"He tenido múltiples interrupciones mientras hacía el experimento, especialmente en los dos últimos idiomas. ¡Gracias! ",70.0,yes
24,2023-10-09_12h16.53.811,Unsyncopated1,s12,19.0,feminino,left,España,"Español, catalán",Upper secondary,no,no,A,1,conjunction_syn,L4,syncopated,s2,r2,24,Online_conjL4_syn//c.bu.da16.none.none.wav,po,ci,re,ja,sil,pe,de,nu,sil1,ru,sil2,['-'],,,none,none,,,,da,3,testWhatL2Uns//r1.s1.1.wav,2.0,what,unsyncopated,a,s1,rule,rule,L2,m,1.3488,5.0,0.0,1.7214,5.0,3.0,Español,0.0,Catalán,0.0,Inglés,3.0,Francés,13.0,Italiano,18.0,4.0,4.0,yes,yes,no,Canto,13,,,"He tenido múltiples interrupciones mientras hacía el experimento, especialmente en los dos últimos idiomas. ¡Gracias! ",70.0,yes
25,2023-10-09_12h16.53.811,Unsyncopated1,s12,19.0,feminino,left,España,"Español, catalán",Upper secondary,no,no,A,1,conjunction_syn,L4,syncopated,s2,r1,25,Online_conjL4_syn//c.bu.da19.none.none.wav,po,ña,ru,zi,sil,de,pe,lo,sil1,ci,sil2,['-'],,,none,none,,,,da,3,testWhatL2Uns//dep_viol.r2.s1.0.wav,2.0,what,unsyncopated,b,s1,no_rule,dep,L2,m,0.9976,5.0,1.0,1.2384,5.0,3.0,Español,0.0,Catalán,0.0,Inglés,3.0,Francés,13.0,Italiano,18.0,4.0,4.0,yes,yes,no,Canto,13,,,"He tenido múltiples interrupciones mientras hacía el experimento, especialmente en los dos últimos idiomas. ¡Gracias! ",70.0,yes
26,2023-10-09_12h16.53.811,Unsyncopated1,s12,19.0,feminino,left,España,"Español, catalán",Upper secondary,no,no,A,1,conjunction_syn,L4,syncopated,s1,r1,26,Online_conjL4_syn//c.bu.da17.none.none.wav,zi,bo,de,lo,sil,po,ña,re,sil1,ci,sil2,['-'],,,none,none,,,,da,3,testWhatL2Uns//r2.s1.0.wav,2.0,what,unsyncopated,b,s1,rule,rule,L2,m,2.0834,5.0,0.0,0.787,5.0,3.0,Español,0.0,Catalán,0.0,Inglés,3.0,Francés,13.0,Italiano,18.0,4.0,4.0,yes,yes,no,Canto,13,,,"He tenido múltiples interrupciones mientras hacía el experimento, especialmente en los dos últimos idiomas. ¡Gracias! ",70.0,yes
27,2023-10-09_12h16.53.811,Unsyncopated1,s12,19.0,feminino,left,España,"Español, catalán",Upper secondary,no,no,A,1,conjunction_syn,L4,syncopated,s1,r1,27,Online_conjL4_syn//c.bu.da18.1110.1332.wav,zi,bo,ñi,lo,sil,bu,da,de,sil1,po,sil2,['catch'],[1.9102000000000317],[1.9102000000000317],1.11,no_beat,0.8002000000000316,0.8002000000000316,"[""space""]",da,3,testWhatL2Uns//r1.s2.2.wav,2.0,what,unsyncopated,a,s2,rule,rule,L2,z,0.3149,5.0,1.0,0.8203,5.0,3.0,Español,0.0,Catalán,0.0,Inglés,3.0,Francés,13.0,Italiano,18.0,4.0,4.0,yes,yes,no,Canto,13,,,"He tenido múltiples interrupciones mientras hacía el experimento, especialmente en los dos últimos idiomas. ¡Gracias! ",70.0,yes
28,2023-10-09_12h16.53.811,Unsyncopated1,s12,19.0,feminino,left,España,"Español, catalán",Upper secondary,no,no,A,1,conjunction_syn,L4,syncopated,s2,r1,28,Online_conjL4_syn//d.pe.po5.222.1110.wav,ñi,pe,da,zi,sil,po,ru,lo,sil1,bo,sil2,['miss'],,,0.222,no_beat,,,,po,4,testWhatL2Uns//r2.s2.2.wav,2.0,what,unsyncopated,b,s2,rule,rule,L2,z,0.1705,5.0,1.0,0.5866,5.0,3.0,Español,0.0,Catalán,0.0,Inglés,3.0,Francés,13.0,Italiano,18.0,4.0,4.0,yes,yes,no,Canto,13,,,"He tenido múltiples interrupciones mientras hacía el experimento, especialmente en los dos últimos idiomas. ¡Gracias! ",70.0,yes
29,2023-10-09_12h16.53.811,Unsyncopated1,s12,19.0,feminino,left,España,"Español, catalán",Upper secondary,no,no,A,1,conjunction_syn,L4,syncopated,s2,r1,29,Online_conjL4_syn//d.pe.po7.1110.0.wav,po,ñi,de,zi,sil,pe,bu,lo,sil1,ña,sil2,['catch'],[1.9128000000000611],[1.9128000000000611],1.11,no_beat,0.802800000000061,0.802800000000061,"[""space""]",po,4,testWhatL2Uns//dep_viol.r1.s1.0.wav,2.0,what,unsyncopated,a,s1,no_rule,dep,L2,m,1.8491,2.0,1.0,1.2709,5.0,3.0,Español,0.0,Catalán,0.0,Inglés,3.0,Francés,13.0,Italiano,18.0,4.0,4.0,yes,yes,no,Canto,13,,,"He tenido múltiples interrupciones mientras hacía el experimento, especialmente en los dos últimos idiomas. ¡Gracias! ",70.0,yes
30,2023-10-09_12h16.53.811,Unsyncopated1,s12,19.0,feminino,left,España,"Español, catalán",Upper secondary,no,no,A,1,conjunction_syn,L4,syncopated,s2,r2,30,Online_conjL4_syn//d.pe.po4.none.none.wav,ña,bu,de,ja,sil,re,ci,nu,sil1,bo,sil2,['false alarm'],[1.1269000000000915],[1.1269000000000915],none,none,,,"[""space""]",po,4,testWhatL2Uns//r2.s2.1.wav,2.0,what,unsyncopated,b,s2,rule,rule,L2,z,0.1848,6.0,1.0,2.0726,5.0,3.0,Español,0.0,Catalán,0.0,Inglés,3.0,Francés,13.0,Italiano,18.0,4.0,4.0,yes,yes,no,Canto,13,,,"He tenido múltiples interrupciones mientras hacía el experimento, especialmente en los dos últimos idiomas. ¡Gracias! ",70.0,yes
31,2023-10-09_12h16.53.811,Unsyncopated1,s12,19.0,feminino,left,España,"Español, catalán",Upper secondary,no,no,A,1,conjunction_syn,L4,syncopated,s1,r1,31,Online_conjL4_syn//d.pe.po6.1110.222.wav,zi,po,de,lo,sil,pe,ñi,ru,sil1,ci,sil2,['catch'],[1.7557000000000471],[1.7557000000000471],1.11,no_beat,0.645700000000047,0.645700000000047,"[""space""]",po,4,testWhatL2Uns//r2.s1.1.wav,2.0,what,unsyncopated,b,s1,rule,rule,L2,z,0.6679,5.0,1.0,0.4446,5.0,3.0,Español,0.0,Catalán,0.0,Inglés,3.0,Francés,13.0,Italiano,18.0,4.0,4.0,yes,yes,no,Canto,13,,,"He tenido múltiples interrupciones mientras hacía el experimento, especialmente en los dos últimos idiomas. ¡Gracias! ",70.0,yes
32,2023-10-09_12h16.53.811,Unsyncopated1,s12,19.0,feminino,left,España,"Español, catalán",Upper secondary,no,no,A,1,conjunction_syn,L4,syncopated,s2,r2,32,Online_conjL4_syn//c.bu.da30.none.none.wav,po,ci,ña,ja,sil,ru,bo,nu,sil1,ñi,sil2,['-'],,,none,none,,,,da,3,testWhatL2Uns//cat_viol.r2.s2.0.wav,2.0,what,unsyncopated,b,s2,no_rule,cat,L2,m,3.2122,2.0,1.0,0.8369,5.0,3.0,Español,0.0,Catalán,0.0,Inglés,3.0,Francés,13.0,Italiano,18.0,4.0,4.0,yes,yes,no,Canto,13,,,"He tenido múltiples interrupciones mientras hacía el experimento, especialmente en los dos últimos idiomas. ¡Gracias! ",70.0,yes
33,2023-10-09_12h16.53.811,Unsyncopated1,s12,19.0,feminino,left,España,"Español, catalán",Upper secondary,no,no,A,1,conjunction_syn,L4,syncopated,s1,r1,33,Online_conjL4_syn//c.bu.da31.none.none.wav,zi,ñi,pe,lo,sil,de,ci,ña,sil1,bo,sil2,['-'],,,none,none,,,,da,3,testWhatL2Uns//r1.s2.1.wav,2.0,what,unsyncopated,a,s2,rule,rule,L2,z,3.5885,4.0,1.0,0.5467,5.0,3.0,Español,0.0,Catalán,0.0,Inglés,3.0,Francés,13.0,Italiano,18.0,4.0,4.0,yes,yes,no,Canto,13,,,"He tenido múltiples interrupciones mientras hacía el experimento, especialmente en los dos últimos idiomas. ¡Gracias! ",70.0,yes
34,2023-10-09_12h16.53.811,Unsyncopated1,s12,19.0,feminino,left,España,"Español, catalán",Upper secondary,no,no,A,1,conjunction_syn,L4,syncopated,s1,r1,34,Online_conjL4_syn//c.bu.da29.none.none.wav,zi,ñi,pe,lo,sil,re,ci,ru,sil1,ña,sil2,['-'],,,none,none,,,,da,3,testWhatL2Uns//dep_viol.r1.s2.0.wav,2.0,what,unsyncopated,a,s2,no_rule,dep,L2,z,0.6995,4.0,0.0,0.648,5.0,3.0,Español,0.0,Catalán,0.0,Inglés,3.0,Francés,13.0,Italiano,18.0,4.0,4.0,yes,yes,no,Canto,13,,,"He tenido múltiples interrupciones mientras hacía el experimento, especialmente en los dos últimos idiomas. ¡Gracias! ",70.0,yes
35,2023-10-09_12h16.53.811,Unsyncopated1,s12,19.0,feminino,left,España,"Español, catalán",Upper secondary,no,no,A,1,conjunction_syn,L4,syncopated,s1,r2,35,Online_conjL4_syn//c.bu.da28.none.none.wav,ja,ru,ñi,nu,sil,po,ci,de,sil1,bo,sil2,['-'],,,none,none,,,,da,3,testWhatL2Uns//time_viol.r2.s2.0.wav,2.0,what,unsyncopated,b,s2,no_rule,time,L2,z,0.1833,4.0,0.0,0.5141,5.0,3.0,Español,0.0,Catalán,0.0,Inglés,3.0,Francés,13.0,Italiano,18.0,4.0,4.0,yes,yes,no,Canto,13,,,"He tenido múltiples interrupciones mientras hacía el experimento, especialmente en los dos últimos idiomas. ¡Gracias! ",70.0,yes
36,2023-10-09_12h16.53.811,Unsyncopated1,s12,19.0,feminino,left,España,"Español, catalán",Upper secondary,no,no,A,1,conjunction_syn,L4,syncopated,s2,r1,36,Online_conjL4_syn//c.bu.da4.none.none.wav,pe,re,ru,zi,sil,ci,bo,lo,sil1,po,sil2,['-'],,,none,none,,,,da,3,testWhatL2Uns//r1.s1.0.wav,2.0,what,unsyncopated,a,s1,rule,rule,L2,z,16.6686,3.0,1.0,1.1657,5.0,3.0,Español,0.0,Catalán,0.0,Inglés,3.0,Francés,13.0,Italiano,18.0,4.0,4.0,yes,yes,no,Canto,13,,,"He tenido múltiples interrupciones mientras hacía el experimento, especialmente en los dos últimos idiomas. ¡Gracias! ",70.0,yes
37,2023-10-09_12h16.53.811,Unsyncopated1,s12,19.0,feminino,left,España,"Español, catalán",Upper secondary,no,no,A,1,conjunction_syn,L4,syncopated,s2,r1,37,Online_conjL4_syn//c.bu.da7.0.444.wav,bu,re,da,zi,sil,ña,po,lo,sil1,ñi,sil2,['miss'],,,0.0,beat,,,,da,3,testWhatL2Uns//cat_viol.r1.s1.0.wav,2.0,what,unsyncopated,a,s1,no_rule,cat,L2,m,26.1311,2.0,1.0,1.3382,5.0,3.0,Español,0.0,Catalán,0.0,Inglés,3.0,Francés,13.0,Italiano,18.0,4.0,4.0,yes,yes,no,Canto,13,,,"He tenido múltiples interrupciones mientras hacía el experimento, especialmente en los dos últimos idiomas. ¡Gracias! ",70.0,yes
38,2023-10-09_12h16.53.811,Unsyncopated1,s12,19.0,feminino,left,España,"Español, catalán",Upper secondary,no,no,A,1,conjunction_syn,L4,syncopated,s2,r1,38,Online_conjL4_syn//c.bu.da6.none.none.wav,pe,ci,ru,zi,sil,bo,po,lo,sil1,de,sil2,['-'],,,none,none,,,,da,3,testWhatL2Uns//r2.s1.2.wav,2.0,what,unsyncopated,b,s1,rule,rule,L2,m,24.5963,3.0,0.0,1.25,5.0,3.0,Español,0.0,Catalán,0.0,Inglés,3.0,Francés,13.0,Italiano,18.0,4.0,4.0,yes,yes,no,Canto,13,,,"He tenido múltiples interrupciones mientras hacía el experimento, especialmente en los dos últimos idiomas. ¡Gracias! ",70.0,yes
39,2023-10-09_12h16.53.811,Unsyncopated1,s12,19.0,feminino,left,España,"Español, catalán",Upper secondary,no,no,A,1,conjunction_syn,L4,syncopated,s1,r1,39,Online_conjL4_syn//c.bu.da5.222.1110.wav,zi,bu,ru,lo,sil,da,re,pe,sil1,ña,sil2,['miss'],,,0.222,no_beat,,,,da,3,testWhatL2Uns//time_viol.r1.s2.0.wav,2.0,what,unsyncopated,a,s2,no_rule,time,L2,m,4.5464,4.0,1.0,0.6509,5.0,3.0,Español,0.0,Catalán,0.0,Inglés,3.0,Francés,13.0,Italiano,18.0,4.0,4.0,yes,yes,no,Canto,13,,,"He tenido múltiples interrupciones mientras hacía el experimento, especialmente en los dos últimos idiomas. ¡Gracias! ",70.0,yes
40,2023-10-09_12h16.53.811,Unsyncopated1,s12,19.0,feminino,left,España,"Español, catalán",Upper secondary,no,no,A,1,conjunction_syn,L4,syncopated,s2,r1,40,Online_conjL4_syn//a.zi.lo19.666.1554.wav,da,bo,po,zi,sil,ru,ci,lo,sil1,bu,sil2,['miss'],,,1.554,no_beat,,,,zi,2,testWhatL2Uns//time_viol.r2.s1.0.wav,2.0,what,unsyncopated,b,s1,no_rule,time,L2,z,0.0386,4.0,0.0,0.9531,5.0,3.0,Español,0.0,Catalán,0.0,Inglés,3.0,Francés,13.0,Italiano,18.0,4.0,4.0,yes,yes,no,Canto,13,,,"He tenido múltiples interrupciones mientras hacía el experimento, especialmente en los dos últimos idiomas. ¡Gracias! ",70.0,yes
41,2023-10-09_12h16.53.811,Unsyncopated1,s12,19.0,feminino,left,España,"Español, catalán",Upper secondary,no,no,A,1,conjunction_syn,L4,syncopated,s1,r2,41,Online_conjL4_syn//a.zi.lo18.none.none.wav,ja,pe,ru,nu,sil,de,ñi,bu,sil1,re,sil2,['-'],,,none,none,,,,zi,2,testWhatL2Uns//dep_viol.r2.s2.0.wav,2.0,what,unsyncopated,b,s2,no_rule,dep,L2,m,0.9942,3.0,1.0,0.9126,5.0,3.0,Español,0.0,Catalán,0.0,Inglés,3.0,Francés,13.0,Italiano,18.0,4.0,4.0,yes,yes,no,Canto,13,,,"He tenido múltiples interrupciones mientras hacía el experimento, especialmente en los dos últimos idiomas. ¡Gracias! ",70.0,yes
42,2023-10-09_12h16.53.811,Unsyncopated1,s12,19.0,feminino,left,España,"Español, catalán",Upper secondary,no,no,A,1,conjunction_syn,L4,syncopated,s2,r1,42,Online_conjL4_syn//a.zi.lo16.666.1554.wav,ña,po,ci,zi,sil,pe,de,lo,sil1,ru,sil2,['catch'],[2.1590999999999667],[2.1590999999999667],1.554,no_beat,0.6050999999999667,0.6050999999999667,"[""space""]",zi,2,testWhatL2Uns//r2.s2.0.wav,2.0,what,unsyncopated,b,s2,rule,rule,L2,z,0.7883,3.0,1.0,0.6159,5.0,3.0,Español,0.0,Catalán,0.0,Inglés,3.0,Francés,13.0,Italiano,18.0,4.0,4.0,yes,yes,no,Canto,13,,,"He tenido múltiples interrupciones mientras hacía el experimento, especialmente en los dos últimos idiomas. ¡Gracias! ",70.0,yes
43,2023-10-09_12h16.53.811,Unsyncopated1,s12,19.0,feminino,left,España,"Español, catalán",Upper secondary,no,no,A,1,conjunction_syn,L4,syncopated,s1,r2,43,Online_conjL4_syn//a.zi.lo17.none.none.wav,ja,po,bu,nu,sil,de,ru,ñi,sil1,ci,sil2,['-'],,,none,none,,,,zi,2,testWhatL2Uns//cat_viol.r2.s1.0.wav,2.0,what,unsyncopated,b,s1,no_rule,cat,L2,m,1.4232,3.0,1.0,0.3701,5.0,3.0,Español,0.0,Catalán,0.0,Inglés,3.0,Francés,13.0,Italiano,18.0,4.0,4.0,yes,yes,no,Canto,13,,,"He tenido múltiples interrupciones mientras hacía el experimento, especialmente en los dos últimos idiomas. ¡Gracias! ",70.0,yes
44,2023-10-09_12h16.53.811,Unsyncopated1,s12,19.0,feminino,left,España,"Español, catalán",Upper secondary,no,no,A,1,conjunction_syn,L4,syncopated,s1,r1,44,Online_conjL4_syn//a.zi.lo26.0.666.wav,zi,bu,po,lo,sil,bo,da,re,sil1,pe,sil2,['miss'],,,0.666,no_beat,,,,zi,2,testWhatL2Uns//r1.s2.0.wav,2.0,what,unsyncopated,a,s2,rule,rule,L2,z,10.0238,2.0,1.0,1.3886,5.0,3.0,Español,0.0,Catalán,0.0,Inglés,3.0,Francés,13.0,Italiano,18.0,4.0,4.0,yes,yes,no,Canto,13,,,"He tenido múltiples interrupciones mientras hacía el experimento, especialmente en los dos últimos idiomas. ¡Gracias! ",70.0,yes
45,2023-10-09_12h16.53.811,Unsyncopated1,s12,19.0,feminino,left,España,"Español, catalán",Upper secondary,no,no,A,1,conjunction_syn,L4,syncopated,s1,r2,45,Online_conjL4_syn//a.zi.lo27.none.none.wav,ja,re,bo,nu,sil,bu,pe,ru,sil1,ñi,sil2,['-'],,,none,none,,,,zi,2,testWhatL2Uns//cat_viol.r1.s2.0.wav,2.0,what,unsyncopated,a,s2,no_rule,cat,L2,z,0.4349,5.0,0.0,0.8879,5.0,3.0,Español,0.0,Catalán,0.0,Inglés,3.0,Francés,13.0,Italiano,18.0,4.0,4.0,yes,yes,no,Canto,13,,,"He tenido múltiples interrupciones mientras hacía el experimento, especialmente en los dos últimos idiomas. ¡Gracias! ",70.0,yes
46,2023-10-09_12h16.53.811,Unsyncopated1,s12,19.0,feminino,left,España,"Español, catalán",Upper secondary,no,no,A,1,conjunction_syn,L4,syncopated,s1,r1,46,Online_conjL4_syn//a.zi.lo25.0.666.wav,zi,po,ci,lo,sil,re,da,ru,sil1,pe,sil2,['catch'],[1.54099999999994],[1.54099999999994],0.666,no_beat,0.8749999999999399,0.8749999999999399,"[""space""]",zi,2,testWhatL2Uns//r1.s1.2.wav,2.0,what,unsyncopated,a,s1,rule,rule,L2,z,2.0286,3.0,1.0,0.4541,5.0,3.0,Español,0.0,Catalán,0.0,Inglés,3.0,Francés,13.0,Italiano,18.0,4.0,4.0,yes,yes,no,Canto,13,,,"He tenido múltiples interrupciones mientras hacía el experimento, especialmente en los dos últimos idiomas. ¡Gracias! ",70.0,yes
47,2023-10-09_12h16.53.811,Unsyncopated1,s12,19.0,feminino,left,España,"Español, catalán",Upper secondary,no,no,A,1,conjunction_syn,L4,syncopated,s2,r2,47,Online_conjL4_syn//a.zi.lo24.none.none.wav,ñi,po,de,ja,sil,pe,ci,nu,sil1,bo,sil2,['-'],,,none,none,,,,zi,2,testWhatL2Uns//time_viol.r1.s1.0.wav,2.0,what,unsyncopated,a,s1,no_rule,time,L2,m,0.7385,2.0,1.0,0.6169,5.0,3.0,Español,0.0,Catalán,0.0,Inglés,3.0,Francés,13.0,Italiano,18.0,4.0,4.0,yes,yes,no,Canto,13,,,"He tenido múltiples interrupciones mientras hacía el experimento, especialmente en los dos últimos idiomas. ¡Gracias! ",70.0,yes
48,2023-10-09_12h16.53.811,Unsyncopated1,s12,19.0,feminino,left,España,"Español, catalán",Upper secondary,no,no,A,1,conjunction_syn,L4,syncopated,s1,r1,48,Online_conjL4_syn//d.pe.po9.1554.1110.wav,zi,bo,ci,lo,sil,po,de,pe,sil1,ru,sil2,['miss'],,,1.554,no_beat,,,,po,4,testWhenL3Uns//r2.s1.1.wav,3.0,when,unsyncopated,b,s1,rule,rule,L3,z,1.3219,6.0,1.0,0.6108,5.0,3.0,Español,0.0,Catalán,0.0,Inglés,3.0,Francés,13.0,Italiano,18.0,4.0,4.0,yes,yes,no,Canto,13,,,"He tenido múltiples interrupciones mientras hacía el experimento, especialmente en los dos últimos idiomas. ¡Gracias! ",70.0,yes
49,2023-10-09_12h16.53.811,Unsyncopated1,s12,19.0,feminino,left,España,"Español, catalán",Upper secondary,no,no,A,1,conjunction_syn,L4,syncopated,s2,r2,49,Online_conjL4_syn//d.pe.po10.1332.444.wav,bu,ci,po,ja,sil,bo,pe,nu,sil1,de,sil2,"['false alarm', 'false alarm']","[0.4759999999999991, 0.692299999999932]",,1.332,no_beat,,,"[""space"",""space""]",po,4,testWhenL3Uns//time_viol.r1.s2.0.wav,3.0,when,unsyncopated,a,s2,no_rule,time,L3,z,0.0676,5.0,1.0,0.6647,5.0,3.0,Español,0.0,Catalán,0.0,Inglés,3.0,Francés,13.0,Italiano,18.0,4.0,4.0,yes,yes,no,Canto,13,,,"He tenido múltiples interrupciones mientras hacía el experimento, especialmente en los dos últimos idiomas. ¡Gracias! ",70.0,yes
50,2023-10-09_12h16.53.811,Unsyncopated1,s12,19.0,feminino,left,España,"Español, catalán",Upper secondary,no,no,A,1,conjunction_syn,L4,syncopated,s1,r2,50,Online_conjL4_syn//d.pe.po8.none.none.wav,ja,re,de,nu,sil,ci,ru,ñi,sil1,bu,sil2,['-'],,,none,none,,,,po,4,testWhenL3Uns//time_viol.r2.s1.0.wav,3.0,when,unsyncopated,b,s1,no_rule,time,L3,z,0.3528,4.0,1.0,0.9288,5.0,3.0,Español,0.0,Catalán,0.0,Inglés,3.0,Francés,13.0,Italiano,18.0,4.0,4.0,yes,yes,no,Canto,13,,,"He tenido múltiples interrupciones mientras hacía el experimento, especialmente en los dos últimos idiomas. ¡Gracias! ",70.0,yes
51,2023-10-09_12h16.53.811,Unsyncopated1,s12,19.0,feminino,left,España,"Español, catalán",Upper secondary,no,no,A,1,conjunction_syn,L4,syncopated,s1,r2,51,Online_conjL4_syn//d.pe.po11.1332.222.wav,ja,po,re,nu,sil,ñi,pe,ña,sil1,ci,sil2,['catch'],[2.2590000000000146],[2.2590000000000146],1.332,no_beat,0.9270000000000144,0.9270000000000144,"[""space""]",po,4,testWhenL3Uns//cat_viol.r2.s1.0.wav,3.0,when,unsyncopated,b,s1,no_rule,cat,L3,z,0.969,5.0,1.0,0.5633,5.0,3.0,Español,0.0,Catalán,0.0,Inglés,3.0,Francés,13.0,Italiano,18.0,4.0,4.0,yes,yes,no,Canto,13,,,"He tenido múltiples interrupciones mientras hacía el experimento, especialmente en los dos últimos idiomas. ¡Gracias! ",70.0,yes
52,2023-10-09_12h16.53.811,Unsyncopated1,s12,19.0,feminino,left,España,"Español, catalán",Upper secondary,no,no,A,1,conjunction_syn,L4,syncopated,s1,r1,52,Online_conjL4_syn//c.bu.da11.1332.222.wav,zi,da,po,lo,sil,bo,bu,ci,sil1,pe,sil2,['catch'],[2.470100000000002],[2.470100000000002],1.332,no_beat,1.138100000000002,1.138100000000002,"[""space""]",da,3,testWhenL3Uns//cat_viol.r1.s1.0.wav,3.0,when,unsyncopated,a,s1,no_rule,cat,L3,z,0.0516,5.0,1.0,0.901,5.0,3.0,Español,0.0,Catalán,0.0,Inglés,3.0,Francés,13.0,Italiano,18.0,4.0,4.0,yes,yes,no,Canto,13,,,"He tenido múltiples interrupciones mientras hacía el experimento, especialmente en los dos últimos idiomas. ¡Gracias! ",70.0,yes
53,2023-10-09_12h16.53.811,Unsyncopated1,s12,19.0,feminino,left,España,"Español, catalán",Upper secondary,no,no,A,1,conjunction_syn,L4,syncopated,s2,r1,53,Online_conjL4_syn//c.bu.da9.444.1110.wav,pe,re,bu,zi,sil,da,po,lo,sil1,de,sil2,['miss'],,,0.444,no_beat,,,,da,3,testWhenL3Uns//r2.s2.2.wav,3.0,when,unsyncopated,b,s2,rule,rule,L3,z,1.5688,4.0,1.0,0.3867,5.0,3.0,Español,0.0,Catalán,0.0,Inglés,3.0,Francés,13.0,Italiano,18.0,4.0,4.0,yes,yes,no,Canto,13,,,"He tenido múltiples interrupciones mientras hacía el experimento, especialmente en los dos últimos idiomas. ¡Gracias! ",70.0,yes
54,2023-10-09_12h16.53.811,Unsyncopated1,s12,19.0,feminino,left,España,"Español, catalán",Upper secondary,no,no,A,1,conjunction_syn,L4,syncopated,s1,r2,54,Online_conjL4_syn//c.bu.da8.222.444.wav,ja,bu,da,nu,sil,re,ru,ñi,sil1,de,sil2,['catch'],[1.1928000000000338],[1.1928000000000338],0.222,no_beat,0.970800000000034,0.970800000000034,"[""space""]",da,3,testWhenL3Uns//dep_viol.r1.s1.0.wav,3.0,when,unsyncopated,a,s1,no_rule,dep,L3,m,2.5292,2.0,0.0,1.3201,5.0,3.0,Español,0.0,Catalán,0.0,Inglés,3.0,Francés,13.0,Italiano,18.0,4.0,4.0,yes,yes,no,Canto,13,,,"He tenido múltiples interrupciones mientras hacía el experimento, especialmente en los dos últimos idiomas. ¡Gracias! ",70.0,yes
55,2023-10-09_12h16.53.811,Unsyncopated1,s12,19.0,feminino,left,España,"Español, catalán",Upper secondary,no,no,A,1,conjunction_syn,L4,syncopated,s1,r2,55,Online_conjL4_syn//c.bu.da10.none.none.wav,ja,de,bo,nu,sil,ñi,ru,po,sil1,pe,sil2,['false alarm'],[1.6770999999999958],[1.6770999999999958],none,none,,,"[""space""]",da,3,testWhenL3Uns//r1.s1.0.wav,3.0,when,unsyncopated,a,s1,rule,rule,L3,z,1.6006,3.0,1.0,0.6993,5.0,3.0,Español,0.0,Catalán,0.0,Inglés,3.0,Francés,13.0,Italiano,18.0,4.0,4.0,yes,yes,no,Canto,13,,,"He tenido múltiples interrupciones mientras hacía el experimento, especialmente en los dos últimos idiomas. ¡Gracias! ",70.0,yes
56,2023-10-09_12h16.53.811,Unsyncopated1,s12,19.0,feminino,left,España,"Español, catalán",Upper secondary,no,no,A,1,conjunction_syn,L4,syncopated,s2,r2,56,Online_conjL4_syn//b.ja.nu0.666.1554.wav,ña,bu,ci,ja,sil,ñi,re,nu,sil1,po,sil2,"['catch', 'false alarm']","[0.9007000000000289, 2.4159000000000788]",[0.9007000000000289],0.666,no_beat,0.2347000000000288,0.2347000000000288,"[""space"",""space""]",nu,1,testWhenL3Uns//r1.s1.2.wav,3.0,when,unsyncopated,a,s1,rule,rule,L3,m,0.7858,3.0,0.0,0.6716,5.0,3.0,Español,0.0,Catalán,0.0,Inglés,3.0,Francés,13.0,Italiano,18.0,4.0,4.0,yes,yes,no,Canto,13,,,"He tenido múltiples interrupciones mientras hacía el experimento, especialmente en los dos últimos idiomas. ¡Gracias! ",70.0,yes
57,2023-10-09_12h16.53.811,Unsyncopated1,s12,19.0,feminino,left,España,"Español, catalán",Upper secondary,no,no,A,1,conjunction_syn,L4,syncopated,s1,r1,57,Online_conjL4_syn//b.ja.nu1.none.none.wav,zi,de,ru,lo,sil,po,ña,bu,sil1,da,sil2,['false alarm'],[2.1119999999999663],[2.1119999999999663],none,none,,,"[""space""]",nu,1,testWhenL3Uns//time_viol.r1.s1.0.wav,3.0,when,unsyncopated,a,s1,no_rule,time,L3,m,7.0012,4.0,0.0,1.649,5.0,3.0,Español,0.0,Catalán,0.0,Inglés,3.0,Francés,13.0,Italiano,18.0,4.0,4.0,yes,yes,no,Canto,13,,,"He tenido múltiples interrupciones mientras hacía el experimento, especialmente en los dos últimos idiomas. ¡Gracias! ",70.0,yes
58,2023-10-09_12h16.53.811,Unsyncopated1,s12,19.0,feminino,left,España,"Español, catalán",Upper secondary,no,no,A,1,conjunction_syn,L4,syncopated,s1,r2,58,Online_conjL4_syn//b.ja.nu3.0.666.wav,ja,bu,bo,nu,sil,pe,ru,re,sil1,ñi,sil2,['miss'],,,0.0,beat,,,,nu,1,testWhenL3Uns//dep_viol.r1.s2.0.wav,3.0,when,unsyncopated,a,s2,no_rule,dep,L3,m,2.1111,4.0,0.0,1.1627,5.0,3.0,Español,0.0,Catalán,0.0,Inglés,3.0,Francés,13.0,Italiano,18.0,4.0,4.0,yes,yes,no,Canto,13,,,"He tenido múltiples interrupciones mientras hacía el experimento, especialmente en los dos últimos idiomas. ¡Gracias! ",70.0,yes
59,2023-10-09_12h16.53.811,Unsyncopated1,s12,19.0,feminino,left,España,"Español, catalán",Upper secondary,no,no,A,1,conjunction_syn,L4,syncopated,s1,r1,59,Online_conjL4_syn//b.ja.nu2.none.none.wav,zi,da,ru,lo,sil,bo,ci,ñi,sil1,de,sil2,['-'],,,none,none,,,,nu,1,testWhenL3Uns//cat_viol.r1.s2.0.wav,3.0,when,unsyncopated,a,s2,no_rule,cat,L3,m,2.0227,3.0,0.0,0.5717,5.0,3.0,Español,0.0,Catalán,0.0,Inglés,3.0,Francés,13.0,Italiano,18.0,4.0,4.0,yes,yes,no,Canto,13,,,"He tenido múltiples interrupciones mientras hacía el experimento, especialmente en los dos últimos idiomas. ¡Gracias! ",70.0,yes
60,2023-10-09_12h16.53.811,Unsyncopated1,s12,19.0,feminino,left,España,"Español, catalán",Upper secondary,no,no,A,1,conjunction_syn,L4,syncopated,s1,r2,60,Online_conjL4_syn//a.zi.lo28.none.none.wav,ja,pe,bu,nu,sil,ña,ñi,bo,sil1,ru,sil2,['-'],,,none,none,,,,zi,2,testWhenL3Uns//cat_viol.r2.s2.0.wav,3.0,when,unsyncopated,b,s2,no_rule,cat,L3,z,17.7369,4.0,1.0,0.6061,5.0,3.0,Español,0.0,Catalán,0.0,Inglés,3.0,Francés,13.0,Italiano,18.0,4.0,4.0,yes,yes,no,Canto,13,,,"He tenido múltiples interrupciones mientras hacía el experimento, especialmente en los dos últimos idiomas. ¡Gracias! ",70.0,yes
61,2023-10-09_12h16.53.811,Unsyncopated1,s12,19.0,feminino,left,España,"Español, catalán",Upper secondary,no,no,A,1,conjunction_syn,L4,syncopated,s2,r2,61,Online_conjL4_syn//a.zi.lo29.none.none.wav,ña,da,re,ja,sil,ci,po,nu,sil1,ru,sil2,['-'],,,none,none,,,,zi,2,testWhenL3Uns//r2.s1.2.wav,3.0,when,unsyncopated,b,s1,rule,rule,L3,z,1.2448,5.0,1.0,0.602,5.0,3.0,Español,0.0,Catalán,0.0,Inglés,3.0,Francés,13.0,Italiano,18.0,4.0,4.0,yes,yes,no,Canto,13,,,"He tenido múltiples interrupciones mientras hacía el experimento, especialmente en los dos últimos idiomas. ¡Gracias! ",70.0,yes
62,2023-10-09_12h16.53.811,Unsyncopated1,s12,19.0,feminino,left,España,"Español, catalán",Upper secondary,no,no,A,1,conjunction_syn,L4,syncopated,s2,r2,62,Online_conjL4_syn//a.zi.lo31.none.none.wav,bo,ru,ci,ja,sil,po,da,nu,sil1,bu,sil2,['-'],,,none,none,,,,zi,2,testWhenL3Uns//time_viol.r2.s2.0.wav,3.0,when,unsyncopated,b,s2,no_rule,time,L3,m,1.0356,4.0,0.0,1.0458,5.0,3.0,Español,0.0,Catalán,0.0,Inglés,3.0,Francés,13.0,Italiano,18.0,4.0,4.0,yes,yes,no,Canto,13,,,"He tenido múltiples interrupciones mientras hacía el experimento, especialmente en los dos últimos idiomas. ¡Gracias! ",70.0,yes
63,2023-10-09_12h16.53.811,Unsyncopated1,s12,19.0,feminino,left,España,"Español, catalán",Upper secondary,no,no,A,1,conjunction_syn,L4,syncopated,s1,r1,63,Online_conjL4_syn//a.zi.lo30.0.666.wav,zi,ñi,ru,lo,sil,bu,bo,ña,sil1,de,sil2,['catch'],[1.595299999999952],[1.595299999999952],0.666,no_beat,0.929299999999952,0.929299999999952,"[""space""]",zi,2,testWhenL3Uns//r2.s1.0.wav,3.0,when,unsyncopated,b,s1,rule,rule,L3,m,6.7021,3.0,0.0,0.3,5.0,3.0,Español,0.0,Catalán,0.0,Inglés,3.0,Francés,13.0,Italiano,18.0,4.0,4.0,yes,yes,no,Canto,13,,,"He tenido múltiples interrupciones mientras hacía el experimento, especialmente en los dos últimos idiomas. ¡Gracias! ",70.0,yes
64,2023-10-09_12h16.53.811,Unsyncopated1,s12,19.0,feminino,left,España,"Español, catalán",Upper secondary,no,no,A,1,conjunction_syn,L4,syncopated,s2,r2,64,Online_conjL4_syn//c.bu.da15.222.444.wav,de,bu,da,ja,sil,ci,bo,nu,sil1,re,sil2,['miss'],,,0.222,no_beat,,,,da,3,testWhenL3Uns//r2.s2.0.wav,3.0,when,unsyncopated,b,s2,rule,rule,L3,m,1.2574,3.0,0.0,0.499,5.0,3.0,Español,0.0,Catalán,0.0,Inglés,3.0,Francés,13.0,Italiano,18.0,4.0,4.0,yes,yes,no,Canto,13,,,"He tenido múltiples interrupciones mientras hacía el experimento, especialmente en los dos últimos idiomas. ¡Gracias! ",70.0,yes
65,2023-10-09_12h16.53.811,Unsyncopated1,s12,19.0,feminino,left,España,"Español, catalán",Upper secondary,no,no,A,1,conjunction_syn,L4,syncopated,s1,r1,65,Online_conjL4_syn//c.bu.da12.1110.1332.wav,zi,ci,ña,lo,sil,bu,da,pe,sil1,po,sil2,['catch'],[1.9090999999999667],[1.9090999999999667],1.11,no_beat,0.7990999999999666,0.7990999999999666,"[""space""]",da,3,testWhenL3Uns//r1.s2.0.wav,3.0,when,unsyncopated,a,s2,rule,rule,L3,m,7.8188,5.0,0.0,1.0761,5.0,3.0,Español,0.0,Catalán,0.0,Inglés,3.0,Francés,13.0,Italiano,18.0,4.0,4.0,yes,yes,no,Canto,13,,,"He tenido múltiples interrupciones mientras hacía el experimento, especialmente en los dos últimos idiomas. ¡Gracias! ",70.0,yes
66,2023-10-09_12h16.53.811,Unsyncopated1,s12,19.0,feminino,left,España,"Español, catalán",Upper secondary,no,no,A,1,conjunction_syn,L4,syncopated,s2,r1,66,Online_conjL4_syn//c.bu.da13.none.none.wav,ci,ñi,ña,zi,sil,ru,re,lo,sil1,po,sil2,['-'],,,none,none,,,,da,3,testWhenL3Uns//r1.s2.2.wav,3.0,when,unsyncopated,a,s2,rule,rule,L3,m,2.5546,5.0,0.0,0.4127,5.0,3.0,Español,0.0,Catalán,0.0,Inglés,3.0,Francés,13.0,Italiano,18.0,4.0,4.0,yes,yes,no,Canto,13,,,"He tenido múltiples interrupciones mientras hacía el experimento, especialmente en los dos últimos idiomas. ¡Gracias! ",70.0,yes
67,2023-10-09_12h16.53.811,Unsyncopated1,s12,19.0,feminino,left,España,"Español, catalán",Upper secondary,no,no,A,1,conjunction_syn,L4,syncopated,s2,r2,67,Online_conjL4_syn//c.bu.da14.none.none.wav,ci,ñi,pe,ja,sil,ru,re,nu,sil1,ña,sil2,['-'],,,none,none,,,,da,3,testWhenL3Uns//r1.s2.1.wav,3.0,when,unsyncopated,a,s2,rule,rule,L3,z,3.7157,3.0,1.0,0.4504,5.0,3.0,Español,0.0,Catalán,0.0,Inglés,3.0,Francés,13.0,Italiano,18.0,4.0,4.0,yes,yes,no,Canto,13,,,"He tenido múltiples interrupciones mientras hacía el experimento, especialmente en los dos últimos idiomas. ¡Gracias! ",70.0,yes
68,2023-10-09_12h16.53.811,Unsyncopated1,s12,19.0,feminino,left,España,"Español, catalán",Upper secondary,no,no,A,1,conjunction_syn,L4,syncopated,s1,r2,68,Online_conjL4_syn//b.ja.nu15.0.666.wav,ja,ru,ci,nu,sil,de,da,po,sil1,bo,sil2,['miss'],,,0.0,beat,,,,nu,1,testWhenL3Uns//r2.s2.1.wav,3.0,when,unsyncopated,b,s2,rule,rule,L3,z,0.1031,5.0,1.0,2.1675,5.0,3.0,Español,0.0,Catalán,0.0,Inglés,3.0,Francés,13.0,Italiano,18.0,4.0,4.0,yes,yes,no,Canto,13,,,"He tenido múltiples interrupciones mientras hacía el experimento, especialmente en los dos últimos idiomas. ¡Gracias! ",70.0,yes
69,2023-10-09_12h16.53.811,Unsyncopated1,s12,19.0,feminino,left,España,"Español, catalán",Upper secondary,no,no,A,1,conjunction_syn,L4,syncopated,s2,r1,69,Online_conjL4_syn//b.ja.nu13.none.none.wav,re,ci,bu,zi,sil,po,bo,lo,sil1,pe,sil2,['-'],,,none,none,,,,nu,1,testWhenL3Uns//r1.s1.1.wav,3.0,when,unsyncopated,a,s1,rule,rule,L3,m,4.4512,4.0,0.0,0.3833,5.0,3.0,Español,0.0,Catalán,0.0,Inglés,3.0,Francés,13.0,Italiano,18.0,4.0,4.0,yes,yes,no,Canto,13,,,"He tenido múltiples interrupciones mientras hacía el experimento, especialmente en los dos últimos idiomas. ¡Gracias! ",70.0,yes
70,2023-10-09_12h16.53.811,Unsyncopated1,s12,19.0,feminino,left,España,"Español, catalán",Upper secondary,no,no,A,1,conjunction_syn,L4,syncopated,s1,r2,70,Online_conjL4_syn//b.ja.nu12.0.666.wav,ja,ñi,de,nu,sil,pe,po,da,sil1,ru,sil2,['miss'],,,0.0,beat,,,,nu,1,testWhenL3Uns//dep_viol.r2.s2.0.wav,3.0,when,unsyncopated,b,s2,no_rule,dep,L3,z,1.4498,5.0,1.0,0.8198,5.0,3.0,Español,0.0,Catalán,0.0,Inglés,3.0,Francés,13.0,Italiano,18.0,4.0,4.0,yes,yes,no,Canto,13,,,"He tenido múltiples interrupciones mientras hacía el experimento, especialmente en los dos últimos idiomas. ¡Gracias! ",70.0,yes
71,2023-10-09_12h16.53.811,Unsyncopated1,s12,19.0,feminino,left,España,"Español, catalán",Upper secondary,no,no,A,1,conjunction_syn,L4,syncopated,s2,r1,71,Online_conjL4_syn//b.ja.nu14.none.none.wav,pe,ci,da,zi,sil,po,bu,lo,sil1,ña,sil2,['-'],,,none,none,,,,nu,1,testWhenL3Uns//dep_viol.r2.s1.0.wav,3.0,when,unsyncopated,b,s1,no_rule,dep,L3,z,3.2235,5.0,1.0,0.3825,5.0,3.0,Español,0.0,Catalán,0.0,Inglés,3.0,Francés,13.0,Italiano,18.0,4.0,4.0,yes,yes,no,Canto,13,,,"He tenido múltiples interrupciones mientras hacía el experimento, especialmente en los dos últimos idiomas. ¡Gracias! ",70.0,yes
72,2023-10-09_12h16.53.811,Unsyncopated1,s12,19.0,feminino,left,España,"Español, catalán",Upper secondary,no,no,A,1,conjunction_syn,L4,syncopated,s2,r2,72,Online_conjL4_syn//d.pe.po29.none.none.wav,da,ña,ru,ja,sil,ñi,de,nu,sil1,ci,sil2,['false alarm'],[0.052500000000009095],[0.052500000000009095],none,none,,,"[""space""]",po,4,testConjL1Uns//time_viol.r1.s2.0.wav,4.0,conjunction_un,unsyncopated,a,s2,no_rule,time,L1,m,2.5069,3.0,1.0,0.6483,5.0,3.0,Español,0.0,Catalán,0.0,Inglés,3.0,Francés,13.0,Italiano,18.0,4.0,4.0,yes,yes,no,Canto,13,,,"He tenido múltiples interrupciones mientras hacía el experimento, especialmente en los dos últimos idiomas. ¡Gracias! ",70.0,yes
73,2023-10-09_12h16.53.811,Unsyncopated1,s12,19.0,feminino,left,España,"Español, catalán",Upper secondary,no,no,A,1,conjunction_syn,L4,syncopated,s1,r2,73,Online_conjL4_syn//d.pe.po31.444.1332.wav,ja,re,pe,nu,sil,de,po,ci,sil1,bo,sil2,['catch'],[1.2414999999999736],[1.2414999999999736],0.444,no_beat,0.7974999999999737,0.7974999999999737,"[""space""]",po,4,testConjL1Uns//time_viol.r1.s1.0.wav,4.0,conjunction_un,unsyncopated,a,s1,no_rule,time,L1,m,0.5213,3.0,1.0,0.3829,5.0,3.0,Español,0.0,Catalán,0.0,Inglés,3.0,Francés,13.0,Italiano,18.0,4.0,4.0,yes,yes,no,Canto,13,,,"He tenido múltiples interrupciones mientras hacía el experimento, especialmente en los dos últimos idiomas. ¡Gracias! ",70.0,yes
74,2023-10-09_12h16.53.811,Unsyncopated1,s12,19.0,feminino,left,España,"Español, catalán",Upper secondary,no,no,A,1,conjunction_syn,L4,syncopated,s2,r1,74,Online_conjL4_syn//d.pe.po30.444.0.wav,po,ru,pe,zi,sil,bu,ci,lo,sil1,re,sil2,['miss'],,,0.444,no_beat,,,,po,4,testConjL1Uns//r1.s1.1.wav,4.0,conjunction_un,unsyncopated,a,s1,rule,rule,L1,z,0.0907,5.0,1.0,0.7675,5.0,3.0,Español,0.0,Catalán,0.0,Inglés,3.0,Francés,13.0,Italiano,18.0,4.0,4.0,yes,yes,no,Canto,13,,,"He tenido múltiples interrupciones mientras hacía el experimento, especialmente en los dos últimos idiomas. ¡Gracias! ",70.0,yes
75,2023-10-09_12h16.53.811,Unsyncopated1,s12,19.0,feminino,left,España,"Español, catalán",Upper secondary,no,no,A,1,conjunction_syn,L4,syncopated,s1,r2,75,Online_conjL4_syn//d.pe.po28.none.none.wav,ja,ru,ña,nu,sil,re,bu,da,sil1,ci,sil2,['-'],,,none,none,,,,po,4,testConjL1Uns//cat_viol.r1.s1.0.wav,4.0,conjunction_un,unsyncopated,a,s1,no_rule,cat,L1,z,0.9737,5.0,0.0,0.3027,5.0,3.0,Español,0.0,Catalán,0.0,Inglés,3.0,Francés,13.0,Italiano,18.0,4.0,4.0,yes,yes,no,Canto,13,,,"He tenido múltiples interrupciones mientras hacía el experimento, especialmente en los dos últimos idiomas. ¡Gracias! ",70.0,yes
76,2023-10-09_12h16.53.811,Unsyncopated1,s12,19.0,feminino,left,España,"Español, catalán",Upper secondary,no,no,A,1,conjunction_syn,L4,syncopated,s1,r1,76,Online_conjL4_syn//b.ja.nu25.none.none.wav,zi,pe,da,lo,sil,re,po,bo,sil1,ci,sil2,['-'],,,none,none,,,,nu,1,testConjL1Uns//r1.s1.2.wav,4.0,conjunction_un,unsyncopated,a,s1,rule,rule,L1,m,0.5539,4.0,0.0,0.2699,5.0,3.0,Español,0.0,Catalán,0.0,Inglés,3.0,Francés,13.0,Italiano,18.0,4.0,4.0,yes,yes,no,Canto,13,,,"He tenido múltiples interrupciones mientras hacía el experimento, especialmente en los dos últimos idiomas. ¡Gracias! ",70.0,yes
77,2023-10-09_12h16.53.811,Unsyncopated1,s12,19.0,feminino,left,España,"Español, catalán",Upper secondary,no,no,A,1,conjunction_syn,L4,syncopated,s2,r1,77,Online_conjL4_syn//b.ja.nu24.none.none.wav,bo,ñi,re,zi,sil,pe,ci,lo,sil1,de,sil2,['-'],,,none,none,,,,nu,1,testConjL1Uns//r1.s2.0.wav,4.0,conjunction_un,unsyncopated,a,s2,rule,rule,L1,z,0.9224,5.0,1.0,0.4536,5.0,3.0,Español,0.0,Catalán,0.0,Inglés,3.0,Francés,13.0,Italiano,18.0,4.0,4.0,yes,yes,no,Canto,13,,,"He tenido múltiples interrupciones mientras hacía el experimento, especialmente en los dos últimos idiomas. ¡Gracias! ",70.0,yes
78,2023-10-09_12h16.53.811,Unsyncopated1,s12,19.0,feminino,left,España,"Español, catalán",Upper secondary,no,no,A,1,conjunction_syn,L4,syncopated,s2,r2,78,Online_conjL4_syn//b.ja.nu27.666.1554.wav,ña,po,re,ja,sil,de,bo,nu,sil1,ci,sil2,['catch'],[0.7422000000002527],[0.7422000000002527],0.666,no_beat,0.0762000000002526,0.0762000000002526,"[""space""]",nu,1,testConjL1Uns//r2.s1.0.wav,4.0,conjunction_un,unsyncopated,b,s1,rule,rule,L1,z,0.8189,6.0,1.0,0.9372,5.0,3.0,Español,0.0,Catalán,0.0,Inglés,3.0,Francés,13.0,Italiano,18.0,4.0,4.0,yes,yes,no,Canto,13,,,"He tenido múltiples interrupciones mientras hacía el experimento, especialmente en los dos últimos idiomas. ¡Gracias! ",70.0,yes
79,2023-10-09_12h16.53.811,Unsyncopated1,s12,19.0,feminino,left,España,"Español, catalán",Upper secondary,no,no,A,1,conjunction_syn,L4,syncopated,s2,r2,79,Online_conjL4_syn//b.ja.nu26.666.1554.wav,pe,bu,ña,ja,sil,po,ru,nu,sil1,bo,sil2,['miss'],,,0.666,no_beat,,,,nu,1,testConjL1Uns//dep_viol.r2.s2.0.wav,4.0,conjunction_un,unsyncopated,b,s2,no_rule,dep,L1,m,0.3043,4.0,1.0,0.9313,5.0,3.0,Español,0.0,Catalán,0.0,Inglés,3.0,Francés,13.0,Italiano,18.0,4.0,4.0,yes,yes,no,Canto,13,,,"He tenido múltiples interrupciones mientras hacía el experimento, especialmente en los dos últimos idiomas. ¡Gracias! ",70.0,yes
80,2023-10-09_12h16.53.811,Unsyncopated1,s12,19.0,feminino,left,España,"Español, catalán",Upper secondary,no,no,A,1,conjunction_syn,L4,syncopated,s2,r1,80,Online_conjL4_syn//b.ja.nu16.none.none.wav,da,ru,bo,zi,sil,re,pe,lo,sil1,bu,sil2,['-'],,,none,none,,,,nu,1,testConjL1Uns//time_viol.r2.s1.0.wav,4.0,conjunction_un,unsyncopated,b,s1,no_rule,time,L1,m,0.8841,3.0,1.0,1.0137,5.0,3.0,Español,0.0,Catalán,0.0,Inglés,3.0,Francés,13.0,Italiano,18.0,4.0,4.0,yes,yes,no,Canto,13,,,"He tenido múltiples interrupciones mientras hacía el experimento, especialmente en los dos últimos idiomas. ¡Gracias! ",70.0,yes
81,2023-10-09_12h16.53.811,Unsyncopated1,s12,19.0,feminino,left,España,"Español, catalán",Upper secondary,no,no,A,1,conjunction_syn,L4,syncopated,s1,r2,81,Online_conjL4_syn//b.ja.nu19.0.666.wav,ja,ña,po,nu,sil,ñi,ru,re,sil1,da,sil2,['catch'],[0.9393000000001166],[0.9393000000001166],0.0,beat,0.9393000000001166,0.9393000000001166,"[""space""]",nu,1,testConjL1Uns//dep_viol.r2.s1.0.wav,4.0,conjunction_un,unsyncopated,b,s1,no_rule,dep,L1,z,0.2355,5.0,0.0,0.3675,5.0,3.0,Español,0.0,Catalán,0.0,Inglés,3.0,Francés,13.0,Italiano,18.0,4.0,4.0,yes,yes,no,Canto,13,,,"He tenido múltiples interrupciones mientras hacía el experimento, especialmente en los dos últimos idiomas. ¡Gracias! ",70.0,yes
82,2023-10-09_12h16.53.811,Unsyncopated1,s12,19.0,feminino,left,España,"Español, catalán",Upper secondary,no,no,A,1,conjunction_syn,L4,syncopated,s2,r2,82,Online_conjL4_syn//b.ja.nu18.666.1554.wav,ru,pe,po,ja,sil,bu,bo,nu,sil1,da,sil2,['miss'],,,0.666,no_beat,,,,nu,1,testConjL1Uns//cat_viol.r2.s2.0.wav,4.0,conjunction_un,unsyncopated,b,s2,no_rule,cat,L1,z,0.8191,5.0,0.0,0.5563,5.0,3.0,Español,0.0,Catalán,0.0,Inglés,3.0,Francés,13.0,Italiano,18.0,4.0,4.0,yes,yes,no,Canto,13,,,"He tenido múltiples interrupciones mientras hacía el experimento, especialmente en los dos últimos idiomas. ¡Gracias! ",70.0,yes
83,2023-10-09_12h16.53.811,Unsyncopated1,s12,19.0,feminino,left,España,"Español, catalán",Upper secondary,no,no,A,1,conjunction_syn,L4,syncopated,s2,r1,83,Online_conjL4_syn//b.ja.nu17.none.none.wav,ci,ru,de,zi,sil,bo,po,lo,sil1,bu,sil2,['-'],,,none,none,,,,nu,1,testConjL1Uns//r2.s1.1.wav,4.0,conjunction_un,unsyncopated,b,s1,rule,rule,L1,m,0.3034,4.0,0.0,0.4016,5.0,3.0,Español,0.0,Catalán,0.0,Inglés,3.0,Francés,13.0,Italiano,18.0,4.0,4.0,yes,yes,no,Canto,13,,,"He tenido múltiples interrupciones mientras hacía el experimento, especialmente en los dos últimos idiomas. ¡Gracias! ",70.0,yes
84,2023-10-09_12h16.53.811,Unsyncopated1,s12,19.0,feminino,left,España,"Español, catalán",Upper secondary,no,no,A,1,conjunction_syn,L4,syncopated,s1,r2,84,Online_conjL4_syn//b.ja.nu20.0.666.wav,ja,bu,po,nu,sil,da,ña,ru,sil1,ci,sil2,['catch'],[2.084199999999896],[2.084199999999896],0.0,beat,,2.084199999999896,"[""space""]",nu,1,testConjL1Uns//r1.s2.1.wav,4.0,conjunction_un,unsyncopated,a,s2,rule,rule,L1,m,0.2882,4.0,0.0,0.451,5.0,3.0,Español,0.0,Catalán,0.0,Inglés,3.0,Francés,13.0,Italiano,18.0,4.0,4.0,yes,yes,no,Canto,13,,,"He tenido múltiples interrupciones mientras hacía el experimento, especialmente en los dos últimos idiomas. ¡Gracias! ",70.0,yes
85,2023-10-09_12h16.53.811,Unsyncopated1,s12,19.0,feminino,left,España,"Español, catalán",Upper secondary,no,no,A,1,conjunction_syn,L4,syncopated,s1,r1,85,Online_conjL4_syn//b.ja.nu21.none.none.wav,zi,ñi,ru,lo,sil,da,ci,po,sil1,re,sil2,['-'],,,none,none,,,,nu,1,testConjL1Uns//r2.s2.1.wav,4.0,conjunction_un,unsyncopated,b,s2,rule,rule,L1,m,2.2837,5.0,0.0,0.3329,5.0,3.0,Español,0.0,Catalán,0.0,Inglés,3.0,Francés,13.0,Italiano,18.0,4.0,4.0,yes,yes,no,Canto,13,,,"He tenido múltiples interrupciones mientras hacía el experimento, especialmente en los dos últimos idiomas. ¡Gracias! ",70.0,yes
86,2023-10-09_12h16.53.811,Unsyncopated1,s12,19.0,feminino,left,España,"Español, catalán",Upper secondary,no,no,A,1,conjunction_syn,L4,syncopated,s1,r1,86,Online_conjL4_syn//b.ja.nu22.none.none.wav,zi,ñi,re,lo,sil,bu,po,pe,sil1,ña,sil2,['-'],,,none,none,,,,nu,1,testConjL1Uns//dep_viol.r1.s1.0.wav,4.0,conjunction_un,unsyncopated,a,s1,no_rule,dep,L1,z,3.884,4.0,0.0,1.3726,5.0,3.0,Español,0.0,Catalán,0.0,Inglés,3.0,Francés,13.0,Italiano,18.0,4.0,4.0,yes,yes,no,Canto,13,,,"He tenido múltiples interrupciones mientras hacía el experimento, especialmente en los dos últimos idiomas. ¡Gracias! ",70.0,yes
87,2023-10-09_12h16.53.811,Unsyncopated1,s12,19.0,feminino,left,España,"Español, catalán",Upper secondary,no,no,A,1,conjunction_syn,L4,syncopated,s1,r2,87,Online_conjL4_syn//b.ja.nu23.0.666.wav,ja,bu,da,nu,sil,po,ña,pe,sil1,ru,sil2,['catch'],[1.025899999999865],[1.025899999999865],0.0,beat,1.025899999999865,1.025899999999865,"[""space""]",nu,1,testConjL1Uns//r2.s1.2.wav,4.0,conjunction_un,unsyncopated,b,s1,rule,rule,L1,z,1.8768,5.0,1.0,0.3342,5.0,3.0,Español,0.0,Catalán,0.0,Inglés,3.0,Francés,13.0,Italiano,18.0,4.0,4.0,yes,yes,no,Canto,13,,,"He tenido múltiples interrupciones mientras hacía el experimento, especialmente en los dos últimos idiomas. ¡Gracias! ",70.0,yes
88,2023-10-09_12h16.53.811,Unsyncopated1,s12,19.0,feminino,left,España,"Español, catalán",Upper secondary,no,no,A,1,conjunction_syn,L4,syncopated,s2,r1,88,Online_conjL4_syn//d.pe.po2.none.none.wav,de,bo,da,zi,sil,ci,ñi,lo,sil1,ña,sil2,['false alarm'],[0.17419999999992797],[0.17419999999992797],none,none,,,"[""space""]",po,4,testConjL1Uns//r1.s2.2.wav,4.0,conjunction_un,unsyncopated,a,s2,rule,rule,L1,m,0.036,3.0,0.0,0.6006,5.0,3.0,Español,0.0,Catalán,0.0,Inglés,3.0,Francés,13.0,Italiano,18.0,4.0,4.0,yes,yes,no,Canto,13,,,"He tenido múltiples interrupciones mientras hacía el experimento, especialmente en los dos últimos idiomas. ¡Gracias! ",70.0,yes
89,2023-10-09_12h16.53.811,Unsyncopated1,s12,19.0,feminino,left,España,"Español, catalán",Upper secondary,no,no,A,1,conjunction_syn,L4,syncopated,s2,r2,89,Online_conjL4_syn//d.pe.po3.none.none.wav,re,ñi,ña,ja,sil,ci,da,nu,sil1,bo,sil2,['-'],,,none,none,,,,po,4,testConjL1Uns//dep_viol.r1.s2.0.wav,4.0,conjunction_un,unsyncopated,a,s2,no_rule,dep,L1,m,0.4364,4.0,1.0,0.8321,5.0,3.0,Español,0.0,Catalán,0.0,Inglés,3.0,Francés,13.0,Italiano,18.0,4.0,4.0,yes,yes,no,Canto,13,,,"He tenido múltiples interrupciones mientras hacía el experimento, especialmente en los dos últimos idiomas. ¡Gracias! ",70.0,yes
90,2023-10-09_12h16.53.811,Unsyncopated1,s12,19.0,feminino,left,España,"Español, catalán",Upper secondary,no,no,A,1,conjunction_syn,L4,syncopated,s2,r1,90,Online_conjL4_syn//d.pe.po0.none.none.wav,ci,ru,ña,zi,sil,de,bu,lo,sil1,da,sil2,['-'],,,none,none,,,,po,4,testConjL1Uns//r2.s2.2.wav,4.0,conjunction_un,unsyncopated,b,s2,rule,rule,L1,m,1.6575,4.0,0.0,0.3372,5.0,3.0,Español,0.0,Catalán,0.0,Inglés,3.0,Francés,13.0,Italiano,18.0,4.0,4.0,yes,yes,no,Canto,13,,,"He tenido múltiples interrupciones mientras hacía el experimento, especialmente en los dos últimos idiomas. ¡Gracias! ",70.0,yes
91,2023-10-09_12h16.53.811,Unsyncopated1,s12,19.0,feminino,left,España,"Español, catalán",Upper secondary,no,no,A,1,conjunction_syn,L4,syncopated,s2,r1,91,Online_conjL4_syn//d.pe.po1.1332.222.wav,ñi,po,da,zi,sil,bu,pe,lo,sil1,bo,sil2,['catch'],[2.0597999999999956],[2.0597999999999956],1.332,no_beat,0.7277999999999956,0.7277999999999956,"[""space""]",po,4,testConjL1Uns//cat_viol.r2.s1.0.wav,4.0,conjunction_un,unsyncopated,b,s1,no_rule,cat,L1,z,0.116,4.0,0.0,0.5865,5.0,3.0,Español,0.0,Catalán,0.0,Inglés,3.0,Francés,13.0,Italiano,18.0,4.0,4.0,yes,yes,no,Canto,13,,,"He tenido múltiples interrupciones mientras hacía el experimento, especialmente en los dos últimos idiomas. ¡Gracias! ",70.0,yes
92,2023-10-09_12h16.53.811,Unsyncopated1,s12,19.0,feminino,left,España,"Español, catalán",Upper secondary,no,no,A,1,conjunction_syn,L4,syncopated,s2,r1,92,Online_conjL4_syn//d.pe.po19.none.none.wav,da,de,ña,zi,sil,bo,ru,lo,sil1,ñi,sil2,['-'],,,none,none,,,,po,4,testConjL1Uns//cat_viol.r1.s2.0.wav,4.0,conjunction_un,unsyncopated,a,s2,no_rule,cat,L1,z,6.6612,5.0,0.0,2.2695,5.0,3.0,Español,0.0,Catalán,0.0,Inglés,3.0,Francés,13.0,Italiano,18.0,4.0,4.0,yes,yes,no,Canto,13,,,"He tenido múltiples interrupciones mientras hacía el experimento, especialmente en los dos últimos idiomas. ¡Gracias! ",70.0,yes
93,2023-10-09_12h16.53.811,Unsyncopated1,s12,19.0,feminino,left,España,"Español, catalán",Upper secondary,no,no,A,1,conjunction_syn,L4,syncopated,s2,r2,93,Online_conjL4_syn//d.pe.po17.222.444.wav,bo,pe,po,ja,sil,re,ci,nu,sil1,ru,sil2,['catch'],[2.0095000000000027],[2.0095000000000027],0.222,no_beat,,1.7875000000000028,"[""space""]",po,4,testConjL1Uns//time_viol.r2.s2.0.wav,4.0,conjunction_un,unsyncopated,b,s2,no_rule,time,L1,z,2.2462,4.0,0.0,0.486,5.0,3.0,Español,0.0,Catalán,0.0,Inglés,3.0,Francés,13.0,Italiano,18.0,4.0,4.0,yes,yes,no,Canto,13,,,"He tenido múltiples interrupciones mientras hacía el experimento, especialmente en los dos últimos idiomas. ¡Gracias! ",70.0,yes
94,2023-10-09_12h16.53.811,Unsyncopated1,s12,19.0,feminino,left,España,"Español, catalán",Upper secondary,no,no,A,1,conjunction_syn,L4,syncopated,s1,r1,94,Online_conjL4_syn//d.pe.po18.1554.1110.wav,zi,ña,da,lo,sil,po,bo,pe,sil1,ru,sil2,['catch'],[2.4245999999998276],[2.4245999999998276],1.554,no_beat,0.8705999999998275,0.8705999999998275,"[""space""]",po,4,testConjL1Uns//r2.s2.0.wav,4.0,conjunction_un,unsyncopated,b,s2,rule,rule,L1,m,3.3546,3.0,0.0,0.2859,5.0,3.0,Español,0.0,Catalán,0.0,Inglés,3.0,Francés,13.0,Italiano,18.0,4.0,4.0,yes,yes,no,Canto,13,,,"He tenido múltiples interrupciones mientras hacía el experimento, especialmente en los dos últimos idiomas. ¡Gracias! ",70.0,yes
95,2023-10-09_12h16.53.811,Unsyncopated1,s12,19.0,feminino,left,España,"Español, catalán",Upper secondary,no,no,A,1,conjunction_syn,L4,syncopated,s1,r2,95,Online_conjL4_syn//d.pe.po16.none.none.wav,ja,bo,ci,nu,sil,da,ru,re,sil1,de,sil2,['-'],,,none,none,,,,po,4,testConjL1Uns//r1.s1.0.wav,4.0,conjunction_un,unsyncopated,a,s1,rule,rule,L1,m,2.2845,3.0,0.0,0.3469,5.0,3.0,Español,0.0,Catalán,0.0,Inglés,3.0,Francés,13.0,Italiano,18.0,4.0,4.0,yes,yes,no,Canto,13,,,"He tenido múltiples interrupciones mientras hacía el experimento, especialmente en los dos últimos idiomas. ¡Gracias! ",70.0,yes
96,2023-10-09_12h16.53.811,Unsyncopated1,s12,19.0,feminino,left,España,"Español, catalán",Upper secondary,no,no,A,1,conjunction_syn,L4,syncopated,s1,r2,96,Online_conjL4_syn//c.bu.da0.none.none.wav,ja,bo,re,nu,sil,ñi,ña,pe,sil1,ci,sil2,['-'],,,none,none,,,,da,3,,,,,,,,,,,,,,,5.0,3.0,Español,0.0,Catalán,0.0,Inglés,3.0,Francés,13.0,Italiano,18.0,4.0,4.0,yes,yes,no,Canto,13,,,"He tenido múltiples interrupciones mientras hacía el experimento, especialmente en los dos últimos idiomas. ¡Gracias! ",70.0,yes
97,2023-10-09_12h16.53.811,Unsyncopated1,s12,19.0,feminino,left,España,"Español, catalán",Upper secondary,no,no,A,1,conjunction_syn,L4,syncopated,s2,r2,97,Online_conjL4_syn//c.bu.da2.0.222.wav,bu,da,ñi,ja,sil,pe,re,nu,sil1,bo,sil2,['catch'],[0.9919999999999618],[0.9919999999999618],0.0,beat,0.9919999999999618,0.9919999999999618,"[""space""]",da,3,,,,,,,,,,,,,,,5.0,3.0,Español,0.0,Catalán,0.0,Inglés,3.0,Francés,13.0,Italiano,18.0,4.0,4.0,yes,yes,no,Canto,13,,,"He tenido múltiples interrupciones mientras hacía el experimento, especialmente en los dos últimos idiomas. ¡Gracias! ",70.0,yes
98,2023-10-09_12h16.53.811,Unsyncopated1,s12,19.0,feminino,left,España,"Español, catalán",Upper secondary,no,no,A,1,conjunction_syn,L4,syncopated,s1,r2,98,Online_conjL4_syn//c.bu.da1.none.none.wav,ja,po,pe,nu,sil,ñi,ru,bo,sil1,ci,sil2,['-'],,,none,none,,,,da,3,,,,,,,,,,,,,,,5.0,3.0,Español,0.0,Catalán,0.0,Inglés,3.0,Francés,13.0,Italiano,18.0,4.0,4.0,yes,yes,no,Canto,13,,,"He tenido múltiples interrupciones mientras hacía el experimento, especialmente en los dos últimos idiomas. ¡Gracias! ",70.0,yes
99,2023-10-09_12h16.53.811,Unsyncopated1,s12,19.0,feminino,left,España,"Español, catalán",Upper secondary,no,no,A,1,conjunction_syn,L4,syncopated,s2,r2,99,Online_conjL4_syn//c.bu.da3.0.444.wav,bu,ci,da,ja,sil,pe,po,nu,sil1,bo,sil2,['catch'],[1.0091000000001031],[1.0091000000001031],0.0,beat,1.0091000000001031,1.0091000000001031,"[""space""]",da,3,,,,,,,,,,,,,,,5.0,3.0,Español,0.0,Catalán,0.0,Inglés,3.0,Francés,13.0,Italiano,18.0,4.0,4.0,yes,yes,no,Canto,13,,,"He tenido múltiples interrupciones mientras hacía el experimento, especialmente en los dos últimos idiomas. ¡Gracias! ",70.0,yes
100,2023-10-09_12h16.53.811,Unsyncopated1,s12,19.0,feminino,left,España,"Español, catalán",Upper secondary,no,no,A,1,conjunction_syn,L4,syncopated,s1,r1,100,Online_conjL4_syn//d.pe.po27.none.none.wav,zi,bo,ñi,lo,sil,ña,de,ci,sil1,ru,sil2,['-'],,,none,none,,,,po,4,,,,,,,,,,,,,,,5.0,3.0,Español,0.0,Catalán,0.0,Inglés,3.0,Francés,13.0,Italiano,18.0,4.0,4.0,yes,yes,no,Canto,13,,,"He tenido múltiples interrupciones mientras hacía el experimento, especialmente en los dos últimos idiomas. ¡Gracias! ",70.0,yes
101,2023-10-09_12h16.53.811,Unsyncopated1,s12,19.0,feminino,left,España,"Español, catalán",Upper secondary,no,no,A,1,conjunction_syn,L4,syncopated,s1,r1,101,Online_conjL4_syn//d.pe.po25.none.none.wav,zi,ña,ru,lo,sil,da,re,bu,sil1,ci,sil2,['-'],,,none,none,,,,po,4,,,,,,,,,,,,,,,5.0,3.0,Español,0.0,Catalán,0.0,Inglés,3.0,Francés,13.0,Italiano,18.0,4.0,4.0,yes,yes,no,Canto,13,,,"He tenido múltiples interrupciones mientras hacía el experimento, especialmente en los dos últimos idiomas. ¡Gracias! ",70.0,yes
102,2023-10-09_12h16.53.811,Unsyncopated1,s12,19.0,feminino,left,España,"Español, catalán",Upper secondary,no,no,A,1,conjunction_syn,L4,syncopated,s1,r2,102,Online_conjL4_syn//d.pe.po24.1332.222.wav,ja,po,ña,nu,sil,re,pe,ñi,sil1,ci,sil2,['miss'],,,1.332,no_beat,,,,po,4,,,,,,,,,,,,,,,5.0,3.0,Español,0.0,Catalán,0.0,Inglés,3.0,Francés,13.0,Italiano,18.0,4.0,4.0,yes,yes,no,Canto,13,,,"He tenido múltiples interrupciones mientras hacía el experimento, especialmente en los dos últimos idiomas. ¡Gracias! ",70.0,yes
103,2023-10-09_12h16.53.811,Unsyncopated1,s12,19.0,feminino,left,España,"Español, catalán",Upper secondary,no,no,A,1,conjunction_syn,L4,syncopated,s1,r1,103,Online_conjL4_syn//d.pe.po26.none.none.wav,zi,bo,ci,lo,sil,de,ña,da,sil1,ru,sil2,['-'],,,none,none,,,,po,4,,,,,,,,,,,,,,,5.0,3.0,Español,0.0,Catalán,0.0,Inglés,3.0,Francés,13.0,Italiano,18.0,4.0,4.0,yes,yes,no,Canto,13,,,"He tenido múltiples interrupciones mientras hacía el experimento, especialmente en los dos últimos idiomas. ¡Gracias! ",70.0,yes
104,2023-10-09_12h16.53.811,Unsyncopated1,s12,19.0,feminino,left,España,"Español, catalán",Upper secondary,no,no,A,1,conjunction_syn,L4,syncopated,s1,r1,104,Online_conjL4_syn//b.ja.nu7.none.none.wav,zi,po,pe,lo,sil,ci,bu,ñi,sil1,ru,sil2,['-'],,,none,none,,,,nu,1,,,,,,,,,,,,,,,5.0,3.0,Español,0.0,Catalán,0.0,Inglés,3.0,Francés,13.0,Italiano,18.0,4.0,4.0,yes,yes,no,Canto,13,,,"He tenido múltiples interrupciones mientras hacía el experimento, especialmente en los dos últimos idiomas. ¡Gracias! ",70.0,yes
105,2023-10-09_12h16.53.811,Unsyncopated1,s12,19.0,feminino,left,España,"Español, catalán",Upper secondary,no,no,A,1,conjunction_syn,L4,syncopated,s1,r1,105,Online_conjL4_syn//b.ja.nu5.none.none.wav,zi,bo,pe,lo,sil,po,re,da,sil1,ñi,sil2,['-'],,,none,none,,,,nu,1,,,,,,,,,,,,,,,5.0,3.0,Español,0.0,Catalán,0.0,Inglés,3.0,Francés,13.0,Italiano,18.0,4.0,4.0,yes,yes,no,Canto,13,,,"He tenido múltiples interrupciones mientras hacía el experimento, especialmente en los dos últimos idiomas. ¡Gracias! ",70.0,yes
106,2023-10-09_12h16.53.811,Unsyncopated1,s12,19.0,feminino,left,España,"Español, catalán",Upper secondary,no,no,A,1,conjunction_syn,L4,syncopated,s1,r2,106,Online_conjL4_syn//b.ja.nu4.0.666.wav,ja,re,ru,nu,sil,po,pe,da,sil1,ñi,sil2,['miss'],,,0.0,beat,,,,nu,1,,,,,,,,,,,,,,,5.0,3.0,Español,0.0,Catalán,0.0,Inglés,3.0,Francés,13.0,Italiano,18.0,4.0,4.0,yes,yes,no,Canto,13,,,"He tenido múltiples interrupciones mientras hacía el experimento, especialmente en los dos últimos idiomas. ¡Gracias! ",70.0,yes
107,2023-10-09_12h16.53.811,Unsyncopated1,s12,19.0,feminino,left,España,"Español, catalán",Upper secondary,no,no,A,1,conjunction_syn,L4,syncopated,s2,r1,107,Online_conjL4_syn//b.ja.nu6.none.none.wav,ña,po,ru,zi,sil,ñi,re,lo,sil1,bo,sil2,['false alarm'],[0.798799999999801],[0.798799999999801],none,none,,,"[""space""]",nu,1,,,,,,,,,,,,,,,5.0,3.0,Español,0.0,Catalán,0.0,Inglés,3.0,Francés,13.0,Italiano,18.0,4.0,4.0,yes,yes,no,Canto,13,,,"He tenido múltiples interrupciones mientras hacía el experimento, especialmente en los dos últimos idiomas. ¡Gracias! ",70.0,yes
108,2023-10-09_12h16.53.811,Unsyncopated1,s12,19.0,feminino,left,España,"Español, catalán",Upper secondary,no,no,A,1,conjunction_syn,L4,syncopated,s1,r2,108,Online_conjL4_syn//d.pe.po21.none.none.wav,ja,bo,bu,nu,sil,ci,ña,de,sil1,ru,sil2,['-'],,,none,none,,,,po,4,,,,,,,,,,,,,,,5.0,3.0,Español,0.0,Catalán,0.0,Inglés,3.0,Francés,13.0,Italiano,18.0,4.0,4.0,yes,yes,no,Canto,13,,,"He tenido múltiples interrupciones mientras hacía el experimento, especialmente en los dos últimos idiomas. ¡Gracias! ",70.0,yes
109,2023-10-09_12h16.53.811,Unsyncopated1,s12,19.0,feminino,left,España,"Español, catalán",Upper secondary,no,no,A,1,conjunction_syn,L4,syncopated,s2,r2,109,Online_conjL4_syn//d.pe.po22.444.1110.wav,de,ru,pe,ja,sil,po,re,nu,sil1,bo,sil2,['miss'],,,0.444,no_beat,,,,po,4,,,,,,,,,,,,,,,5.0,3.0,Español,0.0,Catalán,0.0,Inglés,3.0,Francés,13.0,Italiano,18.0,4.0,4.0,yes,yes,no,Canto,13,,,"He tenido múltiples interrupciones mientras hacía el experimento, especialmente en los dos últimos idiomas. ¡Gracias! ",70.0,yes
110,2023-10-09_12h16.53.811,Unsyncopated1,s12,19.0,feminino,left,España,"Español, catalán",Upper secondary,no,no,A,1,conjunction_syn,L4,syncopated,s1,r1,110,Online_conjL4_syn//d.pe.po23.none.none.wav,zi,bo,da,lo,sil,de,ña,ñi,sil1,ru,sil2,['-'],,,none,none,,,,po,4,,,,,,,,,,,,,,,5.0,3.0,Español,0.0,Catalán,0.0,Inglés,3.0,Francés,13.0,Italiano,18.0,4.0,4.0,yes,yes,no,Canto,13,,,"He tenido múltiples interrupciones mientras hacía el experimento, especialmente en los dos últimos idiomas. ¡Gracias! ",70.0,yes
111,2023-10-09_12h16.53.811,Unsyncopated1,s12,19.0,feminino,left,España,"Español, catalán",Upper secondary,no,no,A,1,conjunction_syn,L4,syncopated,s1,r1,111,Online_conjL4_syn//d.pe.po20.1332.444.wav,zi,ru,po,lo,sil,bo,pe,de,sil1,da,sil2,['miss'],,,1.332,no_beat,,,,po,4,,,,,,,,,,,,,,,5.0,3.0,Español,0.0,Catalán,0.0,Inglés,3.0,Francés,13.0,Italiano,18.0,4.0,4.0,yes,yes,no,Canto,13,,,"He tenido múltiples interrupciones mientras hacía el experimento, especialmente en los dos últimos idiomas. ¡Gracias! ",70.0,yes
112,2023-10-09_12h16.53.811,Unsyncopated1,s12,19.0,feminino,left,España,"Español, catalán",Upper secondary,no,no,A,1,conjunction_syn,L4,syncopated,s1,r2,112,Online_conjL4_syn//a.zi.lo1.none.none.wav,ja,re,ru,nu,sil,de,da,bu,sil1,ñi,sil2,['-'],,,none,none,,,,zi,2,,,,,,,,,,,,,,,5.0,3.0,Español,0.0,Catalán,0.0,Inglés,3.0,Francés,13.0,Italiano,18.0,4.0,4.0,yes,yes,no,Canto,13,,,"He tenido múltiples interrupciones mientras hacía el experimento, especialmente en los dos últimos idiomas. ¡Gracias! ",70.0,yes
113,2023-10-09_12h16.53.811,Unsyncopated1,s12,19.0,feminino,left,España,"Español, catalán",Upper secondary,no,no,A,1,conjunction_syn,L4,syncopated,s2,r2,113,Online_conjL4_syn//a.zi.lo3.none.none.wav,po,ci,pe,ja,sil,re,bo,nu,sil1,ña,sil2,['-'],,,none,none,,,,zi,2,,,,,,,,,,,,,,,5.0,3.0,Español,0.0,Catalán,0.0,Inglés,3.0,Francés,13.0,Italiano,18.0,4.0,4.0,yes,yes,no,Canto,13,,,"He tenido múltiples interrupciones mientras hacía el experimento, especialmente en los dos últimos idiomas. ¡Gracias! ",70.0,yes
114,2023-10-09_12h16.53.811,Unsyncopated1,s12,19.0,feminino,left,España,"Español, catalán",Upper secondary,no,no,A,1,conjunction_syn,L4,syncopated,s2,r2,114,Online_conjL4_syn//a.zi.lo0.none.none.wav,bu,bo,po,ja,sil,de,ñi,nu,sil1,re,sil2,['-'],,,none,none,,,,zi,2,,,,,,,,,,,,,,,5.0,3.0,Español,0.0,Catalán,0.0,Inglés,3.0,Francés,13.0,Italiano,18.0,4.0,4.0,yes,yes,no,Canto,13,,,"He tenido múltiples interrupciones mientras hacía el experimento, especialmente en los dos últimos idiomas. ¡Gracias! ",70.0,yes
115,2023-10-09_12h16.53.811,Unsyncopated1,s12,19.0,feminino,left,España,"Español, catalán",Upper secondary,no,no,A,1,conjunction_syn,L4,syncopated,s1,r1,115,Online_conjL4_syn//a.zi.lo2.0.666.wav,zi,ñi,re,lo,sil,bu,ci,bo,sil1,ña,sil2,['catch'],[1.9959000000001197],[1.9959000000001197],0.666,no_beat,,1.3299000000001198,"[""space""]",zi,2,,,,,,,,,,,,,,,5.0,3.0,Español,0.0,Catalán,0.0,Inglés,3.0,Francés,13.0,Italiano,18.0,4.0,4.0,yes,yes,no,Canto,13,,,"He tenido múltiples interrupciones mientras hacía el experimento, especialmente en los dos últimos idiomas. ¡Gracias! ",70.0,yes
116,2023-10-09_12h16.53.811,Unsyncopated1,s12,19.0,feminino,left,España,"Español, catalán",Upper secondary,no,no,A,1,conjunction_syn,L4,syncopated,s1,r1,116,Online_conjL4_syn//c.bu.da24.none.none.wav,zi,po,pe,lo,sil,ñi,ci,ru,sil1,re,sil2,['-'],,,none,none,,,,da,3,,,,,,,,,,,,,,,5.0,3.0,Español,0.0,Catalán,0.0,Inglés,3.0,Francés,13.0,Italiano,18.0,4.0,4.0,yes,yes,no,Canto,13,,,"He tenido múltiples interrupciones mientras hacía el experimento, especialmente en los dos últimos idiomas. ¡Gracias! ",70.0,yes
117,2023-10-09_12h16.53.811,Unsyncopated1,s12,19.0,feminino,left,España,"Español, catalán",Upper secondary,no,no,A,1,conjunction_syn,L4,syncopated,s2,r1,117,Online_conjL4_syn//c.bu.da26.1110.222.wav,ñi,da,de,zi,sil,bu,pe,lo,sil1,bo,sil2,['miss'],,,1.11,no_beat,,,,da,3,,,,,,,,,,,,,,,5.0,3.0,Español,0.0,Catalán,0.0,Inglés,3.0,Francés,13.0,Italiano,18.0,4.0,4.0,yes,yes,no,Canto,13,,,"He tenido múltiples interrupciones mientras hacía el experimento, especialmente en los dos últimos idiomas. ¡Gracias! ",70.0,yes
118,2023-10-09_12h16.53.811,Unsyncopated1,s12,19.0,feminino,left,España,"Español, catalán",Upper secondary,no,no,A,1,conjunction_syn,L4,syncopated,s1,r2,118,Online_conjL4_syn//c.bu.da25.1110.222.wav,ja,da,re,nu,sil,bu,ru,po,sil1,bo,sil2,"['false alarm', 'catch']","[0.2887999999998101, 2.10550000000012]",[2.10550000000012],1.11,no_beat,0.99550000000012,0.99550000000012,"[""space"",""space""]",da,3,,,,,,,,,,,,,,,5.0,3.0,Español,0.0,Catalán,0.0,Inglés,3.0,Francés,13.0,Italiano,18.0,4.0,4.0,yes,yes,no,Canto,13,,,"He tenido múltiples interrupciones mientras hacía el experimento, especialmente en los dos últimos idiomas. ¡Gracias! ",70.0,yes
119,2023-10-09_12h16.53.811,Unsyncopated1,s12,19.0,feminino,left,España,"Español, catalán",Upper secondary,no,no,A,1,conjunction_syn,L4,syncopated,s1,r2,119,Online_conjL4_syn//c.bu.da27.222.1110.wav,ja,bu,re,nu,sil,da,bo,ru,sil1,ci,sil2,['miss'],,,0.222,no_beat,,,,da,3,,,,,,,,,,,,,,,5.0,3.0,Español,0.0,Catalán,0.0,Inglés,3.0,Francés,13.0,Italiano,18.0,4.0,4.0,yes,yes,no,Canto,13,,,"He tenido múltiples interrupciones mientras hacía el experimento, especialmente en los dos últimos idiomas. ¡Gracias! ",70.0,yes
120,2023-10-09_12h16.53.811,Unsyncopated1,s12,19.0,feminino,left,España,"Español, catalán",Upper secondary,no,no,A,1,conjunction_syn,L4,syncopated,s1,r2,120,Online_conjL4_syn//a.zi.lo12.none.none.wav,ja,ci,ña,nu,sil,bu,bo,de,sil1,re,sil2,['-'],,,none,none,,,,zi,2,,,,,,,,,,,,,,,5.0,3.0,Español,0.0,Catalán,0.0,Inglés,3.0,Francés,13.0,Italiano,18.0,4.0,4.0,yes,yes,no,Canto,13,,,"He tenido múltiples interrupciones mientras hacía el experimento, especialmente en los dos últimos idiomas. ¡Gracias! ",70.0,yes
121,2023-10-09_12h16.53.811,Unsyncopated1,s12,19.0,feminino,left,España,"Español, catalán",Upper secondary,no,no,A,1,conjunction_syn,L4,syncopated,s2,r1,121,Online_conjL4_syn//a.zi.lo14.666.1554.wav,ci,bo,pe,zi,sil,re,bu,lo,sil1,da,sil2,['catch'],[2.0619000000001506],[2.0619000000001506],1.554,no_beat,0.5079000000001506,0.5079000000001506,"[""space""]",zi,2,,,,,,,,,,,,,,,5.0,3.0,Español,0.0,Catalán,0.0,Inglés,3.0,Francés,13.0,Italiano,18.0,4.0,4.0,yes,yes,no,Canto,13,,,"He tenido múltiples interrupciones mientras hacía el experimento, especialmente en los dos últimos idiomas. ¡Gracias! ",70.0,yes
122,2023-10-09_12h16.53.811,Unsyncopated1,s12,19.0,feminino,left,España,"Español, catalán",Upper secondary,no,no,A,1,conjunction_syn,L4,syncopated,s1,r1,122,Online_conjL4_syn//a.zi.lo15.0.666.wav,zi,pe,ci,lo,sil,bo,po,ña,sil1,da,sil2,['catch'],[1.6942999999998847],[1.6942999999998847],0.666,no_beat,1.0282999999998848,1.0282999999998848,"[""space""]",zi,2,,,,,,,,,,,,,,,5.0,3.0,Español,0.0,Catalán,0.0,Inglés,3.0,Francés,13.0,Italiano,18.0,4.0,4.0,yes,yes,no,Canto,13,,,"He tenido múltiples interrupciones mientras hacía el experimento, especialmente en los dos últimos idiomas. ¡Gracias! ",70.0,yes
123,2023-10-09_12h16.53.811,Unsyncopated1,s12,19.0,feminino,left,España,"Español, catalán",Upper secondary,no,no,A,1,conjunction_syn,L4,syncopated,s2,r2,123,Online_conjL4_syn//a.zi.lo13.none.none.wav,pe,de,ña,ja,sil,ci,ru,nu,sil1,po,sil2,['-'],,,none,none,,,,zi,2,,,,,,,,,,,,,,,5.0,3.0,Español,0.0,Catalán,0.0,Inglés,3.0,Francés,13.0,Italiano,18.0,4.0,4.0,yes,yes,no,Canto,13,,,"He tenido múltiples interrupciones mientras hacía el experimento, especialmente en los dos últimos idiomas. ¡Gracias! ",70.0,yes
124,2023-10-09_12h16.53.811,Unsyncopated1,s12,19.0,feminino,left,España,"Español, catalán",Upper secondary,no,no,A,1,conjunction_syn,L4,syncopated,s1,r2,124,Online_conjL4_syn//a.zi.lo20.none.none.wav,ja,ru,po,nu,sil,ña,re,da,sil1,de,sil2,['-'],,,none,none,,,,zi,2,,,,,,,,,,,,,,,5.0,3.0,Español,0.0,Catalán,0.0,Inglés,3.0,Francés,13.0,Italiano,18.0,4.0,4.0,yes,yes,no,Canto,13,,,"He tenido múltiples interrupciones mientras hacía el experimento, especialmente en los dos últimos idiomas. ¡Gracias! ",70.0,yes
125,2023-10-09_12h16.53.811,Unsyncopated1,s12,19.0,feminino,left,España,"Español, catalán",Upper secondary,no,no,A,1,conjunction_syn,L4,syncopated,s2,r1,125,Online_conjL4_syn//a.zi.lo21.666.1554.wav,ñi,bo,ru,zi,sil,pe,ña,lo,sil1,de,sil2,['catch'],[2.2105000000001382],[2.2105000000001382],1.554,no_beat,0.6565000000001382,0.6565000000001382,"[""space""]",zi,2,,,,,,,,,,,,,,,5.0,3.0,Español,0.0,Catalán,0.0,Inglés,3.0,Francés,13.0,Italiano,18.0,4.0,4.0,yes,yes,no,Canto,13,,,"He tenido múltiples interrupciones mientras hacía el experimento, especialmente en los dos últimos idiomas. ¡Gracias! ",70.0,yes
126,2023-10-09_12h16.53.811,Unsyncopated1,s12,19.0,feminino,left,España,"Español, catalán",Upper secondary,no,no,A,1,conjunction_syn,L4,syncopated,s2,r1,126,Online_conjL4_syn//a.zi.lo22.666.1554.wav,po,bo,pe,zi,sil,re,bu,lo,sil1,da,sil2,['miss'],,,1.554,no_beat,,,,zi,2,,,,,,,,,,,,,,,5.0,3.0,Español,0.0,Catalán,0.0,Inglés,3.0,Francés,13.0,Italiano,18.0,4.0,4.0,yes,yes,no,Canto,13,,,"He tenido múltiples interrupciones mientras hacía el experimento, especialmente en los dos últimos idiomas. ¡Gracias! ",70.0,yes
127,2023-10-09_12h16.53.811,Unsyncopated1,s12,19.0,feminino,left,España,"Español, catalán",Upper secondary,no,no,A,1,conjunction_syn,L4,syncopated,s2,r2,127,Online_conjL4_syn//a.zi.lo23.none.none.wav,da,ci,po,ja,sil,ñi,pe,nu,sil1,bo,sil2,['false alarm'],[0.262599999999793],[0.262599999999793],none,none,,,"[""space""]",zi,2,,,,,,,,,,,,,,,5.0,3.0,Español,0.0,Catalán,0.0,Inglés,3.0,Francés,13.0,Italiano,18.0,4.0,4.0,yes,yes,no,Canto,13,,,"He tenido múltiples interrupciones mientras hacía el experimento, especialmente en los dos últimos idiomas. ¡Gracias! ",70.0,yes
128,2023-10-09_12h16.53.811,Unsyncopated1,s12,19.0,feminino,left,España,"Español, catalán",Upper secondary,no,no,A,2,what,L2,unsyncopated,s2,r2,0,Online_whatL2//a.go.du27.none.none.wav,mi,cha,ba,sil,fe,bi,su,sil2,ra,ño,sil1,['-'],,,none,none,,,,go,2,,,,,,,,,,,,,,,5.0,3.0,Español,0.0,Catalán,0.0,Inglés,3.0,Francés,13.0,Italiano,18.0,4.0,4.0,yes,yes,no,Canto,13,,,"He tenido múltiples interrupciones mientras hacía el experimento, especialmente en los dos últimos idiomas. ¡Gracias! ",70.0,yes
129,2023-10-09_12h16.53.811,Unsyncopated1,s12,19.0,feminino,left,España,"Español, catalán",Upper secondary,no,no,A,2,what,L2,unsyncopated,s2,r2,1,Online_whatL2//a.go.du24.none.none.wav,me,cha,bi,sil,fe,ño,su,sil2,ra,to,sil1,['-'],,,none,none,,,,go,2,,,,,,,,,,,,,,,5.0,3.0,Español,0.0,Catalán,0.0,Inglés,3.0,Francés,13.0,Italiano,18.0,4.0,4.0,yes,yes,no,Canto,13,,,"He tenido múltiples interrupciones mientras hacía el experimento, especialmente en los dos últimos idiomas. ¡Gracias! ",70.0,yes
130,2023-10-09_12h16.53.811,Unsyncopated1,s12,19.0,feminino,left,España,"Español, catalán",Upper secondary,no,no,A,2,what,L2,unsyncopated,s1,r1,2,Online_whatL2//a.go.du25.0.888.wav,go,bi,ñu,sil,du,mi,si,sil2,su,cha,sil1,['catch'],[1.6949999999999363],[1.6949999999999363],0.888,beat,0.8069999999999363,0.8069999999999363,"[""space""]",go,2,,,,,,,,,,,,,,,5.0,3.0,Español,0.0,Catalán,0.0,Inglés,3.0,Francés,13.0,Italiano,18.0,4.0,4.0,yes,yes,no,Canto,13,,,"He tenido múltiples interrupciones mientras hacía el experimento, especialmente en los dos últimos idiomas. ¡Gracias! ",70.0,yes
131,2023-10-09_12h16.53.811,Unsyncopated1,s12,19.0,feminino,left,España,"Español, catalán",Upper secondary,no,no,A,2,what,L2,unsyncopated,s1,r2,3,Online_whatL2//a.go.du26.none.none.wav,fe,te,si,sil2,ra,ba,to,sil,su,bi,sil1,['-'],,,none,none,,,,go,2,,,,,,,,,,,,,,,5.0,3.0,Español,0.0,Catalán,0.0,Inglés,3.0,Francés,13.0,Italiano,18.0,4.0,4.0,yes,yes,no,Canto,13,,,"He tenido múltiples interrupciones mientras hacía el experimento, especialmente en los dos últimos idiomas. ¡Gracias! ",70.0,yes
132,2023-10-09_12h16.53.811,Unsyncopated1,s12,19.0,feminino,left,España,"Español, catalán",Upper secondary,no,no,A,2,what,L2,unsyncopated,s2,r2,4,Online_whatL2//b.fe.ra11.888.1776.wav,ño,me,su,sil,fe,bi,ñu,sil1,ra,ba,sil2,['catch'],[1.4827000000000226],[1.4827000000000226],0.888,beat,0.5947000000000225,0.5947000000000225,"[""space""]",ra,1,,,,,,,,,,,,,,,5.0,3.0,Español,0.0,Catalán,0.0,Inglés,3.0,Francés,13.0,Italiano,18.0,4.0,4.0,yes,yes,no,Canto,13,,,"He tenido múltiples interrupciones mientras hacía el experimento, especialmente en los dos últimos idiomas. ¡Gracias! ",70.0,yes
133,2023-10-09_12h16.53.811,Unsyncopated1,s12,19.0,feminino,left,España,"Español, catalán",Upper secondary,no,no,A,2,what,L2,unsyncopated,s1,r1,5,Online_whatL2//b.fe.ra9.none.none.wav,go,mi,bi,sil,du,to,te,sil1,ño,si,sil2,['-'],,,none,none,,,,ra,1,,,,,,,,,,,,,,,5.0,3.0,Español,0.0,Catalán,0.0,Inglés,3.0,Francés,13.0,Italiano,18.0,4.0,4.0,yes,yes,no,Canto,13,,,"He tenido múltiples interrupciones mientras hacía el experimento, especialmente en los dos últimos idiomas. ¡Gracias! ",70.0,yes
134,2023-10-09_12h16.53.811,Unsyncopated1,s12,19.0,feminino,left,España,"Español, catalán",Upper secondary,no,no,A,2,what,L2,unsyncopated,s1,r1,6,Online_whatL2//b.fe.ra10.none.none.wav,go,ñu,ño,sil,du,cha,mi,sil2,to,si,sil1,['-'],,,none,none,,,,ra,1,,,,,,,,,,,,,,,5.0,3.0,Español,0.0,Catalán,0.0,Inglés,3.0,Francés,13.0,Italiano,18.0,4.0,4.0,yes,yes,no,Canto,13,,,"He tenido múltiples interrupciones mientras hacía el experimento, especialmente en los dos últimos idiomas. ¡Gracias! ",70.0,yes
135,2023-10-09_12h16.53.811,Unsyncopated1,s12,19.0,feminino,left,España,"Español, catalán",Upper secondary,no,no,A,2,what,L2,unsyncopated,s2,r2,7,Online_whatL2//b.fe.ra8.1110.1998.wav,si,me,bi,sil2,fe,te,ba,sil,ra,mi,sil1,['catch'],[1.9570000000001073],[1.9570000000001073],1.11,no_beat,0.8470000000001072,0.8470000000001072,"[""space""]",ra,1,,,,,,,,,,,,,,,5.0,3.0,Español,0.0,Catalán,0.0,Inglés,3.0,Francés,13.0,Italiano,18.0,4.0,4.0,yes,yes,no,Canto,13,,,"He tenido múltiples interrupciones mientras hacía el experimento, especialmente en los dos últimos idiomas. ¡Gracias! ",70.0,yes
136,2023-10-09_12h16.53.811,Unsyncopated1,s12,19.0,feminino,left,España,"Español, catalán",Upper secondary,no,no,A,2,what,L2,unsyncopated,s1,r1,8,Online_whatL2//d.si.ñu21.none.none.wav,go,cha,ño,sil,du,su,bi,sil2,ba,te,sil1,['-'],,,none,none,,,,ñu,4,,,,,,,,,,,,,,,5.0,3.0,Español,0.0,Catalán,0.0,Inglés,3.0,Francés,13.0,Italiano,18.0,4.0,4.0,yes,yes,no,Canto,13,,,"He tenido múltiples interrupciones mientras hacía el experimento, especialmente en los dos últimos idiomas. ¡Gracias! ",70.0,yes
137,2023-10-09_12h16.53.811,Unsyncopated1,s12,19.0,feminino,left,España,"Español, catalán",Upper secondary,no,no,A,2,what,L2,unsyncopated,s2,r2,9,Online_whatL2//d.si.ñu23.none.none.wav,me,to,ño,sil2,fe,cha,su,sil,ra,mi,sil1,['-'],,,none,none,,,,ñu,4,,,,,,,,,,,,,,,5.0,3.0,Español,0.0,Catalán,0.0,Inglés,3.0,Francés,13.0,Italiano,18.0,4.0,4.0,yes,yes,no,Canto,13,,,"He tenido múltiples interrupciones mientras hacía el experimento, especialmente en los dos últimos idiomas. ¡Gracias! ",70.0,yes
138,2023-10-09_12h16.53.811,Unsyncopated1,s12,19.0,feminino,left,España,"Español, catalán",Upper secondary,no,no,A,2,what,L2,unsyncopated,s1,r2,10,Online_whatL2//d.si.ñu20.none.none.wav,fe,cha,me,sil2,ra,to,bi,sil,mi,ba,sil1,['-'],,,none,none,,,,ñu,4,,,,,,,,,,,,,,,5.0,3.0,Español,0.0,Catalán,0.0,Inglés,3.0,Francés,13.0,Italiano,18.0,4.0,4.0,yes,yes,no,Canto,13,,,"He tenido múltiples interrupciones mientras hacía el experimento, especialmente en los dos últimos idiomas. ¡Gracias! ",70.0,yes
139,2023-10-09_12h16.53.811,Unsyncopated1,s12,19.0,feminino,left,España,"Español, catalán",Upper secondary,no,no,A,2,what,L2,unsyncopated,s1,r2,11,Online_whatL2//d.si.ñu22.444.1332.wav,fe,to,si,sil,ra,bi,ñu,sil2,ba,me,sil1,['catch'],[1.1385999999999967],[1.1385999999999967],0.444,no_beat,0.6945999999999968,0.6945999999999968,"[""space""]",ñu,4,,,,,,,,,,,,,,,5.0,3.0,Español,0.0,Catalán,0.0,Inglés,3.0,Francés,13.0,Italiano,18.0,4.0,4.0,yes,yes,no,Canto,13,,,"He tenido múltiples interrupciones mientras hacía el experimento, especialmente en los dos últimos idiomas. ¡Gracias! ",70.0,yes
140,2023-10-09_12h16.53.811,Unsyncopated1,s12,19.0,feminino,left,España,"Español, catalán",Upper secondary,no,no,A,2,what,L2,unsyncopated,s2,r1,12,Online_whatL2//a.go.du22.888.1776.wav,me,ño,cha,sil,go,te,ñu,sil1,du,to,sil2,['catch'],[2.4342999999998938],[2.4342999999998938],1.776,beat,0.6582999999998937,0.6582999999998937,"[""space""]",go,2,,,,,,,,,,,,,,,5.0,3.0,Español,0.0,Catalán,0.0,Inglés,3.0,Francés,13.0,Italiano,18.0,4.0,4.0,yes,yes,no,Canto,13,,,"He tenido múltiples interrupciones mientras hacía el experimento, especialmente en los dos últimos idiomas. ¡Gracias! ",70.0,yes
141,2023-10-09_12h16.53.811,Unsyncopated1,s12,19.0,feminino,left,España,"Español, catalán",Upper secondary,no,no,A,2,what,L2,unsyncopated,s1,r2,13,Online_whatL2//a.go.du23.none.none.wav,fe,si,me,sil2,ra,mi,ba,sil,ño,ñu,sil1,['-'],,,none,none,,,,go,2,,,,,,,,,,,,,,,5.0,3.0,Español,0.0,Catalán,0.0,Inglés,3.0,Francés,13.0,Italiano,18.0,4.0,4.0,yes,yes,no,Canto,13,,,"He tenido múltiples interrupciones mientras hacía el experimento, especialmente en los dos últimos idiomas. ¡Gracias! ",70.0,yes
142,2023-10-09_12h16.53.811,Unsyncopated1,s12,19.0,feminino,left,España,"Español, catalán",Upper secondary,no,no,A,2,what,L2,unsyncopated,s2,r2,14,Online_whatL2//a.go.du20.none.none.wav,mi,ba,cha,sil,fe,to,ñu,sil1,ra,bi,sil2,['false alarm'],[2.010699999999815],[2.010699999999815],none,none,,,"[""space""]",go,2,,,,,,,,,,,,,,,5.0,3.0,Español,0.0,Catalán,0.0,Inglés,3.0,Francés,13.0,Italiano,18.0,4.0,4.0,yes,yes,no,Canto,13,,,"He tenido múltiples interrupciones mientras hacía el experimento, especialmente en los dos últimos idiomas. ¡Gracias! ",70.0,yes
143,2023-10-09_12h16.53.811,Unsyncopated1,s12,19.0,feminino,left,España,"Español, catalán",Upper secondary,no,no,A,2,what,L2,unsyncopated,s2,r2,15,Online_whatL2//a.go.du21.none.none.wav,ñu,ba,mi,sil,fe,cha,me,sil2,ra,bi,sil1,['-'],,,none,none,,,,go,2,,,,,,,,,,,,,,,5.0,3.0,Español,0.0,Catalán,0.0,Inglés,3.0,Francés,13.0,Italiano,18.0,4.0,4.0,yes,yes,no,Canto,13,,,"He tenido múltiples interrupciones mientras hacía el experimento, especialmente en los dos últimos idiomas. ¡Gracias! ",70.0,yes
144,2023-10-09_12h16.53.811,Unsyncopated1,s12,19.0,feminino,left,España,"Español, catalán",Upper secondary,no,no,A,2,what,L2,unsyncopated,s2,r1,16,Online_whatL2//c.cha.me26.444.1110.wav,mi,bi,cha,sil,go,me,ño,sil1,du,te,sil2,['catch'],[0.9900000000000091],[0.9900000000000091],0.444,no_beat,0.5460000000000091,0.5460000000000091,"[""space""]",me,3,,,,,,,,,,,,,,,5.0,3.0,Español,0.0,Catalán,0.0,Inglés,3.0,Francés,13.0,Italiano,18.0,4.0,4.0,yes,yes,no,Canto,13,,,"He tenido múltiples interrupciones mientras hacía el experimento, especialmente en los dos últimos idiomas. ¡Gracias! ",70.0,yes
145,2023-10-09_12h16.53.811,Unsyncopated1,s12,19.0,feminino,left,España,"Español, catalán",Upper secondary,no,no,A,2,what,L2,unsyncopated,s1,r2,17,Online_whatL2//c.cha.me25.none.none.wav,fe,te,mi,sil,ra,ñu,si,sil2,ba,bi,sil1,['-'],,,none,none,,,,me,3,,,,,,,,,,,,,,,5.0,3.0,Español,0.0,Catalán,0.0,Inglés,3.0,Francés,13.0,Italiano,18.0,4.0,4.0,yes,yes,no,Canto,13,,,"He tenido múltiples interrupciones mientras hacía el experimento, especialmente en los dos últimos idiomas. ¡Gracias! ",70.0,yes
146,2023-10-09_12h16.53.811,Unsyncopated1,s12,19.0,feminino,left,España,"Español, catalán",Upper secondary,no,no,A,2,what,L2,unsyncopated,s2,r1,18,Online_whatL2//c.cha.me24.0.444.wav,cha,te,me,sil,go,ba,ño,sil2,du,si,sil1,['catch'],[0.5233000000000629],[0.5233000000000629],0.0,beat,0.5233000000000629,0.5233000000000629,"[""space""]",me,3,,,,,,,,,,,,,,,5.0,3.0,Español,0.0,Catalán,0.0,Inglés,3.0,Francés,13.0,Italiano,18.0,4.0,4.0,yes,yes,no,Canto,13,,,"He tenido múltiples interrupciones mientras hacía el experimento, especialmente en los dos últimos idiomas. ¡Gracias! ",70.0,yes
147,2023-10-09_12h16.53.811,Unsyncopated1,s12,19.0,feminino,left,España,"Español, catalán",Upper secondary,no,no,A,2,what,L2,unsyncopated,s1,r2,19,Online_whatL2//c.cha.me27.none.none.wav,fe,si,ñu,sil2,ra,ño,ba,sil,te,bi,sil1,['-'],,,none,none,,,,me,3,,,,,,,,,,,,,,,5.0,3.0,Español,0.0,Catalán,0.0,Inglés,3.0,Francés,13.0,Italiano,18.0,4.0,4.0,yes,yes,no,Canto,13,,,"He tenido múltiples interrupciones mientras hacía el experimento, especialmente en los dos últimos idiomas. ¡Gracias! ",70.0,yes
148,2023-10-09_12h16.53.811,Unsyncopated1,s12,19.0,feminino,left,España,"Español, catalán",Upper secondary,no,no,A,2,what,L2,unsyncopated,s1,r2,20,Online_whatL2//a.go.du9.none.none.wav,fe,ba,to,sil2,ra,mi,ño,sil,si,ñu,sil1,['-'],,,none,none,,,,go,2,,,,,,,,,,,,,,,5.0,3.0,Español,0.0,Catalán,0.0,Inglés,3.0,Francés,13.0,Italiano,18.0,4.0,4.0,yes,yes,no,Canto,13,,,"He tenido múltiples interrupciones mientras hacía el experimento, especialmente en los dos últimos idiomas. ¡Gracias! ",70.0,yes
149,2023-10-09_12h16.53.811,Unsyncopated1,s12,19.0,feminino,left,España,"Español, catalán",Upper secondary,no,no,A,2,what,L2,unsyncopated,s1,r1,21,Online_whatL2//a.go.du8.0.888.wav,go,su,mi,sil,du,ñu,ño,sil1,to,si,sil2,['catch'],[1.5422000000000935],[1.5422000000000935],0.888,beat,0.6542000000000935,0.6542000000000935,"[""space""]",go,2,,,,,,,,,,,,,,,5.0,3.0,Español,0.0,Catalán,0.0,Inglés,3.0,Francés,13.0,Italiano,18.0,4.0,4.0,yes,yes,no,Canto,13,,,"He tenido múltiples interrupciones mientras hacía el experimento, especialmente en los dos últimos idiomas. ¡Gracias! ",70.0,yes
150,2023-10-09_12h16.53.811,Unsyncopated1,s12,19.0,feminino,left,España,"Español, catalán",Upper secondary,no,no,A,2,what,L2,unsyncopated,s2,r1,22,Online_whatL2//a.go.du11.1110.1998.wav,si,me,to,sil2,go,su,te,sil,du,mi,sil1,['miss'],,,1.998,no_beat,,,,go,2,,,,,,,,,,,,,,,5.0,3.0,Español,0.0,Catalán,0.0,Inglés,3.0,Francés,13.0,Italiano,18.0,4.0,4.0,yes,yes,no,Canto,13,,,"He tenido múltiples interrupciones mientras hacía el experimento, especialmente en los dos últimos idiomas. ¡Gracias! ",70.0,yes
151,2023-10-09_12h16.53.811,Unsyncopated1,s12,19.0,feminino,left,España,"Español, catalán",Upper secondary,no,no,A,2,what,L2,unsyncopated,s1,r1,23,Online_whatL2//a.go.du10.0.888.wav,go,to,ño,sil,du,si,ba,sil2,ñu,me,sil1,"['false alarm', 'catch']","[0.6123000000000047, 2.0815000000000055]",[2.0815000000000055],0.888,beat,1.1935000000000056,1.1935000000000056,"[""space"",""space""]",go,2,,,,,,,,,,,,,,,5.0,3.0,Español,0.0,Catalán,0.0,Inglés,3.0,Francés,13.0,Italiano,18.0,4.0,4.0,yes,yes,no,Canto,13,,,"He tenido múltiples interrupciones mientras hacía el experimento, especialmente en los dos últimos idiomas. ¡Gracias! ",70.0,yes
152,2023-10-09_12h16.53.811,Unsyncopated1,s12,19.0,feminino,left,España,"Español, catalán",Upper secondary,no,no,A,2,what,L2,unsyncopated,s2,r2,24,Online_whatL2//b.fe.ra3.1110.1998.wav,si,ño,me,sil2,fe,ñu,cha,sil,ra,bi,sil1,['miss'],,,1.11,no_beat,,,,ra,1,,,,,,,,,,,,,,,5.0,3.0,Español,0.0,Catalán,0.0,Inglés,3.0,Francés,13.0,Italiano,18.0,4.0,4.0,yes,yes,no,Canto,13,,,"He tenido múltiples interrupciones mientras hacía el experimento, especialmente en los dos últimos idiomas. ¡Gracias! ",70.0,yes
153,2023-10-09_12h16.53.811,Unsyncopated1,s12,19.0,feminino,left,España,"Español, catalán",Upper secondary,no,no,A,2,what,L2,unsyncopated,s1,r2,25,Online_whatL2//b.fe.ra1.0.1110.wav,fe,bi,ño,sil2,ra,ba,cha,sil,ñu,to,sil1,['miss'],,,0.0,beat,,,,ra,1,,,,,,,,,,,,,,,5.0,3.0,Español,0.0,Catalán,0.0,Inglés,3.0,Francés,13.0,Italiano,18.0,4.0,4.0,yes,yes,no,Canto,13,,,"He tenido múltiples interrupciones mientras hacía el experimento, especialmente en los dos últimos idiomas. ¡Gracias! ",70.0,yes
154,2023-10-09_12h16.53.811,Unsyncopated1,s12,19.0,feminino,left,España,"Español, catalán",Upper secondary,no,no,A,2,what,L2,unsyncopated,s1,r1,26,Online_whatL2//b.fe.ra2.none.none.wav,go,cha,mi,sil2,du,to,bi,sil,ño,ba,sil1,['-'],,,none,none,,,,ra,1,,,,,,,,,,,,,,,5.0,3.0,Español,0.0,Catalán,0.0,Inglés,3.0,Francés,13.0,Italiano,18.0,4.0,4.0,yes,yes,no,Canto,13,,,"He tenido múltiples interrupciones mientras hacía el experimento, especialmente en los dos últimos idiomas. ¡Gracias! ",70.0,yes
155,2023-10-09_12h16.53.811,Unsyncopated1,s12,19.0,feminino,left,España,"Español, catalán",Upper secondary,no,no,A,2,what,L2,unsyncopated,s1,r2,27,Online_whatL2//b.fe.ra0.0.1110.wav,fe,cha,ño,sil2,ra,te,me,sil,to,ñu,sil1,['catch'],[0.825800000000072],[0.825800000000072],0.0,beat,0.825800000000072,0.825800000000072,"[""space""]",ra,1,,,,,,,,,,,,,,,5.0,3.0,Español,0.0,Catalán,0.0,Inglés,3.0,Francés,13.0,Italiano,18.0,4.0,4.0,yes,yes,no,Canto,13,,,"He tenido múltiples interrupciones mientras hacía el experimento, especialmente en los dos últimos idiomas. ¡Gracias! ",70.0,yes
156,2023-10-09_12h16.53.811,Unsyncopated1,s12,19.0,feminino,left,España,"Español, catalán",Upper secondary,no,no,A,2,what,L2,unsyncopated,s2,r1,28,Online_whatL2//d.si.ñu0.0.444.wav,si,mi,ñu,sil,go,ba,te,sil2,du,to,sil1,['miss'],,,0.0,beat,,,,ñu,4,,,,,,,,,,,,,,,5.0,3.0,Español,0.0,Catalán,0.0,Inglés,3.0,Francés,13.0,Italiano,18.0,4.0,4.0,yes,yes,no,Canto,13,,,"He tenido múltiples interrupciones mientras hacía el experimento, especialmente en los dos últimos idiomas. ¡Gracias! ",70.0,yes
157,2023-10-09_12h16.53.811,Unsyncopated1,s12,19.0,feminino,left,España,"Español, catalán",Upper secondary,no,no,A,2,what,L2,unsyncopated,s2,r2,29,Online_whatL2//d.si.ñu1.none.none.wav,te,ño,bi,sil,fe,cha,to,sil1,ra,mi,sil2,['-'],,,none,none,,,,ñu,4,,,,,,,,,,,,,,,5.0,3.0,Español,0.0,Catalán,0.0,Inglés,3.0,Francés,13.0,Italiano,18.0,4.0,4.0,yes,yes,no,Canto,13,,,"He tenido múltiples interrupciones mientras hacía el experimento, especialmente en los dos últimos idiomas. ¡Gracias! ",70.0,yes
158,2023-10-09_12h16.53.811,Unsyncopated1,s12,19.0,feminino,left,España,"Español, catalán",Upper secondary,no,no,A,2,what,L2,unsyncopated,s2,r2,30,Online_whatL2//d.si.ñu3.0.444.wav,si,ba,ñu,sil2,fe,te,cha,sil,ra,ño,sil1,['catch'],[0.5759000000002743],[0.5759000000002743],0.0,beat,0.5759000000002743,0.5759000000002743,"[""space""]",ñu,4,,,,,,,,,,,,,,,5.0,3.0,Español,0.0,Catalán,0.0,Inglés,3.0,Francés,13.0,Italiano,18.0,4.0,4.0,yes,yes,no,Canto,13,,,"He tenido múltiples interrupciones mientras hacía el experimento, especialmente en los dos últimos idiomas. ¡Gracias! ",70.0,yes
159,2023-10-09_12h16.53.811,Unsyncopated1,s12,19.0,feminino,left,España,"Español, catalán",Upper secondary,no,no,A,2,what,L2,unsyncopated,s2,r1,31,Online_whatL2//d.si.ñu2.none.none.wav,mi,ño,ba,sil,go,te,cha,sil1,du,su,sil2,['-'],,,none,none,,,,ñu,4,,,,,,,,,,,,,,,5.0,3.0,Español,0.0,Catalán,0.0,Inglés,3.0,Francés,13.0,Italiano,18.0,4.0,4.0,yes,yes,no,Canto,13,,,"He tenido múltiples interrupciones mientras hacía el experimento, especialmente en los dos últimos idiomas. ¡Gracias! ",70.0,yes
160,2023-10-09_12h16.53.811,Unsyncopated1,s12,19.0,feminino,left,España,"Español, catalán",Upper secondary,no,no,A,2,what,L2,unsyncopated,s1,r1,32,Online_whatL2//d.si.ñu28.444.1554.wav,go,me,si,sil2,du,to,ñu,sil,te,mi,sil1,['catch'],[1.0224000000002889],[1.0224000000002889],0.444,no_beat,0.5784000000002889,0.5784000000002889,"[""space""]",ñu,4,,,,,,,,,,,,,,,5.0,3.0,Español,0.0,Catalán,0.0,Inglés,3.0,Francés,13.0,Italiano,18.0,4.0,4.0,yes,yes,no,Canto,13,,,"He tenido múltiples interrupciones mientras hacía el experimento, especialmente en los dos últimos idiomas. ¡Gracias! ",70.0,yes
161,2023-10-09_12h16.53.811,Unsyncopated1,s12,19.0,feminino,left,España,"Español, catalán",Upper secondary,no,no,A,2,what,L2,unsyncopated,s1,r2,33,Online_whatL2//d.si.ñu30.1332.222.wav,fe,ñu,te,sil2,ra,si,to,sil,bi,ba,sil1,['catch'],[1.942600000000084],[1.942600000000084],1.332,no_beat,0.610600000000084,0.610600000000084,"[""space""]",ñu,4,,,,,,,,,,,,,,,5.0,3.0,Español,0.0,Catalán,0.0,Inglés,3.0,Francés,13.0,Italiano,18.0,4.0,4.0,yes,yes,no,Canto,13,,,"He tenido múltiples interrupciones mientras hacía el experimento, especialmente en los dos últimos idiomas. ¡Gracias! ",70.0,yes
162,2023-10-09_12h16.53.811,Unsyncopated1,s12,19.0,feminino,left,España,"Español, catalán",Upper secondary,no,no,A,2,what,L2,unsyncopated,s1,r2,34,Online_whatL2//d.si.ñu29.222.1110.wav,fe,si,me,sil,ra,ñu,ño,sil2,mi,te,sil1,['catch'],[1.1747000000000298],[1.1747000000000298],0.222,no_beat,0.95270000000003,0.95270000000003,"[""space""]",ñu,4,,,,,,,,,,,,,,,5.0,3.0,Español,0.0,Catalán,0.0,Inglés,3.0,Francés,13.0,Italiano,18.0,4.0,4.0,yes,yes,no,Canto,13,,,"He tenido múltiples interrupciones mientras hacía el experimento, especialmente en los dos últimos idiomas. ¡Gracias! ",70.0,yes
163,2023-10-09_12h16.53.811,Unsyncopated1,s12,19.0,feminino,left,España,"Español, catalán",Upper secondary,no,no,A,2,what,L2,unsyncopated,s1,r2,35,Online_whatL2//d.si.ñu31.none.none.wav,fe,mi,ño,sil,ra,su,me,sil1,ba,te,sil2,['-'],,,none,none,,,,ñu,4,,,,,,,,,,,,,,,5.0,3.0,Español,0.0,Catalán,0.0,Inglés,3.0,Francés,13.0,Italiano,18.0,4.0,4.0,yes,yes,no,Canto,13,,,"He tenido múltiples interrupciones mientras hacía el experimento, especialmente en los dos últimos idiomas. ¡Gracias! ",70.0,yes
164,2023-10-09_12h16.53.811,Unsyncopated1,s12,19.0,feminino,left,España,"Español, catalán",Upper secondary,no,no,A,2,what,L2,unsyncopated,s2,r1,36,Online_whatL2//b.fe.ra20.none.none.wav,te,me,mi,sil,go,to,ñu,sil2,du,ba,sil1,['-'],,,none,none,,,,ra,1,,,,,,,,,,,,,,,5.0,3.0,Español,0.0,Catalán,0.0,Inglés,3.0,Francés,13.0,Italiano,18.0,4.0,4.0,yes,yes,no,Canto,13,,,"He tenido múltiples interrupciones mientras hacía el experimento, especialmente en los dos últimos idiomas. ¡Gracias! ",70.0,yes
165,2023-10-09_12h16.53.811,Unsyncopated1,s12,19.0,feminino,left,España,"Español, catalán",Upper secondary,no,no,A,2,what,L2,unsyncopated,s1,r2,37,Online_whatL2//b.fe.ra21.0.888.wav,fe,bi,su,sil,ra,to,te,sil1,ba,ñu,sil2,['miss'],,,0.0,beat,,,,ra,1,,,,,,,,,,,,,,,5.0,3.0,Español,0.0,Catalán,0.0,Inglés,3.0,Francés,13.0,Italiano,18.0,4.0,4.0,yes,yes,no,Canto,13,,,"He tenido múltiples interrupciones mientras hacía el experimento, especialmente en los dos últimos idiomas. ¡Gracias! ",70.0,yes
166,2023-10-09_12h16.53.811,Unsyncopated1,s12,19.0,feminino,left,España,"Español, catalán",Upper secondary,no,no,A,2,what,L2,unsyncopated,s2,r1,38,Online_whatL2//b.fe.ra23.none.none.wav,te,ñu,me,sil,go,cha,ño,sil1,du,bi,sil2,['-'],,,none,none,,,,ra,1,,,,,,,,,,,,,,,5.0,3.0,Español,0.0,Catalán,0.0,Inglés,3.0,Francés,13.0,Italiano,18.0,4.0,4.0,yes,yes,no,Canto,13,,,"He tenido múltiples interrupciones mientras hacía el experimento, especialmente en los dos últimos idiomas. ¡Gracias! ",70.0,yes
167,2023-10-09_12h16.53.811,Unsyncopated1,s12,19.0,feminino,left,España,"Español, catalán",Upper secondary,no,no,A,2,what,L2,unsyncopated,s2,r2,39,Online_whatL2//b.fe.ra22.888.1776.wav,ba,me,cha,sil,fe,su,ño,sil1,ra,to,sil2,['catch'],[1.9488000000001193],[1.9488000000001193],0.888,beat,1.0608000000001194,1.0608000000001194,"[""space""]",ra,1,,,,,,,,,,,,,,,5.0,3.0,Español,0.0,Catalán,0.0,Inglés,3.0,Francés,13.0,Italiano,18.0,4.0,4.0,yes,yes,no,Canto,13,,,"He tenido múltiples interrupciones mientras hacía el experimento, especialmente en los dos últimos idiomas. ¡Gracias! ",70.0,yes
