Unnamed: 0,date,expName,participant,age,sex,hand,residence,native_lang,education_level,lang_deficit,aud_deficit,group,block,condition,language,rhythm,rule structure online,rule type online,order_trial_on,trial_online,s1,s2,s3,s4,s5,s6,s7,s8,s9,s10,s11,catch_syll_resp,rts_syll_catch,clean_rts,time_syll,beat_no_beat,catch_rtsTR,catch_rts,syllable_catch.keys,cond_syll,syll_to_catch,test_offline,block_off,condition_off,rhythm_off,rule,rule_str_off,rule_norule,conds_offline,language_off,Partz_no_partm.keys,Partz_no_partm.rt,security_1_7.keys,accuracy,security_1_7.rt,n_lang,n_lang_used,lang_1,age_l1,lang_2,age_l2,lang_3,age_l3,lang_4,age_l4,ability_learn_l2,tendence_mix_lan,music_experience,muisc_use,partiture,instr_1,age_M1,instr_2,age_M2,instr_3,age_M3,preguntas_musica1,BMRQ_answer.response,final comment,BMRQ_Score,bilingual
0,2023-09-15_07h14.23.051,Unsyncopated1,s23,21.0,feminino,right,Espanya,Català (i castellà),Upper secondary,no,no,B,1,when,L3,unsyncopated,when,when,0,Online_whenL3//b.ñe6.444.wav,ga,ka,ñe,sil,mo,ji,li,sil1,do,fu,sil2,['catch'],[0.9272000000476055],[0.9272000000476055],0.444,no_beat,0.4832000000476055,0.4832000000476055,"[""space""]",ñe,2,testWhenL3Uns//r2.s1.1.wav,1.0,when,unsyncopated,b,s1,rule,rule,L3,z,3.0936,4.0,1.0,3.2716,4.0,2.0,Català,0.0,Castellà,0.0,Anglès,5.0,Italià,16.0,4.0,4.0,yes,no,yes,Cant,8,Piano,8,Guitarra,8,1. Cuando comparto música con alguien siento una complicidad especial con aquella persona.,3.0,"La fase 1 del primer lenguaje ha sido mucho más larga que las demás, cosa que al principio me ha confundido porque dejaba de sonar la voz de los otros lenguajes mucho antes. Eso me ha distraído un poco al principio pero luego he visto que formaba parte del propio experimento. Muchas gracias!",54.0,yes
1,2023-09-15_07h14.23.051,Unsyncopated1,s23,21.0,feminino,right,Espanya,Català (i castellà),Upper secondary,no,no,B,1,when,L3,unsyncopated,when,when,1,Online_whenL3//b.ñe7.1998.wav,ji,je,sa,sil,ka,ga,di,sil1,gu,ñe,sil2,['catch'],[2.5533999999761363],[2.5533999999761363],1.998,no_beat,0.5553999999761363,0.5553999999761363,"[""space""]",ñe,2,testWhenL3Uns//time_viol.r1.s2.0.wav,1.0,when,unsyncopated,a,s2,no_rule,time,L3,z,1.0565,6.0,1.0,3.77,4.0,2.0,Català,0.0,Castellà,0.0,Anglès,5.0,Italià,16.0,4.0,4.0,yes,no,yes,Cant,8,Piano,8,Guitarra,8,2. En mi tiempo libre apenas escucho música.,4.0,"La fase 1 del primer lenguaje ha sido mucho más larga que las demás, cosa que al principio me ha confundido porque dejaba de sonar la voz de los otros lenguajes mucho antes. Eso me ha distraído un poco al principio pero luego he visto que formaba parte del propio experimento. Muchas gracias!",54.0,yes
2,2023-09-15_07h14.23.051,Unsyncopated1,s23,21.0,feminino,right,Espanya,Català (i castellà),Upper secondary,no,no,B,1,when,L3,unsyncopated,when,when,2,Online_whenL3//b.ñe5.1110.wav,li,ko,je,sil,fu,ñe,gu,sil1,ga,sa,sil2,['catch'],[1.9571999999284344],[1.9571999999284344],1.11,no_beat,0.8471999999284343,0.8471999999284343,"[""space""]",ñe,2,testWhenL3Uns//dep_viol.r1.s2.0.wav,1.0,when,unsyncopated,a,s2,no_rule,dep,L3,m,2.3493,2.0,0.0,1.6624,4.0,2.0,Català,0.0,Castellà,0.0,Anglès,5.0,Italià,16.0,4.0,4.0,yes,no,yes,Cant,8,Piano,8,Guitarra,8,3. Algunas canciones me ponen los pelos de punta,4.0,"La fase 1 del primer lenguaje ha sido mucho más larga que las demás, cosa que al principio me ha confundido porque dejaba de sonar la voz de los otros lenguajes mucho antes. Eso me ha distraído un poco al principio pero luego he visto que formaba parte del propio experimento. Muchas gracias!",54.0,yes
3,2023-09-15_07h14.23.051,Unsyncopated1,s23,21.0,feminino,right,Espanya,Català (i castellà),Upper secondary,no,no,B,1,when,L3,unsyncopated,when,when,3,Online_whenL3//b.ñe4.1998.wav,ka,di,ga,sil,ko,gu,je,sil1,mo,ñe,sil2,['catch'],[2.459699999928489],[2.459699999928489],1.998,no_beat,0.461699999928489,0.461699999928489,"[""space""]",ñe,2,testWhenL3Uns//r1.s1.0.wav,1.0,when,unsyncopated,a,s1,rule,rule,L3,z,0.8834,5.0,1.0,1.1361,4.0,2.0,Català,0.0,Castellà,0.0,Anglès,5.0,Italià,16.0,4.0,4.0,yes,no,yes,Cant,8,Piano,8,Guitarra,8,4. La música me hace compañía cuando estoy solo,4.0,"La fase 1 del primer lenguaje ha sido mucho más larga que las demás, cosa que al principio me ha confundido porque dejaba de sonar la voz de los otros lenguajes mucho antes. Eso me ha distraído un poco al principio pero luego he visto que formaba parte del propio experimento. Muchas gracias!",54.0,yes
4,2023-09-15_07h14.23.051,Unsyncopated1,s23,21.0,feminino,right,Espanya,Català (i castellà),Upper secondary,no,no,B,1,when,L3,unsyncopated,when,when,4,Online_whenL3//c.gu11.1110.wav,do,mo,ñe,sil,ga,gu,li,sil1,di,le,sil2,['catch'],[1.5625999999045916],[1.5625999999045916],1.11,no_beat,0.4525999999045915,0.4525999999045915,"[""space""]",gu,3,testWhenL3Uns//r1.s1.1.wav,1.0,when,unsyncopated,a,s1,rule,rule,L3,m,2.8878,3.0,0.0,2.4023,4.0,2.0,Català,0.0,Castellà,0.0,Anglès,5.0,Italià,16.0,4.0,4.0,yes,no,yes,Cant,8,Piano,8,Guitarra,8,5. No me apetece bailar ni con la música que más me gusta,4.0,"La fase 1 del primer lenguaje ha sido mucho más larga que las demás, cosa que al principio me ha confundido porque dejaba de sonar la voz de los otros lenguajes mucho antes. Eso me ha distraído un poco al principio pero luego he visto que formaba parte del propio experimento. Muchas gracias!",54.0,yes
5,2023-09-15_07h14.23.051,Unsyncopated1,s23,21.0,feminino,right,Espanya,Català (i castellà),Upper secondary,no,no,B,1,when,L3,unsyncopated,when,when,5,Online_whenL3//c.gu10.none.wav,ji,je,mo,sil,li,do,le,sil1,ka,chu,sil2,['-'],,,none,none,,,,gu,3,testWhenL3Uns//r1.s2.0.wav,1.0,when,unsyncopated,a,s2,rule,rule,L3,z,0.6736,5.0,1.0,2.2462,4.0,2.0,Català,0.0,Castellà,0.0,Anglès,5.0,Italià,16.0,4.0,4.0,yes,no,yes,Cant,8,Piano,8,Guitarra,8,6. La música me hace conectar con la gente,4.0,"La fase 1 del primer lenguaje ha sido mucho más larga que las demás, cosa que al principio me ha confundido porque dejaba de sonar la voz de los otros lenguajes mucho antes. Eso me ha distraído un poco al principio pero luego he visto que formaba parte del propio experimento. Muchas gracias!",54.0,yes
6,2023-09-15_07h14.23.051,Unsyncopated1,s23,21.0,feminino,right,Espanya,Català (i castellà),Upper secondary,no,no,B,1,when,L3,unsyncopated,when,when,6,Online_whenL3//c.gu9.none.wav,di,ko,le,sil,sa,ji,li,sil1,ka,mo,sil2,['-'],,,none,none,,,,gu,3,testWhenL3Uns//r2.s2.1.wav,1.0,when,unsyncopated,b,s2,rule,rule,L3,z,0.6522,2.0,1.0,1.2836,4.0,2.0,Català,0.0,Castellà,0.0,Anglès,5.0,Italià,16.0,4.0,4.0,yes,no,yes,Cant,8,Piano,8,Guitarra,8,7. Me informo sobre la música que me gusta.,2.0,"La fase 1 del primer lenguaje ha sido mucho más larga que las demás, cosa que al principio me ha confundido porque dejaba de sonar la voz de los otros lenguajes mucho antes. Eso me ha distraído un poco al principio pero luego he visto que formaba parte del propio experimento. Muchas gracias!",54.0,yes
7,2023-09-15_07h14.23.051,Unsyncopated1,s23,21.0,feminino,right,Espanya,Català (i castellà),Upper secondary,no,no,B,1,when,L3,unsyncopated,when,when,7,Online_whenL3//c.gu8.1332.wav,ka,ñe,li,sil,ko,le,gu,sil1,sa,fu,sil2,['miss'],,,1.332,no_beat,,,,gu,3,testWhenL3Uns//cat_viol.r1.s2.0.wav,1.0,when,unsyncopated,a,s2,no_rule,cat,L3,z,0.6778,5.0,1.0,2.0838,4.0,2.0,Català,0.0,Castellà,0.0,Anglès,5.0,Italià,16.0,4.0,4.0,yes,no,yes,Cant,8,Piano,8,Guitarra,8,8.Me emociono escuchando ciertas canciones.,3.0,"La fase 1 del primer lenguaje ha sido mucho más larga que las demás, cosa que al principio me ha confundido porque dejaba de sonar la voz de los otros lenguajes mucho antes. Eso me ha distraído un poco al principio pero luego he visto que formaba parte del propio experimento. Muchas gracias!",54.0,yes
8,2023-09-15_07h14.23.051,Unsyncopated1,s23,21.0,feminino,right,Espanya,Català (i castellà),Upper secondary,no,no,B,1,when,L3,unsyncopated,when,when,8,Online_whenL3//a.mo18.888.wav,je,do,fu,sil,mo,sa,ga,sil1,di,le,sil2,['catch'],[1.3958000000715174],[1.3958000000715174],0.888,beat,0.5078000000715174,0.5078000000715174,"[""space""]",mo,1,testWhenL3Uns//r1.s2.1.wav,1.0,when,unsyncopated,a,s2,rule,rule,L3,z,5.5532,3.0,1.0,1.0463,4.0,2.0,Català,0.0,Castellà,0.0,Anglès,5.0,Italià,16.0,4.0,4.0,yes,no,yes,Cant,8,Piano,8,Guitarra,8,9.La música me tranquiliza y me relaja.,4.0,"La fase 1 del primer lenguaje ha sido mucho más larga que las demás, cosa que al principio me ha confundido porque dejaba de sonar la voz de los otros lenguajes mucho antes. Eso me ha distraído un poco al principio pero luego he visto que formaba parte del propio experimento. Muchas gracias!",54.0,yes
9,2023-09-15_07h14.23.051,Unsyncopated1,s23,21.0,feminino,right,Espanya,Català (i castellà),Upper secondary,no,no,B,1,when,L3,unsyncopated,when,when,9,Online_whenL3//a.mo19.none.wav,fu,ka,ko,sil,chu,sa,do,sil1,li,le,sil2,['-'],,,none,none,,,,mo,1,testWhenL3Uns//cat_viol.r2.s2.0.wav,1.0,when,unsyncopated,b,s2,no_rule,cat,L3,z,0.4675,5.0,1.0,1.6181,4.0,2.0,Català,0.0,Castellà,0.0,Anglès,5.0,Italià,16.0,4.0,4.0,yes,no,yes,Cant,8,Piano,8,Guitarra,8,10.La música me hace bailar,3.0,"La fase 1 del primer lenguaje ha sido mucho más larga que las demás, cosa que al principio me ha confundido porque dejaba de sonar la voz de los otros lenguajes mucho antes. Eso me ha distraído un poco al principio pero luego he visto que formaba parte del propio experimento. Muchas gracias!",54.0,yes
10,2023-09-15_07h14.23.051,Unsyncopated1,s23,21.0,feminino,right,Espanya,Català (i castellà),Upper secondary,no,no,B,1,when,L3,unsyncopated,when,when,10,Online_whenL3//a.mo17.none.wav,ji,ko,sa,sil,di,ka,do,sil1,chu,ga,sil2,['-'],,,none,none,,,,mo,1,testWhenL3Uns//dep_viol.r1.s1.0.wav,1.0,when,unsyncopated,a,s1,no_rule,dep,L3,m,0.4579,2.0,0.0,0.9899,4.0,2.0,Català,0.0,Castellà,0.0,Anglès,5.0,Italià,16.0,4.0,4.0,yes,no,yes,Cant,8,Piano,8,Guitarra,8,11.Busco novedades musicales continuamente,3.0,"La fase 1 del primer lenguaje ha sido mucho más larga que las demás, cosa que al principio me ha confundido porque dejaba de sonar la voz de los otros lenguajes mucho antes. Eso me ha distraído un poco al principio pero luego he visto que formaba parte del propio experimento. Muchas gracias!",54.0,yes
11,2023-09-15_07h14.23.051,Unsyncopated1,s23,21.0,feminino,right,Espanya,Català (i castellà),Upper secondary,no,no,B,1,when,L3,unsyncopated,when,when,11,Online_whenL3//a.mo16.1998.wav,li,je,gu,sil,ka,chu,le,sil1,ji,mo,sil2,['catch'],[2.3871000000237927],[2.3871000000237927],1.998,no_beat,0.3891000000237927,0.3891000000237927,"[""space""]",mo,1,testWhenL3Uns//r1.s2.2.wav,1.0,when,unsyncopated,a,s2,rule,rule,L3,m,6.0022,2.0,0.0,1.0687,4.0,2.0,Català,0.0,Castellà,0.0,Anglès,5.0,Italià,16.0,4.0,4.0,yes,no,yes,Cant,8,Piano,8,Guitarra,8,12. Puedo llorar cuando escucho algunas melodías que me gustan mucho.,1.0,"La fase 1 del primer lenguaje ha sido mucho más larga que las demás, cosa que al principio me ha confundido porque dejaba de sonar la voz de los otros lenguajes mucho antes. Eso me ha distraído un poco al principio pero luego he visto que formaba parte del propio experimento. Muchas gracias!",54.0,yes
12,2023-09-15_07h14.23.051,Unsyncopated1,s23,21.0,feminino,right,Espanya,Català (i castellà),Upper secondary,no,no,B,1,when,L3,unsyncopated,when,when,12,Online_whenL3//b.ñe33.none.wav,gu,li,ka,sil,sa,fu,le,sil1,di,chu,sil2,['-'],,,none,none,,,,ñe,2,testWhenL3Uns//r2.s2.0.wav,1.0,when,unsyncopated,b,s2,rule,rule,L3,m,3.7178,2.0,0.0,1.152,4.0,2.0,Català,0.0,Castellà,0.0,Anglès,5.0,Italià,16.0,4.0,4.0,yes,no,yes,Cant,8,Piano,8,Guitarra,8,13. Me gusta cantar o tocar un instrumento con más gente,3.0,"La fase 1 del primer lenguaje ha sido mucho más larga que las demás, cosa que al principio me ha confundido porque dejaba de sonar la voz de los otros lenguajes mucho antes. Eso me ha distraído un poco al principio pero luego he visto que formaba parte del propio experimento. Muchas gracias!",54.0,yes
13,2023-09-15_07h14.23.051,Unsyncopated1,s23,21.0,feminino,right,Espanya,Català (i castellà),Upper secondary,no,no,B,1,when,L3,unsyncopated,when,when,13,Online_whenL3//b.ñe34.444.wav,fu,ka,ñe,sil,ko,do,chu,sil1,ga,je,sil2,['catch'],[0.8706999999285472],[0.8706999999285472],0.444,no_beat,0.4266999999285472,0.4266999999285472,"[""space""]",ñe,2,testWhenL3Uns//time_viol.r2.s1.0.wav,1.0,when,unsyncopated,b,s1,no_rule,time,L3,z,1.2961,4.0,1.0,1.1191,4.0,2.0,Català,0.0,Castellà,0.0,Anglès,5.0,Italià,16.0,4.0,4.0,yes,no,yes,Cant,8,Piano,8,Guitarra,8,14. La música me ayuda a desconectar.,4.0,"La fase 1 del primer lenguaje ha sido mucho más larga que las demás, cosa que al principio me ha confundido porque dejaba de sonar la voz de los otros lenguajes mucho antes. Eso me ha distraído un poco al principio pero luego he visto que formaba parte del propio experimento. Muchas gracias!",54.0,yes
14,2023-09-15_07h14.23.051,Unsyncopated1,s23,21.0,feminino,right,Espanya,Català (i castellà),Upper secondary,no,no,B,1,when,L3,unsyncopated,when,when,14,Online_whenL3//b.ñe35.1776.wav,le,ka,do,sil,chu,ga,ji,sil1,ñe,gu,sil2,['catch'],[2.251500000000078],[2.251500000000078],1.776,beat,0.4755000000000782,0.4755000000000782,"[""space""]",ñe,2,testWhenL3Uns//dep_viol.r2.s2.0.wav,1.0,when,unsyncopated,b,s2,no_rule,dep,L3,z,5.0852,3.0,1.0,1.4032,4.0,2.0,Català,0.0,Castellà,0.0,Anglès,5.0,Italià,16.0,4.0,4.0,yes,no,yes,Cant,8,Piano,8,Guitarra,8,15. No puedo evitar tararear las canciones que me gustan cuando las escucho.,1.0,"La fase 1 del primer lenguaje ha sido mucho más larga que las demás, cosa que al principio me ha confundido porque dejaba de sonar la voz de los otros lenguajes mucho antes. Eso me ha distraído un poco al principio pero luego he visto que formaba parte del propio experimento. Muchas gracias!",54.0,yes
15,2023-09-15_07h14.23.051,Unsyncopated1,s23,21.0,feminino,right,Espanya,Català (i castellà),Upper secondary,no,no,B,1,when,L3,unsyncopated,when,when,15,Online_whenL3//b.ñe32.none.wav,li,fu,mo,sil,ko,ji,chu,sil1,gu,do,sil2,['-'],,,none,none,,,,ñe,2,testWhenL3Uns//r2.s2.2.wav,1.0,when,unsyncopated,b,s2,rule,rule,L3,m,1.2171,5.0,0.0,1.047,4.0,2.0,Català,0.0,Castellà,0.0,Anglès,5.0,Italià,16.0,4.0,4.0,yes,no,yes,Cant,8,Piano,8,Guitarra,8,16. En los conciertos me siento en sintonía con los artistas y el público.,3.0,"La fase 1 del primer lenguaje ha sido mucho más larga que las demás, cosa que al principio me ha confundido porque dejaba de sonar la voz de los otros lenguajes mucho antes. Eso me ha distraído un poco al principio pero luego he visto que formaba parte del propio experimento. Muchas gracias!",54.0,yes
16,2023-09-15_07h14.23.051,Unsyncopated1,s23,21.0,feminino,right,Espanya,Català (i castellà),Upper secondary,no,no,B,1,when,L3,unsyncopated,when,when,16,Online_whenL3//a.mo20.1776.wav,ga,fu,ko,sil,li,sa,je,sil1,mo,ka,sil2,['catch'],[2.2752000000476755],[2.2752000000476755],1.776,beat,0.4992000000476755,0.4992000000476755,"[""space""]",mo,1,testWhenL3Uns//cat_viol.r2.s1.0.wav,1.0,when,unsyncopated,b,s1,no_rule,cat,L3,z,1.1074,4.0,1.0,1.3015,4.0,2.0,Català,0.0,Castellà,0.0,Anglès,5.0,Italià,16.0,4.0,4.0,yes,no,yes,Cant,8,Piano,8,Guitarra,8,17. Me gasto bastante dinero en música y cosas relacionadas con la música.,0.0,"La fase 1 del primer lenguaje ha sido mucho más larga que las demás, cosa que al principio me ha confundido porque dejaba de sonar la voz de los otros lenguajes mucho antes. Eso me ha distraído un poco al principio pero luego he visto que formaba parte del propio experimento. Muchas gracias!",54.0,yes
17,2023-09-15_07h14.23.051,Unsyncopated1,s23,21.0,feminino,right,Espanya,Català (i castellà),Upper secondary,no,no,B,1,when,L3,unsyncopated,when,when,17,Online_whenL3//a.mo23.none.wav,ga,sa,je,sil,ko,fu,li,sil1,di,chu,sil2,['-'],,,none,none,,,,mo,1,testWhenL3Uns//time_viol.r2.s2.0.wav,1.0,when,unsyncopated,b,s2,no_rule,time,L3,m,1.8356,3.0,0.0,1.7163,4.0,2.0,Català,0.0,Castellà,0.0,Anglès,5.0,Italià,16.0,4.0,4.0,yes,no,yes,Cant,8,Piano,8,Guitarra,8,18. Siento escalofríos cuando escucho una melodía que me gusta.,1.0,"La fase 1 del primer lenguaje ha sido mucho más larga que las demás, cosa que al principio me ha confundido porque dejaba de sonar la voz de los otros lenguajes mucho antes. Eso me ha distraído un poco al principio pero luego he visto que formaba parte del propio experimento. Muchas gracias!",54.0,yes
18,2023-09-15_07h14.23.051,Unsyncopated1,s23,21.0,feminino,right,Espanya,Català (i castellà),Upper secondary,no,no,B,1,when,L3,unsyncopated,when,when,18,Online_whenL3//a.mo21.none.wav,ñe,gu,chu,sil,di,ko,le,sil1,fu,li,sil2,['-'],,,none,none,,,,mo,1,testWhenL3Uns//r2.s1.2.wav,1.0,when,unsyncopated,b,s1,rule,rule,L3,m,0.5179,5.0,0.0,2.9342,4.0,2.0,Català,0.0,Castellà,0.0,Anglès,5.0,Italià,16.0,4.0,4.0,yes,no,yes,Cant,8,Piano,8,Guitarra,8,19. Con la música me puedo desahogar.,2.0,"La fase 1 del primer lenguaje ha sido mucho más larga que las demás, cosa que al principio me ha confundido porque dejaba de sonar la voz de los otros lenguajes mucho antes. Eso me ha distraído un poco al principio pero luego he visto que formaba parte del propio experimento. Muchas gracias!",54.0,yes
19,2023-09-15_07h14.23.051,Unsyncopated1,s23,21.0,feminino,right,Espanya,Català (i castellà),Upper secondary,no,no,B,1,when,L3,unsyncopated,when,when,19,Online_whenL3//a.mo22.none.wav,je,ga,ka,sil,ñe,chu,fu,sil1,li,ji,sil2,['-'],,,none,none,,,,mo,1,testWhenL3Uns//dep_viol.r2.s1.0.wav,1.0,when,unsyncopated,b,s1,no_rule,dep,L3,m,1.501,4.0,0.0,1.1352,4.0,2.0,Català,0.0,Castellà,0.0,Anglès,5.0,Italià,16.0,4.0,4.0,yes,no,yes,Cant,8,Piano,8,Guitarra,8,20. Cuando escucho una melodía que me gusta mucho no puedo evitar mover el cuerpo.,1.0,"La fase 1 del primer lenguaje ha sido mucho más larga que las demás, cosa que al principio me ha confundido porque dejaba de sonar la voz de los otros lenguajes mucho antes. Eso me ha distraído un poco al principio pero luego he visto que formaba parte del propio experimento. Muchas gracias!",54.0,yes
20,2023-09-15_07h14.23.051,Unsyncopated1,s23,21.0,feminino,right,Espanya,Català (i castellà),Upper secondary,no,no,B,1,when,L3,unsyncopated,when,when,20,Online_whenL3//b.ñe1.1998.wav,ka,ko,je,sil,ga,gu,di,sil1,sa,ñe,sil2,['catch'],[2.524200000047699],[2.524200000047699],1.998,no_beat,0.5262000000476992,0.5262000000476992,"[""space""]",ñe,2,testWhenL3Uns//r1.s1.2.wav,1.0,when,unsyncopated,a,s1,rule,rule,L3,z,1.1854,3.0,1.0,1.2518,4.0,2.0,Català,0.0,Castellà,0.0,Anglès,5.0,Italià,16.0,4.0,4.0,yes,no,yes,Cant,8,Piano,8,Guitarra,8,,,"La fase 1 del primer lenguaje ha sido mucho más larga que las demás, cosa que al principio me ha confundido porque dejaba de sonar la voz de los otros lenguajes mucho antes. Eso me ha distraído un poco al principio pero luego he visto que formaba parte del propio experimento. Muchas gracias!",54.0,yes
21,2023-09-15_07h14.23.051,Unsyncopated1,s23,21.0,feminino,right,Espanya,Català (i castellà),Upper secondary,no,no,B,1,when,L3,unsyncopated,when,when,21,Online_whenL3//b.ñe0.222.wav,ka,ñe,gu,sil,ga,le,chu,sil1,fu,do,sil2,['catch'],[0.7555000000000973],[0.7555000000000973],0.222,no_beat,0.5335000000000973,0.5335000000000973,"[""space""]",ñe,2,testWhenL3Uns//r2.s1.0.wav,1.0,when,unsyncopated,b,s1,rule,rule,L3,z,0.3853,6.0,1.0,1.4686,4.0,2.0,Català,0.0,Castellà,0.0,Anglès,5.0,Italià,16.0,4.0,4.0,yes,no,yes,Cant,8,Piano,8,Guitarra,8,,,"La fase 1 del primer lenguaje ha sido mucho más larga que las demás, cosa que al principio me ha confundido porque dejaba de sonar la voz de los otros lenguajes mucho antes. Eso me ha distraído un poco al principio pero luego he visto que formaba parte del propio experimento. Muchas gracias!",54.0,yes
22,2023-09-15_07h14.23.051,Unsyncopated1,s23,21.0,feminino,right,Espanya,Català (i castellà),Upper secondary,no,no,B,1,when,L3,unsyncopated,when,when,22,Online_whenL3//b.ñe2.888.wav,ji,li,do,sil,ñe,mo,ga,sil1,le,fu,sil2,['catch'],[1.32260000002384],[1.32260000002384],0.888,beat,0.43460000002384,0.43460000002384,"[""space""]",ñe,2,testWhenL3Uns//cat_viol.r1.s1.0.wav,1.0,when,unsyncopated,a,s1,no_rule,cat,L3,z,1.2847,4.0,1.0,0.6854,4.0,2.0,Català,0.0,Castellà,0.0,Anglès,5.0,Italià,16.0,4.0,4.0,yes,no,yes,Cant,8,Piano,8,Guitarra,8,,,"La fase 1 del primer lenguaje ha sido mucho más larga que las demás, cosa que al principio me ha confundido porque dejaba de sonar la voz de los otros lenguajes mucho antes. Eso me ha distraído un poco al principio pero luego he visto que formaba parte del propio experimento. Muchas gracias!",54.0,yes
23,2023-09-15_07h14.23.051,Unsyncopated1,s23,21.0,feminino,right,Espanya,Català (i castellà),Upper secondary,no,no,B,1,when,L3,unsyncopated,when,when,23,Online_whenL3//b.ñe3.none.wav,chu,ko,mo,sil,li,je,ji,sil1,fu,do,sil2,['-'],,,none,none,,,,ñe,2,testWhenL3Uns//time_viol.r1.s1.0.wav,1.0,when,unsyncopated,a,s1,no_rule,time,L3,m,1.0018,3.0,0.0,1.5847,4.0,2.0,Català,0.0,Castellà,0.0,Anglès,5.0,Italià,16.0,4.0,4.0,yes,no,yes,Cant,8,Piano,8,Guitarra,8,,,"La fase 1 del primer lenguaje ha sido mucho más larga que las demás, cosa que al principio me ha confundido porque dejaba de sonar la voz de los otros lenguajes mucho antes. Eso me ha distraído un poco al principio pero luego he visto que formaba parte del propio experimento. Muchas gracias!",54.0,yes
24,2023-09-15_07h14.23.051,Unsyncopated1,s23,21.0,feminino,right,Espanya,Català (i castellà),Upper secondary,no,no,B,1,when,L3,unsyncopated,when,when,24,Online_whenL3//c.gu23.none.wav,ji,fu,di,sil,ñe,je,li,sil1,do,mo,sil2,['-'],,,none,none,,,,gu,3,testConjL1Uns//time_viol.r2.s1.0.wav,2.0,conjunction_un,unsyncopated,b,s1,no_rule,time,L1,z,0.6503,5.0,0.0,1.4816,4.0,2.0,Català,0.0,Castellà,0.0,Anglès,5.0,Italià,16.0,4.0,4.0,yes,no,yes,Cant,8,Piano,8,Guitarra,8,,,"La fase 1 del primer lenguaje ha sido mucho más larga que las demás, cosa que al principio me ha confundido porque dejaba de sonar la voz de los otros lenguajes mucho antes. Eso me ha distraído un poco al principio pero luego he visto que formaba parte del propio experimento. Muchas gracias!",54.0,yes
25,2023-09-15_07h14.23.051,Unsyncopated1,s23,21.0,feminino,right,Espanya,Català (i castellà),Upper secondary,no,no,B,1,when,L3,unsyncopated,when,when,25,Online_whenL3//c.gu22.1998.wav,do,chu,le,sil,ga,li,ji,sil1,mo,gu,sil2,['miss'],,,1.998,no_beat,,,,gu,3,testConjL1Uns//cat_viol.r1.s1.0.wav,2.0,conjunction_un,unsyncopated,a,s1,no_rule,cat,L1,z,1.7526,4.0,0.0,1.2021,4.0,2.0,Català,0.0,Castellà,0.0,Anglès,5.0,Italià,16.0,4.0,4.0,yes,no,yes,Cant,8,Piano,8,Guitarra,8,,,"La fase 1 del primer lenguaje ha sido mucho más larga que las demás, cosa que al principio me ha confundido porque dejaba de sonar la voz de los otros lenguajes mucho antes. Eso me ha distraído un poco al principio pero luego he visto que formaba parte del propio experimento. Muchas gracias!",54.0,yes
26,2023-09-15_07h14.23.051,Unsyncopated1,s23,21.0,feminino,right,Espanya,Català (i castellà),Upper secondary,no,no,B,1,when,L3,unsyncopated,when,when,26,Online_whenL3//c.gu20.none.wav,fu,li,di,sil,ko,chu,ga,sil1,do,ñe,sil2,['-'],,,none,none,,,,gu,3,testConjL1Uns//time_viol.r1.s1.0.wav,2.0,conjunction_un,unsyncopated,a,s1,no_rule,time,L1,z,0.402,6.0,0.0,0.8183,4.0,2.0,Català,0.0,Castellà,0.0,Anglès,5.0,Italià,16.0,4.0,4.0,yes,no,yes,Cant,8,Piano,8,Guitarra,8,,,"La fase 1 del primer lenguaje ha sido mucho más larga que las demás, cosa que al principio me ha confundido porque dejaba de sonar la voz de los otros lenguajes mucho antes. Eso me ha distraído un poco al principio pero luego he visto que formaba parte del propio experimento. Muchas gracias!",54.0,yes
27,2023-09-15_07h14.23.051,Unsyncopated1,s23,21.0,feminino,right,Espanya,Català (i castellà),Upper secondary,no,no,B,1,when,L3,unsyncopated,when,when,27,Online_whenL3//c.gu21.none.wav,je,ñe,do,sil,sa,ko,ji,sil1,di,li,sil2,['-'],,,none,none,,,,gu,3,testConjL1Uns//r1.s1.2.wav,2.0,conjunction_un,unsyncopated,a,s1,rule,rule,L1,m,1.7867,2.0,0.0,1.0768,4.0,2.0,Català,0.0,Castellà,0.0,Anglès,5.0,Italià,16.0,4.0,4.0,yes,no,yes,Cant,8,Piano,8,Guitarra,8,,,"La fase 1 del primer lenguaje ha sido mucho más larga que las demás, cosa que al principio me ha confundido porque dejaba de sonar la voz de los otros lenguajes mucho antes. Eso me ha distraído un poco al principio pero luego he visto que formaba parte del propio experimento. Muchas gracias!",54.0,yes
28,2023-09-15_07h14.23.051,Unsyncopated1,s23,21.0,feminino,right,Espanya,Català (i castellà),Upper secondary,no,no,B,1,when,L3,unsyncopated,when,when,28,Online_whenL3//c.gu16.1332.wav,do,ji,ñe,sil,ka,ga,gu,sil1,mo,di,sil2,['catch'],[1.8419999999999845],[1.8419999999999845],1.332,no_beat,0.5099999999999845,0.5099999999999845,"[""space""]",gu,3,testConjL1Uns//r2.s2.0.wav,2.0,conjunction_un,unsyncopated,b,s2,rule,rule,L1,z,0.2673,5.0,1.0,0.9206,4.0,2.0,Català,0.0,Castellà,0.0,Anglès,5.0,Italià,16.0,4.0,4.0,yes,no,yes,Cant,8,Piano,8,Guitarra,8,,,"La fase 1 del primer lenguaje ha sido mucho más larga que las demás, cosa que al principio me ha confundido porque dejaba de sonar la voz de los otros lenguajes mucho antes. Eso me ha distraído un poco al principio pero luego he visto que formaba parte del propio experimento. Muchas gracias!",54.0,yes
29,2023-09-15_07h14.23.051,Unsyncopated1,s23,21.0,feminino,right,Espanya,Català (i castellà),Upper secondary,no,no,B,1,when,L3,unsyncopated,when,when,29,Online_whenL3//c.gu18.444.wav,di,ko,gu,sil,chu,sa,ka,sil1,li,do,sil2,['catch'],[1.1541000000238455],[1.1541000000238455],0.444,no_beat,0.7101000000238455,0.7101000000238455,"[""space""]",gu,3,testConjL1Uns//r1.s1.1.wav,2.0,conjunction_un,unsyncopated,a,s1,rule,rule,L1,m,0.3202,5.0,0.0,2.3953,4.0,2.0,Català,0.0,Castellà,0.0,Anglès,5.0,Italià,16.0,4.0,4.0,yes,no,yes,Cant,8,Piano,8,Guitarra,8,,,"La fase 1 del primer lenguaje ha sido mucho más larga que las demás, cosa que al principio me ha confundido porque dejaba de sonar la voz de los otros lenguajes mucho antes. Eso me ha distraído un poco al principio pero luego he visto que formaba parte del propio experimento. Muchas gracias!",54.0,yes
30,2023-09-15_07h14.23.051,Unsyncopated1,s23,21.0,feminino,right,Espanya,Català (i castellà),Upper secondary,no,no,B,1,when,L3,unsyncopated,when,when,30,Online_whenL3//c.gu19.1998.wav,ka,sa,je,sil,chu,do,ji,sil1,le,gu,sil2,['miss'],,,1.998,no_beat,,,,gu,3,testConjL1Uns//time_viol.r1.s2.0.wav,2.0,conjunction_un,unsyncopated,a,s2,no_rule,time,L1,z,1.5291,3.0,0.0,0.5676,4.0,2.0,Català,0.0,Castellà,0.0,Anglès,5.0,Italià,16.0,4.0,4.0,yes,no,yes,Cant,8,Piano,8,Guitarra,8,,,"La fase 1 del primer lenguaje ha sido mucho más larga que las demás, cosa que al principio me ha confundido porque dejaba de sonar la voz de los otros lenguajes mucho antes. Eso me ha distraído un poco al principio pero luego he visto que formaba parte del propio experimento. Muchas gracias!",54.0,yes
31,2023-09-15_07h14.23.051,Unsyncopated1,s23,21.0,feminino,right,Espanya,Català (i castellà),Upper secondary,no,no,B,1,when,L3,unsyncopated,when,when,31,Online_whenL3//c.gu17.none.wav,ga,ji,le,sil,sa,ka,chu,sil1,do,je,sil2,['-'],,,none,none,,,,gu,3,testConjL1Uns//cat_viol.r2.s1.0.wav,2.0,conjunction_un,unsyncopated,b,s1,no_rule,cat,L1,z,0.3921,6.0,0.0,0.6017,4.0,2.0,Català,0.0,Castellà,0.0,Anglès,5.0,Italià,16.0,4.0,4.0,yes,no,yes,Cant,8,Piano,8,Guitarra,8,,,"La fase 1 del primer lenguaje ha sido mucho más larga que las demás, cosa que al principio me ha confundido porque dejaba de sonar la voz de los otros lenguajes mucho antes. Eso me ha distraído un poco al principio pero luego he visto que formaba parte del propio experimento. Muchas gracias!",54.0,yes
32,2023-09-15_07h14.23.051,Unsyncopated1,s23,21.0,feminino,right,Espanya,Català (i castellà),Upper secondary,no,no,B,1,when,L3,unsyncopated,when,when,32,Online_whenL3//d.ji16.none.wav,ka,je,di,sil,sa,fu,chu,sil1,do,li,sil2,['-'],,,none,none,,,,ji,4,testConjL1Uns//r2.s1.2.wav,2.0,conjunction_un,unsyncopated,b,s1,rule,rule,L1,z,0.3329,4.0,1.0,1.8226,4.0,2.0,Català,0.0,Castellà,0.0,Anglès,5.0,Italià,16.0,4.0,4.0,yes,no,yes,Cant,8,Piano,8,Guitarra,8,,,"La fase 1 del primer lenguaje ha sido mucho más larga que las demás, cosa que al principio me ha confundido porque dejaba de sonar la voz de los otros lenguajes mucho antes. Eso me ha distraído un poco al principio pero luego he visto que formaba parte del propio experimento. Muchas gracias!",54.0,yes
33,2023-09-15_07h14.23.051,Unsyncopated1,s23,21.0,feminino,right,Espanya,Català (i castellà),Upper secondary,no,no,B,1,when,L3,unsyncopated,when,when,33,Online_whenL3//d.ji19.1776.wav,gu,ñe,chu,sil,li,di,le,sil1,ji,fu,sil2,['catch'],[2.129799999952411],[2.129799999952411],1.776,beat,0.3537999999524108,0.3537999999524108,"[""space""]",ji,4,testConjL1Uns//r1.s2.1.wav,2.0,conjunction_un,unsyncopated,a,s2,rule,rule,L1,m,0.3617,5.0,0.0,2.8768,4.0,2.0,Català,0.0,Castellà,0.0,Anglès,5.0,Italià,16.0,4.0,4.0,yes,no,yes,Cant,8,Piano,8,Guitarra,8,,,"La fase 1 del primer lenguaje ha sido mucho más larga que las demás, cosa que al principio me ha confundido porque dejaba de sonar la voz de los otros lenguajes mucho antes. Eso me ha distraído un poco al principio pero luego he visto que formaba parte del propio experimento. Muchas gracias!",54.0,yes
34,2023-09-15_07h14.23.051,Unsyncopated1,s23,21.0,feminino,right,Espanya,Català (i castellà),Upper secondary,no,no,B,1,when,L3,unsyncopated,when,when,34,Online_whenL3//d.ji17.none.wav,ñe,ga,di,sil,sa,ka,li,sil1,le,fu,sil2,['-'],,,none,none,,,,ji,4,testConjL1Uns//r2.s1.0.wav,2.0,conjunction_un,unsyncopated,b,s1,rule,rule,L1,z,0.3347,4.0,1.0,1.189,4.0,2.0,Català,0.0,Castellà,0.0,Anglès,5.0,Italià,16.0,4.0,4.0,yes,no,yes,Cant,8,Piano,8,Guitarra,8,,,"La fase 1 del primer lenguaje ha sido mucho más larga que las demás, cosa que al principio me ha confundido porque dejaba de sonar la voz de los otros lenguajes mucho antes. Eso me ha distraído un poco al principio pero luego he visto que formaba parte del propio experimento. Muchas gracias!",54.0,yes
35,2023-09-15_07h14.23.051,Unsyncopated1,s23,21.0,feminino,right,Espanya,Català (i castellà),Upper secondary,no,no,B,1,when,L3,unsyncopated,when,when,35,Online_whenL3//d.ji18.none.wav,gu,do,ko,sil,di,chu,mo,sil1,ga,le,sil2,['-'],,,none,none,,,,ji,4,testConjL1Uns//r1.s1.0.wav,2.0,conjunction_un,unsyncopated,a,s1,rule,rule,L1,m,0.7962,2.0,0.0,0.6684,4.0,2.0,Català,0.0,Castellà,0.0,Anglès,5.0,Italià,16.0,4.0,4.0,yes,no,yes,Cant,8,Piano,8,Guitarra,8,,,"La fase 1 del primer lenguaje ha sido mucho más larga que las demás, cosa que al principio me ha confundido porque dejaba de sonar la voz de los otros lenguajes mucho antes. Eso me ha distraído un poco al principio pero luego he visto que formaba parte del propio experimento. Muchas gracias!",54.0,yes
36,2023-09-15_07h14.23.051,Unsyncopated1,s23,21.0,feminino,right,Espanya,Català (i castellà),Upper secondary,no,no,B,1,when,L3,unsyncopated,when,when,36,Online_whenL3//b.ñe13.none.wav,chu,ka,le,sil,ko,je,mo,sil1,fu,di,sil2,['-'],,,none,none,,,,ñe,2,testConjL1Uns//cat_viol.r2.s2.0.wav,2.0,conjunction_un,unsyncopated,b,s2,no_rule,cat,L1,m,0.3854,6.0,1.0,0.7182,4.0,2.0,Català,0.0,Castellà,0.0,Anglès,5.0,Italià,16.0,4.0,4.0,yes,no,yes,Cant,8,Piano,8,Guitarra,8,,,"La fase 1 del primer lenguaje ha sido mucho más larga que las demás, cosa que al principio me ha confundido porque dejaba de sonar la voz de los otros lenguajes mucho antes. Eso me ha distraído un poco al principio pero luego he visto que formaba parte del propio experimento. Muchas gracias!",54.0,yes
37,2023-09-15_07h14.23.051,Unsyncopated1,s23,21.0,feminino,right,Espanya,Català (i castellà),Upper secondary,no,no,B,1,when,L3,unsyncopated,when,when,37,Online_whenL3//b.ñe15.none.wav,je,di,li,sil,ji,ko,sa,sil1,mo,ga,sil2,['false alarm'],[0.4761000000238482],[0.4761000000238482],none,none,,,"[""space""]",ñe,2,testConjL1Uns//dep_viol.r1.s1.0.wav,2.0,conjunction_un,unsyncopated,a,s1,no_rule,dep,L1,m,2.4185,4.0,1.0,0.9875,4.0,2.0,Català,0.0,Castellà,0.0,Anglès,5.0,Italià,16.0,4.0,4.0,yes,no,yes,Cant,8,Piano,8,Guitarra,8,,,"La fase 1 del primer lenguaje ha sido mucho más larga que las demás, cosa que al principio me ha confundido porque dejaba de sonar la voz de los otros lenguajes mucho antes. Eso me ha distraído un poco al principio pero luego he visto que formaba parte del propio experimento. Muchas gracias!",54.0,yes
38,2023-09-15_07h14.23.051,Unsyncopated1,s23,21.0,feminino,right,Espanya,Català (i castellà),Upper secondary,no,no,B,1,when,L3,unsyncopated,when,when,38,Online_whenL3//b.ñe12.none.wav,ji,li,je,sil,mo,ka,chu,sil1,fu,ko,sil2,['-'],,,none,none,,,,ñe,2,testConjL1Uns//dep_viol.r2.s1.0.wav,2.0,conjunction_un,unsyncopated,b,s1,no_rule,dep,L1,z,0.4932,6.0,0.0,0.5878,4.0,2.0,Català,0.0,Castellà,0.0,Anglès,5.0,Italià,16.0,4.0,4.0,yes,no,yes,Cant,8,Piano,8,Guitarra,8,,,"La fase 1 del primer lenguaje ha sido mucho más larga que las demás, cosa que al principio me ha confundido porque dejaba de sonar la voz de los otros lenguajes mucho antes. Eso me ha distraído un poco al principio pero luego he visto que formaba parte del propio experimento. Muchas gracias!",54.0,yes
39,2023-09-15_07h14.23.051,Unsyncopated1,s23,21.0,feminino,right,Espanya,Català (i castellà),Upper secondary,no,no,B,1,when,L3,unsyncopated,when,when,39,Online_whenL3//b.ñe14.1776.wav,do,je,ko,sil,fu,gu,chu,sil1,ñe,ka,sil2,['catch'],[2.3068999999761672],[2.3068999999761672],1.776,beat,0.5308999999761672,0.5308999999761672,"[""space""]",ñe,2,testConjL1Uns//r1.s2.2.wav,2.0,conjunction_un,unsyncopated,a,s2,rule,rule,L1,z,3.2057,4.0,1.0,0.3184,4.0,2.0,Català,0.0,Castellà,0.0,Anglès,5.0,Italià,16.0,4.0,4.0,yes,no,yes,Cant,8,Piano,8,Guitarra,8,,,"La fase 1 del primer lenguaje ha sido mucho más larga que las demás, cosa que al principio me ha confundido porque dejaba de sonar la voz de los otros lenguajes mucho antes. Eso me ha distraído un poco al principio pero luego he visto que formaba parte del propio experimento. Muchas gracias!",54.0,yes
40,2023-09-15_07h14.23.051,Unsyncopated1,s23,21.0,feminino,right,Espanya,Català (i castellà),Upper secondary,no,no,B,1,when,L3,unsyncopated,when,when,40,Online_whenL3//d.ji13.222.wav,fu,ji,di,sil,li,ko,je,sil1,chu,mo,sil2,['catch'],[1.1072999999522608],[1.1072999999522608],0.222,no_beat,0.8852999999522608,0.8852999999522608,"[""space""]",ji,4,testConjL1Uns//r1.s2.0.wav,2.0,conjunction_un,unsyncopated,a,s2,rule,rule,L1,m,0.6254,4.0,0.0,1.5903,4.0,2.0,Català,0.0,Castellà,0.0,Anglès,5.0,Italià,16.0,4.0,4.0,yes,no,yes,Cant,8,Piano,8,Guitarra,8,,,"La fase 1 del primer lenguaje ha sido mucho más larga que las demás, cosa que al principio me ha confundido porque dejaba de sonar la voz de los otros lenguajes mucho antes. Eso me ha distraído un poco al principio pero luego he visto que formaba parte del propio experimento. Muchas gracias!",54.0,yes
41,2023-09-15_07h14.23.051,Unsyncopated1,s23,21.0,feminino,right,Espanya,Català (i castellà),Upper secondary,no,no,B,1,when,L3,unsyncopated,when,when,41,Online_whenL3//d.ji15.444.wav,ga,do,ji,sil,mo,sa,ko,sil1,fu,gu,sil2,['catch'],[1.0695000000000618],[1.0695000000000618],0.444,no_beat,0.6255000000000619,0.6255000000000619,"[""space""]",ji,4,testConjL1Uns//dep_viol.r2.s2.0.wav,2.0,conjunction_un,unsyncopated,b,s2,no_rule,dep,L1,z,6.883,2.0,0.0,1.0515,4.0,2.0,Català,0.0,Castellà,0.0,Anglès,5.0,Italià,16.0,4.0,4.0,yes,no,yes,Cant,8,Piano,8,Guitarra,8,,,"La fase 1 del primer lenguaje ha sido mucho más larga que las demás, cosa que al principio me ha confundido porque dejaba de sonar la voz de los otros lenguajes mucho antes. Eso me ha distraído un poco al principio pero luego he visto que formaba parte del propio experimento. Muchas gracias!",54.0,yes
42,2023-09-15_07h14.23.051,Unsyncopated1,s23,21.0,feminino,right,Espanya,Català (i castellà),Upper secondary,no,no,B,1,when,L3,unsyncopated,when,when,42,Online_whenL3//d.ji14.1998.wav,ga,do,ka,sil,ñe,gu,le,sil1,sa,ji,sil2,['catch'],[2.3936000000238664],[2.3936000000238664],1.998,no_beat,0.3956000000238664,0.3956000000238664,"[""space""]",ji,4,testConjL1Uns//r2.s2.1.wav,2.0,conjunction_un,unsyncopated,b,s2,rule,rule,L1,m,1.7836,4.0,0.0,1.2025,4.0,2.0,Català,0.0,Castellà,0.0,Anglès,5.0,Italià,16.0,4.0,4.0,yes,no,yes,Cant,8,Piano,8,Guitarra,8,,,"La fase 1 del primer lenguaje ha sido mucho más larga que las demás, cosa que al principio me ha confundido porque dejaba de sonar la voz de los otros lenguajes mucho antes. Eso me ha distraído un poco al principio pero luego he visto que formaba parte del propio experimento. Muchas gracias!",54.0,yes
43,2023-09-15_07h14.23.051,Unsyncopated1,s23,21.0,feminino,right,Espanya,Català (i castellà),Upper secondary,no,no,B,1,when,L3,unsyncopated,when,when,43,Online_whenL3//d.ji12.1332.wav,sa,le,gu,sil,ka,ga,ji,sil1,di,mo,sil2,['catch'],[1.8038999999761245],[1.8038999999761245],1.332,no_beat,0.4718999999761244,0.4718999999761244,"[""space""]",ji,4,testConjL1Uns//time_viol.r2.s2.0.wav,2.0,conjunction_un,unsyncopated,b,s2,no_rule,time,L1,m,3.7156,2.0,1.0,1.9179,4.0,2.0,Català,0.0,Castellà,0.0,Anglès,5.0,Italià,16.0,4.0,4.0,yes,no,yes,Cant,8,Piano,8,Guitarra,8,,,"La fase 1 del primer lenguaje ha sido mucho más larga que las demás, cosa que al principio me ha confundido porque dejaba de sonar la voz de los otros lenguajes mucho antes. Eso me ha distraído un poco al principio pero luego he visto que formaba parte del propio experimento. Muchas gracias!",54.0,yes
44,2023-09-15_07h14.23.051,Unsyncopated1,s23,21.0,feminino,right,Espanya,Català (i castellà),Upper secondary,no,no,B,1,when,L3,unsyncopated,when,when,44,Online_whenL3//d.ji23.none.wav,mo,ñe,je,sil,fu,ko,le,sil1,li,ka,sil2,['-'],,,none,none,,,,ji,4,testConjL1Uns//dep_viol.r1.s2.0.wav,2.0,conjunction_un,unsyncopated,a,s2,no_rule,dep,L1,z,1.6353,3.0,0.0,0.5017,4.0,2.0,Català,0.0,Castellà,0.0,Anglès,5.0,Italià,16.0,4.0,4.0,yes,no,yes,Cant,8,Piano,8,Guitarra,8,,,"La fase 1 del primer lenguaje ha sido mucho más larga que las demás, cosa que al principio me ha confundido porque dejaba de sonar la voz de los otros lenguajes mucho antes. Eso me ha distraído un poco al principio pero luego he visto que formaba parte del propio experimento. Muchas gracias!",54.0,yes
45,2023-09-15_07h14.23.051,Unsyncopated1,s23,21.0,feminino,right,Espanya,Català (i castellà),Upper secondary,no,no,B,1,when,L3,unsyncopated,when,when,45,Online_whenL3//d.ji21.888.wav,ko,li,ñe,sil,ji,ka,fu,sil1,ga,sa,sil2,['catch'],[1.4026000000237673],[1.4026000000237673],0.888,beat,0.5146000000237673,0.5146000000237673,"[""space""]",ji,4,testConjL1Uns//cat_viol.r1.s2.0.wav,2.0,conjunction_un,unsyncopated,a,s2,no_rule,cat,L1,z,0.4329,4.0,0.0,0.6513,4.0,2.0,Català,0.0,Castellà,0.0,Anglès,5.0,Italià,16.0,4.0,4.0,yes,no,yes,Cant,8,Piano,8,Guitarra,8,,,"La fase 1 del primer lenguaje ha sido mucho más larga que las demás, cosa que al principio me ha confundido porque dejaba de sonar la voz de los otros lenguajes mucho antes. Eso me ha distraído un poco al principio pero luego he visto que formaba parte del propio experimento. Muchas gracias!",54.0,yes
46,2023-09-15_07h14.23.051,Unsyncopated1,s23,21.0,feminino,right,Espanya,Català (i castellà),Upper secondary,no,no,B,1,when,L3,unsyncopated,when,when,46,Online_whenL3//d.ji20.none.wav,mo,gu,chu,sil,do,je,fu,sil1,di,le,sil2,['-'],,,none,none,,,,ji,4,testConjL1Uns//r2.s2.2.wav,2.0,conjunction_un,unsyncopated,b,s2,rule,rule,L1,m,1.2861,2.0,0.0,1.0179,4.0,2.0,Català,0.0,Castellà,0.0,Anglès,5.0,Italià,16.0,4.0,4.0,yes,no,yes,Cant,8,Piano,8,Guitarra,8,,,"La fase 1 del primer lenguaje ha sido mucho más larga que las demás, cosa que al principio me ha confundido porque dejaba de sonar la voz de los otros lenguajes mucho antes. Eso me ha distraído un poco al principio pero luego he visto que formaba parte del propio experimento. Muchas gracias!",54.0,yes
47,2023-09-15_07h14.23.051,Unsyncopated1,s23,21.0,feminino,right,Espanya,Català (i castellà),Upper secondary,no,no,B,1,when,L3,unsyncopated,when,when,47,Online_whenL3//d.ji22.1332.wav,gu,di,mo,sil,fu,ñe,ji,sil1,ko,le,sil2,['catch'],[1.8381000000238146],[1.8381000000238146],1.332,no_beat,0.5061000000238145,0.5061000000238145,"[""space""]",ji,4,testConjL1Uns//r2.s1.1.wav,2.0,conjunction_un,unsyncopated,b,s1,rule,rule,L1,z,7.2499,3.0,1.0,0.7017,4.0,2.0,Català,0.0,Castellà,0.0,Anglès,5.0,Italià,16.0,4.0,4.0,yes,no,yes,Cant,8,Piano,8,Guitarra,8,,,"La fase 1 del primer lenguaje ha sido mucho más larga que las demás, cosa que al principio me ha confundido porque dejaba de sonar la voz de los otros lenguajes mucho antes. Eso me ha distraído un poco al principio pero luego he visto que formaba parte del propio experimento. Muchas gracias!",54.0,yes
48,2023-09-15_07h14.23.051,Unsyncopated1,s23,21.0,feminino,right,Espanya,Català (i castellà),Upper secondary,no,no,B,1,when,L3,unsyncopated,when,when,48,Online_whenL3//d.ji27.none.wav,chu,ka,di,sil,ñe,je,fu,sil1,do,gu,sil2,['-'],,,none,none,,,,ji,4,testConjL4Syn//time_viol.r1.s1.0.wav,3.0,conjunction_syn,syncopated,a,s1,no_rule,time,L4,m,0.8392,3.0,1.0,1.0304,4.0,2.0,Català,0.0,Castellà,0.0,Anglès,5.0,Italià,16.0,4.0,4.0,yes,no,yes,Cant,8,Piano,8,Guitarra,8,,,"La fase 1 del primer lenguaje ha sido mucho más larga que las demás, cosa que al principio me ha confundido porque dejaba de sonar la voz de los otros lenguajes mucho antes. Eso me ha distraído un poco al principio pero luego he visto que formaba parte del propio experimento. Muchas gracias!",54.0,yes
49,2023-09-15_07h14.23.051,Unsyncopated1,s23,21.0,feminino,right,Espanya,Català (i castellà),Upper secondary,no,no,B,1,when,L3,unsyncopated,when,when,49,Online_whenL3//d.ji25.none.wav,do,li,je,sil,fu,ka,mo,sil1,ñe,di,sil2,['false alarm'],[0.875],[0.875],none,none,,,"[""space""]",ji,4,testConjL4Syn//dep_viol.r2.s2.0.wav,3.0,conjunction_syn,syncopated,b,s2,no_rule,dep,L4,z,0.418,6.0,0.0,0.5743,4.0,2.0,Català,0.0,Castellà,0.0,Anglès,5.0,Italià,16.0,4.0,4.0,yes,no,yes,Cant,8,Piano,8,Guitarra,8,,,"La fase 1 del primer lenguaje ha sido mucho más larga que las demás, cosa que al principio me ha confundido porque dejaba de sonar la voz de los otros lenguajes mucho antes. Eso me ha distraído un poco al principio pero luego he visto que formaba parte del propio experimento. Muchas gracias!",54.0,yes
50,2023-09-15_07h14.23.051,Unsyncopated1,s23,21.0,feminino,right,Espanya,Català (i castellà),Upper secondary,no,no,B,1,when,L3,unsyncopated,when,when,50,Online_whenL3//d.ji24.1998.wav,do,sa,gu,sil,li,chu,ka,sil1,ko,ji,sil2,['catch'],[2.540499999999952],[2.540499999999952],1.998,no_beat,0.5424999999999518,0.5424999999999518,"[""space""]",ji,4,testConjL4Syn//cat_viol.r2.s1.0.wav,3.0,conjunction_syn,syncopated,b,s1,no_rule,cat,L4,m,0.453,4.0,1.0,0.8402,4.0,2.0,Català,0.0,Castellà,0.0,Anglès,5.0,Italià,16.0,4.0,4.0,yes,no,yes,Cant,8,Piano,8,Guitarra,8,,,"La fase 1 del primer lenguaje ha sido mucho más larga que las demás, cosa que al principio me ha confundido porque dejaba de sonar la voz de los otros lenguajes mucho antes. Eso me ha distraído un poco al principio pero luego he visto que formaba parte del propio experimento. Muchas gracias!",54.0,yes
51,2023-09-15_07h14.23.051,Unsyncopated1,s23,21.0,feminino,right,Espanya,Català (i castellà),Upper secondary,no,no,B,1,when,L3,unsyncopated,when,when,51,Online_whenL3//d.ji26.none.wav,chu,fu,je,sil,ko,gu,ka,sil1,mo,di,sil2,['-'],,,none,none,,,,ji,4,testConjL4Syn//time_viol.r1.s2.0.wav,3.0,conjunction_syn,syncopated,a,s2,no_rule,time,L4,z,0.6861,5.0,0.0,0.7442,4.0,2.0,Català,0.0,Castellà,0.0,Anglès,5.0,Italià,16.0,4.0,4.0,yes,no,yes,Cant,8,Piano,8,Guitarra,8,,,"La fase 1 del primer lenguaje ha sido mucho más larga que las demás, cosa que al principio me ha confundido porque dejaba de sonar la voz de los otros lenguajes mucho antes. Eso me ha distraído un poco al principio pero luego he visto que formaba parte del propio experimento. Muchas gracias!",54.0,yes
52,2023-09-15_07h14.23.051,Unsyncopated1,s23,21.0,feminino,right,Espanya,Català (i castellà),Upper secondary,no,no,B,1,when,L3,unsyncopated,when,when,52,Online_whenL3//b.ñe28.none.wav,fu,je,chu,sil,sa,le,ga,sil1,li,ka,sil2,['-'],,,none,none,,,,ñe,2,testConjL4Syn//r1.s2.0.wav,3.0,conjunction_syn,syncopated,a,s2,rule,rule,L4,m,0.3514,2.0,0.0,1.5371,4.0,2.0,Català,0.0,Castellà,0.0,Anglès,5.0,Italià,16.0,4.0,4.0,yes,no,yes,Cant,8,Piano,8,Guitarra,8,,,"La fase 1 del primer lenguaje ha sido mucho más larga que las demás, cosa que al principio me ha confundido porque dejaba de sonar la voz de los otros lenguajes mucho antes. Eso me ha distraído un poco al principio pero luego he visto que formaba parte del propio experimento. Muchas gracias!",54.0,yes
53,2023-09-15_07h14.23.051,Unsyncopated1,s23,21.0,feminino,right,Espanya,Català (i castellà),Upper secondary,no,no,B,1,when,L3,unsyncopated,when,when,53,Online_whenL3//b.ñe30.none.wav,ka,di,mo,sil,ko,chu,je,sil1,fu,gu,sil2,['-'],,,none,none,,,,ñe,2,testConjL4Syn//r1.s2.1.wav,3.0,conjunction_syn,syncopated,a,s2,rule,rule,L4,m,0.4379,3.0,0.0,0.5415,4.0,2.0,Català,0.0,Castellà,0.0,Anglès,5.0,Italià,16.0,4.0,4.0,yes,no,yes,Cant,8,Piano,8,Guitarra,8,,,"La fase 1 del primer lenguaje ha sido mucho más larga que las demás, cosa que al principio me ha confundido porque dejaba de sonar la voz de los otros lenguajes mucho antes. Eso me ha distraído un poco al principio pero luego he visto que formaba parte del propio experimento. Muchas gracias!",54.0,yes
54,2023-09-15_07h14.23.051,Unsyncopated1,s23,21.0,feminino,right,Espanya,Català (i castellà),Upper secondary,no,no,B,1,when,L3,unsyncopated,when,when,54,Online_whenL3//b.ñe29.0.wav,ñe,gu,ga,sil,ko,li,le,sil1,ka,sa,sil2,['catch'],[0.6706000000239101],[0.6706000000239101],0.0,beat,0.6706000000239101,0.6706000000239101,"[""space""]",ñe,2,testConjL4Syn//r1.s1.2.wav,3.0,conjunction_syn,syncopated,a,s1,rule,rule,L4,m,1.3348,3.0,0.0,0.8018,4.0,2.0,Català,0.0,Castellà,0.0,Anglès,5.0,Italià,16.0,4.0,4.0,yes,no,yes,Cant,8,Piano,8,Guitarra,8,,,"La fase 1 del primer lenguaje ha sido mucho más larga que las demás, cosa que al principio me ha confundido porque dejaba de sonar la voz de los otros lenguajes mucho antes. Eso me ha distraído un poco al principio pero luego he visto que formaba parte del propio experimento. Muchas gracias!",54.0,yes
55,2023-09-15_07h14.23.051,Unsyncopated1,s23,21.0,feminino,right,Espanya,Català (i castellà),Upper secondary,no,no,B,1,when,L3,unsyncopated,when,when,55,Online_whenL3//b.ñe31.none.wav,chu,je,do,sil,le,ka,sa,sil1,li,ga,sil2,['-'],,,none,none,,,,ñe,2,testConjL4Syn//cat_viol.r1.s1.0.wav,3.0,conjunction_syn,syncopated,a,s1,no_rule,cat,L4,z,0.3202,5.0,0.0,1.0218,4.0,2.0,Català,0.0,Castellà,0.0,Anglès,5.0,Italià,16.0,4.0,4.0,yes,no,yes,Cant,8,Piano,8,Guitarra,8,,,"La fase 1 del primer lenguaje ha sido mucho más larga que las demás, cosa que al principio me ha confundido porque dejaba de sonar la voz de los otros lenguajes mucho antes. Eso me ha distraído un poco al principio pero luego he visto que formaba parte del propio experimento. Muchas gracias!",54.0,yes
56,2023-09-15_07h14.23.051,Unsyncopated1,s23,21.0,feminino,right,Espanya,Català (i castellà),Upper secondary,no,no,B,1,when,L3,unsyncopated,when,when,56,Online_whenL3//a.mo35.none.wav,ji,je,ka,sil,ga,fu,ñe,sil1,sa,li,sil2,['-'],,,none,none,,,,mo,1,testConjL4Syn//r1.s2.2.wav,3.0,conjunction_syn,syncopated,a,s2,rule,rule,L4,m,1.7674,4.0,0.0,1.7514,4.0,2.0,Català,0.0,Castellà,0.0,Anglès,5.0,Italià,16.0,4.0,4.0,yes,no,yes,Cant,8,Piano,8,Guitarra,8,,,"La fase 1 del primer lenguaje ha sido mucho más larga que las demás, cosa que al principio me ha confundido porque dejaba de sonar la voz de los otros lenguajes mucho antes. Eso me ha distraído un poco al principio pero luego he visto que formaba parte del propio experimento. Muchas gracias!",54.0,yes
57,2023-09-15_07h14.23.051,Unsyncopated1,s23,21.0,feminino,right,Espanya,Català (i castellà),Upper secondary,no,no,B,1,when,L3,unsyncopated,when,when,57,Online_whenL3//a.mo32.none.wav,ji,gu,je,sil,ga,do,ñe,sil1,chu,le,sil2,['-'],,,none,none,,,,mo,1,testConjL4Syn//r2.s1.1.wav,3.0,conjunction_syn,syncopated,b,s1,rule,rule,L4,m,1.4178,2.0,0.0,0.5011,4.0,2.0,Català,0.0,Castellà,0.0,Anglès,5.0,Italià,16.0,4.0,4.0,yes,no,yes,Cant,8,Piano,8,Guitarra,8,,,"La fase 1 del primer lenguaje ha sido mucho más larga que las demás, cosa que al principio me ha confundido porque dejaba de sonar la voz de los otros lenguajes mucho antes. Eso me ha distraído un poco al principio pero luego he visto que formaba parte del propio experimento. Muchas gracias!",54.0,yes
58,2023-09-15_07h14.23.051,Unsyncopated1,s23,21.0,feminino,right,Espanya,Català (i castellà),Upper secondary,no,no,B,1,when,L3,unsyncopated,when,when,58,Online_whenL3//a.mo33.0.wav,mo,fu,di,sil,ga,do,le,sil1,ñe,ka,sil2,['catch'],[0.4134999999999991],[0.4134999999999991],0.0,beat,0.4134999999999991,0.4134999999999991,"[""space""]",mo,1,testConjL4Syn//r1.s1.1.wav,3.0,conjunction_syn,syncopated,a,s1,rule,rule,L4,z,1.7505,5.0,1.0,0.8037,4.0,2.0,Català,0.0,Castellà,0.0,Anglès,5.0,Italià,16.0,4.0,4.0,yes,no,yes,Cant,8,Piano,8,Guitarra,8,,,"La fase 1 del primer lenguaje ha sido mucho más larga que las demás, cosa que al principio me ha confundido porque dejaba de sonar la voz de los otros lenguajes mucho antes. Eso me ha distraído un poco al principio pero luego he visto que formaba parte del propio experimento. Muchas gracias!",54.0,yes
59,2023-09-15_07h14.23.051,Unsyncopated1,s23,21.0,feminino,right,Espanya,Català (i castellà),Upper secondary,no,no,B,1,when,L3,unsyncopated,when,when,59,Online_whenL3//a.mo34.222.wav,do,mo,ga,sil,chu,ka,ji,sil1,di,ko,sil2,['catch'],[0.9576999999284226],[0.9576999999284226],0.222,no_beat,0.7356999999284226,0.7356999999284226,"[""space""]",mo,1,testConjL4Syn//r2.s2.1.wav,3.0,conjunction_syn,syncopated,b,s2,rule,rule,L4,m,0.3185,3.0,0.0,0.5188,4.0,2.0,Català,0.0,Castellà,0.0,Anglès,5.0,Italià,16.0,4.0,4.0,yes,no,yes,Cant,8,Piano,8,Guitarra,8,,,"La fase 1 del primer lenguaje ha sido mucho más larga que las demás, cosa que al principio me ha confundido porque dejaba de sonar la voz de los otros lenguajes mucho antes. Eso me ha distraído un poco al principio pero luego he visto que formaba parte del propio experimento. Muchas gracias!",54.0,yes
60,2023-09-15_07h14.23.051,Unsyncopated1,s23,21.0,feminino,right,Espanya,Català (i castellà),Upper secondary,no,no,B,1,when,L3,unsyncopated,when,when,60,Online_whenL3//b.ñe17.1998.wav,fu,ga,ka,sil,ji,chu,di,sil1,je,ñe,sil2,['catch'],[2.54040000009536],[2.54040000009536],1.998,no_beat,0.5424000000953602,0.5424000000953602,"[""space""]",ñe,2,testConjL4Syn//time_viol.r2.s2.0.wav,3.0,conjunction_syn,syncopated,b,s2,no_rule,time,L4,z,2.3016,4.0,0.0,0.6686,4.0,2.0,Català,0.0,Castellà,0.0,Anglès,5.0,Italià,16.0,4.0,4.0,yes,no,yes,Cant,8,Piano,8,Guitarra,8,,,"La fase 1 del primer lenguaje ha sido mucho más larga que las demás, cosa que al principio me ha confundido porque dejaba de sonar la voz de los otros lenguajes mucho antes. Eso me ha distraído un poco al principio pero luego he visto que formaba parte del propio experimento. Muchas gracias!",54.0,yes
61,2023-09-15_07h14.23.051,Unsyncopated1,s23,21.0,feminino,right,Espanya,Català (i castellà),Upper secondary,no,no,B,1,when,L3,unsyncopated,when,when,61,Online_whenL3//b.ñe18.none.wav,sa,di,chu,sil,do,fu,ko,sil1,gu,ji,sil2,['-'],,,none,none,,,,ñe,2,testConjL4Syn//cat_viol.r2.s2.0.wav,3.0,conjunction_syn,syncopated,b,s2,no_rule,cat,L4,z,4.8507,3.0,0.0,1.6178,4.0,2.0,Català,0.0,Castellà,0.0,Anglès,5.0,Italià,16.0,4.0,4.0,yes,no,yes,Cant,8,Piano,8,Guitarra,8,,,"La fase 1 del primer lenguaje ha sido mucho más larga que las demás, cosa que al principio me ha confundido porque dejaba de sonar la voz de los otros lenguajes mucho antes. Eso me ha distraído un poco al principio pero luego he visto que formaba parte del propio experimento. Muchas gracias!",54.0,yes
62,2023-09-15_07h14.23.051,Unsyncopated1,s23,21.0,feminino,right,Espanya,Català (i castellà),Upper secondary,no,no,B,1,when,L3,unsyncopated,when,when,62,Online_whenL3//b.ñe16.1110.wav,do,je,li,sil,gu,ñe,sa,sil1,ji,ko,sil2,['catch'],[1.7519999999999527],[1.7519999999999527],1.11,no_beat,0.6419999999999526,0.6419999999999526,"[""space""]",ñe,2,testConjL4Syn//r2.s2.2.wav,3.0,conjunction_syn,syncopated,b,s2,rule,rule,L4,z,0.4177,5.0,1.0,1.6517,4.0,2.0,Català,0.0,Castellà,0.0,Anglès,5.0,Italià,16.0,4.0,4.0,yes,no,yes,Cant,8,Piano,8,Guitarra,8,,,"La fase 1 del primer lenguaje ha sido mucho más larga que las demás, cosa que al principio me ha confundido porque dejaba de sonar la voz de los otros lenguajes mucho antes. Eso me ha distraído un poco al principio pero luego he visto que formaba parte del propio experimento. Muchas gracias!",54.0,yes
63,2023-09-15_07h14.23.051,Unsyncopated1,s23,21.0,feminino,right,Espanya,Català (i castellà),Upper secondary,no,no,B,1,when,L3,unsyncopated,when,when,63,Online_whenL3//b.ñe19.1776.wav,ji,mo,li,sil,le,ko,fu,sil1,ñe,do,sil2,['catch'],[2.3186999999284126],[2.3186999999284126],1.776,beat,0.5426999999284126,0.5426999999284126,"[""space""]",ñe,2,testConjL4Syn//time_viol.r2.s1.0.wav,3.0,conjunction_syn,syncopated,b,s1,no_rule,time,L4,z,0.385,5.0,0.0,0.5184,4.0,2.0,Català,0.0,Castellà,0.0,Anglès,5.0,Italià,16.0,4.0,4.0,yes,no,yes,Cant,8,Piano,8,Guitarra,8,,,"La fase 1 del primer lenguaje ha sido mucho más larga que las demás, cosa que al principio me ha confundido porque dejaba de sonar la voz de los otros lenguajes mucho antes. Eso me ha distraído un poco al principio pero luego he visto que formaba parte del propio experimento. Muchas gracias!",54.0,yes
64,2023-09-15_07h14.23.051,Unsyncopated1,s23,21.0,feminino,right,Espanya,Català (i castellà),Upper secondary,no,no,B,1,when,L3,unsyncopated,when,when,64,Online_whenL3//d.ji10.444.wav,do,ga,ji,sil,di,sa,chu,sil1,ka,ko,sil2,['catch'],[0.8581000000237964],[0.8581000000237964],0.444,no_beat,0.4141000000237964,0.4141000000237964,"[""space""]",ji,4,testConjL4Syn//dep_viol.r1.s2.0.wav,3.0,conjunction_syn,syncopated,a,s2,no_rule,dep,L4,m,0.8849,3.0,1.0,0.5851,4.0,2.0,Català,0.0,Castellà,0.0,Anglès,5.0,Italià,16.0,4.0,4.0,yes,no,yes,Cant,8,Piano,8,Guitarra,8,,,"La fase 1 del primer lenguaje ha sido mucho más larga que las demás, cosa que al principio me ha confundido porque dejaba de sonar la voz de los otros lenguajes mucho antes. Eso me ha distraído un poco al principio pero luego he visto que formaba parte del propio experimento. Muchas gracias!",54.0,yes
65,2023-09-15_07h14.23.051,Unsyncopated1,s23,21.0,feminino,right,Espanya,Català (i castellà),Upper secondary,no,no,B,1,when,L3,unsyncopated,when,when,65,Online_whenL3//d.ji8.none.wav,je,ko,ñe,sil,chu,ga,do,sil1,li,gu,sil2,['-'],,,none,none,,,,ji,4,testConjL4Syn//r2.s2.0.wav,3.0,conjunction_syn,syncopated,b,s2,rule,rule,L4,z,0.0346,5.0,1.0,1.1345,4.0,2.0,Català,0.0,Castellà,0.0,Anglès,5.0,Italià,16.0,4.0,4.0,yes,no,yes,Cant,8,Piano,8,Guitarra,8,,,"La fase 1 del primer lenguaje ha sido mucho más larga que las demás, cosa que al principio me ha confundido porque dejaba de sonar la voz de los otros lenguajes mucho antes. Eso me ha distraído un poco al principio pero luego he visto que formaba parte del propio experimento. Muchas gracias!",54.0,yes
66,2023-09-15_07h14.23.051,Unsyncopated1,s23,21.0,feminino,right,Espanya,Català (i castellà),Upper secondary,no,no,B,1,when,L3,unsyncopated,when,when,66,Online_whenL3//d.ji9.1776.wav,chu,ñe,li,sil,ga,di,gu,sil1,ji,fu,sil2,['catch'],[2.3295000000000528],[2.3295000000000528],1.776,beat,0.5535000000000527,0.5535000000000527,"[""space""]",ji,4,testConjL4Syn//r1.s1.0.wav,3.0,conjunction_syn,syncopated,a,s1,rule,rule,L4,m,0.5687,4.0,0.0,0.6525,4.0,2.0,Català,0.0,Castellà,0.0,Anglès,5.0,Italià,16.0,4.0,4.0,yes,no,yes,Cant,8,Piano,8,Guitarra,8,,,"La fase 1 del primer lenguaje ha sido mucho más larga que las demás, cosa que al principio me ha confundido porque dejaba de sonar la voz de los otros lenguajes mucho antes. Eso me ha distraído un poco al principio pero luego he visto que formaba parte del propio experimento. Muchas gracias!",54.0,yes
67,2023-09-15_07h14.23.051,Unsyncopated1,s23,21.0,feminino,right,Espanya,Català (i castellà),Upper secondary,no,no,B,1,when,L3,unsyncopated,when,when,67,Online_whenL3//d.ji11.none.wav,ñe,je,fu,sil,mo,ka,li,sil1,ko,gu,sil2,['-'],,,none,none,,,,ji,4,testConjL4Syn//r2.s1.2.wav,3.0,conjunction_syn,syncopated,b,s1,rule,rule,L4,m,0.2687,4.0,0.0,0.5015,4.0,2.0,Català,0.0,Castellà,0.0,Anglès,5.0,Italià,16.0,4.0,4.0,yes,no,yes,Cant,8,Piano,8,Guitarra,8,,,"La fase 1 del primer lenguaje ha sido mucho más larga que las demás, cosa que al principio me ha confundido porque dejaba de sonar la voz de los otros lenguajes mucho antes. Eso me ha distraído un poco al principio pero luego he visto que formaba parte del propio experimento. Muchas gracias!",54.0,yes
68,2023-09-15_07h14.23.051,Unsyncopated1,s23,21.0,feminino,right,Espanya,Català (i castellà),Upper secondary,no,no,B,1,when,L3,unsyncopated,when,when,68,Online_whenL3//c.gu15.none.wav,je,chu,li,sil,mo,ko,di,sil1,ji,do,sil2,['-'],,,none,none,,,,gu,3,testConjL4Syn//dep_viol.r2.s1.0.wav,3.0,conjunction_syn,syncopated,b,s1,no_rule,dep,L4,m,0.3007,4.0,1.0,0.6848,4.0,2.0,Català,0.0,Castellà,0.0,Anglès,5.0,Italià,16.0,4.0,4.0,yes,no,yes,Cant,8,Piano,8,Guitarra,8,,,"La fase 1 del primer lenguaje ha sido mucho más larga que las demás, cosa que al principio me ha confundido porque dejaba de sonar la voz de los otros lenguajes mucho antes. Eso me ha distraído un poco al principio pero luego he visto que formaba parte del propio experimento. Muchas gracias!",54.0,yes
69,2023-09-15_07h14.23.051,Unsyncopated1,s23,21.0,feminino,right,Espanya,Català (i castellà),Upper secondary,no,no,B,1,when,L3,unsyncopated,when,when,69,Online_whenL3//c.gu14.444.wav,ka,le,gu,sil,chu,mo,do,sil1,fu,ji,sil2,['catch'],[0.8943999999761445],[0.8943999999761445],0.444,no_beat,0.4503999999761445,0.4503999999761445,"[""space""]",gu,3,testConjL4Syn//dep_viol.r1.s1.0.wav,3.0,conjunction_syn,syncopated,a,s1,no_rule,dep,L4,z,0.368,5.0,0.0,0.6349,4.0,2.0,Català,0.0,Castellà,0.0,Anglès,5.0,Italià,16.0,4.0,4.0,yes,no,yes,Cant,8,Piano,8,Guitarra,8,,,"La fase 1 del primer lenguaje ha sido mucho más larga que las demás, cosa que al principio me ha confundido porque dejaba de sonar la voz de los otros lenguajes mucho antes. Eso me ha distraído un poco al principio pero luego he visto que formaba parte del propio experimento. Muchas gracias!",54.0,yes
70,2023-09-15_07h14.23.051,Unsyncopated1,s23,21.0,feminino,right,Espanya,Català (i castellà),Upper secondary,no,no,B,1,when,L3,unsyncopated,when,when,70,Online_whenL3//c.gu12.0.wav,gu,sa,ji,sil,je,ko,do,sil1,le,chu,sil2,['catch'],[0.5087999999523163],[0.5087999999523163],0.0,beat,0.5087999999523163,0.5087999999523163,"[""space""]",gu,3,testConjL4Syn//cat_viol.r1.s2.0.wav,3.0,conjunction_syn,syncopated,a,s2,no_rule,cat,L4,m,4.1343,2.0,1.0,0.584,4.0,2.0,Català,0.0,Castellà,0.0,Anglès,5.0,Italià,16.0,4.0,4.0,yes,no,yes,Cant,8,Piano,8,Guitarra,8,,,"La fase 1 del primer lenguaje ha sido mucho más larga que las demás, cosa que al principio me ha confundido porque dejaba de sonar la voz de los otros lenguajes mucho antes. Eso me ha distraído un poco al principio pero luego he visto que formaba parte del propio experimento. Muchas gracias!",54.0,yes
71,2023-09-15_07h14.23.051,Unsyncopated1,s23,21.0,feminino,right,Espanya,Català (i castellà),Upper secondary,no,no,B,1,when,L3,unsyncopated,when,when,71,Online_whenL3//c.gu13.none.wav,ñe,ko,chu,sil,di,je,fu,sil1,do,le,sil2,['-'],,,none,none,,,,gu,3,testConjL4Syn//r2.s1.0.wav,3.0,conjunction_syn,syncopated,b,s1,rule,rule,L4,z,0.3348,6.0,1.0,0.4352,4.0,2.0,Català,0.0,Castellà,0.0,Anglès,5.0,Italià,16.0,4.0,4.0,yes,no,yes,Cant,8,Piano,8,Guitarra,8,,,"La fase 1 del primer lenguaje ha sido mucho más larga que las demás, cosa que al principio me ha confundido porque dejaba de sonar la voz de los otros lenguajes mucho antes. Eso me ha distraído un poco al principio pero luego he visto que formaba parte del propio experimento. Muchas gracias!",54.0,yes
72,2023-09-15_07h14.23.051,Unsyncopated1,s23,21.0,feminino,right,Espanya,Català (i castellà),Upper secondary,no,no,B,1,when,L3,unsyncopated,when,when,72,Online_whenL3//d.ji7.1776.wav,do,ko,ga,sil,di,chu,sa,sil1,ji,le,sil2,['catch'],[2.21550000000002],[2.21550000000002],1.776,beat,0.43950000000002,0.43950000000002,"[""space""]",ji,4,testWhatL2Uns//r2.s2.1.wav,4.0,what,unsyncopated,b,s2,rule,rule,L2,z,0.3862,6.0,1.0,0.7207,4.0,2.0,Català,0.0,Castellà,0.0,Anglès,5.0,Italià,16.0,4.0,4.0,yes,no,yes,Cant,8,Piano,8,Guitarra,8,,,"La fase 1 del primer lenguaje ha sido mucho más larga que las demás, cosa que al principio me ha confundido porque dejaba de sonar la voz de los otros lenguajes mucho antes. Eso me ha distraído un poco al principio pero luego he visto que formaba parte del propio experimento. Muchas gracias!",54.0,yes
73,2023-09-15_07h14.23.051,Unsyncopated1,s23,21.0,feminino,right,Espanya,Català (i castellà),Upper secondary,no,no,B,1,when,L3,unsyncopated,when,when,73,Online_whenL3//d.ji5.none.wav,di,fu,li,sil,le,chu,je,sil1,ko,sa,sil2,['-'],,,none,none,,,,ji,4,testWhatL2Uns//r1.s1.2.wav,4.0,what,unsyncopated,a,s1,rule,rule,L2,z,0.5326,5.0,1.0,0.3837,4.0,2.0,Català,0.0,Castellà,0.0,Anglès,5.0,Italià,16.0,4.0,4.0,yes,no,yes,Cant,8,Piano,8,Guitarra,8,,,"La fase 1 del primer lenguaje ha sido mucho más larga que las demás, cosa que al principio me ha confundido porque dejaba de sonar la voz de los otros lenguajes mucho antes. Eso me ha distraído un poco al principio pero luego he visto que formaba parte del propio experimento. Muchas gracias!",54.0,yes
74,2023-09-15_07h14.23.051,Unsyncopated1,s23,21.0,feminino,right,Espanya,Català (i castellà),Upper secondary,no,no,B,1,when,L3,unsyncopated,when,when,74,Online_whenL3//d.ji4.0.wav,ji,chu,do,sil,mo,ka,ga,sil1,ko,fu,sil2,['catch'],[0.5304999999999609],[0.5304999999999609],0.0,beat,0.5304999999999609,0.5304999999999609,"[""space""]",ji,4,testWhatL2Uns//time_viol.r1.s2.0.wav,4.0,what,unsyncopated,a,s2,no_rule,time,L2,z,0.6963,3.0,0.0,0.5156,4.0,2.0,Català,0.0,Castellà,0.0,Anglès,5.0,Italià,16.0,4.0,4.0,yes,no,yes,Cant,8,Piano,8,Guitarra,8,,,"La fase 1 del primer lenguaje ha sido mucho más larga que las demás, cosa que al principio me ha confundido porque dejaba de sonar la voz de los otros lenguajes mucho antes. Eso me ha distraído un poco al principio pero luego he visto que formaba parte del propio experimento. Muchas gracias!",54.0,yes
75,2023-09-15_07h14.23.051,Unsyncopated1,s23,21.0,feminino,right,Espanya,Català (i castellà),Upper secondary,no,no,B,1,when,L3,unsyncopated,when,when,75,Online_whenL3//d.ji6.1998.wav,gu,di,ko,sil,mo,fu,le,sil1,ñe,ji,sil2,['catch'],[2.5636000000238255],[2.5636000000238255],1.998,no_beat,0.5656000000238255,0.5656000000238255,"[""space""]",ji,4,testWhatL2Uns//r2.s1.0.wav,4.0,what,unsyncopated,b,s1,rule,rule,L2,m,0.5683,2.0,0.0,1.2017,4.0,2.0,Català,0.0,Castellà,0.0,Anglès,5.0,Italià,16.0,4.0,4.0,yes,no,yes,Cant,8,Piano,8,Guitarra,8,,,"La fase 1 del primer lenguaje ha sido mucho más larga que las demás, cosa que al principio me ha confundido porque dejaba de sonar la voz de los otros lenguajes mucho antes. Eso me ha distraído un poco al principio pero luego he visto que formaba parte del propio experimento. Muchas gracias!",54.0,yes
76,2023-09-15_07h14.23.051,Unsyncopated1,s23,21.0,feminino,right,Espanya,Català (i castellà),Upper secondary,no,no,B,1,when,L3,unsyncopated,when,when,76,Online_whenL3//a.mo10.none.wav,di,ko,le,sil,chu,fu,ka,sil1,sa,ji,sil2,['-'],,,none,none,,,,mo,1,testWhatL2Uns//r2.s1.2.wav,4.0,what,unsyncopated,b,s1,rule,rule,L2,m,0.3521,3.0,0.0,0.5852,4.0,2.0,Català,0.0,Castellà,0.0,Anglès,5.0,Italià,16.0,4.0,4.0,yes,no,yes,Cant,8,Piano,8,Guitarra,8,,,"La fase 1 del primer lenguaje ha sido mucho más larga que las demás, cosa que al principio me ha confundido porque dejaba de sonar la voz de los otros lenguajes mucho antes. Eso me ha distraído un poco al principio pero luego he visto que formaba parte del propio experimento. Muchas gracias!",54.0,yes
77,2023-09-15_07h14.23.051,Unsyncopated1,s23,21.0,feminino,right,Espanya,Català (i castellà),Upper secondary,no,no,B,1,when,L3,unsyncopated,when,when,77,Online_whenL3//a.mo11.none.wav,chu,li,ñe,sil,je,fu,le,sil1,ko,di,sil2,['-'],,,none,none,,,,mo,1,testWhatL2Uns//r1.s1.0.wav,4.0,what,unsyncopated,a,s1,rule,rule,L2,m,4.1672,3.0,0.0,0.552,4.0,2.0,Català,0.0,Castellà,0.0,Anglès,5.0,Italià,16.0,4.0,4.0,yes,no,yes,Cant,8,Piano,8,Guitarra,8,,,"La fase 1 del primer lenguaje ha sido mucho más larga que las demás, cosa que al principio me ha confundido porque dejaba de sonar la voz de los otros lenguajes mucho antes. Eso me ha distraído un poco al principio pero luego he visto que formaba parte del propio experimento. Muchas gracias!",54.0,yes
78,2023-09-15_07h14.23.051,Unsyncopated1,s23,21.0,feminino,right,Espanya,Català (i castellà),Upper secondary,no,no,B,1,when,L3,unsyncopated,when,when,78,Online_whenL3//a.mo9.1332.wav,fu,sa,do,sil,ji,gu,mo,sil1,ka,je,sil2,['catch'],[1.7811000000237982],[1.7811000000237982],1.332,no_beat,0.4491000000237981,0.4491000000237981,"[""space""]",mo,1,testWhatL2Uns//cat_viol.r1.s1.0.wav,4.0,what,unsyncopated,a,s1,no_rule,cat,L2,z,0.3024,6.0,0.0,0.4178,4.0,2.0,Català,0.0,Castellà,0.0,Anglès,5.0,Italià,16.0,4.0,4.0,yes,no,yes,Cant,8,Piano,8,Guitarra,8,,,"La fase 1 del primer lenguaje ha sido mucho más larga que las demás, cosa que al principio me ha confundido porque dejaba de sonar la voz de los otros lenguajes mucho antes. Eso me ha distraído un poco al principio pero luego he visto que formaba parte del propio experimento. Muchas gracias!",54.0,yes
79,2023-09-15_07h14.23.051,Unsyncopated1,s23,21.0,feminino,right,Espanya,Català (i castellà),Upper secondary,no,no,B,1,when,L3,unsyncopated,when,when,79,Online_whenL3//a.mo8.1776.wav,je,ga,ka,sil,le,li,ñe,sil1,mo,gu,sil2,"['false alarm', 'catch']","[0.8811000000238209, 2.346899999976131]",[2.346899999976131],1.776,beat,0.5708999999761308,0.5708999999761308,"[""space"",""space""]",mo,1,testWhatL2Uns//cat_viol.r2.s2.0.wav,4.0,what,unsyncopated,b,s2,no_rule,cat,L2,m,1.3189,3.0,1.0,0.5181,4.0,2.0,Català,0.0,Castellà,0.0,Anglès,5.0,Italià,16.0,4.0,4.0,yes,no,yes,Cant,8,Piano,8,Guitarra,8,,,"La fase 1 del primer lenguaje ha sido mucho más larga que las demás, cosa que al principio me ha confundido porque dejaba de sonar la voz de los otros lenguajes mucho antes. Eso me ha distraído un poco al principio pero luego he visto que formaba parte del propio experimento. Muchas gracias!",54.0,yes
80,2023-09-15_07h14.23.051,Unsyncopated1,s23,21.0,feminino,right,Espanya,Català (i castellà),Upper secondary,no,no,B,1,when,L3,unsyncopated,when,when,80,Online_whenL3//d.ji28.888.wav,di,mo,do,sil,ji,chu,je,sil1,ka,ko,sil2,['catch'],[1.3507000000475955],[1.3507000000475955],0.888,beat,0.4627000000475955,0.4627000000475955,"[""space""]",ji,4,testWhatL2Uns//r1.s2.2.wav,4.0,what,unsyncopated,a,s2,rule,rule,L2,z,0.4025,5.0,1.0,0.5502,4.0,2.0,Català,0.0,Castellà,0.0,Anglès,5.0,Italià,16.0,4.0,4.0,yes,no,yes,Cant,8,Piano,8,Guitarra,8,,,"La fase 1 del primer lenguaje ha sido mucho más larga que las demás, cosa que al principio me ha confundido porque dejaba de sonar la voz de los otros lenguajes mucho antes. Eso me ha distraído un poco al principio pero luego he visto que formaba parte del propio experimento. Muchas gracias!",54.0,yes
81,2023-09-15_07h14.23.051,Unsyncopated1,s23,21.0,feminino,right,Espanya,Català (i castellà),Upper secondary,no,no,B,1,when,L3,unsyncopated,when,when,81,Online_whenL3//d.ji29.none.wav,ñe,fu,ga,sil,sa,di,ko,sil1,je,gu,sil2,['-'],,,none,none,,,,ji,4,testWhatL2Uns//time_viol.r2.s2.0.wav,4.0,what,unsyncopated,b,s2,no_rule,time,L2,z,3.4338,5.0,0.0,1.0352,4.0,2.0,Català,0.0,Castellà,0.0,Anglès,5.0,Italià,16.0,4.0,4.0,yes,no,yes,Cant,8,Piano,8,Guitarra,8,,,"La fase 1 del primer lenguaje ha sido mucho más larga que las demás, cosa que al principio me ha confundido porque dejaba de sonar la voz de los otros lenguajes mucho antes. Eso me ha distraído un poco al principio pero luego he visto que formaba parte del propio experimento. Muchas gracias!",54.0,yes
82,2023-09-15_07h14.23.051,Unsyncopated1,s23,21.0,feminino,right,Espanya,Català (i castellà),Upper secondary,no,no,B,1,when,L3,unsyncopated,when,when,82,Online_whenL3//d.ji31.none.wav,ga,ko,di,sil,li,sa,ka,sil1,gu,chu,sil2,['-'],,,none,none,,,,ji,4,testWhatL2Uns//r2.s2.2.wav,4.0,what,unsyncopated,b,s2,rule,rule,L2,m,0.7687,3.0,0.0,0.551,4.0,2.0,Català,0.0,Castellà,0.0,Anglès,5.0,Italià,16.0,4.0,4.0,yes,no,yes,Cant,8,Piano,8,Guitarra,8,,,"La fase 1 del primer lenguaje ha sido mucho más larga que las demás, cosa que al principio me ha confundido porque dejaba de sonar la voz de los otros lenguajes mucho antes. Eso me ha distraído un poco al principio pero luego he visto que formaba parte del propio experimento. Muchas gracias!",54.0,yes
83,2023-09-15_07h14.23.051,Unsyncopated1,s23,21.0,feminino,right,Espanya,Català (i castellà),Upper secondary,no,no,B,1,when,L3,unsyncopated,when,when,83,Online_whenL3//d.ji30.none.wav,mo,je,do,sil,sa,fu,di,sil1,li,gu,sil2,['false alarm'],[1.2311000000238437],[1.2311000000238437],none,none,,,"[""space""]",ji,4,testWhatL2Uns//time_viol.r1.s1.0.wav,4.0,what,unsyncopated,a,s1,no_rule,time,L2,m,0.3686,3.0,1.0,0.6192,4.0,2.0,Català,0.0,Castellà,0.0,Anglès,5.0,Italià,16.0,4.0,4.0,yes,no,yes,Cant,8,Piano,8,Guitarra,8,,,"La fase 1 del primer lenguaje ha sido mucho más larga que las demás, cosa que al principio me ha confundido porque dejaba de sonar la voz de los otros lenguajes mucho antes. Eso me ha distraído un poco al principio pero luego he visto que formaba parte del propio experimento. Muchas gracias!",54.0,yes
84,2023-09-15_07h14.23.051,Unsyncopated1,s23,21.0,feminino,right,Espanya,Català (i castellà),Upper secondary,no,no,B,1,when,L3,unsyncopated,when,when,84,Online_whenL3//a.mo26.none.wav,di,li,ka,sil,chu,ji,je,sil1,do,ñe,sil2,['-'],,,none,none,,,,mo,1,testWhatL2Uns//r1.s2.0.wav,4.0,what,unsyncopated,a,s2,rule,rule,L2,m,0.3853,3.0,0.0,0.585,4.0,2.0,Català,0.0,Castellà,0.0,Anglès,5.0,Italià,16.0,4.0,4.0,yes,no,yes,Cant,8,Piano,8,Guitarra,8,,,"La fase 1 del primer lenguaje ha sido mucho más larga que las demás, cosa que al principio me ha confundido porque dejaba de sonar la voz de los otros lenguajes mucho antes. Eso me ha distraído un poco al principio pero luego he visto que formaba parte del propio experimento. Muchas gracias!",54.0,yes
85,2023-09-15_07h14.23.051,Unsyncopated1,s23,21.0,feminino,right,Espanya,Català (i castellà),Upper secondary,no,no,B,1,when,L3,unsyncopated,when,when,85,Online_whenL3//a.mo25.none.wav,sa,ji,ga,sil,do,ñe,je,sil1,di,ka,sil2,['-'],,,none,none,,,,mo,1,testWhatL2Uns//r1.s2.1.wav,4.0,what,unsyncopated,a,s2,rule,rule,L2,z,0.5844,3.0,1.0,1.8185,4.0,2.0,Català,0.0,Castellà,0.0,Anglès,5.0,Italià,16.0,4.0,4.0,yes,no,yes,Cant,8,Piano,8,Guitarra,8,,,"La fase 1 del primer lenguaje ha sido mucho más larga que las demás, cosa que al principio me ha confundido porque dejaba de sonar la voz de los otros lenguajes mucho antes. Eso me ha distraído un poco al principio pero luego he visto que formaba parte del propio experimento. Muchas gracias!",54.0,yes
86,2023-09-15_07h14.23.051,Unsyncopated1,s23,21.0,feminino,right,Espanya,Català (i castellà),Upper secondary,no,no,B,1,when,L3,unsyncopated,when,when,86,Online_whenL3//a.mo24.1998.wav,ji,le,do,sil,li,chu,fu,sil1,gu,mo,sil2,['catch_delay'],[0.6814999999999747],[0.6814999999999747],1.998,no_beat,0.6814999999999747,0.6814999999999747,,mo,1,testWhatL2Uns//time_viol.r2.s1.0.wav,4.0,what,unsyncopated,b,s1,no_rule,time,L2,m,0.7181,4.0,1.0,0.7186,4.0,2.0,Català,0.0,Castellà,0.0,Anglès,5.0,Italià,16.0,4.0,4.0,yes,no,yes,Cant,8,Piano,8,Guitarra,8,,,"La fase 1 del primer lenguaje ha sido mucho más larga que las demás, cosa que al principio me ha confundido porque dejaba de sonar la voz de los otros lenguajes mucho antes. Eso me ha distraído un poco al principio pero luego he visto que formaba parte del propio experimento. Muchas gracias!",54.0,yes
87,2023-09-15_07h14.23.051,Unsyncopated1,s23,21.0,feminino,right,Espanya,Català (i castellà),Upper secondary,no,no,B,1,when,L3,unsyncopated,when,when,87,Online_whenL3//a.mo27.888.wav,fu,le,ka,sil,mo,ko,gu,sil1,chu,di,sil2,['catch'],"[0.015499999999974534, 1.764399999976149]",[1.764399999976149],0.888,beat,0.876399999976149,0.876399999976149,"[""space"",""space""]",mo,1,testWhatL2Uns//r2.s1.1.wav,4.0,what,unsyncopated,b,s1,rule,rule,L2,m,2.9346,4.0,0.0,0.3353,4.0,2.0,Català,0.0,Castellà,0.0,Anglès,5.0,Italià,16.0,4.0,4.0,yes,no,yes,Cant,8,Piano,8,Guitarra,8,,,"La fase 1 del primer lenguaje ha sido mucho más larga que las demás, cosa que al principio me ha confundido porque dejaba de sonar la voz de los otros lenguajes mucho antes. Eso me ha distraído un poco al principio pero luego he visto que formaba parte del propio experimento. Muchas gracias!",54.0,yes
88,2023-09-15_07h14.23.051,Unsyncopated1,s23,21.0,feminino,right,Espanya,Català (i castellà),Upper secondary,no,no,B,1,when,L3,unsyncopated,when,when,88,Online_whenL3//a.mo28.0.wav,mo,sa,ka,sil,ga,ko,fu,sil1,gu,do,sil2,['catch'],[0.7505999999045798],[0.7505999999045798],0.0,beat,0.7505999999045798,0.7505999999045798,"[""space""]",mo,1,testWhatL2Uns//r2.s2.0.wav,4.0,what,unsyncopated,b,s2,rule,rule,L2,m,0.3187,3.0,0.0,0.3526,4.0,2.0,Català,0.0,Castellà,0.0,Anglès,5.0,Italià,16.0,4.0,4.0,yes,no,yes,Cant,8,Piano,8,Guitarra,8,,,"La fase 1 del primer lenguaje ha sido mucho más larga que las demás, cosa que al principio me ha confundido porque dejaba de sonar la voz de los otros lenguajes mucho antes. Eso me ha distraído un poco al principio pero luego he visto que formaba parte del propio experimento. Muchas gracias!",54.0,yes
89,2023-09-15_07h14.23.051,Unsyncopated1,s23,21.0,feminino,right,Espanya,Català (i castellà),Upper secondary,no,no,B,1,when,L3,unsyncopated,when,when,89,Online_whenL3//a.mo31.1776.wav,li,gu,ñe,sil,ga,ji,le,sil1,mo,je,sil2,['catch'],[2.3985999999046044],[2.3985999999046044],1.776,beat,0.6225999999046044,0.6225999999046044,"[""space""]",mo,1,testWhatL2Uns//dep_viol.r2.s2.0.wav,4.0,what,unsyncopated,b,s2,no_rule,dep,L2,m,0.4347,3.0,1.0,0.5018,4.0,2.0,Català,0.0,Castellà,0.0,Anglès,5.0,Italià,16.0,4.0,4.0,yes,no,yes,Cant,8,Piano,8,Guitarra,8,,,"La fase 1 del primer lenguaje ha sido mucho más larga que las demás, cosa que al principio me ha confundido porque dejaba de sonar la voz de los otros lenguajes mucho antes. Eso me ha distraído un poco al principio pero luego he visto que formaba parte del propio experimento. Muchas gracias!",54.0,yes
90,2023-09-15_07h14.23.051,Unsyncopated1,s23,21.0,feminino,right,Espanya,Català (i castellà),Upper secondary,no,no,B,1,when,L3,unsyncopated,when,when,90,Online_whenL3//a.mo30.none.wav,ga,li,gu,sil,chu,le,fu,sil1,ka,ñe,sil2,['-'],,,none,none,,,,mo,1,testWhatL2Uns//dep_viol.r1.s2.0.wav,4.0,what,unsyncopated,a,s2,no_rule,dep,L2,m,0.4664,3.0,1.0,0.3363,4.0,2.0,Català,0.0,Castellà,0.0,Anglès,5.0,Italià,16.0,4.0,4.0,yes,no,yes,Cant,8,Piano,8,Guitarra,8,,,"La fase 1 del primer lenguaje ha sido mucho más larga que las demás, cosa que al principio me ha confundido porque dejaba de sonar la voz de los otros lenguajes mucho antes. Eso me ha distraído un poco al principio pero luego he visto que formaba parte del propio experimento. Muchas gracias!",54.0,yes
91,2023-09-15_07h14.23.051,Unsyncopated1,s23,21.0,feminino,right,Espanya,Català (i castellà),Upper secondary,no,no,B,1,when,L3,unsyncopated,when,when,91,Online_whenL3//a.mo29.none.wav,sa,di,je,sil,li,ko,ji,sil1,ga,ñe,sil2,['-'],,,none,none,,,,mo,1,testWhatL2Uns//dep_viol.r2.s1.0.wav,4.0,what,unsyncopated,b,s1,no_rule,dep,L2,z,0.3282,3.0,0.0,0.9236,4.0,2.0,Català,0.0,Castellà,0.0,Anglès,5.0,Italià,16.0,4.0,4.0,yes,no,yes,Cant,8,Piano,8,Guitarra,8,,,"La fase 1 del primer lenguaje ha sido mucho más larga que las demás, cosa que al principio me ha confundido porque dejaba de sonar la voz de los otros lenguajes mucho antes. Eso me ha distraído un poco al principio pero luego he visto que formaba parte del propio experimento. Muchas gracias!",54.0,yes
92,2023-09-15_07h14.23.051,Unsyncopated1,s23,21.0,feminino,right,Espanya,Català (i castellà),Upper secondary,no,no,B,1,when,L3,unsyncopated,when,when,92,Online_whenL3//a.mo14.none.wav,di,ko,ga,sil,gu,do,sa,sil1,ka,chu,sil2,['-'],,,none,none,,,,mo,1,testWhatL2Uns//r1.s1.1.wav,4.0,what,unsyncopated,a,s1,rule,rule,L2,m,3.0724,2.0,0.0,0.5691,4.0,2.0,Català,0.0,Castellà,0.0,Anglès,5.0,Italià,16.0,4.0,4.0,yes,no,yes,Cant,8,Piano,8,Guitarra,8,,,"La fase 1 del primer lenguaje ha sido mucho más larga que las demás, cosa que al principio me ha confundido porque dejaba de sonar la voz de los otros lenguajes mucho antes. Eso me ha distraído un poco al principio pero luego he visto que formaba parte del propio experimento. Muchas gracias!",54.0,yes
93,2023-09-15_07h14.23.051,Unsyncopated1,s23,21.0,feminino,right,Espanya,Català (i castellà),Upper secondary,no,no,B,1,when,L3,unsyncopated,when,when,93,Online_whenL3//a.mo13.1776.wav,chu,ji,do,sil,gu,le,fu,sil1,mo,ka,sil2,['catch'],[2.1823999999761554],[2.1823999999761554],1.776,beat,0.4063999999761554,0.4063999999761554,"[""space""]",mo,1,testWhatL2Uns//cat_viol.r2.s1.0.wav,4.0,what,unsyncopated,b,s1,no_rule,cat,L2,m,0.4688,2.0,1.0,0.4347,4.0,2.0,Català,0.0,Castellà,0.0,Anglès,5.0,Italià,16.0,4.0,4.0,yes,no,yes,Cant,8,Piano,8,Guitarra,8,,,"La fase 1 del primer lenguaje ha sido mucho más larga que las demás, cosa que al principio me ha confundido porque dejaba de sonar la voz de los otros lenguajes mucho antes. Eso me ha distraído un poco al principio pero luego he visto que formaba parte del propio experimento. Muchas gracias!",54.0,yes
94,2023-09-15_07h14.23.051,Unsyncopated1,s23,21.0,feminino,right,Espanya,Català (i castellà),Upper secondary,no,no,B,1,when,L3,unsyncopated,when,when,94,Online_whenL3//a.mo15.1110.wav,ga,le,do,sil,ñe,mo,fu,sil1,di,li,sil2,['catch'],[1.6826999999284453],[1.6826999999284453],1.11,no_beat,0.5726999999284452,0.5726999999284452,"[""space""]",mo,1,testWhatL2Uns//dep_viol.r1.s1.0.wav,4.0,what,unsyncopated,a,s1,no_rule,dep,L2,z,1.367,4.0,0.0,0.772,4.0,2.0,Català,0.0,Castellà,0.0,Anglès,5.0,Italià,16.0,4.0,4.0,yes,no,yes,Cant,8,Piano,8,Guitarra,8,,,"La fase 1 del primer lenguaje ha sido mucho más larga que las demás, cosa que al principio me ha confundido porque dejaba de sonar la voz de los otros lenguajes mucho antes. Eso me ha distraído un poco al principio pero luego he visto que formaba parte del propio experimento. Muchas gracias!",54.0,yes
95,2023-09-15_07h14.23.051,Unsyncopated1,s23,21.0,feminino,right,Espanya,Català (i castellà),Upper secondary,no,no,B,1,when,L3,unsyncopated,when,when,95,Online_whenL3//a.mo12.none.wav,je,ji,ñe,sil,le,do,gu,sil1,ga,sa,sil2,['-'],,,none,none,,,,mo,1,testWhatL2Uns//cat_viol.r1.s2.0.wav,4.0,what,unsyncopated,a,s2,no_rule,cat,L2,z,0.3011,5.0,0.0,0.3505,4.0,2.0,Català,0.0,Castellà,0.0,Anglès,5.0,Italià,16.0,4.0,4.0,yes,no,yes,Cant,8,Piano,8,Guitarra,8,,,"La fase 1 del primer lenguaje ha sido mucho más larga que las demás, cosa que al principio me ha confundido porque dejaba de sonar la voz de los otros lenguajes mucho antes. Eso me ha distraído un poco al principio pero luego he visto que formaba parte del propio experimento. Muchas gracias!",54.0,yes
96,2023-09-15_07h14.23.051,Unsyncopated1,s23,21.0,feminino,right,Espanya,Català (i castellà),Upper secondary,no,no,B,1,when,L3,unsyncopated,when,when,96,Online_whenL3//a.mo6.444.wav,fu,ko,mo,sil,chu,le,ji,sil1,ka,je,sil2,['catch'],[0.9502000000476301],[0.9502000000476301],0.444,no_beat,0.5062000000476301,0.5062000000476301,"[""space""]",mo,1,,,,,,,,,,,,,,,4.0,2.0,Català,0.0,Castellà,0.0,Anglès,5.0,Italià,16.0,4.0,4.0,yes,no,yes,Cant,8,Piano,8,Guitarra,8,,,"La fase 1 del primer lenguaje ha sido mucho más larga que las demás, cosa que al principio me ha confundido porque dejaba de sonar la voz de los otros lenguajes mucho antes. Eso me ha distraído un poco al principio pero luego he visto que formaba parte del propio experimento. Muchas gracias!",54.0,yes
97,2023-09-15_07h14.23.051,Unsyncopated1,s23,21.0,feminino,right,Espanya,Català (i castellà),Upper secondary,no,no,B,1,when,L3,unsyncopated,when,when,97,Online_whenL3//a.mo5.222.wav,ko,mo,ji,sil,le,di,ga,sil1,li,sa,sil2,['catch'],[0.766200000047661],[0.766200000047661],0.222,no_beat,0.544200000047661,0.544200000047661,"[""space""]",mo,1,,,,,,,,,,,,,,,4.0,2.0,Català,0.0,Castellà,0.0,Anglès,5.0,Italià,16.0,4.0,4.0,yes,no,yes,Cant,8,Piano,8,Guitarra,8,,,"La fase 1 del primer lenguaje ha sido mucho más larga que las demás, cosa que al principio me ha confundido porque dejaba de sonar la voz de los otros lenguajes mucho antes. Eso me ha distraído un poco al principio pero luego he visto que formaba parte del propio experimento. Muchas gracias!",54.0,yes
98,2023-09-15_07h14.23.051,Unsyncopated1,s23,21.0,feminino,right,Espanya,Català (i castellà),Upper secondary,no,no,B,1,when,L3,unsyncopated,when,when,98,Online_whenL3//a.mo7.none.wav,di,ko,ñe,sil,fu,je,gu,sil1,sa,ji,sil2,['-'],,,none,none,,,,mo,1,,,,,,,,,,,,,,,4.0,2.0,Català,0.0,Castellà,0.0,Anglès,5.0,Italià,16.0,4.0,4.0,yes,no,yes,Cant,8,Piano,8,Guitarra,8,,,"La fase 1 del primer lenguaje ha sido mucho más larga que las demás, cosa que al principio me ha confundido porque dejaba de sonar la voz de los otros lenguajes mucho antes. Eso me ha distraído un poco al principio pero luego he visto que formaba parte del propio experimento. Muchas gracias!",54.0,yes
99,2023-09-15_07h14.23.051,Unsyncopated1,s23,21.0,feminino,right,Espanya,Català (i castellà),Upper secondary,no,no,B,1,when,L3,unsyncopated,when,when,99,Online_whenL3//a.mo4.1776.wav,ga,gu,sa,sil,ko,je,li,sil1,mo,do,sil2,['catch'],[2.2145000000000437],[2.2145000000000437],1.776,beat,0.4385000000000436,0.4385000000000436,"[""space""]",mo,1,,,,,,,,,,,,,,,4.0,2.0,Català,0.0,Castellà,0.0,Anglès,5.0,Italià,16.0,4.0,4.0,yes,no,yes,Cant,8,Piano,8,Guitarra,8,,,"La fase 1 del primer lenguaje ha sido mucho más larga que las demás, cosa que al principio me ha confundido porque dejaba de sonar la voz de los otros lenguajes mucho antes. Eso me ha distraído un poco al principio pero luego he visto que formaba parte del propio experimento. Muchas gracias!",54.0,yes
100,2023-09-15_07h14.23.051,Unsyncopated1,s23,21.0,feminino,right,Espanya,Català (i castellà),Upper secondary,no,no,B,1,when,L3,unsyncopated,when,when,100,Online_whenL3//a.mo3.none.wav,chu,sa,gu,sil,ka,le,je,sil1,ga,di,sil2,['-'],,,none,none,,,,mo,1,,,,,,,,,,,,,,,4.0,2.0,Català,0.0,Castellà,0.0,Anglès,5.0,Italià,16.0,4.0,4.0,yes,no,yes,Cant,8,Piano,8,Guitarra,8,,,"La fase 1 del primer lenguaje ha sido mucho más larga que las demás, cosa que al principio me ha confundido porque dejaba de sonar la voz de los otros lenguajes mucho antes. Eso me ha distraído un poco al principio pero luego he visto que formaba parte del propio experimento. Muchas gracias!",54.0,yes
101,2023-09-15_07h14.23.051,Unsyncopated1,s23,21.0,feminino,right,Espanya,Català (i castellà),Upper secondary,no,no,B,1,when,L3,unsyncopated,when,when,101,Online_whenL3//a.mo0.222.wav,do,mo,fu,sil,le,ji,gu,sil1,ka,ñe,sil2,['catch'],[0.7486000000237709],[0.7486000000237709],0.222,no_beat,0.5266000000237709,0.5266000000237709,"[""space""]",mo,1,,,,,,,,,,,,,,,4.0,2.0,Català,0.0,Castellà,0.0,Anglès,5.0,Italià,16.0,4.0,4.0,yes,no,yes,Cant,8,Piano,8,Guitarra,8,,,"La fase 1 del primer lenguaje ha sido mucho más larga que las demás, cosa que al principio me ha confundido porque dejaba de sonar la voz de los otros lenguajes mucho antes. Eso me ha distraído un poco al principio pero luego he visto que formaba parte del propio experimento. Muchas gracias!",54.0,yes
102,2023-09-15_07h14.23.051,Unsyncopated1,s23,21.0,feminino,right,Espanya,Català (i castellà),Upper secondary,no,no,B,1,when,L3,unsyncopated,when,when,102,Online_whenL3//a.mo2.none.wav,ko,li,ji,sil,je,sa,ñe,sil1,gu,ka,sil2,['-'],,,none,none,,,,mo,1,,,,,,,,,,,,,,,4.0,2.0,Català,0.0,Castellà,0.0,Anglès,5.0,Italià,16.0,4.0,4.0,yes,no,yes,Cant,8,Piano,8,Guitarra,8,,,"La fase 1 del primer lenguaje ha sido mucho más larga que las demás, cosa que al principio me ha confundido porque dejaba de sonar la voz de los otros lenguajes mucho antes. Eso me ha distraído un poco al principio pero luego he visto que formaba parte del propio experimento. Muchas gracias!",54.0,yes
103,2023-09-15_07h14.23.051,Unsyncopated1,s23,21.0,feminino,right,Espanya,Català (i castellà),Upper secondary,no,no,B,1,when,L3,unsyncopated,when,when,103,Online_whenL3//a.mo1.888.wav,do,ka,fu,sil,mo,ñe,le,sil1,ko,ji,sil2,['catch'],[1.4806000000239692],[1.4806000000239692],0.888,beat,0.5926000000239692,0.5926000000239692,"[""space""]",mo,1,,,,,,,,,,,,,,,4.0,2.0,Català,0.0,Castellà,0.0,Anglès,5.0,Italià,16.0,4.0,4.0,yes,no,yes,Cant,8,Piano,8,Guitarra,8,,,"La fase 1 del primer lenguaje ha sido mucho más larga que las demás, cosa que al principio me ha confundido porque dejaba de sonar la voz de los otros lenguajes mucho antes. Eso me ha distraído un poco al principio pero luego he visto que formaba parte del propio experimento. Muchas gracias!",54.0,yes
104,2023-09-15_07h14.23.051,Unsyncopated1,s23,21.0,feminino,right,Espanya,Català (i castellà),Upper secondary,no,no,B,1,when,L3,unsyncopated,when,when,104,Online_whenL3//b.ñe8.none.wav,le,do,ko,sil,gu,mo,fu,sil1,ji,sa,sil2,['-'],,,none,none,,,,ñe,2,,,,,,,,,,,,,,,4.0,2.0,Català,0.0,Castellà,0.0,Anglès,5.0,Italià,16.0,4.0,4.0,yes,no,yes,Cant,8,Piano,8,Guitarra,8,,,"La fase 1 del primer lenguaje ha sido mucho más larga que las demás, cosa que al principio me ha confundido porque dejaba de sonar la voz de los otros lenguajes mucho antes. Eso me ha distraído un poco al principio pero luego he visto que formaba parte del propio experimento. Muchas gracias!",54.0,yes
105,2023-09-15_07h14.23.051,Unsyncopated1,s23,21.0,feminino,right,Espanya,Català (i castellà),Upper secondary,no,no,B,1,when,L3,unsyncopated,when,when,105,Online_whenL3//b.ñe9.1110.wav,fu,do,ka,sil,li,ñe,chu,sil1,ko,ji,sil2,['catch'],[1.663900000095282],[1.663900000095282],1.11,no_beat,0.5539000000952818,0.5539000000952818,"[""space""]",ñe,2,,,,,,,,,,,,,,,4.0,2.0,Català,0.0,Castellà,0.0,Anglès,5.0,Italià,16.0,4.0,4.0,yes,no,yes,Cant,8,Piano,8,Guitarra,8,,,"La fase 1 del primer lenguaje ha sido mucho más larga que las demás, cosa que al principio me ha confundido porque dejaba de sonar la voz de los otros lenguajes mucho antes. Eso me ha distraído un poco al principio pero luego he visto que formaba parte del propio experimento. Muchas gracias!",54.0,yes
106,2023-09-15_07h14.23.051,Unsyncopated1,s23,21.0,feminino,right,Espanya,Català (i castellà),Upper secondary,no,no,B,1,when,L3,unsyncopated,when,when,106,Online_whenL3//b.ñe10.none.wav,ga,fu,le,sil,chu,ko,ka,sil1,mo,je,sil2,['-'],,,none,none,,,,ñe,2,,,,,,,,,,,,,,,4.0,2.0,Català,0.0,Castellà,0.0,Anglès,5.0,Italià,16.0,4.0,4.0,yes,no,yes,Cant,8,Piano,8,Guitarra,8,,,"La fase 1 del primer lenguaje ha sido mucho más larga que las demás, cosa que al principio me ha confundido porque dejaba de sonar la voz de los otros lenguajes mucho antes. Eso me ha distraído un poco al principio pero luego he visto que formaba parte del propio experimento. Muchas gracias!",54.0,yes
107,2023-09-15_07h14.23.051,Unsyncopated1,s23,21.0,feminino,right,Espanya,Català (i castellà),Upper secondary,no,no,B,1,when,L3,unsyncopated,when,when,107,Online_whenL3//b.ñe11.none.wav,ka,ji,li,sil,ko,ga,sa,sil1,mo,di,sil2,['-'],,,none,none,,,,ñe,2,,,,,,,,,,,,,,,4.0,2.0,Català,0.0,Castellà,0.0,Anglès,5.0,Italià,16.0,4.0,4.0,yes,no,yes,Cant,8,Piano,8,Guitarra,8,,,"La fase 1 del primer lenguaje ha sido mucho más larga que las demás, cosa que al principio me ha confundido porque dejaba de sonar la voz de los otros lenguajes mucho antes. Eso me ha distraído un poco al principio pero luego he visto que formaba parte del propio experimento. Muchas gracias!",54.0,yes
108,2023-09-15_07h14.23.051,Unsyncopated1,s23,21.0,feminino,right,Espanya,Català (i castellà),Upper secondary,no,no,B,1,when,L3,unsyncopated,when,when,108,Online_whenL3//b.ñe25.222.wav,je,ñe,ji,sil,ko,gu,fu,sil1,li,mo,sil2,['catch'],[0.9193000000714164],[0.9193000000714164],0.222,no_beat,0.6973000000714165,0.6973000000714165,"[""space""]",ñe,2,,,,,,,,,,,,,,,4.0,2.0,Català,0.0,Castellà,0.0,Anglès,5.0,Italià,16.0,4.0,4.0,yes,no,yes,Cant,8,Piano,8,Guitarra,8,,,"La fase 1 del primer lenguaje ha sido mucho más larga que las demás, cosa que al principio me ha confundido porque dejaba de sonar la voz de los otros lenguajes mucho antes. Eso me ha distraído un poco al principio pero luego he visto que formaba parte del propio experimento. Muchas gracias!",54.0,yes
109,2023-09-15_07h14.23.051,Unsyncopated1,s23,21.0,feminino,right,Espanya,Català (i castellà),Upper secondary,no,no,B,1,when,L3,unsyncopated,when,when,109,Online_whenL3//b.ñe24.none.wav,sa,je,ga,sil,mo,fu,ji,sil1,di,gu,sil2,['-'],,,none,none,,,,ñe,2,,,,,,,,,,,,,,,4.0,2.0,Català,0.0,Castellà,0.0,Anglès,5.0,Italià,16.0,4.0,4.0,yes,no,yes,Cant,8,Piano,8,Guitarra,8,,,"La fase 1 del primer lenguaje ha sido mucho más larga que las demás, cosa que al principio me ha confundido porque dejaba de sonar la voz de los otros lenguajes mucho antes. Eso me ha distraído un poco al principio pero luego he visto que formaba parte del propio experimento. Muchas gracias!",54.0,yes
110,2023-09-15_07h14.23.051,Unsyncopated1,s23,21.0,feminino,right,Espanya,Català (i castellà),Upper secondary,no,no,B,1,when,L3,unsyncopated,when,when,110,Online_whenL3//b.ñe27.none.wav,di,ko,do,sil,fu,chu,ji,sil1,ka,sa,sil2,['-'],,,none,none,,,,ñe,2,,,,,,,,,,,,,,,4.0,2.0,Català,0.0,Castellà,0.0,Anglès,5.0,Italià,16.0,4.0,4.0,yes,no,yes,Cant,8,Piano,8,Guitarra,8,,,"La fase 1 del primer lenguaje ha sido mucho más larga que las demás, cosa que al principio me ha confundido porque dejaba de sonar la voz de los otros lenguajes mucho antes. Eso me ha distraído un poco al principio pero luego he visto que formaba parte del propio experimento. Muchas gracias!",54.0,yes
111,2023-09-15_07h14.23.051,Unsyncopated1,s23,21.0,feminino,right,Espanya,Català (i castellà),Upper secondary,no,no,B,1,when,L3,unsyncopated,when,when,111,Online_whenL3//b.ñe26.none.wav,ko,mo,ji,sil,di,le,sa,sil1,fu,ka,sil2,['-'],,,none,none,,,,ñe,2,,,,,,,,,,,,,,,4.0,2.0,Català,0.0,Castellà,0.0,Anglès,5.0,Italià,16.0,4.0,4.0,yes,no,yes,Cant,8,Piano,8,Guitarra,8,,,"La fase 1 del primer lenguaje ha sido mucho más larga que las demás, cosa que al principio me ha confundido porque dejaba de sonar la voz de los otros lenguajes mucho antes. Eso me ha distraído un poco al principio pero luego he visto que formaba parte del propio experimento. Muchas gracias!",54.0,yes
112,2023-09-15_07h14.23.051,Unsyncopated1,s23,21.0,feminino,right,Espanya,Català (i castellà),Upper secondary,no,no,B,1,when,L3,unsyncopated,when,when,112,Online_whenL3//c.gu27.none.wav,li,je,ko,sil,ji,fu,mo,sil1,ñe,di,sil2,['-'],,,none,none,,,,gu,3,,,,,,,,,,,,,,,4.0,2.0,Català,0.0,Castellà,0.0,Anglès,5.0,Italià,16.0,4.0,4.0,yes,no,yes,Cant,8,Piano,8,Guitarra,8,,,"La fase 1 del primer lenguaje ha sido mucho más larga que las demás, cosa que al principio me ha confundido porque dejaba de sonar la voz de los otros lenguajes mucho antes. Eso me ha distraído un poco al principio pero luego he visto que formaba parte del propio experimento. Muchas gracias!",54.0,yes
113,2023-09-15_07h14.23.051,Unsyncopated1,s23,21.0,feminino,right,Espanya,Català (i castellà),Upper secondary,no,no,B,1,when,L3,unsyncopated,when,when,113,Online_whenL3//c.gu25.222.wav,chu,gu,ko,sil,fu,ga,li,sil1,di,ñe,sil2,['miss'],,,0.222,no_beat,,,,gu,3,,,,,,,,,,,,,,,4.0,2.0,Català,0.0,Castellà,0.0,Anglès,5.0,Italià,16.0,4.0,4.0,yes,no,yes,Cant,8,Piano,8,Guitarra,8,,,"La fase 1 del primer lenguaje ha sido mucho más larga que las demás, cosa que al principio me ha confundido porque dejaba de sonar la voz de los otros lenguajes mucho antes. Eso me ha distraído un poco al principio pero luego he visto que formaba parte del propio experimento. Muchas gracias!",54.0,yes
114,2023-09-15_07h14.23.051,Unsyncopated1,s23,21.0,feminino,right,Espanya,Català (i castellà),Upper secondary,no,no,B,1,when,L3,unsyncopated,when,when,114,Online_whenL3//c.gu24.1110.wav,ñe,ko,ji,sil,li,gu,le,sil1,chu,ga,sil2,['miss'],,,1.11,no_beat,,,,gu,3,,,,,,,,,,,,,,,4.0,2.0,Català,0.0,Castellà,0.0,Anglès,5.0,Italià,16.0,4.0,4.0,yes,no,yes,Cant,8,Piano,8,Guitarra,8,,,"La fase 1 del primer lenguaje ha sido mucho más larga que las demás, cosa que al principio me ha confundido porque dejaba de sonar la voz de los otros lenguajes mucho antes. Eso me ha distraído un poco al principio pero luego he visto que formaba parte del propio experimento. Muchas gracias!",54.0,yes
115,2023-09-15_07h14.23.051,Unsyncopated1,s23,21.0,feminino,right,Espanya,Català (i castellà),Upper secondary,no,no,B,1,when,L3,unsyncopated,when,when,115,Online_whenL3//c.gu26.none.wav,sa,ji,li,sil,le,di,ga,sil1,chu,fu,sil2,['-'],,,none,none,,,,gu,3,,,,,,,,,,,,,,,4.0,2.0,Català,0.0,Castellà,0.0,Anglès,5.0,Italià,16.0,4.0,4.0,yes,no,yes,Cant,8,Piano,8,Guitarra,8,,,"La fase 1 del primer lenguaje ha sido mucho más larga que las demás, cosa que al principio me ha confundido porque dejaba de sonar la voz de los otros lenguajes mucho antes. Eso me ha distraído un poco al principio pero luego he visto que formaba parte del propio experimento. Muchas gracias!",54.0,yes
116,2023-09-15_07h14.23.051,Unsyncopated1,s23,21.0,feminino,right,Espanya,Català (i castellà),Upper secondary,no,no,B,1,when,L3,unsyncopated,when,when,116,Online_whenL3//c.gu28.none.wav,chu,di,ko,sil,sa,le,ji,sil1,li,ka,sil2,['-'],,,none,none,,,,gu,3,,,,,,,,,,,,,,,4.0,2.0,Català,0.0,Castellà,0.0,Anglès,5.0,Italià,16.0,4.0,4.0,yes,no,yes,Cant,8,Piano,8,Guitarra,8,,,"La fase 1 del primer lenguaje ha sido mucho más larga que las demás, cosa que al principio me ha confundido porque dejaba de sonar la voz de los otros lenguajes mucho antes. Eso me ha distraído un poco al principio pero luego he visto que formaba parte del propio experimento. Muchas gracias!",54.0,yes
117,2023-09-15_07h14.23.051,Unsyncopated1,s23,21.0,feminino,right,Espanya,Català (i castellà),Upper secondary,no,no,B,1,when,L3,unsyncopated,when,when,117,Online_whenL3//c.gu30.0.wav,gu,ka,ga,sil,mo,li,le,sil1,di,sa,sil2,['catch'],[0.5319999999999254],[0.5319999999999254],0.0,beat,0.5319999999999254,0.5319999999999254,"[""space""]",gu,3,,,,,,,,,,,,,,,4.0,2.0,Català,0.0,Castellà,0.0,Anglès,5.0,Italià,16.0,4.0,4.0,yes,no,yes,Cant,8,Piano,8,Guitarra,8,,,"La fase 1 del primer lenguaje ha sido mucho más larga que las demás, cosa que al principio me ha confundido porque dejaba de sonar la voz de los otros lenguajes mucho antes. Eso me ha distraído un poco al principio pero luego he visto que formaba parte del propio experimento. Muchas gracias!",54.0,yes
118,2023-09-15_07h14.23.051,Unsyncopated1,s23,21.0,feminino,right,Espanya,Català (i castellà),Upper secondary,no,no,B,1,when,L3,unsyncopated,when,when,118,Online_whenL3//c.gu29.1110.wav,mo,je,ko,sil,ñe,gu,ka,sil1,li,ga,sil2,['catch'],[1.8148000000715],[1.8148000000715],1.11,no_beat,0.7048000000715,0.7048000000715,"[""space""]",gu,3,,,,,,,,,,,,,,,4.0,2.0,Català,0.0,Castellà,0.0,Anglès,5.0,Italià,16.0,4.0,4.0,yes,no,yes,Cant,8,Piano,8,Guitarra,8,,,"La fase 1 del primer lenguaje ha sido mucho más larga que las demás, cosa que al principio me ha confundido porque dejaba de sonar la voz de los otros lenguajes mucho antes. Eso me ha distraído un poco al principio pero luego he visto que formaba parte del propio experimento. Muchas gracias!",54.0,yes
119,2023-09-15_07h14.23.051,Unsyncopated1,s23,21.0,feminino,right,Espanya,Català (i castellà),Upper secondary,no,no,B,1,when,L3,unsyncopated,when,when,119,Online_whenL3//c.gu31.none.wav,ka,ñe,sa,sil,li,do,le,sil1,ji,ko,sil2,['-'],,,none,none,,,,gu,3,,,,,,,,,,,,,,,4.0,2.0,Català,0.0,Castellà,0.0,Anglès,5.0,Italià,16.0,4.0,4.0,yes,no,yes,Cant,8,Piano,8,Guitarra,8,,,"La fase 1 del primer lenguaje ha sido mucho más larga que las demás, cosa que al principio me ha confundido porque dejaba de sonar la voz de los otros lenguajes mucho antes. Eso me ha distraído un poco al principio pero luego he visto que formaba parte del propio experimento. Muchas gracias!",54.0,yes
120,2023-09-15_07h14.23.051,Unsyncopated1,s23,21.0,feminino,right,Espanya,Català (i castellà),Upper secondary,no,no,B,1,when,L3,unsyncopated,when,when,120,Online_whenL3//c.gu7.1776.wav,sa,ga,di,sil,mo,ka,ko,sil1,gu,le,sil2,['catch'],[2.2433000000714856],[2.2433000000714856],1.776,beat,0.4673000000714855,0.4673000000714855,"[""space""]",gu,3,,,,,,,,,,,,,,,4.0,2.0,Català,0.0,Castellà,0.0,Anglès,5.0,Italià,16.0,4.0,4.0,yes,no,yes,Cant,8,Piano,8,Guitarra,8,,,"La fase 1 del primer lenguaje ha sido mucho más larga que las demás, cosa que al principio me ha confundido porque dejaba de sonar la voz de los otros lenguajes mucho antes. Eso me ha distraído un poco al principio pero luego he visto que formaba parte del propio experimento. Muchas gracias!",54.0,yes
121,2023-09-15_07h14.23.051,Unsyncopated1,s23,21.0,feminino,right,Espanya,Català (i castellà),Upper secondary,no,no,B,1,when,L3,unsyncopated,when,when,121,Online_whenL3//c.gu4.none.wav,do,ka,ko,sil,fu,chu,mo,sil1,le,ji,sil2,['-'],,,none,none,,,,gu,3,,,,,,,,,,,,,,,4.0,2.0,Català,0.0,Castellà,0.0,Anglès,5.0,Italià,16.0,4.0,4.0,yes,no,yes,Cant,8,Piano,8,Guitarra,8,,,"La fase 1 del primer lenguaje ha sido mucho más larga que las demás, cosa que al principio me ha confundido porque dejaba de sonar la voz de los otros lenguajes mucho antes. Eso me ha distraído un poco al principio pero luego he visto que formaba parte del propio experimento. Muchas gracias!",54.0,yes
122,2023-09-15_07h14.23.051,Unsyncopated1,s23,21.0,feminino,right,Espanya,Català (i castellà),Upper secondary,no,no,B,1,when,L3,unsyncopated,when,when,122,Online_whenL3//c.gu5.0.wav,gu,ko,ji,sil,sa,ñe,le,sil1,fu,di,sil2,['catch'],[0.5490999999044561],[0.5490999999044561],0.0,beat,0.5490999999044561,0.5490999999044561,"[""space""]",gu,3,,,,,,,,,,,,,,,4.0,2.0,Català,0.0,Castellà,0.0,Anglès,5.0,Italià,16.0,4.0,4.0,yes,no,yes,Cant,8,Piano,8,Guitarra,8,,,"La fase 1 del primer lenguaje ha sido mucho más larga que las demás, cosa que al principio me ha confundido porque dejaba de sonar la voz de los otros lenguajes mucho antes. Eso me ha distraído un poco al principio pero luego he visto que formaba parte del propio experimento. Muchas gracias!",54.0,yes
123,2023-09-15_07h14.23.051,Unsyncopated1,s23,21.0,feminino,right,Espanya,Català (i castellà),Upper secondary,no,no,B,1,when,L3,unsyncopated,when,when,123,Online_whenL3//c.gu6.none.wav,do,je,mo,sil,fu,ko,sa,sil1,ka,di,sil2,['-'],,,none,none,,,,gu,3,,,,,,,,,,,,,,,4.0,2.0,Català,0.0,Castellà,0.0,Anglès,5.0,Italià,16.0,4.0,4.0,yes,no,yes,Cant,8,Piano,8,Guitarra,8,,,"La fase 1 del primer lenguaje ha sido mucho más larga que las demás, cosa que al principio me ha confundido porque dejaba de sonar la voz de los otros lenguajes mucho antes. Eso me ha distraído un poco al principio pero luego he visto que formaba parte del propio experimento. Muchas gracias!",54.0,yes
124,2023-09-15_07h14.23.051,Unsyncopated1,s23,21.0,feminino,right,Espanya,Català (i castellà),Upper secondary,no,no,B,1,when,L3,unsyncopated,when,when,124,Online_whenL3//c.gu3.1110.wav,li,mo,ko,sil,je,gu,chu,sil1,fu,ka,sil2,['miss'],,,1.11,no_beat,,,,gu,3,,,,,,,,,,,,,,,4.0,2.0,Català,0.0,Castellà,0.0,Anglès,5.0,Italià,16.0,4.0,4.0,yes,no,yes,Cant,8,Piano,8,Guitarra,8,,,"La fase 1 del primer lenguaje ha sido mucho más larga que las demás, cosa que al principio me ha confundido porque dejaba de sonar la voz de los otros lenguajes mucho antes. Eso me ha distraído un poco al principio pero luego he visto que formaba parte del propio experimento. Muchas gracias!",54.0,yes
