Unnamed: 0,date,expName,participant,age,sex,hand,residence,native_lang,education_level,lang_deficit,aud_deficit,group,block,condition,language,rhythm,rule structure online,rule type online,order_trial_on,trial_online,s1,s2,s3,s4,s5,s6,s7,s8,s9,s10,s11,catch_syll_resp,rts_syll_catch,clean_rts,time_syll,beat_no_beat,catch_rtsTR,catch_rts,syllable_catch.keys,cond_syll,syll_to_catch,test_offline,block_off,condition_off,rhythm_off,rule,rule_str_off,rule_norule,conds_offline,language_off,Partz_no_partm.keys,Partz_no_partm.rt,security_1_7.keys,accuracy,security_1_7.rt,n_lang,n_lang_used,lang_1,age_l1,lang_2,age_l2,lang_3,age_l3,lang_4,age_l4,ability_learn_l2,tendence_mix_lan,music_experience,muisc_use,partiture,instr_1,age_M1,preguntas_musica1,BMRQ_answer.response,final comment,BMRQ_Score,bilingual
0,2024-03-28_23h32.03.487,Unsyncopated_study3,s144,24.0,feminino,right,España,"Catalán, castellano",Bachelor degree,no,no,B,1,when,L1,unsyncopated,when,when,0,Online_whenL1//d.ne22.none.wav,ni,ki,pu,sil,ro,la,cho,sil1,fa,ri,sil2,['-'],,,none,none,,,,ne,4,testWhenL1Uns//cat_viol.r2.s1.0.wav,1.0,when,unsyncopated,b,s1,no_rule,cat,L1,z,7.8179,5.0,1.0,26.8263,4.0,2.0,Catalán,0.0,Castellano,0.0,Inglés,3.0,Alemán,12.0,4.0,2.0,yes,no,yes,Piano,8,1. Cuando comparto música con alguien siento una complicidad especial con aquella persona.,4.0,"En la última prueba del último lenguaje algunas veces no se escuchaba el audio, por lo que he tenido que marcar al azar.",62.0,yes
1,2024-03-28_23h32.03.487,Unsyncopated_study3,s144,24.0,feminino,right,España,"Catalán, castellano",Bachelor degree,no,no,B,1,when,L1,unsyncopated,when,when,1,Online_whenL1//d.ne20.1110.wav,fa,ki,cho,sil,pu,ne,zu,sil1,la,ro,sil2,['miss'],,,1.11,no_beat,,,,ne,4,testWhenL1Uns//dep_viol.r2.s1.0.wav,1.0,when,unsyncopated,b,s1,no_rule,dep,L1,m,3.5213,5.0,0.0,4.2415,4.0,2.0,Catalán,0.0,Castellano,0.0,Inglés,3.0,Alemán,12.0,4.0,2.0,yes,no,yes,Piano,8,2. En mi tiempo libre apenas escucho música.,5.0,"En la última prueba del último lenguaje algunas veces no se escuchaba el audio, por lo que he tenido que marcar al azar.",62.0,yes
2,2024-03-28_23h32.03.487,Unsyncopated_study3,s144,24.0,feminino,right,España,"Catalán, castellano",Bachelor degree,no,no,B,1,when,L1,unsyncopated,when,when,2,Online_whenL1//d.ne21.1332.wav,la,ro,ki,sil,cho,fo,ne,sil1,ta,ni,sil2,['catch'],[2.0212999999821477],[2.0212999999821477],1.332,no_beat,0.6892999999821476,0.6892999999821476,"[""space""]",ne,4,testWhenL1Uns//time_viol.r1.s2.0.wav,1.0,when,unsyncopated,a,s2,no_rule,time,L1,z,1.591,7.0,1.0,3.3155,4.0,2.0,Catalán,0.0,Castellano,0.0,Inglés,3.0,Alemán,12.0,4.0,2.0,yes,no,yes,Piano,8,3. Algunas canciones me ponen los pelos de punta,4.0,"En la última prueba del último lenguaje algunas veces no se escuchaba el audio, por lo que he tenido que marcar al azar.",62.0,yes
3,2024-03-28_23h32.03.487,Unsyncopated_study3,s144,24.0,feminino,right,España,"Catalán, castellano",Bachelor degree,no,no,B,1,when,L1,unsyncopated,when,when,3,Online_whenL1//d.ne23.none.wav,be,ni,cho,sil,ri,ro,fo,sil1,la,ki,sil2,['-'],,,none,none,,,,ne,4,testWhenL1Uns//dep_viol.r1.s2.0.wav,1.0,when,unsyncopated,a,s2,no_rule,dep,L1,m,3.4485,4.0,0.0,2.6356,4.0,2.0,Catalán,0.0,Castellano,0.0,Inglés,3.0,Alemán,12.0,4.0,2.0,yes,no,yes,Piano,8,4. La música me hace compañía cuando estoy solo,3.0,"En la última prueba del último lenguaje algunas veces no se escuchaba el audio, por lo que he tenido que marcar al azar.",62.0,yes
4,2024-03-28_23h32.03.487,Unsyncopated_study3,s144,24.0,feminino,right,España,"Catalán, castellano",Bachelor degree,no,no,B,1,when,L1,unsyncopated,when,when,4,Online_whenL1//c.ro29.none.wav,fa,ne,cho,sil,fo,ki,ta,sil1,ze,la,sil2,['-'],,,none,none,,,,ro,3,testWhenL1Uns//dep_viol.r2.s2.0.wav,1.0,when,unsyncopated,b,s2,no_rule,dep,L1,m,4.001,3.0,0.0,3.5644,4.0,2.0,Catalán,0.0,Castellano,0.0,Inglés,3.0,Alemán,12.0,4.0,2.0,yes,no,yes,Piano,8,5. No me apetece bailar ni con la música que más me gusta,5.0,"En la última prueba del último lenguaje algunas veces no se escuchaba el audio, por lo que he tenido que marcar al azar.",62.0,yes
5,2024-03-28_23h32.03.487,Unsyncopated_study3,s144,24.0,feminino,right,España,"Catalán, castellano",Bachelor degree,no,no,B,1,when,L1,unsyncopated,when,when,5,Online_whenL1//c.ro30.0.wav,ro,ze,zu,sil,ki,be,lu,sil1,fo,ni,sil2,['catch'],[0.4704000000058386],[0.4704000000058386],0.0,beat,0.4704000000058386,0.4704000000058386,"[""space""]",ro,3,testWhenL1Uns//r2.s2.2.wav,1.0,when,unsyncopated,b,s2,rule,rule,L1,m,2.6195,7.0,0.0,3.7863,4.0,2.0,Catalán,0.0,Castellano,0.0,Inglés,3.0,Alemán,12.0,4.0,2.0,yes,no,yes,Piano,8,6. La música me hace conectar con la gente,4.0,"En la última prueba del último lenguaje algunas veces no se escuchaba el audio, por lo que he tenido que marcar al azar.",62.0,yes
6,2024-03-28_23h32.03.487,Unsyncopated_study3,s144,24.0,feminino,right,España,"Catalán, castellano",Bachelor degree,no,no,B,1,when,L1,unsyncopated,when,when,6,Online_whenL1//c.ro28.none.wav,fo,fa,ki,sil,ri,ze,zu,sil1,be,ne,sil2,['-'],,,none,none,,,,ro,3,testWhenL1Uns//r2.s2.0.wav,1.0,when,unsyncopated,b,s2,rule,rule,L1,z,1.7541,6.0,1.0,2.1569,4.0,2.0,Catalán,0.0,Castellano,0.0,Inglés,3.0,Alemán,12.0,4.0,2.0,yes,no,yes,Piano,8,7. Me informo sobre la música que me gusta.,3.0,"En la última prueba del último lenguaje algunas veces no se escuchaba el audio, por lo que he tenido que marcar al azar.",62.0,yes
7,2024-03-28_23h32.03.487,Unsyncopated_study3,s144,24.0,feminino,right,España,"Catalán, castellano",Bachelor degree,no,no,B,1,when,L1,unsyncopated,when,when,7,Online_whenL1//c.ro31.none.wav,ni,ze,fo,sil,ne,zu,pu,sil1,ta,la,sil2,['-'],,,none,none,,,,ro,3,testWhenL1Uns//r2.s2.1.wav,1.0,when,unsyncopated,b,s2,rule,rule,L1,z,4.9526,4.0,1.0,2.6047,4.0,2.0,Catalán,0.0,Castellano,0.0,Inglés,3.0,Alemán,12.0,4.0,2.0,yes,no,yes,Piano,8,8.Me emociono escuchando ciertas canciones.,3.0,"En la última prueba del último lenguaje algunas veces no se escuchaba el audio, por lo que he tenido que marcar al azar.",62.0,yes
8,2024-03-28_23h32.03.487,Unsyncopated_study3,s144,24.0,feminino,right,España,"Catalán, castellano",Bachelor degree,no,no,B,1,when,L1,unsyncopated,when,when,8,Online_whenL1//d.ne3.none.wav,fo,la,be,sil,pu,fa,ni,sil1,lu,cho,sil2,['-'],,,none,none,,,,ne,4,testWhenL1Uns//r1.s2.2.wav,1.0,when,unsyncopated,a,s2,rule,rule,L1,m,2.2434,5.0,0.0,2.942,4.0,2.0,Catalán,0.0,Castellano,0.0,Inglés,3.0,Alemán,12.0,4.0,2.0,yes,no,yes,Piano,8,9.La música me tranquiliza y me relaja.,3.0,"En la última prueba del último lenguaje algunas veces no se escuchaba el audio, por lo que he tenido que marcar al azar.",62.0,yes
9,2024-03-28_23h32.03.487,Unsyncopated_study3,s144,24.0,feminino,right,España,"Catalán, castellano",Bachelor degree,no,no,B,1,when,L1,unsyncopated,when,when,9,Online_whenL1//d.ne0.1110.wav,ze,fa,fo,sil,pu,ne,ta,sil1,la,ni,sil2,['catch'],[2.188100000023951],[2.188100000023951],1.11,no_beat,1.078100000023951,1.078100000023951,"[""space""]",ne,4,testWhenL1Uns//r2.s1.2.wav,1.0,when,unsyncopated,b,s1,rule,rule,L1,z,0.7653,6.0,1.0,1.8115,4.0,2.0,Catalán,0.0,Castellano,0.0,Inglés,3.0,Alemán,12.0,4.0,2.0,yes,no,yes,Piano,8,10.La música me hace bailar,4.0,"En la última prueba del último lenguaje algunas veces no se escuchaba el audio, por lo que he tenido que marcar al azar.",62.0,yes
10,2024-03-28_23h32.03.487,Unsyncopated_study3,s144,24.0,feminino,right,España,"Catalán, castellano",Bachelor degree,no,no,B,1,when,L1,unsyncopated,when,when,10,Online_whenL1//d.ne2.none.wav,lu,ze,ni,sil,pu,la,ri,sil1,ki,zu,sil2,['-'],,,none,none,,,,ne,4,testWhenL1Uns//time_viol.r1.s1.0.wav,1.0,when,unsyncopated,a,s1,no_rule,time,L1,m,0.5287,5.0,0.0,1.8059,4.0,2.0,Catalán,0.0,Castellano,0.0,Inglés,3.0,Alemán,12.0,4.0,2.0,yes,no,yes,Piano,8,11.Busco novedades musicales continuamente,2.0,"En la última prueba del último lenguaje algunas veces no se escuchaba el audio, por lo que he tenido que marcar al azar.",62.0,yes
11,2024-03-28_23h32.03.487,Unsyncopated_study3,s144,24.0,feminino,right,España,"Catalán, castellano",Bachelor degree,no,no,B,1,when,L1,unsyncopated,when,when,11,Online_whenL1//d.ne1.none.wav,pu,zu,fo,sil,ze,fa,ni,sil1,ta,lu,sil2,['-'],,,none,none,,,,ne,4,testWhenL1Uns//cat_viol.r1.s1.0.wav,1.0,when,unsyncopated,a,s1,no_rule,cat,L1,z,4.0058,2.0,1.0,4.1836,4.0,2.0,Catalán,0.0,Castellano,0.0,Inglés,3.0,Alemán,12.0,4.0,2.0,yes,no,yes,Piano,8,12. Puedo llorar cuando escucho algunas melodías que me gustan mucho.,1.0,"En la última prueba del último lenguaje algunas veces no se escuchaba el audio, por lo que he tenido que marcar al azar.",62.0,yes
12,2024-03-28_23h32.03.487,Unsyncopated_study3,s144,24.0,feminino,right,España,"Catalán, castellano",Bachelor degree,no,no,B,1,when,L1,unsyncopated,when,when,12,Online_whenL1//c.ro15.0.wav,ro,ne,zu,sil,la,ri,pu,sil1,ki,ni,sil2,['catch'],[0.5891999999880682],[0.5891999999880682],0.0,beat,0.5891999999880682,0.5891999999880682,"[""space""]",ro,3,testWhenL1Uns//r1.s1.1.wav,1.0,when,unsyncopated,a,s1,rule,rule,L1,z,1.2077,5.0,1.0,1.4675,4.0,2.0,Catalán,0.0,Castellano,0.0,Inglés,3.0,Alemán,12.0,4.0,2.0,yes,no,yes,Piano,8,13. Me gusta cantar o tocar un instrumento con más gente,3.0,"En la última prueba del último lenguaje algunas veces no se escuchaba el audio, por lo que he tenido que marcar al azar.",62.0,yes
13,2024-03-28_23h32.03.487,Unsyncopated_study3,s144,24.0,feminino,right,España,"Catalán, castellano",Bachelor degree,no,no,B,1,when,L1,unsyncopated,when,when,13,Online_whenL1//c.ro14.none.wav,zu,ki,fa,sil,pu,ni,lu,sil1,fo,la,sil2,['-'],,,none,none,,,,ro,3,testWhenL1Uns//dep_viol.r1.s1.0.wav,1.0,when,unsyncopated,a,s1,no_rule,dep,L1,m,1.055,5.0,0.0,2.4388,4.0,2.0,Catalán,0.0,Castellano,0.0,Inglés,3.0,Alemán,12.0,4.0,2.0,yes,no,yes,Piano,8,14. La música me ayuda a desconectar.,3.0,"En la última prueba del último lenguaje algunas veces no se escuchaba el audio, por lo que he tenido que marcar al azar.",62.0,yes
14,2024-03-28_23h32.03.487,Unsyncopated_study3,s144,24.0,feminino,right,España,"Catalán, castellano",Bachelor degree,no,no,B,1,when,L1,unsyncopated,when,when,14,Online_whenL1//c.ro13.none.wav,ne,lu,be,sil,fo,ki,ri,sil1,ni,cho,sil2,['-'],,,none,none,,,,ro,3,testWhenL1Uns//time_viol.r2.s1.0.wav,1.0,when,unsyncopated,b,s1,no_rule,time,L1,m,2.4873,4.0,0.0,1.2811,4.0,2.0,Catalán,0.0,Castellano,0.0,Inglés,3.0,Alemán,12.0,4.0,2.0,yes,no,yes,Piano,8,15. No puedo evitar tararear las canciones que me gustan cuando las escucho.,3.0,"En la última prueba del último lenguaje algunas veces no se escuchaba el audio, por lo que he tenido que marcar al azar.",62.0,yes
15,2024-03-28_23h32.03.487,Unsyncopated_study3,s144,24.0,feminino,right,España,"Catalán, castellano",Bachelor degree,no,no,B,1,when,L1,unsyncopated,when,when,15,Online_whenL1//c.ro12.444.wav,fa,la,ro,sil,ze,be,ki,sil1,fo,ni,sil2,['catch'],[1.0040999999939686],[1.0040999999939686],0.444,no_beat,0.5600999999939686,0.5600999999939686,"[""space""]",ro,3,testWhenL1Uns//cat_viol.r1.s2.0.wav,1.0,when,unsyncopated,a,s2,no_rule,cat,L1,z,2.7032,3.0,1.0,2.0421,4.0,2.0,Catalán,0.0,Castellano,0.0,Inglés,3.0,Alemán,12.0,4.0,2.0,yes,no,yes,Piano,8,16. En los conciertos me siento en sintonía con los artistas y el público.,2.0,"En la última prueba del último lenguaje algunas veces no se escuchaba el audio, por lo que he tenido que marcar al azar.",62.0,yes
16,2024-03-28_23h32.03.487,Unsyncopated_study3,s144,24.0,feminino,right,España,"Catalán, castellano",Bachelor degree,no,no,B,1,when,L1,unsyncopated,when,when,16,Online_whenL1//a.ki5.none.wav,fo,be,lu,sil,ze,ro,cho,sil1,ta,zu,sil2,['-'],,,none,none,,,,ki,1,testWhenL1Uns//r1.s2.0.wav,1.0,when,unsyncopated,a,s2,rule,rule,L1,m,2.5666,5.0,0.0,1.4391,4.0,2.0,Catalán,0.0,Castellano,0.0,Inglés,3.0,Alemán,12.0,4.0,2.0,yes,no,yes,Piano,8,17. Me gasto bastante dinero en música y cosas relacionadas con la música.,1.0,"En la última prueba del último lenguaje algunas veces no se escuchaba el audio, por lo que he tenido que marcar al azar.",62.0,yes
17,2024-03-28_23h32.03.487,Unsyncopated_study3,s144,24.0,feminino,right,España,"Catalán, castellano",Bachelor degree,no,no,B,1,when,L1,unsyncopated,when,when,17,Online_whenL1//a.ki7.none.wav,cho,ro,ri,sil,pu,zu,fa,sil1,ni,be,sil2,['-'],,,none,none,,,,ki,1,testWhenL1Uns//r1.s1.2.wav,1.0,when,unsyncopated,a,s1,rule,rule,L1,z,0.4178,5.0,1.0,1.5896,4.0,2.0,Catalán,0.0,Castellano,0.0,Inglés,3.0,Alemán,12.0,4.0,2.0,yes,no,yes,Piano,8,18. Siento escalofríos cuando escucho una melodía que me gusta.,2.0,"En la última prueba del último lenguaje algunas veces no se escuchaba el audio, por lo que he tenido que marcar al azar.",62.0,yes
18,2024-03-28_23h32.03.487,Unsyncopated_study3,s144,24.0,feminino,right,España,"Catalán, castellano",Bachelor degree,no,no,B,1,when,L1,unsyncopated,when,when,18,Online_whenL1//a.ki6.none.wav,la,ri,ni,sil,pu,ro,ne,sil1,be,zu,sil2,['-'],,,none,none,,,,ki,1,testWhenL1Uns//r2.s1.1.wav,1.0,when,unsyncopated,b,s1,rule,rule,L1,z,0.7662,6.0,1.0,1.3166,4.0,2.0,Catalán,0.0,Castellano,0.0,Inglés,3.0,Alemán,12.0,4.0,2.0,yes,no,yes,Piano,8,19. Con la música me puedo desahogar.,3.0,"En la última prueba del último lenguaje algunas veces no se escuchaba el audio, por lo que he tenido que marcar al azar.",62.0,yes
19,2024-03-28_23h32.03.487,Unsyncopated_study3,s144,24.0,feminino,right,España,"Catalán, castellano",Bachelor degree,no,no,B,1,when,L1,unsyncopated,when,when,19,Online_whenL1//a.ki4.222.wav,fa,ki,zu,sil,ni,ta,lu,sil1,ro,ri,sil2,['catch'],[0.6757999999820186],[0.6757999999820186],0.222,no_beat,0.4537999999820186,0.4537999999820186,"[""space""]",ki,1,testWhenL1Uns//r1.s1.0.wav,1.0,when,unsyncopated,a,s1,rule,rule,L1,m,5.7471,2.0,0.0,1.3013,4.0,2.0,Catalán,0.0,Castellano,0.0,Inglés,3.0,Alemán,12.0,4.0,2.0,yes,no,yes,Piano,8,20. Cuando escucho una melodía que me gusta mucho no puedo evitar mover el cuerpo.,4.0,"En la última prueba del último lenguaje algunas veces no se escuchaba el audio, por lo que he tenido que marcar al azar.",62.0,yes
20,2024-03-28_23h32.03.487,Unsyncopated_study3,s144,24.0,feminino,right,España,"Catalán, castellano",Bachelor degree,no,no,B,1,when,L1,unsyncopated,when,when,20,Online_whenL1//a.ki27.none.wav,fa,fo,cho,sil,ze,ri,ta,sil1,pu,zu,sil2,['-'],,,none,none,,,,ki,1,testWhenL1Uns//r2.s1.0.wav,1.0,when,unsyncopated,b,s1,rule,rule,L1,z,1.2697,5.0,1.0,1.8762,4.0,2.0,Catalán,0.0,Castellano,0.0,Inglés,3.0,Alemán,12.0,4.0,2.0,yes,no,yes,Piano,8,,,"En la última prueba del último lenguaje algunas veces no se escuchaba el audio, por lo que he tenido que marcar al azar.",62.0,yes
21,2024-03-28_23h32.03.487,Unsyncopated_study3,s144,24.0,feminino,right,España,"Catalán, castellano",Bachelor degree,no,no,B,1,when,L1,unsyncopated,when,when,21,Online_whenL1//a.ki25.none.wav,pu,lu,ni,sil,ro,ne,zu,sil1,la,ta,sil2,['-'],,,none,none,,,,ki,1,testWhenL1Uns//time_viol.r2.s2.0.wav,1.0,when,unsyncopated,b,s2,no_rule,time,L1,z,1.2412,5.0,1.0,1.075,4.0,2.0,Catalán,0.0,Castellano,0.0,Inglés,3.0,Alemán,12.0,4.0,2.0,yes,no,yes,Piano,8,,,"En la última prueba del último lenguaje algunas veces no se escuchaba el audio, por lo que he tenido que marcar al azar.",62.0,yes
22,2024-03-28_23h32.03.487,Unsyncopated_study3,s144,24.0,feminino,right,España,"Catalán, castellano",Bachelor degree,no,no,B,1,when,L1,unsyncopated,when,when,22,Online_whenL1//a.ki24.none.wav,cho,ze,ni,sil,zu,la,ri,sil1,be,pu,sil2,['-'],,,none,none,,,,ki,1,testWhenL1Uns//r1.s2.1.wav,1.0,when,unsyncopated,a,s2,rule,rule,L1,m,1.1662,5.0,0.0,3.9064,4.0,2.0,Catalán,0.0,Castellano,0.0,Inglés,3.0,Alemán,12.0,4.0,2.0,yes,no,yes,Piano,8,,,"En la última prueba del último lenguaje algunas veces no se escuchaba el audio, por lo que he tenido que marcar al azar.",62.0,yes
23,2024-03-28_23h32.03.487,Unsyncopated_study3,s144,24.0,feminino,right,España,"Catalán, castellano",Bachelor degree,no,no,B,1,when,L1,unsyncopated,when,when,23,Online_whenL1//a.ki26.none.wav,fo,be,ne,sil,ta,ze,ri,sil1,la,cho,sil2,['false alarm'],[1.911699999988059],[1.911699999988059],none,none,,,"[""space""]",ki,1,testWhenL1Uns//cat_viol.r2.s2.0.wav,1.0,when,unsyncopated,b,s2,no_rule,cat,L1,m,1.1676,3.0,0.0,1.9209,4.0,2.0,Catalán,0.0,Castellano,0.0,Inglés,3.0,Alemán,12.0,4.0,2.0,yes,no,yes,Piano,8,,,"En la última prueba del último lenguaje algunas veces no se escuchaba el audio, por lo que he tenido que marcar al azar.",62.0,yes
24,2024-03-28_23h32.03.487,Unsyncopated_study3,s144,24.0,feminino,right,España,"Catalán, castellano",Bachelor degree,no,no,B,1,when,L1,unsyncopated,when,when,24,Online_whenL1//b.ta30.444.wav,lu,ze,ta,sil,ne,ni,fo,sil1,la,be,sil2,['catch'],[0.9362999999821113],[0.9362999999821113],0.444,no_beat,0.4922999999821113,0.4922999999821113,"[""space""]",ta,2,testConjL2Syn//r2.s2.1.wav,2.0,conjunction_syn,syncopated,b,s2,rule,rule,L2,z,4.8536,5.0,1.0,4.2595,4.0,2.0,Catalán,0.0,Castellano,0.0,Inglés,3.0,Alemán,12.0,4.0,2.0,yes,no,yes,Piano,8,,,"En la última prueba del último lenguaje algunas veces no se escuchaba el audio, por lo que he tenido que marcar al azar.",62.0,yes
25,2024-03-28_23h32.03.487,Unsyncopated_study3,s144,24.0,feminino,right,España,"Catalán, castellano",Bachelor degree,no,no,B,1,when,L1,unsyncopated,when,when,25,Online_whenL1//b.ta29.none.wav,ri,ki,cho,sil,lu,zu,ze,sil1,fo,pu,sil2,['-'],,,none,none,,,,ta,2,testConjL2Syn//r2.s1.0.wav,2.0,conjunction_syn,syncopated,b,s1,rule,rule,L2,m,1.4822,6.0,0.0,1.7665,4.0,2.0,Catalán,0.0,Castellano,0.0,Inglés,3.0,Alemán,12.0,4.0,2.0,yes,no,yes,Piano,8,,,"En la última prueba del último lenguaje algunas veces no se escuchaba el audio, por lo que he tenido que marcar al azar.",62.0,yes
26,2024-03-28_23h32.03.487,Unsyncopated_study3,s144,24.0,feminino,right,España,"Catalán, castellano",Bachelor degree,no,no,B,1,when,L1,unsyncopated,when,when,26,Online_whenL1//b.ta28.222.wav,la,ta,lu,sil,fo,ni,ro,sil1,ki,cho,sil2,['catch'],[1.204299999981913],[1.204299999981913],0.222,no_beat,0.9822999999819132,0.9822999999819132,"[""space""]",ta,2,testConjL2Syn//r2.s1.2.wav,2.0,conjunction_syn,syncopated,b,s1,rule,rule,L2,z,1.0326,6.0,1.0,1.6004,4.0,2.0,Catalán,0.0,Castellano,0.0,Inglés,3.0,Alemán,12.0,4.0,2.0,yes,no,yes,Piano,8,,,"En la última prueba del último lenguaje algunas veces no se escuchaba el audio, por lo que he tenido que marcar al azar.",62.0,yes
27,2024-03-28_23h32.03.487,Unsyncopated_study3,s144,24.0,feminino,right,España,"Catalán, castellano",Bachelor degree,no,no,B,1,when,L1,unsyncopated,when,when,27,Online_whenL1//b.ta31.none.wav,pu,lu,zu,sil,cho,la,ki,sil1,fa,ro,sil2,['-'],,,none,none,,,,ta,2,testConjL2Syn//dep_viol.r2.s2.0.wav,2.0,conjunction_syn,syncopated,b,s2,no_rule,dep,L2,z,2.5177,3.0,0.0,2.4835,4.0,2.0,Catalán,0.0,Castellano,0.0,Inglés,3.0,Alemán,12.0,4.0,2.0,yes,no,yes,Piano,8,,,"En la última prueba del último lenguaje algunas veces no se escuchaba el audio, por lo que he tenido que marcar al azar.",62.0,yes
28,2024-03-28_23h32.03.487,Unsyncopated_study3,s144,24.0,feminino,right,España,"Catalán, castellano",Bachelor degree,no,no,B,1,when,L1,unsyncopated,when,when,28,Online_whenL1//b.ta16.none.wav,ni,pu,fa,sil,ne,ki,cho,sil1,fo,ro,sil2,['-'],,,none,none,,,,ta,2,testConjL2Syn//r1.s2.1.wav,2.0,conjunction_syn,syncopated,a,s2,rule,rule,L2,m,0.9324,5.0,0.0,3.3202,4.0,2.0,Catalán,0.0,Castellano,0.0,Inglés,3.0,Alemán,12.0,4.0,2.0,yes,no,yes,Piano,8,,,"En la última prueba del último lenguaje algunas veces no se escuchaba el audio, por lo que he tenido que marcar al azar.",62.0,yes
29,2024-03-28_23h32.03.487,Unsyncopated_study3,s144,24.0,feminino,right,España,"Catalán, castellano",Bachelor degree,no,no,B,1,when,L1,unsyncopated,when,when,29,Online_whenL1//b.ta19.none.wav,pu,fa,lu,sil,fo,cho,la,sil1,be,ri,sil2,['-'],,,none,none,,,,ta,2,testConjL2Syn//cat_viol.r1.s1.0.wav,2.0,conjunction_syn,syncopated,a,s1,no_rule,cat,L2,m,0.9484,4.0,1.0,1.7513,4.0,2.0,Catalán,0.0,Castellano,0.0,Inglés,3.0,Alemán,12.0,4.0,2.0,yes,no,yes,Piano,8,,,"En la última prueba del último lenguaje algunas veces no se escuchaba el audio, por lo que he tenido que marcar al azar.",62.0,yes
30,2024-03-28_23h32.03.487,Unsyncopated_study3,s144,24.0,feminino,right,España,"Catalán, castellano",Bachelor degree,no,no,B,1,when,L1,unsyncopated,when,when,30,Online_whenL1//b.ta17.none.wav,ni,fo,zu,sil,be,ki,ze,sil1,ro,ri,sil2,['-'],,,none,none,,,,ta,2,testConjL2Syn//r1.s1.2.wav,2.0,conjunction_syn,syncopated,a,s1,rule,rule,L2,m,2.0375,4.0,0.0,1.4691,4.0,2.0,Catalán,0.0,Castellano,0.0,Inglés,3.0,Alemán,12.0,4.0,2.0,yes,no,yes,Piano,8,,,"En la última prueba del último lenguaje algunas veces no se escuchaba el audio, por lo que he tenido que marcar al azar.",62.0,yes
31,2024-03-28_23h32.03.487,Unsyncopated_study3,s144,24.0,feminino,right,España,"Catalán, castellano",Bachelor degree,no,no,B,1,when,L1,unsyncopated,when,when,31,Online_whenL1//b.ta18.0.wav,ta,ze,zu,sil,ri,ro,lu,sil1,pu,la,sil2,['catch'],[0.5810999999941941],[0.5810999999941941],0.0,beat,0.5810999999941941,0.5810999999941941,"[""space""]",ta,2,testConjL2Syn//dep_viol.r1.s2.0.wav,2.0,conjunction_syn,syncopated,a,s2,no_rule,dep,L2,z,0.5342,5.0,0.0,2.2251,4.0,2.0,Catalán,0.0,Castellano,0.0,Inglés,3.0,Alemán,12.0,4.0,2.0,yes,no,yes,Piano,8,,,"En la última prueba del último lenguaje algunas veces no se escuchaba el audio, por lo que he tenido que marcar al azar.",62.0,yes
32,2024-03-28_23h32.03.487,Unsyncopated_study3,s144,24.0,feminino,right,España,"Catalán, castellano",Bachelor degree,no,no,B,1,when,L1,unsyncopated,when,when,32,Online_whenL1//c.ro9.none.wav,ze,zu,ta,sil,la,lu,fo,sil1,pu,ri,sil2,['-'],,,none,none,,,,ro,3,testConjL2Syn//r2.s2.0.wav,2.0,conjunction_syn,syncopated,b,s2,rule,rule,L2,z,0.5676,6.0,1.0,1.1687,4.0,2.0,Catalán,0.0,Castellano,0.0,Inglés,3.0,Alemán,12.0,4.0,2.0,yes,no,yes,Piano,8,,,"En la última prueba del último lenguaje algunas veces no se escuchaba el audio, por lo que he tenido que marcar al azar.",62.0,yes
33,2024-03-28_23h32.03.487,Unsyncopated_study3,s144,24.0,feminino,right,España,"Catalán, castellano",Bachelor degree,no,no,B,1,when,L1,unsyncopated,when,when,33,Online_whenL1//c.ro10.1110.wav,ne,ta,ni,sil,ri,ro,lu,sil1,ki,cho,sil2,['catch'],[1.7388999999761836],[1.7388999999761836],1.11,no_beat,0.6288999999761835,0.6288999999761835,"[""space""]",ro,3,testConjL2Syn//r2.s1.1.wav,2.0,conjunction_syn,syncopated,b,s1,rule,rule,L2,m,0.5371,5.0,0.0,2.0841,4.0,2.0,Catalán,0.0,Castellano,0.0,Inglés,3.0,Alemán,12.0,4.0,2.0,yes,no,yes,Piano,8,,,"En la última prueba del último lenguaje algunas veces no se escuchaba el audio, por lo que he tenido que marcar al azar.",62.0,yes
34,2024-03-28_23h32.03.487,Unsyncopated_study3,s144,24.0,feminino,right,España,"Catalán, castellano",Bachelor degree,no,no,B,1,when,L1,unsyncopated,when,when,34,Online_whenL1//c.ro11.888.wav,ni,fa,ze,sil,ro,ta,ri,sil1,la,be,sil2,['catch'],[1.4388000000119519],[1.4388000000119519],0.888,beat,0.5508000000119518,0.5508000000119518,"[""space""]",ro,3,testConjL2Syn//time_viol.r1.s2.0.wav,2.0,conjunction_syn,syncopated,a,s2,no_rule,time,L2,m,0.4991,3.0,1.0,1.3377,4.0,2.0,Catalán,0.0,Castellano,0.0,Inglés,3.0,Alemán,12.0,4.0,2.0,yes,no,yes,Piano,8,,,"En la última prueba del último lenguaje algunas veces no se escuchaba el audio, por lo que he tenido que marcar al azar.",62.0,yes
35,2024-03-28_23h32.03.487,Unsyncopated_study3,s144,24.0,feminino,right,España,"Catalán, castellano",Bachelor degree,no,no,B,1,when,L1,unsyncopated,when,when,35,Online_whenL1//c.ro8.222.wav,ne,ro,ze,sil,ki,fo,zu,sil1,cho,pu,sil2,['catch'],[0.9879000000059932],[0.9879000000059932],0.222,no_beat,0.7659000000059932,0.7659000000059932,"[""space""]",ro,3,testConjL2Syn//cat_viol.r2.s1.0.wav,2.0,conjunction_syn,syncopated,b,s1,no_rule,cat,L2,m,0.908,3.0,1.0,0.9402,4.0,2.0,Catalán,0.0,Castellano,0.0,Inglés,3.0,Alemán,12.0,4.0,2.0,yes,no,yes,Piano,8,,,"En la última prueba del último lenguaje algunas veces no se escuchaba el audio, por lo que he tenido que marcar al azar.",62.0,yes
36,2024-03-28_23h32.03.487,Unsyncopated_study3,s144,24.0,feminino,right,España,"Catalán, castellano",Bachelor degree,no,no,B,1,when,L1,unsyncopated,when,when,36,Online_whenL1//b.ta15.none.wav,fa,ro,la,sil,ki,ze,pu,sil1,ne,ri,sil2,['-'],,,none,none,,,,ta,2,testConjL2Syn//r1.s1.1.wav,2.0,conjunction_syn,syncopated,a,s1,rule,rule,L2,m,0.5337,3.0,0.0,1.1002,4.0,2.0,Catalán,0.0,Castellano,0.0,Inglés,3.0,Alemán,12.0,4.0,2.0,yes,no,yes,Piano,8,,,"En la última prueba del último lenguaje algunas veces no se escuchaba el audio, por lo que he tenido que marcar al azar.",62.0,yes
37,2024-03-28_23h32.03.487,Unsyncopated_study3,s144,24.0,feminino,right,España,"Catalán, castellano",Bachelor degree,no,no,B,1,when,L1,unsyncopated,when,when,37,Online_whenL1//b.ta13.none.wav,pu,la,be,sil,zu,ze,ri,sil1,ne,ni,sil2,['-'],,,none,none,,,,ta,2,testConjL2Syn//time_viol.r1.s1.0.wav,2.0,conjunction_syn,syncopated,a,s1,no_rule,time,L2,z,0.973,4.0,0.0,1.2002,4.0,2.0,Catalán,0.0,Castellano,0.0,Inglés,3.0,Alemán,12.0,4.0,2.0,yes,no,yes,Piano,8,,,"En la última prueba del último lenguaje algunas veces no se escuchaba el audio, por lo que he tenido que marcar al azar.",62.0,yes
38,2024-03-28_23h32.03.487,Unsyncopated_study3,s144,24.0,feminino,right,España,"Catalán, castellano",Bachelor degree,no,no,B,1,when,L1,unsyncopated,when,when,38,Online_whenL1//b.ta12.1998.wav,lu,la,ro,sil,ne,zu,fo,sil1,ki,ta,sil2,['catch'],[2.3608999999762545],[2.3608999999762545],1.998,no_beat,0.3628999999762545,0.3628999999762545,"[""space""]",ta,2,testConjL2Syn//r1.s2.0.wav,2.0,conjunction_syn,syncopated,a,s2,rule,rule,L2,m,6.4359,6.0,0.0,2.5331,4.0,2.0,Catalán,0.0,Castellano,0.0,Inglés,3.0,Alemán,12.0,4.0,2.0,yes,no,yes,Piano,8,,,"En la última prueba del último lenguaje algunas veces no se escuchaba el audio, por lo que he tenido que marcar al azar.",62.0,yes
39,2024-03-28_23h32.03.487,Unsyncopated_study3,s144,24.0,feminino,right,España,"Catalán, castellano",Bachelor degree,no,no,B,1,when,L1,unsyncopated,when,when,39,Online_whenL1//b.ta14.none.wav,lu,fo,zu,sil,ni,be,cho,sil1,pu,ri,sil2,['-'],,,none,none,,,,ta,2,testConjL2Syn//time_viol.r2.s2.0.wav,2.0,conjunction_syn,syncopated,b,s2,no_rule,time,L2,z,1.1823,5.0,0.0,3.6195,4.0,2.0,Catalán,0.0,Castellano,0.0,Inglés,3.0,Alemán,12.0,4.0,2.0,yes,no,yes,Piano,8,,,"En la última prueba del último lenguaje algunas veces no se escuchaba el audio, por lo que he tenido que marcar al azar.",62.0,yes
40,2024-03-28_23h32.03.487,Unsyncopated_study3,s144,24.0,feminino,right,España,"Catalán, castellano",Bachelor degree,no,no,B,1,when,L1,unsyncopated,when,when,40,Online_whenL1//a.ki17.none.wav,be,la,fo,sil,zu,ze,ro,sil1,pu,ne,sil2,['-'],,,none,none,,,,ki,1,testConjL2Syn//r1.s1.0.wav,2.0,conjunction_syn,syncopated,a,s1,rule,rule,L2,m,0.4582,6.0,0.0,1.0171,4.0,2.0,Catalán,0.0,Castellano,0.0,Inglés,3.0,Alemán,12.0,4.0,2.0,yes,no,yes,Piano,8,,,"En la última prueba del último lenguaje algunas veces no se escuchaba el audio, por lo que he tenido que marcar al azar.",62.0,yes
41,2024-03-28_23h32.03.487,Unsyncopated_study3,s144,24.0,feminino,right,España,"Catalán, castellano",Bachelor degree,no,no,B,1,when,L1,unsyncopated,when,when,41,Online_whenL1//a.ki18.444.wav,ni,fa,ki,sil,pu,ri,fo,sil1,zu,ne,sil2,['catch'],[0.9529999999999745],[0.9529999999999745],0.444,no_beat,0.5089999999999746,0.5089999999999746,"[""space""]",ki,1,testConjL2Syn//cat_viol.r2.s2.0.wav,2.0,conjunction_syn,syncopated,b,s2,no_rule,cat,L2,z,3.0333,5.0,0.0,1.1319,4.0,2.0,Catalán,0.0,Castellano,0.0,Inglés,3.0,Alemán,12.0,4.0,2.0,yes,no,yes,Piano,8,,,"En la última prueba del último lenguaje algunas veces no se escuchaba el audio, por lo que he tenido que marcar al azar.",62.0,yes
42,2024-03-28_23h32.03.487,Unsyncopated_study3,s144,24.0,feminino,right,España,"Catalán, castellano",Bachelor degree,no,no,B,1,when,L1,unsyncopated,when,when,42,Online_whenL1//a.ki16.888.wav,ni,ro,ta,sil,ki,lu,cho,sil1,fo,ri,sil2,['catch'],[1.6899000000059914],[1.6899000000059914],0.888,beat,0.8019000000059914,0.8019000000059914,"[""space""]",ki,1,testConjL2Syn//r2.s2.2.wav,2.0,conjunction_syn,syncopated,b,s2,rule,rule,L2,m,0.4717,6.0,0.0,1.3515,4.0,2.0,Catalán,0.0,Castellano,0.0,Inglés,3.0,Alemán,12.0,4.0,2.0,yes,no,yes,Piano,8,,,"En la última prueba del último lenguaje algunas veces no se escuchaba el audio, por lo que he tenido que marcar al azar.",62.0,yes
43,2024-03-28_23h32.03.487,Unsyncopated_study3,s144,24.0,feminino,right,España,"Catalán, castellano",Bachelor degree,no,no,B,1,when,L1,unsyncopated,when,when,43,Online_whenL1//a.ki19.1998.wav,pu,ze,ro,sil,fo,zu,cho,sil1,fa,ki,sil2,['catch_delay'],[1.0437000000177397],[1.0437000000177397],1.998,no_beat,1.0437000000177397,1.0437000000177397,,ki,1,testConjL2Syn//r1.s2.2.wav,2.0,conjunction_syn,syncopated,a,s2,rule,rule,L2,m,1.034,6.0,0.0,1.436,4.0,2.0,Catalán,0.0,Castellano,0.0,Inglés,3.0,Alemán,12.0,4.0,2.0,yes,no,yes,Piano,8,,,"En la última prueba del último lenguaje algunas veces no se escuchaba el audio, por lo que he tenido que marcar al azar.",62.0,yes
44,2024-03-28_23h32.03.487,Unsyncopated_study3,s144,24.0,feminino,right,España,"Catalán, castellano",Bachelor degree,no,no,B,1,when,L1,unsyncopated,when,when,44,Online_whenL1//b.ta33.none.wav,ro,cho,be,sil,la,pu,ri,sil1,lu,zu,sil2,['-'],[0.3777000000177395],[0.3777000000177395],none,none,,,"[""space""]",ta,2,testConjL2Syn//dep_viol.r1.s1.0.wav,2.0,conjunction_syn,syncopated,a,s1,no_rule,dep,L2,z,2.2815,3.0,0.0,2.0578,4.0,2.0,Catalán,0.0,Castellano,0.0,Inglés,3.0,Alemán,12.0,4.0,2.0,yes,no,yes,Piano,8,,,"En la última prueba del último lenguaje algunas veces no se escuchaba el audio, por lo que he tenido que marcar al azar.",62.0,yes
45,2024-03-28_23h32.03.487,Unsyncopated_study3,s144,24.0,feminino,right,España,"Catalán, castellano",Bachelor degree,no,no,B,1,when,L1,unsyncopated,when,when,45,Online_whenL1//b.ta34.1110.wav,be,cho,la,sil,ro,ta,fo,sil1,lu,ni,sil2,['false alarm'],[0.924699999987979],[0.924699999987979],1.11,no_beat,,,"[""space""]",ta,2,testConjL2Syn//time_viol.r2.s1.0.wav,2.0,conjunction_syn,syncopated,b,s1,no_rule,time,L2,z,0.8601,4.0,0.0,1.2379,4.0,2.0,Catalán,0.0,Castellano,0.0,Inglés,3.0,Alemán,12.0,4.0,2.0,yes,no,yes,Piano,8,,,"En la última prueba del último lenguaje algunas veces no se escuchaba el audio, por lo que he tenido que marcar al azar.",62.0,yes
46,2024-03-28_23h32.03.487,Unsyncopated_study3,s144,24.0,feminino,right,España,"Catalán, castellano",Bachelor degree,no,no,B,1,when,L1,unsyncopated,when,when,46,Online_whenL1//b.ta32.none.wav,ki,ni,fo,sil,lu,zu,cho,sil1,be,ri,sil2,['-'],,,none,none,,,,ta,2,testConjL2Syn//dep_viol.r2.s1.0.wav,2.0,conjunction_syn,syncopated,b,s1,no_rule,dep,L2,m,0.7073,5.0,1.0,1.2002,4.0,2.0,Catalán,0.0,Castellano,0.0,Inglés,3.0,Alemán,12.0,4.0,2.0,yes,no,yes,Piano,8,,,"En la última prueba del último lenguaje algunas veces no se escuchaba el audio, por lo que he tenido que marcar al azar.",62.0,yes
47,2024-03-28_23h32.03.487,Unsyncopated_study3,s144,24.0,feminino,right,España,"Catalán, castellano",Bachelor degree,no,no,B,1,when,L1,unsyncopated,when,when,47,Online_whenL1//b.ta35.222.wav,fa,ta,ze,sil,fo,lu,ro,sil1,ni,be,sil2,['catch'],[0.959200000017745],[0.959200000017745],0.222,no_beat,0.737200000017745,0.737200000017745,"[""space""]",ta,2,testConjL2Syn//cat_viol.r1.s2.0.wav,2.0,conjunction_syn,syncopated,a,s2,no_rule,cat,L2,m,0.5151,5.0,1.0,0.7218,4.0,2.0,Catalán,0.0,Castellano,0.0,Inglés,3.0,Alemán,12.0,4.0,2.0,yes,no,yes,Piano,8,,,"En la última prueba del último lenguaje algunas veces no se escuchaba el audio, por lo que he tenido que marcar al azar.",62.0,yes
48,2024-03-28_23h32.03.487,Unsyncopated_study3,s144,24.0,feminino,right,España,"Catalán, castellano",Bachelor degree,no,no,B,1,when,L1,unsyncopated,when,when,48,Online_whenL1//a.ki28.1998.wav,la,fa,ze,sil,zu,ta,ri,sil1,ni,ki,sil2,['catch'],[2.551599999994096],[2.551599999994096],1.998,no_beat,0.5535999999940959,0.5535999999940959,"[""space""]",ki,1,testWhatL4Uns//r1.s2.2.wav,3.0,what,unsyncopated,a,s2,rule,rule,L4,z,1.2509,7.0,1.0,1.6491,4.0,2.0,Catalán,0.0,Castellano,0.0,Inglés,3.0,Alemán,12.0,4.0,2.0,yes,no,yes,Piano,8,,,"En la última prueba del último lenguaje algunas veces no se escuchaba el audio, por lo que he tenido que marcar al azar.",62.0,yes
49,2024-03-28_23h32.03.487,Unsyncopated_study3,s144,24.0,feminino,right,España,"Catalán, castellano",Bachelor degree,no,no,B,1,when,L1,unsyncopated,when,when,49,Online_whenL1//a.ki29.none.wav,be,fa,ta,sil,zu,lu,ze,sil1,ri,ro,sil2,['-'],,,none,none,,,,ki,1,testWhatL4Uns//cat_viol.r1.s1.0.wav,3.0,what,unsyncopated,a,s1,no_rule,cat,L4,m,1.2855,6.0,1.0,2.2509,4.0,2.0,Catalán,0.0,Castellano,0.0,Inglés,3.0,Alemán,12.0,4.0,2.0,yes,no,yes,Piano,8,,,"En la última prueba del último lenguaje algunas veces no se escuchaba el audio, por lo que he tenido que marcar al azar.",62.0,yes
50,2024-03-28_23h32.03.487,Unsyncopated_study3,s144,24.0,feminino,right,España,"Catalán, castellano",Bachelor degree,no,no,B,1,when,L1,unsyncopated,when,when,50,Online_whenL1//a.ki31.0.wav,ki,ze,cho,sil,ri,lu,ta,sil1,ro,fa,sil2,['miss'],,,0.0,beat,,,,ki,1,testWhatL4Uns//time_viol.r2.s2.0.wav,3.0,what,unsyncopated,b,s2,no_rule,time,L4,z,0.9325,4.0,0.0,1.4764,4.0,2.0,Catalán,0.0,Castellano,0.0,Inglés,3.0,Alemán,12.0,4.0,2.0,yes,no,yes,Piano,8,,,"En la última prueba del último lenguaje algunas veces no se escuchaba el audio, por lo que he tenido que marcar al azar.",62.0,yes
51,2024-03-28_23h32.03.487,Unsyncopated_study3,s144,24.0,feminino,right,España,"Catalán, castellano",Bachelor degree,no,no,B,1,when,L1,unsyncopated,when,when,51,Online_whenL1//a.ki30.none.wav,ta,fa,ze,sil,pu,ne,fo,sil1,ni,zu,sil2,['-'],,,none,none,,,,ki,1,testWhatL4Uns//r1.s1.0.wav,3.0,what,unsyncopated,a,s1,rule,rule,L4,m,1.0397,5.0,0.0,1.3659,4.0,2.0,Catalán,0.0,Castellano,0.0,Inglés,3.0,Alemán,12.0,4.0,2.0,yes,no,yes,Piano,8,,,"En la última prueba del último lenguaje algunas veces no se escuchaba el audio, por lo que he tenido que marcar al azar.",62.0,yes
52,2024-03-28_23h32.03.487,Unsyncopated_study3,s144,24.0,feminino,right,España,"Catalán, castellano",Bachelor degree,no,no,B,1,when,L1,unsyncopated,when,when,52,Online_whenL1//b.ta10.none.wav,lu,ro,la,sil,be,ze,ki,sil1,fo,ne,sil2,['-'],,,none,none,,,,ta,2,testWhatL4Uns//r2.s2.0.wav,3.0,what,unsyncopated,b,s2,rule,rule,L4,m,0.8256,5.0,0.0,2.4508,4.0,2.0,Catalán,0.0,Castellano,0.0,Inglés,3.0,Alemán,12.0,4.0,2.0,yes,no,yes,Piano,8,,,"En la última prueba del último lenguaje algunas veces no se escuchaba el audio, por lo que he tenido que marcar al azar.",62.0,yes
53,2024-03-28_23h32.03.487,Unsyncopated_study3,s144,24.0,feminino,right,España,"Catalán, castellano",Bachelor degree,no,no,B,1,when,L1,unsyncopated,when,when,53,Online_whenL1//b.ta11.none.wav,cho,pu,ri,sil,ro,zu,lu,sil1,ki,fa,sil2,['-'],,,none,none,,,,ta,2,testWhatL4Uns//r1.s1.1.wav,3.0,what,unsyncopated,a,s1,rule,rule,L4,z,0.3999,5.0,1.0,1.3,4.0,2.0,Catalán,0.0,Castellano,0.0,Inglés,3.0,Alemán,12.0,4.0,2.0,yes,no,yes,Piano,8,,,"En la última prueba del último lenguaje algunas veces no se escuchaba el audio, por lo que he tenido que marcar al azar.",62.0,yes
54,2024-03-28_23h32.03.487,Unsyncopated_study3,s144,24.0,feminino,right,España,"Catalán, castellano",Bachelor degree,no,no,B,1,when,L1,unsyncopated,when,when,54,Online_whenL1//b.ta9.0.wav,ta,ri,ni,sil,ki,ro,ze,sil1,lu,la,sil2,['catch'],[0.4874999999999545],[0.4874999999999545],0.0,beat,0.4874999999999545,0.4874999999999545,"[""space""]",ta,2,testWhatL4Uns//time_viol.r2.s1.0.wav,3.0,what,unsyncopated,b,s1,no_rule,time,L4,m,1.3001,5.0,1.0,1.484,4.0,2.0,Catalán,0.0,Castellano,0.0,Inglés,3.0,Alemán,12.0,4.0,2.0,yes,no,yes,Piano,8,,,"En la última prueba del último lenguaje algunas veces no se escuchaba el audio, por lo que he tenido que marcar al azar.",62.0,yes
55,2024-03-28_23h32.03.487,Unsyncopated_study3,s144,24.0,feminino,right,España,"Catalán, castellano",Bachelor degree,no,no,B,1,when,L1,unsyncopated,when,when,55,Online_whenL1//b.ta8.0.wav,ta,ki,lu,sil,cho,ne,ro,sil1,fo,ri,sil2,['catch'],[0.6876999999881264],[0.6876999999881264],0.0,beat,0.6876999999881264,0.6876999999881264,"[""space""]",ta,2,testWhatL4Uns//r2.s2.2.wav,3.0,what,unsyncopated,b,s2,rule,rule,L4,m,2.1517,6.0,0.0,2.5375,4.0,2.0,Catalán,0.0,Castellano,0.0,Inglés,3.0,Alemán,12.0,4.0,2.0,yes,no,yes,Piano,8,,,"En la última prueba del último lenguaje algunas veces no se escuchaba el audio, por lo que he tenido que marcar al azar.",62.0,yes
56,2024-03-28_23h32.03.487,Unsyncopated_study3,s144,24.0,feminino,right,España,"Catalán, castellano",Bachelor degree,no,no,B,1,when,L1,unsyncopated,when,when,56,Online_whenL1//a.ki21.0.wav,ki,ni,cho,sil,fo,ri,lu,sil1,ze,be,sil2,['catch'],[0.6083000000119227],[0.6083000000119227],0.0,beat,0.6083000000119227,0.6083000000119227,"[""space""]",ki,1,testWhatL4Uns//cat_viol.r2.s1.0.wav,3.0,what,unsyncopated,b,s1,no_rule,cat,L4,z,0.5549,5.0,0.0,1.4508,4.0,2.0,Catalán,0.0,Castellano,0.0,Inglés,3.0,Alemán,12.0,4.0,2.0,yes,no,yes,Piano,8,,,"En la última prueba del último lenguaje algunas veces no se escuchaba el audio, por lo que he tenido que marcar al azar.",62.0,yes
57,2024-03-28_23h32.03.487,Unsyncopated_study3,s144,24.0,feminino,right,España,"Catalán, castellano",Bachelor degree,no,no,B,1,when,L1,unsyncopated,when,when,57,Online_whenL1//a.ki20.0.wav,ki,ne,zu,sil,ri,ni,cho,sil1,lu,pu,sil2,['catch'],[0.7968000000121265],[0.7968000000121265],0.0,beat,0.7968000000121265,0.7968000000121265,"[""space""]",ki,1,testWhatL4Uns//r2.s1.2.wav,3.0,what,unsyncopated,b,s1,rule,rule,L4,m,0.5,6.0,0.0,1.1002,4.0,2.0,Catalán,0.0,Castellano,0.0,Inglés,3.0,Alemán,12.0,4.0,2.0,yes,no,yes,Piano,8,,,"En la última prueba del último lenguaje algunas veces no se escuchaba el audio, por lo que he tenido que marcar al azar.",62.0,yes
58,2024-03-28_23h32.03.487,Unsyncopated_study3,s144,24.0,feminino,right,España,"Catalán, castellano",Bachelor degree,no,no,B,1,when,L1,unsyncopated,when,when,58,Online_whenL1//a.ki22.444.wav,zu,pu,ki,sil,ze,cho,ne,sil1,ni,ro,sil2,['catch'],[1.0786999999879754],[1.0786999999879754],0.444,no_beat,0.6346999999879754,0.6346999999879754,"[""space""]",ki,1,testWhatL4Uns//r1.s2.1.wav,3.0,what,unsyncopated,a,s2,rule,rule,L4,m,8.879,3.0,0.0,2.0501,4.0,2.0,Catalán,0.0,Castellano,0.0,Inglés,3.0,Alemán,12.0,4.0,2.0,yes,no,yes,Piano,8,,,"En la última prueba del último lenguaje algunas veces no se escuchaba el audio, por lo que he tenido que marcar al azar.",62.0,yes
59,2024-03-28_23h32.03.487,Unsyncopated_study3,s144,24.0,feminino,right,España,"Catalán, castellano",Bachelor degree,no,no,B,1,when,L1,unsyncopated,when,when,59,Online_whenL1//a.ki23.1110.wav,be,ri,zu,sil,ro,ki,ni,sil1,la,ne,sil2,['catch'],[1.4364000000059605],[1.4364000000059605],1.11,no_beat,0.3264000000059603,0.3264000000059603,"[""space""]",ki,1,testWhatL4Uns//r2.s2.1.wav,3.0,what,unsyncopated,b,s2,rule,rule,L4,m,2.4828,4.0,0.0,1.6822,4.0,2.0,Catalán,0.0,Castellano,0.0,Inglés,3.0,Alemán,12.0,4.0,2.0,yes,no,yes,Piano,8,,,"En la última prueba del último lenguaje algunas veces no se escuchaba el audio, por lo que he tenido que marcar al azar.",62.0,yes
60,2024-03-28_23h32.03.487,Unsyncopated_study3,s144,24.0,feminino,right,España,"Catalán, castellano",Bachelor degree,no,no,B,1,when,L1,unsyncopated,when,when,60,Online_whenL1//b.ta23.none.wav,ni,fo,ri,sil,ki,la,be,sil1,ze,ne,sil2,['-'],,,none,none,,,,ta,2,testWhatL4Uns//dep_viol.r1.s1.0.wav,3.0,what,unsyncopated,a,s1,no_rule,dep,L4,z,0.6038,6.0,0.0,1.6158,4.0,2.0,Catalán,0.0,Castellano,0.0,Inglés,3.0,Alemán,12.0,4.0,2.0,yes,no,yes,Piano,8,,,"En la última prueba del último lenguaje algunas veces no se escuchaba el audio, por lo que he tenido que marcar al azar.",62.0,yes
61,2024-03-28_23h32.03.487,Unsyncopated_study3,s144,24.0,feminino,right,España,"Catalán, castellano",Bachelor degree,no,no,B,1,when,L1,unsyncopated,when,when,61,Online_whenL1//b.ta21.1998.wav,fa,be,la,sil,zu,cho,fo,sil1,ni,ta,sil2,['catch'],[2.458099999994147],[2.458099999994147],1.998,no_beat,0.4600999999941468,0.4600999999941468,"[""space""]",ta,2,testWhatL4Uns//dep_viol.r1.s2.0.wav,3.0,what,unsyncopated,a,s2,no_rule,dep,L4,z,0.3099,5.0,0.0,0.9491,4.0,2.0,Catalán,0.0,Castellano,0.0,Inglés,3.0,Alemán,12.0,4.0,2.0,yes,no,yes,Piano,8,,,"En la última prueba del último lenguaje algunas veces no se escuchaba el audio, por lo que he tenido que marcar al azar.",62.0,yes
62,2024-03-28_23h32.03.487,Unsyncopated_study3,s144,24.0,feminino,right,España,"Catalán, castellano",Bachelor degree,no,no,B,1,when,L1,unsyncopated,when,when,62,Online_whenL1//b.ta22.none.wav,be,ri,fo,sil,ne,ki,zu,sil1,fa,lu,sil2,['-'],,,none,none,,,,ta,2,testWhatL4Uns//dep_viol.r2.s1.0.wav,3.0,what,unsyncopated,b,s1,no_rule,dep,L4,m,0.3325,5.0,1.0,0.8506,4.0,2.0,Catalán,0.0,Castellano,0.0,Inglés,3.0,Alemán,12.0,4.0,2.0,yes,no,yes,Piano,8,,,"En la última prueba del último lenguaje algunas veces no se escuchaba el audio, por lo que he tenido que marcar al azar.",62.0,yes
63,2024-03-28_23h32.03.487,Unsyncopated_study3,s144,24.0,feminino,right,España,"Catalán, castellano",Bachelor degree,no,no,B,1,when,L1,unsyncopated,when,when,63,Online_whenL1//b.ta20.1110.wav,zu,lu,fo,sil,ki,ta,ne,sil1,ri,la,sil2,['catch'],[1.5205999999939195],[1.5205999999939195],1.11,no_beat,0.4105999999939194,0.4105999999939194,"[""space""]",ta,2,testWhatL4Uns//dep_viol.r2.s2.0.wav,3.0,what,unsyncopated,b,s2,no_rule,dep,L4,m,0.3991,4.0,1.0,1.6192,4.0,2.0,Catalán,0.0,Castellano,0.0,Inglés,3.0,Alemán,12.0,4.0,2.0,yes,no,yes,Piano,8,,,"En la última prueba del último lenguaje algunas veces no se escuchaba el audio, por lo que he tenido que marcar al azar.",62.0,yes
64,2024-03-28_23h32.03.487,Unsyncopated_study3,s144,24.0,feminino,right,España,"Catalán, castellano",Bachelor degree,no,no,B,1,when,L1,unsyncopated,when,when,64,Online_whenL1//d.ne31.1998.wav,ni,ta,la,sil,be,ze,lu,sil1,fa,ne,sil2,['catch'],[2.5788000000118245],[2.5788000000118245],1.998,no_beat,0.5808000000118245,0.5808000000118245,"[""space""]",ne,4,testWhatL4Uns//r1.s2.0.wav,3.0,what,unsyncopated,a,s2,rule,rule,L4,m,0.5499,2.0,0.0,1.7066,4.0,2.0,Catalán,0.0,Castellano,0.0,Inglés,3.0,Alemán,12.0,4.0,2.0,yes,no,yes,Piano,8,,,"En la última prueba del último lenguaje algunas veces no se escuchaba el audio, por lo que he tenido que marcar al azar.",62.0,yes
65,2024-03-28_23h32.03.487,Unsyncopated_study3,s144,24.0,feminino,right,España,"Catalán, castellano",Bachelor degree,no,no,B,1,when,L1,unsyncopated,when,when,65,Online_whenL1//d.ne29.444.wav,lu,ri,ne,sil,zu,la,ze,sil1,pu,ki,sil2,['catch'],[1.1391999999880227],[1.1391999999880227],0.444,no_beat,0.6951999999880227,0.6951999999880227,"[""space""]",ne,4,testWhatL4Uns//time_viol.r1.s1.0.wav,3.0,what,unsyncopated,a,s1,no_rule,time,L4,z,0.5865,5.0,0.0,1.5203,4.0,2.0,Catalán,0.0,Castellano,0.0,Inglés,3.0,Alemán,12.0,4.0,2.0,yes,no,yes,Piano,8,,,"En la última prueba del último lenguaje algunas veces no se escuchaba el audio, por lo que he tenido que marcar al azar.",62.0,yes
66,2024-03-28_23h32.03.487,Unsyncopated_study3,s144,24.0,feminino,right,España,"Catalán, castellano",Bachelor degree,no,no,B,1,when,L1,unsyncopated,when,when,66,Online_whenL1//d.ne28.1332.wav,ta,ze,cho,sil,ro,zu,ne,sil1,ki,ri,sil2,['catch'],[2.1030000000000655],[2.1030000000000655],1.332,no_beat,0.7710000000000654,0.7710000000000654,"[""space""]",ne,4,testWhatL4Uns//cat_viol.r1.s2.0.wav,3.0,what,unsyncopated,a,s2,no_rule,cat,L4,z,1.4167,4.0,0.0,1.5402,4.0,2.0,Catalán,0.0,Castellano,0.0,Inglés,3.0,Alemán,12.0,4.0,2.0,yes,no,yes,Piano,8,,,"En la última prueba del último lenguaje algunas veces no se escuchaba el audio, por lo que he tenido que marcar al azar.",62.0,yes
67,2024-03-28_23h32.03.487,Unsyncopated_study3,s144,24.0,feminino,right,España,"Catalán, castellano",Bachelor degree,no,no,B,1,when,L1,unsyncopated,when,when,67,Online_whenL1//d.ne30.888.wav,cho,ta,la,sil,ne,zu,fa,sil1,be,ri,sil2,['catch'],[1.4543999999759762],[1.4543999999759762],0.888,beat,0.5663999999759762,0.5663999999759762,"[""space""]",ne,4,testWhatL4Uns//cat_viol.r2.s2.0.wav,3.0,what,unsyncopated,b,s2,no_rule,cat,L4,m,1.5368,5.0,1.0,3.8495,4.0,2.0,Catalán,0.0,Castellano,0.0,Inglés,3.0,Alemán,12.0,4.0,2.0,yes,no,yes,Piano,8,,,"En la última prueba del último lenguaje algunas veces no se escuchaba el audio, por lo que he tenido que marcar al azar.",62.0,yes
68,2024-03-28_23h32.03.487,Unsyncopated_study3,s144,24.0,feminino,right,España,"Catalán, castellano",Bachelor degree,no,no,B,1,when,L1,unsyncopated,when,when,68,Online_whenL1//d.ne26.none.wav,fo,lu,be,sil,ro,ta,ri,sil1,fa,ni,sil2,['-'],,,none,none,,,,ne,4,testWhatL4Uns//r2.s1.0.wav,3.0,what,unsyncopated,b,s1,rule,rule,L4,m,0.558,7.0,0.0,1.5824,4.0,2.0,Catalán,0.0,Castellano,0.0,Inglés,3.0,Alemán,12.0,4.0,2.0,yes,no,yes,Piano,8,,,"En la última prueba del último lenguaje algunas veces no se escuchaba el audio, por lo que he tenido que marcar al azar.",62.0,yes
69,2024-03-28_23h32.03.487,Unsyncopated_study3,s144,24.0,feminino,right,España,"Catalán, castellano",Bachelor degree,no,no,B,1,when,L1,unsyncopated,when,when,69,Online_whenL1//d.ne27.none.wav,ta,zu,ni,sil,lu,ri,fa,sil1,fo,be,sil2,['-'],,,none,none,,,,ne,4,testWhatL4Uns//time_viol.r1.s2.0.wav,3.0,what,unsyncopated,a,s2,no_rule,time,L4,m,1.1828,6.0,1.0,1.0815,4.0,2.0,Catalán,0.0,Castellano,0.0,Inglés,3.0,Alemán,12.0,4.0,2.0,yes,no,yes,Piano,8,,,"En la última prueba del último lenguaje algunas veces no se escuchaba el audio, por lo que he tenido que marcar al azar.",62.0,yes
70,2024-03-28_23h32.03.487,Unsyncopated_study3,s144,24.0,feminino,right,España,"Catalán, castellano",Bachelor degree,no,no,B,1,when,L1,unsyncopated,when,when,70,Online_whenL1//d.ne25.none.wav,lu,la,ri,sil,ta,ni,zu,sil1,ze,ki,sil2,['-'],,,none,none,,,,ne,4,testWhatL4Uns//r2.s1.1.wav,3.0,what,unsyncopated,b,s1,rule,rule,L4,m,0.7197,6.0,0.0,1.1348,4.0,2.0,Catalán,0.0,Castellano,0.0,Inglés,3.0,Alemán,12.0,4.0,2.0,yes,no,yes,Piano,8,,,"En la última prueba del último lenguaje algunas veces no se escuchaba el audio, por lo que he tenido que marcar al azar.",62.0,yes
71,2024-03-28_23h32.03.487,Unsyncopated_study3,s144,24.0,feminino,right,España,"Catalán, castellano",Bachelor degree,no,no,B,1,when,L1,unsyncopated,when,when,71,Online_whenL1//d.ne24.none.wav,ri,ze,cho,sil,pu,lu,fo,sil1,ki,ni,sil2,['-'],,,none,none,,,,ne,4,testWhatL4Uns//r1.s1.2.wav,3.0,what,unsyncopated,a,s1,rule,rule,L4,m,10.1284,2.0,0.0,1.4171,4.0,2.0,Catalán,0.0,Castellano,0.0,Inglés,3.0,Alemán,12.0,4.0,2.0,yes,no,yes,Piano,8,,,"En la última prueba del último lenguaje algunas veces no se escuchaba el audio, por lo que he tenido que marcar al azar.",62.0,yes
72,2024-03-28_23h32.03.487,Unsyncopated_study3,s144,24.0,feminino,right,España,"Catalán, castellano",Bachelor degree,no,no,B,1,when,L1,unsyncopated,when,when,72,Online_whenL1//c.ro3.444.wav,ze,be,ro,sil,ri,pu,cho,sil1,lu,fa,sil2,['catch'],[0.9439000000058968],[0.9439000000058968],0.444,no_beat,0.4999000000058968,0.4999000000058968,"[""space""]",ro,3,testConjL3Uns//time_viol.r1.s1.0.wav,4.0,conjunction_un,unsyncopated,a,s1,no_rule,time,L3,m,16.2639,1.0,1.0,1.2092,4.0,2.0,Catalán,0.0,Castellano,0.0,Inglés,3.0,Alemán,12.0,4.0,2.0,yes,no,yes,Piano,8,,,"En la última prueba del último lenguaje algunas veces no se escuchaba el audio, por lo que he tenido que marcar al azar.",62.0,yes
73,2024-03-28_23h32.03.487,Unsyncopated_study3,s144,24.0,feminino,right,España,"Catalán, castellano",Bachelor degree,no,no,B,1,when,L1,unsyncopated,when,when,73,Online_whenL1//c.ro0.222.wav,zu,ro,ze,sil,ri,fo,pu,sil1,ki,lu,sil2,['catch'],[0.7720999999939977],[0.7720999999939977],0.222,no_beat,0.5500999999939977,0.5500999999939977,"[""space""]",ro,3,testConjL3Uns//cat_viol.r1.s2.0.wav,4.0,conjunction_un,unsyncopated,a,s2,no_rule,cat,L3,m,9.4709,1.0,1.0,1.934,4.0,2.0,Catalán,0.0,Castellano,0.0,Inglés,3.0,Alemán,12.0,4.0,2.0,yes,no,yes,Piano,8,,,"En la última prueba del último lenguaje algunas veces no se escuchaba el audio, por lo que he tenido que marcar al azar.",62.0,yes
74,2024-03-28_23h32.03.487,Unsyncopated_study3,s144,24.0,feminino,right,España,"Catalán, castellano",Bachelor degree,no,no,B,1,when,L1,unsyncopated,when,when,74,Online_whenL1//c.ro2.1110.wav,fo,be,ri,sil,ni,ro,ta,sil1,la,zu,sil2,['catch'],[1.6404000000059114],[1.6404000000059114],1.11,no_beat,0.5304000000059113,0.5304000000059113,"[""space""]",ro,3,testConjL3Uns//time_viol.r2.s2.0.wav,4.0,conjunction_un,unsyncopated,b,s2,no_rule,time,L3,z,11.4791,4.0,0.0,2.7246,4.0,2.0,Catalán,0.0,Castellano,0.0,Inglés,3.0,Alemán,12.0,4.0,2.0,yes,no,yes,Piano,8,,,"En la última prueba del último lenguaje algunas veces no se escuchaba el audio, por lo que he tenido que marcar al azar.",62.0,yes
75,2024-03-28_23h32.03.487,Unsyncopated_study3,s144,24.0,feminino,right,España,"Catalán, castellano",Bachelor degree,no,no,B,1,when,L1,unsyncopated,when,when,75,Online_whenL1//c.ro1.none.wav,fo,be,cho,sil,lu,ze,ni,sil1,pu,la,sil2,['-'],,,none,none,,,,ro,3,testConjL3Uns//cat_viol.r2.s2.0.wav,4.0,conjunction_un,unsyncopated,b,s2,no_rule,cat,L3,m,8.3995,4.0,1.0,1.6738,4.0,2.0,Catalán,0.0,Castellano,0.0,Inglés,3.0,Alemán,12.0,4.0,2.0,yes,no,yes,Piano,8,,,"En la última prueba del último lenguaje algunas veces no se escuchaba el audio, por lo que he tenido que marcar al azar.",62.0,yes
76,2024-03-28_23h32.03.487,Unsyncopated_study3,s144,24.0,feminino,right,España,"Catalán, castellano",Bachelor degree,no,no,B,1,when,L1,unsyncopated,when,when,76,Online_whenL1//d.ne10.222.wav,ki,ne,fa,sil,be,zu,lu,sil1,la,cho,sil2,['catch'],[0.8029000000060478],[0.8029000000060478],0.222,no_beat,0.5809000000060478,0.5809000000060478,"[""space""]",ne,4,testConjL3Uns//time_viol.r2.s1.0.wav,4.0,conjunction_un,unsyncopated,b,s1,no_rule,time,L3,m,6.2647,1.0,1.0,2.1496,4.0,2.0,Catalán,0.0,Castellano,0.0,Inglés,3.0,Alemán,12.0,4.0,2.0,yes,no,yes,Piano,8,,,"En la última prueba del último lenguaje algunas veces no se escuchaba el audio, por lo que he tenido que marcar al azar.",62.0,yes
77,2024-03-28_23h32.03.487,Unsyncopated_study3,s144,24.0,feminino,right,España,"Catalán, castellano",Bachelor degree,no,no,B,1,when,L1,unsyncopated,when,when,77,Online_whenL1//d.ne9.none.wav,lu,be,pu,sil,fa,cho,zu,sil1,la,fo,sil2,['-'],,,none,none,,,,ne,4,testConjL3Uns//cat_viol.r1.s1.0.wav,4.0,conjunction_un,unsyncopated,a,s1,no_rule,cat,L3,z,15.0176,3.0,0.0,1.5057,4.0,2.0,Catalán,0.0,Castellano,0.0,Inglés,3.0,Alemán,12.0,4.0,2.0,yes,no,yes,Piano,8,,,"En la última prueba del último lenguaje algunas veces no se escuchaba el audio, por lo que he tenido que marcar al azar.",62.0,yes
78,2024-03-28_23h32.03.487,Unsyncopated_study3,s144,24.0,feminino,right,España,"Catalán, castellano",Bachelor degree,no,no,B,1,when,L1,unsyncopated,when,when,78,Online_whenL1//d.ne11.0.wav,ne,cho,la,sil,lu,ta,pu,sil1,fa,ze,sil2,['catch'],[0.63799999999992],[0.63799999999992],0.0,beat,0.63799999999992,0.63799999999992,"[""space""]",ne,4,testConjL3Uns//r1.s1.2.wav,4.0,conjunction_un,unsyncopated,a,s1,rule,rule,L3,m,1.7752,1.0,0.0,1.9822,4.0,2.0,Catalán,0.0,Castellano,0.0,Inglés,3.0,Alemán,12.0,4.0,2.0,yes,no,yes,Piano,8,,,"En la última prueba del último lenguaje algunas veces no se escuchaba el audio, por lo que he tenido que marcar al azar.",62.0,yes
79,2024-03-28_23h32.03.487,Unsyncopated_study3,s144,24.0,feminino,right,España,"Catalán, castellano",Bachelor degree,no,no,B,1,when,L1,unsyncopated,when,when,79,Online_whenL1//d.ne8.none.wav,lu,ni,la,sil,ro,ri,fa,sil1,ta,pu,sil2,['-'],,,none,none,,,,ne,4,testConjL3Uns//dep_viol.r2.s2.0.wav,4.0,conjunction_un,unsyncopated,b,s2,no_rule,dep,L3,z,6.1164,4.0,0.0,16.9162,4.0,2.0,Catalán,0.0,Castellano,0.0,Inglés,3.0,Alemán,12.0,4.0,2.0,yes,no,yes,Piano,8,,,"En la última prueba del último lenguaje algunas veces no se escuchaba el audio, por lo que he tenido que marcar al azar.",62.0,yes
80,2024-03-28_23h32.03.487,Unsyncopated_study3,s144,24.0,feminino,right,España,"Catalán, castellano",Bachelor degree,no,no,B,1,when,L1,unsyncopated,when,when,80,Online_whenL1//a.ki13.1332.wav,lu,cho,ri,sil,ta,la,ki,sil1,ne,ro,sil2,['catch'],[1.725500000000011],[1.725500000000011],1.332,no_beat,0.3935000000000108,0.3935000000000108,"[""space""]",ki,1,testConjL3Uns//time_viol.r1.s2.0.wav,4.0,conjunction_un,unsyncopated,a,s2,no_rule,time,L3,m,5.164,5.0,1.0,1.4506,4.0,2.0,Catalán,0.0,Castellano,0.0,Inglés,3.0,Alemán,12.0,4.0,2.0,yes,no,yes,Piano,8,,,"En la última prueba del último lenguaje algunas veces no se escuchaba el audio, por lo que he tenido que marcar al azar.",62.0,yes
81,2024-03-28_23h32.03.487,Unsyncopated_study3,s144,24.0,feminino,right,España,"Catalán, castellano",Bachelor degree,no,no,B,1,when,L1,unsyncopated,when,when,81,Online_whenL1//a.ki12.222.wav,pu,ki,zu,sil,cho,ne,fo,sil1,ni,ze,sil2,['catch'],[0.93830000001185],[0.93830000001185],0.222,no_beat,0.71630000001185,0.71630000001185,"[""space""]",ki,1,testConjL3Uns//r1.s1.0.wav,4.0,conjunction_un,unsyncopated,a,s1,rule,rule,L3,z,0.4825,6.0,1.0,1.1649,4.0,2.0,Catalán,0.0,Castellano,0.0,Inglés,3.0,Alemán,12.0,4.0,2.0,yes,no,yes,Piano,8,,,"En la última prueba del último lenguaje algunas veces no se escuchaba el audio, por lo que he tenido que marcar al azar.",62.0,yes
82,2024-03-28_23h32.03.487,Unsyncopated_study3,s144,24.0,feminino,right,España,"Catalán, castellano",Bachelor degree,no,no,B,1,when,L1,unsyncopated,when,when,82,Online_whenL1//a.ki14.444.wav,fo,ni,ki,sil,ri,zu,la,sil1,ro,pu,sil2,['catch'],[0.790800000012041],[0.790800000012041],0.444,no_beat,0.346800000012041,0.346800000012041,"[""space""]",ki,1,testConjL3Uns//r2.s2.0.wav,4.0,conjunction_un,unsyncopated,b,s2,rule,rule,L3,z,3.4526,4.0,1.0,1.7672,4.0,2.0,Catalán,0.0,Castellano,0.0,Inglés,3.0,Alemán,12.0,4.0,2.0,yes,no,yes,Piano,8,,,"En la última prueba del último lenguaje algunas veces no se escuchaba el audio, por lo que he tenido que marcar al azar.",62.0,yes
83,2024-03-28_23h32.03.487,Unsyncopated_study3,s144,24.0,feminino,right,España,"Catalán, castellano",Bachelor degree,no,no,B,1,when,L1,unsyncopated,when,when,83,Online_whenL1//a.ki15.none.wav,ri,ta,fa,sil,fo,ne,be,sil1,ro,ze,sil2,['-'],,,none,none,,,,ki,1,testConjL3Uns//r1.s1.1.wav,4.0,conjunction_un,unsyncopated,a,s1,rule,rule,L3,m,2.7826,2.0,0.0,1.2488,4.0,2.0,Catalán,0.0,Castellano,0.0,Inglés,3.0,Alemán,12.0,4.0,2.0,yes,no,yes,Piano,8,,,"En la última prueba del último lenguaje algunas veces no se escuchaba el audio, por lo que he tenido que marcar al azar.",62.0,yes
84,2024-03-28_23h32.03.487,Unsyncopated_study3,s144,24.0,feminino,right,España,"Catalán, castellano",Bachelor degree,no,no,B,1,when,L1,unsyncopated,when,when,84,Online_whenL1//b.ta2.1332.wav,zu,ni,pu,sil,ri,ne,ta,sil1,ze,fa,sil2,['catch'],[1.69319999998811],[1.69319999998811],1.332,no_beat,0.3611999999881099,0.3611999999881099,"[""space""]",ta,2,testConjL3Uns//r1.s2.1.wav,4.0,conjunction_un,unsyncopated,a,s2,rule,rule,L3,z,1.9176,5.0,1.0,1.767,4.0,2.0,Catalán,0.0,Castellano,0.0,Inglés,3.0,Alemán,12.0,4.0,2.0,yes,no,yes,Piano,8,,,"En la última prueba del último lenguaje algunas veces no se escuchaba el audio, por lo que he tenido que marcar al azar.",62.0,yes
85,2024-03-28_23h32.03.487,Unsyncopated_study3,s144,24.0,feminino,right,España,"Catalán, castellano",Bachelor degree,no,no,B,1,when,L1,unsyncopated,when,when,85,Online_whenL1//b.ta0.none.wav,ri,lu,ze,sil,zu,la,pu,sil1,cho,be,sil2,['-'],,,none,none,,,,ta,2,testConjL3Uns//dep_viol.r1.s2.0.wav,4.0,conjunction_un,unsyncopated,a,s2,no_rule,dep,L3,z,3.4381,4.0,0.0,1.6495,4.0,2.0,Catalán,0.0,Castellano,0.0,Inglés,3.0,Alemán,12.0,4.0,2.0,yes,no,yes,Piano,8,,,"En la última prueba del último lenguaje algunas veces no se escuchaba el audio, por lo que he tenido que marcar al azar.",62.0,yes
86,2024-03-28_23h32.03.487,Unsyncopated_study3,s144,24.0,feminino,right,España,"Catalán, castellano",Bachelor degree,no,no,B,1,when,L1,unsyncopated,when,when,86,Online_whenL1//b.ta3.222.wav,ri,ta,fo,sil,ro,ni,pu,sil1,zu,ne,sil2,['catch'],[0.6614999999999327],[0.6614999999999327],0.222,no_beat,0.4394999999999327,0.4394999999999327,"[""space""]",ta,2,testConjL3Uns//cat_viol.r2.s1.0.wav,4.0,conjunction_un,unsyncopated,b,s1,no_rule,cat,L3,m,1.5497,3.0,1.0,1.7228,4.0,2.0,Catalán,0.0,Castellano,0.0,Inglés,3.0,Alemán,12.0,4.0,2.0,yes,no,yes,Piano,8,,,"En la última prueba del último lenguaje algunas veces no se escuchaba el audio, por lo que he tenido que marcar al azar.",62.0,yes
87,2024-03-28_23h32.03.487,Unsyncopated_study3,s144,24.0,feminino,right,España,"Catalán, castellano",Bachelor degree,no,no,B,1,when,L1,unsyncopated,when,when,87,Online_whenL1//b.ta1.none.wav,ki,cho,fa,sil,ne,ze,ri,sil1,be,la,sil2,['-'],,,none,none,,,,ta,2,testConjL3Uns//dep_viol.r1.s1.0.wav,4.0,conjunction_un,unsyncopated,a,s1,no_rule,dep,L3,z,3.4055,4.0,0.0,1.301,4.0,2.0,Catalán,0.0,Castellano,0.0,Inglés,3.0,Alemán,12.0,4.0,2.0,yes,no,yes,Piano,8,,,"En la última prueba del último lenguaje algunas veces no se escuchaba el audio, por lo que he tenido que marcar al azar.",62.0,yes
88,2024-03-28_23h32.03.487,Unsyncopated_study3,s144,24.0,feminino,right,España,"Catalán, castellano",Bachelor degree,no,no,B,1,when,L1,unsyncopated,when,when,88,Online_whenL1//c.ro26.444.wav,ki,zu,ro,sil,cho,ta,ne,sil1,ri,fa,sil2,['catch'],[0.9584999999999582],[0.9584999999999582],0.444,no_beat,0.5144999999999582,0.5144999999999582,"[""space""]",ro,3,testConjL3Uns//r1.s2.2.wav,4.0,conjunction_un,unsyncopated,a,s2,rule,rule,L3,z,0.6987,5.0,1.0,3.7642,4.0,2.0,Catalán,0.0,Castellano,0.0,Inglés,3.0,Alemán,12.0,4.0,2.0,yes,no,yes,Piano,8,,,"En la última prueba del último lenguaje algunas veces no se escuchaba el audio, por lo que he tenido que marcar al azar.",62.0,yes
89,2024-03-28_23h32.03.487,Unsyncopated_study3,s144,24.0,feminino,right,España,"Catalán, castellano",Bachelor degree,no,no,B,1,when,L1,unsyncopated,when,when,89,Online_whenL1//c.ro27.none.wav,ni,be,la,sil,lu,zu,ri,sil1,pu,ze,sil2,['-'],,,none,none,,,,ro,3,testConjL3Uns//r2.s1.2.wav,4.0,conjunction_un,unsyncopated,b,s1,rule,rule,L3,z,1.9336,3.0,1.0,1.7035,4.0,2.0,Catalán,0.0,Castellano,0.0,Inglés,3.0,Alemán,12.0,4.0,2.0,yes,no,yes,Piano,8,,,"En la última prueba del último lenguaje algunas veces no se escuchaba el audio, por lo que he tenido que marcar al azar.",62.0,yes
90,2024-03-28_23h32.03.487,Unsyncopated_study3,s144,24.0,feminino,right,España,"Catalán, castellano",Bachelor degree,no,no,B,1,when,L1,unsyncopated,when,when,90,Online_whenL1//c.ro24.222.wav,fo,ro,ta,sil,fa,ne,cho,sil1,be,ze,sil2,['catch'],[0.8029000000060478],[0.8029000000060478],0.222,no_beat,0.5809000000060478,0.5809000000060478,"[""space""]",ro,3,testConjL3Uns//dep_viol.r2.s1.0.wav,4.0,conjunction_un,unsyncopated,b,s1,no_rule,dep,L3,m,2.049,5.0,1.0,1.4156,4.0,2.0,Catalán,0.0,Castellano,0.0,Inglés,3.0,Alemán,12.0,4.0,2.0,yes,no,yes,Piano,8,,,"En la última prueba del último lenguaje algunas veces no se escuchaba el audio, por lo que he tenido que marcar al azar.",62.0,yes
91,2024-03-28_23h32.03.487,Unsyncopated_study3,s144,24.0,feminino,right,España,"Catalán, castellano",Bachelor degree,no,no,B,1,when,L1,unsyncopated,when,when,91,Online_whenL1//c.ro25.none.wav,la,pu,cho,sil,ki,fo,ze,sil1,ne,ni,sil2,['-'],,,none,none,,,,ro,3,testConjL3Uns//r2.s1.0.wav,4.0,conjunction_un,unsyncopated,b,s1,rule,rule,L3,m,1.4323,3.0,0.0,1.6331,4.0,2.0,Catalán,0.0,Castellano,0.0,Inglés,3.0,Alemán,12.0,4.0,2.0,yes,no,yes,Piano,8,,,"En la última prueba del último lenguaje algunas veces no se escuchaba el audio, por lo que he tenido que marcar al azar.",62.0,yes
92,2024-03-28_23h32.03.487,Unsyncopated_study3,s144,24.0,feminino,right,España,"Catalán, castellano",Bachelor degree,no,no,B,1,when,L1,unsyncopated,when,when,92,Online_whenL1//d.ne12.888.wav,fo,be,zu,sil,ne,ro,ze,sil1,ni,ta,sil2,['miss'],,,0.888,beat,,,,ne,4,testConjL3Uns//r2.s1.1.wav,4.0,conjunction_un,unsyncopated,b,s1,rule,rule,L3,z,1.2077,4.0,1.0,1.5157,4.0,2.0,Catalán,0.0,Castellano,0.0,Inglés,3.0,Alemán,12.0,4.0,2.0,yes,no,yes,Piano,8,,,"En la última prueba del último lenguaje algunas veces no se escuchaba el audio, por lo que he tenido que marcar al azar.",62.0,yes
93,2024-03-28_23h32.03.487,Unsyncopated_study3,s144,24.0,feminino,right,España,"Catalán, castellano",Bachelor degree,no,no,B,1,when,L1,unsyncopated,when,when,93,Online_whenL1//d.ne15.444.wav,be,la,ne,sil,fo,pu,ro,sil1,fa,lu,sil2,['miss'],,,0.444,no_beat,,,,ne,4,testConjL3Uns//r2.s2.2.wav,4.0,conjunction_un,unsyncopated,b,s2,rule,rule,L3,z,1.8661,4.0,1.0,1.1986,4.0,2.0,Catalán,0.0,Castellano,0.0,Inglés,3.0,Alemán,12.0,4.0,2.0,yes,no,yes,Piano,8,,,"En la última prueba del último lenguaje algunas veces no se escuchaba el audio, por lo que he tenido que marcar al azar.",62.0,yes
94,2024-03-28_23h32.03.487,Unsyncopated_study3,s144,24.0,feminino,right,España,"Catalán, castellano",Bachelor degree,no,no,B,1,when,L1,unsyncopated,when,when,94,Online_whenL1//d.ne14.none.wav,ro,lu,cho,sil,ni,pu,ri,sil1,be,zu,sil2,['-'],,,none,none,,,,ne,4,testConjL3Uns//r1.s2.0.wav,4.0,conjunction_un,unsyncopated,a,s2,rule,rule,L3,z,2.9647,5.0,1.0,1.3844,4.0,2.0,Catalán,0.0,Castellano,0.0,Inglés,3.0,Alemán,12.0,4.0,2.0,yes,no,yes,Piano,8,,,"En la última prueba del último lenguaje algunas veces no se escuchaba el audio, por lo que he tenido que marcar al azar.",62.0,yes
95,2024-03-28_23h32.03.487,Unsyncopated_study3,s144,24.0,feminino,right,España,"Catalán, castellano",Bachelor degree,no,no,B,1,when,L1,unsyncopated,when,when,95,Online_whenL1//d.ne13.none.wav,ro,cho,fa,sil,lu,ki,ze,sil1,be,fo,sil2,['-'],,,none,none,,,,ne,4,testConjL3Uns//r2.s2.1.wav,4.0,conjunction_un,unsyncopated,b,s2,rule,rule,L3,m,1.1987,5.0,0.0,1.9482,4.0,2.0,Catalán,0.0,Castellano,0.0,Inglés,3.0,Alemán,12.0,4.0,2.0,yes,no,yes,Piano,8,,,"En la última prueba del último lenguaje algunas veces no se escuchaba el audio, por lo que he tenido que marcar al azar.",62.0,yes
96,2024-03-28_23h32.03.487,Unsyncopated_study3,s144,24.0,feminino,right,España,"Catalán, castellano",Bachelor degree,no,no,B,1,when,L1,unsyncopated,when,when,96,Online_whenL1//d.ne5.none.wav,zu,ta,lu,sil,la,ni,ri,sil1,fa,be,sil2,['-'],,,none,none,,,,ne,4,,,,,,,,,,,,,,,4.0,2.0,Catalán,0.0,Castellano,0.0,Inglés,3.0,Alemán,12.0,4.0,2.0,yes,no,yes,Piano,8,,,"En la última prueba del último lenguaje algunas veces no se escuchaba el audio, por lo que he tenido que marcar al azar.",62.0,yes
97,2024-03-28_23h32.03.487,Unsyncopated_study3,s144,24.0,feminino,right,España,"Catalán, castellano",Bachelor degree,no,no,B,1,when,L1,unsyncopated,when,when,97,Online_whenL1//d.ne4.1998.wav,fo,ki,ta,sil,ri,cho,zu,sil1,ni,ne,sil2,['catch'],[2.525899999976218],[2.525899999976218],1.998,no_beat,0.5278999999762182,0.5278999999762182,"[""space""]",ne,4,,,,,,,,,,,,,,,4.0,2.0,Catalán,0.0,Castellano,0.0,Inglés,3.0,Alemán,12.0,4.0,2.0,yes,no,yes,Piano,8,,,"En la última prueba del último lenguaje algunas veces no se escuchaba el audio, por lo que he tenido que marcar al azar.",62.0,yes
98,2024-03-28_23h32.03.487,Unsyncopated_study3,s144,24.0,feminino,right,España,"Catalán, castellano",Bachelor degree,no,no,B,1,when,L1,unsyncopated,when,when,98,Online_whenL1//d.ne6.444.wav,fo,pu,ne,sil,cho,ro,lu,sil1,ki,zu,sil2,['catch'],[1.0046000000238564],[1.0046000000238564],0.444,no_beat,0.5606000000238565,0.5606000000238565,"[""space""]",ne,4,,,,,,,,,,,,,,,4.0,2.0,Catalán,0.0,Castellano,0.0,Inglés,3.0,Alemán,12.0,4.0,2.0,yes,no,yes,Piano,8,,,"En la última prueba del último lenguaje algunas veces no se escuchaba el audio, por lo que he tenido que marcar al azar.",62.0,yes
99,2024-03-28_23h32.03.487,Unsyncopated_study3,s144,24.0,feminino,right,España,"Catalán, castellano",Bachelor degree,no,no,B,1,when,L1,unsyncopated,when,when,99,Online_whenL1//d.ne7.none.wav,ri,lu,ki,sil,zu,ni,ta,sil1,cho,ro,sil2,['-'],,,none,none,,,,ne,4,,,,,,,,,,,,,,,4.0,2.0,Catalán,0.0,Castellano,0.0,Inglés,3.0,Alemán,12.0,4.0,2.0,yes,no,yes,Piano,8,,,"En la última prueba del último lenguaje algunas veces no se escuchaba el audio, por lo que he tenido que marcar al azar.",62.0,yes
100,2024-03-28_23h32.03.487,Unsyncopated_study3,s144,24.0,feminino,right,España,"Catalán, castellano",Bachelor degree,no,no,B,1,when,L1,unsyncopated,when,when,100,Online_whenL1//b.ta27.none.wav,be,fa,cho,sil,pu,ze,ni,sil1,lu,zu,sil2,['-'],,,none,none,,,,ta,2,,,,,,,,,,,,,,,4.0,2.0,Catalán,0.0,Castellano,0.0,Inglés,3.0,Alemán,12.0,4.0,2.0,yes,no,yes,Piano,8,,,"En la última prueba del último lenguaje algunas veces no se escuchaba el audio, por lo que he tenido que marcar al azar.",62.0,yes
101,2024-03-28_23h32.03.487,Unsyncopated_study3,s144,24.0,feminino,right,España,"Catalán, castellano",Bachelor degree,no,no,B,1,when,L1,unsyncopated,when,when,101,Online_whenL1//b.ta25.0.wav,ta,ne,ro,sil,fo,be,lu,sil1,zu,fa,sil2,['catch'],[0.521699999987959],[0.521699999987959],0.0,beat,0.521699999987959,0.521699999987959,"[""space""]",ta,2,,,,,,,,,,,,,,,4.0,2.0,Catalán,0.0,Castellano,0.0,Inglés,3.0,Alemán,12.0,4.0,2.0,yes,no,yes,Piano,8,,,"En la última prueba del último lenguaje algunas veces no se escuchaba el audio, por lo que he tenido que marcar al azar.",62.0,yes
102,2024-03-28_23h32.03.487,Unsyncopated_study3,s144,24.0,feminino,right,España,"Catalán, castellano",Bachelor degree,no,no,B,1,when,L1,unsyncopated,when,when,102,Online_whenL1//b.ta24.1998.wav,ro,lu,ki,sil,cho,ne,ri,sil1,ni,ta,sil2,['catch'],[2.520799999982273],[2.520799999982273],1.998,no_beat,0.5227999999822732,0.5227999999822732,"[""space""]",ta,2,,,,,,,,,,,,,,,4.0,2.0,Catalán,0.0,Castellano,0.0,Inglés,3.0,Alemán,12.0,4.0,2.0,yes,no,yes,Piano,8,,,"En la última prueba del último lenguaje algunas veces no se escuchaba el audio, por lo que he tenido que marcar al azar.",62.0,yes
103,2024-03-28_23h32.03.487,Unsyncopated_study3,s144,24.0,feminino,right,España,"Catalán, castellano",Bachelor degree,no,no,B,1,when,L1,unsyncopated,when,when,103,Online_whenL1//b.ta26.888.wav,zu,la,be,sil,ta,ro,cho,sil1,fo,ne,sil2,['catch'],[1.8756999999880009],[1.8756999999880009],0.888,beat,0.9876999999880008,0.9876999999880008,"[""space""]",ta,2,,,,,,,,,,,,,,,4.0,2.0,Catalán,0.0,Castellano,0.0,Inglés,3.0,Alemán,12.0,4.0,2.0,yes,no,yes,Piano,8,,,"En la última prueba del último lenguaje algunas veces no se escuchaba el audio, por lo que he tenido que marcar al azar.",62.0,yes
104,2024-03-28_23h32.03.487,Unsyncopated_study3,s144,24.0,feminino,right,España,"Catalán, castellano",Bachelor degree,no,no,B,1,when,L1,unsyncopated,when,when,104,Online_whenL1//a.ki2.none.wav,zu,ne,ta,sil,ri,be,ni,sil1,fo,lu,sil2,['-'],,,none,none,,,,ki,1,,,,,,,,,,,,,,,4.0,2.0,Catalán,0.0,Castellano,0.0,Inglés,3.0,Alemán,12.0,4.0,2.0,yes,no,yes,Piano,8,,,"En la última prueba del último lenguaje algunas veces no se escuchaba el audio, por lo que he tenido que marcar al azar.",62.0,yes
105,2024-03-28_23h32.03.487,Unsyncopated_study3,s144,24.0,feminino,right,España,"Catalán, castellano",Bachelor degree,no,no,B,1,when,L1,unsyncopated,when,when,105,Online_whenL1//a.ki0.none.wav,zu,ta,ri,sil,ro,ne,cho,sil1,pu,la,sil2,['-'],,,none,none,,,,ki,1,,,,,,,,,,,,,,,4.0,2.0,Catalán,0.0,Castellano,0.0,Inglés,3.0,Alemán,12.0,4.0,2.0,yes,no,yes,Piano,8,,,"En la última prueba del último lenguaje algunas veces no se escuchaba el audio, por lo que he tenido que marcar al azar.",62.0,yes
106,2024-03-28_23h32.03.487,Unsyncopated_study3,s144,24.0,feminino,right,España,"Catalán, castellano",Bachelor degree,no,no,B,1,when,L1,unsyncopated,when,when,106,Online_whenL1//a.ki1.1776.wav,zu,ri,ni,sil,ne,be,ro,sil1,ki,fa,sil2,['catch'],[2.2376000000238037],[2.2376000000238037],1.776,beat,0.4616000000238036,0.4616000000238036,"[""space""]",ki,1,,,,,,,,,,,,,,,4.0,2.0,Catalán,0.0,Castellano,0.0,Inglés,3.0,Alemán,12.0,4.0,2.0,yes,no,yes,Piano,8,,,"En la última prueba del último lenguaje algunas veces no se escuchaba el audio, por lo que he tenido que marcar al azar.",62.0,yes
107,2024-03-28_23h32.03.487,Unsyncopated_study3,s144,24.0,feminino,right,España,"Catalán, castellano",Bachelor degree,no,no,B,1,when,L1,unsyncopated,when,when,107,Online_whenL1//a.ki3.1110.wav,ri,ni,fa,sil,cho,ki,ze,sil1,fo,ta,sil2,['false alarm'],[1.0137999999822114],[1.0137999999822114],1.11,no_beat,,,"[""space""]",ki,1,,,,,,,,,,,,,,,4.0,2.0,Catalán,0.0,Castellano,0.0,Inglés,3.0,Alemán,12.0,4.0,2.0,yes,no,yes,Piano,8,,,"En la última prueba del último lenguaje algunas veces no se escuchaba el audio, por lo que he tenido que marcar al azar.",62.0,yes
108,2024-03-28_23h32.03.487,Unsyncopated_study3,s144,24.0,feminino,right,España,"Catalán, castellano",Bachelor degree,no,no,B,1,when,L1,unsyncopated,when,when,108,Online_whenL1//c.ro7.0.wav,ro,ta,pu,sil,fa,lu,fo,sil1,cho,ri,sil2,['miss'],,,0.0,beat,,,,ro,3,,,,,,,,,,,,,,,4.0,2.0,Catalán,0.0,Castellano,0.0,Inglés,3.0,Alemán,12.0,4.0,2.0,yes,no,yes,Piano,8,,,"En la última prueba del último lenguaje algunas veces no se escuchaba el audio, por lo que he tenido que marcar al azar.",62.0,yes
109,2024-03-28_23h32.03.487,Unsyncopated_study3,s144,24.0,feminino,right,España,"Catalán, castellano",Bachelor degree,no,no,B,1,when,L1,unsyncopated,when,when,109,Online_whenL1//c.ro6.none.wav,ri,ze,ta,sil,ne,zu,lu,sil1,be,fo,sil2,['-'],,,none,none,,,,ro,3,,,,,,,,,,,,,,,4.0,2.0,Catalán,0.0,Castellano,0.0,Inglés,3.0,Alemán,12.0,4.0,2.0,yes,no,yes,Piano,8,,,"En la última prueba del último lenguaje algunas veces no se escuchaba el audio, por lo que he tenido que marcar al azar.",62.0,yes
110,2024-03-28_23h32.03.487,Unsyncopated_study3,s144,24.0,feminino,right,España,"Catalán, castellano",Bachelor degree,no,no,B,1,when,L1,unsyncopated,when,when,110,Online_whenL1//c.ro5.none.wav,ni,zu,ze,sil,pu,be,fa,sil1,cho,fo,sil2,['-'],,,none,none,,,,ro,3,,,,,,,,,,,,,,,4.0,2.0,Catalán,0.0,Castellano,0.0,Inglés,3.0,Alemán,12.0,4.0,2.0,yes,no,yes,Piano,8,,,"En la última prueba del último lenguaje algunas veces no se escuchaba el audio, por lo que he tenido que marcar al azar.",62.0,yes
111,2024-03-28_23h32.03.487,Unsyncopated_study3,s144,24.0,feminino,right,España,"Catalán, castellano",Bachelor degree,no,no,B,1,when,L1,unsyncopated,when,when,111,Online_whenL1//c.ro4.0.wav,ro,ri,ni,sil,pu,be,la,sil1,fa,ze,sil2,['catch'],[0.5123999999761963],[0.5123999999761963],0.0,beat,0.5123999999761963,0.5123999999761963,"[""space""]",ro,3,,,,,,,,,,,,,,,4.0,2.0,Catalán,0.0,Castellano,0.0,Inglés,3.0,Alemán,12.0,4.0,2.0,yes,no,yes,Piano,8,,,"En la última prueba del último lenguaje algunas veces no se escuchaba el audio, por lo que he tenido que marcar al azar.",62.0,yes
112,2024-03-28_23h32.03.487,Unsyncopated_study3,s144,24.0,feminino,right,España,"Catalán, castellano",Bachelor degree,no,no,B,1,when,L1,unsyncopated,when,when,112,Online_whenL1//c.ro17.none.wav,la,ze,pu,sil,ki,cho,zu,sil1,fa,ne,sil2,['-'],,,none,none,,,,ro,3,,,,,,,,,,,,,,,4.0,2.0,Catalán,0.0,Castellano,0.0,Inglés,3.0,Alemán,12.0,4.0,2.0,yes,no,yes,Piano,8,,,"En la última prueba del último lenguaje algunas veces no se escuchaba el audio, por lo que he tenido que marcar al azar.",62.0,yes
113,2024-03-28_23h32.03.487,Unsyncopated_study3,s144,24.0,feminino,right,España,"Catalán, castellano",Bachelor degree,no,no,B,1,when,L1,unsyncopated,when,when,113,Online_whenL1//c.ro19.1332.wav,ze,be,pu,sil,ne,fo,ro,sil1,lu,cho,sil2,['catch'],[1.8540000000000418],[1.8540000000000418],1.332,no_beat,0.5220000000000418,0.5220000000000418,"[""space""]",ro,3,,,,,,,,,,,,,,,4.0,2.0,Catalán,0.0,Castellano,0.0,Inglés,3.0,Alemán,12.0,4.0,2.0,yes,no,yes,Piano,8,,,"En la última prueba del último lenguaje algunas veces no se escuchaba el audio, por lo que he tenido que marcar al azar.",62.0,yes
114,2024-03-28_23h32.03.487,Unsyncopated_study3,s144,24.0,feminino,right,España,"Catalán, castellano",Bachelor degree,no,no,B,1,when,L1,unsyncopated,when,when,114,Online_whenL1//c.ro16.1776.wav,fa,ne,zu,sil,ki,ta,ze,sil1,ro,cho,sil2,['catch'],[2.5450999999939086],[2.5450999999939086],1.776,beat,0.7690999999939085,0.7690999999939085,"[""space""]",ro,3,,,,,,,,,,,,,,,4.0,2.0,Catalán,0.0,Castellano,0.0,Inglés,3.0,Alemán,12.0,4.0,2.0,yes,no,yes,Piano,8,,,"En la última prueba del último lenguaje algunas veces no se escuchaba el audio, por lo que he tenido que marcar al azar.",62.0,yes
115,2024-03-28_23h32.03.487,Unsyncopated_study3,s144,24.0,feminino,right,España,"Catalán, castellano",Bachelor degree,no,no,B,1,when,L1,unsyncopated,when,when,115,Online_whenL1//c.ro18.none.wav,ki,ri,ni,sil,ne,ta,cho,sil1,fo,ze,sil2,['-'],,,none,none,,,,ro,3,,,,,,,,,,,,,,,4.0,2.0,Catalán,0.0,Castellano,0.0,Inglés,3.0,Alemán,12.0,4.0,2.0,yes,no,yes,Piano,8,,,"En la última prueba del último lenguaje algunas veces no se escuchaba el audio, por lo que he tenido que marcar al azar.",62.0,yes
116,2024-03-28_23h32.03.487,Unsyncopated_study3,s144,24.0,feminino,right,España,"Catalán, castellano",Bachelor degree,no,no,B,1,when,L1,unsyncopated,when,when,116,Online_whenL1//d.ne17.none.wav,fa,cho,ki,sil,la,ta,lu,sil1,fo,ni,sil2,['-'],,,none,none,,,,ne,4,,,,,,,,,,,,,,,4.0,2.0,Catalán,0.0,Castellano,0.0,Inglés,3.0,Alemán,12.0,4.0,2.0,yes,no,yes,Piano,8,,,"En la última prueba del último lenguaje algunas veces no se escuchaba el audio, por lo que he tenido que marcar al azar.",62.0,yes
117,2024-03-28_23h32.03.487,Unsyncopated_study3,s144,24.0,feminino,right,España,"Catalán, castellano",Bachelor degree,no,no,B,1,when,L1,unsyncopated,when,when,117,Online_whenL1//d.ne18.1998.wav,fo,ri,be,sil,ki,ze,la,sil1,lu,ne,sil2,['miss'],,,1.998,no_beat,,,,ne,4,,,,,,,,,,,,,,,4.0,2.0,Catalán,0.0,Castellano,0.0,Inglés,3.0,Alemán,12.0,4.0,2.0,yes,no,yes,Piano,8,,,"En la última prueba del último lenguaje algunas veces no se escuchaba el audio, por lo que he tenido que marcar al azar.",62.0,yes
118,2024-03-28_23h32.03.487,Unsyncopated_study3,s144,24.0,feminino,right,España,"Catalán, castellano",Bachelor degree,no,no,B,1,when,L1,unsyncopated,when,when,118,Online_whenL1//d.ne16.1776.wav,cho,fo,ri,sil,lu,pu,zu,sil1,ne,be,sil2,['catch'],[2.603600000023789],[2.603600000023789],1.776,beat,0.8276000000237891,0.8276000000237891,"[""space""]",ne,4,,,,,,,,,,,,,,,4.0,2.0,Catalán,0.0,Castellano,0.0,Inglés,3.0,Alemán,12.0,4.0,2.0,yes,no,yes,Piano,8,,,"En la última prueba del último lenguaje algunas veces no se escuchaba el audio, por lo que he tenido que marcar al azar.",62.0,yes
119,2024-03-28_23h32.03.487,Unsyncopated_study3,s144,24.0,feminino,right,España,"Catalán, castellano",Bachelor degree,no,no,B,1,when,L1,unsyncopated,when,when,119,Online_whenL1//d.ne19.222.wav,ri,ne,ni,sil,cho,be,zu,sil1,pu,fa,sil2,['miss'],,,0.222,no_beat,,,,ne,4,,,,,,,,,,,,,,,4.0,2.0,Catalán,0.0,Castellano,0.0,Inglés,3.0,Alemán,12.0,4.0,2.0,yes,no,yes,Piano,8,,,"En la última prueba del último lenguaje algunas veces no se escuchaba el audio, por lo que he tenido que marcar al azar.",62.0,yes
120,2024-03-28_23h32.03.487,Unsyncopated_study3,s144,24.0,feminino,right,España,"Catalán, castellano",Bachelor degree,no,no,B,1,when,L1,unsyncopated,when,when,120,Online_whenL1//a.ki11.none.wav,cho,la,pu,sil,zu,ta,ro,sil1,ni,ri,sil2,['-'],,,none,none,,,,ki,1,,,,,,,,,,,,,,,4.0,2.0,Catalán,0.0,Castellano,0.0,Inglés,3.0,Alemán,12.0,4.0,2.0,yes,no,yes,Piano,8,,,"En la última prueba del último lenguaje algunas veces no se escuchaba el audio, por lo que he tenido que marcar al azar.",62.0,yes
121,2024-03-28_23h32.03.487,Unsyncopated_study3,s144,24.0,feminino,right,España,"Catalán, castellano",Bachelor degree,no,no,B,1,when,L1,unsyncopated,when,when,121,Online_whenL1//a.ki9.none.wav,la,ro,ze,sil,cho,fa,pu,sil1,ne,ta,sil2,['-'],,,none,none,,,,ki,1,,,,,,,,,,,,,,,4.0,2.0,Catalán,0.0,Castellano,0.0,Inglés,3.0,Alemán,12.0,4.0,2.0,yes,no,yes,Piano,8,,,"En la última prueba del último lenguaje algunas veces no se escuchaba el audio, por lo que he tenido que marcar al azar.",62.0,yes
122,2024-03-28_23h32.03.487,Unsyncopated_study3,s144,24.0,feminino,right,España,"Catalán, castellano",Bachelor degree,no,no,B,1,when,L1,unsyncopated,when,when,122,Online_whenL1//a.ki10.222.wav,ro,ki,be,sil,la,ri,lu,sil1,fo,fa,sil2,['catch'],[0.6713000000117972],[0.6713000000117972],0.222,no_beat,0.4493000000117972,0.4493000000117972,"[""space""]",ki,1,,,,,,,,,,,,,,,4.0,2.0,Catalán,0.0,Castellano,0.0,Inglés,3.0,Alemán,12.0,4.0,2.0,yes,no,yes,Piano,8,,,"En la última prueba del último lenguaje algunas veces no se escuchaba el audio, por lo que he tenido que marcar al azar.",62.0,yes
123,2024-03-28_23h32.03.487,Unsyncopated_study3,s144,24.0,feminino,right,España,"Catalán, castellano",Bachelor degree,no,no,B,1,when,L1,unsyncopated,when,when,123,Online_whenL1//a.ki8.none.wav,ne,fo,zu,sil,pu,be,ni,sil1,ze,la,sil2,['-'],,,none,none,,,,ki,1,,,,,,,,,,,,,,,4.0,2.0,Catalán,0.0,Castellano,0.0,Inglés,3.0,Alemán,12.0,4.0,2.0,yes,no,yes,Piano,8,,,"En la última prueba del último lenguaje algunas veces no se escuchaba el audio, por lo que he tenido que marcar al azar.",62.0,yes
124,2024-03-28_23h32.03.487,Unsyncopated_study3,s144,24.0,feminino,right,España,"Catalán, castellano",Bachelor degree,no,no,B,1,when,L1,unsyncopated,when,when,124,Online_whenL1//c.ro22.none.wav,cho,la,zu,sil,fa,fo,ta,sil1,ni,be,sil2,['-'],,,none,none,,,,ro,3,,,,,,,,,,,,,,,4.0,2.0,Catalán,0.0,Castellano,0.0,Inglés,3.0,Alemán,12.0,4.0,2.0,yes,no,yes,Piano,8,,,"En la última prueba del último lenguaje algunas veces no se escuchaba el audio, por lo que he tenido que marcar al azar.",62.0,yes
125,2024-03-28_23h32.03.487,Unsyncopated_study3,s144,24.0,feminino,right,España,"Catalán, castellano",Bachelor degree,no,no,B,1,when,L1,unsyncopated,when,when,125,Online_whenL1//c.ro21.none.wav,ni,ta,ki,sil,fo,lu,cho,sil1,la,ne,sil2,['-'],,,none,none,,,,ro,3,,,,,,,,,,,,,,,4.0,2.0,Catalán,0.0,Castellano,0.0,Inglés,3.0,Alemán,12.0,4.0,2.0,yes,no,yes,Piano,8,,,"En la última prueba del último lenguaje algunas veces no se escuchaba el audio, por lo que he tenido que marcar al azar.",62.0,yes
126,2024-03-28_23h32.03.487,Unsyncopated_study3,s144,24.0,feminino,right,España,"Catalán, castellano",Bachelor degree,no,no,B,1,when,L1,unsyncopated,when,when,126,Online_whenL1//c.ro23.1998.wav,cho,la,pu,sil,ri,fo,ta,sil1,lu,ro,sil2,['catch_delay'],[0.8745999999940215],[0.8745999999940215],1.998,no_beat,0.8745999999940215,0.8745999999940215,,ro,3,,,,,,,,,,,,,,,4.0,2.0,Catalán,0.0,Castellano,0.0,Inglés,3.0,Alemán,12.0,4.0,2.0,yes,no,yes,Piano,8,,,"En la última prueba del último lenguaje algunas veces no se escuchaba el audio, por lo que he tenido que marcar al azar.",62.0,yes
127,2024-03-28_23h32.03.487,Unsyncopated_study3,s144,24.0,feminino,right,España,"Catalán, castellano",Bachelor degree,no,no,B,1,when,L1,unsyncopated,when,when,127,Online_whenL1//c.ro20.none.wav,cho,zu,ri,sil,la,be,ne,sil1,fa,ta,sil2,['-'],[0.20859999999402135],[0.20859999999402135],none,none,,,"[""space""]",ro,3,,,,,,,,,,,,,,,4.0,2.0,Catalán,0.0,Castellano,0.0,Inglés,3.0,Alemán,12.0,4.0,2.0,yes,no,yes,Piano,8,,,"En la última prueba del último lenguaje algunas veces no se escuchaba el audio, por lo que he tenido que marcar al azar.",62.0,yes
128,2024-03-28_23h32.03.487,Unsyncopated_study3,s144,24.0,feminino,right,España,"Catalán, castellano",Bachelor degree,no,no,B,1,when,L1,unsyncopated,when,when,128,Online_whenL1//a.ki34.none.wav,ni,be,ro,sil,fo,cho,pu,sil1,ri,ze,sil2,['-'],,,none,none,,,,ki,1,,,,,,,,,,,,,,,4.0,2.0,Catalán,0.0,Castellano,0.0,Inglés,3.0,Alemán,12.0,4.0,2.0,yes,no,yes,Piano,8,,,"En la última prueba del último lenguaje algunas veces no se escuchaba el audio, por lo que he tenido que marcar al azar.",62.0,yes
129,2024-03-28_23h32.03.487,Unsyncopated_study3,s144,24.0,feminino,right,España,"Catalán, castellano",Bachelor degree,no,no,B,1,when,L1,unsyncopated,when,when,129,Online_whenL1//a.ki32.1110.wav,cho,ro,ne,sil,ri,ki,zu,sil1,ze,be,sil2,['catch'],[1.5211999999880845],[1.5211999999880845],1.11,no_beat,0.4111999999880844,0.4111999999880844,"[""space""]",ki,1,,,,,,,,,,,,,,,4.0,2.0,Catalán,0.0,Castellano,0.0,Inglés,3.0,Alemán,12.0,4.0,2.0,yes,no,yes,Piano,8,,,"En la última prueba del último lenguaje algunas veces no se escuchaba el audio, por lo que he tenido que marcar al azar.",62.0,yes
130,2024-03-28_23h32.03.487,Unsyncopated_study3,s144,24.0,feminino,right,España,"Catalán, castellano",Bachelor degree,no,no,B,1,when,L1,unsyncopated,when,when,130,Online_whenL1//a.ki33.1332.wav,fa,be,ne,sil,la,ni,ki,sil1,ro,zu,sil2,['catch'],[1.9487000000178796],[1.9487000000178796],1.332,no_beat,0.6167000000178795,0.6167000000178795,"[""space""]",ki,1,,,,,,,,,,,,,,,4.0,2.0,Catalán,0.0,Castellano,0.0,Inglés,3.0,Alemán,12.0,4.0,2.0,yes,no,yes,Piano,8,,,"En la última prueba del último lenguaje algunas veces no se escuchaba el audio, por lo que he tenido que marcar al azar.",62.0,yes
131,2024-03-28_23h32.03.487,Unsyncopated_study3,s144,24.0,feminino,right,España,"Catalán, castellano",Bachelor degree,no,no,B,1,when,L1,unsyncopated,when,when,131,Online_whenL1//a.ki35.none.wav,ne,la,fo,sil,cho,ta,ni,sil1,ri,be,sil2,['-'],,,none,none,,,,ki,1,,,,,,,,,,,,,,,4.0,2.0,Catalán,0.0,Castellano,0.0,Inglés,3.0,Alemán,12.0,4.0,2.0,yes,no,yes,Piano,8,,,"En la última prueba del último lenguaje algunas veces no se escuchaba el audio, por lo que he tenido que marcar al azar.",62.0,yes
132,2024-03-28_23h32.03.487,Unsyncopated_study3,s144,24.0,feminino,right,España,"Catalán, castellano",Bachelor degree,no,no,B,1,when,L1,unsyncopated,when,when,132,Online_whenL1//b.ta6.none.wav,ze,zu,la,sil,ni,ri,ki,sil1,ro,pu,sil2,['-'],,,none,none,,,,ta,2,,,,,,,,,,,,,,,4.0,2.0,Catalán,0.0,Castellano,0.0,Inglés,3.0,Alemán,12.0,4.0,2.0,yes,no,yes,Piano,8,,,"En la última prueba del último lenguaje algunas veces no se escuchaba el audio, por lo que he tenido que marcar al azar.",62.0,yes
133,2024-03-28_23h32.03.487,Unsyncopated_study3,s144,24.0,feminino,right,España,"Catalán, castellano",Bachelor degree,no,no,B,1,when,L1,unsyncopated,when,when,133,Online_whenL1//b.ta7.888.wav,lu,fa,fo,sil,ta,pu,ri,sil1,ni,ne,sil2,['catch'],[1.3307000000179414],[1.3307000000179414],0.888,beat,0.4427000000179414,0.4427000000179414,"[""space""]",ta,2,,,,,,,,,,,,,,,4.0,2.0,Catalán,0.0,Castellano,0.0,Inglés,3.0,Alemán,12.0,4.0,2.0,yes,no,yes,Piano,8,,,"En la última prueba del último lenguaje algunas veces no se escuchaba el audio, por lo que he tenido que marcar al azar.",62.0,yes
134,2024-03-28_23h32.03.487,Unsyncopated_study3,s144,24.0,feminino,right,España,"Catalán, castellano",Bachelor degree,no,no,B,1,when,L1,unsyncopated,when,when,134,Online_whenL1//b.ta5.1332.wav,pu,ro,cho,sil,zu,fa,ta,sil1,ri,ne,sil2,['catch'],[1.9975999999940086],[1.9975999999940086],1.332,no_beat,0.6655999999940085,0.6655999999940085,"[""space""]",ta,2,,,,,,,,,,,,,,,4.0,2.0,Catalán,0.0,Castellano,0.0,Inglés,3.0,Alemán,12.0,4.0,2.0,yes,no,yes,Piano,8,,,"En la última prueba del último lenguaje algunas veces no se escuchaba el audio, por lo que he tenido que marcar al azar.",62.0,yes
135,2024-03-28_23h32.03.487,Unsyncopated_study3,s144,24.0,feminino,right,España,"Catalán, castellano",Bachelor degree,no,no,B,1,when,L1,unsyncopated,when,when,135,Online_whenL1//b.ta4.1776.wav,ni,pu,ze,sil,fo,ro,ne,sil1,ta,zu,sil2,['catch'],[2.2606999999879918],[2.2606999999879918],1.776,beat,0.4846999999879917,0.4846999999879917,"[""space""]",ta,2,,,,,,,,,,,,,,,4.0,2.0,Catalán,0.0,Castellano,0.0,Inglés,3.0,Alemán,12.0,4.0,2.0,yes,no,yes,Piano,8,,,"En la última prueba del último lenguaje algunas veces no se escuchaba el audio, por lo que he tenido que marcar al azar.",62.0,yes
136,2024-03-28_23h32.03.487,Unsyncopated_study3,s144,24.0,feminino,right,España,"Catalán, castellano",Bachelor degree,no,no,B,2,conjunction_syn,L2,syncopated,s2,r2,0,Online_conjL2_syn//c.cha.me0.444.1110.wav,te,su,cha,fe,sil,me,si,ra,sil1,ba,sil2,['catch'],[1.584300000012263],[1.584300000012263],1.11,no_beat,0.4743000000122628,0.4743000000122628,"[""space""]",me,3,,,,,,,,,,,,,,,4.0,2.0,Catalán,0.0,Castellano,0.0,Inglés,3.0,Alemán,12.0,4.0,2.0,yes,no,yes,Piano,8,,,"En la última prueba del último lenguaje algunas veces no se escuchaba el audio, por lo que he tenido que marcar al azar.",62.0,yes
137,2024-03-28_23h32.03.487,Unsyncopated_study3,s144,24.0,feminino,right,España,"Catalán, castellano",Bachelor degree,no,no,B,2,conjunction_syn,L2,syncopated,s2,r1,1,Online_conjL2_syn//c.cha.me3.444.0.wav,me,ba,cha,go,sil,te,mi,du,sil1,ñu,sil2,['catch'],[0.590300000012121],[0.590300000012121],0.0,beat,0.590300000012121,0.590300000012121,"[""space""]",me,3,,,,,,,,,,,,,,,4.0,2.0,Catalán,0.0,Castellano,0.0,Inglés,3.0,Alemán,12.0,4.0,2.0,yes,no,yes,Piano,8,,,"En la última prueba del último lenguaje algunas veces no se escuchaba el audio, por lo que he tenido que marcar al azar.",62.0,yes
138,2024-03-28_23h32.03.487,Unsyncopated_study3,s144,24.0,feminino,right,España,"Catalán, castellano",Bachelor degree,no,no,B,2,conjunction_syn,L2,syncopated,s2,r1,2,Online_conjL2_syn//c.cha.me1.222.444.wav,bi,cha,me,go,sil,ño,ñu,du,sil1,su,sil2,['catch'],[0.8864000000057786],[0.8864000000057786],0.444,no_beat,0.4424000000057785,0.4424000000057785,"[""space""]",me,3,,,,,,,,,,,,,,,4.0,2.0,Catalán,0.0,Castellano,0.0,Inglés,3.0,Alemán,12.0,4.0,2.0,yes,no,yes,Piano,8,,,"En la última prueba del último lenguaje algunas veces no se escuchaba el audio, por lo que he tenido que marcar al azar.",62.0,yes
139,2024-03-28_23h32.03.487,Unsyncopated_study3,s144,24.0,feminino,right,España,"Catalán, castellano",Bachelor degree,no,no,B,2,conjunction_syn,L2,syncopated,s2,r1,3,Online_conjL2_syn//c.cha.me2.444.0.wav,me,te,cha,go,sil,mi,su,du,sil1,ño,sil2,['catch'],[0.5371000000236563],[0.5371000000236563],0.0,beat,0.5371000000236563,0.5371000000236563,"[""space""]",me,3,,,,,,,,,,,,,,,4.0,2.0,Catalán,0.0,Castellano,0.0,Inglés,3.0,Alemán,12.0,4.0,2.0,yes,no,yes,Piano,8,,,"En la última prueba del último lenguaje algunas veces no se escuchaba el audio, por lo que he tenido que marcar al azar.",62.0,yes
140,2024-03-28_23h32.03.487,Unsyncopated_study3,s144,24.0,feminino,right,España,"Catalán, castellano",Bachelor degree,no,no,B,2,conjunction_syn,L2,syncopated,s1,r2,4,Online_conjL2_syn//d.si.ñu14.none.none.wav,fe,cha,bi,ra,sil,to,mi,me,sil1,ba,sil2,['-'],,,none,none,,,,ñu,4,,,,,,,,,,,,,,,4.0,2.0,Catalán,0.0,Castellano,0.0,Inglés,3.0,Alemán,12.0,4.0,2.0,yes,no,yes,Piano,8,,,"En la última prueba del último lenguaje algunas veces no se escuchaba el audio, por lo que he tenido que marcar al azar.",62.0,yes
141,2024-03-28_23h32.03.487,Unsyncopated_study3,s144,24.0,feminino,right,España,"Catalán, castellano",Bachelor degree,no,no,B,2,conjunction_syn,L2,syncopated,s2,r2,5,Online_conjL2_syn//d.si.ñu12.0.222.wav,si,ñu,cha,fe,sil,te,me,ra,sil1,to,sil2,['catch'],[0.7444000000059532],[0.7444000000059532],0.222,no_beat,0.5224000000059532,0.5224000000059532,"[""space""]",ñu,4,,,,,,,,,,,,,,,4.0,2.0,Catalán,0.0,Castellano,0.0,Inglés,3.0,Alemán,12.0,4.0,2.0,yes,no,yes,Piano,8,,,"En la última prueba del último lenguaje algunas veces no se escuchaba el audio, por lo que he tenido que marcar al azar.",62.0,yes
142,2024-03-28_23h32.03.487,Unsyncopated_study3,s144,24.0,feminino,right,España,"Catalán, castellano",Bachelor degree,no,no,B,2,conjunction_syn,L2,syncopated,s2,r1,6,Online_conjL2_syn//d.si.ñu15.none.none.wav,su,ño,ba,go,sil,bi,mi,du,sil1,to,sil2,['false alarm'],[0.6550000000002001],[0.6550000000002001],none,none,,,"[""space""]",ñu,4,,,,,,,,,,,,,,,4.0,2.0,Catalán,0.0,Castellano,0.0,Inglés,3.0,Alemán,12.0,4.0,2.0,yes,no,yes,Piano,8,,,"En la última prueba del último lenguaje algunas veces no se escuchaba el audio, por lo que he tenido que marcar al azar.",62.0,yes
143,2024-03-28_23h32.03.487,Unsyncopated_study3,s144,24.0,feminino,right,España,"Catalán, castellano",Bachelor degree,no,no,B,2,conjunction_syn,L2,syncopated,s2,r1,7,Online_conjL2_syn//d.si.ñu13.none.none.wav,bi,te,to,go,sil,ño,cha,du,sil1,me,sil2,['false alarm'],[1.5799000000060914],[1.5799000000060914],none,none,,,"[""space""]",ñu,4,,,,,,,,,,,,,,,4.0,2.0,Catalán,0.0,Castellano,0.0,Inglés,3.0,Alemán,12.0,4.0,2.0,yes,no,yes,Piano,8,,,"En la última prueba del último lenguaje algunas veces no se escuchaba el audio, por lo que he tenido que marcar al azar.",62.0,yes
144,2024-03-28_23h32.03.487,Unsyncopated_study3,s144,24.0,feminino,right,España,"Catalán, castellano",Bachelor degree,no,no,B,2,conjunction_syn,L2,syncopated,s2,r2,8,Online_conjL2_syn//a.go.du28.none.none.wav,me,su,ba,fe,sil,mi,to,ra,sil1,cha,sil2,['-'],,,none,none,,,,go,1,,,,,,,,,,,,,,,4.0,2.0,Catalán,0.0,Castellano,0.0,Inglés,3.0,Alemán,12.0,4.0,2.0,yes,no,yes,Piano,8,,,"En la última prueba del último lenguaje algunas veces no se escuchaba el audio, por lo que he tenido que marcar al azar.",62.0,yes
145,2024-03-28_23h32.03.487,Unsyncopated_study3,s144,24.0,feminino,right,España,"Catalán, castellano",Bachelor degree,no,no,B,2,conjunction_syn,L2,syncopated,s1,r1,9,Online_conjL2_syn//a.go.du31.0.666.wav,go,ba,su,du,sil,ñu,si,bi,sil1,me,sil2,['catch'],[0.5630000000001019],[0.5630000000001019],0.0,beat,0.5630000000001019,0.5630000000001019,"[""space""]",go,1,,,,,,,,,,,,,,,4.0,2.0,Catalán,0.0,Castellano,0.0,Inglés,3.0,Alemán,12.0,4.0,2.0,yes,no,yes,Piano,8,,,"En la última prueba del último lenguaje algunas veces no se escuchaba el audio, por lo que he tenido que marcar al azar.",62.0,yes
146,2024-03-28_23h32.03.487,Unsyncopated_study3,s144,24.0,feminino,right,España,"Catalán, castellano",Bachelor degree,no,no,B,2,conjunction_syn,L2,syncopated,s1,r1,10,Online_conjL2_syn//a.go.du29.0.666.wav,go,ñu,su,du,sil,si,me,to,sil1,bi,sil2,['catch'],[0.5368000000116808],[0.5368000000116808],0.0,beat,0.5368000000116808,0.5368000000116808,"[""space""]",go,1,,,,,,,,,,,,,,,4.0,2.0,Catalán,0.0,Castellano,0.0,Inglés,3.0,Alemán,12.0,4.0,2.0,yes,no,yes,Piano,8,,,"En la última prueba del último lenguaje algunas veces no se escuchaba el audio, por lo que he tenido que marcar al azar.",62.0,yes
147,2024-03-28_23h32.03.487,Unsyncopated_study3,s144,24.0,feminino,right,España,"Catalán, castellano",Bachelor degree,no,no,B,2,conjunction_syn,L2,syncopated,s2,r2,11,Online_conjL2_syn//a.go.du30.none.none.wav,to,ñu,me,fe,sil,bi,ño,ra,sil1,su,sil2,['-'],,,none,none,,,,go,1,,,,,,,,,,,,,,,4.0,2.0,Catalán,0.0,Castellano,0.0,Inglés,3.0,Alemán,12.0,4.0,2.0,yes,no,yes,Piano,8,,,"En la última prueba del último lenguaje algunas veces no se escuchaba el audio, por lo que he tenido que marcar al azar.",62.0,yes
148,2024-03-28_23h32.03.487,Unsyncopated_study3,s144,24.0,feminino,right,España,"Catalán, castellano",Bachelor degree,no,no,B,2,conjunction_syn,L2,syncopated,s1,r1,12,Online_conjL2_syn//c.cha.me22.1554.444.wav,go,bi,me,du,sil,to,ba,cha,sil1,ño,sil2,['miss'],,,0.444,no_beat,,,,me,3,,,,,,,,,,,,,,,4.0,2.0,Catalán,0.0,Castellano,0.0,Inglés,3.0,Alemán,12.0,4.0,2.0,yes,no,yes,Piano,8,,,"En la última prueba del último lenguaje algunas veces no se escuchaba el audio, por lo que he tenido que marcar al azar.",62.0,yes
149,2024-03-28_23h32.03.487,Unsyncopated_study3,s144,24.0,feminino,right,España,"Catalán, castellano",Bachelor degree,no,no,B,2,conjunction_syn,L2,syncopated,s1,r2,13,Online_conjL2_syn//c.cha.me23.none.none.wav,fe,bi,ñu,ra,sil,ba,su,to,sil1,te,sil2,['false alarm'],[1.653599999994185],[1.653599999994185],none,none,,,"[""space""]",me,3,,,,,,,,,,,,,,,4.0,2.0,Catalán,0.0,Castellano,0.0,Inglés,3.0,Alemán,12.0,4.0,2.0,yes,no,yes,Piano,8,,,"En la última prueba del último lenguaje algunas veces no se escuchaba el audio, por lo que he tenido que marcar al azar.",62.0,yes
150,2024-03-28_23h32.03.487,Unsyncopated_study3,s144,24.0,feminino,right,España,"Catalán, castellano",Bachelor degree,no,no,B,2,conjunction_syn,L2,syncopated,s1,r1,14,Online_conjL2_syn//c.cha.me20.none.none.wav,go,mi,si,du,sil,bi,ba,ño,sil1,su,sil2,['false alarm'],[2.1207000000181324],[2.1207000000181324],none,none,,,"[""space""]",me,3,,,,,,,,,,,,,,,4.0,2.0,Catalán,0.0,Castellano,0.0,Inglés,3.0,Alemán,12.0,4.0,2.0,yes,no,yes,Piano,8,,,"En la última prueba del último lenguaje algunas veces no se escuchaba el audio, por lo que he tenido que marcar al azar.",62.0,yes
151,2024-03-28_23h32.03.487,Unsyncopated_study3,s144,24.0,feminino,right,España,"Catalán, castellano",Bachelor degree,no,no,B,2,conjunction_syn,L2,syncopated,s1,r2,15,Online_conjL2_syn//c.cha.me21.222.444.wav,fe,cha,me,ra,sil,su,ñu,to,sil1,mi,sil2,['miss'],,,0.444,no_beat,,,,me,3,,,,,,,,,,,,,,,4.0,2.0,Catalán,0.0,Castellano,0.0,Inglés,3.0,Alemán,12.0,4.0,2.0,yes,no,yes,Piano,8,,,"En la última prueba del último lenguaje algunas veces no se escuchaba el audio, por lo que he tenido que marcar al azar.",62.0,yes
152,2024-03-28_23h32.03.487,Unsyncopated_study3,s144,24.0,feminino,right,España,"Catalán, castellano",Bachelor degree,no,no,B,2,conjunction_syn,L2,syncopated,s2,r2,16,Online_conjL2_syn//d.si.ñu26.none.none.wav,ba,su,cha,fe,sil,mi,me,ra,sil1,to,sil2,['-'],,,none,none,,,,ñu,4,,,,,,,,,,,,,,,4.0,2.0,Catalán,0.0,Castellano,0.0,Inglés,3.0,Alemán,12.0,4.0,2.0,yes,no,yes,Piano,8,,,"En la última prueba del último lenguaje algunas veces no se escuchaba el audio, por lo que he tenido que marcar al azar.",62.0,yes
153,2024-03-28_23h32.03.487,Unsyncopated_study3,s144,24.0,feminino,right,España,"Catalán, castellano",Bachelor degree,no,no,B,2,conjunction_syn,L2,syncopated,s2,r2,17,Online_conjL2_syn//d.si.ñu25.none.none.wav,mi,to,ño,fe,sil,bi,ba,ra,sil1,su,sil2,['-'],,,none,none,,,,ñu,4,,,,,,,,,,,,,,,4.0,2.0,Catalán,0.0,Castellano,0.0,Inglés,3.0,Alemán,12.0,4.0,2.0,yes,no,yes,Piano,8,,,"En la última prueba del último lenguaje algunas veces no se escuchaba el audio, por lo que he tenido que marcar al azar.",62.0,yes
154,2024-03-28_23h32.03.487,Unsyncopated_study3,s144,24.0,feminino,right,España,"Catalán, castellano",Bachelor degree,no,no,B,2,conjunction_syn,L2,syncopated,s2,r2,18,Online_conjL2_syn//d.si.ñu24.222.1110.wav,ba,si,cha,fe,sil,ñu,su,ra,sil1,ño,sil2,['catch'],[1.6710999999941123],[1.6710999999941123],1.11,no_beat,0.5610999999941122,0.5610999999941122,"[""space""]",ñu,4,,,,,,,,,,,,,,,4.0,2.0,Catalán,0.0,Castellano,0.0,Inglés,3.0,Alemán,12.0,4.0,2.0,yes,no,yes,Piano,8,,,"En la última prueba del último lenguaje algunas veces no se escuchaba el audio, por lo que he tenido que marcar al azar.",62.0,yes
155,2024-03-28_23h32.03.487,Unsyncopated_study3,s144,24.0,feminino,right,España,"Catalán, castellano",Bachelor degree,no,no,B,2,conjunction_syn,L2,syncopated,s2,r1,19,Online_conjL2_syn//d.si.ñu27.none.none.wav,cha,ño,ba,go,sil,mi,to,du,sil1,bi,sil2,['-'],,,none,none,,,,ñu,4,,,,,,,,,,,,,,,4.0,2.0,Catalán,0.0,Castellano,0.0,Inglés,3.0,Alemán,12.0,4.0,2.0,yes,no,yes,Piano,8,,,"En la última prueba del último lenguaje algunas veces no se escuchaba el audio, por lo que he tenido que marcar al azar.",62.0,yes
156,2024-03-28_23h32.03.487,Unsyncopated_study3,s144,24.0,feminino,right,España,"Catalán, castellano",Bachelor degree,no,no,B,2,conjunction_syn,L2,syncopated,s2,r2,20,Online_conjL2_syn//a.go.du8.none.none.wav,to,bi,te,fe,sil,ñu,mi,ra,sil1,si,sil2,['-'],,,none,none,,,,go,1,,,,,,,,,,,,,,,4.0,2.0,Catalán,0.0,Castellano,0.0,Inglés,3.0,Alemán,12.0,4.0,2.0,yes,no,yes,Piano,8,,,"En la última prueba del último lenguaje algunas veces no se escuchaba el audio, por lo que he tenido que marcar al azar.",62.0,yes
157,2024-03-28_23h32.03.487,Unsyncopated_study3,s144,24.0,feminino,right,España,"Catalán, castellano",Bachelor degree,no,no,B,2,conjunction_syn,L2,syncopated,s2,r2,21,Online_conjL2_syn//a.go.du11.none.none.wav,to,te,ba,fe,sil,cha,me,ra,sil1,bi,sil2,['-'],,,none,none,,,,go,1,,,,,,,,,,,,,,,4.0,2.0,Catalán,0.0,Castellano,0.0,Inglés,3.0,Alemán,12.0,4.0,2.0,yes,no,yes,Piano,8,,,"En la última prueba del último lenguaje algunas veces no se escuchaba el audio, por lo que he tenido que marcar al azar.",62.0,yes
158,2024-03-28_23h32.03.487,Unsyncopated_study3,s144,24.0,feminino,right,España,"Catalán, castellano",Bachelor degree,no,no,B,2,conjunction_syn,L2,syncopated,s1,r2,22,Online_conjL2_syn//a.go.du9.none.none.wav,fe,ñu,bi,ra,sil,to,te,si,sil1,su,sil2,['-'],,,none,none,,,,go,1,,,,,,,,,,,,,,,4.0,2.0,Catalán,0.0,Castellano,0.0,Inglés,3.0,Alemán,12.0,4.0,2.0,yes,no,yes,Piano,8,,,"En la última prueba del último lenguaje algunas veces no se escuchaba el audio, por lo que he tenido que marcar al azar.",62.0,yes
159,2024-03-28_23h32.03.487,Unsyncopated_study3,s144,24.0,feminino,right,España,"Catalán, castellano",Bachelor degree,no,no,B,2,conjunction_syn,L2,syncopated,s1,r2,23,Online_conjL2_syn//a.go.du10.none.none.wav,fe,cha,ba,ra,sil,ño,si,me,sil1,mi,sil2,['-'],,,none,none,,,,go,1,,,,,,,,,,,,,,,4.0,2.0,Catalán,0.0,Castellano,0.0,Inglés,3.0,Alemán,12.0,4.0,2.0,yes,no,yes,Piano,8,,,"En la última prueba del último lenguaje algunas veces no se escuchaba el audio, por lo que he tenido que marcar al azar.",62.0,yes
160,2024-03-28_23h32.03.487,Unsyncopated_study3,s144,24.0,feminino,right,España,"Catalán, castellano",Bachelor degree,no,no,B,2,conjunction_syn,L2,syncopated,s2,r2,24,Online_conjL2_syn//a.go.du16.none.none.wav,ño,te,ñu,fe,sil,me,si,ra,sil1,cha,sil2,['-'],,,none,none,,,,go,1,,,,,,,,,,,,,,,4.0,2.0,Catalán,0.0,Castellano,0.0,Inglés,3.0,Alemán,12.0,4.0,2.0,yes,no,yes,Piano,8,,,"En la última prueba del último lenguaje algunas veces no se escuchaba el audio, por lo que he tenido que marcar al azar.",62.0,yes
161,2024-03-28_23h32.03.487,Unsyncopated_study3,s144,24.0,feminino,right,España,"Catalán, castellano",Bachelor degree,no,no,B,2,conjunction_syn,L2,syncopated,s1,r1,25,Online_conjL2_syn//a.go.du17.0.666.wav,go,ba,ño,du,sil,to,si,te,sil1,cha,sil2,['catch'],[0.5252000000177759],[0.5252000000177759],0.0,beat,0.5252000000177759,0.5252000000177759,"[""space""]",go,1,,,,,,,,,,,,,,,4.0,2.0,Catalán,0.0,Castellano,0.0,Inglés,3.0,Alemán,12.0,4.0,2.0,yes,no,yes,Piano,8,,,"En la última prueba del último lenguaje algunas veces no se escuchaba el audio, por lo que he tenido que marcar al azar.",62.0,yes
162,2024-03-28_23h32.03.487,Unsyncopated_study3,s144,24.0,feminino,right,España,"Catalán, castellano",Bachelor degree,no,no,B,2,conjunction_syn,L2,syncopated,s1,r2,26,Online_conjL2_syn//a.go.du18.none.none.wav,fe,ba,su,ra,sil,cha,mi,to,sil1,ño,sil2,['-'],,,none,none,,,,go,1,,,,,,,,,,,,,,,4.0,2.0,Catalán,0.0,Castellano,0.0,Inglés,3.0,Alemán,12.0,4.0,2.0,yes,no,yes,Piano,8,,,"En la última prueba del último lenguaje algunas veces no se escuchaba el audio, por lo que he tenido que marcar al azar.",62.0,yes
163,2024-03-28_23h32.03.487,Unsyncopated_study3,s144,24.0,feminino,right,España,"Catalán, castellano",Bachelor degree,no,no,B,2,conjunction_syn,L2,syncopated,s2,r1,27,Online_conjL2_syn//a.go.du19.666.1554.wav,ba,ño,mi,go,sil,me,te,du,sil1,to,sil2,['miss'],,,0.666,no_beat,,,,go,1,,,,,,,,,,,,,,,4.0,2.0,Catalán,0.0,Castellano,0.0,Inglés,3.0,Alemán,12.0,4.0,2.0,yes,no,yes,Piano,8,,,"En la última prueba del último lenguaje algunas veces no se escuchaba el audio, por lo que he tenido que marcar al azar.",62.0,yes
164,2024-03-28_23h32.03.487,Unsyncopated_study3,s144,24.0,feminino,right,España,"Catalán, castellano",Bachelor degree,no,no,B,2,conjunction_syn,L2,syncopated,s2,r2,28,Online_conjL2_syn//d.si.ñu5.1332.444.wav,cha,ño,ñu,fe,sil,bi,si,ra,sil1,to,sil2,['catch'],[1.0960999999942942],[1.0960999999942942],0.444,no_beat,0.6520999999942942,0.6520999999942942,"[""space""]",ñu,4,,,,,,,,,,,,,,,4.0,2.0,Catalán,0.0,Castellano,0.0,Inglés,3.0,Alemán,12.0,4.0,2.0,yes,no,yes,Piano,8,,,"En la última prueba del último lenguaje algunas veces no se escuchaba el audio, por lo que he tenido que marcar al azar.",62.0,yes
165,2024-03-28_23h32.03.487,Unsyncopated_study3,s144,24.0,feminino,right,España,"Catalán, castellano",Bachelor degree,no,no,B,2,conjunction_syn,L2,syncopated,s1,r1,29,Online_conjL2_syn//d.si.ñu4.none.none.wav,go,su,to,du,sil,bi,me,cha,sil1,mi,sil2,['-'],,,none,none,,,,ñu,4,,,,,,,,,,,,,,,4.0,2.0,Catalán,0.0,Castellano,0.0,Inglés,3.0,Alemán,12.0,4.0,2.0,yes,no,yes,Piano,8,,,"En la última prueba del último lenguaje algunas veces no se escuchaba el audio, por lo que he tenido que marcar al azar.",62.0,yes
166,2024-03-28_23h32.03.487,Unsyncopated_study3,s144,24.0,feminino,right,España,"Catalán, castellano",Bachelor degree,no,no,B,2,conjunction_syn,L2,syncopated,s1,r2,30,Online_conjL2_syn//d.si.ñu6.1110.1332.wav,fe,ño,bi,ra,sil,si,ñu,te,sil1,me,sil2,['miss'],,,1.332,no_beat,,,,ñu,4,,,,,,,,,,,,,,,4.0,2.0,Catalán,0.0,Castellano,0.0,Inglés,3.0,Alemán,12.0,4.0,2.0,yes,no,yes,Piano,8,,,"En la última prueba del último lenguaje algunas veces no se escuchaba el audio, por lo que he tenido que marcar al azar.",62.0,yes
