Unnamed: 0,date,expName,participant,age,sex,hand,residence,native_lang,education_level,lang_deficit,aud_deficit,group,block,condition,language,rhythm,rule structure online,rule type online,order_trial_on,trial_online,s1,s2,s3,s4,s5,s6,s7,s8,s9,s10,s11,catch_syll_resp,rts_syll_catch,clean_rts,time_syll,beat_no_beat,catch_rtsTR,catch_rts,syllable_catch.keys,cond_syll,syll_to_catch,test_offline,block_off,condition_off,rhythm_off,rule,rule_str_off,rule_norule,conds_offline,language_off,Partz_no_partm.keys,Partz_no_partm.rt,security_1_7.keys,accuracy,security_1_7.rt,n_lang,n_lang_used,lang_1,age_l1,lang_2,age_l2,lang_3,age_l3,ability_learn_l2,tendence_mix_lan,music_experience,muisc_use,partiture,instr_1,age_M1,instr_2,age_M2,preguntas_musica1,BMRQ_answer.response,final comment,BMRQ_Score,bilingual
0,2024-04-15_12h50.44.034,Experiment4_uns,157,24.0,feminino,right,España,Catalán,Master degree,no,no,A,1,when,L2,unsyncopated,when,when,0,Online_whenL2//a.du20.none.wav,su,go,te,sil,ra,si,bi,sil1,ñu,cha,sil2,['-'],,,none,none,,,,du,2,testWhenL2Uns//time_viol.r2.s2.0.wav,1.0,when,unsyncopated,b,s2,no_rule,time,L2,z,1.5611,7.0,1.0,7.9852,3.0,2.0,Catalán,0.0,Castellano,0.0,Inglés,3.0,3.0,4.0,yes,yes,yes,Guitarra,15,Flauta,15,1. Cuando comparto música con alguien siento una complicidad especial con aquella persona.,4.0,"Me ha costado bastante la verdad, creo que no he acertado ni una. Espero que se haya grabado todo bien porque no se ve si guarda cuando le das en el espacio en la prueba 2. Gracias! ",72.0,yes
1,2024-04-15_12h50.44.034,Experiment4_uns,157,24.0,feminino,right,España,Catalán,Master degree,no,no,A,1,when,L2,unsyncopated,when,when,1,Online_whenL2//a.du21.none.wav,cha,si,bi,sil,ñu,ra,ño,sil1,ba,go,sil2,['-'],,,none,none,,,,du,2,testWhenL2Uns//dep_viol.r1.s2.0.wav,1.0,when,unsyncopated,a,s2,no_rule,dep,L2,z,1.8194,7.0,1.0,2.8648,3.0,2.0,Catalán,0.0,Castellano,0.0,Inglés,3.0,3.0,4.0,yes,yes,yes,Guitarra,15,Flauta,15,2. En mi tiempo libre apenas escucho música.,5.0,"Me ha costado bastante la verdad, creo que no he acertado ni una. Espero que se haya grabado todo bien porque no se ve si guarda cuando le das en el espacio en la prueba 2. Gracias! ",72.0,yes
2,2024-04-15_12h50.44.034,Experiment4_uns,157,24.0,feminino,right,España,Catalán,Master degree,no,no,A,1,when,L2,unsyncopated,when,when,2,Online_whenL2//a.du22.444.wav,me,fe,du,sil,to,ba,te,sil1,su,ñu,sil2,"['catch', 'false alarm', 'false alarm']","[1.2059999999999036, 2.1239000000357464, 2.297100000023761]",[1.2059999999999036],0.444,no_beat,0.7619999999999036,0.7619999999999036,"[""space"",""space"",""space""]",du,2,testWhenL2Uns//r2.s2.2.wav,1.0,when,unsyncopated,b,s2,rule,rule,L2,z,7.101,5.0,1.0,3.0527,3.0,2.0,Catalán,0.0,Castellano,0.0,Inglés,3.0,3.0,4.0,yes,yes,yes,Guitarra,15,Flauta,15,3. Algunas canciones me ponen los pelos de punta,4.0,"Me ha costado bastante la verdad, creo que no he acertado ni una. Espero que se haya grabado todo bien porque no se ve si guarda cuando le das en el espacio en la prueba 2. Gracias! ",72.0,yes
3,2024-04-15_12h50.44.034,Experiment4_uns,157,24.0,feminino,right,España,Catalán,Master degree,no,no,A,1,when,L2,unsyncopated,when,when,3,Online_whenL2//a.du23.888.wav,si,fe,to,sil,du,su,ño,sil1,me,ba,sil2,['miss'],,,0.888,beat,,,,du,2,testWhenL2Uns//dep_viol.r2.s2.0.wav,1.0,when,unsyncopated,b,s2,no_rule,dep,L2,z,28.8996,5.0,1.0,2.1074,3.0,2.0,Catalán,0.0,Castellano,0.0,Inglés,3.0,3.0,4.0,yes,yes,yes,Guitarra,15,Flauta,15,4. La música me hace compañía cuando estoy solo,4.0,"Me ha costado bastante la verdad, creo que no he acertado ni una. Espero que se haya grabado todo bien porque no se ve si guarda cuando le das en el espacio en la prueba 2. Gracias! ",72.0,yes
4,2024-04-15_12h50.44.034,Experiment4_uns,157,24.0,feminino,right,España,Catalán,Master degree,no,no,A,1,when,L2,unsyncopated,when,when,4,Online_whenL2//b.fe22.none.wav,ño,ra,go,sil,ñu,bi,su,sil1,to,te,sil2,['-'],,,none,none,,,,fe,1,testWhenL2Uns//r1.s1.2.wav,1.0,when,unsyncopated,a,s1,rule,rule,L2,m,1.8822,5.0,0.0,2.2512,3.0,2.0,Catalán,0.0,Castellano,0.0,Inglés,3.0,3.0,4.0,yes,yes,yes,Guitarra,15,Flauta,15,5. No me apetece bailar ni con la música que más me gusta,5.0,"Me ha costado bastante la verdad, creo que no he acertado ni una. Espero que se haya grabado todo bien porque no se ve si guarda cuando le das en el espacio en la prueba 2. Gracias! ",72.0,yes
5,2024-04-15_12h50.44.034,Experiment4_uns,157,24.0,feminino,right,España,Catalán,Master degree,no,no,A,1,when,L2,unsyncopated,when,when,5,Online_whenL2//b.fe21.1332.wav,ñu,mi,go,sil,te,su,fe,sil1,me,cha,sil2,"['catch', 'false alarm']","[1.8700000000000045, 2.319500000000062]",[1.8700000000000045],1.332,no_beat,0.5380000000000045,0.5380000000000045,"[""space"",""space""]",fe,1,testWhenL2Uns//cat_viol.r2.s2.0.wav,1.0,when,unsyncopated,b,s2,no_rule,cat,L2,z,6.5054,4.0,1.0,4.1095,3.0,2.0,Catalán,0.0,Castellano,0.0,Inglés,3.0,3.0,4.0,yes,yes,yes,Guitarra,15,Flauta,15,6. La música me hace conectar con la gente,4.0,"Me ha costado bastante la verdad, creo que no he acertado ni una. Espero que se haya grabado todo bien porque no se ve si guarda cuando le das en el espacio en la prueba 2. Gracias! ",72.0,yes
6,2024-04-15_12h50.44.034,Experiment4_uns,157,24.0,feminino,right,España,Catalán,Master degree,no,no,A,1,when,L2,unsyncopated,when,when,6,Online_whenL2//b.fe23.none.wav,me,ba,du,sil,ra,to,bi,sil1,si,ñu,sil2,['-'],,,none,none,,,,fe,1,testWhenL2Uns//dep_viol.r2.s1.0.wav,1.0,when,unsyncopated,b,s1,no_rule,dep,L2,m,3.5093,6.0,0.0,2.516,3.0,2.0,Catalán,0.0,Castellano,0.0,Inglés,3.0,3.0,4.0,yes,yes,yes,Guitarra,15,Flauta,15,7. Me informo sobre la música que me gusta.,4.0,"Me ha costado bastante la verdad, creo que no he acertado ni una. Espero que se haya grabado todo bien porque no se ve si guarda cuando le das en el espacio en la prueba 2. Gracias! ",72.0,yes
7,2024-04-15_12h50.44.034,Experiment4_uns,157,24.0,feminino,right,España,Catalán,Master degree,no,no,A,1,when,L2,unsyncopated,when,when,7,Online_whenL2//b.fe20.1332.wav,cha,ño,du,sil,si,me,fe,sil1,te,mi,sil2,['catch'],[1.9189000000357055],[1.9189000000357055],1.332,no_beat,0.5869000000357054,0.5869000000357054,"[""space""]",fe,1,testWhenL2Uns//r2.s2.1.wav,1.0,when,unsyncopated,b,s2,rule,rule,L2,m,1.5388,5.0,0.0,3.1774,3.0,2.0,Catalán,0.0,Castellano,0.0,Inglés,3.0,3.0,4.0,yes,yes,yes,Guitarra,15,Flauta,15,8.Me emociono escuchando ciertas canciones.,4.0,"Me ha costado bastante la verdad, creo que no he acertado ni una. Espero que se haya grabado todo bien porque no se ve si guarda cuando le das en el espacio en la prueba 2. Gracias! ",72.0,yes
8,2024-04-15_12h50.44.034,Experiment4_uns,157,24.0,feminino,right,España,Catalán,Master degree,no,no,A,1,when,L2,unsyncopated,when,when,8,Online_whenL2//b.fe13.none.wav,te,su,ra,sil,si,go,ba,sil1,me,mi,sil2,['-'],,,none,none,,,,fe,1,testWhenL2Uns//time_viol.r1.s1.0.wav,1.0,when,unsyncopated,a,s1,no_rule,time,L2,m,0.9711,5.0,0.0,2.2191,3.0,2.0,Catalán,0.0,Castellano,0.0,Inglés,3.0,3.0,4.0,yes,yes,yes,Guitarra,15,Flauta,15,9.La música me tranquiliza y me relaja.,4.0,"Me ha costado bastante la verdad, creo que no he acertado ni una. Espero que se haya grabado todo bien porque no se ve si guarda cuando le das en el espacio en la prueba 2. Gracias! ",72.0,yes
9,2024-04-15_12h50.44.034,Experiment4_uns,157,24.0,feminino,right,España,Catalán,Master degree,no,no,A,1,when,L2,unsyncopated,when,when,9,Online_whenL2//b.fe14.none.wav,ra,du,ba,sil,to,bi,su,sil1,te,ñu,sil2,['-'],,,none,none,,,,fe,1,testWhenL2Uns//cat_viol.r1.s1.0.wav,1.0,when,unsyncopated,a,s1,no_rule,cat,L2,m,2.1186,4.0,0.0,2.4328,3.0,2.0,Catalán,0.0,Castellano,0.0,Inglés,3.0,3.0,4.0,yes,yes,yes,Guitarra,15,Flauta,15,10.La música me hace bailar,4.0,"Me ha costado bastante la verdad, creo que no he acertado ni una. Espero que se haya grabado todo bien porque no se ve si guarda cuando le das en el espacio en la prueba 2. Gracias! ",72.0,yes
10,2024-04-15_12h50.44.034,Experiment4_uns,157,24.0,feminino,right,España,Catalán,Master degree,no,no,A,1,when,L2,unsyncopated,when,when,10,Online_whenL2//b.fe12.none.wav,su,si,te,sil,cha,go,ñu,sil1,to,du,sil2,['-'],,,none,none,,,,fe,1,testWhenL2Uns//r1.s2.1.wav,1.0,when,unsyncopated,a,s2,rule,rule,L2,m,2.2608,4.0,0.0,2.2166,3.0,2.0,Catalán,0.0,Castellano,0.0,Inglés,3.0,3.0,4.0,yes,yes,yes,Guitarra,15,Flauta,15,11.Busco novedades musicales continuamente,1.0,"Me ha costado bastante la verdad, creo que no he acertado ni una. Espero que se haya grabado todo bien porque no se ve si guarda cuando le das en el espacio en la prueba 2. Gracias! ",72.0,yes
11,2024-04-15_12h50.44.034,Experiment4_uns,157,24.0,feminino,right,España,Catalán,Master degree,no,no,A,1,when,L2,unsyncopated,when,when,11,Online_whenL2//b.fe15.none.wav,ño,su,to,sil,du,me,go,sil1,cha,mi,sil2,['-'],,,none,none,,,,fe,1,testWhenL2Uns//r1.s2.0.wav,1.0,when,unsyncopated,a,s2,rule,rule,L2,z,2.1334,4.0,1.0,2.4159,3.0,2.0,Catalán,0.0,Castellano,0.0,Inglés,3.0,3.0,4.0,yes,yes,yes,Guitarra,15,Flauta,15,12. Puedo llorar cuando escucho algunas melodías que me gustan mucho.,4.0,"Me ha costado bastante la verdad, creo que no he acertado ni una. Espero que se haya grabado todo bien porque no se ve si guarda cuando le das en el espacio en la prueba 2. Gracias! ",72.0,yes
12,2024-04-15_12h50.44.034,Experiment4_uns,157,24.0,feminino,right,España,Catalán,Master degree,no,no,A,1,when,L2,unsyncopated,when,when,12,Online_whenL2//d.si0.none.wav,ño,fe,go,sil,bi,te,cha,sil1,mi,to,sil2,['-'],,,none,none,,,,si,4,testWhenL2Uns//r2.s1.1.wav,1.0,when,unsyncopated,b,s1,rule,rule,L2,m,1.25,4.0,0.0,3.2346,3.0,2.0,Catalán,0.0,Castellano,0.0,Inglés,3.0,3.0,4.0,yes,yes,yes,Guitarra,15,Flauta,15,13. Me gusta cantar o tocar un instrumento con más gente,1.0,"Me ha costado bastante la verdad, creo que no he acertado ni una. Espero que se haya grabado todo bien porque no se ve si guarda cuando le das en el espacio en la prueba 2. Gracias! ",72.0,yes
13,2024-04-15_12h50.44.034,Experiment4_uns,157,24.0,feminino,right,España,Catalán,Master degree,no,no,A,1,when,L2,unsyncopated,when,when,13,Online_whenL2//d.si1.444.wav,ra,cha,si,sil,te,du,mi,sil1,su,bi,sil2,['catch'],[0.90560000002381],[0.90560000002381],0.444,no_beat,0.46160000002381,0.46160000002381,"[""space""]",si,4,testWhenL2Uns//cat_viol.r2.s1.0.wav,1.0,when,unsyncopated,b,s1,no_rule,cat,L2,m,1.2959,4.0,0.0,1.7153,3.0,2.0,Catalán,0.0,Castellano,0.0,Inglés,3.0,3.0,4.0,yes,yes,yes,Guitarra,15,Flauta,15,14. La música me ayuda a desconectar.,4.0,"Me ha costado bastante la verdad, creo que no he acertado ni una. Espero que se haya grabado todo bien porque no se ve si guarda cuando le das en el espacio en la prueba 2. Gracias! ",72.0,yes
14,2024-04-15_12h50.44.034,Experiment4_uns,157,24.0,feminino,right,España,Catalán,Master degree,no,no,A,1,when,L2,unsyncopated,when,when,14,Online_whenL2//d.si2.0.wav,si,me,fe,sil,to,ba,ñu,sil1,su,ra,sil2,['catch'],[0.9861999999880027],[0.9861999999880027],0.0,beat,0.9861999999880028,0.9861999999880028,"[""space""]",si,4,testWhenL2Uns//r1.s2.2.wav,1.0,when,unsyncopated,a,s2,rule,rule,L2,z,2.6923,3.0,1.0,0.6823,3.0,2.0,Catalán,0.0,Castellano,0.0,Inglés,3.0,3.0,4.0,yes,yes,yes,Guitarra,15,Flauta,15,15. No puedo evitar tararear las canciones que me gustan cuando las escucho.,3.0,"Me ha costado bastante la verdad, creo que no he acertado ni una. Espero que se haya grabado todo bien porque no se ve si guarda cuando le das en el espacio en la prueba 2. Gracias! ",72.0,yes
15,2024-04-15_12h50.44.034,Experiment4_uns,157,24.0,feminino,right,España,Catalán,Master degree,no,no,A,1,when,L2,unsyncopated,when,when,15,Online_whenL2//d.si3.444.wav,bi,su,si,sil,go,mi,ba,sil1,ñu,du,sil2,['catch'],[1.0055000000000973],[1.0055000000000973],0.444,no_beat,0.5615000000000974,0.5615000000000974,"[""space""]",si,4,testWhenL2Uns//r2.s1.2.wav,1.0,when,unsyncopated,b,s1,rule,rule,L2,m,7.2724,3.0,0.0,1.4561,3.0,2.0,Catalán,0.0,Castellano,0.0,Inglés,3.0,3.0,4.0,yes,yes,yes,Guitarra,15,Flauta,15,16. En los conciertos me siento en sintonía con los artistas y el público.,4.0,"Me ha costado bastante la verdad, creo que no he acertado ni una. Espero que se haya grabado todo bien porque no se ve si guarda cuando le das en el espacio en la prueba 2. Gracias! ",72.0,yes
16,2024-04-15_12h50.44.034,Experiment4_uns,157,24.0,feminino,right,España,Catalán,Master degree,no,no,A,1,when,L2,unsyncopated,when,when,16,Online_whenL2//b.fe10.none.wav,to,du,su,sil,mi,ño,ba,sil1,bi,ra,sil2,['-'],,,none,none,,,,fe,1,testWhenL2Uns//r2.s2.0.wav,1.0,when,unsyncopated,b,s2,rule,rule,L2,m,1.0654,4.0,0.0,2.4544,3.0,2.0,Catalán,0.0,Castellano,0.0,Inglés,3.0,3.0,4.0,yes,yes,yes,Guitarra,15,Flauta,15,17. Me gasto bastante dinero en música y cosas relacionadas con la música.,1.0,"Me ha costado bastante la verdad, creo que no he acertado ni una. Espero que se haya grabado todo bien porque no se ve si guarda cuando le das en el espacio en la prueba 2. Gracias! ",72.0,yes
17,2024-04-15_12h50.44.034,Experiment4_uns,157,24.0,feminino,right,España,Catalán,Master degree,no,no,A,1,when,L2,unsyncopated,when,when,17,Online_whenL2//b.fe9.none.wav,du,ñu,su,sil,te,to,go,sil1,ño,me,sil2,['-'],,,none,none,,,,fe,1,testWhenL2Uns//r1.s1.0.wav,1.0,when,unsyncopated,a,s1,rule,rule,L2,m,0.5334,5.0,0.0,0.955,3.0,2.0,Catalán,0.0,Castellano,0.0,Inglés,3.0,3.0,4.0,yes,yes,yes,Guitarra,15,Flauta,15,18. Siento escalofríos cuando escucho una melodía que me gusta.,4.0,"Me ha costado bastante la verdad, creo que no he acertado ni una. Espero que se haya grabado todo bien porque no se ve si guarda cuando le das en el espacio en la prueba 2. Gracias! ",72.0,yes
18,2024-04-15_12h50.44.034,Experiment4_uns,157,24.0,feminino,right,España,Catalán,Master degree,no,no,A,1,when,L2,unsyncopated,when,when,18,Online_whenL2//b.fe8.none.wav,su,to,go,sil,mi,ra,si,sil1,ba,ñu,sil2,['-'],,,none,none,,,,fe,1,testWhenL2Uns//cat_viol.r1.s2.0.wav,1.0,when,unsyncopated,a,s2,no_rule,cat,L2,m,0.7686,6.0,0.0,1.4259,3.0,2.0,Catalán,0.0,Castellano,0.0,Inglés,3.0,3.0,4.0,yes,yes,yes,Guitarra,15,Flauta,15,19. Con la música me puedo desahogar.,4.0,"Me ha costado bastante la verdad, creo que no he acertado ni una. Espero que se haya grabado todo bien porque no se ve si guarda cuando le das en el espacio en la prueba 2. Gracias! ",72.0,yes
19,2024-04-15_12h50.44.034,Experiment4_uns,157,24.0,feminino,right,España,Catalán,Master degree,no,no,A,1,when,L2,unsyncopated,when,when,19,Online_whenL2//b.fe11.1332.wav,ba,bi,go,sil,su,mi,fe,sil1,si,me,sil2,['catch'],[1.9030999999641836],[1.9030999999641836],1.332,no_beat,0.5710999999641835,0.5710999999641835,"[""space""]",fe,1,testWhenL2Uns//dep_viol.r1.s1.0.wav,1.0,when,unsyncopated,a,s1,no_rule,dep,L2,m,0.4506,6.0,0.0,0.9041,3.0,2.0,Catalán,0.0,Castellano,0.0,Inglés,3.0,3.0,4.0,yes,yes,yes,Guitarra,15,Flauta,15,20. Cuando escucho una melodía que me gusta mucho no puedo evitar mover el cuerpo.,4.0,"Me ha costado bastante la verdad, creo que no he acertado ni una. Espero que se haya grabado todo bien porque no se ve si guarda cuando le das en el espacio en la prueba 2. Gracias! ",72.0,yes
20,2024-04-15_12h50.44.034,Experiment4_uns,157,24.0,feminino,right,España,Catalán,Master degree,no,no,A,1,when,L2,unsyncopated,when,when,20,Online_whenL2//c.cha30.none.wav,te,mi,to,sil,me,go,si,sil1,ño,du,sil2,['-'],,,none,none,,,,cha,3,testWhenL2Uns//time_viol.r2.s1.0.wav,1.0,when,unsyncopated,b,s1,no_rule,time,L2,z,1.7334,3.0,1.0,2.5229,3.0,2.0,Catalán,0.0,Castellano,0.0,Inglés,3.0,3.0,4.0,yes,yes,yes,Guitarra,15,Flauta,15,,,"Me ha costado bastante la verdad, creo que no he acertado ni una. Espero que se haya grabado todo bien porque no se ve si guarda cuando le das en el espacio en la prueba 2. Gracias! ",72.0,yes
21,2024-04-15_12h50.44.034,Experiment4_uns,157,24.0,feminino,right,España,Catalán,Master degree,no,no,A,1,when,L2,unsyncopated,when,when,21,Online_whenL2//c.cha31.none.wav,to,te,ñu,sil,bi,du,su,sil1,fe,me,sil2,['-'],,,none,none,,,,cha,3,testWhenL2Uns//r1.s1.1.wav,1.0,when,unsyncopated,a,s1,rule,rule,L2,m,0.904,5.0,0.0,1.3824,3.0,2.0,Catalán,0.0,Castellano,0.0,Inglés,3.0,3.0,4.0,yes,yes,yes,Guitarra,15,Flauta,15,,,"Me ha costado bastante la verdad, creo que no he acertado ni una. Espero que se haya grabado todo bien porque no se ve si guarda cuando le das en el espacio en la prueba 2. Gracias! ",72.0,yes
22,2024-04-15_12h50.44.034,Experiment4_uns,157,24.0,feminino,right,España,Catalán,Master degree,no,no,A,1,when,L2,unsyncopated,when,when,22,Online_whenL2//c.cha28.0.wav,cha,fe,to,sil,ba,ñu,me,sil1,go,te,sil2,['catch'],[0.3818999999762127],[0.3818999999762127],0.0,beat,0.3818999999762127,0.3818999999762127,"[""space""]",cha,3,testWhenL2Uns//r2.s1.0.wav,1.0,when,unsyncopated,b,s1,rule,rule,L2,z,2.0558,3.0,1.0,0.5318,3.0,2.0,Catalán,0.0,Castellano,0.0,Inglés,3.0,3.0,4.0,yes,yes,yes,Guitarra,15,Flauta,15,,,"Me ha costado bastante la verdad, creo que no he acertado ni una. Espero que se haya grabado todo bien porque no se ve si guarda cuando le das en el espacio en la prueba 2. Gracias! ",72.0,yes
23,2024-04-15_12h50.44.034,Experiment4_uns,157,24.0,feminino,right,España,Catalán,Master degree,no,no,A,1,when,L2,unsyncopated,when,when,23,Online_whenL2//c.cha29.444.wav,go,du,cha,sil,me,ba,su,sil1,ñu,bi,sil2,['catch'],[1.07779999995239],[1.07779999995239],0.444,no_beat,0.63379999995239,0.63379999995239,"[""space""]",cha,3,testWhenL2Uns//time_viol.r1.s2.0.wav,1.0,when,unsyncopated,a,s2,no_rule,time,L2,z,1.3201,7.0,1.0,1.0271,3.0,2.0,Catalán,0.0,Castellano,0.0,Inglés,3.0,3.0,4.0,yes,yes,yes,Guitarra,15,Flauta,15,,,"Me ha costado bastante la verdad, creo que no he acertado ni una. Espero que se haya grabado todo bien porque no se ve si guarda cuando le das en el espacio en la prueba 2. Gracias! ",72.0,yes
24,2024-04-15_12h50.44.034,Experiment4_uns,157,24.0,feminino,right,España,Catalán,Master degree,no,no,A,1,when,L2,unsyncopated,when,when,24,Online_whenL2//c.cha0.1332.wav,mi,ñu,bi,sil,fe,to,cha,sil1,ra,su,sil2,['catch'],[1.889399999976149],[1.889399999976149],1.332,no_beat,0.557399999976149,0.557399999976149,"[""space""]",cha,3,testWhatL1Uns//r1.s1.1.wav,2.0,what,unsyncopated,a,s1,rule,rule,L1,z,3.1491,7.0,1.0,1.7322,3.0,2.0,Catalán,0.0,Castellano,0.0,Inglés,3.0,3.0,4.0,yes,yes,yes,Guitarra,15,Flauta,15,,,"Me ha costado bastante la verdad, creo que no he acertado ni una. Espero que se haya grabado todo bien porque no se ve si guarda cuando le das en el espacio en la prueba 2. Gracias! ",72.0,yes
25,2024-04-15_12h50.44.034,Experiment4_uns,157,24.0,feminino,right,España,Catalán,Master degree,no,no,A,1,when,L2,unsyncopated,when,when,25,Online_whenL2//c.cha1.1332.wav,bi,ba,te,sil,me,ñu,cha,sil1,go,fe,sil2,['catch'],[1.8284000000357992],[1.8284000000357992],1.332,no_beat,0.4964000000357991,0.4964000000357991,"[""space""]",cha,3,testWhatL1Uns//dep_viol.r1.s2.0.wav,2.0,what,unsyncopated,a,s2,no_rule,dep,L1,z,0.9476,7.0,0.0,1.1838,3.0,2.0,Catalán,0.0,Castellano,0.0,Inglés,3.0,3.0,4.0,yes,yes,yes,Guitarra,15,Flauta,15,,,"Me ha costado bastante la verdad, creo que no he acertado ni una. Espero que se haya grabado todo bien porque no se ve si guarda cuando le das en el espacio en la prueba 2. Gracias! ",72.0,yes
26,2024-04-15_12h50.44.034,Experiment4_uns,157,24.0,feminino,right,España,Catalán,Master degree,no,no,A,1,when,L2,unsyncopated,when,when,26,Online_whenL2//c.cha2.none.wav,si,me,ra,sil,bi,te,ño,sil1,go,to,sil2,['-'],,,none,none,,,,cha,3,testWhatL1Uns//r2.s2.2.wav,2.0,what,unsyncopated,b,s2,rule,rule,L1,z,0.9005,6.0,1.0,1.7384,3.0,2.0,Catalán,0.0,Castellano,0.0,Inglés,3.0,3.0,4.0,yes,yes,yes,Guitarra,15,Flauta,15,,,"Me ha costado bastante la verdad, creo que no he acertado ni una. Espero que se haya grabado todo bien porque no se ve si guarda cuando le das en el espacio en la prueba 2. Gracias! ",72.0,yes
27,2024-04-15_12h50.44.034,Experiment4_uns,157,24.0,feminino,right,España,Catalán,Master degree,no,no,A,1,when,L2,unsyncopated,when,when,27,Online_whenL2//c.cha3.1998.wav,te,to,bi,sil,du,ra,ño,sil1,su,cha,sil2,['catch'],[2.5040999999641826],[2.5040999999641826],1.998,no_beat,0.5060999999641826,0.5060999999641826,"[""space""]",cha,3,testWhatL1Uns//dep_viol.r2.s2.0.wav,2.0,what,unsyncopated,b,s2,no_rule,dep,L1,m,5.4512,2.0,1.0,2.4782,3.0,2.0,Catalán,0.0,Castellano,0.0,Inglés,3.0,3.0,4.0,yes,yes,yes,Guitarra,15,Flauta,15,,,"Me ha costado bastante la verdad, creo que no he acertado ni una. Espero que se haya grabado todo bien porque no se ve si guarda cuando le das en el espacio en la prueba 2. Gracias! ",72.0,yes
28,2024-04-15_12h50.44.034,Experiment4_uns,157,24.0,feminino,right,España,Catalán,Master degree,no,no,A,1,when,L2,unsyncopated,when,when,28,Online_whenL2//a.du0.888.wav,ñu,ba,ra,sil,du,su,ño,sil1,cha,te,sil2,['miss'],,,0.888,beat,,,,du,2,testWhatL1Uns//r2.s2.0.wav,2.0,what,unsyncopated,b,s2,rule,rule,L1,z,4.3244,4.0,1.0,3.7182,3.0,2.0,Catalán,0.0,Castellano,0.0,Inglés,3.0,3.0,4.0,yes,yes,yes,Guitarra,15,Flauta,15,,,"Me ha costado bastante la verdad, creo que no he acertado ni una. Espero que se haya grabado todo bien porque no se ve si guarda cuando le das en el espacio en la prueba 2. Gracias! ",72.0,yes
29,2024-04-15_12h50.44.034,Experiment4_uns,157,24.0,feminino,right,España,Catalán,Master degree,no,no,A,1,when,L2,unsyncopated,when,when,29,Online_whenL2//a.du1.none.wav,bi,si,fe,sil,mi,ra,ba,sil1,su,me,sil2,['-'],,,none,none,,,,du,2,testWhatL1Uns//r1.s2.1.wav,2.0,what,unsyncopated,a,s2,rule,rule,L1,z,1.8744,6.0,1.0,4.1058,3.0,2.0,Catalán,0.0,Castellano,0.0,Inglés,3.0,3.0,4.0,yes,yes,yes,Guitarra,15,Flauta,15,,,"Me ha costado bastante la verdad, creo que no he acertado ni una. Espero que se haya grabado todo bien porque no se ve si guarda cuando le das en el espacio en la prueba 2. Gracias! ",72.0,yes
30,2024-04-15_12h50.44.034,Experiment4_uns,157,24.0,feminino,right,España,Catalán,Master degree,no,no,A,1,when,L2,unsyncopated,when,when,30,Online_whenL2//a.du3.none.wav,me,mi,te,sil,cha,go,ñu,sil1,fe,si,sil2,['false alarm'],[2.1401999999881127],[2.1401999999881127],none,none,,,"[""space""]",du,2,testWhatL1Uns//time_viol.r1.s2.0.wav,2.0,what,unsyncopated,a,s2,no_rule,time,L1,z,5.123,6.0,0.0,2.8218,3.0,2.0,Catalán,0.0,Castellano,0.0,Inglés,3.0,3.0,4.0,yes,yes,yes,Guitarra,15,Flauta,15,,,"Me ha costado bastante la verdad, creo que no he acertado ni una. Espero que se haya grabado todo bien porque no se ve si guarda cuando le das en el espacio en la prueba 2. Gracias! ",72.0,yes
31,2024-04-15_12h50.44.034,Experiment4_uns,157,24.0,feminino,right,España,Catalán,Master degree,no,no,A,1,when,L2,unsyncopated,when,when,31,Online_whenL2//a.du2.0.wav,du,me,si,sil,mi,to,go,sil1,cha,bi,sil2,['miss'],,,0.0,beat,,,,du,2,testWhatL1Uns//time_viol.r2.s2.0.wav,2.0,what,unsyncopated,b,s2,no_rule,time,L1,z,1.1187,7.0,0.0,1.623,3.0,2.0,Catalán,0.0,Castellano,0.0,Inglés,3.0,3.0,4.0,yes,yes,yes,Guitarra,15,Flauta,15,,,"Me ha costado bastante la verdad, creo que no he acertado ni una. Espero que se haya grabado todo bien porque no se ve si guarda cuando le das en el espacio en la prueba 2. Gracias! ",72.0,yes
32,2024-04-15_12h50.44.034,Experiment4_uns,157,24.0,feminino,right,España,Catalán,Master degree,no,no,A,1,when,L2,unsyncopated,when,when,32,Online_whenL2//b.fe19.none.wav,ño,ra,su,sil,cha,du,to,sil1,si,me,sil2,['-'],,,none,none,,,,fe,1,testWhatL1Uns//r2.s1.0.wav,2.0,what,unsyncopated,b,s1,rule,rule,L1,z,0.6119,7.0,1.0,0.687,3.0,2.0,Catalán,0.0,Castellano,0.0,Inglés,3.0,3.0,4.0,yes,yes,yes,Guitarra,15,Flauta,15,,,"Me ha costado bastante la verdad, creo que no he acertado ni una. Espero que se haya grabado todo bien porque no se ve si guarda cuando le das en el espacio en la prueba 2. Gracias! ",72.0,yes
33,2024-04-15_12h50.44.034,Experiment4_uns,157,24.0,feminino,right,España,Catalán,Master degree,no,no,A,1,when,L2,unsyncopated,when,when,33,Online_whenL2//b.fe16.1998.wav,cha,ba,te,sil,ra,ño,si,sil1,me,fe,sil2,['catch'],[2.4310999999643172],[2.4310999999643172],1.998,no_beat,0.4330999999643172,0.4330999999643172,"[""space""]",fe,1,testWhatL1Uns//dep_viol.r1.s1.0.wav,2.0,what,unsyncopated,a,s1,no_rule,dep,L1,z,0.4502,7.0,0.0,0.8099,3.0,2.0,Catalán,0.0,Castellano,0.0,Inglés,3.0,3.0,4.0,yes,yes,yes,Guitarra,15,Flauta,15,,,"Me ha costado bastante la verdad, creo que no he acertado ni una. Espero que se haya grabado todo bien porque no se ve si guarda cuando le das en el espacio en la prueba 2. Gracias! ",72.0,yes
34,2024-04-15_12h50.44.034,Experiment4_uns,157,24.0,feminino,right,España,Catalán,Master degree,no,no,A,1,when,L2,unsyncopated,when,when,34,Online_whenL2//b.fe18.none.wav,mi,go,su,sil,ba,ra,si,sil1,cha,bi,sil2,['-'],,,none,none,,,,fe,1,testWhatL1Uns//r2.s1.2.wav,2.0,what,unsyncopated,b,s1,rule,rule,L1,z,0.4175,7.0,1.0,0.5537,3.0,2.0,Catalán,0.0,Castellano,0.0,Inglés,3.0,3.0,4.0,yes,yes,yes,Guitarra,15,Flauta,15,,,"Me ha costado bastante la verdad, creo que no he acertado ni una. Espero que se haya grabado todo bien porque no se ve si guarda cuando le das en el espacio en la prueba 2. Gracias! ",72.0,yes
35,2024-04-15_12h50.44.034,Experiment4_uns,157,24.0,feminino,right,España,Catalán,Master degree,no,no,A,1,when,L2,unsyncopated,when,when,35,Online_whenL2//b.fe17.222.wav,te,fe,ño,sil,su,mi,ra,sil1,si,ñu,sil2,['catch'],[0.8633000000119182],[0.8633000000119182],0.222,no_beat,0.6413000000119182,0.6413000000119182,"[""space""]",fe,1,testWhatL1Uns//cat_viol.r2.s1.0.wav,2.0,what,unsyncopated,b,s1,no_rule,cat,L1,z,2.8176,2.0,0.0,1.2105,3.0,2.0,Catalán,0.0,Castellano,0.0,Inglés,3.0,3.0,4.0,yes,yes,yes,Guitarra,15,Flauta,15,,,"Me ha costado bastante la verdad, creo que no he acertado ni una. Espero que se haya grabado todo bien porque no se ve si guarda cuando le das en el espacio en la prueba 2. Gracias! ",72.0,yes
36,2024-04-15_12h50.44.034,Experiment4_uns,157,24.0,feminino,right,España,Catalán,Master degree,no,no,A,1,when,L2,unsyncopated,when,when,36,Online_whenL2//d.si29.888.wav,cha,me,su,sil,si,mi,te,sil1,ra,go,sil2,['catch'],[1.330799999952319],[1.330799999952319],0.888,beat,0.442799999952319,0.442799999952319,"[""space""]",si,4,testWhatL1Uns//r2.s2.1.wav,2.0,what,unsyncopated,b,s2,rule,rule,L1,z,4.9271,4.0,1.0,1.3368,3.0,2.0,Catalán,0.0,Castellano,0.0,Inglés,3.0,3.0,4.0,yes,yes,yes,Guitarra,15,Flauta,15,,,"Me ha costado bastante la verdad, creo que no he acertado ni una. Espero que se haya grabado todo bien porque no se ve si guarda cuando le das en el espacio en la prueba 2. Gracias! ",72.0,yes
37,2024-04-15_12h50.44.034,Experiment4_uns,157,24.0,feminino,right,España,Catalán,Master degree,no,no,A,1,when,L2,unsyncopated,when,when,37,Online_whenL2//d.si30.none.wav,me,ba,cha,sil,ño,te,bi,sil1,du,go,sil2,['-'],,,none,none,,,,si,4,testWhatL1Uns//r1.s1.0.wav,2.0,what,unsyncopated,a,s1,rule,rule,L1,m,4.1111,2.0,0.0,3.6591,3.0,2.0,Catalán,0.0,Castellano,0.0,Inglés,3.0,3.0,4.0,yes,yes,yes,Guitarra,15,Flauta,15,,,"Me ha costado bastante la verdad, creo que no he acertado ni una. Espero que se haya grabado todo bien porque no se ve si guarda cuando le das en el espacio en la prueba 2. Gracias! ",72.0,yes
38,2024-04-15_12h50.44.034,Experiment4_uns,157,24.0,feminino,right,España,Catalán,Master degree,no,no,A,1,when,L2,unsyncopated,when,when,38,Online_whenL2//d.si31.none.wav,su,ba,te,sil,ra,ño,to,sil1,mi,go,sil2,['-'],,,none,none,,,,si,4,testWhatL1Uns//cat_viol.r1.s1.0.wav,2.0,what,unsyncopated,a,s1,no_rule,cat,L1,m,3.868,3.0,1.0,1.3532,3.0,2.0,Catalán,0.0,Castellano,0.0,Inglés,3.0,3.0,4.0,yes,yes,yes,Guitarra,15,Flauta,15,,,"Me ha costado bastante la verdad, creo que no he acertado ni una. Espero que se haya grabado todo bien porque no se ve si guarda cuando le das en el espacio en la prueba 2. Gracias! ",72.0,yes
39,2024-04-15_12h50.44.034,Experiment4_uns,157,24.0,feminino,right,España,Catalán,Master degree,no,no,A,1,when,L2,unsyncopated,when,when,39,Online_whenL2//d.si28.888.wav,ñu,fe,bi,sil,si,cha,to,sil1,du,ba,sil2,['catch'],[1.1811000000238892],[1.1811000000238892],0.888,beat,0.2931000000238891,0.2931000000238891,"[""space""]",si,4,testWhatL1Uns//time_viol.r2.s1.0.wav,2.0,what,unsyncopated,b,s1,no_rule,time,L1,m,1.105,3.0,1.0,0.6882,3.0,2.0,Catalán,0.0,Castellano,0.0,Inglés,3.0,3.0,4.0,yes,yes,yes,Guitarra,15,Flauta,15,,,"Me ha costado bastante la verdad, creo que no he acertado ni una. Espero que se haya grabado todo bien porque no se ve si guarda cuando le das en el espacio en la prueba 2. Gracias! ",72.0,yes
40,2024-04-15_12h50.44.034,Experiment4_uns,157,24.0,feminino,right,España,Catalán,Master degree,no,no,A,1,when,L2,unsyncopated,when,when,40,Online_whenL2//c.cha26.0.wav,cha,to,ra,sil,go,ñu,ba,sil1,bi,te,sil2,['catch'],[0.9260000000000446],[0.9260000000000446],0.0,beat,0.9260000000000446,0.9260000000000446,"[""space""]",cha,3,testWhatL1Uns//r2.s1.1.wav,2.0,what,unsyncopated,b,s1,rule,rule,L1,z,2.0035,4.0,1.0,4.8515,3.0,2.0,Catalán,0.0,Castellano,0.0,Inglés,3.0,3.0,4.0,yes,yes,yes,Guitarra,15,Flauta,15,,,"Me ha costado bastante la verdad, creo que no he acertado ni una. Espero que se haya grabado todo bien porque no se ve si guarda cuando le das en el espacio en la prueba 2. Gracias! ",72.0,yes
41,2024-04-15_12h50.44.034,Experiment4_uns,157,24.0,feminino,right,España,Catalán,Master degree,no,no,A,1,when,L2,unsyncopated,when,when,41,Online_whenL2//c.cha24.444.wav,me,bi,cha,sil,su,ra,ño,sil1,to,fe,sil2,['miss'],,,0.444,no_beat,,,,cha,3,testWhatL1Uns//r1.s1.2.wav,2.0,what,unsyncopated,a,s1,rule,rule,L1,z,5.1372,3.0,1.0,1.3782,3.0,2.0,Catalán,0.0,Castellano,0.0,Inglés,3.0,3.0,4.0,yes,yes,yes,Guitarra,15,Flauta,15,,,"Me ha costado bastante la verdad, creo que no he acertado ni una. Espero que se haya grabado todo bien porque no se ve si guarda cuando le das en el espacio en la prueba 2. Gracias! ",72.0,yes
42,2024-04-15_12h50.44.034,Experiment4_uns,157,24.0,feminino,right,España,Catalán,Master degree,no,no,A,1,when,L2,unsyncopated,when,when,42,Online_whenL2//c.cha27.none.wav,bi,fe,mi,sil,te,ra,ño,sil1,to,ñu,sil2,['-'],,,none,none,,,,cha,3,testWhatL1Uns//cat_viol.r1.s2.0.wav,2.0,what,unsyncopated,a,s2,no_rule,cat,L1,m,0.9041,2.0,1.0,1.6502,3.0,2.0,Catalán,0.0,Castellano,0.0,Inglés,3.0,3.0,4.0,yes,yes,yes,Guitarra,15,Flauta,15,,,"Me ha costado bastante la verdad, creo que no he acertado ni una. Espero que se haya grabado todo bien porque no se ve si guarda cuando le das en el espacio en la prueba 2. Gracias! ",72.0,yes
43,2024-04-15_12h50.44.034,Experiment4_uns,157,24.0,feminino,right,España,Catalán,Master degree,no,no,A,1,when,L2,unsyncopated,when,when,43,Online_whenL2//c.cha25.888.wav,fe,ño,su,sil,cha,te,bi,sil1,me,ra,sil2,['catch'],[1.2248000000118964],[1.2248000000118964],0.888,beat,0.3368000000118963,0.3368000000118963,"[""space""]",cha,3,testWhatL1Uns//time_viol.r1.s1.0.wav,2.0,what,unsyncopated,a,s1,no_rule,time,L1,m,0.5037,7.0,1.0,2.1089,3.0,2.0,Catalán,0.0,Castellano,0.0,Inglés,3.0,3.0,4.0,yes,yes,yes,Guitarra,15,Flauta,15,,,"Me ha costado bastante la verdad, creo que no he acertado ni una. Espero que se haya grabado todo bien porque no se ve si guarda cuando le das en el espacio en la prueba 2. Gracias! ",72.0,yes
44,2024-04-15_12h50.44.034,Experiment4_uns,157,24.0,feminino,right,España,Catalán,Master degree,no,no,A,1,when,L2,unsyncopated,when,when,44,Online_whenL2//c.cha11.1998.wav,bi,te,ra,sil,si,su,ñu,sil1,go,cha,sil2,['catch'],[2.502999999999929],[2.502999999999929],1.998,no_beat,0.5049999999999291,0.5049999999999291,"[""space""]",cha,3,testWhatL1Uns//dep_viol.r2.s1.0.wav,2.0,what,unsyncopated,b,s1,no_rule,dep,L1,z,5.2028,3.0,0.0,0.6179,3.0,2.0,Catalán,0.0,Castellano,0.0,Inglés,3.0,3.0,4.0,yes,yes,yes,Guitarra,15,Flauta,15,,,"Me ha costado bastante la verdad, creo que no he acertado ni una. Espero que se haya grabado todo bien porque no se ve si guarda cuando le das en el espacio en la prueba 2. Gracias! ",72.0,yes
45,2024-04-15_12h50.44.034,Experiment4_uns,157,24.0,feminino,right,España,Catalán,Master degree,no,no,A,1,when,L2,unsyncopated,when,when,45,Online_whenL2//c.cha8.none.wav,mi,si,to,sil,ra,ba,ño,sil1,du,su,sil2,['-'],,,none,none,,,,cha,3,testWhatL1Uns//r1.s2.2.wav,2.0,what,unsyncopated,a,s2,rule,rule,L1,m,1.5418,3.0,0.0,0.7704,3.0,2.0,Catalán,0.0,Castellano,0.0,Inglés,3.0,3.0,4.0,yes,yes,yes,Guitarra,15,Flauta,15,,,"Me ha costado bastante la verdad, creo que no he acertado ni una. Espero que se haya grabado todo bien porque no se ve si guarda cuando le das en el espacio en la prueba 2. Gracias! ",72.0,yes
46,2024-04-15_12h50.44.034,Experiment4_uns,157,24.0,feminino,right,España,Catalán,Master degree,no,no,A,1,when,L2,unsyncopated,when,when,46,Online_whenL2//c.cha10.444.wav,mi,su,cha,sil,si,me,go,sil1,ra,ñu,sil2,['catch'],[0.80290000003572],[0.80290000003572],0.444,no_beat,0.35890000003572,0.35890000003572,"[""space""]",cha,3,testWhatL1Uns//cat_viol.r2.s2.0.wav,2.0,what,unsyncopated,b,s2,no_rule,cat,L1,z,2.7519,3.0,0.0,0.901,3.0,2.0,Catalán,0.0,Castellano,0.0,Inglés,3.0,3.0,4.0,yes,yes,yes,Guitarra,15,Flauta,15,,,"Me ha costado bastante la verdad, creo que no he acertado ni una. Espero que se haya grabado todo bien porque no se ve si guarda cuando le das en el espacio en la prueba 2. Gracias! ",72.0,yes
47,2024-04-15_12h50.44.034,Experiment4_uns,157,24.0,feminino,right,España,Catalán,Master degree,no,no,A,1,when,L2,unsyncopated,when,when,47,Online_whenL2//c.cha9.none.wav,go,ba,ñu,sil,bi,fe,to,sil1,mi,ño,sil2,['-'],,,none,none,,,,cha,3,testWhatL1Uns//r1.s2.0.wav,2.0,what,unsyncopated,a,s2,rule,rule,L1,m,0.9352,3.0,0.0,2.0459,3.0,2.0,Catalán,0.0,Castellano,0.0,Inglés,3.0,3.0,4.0,yes,yes,yes,Guitarra,15,Flauta,15,,,"Me ha costado bastante la verdad, creo que no he acertado ni una. Espero que se haya grabado todo bien porque no se ve si guarda cuando le das en el espacio en la prueba 2. Gracias! ",72.0,yes
48,2024-04-15_12h50.44.034,Experiment4_uns,157,24.0,feminino,right,España,Catalán,Master degree,no,no,A,1,when,L2,unsyncopated,when,when,48,Online_whenL2//a.du16.none.wav,ñu,te,to,sil,su,me,si,sil1,ra,fe,sil2,['-'],,,none,none,,,,du,2,testConjL3Syn//r2.s1.1.wav,3.0,conjunction_syn,syncopated,b,s1,rule,rule,L3,m,4.4815,2.0,0.0,3.4208,3.0,2.0,Catalán,0.0,Castellano,0.0,Inglés,3.0,3.0,4.0,yes,yes,yes,Guitarra,15,Flauta,15,,,"Me ha costado bastante la verdad, creo que no he acertado ni una. Espero que se haya grabado todo bien porque no se ve si guarda cuando le das en el espacio en la prueba 2. Gracias! ",72.0,yes
49,2024-04-15_12h50.44.034,Experiment4_uns,157,24.0,feminino,right,España,Catalán,Master degree,no,no,A,1,when,L2,unsyncopated,when,when,49,Online_whenL2//a.du17.none.wav,ra,go,su,sil,me,si,cha,sil1,bi,te,sil2,['-'],,,none,none,,,,du,2,testConjL3Syn//cat_viol.r1.s2.0.wav,3.0,conjunction_syn,syncopated,a,s2,no_rule,cat,L3,m,1.7361,3.0,1.0,0.887,3.0,2.0,Catalán,0.0,Castellano,0.0,Inglés,3.0,3.0,4.0,yes,yes,yes,Guitarra,15,Flauta,15,,,"Me ha costado bastante la verdad, creo que no he acertado ni una. Espero que se haya grabado todo bien porque no se ve si guarda cuando le das en el espacio en la prueba 2. Gracias! ",72.0,yes
50,2024-04-15_12h50.44.034,Experiment4_uns,157,24.0,feminino,right,España,Catalán,Master degree,no,no,A,1,when,L2,unsyncopated,when,when,50,Online_whenL2//a.du19.none.wav,su,ñu,to,sil,bi,fe,me,sil1,ño,go,sil2,['-'],,,none,none,,,,du,2,testConjL3Syn//r2.s2.1.wav,3.0,conjunction_syn,syncopated,b,s2,rule,rule,L3,z,1.228,3.0,1.0,0.3372,3.0,2.0,Catalán,0.0,Castellano,0.0,Inglés,3.0,3.0,4.0,yes,yes,yes,Guitarra,15,Flauta,15,,,"Me ha costado bastante la verdad, creo que no he acertado ni una. Espero que se haya grabado todo bien porque no se ve si guarda cuando le das en el espacio en la prueba 2. Gracias! ",72.0,yes
51,2024-04-15_12h50.44.034,Experiment4_uns,157,24.0,feminino,right,España,Catalán,Master degree,no,no,A,1,when,L2,unsyncopated,when,when,51,Online_whenL2//a.du18.none.wav,go,fe,te,sil,si,cha,ba,sil1,ño,to,sil2,['-'],,,none,none,,,,du,2,testConjL3Syn//r2.s2.2.wav,3.0,conjunction_syn,syncopated,b,s2,rule,rule,L3,z,0.5809,3.0,1.0,0.7601,3.0,2.0,Catalán,0.0,Castellano,0.0,Inglés,3.0,3.0,4.0,yes,yes,yes,Guitarra,15,Flauta,15,,,"Me ha costado bastante la verdad, creo que no he acertado ni una. Espero que se haya grabado todo bien porque no se ve si guarda cuando le das en el espacio en la prueba 2. Gracias! ",72.0,yes
52,2024-04-15_12h50.44.034,Experiment4_uns,157,24.0,feminino,right,España,Catalán,Master degree,no,no,A,1,when,L2,unsyncopated,when,when,52,Online_whenL2//b.fe34.1776.wav,si,go,mi,sil,ba,ñu,me,sil1,fe,ño,sil2,"['false alarm', 'catch']","[0.023299999952314465, 1.9048999999761236]",[1.9048999999761236],1.776,beat,0.1288999999761235,0.1288999999761235,"[""space"",""space""]",fe,1,testConjL3Syn//dep_viol.r2.s1.0.wav,3.0,conjunction_syn,syncopated,b,s1,no_rule,dep,L3,m,1.9748,3.0,1.0,1.2893,3.0,2.0,Catalán,0.0,Castellano,0.0,Inglés,3.0,3.0,4.0,yes,yes,yes,Guitarra,15,Flauta,15,,,"Me ha costado bastante la verdad, creo que no he acertado ni una. Espero que se haya grabado todo bien porque no se ve si guarda cuando le das en el espacio en la prueba 2. Gracias! ",72.0,yes
53,2024-04-15_12h50.44.034,Experiment4_uns,157,24.0,feminino,right,España,Catalán,Master degree,no,no,A,1,when,L2,unsyncopated,when,when,53,Online_whenL2//b.fe32.222.wav,ño,fe,te,sil,ñu,bi,su,sil1,mi,go,sil2,['miss'],,,0.222,no_beat,,,,fe,1,testConjL3Syn//r2.s1.0.wav,3.0,conjunction_syn,syncopated,b,s1,rule,rule,L3,m,1.9686,3.0,0.0,1.8672,3.0,2.0,Catalán,0.0,Castellano,0.0,Inglés,3.0,3.0,4.0,yes,yes,yes,Guitarra,15,Flauta,15,,,"Me ha costado bastante la verdad, creo que no he acertado ni una. Espero que se haya grabado todo bien porque no se ve si guarda cuando le das en el espacio en la prueba 2. Gracias! ",72.0,yes
54,2024-04-15_12h50.44.034,Experiment4_uns,157,24.0,feminino,right,España,Catalán,Master degree,no,no,A,1,when,L2,unsyncopated,when,when,54,Online_whenL2//b.fe35.1998.wav,ra,su,si,sil,to,ba,bi,sil1,me,fe,sil2,['catch'],[2.338300000011941],[2.338300000011941],1.998,no_beat,0.3403000000119409,0.3403000000119409,"[""space""]",fe,1,testConjL3Syn//r1.s1.0.wav,3.0,conjunction_syn,syncopated,a,s1,rule,rule,L3,z,1.0834,4.0,1.0,2.2175,3.0,2.0,Catalán,0.0,Castellano,0.0,Inglés,3.0,3.0,4.0,yes,yes,yes,Guitarra,15,Flauta,15,,,"Me ha costado bastante la verdad, creo que no he acertado ni una. Espero que se haya grabado todo bien porque no se ve si guarda cuando le das en el espacio en la prueba 2. Gracias! ",72.0,yes
55,2024-04-15_12h50.44.034,Experiment4_uns,157,24.0,feminino,right,España,Catalán,Master degree,no,no,A,1,when,L2,unsyncopated,when,when,55,Online_whenL2//b.fe33.none.wav,to,du,mi,sil,go,te,ñu,sil1,bi,me,sil2,['-'],,,none,none,,,,fe,1,testConjL3Syn//r1.s2.1.wav,3.0,conjunction_syn,syncopated,a,s2,rule,rule,L3,m,3.7915,3.0,0.0,1.4531,3.0,2.0,Catalán,0.0,Castellano,0.0,Inglés,3.0,3.0,4.0,yes,yes,yes,Guitarra,15,Flauta,15,,,"Me ha costado bastante la verdad, creo que no he acertado ni una. Espero que se haya grabado todo bien porque no se ve si guarda cuando le das en el espacio en la prueba 2. Gracias! ",72.0,yes
56,2024-04-15_12h50.44.034,Experiment4_uns,157,24.0,feminino,right,España,Catalán,Master degree,no,no,A,1,when,L2,unsyncopated,when,when,56,Online_whenL2//b.fe27.888.wav,to,cha,su,sil,fe,me,go,sil1,ñu,ño,sil2,['catch'],[1.71939999997619],[1.71939999997619],0.888,beat,0.83139999997619,0.83139999997619,"[""space""]",fe,1,testConjL3Syn//r2.s1.2.wav,3.0,conjunction_syn,syncopated,b,s1,rule,rule,L3,z,3.1853,3.0,1.0,0.5524,3.0,2.0,Catalán,0.0,Castellano,0.0,Inglés,3.0,3.0,4.0,yes,yes,yes,Guitarra,15,Flauta,15,,,"Me ha costado bastante la verdad, creo que no he acertado ni una. Espero que se haya grabado todo bien porque no se ve si guarda cuando le das en el espacio en la prueba 2. Gracias! ",72.0,yes
57,2024-04-15_12h50.44.034,Experiment4_uns,157,24.0,feminino,right,España,Catalán,Master degree,no,no,A,1,when,L2,unsyncopated,when,when,57,Online_whenL2//b.fe25.888.wav,ba,me,mi,sil,fe,to,bi,sil1,ñu,du,sil2,['catch'],[1.603099999964229],[1.603099999964229],0.888,beat,0.715099999964229,0.715099999964229,"[""space""]",fe,1,testConjL3Syn//time_viol.r2.s1.0.wav,3.0,conjunction_syn,syncopated,b,s1,no_rule,time,L3,z,6.1264,3.0,0.0,1.4323,3.0,2.0,Catalán,0.0,Castellano,0.0,Inglés,3.0,3.0,4.0,yes,yes,yes,Guitarra,15,Flauta,15,,,"Me ha costado bastante la verdad, creo que no he acertado ni una. Espero que se haya grabado todo bien porque no se ve si guarda cuando le das en el espacio en la prueba 2. Gracias! ",72.0,yes
58,2024-04-15_12h50.44.034,Experiment4_uns,157,24.0,feminino,right,España,Catalán,Master degree,no,no,A,1,when,L2,unsyncopated,when,when,58,Online_whenL2//b.fe24.888.wav,to,te,ñu,sil,fe,su,bi,sil1,du,mi,sil2,['miss'],,,0.888,beat,,,,fe,1,testConjL3Syn//cat_viol.r2.s2.0.wav,3.0,conjunction_syn,syncopated,b,s2,no_rule,cat,L3,z,1.9171,3.0,0.0,0.3758,3.0,2.0,Catalán,0.0,Castellano,0.0,Inglés,3.0,3.0,4.0,yes,yes,yes,Guitarra,15,Flauta,15,,,"Me ha costado bastante la verdad, creo que no he acertado ni una. Espero que se haya grabado todo bien porque no se ve si guarda cuando le das en el espacio en la prueba 2. Gracias! ",72.0,yes
59,2024-04-15_12h50.44.034,Experiment4_uns,157,24.0,feminino,right,España,Catalán,Master degree,no,no,A,1,when,L2,unsyncopated,when,when,59,Online_whenL2//b.fe26.none.wav,ñu,te,ño,sil,go,mi,me,sil1,du,ba,sil2,['-'],,,none,none,,,,fe,1,testConjL3Syn//r2.s2.0.wav,3.0,conjunction_syn,syncopated,b,s2,rule,rule,L3,z,5.1861,2.0,1.0,0.5437,3.0,2.0,Catalán,0.0,Castellano,0.0,Inglés,3.0,3.0,4.0,yes,yes,yes,Guitarra,15,Flauta,15,,,"Me ha costado bastante la verdad, creo que no he acertado ni una. Espero que se haya grabado todo bien porque no se ve si guarda cuando le das en el espacio en la prueba 2. Gracias! ",72.0,yes
60,2024-04-15_12h50.44.034,Experiment4_uns,157,24.0,feminino,right,España,Catalán,Master degree,no,no,A,1,when,L2,unsyncopated,when,when,60,Online_whenL2//d.si18.222.wav,ñu,si,bi,sil,cha,du,me,sil1,fe,ño,sil2,['catch'],[0.7913000000119155],[0.7913000000119155],0.222,no_beat,0.5693000000119155,0.5693000000119155,"[""space""]",si,4,testConjL3Syn//cat_viol.r2.s1.0.wav,3.0,conjunction_syn,syncopated,b,s1,no_rule,cat,L3,z,1.0116,7.0,0.0,0.8365,3.0,2.0,Catalán,0.0,Castellano,0.0,Inglés,3.0,3.0,4.0,yes,yes,yes,Guitarra,15,Flauta,15,,,"Me ha costado bastante la verdad, creo que no he acertado ni una. Espero que se haya grabado todo bien porque no se ve si guarda cuando le das en el espacio en la prueba 2. Gracias! ",72.0,yes
61,2024-04-15_12h50.44.034,Experiment4_uns,157,24.0,feminino,right,España,Catalán,Master degree,no,no,A,1,when,L2,unsyncopated,when,when,61,Online_whenL2//d.si19.none.wav,bi,mi,su,sil,me,cha,du,sil1,fe,te,sil2,['-'],,,none,none,,,,si,4,testConjL3Syn//cat_viol.r1.s1.0.wav,3.0,conjunction_syn,syncopated,a,s1,no_rule,cat,L3,z,0.9242,7.0,0.0,1.1848,3.0,2.0,Catalán,0.0,Castellano,0.0,Inglés,3.0,3.0,4.0,yes,yes,yes,Guitarra,15,Flauta,15,,,"Me ha costado bastante la verdad, creo que no he acertado ni una. Espero que se haya grabado todo bien porque no se ve si guarda cuando le das en el espacio en la prueba 2. Gracias! ",72.0,yes
62,2024-04-15_12h50.44.034,Experiment4_uns,157,24.0,feminino,right,España,Catalán,Master degree,no,no,A,1,when,L2,unsyncopated,when,when,62,Online_whenL2//d.si17.none.wav,mi,su,to,sil,go,ño,du,sil1,cha,ñu,sil2,['false alarm'],[1.0388999999761381],[1.0388999999761381],none,none,,,"[""space""]",si,4,testConjL3Syn//r1.s2.0.wav,3.0,conjunction_syn,syncopated,a,s2,rule,rule,L3,z,1.1173,6.0,1.0,1.1338,3.0,2.0,Catalán,0.0,Castellano,0.0,Inglés,3.0,3.0,4.0,yes,yes,yes,Guitarra,15,Flauta,15,,,"Me ha costado bastante la verdad, creo que no he acertado ni una. Espero que se haya grabado todo bien porque no se ve si guarda cuando le das en el espacio en la prueba 2. Gracias! ",72.0,yes
63,2024-04-15_12h50.44.034,Experiment4_uns,157,24.0,feminino,right,España,Catalán,Master degree,no,no,A,1,when,L2,unsyncopated,when,when,63,Online_whenL2//d.si16.none.wav,su,fe,mi,sil,ño,te,me,sil1,du,ba,sil2,['-'],,,none,none,,,,si,4,testConjL3Syn//dep_viol.r1.s2.0.wav,3.0,conjunction_syn,syncopated,a,s2,no_rule,dep,L3,z,1.6055,4.0,0.0,0.7255,3.0,2.0,Catalán,0.0,Castellano,0.0,Inglés,3.0,3.0,4.0,yes,yes,yes,Guitarra,15,Flauta,15,,,"Me ha costado bastante la verdad, creo que no he acertado ni una. Espero que se haya grabado todo bien porque no se ve si guarda cuando le das en el espacio en la prueba 2. Gracias! ",72.0,yes
64,2024-04-15_12h50.44.034,Experiment4_uns,157,24.0,feminino,right,España,Catalán,Master degree,no,no,A,1,when,L2,unsyncopated,when,when,64,Online_whenL2//d.si13.444.wav,go,ñu,si,sil,bi,to,ño,sil1,fe,mi,sil2,['catch'],[0.8568000000118445],[0.8568000000118445],0.444,no_beat,0.4128000000118445,0.4128000000118445,"[""space""]",si,4,testConjL3Syn//dep_viol.r2.s2.0.wav,3.0,conjunction_syn,syncopated,b,s2,no_rule,dep,L3,z,3.7077,5.0,0.0,1.5898,3.0,2.0,Catalán,0.0,Castellano,0.0,Inglés,3.0,3.0,4.0,yes,yes,yes,Guitarra,15,Flauta,15,,,"Me ha costado bastante la verdad, creo que no he acertado ni una. Espero que se haya grabado todo bien porque no se ve si guarda cuando le das en el espacio en la prueba 2. Gracias! ",72.0,yes
65,2024-04-15_12h50.44.034,Experiment4_uns,157,24.0,feminino,right,España,Catalán,Master degree,no,no,A,1,when,L2,unsyncopated,when,when,65,Online_whenL2//d.si14.1332.wav,ba,te,bi,sil,go,su,si,sil1,du,ñu,sil2,['false alarm'],[0.1934999999999718],[0.1934999999999718],1.332,no_beat,,,"[""space""]",si,4,testConjL3Syn//time_viol.r1.s2.0.wav,3.0,conjunction_syn,syncopated,a,s2,no_rule,time,L3,z,2.1198,4.0,0.0,0.5505,3.0,2.0,Catalán,0.0,Castellano,0.0,Inglés,3.0,3.0,4.0,yes,yes,yes,Guitarra,15,Flauta,15,,,"Me ha costado bastante la verdad, creo que no he acertado ni una. Espero que se haya grabado todo bien porque no se ve si guarda cuando le das en el espacio en la prueba 2. Gracias! ",72.0,yes
66,2024-04-15_12h50.44.034,Experiment4_uns,157,24.0,feminino,right,España,Catalán,Master degree,no,no,A,1,when,L2,unsyncopated,when,when,66,Online_whenL2//d.si15.1332.wav,mi,ño,ba,sil,ra,fe,si,sil1,ñu,me,sil2,['catch'],[2.005700000047682],[2.005700000047682],1.332,no_beat,0.6737000000476818,0.6737000000476818,"[""space""]",si,4,testConjL3Syn//time_viol.r1.s1.0.wav,3.0,conjunction_syn,syncopated,a,s1,no_rule,time,L3,m,2.1189,1.0,1.0,1.6647,3.0,2.0,Catalán,0.0,Castellano,0.0,Inglés,3.0,3.0,4.0,yes,yes,yes,Guitarra,15,Flauta,15,,,"Me ha costado bastante la verdad, creo que no he acertado ni una. Espero que se haya grabado todo bien porque no se ve si guarda cuando le das en el espacio en la prueba 2. Gracias! ",72.0,yes
67,2024-04-15_12h50.44.034,Experiment4_uns,157,24.0,feminino,right,España,Catalán,Master degree,no,no,A,1,when,L2,unsyncopated,when,when,67,Online_whenL2//d.si12.1776.wav,mi,du,to,sil,go,ño,bi,sil1,si,cha,sil2,['catch'],[2.4546999999880654],[2.4546999999880654],1.776,beat,0.6786999999880654,0.6786999999880654,"[""space""]",si,4,testConjL3Syn//time_viol.r2.s2.0.wav,3.0,conjunction_syn,syncopated,b,s2,no_rule,time,L3,z,0.8336,5.0,0.0,0.6592,3.0,2.0,Catalán,0.0,Castellano,0.0,Inglés,3.0,3.0,4.0,yes,yes,yes,Guitarra,15,Flauta,15,,,"Me ha costado bastante la verdad, creo que no he acertado ni una. Espero que se haya grabado todo bien porque no se ve si guarda cuando le das en el espacio en la prueba 2. Gracias! ",72.0,yes
68,2024-04-15_12h50.44.034,Experiment4_uns,157,24.0,feminino,right,España,Catalán,Master degree,no,no,A,1,when,L2,unsyncopated,when,when,68,Online_whenL2//a.du32.none.wav,to,fe,ñu,sil,cha,te,go,sil1,ño,si,sil2,['-'],,,none,none,,,,du,2,testConjL3Syn//dep_viol.r1.s1.0.wav,3.0,conjunction_syn,syncopated,a,s1,no_rule,dep,L3,z,6.0504,3.0,0.0,1.7226,3.0,2.0,Catalán,0.0,Castellano,0.0,Inglés,3.0,3.0,4.0,yes,yes,yes,Guitarra,15,Flauta,15,,,"Me ha costado bastante la verdad, creo que no he acertado ni una. Espero que se haya grabado todo bien porque no se ve si guarda cuando le das en el espacio en la prueba 2. Gracias! ",72.0,yes
69,2024-04-15_12h50.44.034,Experiment4_uns,157,24.0,feminino,right,España,Catalán,Master degree,no,no,A,1,when,L2,unsyncopated,when,when,69,Online_whenL2//a.du33.1110.wav,te,su,si,sil,to,du,fe,sil1,mi,me,sil2,['catch'],[1.9284999999999854],[1.9284999999999854],1.11,no_beat,0.8184999999999854,0.8184999999999854,"[""space""]",du,2,testConjL3Syn//r1.s2.2.wav,3.0,conjunction_syn,syncopated,a,s2,rule,rule,L3,m,0.9217,4.0,0.0,2.067,3.0,2.0,Catalán,0.0,Castellano,0.0,Inglés,3.0,3.0,4.0,yes,yes,yes,Guitarra,15,Flauta,15,,,"Me ha costado bastante la verdad, creo que no he acertado ni una. Espero que se haya grabado todo bien porque no se ve si guarda cuando le das en el espacio en la prueba 2. Gracias! ",72.0,yes
70,2024-04-15_12h50.44.034,Experiment4_uns,157,24.0,feminino,right,España,Catalán,Master degree,no,no,A,1,when,L2,unsyncopated,when,when,70,Online_whenL2//a.du34.1110.wav,ba,ñu,fe,sil,si,du,ño,sil1,te,su,sil2,['catch'],[1.9648000000120192],[1.9648000000120192],1.11,no_beat,0.8548000000120191,0.8548000000120191,"[""space""]",du,2,testConjL3Syn//r1.s1.2.wav,3.0,conjunction_syn,syncopated,a,s1,rule,rule,L3,z,1.0006,4.0,1.0,0.5336,3.0,2.0,Catalán,0.0,Castellano,0.0,Inglés,3.0,3.0,4.0,yes,yes,yes,Guitarra,15,Flauta,15,,,"Me ha costado bastante la verdad, creo que no he acertado ni una. Espero que se haya grabado todo bien porque no se ve si guarda cuando le das en el espacio en la prueba 2. Gracias! ",72.0,yes
71,2024-04-15_12h50.44.034,Experiment4_uns,157,24.0,feminino,right,España,Catalán,Master degree,no,no,A,1,when,L2,unsyncopated,when,when,71,Online_whenL2//a.du35.none.wav,to,ñu,su,sil,ba,cha,fe,sil1,ño,go,sil2,['-'],,,none,none,,,,du,2,testConjL3Syn//r1.s1.1.wav,3.0,conjunction_syn,syncopated,a,s1,rule,rule,L3,m,5.1552,3.0,0.0,0.8211,3.0,2.0,Catalán,0.0,Castellano,0.0,Inglés,3.0,3.0,4.0,yes,yes,yes,Guitarra,15,Flauta,15,,,"Me ha costado bastante la verdad, creo que no he acertado ni una. Espero que se haya grabado todo bien porque no se ve si guarda cuando le das en el espacio en la prueba 2. Gracias! ",72.0,yes
72,2024-04-15_12h50.44.034,Experiment4_uns,157,24.0,feminino,right,España,Catalán,Master degree,no,no,A,1,when,L2,unsyncopated,when,when,72,Online_whenL2//a.du12.none.wav,si,bi,fe,sil,ño,mi,su,sil1,ra,me,sil2,['-'],,,none,none,,,,du,2,testConjL4Uns//r2.s1.1.wav,4.0,conjunction_un,unsyncopated,b,s1,rule,rule,L4,z,1.171,7.0,1.0,0.7695,3.0,2.0,Catalán,0.0,Castellano,0.0,Inglés,3.0,3.0,4.0,yes,yes,yes,Guitarra,15,Flauta,15,,,"Me ha costado bastante la verdad, creo que no he acertado ni una. Espero que se haya grabado todo bien porque no se ve si guarda cuando le das en el espacio en la prueba 2. Gracias! ",72.0,yes
73,2024-04-15_12h50.44.034,Experiment4_uns,157,24.0,feminino,right,España,Catalán,Master degree,no,no,A,1,when,L2,unsyncopated,when,when,73,Online_whenL2//a.du13.0.wav,du,ño,to,sil,me,ra,mi,sil1,bi,ba,sil2,['catch'],[0.7266999999881136],[0.7266999999881136],0.0,beat,0.7266999999881136,0.7266999999881136,"[""space""]",du,2,testConjL4Uns//cat_viol.r1.s2.0.wav,4.0,conjunction_un,unsyncopated,a,s2,no_rule,cat,L4,z,0.7835,4.0,0.0,0.8013,3.0,2.0,Catalán,0.0,Castellano,0.0,Inglés,3.0,3.0,4.0,yes,yes,yes,Guitarra,15,Flauta,15,,,"Me ha costado bastante la verdad, creo que no he acertado ni una. Espero que se haya grabado todo bien porque no se ve si guarda cuando le das en el espacio en la prueba 2. Gracias! ",72.0,yes
74,2024-04-15_12h50.44.034,Experiment4_uns,157,24.0,feminino,right,España,Catalán,Master degree,no,no,A,1,when,L2,unsyncopated,when,when,74,Online_whenL2//a.du15.1998.wav,su,si,me,sil,ño,te,mi,sil1,go,du,sil2,['miss'],,,1.998,no_beat,,,,du,2,testConjL4Uns//dep_viol.r1.s1.0.wav,4.0,conjunction_un,unsyncopated,a,s1,no_rule,dep,L4,m,0.9575,4.0,1.0,2.6991,3.0,2.0,Catalán,0.0,Castellano,0.0,Inglés,3.0,3.0,4.0,yes,yes,yes,Guitarra,15,Flauta,15,,,"Me ha costado bastante la verdad, creo que no he acertado ni una. Espero que se haya grabado todo bien porque no se ve si guarda cuando le das en el espacio en la prueba 2. Gracias! ",72.0,yes
75,2024-04-15_12h50.44.034,Experiment4_uns,157,24.0,feminino,right,España,Catalán,Master degree,no,no,A,1,when,L2,unsyncopated,when,when,75,Online_whenL2//a.du14.none.wav,ño,to,bi,sil,ra,mi,me,sil1,ba,fe,sil2,['-'],,,none,none,,,,du,2,testConjL4Uns//r1.s1.2.wav,4.0,conjunction_un,unsyncopated,a,s1,rule,rule,L4,z,0.8935,3.0,1.0,0.3599,3.0,2.0,Catalán,0.0,Castellano,0.0,Inglés,3.0,3.0,4.0,yes,yes,yes,Guitarra,15,Flauta,15,,,"Me ha costado bastante la verdad, creo que no he acertado ni una. Espero que se haya grabado todo bien porque no se ve si guarda cuando le das en el espacio en la prueba 2. Gracias! ",72.0,yes
76,2024-04-15_12h50.44.034,Experiment4_uns,157,24.0,feminino,right,España,Catalán,Master degree,no,no,A,1,when,L2,unsyncopated,when,when,76,Online_whenL2//d.si9.none.wav,du,su,to,sil,ba,ra,mi,sil1,te,ño,sil2,['-'],,,none,none,,,,si,4,testConjL4Uns//r2.s2.0.wav,4.0,conjunction_un,unsyncopated,b,s2,rule,rule,L4,z,1.5748,4.0,1.0,0.4842,3.0,2.0,Catalán,0.0,Castellano,0.0,Inglés,3.0,3.0,4.0,yes,yes,yes,Guitarra,15,Flauta,15,,,"Me ha costado bastante la verdad, creo que no he acertado ni una. Espero que se haya grabado todo bien porque no se ve si guarda cuando le das en el espacio en la prueba 2. Gracias! ",72.0,yes
77,2024-04-15_12h50.44.034,Experiment4_uns,157,24.0,feminino,right,España,Catalán,Master degree,no,no,A,1,when,L2,unsyncopated,when,when,77,Online_whenL2//d.si10.none.wav,to,bi,fe,sil,me,mi,ra,sil1,ba,cha,sil2,['-'],,,none,none,,,,si,4,testConjL4Uns//r1.s2.2.wav,4.0,conjunction_un,unsyncopated,a,s2,rule,rule,L4,m,0.6885,2.0,0.0,0.7936,3.0,2.0,Catalán,0.0,Castellano,0.0,Inglés,3.0,3.0,4.0,yes,yes,yes,Guitarra,15,Flauta,15,,,"Me ha costado bastante la verdad, creo que no he acertado ni una. Espero que se haya grabado todo bien porque no se ve si guarda cuando le das en el espacio en la prueba 2. Gracias! ",72.0,yes
78,2024-04-15_12h50.44.034,Experiment4_uns,157,24.0,feminino,right,España,Catalán,Master degree,no,no,A,1,when,L2,unsyncopated,when,when,78,Online_whenL2//d.si8.none.wav,ñu,su,fe,sil,ra,ño,me,sil1,cha,mi,sil2,['false alarm'],[1.2698000000118554],[1.2698000000118554],none,none,,,"[""space""]",si,4,testConjL4Uns//r2.s2.2.wav,4.0,conjunction_un,unsyncopated,b,s2,rule,rule,L4,m,0.383,6.0,0.0,1.555,3.0,2.0,Catalán,0.0,Castellano,0.0,Inglés,3.0,3.0,4.0,yes,yes,yes,Guitarra,15,Flauta,15,,,"Me ha costado bastante la verdad, creo que no he acertado ni una. Espero que se haya grabado todo bien porque no se ve si guarda cuando le das en el espacio en la prueba 2. Gracias! ",72.0,yes
79,2024-04-15_12h50.44.034,Experiment4_uns,157,24.0,feminino,right,España,Catalán,Master degree,no,no,A,1,when,L2,unsyncopated,when,when,79,Online_whenL2//d.si11.none.wav,to,mi,me,sil,ra,ñu,cha,sil1,su,du,sil2,['-'],,,none,none,,,,si,4,testConjL4Uns//r1.s1.1.wav,4.0,conjunction_un,unsyncopated,a,s1,rule,rule,L4,z,2.3673,3.0,1.0,0.3842,3.0,2.0,Catalán,0.0,Castellano,0.0,Inglés,3.0,3.0,4.0,yes,yes,yes,Guitarra,15,Flauta,15,,,"Me ha costado bastante la verdad, creo que no he acertado ni una. Espero que se haya grabado todo bien porque no se ve si guarda cuando le das en el espacio en la prueba 2. Gracias! ",72.0,yes
80,2024-04-15_12h50.44.034,Experiment4_uns,157,24.0,feminino,right,España,Catalán,Master degree,no,no,A,1,when,L2,unsyncopated,when,when,80,Online_whenL2//b.fe6.1998.wav,du,su,ñu,sil,cha,ba,to,sil1,te,fe,sil2,['catch'],[2.4444000000357846],[2.4444000000357846],1.998,no_beat,0.4464000000357846,0.4464000000357846,"[""space""]",fe,1,testConjL4Uns//r2.s2.1.wav,4.0,conjunction_un,unsyncopated,b,s2,rule,rule,L4,z,2.2712,3.0,1.0,0.2899,3.0,2.0,Catalán,0.0,Castellano,0.0,Inglés,3.0,3.0,4.0,yes,yes,yes,Guitarra,15,Flauta,15,,,"Me ha costado bastante la verdad, creo que no he acertado ni una. Espero que se haya grabado todo bien porque no se ve si guarda cuando le das en el espacio en la prueba 2. Gracias! ",72.0,yes
81,2024-04-15_12h50.44.034,Experiment4_uns,157,24.0,feminino,right,España,Catalán,Master degree,no,no,A,1,when,L2,unsyncopated,when,when,81,Online_whenL2//b.fe4.0.wav,fe,ra,ño,sil,to,ba,cha,sil1,si,te,sil2,['catch'],[0.6711999999880618],[0.6711999999880618],0.0,beat,0.6711999999880618,0.6711999999880618,"[""space""]",fe,1,testConjL4Uns//time_viol.r1.s1.0.wav,4.0,conjunction_un,unsyncopated,a,s1,no_rule,time,L4,m,0.2529,4.0,1.0,2.2172,3.0,2.0,Catalán,0.0,Castellano,0.0,Inglés,3.0,3.0,4.0,yes,yes,yes,Guitarra,15,Flauta,15,,,"Me ha costado bastante la verdad, creo que no he acertado ni una. Espero que se haya grabado todo bien porque no se ve si guarda cuando le das en el espacio en la prueba 2. Gracias! ",72.0,yes
82,2024-04-15_12h50.44.034,Experiment4_uns,157,24.0,feminino,right,España,Catalán,Master degree,no,no,A,1,when,L2,unsyncopated,when,when,82,Online_whenL2//b.fe7.1998.wav,ba,si,du,sil,cha,ño,bi,sil1,mi,fe,sil2,['catch'],[2.487699999988081],[2.487699999988081],1.998,no_beat,0.4896999999880809,0.4896999999880809,"[""space""]",fe,1,testConjL4Uns//cat_viol.r1.s1.0.wav,4.0,conjunction_un,unsyncopated,a,s1,no_rule,cat,L4,z,1.7091,2.0,0.0,0.379,3.0,2.0,Catalán,0.0,Castellano,0.0,Inglés,3.0,3.0,4.0,yes,yes,yes,Guitarra,15,Flauta,15,,,"Me ha costado bastante la verdad, creo que no he acertado ni una. Espero que se haya grabado todo bien porque no se ve si guarda cuando le das en el espacio en la prueba 2. Gracias! ",72.0,yes
83,2024-04-15_12h50.44.034,Experiment4_uns,157,24.0,feminino,right,España,Catalán,Master degree,no,no,A,1,when,L2,unsyncopated,when,when,83,Online_whenL2//b.fe5.1332.wav,si,cha,bi,sil,ñu,su,fe,sil1,ra,te,sil2,['miss'],,,1.332,no_beat,,,,fe,1,testConjL4Uns//time_viol.r1.s2.0.wav,4.0,conjunction_un,unsyncopated,a,s2,no_rule,time,L4,m,2.9251,2.0,1.0,0.6089,3.0,2.0,Catalán,0.0,Castellano,0.0,Inglés,3.0,3.0,4.0,yes,yes,yes,Guitarra,15,Flauta,15,,,"Me ha costado bastante la verdad, creo que no he acertado ni una. Espero que se haya grabado todo bien porque no se ve si guarda cuando le das en el espacio en la prueba 2. Gracias! ",72.0,yes
84,2024-04-15_12h50.44.034,Experiment4_uns,157,24.0,feminino,right,España,Catalán,Master degree,no,no,A,1,when,L2,unsyncopated,when,when,84,Online_whenL2//d.si5.1332.wav,to,fe,ra,sil,me,cha,si,sil1,su,te,sil2,['catch'],[1.9154999999999518],[1.9154999999999518],1.332,no_beat,0.5834999999999517,0.5834999999999517,"[""space""]",si,4,testConjL4Uns//time_viol.r2.s1.0.wav,4.0,conjunction_un,unsyncopated,b,s1,no_rule,time,L4,z,8.3012,2.0,0.0,1.9156,3.0,2.0,Catalán,0.0,Castellano,0.0,Inglés,3.0,3.0,4.0,yes,yes,yes,Guitarra,15,Flauta,15,,,"Me ha costado bastante la verdad, creo que no he acertado ni una. Espero que se haya grabado todo bien porque no se ve si guarda cuando le das en el espacio en la prueba 2. Gracias! ",72.0,yes
85,2024-04-15_12h50.44.034,Experiment4_uns,157,24.0,feminino,right,España,Catalán,Master degree,no,no,A,1,when,L2,unsyncopated,when,when,85,Online_whenL2//d.si4.444.wav,to,ra,si,sil,me,ñu,go,sil1,ño,mi,sil2,['catch'],[0.8869000000357801],[0.8869000000357801],0.444,no_beat,0.44290000003578,0.44290000003578,"[""space""]",si,4,testConjL4Uns//dep_viol.r2.s1.0.wav,4.0,conjunction_un,unsyncopated,b,s1,no_rule,dep,L4,z,5.0159,2.0,0.0,0.8678,3.0,2.0,Catalán,0.0,Castellano,0.0,Inglés,3.0,3.0,4.0,yes,yes,yes,Guitarra,15,Flauta,15,,,"Me ha costado bastante la verdad, creo que no he acertado ni una. Espero que se haya grabado todo bien porque no se ve si guarda cuando le das en el espacio en la prueba 2. Gracias! ",72.0,yes
86,2024-04-15_12h50.44.034,Experiment4_uns,157,24.0,feminino,right,España,Catalán,Master degree,no,no,A,1,when,L2,unsyncopated,when,when,86,Online_whenL2//d.si6.1776.wav,te,cha,du,sil,fe,ño,me,sil1,si,bi,sil2,['catch'],[2.2261999999880118],[2.2261999999880118],1.776,beat,0.4501999999880117,0.4501999999880117,"[""space""]",si,4,testConjL4Uns//r2.s1.0.wav,4.0,conjunction_un,unsyncopated,b,s1,rule,rule,L4,z,1.4584,7.0,1.0,0.9081,3.0,2.0,Catalán,0.0,Castellano,0.0,Inglés,3.0,3.0,4.0,yes,yes,yes,Guitarra,15,Flauta,15,,,"Me ha costado bastante la verdad, creo que no he acertado ni una. Espero que se haya grabado todo bien porque no se ve si guarda cuando le das en el espacio en la prueba 2. Gracias! ",72.0,yes
87,2024-04-15_12h50.44.034,Experiment4_uns,157,24.0,feminino,right,España,Catalán,Master degree,no,no,A,1,when,L2,unsyncopated,when,when,87,Online_whenL2//d.si7.none.wav,go,cha,te,sil,fe,ñu,ba,sil1,mi,to,sil2,['-'],,,none,none,,,,si,4,testConjL4Uns//dep_viol.r2.s2.0.wav,4.0,conjunction_un,unsyncopated,b,s2,no_rule,dep,L4,z,4.782,2.0,0.0,0.4328,3.0,2.0,Catalán,0.0,Castellano,0.0,Inglés,3.0,3.0,4.0,yes,yes,yes,Guitarra,15,Flauta,15,,,"Me ha costado bastante la verdad, creo que no he acertado ni una. Espero que se haya grabado todo bien porque no se ve si guarda cuando le das en el espacio en la prueba 2. Gracias! ",72.0,yes
88,2024-04-15_12h50.44.034,Experiment4_uns,157,24.0,feminino,right,España,Catalán,Master degree,no,no,A,1,when,L2,unsyncopated,when,when,88,Online_whenL2//a.du7.0.wav,du,ño,te,sil,ñu,to,mi,sil1,su,fe,sil2,['miss'],,,0.0,beat,,,,du,2,testConjL4Uns//r2.s1.2.wav,4.0,conjunction_un,unsyncopated,b,s1,rule,rule,L4,m,2.7574,2.0,0.0,0.517,3.0,2.0,Catalán,0.0,Castellano,0.0,Inglés,3.0,3.0,4.0,yes,yes,yes,Guitarra,15,Flauta,15,,,"Me ha costado bastante la verdad, creo que no he acertado ni una. Espero que se haya grabado todo bien porque no se ve si guarda cuando le das en el espacio en la prueba 2. Gracias! ",72.0,yes
89,2024-04-15_12h50.44.034,Experiment4_uns,157,24.0,feminino,right,España,Catalán,Master degree,no,no,A,1,when,L2,unsyncopated,when,when,89,Online_whenL2//a.du6.888.wav,me,si,bi,sil,du,mi,cha,sil1,te,fe,sil2,['catch'],[1.4041999999881227],[1.4041999999881227],0.888,beat,0.5161999999881227,0.5161999999881227,"[""space""]",du,2,testConjL4Uns//cat_viol.r2.s2.0.wav,4.0,conjunction_un,unsyncopated,b,s2,no_rule,cat,L4,m,1.1171,2.0,1.0,0.3443,3.0,2.0,Catalán,0.0,Castellano,0.0,Inglés,3.0,3.0,4.0,yes,yes,yes,Guitarra,15,Flauta,15,,,"Me ha costado bastante la verdad, creo que no he acertado ni una. Espero que se haya grabado todo bien porque no se ve si guarda cuando le das en el espacio en la prueba 2. Gracias! ",72.0,yes
90,2024-04-15_12h50.44.034,Experiment4_uns,157,24.0,feminino,right,España,Catalán,Master degree,no,no,A,1,when,L2,unsyncopated,when,when,90,Online_whenL2//a.du4.1998.wav,cha,si,go,sil,mi,ñu,me,sil1,su,du,sil2,['catch'],[2.4796999999881564],[2.4796999999881564],1.998,no_beat,0.4816999999881564,0.4816999999881564,"[""space""]",du,2,testConjL4Uns//time_viol.r2.s2.0.wav,4.0,conjunction_un,unsyncopated,b,s2,no_rule,time,L4,m,0.391,2.0,1.0,0.3904,3.0,2.0,Catalán,0.0,Castellano,0.0,Inglés,3.0,3.0,4.0,yes,yes,yes,Guitarra,15,Flauta,15,,,"Me ha costado bastante la verdad, creo que no he acertado ni una. Espero que se haya grabado todo bien porque no se ve si guarda cuando le das en el espacio en la prueba 2. Gracias! ",72.0,yes
91,2024-04-15_12h50.44.034,Experiment4_uns,157,24.0,feminino,right,España,Catalán,Master degree,no,no,A,1,when,L2,unsyncopated,when,when,91,Online_whenL2//a.du5.1110.wav,bi,ño,ra,sil,ba,du,mi,sil1,to,ñu,sil2,['miss'],,,1.11,no_beat,,,,du,2,testConjL4Uns//r1.s2.1.wav,4.0,conjunction_un,unsyncopated,a,s2,rule,rule,L4,m,0.3881,7.0,0.0,0.7912,3.0,2.0,Catalán,0.0,Castellano,0.0,Inglés,3.0,3.0,4.0,yes,yes,yes,Guitarra,15,Flauta,15,,,"Me ha costado bastante la verdad, creo que no he acertado ni una. Espero que se haya grabado todo bien porque no se ve si guarda cuando le das en el espacio en la prueba 2. Gracias! ",72.0,yes
92,2024-04-15_12h50.44.034,Experiment4_uns,157,24.0,feminino,right,España,Catalán,Master degree,no,no,A,1,when,L2,unsyncopated,when,when,92,Online_whenL2//c.cha13.888.wav,te,me,ba,sil,cha,bi,si,sil1,fe,du,sil2,['catch'],[1.2747000000476874],[1.2747000000476874],0.888,beat,0.3867000000476873,0.3867000000476873,"[""space""]",cha,3,testConjL4Uns//r1.s1.0.wav,4.0,conjunction_un,unsyncopated,a,s1,rule,rule,L4,m,0.4904,3.0,0.0,1.1846,3.0,2.0,Catalán,0.0,Castellano,0.0,Inglés,3.0,3.0,4.0,yes,yes,yes,Guitarra,15,Flauta,15,,,"Me ha costado bastante la verdad, creo que no he acertado ni una. Espero que se haya grabado todo bien porque no se ve si guarda cuando le das en el espacio en la prueba 2. Gracias! ",72.0,yes
93,2024-04-15_12h50.44.034,Experiment4_uns,157,24.0,feminino,right,España,Catalán,Master degree,no,no,A,1,when,L2,unsyncopated,when,when,93,Online_whenL2//c.cha12.444.wav,du,ba,cha,sil,te,bi,ño,sil1,ñu,fe,sil2,['catch'],[0.83660000002385],[0.83660000002385],0.444,no_beat,0.39260000002385,0.39260000002385,"[""space""]",cha,3,testConjL4Uns//r1.s2.0.wav,4.0,conjunction_un,unsyncopated,a,s2,rule,rule,L4,z,2.7484,3.0,1.0,2.4949,3.0,2.0,Catalán,0.0,Castellano,0.0,Inglés,3.0,3.0,4.0,yes,yes,yes,Guitarra,15,Flauta,15,,,"Me ha costado bastante la verdad, creo que no he acertado ni una. Espero que se haya grabado todo bien porque no se ve si guarda cuando le das en el espacio en la prueba 2. Gracias! ",72.0,yes
94,2024-04-15_12h50.44.034,Experiment4_uns,157,24.0,feminino,right,España,Catalán,Master degree,no,no,A,1,when,L2,unsyncopated,when,when,94,Online_whenL2//c.cha14.none.wav,go,te,ñu,sil,mi,bi,ba,sil1,ño,du,sil2,['-'],,,none,none,,,,cha,3,testConjL4Uns//dep_viol.r1.s2.0.wav,4.0,conjunction_un,unsyncopated,a,s2,no_rule,dep,L4,m,1.0193,7.0,1.0,2.5331,3.0,2.0,Catalán,0.0,Castellano,0.0,Inglés,3.0,3.0,4.0,yes,yes,yes,Guitarra,15,Flauta,15,,,"Me ha costado bastante la verdad, creo que no he acertado ni una. Espero que se haya grabado todo bien porque no se ve si guarda cuando le das en el espacio en la prueba 2. Gracias! ",72.0,yes
95,2024-04-15_12h50.44.034,Experiment4_uns,157,24.0,feminino,right,España,Catalán,Master degree,no,no,A,1,when,L2,unsyncopated,when,when,95,Online_whenL2//c.cha15.none.wav,si,su,ñu,sil,mi,ba,ra,sil1,to,go,sil2,['-'],,,none,none,,,,cha,3,testConjL4Uns//cat_viol.r2.s1.0.wav,4.0,conjunction_un,unsyncopated,b,s1,no_rule,cat,L4,z,0.7834,4.0,0.0,2.5843,3.0,2.0,Catalán,0.0,Castellano,0.0,Inglés,3.0,3.0,4.0,yes,yes,yes,Guitarra,15,Flauta,15,,,"Me ha costado bastante la verdad, creo que no he acertado ni una. Espero que se haya grabado todo bien porque no se ve si guarda cuando le das en el espacio en la prueba 2. Gracias! ",72.0,yes
96,2024-04-15_12h50.44.034,Experiment4_uns,157,24.0,feminino,right,España,Catalán,Master degree,no,no,A,1,when,L2,unsyncopated,when,when,96,Online_whenL2//b.fe28.1776.wav,me,su,ba,sil,bi,ño,te,sil1,fe,du,sil2,['catch'],[2.2056000000238782],[2.2056000000238782],1.776,beat,0.4296000000238782,0.4296000000238782,"[""space""]",fe,1,,,,,,,,,,,,,,,3.0,2.0,Catalán,0.0,Castellano,0.0,Inglés,3.0,3.0,4.0,yes,yes,yes,Guitarra,15,Flauta,15,,,"Me ha costado bastante la verdad, creo que no he acertado ni una. Espero que se haya grabado todo bien porque no se ve si guarda cuando le das en el espacio en la prueba 2. Gracias! ",72.0,yes
97,2024-04-15_12h50.44.034,Experiment4_uns,157,24.0,feminino,right,España,Catalán,Master degree,no,no,A,1,when,L2,unsyncopated,when,when,97,Online_whenL2//b.fe30.none.wav,ra,si,su,sil,ñu,go,te,sil1,to,ño,sil2,['-'],,,none,none,,,,fe,1,,,,,,,,,,,,,,,3.0,2.0,Catalán,0.0,Castellano,0.0,Inglés,3.0,3.0,4.0,yes,yes,yes,Guitarra,15,Flauta,15,,,"Me ha costado bastante la verdad, creo que no he acertado ni una. Espero que se haya grabado todo bien porque no se ve si guarda cuando le das en el espacio en la prueba 2. Gracias! ",72.0,yes
98,2024-04-15_12h50.44.034,Experiment4_uns,157,24.0,feminino,right,España,Catalán,Master degree,no,no,A,1,when,L2,unsyncopated,when,when,98,Online_whenL2//b.fe29.none.wav,ra,ñu,du,sil,ño,bi,to,sil1,mi,su,sil2,['-'],,,none,none,,,,fe,1,,,,,,,,,,,,,,,3.0,2.0,Catalán,0.0,Castellano,0.0,Inglés,3.0,3.0,4.0,yes,yes,yes,Guitarra,15,Flauta,15,,,"Me ha costado bastante la verdad, creo que no he acertado ni una. Espero que se haya grabado todo bien porque no se ve si guarda cuando le das en el espacio en la prueba 2. Gracias! ",72.0,yes
99,2024-04-15_12h50.44.034,Experiment4_uns,157,24.0,feminino,right,España,Catalán,Master degree,no,no,A,1,when,L2,unsyncopated,when,when,99,Online_whenL2//b.fe31.none.wav,me,si,ñu,sil,su,go,du,sil1,bi,ba,sil2,['-'],,,none,none,,,,fe,1,,,,,,,,,,,,,,,3.0,2.0,Catalán,0.0,Castellano,0.0,Inglés,3.0,3.0,4.0,yes,yes,yes,Guitarra,15,Flauta,15,,,"Me ha costado bastante la verdad, creo que no he acertado ni una. Espero que se haya grabado todo bien porque no se ve si guarda cuando le das en el espacio en la prueba 2. Gracias! ",72.0,yes
100,2024-04-15_12h50.44.034,Experiment4_uns,157,24.0,feminino,right,España,Catalán,Master degree,no,no,A,1,when,L2,unsyncopated,when,when,100,Online_whenL2//b.fe2.1332.wav,ñu,bi,mi,sil,ra,cha,fe,sil1,ba,si,sil2,['miss'],,,1.332,no_beat,,,,fe,1,,,,,,,,,,,,,,,3.0,2.0,Catalán,0.0,Castellano,0.0,Inglés,3.0,3.0,4.0,yes,yes,yes,Guitarra,15,Flauta,15,,,"Me ha costado bastante la verdad, creo que no he acertado ni una. Espero que se haya grabado todo bien porque no se ve si guarda cuando le das en el espacio en la prueba 2. Gracias! ",72.0,yes
101,2024-04-15_12h50.44.034,Experiment4_uns,157,24.0,feminino,right,España,Catalán,Master degree,no,no,A,1,when,L2,unsyncopated,when,when,101,Online_whenL2//b.fe3.1110.wav,me,mi,ñu,sil,bi,fe,si,sil1,to,go,sil2,['catch'],[1.5256000000238146],[1.5256000000238146],1.11,no_beat,0.4156000000238145,0.4156000000238145,"[""space""]",fe,1,,,,,,,,,,,,,,,3.0,2.0,Catalán,0.0,Castellano,0.0,Inglés,3.0,3.0,4.0,yes,yes,yes,Guitarra,15,Flauta,15,,,"Me ha costado bastante la verdad, creo que no he acertado ni una. Espero que se haya grabado todo bien porque no se ve si guarda cuando le das en el espacio en la prueba 2. Gracias! ",72.0,yes
102,2024-04-15_12h50.44.034,Experiment4_uns,157,24.0,feminino,right,España,Catalán,Master degree,no,no,A,1,when,L2,unsyncopated,when,when,102,Online_whenL2//b.fe1.none.wav,du,te,ba,sil,ra,mi,cha,sil1,ñu,to,sil2,['-'],,,none,none,,,,fe,1,,,,,,,,,,,,,,,3.0,2.0,Catalán,0.0,Castellano,0.0,Inglés,3.0,3.0,4.0,yes,yes,yes,Guitarra,15,Flauta,15,,,"Me ha costado bastante la verdad, creo que no he acertado ni una. Espero que se haya grabado todo bien porque no se ve si guarda cuando le das en el espacio en la prueba 2. Gracias! ",72.0,yes
103,2024-04-15_12h50.44.034,Experiment4_uns,157,24.0,feminino,right,España,Catalán,Master degree,no,no,A,1,when,L2,unsyncopated,when,when,103,Online_whenL2//b.fe0.none.wav,te,go,to,sil,si,ra,ño,sil1,cha,su,sil2,['-'],,,none,none,,,,fe,1,,,,,,,,,,,,,,,3.0,2.0,Catalán,0.0,Castellano,0.0,Inglés,3.0,3.0,4.0,yes,yes,yes,Guitarra,15,Flauta,15,,,"Me ha costado bastante la verdad, creo que no he acertado ni una. Espero que se haya grabado todo bien porque no se ve si guarda cuando le das en el espacio en la prueba 2. Gracias! ",72.0,yes
104,2024-04-15_12h50.44.034,Experiment4_uns,157,24.0,feminino,right,España,Catalán,Master degree,no,no,A,1,when,L2,unsyncopated,when,when,104,Online_whenL2//d.si26.none.wav,ra,ño,cha,sil,to,su,bi,sil1,ñu,fe,sil2,['false alarm'],[1.8148999999760917],[1.8148999999760917],none,none,,,"[""space""]",si,4,,,,,,,,,,,,,,,3.0,2.0,Catalán,0.0,Castellano,0.0,Inglés,3.0,3.0,4.0,yes,yes,yes,Guitarra,15,Flauta,15,,,"Me ha costado bastante la verdad, creo que no he acertado ni una. Espero que se haya grabado todo bien porque no se ve si guarda cuando le das en el espacio en la prueba 2. Gracias! ",72.0,yes
105,2024-04-15_12h50.44.034,Experiment4_uns,157,24.0,feminino,right,España,Catalán,Master degree,no,no,A,1,when,L2,unsyncopated,when,when,105,Online_whenL2//d.si24.1332.wav,me,du,bi,sil,ñu,cha,si,sil1,ra,su,sil2,['miss'],,,1.332,no_beat,,,,si,4,,,,,,,,,,,,,,,3.0,2.0,Catalán,0.0,Castellano,0.0,Inglés,3.0,3.0,4.0,yes,yes,yes,Guitarra,15,Flauta,15,,,"Me ha costado bastante la verdad, creo que no he acertado ni una. Espero que se haya grabado todo bien porque no se ve si guarda cuando le das en el espacio en la prueba 2. Gracias! ",72.0,yes
106,2024-04-15_12h50.44.034,Experiment4_uns,157,24.0,feminino,right,España,Catalán,Master degree,no,no,A,1,when,L2,unsyncopated,when,when,106,Online_whenL2//d.si27.1110.wav,fe,te,ñu,sil,ño,si,mi,sil1,me,go,sil2,['catch'],[1.7696000000238428],[1.7696000000238428],1.11,no_beat,0.6596000000238427,0.6596000000238427,"[""space""]",si,4,,,,,,,,,,,,,,,3.0,2.0,Catalán,0.0,Castellano,0.0,Inglés,3.0,3.0,4.0,yes,yes,yes,Guitarra,15,Flauta,15,,,"Me ha costado bastante la verdad, creo que no he acertado ni una. Espero que se haya grabado todo bien porque no se ve si guarda cuando le das en el espacio en la prueba 2. Gracias! ",72.0,yes
107,2024-04-15_12h50.44.034,Experiment4_uns,157,24.0,feminino,right,España,Catalán,Master degree,no,no,A,1,when,L2,unsyncopated,when,when,107,Online_whenL2//d.si25.none.wav,ño,ra,me,sil,to,go,te,sil1,su,mi,sil2,['-'],,,none,none,,,,si,4,,,,,,,,,,,,,,,3.0,2.0,Catalán,0.0,Castellano,0.0,Inglés,3.0,3.0,4.0,yes,yes,yes,Guitarra,15,Flauta,15,,,"Me ha costado bastante la verdad, creo que no he acertado ni una. Espero que se haya grabado todo bien porque no se ve si guarda cuando le das en el espacio en la prueba 2. Gracias! ",72.0,yes
108,2024-04-15_12h50.44.034,Experiment4_uns,157,24.0,feminino,right,España,Catalán,Master degree,no,no,A,1,when,L2,unsyncopated,when,when,108,Online_whenL2//c.cha7.none.wav,ba,to,bi,sil,ño,du,si,sil1,mi,fe,sil2,['false alarm'],[0.48280000001193457],[0.48280000001193457],none,none,,,"[""space""]",cha,3,,,,,,,,,,,,,,,3.0,2.0,Catalán,0.0,Castellano,0.0,Inglés,3.0,3.0,4.0,yes,yes,yes,Guitarra,15,Flauta,15,,,"Me ha costado bastante la verdad, creo que no he acertado ni una. Espero que se haya grabado todo bien porque no se ve si guarda cuando le das en el espacio en la prueba 2. Gracias! ",72.0,yes
109,2024-04-15_12h50.44.034,Experiment4_uns,157,24.0,feminino,right,España,Catalán,Master degree,no,no,A,1,when,L2,unsyncopated,when,when,109,Online_whenL2//c.cha4.222.wav,bi,cha,ñu,sil,su,mi,du,sil1,si,fe,sil2,['catch'],[0.8355000000000246],[0.8355000000000246],0.222,no_beat,0.6135000000000246,0.6135000000000246,"[""space""]",cha,3,,,,,,,,,,,,,,,3.0,2.0,Catalán,0.0,Castellano,0.0,Inglés,3.0,3.0,4.0,yes,yes,yes,Guitarra,15,Flauta,15,,,"Me ha costado bastante la verdad, creo que no he acertado ni una. Espero que se haya grabado todo bien porque no se ve si guarda cuando le das en el espacio en la prueba 2. Gracias! ",72.0,yes
110,2024-04-15_12h50.44.034,Experiment4_uns,157,24.0,feminino,right,España,Catalán,Master degree,no,no,A,1,when,L2,unsyncopated,when,when,110,Online_whenL2//c.cha6.none.wav,ño,bi,su,sil,ñu,to,si,sil1,du,go,sil2,['-'],,,none,none,,,,cha,3,,,,,,,,,,,,,,,3.0,2.0,Catalán,0.0,Castellano,0.0,Inglés,3.0,3.0,4.0,yes,yes,yes,Guitarra,15,Flauta,15,,,"Me ha costado bastante la verdad, creo que no he acertado ni una. Espero que se haya grabado todo bien porque no se ve si guarda cuando le das en el espacio en la prueba 2. Gracias! ",72.0,yes
111,2024-04-15_12h50.44.034,Experiment4_uns,157,24.0,feminino,right,España,Catalán,Master degree,no,no,A,1,when,L2,unsyncopated,when,when,111,Online_whenL2//c.cha5.none.wav,bi,mi,to,sil,su,fe,te,sil1,du,si,sil2,['-'],,,none,none,,,,cha,3,,,,,,,,,,,,,,,3.0,2.0,Catalán,0.0,Castellano,0.0,Inglés,3.0,3.0,4.0,yes,yes,yes,Guitarra,15,Flauta,15,,,"Me ha costado bastante la verdad, creo que no he acertado ni una. Espero que se haya grabado todo bien porque no se ve si guarda cuando le das en el espacio en la prueba 2. Gracias! ",72.0,yes
112,2024-04-15_12h50.44.034,Experiment4_uns,157,24.0,feminino,right,España,Catalán,Master degree,no,no,A,1,when,L2,unsyncopated,when,when,112,Online_whenL2//c.cha17.none.wav,te,ñu,su,sil,mi,go,me,sil1,ra,si,sil2,['-'],,,none,none,,,,cha,3,,,,,,,,,,,,,,,3.0,2.0,Catalán,0.0,Castellano,0.0,Inglés,3.0,3.0,4.0,yes,yes,yes,Guitarra,15,Flauta,15,,,"Me ha costado bastante la verdad, creo que no he acertado ni una. Espero que se haya grabado todo bien porque no se ve si guarda cuando le das en el espacio en la prueba 2. Gracias! ",72.0,yes
113,2024-04-15_12h50.44.034,Experiment4_uns,157,24.0,feminino,right,España,Catalán,Master degree,no,no,A,1,when,L2,unsyncopated,when,when,113,Online_whenL2//c.cha19.1998.wav,go,si,du,sil,ñu,to,ba,sil1,te,cha,sil2,['catch'],[2.46939999997619],[2.46939999997619],1.998,no_beat,0.47139999997619,0.47139999997619,"[""space""]",cha,3,,,,,,,,,,,,,,,3.0,2.0,Catalán,0.0,Castellano,0.0,Inglés,3.0,3.0,4.0,yes,yes,yes,Guitarra,15,Flauta,15,,,"Me ha costado bastante la verdad, creo que no he acertado ni una. Espero que se haya grabado todo bien porque no se ve si guarda cuando le das en el espacio en la prueba 2. Gracias! ",72.0,yes
114,2024-04-15_12h50.44.034,Experiment4_uns,157,24.0,feminino,right,España,Catalán,Master degree,no,no,A,1,when,L2,unsyncopated,when,when,114,Online_whenL2//c.cha18.1776.wav,ra,ñu,ño,sil,si,to,te,sil1,cha,du,sil2,['catch'],[2.4486999999880936],[2.4486999999880936],1.776,beat,0.6726999999880936,0.6726999999880936,"[""space""]",cha,3,,,,,,,,,,,,,,,3.0,2.0,Catalán,0.0,Castellano,0.0,Inglés,3.0,3.0,4.0,yes,yes,yes,Guitarra,15,Flauta,15,,,"Me ha costado bastante la verdad, creo que no he acertado ni una. Espero que se haya grabado todo bien porque no se ve si guarda cuando le das en el espacio en la prueba 2. Gracias! ",72.0,yes
115,2024-04-15_12h50.44.034,Experiment4_uns,157,24.0,feminino,right,España,Catalán,Master degree,no,no,A,1,when,L2,unsyncopated,when,when,115,Online_whenL2//c.cha16.none.wav,te,su,to,sil,du,ra,me,sil1,si,mi,sil2,['-'],,,none,none,,,,cha,3,,,,,,,,,,,,,,,3.0,2.0,Catalán,0.0,Castellano,0.0,Inglés,3.0,3.0,4.0,yes,yes,yes,Guitarra,15,Flauta,15,,,"Me ha costado bastante la verdad, creo que no he acertado ni una. Espero que se haya grabado todo bien porque no se ve si guarda cuando le das en el espacio en la prueba 2. Gracias! ",72.0,yes
116,2024-04-15_12h50.44.034,Experiment4_uns,157,24.0,feminino,right,España,Catalán,Master degree,no,no,A,1,when,L2,unsyncopated,when,when,116,Online_whenL2//a.du10.none.wav,cha,ño,to,sil,ra,bi,fe,sil1,ba,mi,sil2,['false alarm'],[0.7278000000119391],[0.7278000000119391],none,none,,,"[""space""]",du,2,,,,,,,,,,,,,,,3.0,2.0,Catalán,0.0,Castellano,0.0,Inglés,3.0,3.0,4.0,yes,yes,yes,Guitarra,15,Flauta,15,,,"Me ha costado bastante la verdad, creo que no he acertado ni una. Espero que se haya grabado todo bien porque no se ve si guarda cuando le das en el espacio en la prueba 2. Gracias! ",72.0,yes
117,2024-04-15_12h50.44.034,Experiment4_uns,157,24.0,feminino,right,España,Catalán,Master degree,no,no,A,1,when,L2,unsyncopated,when,when,117,Online_whenL2//a.du11.1998.wav,me,te,go,sil,mi,ñu,si,sil1,bi,du,sil2,['catch'],[2.556500000000028],[2.556500000000028],1.998,no_beat,0.5585000000000282,0.5585000000000282,"[""space""]",du,2,,,,,,,,,,,,,,,3.0,2.0,Catalán,0.0,Castellano,0.0,Inglés,3.0,3.0,4.0,yes,yes,yes,Guitarra,15,Flauta,15,,,"Me ha costado bastante la verdad, creo que no he acertado ni una. Espero que se haya grabado todo bien porque no se ve si guarda cuando le das en el espacio en la prueba 2. Gracias! ",72.0,yes
118,2024-04-15_12h50.44.034,Experiment4_uns,157,24.0,feminino,right,España,Catalán,Master degree,no,no,A,1,when,L2,unsyncopated,when,when,118,Online_whenL2//a.du8.none.wav,ño,su,to,sil,go,te,bi,sil1,ra,si,sil2,['-'],,,none,none,,,,du,2,,,,,,,,,,,,,,,3.0,2.0,Catalán,0.0,Castellano,0.0,Inglés,3.0,3.0,4.0,yes,yes,yes,Guitarra,15,Flauta,15,,,"Me ha costado bastante la verdad, creo que no he acertado ni una. Espero que se haya grabado todo bien porque no se ve si guarda cuando le das en el espacio en la prueba 2. Gracias! ",72.0,yes
119,2024-04-15_12h50.44.034,Experiment4_uns,157,24.0,feminino,right,España,Catalán,Master degree,no,no,A,1,when,L2,unsyncopated,when,when,119,Online_whenL2//a.du9.1332.wav,bi,cha,su,sil,ñu,ba,du,sil1,ra,me,sil2,['miss'],,,1.332,no_beat,,,,du,2,,,,,,,,,,,,,,,3.0,2.0,Catalán,0.0,Castellano,0.0,Inglés,3.0,3.0,4.0,yes,yes,yes,Guitarra,15,Flauta,15,,,"Me ha costado bastante la verdad, creo que no he acertado ni una. Espero que se haya grabado todo bien porque no se ve si guarda cuando le das en el espacio en la prueba 2. Gracias! ",72.0,yes
120,2024-04-15_12h50.44.034,Experiment4_uns,157,24.0,feminino,right,España,Catalán,Master degree,no,no,A,1,when,L2,unsyncopated,when,when,120,Online_whenL2//a.du25.444.wav,ñu,cha,du,sil,mi,su,si,sil1,go,me,sil2,['miss'],,,0.444,no_beat,,,,du,2,,,,,,,,,,,,,,,3.0,2.0,Catalán,0.0,Castellano,0.0,Inglés,3.0,3.0,4.0,yes,yes,yes,Guitarra,15,Flauta,15,,,"Me ha costado bastante la verdad, creo que no he acertado ni una. Espero que se haya grabado todo bien porque no se ve si guarda cuando le das en el espacio en la prueba 2. Gracias! ",72.0,yes
121,2024-04-15_12h50.44.034,Experiment4_uns,157,24.0,feminino,right,España,Catalán,Master degree,no,no,A,1,when,L2,unsyncopated,when,when,121,Online_whenL2//a.du26.none.wav,bi,ra,te,sil,ba,si,ño,sil1,go,to,sil2,['-'],,,none,none,,,,du,2,,,,,,,,,,,,,,,3.0,2.0,Catalán,0.0,Castellano,0.0,Inglés,3.0,3.0,4.0,yes,yes,yes,Guitarra,15,Flauta,15,,,"Me ha costado bastante la verdad, creo que no he acertado ni una. Espero que se haya grabado todo bien porque no se ve si guarda cuando le das en el espacio en la prueba 2. Gracias! ",72.0,yes
122,2024-04-15_12h50.44.034,Experiment4_uns,157,24.0,feminino,right,España,Catalán,Master degree,no,no,A,1,when,L2,unsyncopated,when,when,122,Online_whenL2//a.du24.222.wav,me,du,to,sil,su,te,ra,sil1,bi,ñu,sil2,['miss'],,,0.222,no_beat,,,,du,2,,,,,,,,,,,,,,,3.0,2.0,Catalán,0.0,Castellano,0.0,Inglés,3.0,3.0,4.0,yes,yes,yes,Guitarra,15,Flauta,15,,,"Me ha costado bastante la verdad, creo que no he acertado ni una. Espero que se haya grabado todo bien porque no se ve si guarda cuando le das en el espacio en la prueba 2. Gracias! ",72.0,yes
123,2024-04-15_12h50.44.034,Experiment4_uns,157,24.0,feminino,right,España,Catalán,Master degree,no,no,A,1,when,L2,unsyncopated,when,when,123,Online_whenL2//a.du27.none.wav,su,go,bi,sil,fe,to,ño,sil1,si,te,sil2,['-'],,,none,none,,,,du,2,,,,,,,,,,,,,,,3.0,2.0,Catalán,0.0,Castellano,0.0,Inglés,3.0,3.0,4.0,yes,yes,yes,Guitarra,15,Flauta,15,,,"Me ha costado bastante la verdad, creo que no he acertado ni una. Espero que se haya grabado todo bien porque no se ve si guarda cuando le das en el espacio en la prueba 2. Gracias! ",72.0,yes
124,2024-04-15_12h50.44.034,Experiment4_uns,157,24.0,feminino,right,España,Catalán,Master degree,no,no,A,1,when,L2,unsyncopated,when,when,124,Online_whenL2//a.du31.222.wav,ba,du,go,sil,to,si,cha,sil1,mi,bi,sil2,['miss'],,,0.222,no_beat,,,,du,2,,,,,,,,,,,,,,,3.0,2.0,Catalán,0.0,Castellano,0.0,Inglés,3.0,3.0,4.0,yes,yes,yes,Guitarra,15,Flauta,15,,,"Me ha costado bastante la verdad, creo que no he acertado ni una. Espero que se haya grabado todo bien porque no se ve si guarda cuando le das en el espacio en la prueba 2. Gracias! ",72.0,yes
125,2024-04-15_12h50.44.034,Experiment4_uns,157,24.0,feminino,right,España,Catalán,Master degree,no,no,A,1,when,L2,unsyncopated,when,when,125,Online_whenL2//a.du30.none.wav,fe,bi,to,sil,cha,su,ra,sil1,ño,ba,sil2,['-'],,,none,none,,,,du,2,,,,,,,,,,,,,,,3.0,2.0,Catalán,0.0,Castellano,0.0,Inglés,3.0,3.0,4.0,yes,yes,yes,Guitarra,15,Flauta,15,,,"Me ha costado bastante la verdad, creo que no he acertado ni una. Espero que se haya grabado todo bien porque no se ve si guarda cuando le das en el espacio en la prueba 2. Gracias! ",72.0,yes
126,2024-04-15_12h50.44.034,Experiment4_uns,157,24.0,feminino,right,España,Catalán,Master degree,no,no,A,1,when,L2,unsyncopated,when,when,126,Online_whenL2//a.du28.none.wav,ño,te,to,sil,go,ba,ra,sil1,su,bi,sil2,['-'],,,none,none,,,,du,2,,,,,,,,,,,,,,,3.0,2.0,Catalán,0.0,Castellano,0.0,Inglés,3.0,3.0,4.0,yes,yes,yes,Guitarra,15,Flauta,15,,,"Me ha costado bastante la verdad, creo que no he acertado ni una. Espero que se haya grabado todo bien porque no se ve si guarda cuando le das en el espacio en la prueba 2. Gracias! ",72.0,yes
127,2024-04-15_12h50.44.034,Experiment4_uns,157,24.0,feminino,right,España,Catalán,Master degree,no,no,A,1,when,L2,unsyncopated,when,when,127,Online_whenL2//a.du29.1998.wav,ra,ño,su,sil,bi,si,mi,sil1,me,du,sil2,['catch_delay'],[0.673399999976201],[0.673399999976201],1.998,no_beat,0.673399999976201,0.673399999976201,,du,2,,,,,,,,,,,,,,,3.0,2.0,Catalán,0.0,Castellano,0.0,Inglés,3.0,3.0,4.0,yes,yes,yes,Guitarra,15,Flauta,15,,,"Me ha costado bastante la verdad, creo que no he acertado ni una. Espero que se haya grabado todo bien porque no se ve si guarda cuando le das en el espacio en la prueba 2. Gracias! ",72.0,yes
128,2024-04-15_12h50.44.034,Experiment4_uns,157,24.0,feminino,right,España,Catalán,Master degree,no,no,A,1,when,L2,unsyncopated,when,when,128,Online_whenL2//d.si21.none.wav,te,me,bi,sil,go,ñu,to,sil1,ra,ño,sil2,['-'],[0.007399999976200888],[0.007399999976200888],none,none,,,"[""space""]",si,4,,,,,,,,,,,,,,,3.0,2.0,Catalán,0.0,Castellano,0.0,Inglés,3.0,3.0,4.0,yes,yes,yes,Guitarra,15,Flauta,15,,,"Me ha costado bastante la verdad, creo que no he acertado ni una. Espero que se haya grabado todo bien porque no se ve si guarda cuando le das en el espacio en la prueba 2. Gracias! ",72.0,yes
129,2024-04-15_12h50.44.034,Experiment4_uns,157,24.0,feminino,right,España,Catalán,Master degree,no,no,A,1,when,L2,unsyncopated,when,when,129,Online_whenL2//d.si22.none.wav,te,du,fe,sil,cha,su,ñu,sil1,me,ba,sil2,['-'],,,none,none,,,,si,4,,,,,,,,,,,,,,,3.0,2.0,Catalán,0.0,Castellano,0.0,Inglés,3.0,3.0,4.0,yes,yes,yes,Guitarra,15,Flauta,15,,,"Me ha costado bastante la verdad, creo que no he acertado ni una. Espero que se haya grabado todo bien porque no se ve si guarda cuando le das en el espacio en la prueba 2. Gracias! ",72.0,yes
130,2024-04-15_12h50.44.034,Experiment4_uns,157,24.0,feminino,right,España,Catalán,Master degree,no,no,A,1,when,L2,unsyncopated,when,when,130,Online_whenL2//d.si20.1998.wav,ba,mi,ñu,sil,cha,to,go,sil1,ra,si,sil2,['catch'],[2.4196999999880973],[2.4196999999880973],1.998,no_beat,0.4216999999880972,0.4216999999880972,"[""space""]",si,4,,,,,,,,,,,,,,,3.0,2.0,Catalán,0.0,Castellano,0.0,Inglés,3.0,3.0,4.0,yes,yes,yes,Guitarra,15,Flauta,15,,,"Me ha costado bastante la verdad, creo que no he acertado ni una. Espero que se haya grabado todo bien porque no se ve si guarda cuando le das en el espacio en la prueba 2. Gracias! ",72.0,yes
131,2024-04-15_12h50.44.034,Experiment4_uns,157,24.0,feminino,right,España,Catalán,Master degree,no,no,A,1,when,L2,unsyncopated,when,when,131,Online_whenL2//d.si23.none.wav,to,mi,ba,sil,go,du,ñu,sil1,te,ño,sil2,['-'],,,none,none,,,,si,4,,,,,,,,,,,,,,,3.0,2.0,Catalán,0.0,Castellano,0.0,Inglés,3.0,3.0,4.0,yes,yes,yes,Guitarra,15,Flauta,15,,,"Me ha costado bastante la verdad, creo que no he acertado ni una. Espero que se haya grabado todo bien porque no se ve si guarda cuando le das en el espacio en la prueba 2. Gracias! ",72.0,yes
132,2024-04-15_12h50.44.034,Experiment4_uns,157,24.0,feminino,right,España,Catalán,Master degree,no,no,A,1,when,L2,unsyncopated,when,when,132,Online_whenL2//c.cha21.1998.wav,si,du,ñu,sil,mi,go,to,sil1,ño,cha,sil2,"['false alarm', 'catch']","[0.6675000000000182, 2.5598999999760963]",[2.5598999999760963],1.998,no_beat,0.5618999999760963,0.5618999999760963,"[""space"",""space""]",cha,3,,,,,,,,,,,,,,,3.0,2.0,Catalán,0.0,Castellano,0.0,Inglés,3.0,3.0,4.0,yes,yes,yes,Guitarra,15,Flauta,15,,,"Me ha costado bastante la verdad, creo que no he acertado ni una. Espero que se haya grabado todo bien porque no se ve si guarda cuando le das en el espacio en la prueba 2. Gracias! ",72.0,yes
133,2024-04-15_12h50.44.034,Experiment4_uns,157,24.0,feminino,right,España,Catalán,Master degree,no,no,A,1,when,L2,unsyncopated,when,when,133,Online_whenL2//c.cha22.none.wav,ra,to,mi,sil,bi,te,ba,sil1,fe,ñu,sil2,['-'],,,none,none,,,,cha,3,,,,,,,,,,,,,,,3.0,2.0,Catalán,0.0,Castellano,0.0,Inglés,3.0,3.0,4.0,yes,yes,yes,Guitarra,15,Flauta,15,,,"Me ha costado bastante la verdad, creo que no he acertado ni una. Espero que se haya grabado todo bien porque no se ve si guarda cuando le das en el espacio en la prueba 2. Gracias! ",72.0,yes
134,2024-04-15_12h50.44.034,Experiment4_uns,157,24.0,feminino,right,España,Catalán,Master degree,no,no,A,1,when,L2,unsyncopated,when,when,134,Online_whenL2//c.cha20.none.wav,fe,ño,mi,sil,ra,su,ba,sil1,ñu,to,sil2,['-'],,,none,none,,,,cha,3,,,,,,,,,,,,,,,3.0,2.0,Catalán,0.0,Castellano,0.0,Inglés,3.0,3.0,4.0,yes,yes,yes,Guitarra,15,Flauta,15,,,"Me ha costado bastante la verdad, creo que no he acertado ni una. Espero que se haya grabado todo bien porque no se ve si guarda cuando le das en el espacio en la prueba 2. Gracias! ",72.0,yes
135,2024-04-15_12h50.44.034,Experiment4_uns,157,24.0,feminino,right,España,Catalán,Master degree,no,no,A,1,when,L2,unsyncopated,when,when,135,Online_whenL2//c.cha23.none.wav,me,ba,fe,sil,ño,ñu,mi,sil1,go,te,sil2,['-'],,,none,none,,,,cha,3,,,,,,,,,,,,,,,3.0,2.0,Catalán,0.0,Castellano,0.0,Inglés,3.0,3.0,4.0,yes,yes,yes,Guitarra,15,Flauta,15,,,"Me ha costado bastante la verdad, creo que no he acertado ni una. Espero que se haya grabado todo bien porque no se ve si guarda cuando le das en el espacio en la prueba 2. Gracias! ",72.0,yes
136,2024-04-15_12h50.44.034,Experiment4_uns,157,24.0,feminino,right,España,Catalán,Master degree,no,no,A,2,what,L1,unsyncopated,s1,r2,0,Online_whatL1//c.ro.fo26.1332.1554.wav,ta,fa,ri,sil2,be,ro,fo,sil,ze,zu,sil1,['catch'],[1.9096000000240565],[1.9096000000240565],1.332,no_beat,0.5776000000240564,0.5776000000240564,"[""space""]",ro,3,,,,,,,,,,,,,,,3.0,2.0,Catalán,0.0,Castellano,0.0,Inglés,3.0,3.0,4.0,yes,yes,yes,Guitarra,15,Flauta,15,,,"Me ha costado bastante la verdad, creo que no he acertado ni una. Espero que se haya grabado todo bien porque no se ve si guarda cuando le das en el espacio en la prueba 2. Gracias! ",72.0,yes
137,2024-04-15_12h50.44.034,Experiment4_uns,157,24.0,feminino,right,España,Catalán,Master degree,no,no,A,2,what,L1,unsyncopated,s1,r1,1,Online_whatL1//c.ro.fo24.none.none.wav,pu,la,ri,sil,ki,fa,ne,sil1,ni,lu,sil2,['-'],,,none,none,,,,ro,3,,,,,,,,,,,,,,,3.0,2.0,Catalán,0.0,Castellano,0.0,Inglés,3.0,3.0,4.0,yes,yes,yes,Guitarra,15,Flauta,15,,,"Me ha costado bastante la verdad, creo que no he acertado ni una. Espero que se haya grabado todo bien porque no se ve si guarda cuando le das en el espacio en la prueba 2. Gracias! ",72.0,yes
138,2024-04-15_12h50.44.034,Experiment4_uns,157,24.0,feminino,right,España,Catalán,Master degree,no,no,A,2,what,L1,unsyncopated,s1,r1,2,Online_whatL1//c.ro.fo27.none.none.wav,pu,lu,ze,sil,ki,ne,fa,sil2,cho,zu,sil1,['-'],,,none,none,,,,ro,3,,,,,,,,,,,,,,,3.0,2.0,Catalán,0.0,Castellano,0.0,Inglés,3.0,3.0,4.0,yes,yes,yes,Guitarra,15,Flauta,15,,,"Me ha costado bastante la verdad, creo que no he acertado ni una. Espero que se haya grabado todo bien porque no se ve si guarda cuando le das en el espacio en la prueba 2. Gracias! ",72.0,yes
139,2024-04-15_12h50.44.034,Experiment4_uns,157,24.0,feminino,right,España,Catalán,Master degree,no,no,A,2,what,L1,unsyncopated,s1,r2,3,Online_whatL1//c.ro.fo25.222.1110.wav,ta,ro,lu,sil,be,fo,ri,sil2,ni,zu,sil1,['catch'],[0.9297000000476601],[0.9297000000476601],0.222,no_beat,0.7077000000476601,0.7077000000476601,"[""space""]",ro,3,,,,,,,,,,,,,,,3.0,2.0,Catalán,0.0,Castellano,0.0,Inglés,3.0,3.0,4.0,yes,yes,yes,Guitarra,15,Flauta,15,,,"Me ha costado bastante la verdad, creo que no he acertado ni una. Espero que se haya grabado todo bien porque no se ve si guarda cuando le das en el espacio en la prueba 2. Gracias! ",72.0,yes
140,2024-04-15_12h50.44.034,Experiment4_uns,157,24.0,feminino,right,España,Catalán,Master degree,no,no,A,2,what,L1,unsyncopated,s2,r1,4,Online_whatL1//b.ta.be24.none.none.wav,lu,zu,cho,sil,pu,ni,fa,sil2,ki,fo,sil1,['-'],,,none,none,,,,ta,1,,,,,,,,,,,,,,,3.0,2.0,Catalán,0.0,Castellano,0.0,Inglés,3.0,3.0,4.0,yes,yes,yes,Guitarra,15,Flauta,15,,,"Me ha costado bastante la verdad, creo que no he acertado ni una. Espero que se haya grabado todo bien porque no se ve si guarda cuando le das en el espacio en la prueba 2. Gracias! ",72.0,yes
141,2024-04-15_12h50.44.034,Experiment4_uns,157,24.0,feminino,right,España,Catalán,Master degree,no,no,A,2,what,L1,unsyncopated,s1,r1,5,Online_whatL1//b.ta.be25.none.none.wav,pu,ze,cho,sil2,ki,fo,ro,sil,ni,ri,sil1,['-'],,,none,none,,,,ta,1,,,,,,,,,,,,,,,3.0,2.0,Catalán,0.0,Castellano,0.0,Inglés,3.0,3.0,4.0,yes,yes,yes,Guitarra,15,Flauta,15,,,"Me ha costado bastante la verdad, creo que no he acertado ni una. Espero que se haya grabado todo bien porque no se ve si guarda cuando le das en el espacio en la prueba 2. Gracias! ",72.0,yes
142,2024-04-15_12h50.44.034,Experiment4_uns,157,24.0,feminino,right,España,Catalán,Master degree,no,no,A,2,what,L1,unsyncopated,s1,r1,6,Online_whatL1//b.ta.be27.none.none.wav,pu,lu,zu,sil,ki,la,ro,sil2,ni,fa,sil1,['false alarm'],[1.6863999999761745],[1.6863999999761745],none,none,,,"[""space""]",ta,1,,,,,,,,,,,,,,,3.0,2.0,Catalán,0.0,Castellano,0.0,Inglés,3.0,3.0,4.0,yes,yes,yes,Guitarra,15,Flauta,15,,,"Me ha costado bastante la verdad, creo que no he acertado ni una. Espero que se haya grabado todo bien porque no se ve si guarda cuando le das en el espacio en la prueba 2. Gracias! ",72.0,yes
143,2024-04-15_12h50.44.034,Experiment4_uns,157,24.0,feminino,right,España,Catalán,Master degree,no,no,A,2,what,L1,unsyncopated,s1,r1,7,Online_whatL1//b.ta.be26.none.none.wav,pu,lu,cho,sil,ki,ne,ro,sil2,fa,la,sil1,['-'],,,none,none,,,,ta,1,,,,,,,,,,,,,,,3.0,2.0,Catalán,0.0,Castellano,0.0,Inglés,3.0,3.0,4.0,yes,yes,yes,Guitarra,15,Flauta,15,,,"Me ha costado bastante la verdad, creo que no he acertado ni una. Espero que se haya grabado todo bien porque no se ve si guarda cuando le das en el espacio en la prueba 2. Gracias! ",72.0,yes
144,2024-04-15_12h50.44.034,Experiment4_uns,157,24.0,feminino,right,España,Catalán,Master degree,no,no,A,2,what,L1,unsyncopated,s2,r2,8,Online_whatL1//a.pu.ki14.none.none.wav,ni,ne,ze,sil2,ta,fa,ri,sil,be,ro,sil1,['-'],,,none,none,,,,ki,2,,,,,,,,,,,,,,,3.0,2.0,Catalán,0.0,Castellano,0.0,Inglés,3.0,3.0,4.0,yes,yes,yes,Guitarra,15,Flauta,15,,,"Me ha costado bastante la verdad, creo que no he acertado ni una. Espero que se haya grabado todo bien porque no se ve si guarda cuando le das en el espacio en la prueba 2. Gracias! ",72.0,yes
145,2024-04-15_12h50.44.034,Experiment4_uns,157,24.0,feminino,right,España,Catalán,Master degree,no,no,A,2,what,L1,unsyncopated,s2,r2,9,Online_whatL1//a.pu.ki15.none.none.wav,fo,ne,ro,sil2,ta,cho,lu,sil,be,ze,sil1,['-'],,,none,none,,,,ki,2,,,,,,,,,,,,,,,3.0,2.0,Catalán,0.0,Castellano,0.0,Inglés,3.0,3.0,4.0,yes,yes,yes,Guitarra,15,Flauta,15,,,"Me ha costado bastante la verdad, creo que no he acertado ni una. Espero que se haya grabado todo bien porque no se ve si guarda cuando le das en el espacio en la prueba 2. Gracias! ",72.0,yes
146,2024-04-15_12h50.44.034,Experiment4_uns,157,24.0,feminino,right,España,Catalán,Master degree,no,no,A,2,what,L1,unsyncopated,s2,r1,10,Online_whatL1//a.pu.ki12.1110.1998.wav,ni,zu,ro,sil2,pu,lu,ze,sil,ki,fa,sil1,['catch'],[2.5526999999881355],[2.5526999999881355],1.998,no_beat,0.5546999999881355,0.5546999999881355,"[""space""]",ki,2,,,,,,,,,,,,,,,3.0,2.0,Catalán,0.0,Castellano,0.0,Inglés,3.0,3.0,4.0,yes,yes,yes,Guitarra,15,Flauta,15,,,"Me ha costado bastante la verdad, creo que no he acertado ni una. Espero que se haya grabado todo bien porque no se ve si guarda cuando le das en el espacio en la prueba 2. Gracias! ",72.0,yes
147,2024-04-15_12h50.44.034,Experiment4_uns,157,24.0,feminino,right,España,Catalán,Master degree,no,no,A,2,what,L1,unsyncopated,s2,r2,11,Online_whatL1//a.pu.ki13.none.none.wav,la,fa,ri,sil,ta,cho,ni,sil1,be,fo,sil2,['-'],,,none,none,,,,ki,2,,,,,,,,,,,,,,,3.0,2.0,Catalán,0.0,Castellano,0.0,Inglés,3.0,3.0,4.0,yes,yes,yes,Guitarra,15,Flauta,15,,,"Me ha costado bastante la verdad, creo que no he acertado ni una. Espero que se haya grabado todo bien porque no se ve si guarda cuando le das en el espacio en la prueba 2. Gracias! ",72.0,yes
148,2024-04-15_12h50.44.034,Experiment4_uns,157,24.0,feminino,right,España,Catalán,Master degree,no,no,A,2,what,L1,unsyncopated,s2,r2,12,Online_whatL1//d.ne.ni3.none.none.wav,ro,lu,la,sil,ta,ri,fa,sil1,be,ze,sil2,['-'],,,none,none,,,,ne,4,,,,,,,,,,,,,,,3.0,2.0,Catalán,0.0,Castellano,0.0,Inglés,3.0,3.0,4.0,yes,yes,yes,Guitarra,15,Flauta,15,,,"Me ha costado bastante la verdad, creo que no he acertado ni una. Espero que se haya grabado todo bien porque no se ve si guarda cuando le das en el espacio en la prueba 2. Gracias! ",72.0,yes
149,2024-04-15_12h50.44.034,Experiment4_uns,157,24.0,feminino,right,España,Catalán,Master degree,no,no,A,2,what,L1,unsyncopated,s2,r1,13,Online_whatL1//d.ne.ni1.none.none.wav,ze,lu,zu,sil,pu,fa,ri,sil2,ki,la,sil1,['-'],,,none,none,,,,ne,4,,,,,,,,,,,,,,,3.0,2.0,Catalán,0.0,Castellano,0.0,Inglés,3.0,3.0,4.0,yes,yes,yes,Guitarra,15,Flauta,15,,,"Me ha costado bastante la verdad, creo que no he acertado ni una. Espero que se haya grabado todo bien porque no se ve si guarda cuando le das en el espacio en la prueba 2. Gracias! ",72.0,yes
150,2024-04-15_12h50.44.034,Experiment4_uns,157,24.0,feminino,right,España,Catalán,Master degree,no,no,A,2,what,L1,unsyncopated,s2,r1,14,Online_whatL1//d.ne.ni0.0.1332.wav,ne,zu,fo,sil2,pu,ni,cho,sil,ki,ro,sil1,['catch'],[0.6084000000357719],[0.6084000000357719],0.0,beat,0.6084000000357719,0.6084000000357719,"[""space""]",ne,4,,,,,,,,,,,,,,,3.0,2.0,Catalán,0.0,Castellano,0.0,Inglés,3.0,3.0,4.0,yes,yes,yes,Guitarra,15,Flauta,15,,,"Me ha costado bastante la verdad, creo que no he acertado ni una. Espero que se haya grabado todo bien porque no se ve si guarda cuando le das en el espacio en la prueba 2. Gracias! ",72.0,yes
151,2024-04-15_12h50.44.034,Experiment4_uns,157,24.0,feminino,right,España,Catalán,Master degree,no,no,A,2,what,L1,unsyncopated,s2,r1,15,Online_whatL1//d.ne.ni2.444.0.wav,ni,fa,ne,sil,pu,la,ze,sil2,ki,fo,sil1,['catch'],[0.9883000000120319],[0.9883000000120319],0.444,no_beat,0.5443000000120319,0.5443000000120319,"[""space""]",ne,4,,,,,,,,,,,,,,,3.0,2.0,Catalán,0.0,Castellano,0.0,Inglés,3.0,3.0,4.0,yes,yes,yes,Guitarra,15,Flauta,15,,,"Me ha costado bastante la verdad, creo que no he acertado ni una. Espero que se haya grabado todo bien porque no se ve si guarda cuando le das en el espacio en la prueba 2. Gracias! ",72.0,yes
152,2024-04-15_12h50.44.034,Experiment4_uns,157,24.0,feminino,right,España,Catalán,Master degree,no,no,A,2,what,L1,unsyncopated,s2,r1,16,Online_whatL1//c.ro.fo6.none.none.wav,la,ri,cho,sil,pu,ne,ni,sil1,ki,fa,sil2,['-'],,,none,none,,,,ro,3,,,,,,,,,,,,,,,3.0,2.0,Catalán,0.0,Castellano,0.0,Inglés,3.0,3.0,4.0,yes,yes,yes,Guitarra,15,Flauta,15,,,"Me ha costado bastante la verdad, creo que no he acertado ni una. Espero que se haya grabado todo bien porque no se ve si guarda cuando le das en el espacio en la prueba 2. Gracias! ",72.0,yes
153,2024-04-15_12h50.44.034,Experiment4_uns,157,24.0,feminino,right,España,Catalán,Master degree,no,no,A,2,what,L1,unsyncopated,s2,r2,17,Online_whatL1//c.ro.fo7.none.none.wav,ri,lu,ni,sil2,ta,la,ne,sil,be,ze,sil1,['-'],,,none,none,,,,ro,3,,,,,,,,,,,,,,,3.0,2.0,Catalán,0.0,Castellano,0.0,Inglés,3.0,3.0,4.0,yes,yes,yes,Guitarra,15,Flauta,15,,,"Me ha costado bastante la verdad, creo que no he acertado ni una. Espero que se haya grabado todo bien porque no se ve si guarda cuando le das en el espacio en la prueba 2. Gracias! ",72.0,yes
154,2024-04-15_12h50.44.034,Experiment4_uns,157,24.0,feminino,right,España,Catalán,Master degree,no,no,A,2,what,L1,unsyncopated,s1,r1,18,Online_whatL1//c.ro.fo4.none.none.wav,pu,lu,fa,sil2,ki,la,zu,sil,cho,ze,sil1,['-'],,,none,none,,,,ro,3,,,,,,,,,,,,,,,3.0,2.0,Catalán,0.0,Castellano,0.0,Inglés,3.0,3.0,4.0,yes,yes,yes,Guitarra,15,Flauta,15,,,"Me ha costado bastante la verdad, creo que no he acertado ni una. Espero que se haya grabado todo bien porque no se ve si guarda cuando le das en el espacio en la prueba 2. Gracias! ",72.0,yes
155,2024-04-15_12h50.44.034,Experiment4_uns,157,24.0,feminino,right,España,Catalán,Master degree,no,no,A,2,what,L1,unsyncopated,s1,r2,19,Online_whatL1//c.ro.fo5.none.none.wav,ta,ze,lu,sil,be,ne,zu,sil2,ri,ni,sil1,['-'],,,none,none,,,,ro,3,,,,,,,,,,,,,,,3.0,2.0,Catalán,0.0,Castellano,0.0,Inglés,3.0,3.0,4.0,yes,yes,yes,Guitarra,15,Flauta,15,,,"Me ha costado bastante la verdad, creo que no he acertado ni una. Espero que se haya grabado todo bien porque no se ve si guarda cuando le das en el espacio en la prueba 2. Gracias! ",72.0,yes
