Unnamed: 0,date,expName,participant,age,sex,hand,residence,native_lang,education_level,lang_deficit,aud_deficit,group,block,condition,language,rhythm,rule structure online,rule type online,order_trial_on,trial_online,s1,s2,s3,s4,s5,s6,s7,s8,s9,s10,s11,catch_syll_resp,rts_syll_catch,clean_rts,time_syll,beat_no_beat,catch_rtsTR,catch_rts,syllable_catch.keys,cond_syll,syll_to_catch,test_offline,block_off,condition_off,rhythm_off,rule,rule_str_off,rule_norule,conds_offline,language_off,Partz_no_partm.keys,Partz_no_partm.rt,security_1_7.keys,accuracy,security_1_7.rt,n_lang,n_lang_used,lang_1,age_l1,lang_2,age_l2,lang_3,age_l3,ability_learn_l2,tendence_mix_lan,music_experience,muisc_use,partiture,instr_1,age_M1,instr_2,age_M2,preguntas_musica1,BMRQ_answer.response,final comment,BMRQ_Score,bilingual
0,2024-04-10_18h34.12.387,Experiment4_uns,s176,27.0,feminino,right,españa,castellano,Master degree,no,no,B,1,what,L1,unsyncopated,s2,r2,0,Online_whatL1//d.ne.ni24.1332.444.wav,zu,la,ni,sil,ta,ri,ne,sil2,be,fo,sil1,['catch'],[1.3314000000003716],[1.3314000000003716],0.444,no_beat,0.8874000000003717,0.8874000000003717,"[""space""]",ni,4,testWhatL1Uns//time_viol.r2.s1.0.wav,1.0,what,unsyncopated,b,s1,no_rule,time,L1,z,2.6071,7.0,0.0,1.6904,3.0,3.0,Castellano,0.0,Catalan,6.0,Inglés,6.0,3.0,1.0,yes,no,no,flauta,6,canto,6,1. Cuando comparto música con alguien siento una complicidad especial con aquella persona.,4.0,nada :),63.0,yes
1,2024-04-10_18h34.12.387,Experiment4_uns,s176,27.0,feminino,right,españa,castellano,Master degree,no,no,B,1,what,L1,unsyncopated,s2,r1,1,Online_whatL1//d.ne.ni26.0.444.wav,ne,lu,ni,sil,pu,ze,fa,sil1,ki,ro,sil2,['catch'],[1.158900000000358],[1.158900000000358],0.444,no_beat,0.714900000000358,0.714900000000358,"[""space""]",ni,4,testWhatL1Uns//dep_viol.r2.s2.0.wav,1.0,what,unsyncopated,b,s2,no_rule,dep,L1,m,1.1522,4.0,1.0,1.119,3.0,3.0,Castellano,0.0,Catalan,6.0,Inglés,6.0,3.0,1.0,yes,no,no,flauta,6,canto,6,2. En mi tiempo libre apenas escucho música.,5.0,nada :),63.0,yes
2,2024-04-10_18h34.12.387,Experiment4_uns,s176,27.0,feminino,right,españa,castellano,Master degree,no,no,B,1,what,L1,unsyncopated,s1,r2,2,Online_whatL1//d.ne.ni27.none.none.wav,ta,ri,fa,sil2,be,cho,ro,sil,lu,la,sil1,['-'],,,none,none,,,,ni,4,testWhatL1Uns//r1.s1.2.wav,1.0,what,unsyncopated,a,s1,rule,rule,L1,z,0.7518,6.0,1.0,1.3397,3.0,3.0,Castellano,0.0,Catalan,6.0,Inglés,6.0,3.0,1.0,yes,no,no,flauta,6,canto,6,3. Algunas canciones me ponen los pelos de punta,4.0,nada :),63.0,yes
3,2024-04-10_18h34.12.387,Experiment4_uns,s176,27.0,feminino,right,españa,castellano,Master degree,no,no,B,1,what,L1,unsyncopated,s1,r2,3,Online_whatL1//d.ne.ni25.1332.222.wav,ta,ni,ri,sil2,be,ne,cho,sil,lu,zu,sil1,['catch'],[0.9799000000003844],[0.9799000000003844],0.222,no_beat,0.7579000000003844,0.7579000000003844,"[""space""]",ni,4,testWhatL1Uns//r1.s2.0.wav,1.0,what,unsyncopated,a,s2,rule,rule,L1,z,0.5697,7.0,1.0,1.1544,3.0,3.0,Castellano,0.0,Catalan,6.0,Inglés,6.0,3.0,1.0,yes,no,no,flauta,6,canto,6,4. La música me hace compañía cuando estoy solo,4.0,nada :),63.0,yes
4,2024-04-10_18h34.12.387,Experiment4_uns,s176,27.0,feminino,right,españa,castellano,Master degree,no,no,B,1,what,L1,unsyncopated,s1,r1,4,Online_whatL1//c.ro.fo28.222.1332.wav,pu,ro,ni,sil2,ki,fo,cho,sil,zu,lu,sil1,['catch'],[1.7831999999992831],[1.7831999999992831],1.332,no_beat,0.451199999999283,0.451199999999283,"[""space""]",fo,3,testWhatL1Uns//time_viol.r1.s2.0.wav,1.0,what,unsyncopated,a,s2,no_rule,time,L1,m,2.6023,7.0,1.0,1.1018,3.0,3.0,Castellano,0.0,Catalan,6.0,Inglés,6.0,3.0,1.0,yes,no,no,flauta,6,canto,6,5. No me apetece bailar ni con la música que más me gusta,4.0,nada :),63.0,yes
5,2024-04-10_18h34.12.387,Experiment4_uns,s176,27.0,feminino,right,españa,castellano,Master degree,no,no,B,1,what,L1,unsyncopated,s2,r2,5,Online_whatL1//c.ro.fo30.none.none.wav,ri,cho,ze,sil,ta,lu,zu,sil2,be,la,sil1,['-'],,,none,none,,,,fo,3,testWhatL1Uns//cat_viol.r2.s1.0.wav,1.0,what,unsyncopated,b,s1,no_rule,cat,L1,z,0.6666,7.0,0.0,0.8668,3.0,3.0,Castellano,0.0,Catalan,6.0,Inglés,6.0,3.0,1.0,yes,no,no,flauta,6,canto,6,6. La música me hace conectar con la gente,3.0,nada :),63.0,yes
6,2024-04-10_18h34.12.387,Experiment4_uns,s176,27.0,feminino,right,españa,castellano,Master degree,no,no,B,1,what,L1,unsyncopated,s2,r2,6,Online_whatL1//c.ro.fo31.none.none.wav,ze,zu,ne,sil,ta,la,ri,sil1,be,cho,sil2,['false alarm'],[2.0934000000003152],[2.0934000000003152],none,none,,,"[""space""]",fo,3,testWhatL1Uns//r1.s2.2.wav,1.0,what,unsyncopated,a,s2,rule,rule,L1,z,0.7852,7.0,1.0,1.0703,3.0,3.0,Castellano,0.0,Catalan,6.0,Inglés,6.0,3.0,1.0,yes,no,no,flauta,6,canto,6,7. Me informo sobre la música que me gusta.,2.0,nada :),63.0,yes
7,2024-04-10_18h34.12.387,Experiment4_uns,s176,27.0,feminino,right,españa,castellano,Master degree,no,no,B,1,what,L1,unsyncopated,s2,r1,7,Online_whatL1//c.ro.fo29.1332.222.wav,lu,fo,ni,sil2,pu,ro,la,sil,ki,ze,sil1,['miss'],,,0.222,no_beat,,,,fo,3,testWhatL1Uns//r2.s1.0.wav,1.0,what,unsyncopated,b,s1,rule,rule,L1,z,0.6717,5.0,1.0,0.8854,3.0,3.0,Castellano,0.0,Catalan,6.0,Inglés,6.0,3.0,1.0,yes,no,no,flauta,6,canto,6,8.Me emociono escuchando ciertas canciones.,4.0,nada :),63.0,yes
8,2024-04-10_18h34.12.387,Experiment4_uns,s176,27.0,feminino,right,españa,castellano,Master degree,no,no,B,1,what,L1,unsyncopated,s1,r2,8,Online_whatL1//b.ta.be20.0.888.wav,ta,ro,ne,sil,be,la,cho,sil1,lu,ri,sil2,['miss'],,,0.888,beat,,,,be,2,testWhatL1Uns//cat_viol.r1.s2.0.wav,1.0,what,unsyncopated,a,s2,no_rule,cat,L1,m,1.3874,3.0,1.0,1.0861,3.0,3.0,Castellano,0.0,Catalan,6.0,Inglés,6.0,3.0,1.0,yes,no,no,flauta,6,canto,6,9.La música me tranquiliza y me relaja.,4.0,nada :),63.0,yes
9,2024-04-10_18h34.12.387,Experiment4_uns,s176,27.0,feminino,right,españa,castellano,Master degree,no,no,B,1,what,L1,unsyncopated,s1,r2,9,Online_whatL1//b.ta.be22.0.888.wav,ta,ze,lu,sil,be,fo,la,sil2,cho,zu,sil1,['miss'],,,0.888,beat,,,,be,2,testWhatL1Uns//time_viol.r1.s1.0.wav,1.0,what,unsyncopated,a,s1,no_rule,time,L1,m,0.6701,2.0,1.0,0.852,3.0,3.0,Castellano,0.0,Catalan,6.0,Inglés,6.0,3.0,1.0,yes,no,no,flauta,6,canto,6,10.La música me hace bailar,3.0,nada :),63.0,yes
10,2024-04-10_18h34.12.387,Experiment4_uns,s176,27.0,feminino,right,españa,castellano,Master degree,no,no,B,1,what,L1,unsyncopated,s1,r1,10,Online_whatL1//b.ta.be23.none.none.wav,pu,zu,ri,sil,ki,ni,fa,sil1,lu,cho,sil2,['false alarm'],[1.3957000000011703],[1.3957000000011703],none,none,,,"[""space""]",be,2,testWhatL1Uns//r1.s2.1.wav,1.0,what,unsyncopated,a,s2,rule,rule,L1,z,1.6524,4.0,1.0,1.2331,3.0,3.0,Castellano,0.0,Catalan,6.0,Inglés,6.0,3.0,1.0,yes,no,no,flauta,6,canto,6,11.Busco novedades musicales continuamente,2.0,nada :),63.0,yes
11,2024-04-10_18h34.12.387,Experiment4_uns,s176,27.0,feminino,right,españa,castellano,Master degree,no,no,B,1,what,L1,unsyncopated,s2,r2,11,Online_whatL1//b.ta.be21.1110.1998.wav,fa,ri,zu,sil2,ta,lu,ne,sil,be,la,sil1,['miss'],,,1.998,no_beat,,,,be,2,testWhatL1Uns//r2.s1.2.wav,1.0,what,unsyncopated,b,s1,rule,rule,L1,z,0.9541,4.0,1.0,1.5522,3.0,3.0,Castellano,0.0,Catalan,6.0,Inglés,6.0,3.0,1.0,yes,no,no,flauta,6,canto,6,12. Puedo llorar cuando escucho algunas melodías que me gustan mucho.,4.0,nada :),63.0,yes
12,2024-04-10_18h34.12.387,Experiment4_uns,s176,27.0,feminino,right,españa,castellano,Master degree,no,no,B,1,what,L1,unsyncopated,s2,r2,12,Online_whatL1//c.ro.fo12.1332.222.wav,ri,fo,zu,sil,ta,fa,ro,sil2,be,ni,sil1,['catch'],[0.2834000000003698],[0.2834000000003698],0.222,no_beat,0.0614000000003698,0.0614000000003698,"[""space""]",fo,3,testWhatL1Uns//dep_viol.r2.s1.0.wav,1.0,what,unsyncopated,b,s1,no_rule,dep,L1,z,0.4519,5.0,0.0,0.771,3.0,3.0,Castellano,0.0,Catalan,6.0,Inglés,6.0,3.0,1.0,yes,no,no,flauta,6,canto,6,13. Me gusta cantar o tocar un instrumento con más gente,1.0,nada :),63.0,yes
13,2024-04-10_18h34.12.387,Experiment4_uns,s176,27.0,feminino,right,españa,castellano,Master degree,no,no,B,1,what,L1,unsyncopated,s2,r1,13,Online_whatL1//c.ro.fo13.1332.444.wav,ni,fa,fo,sil,pu,la,ro,sil1,ki,cho,sil2,['catch'],[1.1260999999996102],[1.1260999999996102],0.444,no_beat,0.6820999999996102,0.6820999999996102,"[""space""]",fo,3,testWhatL1Uns//dep_viol.r1.s1.0.wav,1.0,what,unsyncopated,a,s1,no_rule,dep,L1,z,1.4556,7.0,0.0,0.8879,3.0,3.0,Castellano,0.0,Catalan,6.0,Inglés,6.0,3.0,1.0,yes,no,no,flauta,6,canto,6,14. La música me ayuda a desconectar.,4.0,nada :),63.0,yes
14,2024-04-10_18h34.12.387,Experiment4_uns,s176,27.0,feminino,right,españa,castellano,Master degree,no,no,B,1,what,L1,unsyncopated,s1,r2,14,Online_whatL1//c.ro.fo14.1332.222.wav,ta,fo,cho,sil,be,fa,ro,sil1,lu,ni,sil2,['catch'],[1.0330000000000155],[1.0330000000000155],0.222,no_beat,0.8110000000000155,0.8110000000000155,"[""space""]",fo,3,testWhatL1Uns//r2.s2.0.wav,1.0,what,unsyncopated,b,s2,rule,rule,L1,z,1.1836,4.0,1.0,0.6188,3.0,3.0,Castellano,0.0,Catalan,6.0,Inglés,6.0,3.0,1.0,yes,no,no,flauta,6,canto,6,15. No puedo evitar tararear las canciones que me gustan cuando las escucho.,3.0,nada :),63.0,yes
15,2024-04-10_18h34.12.387,Experiment4_uns,s176,27.0,feminino,right,españa,castellano,Master degree,no,no,B,1,what,L1,unsyncopated,s1,r2,15,Online_whatL1//c.ro.fo15.none.none.wav,ta,ri,lu,sil,be,ze,zu,sil1,cho,ni,sil2,['-'],,,none,none,,,,fo,3,testWhatL1Uns//r2.s2.1.wav,1.0,what,unsyncopated,b,s2,rule,rule,L1,m,0.8899,3.0,0.0,0.6894,3.0,3.0,Castellano,0.0,Catalan,6.0,Inglés,6.0,3.0,1.0,yes,no,no,flauta,6,canto,6,16. En los conciertos me siento en sintonía con los artistas y el público.,2.0,nada :),63.0,yes
16,2024-04-10_18h34.12.387,Experiment4_uns,s176,27.0,feminino,right,españa,castellano,Master degree,no,no,B,1,what,L1,unsyncopated,s1,r1,16,Online_whatL1//c.ro.fo11.none.none.wav,pu,la,fa,sil2,ki,ri,zu,sil,ni,ne,sil1,['-'],,,none,none,,,,fo,3,testWhatL1Uns//dep_viol.r1.s2.0.wav,1.0,what,unsyncopated,a,s2,no_rule,dep,L1,z,0.5326,7.0,0.0,0.5366,3.0,3.0,Castellano,0.0,Catalan,6.0,Inglés,6.0,3.0,1.0,yes,no,no,flauta,6,canto,6,17. Me gasto bastante dinero en música y cosas relacionadas con la música.,1.0,nada :),63.0,yes
17,2024-04-10_18h34.12.387,Experiment4_uns,s176,27.0,feminino,right,españa,castellano,Master degree,no,no,B,1,what,L1,unsyncopated,s1,r2,17,Online_whatL1//c.ro.fo8.222.444.wav,ta,ro,fo,sil,be,ri,fa,sil2,cho,lu,sil1,['catch'],[1.107400000000439],[1.107400000000439],0.444,no_beat,0.663400000000439,0.663400000000439,"[""space""]",fo,3,testWhatL1Uns//r1.s1.0.wav,1.0,what,unsyncopated,a,s1,rule,rule,L1,z,1.3484,5.0,1.0,0.5246,3.0,3.0,Castellano,0.0,Catalan,6.0,Inglés,6.0,3.0,1.0,yes,no,no,flauta,6,canto,6,18. Siento escalofríos cuando escucho una melodía que me gusta.,3.0,nada :),63.0,yes
18,2024-04-10_18h34.12.387,Experiment4_uns,s176,27.0,feminino,right,españa,castellano,Master degree,no,no,B,1,what,L1,unsyncopated,s2,r2,18,Online_whatL1//c.ro.fo9.0.1110.wav,ro,lu,zu,sil,ta,fo,cho,sil2,be,ze,sil1,['catch'],[2.3999000000003434],[2.3999000000003434],1.11,no_beat,,1.289900000000343,"[""space""]",fo,3,testWhatL1Uns//r1.s1.1.wav,1.0,what,unsyncopated,a,s1,rule,rule,L1,m,1.487,7.0,0.0,0.6545,3.0,3.0,Castellano,0.0,Catalan,6.0,Inglés,6.0,3.0,1.0,yes,no,no,flauta,6,canto,6,19. Con la música me puedo desahogar.,3.0,nada :),63.0,yes
19,2024-04-10_18h34.12.387,Experiment4_uns,s176,27.0,feminino,right,españa,castellano,Master degree,no,no,B,1,what,L1,unsyncopated,s1,r1,19,Online_whatL1//c.ro.fo10.1332.444.wav,pu,fa,fo,sil,ki,ne,ro,sil1,ni,cho,sil2,['miss'],,,0.444,no_beat,,,,fo,3,testWhatL1Uns//r2.s1.1.wav,1.0,what,unsyncopated,b,s1,rule,rule,L1,m,2.2564,5.0,0.0,1.5205,3.0,3.0,Castellano,0.0,Catalan,6.0,Inglés,6.0,3.0,1.0,yes,no,no,flauta,6,canto,6,20. Cuando escucho una melodía que me gusta mucho no puedo evitar mover el cuerpo.,3.0,nada :),63.0,yes
20,2024-04-10_18h34.12.387,Experiment4_uns,s176,27.0,feminino,right,españa,castellano,Master degree,no,no,B,1,what,L1,unsyncopated,s2,r2,20,Online_whatL1//d.ne.ni7.none.none.wav,ze,lu,fa,sil,ta,cho,ri,sil1,be,ro,sil2,['-'],,,none,none,,,,ni,4,testWhatL1Uns//r2.s2.2.wav,1.0,what,unsyncopated,b,s2,rule,rule,L1,m,1.7648,4.0,0.0,0.9023,3.0,3.0,Castellano,0.0,Catalan,6.0,Inglés,6.0,3.0,1.0,yes,no,no,flauta,6,canto,6,,,nada :),63.0,yes
21,2024-04-10_18h34.12.387,Experiment4_uns,s176,27.0,feminino,right,españa,castellano,Master degree,no,no,B,1,what,L1,unsyncopated,s1,r2,21,Online_whatL1//d.ne.ni4.none.none.wav,ta,cho,lu,sil,be,fa,zu,sil1,ro,ze,sil2,['-'],,,none,none,,,,ni,4,testWhatL1Uns//cat_viol.r2.s2.0.wav,1.0,what,unsyncopated,b,s2,no_rule,cat,L1,z,0.9204,7.0,0.0,0.4035,3.0,3.0,Castellano,0.0,Catalan,6.0,Inglés,6.0,3.0,1.0,yes,no,no,flauta,6,canto,6,,,nada :),63.0,yes
22,2024-04-10_18h34.12.387,Experiment4_uns,s176,27.0,feminino,right,españa,castellano,Master degree,no,no,B,1,what,L1,unsyncopated,s1,r1,22,Online_whatL1//d.ne.ni5.none.none.wav,pu,cho,fo,sil,ki,zu,ro,sil2,fa,la,sil1,['-'],,,none,none,,,,ni,4,testWhatL1Uns//cat_viol.r1.s1.0.wav,1.0,what,unsyncopated,a,s1,no_rule,cat,L1,m,0.7169,5.0,1.0,0.7717,3.0,3.0,Castellano,0.0,Catalan,6.0,Inglés,6.0,3.0,1.0,yes,no,no,flauta,6,canto,6,,,nada :),63.0,yes
23,2024-04-10_18h34.12.387,Experiment4_uns,s176,27.0,feminino,right,españa,castellano,Master degree,no,no,B,1,what,L1,unsyncopated,s2,r2,23,Online_whatL1//d.ne.ni6.none.none.wav,fa,fo,ri,sil,ta,lu,zu,sil1,be,ro,sil2,['-'],,,none,none,,,,ni,4,testWhatL1Uns//time_viol.r2.s2.0.wav,1.0,what,unsyncopated,b,s2,no_rule,time,L1,m,0.6717,7.0,1.0,0.7183,3.0,3.0,Castellano,0.0,Catalan,6.0,Inglés,6.0,3.0,1.0,yes,no,no,flauta,6,canto,6,,,nada :),63.0,yes
24,2024-04-10_18h34.12.387,Experiment4_uns,s176,27.0,feminino,right,españa,castellano,Master degree,no,no,B,1,what,L1,unsyncopated,s2,r1,24,Online_whatL1//a.pu.ki6.888.1776.wav,fa,lu,ro,sil,pu,ni,ze,sil1,ki,ri,sil2,['catch'],[1.7585000000000264],[1.7585000000000264],0.888,beat,0.8705000000000264,0.8705000000000264,"[""space""]",pu,1,testWhenL2Uns//r1.s2.2.wav,2.0,when,unsyncopated,a,s2,rule,rule,L2,z,0.9351,7.0,1.0,0.4035,3.0,3.0,Castellano,0.0,Catalan,6.0,Inglés,6.0,3.0,1.0,yes,no,no,flauta,6,canto,6,,,nada :),63.0,yes
25,2024-04-10_18h34.12.387,Experiment4_uns,s176,27.0,feminino,right,españa,castellano,Master degree,no,no,B,1,what,L1,unsyncopated,s2,r1,25,Online_whatL1//a.pu.ki4.888.1776.wav,cho,zu,fa,sil,pu,lu,fo,sil1,ki,ze,sil2,['catch'],[2.0808000000007496],[2.0808000000007496],0.888,beat,1.1928000000007497,1.1928000000007497,"[""space""]",pu,1,testWhenL2Uns//cat_viol.r2.s1.0.wav,2.0,when,unsyncopated,b,s1,no_rule,cat,L2,z,0.7553,7.0,1.0,0.383,3.0,3.0,Castellano,0.0,Catalan,6.0,Inglés,6.0,3.0,1.0,yes,no,no,flauta,6,canto,6,,,nada :),63.0,yes
26,2024-04-10_18h34.12.387,Experiment4_uns,s176,27.0,feminino,right,españa,castellano,Master degree,no,no,B,1,what,L1,unsyncopated,s2,r2,26,Online_whatL1//a.pu.ki5.none.none.wav,cho,ri,ne,sil2,ta,ro,ni,sil,be,lu,sil1,['-'],,,none,none,,,,pu,1,testWhenL2Uns//r1.s2.1.wav,2.0,when,unsyncopated,a,s2,rule,rule,L2,z,0.5852,7.0,1.0,0.4685,3.0,3.0,Castellano,0.0,Catalan,6.0,Inglés,6.0,3.0,1.0,yes,no,no,flauta,6,canto,6,,,nada :),63.0,yes
27,2024-04-10_18h34.12.387,Experiment4_uns,s176,27.0,feminino,right,españa,castellano,Master degree,no,no,B,1,what,L1,unsyncopated,s2,r2,27,Online_whatL1//a.pu.ki7.none.none.wav,zu,ne,ri,sil,ta,ro,ze,sil1,be,fo,sil2,['-'],,,none,none,,,,pu,1,testWhenL2Uns//r2.s1.1.wav,2.0,when,unsyncopated,b,s1,rule,rule,L2,z,1.0403,4.0,1.0,0.5742,3.0,3.0,Castellano,0.0,Catalan,6.0,Inglés,6.0,3.0,1.0,yes,no,no,flauta,6,canto,6,,,nada :),63.0,yes
28,2024-04-10_18h34.12.387,Experiment4_uns,s176,27.0,feminino,right,españa,castellano,Master degree,no,no,B,1,what,L1,unsyncopated,s2,r1,28,Online_whatL1//a.pu.ki19.1110.1998.wav,ne,ze,la,sil2,pu,fo,zu,sil,ki,cho,sil1,['catch'],[1.867300000000796],[1.867300000000796],1.11,no_beat,0.7573000000007959,0.7573000000007959,"[""space""]",pu,1,testWhenL2Uns//time_viol.r1.s1.0.wav,2.0,when,unsyncopated,a,s1,no_rule,time,L2,m,0.8879,4.0,0.0,0.6685,3.0,3.0,Castellano,0.0,Catalan,6.0,Inglés,6.0,3.0,1.0,yes,no,no,flauta,6,canto,6,,,nada :),63.0,yes
29,2024-04-10_18h34.12.387,Experiment4_uns,s176,27.0,feminino,right,españa,castellano,Master degree,no,no,B,1,what,L1,unsyncopated,s2,r2,29,Online_whatL1//a.pu.ki18.none.none.wav,zu,ne,cho,sil,ta,fo,ri,sil1,be,fa,sil2,['-'],,,none,none,,,,pu,1,testWhenL2Uns//dep_viol.r1.s2.0.wav,2.0,when,unsyncopated,a,s2,no_rule,dep,L2,z,0.6037,7.0,1.0,0.4003,3.0,3.0,Castellano,0.0,Catalan,6.0,Inglés,6.0,3.0,1.0,yes,no,no,flauta,6,canto,6,,,nada :),63.0,yes
30,2024-04-10_18h34.12.387,Experiment4_uns,s176,27.0,feminino,right,españa,castellano,Master degree,no,no,B,1,what,L1,unsyncopated,s1,r1,30,Online_whatL1//a.pu.ki17.0.1110.wav,pu,ro,ni,sil2,ki,zu,la,sil,cho,ri,sil1,['catch'],[0.7815999999995711],[0.7815999999995711],0.0,beat,0.7815999999995711,0.7815999999995711,"[""space""]",pu,1,testWhenL2Uns//r1.s1.2.wav,2.0,when,unsyncopated,a,s1,rule,rule,L2,m,1.1022,3.0,0.0,0.6528,3.0,3.0,Castellano,0.0,Catalan,6.0,Inglés,6.0,3.0,1.0,yes,no,no,flauta,6,canto,6,,,nada :),63.0,yes
31,2024-04-10_18h34.12.387,Experiment4_uns,s176,27.0,feminino,right,españa,castellano,Master degree,no,no,B,1,what,L1,unsyncopated,s1,r1,31,Online_whatL1//a.pu.ki16.0.888.wav,pu,cho,ze,sil,ki,ri,ni,sil1,lu,fa,sil2,['catch'],[0.8310999999996511],[0.8310999999996511],0.0,beat,0.8310999999996511,0.8310999999996511,"[""space""]",pu,1,testWhenL2Uns//time_viol.r2.s2.0.wav,2.0,when,unsyncopated,b,s2,no_rule,time,L2,z,0.4506,7.0,1.0,0.6683,3.0,3.0,Castellano,0.0,Catalan,6.0,Inglés,6.0,3.0,1.0,yes,no,no,flauta,6,canto,6,,,nada :),63.0,yes
32,2024-04-10_18h34.12.387,Experiment4_uns,s176,27.0,feminino,right,españa,castellano,Master degree,no,no,B,1,what,L1,unsyncopated,s2,r1,32,Online_whatL1//b.ta.be29.none.none.wav,fa,ro,ni,sil,pu,ne,ri,sil1,ki,ze,sil2,['-'],,,none,none,,,,be,2,testWhenL2Uns//time_viol.r1.s2.0.wav,2.0,when,unsyncopated,a,s2,no_rule,time,L2,z,0.4176,7.0,1.0,0.4012,3.0,3.0,Castellano,0.0,Catalan,6.0,Inglés,6.0,3.0,1.0,yes,no,no,flauta,6,canto,6,,,nada :),63.0,yes
33,2024-04-10_18h34.12.387,Experiment4_uns,s176,27.0,feminino,right,españa,castellano,Master degree,no,no,B,1,what,L1,unsyncopated,s2,r1,33,Online_whatL1//b.ta.be28.none.none.wav,zu,fo,ni,sil,pu,ri,lu,sil1,ki,ne,sil2,['-'],,,none,none,,,,be,2,testWhenL2Uns//r2.s1.0.wav,2.0,when,unsyncopated,b,s1,rule,rule,L2,z,1.2319,5.0,1.0,0.305,3.0,3.0,Castellano,0.0,Catalan,6.0,Inglés,6.0,3.0,1.0,yes,no,no,flauta,6,canto,6,,,nada :),63.0,yes
34,2024-04-10_18h34.12.387,Experiment4_uns,s176,27.0,feminino,right,españa,castellano,Master degree,no,no,B,1,what,L1,unsyncopated,s2,r2,34,Online_whatL1//b.ta.be30.1110.1998.wav,ze,lu,fa,sil2,ta,ro,ni,sil,be,la,sil1,['miss'],,,1.998,no_beat,,,,be,2,testWhenL2Uns//cat_viol.r2.s2.0.wav,2.0,when,unsyncopated,b,s2,no_rule,cat,L2,z,0.4383,7.0,1.0,0.5348,3.0,3.0,Castellano,0.0,Catalan,6.0,Inglés,6.0,3.0,1.0,yes,no,no,flauta,6,canto,6,,,nada :),63.0,yes
35,2024-04-10_18h34.12.387,Experiment4_uns,s176,27.0,feminino,right,españa,castellano,Master degree,no,no,B,1,what,L1,unsyncopated,s2,r2,35,Online_whatL1//b.ta.be31.1110.1998.wav,fo,ze,ri,sil2,ta,ne,zu,sil,be,lu,sil1,['miss'],,,1.998,no_beat,,,,be,2,testWhenL2Uns//time_viol.r2.s1.0.wav,2.0,when,unsyncopated,b,s1,no_rule,time,L2,z,1.1581,5.0,1.0,0.53,3.0,3.0,Castellano,0.0,Catalan,6.0,Inglés,6.0,3.0,1.0,yes,no,no,flauta,6,canto,6,,,nada :),63.0,yes
36,2024-04-10_18h34.12.387,Experiment4_uns,s176,27.0,feminino,right,españa,castellano,Master degree,no,no,B,1,what,L1,unsyncopated,s2,r2,36,Online_whatL1//d.ne.ni3.none.none.wav,ro,lu,la,sil,ta,ri,fa,sil1,be,ze,sil2,['-'],,,none,none,,,,ni,4,testWhenL2Uns//r2.s1.2.wav,2.0,when,unsyncopated,b,s1,rule,rule,L2,z,0.6353,7.0,1.0,0.3712,3.0,3.0,Castellano,0.0,Catalan,6.0,Inglés,6.0,3.0,1.0,yes,no,no,flauta,6,canto,6,,,nada :),63.0,yes
37,2024-04-10_18h34.12.387,Experiment4_uns,s176,27.0,feminino,right,españa,castellano,Master degree,no,no,B,1,what,L1,unsyncopated,s2,r1,37,Online_whatL1//d.ne.ni0.0.1332.wav,ne,zu,fo,sil2,pu,ni,cho,sil,ki,ro,sil1,['catch'],[2.4284000000004653],[2.4284000000004653],1.332,no_beat,1.0964000000004652,1.0964000000004652,"[""space""]",ni,4,testWhenL2Uns//dep_viol.r2.s1.0.wav,2.0,when,unsyncopated,b,s1,no_rule,dep,L2,m,1.2674,3.0,0.0,0.534,3.0,3.0,Castellano,0.0,Catalan,6.0,Inglés,6.0,3.0,1.0,yes,no,no,flauta,6,canto,6,,,nada :),63.0,yes
38,2024-04-10_18h34.12.387,Experiment4_uns,s176,27.0,feminino,right,españa,castellano,Master degree,no,no,B,1,what,L1,unsyncopated,s2,r1,38,Online_whatL1//d.ne.ni2.444.0.wav,ni,fa,ne,sil,pu,la,ze,sil2,ki,fo,sil1,['miss'],,,0.0,beat,,,,ni,4,testWhenL2Uns//r2.s2.1.wav,2.0,when,unsyncopated,b,s2,rule,rule,L2,m,0.3853,3.0,0.0,0.5721,3.0,3.0,Castellano,0.0,Catalan,6.0,Inglés,6.0,3.0,1.0,yes,no,no,flauta,6,canto,6,,,nada :),63.0,yes
39,2024-04-10_18h34.12.387,Experiment4_uns,s176,27.0,feminino,right,españa,castellano,Master degree,no,no,B,1,what,L1,unsyncopated,s2,r1,39,Online_whatL1//d.ne.ni1.none.none.wav,ze,lu,zu,sil,pu,fa,ri,sil2,ki,la,sil1,['-'],,,none,none,,,,ni,4,testWhenL2Uns//cat_viol.r1.s1.0.wav,2.0,when,unsyncopated,a,s1,no_rule,cat,L2,z,0.6404,7.0,1.0,0.2899,3.0,3.0,Castellano,0.0,Catalan,6.0,Inglés,6.0,3.0,1.0,yes,no,no,flauta,6,canto,6,,,nada :),63.0,yes
40,2024-04-10_18h34.12.387,Experiment4_uns,s176,27.0,feminino,right,españa,castellano,Master degree,no,no,B,1,what,L1,unsyncopated,s1,r1,40,Online_whatL1//d.ne.ni18.none.none.wav,pu,ro,fo,sil,ki,ze,zu,sil2,cho,fa,sil1,['-'],,,none,none,,,,ni,4,testWhenL2Uns//dep_viol.r2.s2.0.wav,2.0,when,unsyncopated,b,s2,no_rule,dep,L2,m,0.848,7.0,0.0,1.0371,3.0,3.0,Castellano,0.0,Catalan,6.0,Inglés,6.0,3.0,1.0,yes,no,no,flauta,6,canto,6,,,nada :),63.0,yes
41,2024-04-10_18h34.12.387,Experiment4_uns,s176,27.0,feminino,right,españa,castellano,Master degree,no,no,B,1,what,L1,unsyncopated,s2,r1,41,Online_whatL1//d.ne.ni16.0.444.wav,ne,la,ni,sil,pu,ri,zu,sil1,ki,fa,sil2,['catch'],[1.2490000000000236],[1.2490000000000236],0.444,no_beat,0.8050000000000237,0.8050000000000237,"[""space""]",ni,4,testWhenL2Uns//cat_viol.r1.s2.0.wav,2.0,when,unsyncopated,a,s2,no_rule,cat,L2,z,0.5396,7.0,1.0,0.2346,3.0,3.0,Castellano,0.0,Catalan,6.0,Inglés,6.0,3.0,1.0,yes,no,no,flauta,6,canto,6,,,nada :),63.0,yes
42,2024-04-10_18h34.12.387,Experiment4_uns,s176,27.0,feminino,right,españa,castellano,Master degree,no,no,B,1,what,L1,unsyncopated,s2,r2,42,Online_whatL1//d.ne.ni19.1554.444.wav,la,fa,ni,sil2,ta,cho,ne,sil,be,ri,sil1,['miss'],,,0.444,no_beat,,,,ni,4,testWhenL2Uns//r1.s1.1.wav,2.0,when,unsyncopated,a,s1,rule,rule,L2,m,1.4999,6.0,0.0,0.7547,3.0,3.0,Castellano,0.0,Catalan,6.0,Inglés,6.0,3.0,1.0,yes,no,no,flauta,6,canto,6,,,nada :),63.0,yes
43,2024-04-10_18h34.12.387,Experiment4_uns,s176,27.0,feminino,right,españa,castellano,Master degree,no,no,B,1,what,L1,unsyncopated,s1,r2,43,Online_whatL1//d.ne.ni17.222.1332.wav,ta,ne,fo,sil,be,ri,ni,sil2,lu,fa,sil1,['catch'],[2.3975999999995565],[2.3975999999995565],1.332,no_beat,1.0655999999995565,1.0655999999995565,"[""space""]",ni,4,testWhenL2Uns//r2.s2.2.wav,2.0,when,unsyncopated,b,s2,rule,rule,L2,m,1.9187,2.0,0.0,0.89,3.0,3.0,Castellano,0.0,Catalan,6.0,Inglés,6.0,3.0,1.0,yes,no,no,flauta,6,canto,6,,,nada :),63.0,yes
44,2024-04-10_18h34.12.387,Experiment4_uns,s176,27.0,feminino,right,españa,castellano,Master degree,no,no,B,1,what,L1,unsyncopated,s1,r2,44,Online_whatL1//c.ro.fo26.1332.1554.wav,ta,fa,ri,sil2,be,ro,fo,sil,ze,zu,sil1,['catch'],[2.3333999999985053],[2.3333999999985053],1.554,no_beat,0.7793999999985053,0.7793999999985053,"[""space""]",fo,3,testWhenL2Uns//r2.s2.0.wav,2.0,when,unsyncopated,b,s2,rule,rule,L2,z,1.0061,5.0,1.0,0.606,3.0,3.0,Castellano,0.0,Catalan,6.0,Inglés,6.0,3.0,1.0,yes,no,no,flauta,6,canto,6,,,nada :),63.0,yes
45,2024-04-10_18h34.12.387,Experiment4_uns,s176,27.0,feminino,right,españa,castellano,Master degree,no,no,B,1,what,L1,unsyncopated,s1,r1,45,Online_whatL1//c.ro.fo24.none.none.wav,pu,la,ri,sil,ki,fa,ne,sil1,ni,lu,sil2,['-'],,,none,none,,,,fo,3,testWhenL2Uns//dep_viol.r1.s1.0.wav,2.0,when,unsyncopated,a,s1,no_rule,dep,L2,m,1.1499,7.0,0.0,0.6816,3.0,3.0,Castellano,0.0,Catalan,6.0,Inglés,6.0,3.0,1.0,yes,no,no,flauta,6,canto,6,,,nada :),63.0,yes
46,2024-04-10_18h34.12.387,Experiment4_uns,s176,27.0,feminino,right,españa,castellano,Master degree,no,no,B,1,what,L1,unsyncopated,s1,r2,46,Online_whatL1//c.ro.fo25.222.1110.wav,ta,ro,lu,sil,be,fo,ri,sil2,ni,zu,sil1,['catch'],[1.8810999999996056],[1.8810999999996056],1.11,no_beat,0.7710999999996055,0.7710999999996055,"[""space""]",fo,3,testWhenL2Uns//r1.s1.0.wav,2.0,when,unsyncopated,a,s1,rule,rule,L2,m,1.5859,2.0,0.0,0.5162,3.0,3.0,Castellano,0.0,Catalan,6.0,Inglés,6.0,3.0,1.0,yes,no,no,flauta,6,canto,6,,,nada :),63.0,yes
47,2024-04-10_18h34.12.387,Experiment4_uns,s176,27.0,feminino,right,españa,castellano,Master degree,no,no,B,1,what,L1,unsyncopated,s1,r1,47,Online_whatL1//c.ro.fo27.none.none.wav,pu,lu,ze,sil,ki,ne,fa,sil2,cho,zu,sil1,['-'],,,none,none,,,,fo,3,testWhenL2Uns//r1.s2.0.wav,2.0,when,unsyncopated,a,s2,rule,rule,L2,z,0.6685,7.0,1.0,0.4565,3.0,3.0,Castellano,0.0,Catalan,6.0,Inglés,6.0,3.0,1.0,yes,no,no,flauta,6,canto,6,,,nada :),63.0,yes
48,2024-04-10_18h34.12.387,Experiment4_uns,s176,27.0,feminino,right,españa,castellano,Master degree,no,no,B,1,what,L1,unsyncopated,s1,r2,48,Online_whatL1//a.pu.ki11.none.none.wav,ta,lu,ri,sil,be,la,fa,sil1,ne,ze,sil2,['-'],,,none,none,,,,pu,1,testConjL3Syn//time_viol.r2.s2.0.wav,3.0,conjunction_syn,syncopated,b,s2,no_rule,time,L3,z,0.5879,7.0,0.0,0.289,3.0,3.0,Castellano,0.0,Catalan,6.0,Inglés,6.0,3.0,1.0,yes,no,no,flauta,6,canto,6,,,nada :),63.0,yes
49,2024-04-10_18h34.12.387,Experiment4_uns,s176,27.0,feminino,right,españa,castellano,Master degree,no,no,B,1,what,L1,unsyncopated,s2,r1,49,Online_whatL1//a.pu.ki8.1110.1998.wav,ri,ro,cho,sil2,pu,zu,ne,sil,ki,lu,sil1,['catch'],[1.8249000000004116],[1.8249000000004116],1.11,no_beat,0.7149000000004115,0.7149000000004115,"[""space""]",pu,1,testConjL3Syn//cat_viol.r1.s1.0.wav,3.0,conjunction_syn,syncopated,a,s1,no_rule,cat,L3,m,0.8438,7.0,1.0,0.6171,3.0,3.0,Castellano,0.0,Catalan,6.0,Inglés,6.0,3.0,1.0,yes,no,no,flauta,6,canto,6,,,nada :),63.0,yes
50,2024-04-10_18h34.12.387,Experiment4_uns,s176,27.0,feminino,right,españa,castellano,Master degree,no,no,B,1,what,L1,unsyncopated,s2,r1,50,Online_whatL1//a.pu.ki10.888.1776.wav,ni,la,lu,sil,pu,zu,ze,sil1,ki,ne,sil2,['catch'],[2.0098000000007232],[2.0098000000007232],0.888,beat,1.121800000000723,1.121800000000723,"[""space""]",pu,1,testConjL3Syn//r2.s1.0.wav,3.0,conjunction_syn,syncopated,b,s1,rule,rule,L3,m,1.4546,7.0,0.0,0.3377,3.0,3.0,Castellano,0.0,Catalan,6.0,Inglés,6.0,3.0,1.0,yes,no,no,flauta,6,canto,6,,,nada :),63.0,yes
51,2024-04-10_18h34.12.387,Experiment4_uns,s176,27.0,feminino,right,españa,castellano,Master degree,no,no,B,1,what,L1,unsyncopated,s1,r2,51,Online_whatL1//a.pu.ki9.none.none.wav,ta,ne,la,sil2,be,zu,ze,sil,fo,lu,sil1,['-'],,,none,none,,,,pu,1,testConjL3Syn//cat_viol.r1.s2.0.wav,3.0,conjunction_syn,syncopated,a,s2,no_rule,cat,L3,m,0.9337,7.0,1.0,0.3858,3.0,3.0,Castellano,0.0,Catalan,6.0,Inglés,6.0,3.0,1.0,yes,no,no,flauta,6,canto,6,,,nada :),63.0,yes
52,2024-04-10_18h34.12.387,Experiment4_uns,s176,27.0,feminino,right,españa,castellano,Master degree,no,no,B,1,what,L1,unsyncopated,s2,r1,52,Online_whatL1//c.ro.fo19.none.none.wav,fa,ri,zu,sil,pu,ze,cho,sil2,ki,ni,sil1,['-'],,,none,none,,,,fo,3,testConjL3Syn//time_viol.r1.s2.0.wav,3.0,conjunction_syn,syncopated,a,s2,no_rule,time,L3,z,5.5182,7.0,0.0,0.4372,3.0,3.0,Castellano,0.0,Catalan,6.0,Inglés,6.0,3.0,1.0,yes,no,no,flauta,6,canto,6,,,nada :),63.0,yes
53,2024-04-10_18h34.12.387,Experiment4_uns,s176,27.0,feminino,right,españa,castellano,Master degree,no,no,B,1,what,L1,unsyncopated,s2,r1,53,Online_whatL1//c.ro.fo18.none.none.wav,ne,zu,la,sil2,pu,fa,ni,sil,ki,lu,sil1,['-'],,,none,none,,,,fo,3,testConjL3Syn//r1.s1.2.wav,3.0,conjunction_syn,syncopated,a,s1,rule,rule,L3,z,2.2369,4.0,1.0,0.4032,3.0,3.0,Castellano,0.0,Catalan,6.0,Inglés,6.0,3.0,1.0,yes,no,no,flauta,6,canto,6,,,nada :),63.0,yes
54,2024-04-10_18h34.12.387,Experiment4_uns,s176,27.0,feminino,right,españa,castellano,Master degree,no,no,B,1,what,L1,unsyncopated,s2,r1,54,Online_whatL1//c.ro.fo16.222.444.wav,zu,ro,fo,sil,pu,lu,fa,sil2,ki,la,sil1,['catch'],[1.196800000000735],[1.196800000000735],0.444,no_beat,0.7528000000007351,0.7528000000007351,"[""space""]",fo,3,testConjL3Syn//dep_viol.r1.s1.0.wav,3.0,conjunction_syn,syncopated,a,s1,no_rule,dep,L3,m,0.8164,2.0,1.0,0.5684,3.0,3.0,Castellano,0.0,Catalan,6.0,Inglés,6.0,3.0,1.0,yes,no,no,flauta,6,canto,6,,,nada :),63.0,yes
55,2024-04-10_18h34.12.387,Experiment4_uns,s176,27.0,feminino,right,españa,castellano,Master degree,no,no,B,1,what,L1,unsyncopated,s2,r1,55,Online_whatL1//c.ro.fo17.444.0.wav,fo,lu,ro,sil,pu,zu,ne,sil1,ki,fa,sil2,['catch'],[0.8631999999992104],[0.8631999999992104],0.0,beat,0.8631999999992104,0.8631999999992104,"[""space""]",fo,3,testConjL3Syn//cat_viol.r2.s1.0.wav,3.0,conjunction_syn,syncopated,b,s1,no_rule,cat,L3,z,0.4659,7.0,0.0,0.3033,3.0,3.0,Castellano,0.0,Catalan,6.0,Inglés,6.0,3.0,1.0,yes,no,no,flauta,6,canto,6,,,nada :),63.0,yes
56,2024-04-10_18h34.12.387,Experiment4_uns,s176,27.0,feminino,right,españa,castellano,Master degree,no,no,B,1,what,L1,unsyncopated,s2,r2,56,Online_whatL1//a.pu.ki21.none.none.wav,ze,fo,ri,sil,ta,lu,cho,sil2,be,la,sil1,['-'],,,none,none,,,,pu,1,testConjL3Syn//dep_viol.r2.s2.0.wav,3.0,conjunction_syn,syncopated,b,s2,no_rule,dep,L3,z,0.9039,5.0,0.0,0.6221,3.0,3.0,Castellano,0.0,Catalan,6.0,Inglés,6.0,3.0,1.0,yes,no,no,flauta,6,canto,6,,,nada :),63.0,yes
57,2024-04-10_18h34.12.387,Experiment4_uns,s176,27.0,feminino,right,españa,castellano,Master degree,no,no,B,1,what,L1,unsyncopated,s1,r2,57,Online_whatL1//a.pu.ki22.none.none.wav,ta,ne,cho,sil2,be,ro,lu,sil,fa,fo,sil1,['-'],,,none,none,,,,pu,1,testConjL3Syn//r1.s2.2.wav,3.0,conjunction_syn,syncopated,a,s2,rule,rule,L3,z,0.3503,7.0,1.0,0.3007,3.0,3.0,Castellano,0.0,Catalan,6.0,Inglés,6.0,3.0,1.0,yes,no,no,flauta,6,canto,6,,,nada :),63.0,yes
58,2024-04-10_18h34.12.387,Experiment4_uns,s176,27.0,feminino,right,españa,castellano,Master degree,no,no,B,1,what,L1,unsyncopated,s1,r2,58,Online_whatL1//a.pu.ki23.none.none.wav,ta,ne,la,sil2,be,fo,lu,sil,cho,ze,sil1,['-'],,,none,none,,,,pu,1,testConjL3Syn//dep_viol.r2.s1.0.wav,3.0,conjunction_syn,syncopated,b,s1,no_rule,dep,L3,m,0.9128,2.0,1.0,0.4342,3.0,3.0,Castellano,0.0,Catalan,6.0,Inglés,6.0,3.0,1.0,yes,no,no,flauta,6,canto,6,,,nada :),63.0,yes
59,2024-04-10_18h34.12.387,Experiment4_uns,s176,27.0,feminino,right,españa,castellano,Master degree,no,no,B,1,what,L1,unsyncopated,s1,r1,59,Online_whatL1//a.pu.ki20.0.888.wav,pu,ze,ni,sil,ki,la,ne,sil2,zu,ro,sil1,['catch'],[0.7834000000003698],[0.7834000000003698],0.0,beat,0.7834000000003698,0.7834000000003698,"[""space""]",pu,1,testConjL3Syn//r1.s2.1.wav,3.0,conjunction_syn,syncopated,a,s2,rule,rule,L3,m,0.4866,7.0,0.0,0.8212,3.0,3.0,Castellano,0.0,Catalan,6.0,Inglés,6.0,3.0,1.0,yes,no,no,flauta,6,canto,6,,,nada :),63.0,yes
60,2024-04-10_18h34.12.387,Experiment4_uns,s176,27.0,feminino,right,españa,castellano,Master degree,no,no,B,1,what,L1,unsyncopated,s1,r1,60,Online_whatL1//b.ta.be7.none.none.wav,pu,ro,fa,sil,ki,fo,ni,sil2,la,ze,sil1,['-'],,,none,none,,,,be,2,testConjL3Syn//time_viol.r2.s1.0.wav,3.0,conjunction_syn,syncopated,b,s1,no_rule,time,L3,m,3.5712,7.0,1.0,0.4172,3.0,3.0,Castellano,0.0,Catalan,6.0,Inglés,6.0,3.0,1.0,yes,no,no,flauta,6,canto,6,,,nada :),63.0,yes
61,2024-04-10_18h34.12.387,Experiment4_uns,s176,27.0,feminino,right,españa,castellano,Master degree,no,no,B,1,what,L1,unsyncopated,s2,r1,61,Online_whatL1//b.ta.be6.none.none.wav,cho,fa,fo,sil,pu,ne,ri,sil2,ki,ni,sil1,['-'],,,none,none,,,,be,2,testConjL3Syn//r2.s2.0.wav,3.0,conjunction_syn,syncopated,b,s2,rule,rule,L3,m,1.4867,7.0,0.0,0.5223,3.0,3.0,Castellano,0.0,Catalan,6.0,Inglés,6.0,3.0,1.0,yes,no,no,flauta,6,canto,6,,,nada :),63.0,yes
62,2024-04-10_18h34.12.387,Experiment4_uns,s176,27.0,feminino,right,españa,castellano,Master degree,no,no,B,1,what,L1,unsyncopated,s2,r2,62,Online_whatL1//b.ta.be4.888.1998.wav,zu,ne,fa,sil,ta,lu,ni,sil2,be,ri,sil1,['catch_delay'],[0.7767000000010886],[0.7767000000010886],1.998,no_beat,0.7767000000010886,0.7767000000010886,,be,2,testConjL3Syn//r1.s1.0.wav,3.0,conjunction_syn,syncopated,a,s1,rule,rule,L3,m,0.4533,7.0,0.0,1.3699,3.0,3.0,Castellano,0.0,Catalan,6.0,Inglés,6.0,3.0,1.0,yes,no,no,flauta,6,canto,6,,,nada :),63.0,yes
63,2024-04-10_18h34.12.387,Experiment4_uns,s176,27.0,feminino,right,españa,castellano,Master degree,no,no,B,1,what,L1,unsyncopated,s2,r1,63,Online_whatL1//b.ta.be5.none.none.wav,ni,fa,ro,sil2,pu,ze,la,sil,ki,ne,sil1,['-'],[0.11070000000108848],[0.11070000000108848],none,none,,,"[""space""]",be,2,testConjL3Syn//dep_viol.r1.s2.0.wav,3.0,conjunction_syn,syncopated,a,s2,no_rule,dep,L3,m,1.1348,4.0,1.0,0.8346,3.0,3.0,Castellano,0.0,Catalan,6.0,Inglés,6.0,3.0,1.0,yes,no,no,flauta,6,canto,6,,,nada :),63.0,yes
64,2024-04-10_18h34.12.387,Experiment4_uns,s176,27.0,feminino,right,españa,castellano,Master degree,no,no,B,1,what,L1,unsyncopated,s1,r1,64,Online_whatL1//a.pu.ki31.0.888.wav,pu,la,lu,sil,ki,ro,zu,sil2,ne,cho,sil1,['catch'],[1.1257999999988897],[1.1257999999988897],0.0,beat,1.1257999999988897,1.1257999999988897,"[""space""]",pu,1,testConjL3Syn//r1.s1.1.wav,3.0,conjunction_syn,syncopated,a,s1,rule,rule,L3,z,0.484,7.0,1.0,0.3101,3.0,3.0,Castellano,0.0,Catalan,6.0,Inglés,6.0,3.0,1.0,yes,no,no,flauta,6,canto,6,,,nada :),63.0,yes
65,2024-04-10_18h34.12.387,Experiment4_uns,s176,27.0,feminino,right,españa,castellano,Master degree,no,no,B,1,what,L1,unsyncopated,s2,r2,65,Online_whatL1//a.pu.ki29.none.none.wav,zu,lu,ne,sil,ta,ze,ni,sil1,be,ro,sil2,['-'],,,none,none,,,,pu,1,testConjL3Syn//r2.s2.1.wav,3.0,conjunction_syn,syncopated,b,s2,rule,rule,L3,z,0.3838,6.0,1.0,0.4587,3.0,3.0,Castellano,0.0,Catalan,6.0,Inglés,6.0,3.0,1.0,yes,no,no,flauta,6,canto,6,,,nada :),63.0,yes
66,2024-04-10_18h34.12.387,Experiment4_uns,s176,27.0,feminino,right,españa,castellano,Master degree,no,no,B,1,what,L1,unsyncopated,s2,r1,66,Online_whatL1//a.pu.ki28.888.1776.wav,fo,ro,fa,sil,pu,ze,zu,sil1,ki,ni,sil2,['catch'],[1.8795999999996411],[1.8795999999996411],0.888,beat,0.9915999999996412,0.9915999999996412,"[""space""]",pu,1,testConjL3Syn//cat_viol.r2.s2.0.wav,3.0,conjunction_syn,syncopated,b,s2,no_rule,cat,L3,z,0.5383,6.0,0.0,0.3063,3.0,3.0,Castellano,0.0,Catalan,6.0,Inglés,6.0,3.0,1.0,yes,no,no,flauta,6,canto,6,,,nada :),63.0,yes
67,2024-04-10_18h34.12.387,Experiment4_uns,s176,27.0,feminino,right,españa,castellano,Master degree,no,no,B,1,what,L1,unsyncopated,s1,r2,67,Online_whatL1//a.pu.ki30.none.none.wav,ta,zu,cho,sil,be,ri,ni,sil2,ne,la,sil1,['-'],,,none,none,,,,pu,1,testConjL3Syn//r2.s1.1.wav,3.0,conjunction_syn,syncopated,b,s1,rule,rule,L3,m,1.1169,2.0,0.0,0.3196,3.0,3.0,Castellano,0.0,Catalan,6.0,Inglés,6.0,3.0,1.0,yes,no,no,flauta,6,canto,6,,,nada :),63.0,yes
68,2024-04-10_18h34.12.387,Experiment4_uns,s176,27.0,feminino,right,españa,castellano,Master degree,no,no,B,1,what,L1,unsyncopated,s2,r2,68,Online_whatL1//b.ta.be0.888.1776.wav,ni,lu,ne,sil,ta,ze,zu,sil1,be,la,sil2,['catch_delay'],[0.9628999999985928],[0.9628999999985928],1.776,beat,0.9628999999985928,0.9628999999985928,,be,2,testConjL3Syn//time_viol.r1.s1.0.wav,3.0,conjunction_syn,syncopated,a,s1,no_rule,time,L3,m,1.1072,7.0,1.0,0.4002,3.0,3.0,Castellano,0.0,Catalan,6.0,Inglés,6.0,3.0,1.0,yes,no,no,flauta,6,canto,6,,,nada :),63.0,yes
69,2024-04-10_18h34.12.387,Experiment4_uns,s176,27.0,feminino,right,españa,castellano,Master degree,no,no,B,1,what,L1,unsyncopated,s2,r1,69,Online_whatL1//b.ta.be3.none.none.wav,ze,ri,la,sil,pu,ni,fo,sil1,ki,cho,sil2,['-'],[0.07489999999859265],[0.07489999999859265],none,none,,,"[""space""]",be,2,testConjL3Syn//r2.s1.2.wav,3.0,conjunction_syn,syncopated,b,s1,rule,rule,L3,m,1.408,5.0,0.0,0.3844,3.0,3.0,Castellano,0.0,Catalan,6.0,Inglés,6.0,3.0,1.0,yes,no,no,flauta,6,canto,6,,,nada :),63.0,yes
70,2024-04-10_18h34.12.387,Experiment4_uns,s176,27.0,feminino,right,españa,castellano,Master degree,no,no,B,1,what,L1,unsyncopated,s1,r1,70,Online_whatL1//b.ta.be1.none.none.wav,pu,fa,fo,sil2,ki,la,zu,sil,ze,ri,sil1,['-'],,,none,none,,,,be,2,testConjL3Syn//r1.s2.0.wav,3.0,conjunction_syn,syncopated,a,s2,rule,rule,L3,m,0.5476,4.0,0.0,0.4678,3.0,3.0,Castellano,0.0,Catalan,6.0,Inglés,6.0,3.0,1.0,yes,no,no,flauta,6,canto,6,,,nada :),63.0,yes
71,2024-04-10_18h34.12.387,Experiment4_uns,s176,27.0,feminino,right,españa,castellano,Master degree,no,no,B,1,what,L1,unsyncopated,s2,r2,71,Online_whatL1//b.ta.be2.1110.1998.wav,ze,fa,lu,sil2,ta,ne,cho,sil,be,ri,sil1,['catch_delay'],[0.8502999999988707],[0.8502999999988707],1.998,no_beat,0.8502999999988707,0.8502999999988707,,be,2,testConjL3Syn//r2.s2.2.wav,3.0,conjunction_syn,syncopated,b,s2,rule,rule,L3,m,1.2849,6.0,0.0,0.5352,3.0,3.0,Castellano,0.0,Catalan,6.0,Inglés,6.0,3.0,1.0,yes,no,no,flauta,6,canto,6,,,nada :),63.0,yes
72,2024-04-10_18h34.12.387,Experiment4_uns,s176,27.0,feminino,right,españa,castellano,Master degree,no,no,B,1,what,L1,unsyncopated,s1,r1,72,Online_whatL1//c.ro.fo20.222.1332.wav,pu,ro,la,sil,ki,fa,fo,sil2,ni,ne,sil1,['catch'],"[0.1842999999988706, 2.2228999999985035]",[2.2228999999985035],1.332,no_beat,0.8908999999985034,0.8908999999985034,"[""space"",""space""]",fo,3,testConjL4Uns//r2.s1.1.wav,4.0,conjunction_un,unsyncopated,b,s1,rule,rule,L4,z,0.5872,7.0,1.0,0.2497,3.0,3.0,Castellano,0.0,Catalan,6.0,Inglés,6.0,3.0,1.0,yes,no,no,flauta,6,canto,6,,,nada :),63.0,yes
73,2024-04-10_18h34.12.387,Experiment4_uns,s176,27.0,feminino,right,españa,castellano,Master degree,no,no,B,1,what,L1,unsyncopated,s2,r1,73,Online_whatL1//c.ro.fo21.none.none.wav,ze,cho,ne,sil2,pu,ri,zu,sil,ki,fa,sil1,['-'],,,none,none,,,,fo,3,testConjL4Uns//time_viol.r1.s1.0.wav,4.0,conjunction_un,unsyncopated,a,s1,no_rule,time,L4,m,1.4506,7.0,1.0,0.7349,3.0,3.0,Castellano,0.0,Catalan,6.0,Inglés,6.0,3.0,1.0,yes,no,no,flauta,6,canto,6,,,nada :),63.0,yes
74,2024-04-10_18h34.12.387,Experiment4_uns,s176,27.0,feminino,right,españa,castellano,Master degree,no,no,B,1,what,L1,unsyncopated,s2,r2,74,Online_whatL1//c.ro.fo23.none.none.wav,ne,ni,zu,sil,ta,lu,la,sil1,be,ri,sil2,['-'],,,none,none,,,,fo,3,testConjL4Uns//time_viol.r1.s2.0.wav,4.0,conjunction_un,unsyncopated,a,s2,no_rule,time,L4,m,1.0523,2.0,1.0,1.3361,3.0,3.0,Castellano,0.0,Catalan,6.0,Inglés,6.0,3.0,1.0,yes,no,no,flauta,6,canto,6,,,nada :),63.0,yes
75,2024-04-10_18h34.12.387,Experiment4_uns,s176,27.0,feminino,right,españa,castellano,Master degree,no,no,B,1,what,L1,unsyncopated,s2,r2,75,Online_whatL1//c.ro.fo22.0.1110.wav,ro,ne,zu,sil,ta,fo,cho,sil1,be,la,sil2,['catch'],[2.0664000000003853],[2.0664000000003853],1.11,no_beat,0.9564000000003852,0.9564000000003852,"[""space""]",fo,3,testConjL4Uns//r2.s2.0.wav,4.0,conjunction_un,unsyncopated,b,s2,rule,rule,L4,z,0.6196,7.0,1.0,0.2522,3.0,3.0,Castellano,0.0,Catalan,6.0,Inglés,6.0,3.0,1.0,yes,no,no,flauta,6,canto,6,,,nada :),63.0,yes
76,2024-04-10_18h34.12.387,Experiment4_uns,s176,27.0,feminino,right,españa,castellano,Master degree,no,no,B,1,what,L1,unsyncopated,s1,r1,76,Online_whatL1//a.pu.ki27.0.888.wav,pu,ri,fa,sil,ki,la,ne,sil2,ze,cho,sil1,['catch'],[0.8727000000010321],[0.8727000000010321],0.0,beat,0.8727000000010321,0.8727000000010321,"[""space""]",pu,1,testConjL4Uns//cat_viol.r1.s1.0.wav,4.0,conjunction_un,unsyncopated,a,s1,no_rule,cat,L4,m,0.9094,2.0,1.0,0.5938,3.0,3.0,Castellano,0.0,Catalan,6.0,Inglés,6.0,3.0,1.0,yes,no,no,flauta,6,canto,6,,,nada :),63.0,yes
77,2024-04-10_18h34.12.387,Experiment4_uns,s176,27.0,feminino,right,españa,castellano,Master degree,no,no,B,1,what,L1,unsyncopated,s1,r1,77,Online_whatL1//a.pu.ki24.0.888.wav,pu,fa,cho,sil,ki,zu,ne,sil2,fo,ni,sil1,['catch'],[0.8255999999996675],[0.8255999999996675],0.0,beat,0.8255999999996675,0.8255999999996675,"[""space""]",pu,1,testConjL4Uns//dep_viol.r2.s1.0.wav,4.0,conjunction_un,unsyncopated,b,s1,no_rule,dep,L4,m,0.6013,7.0,1.0,0.3402,3.0,3.0,Castellano,0.0,Catalan,6.0,Inglés,6.0,3.0,1.0,yes,no,no,flauta,6,canto,6,,,nada :),63.0,yes
78,2024-04-10_18h34.12.387,Experiment4_uns,s176,27.0,feminino,right,españa,castellano,Master degree,no,no,B,1,what,L1,unsyncopated,s1,r2,78,Online_whatL1//a.pu.ki26.none.none.wav,ta,zu,lu,sil,be,cho,ri,sil1,la,ze,sil2,['-'],,,none,none,,,,pu,1,testConjL4Uns//r1.s1.0.wav,4.0,conjunction_un,unsyncopated,a,s1,rule,rule,L4,z,2.0033,5.0,1.0,0.2217,3.0,3.0,Castellano,0.0,Catalan,6.0,Inglés,6.0,3.0,1.0,yes,no,no,flauta,6,canto,6,,,nada :),63.0,yes
79,2024-04-10_18h34.12.387,Experiment4_uns,s176,27.0,feminino,right,españa,castellano,Master degree,no,no,B,1,what,L1,unsyncopated,s2,r1,79,Online_whatL1//a.pu.ki25.888.1998.wav,la,cho,ne,sil,pu,zu,fa,sil2,ki,lu,sil1,['catch'],[1.6937999999988733],[1.6937999999988733],0.888,beat,0.8057999999988733,0.8057999999988733,"[""space""]",pu,1,testConjL4Uns//r1.s1.1.wav,4.0,conjunction_un,unsyncopated,a,s1,rule,rule,L4,z,0.3506,7.0,1.0,0.1839,3.0,3.0,Castellano,0.0,Catalan,6.0,Inglés,6.0,3.0,1.0,yes,no,no,flauta,6,canto,6,,,nada :),63.0,yes
80,2024-04-10_18h34.12.387,Experiment4_uns,s176,27.0,feminino,right,españa,castellano,Master degree,no,no,B,1,what,L1,unsyncopated,s2,r1,80,Online_whatL1//d.ne.ni21.none.none.wav,zu,fo,la,sil,pu,ze,cho,sil2,ki,lu,sil1,['false alarm'],[2.202799999998888],[2.202799999998888],none,none,,,"[""space""]",ni,4,testConjL4Uns//cat_viol.r1.s2.0.wav,4.0,conjunction_un,unsyncopated,a,s2,no_rule,cat,L4,z,0.5853,7.0,0.0,0.2506,3.0,3.0,Castellano,0.0,Catalan,6.0,Inglés,6.0,3.0,1.0,yes,no,no,flauta,6,canto,6,,,nada :),63.0,yes
81,2024-04-10_18h34.12.387,Experiment4_uns,s176,27.0,feminino,right,españa,castellano,Master degree,no,no,B,1,what,L1,unsyncopated,s1,r2,81,Online_whatL1//d.ne.ni20.none.none.wav,ta,fa,ro,sil2,be,ze,cho,sil,la,zu,sil1,['-'],,,none,none,,,,ni,4,testConjL4Uns//r2.s2.1.wav,4.0,conjunction_un,unsyncopated,b,s2,rule,rule,L4,z,0.888,6.0,1.0,0.1662,3.0,3.0,Castellano,0.0,Catalan,6.0,Inglés,6.0,3.0,1.0,yes,no,no,flauta,6,canto,6,,,nada :),63.0,yes
82,2024-04-10_18h34.12.387,Experiment4_uns,s176,27.0,feminino,right,españa,castellano,Master degree,no,no,B,1,what,L1,unsyncopated,s1,r1,82,Online_whatL1//d.ne.ni22.none.none.wav,pu,ro,cho,sil2,ki,lu,ze,sil,zu,ri,sil1,['-'],,,none,none,,,,ni,4,testConjL4Uns//dep_viol.r1.s1.0.wav,4.0,conjunction_un,unsyncopated,a,s1,no_rule,dep,L4,m,1.2051,4.0,1.0,0.3525,3.0,3.0,Castellano,0.0,Catalan,6.0,Inglés,6.0,3.0,1.0,yes,no,no,flauta,6,canto,6,,,nada :),63.0,yes
83,2024-04-10_18h34.12.387,Experiment4_uns,s176,27.0,feminino,right,españa,castellano,Master degree,no,no,B,1,what,L1,unsyncopated,s1,r1,83,Online_whatL1//d.ne.ni23.none.none.wav,pu,fo,zu,sil,ki,cho,ro,sil1,ri,la,sil2,['-'],,,none,none,,,,ni,4,testConjL4Uns//r1.s1.2.wav,4.0,conjunction_un,unsyncopated,a,s1,rule,rule,L4,m,1.6389,7.0,0.0,0.3414,3.0,3.0,Castellano,0.0,Catalan,6.0,Inglés,6.0,3.0,1.0,yes,no,no,flauta,6,canto,6,,,nada :),63.0,yes
84,2024-04-10_18h34.12.387,Experiment4_uns,s176,27.0,feminino,right,españa,castellano,Master degree,no,no,B,1,what,L1,unsyncopated,s2,r2,84,Online_whatL1//d.ne.ni11.none.none.wav,lu,fa,ze,sil,ta,ri,la,sil1,be,fo,sil2,['-'],,,none,none,,,,ni,4,testConjL4Uns//dep_viol.r2.s2.0.wav,4.0,conjunction_un,unsyncopated,b,s2,no_rule,dep,L4,z,1.3858,7.0,0.0,0.2679,3.0,3.0,Castellano,0.0,Catalan,6.0,Inglés,6.0,3.0,1.0,yes,no,no,flauta,6,canto,6,,,nada :),63.0,yes
85,2024-04-10_18h34.12.387,Experiment4_uns,s176,27.0,feminino,right,españa,castellano,Master degree,no,no,B,1,what,L1,unsyncopated,s2,r1,85,Online_whatL1//d.ne.ni10.none.none.wav,ri,fa,ro,sil2,pu,zu,ze,sil,ki,la,sil1,['-'],,,none,none,,,,ni,4,testConjL4Uns//time_viol.r2.s1.0.wav,4.0,conjunction_un,unsyncopated,b,s1,no_rule,time,L4,m,1.5515,2.0,1.0,0.2042,3.0,3.0,Castellano,0.0,Catalan,6.0,Inglés,6.0,3.0,1.0,yes,no,no,flauta,6,canto,6,,,nada :),63.0,yes
86,2024-04-10_18h34.12.387,Experiment4_uns,s176,27.0,feminino,right,españa,castellano,Master degree,no,no,B,1,what,L1,unsyncopated,s1,r1,86,Online_whatL1//d.ne.ni9.222.444.wav,pu,ne,ni,sil,ki,fa,zu,sil2,fo,ro,sil1,['miss'],,,0.444,no_beat,,,,ni,4,testConjL4Uns//time_viol.r2.s2.0.wav,4.0,conjunction_un,unsyncopated,b,s2,no_rule,time,L4,m,1.3373,7.0,1.0,0.4662,3.0,3.0,Castellano,0.0,Catalan,6.0,Inglés,6.0,3.0,1.0,yes,no,no,flauta,6,canto,6,,,nada :),63.0,yes
87,2024-04-10_18h34.12.387,Experiment4_uns,s176,27.0,feminino,right,españa,castellano,Master degree,no,no,B,1,what,L1,unsyncopated,s2,r1,87,Online_whatL1//d.ne.ni8.none.none.wav,lu,fa,la,sil,pu,cho,ze,sil2,ki,fo,sil1,['-'],,,none,none,,,,ni,4,testConjL4Uns//cat_viol.r2.s1.0.wav,4.0,conjunction_un,unsyncopated,b,s1,no_rule,cat,L4,z,0.8305,7.0,0.0,0.1725,3.0,3.0,Castellano,0.0,Catalan,6.0,Inglés,6.0,3.0,1.0,yes,no,no,flauta,6,canto,6,,,nada :),63.0,yes
88,2024-04-10_18h34.12.387,Experiment4_uns,s176,27.0,feminino,right,españa,castellano,Master degree,no,no,B,1,what,L1,unsyncopated,s1,r1,88,Online_whatL1//c.ro.fo4.none.none.wav,pu,lu,fa,sil2,ki,la,zu,sil,cho,ze,sil1,['false alarm'],[0.9400999999996884],[0.9400999999996884],none,none,,,"[""space""]",fo,3,testConjL4Uns//cat_viol.r2.s2.0.wav,4.0,conjunction_un,unsyncopated,b,s2,no_rule,cat,L4,m,2.0394,5.0,1.0,0.8678,3.0,3.0,Castellano,0.0,Catalan,6.0,Inglés,6.0,3.0,1.0,yes,no,no,flauta,6,canto,6,,,nada :),63.0,yes
89,2024-04-10_18h34.12.387,Experiment4_uns,s176,27.0,feminino,right,españa,castellano,Master degree,no,no,B,1,what,L1,unsyncopated,s1,r2,89,Online_whatL1//c.ro.fo5.none.none.wav,ta,ze,lu,sil,be,ne,zu,sil2,ri,ni,sil1,['-'],,,none,none,,,,fo,3,testConjL4Uns//dep_viol.r1.s2.0.wav,4.0,conjunction_un,unsyncopated,a,s2,no_rule,dep,L4,m,0.9468,7.0,1.0,0.5339,3.0,3.0,Castellano,0.0,Catalan,6.0,Inglés,6.0,3.0,1.0,yes,no,no,flauta,6,canto,6,,,nada :),63.0,yes
90,2024-04-10_18h34.12.387,Experiment4_uns,s176,27.0,feminino,right,españa,castellano,Master degree,no,no,B,1,what,L1,unsyncopated,s2,r1,90,Online_whatL1//c.ro.fo6.none.none.wav,la,ri,cho,sil,pu,ne,ni,sil1,ki,fa,sil2,['-'],,,none,none,,,,fo,3,testConjL4Uns//r2.s2.2.wav,4.0,conjunction_un,unsyncopated,b,s2,rule,rule,L4,z,0.4506,7.0,1.0,0.3212,3.0,3.0,Castellano,0.0,Catalan,6.0,Inglés,6.0,3.0,1.0,yes,no,no,flauta,6,canto,6,,,nada :),63.0,yes
91,2024-04-10_18h34.12.387,Experiment4_uns,s176,27.0,feminino,right,españa,castellano,Master degree,no,no,B,1,what,L1,unsyncopated,s2,r2,91,Online_whatL1//c.ro.fo7.none.none.wav,ri,lu,ni,sil2,ta,la,ne,sil,be,ze,sil1,['-'],,,none,none,,,,fo,3,testConjL4Uns//r2.s1.2.wav,4.0,conjunction_un,unsyncopated,b,s1,rule,rule,L4,m,5.8832,6.0,0.0,1.7002,3.0,3.0,Castellano,0.0,Catalan,6.0,Inglés,6.0,3.0,1.0,yes,no,no,flauta,6,canto,6,,,nada :),63.0,yes
92,2024-04-10_18h34.12.387,Experiment4_uns,s176,27.0,feminino,right,españa,castellano,Master degree,no,no,B,1,what,L1,unsyncopated,s2,r2,92,Online_whatL1//a.pu.ki15.none.none.wav,fo,ne,ro,sil2,ta,cho,lu,sil,be,ze,sil1,['-'],,,none,none,,,,pu,1,testConjL4Uns//r2.s1.0.wav,4.0,conjunction_un,unsyncopated,b,s1,rule,rule,L4,m,0.9702,7.0,0.0,1.0837,3.0,3.0,Castellano,0.0,Catalan,6.0,Inglés,6.0,3.0,1.0,yes,no,no,flauta,6,canto,6,,,nada :),63.0,yes
93,2024-04-10_18h34.12.387,Experiment4_uns,s176,27.0,feminino,right,españa,castellano,Master degree,no,no,B,1,what,L1,unsyncopated,s2,r2,93,Online_whatL1//a.pu.ki14.none.none.wav,ni,ne,ze,sil2,ta,fa,ri,sil,be,ro,sil1,['-'],,,none,none,,,,pu,1,testConjL4Uns//r1.s2.2.wav,4.0,conjunction_un,unsyncopated,a,s2,rule,rule,L4,z,1.2171,2.0,1.0,0.303,3.0,3.0,Castellano,0.0,Catalan,6.0,Inglés,6.0,3.0,1.0,yes,no,no,flauta,6,canto,6,,,nada :),63.0,yes
94,2024-04-10_18h34.12.387,Experiment4_uns,s176,27.0,feminino,right,españa,castellano,Master degree,no,no,B,1,what,L1,unsyncopated,s2,r2,94,Online_whatL1//a.pu.ki13.none.none.wav,la,fa,ri,sil,ta,cho,ni,sil1,be,fo,sil2,['-'],,,none,none,,,,pu,1,testConjL4Uns//r1.s2.1.wav,4.0,conjunction_un,unsyncopated,a,s2,rule,rule,L4,m,0.6393,7.0,0.0,0.6515,3.0,3.0,Castellano,0.0,Catalan,6.0,Inglés,6.0,3.0,1.0,yes,no,no,flauta,6,canto,6,,,nada :),63.0,yes
95,2024-04-10_18h34.12.387,Experiment4_uns,s176,27.0,feminino,right,españa,castellano,Master degree,no,no,B,1,what,L1,unsyncopated,s2,r1,95,Online_whatL1//a.pu.ki12.1110.1998.wav,ni,zu,ro,sil2,pu,lu,ze,sil,ki,fa,sil1,['catch'],[1.7779000000003862],[1.7779000000003862],1.11,no_beat,0.6679000000003861,0.6679000000003861,"[""space""]",pu,1,testConjL4Uns//r1.s2.0.wav,4.0,conjunction_un,unsyncopated,a,s2,rule,rule,L4,z,0.4157,7.0,1.0,0.2676,3.0,3.0,Castellano,0.0,Catalan,6.0,Inglés,6.0,3.0,1.0,yes,no,no,flauta,6,canto,6,,,nada :),63.0,yes
96,2024-04-10_18h34.12.387,Experiment4_uns,s176,27.0,feminino,right,españa,castellano,Master degree,no,no,B,1,what,L1,unsyncopated,s1,r2,96,Online_whatL1//b.ta.be12.0.888.wav,ta,fo,lu,sil,be,zu,fa,sil2,cho,ne,sil1,['miss'],,,0.888,beat,,,,be,2,,,,,,,,,,,,,,,3.0,3.0,Castellano,0.0,Catalan,6.0,Inglés,6.0,3.0,1.0,yes,no,no,flauta,6,canto,6,,,nada :),63.0,yes
97,2024-04-10_18h34.12.387,Experiment4_uns,s176,27.0,feminino,right,españa,castellano,Master degree,no,no,B,1,what,L1,unsyncopated,s1,r1,97,Online_whatL1//b.ta.be15.none.none.wav,pu,ne,lu,sil2,ki,fo,la,sil,fa,ze,sil1,['-'],,,none,none,,,,be,2,,,,,,,,,,,,,,,3.0,3.0,Castellano,0.0,Catalan,6.0,Inglés,6.0,3.0,1.0,yes,no,no,flauta,6,canto,6,,,nada :),63.0,yes
98,2024-04-10_18h34.12.387,Experiment4_uns,s176,27.0,feminino,right,españa,castellano,Master degree,no,no,B,1,what,L1,unsyncopated,s2,r2,98,Online_whatL1//b.ta.be13.888.1998.wav,cho,fa,ro,sil,ta,lu,zu,sil2,be,fo,sil1,['catch_delay'],[0.7733000000006915],[0.7733000000006915],1.998,no_beat,0.7733000000006915,0.7733000000006915,,be,2,,,,,,,,,,,,,,,3.0,3.0,Castellano,0.0,Catalan,6.0,Inglés,6.0,3.0,1.0,yes,no,no,flauta,6,canto,6,,,nada :),63.0,yes
99,2024-04-10_18h34.12.387,Experiment4_uns,s176,27.0,feminino,right,españa,castellano,Master degree,no,no,B,1,what,L1,unsyncopated,s2,r1,99,Online_whatL1//b.ta.be14.none.none.wav,cho,zu,fo,sil2,pu,ne,ri,sil,ki,ni,sil1,['-'],[0.1073000000006914],[0.1073000000006914],none,none,,,"[""space""]",be,2,,,,,,,,,,,,,,,3.0,3.0,Castellano,0.0,Catalan,6.0,Inglés,6.0,3.0,1.0,yes,no,no,flauta,6,canto,6,,,nada :),63.0,yes
100,2024-04-10_18h34.12.387,Experiment4_uns,s176,27.0,feminino,right,españa,castellano,Master degree,no,no,B,1,what,L1,unsyncopated,s2,r1,100,Online_whatL1//b.ta.be9.none.none.wav,ze,zu,ni,sil,pu,fa,ne,sil1,ki,fo,sil2,['-'],,,none,none,,,,be,2,,,,,,,,,,,,,,,3.0,3.0,Castellano,0.0,Catalan,6.0,Inglés,6.0,3.0,1.0,yes,no,no,flauta,6,canto,6,,,nada :),63.0,yes
101,2024-04-10_18h34.12.387,Experiment4_uns,s176,27.0,feminino,right,españa,castellano,Master degree,no,no,B,1,what,L1,unsyncopated,s1,r2,101,Online_whatL1//b.ta.be8.0.1110.wav,ta,la,zu,sil2,be,fo,ri,sil,ne,ze,sil1,['catch'],[2.149000000000001],[2.149000000000001],1.11,no_beat,1.0390000000000008,1.0390000000000008,"[""space""]",be,2,,,,,,,,,,,,,,,3.0,3.0,Castellano,0.0,Catalan,6.0,Inglés,6.0,3.0,1.0,yes,no,no,flauta,6,canto,6,,,nada :),63.0,yes
102,2024-04-10_18h34.12.387,Experiment4_uns,s176,27.0,feminino,right,españa,castellano,Master degree,no,no,B,1,what,L1,unsyncopated,s1,r2,102,Online_whatL1//b.ta.be11.0.888.wav,ta,ne,fa,sil,be,ri,fo,sil2,cho,ni,sil1,['miss'],,,0.888,beat,,,,be,2,,,,,,,,,,,,,,,3.0,3.0,Castellano,0.0,Catalan,6.0,Inglés,6.0,3.0,1.0,yes,no,no,flauta,6,canto,6,,,nada :),63.0,yes
103,2024-04-10_18h34.12.387,Experiment4_uns,s176,27.0,feminino,right,españa,castellano,Master degree,no,no,B,1,what,L1,unsyncopated,s1,r1,103,Online_whatL1//b.ta.be10.none.none.wav,pu,fo,fa,sil,ki,zu,cho,sil1,la,ri,sil2,['-'],,,none,none,,,,be,2,,,,,,,,,,,,,,,3.0,3.0,Castellano,0.0,Catalan,6.0,Inglés,6.0,3.0,1.0,yes,no,no,flauta,6,canto,6,,,nada :),63.0,yes
104,2024-04-10_18h34.12.387,Experiment4_uns,s176,27.0,feminino,right,españa,castellano,Master degree,no,no,B,1,what,L1,unsyncopated,s1,r1,104,Online_whatL1//d.ne.ni12.1554.222.wav,pu,ni,fa,sil2,ki,lu,ne,sil,cho,ro,sil1,['miss'],,,0.222,no_beat,,,,ni,4,,,,,,,,,,,,,,,3.0,3.0,Castellano,0.0,Catalan,6.0,Inglés,6.0,3.0,1.0,yes,no,no,flauta,6,canto,6,,,nada :),63.0,yes
105,2024-04-10_18h34.12.387,Experiment4_uns,s176,27.0,feminino,right,españa,castellano,Master degree,no,no,B,1,what,L1,unsyncopated,s2,r2,105,Online_whatL1//d.ne.ni14.1332.0.wav,ni,cho,fo,sil,ta,zu,ne,sil2,be,lu,sil1,['catch'],[0.8922000000011394],[0.8922000000011394],0.0,beat,0.8922000000011394,0.8922000000011394,"[""space""]",ni,4,,,,,,,,,,,,,,,3.0,3.0,Castellano,0.0,Catalan,6.0,Inglés,6.0,3.0,1.0,yes,no,no,flauta,6,canto,6,,,nada :),63.0,yes
106,2024-04-10_18h34.12.387,Experiment4_uns,s176,27.0,feminino,right,españa,castellano,Master degree,no,no,B,1,what,L1,unsyncopated,s1,r2,106,Online_whatL1//d.ne.ni13.1998.222.wav,ta,ni,fa,sil2,be,ro,ze,sil,ne,fo,sil1,['catch'],[1.1989000000004353],[1.1989000000004353],0.222,no_beat,0.9769000000004352,0.9769000000004352,"[""space""]",ni,4,,,,,,,,,,,,,,,3.0,3.0,Castellano,0.0,Catalan,6.0,Inglés,6.0,3.0,1.0,yes,no,no,flauta,6,canto,6,,,nada :),63.0,yes
107,2024-04-10_18h34.12.387,Experiment4_uns,s176,27.0,feminino,right,españa,castellano,Master degree,no,no,B,1,what,L1,unsyncopated,s2,r2,107,Online_whatL1//d.ne.ni15.222.1110.wav,la,ne,ro,sil,ta,ni,cho,sil1,be,zu,sil2,['miss'],,,1.11,no_beat,,,,ni,4,,,,,,,,,,,,,,,3.0,3.0,Castellano,0.0,Catalan,6.0,Inglés,6.0,3.0,1.0,yes,no,no,flauta,6,canto,6,,,nada :),63.0,yes
108,2024-04-10_18h34.12.387,Experiment4_uns,s176,27.0,feminino,right,españa,castellano,Master degree,no,no,B,1,what,L1,unsyncopated,s1,r1,108,Online_whatL1//b.ta.be25.none.none.wav,pu,ze,cho,sil2,ki,fo,ro,sil,ni,ri,sil1,['-'],,,none,none,,,,be,2,,,,,,,,,,,,,,,3.0,3.0,Castellano,0.0,Catalan,6.0,Inglés,6.0,3.0,1.0,yes,no,no,flauta,6,canto,6,,,nada :),63.0,yes
109,2024-04-10_18h34.12.387,Experiment4_uns,s176,27.0,feminino,right,españa,castellano,Master degree,no,no,B,1,what,L1,unsyncopated,s1,r1,109,Online_whatL1//b.ta.be26.none.none.wav,pu,lu,cho,sil,ki,ne,ro,sil2,fa,la,sil1,['-'],,,none,none,,,,be,2,,,,,,,,,,,,,,,3.0,3.0,Castellano,0.0,Catalan,6.0,Inglés,6.0,3.0,1.0,yes,no,no,flauta,6,canto,6,,,nada :),63.0,yes
110,2024-04-10_18h34.12.387,Experiment4_uns,s176,27.0,feminino,right,españa,castellano,Master degree,no,no,B,1,what,L1,unsyncopated,s2,r1,110,Online_whatL1//b.ta.be24.none.none.wav,lu,zu,cho,sil,pu,ni,fa,sil2,ki,fo,sil1,['-'],,,none,none,,,,be,2,,,,,,,,,,,,,,,3.0,3.0,Castellano,0.0,Catalan,6.0,Inglés,6.0,3.0,1.0,yes,no,no,flauta,6,canto,6,,,nada :),63.0,yes
111,2024-04-10_18h34.12.387,Experiment4_uns,s176,27.0,feminino,right,españa,castellano,Master degree,no,no,B,1,what,L1,unsyncopated,s1,r1,111,Online_whatL1//b.ta.be27.none.none.wav,pu,lu,zu,sil,ki,la,ro,sil2,ni,fa,sil1,['-'],,,none,none,,,,be,2,,,,,,,,,,,,,,,3.0,3.0,Castellano,0.0,Catalan,6.0,Inglés,6.0,3.0,1.0,yes,no,no,flauta,6,canto,6,,,nada :),63.0,yes
112,2024-04-10_18h34.12.387,Experiment4_uns,s176,27.0,feminino,right,españa,castellano,Master degree,no,no,B,1,what,L1,unsyncopated,s1,r1,112,Online_whatL1//c.ro.fo3.1998.444.wav,pu,lu,fo,sil,ki,cho,fa,sil2,ro,ni,sil1,['catch'],[2.1100000000000136],[2.1100000000000136],0.444,no_beat,,1.6660000000000137,"[""space""]",fo,3,,,,,,,,,,,,,,,3.0,3.0,Castellano,0.0,Catalan,6.0,Inglés,6.0,3.0,1.0,yes,no,no,flauta,6,canto,6,,,nada :),63.0,yes
113,2024-04-10_18h34.12.387,Experiment4_uns,s176,27.0,feminino,right,españa,castellano,Master degree,no,no,B,1,what,L1,unsyncopated,s1,r2,113,Online_whatL1//c.ro.fo0.none.none.wav,ta,lu,ri,sil,be,ze,zu,sil2,ni,la,sil1,['-'],,,none,none,,,,fo,3,,,,,,,,,,,,,,,3.0,3.0,Castellano,0.0,Catalan,6.0,Inglés,6.0,3.0,1.0,yes,no,no,flauta,6,canto,6,,,nada :),63.0,yes
114,2024-04-10_18h34.12.387,Experiment4_uns,s176,27.0,feminino,right,españa,castellano,Master degree,no,no,B,1,what,L1,unsyncopated,s2,r2,114,Online_whatL1//c.ro.fo1.0.444.wav,ro,zu,fo,sil2,ta,ri,ne,sil,be,fa,sil1,['catch'],[1.1812999999988278],[1.1812999999988278],0.444,no_beat,0.7372999999988279,0.7372999999988279,"[""space""]",fo,3,,,,,,,,,,,,,,,3.0,3.0,Castellano,0.0,Catalan,6.0,Inglés,6.0,3.0,1.0,yes,no,no,flauta,6,canto,6,,,nada :),63.0,yes
115,2024-04-10_18h34.12.387,Experiment4_uns,s176,27.0,feminino,right,españa,castellano,Master degree,no,no,B,1,what,L1,unsyncopated,s1,r2,115,Online_whatL1//c.ro.fo2.none.none.wav,ta,fa,ze,sil,be,ri,lu,sil1,ni,la,sil2,['-'],,,none,none,,,,fo,3,,,,,,,,,,,,,,,3.0,3.0,Castellano,0.0,Catalan,6.0,Inglés,6.0,3.0,1.0,yes,no,no,flauta,6,canto,6,,,nada :),63.0,yes
116,2024-04-10_18h34.12.387,Experiment4_uns,s176,27.0,feminino,right,españa,castellano,Master degree,no,no,B,1,what,L1,unsyncopated,s1,r2,116,Online_whatL1//a.pu.ki2.none.none.wav,ta,zu,lu,sil2,be,ni,ze,sil,ne,fa,sil1,['-'],,,none,none,,,,pu,1,,,,,,,,,,,,,,,3.0,3.0,Castellano,0.0,Catalan,6.0,Inglés,6.0,3.0,1.0,yes,no,no,flauta,6,canto,6,,,nada :),63.0,yes
117,2024-04-10_18h34.12.387,Experiment4_uns,s176,27.0,feminino,right,españa,castellano,Master degree,no,no,B,1,what,L1,unsyncopated,s1,r1,117,Online_whatL1//a.pu.ki1.0.888.wav,pu,ni,ne,sil,ki,ri,la,sil2,ro,cho,sil1,['catch'],[0.9823000000006914],[0.9823000000006914],0.0,beat,0.9823000000006914,0.9823000000006914,"[""space""]",pu,1,,,,,,,,,,,,,,,3.0,3.0,Castellano,0.0,Catalan,6.0,Inglés,6.0,3.0,1.0,yes,no,no,flauta,6,canto,6,,,nada :),63.0,yes
118,2024-04-10_18h34.12.387,Experiment4_uns,s176,27.0,feminino,right,españa,castellano,Master degree,no,no,B,1,what,L1,unsyncopated,s1,r2,118,Online_whatL1//a.pu.ki3.none.none.wav,ta,la,ne,sil,be,cho,ni,sil2,fo,ri,sil1,['-'],,,none,none,,,,pu,1,,,,,,,,,,,,,,,3.0,3.0,Castellano,0.0,Catalan,6.0,Inglés,6.0,3.0,1.0,yes,no,no,flauta,6,canto,6,,,nada :),63.0,yes
119,2024-04-10_18h34.12.387,Experiment4_uns,s176,27.0,feminino,right,españa,castellano,Master degree,no,no,B,1,what,L1,unsyncopated,s1,r1,119,Online_whatL1//a.pu.ki0.0.888.wav,pu,la,ne,sil,ki,lu,fa,sil1,ni,fo,sil2,['catch'],[0.7988999999985253],[0.7988999999985253],0.0,beat,0.7988999999985253,0.7988999999985253,"[""space""]",pu,1,,,,,,,,,,,,,,,3.0,3.0,Castellano,0.0,Catalan,6.0,Inglés,6.0,3.0,1.0,yes,no,no,flauta,6,canto,6,,,nada :),63.0,yes
120,2024-04-10_18h34.12.387,Experiment4_uns,s176,27.0,feminino,right,españa,castellano,Master degree,no,no,B,1,what,L1,unsyncopated,s1,r2,120,Online_whatL1//b.ta.be17.0.888.wav,ta,fa,zu,sil,be,ze,la,sil1,ni,ro,sil2,['catch'],[1.8764000000003307],[1.8764000000003307],0.888,beat,0.9884000000003308,0.9884000000003308,"[""space""]",be,2,,,,,,,,,,,,,,,3.0,3.0,Castellano,0.0,Catalan,6.0,Inglés,6.0,3.0,1.0,yes,no,no,flauta,6,canto,6,,,nada :),63.0,yes
121,2024-04-10_18h34.12.387,Experiment4_uns,s176,27.0,feminino,right,españa,castellano,Master degree,no,no,B,1,what,L1,unsyncopated,s2,r2,121,Online_whatL1//b.ta.be16.1110.1998.wav,zu,fa,cho,sil2,ta,ri,ro,sil,be,ze,sil1,['miss'],,,1.998,no_beat,,,,be,2,,,,,,,,,,,,,,,3.0,3.0,Castellano,0.0,Catalan,6.0,Inglés,6.0,3.0,1.0,yes,no,no,flauta,6,canto,6,,,nada :),63.0,yes
122,2024-04-10_18h34.12.387,Experiment4_uns,s176,27.0,feminino,right,españa,castellano,Master degree,no,no,B,1,what,L1,unsyncopated,s1,r2,122,Online_whatL1//b.ta.be18.0.1110.wav,ta,zu,lu,sil2,be,ni,ne,sil,ze,la,sil1,['catch'],[2.5254999999999654],[2.5254999999999654],1.11,no_beat,,1.4154999999999651,"[""space""]",be,2,,,,,,,,,,,,,,,3.0,3.0,Castellano,0.0,Catalan,6.0,Inglés,6.0,3.0,1.0,yes,no,no,flauta,6,canto,6,,,nada :),63.0,yes
123,2024-04-10_18h34.12.387,Experiment4_uns,s176,27.0,feminino,right,españa,castellano,Master degree,no,no,B,1,what,L1,unsyncopated,s1,r2,123,Online_whatL1//b.ta.be19.0.888.wav,ta,lu,ze,sil,be,la,ro,sil2,cho,fo,sil1,['catch'],[1.5815000000000055],[1.5815000000000055],0.888,beat,0.6935000000000054,0.6935000000000054,"[""space""]",be,2,,,,,,,,,,,,,,,3.0,3.0,Castellano,0.0,Catalan,6.0,Inglés,6.0,3.0,1.0,yes,no,no,flauta,6,canto,6,,,nada :),63.0,yes
124,2024-04-10_18h34.12.387,Experiment4_uns,s176,27.0,feminino,right,españa,castellano,Master degree,no,no,B,1,what,L1,unsyncopated,s1,r2,124,Online_whatL1//d.ne.ni29.none.none.wav,ta,la,zu,sil2,be,fo,ri,sil,fa,ro,sil1,['-'],,,none,none,,,,ni,4,,,,,,,,,,,,,,,3.0,3.0,Castellano,0.0,Catalan,6.0,Inglés,6.0,3.0,1.0,yes,no,no,flauta,6,canto,6,,,nada :),63.0,yes
125,2024-04-10_18h34.12.387,Experiment4_uns,s176,27.0,feminino,right,españa,castellano,Master degree,no,no,B,1,what,L1,unsyncopated,s1,r1,125,Online_whatL1//d.ne.ni28.1332.222.wav,pu,ni,lu,sil2,ki,ne,cho,sil,fo,zu,sil1,['catch'],[1.1112999999988915],[1.1112999999988915],0.222,no_beat,0.8892999999988915,0.8892999999988915,"[""space""]",ni,4,,,,,,,,,,,,,,,3.0,3.0,Castellano,0.0,Catalan,6.0,Inglés,6.0,3.0,1.0,yes,no,no,flauta,6,canto,6,,,nada :),63.0,yes
126,2024-04-10_18h34.12.387,Experiment4_uns,s176,27.0,feminino,right,españa,castellano,Master degree,no,no,B,1,what,L1,unsyncopated,s1,r1,126,Online_whatL1//d.ne.ni31.1998.1332.wav,pu,la,cho,sil2,ki,ni,lu,sil,ne,fa,sil1,['miss'],,,1.332,no_beat,,,,ni,4,,,,,,,,,,,,,,,3.0,3.0,Castellano,0.0,Catalan,6.0,Inglés,6.0,3.0,1.0,yes,no,no,flauta,6,canto,6,,,nada :),63.0,yes
127,2024-04-10_18h34.12.387,Experiment4_uns,s176,27.0,feminino,right,españa,castellano,Master degree,no,no,B,1,what,L1,unsyncopated,s1,r2,127,Online_whatL1//d.ne.ni30.444.1332.wav,ta,lu,ne,sil,be,fo,ni,sil2,ro,cho,sil1,['catch'],[2.5790999999996984],[2.5790999999996984],1.332,no_beat,,1.2470999999996983,"[""space""]",ni,4,,,,,,,,,,,,,,,3.0,3.0,Castellano,0.0,Catalan,6.0,Inglés,6.0,3.0,1.0,yes,no,no,flauta,6,canto,6,,,nada :),63.0,yes
128,2024-04-10_18h34.12.387,Experiment4_uns,s176,27.0,feminino,right,españa,castellano,Master degree,no,no,B,2,when,L2,unsyncopated,when,when,0,Online_whenL2//c.cha29.444.wav,go,du,cha,sil,me,ba,su,sil1,ñu,bi,sil2,['catch'],[1.2445000000000164],[1.2445000000000164],0.444,no_beat,0.8005000000000164,0.8005000000000164,"[""space""]",cha,3,,,,,,,,,,,,,,,3.0,3.0,Castellano,0.0,Catalan,6.0,Inglés,6.0,3.0,1.0,yes,no,no,flauta,6,canto,6,,,nada :),63.0,yes
129,2024-04-10_18h34.12.387,Experiment4_uns,s176,27.0,feminino,right,españa,castellano,Master degree,no,no,B,2,when,L2,unsyncopated,when,when,1,Online_whenL2//c.cha31.none.wav,to,te,ñu,sil,bi,du,su,sil1,fe,me,sil2,['-'],,,none,none,,,,cha,3,,,,,,,,,,,,,,,3.0,3.0,Castellano,0.0,Catalan,6.0,Inglés,6.0,3.0,1.0,yes,no,no,flauta,6,canto,6,,,nada :),63.0,yes
130,2024-04-10_18h34.12.387,Experiment4_uns,s176,27.0,feminino,right,españa,castellano,Master degree,no,no,B,2,when,L2,unsyncopated,when,when,2,Online_whenL2//c.cha28.0.wav,cha,fe,to,sil,ba,ñu,me,sil1,go,te,sil2,['catch'],[0.689299999998866],[0.689299999998866],0.0,beat,0.689299999998866,0.689299999998866,"[""space""]",cha,3,,,,,,,,,,,,,,,3.0,3.0,Castellano,0.0,Catalan,6.0,Inglés,6.0,3.0,1.0,yes,no,no,flauta,6,canto,6,,,nada :),63.0,yes
131,2024-04-10_18h34.12.387,Experiment4_uns,s176,27.0,feminino,right,españa,castellano,Master degree,no,no,B,2,when,L2,unsyncopated,when,when,3,Online_whenL2//c.cha30.none.wav,te,mi,to,sil,me,go,si,sil1,ño,du,sil2,['-'],,,none,none,,,,cha,3,,,,,,,,,,,,,,,3.0,3.0,Castellano,0.0,Catalan,6.0,Inglés,6.0,3.0,1.0,yes,no,no,flauta,6,canto,6,,,nada :),63.0,yes
132,2024-04-10_18h34.12.387,Experiment4_uns,s176,27.0,feminino,right,españa,castellano,Master degree,no,no,B,2,when,L2,unsyncopated,when,when,4,Online_whenL2//a.du8.none.wav,ño,su,to,sil,go,te,bi,sil1,ra,si,sil2,['-'],,,none,none,,,,du,1,,,,,,,,,,,,,,,3.0,3.0,Castellano,0.0,Catalan,6.0,Inglés,6.0,3.0,1.0,yes,no,no,flauta,6,canto,6,,,nada :),63.0,yes
133,2024-04-10_18h34.12.387,Experiment4_uns,s176,27.0,feminino,right,españa,castellano,Master degree,no,no,B,2,when,L2,unsyncopated,when,when,5,Online_whenL2//a.du9.1332.wav,bi,cha,su,sil,ñu,ba,du,sil1,ra,me,sil2,['catch'],[2.131800000000567],[2.131800000000567],1.332,no_beat,0.7998000000005667,0.7998000000005667,"[""space""]",du,1,,,,,,,,,,,,,,,3.0,3.0,Castellano,0.0,Catalan,6.0,Inglés,6.0,3.0,1.0,yes,no,no,flauta,6,canto,6,,,nada :),63.0,yes
134,2024-04-10_18h34.12.387,Experiment4_uns,s176,27.0,feminino,right,españa,castellano,Master degree,no,no,B,2,when,L2,unsyncopated,when,when,6,Online_whenL2//a.du10.none.wav,cha,ño,to,sil,ra,bi,fe,sil1,ba,mi,sil2,['-'],,,none,none,,,,du,1,,,,,,,,,,,,,,,3.0,3.0,Castellano,0.0,Catalan,6.0,Inglés,6.0,3.0,1.0,yes,no,no,flauta,6,canto,6,,,nada :),63.0,yes
135,2024-04-10_18h34.12.387,Experiment4_uns,s176,27.0,feminino,right,españa,castellano,Master degree,no,no,B,2,when,L2,unsyncopated,when,when,7,Online_whenL2//a.du11.1998.wav,me,te,go,sil,mi,ñu,si,sil1,bi,du,sil2,['catch_delay'],[1.1309999999999183],[1.1309999999999183],1.998,no_beat,1.1309999999999183,1.1309999999999183,,du,1,,,,,,,,,,,,,,,3.0,3.0,Castellano,0.0,Catalan,6.0,Inglés,6.0,3.0,1.0,yes,no,no,flauta,6,canto,6,,,nada :),63.0,yes
136,2024-04-10_18h34.12.387,Experiment4_uns,s176,27.0,feminino,right,españa,castellano,Master degree,no,no,B,2,when,L2,unsyncopated,when,when,8,Online_whenL2//c.cha2.none.wav,si,me,ra,sil,bi,te,ño,sil1,go,to,sil2,['-'],[0.46499999999991815],[0.46499999999991815],none,none,,,"[""space""]",cha,3,,,,,,,,,,,,,,,3.0,3.0,Castellano,0.0,Catalan,6.0,Inglés,6.0,3.0,1.0,yes,no,no,flauta,6,canto,6,,,nada :),63.0,yes
137,2024-04-10_18h34.12.387,Experiment4_uns,s176,27.0,feminino,right,españa,castellano,Master degree,no,no,B,2,when,L2,unsyncopated,when,when,9,Online_whenL2//c.cha1.1332.wav,bi,ba,te,sil,me,ñu,cha,sil1,go,fe,sil2,['catch'],[2.008900000000267],[2.008900000000267],1.332,no_beat,0.676900000000267,0.676900000000267,"[""space""]",cha,3,,,,,,,,,,,,,,,3.0,3.0,Castellano,0.0,Catalan,6.0,Inglés,6.0,3.0,1.0,yes,no,no,flauta,6,canto,6,,,nada :),63.0,yes
138,2024-04-10_18h34.12.387,Experiment4_uns,s176,27.0,feminino,right,españa,castellano,Master degree,no,no,B,2,when,L2,unsyncopated,when,when,10,Online_whenL2//c.cha3.1998.wav,te,to,bi,sil,du,ra,ño,sil1,su,cha,sil2,['catch_delay'],[0.742000000000022],[0.742000000000022],1.998,no_beat,0.742000000000022,0.742000000000022,,cha,3,,,,,,,,,,,,,,,3.0,3.0,Castellano,0.0,Catalan,6.0,Inglés,6.0,3.0,1.0,yes,no,no,flauta,6,canto,6,,,nada :),63.0,yes
139,2024-04-10_18h34.12.387,Experiment4_uns,s176,27.0,feminino,right,españa,castellano,Master degree,no,no,B,2,when,L2,unsyncopated,when,when,11,Online_whenL2//c.cha0.1332.wav,mi,ñu,bi,sil,fe,to,cha,sil1,ra,su,sil2,['catch'],"[0.07600000000002183, 2.280400000000327]",[2.280400000000327],1.332,no_beat,0.948400000000327,0.948400000000327,"[""space"",""space""]",cha,3,,,,,,,,,,,,,,,3.0,3.0,Castellano,0.0,Catalan,6.0,Inglés,6.0,3.0,1.0,yes,no,no,flauta,6,canto,6,,,nada :),63.0,yes
140,2024-04-10_18h34.12.387,Experiment4_uns,s176,27.0,feminino,right,españa,castellano,Master degree,no,no,B,2,when,L2,unsyncopated,when,when,12,Online_whenL2//b.fe33.none.wav,to,du,mi,sil,go,te,ñu,sil1,bi,me,sil2,['-'],,,none,none,,,,fe,2,,,,,,,,,,,,,,,3.0,3.0,Castellano,0.0,Catalan,6.0,Inglés,6.0,3.0,1.0,yes,no,no,flauta,6,canto,6,,,nada :),63.0,yes
141,2024-04-10_18h34.12.387,Experiment4_uns,s176,27.0,feminino,right,españa,castellano,Master degree,no,no,B,2,when,L2,unsyncopated,when,when,13,Online_whenL2//b.fe35.1998.wav,ra,su,si,sil,to,ba,bi,sil1,me,fe,sil2,['catch_delay'],[0.781400000000591],[0.781400000000591],1.998,no_beat,0.781400000000591,0.781400000000591,,fe,2,,,,,,,,,,,,,,,3.0,3.0,Castellano,0.0,Catalan,6.0,Inglés,6.0,3.0,1.0,yes,no,no,flauta,6,canto,6,,,nada :),63.0,yes
142,2024-04-10_18h34.12.387,Experiment4_uns,s176,27.0,feminino,right,españa,castellano,Master degree,no,no,B,2,when,L2,unsyncopated,when,when,14,Online_whenL2//b.fe32.222.wav,ño,fe,te,sil,ñu,bi,su,sil1,mi,go,sil2,['catch'],"[0.11540000000059081, 1.1913000000008651]",[1.1913000000008651],0.222,no_beat,0.9693000000008652,0.9693000000008652,"[""space"",""space""]",fe,2,,,,,,,,,,,,,,,3.0,3.0,Castellano,0.0,Catalan,6.0,Inglés,6.0,3.0,1.0,yes,no,no,flauta,6,canto,6,,,nada :),63.0,yes
143,2024-04-10_18h34.12.387,Experiment4_uns,s176,27.0,feminino,right,españa,castellano,Master degree,no,no,B,2,when,L2,unsyncopated,when,when,15,Online_whenL2//b.fe34.1776.wav,si,go,mi,sil,ba,ñu,me,sil1,fe,ño,sil2,['catch'],[2.490599999999631],[2.490599999999631],1.776,beat,0.7145999999996311,0.7145999999996311,"[""space""]",fe,2,,,,,,,,,,,,,,,3.0,3.0,Castellano,0.0,Catalan,6.0,Inglés,6.0,3.0,1.0,yes,no,no,flauta,6,canto,6,,,nada :),63.0,yes
144,2024-04-10_18h34.12.387,Experiment4_uns,s176,27.0,feminino,right,españa,castellano,Master degree,no,no,B,2,when,L2,unsyncopated,when,when,16,Online_whenL2//a.du20.none.wav,su,go,te,sil,ra,si,bi,sil1,ñu,cha,sil2,['-'],,,none,none,,,,du,1,,,,,,,,,,,,,,,3.0,3.0,Castellano,0.0,Catalan,6.0,Inglés,6.0,3.0,1.0,yes,no,no,flauta,6,canto,6,,,nada :),63.0,yes
145,2024-04-10_18h34.12.387,Experiment4_uns,s176,27.0,feminino,right,españa,castellano,Master degree,no,no,B,2,when,L2,unsyncopated,when,when,17,Online_whenL2//a.du23.888.wav,si,fe,to,sil,du,su,ño,sil1,me,ba,sil2,['catch'],[1.716099999999642],[1.716099999999642],0.888,beat,0.828099999999642,0.828099999999642,"[""space""]",du,1,,,,,,,,,,,,,,,3.0,3.0,Castellano,0.0,Catalan,6.0,Inglés,6.0,3.0,1.0,yes,no,no,flauta,6,canto,6,,,nada :),63.0,yes
146,2024-04-10_18h34.12.387,Experiment4_uns,s176,27.0,feminino,right,españa,castellano,Master degree,no,no,B,2,when,L2,unsyncopated,when,when,18,Online_whenL2//a.du22.444.wav,me,fe,du,sil,to,ba,te,sil1,su,ñu,sil2,['catch'],[1.3009000000004107],[1.3009000000004107],0.444,no_beat,0.8569000000004108,0.8569000000004108,"[""space""]",du,1,,,,,,,,,,,,,,,3.0,3.0,Castellano,0.0,Catalan,6.0,Inglés,6.0,3.0,1.0,yes,no,no,flauta,6,canto,6,,,nada :),63.0,yes
147,2024-04-10_18h34.12.387,Experiment4_uns,s176,27.0,feminino,right,españa,castellano,Master degree,no,no,B,2,when,L2,unsyncopated,when,when,19,Online_whenL2//a.du21.none.wav,cha,si,bi,sil,ñu,ra,ño,sil1,ba,go,sil2,['-'],,,none,none,,,,du,1,,,,,,,,,,,,,,,3.0,3.0,Castellano,0.0,Catalan,6.0,Inglés,6.0,3.0,1.0,yes,no,no,flauta,6,canto,6,,,nada :),63.0,yes
148,2024-04-10_18h34.12.387,Experiment4_uns,s176,27.0,feminino,right,españa,castellano,Master degree,no,no,B,2,when,L2,unsyncopated,when,when,20,Online_whenL2//d.si19.none.wav,bi,mi,su,sil,me,cha,du,sil1,fe,te,sil2,['-'],,,none,none,,,,si,4,,,,,,,,,,,,,,,3.0,3.0,Castellano,0.0,Catalan,6.0,Inglés,6.0,3.0,1.0,yes,no,no,flauta,6,canto,6,,,nada :),63.0,yes
149,2024-04-10_18h34.12.387,Experiment4_uns,s176,27.0,feminino,right,españa,castellano,Master degree,no,no,B,2,when,L2,unsyncopated,when,when,21,Online_whenL2//d.si18.222.wav,ñu,si,bi,sil,cha,du,me,sil1,fe,ño,sil2,['catch'],[0.9511999999992895],[0.9511999999992895],0.222,no_beat,0.7291999999992895,0.7291999999992895,"[""space""]",si,4,,,,,,,,,,,,,,,3.0,3.0,Castellano,0.0,Catalan,6.0,Inglés,6.0,3.0,1.0,yes,no,no,flauta,6,canto,6,,,nada :),63.0,yes
150,2024-04-10_18h34.12.387,Experiment4_uns,s176,27.0,feminino,right,españa,castellano,Master degree,no,no,B,2,when,L2,unsyncopated,when,when,22,Online_whenL2//d.si17.none.wav,mi,su,to,sil,go,ño,du,sil1,cha,ñu,sil2,['-'],,,none,none,,,,si,4,,,,,,,,,,,,,,,3.0,3.0,Castellano,0.0,Catalan,6.0,Inglés,6.0,3.0,1.0,yes,no,no,flauta,6,canto,6,,,nada :),63.0,yes
151,2024-04-10_18h34.12.387,Experiment4_uns,s176,27.0,feminino,right,españa,castellano,Master degree,no,no,B,2,when,L2,unsyncopated,when,when,23,Online_whenL2//d.si16.none.wav,su,fe,mi,sil,ño,te,me,sil1,du,ba,sil2,['-'],,,none,none,,,,si,4,,,,,,,,,,,,,,,3.0,3.0,Castellano,0.0,Catalan,6.0,Inglés,6.0,3.0,1.0,yes,no,no,flauta,6,canto,6,,,nada :),63.0,yes
152,2024-04-10_18h34.12.387,Experiment4_uns,s176,27.0,feminino,right,españa,castellano,Master degree,no,no,B,2,when,L2,unsyncopated,when,when,24,Online_whenL2//a.du29.1998.wav,ra,ño,su,sil,bi,si,mi,sil1,me,du,sil2,['catch_delay'],[0.8145000000000129],[0.8145000000000129],1.998,no_beat,0.8145000000000129,0.8145000000000129,,du,1,,,,,,,,,,,,,,,3.0,3.0,Castellano,0.0,Catalan,6.0,Inglés,6.0,3.0,1.0,yes,no,no,flauta,6,canto,6,,,nada :),63.0,yes
153,2024-04-10_18h34.12.387,Experiment4_uns,s176,27.0,feminino,right,españa,castellano,Master degree,no,no,B,2,when,L2,unsyncopated,when,when,25,Online_whenL2//a.du30.none.wav,fe,bi,to,sil,cha,su,ra,sil1,ño,ba,sil2,['-'],[0.14850000000001273],[0.14850000000001273],none,none,,,"[""space""]",du,1,,,,,,,,,,,,,,,3.0,3.0,Castellano,0.0,Catalan,6.0,Inglés,6.0,3.0,1.0,yes,no,no,flauta,6,canto,6,,,nada :),63.0,yes
154,2024-04-10_18h34.12.387,Experiment4_uns,s176,27.0,feminino,right,españa,castellano,Master degree,no,no,B,2,when,L2,unsyncopated,when,when,26,Online_whenL2//a.du28.none.wav,ño,te,to,sil,go,ba,ra,sil1,su,bi,sil2,['-'],,,none,none,,,,du,1,,,,,,,,,,,,,,,3.0,3.0,Castellano,0.0,Catalan,6.0,Inglés,6.0,3.0,1.0,yes,no,no,flauta,6,canto,6,,,nada :),63.0,yes
155,2024-04-10_18h34.12.387,Experiment4_uns,s176,27.0,feminino,right,españa,castellano,Master degree,no,no,B,2,when,L2,unsyncopated,when,when,27,Online_whenL2//a.du31.222.wav,ba,du,go,sil,to,si,cha,sil1,mi,bi,sil2,['miss'],,,0.222,no_beat,,,,du,1,,,,,,,,,,,,,,,3.0,3.0,Castellano,0.0,Catalan,6.0,Inglés,6.0,3.0,1.0,yes,no,no,flauta,6,canto,6,,,nada :),63.0,yes
156,2024-04-10_18h34.12.387,Experiment4_uns,s176,27.0,feminino,right,españa,castellano,Master degree,no,no,B,2,when,L2,unsyncopated,when,when,28,Online_whenL2//c.cha10.444.wav,mi,su,cha,sil,si,me,go,sil1,ra,ñu,sil2,['catch'],[1.1377999999988333],[1.1377999999988333],0.444,no_beat,0.6937999999988333,0.6937999999988333,"[""space""]",cha,3,,,,,,,,,,,,,,,3.0,3.0,Castellano,0.0,Catalan,6.0,Inglés,6.0,3.0,1.0,yes,no,no,flauta,6,canto,6,,,nada :),63.0,yes
157,2024-04-10_18h34.12.387,Experiment4_uns,s176,27.0,feminino,right,españa,castellano,Master degree,no,no,B,2,when,L2,unsyncopated,when,when,29,Online_whenL2//c.cha9.none.wav,go,ba,ñu,sil,bi,fe,to,sil1,mi,ño,sil2,['-'],,,none,none,,,,cha,3,,,,,,,,,,,,,,,3.0,3.0,Castellano,0.0,Catalan,6.0,Inglés,6.0,3.0,1.0,yes,no,no,flauta,6,canto,6,,,nada :),63.0,yes
158,2024-04-10_18h34.12.387,Experiment4_uns,s176,27.0,feminino,right,españa,castellano,Master degree,no,no,B,2,when,L2,unsyncopated,when,when,30,Online_whenL2//c.cha8.none.wav,mi,si,to,sil,ra,ba,ño,sil1,du,su,sil2,['-'],,,none,none,,,,cha,3,,,,,,,,,,,,,,,3.0,3.0,Castellano,0.0,Catalan,6.0,Inglés,6.0,3.0,1.0,yes,no,no,flauta,6,canto,6,,,nada :),63.0,yes
159,2024-04-10_18h34.12.387,Experiment4_uns,s176,27.0,feminino,right,españa,castellano,Master degree,no,no,B,2,when,L2,unsyncopated,when,when,31,Online_whenL2//c.cha11.1998.wav,bi,te,ra,sil,si,su,ñu,sil1,go,cha,sil2,['catch_delay'],[0.706300000000798],[0.706300000000798],1.998,no_beat,0.706300000000798,0.706300000000798,,cha,3,,,,,,,,,,,,,,,3.0,3.0,Castellano,0.0,Catalan,6.0,Inglés,6.0,3.0,1.0,yes,no,no,flauta,6,canto,6,,,nada :),63.0,yes
160,2024-04-10_18h34.12.387,Experiment4_uns,s176,27.0,feminino,right,españa,castellano,Master degree,no,no,B,2,when,L2,unsyncopated,when,when,32,Online_whenL2//c.cha18.1776.wav,ra,ñu,ño,sil,si,to,te,sil1,cha,du,sil2,['catch_delay'],[1.0893000000006288],[1.0893000000006288],1.776,beat,1.0893000000006288,1.0893000000006288,"[""space""]",cha,3,,,,,,,,,,,,,,,3.0,3.0,Castellano,0.0,Catalan,6.0,Inglés,6.0,3.0,1.0,yes,no,no,flauta,6,canto,6,,,nada :),63.0,yes
161,2024-04-10_18h34.12.387,Experiment4_uns,s176,27.0,feminino,right,españa,castellano,Master degree,no,no,B,2,when,L2,unsyncopated,when,when,33,Online_whenL2//c.cha19.1998.wav,go,si,du,sil,ñu,to,ba,sil1,te,cha,sil2,['miss'],[0.20130000000062864],[0.20130000000062864],1.998,no_beat,,,"[""space""]",cha,3,,,,,,,,,,,,,,,3.0,3.0,Castellano,0.0,Catalan,6.0,Inglés,6.0,3.0,1.0,yes,no,no,flauta,6,canto,6,,,nada :),63.0,yes
162,2024-04-10_18h34.12.387,Experiment4_uns,s176,27.0,feminino,right,españa,castellano,Master degree,no,no,B,2,when,L2,unsyncopated,when,when,34,Online_whenL2//c.cha17.none.wav,te,ñu,su,sil,mi,go,me,sil1,ra,si,sil2,['false alarm'],[0.8645999999996548],[0.8645999999996548],none,none,,,"[""space""]",cha,3,,,,,,,,,,,,,,,3.0,3.0,Castellano,0.0,Catalan,6.0,Inglés,6.0,3.0,1.0,yes,no,no,flauta,6,canto,6,,,nada :),63.0,yes
163,2024-04-10_18h34.12.387,Experiment4_uns,s176,27.0,feminino,right,españa,castellano,Master degree,no,no,B,2,when,L2,unsyncopated,when,when,35,Online_whenL2//c.cha16.none.wav,te,su,to,sil,du,ra,me,sil1,si,mi,sil2,['-'],,,none,none,,,,cha,3,,,,,,,,,,,,,,,3.0,3.0,Castellano,0.0,Catalan,6.0,Inglés,6.0,3.0,1.0,yes,no,no,flauta,6,canto,6,,,nada :),63.0,yes
164,2024-04-10_18h34.12.387,Experiment4_uns,s176,27.0,feminino,right,españa,castellano,Master degree,no,no,B,2,when,L2,unsyncopated,when,when,36,Online_whenL2//a.du2.0.wav,du,me,si,sil,mi,to,go,sil1,cha,bi,sil2,['catch'],[0.9249000000004344],[0.9249000000004344],0.0,beat,0.9249000000004344,0.9249000000004344,"[""space""]",du,1,,,,,,,,,,,,,,,3.0,3.0,Castellano,0.0,Catalan,6.0,Inglés,6.0,3.0,1.0,yes,no,no,flauta,6,canto,6,,,nada :),63.0,yes
165,2024-04-10_18h34.12.387,Experiment4_uns,s176,27.0,feminino,right,españa,castellano,Master degree,no,no,B,2,when,L2,unsyncopated,when,when,37,Online_whenL2//a.du3.none.wav,me,mi,te,sil,cha,go,ñu,sil1,fe,si,sil2,['-'],,,none,none,,,,du,1,,,,,,,,,,,,,,,3.0,3.0,Castellano,0.0,Catalan,6.0,Inglés,6.0,3.0,1.0,yes,no,no,flauta,6,canto,6,,,nada :),63.0,yes
166,2024-04-10_18h34.12.387,Experiment4_uns,s176,27.0,feminino,right,españa,castellano,Master degree,no,no,B,2,when,L2,unsyncopated,when,when,38,Online_whenL2//a.du1.none.wav,bi,si,fe,sil,mi,ra,ba,sil1,su,me,sil2,['-'],,,none,none,,,,du,1,,,,,,,,,,,,,,,3.0,3.0,Castellano,0.0,Catalan,6.0,Inglés,6.0,3.0,1.0,yes,no,no,flauta,6,canto,6,,,nada :),63.0,yes
167,2024-04-10_18h34.12.387,Experiment4_uns,s176,27.0,feminino,right,españa,castellano,Master degree,no,no,B,2,when,L2,unsyncopated,when,when,39,Online_whenL2//a.du0.888.wav,ñu,ba,ra,sil,du,su,ño,sil1,cha,te,sil2,['miss'],,,0.888,beat,,,,du,1,,,,,,,,,,,,,,,3.0,3.0,Castellano,0.0,Catalan,6.0,Inglés,6.0,3.0,1.0,yes,no,no,flauta,6,canto,6,,,nada :),63.0,yes
168,2024-04-10_18h34.12.387,Experiment4_uns,s176,27.0,feminino,right,españa,castellano,Master degree,no,no,B,2,when,L2,unsyncopated,when,when,40,Online_whenL2//b.fe2.1332.wav,ñu,bi,mi,sil,ra,cha,fe,sil1,ba,si,sil2,['catch'],[2.407099999999673],[2.407099999999673],1.332,no_beat,1.0750999999996729,1.0750999999996729,"[""space""]",fe,2,,,,,,,,,,,,,,,3.0,3.0,Castellano,0.0,Catalan,6.0,Inglés,6.0,3.0,1.0,yes,no,no,flauta,6,canto,6,,,nada :),63.0,yes
169,2024-04-10_18h34.12.387,Experiment4_uns,s176,27.0,feminino,right,españa,castellano,Master degree,no,no,B,2,when,L2,unsyncopated,when,when,41,Online_whenL2//b.fe3.1110.wav,me,mi,ñu,sil,bi,fe,si,sil1,to,go,sil2,['miss'],,,1.11,no_beat,,,,fe,2,,,,,,,,,,,,,,,3.0,3.0,Castellano,0.0,Catalan,6.0,Inglés,6.0,3.0,1.0,yes,no,no,flauta,6,canto,6,,,nada :),63.0,yes
170,2024-04-10_18h34.12.387,Experiment4_uns,s176,27.0,feminino,right,españa,castellano,Master degree,no,no,B,2,when,L2,unsyncopated,when,when,42,Online_whenL2//b.fe1.none.wav,du,te,ba,sil,ra,mi,cha,sil1,ñu,to,sil2,['-'],,,none,none,,,,fe,2,,,,,,,,,,,,,,,3.0,3.0,Castellano,0.0,Catalan,6.0,Inglés,6.0,3.0,1.0,yes,no,no,flauta,6,canto,6,,,nada :),63.0,yes
171,2024-04-10_18h34.12.387,Experiment4_uns,s176,27.0,feminino,right,españa,castellano,Master degree,no,no,B,2,when,L2,unsyncopated,when,when,43,Online_whenL2//b.fe0.none.wav,te,go,to,sil,si,ra,ño,sil1,cha,su,sil2,['false alarm'],[1.149499999999989],[1.149499999999989],none,none,,,"[""space""]",fe,2,,,,,,,,,,,,,,,3.0,3.0,Castellano,0.0,Catalan,6.0,Inglés,6.0,3.0,1.0,yes,no,no,flauta,6,canto,6,,,nada :),63.0,yes
172,2024-04-10_18h34.12.387,Experiment4_uns,s176,27.0,feminino,right,españa,castellano,Master degree,no,no,B,2,when,L2,unsyncopated,when,when,44,Online_whenL2//c.cha4.222.wav,bi,cha,ñu,sil,su,mi,du,sil1,si,fe,sil2,['catch'],[1.00850000000014],[1.00850000000014],0.222,no_beat,0.7865000000001401,0.7865000000001401,"[""space""]",cha,3,,,,,,,,,,,,,,,3.0,3.0,Castellano,0.0,Catalan,6.0,Inglés,6.0,3.0,1.0,yes,no,no,flauta,6,canto,6,,,nada :),63.0,yes
173,2024-04-10_18h34.12.387,Experiment4_uns,s176,27.0,feminino,right,españa,castellano,Master degree,no,no,B,2,when,L2,unsyncopated,when,when,45,Online_whenL2//c.cha5.none.wav,bi,mi,to,sil,su,fe,te,sil1,du,si,sil2,['-'],,,none,none,,,,cha,3,,,,,,,,,,,,,,,3.0,3.0,Castellano,0.0,Catalan,6.0,Inglés,6.0,3.0,1.0,yes,no,no,flauta,6,canto,6,,,nada :),63.0,yes
174,2024-04-10_18h34.12.387,Experiment4_uns,s176,27.0,feminino,right,españa,castellano,Master degree,no,no,B,2,when,L2,unsyncopated,when,when,46,Online_whenL2//c.cha6.none.wav,ño,bi,su,sil,ñu,to,si,sil1,du,go,sil2,['-'],,,none,none,,,,cha,3,,,,,,,,,,,,,,,3.0,3.0,Castellano,0.0,Catalan,6.0,Inglés,6.0,3.0,1.0,yes,no,no,flauta,6,canto,6,,,nada :),63.0,yes
175,2024-04-10_18h34.12.387,Experiment4_uns,s176,27.0,feminino,right,españa,castellano,Master degree,no,no,B,2,when,L2,unsyncopated,when,when,47,Online_whenL2//c.cha7.none.wav,ba,to,bi,sil,ño,du,si,sil1,mi,fe,sil2,['-'],,,none,none,,,,cha,3,,,,,,,,,,,,,,,3.0,3.0,Castellano,0.0,Catalan,6.0,Inglés,6.0,3.0,1.0,yes,no,no,flauta,6,canto,6,,,nada :),63.0,yes
176,2024-04-10_18h34.12.387,Experiment4_uns,s176,27.0,feminino,right,españa,castellano,Master degree,no,no,B,2,when,L2,unsyncopated,when,when,48,Online_whenL2//d.si7.none.wav,go,cha,te,sil,fe,ñu,ba,sil1,mi,to,sil2,['-'],,,none,none,,,,si,4,,,,,,,,,,,,,,,3.0,3.0,Castellano,0.0,Catalan,6.0,Inglés,6.0,3.0,1.0,yes,no,no,flauta,6,canto,6,,,nada :),63.0,yes
177,2024-04-10_18h34.12.387,Experiment4_uns,s176,27.0,feminino,right,españa,castellano,Master degree,no,no,B,2,when,L2,unsyncopated,when,when,49,Online_whenL2//d.si5.1332.wav,to,fe,ra,sil,me,cha,si,sil1,su,te,sil2,['catch'],[2.0938000000007833],[2.0938000000007833],1.332,no_beat,0.7618000000007832,0.7618000000007832,"[""space""]",si,4,,,,,,,,,,,,,,,3.0,3.0,Castellano,0.0,Catalan,6.0,Inglés,6.0,3.0,1.0,yes,no,no,flauta,6,canto,6,,,nada :),63.0,yes
178,2024-04-10_18h34.12.387,Experiment4_uns,s176,27.0,feminino,right,españa,castellano,Master degree,no,no,B,2,when,L2,unsyncopated,when,when,50,Online_whenL2//d.si6.1776.wav,te,cha,du,sil,fe,ño,me,sil1,si,bi,sil2,['catch_delay'],[1.152700000001085],[1.152700000001085],1.776,beat,1.152700000001085,1.152700000001085,,si,4,,,,,,,,,,,,,,,3.0,3.0,Castellano,0.0,Catalan,6.0,Inglés,6.0,3.0,1.0,yes,no,no,flauta,6,canto,6,,,nada :),63.0,yes
179,2024-04-10_18h34.12.387,Experiment4_uns,s176,27.0,feminino,right,españa,castellano,Master degree,no,no,B,2,when,L2,unsyncopated,when,when,51,Online_whenL2//d.si4.444.wav,to,ra,si,sil,me,ñu,go,sil1,ño,mi,sil2,['catch'],"[0.26470000000108485, 1.6493000000007214]",[1.6493000000007214],0.444,no_beat,,1.2053000000007217,"[""space"",""space""]",si,4,,,,,,,,,,,,,,,3.0,3.0,Castellano,0.0,Catalan,6.0,Inglés,6.0,3.0,1.0,yes,no,no,flauta,6,canto,6,,,nada :),63.0,yes
180,2024-04-10_18h34.12.387,Experiment4_uns,s176,27.0,feminino,right,españa,castellano,Master degree,no,no,B,2,when,L2,unsyncopated,when,when,52,Online_whenL2//d.si11.none.wav,to,mi,me,sil,ra,ñu,cha,sil1,su,du,sil2,['-'],,,none,none,,,,si,4,,,,,,,,,,,,,,,3.0,3.0,Castellano,0.0,Catalan,6.0,Inglés,6.0,3.0,1.0,yes,no,no,flauta,6,canto,6,,,nada :),63.0,yes
181,2024-04-10_18h34.12.387,Experiment4_uns,s176,27.0,feminino,right,españa,castellano,Master degree,no,no,B,2,when,L2,unsyncopated,when,when,53,Online_whenL2//d.si8.none.wav,ñu,su,fe,sil,ra,ño,me,sil1,cha,mi,sil2,['-'],,,none,none,,,,si,4,,,,,,,,,,,,,,,3.0,3.0,Castellano,0.0,Catalan,6.0,Inglés,6.0,3.0,1.0,yes,no,no,flauta,6,canto,6,,,nada :),63.0,yes
182,2024-04-10_18h34.12.387,Experiment4_uns,s176,27.0,feminino,right,españa,castellano,Master degree,no,no,B,2,when,L2,unsyncopated,when,when,54,Online_whenL2//d.si10.none.wav,to,bi,fe,sil,me,mi,ra,sil1,ba,cha,sil2,['-'],,,none,none,,,,si,4,,,,,,,,,,,,,,,3.0,3.0,Castellano,0.0,Catalan,6.0,Inglés,6.0,3.0,1.0,yes,no,no,flauta,6,canto,6,,,nada :),63.0,yes
183,2024-04-10_18h34.12.387,Experiment4_uns,s176,27.0,feminino,right,españa,castellano,Master degree,no,no,B,2,when,L2,unsyncopated,when,when,55,Online_whenL2//d.si9.none.wav,du,su,to,sil,ba,ra,mi,sil1,te,ño,sil2,['-'],,,none,none,,,,si,4,,,,,,,,,,,,,,,3.0,3.0,Castellano,0.0,Catalan,6.0,Inglés,6.0,3.0,1.0,yes,no,no,flauta,6,canto,6,,,nada :),63.0,yes
184,2024-04-10_18h34.12.387,Experiment4_uns,s176,27.0,feminino,right,españa,castellano,Master degree,no,no,B,2,when,L2,unsyncopated,when,when,56,Online_whenL2//d.si23.none.wav,to,mi,ba,sil,go,du,ñu,sil1,te,ño,sil2,['-'],,,none,none,,,,si,4,,,,,,,,,,,,,,,3.0,3.0,Castellano,0.0,Catalan,6.0,Inglés,6.0,3.0,1.0,yes,no,no,flauta,6,canto,6,,,nada :),63.0,yes
185,2024-04-10_18h34.12.387,Experiment4_uns,s176,27.0,feminino,right,españa,castellano,Master degree,no,no,B,2,when,L2,unsyncopated,when,when,57,Online_whenL2//d.si20.1998.wav,ba,mi,ñu,sil,cha,to,go,sil1,ra,si,sil2,['catch_delay'],[0.8351999999991369],[0.8351999999991369],1.998,no_beat,0.8351999999991369,0.8351999999991369,,si,4,,,,,,,,,,,,,,,3.0,3.0,Castellano,0.0,Catalan,6.0,Inglés,6.0,3.0,1.0,yes,no,no,flauta,6,canto,6,,,nada :),63.0,yes
186,2024-04-10_18h34.12.387,Experiment4_uns,s176,27.0,feminino,right,españa,castellano,Master degree,no,no,B,2,when,L2,unsyncopated,when,when,58,Online_whenL2//d.si22.none.wav,te,du,fe,sil,cha,su,ñu,sil1,me,ba,sil2,['-'],[0.1691999999991367],[0.1691999999991367],none,none,,,"[""space""]",si,4,,,,,,,,,,,,,,,3.0,3.0,Castellano,0.0,Catalan,6.0,Inglés,6.0,3.0,1.0,yes,no,no,flauta,6,canto,6,,,nada :),63.0,yes
187,2024-04-10_18h34.12.387,Experiment4_uns,s176,27.0,feminino,right,españa,castellano,Master degree,no,no,B,2,when,L2,unsyncopated,when,when,59,Online_whenL2//d.si21.none.wav,te,me,bi,sil,go,ñu,to,sil1,ra,ño,sil2,['-'],,,none,none,,,,si,4,,,,,,,,,,,,,,,3.0,3.0,Castellano,0.0,Catalan,6.0,Inglés,6.0,3.0,1.0,yes,no,no,flauta,6,canto,6,,,nada :),63.0,yes
188,2024-04-10_18h34.12.387,Experiment4_uns,s176,27.0,feminino,right,españa,castellano,Master degree,no,no,B,2,when,L2,unsyncopated,when,when,60,Online_whenL2//c.cha22.none.wav,ra,to,mi,sil,bi,te,ba,sil1,fe,ñu,sil2,['-'],,,none,none,,,,cha,3,,,,,,,,,,,,,,,3.0,3.0,Castellano,0.0,Catalan,6.0,Inglés,6.0,3.0,1.0,yes,no,no,flauta,6,canto,6,,,nada :),63.0,yes
189,2024-04-10_18h34.12.387,Experiment4_uns,s176,27.0,feminino,right,españa,castellano,Master degree,no,no,B,2,when,L2,unsyncopated,when,when,61,Online_whenL2//c.cha21.1998.wav,si,du,ñu,sil,mi,go,to,sil1,ño,cha,sil2,['catch_delay'],[0.964000000000002],[0.964000000000002],1.998,no_beat,0.964000000000002,0.964000000000002,,cha,3,,,,,,,,,,,,,,,3.0,3.0,Castellano,0.0,Catalan,6.0,Inglés,6.0,3.0,1.0,yes,no,no,flauta,6,canto,6,,,nada :),63.0,yes
190,2024-04-10_18h34.12.387,Experiment4_uns,s176,27.0,feminino,right,españa,castellano,Master degree,no,no,B,2,when,L2,unsyncopated,when,when,62,Online_whenL2//c.cha23.none.wav,me,ba,fe,sil,ño,ñu,mi,sil1,go,te,sil2,['-'],[0.2980000000000018],[0.2980000000000018],none,none,,,"[""space""]",cha,3,,,,,,,,,,,,,,,3.0,3.0,Castellano,0.0,Catalan,6.0,Inglés,6.0,3.0,1.0,yes,no,no,flauta,6,canto,6,,,nada :),63.0,yes
191,2024-04-10_18h34.12.387,Experiment4_uns,s176,27.0,feminino,right,españa,castellano,Master degree,no,no,B,2,when,L2,unsyncopated,when,when,63,Online_whenL2//c.cha20.none.wav,fe,ño,mi,sil,ra,su,ba,sil1,ñu,to,sil2,['-'],,,none,none,,,,cha,3,,,,,,,,,,,,,,,3.0,3.0,Castellano,0.0,Catalan,6.0,Inglés,6.0,3.0,1.0,yes,no,no,flauta,6,canto,6,,,nada :),63.0,yes
192,2024-04-10_18h34.12.387,Experiment4_uns,s176,27.0,feminino,right,españa,castellano,Master degree,no,no,B,2,when,L2,unsyncopated,when,when,64,Online_whenL2//b.fe4.0.wav,fe,ra,ño,sil,to,ba,cha,sil1,si,te,sil2,['catch'],[1.5843000000006668],[1.5843000000006668],0.0,beat,,1.5843000000006668,"[""space""]",fe,2,,,,,,,,,,,,,,,3.0,3.0,Castellano,0.0,Catalan,6.0,Inglés,6.0,3.0,1.0,yes,no,no,flauta,6,canto,6,,,nada :),63.0,yes
193,2024-04-10_18h34.12.387,Experiment4_uns,s176,27.0,feminino,right,españa,castellano,Master degree,no,no,B,2,when,L2,unsyncopated,when,when,65,Online_whenL2//b.fe6.1998.wav,du,su,ñu,sil,cha,ba,to,sil1,te,fe,sil2,['catch_delay'],[0.9050000000000329],[0.9050000000000329],1.998,no_beat,0.9050000000000328,0.9050000000000328,,fe,2,,,,,,,,,,,,,,,3.0,3.0,Castellano,0.0,Catalan,6.0,Inglés,6.0,3.0,1.0,yes,no,no,flauta,6,canto,6,,,nada :),63.0,yes
194,2024-04-10_18h34.12.387,Experiment4_uns,s176,27.0,feminino,right,españa,castellano,Master degree,no,no,B,2,when,L2,unsyncopated,when,when,66,Online_whenL2//b.fe7.1998.wav,ba,si,du,sil,cha,ño,bi,sil1,mi,fe,sil2,['catch_delay'],[0.8277000000012469],[0.8277000000012469],1.998,no_beat,0.8277000000012469,0.8277000000012469,"[""space""]",fe,2,,,,,,,,,,,,,,,3.0,3.0,Castellano,0.0,Catalan,6.0,Inglés,6.0,3.0,1.0,yes,no,no,flauta,6,canto,6,,,nada :),63.0,yes
195,2024-04-10_18h34.12.387,Experiment4_uns,s176,27.0,feminino,right,españa,castellano,Master degree,no,no,B,2,when,L2,unsyncopated,when,when,67,Online_whenL2//b.fe5.1332.wav,si,cha,bi,sil,ñu,su,fe,sil1,ra,te,sil2,['catch'],"[0.16170000000124674, 2.411800000000767]",[2.411800000000767],1.332,no_beat,1.0798000000007668,1.0798000000007668,"[""space"",""space""]",fe,2,,,,,,,,,,,,,,,3.0,3.0,Castellano,0.0,Catalan,6.0,Inglés,6.0,3.0,1.0,yes,no,no,flauta,6,canto,6,,,nada :),63.0,yes
196,2024-04-10_18h34.12.387,Experiment4_uns,s176,27.0,feminino,right,españa,castellano,Master degree,no,no,B,2,when,L2,unsyncopated,when,when,68,Online_whenL2//a.du35.none.wav,to,ñu,su,sil,ba,cha,fe,sil1,ño,go,sil2,['-'],,,none,none,,,,du,1,,,,,,,,,,,,,,,3.0,3.0,Castellano,0.0,Catalan,6.0,Inglés,6.0,3.0,1.0,yes,no,no,flauta,6,canto,6,,,nada :),63.0,yes
197,2024-04-10_18h34.12.387,Experiment4_uns,s176,27.0,feminino,right,españa,castellano,Master degree,no,no,B,2,when,L2,unsyncopated,when,when,69,Online_whenL2//a.du32.none.wav,to,fe,ñu,sil,cha,te,go,sil1,ño,si,sil2,['-'],,,none,none,,,,du,1,,,,,,,,,,,,,,,3.0,3.0,Castellano,0.0,Catalan,6.0,Inglés,6.0,3.0,1.0,yes,no,no,flauta,6,canto,6,,,nada :),63.0,yes
198,2024-04-10_18h34.12.387,Experiment4_uns,s176,27.0,feminino,right,españa,castellano,Master degree,no,no,B,2,when,L2,unsyncopated,when,when,70,Online_whenL2//a.du34.1110.wav,ba,ñu,fe,sil,si,du,ño,sil1,te,su,sil2,['miss'],,,1.11,no_beat,,,,du,1,,,,,,,,,,,,,,,3.0,3.0,Castellano,0.0,Catalan,6.0,Inglés,6.0,3.0,1.0,yes,no,no,flauta,6,canto,6,,,nada :),63.0,yes
199,2024-04-10_18h34.12.387,Experiment4_uns,s176,27.0,feminino,right,españa,castellano,Master degree,no,no,B,2,when,L2,unsyncopated,when,when,71,Online_whenL2//a.du33.1110.wav,te,su,si,sil,to,du,fe,sil1,mi,me,sil2,['miss'],,,1.11,no_beat,,,,du,1,,,,,,,,,,,,,,,3.0,3.0,Castellano,0.0,Catalan,6.0,Inglés,6.0,3.0,1.0,yes,no,no,flauta,6,canto,6,,,nada :),63.0,yes
200,2024-04-10_18h34.12.387,Experiment4_uns,s176,27.0,feminino,right,españa,castellano,Master degree,no,no,B,2,when,L2,unsyncopated,when,when,72,Online_whenL2//a.du18.none.wav,go,fe,te,sil,si,cha,ba,sil1,ño,to,sil2,['-'],,,none,none,,,,du,1,,,,,,,,,,,,,,,3.0,3.0,Castellano,0.0,Catalan,6.0,Inglés,6.0,3.0,1.0,yes,no,no,flauta,6,canto,6,,,nada :),63.0,yes
201,2024-04-10_18h34.12.387,Experiment4_uns,s176,27.0,feminino,right,españa,castellano,Master degree,no,no,B,2,when,L2,unsyncopated,when,when,73,Online_whenL2//a.du16.none.wav,ñu,te,to,sil,su,me,si,sil1,ra,fe,sil2,['-'],,,none,none,,,,du,1,,,,,,,,,,,,,,,3.0,3.0,Castellano,0.0,Catalan,6.0,Inglés,6.0,3.0,1.0,yes,no,no,flauta,6,canto,6,,,nada :),63.0,yes
202,2024-04-10_18h34.12.387,Experiment4_uns,s176,27.0,feminino,right,españa,castellano,Master degree,no,no,B,2,when,L2,unsyncopated,when,when,74,Online_whenL2//a.du17.none.wav,ra,go,su,sil,me,si,cha,sil1,bi,te,sil2,['-'],,,none,none,,,,du,1,,,,,,,,,,,,,,,3.0,3.0,Castellano,0.0,Catalan,6.0,Inglés,6.0,3.0,1.0,yes,no,no,flauta,6,canto,6,,,nada :),63.0,yes
203,2024-04-10_18h34.12.387,Experiment4_uns,s176,27.0,feminino,right,españa,castellano,Master degree,no,no,B,2,when,L2,unsyncopated,when,when,75,Online_whenL2//a.du19.none.wav,su,ñu,to,sil,bi,fe,me,sil1,ño,go,sil2,['-'],,,none,none,,,,du,1,,,,,,,,,,,,,,,3.0,3.0,Castellano,0.0,Catalan,6.0,Inglés,6.0,3.0,1.0,yes,no,no,flauta,6,canto,6,,,nada :),63.0,yes
204,2024-04-10_18h34.12.387,Experiment4_uns,s176,27.0,feminino,right,españa,castellano,Master degree,no,no,B,2,when,L2,unsyncopated,when,when,76,Online_whenL2//d.si30.none.wav,me,ba,cha,sil,ño,te,bi,sil1,du,go,sil2,['-'],,,none,none,,,,si,4,,,,,,,,,,,,,,,3.0,3.0,Castellano,0.0,Catalan,6.0,Inglés,6.0,3.0,1.0,yes,no,no,flauta,6,canto,6,,,nada :),63.0,yes
205,2024-04-10_18h34.12.387,Experiment4_uns,s176,27.0,feminino,right,españa,castellano,Master degree,no,no,B,2,when,L2,unsyncopated,when,when,77,Online_whenL2//d.si29.888.wav,cha,me,su,sil,si,mi,te,sil1,ra,go,sil2,['catch'],[1.6900000000000546],[1.6900000000000546],0.888,beat,0.8020000000000546,0.8020000000000546,"[""space""]",si,4,,,,,,,,,,,,,,,3.0,3.0,Castellano,0.0,Catalan,6.0,Inglés,6.0,3.0,1.0,yes,no,no,flauta,6,canto,6,,,nada :),63.0,yes
206,2024-04-10_18h34.12.387,Experiment4_uns,s176,27.0,feminino,right,españa,castellano,Master degree,no,no,B,2,when,L2,unsyncopated,when,when,78,Online_whenL2//d.si28.888.wav,ñu,fe,bi,sil,si,cha,to,sil1,du,ba,sil2,['catch'],[1.8092999999989843],[1.8092999999989843],0.888,beat,0.9212999999989844,0.9212999999989844,"[""space""]",si,4,,,,,,,,,,,,,,,3.0,3.0,Castellano,0.0,Catalan,6.0,Inglés,6.0,3.0,1.0,yes,no,no,flauta,6,canto,6,,,nada :),63.0,yes
207,2024-04-10_18h34.12.387,Experiment4_uns,s176,27.0,feminino,right,españa,castellano,Master degree,no,no,B,2,when,L2,unsyncopated,when,when,79,Online_whenL2//d.si31.none.wav,su,ba,te,sil,ra,ño,to,sil1,mi,go,sil2,['-'],,,none,none,,,,si,4,,,,,,,,,,,,,,,3.0,3.0,Castellano,0.0,Catalan,6.0,Inglés,6.0,3.0,1.0,yes,no,no,flauta,6,canto,6,,,nada :),63.0,yes
208,2024-04-10_18h34.12.387,Experiment4_uns,s176,27.0,feminino,right,españa,castellano,Master degree,no,no,B,2,when,L2,unsyncopated,when,when,80,Online_whenL2//a.du13.0.wav,du,ño,to,sil,me,ra,mi,sil1,bi,ba,sil2,['catch'],[1.094599999999673],[1.094599999999673],0.0,beat,1.094599999999673,1.094599999999673,"[""space""]",du,1,,,,,,,,,,,,,,,3.0,3.0,Castellano,0.0,Catalan,6.0,Inglés,6.0,3.0,1.0,yes,no,no,flauta,6,canto,6,,,nada :),63.0,yes
209,2024-04-10_18h34.12.387,Experiment4_uns,s176,27.0,feminino,right,españa,castellano,Master degree,no,no,B,2,when,L2,unsyncopated,when,when,81,Online_whenL2//a.du12.none.wav,si,bi,fe,sil,ño,mi,su,sil1,ra,me,sil2,['-'],,,none,none,,,,du,1,,,,,,,,,,,,,,,3.0,3.0,Castellano,0.0,Catalan,6.0,Inglés,6.0,3.0,1.0,yes,no,no,flauta,6,canto,6,,,nada :),63.0,yes
210,2024-04-10_18h34.12.387,Experiment4_uns,s176,27.0,feminino,right,españa,castellano,Master degree,no,no,B,2,when,L2,unsyncopated,when,when,82,Online_whenL2//a.du14.none.wav,ño,to,bi,sil,ra,mi,me,sil1,ba,fe,sil2,['-'],,,none,none,,,,du,1,,,,,,,,,,,,,,,3.0,3.0,Castellano,0.0,Catalan,6.0,Inglés,6.0,3.0,1.0,yes,no,no,flauta,6,canto,6,,,nada :),63.0,yes
211,2024-04-10_18h34.12.387,Experiment4_uns,s176,27.0,feminino,right,españa,castellano,Master degree,no,no,B,2,when,L2,unsyncopated,when,when,83,Online_whenL2//a.du15.1998.wav,su,si,me,sil,ño,te,mi,sil1,go,du,sil2,['miss'],,,1.998,no_beat,,,,du,1,,,,,,,,,,,,,,,3.0,3.0,Castellano,0.0,Catalan,6.0,Inglés,6.0,3.0,1.0,yes,no,no,flauta,6,canto,6,,,nada :),63.0,yes
212,2024-04-10_18h34.12.387,Experiment4_uns,s176,27.0,feminino,right,españa,castellano,Master degree,no,no,B,2,when,L2,unsyncopated,when,when,84,Online_whenL2//d.si27.1110.wav,fe,te,ñu,sil,ño,si,mi,sil1,me,go,sil2,['catch'],[1.8854000000003452],[1.8854000000003452],1.11,no_beat,0.7754000000003451,0.7754000000003451,"[""space""]",si,4,,,,,,,,,,,,,,,3.0,3.0,Castellano,0.0,Catalan,6.0,Inglés,6.0,3.0,1.0,yes,no,no,flauta,6,canto,6,,,nada :),63.0,yes
213,2024-04-10_18h34.12.387,Experiment4_uns,s176,27.0,feminino,right,españa,castellano,Master degree,no,no,B,2,when,L2,unsyncopated,when,when,85,Online_whenL2//d.si26.none.wav,ra,ño,cha,sil,to,su,bi,sil1,ñu,fe,sil2,['-'],,,none,none,,,,si,4,,,,,,,,,,,,,,,3.0,3.0,Castellano,0.0,Catalan,6.0,Inglés,6.0,3.0,1.0,yes,no,no,flauta,6,canto,6,,,nada :),63.0,yes
214,2024-04-10_18h34.12.387,Experiment4_uns,s176,27.0,feminino,right,españa,castellano,Master degree,no,no,B,2,when,L2,unsyncopated,when,when,86,Online_whenL2//d.si25.none.wav,ño,ra,me,sil,to,go,te,sil1,su,mi,sil2,['-'],,,none,none,,,,si,4,,,,,,,,,,,,,,,3.0,3.0,Castellano,0.0,Catalan,6.0,Inglés,6.0,3.0,1.0,yes,no,no,flauta,6,canto,6,,,nada :),63.0,yes
215,2024-04-10_18h34.12.387,Experiment4_uns,s176,27.0,feminino,right,españa,castellano,Master degree,no,no,B,2,when,L2,unsyncopated,when,when,87,Online_whenL2//d.si24.1332.wav,me,du,bi,sil,ñu,cha,si,sil1,ra,su,sil2,['catch'],[2.499400000000378],[2.499400000000378],1.332,no_beat,1.167400000000378,1.167400000000378,"[""space""]",si,4,,,,,,,,,,,,,,,3.0,3.0,Castellano,0.0,Catalan,6.0,Inglés,6.0,3.0,1.0,yes,no,no,flauta,6,canto,6,,,nada :),63.0,yes
216,2024-04-10_18h34.12.387,Experiment4_uns,s176,27.0,feminino,right,españa,castellano,Master degree,no,no,B,2,when,L2,unsyncopated,when,when,88,Online_whenL2//a.du7.0.wav,du,ño,te,sil,ñu,to,mi,sil1,su,fe,sil2,['miss'],,,0.0,beat,,,,du,1,,,,,,,,,,,,,,,3.0,3.0,Castellano,0.0,Catalan,6.0,Inglés,6.0,3.0,1.0,yes,no,no,flauta,6,canto,6,,,nada :),63.0,yes
217,2024-04-10_18h34.12.387,Experiment4_uns,s176,27.0,feminino,right,españa,castellano,Master degree,no,no,B,2,when,L2,unsyncopated,when,when,89,Online_whenL2//a.du5.1110.wav,bi,ño,ra,sil,ba,du,mi,sil1,to,ñu,sil2,['catch'],[2.2753000000006978],[2.2753000000006978],1.11,no_beat,1.1653000000006977,1.1653000000006977,"[""space""]",du,1,,,,,,,,,,,,,,,3.0,3.0,Castellano,0.0,Catalan,6.0,Inglés,6.0,3.0,1.0,yes,no,no,flauta,6,canto,6,,,nada :),63.0,yes
218,2024-04-10_18h34.12.387,Experiment4_uns,s176,27.0,feminino,right,españa,castellano,Master degree,no,no,B,2,when,L2,unsyncopated,when,when,90,Online_whenL2//a.du4.1998.wav,cha,si,go,sil,mi,ñu,me,sil1,su,du,sil2,['catch_delay'],[0.8358999999985064],[0.8358999999985064],1.998,no_beat,0.8358999999985064,0.8358999999985064,,du,1,,,,,,,,,,,,,,,3.0,3.0,Castellano,0.0,Catalan,6.0,Inglés,6.0,3.0,1.0,yes,no,no,flauta,6,canto,6,,,nada :),63.0,yes
219,2024-04-10_18h34.12.387,Experiment4_uns,s176,27.0,feminino,right,españa,castellano,Master degree,no,no,B,2,when,L2,unsyncopated,when,when,91,Online_whenL2//a.du6.888.wav,me,si,bi,sil,du,mi,cha,sil1,te,fe,sil2,['catch'],"[0.16989999999850625, 1.6549999999999727]",[1.6549999999999727],0.888,beat,0.7669999999999727,0.7669999999999727,"[""space"",""space""]",du,1,,,,,,,,,,,,,,,3.0,3.0,Castellano,0.0,Catalan,6.0,Inglés,6.0,3.0,1.0,yes,no,no,flauta,6,canto,6,,,nada :),63.0,yes
220,2024-04-10_18h34.12.387,Experiment4_uns,s176,27.0,feminino,right,españa,castellano,Master degree,no,no,B,2,when,L2,unsyncopated,when,when,92,Online_whenL2//b.fe14.none.wav,ra,du,ba,sil,to,bi,su,sil1,te,ñu,sil2,['-'],,,none,none,,,,fe,2,,,,,,,,,,,,,,,3.0,3.0,Castellano,0.0,Catalan,6.0,Inglés,6.0,3.0,1.0,yes,no,no,flauta,6,canto,6,,,nada :),63.0,yes
221,2024-04-10_18h34.12.387,Experiment4_uns,s176,27.0,feminino,right,españa,castellano,Master degree,no,no,B,2,when,L2,unsyncopated,when,when,93,Online_whenL2//b.fe13.none.wav,te,su,ra,sil,si,go,ba,sil1,me,mi,sil2,['-'],,,none,none,,,,fe,2,,,,,,,,,,,,,,,3.0,3.0,Castellano,0.0,Catalan,6.0,Inglés,6.0,3.0,1.0,yes,no,no,flauta,6,canto,6,,,nada :),63.0,yes
222,2024-04-10_18h34.12.387,Experiment4_uns,s176,27.0,feminino,right,españa,castellano,Master degree,no,no,B,2,when,L2,unsyncopated,when,when,94,Online_whenL2//b.fe12.none.wav,su,si,te,sil,cha,go,ñu,sil1,to,du,sil2,['-'],,,none,none,,,,fe,2,,,,,,,,,,,,,,,3.0,3.0,Castellano,0.0,Catalan,6.0,Inglés,6.0,3.0,1.0,yes,no,no,flauta,6,canto,6,,,nada :),63.0,yes
223,2024-04-10_18h34.12.387,Experiment4_uns,s176,27.0,feminino,right,españa,castellano,Master degree,no,no,B,2,when,L2,unsyncopated,when,when,95,Online_whenL2//b.fe15.none.wav,ño,su,to,sil,du,me,go,sil1,cha,mi,sil2,['-'],,,none,none,,,,fe,2,,,,,,,,,,,,,,,3.0,3.0,Castellano,0.0,Catalan,6.0,Inglés,6.0,3.0,1.0,yes,no,no,flauta,6,canto,6,,,nada :),63.0,yes
224,2024-04-10_18h34.12.387,Experiment4_uns,s176,27.0,feminino,right,españa,castellano,Master degree,no,no,B,2,when,L2,unsyncopated,when,when,96,Online_whenL2//d.si0.none.wav,ño,fe,go,sil,bi,te,cha,sil1,mi,to,sil2,['-'],,,none,none,,,,si,4,,,,,,,,,,,,,,,3.0,3.0,Castellano,0.0,Catalan,6.0,Inglés,6.0,3.0,1.0,yes,no,no,flauta,6,canto,6,,,nada :),63.0,yes
225,2024-04-10_18h34.12.387,Experiment4_uns,s176,27.0,feminino,right,españa,castellano,Master degree,no,no,B,2,when,L2,unsyncopated,when,when,97,Online_whenL2//d.si2.0.wav,si,me,fe,sil,to,ba,ñu,sil1,su,ra,sil2,['catch'],[0.7940000000000964],[0.7940000000000964],0.0,beat,0.7940000000000964,0.7940000000000964,"[""space""]",si,4,,,,,,,,,,,,,,,3.0,3.0,Castellano,0.0,Catalan,6.0,Inglés,6.0,3.0,1.0,yes,no,no,flauta,6,canto,6,,,nada :),63.0,yes
