Unnamed: 0,date,expName,participant,age,sex,hand,residence,native_lang,education_level,lang_deficit,aud_deficit,group,block,condition,language,rhythm,rule structure online,rule type online,order_trial_on,trial_online,s1,s2,s3,s4,s5,s6,s7,s8,s9,s10,s11,catch_syll_resp,rts_syll_catch,clean_rts,time_syll,beat_no_beat,catch_rtsTR,catch_rts,syllable_catch.keys,cond_syll,syll_to_catch,test_offline,block_off,condition_off,rhythm_off,rule,rule_str_off,rule_norule,conds_offline,language_off,Partz_no_partm.keys,Partz_no_partm.rt,security_1_7.keys,accuracy,security_1_7.rt,n_lang,n_lang_used,lang_1,age_l1,lang_2,age_l2,ability_learn_l2,tendence_mix_lan,music_experience,muisc_use,partiture,instr_1,age_M1,preguntas_musica1,BMRQ_answer.response,final comment,BMRQ_Score,bilingual
0,2024-05-08_17h24.01.915,Unsyncopated_study3,s150,29.0,masculino,right,España,Español,Master degree,no,no,A,1,conjunction_syn,L2,syncopated,s2,r1,0,Online_conjL2_syn//b.fe.ra23.none.none.wav,me,su,bi,go,sil,ñu,mi,du,sil1,si,sil2,['-'],,,none,none,,,,fe,1,testConjL2Syn//r1.s2.2.wav,1.0,conjunction_syn,syncopated,a,s2,rule,rule,L2,z,1.4195,7.0,1.0,6.6176,2.0,2.0,Español,0.0,Inglés,6.0,4.0,1.0,no,no,no,Flauta ,5,1. Cuando comparto música con alguien siento una complicidad especial con aquella persona.,3.0,EL cuarto lenguaje ha costado un poco más estar atento por la cantidad de estímulo abstracto,61.0,yes
1,2024-05-08_17h24.01.915,Unsyncopated_study3,s150,29.0,masculino,right,España,Español,Master degree,no,no,A,1,conjunction_syn,L2,syncopated,s2,r2,1,Online_conjL2_syn//b.fe.ra20.666.1554.wav,si,ño,cha,fe,sil,to,me,ra,sil1,su,sil2,['catch'],[1.2190999999046426],[1.2190999999046426],0.666,no_beat,0.5530999999046425,0.5530999999046425,"[""space""]",fe,1,testConjL2Syn//time_viol.r1.s1.0.wav,1.0,conjunction_syn,syncopated,a,s1,no_rule,time,L2,z,0.8342,7.0,0.0,2.2684,2.0,2.0,Español,0.0,Inglés,6.0,4.0,1.0,no,no,no,Flauta ,5,2. En mi tiempo libre apenas escucho música.,4.0,EL cuarto lenguaje ha costado un poco más estar atento por la cantidad de estímulo abstracto,61.0,yes
2,2024-05-08_17h24.01.915,Unsyncopated_study3,s150,29.0,masculino,right,España,Español,Master degree,no,no,A,1,conjunction_syn,L2,syncopated,s2,r1,2,Online_conjL2_syn//b.fe.ra22.none.none.wav,cha,ño,me,go,sil,ñu,to,du,sil1,mi,sil2,['-'],,,none,none,,,,fe,1,testConjL2Syn//r2.s2.1.wav,1.0,conjunction_syn,syncopated,b,s2,rule,rule,L2,z,2.3019,7.0,1.0,2.4677,2.0,2.0,Español,0.0,Inglés,6.0,4.0,1.0,no,no,no,Flauta ,5,3. Algunas canciones me ponen los pelos de punta,4.0,EL cuarto lenguaje ha costado un poco más estar atento por la cantidad de estímulo abstracto,61.0,yes
3,2024-05-08_17h24.01.915,Unsyncopated_study3,s150,29.0,masculino,right,España,Español,Master degree,no,no,A,1,conjunction_syn,L2,syncopated,s1,r1,3,Online_conjL2_syn//b.fe.ra21.none.none.wav,go,bi,cha,du,sil,te,me,mi,sil1,ba,sil2,['-'],,,none,none,,,,fe,1,testConjL2Syn//r2.s1.1.wav,1.0,conjunction_syn,syncopated,b,s1,rule,rule,L2,z,0.9504,7.0,1.0,2.499,2.0,2.0,Español,0.0,Inglés,6.0,4.0,1.0,no,no,no,Flauta ,5,4. La música me hace compañía cuando estoy solo,4.0,EL cuarto lenguaje ha costado un poco más estar atento por la cantidad de estímulo abstracto,61.0,yes
4,2024-05-08_17h24.01.915,Unsyncopated_study3,s150,29.0,masculino,right,España,Español,Master degree,no,no,A,1,conjunction_syn,L2,syncopated,s1,r2,4,Online_conjL2_syn//d.si.ñu11.none.none.wav,fe,me,ño,ra,sil,su,to,cha,sil1,bi,sil2,['false alarm'],[0.7182999999523645],[0.7182999999523645],none,none,,,"[""space""]",si,4,testConjL2Syn//r2.s2.2.wav,1.0,conjunction_syn,syncopated,b,s2,rule,rule,L2,z,1.5165,6.0,1.0,2.7344,2.0,2.0,Español,0.0,Inglés,6.0,4.0,1.0,no,no,no,Flauta ,5,5. No me apetece bailar ni con la música que más me gusta,4.0,EL cuarto lenguaje ha costado un poco más estar atento por la cantidad de estímulo abstracto,61.0,yes
5,2024-05-08_17h24.01.915,Unsyncopated_study3,s150,29.0,masculino,right,España,Español,Master degree,no,no,A,1,conjunction_syn,L2,syncopated,s1,r2,5,Online_conjL2_syn//d.si.ñu8.none.none.wav,fe,ba,bi,ra,sil,cha,ño,te,sil1,mi,sil2,['-'],,,none,none,,,,si,4,testConjL2Syn//r2.s1.0.wav,1.0,conjunction_syn,syncopated,b,s1,rule,rule,L2,z,1.0522,6.0,1.0,2.1175,2.0,2.0,Español,0.0,Inglés,6.0,4.0,1.0,no,no,no,Flauta ,5,6. La música me hace conectar con la gente,3.0,EL cuarto lenguaje ha costado un poco más estar atento por la cantidad de estímulo abstracto,61.0,yes
6,2024-05-08_17h24.01.915,Unsyncopated_study3,s150,29.0,masculino,right,España,Español,Master degree,no,no,A,1,conjunction_syn,L2,syncopated,s1,r2,6,Online_conjL2_syn//d.si.ñu9.1110.1332.wav,fe,te,ño,ra,sil,si,ñu,bi,sil1,cha,sil2,['catch'],[1.64520000004768],[1.64520000004768],1.11,no_beat,0.53520000004768,0.53520000004768,"[""space""]",si,4,testConjL2Syn//dep_viol.r1.s2.0.wav,1.0,conjunction_syn,syncopated,a,s2,no_rule,dep,L2,z,1.6489,5.0,0.0,2.5163,2.0,2.0,Español,0.0,Inglés,6.0,4.0,1.0,no,no,no,Flauta ,5,7. Me informo sobre la música que me gusta.,3.0,EL cuarto lenguaje ha costado un poco más estar atento por la cantidad de estímulo abstracto,61.0,yes
7,2024-05-08_17h24.01.915,Unsyncopated_study3,s150,29.0,masculino,right,España,Español,Master degree,no,no,A,1,conjunction_syn,L2,syncopated,s2,r1,7,Online_conjL2_syn//d.si.ñu10.none.none.wav,ño,te,me,go,sil,su,to,du,sil1,ba,sil2,['-'],,,none,none,,,,si,4,testConjL2Syn//r2.s1.2.wav,1.0,conjunction_syn,syncopated,b,s1,rule,rule,L2,m,1.9267,5.0,0.0,2.4854,2.0,2.0,Español,0.0,Inglés,6.0,4.0,1.0,no,no,no,Flauta ,5,8.Me emociono escuchando ciertas canciones.,4.0,EL cuarto lenguaje ha costado un poco más estar atento por la cantidad de estímulo abstracto,61.0,yes
8,2024-05-08_17h24.01.915,Unsyncopated_study3,s150,29.0,masculino,right,España,Español,Master degree,no,no,A,1,conjunction_syn,L2,syncopated,s1,r2,8,Online_conjL2_syn//a.go.du5.none.none.wav,fe,ñu,cha,ra,sil,te,ño,ba,sil1,si,sil2,['-'],,,none,none,,,,du,2,testConjL2Syn//r2.s2.0.wav,1.0,conjunction_syn,syncopated,b,s2,rule,rule,L2,z,0.6053,6.0,1.0,2.0855,2.0,2.0,Español,0.0,Inglés,6.0,4.0,1.0,no,no,no,Flauta ,5,9.La música me tranquiliza y me relaja.,3.0,EL cuarto lenguaje ha costado un poco más estar atento por la cantidad de estímulo abstracto,61.0,yes
9,2024-05-08_17h24.01.915,Unsyncopated_study3,s150,29.0,masculino,right,España,Español,Master degree,no,no,A,1,conjunction_syn,L2,syncopated,s1,r2,9,Online_conjL2_syn//a.go.du7.none.none.wav,fe,mi,ñu,ra,sil,ño,ba,me,sil1,su,sil2,['-'],,,none,none,,,,du,2,testConjL2Syn//cat_viol.r2.s2.0.wav,1.0,conjunction_syn,syncopated,b,s2,no_rule,cat,L2,z,0.6522,6.0,0.0,1.3689,2.0,2.0,Español,0.0,Inglés,6.0,4.0,1.0,no,no,no,Flauta ,5,10.La música me hace bailar,3.0,EL cuarto lenguaje ha costado un poco más estar atento por la cantidad de estímulo abstracto,61.0,yes
10,2024-05-08_17h24.01.915,Unsyncopated_study3,s150,29.0,masculino,right,España,Español,Master degree,no,no,A,1,conjunction_syn,L2,syncopated,s1,r1,10,Online_conjL2_syn//a.go.du6.0.666.wav,go,bi,to,du,sil,me,su,ba,sil1,te,sil2,['catch'],[1.2649999999999864],[1.2649999999999864],0.666,no_beat,0.5989999999999863,0.5989999999999863,"[""space""]",du,2,testConjL2Syn//r1.s2.0.wav,1.0,conjunction_syn,syncopated,a,s2,rule,rule,L2,z,0.5862,5.0,1.0,4.0427,2.0,2.0,Español,0.0,Inglés,6.0,4.0,1.0,no,no,no,Flauta ,5,11.Busco novedades musicales continuamente,1.0,EL cuarto lenguaje ha costado un poco más estar atento por la cantidad de estímulo abstracto,61.0,yes
11,2024-05-08_17h24.01.915,Unsyncopated_study3,s150,29.0,masculino,right,España,Español,Master degree,no,no,A,1,conjunction_syn,L2,syncopated,s2,r1,11,Online_conjL2_syn//a.go.du4.666.1554.wav,mi,si,te,go,sil,ño,to,du,sil1,ñu,sil2,['catch'],[2.2564000000953683],[2.2564000000953683],1.554,no_beat,0.7024000000953683,0.7024000000953683,"[""space""]",du,2,testConjL2Syn//r1.s1.0.wav,1.0,conjunction_syn,syncopated,a,s1,rule,rule,L2,m,4.5079,5.0,0.0,1.5507,2.0,2.0,Español,0.0,Inglés,6.0,4.0,1.0,no,no,no,Flauta ,5,12. Puedo llorar cuando escucho algunas melodías que me gustan mucho.,3.0,EL cuarto lenguaje ha costado un poco más estar atento por la cantidad de estímulo abstracto,61.0,yes
12,2024-05-08_17h24.01.915,Unsyncopated_study3,s150,29.0,masculino,right,España,Español,Master degree,no,no,A,1,conjunction_syn,L2,syncopated,s2,r1,12,Online_conjL2_syn//c.cha.me19.none.none.wav,te,ño,ba,go,sil,ñu,si,du,sil1,bi,sil2,['-'],,,none,none,,,,cha,3,testConjL2Syn//dep_viol.r2.s2.0.wav,1.0,conjunction_syn,syncopated,b,s2,no_rule,dep,L2,m,1.5575,6.0,1.0,1.8651,2.0,2.0,Español,0.0,Inglés,6.0,4.0,1.0,no,no,no,Flauta ,5,13. Me gusta cantar o tocar un instrumento con más gente,3.0,EL cuarto lenguaje ha costado un poco más estar atento por la cantidad de estímulo abstracto,61.0,yes
13,2024-05-08_17h24.01.915,Unsyncopated_study3,s150,29.0,masculino,right,España,Español,Master degree,no,no,A,1,conjunction_syn,L2,syncopated,s2,r1,13,Online_conjL2_syn//c.cha.me16.none.none.wav,mi,ñu,ba,go,sil,to,ño,du,sil1,si,sil2,['-'],,,none,none,,,,cha,3,testConjL2Syn//r1.s2.1.wav,1.0,conjunction_syn,syncopated,a,s2,rule,rule,L2,m,1.7247,6.0,0.0,1.5347,2.0,2.0,Español,0.0,Inglés,6.0,4.0,1.0,no,no,no,Flauta ,5,14. La música me ayuda a desconectar.,3.0,EL cuarto lenguaje ha costado un poco más estar atento por la cantidad de estímulo abstracto,61.0,yes
14,2024-05-08_17h24.01.915,Unsyncopated_study3,s150,29.0,masculino,right,España,Español,Master degree,no,no,A,1,conjunction_syn,L2,syncopated,s1,r2,14,Online_conjL2_syn//c.cha.me17.1110.222.wav,fe,me,ñu,ra,sil,cha,ba,mi,sil1,te,sil2,['catch'],[1.6538000001906994],[1.6538000001906994],1.11,no_beat,0.5438000001906993,0.5438000001906993,"[""space""]",cha,3,testConjL2Syn//cat_viol.r1.s2.0.wav,1.0,conjunction_syn,syncopated,a,s2,no_rule,cat,L2,z,3.4668,5.0,0.0,1.8751,2.0,2.0,Español,0.0,Inglés,6.0,4.0,1.0,no,no,no,Flauta ,5,15. No puedo evitar tararear las canciones que me gustan cuando las escucho.,3.0,EL cuarto lenguaje ha costado un poco más estar atento por la cantidad de estímulo abstracto,61.0,yes
15,2024-05-08_17h24.01.915,Unsyncopated_study3,s150,29.0,masculino,right,España,Español,Master degree,no,no,A,1,conjunction_syn,L2,syncopated,s1,r1,15,Online_conjL2_syn//c.cha.me18.1332.222.wav,go,me,to,du,sil,te,cha,mi,sil1,si,sil2,['catch'],[1.9840000000000373],[1.9840000000000373],1.332,no_beat,0.6520000000000372,0.6520000000000372,"[""space""]",cha,3,testConjL2Syn//cat_viol.r2.s1.0.wav,1.0,conjunction_syn,syncopated,b,s1,no_rule,cat,L2,z,0.7539,3.0,0.0,1.1396,2.0,2.0,Español,0.0,Inglés,6.0,4.0,1.0,no,no,no,Flauta ,5,16. En los conciertos me siento en sintonía con los artistas y el público.,3.0,EL cuarto lenguaje ha costado un poco más estar atento por la cantidad de estímulo abstracto,61.0,yes
16,2024-05-08_17h24.01.915,Unsyncopated_study3,s150,29.0,masculino,right,España,Español,Master degree,no,no,A,1,conjunction_syn,L2,syncopated,s2,r1,16,Online_conjL2_syn//d.si.ñu13.none.none.wav,bi,te,to,go,sil,ño,cha,du,sil1,me,sil2,['-'],,,none,none,,,,si,4,testConjL2Syn//dep_viol.r2.s1.0.wav,1.0,conjunction_syn,syncopated,b,s1,no_rule,dep,L2,m,2.3209,6.0,1.0,1.1351,2.0,2.0,Español,0.0,Inglés,6.0,4.0,1.0,no,no,no,Flauta ,5,17. Me gasto bastante dinero en música y cosas relacionadas con la música.,1.0,EL cuarto lenguaje ha costado un poco más estar atento por la cantidad de estímulo abstracto,61.0,yes
17,2024-05-08_17h24.01.915,Unsyncopated_study3,s150,29.0,masculino,right,España,Español,Master degree,no,no,A,1,conjunction_syn,L2,syncopated,s1,r2,17,Online_conjL2_syn//d.si.ñu14.none.none.wav,fe,cha,bi,ra,sil,to,mi,me,sil1,ba,sil2,['-'],,,none,none,,,,si,4,testConjL2Syn//time_viol.r2.s2.0.wav,1.0,conjunction_syn,syncopated,b,s2,no_rule,time,L2,z,1.1159,6.0,0.0,1.3173,2.0,2.0,Español,0.0,Inglés,6.0,4.0,1.0,no,no,no,Flauta ,5,18. Siento escalofríos cuando escucho una melodía que me gusta.,3.0,EL cuarto lenguaje ha costado un poco más estar atento por la cantidad de estímulo abstracto,61.0,yes
18,2024-05-08_17h24.01.915,Unsyncopated_study3,s150,29.0,masculino,right,España,Español,Master degree,no,no,A,1,conjunction_syn,L2,syncopated,s2,r1,18,Online_conjL2_syn//d.si.ñu15.none.none.wav,su,ño,ba,go,sil,bi,mi,du,sil1,to,sil2,['-'],,,none,none,,,,si,4,testConjL2Syn//dep_viol.r1.s1.0.wav,1.0,conjunction_syn,syncopated,a,s1,no_rule,dep,L2,z,0.5354,6.0,0.0,1.1509,2.0,2.0,Español,0.0,Inglés,6.0,4.0,1.0,no,no,no,Flauta ,5,19. Con la música me puedo desahogar.,3.0,EL cuarto lenguaje ha costado un poco más estar atento por la cantidad de estímulo abstracto,61.0,yes
19,2024-05-08_17h24.01.915,Unsyncopated_study3,s150,29.0,masculino,right,España,Español,Master degree,no,no,A,1,conjunction_syn,L2,syncopated,s2,r2,19,Online_conjL2_syn//d.si.ñu12.0.222.wav,si,ñu,cha,fe,sil,te,me,ra,sil1,to,sil2,['catch'],[0.6426000001430339],[0.6426000001430339],0.0,beat,0.6426000001430339,0.6426000001430339,"[""space""]",si,4,testConjL2Syn//time_viol.r1.s2.0.wav,1.0,conjunction_syn,syncopated,a,s2,no_rule,time,L2,m,0.7678,7.0,1.0,1.5238,2.0,2.0,Español,0.0,Inglés,6.0,4.0,1.0,no,no,no,Flauta ,5,20. Cuando escucho una melodía que me gusta mucho no puedo evitar mover el cuerpo.,3.0,EL cuarto lenguaje ha costado un poco más estar atento por la cantidad de estímulo abstracto,61.0,yes
20,2024-05-08_17h24.01.915,Unsyncopated_study3,s150,29.0,masculino,right,España,Español,Master degree,no,no,A,1,conjunction_syn,L2,syncopated,s2,r1,20,Online_conjL2_syn//a.go.du19.666.1554.wav,ba,ño,mi,go,sil,me,te,du,sil1,to,sil2,['catch'],[2.2738999998568943],[2.2738999998568943],1.554,no_beat,0.7198999998568942,0.7198999998568942,"[""space""]",du,2,testConjL2Syn//cat_viol.r1.s1.0.wav,1.0,conjunction_syn,syncopated,a,s1,no_rule,cat,L2,z,0.8981,4.0,0.0,1.5677,2.0,2.0,Español,0.0,Inglés,6.0,4.0,1.0,no,no,no,Flauta ,5,,,EL cuarto lenguaje ha costado un poco más estar atento por la cantidad de estímulo abstracto,61.0,yes
21,2024-05-08_17h24.01.915,Unsyncopated_study3,s150,29.0,masculino,right,España,Español,Master degree,no,no,A,1,conjunction_syn,L2,syncopated,s1,r1,21,Online_conjL2_syn//a.go.du17.0.666.wav,go,ba,ño,du,sil,to,si,te,sil1,cha,sil2,['catch'],[1.5767999999523],[1.5767999999523],0.666,no_beat,0.9107999999523,0.9107999999523,"[""space""]",du,2,testConjL2Syn//time_viol.r2.s1.0.wav,1.0,conjunction_syn,syncopated,b,s1,no_rule,time,L2,z,0.5288,6.0,0.0,2.4174,2.0,2.0,Español,0.0,Inglés,6.0,4.0,1.0,no,no,no,Flauta ,5,,,EL cuarto lenguaje ha costado un poco más estar atento por la cantidad de estímulo abstracto,61.0,yes
22,2024-05-08_17h24.01.915,Unsyncopated_study3,s150,29.0,masculino,right,España,Español,Master degree,no,no,A,1,conjunction_syn,L2,syncopated,s2,r2,22,Online_conjL2_syn//a.go.du16.none.none.wav,ño,te,ñu,fe,sil,me,si,ra,sil1,cha,sil2,['-'],,,none,none,,,,du,2,testConjL2Syn//r1.s1.1.wav,1.0,conjunction_syn,syncopated,a,s1,rule,rule,L2,z,1.2065,6.0,1.0,1.2503,2.0,2.0,Español,0.0,Inglés,6.0,4.0,1.0,no,no,no,Flauta ,5,,,EL cuarto lenguaje ha costado un poco más estar atento por la cantidad de estímulo abstracto,61.0,yes
23,2024-05-08_17h24.01.915,Unsyncopated_study3,s150,29.0,masculino,right,España,Español,Master degree,no,no,A,1,conjunction_syn,L2,syncopated,s1,r2,23,Online_conjL2_syn//a.go.du18.none.none.wav,fe,ba,su,ra,sil,cha,mi,to,sil1,ño,sil2,['-'],,,none,none,,,,du,2,testConjL2Syn//r1.s1.2.wav,1.0,conjunction_syn,syncopated,a,s1,rule,rule,L2,z,1.3344,5.0,1.0,2.1013,2.0,2.0,Español,0.0,Inglés,6.0,4.0,1.0,no,no,no,Flauta ,5,,,EL cuarto lenguaje ha costado un poco más estar atento por la cantidad de estímulo abstracto,61.0,yes
24,2024-05-08_17h24.01.915,Unsyncopated_study3,s150,29.0,masculino,right,España,Español,Master degree,no,no,A,1,conjunction_syn,L2,syncopated,s2,r2,24,Online_conjL2_syn//c.cha.me9.none.none.wav,ño,mi,to,fe,sil,si,te,ra,sil1,ñu,sil2,['-'],,,none,none,,,,cha,3,testWhenL1Uns//cat_viol.r1.s2.0.wav,2.0,when,unsyncopated,a,s2,no_rule,cat,L1,z,0.6651,5.0,1.0,1.2843,2.0,2.0,Español,0.0,Inglés,6.0,4.0,1.0,no,no,no,Flauta ,5,,,EL cuarto lenguaje ha costado un poco más estar atento por la cantidad de estímulo abstracto,61.0,yes
25,2024-05-08_17h24.01.915,Unsyncopated_study3,s150,29.0,masculino,right,España,Español,Master degree,no,no,A,1,conjunction_syn,L2,syncopated,s1,r1,25,Online_conjL2_syn//c.cha.me10.none.none.wav,go,te,bi,du,sil,si,ño,ba,sil1,to,sil2,['-'],,,none,none,,,,cha,3,testWhenL1Uns//cat_viol.r2.s2.0.wav,2.0,when,unsyncopated,b,s2,no_rule,cat,L1,z,0.4846,7.0,1.0,1.0939,2.0,2.0,Español,0.0,Inglés,6.0,4.0,1.0,no,no,no,Flauta ,5,,,EL cuarto lenguaje ha costado un poco más estar atento por la cantidad de estímulo abstracto,61.0,yes
26,2024-05-08_17h24.01.915,Unsyncopated_study3,s150,29.0,masculino,right,España,Español,Master degree,no,no,A,1,conjunction_syn,L2,syncopated,s1,r2,26,Online_conjL2_syn//c.cha.me11.1554.1110.wav,fe,mi,ñu,ra,sil,me,si,cha,sil1,ba,sil2,['catch'],[2.072399999856998],[2.072399999856998],1.554,no_beat,0.5183999998569979,0.5183999998569979,"[""space""]",cha,3,testWhenL1Uns//r2.s1.0.wav,2.0,when,unsyncopated,b,s1,rule,rule,L1,m,1.5832,3.0,0.0,1.451,2.0,2.0,Español,0.0,Inglés,6.0,4.0,1.0,no,no,no,Flauta ,5,,,EL cuarto lenguaje ha costado un poco más estar atento por la cantidad de estímulo abstracto,61.0,yes
27,2024-05-08_17h24.01.915,Unsyncopated_study3,s150,29.0,masculino,right,España,Español,Master degree,no,no,A,1,conjunction_syn,L2,syncopated,s2,r2,27,Online_conjL2_syn//c.cha.me8.222.1110.wav,si,cha,to,fe,sil,me,ba,ra,sil1,ñu,sil2,['miss'],,,0.222,no_beat,,,,cha,3,testWhenL1Uns//time_viol.r2.s1.0.wav,2.0,when,unsyncopated,b,s1,no_rule,time,L1,z,0.49,7.0,1.0,1.1003,2.0,2.0,Español,0.0,Inglés,6.0,4.0,1.0,no,no,no,Flauta ,5,,,EL cuarto lenguaje ha costado un poco más estar atento por la cantidad de estímulo abstracto,61.0,yes
28,2024-05-08_17h24.01.915,Unsyncopated_study3,s150,29.0,masculino,right,España,Español,Master degree,no,no,A,1,conjunction_syn,L2,syncopated,s1,r1,28,Online_conjL2_syn//b.fe.ra28.none.none.wav,go,te,ñu,du,sil,ba,mi,me,sil1,ño,sil2,['-'],,,none,none,,,,fe,1,testWhenL1Uns//r1.s1.2.wav,2.0,when,unsyncopated,a,s1,rule,rule,L1,m,1.1831,5.0,0.0,0.8508,2.0,2.0,Español,0.0,Inglés,6.0,4.0,1.0,no,no,no,Flauta ,5,,,EL cuarto lenguaje ha costado un poco más estar atento por la cantidad de estímulo abstracto,61.0,yes
29,2024-05-08_17h24.01.915,Unsyncopated_study3,s150,29.0,masculino,right,España,Español,Master degree,no,no,A,1,conjunction_syn,L2,syncopated,s1,r1,29,Online_conjL2_syn//b.fe.ra29.none.none.wav,go,cha,si,du,sil,bi,to,ñu,sil1,ba,sil2,['-'],,,none,none,,,,fe,1,testWhenL1Uns//time_viol.r1.s1.0.wav,2.0,when,unsyncopated,a,s1,no_rule,time,L1,z,0.3012,6.0,1.0,1.4188,2.0,2.0,Español,0.0,Inglés,6.0,4.0,1.0,no,no,no,Flauta ,5,,,EL cuarto lenguaje ha costado un poco más estar atento por la cantidad de estímulo abstracto,61.0,yes
30,2024-05-08_17h24.01.915,Unsyncopated_study3,s150,29.0,masculino,right,España,Español,Master degree,no,no,A,1,conjunction_syn,L2,syncopated,s2,r2,30,Online_conjL2_syn//b.fe.ra31.666.1554.wav,bi,cha,te,fe,sil,me,ñu,ra,sil1,si,sil2,['catch'],[1.1762999999523345],[1.1762999999523345],0.666,no_beat,0.5102999999523344,0.5102999999523344,"[""space""]",fe,1,testWhenL1Uns//r1.s2.2.wav,2.0,when,unsyncopated,a,s2,rule,rule,L1,m,1.2843,5.0,0.0,0.885,2.0,2.0,Español,0.0,Inglés,6.0,4.0,1.0,no,no,no,Flauta ,5,,,EL cuarto lenguaje ha costado un poco más estar atento por la cantidad de estímulo abstracto,61.0,yes
31,2024-05-08_17h24.01.915,Unsyncopated_study3,s150,29.0,masculino,right,España,Español,Master degree,no,no,A,1,conjunction_syn,L2,syncopated,s1,r2,31,Online_conjL2_syn//b.fe.ra30.0.666.wav,fe,ba,ñu,ra,sil,su,ño,mi,sil1,cha,sil2,['catch'],[0.844799999952329],[0.844799999952329],0.0,beat,0.844799999952329,0.844799999952329,"[""space""]",fe,1,testWhenL1Uns//r2.s1.2.wav,2.0,when,unsyncopated,b,s1,rule,rule,L1,z,0.3058,7.0,1.0,0.9003,2.0,2.0,Español,0.0,Inglés,6.0,4.0,1.0,no,no,no,Flauta ,5,,,EL cuarto lenguaje ha costado un poco más estar atento por la cantidad de estímulo abstracto,61.0,yes
32,2024-05-08_17h24.01.915,Unsyncopated_study3,s150,29.0,masculino,right,España,Español,Master degree,no,no,A,1,conjunction_syn,L2,syncopated,s2,r2,32,Online_conjL2_syn//d.si.ñu26.none.none.wav,ba,su,cha,fe,sil,mi,me,ra,sil1,to,sil2,['-'],,,none,none,,,,si,4,testWhenL1Uns//r1.s1.1.wav,2.0,when,unsyncopated,a,s1,rule,rule,L1,z,0.3911,5.0,1.0,1.3674,2.0,2.0,Español,0.0,Inglés,6.0,4.0,1.0,no,no,no,Flauta ,5,,,EL cuarto lenguaje ha costado un poco más estar atento por la cantidad de estímulo abstracto,61.0,yes
33,2024-05-08_17h24.01.915,Unsyncopated_study3,s150,29.0,masculino,right,España,Español,Master degree,no,no,A,1,conjunction_syn,L2,syncopated,s2,r1,33,Online_conjL2_syn//d.si.ñu27.none.none.wav,cha,ño,ba,go,sil,mi,to,du,sil1,bi,sil2,['-'],,,none,none,,,,si,4,testWhenL1Uns//r1.s1.0.wav,2.0,when,unsyncopated,a,s1,rule,rule,L1,m,0.8825,6.0,0.0,1.2656,2.0,2.0,Español,0.0,Inglés,6.0,4.0,1.0,no,no,no,Flauta ,5,,,EL cuarto lenguaje ha costado un poco más estar atento por la cantidad de estímulo abstracto,61.0,yes
34,2024-05-08_17h24.01.915,Unsyncopated_study3,s150,29.0,masculino,right,España,Español,Master degree,no,no,A,1,conjunction_syn,L2,syncopated,s2,r2,34,Online_conjL2_syn//d.si.ñu25.none.none.wav,mi,to,ño,fe,sil,bi,ba,ra,sil1,su,sil2,['false alarm'],[1.0927999999523763],[1.0927999999523763],none,none,,,"[""space""]",si,4,testWhenL1Uns//cat_viol.r2.s1.0.wav,2.0,when,unsyncopated,b,s1,no_rule,cat,L1,z,0.6333,5.0,1.0,0.9857,2.0,2.0,Español,0.0,Inglés,6.0,4.0,1.0,no,no,no,Flauta ,5,,,EL cuarto lenguaje ha costado un poco más estar atento por la cantidad de estímulo abstracto,61.0,yes
35,2024-05-08_17h24.01.915,Unsyncopated_study3,s150,29.0,masculino,right,España,Español,Master degree,no,no,A,1,conjunction_syn,L2,syncopated,s2,r2,35,Online_conjL2_syn//d.si.ñu24.222.1110.wav,ba,si,cha,fe,sil,ñu,su,ra,sil1,ño,sil2,['catch'],[0.8217999999523045],[0.8217999999523045],0.222,no_beat,0.5997999999523045,0.5997999999523045,"[""space""]",si,4,testWhenL1Uns//r2.s2.2.wav,2.0,when,unsyncopated,b,s2,rule,rule,L1,m,0.6823,4.0,0.0,2.2342,2.0,2.0,Español,0.0,Inglés,6.0,4.0,1.0,no,no,no,Flauta ,5,,,EL cuarto lenguaje ha costado un poco más estar atento por la cantidad de estímulo abstracto,61.0,yes
36,2024-05-08_17h24.01.915,Unsyncopated_study3,s150,29.0,masculino,right,España,Español,Master degree,no,no,A,1,conjunction_syn,L2,syncopated,s1,r1,36,Online_conjL2_syn//a.go.du27.0.666.wav,go,te,ñu,du,sil,bi,ño,su,sil1,me,sil2,['catch'],[1.3886000001430148],[1.3886000001430148],0.666,no_beat,0.7226000001430147,0.7226000001430147,"[""space""]",du,2,testWhenL1Uns//dep_viol.r2.s1.0.wav,2.0,when,unsyncopated,b,s1,no_rule,dep,L1,z,0.4929,6.0,1.0,1.0252,2.0,2.0,Español,0.0,Inglés,6.0,4.0,1.0,no,no,no,Flauta ,5,,,EL cuarto lenguaje ha costado un poco más estar atento por la cantidad de estímulo abstracto,61.0,yes
37,2024-05-08_17h24.01.915,Unsyncopated_study3,s150,29.0,masculino,right,España,Español,Master degree,no,no,A,1,conjunction_syn,L2,syncopated,s1,r2,37,Online_conjL2_syn//a.go.du26.none.none.wav,fe,ba,su,ra,sil,bi,me,ñu,sil1,cha,sil2,['-'],,,none,none,,,,du,2,testWhenL1Uns//r1.s2.1.wav,2.0,when,unsyncopated,a,s2,rule,rule,L1,z,0.9683,6.0,1.0,1.0497,2.0,2.0,Español,0.0,Inglés,6.0,4.0,1.0,no,no,no,Flauta ,5,,,EL cuarto lenguaje ha costado un poco más estar atento por la cantidad de estímulo abstracto,61.0,yes
38,2024-05-08_17h24.01.915,Unsyncopated_study3,s150,29.0,masculino,right,España,Español,Master degree,no,no,A,1,conjunction_syn,L2,syncopated,s2,r1,38,Online_conjL2_syn//a.go.du24.666.1554.wav,ño,ñu,si,go,sil,me,su,du,sil1,te,sil2,['catch'],[2.1223999998569525],[2.1223999998569525],1.554,no_beat,0.5683999998569524,0.5683999998569524,"[""space""]",du,2,testWhenL1Uns//time_viol.r1.s2.0.wav,2.0,when,unsyncopated,a,s2,no_rule,time,L1,m,0.6001,2.0,0.0,1.6502,2.0,2.0,Español,0.0,Inglés,6.0,4.0,1.0,no,no,no,Flauta ,5,,,EL cuarto lenguaje ha costado un poco más estar atento por la cantidad de estímulo abstracto,61.0,yes
39,2024-05-08_17h24.01.915,Unsyncopated_study3,s150,29.0,masculino,right,España,Español,Master degree,no,no,A,1,conjunction_syn,L2,syncopated,s1,r2,39,Online_conjL2_syn//a.go.du25.none.none.wav,fe,ba,to,ra,sil,me,cha,si,sil1,ño,sil2,['-'],,,none,none,,,,du,2,testWhenL1Uns//dep_viol.r2.s2.0.wav,2.0,when,unsyncopated,b,s2,no_rule,dep,L1,z,0.4989,5.0,1.0,0.7857,2.0,2.0,Español,0.0,Inglés,6.0,4.0,1.0,no,no,no,Flauta ,5,,,EL cuarto lenguaje ha costado un poco más estar atento por la cantidad de estímulo abstracto,61.0,yes
40,2024-05-08_17h24.01.915,Unsyncopated_study3,s150,29.0,masculino,right,España,Español,Master degree,no,no,A,1,conjunction_syn,L2,syncopated,s1,r1,40,Online_conjL2_syn//b.fe.ra15.none.none.wav,go,ñu,to,du,sil,bi,cha,ño,sil1,ba,sil2,['-'],,,none,none,,,,fe,1,testWhenL1Uns//r2.s1.1.wav,2.0,when,unsyncopated,b,s1,rule,rule,L1,z,0.5852,7.0,1.0,0.7346,2.0,2.0,Español,0.0,Inglés,6.0,4.0,1.0,no,no,no,Flauta ,5,,,EL cuarto lenguaje ha costado un poco más estar atento por la cantidad de estímulo abstracto,61.0,yes
41,2024-05-08_17h24.01.915,Unsyncopated_study3,s150,29.0,masculino,right,España,Español,Master degree,no,no,A,1,conjunction_syn,L2,syncopated,s1,r2,41,Online_conjL2_syn//b.fe.ra14.0.666.wav,fe,te,ño,ra,sil,su,cha,bi,sil1,to,sil2,['catch'],[0.6761000001430375],[0.6761000001430375],0.0,beat,0.6761000001430375,0.6761000001430375,"[""space""]",fe,1,testWhenL1Uns//time_viol.r2.s2.0.wav,2.0,when,unsyncopated,b,s2,no_rule,time,L1,z,0.6356,5.0,1.0,0.8663,2.0,2.0,Español,0.0,Inglés,6.0,4.0,1.0,no,no,no,Flauta ,5,,,EL cuarto lenguaje ha costado un poco más estar atento por la cantidad de estímulo abstracto,61.0,yes
42,2024-05-08_17h24.01.915,Unsyncopated_study3,s150,29.0,masculino,right,España,Español,Master degree,no,no,A,1,conjunction_syn,L2,syncopated,s1,r2,42,Online_conjL2_syn//b.fe.ra13.0.666.wav,fe,si,ba,ra,sil,bi,su,ñu,sil1,ño,sil2,['catch'],[0.9719000000952747],[0.9719000000952747],0.0,beat,0.9719000000952748,0.9719000000952748,"[""space""]",fe,1,testWhenL1Uns//dep_viol.r1.s2.0.wav,2.0,when,unsyncopated,a,s2,no_rule,dep,L1,z,0.4006,4.0,1.0,0.8113,2.0,2.0,Español,0.0,Inglés,6.0,4.0,1.0,no,no,no,Flauta ,5,,,EL cuarto lenguaje ha costado un poco más estar atento por la cantidad de estímulo abstracto,61.0,yes
43,2024-05-08_17h24.01.915,Unsyncopated_study3,s150,29.0,masculino,right,España,Español,Master degree,no,no,A,1,conjunction_syn,L2,syncopated,s2,r1,43,Online_conjL2_syn//b.fe.ra12.none.none.wav,ba,to,mi,go,sil,bi,si,du,sil1,me,sil2,['-'],,,none,none,,,,fe,1,testWhenL1Uns//cat_viol.r1.s1.0.wav,2.0,when,unsyncopated,a,s1,no_rule,cat,L1,z,0.4743,6.0,1.0,0.7414,2.0,2.0,Español,0.0,Inglés,6.0,4.0,1.0,no,no,no,Flauta ,5,,,EL cuarto lenguaje ha costado un poco más estar atento por la cantidad de estímulo abstracto,61.0,yes
44,2024-05-08_17h24.01.915,Unsyncopated_study3,s150,29.0,masculino,right,España,Español,Master degree,no,no,A,1,conjunction_syn,L2,syncopated,s1,r1,44,Online_conjL2_syn//b.fe.ra19.none.none.wav,go,bi,ño,du,sil,si,mi,me,sil1,cha,sil2,['-'],,,none,none,,,,fe,1,testWhenL1Uns//r2.s2.0.wav,2.0,when,unsyncopated,b,s2,rule,rule,L1,z,0.701,6.0,1.0,0.8285,2.0,2.0,Español,0.0,Inglés,6.0,4.0,1.0,no,no,no,Flauta ,5,,,EL cuarto lenguaje ha costado un poco más estar atento por la cantidad de estímulo abstracto,61.0,yes
45,2024-05-08_17h24.01.915,Unsyncopated_study3,s150,29.0,masculino,right,España,Español,Master degree,no,no,A,1,conjunction_syn,L2,syncopated,s1,r2,45,Online_conjL2_syn//b.fe.ra17.0.666.wav,fe,ño,ba,ra,sil,me,to,su,sil1,bi,sil2,['miss'],,,0.0,beat,,,,fe,1,testWhenL1Uns//dep_viol.r1.s1.0.wav,2.0,when,unsyncopated,a,s1,no_rule,dep,L1,z,0.5747,6.0,1.0,0.8335,2.0,2.0,Español,0.0,Inglés,6.0,4.0,1.0,no,no,no,Flauta ,5,,,EL cuarto lenguaje ha costado un poco más estar atento por la cantidad de estímulo abstracto,61.0,yes
46,2024-05-08_17h24.01.915,Unsyncopated_study3,s150,29.0,masculino,right,España,Español,Master degree,no,no,A,1,conjunction_syn,L2,syncopated,s1,r1,46,Online_conjL2_syn//b.fe.ra18.none.none.wav,go,ba,mi,du,sil,su,ñu,me,sil1,ño,sil2,['-'],,,none,none,,,,fe,1,testWhenL1Uns//r1.s2.0.wav,2.0,when,unsyncopated,a,s2,rule,rule,L1,m,0.4589,6.0,0.0,0.8844,2.0,2.0,Español,0.0,Inglés,6.0,4.0,1.0,no,no,no,Flauta ,5,,,EL cuarto lenguaje ha costado un poco más estar atento por la cantidad de estímulo abstracto,61.0,yes
47,2024-05-08_17h24.01.915,Unsyncopated_study3,s150,29.0,masculino,right,España,Español,Master degree,no,no,A,1,conjunction_syn,L2,syncopated,s2,r2,47,Online_conjL2_syn//b.fe.ra16.666.1554.wav,to,ñu,mi,fe,sil,ño,cha,ra,sil1,me,sil2,['catch'],[1.3467999999522817],[1.3467999999522817],0.666,no_beat,0.6807999999522817,0.6807999999522817,"[""space""]",fe,1,testWhenL1Uns//r2.s2.1.wav,2.0,when,unsyncopated,b,s2,rule,rule,L1,z,0.3525,4.0,1.0,1.1206,2.0,2.0,Español,0.0,Inglés,6.0,4.0,1.0,no,no,no,Flauta ,5,,,EL cuarto lenguaje ha costado un poco más estar atento por la cantidad de estímulo abstracto,61.0,yes
48,2024-05-08_17h24.01.915,Unsyncopated_study3,s150,29.0,masculino,right,España,Español,Master degree,no,no,A,1,conjunction_syn,L2,syncopated,s1,r2,48,Online_conjL2_syn//c.cha.me23.none.none.wav,fe,bi,ñu,ra,sil,ba,su,to,sil1,te,sil2,['-'],,,none,none,,,,cha,3,testConjL3Uns//dep_viol.r2.s2.0.wav,3.0,conjunction_un,unsyncopated,b,s2,no_rule,dep,L3,z,0.8831,5.0,0.0,1.932,2.0,2.0,Español,0.0,Inglés,6.0,4.0,1.0,no,no,no,Flauta ,5,,,EL cuarto lenguaje ha costado un poco más estar atento por la cantidad de estímulo abstracto,61.0,yes
49,2024-05-08_17h24.01.915,Unsyncopated_study3,s150,29.0,masculino,right,España,Español,Master degree,no,no,A,1,conjunction_syn,L2,syncopated,s1,r1,49,Online_conjL2_syn//c.cha.me22.1554.444.wav,go,bi,me,du,sil,to,ba,cha,sil1,ño,sil2,['catch'],[2.222499999999968],[2.222499999999968],1.554,no_beat,0.6684999999999681,0.6684999999999681,"[""space""]",cha,3,testConjL3Uns//cat_viol.r1.s2.0.wav,3.0,conjunction_un,unsyncopated,a,s2,no_rule,cat,L3,z,1.6703,6.0,0.0,1.3435,2.0,2.0,Español,0.0,Inglés,6.0,4.0,1.0,no,no,no,Flauta ,5,,,EL cuarto lenguaje ha costado un poco más estar atento por la cantidad de estímulo abstracto,61.0,yes
50,2024-05-08_17h24.01.915,Unsyncopated_study3,s150,29.0,masculino,right,España,Español,Master degree,no,no,A,1,conjunction_syn,L2,syncopated,s1,r1,50,Online_conjL2_syn//c.cha.me20.none.none.wav,go,mi,si,du,sil,bi,ba,ño,sil1,su,sil2,['-'],,,none,none,,,,cha,3,testConjL3Uns//cat_viol.r1.s1.0.wav,3.0,conjunction_un,unsyncopated,a,s1,no_rule,cat,L3,m,1.2178,7.0,1.0,1.2587,2.0,2.0,Español,0.0,Inglés,6.0,4.0,1.0,no,no,no,Flauta ,5,,,EL cuarto lenguaje ha costado un poco más estar atento por la cantidad de estímulo abstracto,61.0,yes
51,2024-05-08_17h24.01.915,Unsyncopated_study3,s150,29.0,masculino,right,España,Español,Master degree,no,no,A,1,conjunction_syn,L2,syncopated,s1,r2,51,Online_conjL2_syn//c.cha.me21.222.444.wav,fe,cha,me,ra,sil,su,ñu,to,sil1,mi,sil2,['catch'],[1.7715999999046517],[1.7715999999046517],0.222,no_beat,,1.5495999999046517,"[""space""]",cha,3,testConjL3Uns//time_viol.r2.s2.0.wav,3.0,conjunction_un,unsyncopated,b,s2,no_rule,time,L3,z,0.933,5.0,0.0,1.1088,2.0,2.0,Español,0.0,Inglés,6.0,4.0,1.0,no,no,no,Flauta ,5,,,EL cuarto lenguaje ha costado un poco más estar atento por la cantidad de estímulo abstracto,61.0,yes
52,2024-05-08_17h24.01.915,Unsyncopated_study3,s150,29.0,masculino,right,España,Español,Master degree,no,no,A,1,conjunction_syn,L2,syncopated,s2,r1,52,Online_conjL2_syn//a.go.du12.666.1554.wav,cha,bi,te,go,sil,ba,ñu,du,sil1,si,sil2,"['false alarm', 'catch']","[1.0522999999523108, 2.3487000000477565]",[2.3487000000477565],1.554,no_beat,0.7947000000477564,0.7947000000477564,"[""space"",""space""]",du,2,testConjL3Uns//r1.s2.1.wav,3.0,conjunction_un,unsyncopated,a,s2,rule,rule,L3,m,1.5251,4.0,0.0,1.1569,2.0,2.0,Español,0.0,Inglés,6.0,4.0,1.0,no,no,no,Flauta ,5,,,EL cuarto lenguaje ha costado un poco más estar atento por la cantidad de estímulo abstracto,61.0,yes
53,2024-05-08_17h24.01.915,Unsyncopated_study3,s150,29.0,masculino,right,España,Español,Master degree,no,no,A,1,conjunction_syn,L2,syncopated,s2,r1,53,Online_conjL2_syn//a.go.du14.666.1554.wav,si,ba,me,go,sil,ño,su,du,sil1,to,sil2,['catch'],[2.1965000000000146],[2.1965000000000146],1.554,no_beat,0.6425000000000145,0.6425000000000145,"[""space""]",du,2,testConjL3Uns//dep_viol.r1.s1.0.wav,3.0,conjunction_un,unsyncopated,a,s1,no_rule,dep,L3,m,1.276,4.0,1.0,0.928,2.0,2.0,Español,0.0,Inglés,6.0,4.0,1.0,no,no,no,Flauta ,5,,,EL cuarto lenguaje ha costado un poco más estar atento por la cantidad de estímulo abstracto,61.0,yes
54,2024-05-08_17h24.01.915,Unsyncopated_study3,s150,29.0,masculino,right,España,Español,Master degree,no,no,A,1,conjunction_syn,L2,syncopated,s2,r1,54,Online_conjL2_syn//a.go.du13.666.1554.wav,su,bi,ba,go,sil,ño,to,du,sil1,te,sil2,['catch'],[2.260200000047689],[2.260200000047689],1.554,no_beat,0.7062000000476891,0.7062000000476891,"[""space""]",du,2,testConjL3Uns//r1.s1.2.wav,3.0,conjunction_un,unsyncopated,a,s1,rule,rule,L3,z,0.3146,5.0,1.0,0.9748,2.0,2.0,Español,0.0,Inglés,6.0,4.0,1.0,no,no,no,Flauta ,5,,,EL cuarto lenguaje ha costado un poco más estar atento por la cantidad de estímulo abstracto,61.0,yes
55,2024-05-08_17h24.01.915,Unsyncopated_study3,s150,29.0,masculino,right,España,Español,Master degree,no,no,A,1,conjunction_syn,L2,syncopated,s1,r1,55,Online_conjL2_syn//a.go.du15.0.666.wav,go,bi,cha,du,sil,su,si,ño,sil1,me,sil2,['miss'],,,0.666,no_beat,,,,du,2,testConjL3Uns//time_viol.r2.s1.0.wav,3.0,conjunction_un,unsyncopated,b,s1,no_rule,time,L3,z,0.3504,7.0,0.0,1.1345,2.0,2.0,Español,0.0,Inglés,6.0,4.0,1.0,no,no,no,Flauta ,5,,,EL cuarto lenguaje ha costado un poco más estar atento por la cantidad de estímulo abstracto,61.0,yes
56,2024-05-08_17h24.01.915,Unsyncopated_study3,s150,29.0,masculino,right,España,Español,Master degree,no,no,A,1,conjunction_syn,L2,syncopated,s1,r1,56,Online_conjL2_syn//d.si.ñu30.222.1332.wav,go,si,te,du,sil,ño,ñu,mi,sil1,bi,sil2,['catch'],[1.0554999999999382],[1.0554999999999382],0.222,no_beat,0.8334999999999382,0.8334999999999382,"[""space""]",si,4,testConjL3Uns//r2.s1.0.wav,3.0,conjunction_un,unsyncopated,b,s1,rule,rule,L3,z,0.8923,5.0,1.0,0.9233,2.0,2.0,Español,0.0,Inglés,6.0,4.0,1.0,no,no,no,Flauta ,5,,,EL cuarto lenguaje ha costado un poco más estar atento por la cantidad de estímulo abstracto,61.0,yes
57,2024-05-08_17h24.01.915,Unsyncopated_study3,s150,29.0,masculino,right,España,Español,Master degree,no,no,A,1,conjunction_syn,L2,syncopated,s1,r1,57,Online_conjL2_syn//d.si.ñu31.none.none.wav,go,me,ño,du,sil,ba,te,mi,sil1,cha,sil2,['-'],,,none,none,,,,si,4,testConjL3Uns//r1.s1.1.wav,3.0,conjunction_un,unsyncopated,a,s1,rule,rule,L3,z,0.6344,6.0,1.0,0.885,2.0,2.0,Español,0.0,Inglés,6.0,4.0,1.0,no,no,no,Flauta ,5,,,EL cuarto lenguaje ha costado un poco más estar atento por la cantidad de estímulo abstracto,61.0,yes
58,2024-05-08_17h24.01.915,Unsyncopated_study3,s150,29.0,masculino,right,España,Español,Master degree,no,no,A,1,conjunction_syn,L2,syncopated,s1,r2,58,Online_conjL2_syn//d.si.ñu28.1554.1110.wav,fe,te,su,ra,sil,ñu,bi,si,sil1,mi,sil2,['catch'],[2.1387999999523117],[2.1387999999523117],1.554,no_beat,0.5847999999523117,0.5847999999523117,"[""space""]",si,4,testConjL3Uns//cat_viol.r2.s2.0.wav,3.0,conjunction_un,unsyncopated,b,s2,no_rule,cat,L3,m,0.3211,4.0,1.0,0.9416,2.0,2.0,Español,0.0,Inglés,6.0,4.0,1.0,no,no,no,Flauta ,5,,,EL cuarto lenguaje ha costado un poco más estar atento por la cantidad de estímulo abstracto,61.0,yes
59,2024-05-08_17h24.01.915,Unsyncopated_study3,s150,29.0,masculino,right,España,Español,Master degree,no,no,A,1,conjunction_syn,L2,syncopated,s1,r1,59,Online_conjL2_syn//d.si.ñu29.1554.222.wav,go,ñu,me,du,sil,ño,mi,si,sil1,to,sil2,['miss'],,,1.554,no_beat,,,,si,4,testConjL3Uns//r2.s2.0.wav,3.0,conjunction_un,unsyncopated,b,s2,rule,rule,L3,z,1.6285,4.0,1.0,0.8662,2.0,2.0,Español,0.0,Inglés,6.0,4.0,1.0,no,no,no,Flauta ,5,,,EL cuarto lenguaje ha costado un poco más estar atento por la cantidad de estímulo abstracto,61.0,yes
60,2024-05-08_17h24.01.915,Unsyncopated_study3,s150,29.0,masculino,right,España,Español,Master degree,no,no,A,1,conjunction_syn,L2,syncopated,s1,r2,60,Online_conjL2_syn//a.go.du2.none.none.wav,fe,me,to,ra,sil,mi,te,ñu,sil1,ño,sil2,['-'],,,none,none,,,,du,2,testConjL3Uns//r1.s2.2.wav,3.0,conjunction_un,unsyncopated,a,s2,rule,rule,L3,m,0.3923,3.0,0.0,1.7026,2.0,2.0,Español,0.0,Inglés,6.0,4.0,1.0,no,no,no,Flauta ,5,,,EL cuarto lenguaje ha costado un poco más estar atento por la cantidad de estímulo abstracto,61.0,yes
61,2024-05-08_17h24.01.915,Unsyncopated_study3,s150,29.0,masculino,right,España,Español,Master degree,no,no,A,1,conjunction_syn,L2,syncopated,s1,r1,61,Online_conjL2_syn//a.go.du0.0.666.wav,go,me,bi,du,sil,te,su,ba,sil1,cha,sil2,['catch'],[1.4228000001907048],[1.4228000001907048],0.666,no_beat,0.7568000001907048,0.7568000001907048,"[""space""]",du,2,testConjL3Uns//r2.s1.2.wav,3.0,conjunction_un,unsyncopated,b,s1,rule,rule,L3,z,0.576,7.0,1.0,1.6514,2.0,2.0,Español,0.0,Inglés,6.0,4.0,1.0,no,no,no,Flauta ,5,,,EL cuarto lenguaje ha costado un poco más estar atento por la cantidad de estímulo abstracto,61.0,yes
62,2024-05-08_17h24.01.915,Unsyncopated_study3,s150,29.0,masculino,right,España,Español,Master degree,no,no,A,1,conjunction_syn,L2,syncopated,s2,r1,62,Online_conjL2_syn//a.go.du1.666.1554.wav,su,me,mi,go,sil,ño,cha,du,sil1,te,sil2,['catch'],[2.2729000000953192],[2.2729000000953192],1.554,no_beat,0.7189000000953192,0.7189000000953192,"[""space""]",du,2,testConjL3Uns//r1.s2.0.wav,3.0,conjunction_un,unsyncopated,a,s2,rule,rule,L3,z,1.0334,6.0,1.0,0.841,2.0,2.0,Español,0.0,Inglés,6.0,4.0,1.0,no,no,no,Flauta ,5,,,EL cuarto lenguaje ha costado un poco más estar atento por la cantidad de estímulo abstracto,61.0,yes
63,2024-05-08_17h24.01.915,Unsyncopated_study3,s150,29.0,masculino,right,España,Español,Master degree,no,no,A,1,conjunction_syn,L2,syncopated,s2,r1,63,Online_conjL2_syn//a.go.du3.666.1554.wav,su,bi,te,go,sil,ñu,mi,du,sil1,si,sil2,['catch'],[2.292500000000018],[2.292500000000018],1.554,no_beat,0.7385000000000181,0.7385000000000181,"[""space""]",du,2,testConjL3Uns//time_viol.r1.s2.0.wav,3.0,conjunction_un,unsyncopated,a,s2,no_rule,time,L3,z,0.7685,6.0,0.0,1.1839,2.0,2.0,Español,0.0,Inglés,6.0,4.0,1.0,no,no,no,Flauta ,5,,,EL cuarto lenguaje ha costado un poco más estar atento por la cantidad de estímulo abstracto,61.0,yes
64,2024-05-08_17h24.01.915,Unsyncopated_study3,s150,29.0,masculino,right,España,Español,Master degree,no,no,A,1,conjunction_syn,L2,syncopated,s2,r1,64,Online_conjL2_syn//c.cha.me3.444.0.wav,me,ba,cha,go,sil,te,mi,du,sil1,ñu,sil2,['miss'],,,0.444,no_beat,,,,cha,3,testConjL3Uns//dep_viol.r2.s1.0.wav,3.0,conjunction_un,unsyncopated,b,s1,no_rule,dep,L3,z,1.3447,5.0,0.0,0.8346,2.0,2.0,Español,0.0,Inglés,6.0,4.0,1.0,no,no,no,Flauta ,5,,,EL cuarto lenguaje ha costado un poco más estar atento por la cantidad de estímulo abstracto,61.0,yes
65,2024-05-08_17h24.01.915,Unsyncopated_study3,s150,29.0,masculino,right,España,Español,Master degree,no,no,A,1,conjunction_syn,L2,syncopated,s2,r1,65,Online_conjL2_syn//c.cha.me1.222.444.wav,bi,cha,me,go,sil,ño,ñu,du,sil1,su,sil2,['catch'],[1.1191999998093252],[1.1191999998093252],0.222,no_beat,0.8971999998093252,0.8971999998093252,"[""space""]",cha,3,testConjL3Uns//dep_viol.r1.s2.0.wav,3.0,conjunction_un,unsyncopated,a,s2,no_rule,dep,L3,z,0.9144,6.0,0.0,1.0889,2.0,2.0,Español,0.0,Inglés,6.0,4.0,1.0,no,no,no,Flauta ,5,,,EL cuarto lenguaje ha costado un poco más estar atento por la cantidad de estímulo abstracto,61.0,yes
66,2024-05-08_17h24.01.915,Unsyncopated_study3,s150,29.0,masculino,right,España,Español,Master degree,no,no,A,1,conjunction_syn,L2,syncopated,s2,r2,66,Online_conjL2_syn//c.cha.me0.444.1110.wav,te,su,cha,fe,sil,me,si,ra,sil1,ba,sil2,['catch'],[1.2228999998569634],[1.2228999998569634],0.444,no_beat,0.7788999998569635,0.7788999998569635,"[""space""]",cha,3,testConjL3Uns//r2.s2.2.wav,3.0,conjunction_un,unsyncopated,b,s2,rule,rule,L3,m,1.4367,6.0,0.0,1.9336,2.0,2.0,Español,0.0,Inglés,6.0,4.0,1.0,no,no,no,Flauta ,5,,,EL cuarto lenguaje ha costado un poco más estar atento por la cantidad de estímulo abstracto,61.0,yes
67,2024-05-08_17h24.01.915,Unsyncopated_study3,s150,29.0,masculino,right,España,Español,Master degree,no,no,A,1,conjunction_syn,L2,syncopated,s2,r1,67,Online_conjL2_syn//c.cha.me2.444.0.wav,me,te,cha,go,sil,mi,su,du,sil1,ño,sil2,['catch'],[1.388200000047732],[1.388200000047732],0.444,no_beat,0.944200000047732,0.944200000047732,"[""space""]",cha,3,testConjL3Uns//r2.s2.1.wav,3.0,conjunction_un,unsyncopated,b,s2,rule,rule,L3,z,0.7461,6.0,1.0,1.1328,2.0,2.0,Español,0.0,Inglés,6.0,4.0,1.0,no,no,no,Flauta ,5,,,EL cuarto lenguaje ha costado un poco más estar atento por la cantidad de estímulo abstracto,61.0,yes
68,2024-05-08_17h24.01.915,Unsyncopated_study3,s150,29.0,masculino,right,España,Español,Master degree,no,no,A,1,conjunction_syn,L2,syncopated,s1,r1,68,Online_conjL2_syn//b.fe.ra25.none.none.wav,go,to,mi,du,sil,me,ba,si,sil1,su,sil2,['-'],,,none,none,,,,fe,1,testConjL3Uns//time_viol.r1.s1.0.wav,3.0,conjunction_un,unsyncopated,a,s1,no_rule,time,L3,m,0.3513,6.0,1.0,0.9226,2.0,2.0,Español,0.0,Inglés,6.0,4.0,1.0,no,no,no,Flauta ,5,,,EL cuarto lenguaje ha costado un poco más estar atento por la cantidad de estímulo abstracto,61.0,yes
69,2024-05-08_17h24.01.915,Unsyncopated_study3,s150,29.0,masculino,right,España,Español,Master degree,no,no,A,1,conjunction_syn,L2,syncopated,s1,r2,69,Online_conjL2_syn//b.fe.ra27.0.666.wav,fe,ñu,si,ra,sil,ño,to,te,sil1,su,sil2,['catch'],[0.8386999998092506],[0.8386999998092506],0.0,beat,0.8386999998092506,0.8386999998092506,"[""space""]",fe,1,testConjL3Uns//r1.s1.0.wav,3.0,conjunction_un,unsyncopated,a,s1,rule,rule,L3,z,1.6953,6.0,1.0,0.8496,2.0,2.0,Español,0.0,Inglés,6.0,4.0,1.0,no,no,no,Flauta ,5,,,EL cuarto lenguaje ha costado un poco más estar atento por la cantidad de estímulo abstracto,61.0,yes
70,2024-05-08_17h24.01.915,Unsyncopated_study3,s150,29.0,masculino,right,España,Español,Master degree,no,no,A,1,conjunction_syn,L2,syncopated,s2,r1,70,Online_conjL2_syn//b.fe.ra24.none.none.wav,ñu,me,cha,go,sil,ba,to,du,sil1,si,sil2,['-'],,,none,none,,,,fe,1,testConjL3Uns//r2.s1.1.wav,3.0,conjunction_un,unsyncopated,b,s1,rule,rule,L3,z,1.1342,5.0,1.0,0.8343,2.0,2.0,Español,0.0,Inglés,6.0,4.0,1.0,no,no,no,Flauta ,5,,,EL cuarto lenguaje ha costado un poco más estar atento por la cantidad de estímulo abstracto,61.0,yes
71,2024-05-08_17h24.01.915,Unsyncopated_study3,s150,29.0,masculino,right,España,Español,Master degree,no,no,A,1,conjunction_syn,L2,syncopated,s1,r1,71,Online_conjL2_syn//b.fe.ra26.none.none.wav,go,ño,mi,du,sil,me,si,bi,sil1,ba,sil2,['-'],,,none,none,,,,fe,1,testConjL3Uns//cat_viol.r2.s1.0.wav,3.0,conjunction_un,unsyncopated,b,s1,no_rule,cat,L3,m,1.5338,5.0,1.0,0.8237,2.0,2.0,Español,0.0,Inglés,6.0,4.0,1.0,no,no,no,Flauta ,5,,,EL cuarto lenguaje ha costado un poco más estar atento por la cantidad de estímulo abstracto,61.0,yes
72,2024-05-08_17h24.01.915,Unsyncopated_study3,s150,29.0,masculino,right,España,Español,Master degree,no,no,A,1,conjunction_syn,L2,syncopated,s2,r2,72,Online_conjL2_syn//c.cha.me7.none.none.wav,te,mi,ba,fe,sil,ñu,su,ra,sil1,to,sil2,['-'],,,none,none,,,,cha,3,testWhatL4Uns//time_viol.r2.s2.0.wav,4.0,what,unsyncopated,b,s2,no_rule,time,L4,z,0.3077,7.0,0.0,0.8061,2.0,2.0,Español,0.0,Inglés,6.0,4.0,1.0,no,no,no,Flauta ,5,,,EL cuarto lenguaje ha costado un poco más estar atento por la cantidad de estímulo abstracto,61.0,yes
73,2024-05-08_17h24.01.915,Unsyncopated_study3,s150,29.0,masculino,right,España,Español,Master degree,no,no,A,1,conjunction_syn,L2,syncopated,s2,r1,73,Online_conjL2_syn//c.cha.me5.none.none.wav,ño,mi,ñu,go,sil,ba,te,du,sil1,su,sil2,['-'],,,none,none,,,,cha,3,testWhatL4Uns//dep_viol.r1.s2.0.wav,4.0,what,unsyncopated,a,s2,no_rule,dep,L4,z,0.5815,6.0,0.0,0.5368,2.0,2.0,Español,0.0,Inglés,6.0,4.0,1.0,no,no,no,Flauta ,5,,,EL cuarto lenguaje ha costado un poco más estar atento por la cantidad de estímulo abstracto,61.0,yes
74,2024-05-08_17h24.01.915,Unsyncopated_study3,s150,29.0,masculino,right,España,Español,Master degree,no,no,A,1,conjunction_syn,L2,syncopated,s2,r2,74,Online_conjL2_syn//c.cha.me4.1110.0.wav,me,si,bi,fe,sil,cha,to,ra,sil1,su,sil2,['catch'],[1.788000000000011],[1.788000000000011],1.11,no_beat,0.6780000000000108,0.6780000000000108,"[""space""]",cha,3,testWhatL4Uns//r1.s2.1.wav,4.0,what,unsyncopated,a,s2,rule,rule,L4,m,0.5944,5.0,0.0,0.9092,2.0,2.0,Español,0.0,Inglés,6.0,4.0,1.0,no,no,no,Flauta ,5,,,EL cuarto lenguaje ha costado un poco más estar atento por la cantidad de estímulo abstracto,61.0,yes
75,2024-05-08_17h24.01.915,Unsyncopated_study3,s150,29.0,masculino,right,España,Español,Master degree,no,no,A,1,conjunction_syn,L2,syncopated,s1,r1,75,Online_conjL2_syn//c.cha.me6.none.none.wav,go,to,si,du,sil,ñu,ño,mi,sil1,ba,sil2,['-'],,,none,none,,,,cha,3,testWhatL4Uns//dep_viol.r1.s1.0.wav,4.0,what,unsyncopated,a,s1,no_rule,dep,L4,z,0.5737,6.0,0.0,1.3034,2.0,2.0,Español,0.0,Inglés,6.0,4.0,1.0,no,no,no,Flauta ,5,,,EL cuarto lenguaje ha costado un poco más estar atento por la cantidad de estímulo abstracto,61.0,yes
76,2024-05-08_17h24.01.915,Unsyncopated_study3,s150,29.0,masculino,right,España,Español,Master degree,no,no,A,1,conjunction_syn,L2,syncopated,s1,r2,76,Online_conjL2_syn//b.fe.ra10.0.666.wav,fe,bi,cha,ra,sil,si,te,su,sil1,ba,sil2,['catch'],[0.6597000000476783],[0.6597000000476783],0.0,beat,0.6597000000476783,0.6597000000476783,"[""space""]",fe,1,testWhatL4Uns//dep_viol.r2.s2.0.wav,4.0,what,unsyncopated,b,s2,no_rule,dep,L4,m,0.7657,6.0,1.0,0.785,2.0,2.0,Español,0.0,Inglés,6.0,4.0,1.0,no,no,no,Flauta ,5,,,EL cuarto lenguaje ha costado un poco más estar atento por la cantidad de estímulo abstracto,61.0,yes
77,2024-05-08_17h24.01.915,Unsyncopated_study3,s150,29.0,masculino,right,España,Español,Master degree,no,no,A,1,conjunction_syn,L2,syncopated,s1,r2,77,Online_conjL2_syn//b.fe.ra11.0.666.wav,fe,to,bi,ra,sil,mi,me,ñu,sil1,ba,sil2,['catch'],[1.05600000000004],[1.05600000000004],0.0,beat,1.05600000000004,1.05600000000004,"[""space""]",fe,1,testWhatL4Uns//cat_viol.r2.s1.0.wav,4.0,what,unsyncopated,b,s1,no_rule,cat,L4,z,0.306,4.0,0.0,1.1878,2.0,2.0,Español,0.0,Inglés,6.0,4.0,1.0,no,no,no,Flauta ,5,,,EL cuarto lenguaje ha costado un poco más estar atento por la cantidad de estímulo abstracto,61.0,yes
78,2024-05-08_17h24.01.915,Unsyncopated_study3,s150,29.0,masculino,right,España,Español,Master degree,no,no,A,1,conjunction_syn,L2,syncopated,s2,r2,78,Online_conjL2_syn//b.fe.ra8.666.1554.wav,to,mi,ño,fe,sil,cha,te,ra,sil1,me,sil2,['miss'],,,0.666,no_beat,,,,fe,1,testWhatL4Uns//cat_viol.r2.s2.0.wav,4.0,what,unsyncopated,b,s2,no_rule,cat,L4,z,0.634,6.0,0.0,0.9365,2.0,2.0,Español,0.0,Inglés,6.0,4.0,1.0,no,no,no,Flauta ,5,,,EL cuarto lenguaje ha costado un poco más estar atento por la cantidad de estímulo abstracto,61.0,yes
79,2024-05-08_17h24.01.915,Unsyncopated_study3,s150,29.0,masculino,right,España,Español,Master degree,no,no,A,1,conjunction_syn,L2,syncopated,s2,r2,79,Online_conjL2_syn//b.fe.ra9.666.1554.wav,cha,to,bi,fe,sil,ñu,me,ra,sil1,ño,sil2,['catch'],[1.576600000143003],[1.576600000143003],0.666,no_beat,0.9106000001430028,0.9106000001430028,"[""space""]",fe,1,testWhatL4Uns//time_viol.r2.s1.0.wav,4.0,what,unsyncopated,b,s1,no_rule,time,L4,z,1.1023,6.0,0.0,1.2932,2.0,2.0,Español,0.0,Inglés,6.0,4.0,1.0,no,no,no,Flauta ,5,,,EL cuarto lenguaje ha costado un poco más estar atento por la cantidad de estímulo abstracto,61.0,yes
80,2024-05-08_17h24.01.915,Unsyncopated_study3,s150,29.0,masculino,right,España,Español,Master degree,no,no,A,1,conjunction_syn,L2,syncopated,s1,r1,80,Online_conjL2_syn//a.go.du31.0.666.wav,go,ba,su,du,sil,ñu,si,bi,sil1,me,sil2,['catch'],[1.505100000143102],[1.505100000143102],0.666,no_beat,0.839100000143102,0.839100000143102,"[""space""]",du,2,testWhatL4Uns//r1.s1.2.wav,4.0,what,unsyncopated,a,s1,rule,rule,L4,m,1.3176,6.0,0.0,0.934,2.0,2.0,Español,0.0,Inglés,6.0,4.0,1.0,no,no,no,Flauta ,5,,,EL cuarto lenguaje ha costado un poco más estar atento por la cantidad de estímulo abstracto,61.0,yes
81,2024-05-08_17h24.01.915,Unsyncopated_study3,s150,29.0,masculino,right,España,Español,Master degree,no,no,A,1,conjunction_syn,L2,syncopated,s2,r2,81,Online_conjL2_syn//a.go.du30.none.none.wav,to,ñu,me,fe,sil,bi,ño,ra,sil1,su,sil2,['-'],,,none,none,,,,du,2,testWhatL4Uns//r2.s2.0.wav,4.0,what,unsyncopated,b,s2,rule,rule,L4,m,0.351,3.0,0.0,1.2009,2.0,2.0,Español,0.0,Inglés,6.0,4.0,1.0,no,no,no,Flauta ,5,,,EL cuarto lenguaje ha costado un poco más estar atento por la cantidad de estímulo abstracto,61.0,yes
82,2024-05-08_17h24.01.915,Unsyncopated_study3,s150,29.0,masculino,right,España,Español,Master degree,no,no,A,1,conjunction_syn,L2,syncopated,s2,r2,82,Online_conjL2_syn//a.go.du28.none.none.wav,me,su,ba,fe,sil,mi,to,ra,sil1,cha,sil2,['-'],,,none,none,,,,du,2,testWhatL4Uns//r1.s1.1.wav,4.0,what,unsyncopated,a,s1,rule,rule,L4,z,0.7327,6.0,1.0,0.9346,2.0,2.0,Español,0.0,Inglés,6.0,4.0,1.0,no,no,no,Flauta ,5,,,EL cuarto lenguaje ha costado un poco más estar atento por la cantidad de estímulo abstracto,61.0,yes
83,2024-05-08_17h24.01.915,Unsyncopated_study3,s150,29.0,masculino,right,España,Español,Master degree,no,no,A,1,conjunction_syn,L2,syncopated,s1,r1,83,Online_conjL2_syn//a.go.du29.0.666.wav,go,ñu,su,du,sil,si,me,to,sil1,bi,sil2,['catch'],[1.2201999998093243],[1.2201999998093243],0.666,no_beat,0.5541999998093242,0.5541999998093242,"[""space""]",du,2,testWhatL4Uns//cat_viol.r1.s1.0.wav,4.0,what,unsyncopated,a,s1,no_rule,cat,L4,z,1.0109,6.0,0.0,0.8409,2.0,2.0,Español,0.0,Inglés,6.0,4.0,1.0,no,no,no,Flauta ,5,,,EL cuarto lenguaje ha costado un poco más estar atento por la cantidad de estímulo abstracto,61.0,yes
84,2024-05-08_17h24.01.915,Unsyncopated_study3,s150,29.0,masculino,right,España,Español,Master degree,no,no,A,1,conjunction_syn,L2,syncopated,s1,r1,84,Online_conjL2_syn//c.cha.me26.1332.222.wav,go,me,si,du,sil,ño,cha,su,sil1,ba,sil2,['catch'],[1.8962000000477701],[1.8962000000477701],1.332,no_beat,0.56420000004777,0.56420000004777,"[""space""]",cha,3,testWhatL4Uns//r2.s2.1.wav,4.0,what,unsyncopated,b,s2,rule,rule,L4,z,1.0361,6.0,1.0,0.9682,2.0,2.0,Español,0.0,Inglés,6.0,4.0,1.0,no,no,no,Flauta ,5,,,EL cuarto lenguaje ha costado un poco más estar atento por la cantidad de estímulo abstracto,61.0,yes
85,2024-05-08_17h24.01.915,Unsyncopated_study3,s150,29.0,masculino,right,España,Español,Master degree,no,no,A,1,conjunction_syn,L2,syncopated,s1,r2,85,Online_conjL2_syn//c.cha.me27.none.none.wav,fe,si,su,ra,sil,ño,to,ñu,sil1,ba,sil2,['-'],,,none,none,,,,cha,3,testWhatL4Uns//r1.s2.0.wav,4.0,what,unsyncopated,a,s2,rule,rule,L4,z,1.9165,6.0,1.0,0.7692,2.0,2.0,Español,0.0,Inglés,6.0,4.0,1.0,no,no,no,Flauta ,5,,,EL cuarto lenguaje ha costado un poco más estar atento por la cantidad de estímulo abstracto,61.0,yes
86,2024-05-08_17h24.01.915,Unsyncopated_study3,s150,29.0,masculino,right,España,Español,Master degree,no,no,A,1,conjunction_syn,L2,syncopated,s1,r2,86,Online_conjL2_syn//c.cha.me24.none.none.wav,fe,ba,su,ra,sil,ñu,to,ño,sil1,si,sil2,['-'],,,none,none,,,,cha,3,testWhatL4Uns//r2.s1.0.wav,4.0,what,unsyncopated,b,s1,rule,rule,L4,m,0.7001,5.0,0.0,1.1296,2.0,2.0,Español,0.0,Inglés,6.0,4.0,1.0,no,no,no,Flauta ,5,,,EL cuarto lenguaje ha costado un poco más estar atento por la cantidad de estímulo abstracto,61.0,yes
87,2024-05-08_17h24.01.915,Unsyncopated_study3,s150,29.0,masculino,right,España,Español,Master degree,no,no,A,1,conjunction_syn,L2,syncopated,s2,r1,87,Online_conjL2_syn//c.cha.me25.222.1110.wav,mi,cha,ñu,go,sil,me,ño,du,sil1,bi,sil2,['catch'],[0.9114000000953411],[0.9114000000953411],0.222,no_beat,0.6894000000953411,0.6894000000953411,"[""space""]",cha,3,testWhatL4Uns//r2.s1.2.wav,4.0,what,unsyncopated,b,s1,rule,rule,L4,z,1.0011,5.0,1.0,0.9498,2.0,2.0,Español,0.0,Inglés,6.0,4.0,1.0,no,no,no,Flauta ,5,,,EL cuarto lenguaje ha costado un poco más estar atento por la cantidad de estímulo abstracto,61.0,yes
88,2024-05-08_17h24.01.915,Unsyncopated_study3,s150,29.0,masculino,right,España,Español,Master degree,no,no,A,1,conjunction_syn,L2,syncopated,s2,r2,88,Online_conjL2_syn//b.fe.ra0.666.1554.wav,te,si,ba,fe,sil,mi,ño,ra,sil1,cha,sil2,['miss'],,,0.666,no_beat,,,,fe,1,testWhatL4Uns//r1.s1.0.wav,4.0,what,unsyncopated,a,s1,rule,rule,L4,z,0.8509,6.0,1.0,0.8679,2.0,2.0,Español,0.0,Inglés,6.0,4.0,1.0,no,no,no,Flauta ,5,,,EL cuarto lenguaje ha costado un poco más estar atento por la cantidad de estímulo abstracto,61.0,yes
89,2024-05-08_17h24.01.915,Unsyncopated_study3,s150,29.0,masculino,right,España,Español,Master degree,no,no,A,1,conjunction_syn,L2,syncopated,s2,r1,89,Online_conjL2_syn//b.fe.ra2.none.none.wav,te,to,bi,go,sil,cha,ñu,du,sil1,su,sil2,['-'],,,none,none,,,,fe,1,testWhatL4Uns//r2.s2.2.wav,4.0,what,unsyncopated,b,s2,rule,rule,L4,m,0.7882,7.0,0.0,0.886,2.0,2.0,Español,0.0,Inglés,6.0,4.0,1.0,no,no,no,Flauta ,5,,,EL cuarto lenguaje ha costado un poco más estar atento por la cantidad de estímulo abstracto,61.0,yes
90,2024-05-08_17h24.01.915,Unsyncopated_study3,s150,29.0,masculino,right,España,Español,Master degree,no,no,A,1,conjunction_syn,L2,syncopated,s1,r2,90,Online_conjL2_syn//b.fe.ra1.0.666.wav,fe,to,bi,ra,sil,me,te,su,sil1,ño,sil2,['catch'],[0.5878999998569725],[0.5878999998569725],0.0,beat,0.5878999998569725,0.5878999998569725,"[""space""]",fe,1,testWhatL4Uns//time_viol.r1.s1.0.wav,4.0,what,unsyncopated,a,s1,no_rule,time,L4,m,0.7686,5.0,1.0,0.64,2.0,2.0,Español,0.0,Inglés,6.0,4.0,1.0,no,no,no,Flauta ,5,,,EL cuarto lenguaje ha costado un poco más estar atento por la cantidad de estímulo abstracto,61.0,yes
91,2024-05-08_17h24.01.915,Unsyncopated_study3,s150,29.0,masculino,right,España,Español,Master degree,no,no,A,1,conjunction_syn,L2,syncopated,s2,r2,91,Online_conjL2_syn//b.fe.ra3.666.1554.wav,cha,ba,ñu,fe,sil,me,ño,ra,sil1,bi,sil2,['miss'],,,0.666,no_beat,,,,fe,1,testWhatL4Uns//dep_viol.r2.s1.0.wav,4.0,what,unsyncopated,b,s1,no_rule,dep,L4,z,0.8332,6.0,0.0,0.6833,2.0,2.0,Español,0.0,Inglés,6.0,4.0,1.0,no,no,no,Flauta ,5,,,EL cuarto lenguaje ha costado un poco más estar atento por la cantidad de estímulo abstracto,61.0,yes
92,2024-05-08_17h24.01.915,Unsyncopated_study3,s150,29.0,masculino,right,España,Español,Master degree,no,no,A,1,conjunction_syn,L2,syncopated,s2,r2,92,Online_conjL2_syn//d.si.ñu5.1332.444.wav,cha,ño,ñu,fe,sil,bi,si,ra,sil1,to,sil2,['catch'],[1.8793999998569006],[1.8793999998569006],1.332,no_beat,0.5473999998569006,0.5473999998569006,"[""space""]",si,4,testWhatL4Uns//cat_viol.r1.s2.0.wav,4.0,what,unsyncopated,a,s2,no_rule,cat,L4,z,0.6755,7.0,0.0,0.7009,2.0,2.0,Español,0.0,Inglés,6.0,4.0,1.0,no,no,no,Flauta ,5,,,EL cuarto lenguaje ha costado un poco más estar atento por la cantidad de estímulo abstracto,61.0,yes
93,2024-05-08_17h24.01.915,Unsyncopated_study3,s150,29.0,masculino,right,España,Español,Master degree,no,no,A,1,conjunction_syn,L2,syncopated,s1,r1,93,Online_conjL2_syn//d.si.ñu7.444.1110.wav,go,to,si,du,sil,ñu,te,mi,sil1,su,sil2,['miss'],,,0.444,no_beat,,,,si,4,testWhatL4Uns//r1.s2.2.wav,4.0,what,unsyncopated,a,s2,rule,rule,L4,m,1.3686,4.0,0.0,1.2853,2.0,2.0,Español,0.0,Inglés,6.0,4.0,1.0,no,no,no,Flauta ,5,,,EL cuarto lenguaje ha costado un poco más estar atento por la cantidad de estímulo abstracto,61.0,yes
94,2024-05-08_17h24.01.915,Unsyncopated_study3,s150,29.0,masculino,right,España,Español,Master degree,no,no,A,1,conjunction_syn,L2,syncopated,s1,r2,94,Online_conjL2_syn//d.si.ñu6.1110.1332.wav,fe,ño,bi,ra,sil,si,ñu,te,sil1,me,sil2,['catch'],[1.6107999999522917],[1.6107999999522917],1.11,no_beat,0.5007999999522916,0.5007999999522916,"[""space""]",si,4,testWhatL4Uns//time_viol.r1.s2.0.wav,4.0,what,unsyncopated,a,s2,no_rule,time,L4,z,0.8057,5.0,0.0,0.7505,2.0,2.0,Español,0.0,Inglés,6.0,4.0,1.0,no,no,no,Flauta ,5,,,EL cuarto lenguaje ha costado un poco más estar atento por la cantidad de estímulo abstracto,61.0,yes
95,2024-05-08_17h24.01.915,Unsyncopated_study3,s150,29.0,masculino,right,España,Español,Master degree,no,no,A,1,conjunction_syn,L2,syncopated,s1,r1,95,Online_conjL2_syn//d.si.ñu4.none.none.wav,go,su,to,du,sil,bi,me,cha,sil1,mi,sil2,['-'],,,none,none,,,,si,4,testWhatL4Uns//r2.s1.1.wav,4.0,what,unsyncopated,b,s1,rule,rule,L4,z,0.9994,3.0,1.0,0.8098,2.0,2.0,Español,0.0,Inglés,6.0,4.0,1.0,no,no,no,Flauta ,5,,,EL cuarto lenguaje ha costado un poco más estar atento por la cantidad de estímulo abstracto,61.0,yes
96,2024-05-08_17h24.01.915,Unsyncopated_study3,s150,29.0,masculino,right,España,Español,Master degree,no,no,A,1,conjunction_syn,L2,syncopated,s2,r2,96,Online_conjL2_syn//a.go.du8.none.none.wav,to,bi,te,fe,sil,ñu,mi,ra,sil1,si,sil2,['-'],,,none,none,,,,du,2,,,,,,,,,,,,,,,2.0,2.0,Español,0.0,Inglés,6.0,4.0,1.0,no,no,no,Flauta ,5,,,EL cuarto lenguaje ha costado un poco más estar atento por la cantidad de estímulo abstracto,61.0,yes
97,2024-05-08_17h24.01.915,Unsyncopated_study3,s150,29.0,masculino,right,España,Español,Master degree,no,no,A,1,conjunction_syn,L2,syncopated,s1,r2,97,Online_conjL2_syn//a.go.du10.none.none.wav,fe,cha,ba,ra,sil,ño,si,me,sil1,mi,sil2,['-'],,,none,none,,,,du,2,,,,,,,,,,,,,,,2.0,2.0,Español,0.0,Inglés,6.0,4.0,1.0,no,no,no,Flauta ,5,,,EL cuarto lenguaje ha costado un poco más estar atento por la cantidad de estímulo abstracto,61.0,yes
98,2024-05-08_17h24.01.915,Unsyncopated_study3,s150,29.0,masculino,right,España,Español,Master degree,no,no,A,1,conjunction_syn,L2,syncopated,s1,r2,98,Online_conjL2_syn//a.go.du9.none.none.wav,fe,ñu,bi,ra,sil,to,te,si,sil1,su,sil2,['-'],,,none,none,,,,du,2,,,,,,,,,,,,,,,2.0,2.0,Español,0.0,Inglés,6.0,4.0,1.0,no,no,no,Flauta ,5,,,EL cuarto lenguaje ha costado un poco más estar atento por la cantidad de estímulo abstracto,61.0,yes
99,2024-05-08_17h24.01.915,Unsyncopated_study3,s150,29.0,masculino,right,España,Español,Master degree,no,no,A,1,conjunction_syn,L2,syncopated,s2,r2,99,Online_conjL2_syn//a.go.du11.none.none.wav,to,te,ba,fe,sil,cha,me,ra,sil1,bi,sil2,['-'],,,none,none,,,,du,2,,,,,,,,,,,,,,,2.0,2.0,Español,0.0,Inglés,6.0,4.0,1.0,no,no,no,Flauta ,5,,,EL cuarto lenguaje ha costado un poco más estar atento por la cantidad de estímulo abstracto,61.0,yes
100,2024-05-08_17h24.01.915,Unsyncopated_study3,s150,29.0,masculino,right,España,Español,Master degree,no,no,A,1,conjunction_syn,L2,syncopated,s2,r1,100,Online_conjL2_syn//b.fe.ra4.none.none.wav,me,bi,ño,go,sil,ñu,to,du,sil1,te,sil2,['-'],,,none,none,,,,fe,1,,,,,,,,,,,,,,,2.0,2.0,Español,0.0,Inglés,6.0,4.0,1.0,no,no,no,Flauta ,5,,,EL cuarto lenguaje ha costado un poco más estar atento por la cantidad de estímulo abstracto,61.0,yes
101,2024-05-08_17h24.01.915,Unsyncopated_study3,s150,29.0,masculino,right,España,Español,Master degree,no,no,A,1,conjunction_syn,L2,syncopated,s2,r1,101,Online_conjL2_syn//b.fe.ra7.none.none.wav,ba,cha,me,go,sil,su,si,du,sil1,mi,sil2,['-'],,,none,none,,,,fe,1,,,,,,,,,,,,,,,2.0,2.0,Español,0.0,Inglés,6.0,4.0,1.0,no,no,no,Flauta ,5,,,EL cuarto lenguaje ha costado un poco más estar atento por la cantidad de estímulo abstracto,61.0,yes
102,2024-05-08_17h24.01.915,Unsyncopated_study3,s150,29.0,masculino,right,España,Español,Master degree,no,no,A,1,conjunction_syn,L2,syncopated,s2,r1,102,Online_conjL2_syn//b.fe.ra6.none.none.wav,te,ño,ba,go,sil,ñu,cha,du,sil1,su,sil2,['-'],,,none,none,,,,fe,1,,,,,,,,,,,,,,,2.0,2.0,Español,0.0,Inglés,6.0,4.0,1.0,no,no,no,Flauta ,5,,,EL cuarto lenguaje ha costado un poco más estar atento por la cantidad de estímulo abstracto,61.0,yes
103,2024-05-08_17h24.01.915,Unsyncopated_study3,s150,29.0,masculino,right,España,Español,Master degree,no,no,A,1,conjunction_syn,L2,syncopated,s2,r2,103,Online_conjL2_syn//b.fe.ra5.666.1554.wav,ñu,te,to,fe,sil,ba,su,ra,sil1,mi,sil2,['catch'],[1.444199999809257],[1.444199999809257],0.666,no_beat,0.7781999998092569,0.7781999998092569,"[""space""]",fe,1,,,,,,,,,,,,,,,2.0,2.0,Español,0.0,Inglés,6.0,4.0,1.0,no,no,no,Flauta ,5,,,EL cuarto lenguaje ha costado un poco más estar atento por la cantidad de estímulo abstracto,61.0,yes
104,2024-05-08_17h24.01.915,Unsyncopated_study3,s150,29.0,masculino,right,España,Español,Master degree,no,no,A,1,conjunction_syn,L2,syncopated,s1,r1,104,Online_conjL2_syn//d.si.ñu0.1554.1110.wav,go,su,bi,du,sil,ñu,ba,si,sil1,ño,sil2,['miss'],,,1.554,no_beat,,,,si,4,,,,,,,,,,,,,,,2.0,2.0,Español,0.0,Inglés,6.0,4.0,1.0,no,no,no,Flauta ,5,,,EL cuarto lenguaje ha costado un poco más estar atento por la cantidad de estímulo abstracto,61.0,yes
105,2024-05-08_17h24.01.915,Unsyncopated_study3,s150,29.0,masculino,right,España,Español,Master degree,no,no,A,1,conjunction_syn,L2,syncopated,s1,r1,105,Online_conjL2_syn//d.si.ñu1.none.none.wav,go,te,ba,du,sil,bi,mi,me,sil1,to,sil2,['-'],,,none,none,,,,si,4,,,,,,,,,,,,,,,2.0,2.0,Español,0.0,Inglés,6.0,4.0,1.0,no,no,no,Flauta ,5,,,EL cuarto lenguaje ha costado un poco más estar atento por la cantidad de estímulo abstracto,61.0,yes
106,2024-05-08_17h24.01.915,Unsyncopated_study3,s150,29.0,masculino,right,España,Español,Master degree,no,no,A,1,conjunction_syn,L2,syncopated,s1,r1,106,Online_conjL2_syn//d.si.ñu3.none.none.wav,go,to,cha,du,sil,bi,te,mi,sil1,ño,sil2,['-'],,,none,none,,,,si,4,,,,,,,,,,,,,,,2.0,2.0,Español,0.0,Inglés,6.0,4.0,1.0,no,no,no,Flauta ,5,,,EL cuarto lenguaje ha costado un poco más estar atento por la cantidad de estímulo abstracto,61.0,yes
107,2024-05-08_17h24.01.915,Unsyncopated_study3,s150,29.0,masculino,right,España,Español,Master degree,no,no,A,1,conjunction_syn,L2,syncopated,s1,r2,107,Online_conjL2_syn//d.si.ñu2.none.none.wav,fe,bi,me,ra,sil,te,mi,to,sil1,cha,sil2,['-'],,,none,none,,,,si,4,,,,,,,,,,,,,,,2.0,2.0,Español,0.0,Inglés,6.0,4.0,1.0,no,no,no,Flauta ,5,,,EL cuarto lenguaje ha costado un poco más estar atento por la cantidad de estímulo abstracto,61.0,yes
108,2024-05-08_17h24.01.915,Unsyncopated_study3,s150,29.0,masculino,right,España,Español,Master degree,no,no,A,1,conjunction_syn,L2,syncopated,s1,r2,108,Online_conjL2_syn//c.cha.me14.none.none.wav,fe,to,su,ra,sil,si,te,mi,sil1,bi,sil2,['-'],,,none,none,,,,cha,3,,,,,,,,,,,,,,,2.0,2.0,Español,0.0,Inglés,6.0,4.0,1.0,no,no,no,Flauta ,5,,,EL cuarto lenguaje ha costado un poco más estar atento por la cantidad de estímulo abstracto,61.0,yes
109,2024-05-08_17h24.01.915,Unsyncopated_study3,s150,29.0,masculino,right,España,Español,Master degree,no,no,A,1,conjunction_syn,L2,syncopated,s1,r2,109,Online_conjL2_syn//c.cha.me15.222.1110.wav,fe,cha,si,ra,sil,me,su,ba,sil1,ñu,sil2,['catch'],[1.14029999995239],[1.14029999995239],0.222,no_beat,0.91829999995239,0.91829999995239,"[""space""]",cha,3,,,,,,,,,,,,,,,2.0,2.0,Español,0.0,Inglés,6.0,4.0,1.0,no,no,no,Flauta ,5,,,EL cuarto lenguaje ha costado un poco más estar atento por la cantidad de estímulo abstracto,61.0,yes
110,2024-05-08_17h24.01.915,Unsyncopated_study3,s150,29.0,masculino,right,España,Español,Master degree,no,no,A,1,conjunction_syn,L2,syncopated,s1,r1,110,Online_conjL2_syn//c.cha.me13.222.1110.wav,go,cha,su,du,sil,me,ño,ñu,sil1,mi,sil2,['miss'],,,0.222,no_beat,,,,cha,3,,,,,,,,,,,,,,,2.0,2.0,Español,0.0,Inglés,6.0,4.0,1.0,no,no,no,Flauta ,5,,,EL cuarto lenguaje ha costado un poco más estar atento por la cantidad de estímulo abstracto,61.0,yes
111,2024-05-08_17h24.01.915,Unsyncopated_study3,s150,29.0,masculino,right,España,Español,Master degree,no,no,A,1,conjunction_syn,L2,syncopated,s1,r1,111,Online_conjL2_syn//c.cha.me12.none.none.wav,go,te,ño,du,sil,bi,ñu,to,sil1,mi,sil2,['-'],,,none,none,,,,cha,3,,,,,,,,,,,,,,,2.0,2.0,Español,0.0,Inglés,6.0,4.0,1.0,no,no,no,Flauta ,5,,,EL cuarto lenguaje ha costado un poco más estar atento por la cantidad de estímulo abstracto,61.0,yes
112,2024-05-08_17h24.01.915,Unsyncopated_study3,s150,29.0,masculino,right,España,Español,Master degree,no,no,A,1,conjunction_syn,L2,syncopated,s2,r2,112,Online_conjL2_syn//d.si.ñu16.none.none.wav,te,to,bi,fe,sil,me,mi,ra,sil1,cha,sil2,['-'],,,none,none,,,,si,4,,,,,,,,,,,,,,,2.0,2.0,Español,0.0,Inglés,6.0,4.0,1.0,no,no,no,Flauta ,5,,,EL cuarto lenguaje ha costado un poco más estar atento por la cantidad de estímulo abstracto,61.0,yes
113,2024-05-08_17h24.01.915,Unsyncopated_study3,s150,29.0,masculino,right,España,Español,Master degree,no,no,A,1,conjunction_syn,L2,syncopated,s2,r2,113,Online_conjL2_syn//d.si.ñu18.none.none.wav,te,su,to,fe,sil,me,cha,ra,sil1,ba,sil2,['false alarm'],[0.9949000000954129],[0.9949000000954129],none,none,,,"[""space""]",si,4,,,,,,,,,,,,,,,2.0,2.0,Español,0.0,Inglés,6.0,4.0,1.0,no,no,no,Flauta ,5,,,EL cuarto lenguaje ha costado un poco más estar atento por la cantidad de estímulo abstracto,61.0,yes
114,2024-05-08_17h24.01.915,Unsyncopated_study3,s150,29.0,masculino,right,España,Español,Master degree,no,no,A,1,conjunction_syn,L2,syncopated,s2,r1,114,Online_conjL2_syn//d.si.ñu17.0.222.wav,si,ñu,te,go,sil,to,ba,du,sil1,bi,sil2,['catch'],[0.7058999998569107],[0.7058999998569107],0.0,beat,0.7058999998569107,0.7058999998569107,"[""space""]",si,4,,,,,,,,,,,,,,,2.0,2.0,Español,0.0,Inglés,6.0,4.0,1.0,no,no,no,Flauta ,5,,,EL cuarto lenguaje ha costado un poco más estar atento por la cantidad de estímulo abstracto,61.0,yes
115,2024-05-08_17h24.01.915,Unsyncopated_study3,s150,29.0,masculino,right,España,Español,Master degree,no,no,A,1,conjunction_syn,L2,syncopated,s1,r2,115,Online_conjL2_syn//d.si.ñu19.444.1110.wav,fe,bi,si,ra,sil,ñu,te,to,sil1,ño,sil2,['catch'],[1.3115000000000236],[1.3115000000000236],0.444,no_beat,0.8675000000000237,0.8675000000000237,"[""space""]",si,4,,,,,,,,,,,,,,,2.0,2.0,Español,0.0,Inglés,6.0,4.0,1.0,no,no,no,Flauta ,5,,,EL cuarto lenguaje ha costado un poco más estar atento por la cantidad de estímulo abstracto,61.0,yes
116,2024-05-08_17h24.01.915,Unsyncopated_study3,s150,29.0,masculino,right,España,Español,Master degree,no,no,A,1,conjunction_syn,L2,syncopated,s2,r2,116,Online_conjL2_syn//a.go.du21.none.none.wav,cha,te,to,fe,sil,si,ba,ra,sil1,bi,sil2,['-'],,,none,none,,,,du,2,,,,,,,,,,,,,,,2.0,2.0,Español,0.0,Inglés,6.0,4.0,1.0,no,no,no,Flauta ,5,,,EL cuarto lenguaje ha costado un poco más estar atento por la cantidad de estímulo abstracto,61.0,yes
117,2024-05-08_17h24.01.915,Unsyncopated_study3,s150,29.0,masculino,right,España,Español,Master degree,no,no,A,1,conjunction_syn,L2,syncopated,s2,r2,117,Online_conjL2_syn//a.go.du20.none.none.wav,to,ba,me,fe,sil,su,te,ra,sil1,ñu,sil2,['-'],,,none,none,,,,du,2,,,,,,,,,,,,,,,2.0,2.0,Español,0.0,Inglés,6.0,4.0,1.0,no,no,no,Flauta ,5,,,EL cuarto lenguaje ha costado un poco más estar atento por la cantidad de estímulo abstracto,61.0,yes
118,2024-05-08_17h24.01.915,Unsyncopated_study3,s150,29.0,masculino,right,España,Español,Master degree,no,no,A,1,conjunction_syn,L2,syncopated,s1,r1,118,Online_conjL2_syn//a.go.du23.0.666.wav,go,te,ba,du,sil,bi,si,su,sil1,ñu,sil2,['catch'],[1.3555000000000064],[1.3555000000000064],0.666,no_beat,0.6895000000000063,0.6895000000000063,"[""space""]",du,2,,,,,,,,,,,,,,,2.0,2.0,Español,0.0,Inglés,6.0,4.0,1.0,no,no,no,Flauta ,5,,,EL cuarto lenguaje ha costado un poco más estar atento por la cantidad de estímulo abstracto,61.0,yes
119,2024-05-08_17h24.01.915,Unsyncopated_study3,s150,29.0,masculino,right,España,Español,Master degree,no,no,A,1,conjunction_syn,L2,syncopated,s2,r2,119,Online_conjL2_syn//a.go.du22.none.none.wav,to,cha,mi,fe,sil,bi,ba,ra,sil1,si,sil2,['-'],,,none,none,,,,du,2,,,,,,,,,,,,,,,2.0,2.0,Español,0.0,Inglés,6.0,4.0,1.0,no,no,no,Flauta ,5,,,EL cuarto lenguaje ha costado un poco más estar atento por la cantidad de estímulo abstracto,61.0,yes
120,2024-05-08_17h24.01.915,Unsyncopated_study3,s150,29.0,masculino,right,España,Español,Master degree,no,no,A,1,conjunction_syn,L2,syncopated,s2,r2,120,Online_conjL2_syn//c.cha.me31.0.1110.wav,cha,ño,si,fe,sil,me,ba,ra,sil1,su,sil2,['catch'],[0.9194999999999709],[0.9194999999999709],0.0,beat,0.9194999999999708,0.9194999999999708,"[""space""]",cha,3,,,,,,,,,,,,,,,2.0,2.0,Español,0.0,Inglés,6.0,4.0,1.0,no,no,no,Flauta ,5,,,EL cuarto lenguaje ha costado un poco más estar atento por la cantidad de estímulo abstracto,61.0,yes
121,2024-05-08_17h24.01.915,Unsyncopated_study3,s150,29.0,masculino,right,España,Español,Master degree,no,no,A,1,conjunction_syn,L2,syncopated,s2,r1,121,Online_conjL2_syn//c.cha.me28.none.none.wav,su,te,ba,go,sil,mi,to,du,sil1,ño,sil2,['-'],,,none,none,,,,cha,3,,,,,,,,,,,,,,,2.0,2.0,Español,0.0,Inglés,6.0,4.0,1.0,no,no,no,Flauta ,5,,,EL cuarto lenguaje ha costado un poco más estar atento por la cantidad de estímulo abstracto,61.0,yes
122,2024-05-08_17h24.01.915,Unsyncopated_study3,s150,29.0,masculino,right,España,Español,Master degree,no,no,A,1,conjunction_syn,L2,syncopated,s2,r2,122,Online_conjL2_syn//c.cha.me29.none.none.wav,te,bi,to,fe,sil,ño,si,ra,sil1,mi,sil2,['-'],,,none,none,,,,cha,3,,,,,,,,,,,,,,,2.0,2.0,Español,0.0,Inglés,6.0,4.0,1.0,no,no,no,Flauta ,5,,,EL cuarto lenguaje ha costado un poco más estar atento por la cantidad de estímulo abstracto,61.0,yes
123,2024-05-08_17h24.01.915,Unsyncopated_study3,s150,29.0,masculino,right,España,Español,Master degree,no,no,A,1,conjunction_syn,L2,syncopated,s2,r2,123,Online_conjL2_syn//c.cha.me30.none.none.wav,to,ño,su,fe,sil,te,bi,ra,sil1,ñu,sil2,['-'],,,none,none,,,,cha,3,,,,,,,,,,,,,,,2.0,2.0,Español,0.0,Inglés,6.0,4.0,1.0,no,no,no,Flauta ,5,,,EL cuarto lenguaje ha costado un poco más estar atento por la cantidad de estímulo abstracto,61.0,yes
124,2024-05-08_17h24.01.915,Unsyncopated_study3,s150,29.0,masculino,right,España,Español,Master degree,no,no,A,1,conjunction_syn,L2,syncopated,s2,r2,124,Online_conjL2_syn//d.si.ñu23.0.444.wav,si,su,ñu,fe,sil,mi,ño,ra,sil1,cha,sil2,['catch'],[0.6860999999046271],[0.6860999999046271],0.0,beat,0.6860999999046271,0.6860999999046271,"[""space""]",si,4,,,,,,,,,,,,,,,2.0,2.0,Español,0.0,Inglés,6.0,4.0,1.0,no,no,no,Flauta ,5,,,EL cuarto lenguaje ha costado un poco más estar atento por la cantidad de estímulo abstracto,61.0,yes
125,2024-05-08_17h24.01.915,Unsyncopated_study3,s150,29.0,masculino,right,España,Español,Master degree,no,no,A,1,conjunction_syn,L2,syncopated,s2,r1,125,Online_conjL2_syn//d.si.ñu20.1110.0.wav,ñu,ño,mi,go,sil,si,to,du,sil1,me,sil2,['miss'],,,1.11,no_beat,,,,si,4,,,,,,,,,,,,,,,2.0,2.0,Español,0.0,Inglés,6.0,4.0,1.0,no,no,no,Flauta ,5,,,EL cuarto lenguaje ha costado un poco más estar atento por la cantidad de estímulo abstracto,61.0,yes
126,2024-05-08_17h24.01.915,Unsyncopated_study3,s150,29.0,masculino,right,España,Español,Master degree,no,no,A,1,conjunction_syn,L2,syncopated,s2,r1,126,Online_conjL2_syn//d.si.ñu21.0.1110.wav,si,su,bi,go,sil,ñu,me,du,sil1,mi,sil2,['miss'],,,0.0,beat,,,,si,4,,,,,,,,,,,,,,,2.0,2.0,Español,0.0,Inglés,6.0,4.0,1.0,no,no,no,Flauta ,5,,,EL cuarto lenguaje ha costado un poco más estar atento por la cantidad de estímulo abstracto,61.0,yes
127,2024-05-08_17h24.01.915,Unsyncopated_study3,s150,29.0,masculino,right,España,Español,Master degree,no,no,A,1,conjunction_syn,L2,syncopated,s2,r1,127,Online_conjL2_syn//d.si.ñu22.1332.222.wav,ba,ñu,me,go,sil,ño,si,du,sil1,te,sil2,['miss'],,,1.332,no_beat,,,,si,4,,,,,,,,,,,,,,,2.0,2.0,Español,0.0,Inglés,6.0,4.0,1.0,no,no,no,Flauta ,5,,,EL cuarto lenguaje ha costado un poco más estar atento por la cantidad de estímulo abstracto,61.0,yes
128,2024-05-08_17h24.01.915,Unsyncopated_study3,s150,29.0,masculino,right,España,Español,Master degree,no,no,A,2,when,L1,unsyncopated,when,when,0,Online_whenL1//a.ki11.none.wav,cho,la,pu,sil,zu,ta,ro,sil1,ni,ri,sil2,['-'],,,none,none,,,,ki,2,,,,,,,,,,,,,,,2.0,2.0,Español,0.0,Inglés,6.0,4.0,1.0,no,no,no,Flauta ,5,,,EL cuarto lenguaje ha costado un poco más estar atento por la cantidad de estímulo abstracto,61.0,yes
129,2024-05-08_17h24.01.915,Unsyncopated_study3,s150,29.0,masculino,right,España,Español,Master degree,no,no,A,2,when,L1,unsyncopated,when,when,1,Online_whenL1//a.ki10.222.wav,ro,ki,be,sil,la,ri,lu,sil1,fo,fa,sil2,['catch'],[0.9994999999998981],[0.9994999999998981],0.222,no_beat,0.7774999999998982,0.7774999999998982,"[""space""]",ki,2,,,,,,,,,,,,,,,2.0,2.0,Español,0.0,Inglés,6.0,4.0,1.0,no,no,no,Flauta ,5,,,EL cuarto lenguaje ha costado un poco más estar atento por la cantidad de estímulo abstracto,61.0,yes
130,2024-05-08_17h24.01.915,Unsyncopated_study3,s150,29.0,masculino,right,España,Español,Master degree,no,no,A,2,when,L1,unsyncopated,when,when,2,Online_whenL1//a.ki9.none.wav,la,ro,ze,sil,cho,fa,pu,sil1,ne,ta,sil2,['-'],,,none,none,,,,ki,2,,,,,,,,,,,,,,,2.0,2.0,Español,0.0,Inglés,6.0,4.0,1.0,no,no,no,Flauta ,5,,,EL cuarto lenguaje ha costado un poco más estar atento por la cantidad de estímulo abstracto,61.0,yes
131,2024-05-08_17h24.01.915,Unsyncopated_study3,s150,29.0,masculino,right,España,Español,Master degree,no,no,A,2,when,L1,unsyncopated,when,when,3,Online_whenL1//a.ki8.none.wav,ne,fo,zu,sil,pu,be,ni,sil1,ze,la,sil2,['-'],,,none,none,,,,ki,2,,,,,,,,,,,,,,,2.0,2.0,Español,0.0,Inglés,6.0,4.0,1.0,no,no,no,Flauta ,5,,,EL cuarto lenguaje ha costado un poco más estar atento por la cantidad de estímulo abstracto,61.0,yes
132,2024-05-08_17h24.01.915,Unsyncopated_study3,s150,29.0,masculino,right,España,Español,Master degree,no,no,A,2,when,L1,unsyncopated,when,when,4,Online_whenL1//c.ro22.none.wav,cho,la,zu,sil,fa,fo,ta,sil1,ni,be,sil2,['-'],,,none,none,,,,ro,3,,,,,,,,,,,,,,,2.0,2.0,Español,0.0,Inglés,6.0,4.0,1.0,no,no,no,Flauta ,5,,,EL cuarto lenguaje ha costado un poco más estar atento por la cantidad de estímulo abstracto,61.0,yes
133,2024-05-08_17h24.01.915,Unsyncopated_study3,s150,29.0,masculino,right,España,Español,Master degree,no,no,A,2,when,L1,unsyncopated,when,when,5,Online_whenL1//c.ro20.none.wav,cho,zu,ri,sil,la,be,ne,sil1,fa,ta,sil2,['false alarm'],[1.1212000000477929],[1.1212000000477929],none,none,,,"[""space""]",ro,3,,,,,,,,,,,,,,,2.0,2.0,Español,0.0,Inglés,6.0,4.0,1.0,no,no,no,Flauta ,5,,,EL cuarto lenguaje ha costado un poco más estar atento por la cantidad de estímulo abstracto,61.0,yes
134,2024-05-08_17h24.01.915,Unsyncopated_study3,s150,29.0,masculino,right,España,Español,Master degree,no,no,A,2,when,L1,unsyncopated,when,when,6,Online_whenL1//c.ro21.none.wav,ni,ta,ki,sil,fo,lu,cho,sil1,la,ne,sil2,['-'],,,none,none,,,,ro,3,,,,,,,,,,,,,,,2.0,2.0,Español,0.0,Inglés,6.0,4.0,1.0,no,no,no,Flauta ,5,,,EL cuarto lenguaje ha costado un poco más estar atento por la cantidad de estímulo abstracto,61.0,yes
135,2024-05-08_17h24.01.915,Unsyncopated_study3,s150,29.0,masculino,right,España,Español,Master degree,no,no,A,2,when,L1,unsyncopated,when,when,7,Online_whenL1//c.ro23.1998.wav,cho,la,pu,sil,ri,fo,ta,sil1,lu,ro,sil2,['catch_delay'],[0.7236999998093017],[0.7236999998093017],1.998,no_beat,0.7236999998093017,0.7236999998093017,"[""space""]",ro,3,,,,,,,,,,,,,,,2.0,2.0,Español,0.0,Inglés,6.0,4.0,1.0,no,no,no,Flauta ,5,,,EL cuarto lenguaje ha costado un poco más estar atento por la cantidad de estímulo abstracto,61.0,yes
136,2024-05-08_17h24.01.915,Unsyncopated_study3,s150,29.0,masculino,right,España,Español,Master degree,no,no,A,2,when,L1,unsyncopated,when,when,8,Online_whenL1//b.ta1.none.wav,ki,cho,fa,sil,ne,ze,ri,sil1,be,la,sil2,['-'],[0.057699999809301517],[0.057699999809301517],none,none,,,"[""space""]",ta,1,,,,,,,,,,,,,,,2.0,2.0,Español,0.0,Inglés,6.0,4.0,1.0,no,no,no,Flauta ,5,,,EL cuarto lenguaje ha costado un poco más estar atento por la cantidad de estímulo abstracto,61.0,yes
137,2024-05-08_17h24.01.915,Unsyncopated_study3,s150,29.0,masculino,right,España,Español,Master degree,no,no,A,2,when,L1,unsyncopated,when,when,9,Online_whenL1//b.ta2.1332.wav,zu,ni,pu,sil,ri,ne,ta,sil1,ze,fa,sil2,['catch'],[1.9822999999523745],[1.9822999999523745],1.332,no_beat,0.6502999999523744,0.6502999999523744,"[""space""]",ta,1,,,,,,,,,,,,,,,2.0,2.0,Español,0.0,Inglés,6.0,4.0,1.0,no,no,no,Flauta ,5,,,EL cuarto lenguaje ha costado un poco más estar atento por la cantidad de estímulo abstracto,61.0,yes
138,2024-05-08_17h24.01.915,Unsyncopated_study3,s150,29.0,masculino,right,España,Español,Master degree,no,no,A,2,when,L1,unsyncopated,when,when,10,Online_whenL1//b.ta3.222.wav,ri,ta,fo,sil,ro,ni,pu,sil1,zu,ne,sil2,['catch'],[0.8531000001430584],[0.8531000001430584],0.222,no_beat,0.6311000001430584,0.6311000001430584,"[""space""]",ta,1,,,,,,,,,,,,,,,2.0,2.0,Español,0.0,Inglés,6.0,4.0,1.0,no,no,no,Flauta ,5,,,EL cuarto lenguaje ha costado un poco más estar atento por la cantidad de estímulo abstracto,61.0,yes
139,2024-05-08_17h24.01.915,Unsyncopated_study3,s150,29.0,masculino,right,España,Español,Master degree,no,no,A,2,when,L1,unsyncopated,when,when,11,Online_whenL1//b.ta0.none.wav,ri,lu,ze,sil,zu,la,pu,sil1,cho,be,sil2,['-'],,,none,none,,,,ta,1,,,,,,,,,,,,,,,2.0,2.0,Español,0.0,Inglés,6.0,4.0,1.0,no,no,no,Flauta ,5,,,EL cuarto lenguaje ha costado un poco más estar atento por la cantidad de estímulo abstracto,61.0,yes
140,2024-05-08_17h24.01.915,Unsyncopated_study3,s150,29.0,masculino,right,España,Español,Master degree,no,no,A,2,when,L1,unsyncopated,when,when,12,Online_whenL1//b.ta32.none.wav,ki,ni,fo,sil,lu,zu,cho,sil1,be,ri,sil2,['-'],,,none,none,,,,ta,1,,,,,,,,,,,,,,,2.0,2.0,Español,0.0,Inglés,6.0,4.0,1.0,no,no,no,Flauta ,5,,,EL cuarto lenguaje ha costado un poco más estar atento por la cantidad de estímulo abstracto,61.0,yes
141,2024-05-08_17h24.01.915,Unsyncopated_study3,s150,29.0,masculino,right,España,Español,Master degree,no,no,A,2,when,L1,unsyncopated,when,when,13,Online_whenL1//b.ta35.222.wav,fa,ta,ze,sil,fo,lu,ro,sil1,ni,be,sil2,['catch'],[0.97199999999998],[0.97199999999998],0.222,no_beat,0.74999999999998,0.74999999999998,"[""space""]",ta,1,,,,,,,,,,,,,,,2.0,2.0,Español,0.0,Inglés,6.0,4.0,1.0,no,no,no,Flauta ,5,,,EL cuarto lenguaje ha costado un poco más estar atento por la cantidad de estímulo abstracto,61.0,yes
142,2024-05-08_17h24.01.915,Unsyncopated_study3,s150,29.0,masculino,right,España,Español,Master degree,no,no,A,2,when,L1,unsyncopated,when,when,14,Online_whenL1//b.ta33.none.wav,ro,cho,be,sil,la,pu,ri,sil1,lu,zu,sil2,['-'],,,none,none,,,,ta,1,,,,,,,,,,,,,,,2.0,2.0,Español,0.0,Inglés,6.0,4.0,1.0,no,no,no,Flauta ,5,,,EL cuarto lenguaje ha costado un poco más estar atento por la cantidad de estímulo abstracto,61.0,yes
143,2024-05-08_17h24.01.915,Unsyncopated_study3,s150,29.0,masculino,right,España,Español,Master degree,no,no,A,2,when,L1,unsyncopated,when,when,15,Online_whenL1//b.ta34.1110.wav,be,cho,la,sil,ro,ta,fo,sil1,lu,ni,sil2,['catch'],[1.6412000000477747],[1.6412000000477747],1.11,no_beat,0.5312000000477746,0.5312000000477746,"[""space""]",ta,1,,,,,,,,,,,,,,,2.0,2.0,Español,0.0,Inglés,6.0,4.0,1.0,no,no,no,Flauta ,5,,,EL cuarto lenguaje ha costado un poco más estar atento por la cantidad de estímulo abstracto,61.0,yes
144,2024-05-08_17h24.01.915,Unsyncopated_study3,s150,29.0,masculino,right,España,Español,Master degree,no,no,A,2,when,L1,unsyncopated,when,when,16,Online_whenL1//a.ki3.1110.wav,ri,ni,fa,sil,cho,ki,ze,sil1,fo,ta,sil2,['catch'],[1.9973999998569525],[1.9973999998569525],1.11,no_beat,0.8873999998569524,0.8873999998569524,"[""space""]",ki,2,,,,,,,,,,,,,,,2.0,2.0,Español,0.0,Inglés,6.0,4.0,1.0,no,no,no,Flauta ,5,,,EL cuarto lenguaje ha costado un poco más estar atento por la cantidad de estímulo abstracto,61.0,yes
145,2024-05-08_17h24.01.915,Unsyncopated_study3,s150,29.0,masculino,right,España,Español,Master degree,no,no,A,2,when,L1,unsyncopated,when,when,17,Online_whenL1//a.ki1.1776.wav,zu,ri,ni,sil,ne,be,ro,sil1,ki,fa,sil2,['miss'],,,1.776,beat,,,,ki,2,,,,,,,,,,,,,,,2.0,2.0,Español,0.0,Inglés,6.0,4.0,1.0,no,no,no,Flauta ,5,,,EL cuarto lenguaje ha costado un poco más estar atento por la cantidad de estímulo abstracto,61.0,yes
146,2024-05-08_17h24.01.915,Unsyncopated_study3,s150,29.0,masculino,right,España,Español,Master degree,no,no,A,2,when,L1,unsyncopated,when,when,18,Online_whenL1//a.ki0.none.wav,zu,ta,ri,sil,ro,ne,cho,sil1,pu,la,sil2,['-'],,,none,none,,,,ki,2,,,,,,,,,,,,,,,2.0,2.0,Español,0.0,Inglés,6.0,4.0,1.0,no,no,no,Flauta ,5,,,EL cuarto lenguaje ha costado un poco más estar atento por la cantidad de estímulo abstracto,61.0,yes
147,2024-05-08_17h24.01.915,Unsyncopated_study3,s150,29.0,masculino,right,España,Español,Master degree,no,no,A,2,when,L1,unsyncopated,when,when,19,Online_whenL1//a.ki2.none.wav,zu,ne,ta,sil,ri,be,ni,sil1,fo,lu,sil2,['-'],,,none,none,,,,ki,2,,,,,,,,,,,,,,,2.0,2.0,Español,0.0,Inglés,6.0,4.0,1.0,no,no,no,Flauta ,5,,,EL cuarto lenguaje ha costado un poco más estar atento por la cantidad de estímulo abstracto,61.0,yes
148,2024-05-08_17h24.01.915,Unsyncopated_study3,s150,29.0,masculino,right,España,Español,Master degree,no,no,A,2,when,L1,unsyncopated,when,when,20,Online_whenL1//d.ne6.444.wav,fo,pu,ne,sil,cho,ro,lu,sil1,ki,zu,sil2,['catch'],[1.028200000047491],[1.028200000047491],0.444,no_beat,0.584200000047491,0.584200000047491,"[""space""]",ne,4,,,,,,,,,,,,,,,2.0,2.0,Español,0.0,Inglés,6.0,4.0,1.0,no,no,no,Flauta ,5,,,EL cuarto lenguaje ha costado un poco más estar atento por la cantidad de estímulo abstracto,61.0,yes
149,2024-05-08_17h24.01.915,Unsyncopated_study3,s150,29.0,masculino,right,España,Español,Master degree,no,no,A,2,when,L1,unsyncopated,when,when,21,Online_whenL1//d.ne5.none.wav,zu,ta,lu,sil,la,ni,ri,sil1,fa,be,sil2,['-'],,,none,none,,,,ne,4,,,,,,,,,,,,,,,2.0,2.0,Español,0.0,Inglés,6.0,4.0,1.0,no,no,no,Flauta ,5,,,EL cuarto lenguaje ha costado un poco más estar atento por la cantidad de estímulo abstracto,61.0,yes
150,2024-05-08_17h24.01.915,Unsyncopated_study3,s150,29.0,masculino,right,España,Español,Master degree,no,no,A,2,when,L1,unsyncopated,when,when,22,Online_whenL1//d.ne4.1998.wav,fo,ki,ta,sil,ri,cho,zu,sil1,ni,ne,sil2,['catch'],[2.503399999857038],[2.503399999857038],1.998,no_beat,0.505399999857038,0.505399999857038,"[""space""]",ne,4,,,,,,,,,,,,,,,2.0,2.0,Español,0.0,Inglés,6.0,4.0,1.0,no,no,no,Flauta ,5,,,EL cuarto lenguaje ha costado un poco más estar atento por la cantidad de estímulo abstracto,61.0,yes
151,2024-05-08_17h24.01.915,Unsyncopated_study3,s150,29.0,masculino,right,España,Español,Master degree,no,no,A,2,when,L1,unsyncopated,when,when,23,Online_whenL1//d.ne7.none.wav,ri,lu,ki,sil,zu,ni,ta,sil1,cho,ro,sil2,['-'],,,none,none,,,,ne,4,,,,,,,,,,,,,,,2.0,2.0,Español,0.0,Inglés,6.0,4.0,1.0,no,no,no,Flauta ,5,,,EL cuarto lenguaje ha costado un poco más estar atento por la cantidad de estímulo abstracto,61.0,yes
152,2024-05-08_17h24.01.915,Unsyncopated_study3,s150,29.0,masculino,right,España,Español,Master degree,no,no,A,2,when,L1,unsyncopated,when,when,24,Online_whenL1//c.ro17.none.wav,la,ze,pu,sil,ki,cho,zu,sil1,fa,ne,sil2,['false alarm'],[0.7960999999047544],[0.7960999999047544],none,none,,,"[""space""]",ro,3,,,,,,,,,,,,,,,2.0,2.0,Español,0.0,Inglés,6.0,4.0,1.0,no,no,no,Flauta ,5,,,EL cuarto lenguaje ha costado un poco más estar atento por la cantidad de estímulo abstracto,61.0,yes
153,2024-05-08_17h24.01.915,Unsyncopated_study3,s150,29.0,masculino,right,España,Español,Master degree,no,no,A,2,when,L1,unsyncopated,when,when,25,Online_whenL1//c.ro16.1776.wav,fa,ne,zu,sil,ki,ta,ze,sil1,ro,cho,sil2,['catch'],[2.4866000001431985],[2.4866000001431985],1.776,beat,0.7106000001431985,0.7106000001431985,"[""space""]",ro,3,,,,,,,,,,,,,,,2.0,2.0,Español,0.0,Inglés,6.0,4.0,1.0,no,no,no,Flauta ,5,,,EL cuarto lenguaje ha costado un poco más estar atento por la cantidad de estímulo abstracto,61.0,yes
154,2024-05-08_17h24.01.915,Unsyncopated_study3,s150,29.0,masculino,right,España,Español,Master degree,no,no,A,2,when,L1,unsyncopated,when,when,26,Online_whenL1//c.ro19.1332.wav,ze,be,pu,sil,ne,fo,ro,sil1,lu,cho,sil2,['catch'],[2.1146000001429],[2.1146000001429],1.332,no_beat,0.7826000001429001,0.7826000001429001,"[""space""]",ro,3,,,,,,,,,,,,,,,2.0,2.0,Español,0.0,Inglés,6.0,4.0,1.0,no,no,no,Flauta ,5,,,EL cuarto lenguaje ha costado un poco más estar atento por la cantidad de estímulo abstracto,61.0,yes
155,2024-05-08_17h24.01.915,Unsyncopated_study3,s150,29.0,masculino,right,España,Español,Master degree,no,no,A,2,when,L1,unsyncopated,when,when,27,Online_whenL1//c.ro18.none.wav,ki,ri,ni,sil,ne,ta,cho,sil1,fo,ze,sil2,['-'],,,none,none,,,,ro,3,,,,,,,,,,,,,,,2.0,2.0,Español,0.0,Inglés,6.0,4.0,1.0,no,no,no,Flauta ,5,,,EL cuarto lenguaje ha costado un poco más estar atento por la cantidad de estímulo abstracto,61.0,yes
156,2024-05-08_17h24.01.915,Unsyncopated_study3,s150,29.0,masculino,right,España,Español,Master degree,no,no,A,2,when,L1,unsyncopated,when,when,28,Online_whenL1//b.ta20.1110.wav,zu,lu,fo,sil,ki,ta,ne,sil1,ri,la,sil2,['catch'],[1.640200000047571],[1.640200000047571],1.11,no_beat,0.5302000000475708,0.5302000000475708,"[""space""]",ta,1,,,,,,,,,,,,,,,2.0,2.0,Español,0.0,Inglés,6.0,4.0,1.0,no,no,no,Flauta ,5,,,EL cuarto lenguaje ha costado un poco más estar atento por la cantidad de estímulo abstracto,61.0,yes
157,2024-05-08_17h24.01.915,Unsyncopated_study3,s150,29.0,masculino,right,España,Español,Master degree,no,no,A,2,when,L1,unsyncopated,when,when,29,Online_whenL1//b.ta23.none.wav,ni,fo,ri,sil,ki,la,be,sil1,ze,ne,sil2,['-'],,,none,none,,,,ta,1,,,,,,,,,,,,,,,2.0,2.0,Español,0.0,Inglés,6.0,4.0,1.0,no,no,no,Flauta ,5,,,EL cuarto lenguaje ha costado un poco más estar atento por la cantidad de estímulo abstracto,61.0,yes
158,2024-05-08_17h24.01.915,Unsyncopated_study3,s150,29.0,masculino,right,España,Español,Master degree,no,no,A,2,when,L1,unsyncopated,when,when,30,Online_whenL1//b.ta22.none.wav,be,ri,fo,sil,ne,ki,zu,sil1,fa,lu,sil2,['-'],,,none,none,,,,ta,1,,,,,,,,,,,,,,,2.0,2.0,Español,0.0,Inglés,6.0,4.0,1.0,no,no,no,Flauta ,5,,,EL cuarto lenguaje ha costado un poco más estar atento por la cantidad de estímulo abstracto,61.0,yes
159,2024-05-08_17h24.01.915,Unsyncopated_study3,s150,29.0,masculino,right,España,Español,Master degree,no,no,A,2,when,L1,unsyncopated,when,when,31,Online_whenL1//b.ta21.1998.wav,fa,be,la,sil,zu,cho,fo,sil1,ni,ta,sil2,['catch'],[2.481999999999971],[2.481999999999971],1.998,no_beat,0.4839999999999709,0.4839999999999709,"[""space""]",ta,1,,,,,,,,,,,,,,,2.0,2.0,Español,0.0,Inglés,6.0,4.0,1.0,no,no,no,Flauta ,5,,,EL cuarto lenguaje ha costado un poco más estar atento por la cantidad de estímulo abstracto,61.0,yes
160,2024-05-08_17h24.01.915,Unsyncopated_study3,s150,29.0,masculino,right,España,Español,Master degree,no,no,A,2,when,L1,unsyncopated,when,when,32,Online_whenL1//d.ne8.none.wav,lu,ni,la,sil,ro,ri,fa,sil1,ta,pu,sil2,['-'],,,none,none,,,,ne,4,,,,,,,,,,,,,,,2.0,2.0,Español,0.0,Inglés,6.0,4.0,1.0,no,no,no,Flauta ,5,,,EL cuarto lenguaje ha costado un poco más estar atento por la cantidad de estímulo abstracto,61.0,yes
161,2024-05-08_17h24.01.915,Unsyncopated_study3,s150,29.0,masculino,right,España,Español,Master degree,no,no,A,2,when,L1,unsyncopated,when,when,33,Online_whenL1//d.ne10.222.wav,ki,ne,fa,sil,be,zu,lu,sil1,la,cho,sil2,['miss'],,,0.222,no_beat,,,,ne,4,,,,,,,,,,,,,,,2.0,2.0,Español,0.0,Inglés,6.0,4.0,1.0,no,no,no,Flauta ,5,,,EL cuarto lenguaje ha costado un poco más estar atento por la cantidad de estímulo abstracto,61.0,yes
162,2024-05-08_17h24.01.915,Unsyncopated_study3,s150,29.0,masculino,right,España,Español,Master degree,no,no,A,2,when,L1,unsyncopated,when,when,34,Online_whenL1//d.ne11.0.wav,ne,cho,la,sil,lu,ta,pu,sil1,fa,ze,sil2,['miss'],,,0.0,beat,,,,ne,4,,,,,,,,,,,,,,,2.0,2.0,Español,0.0,Inglés,6.0,4.0,1.0,no,no,no,Flauta ,5,,,EL cuarto lenguaje ha costado un poco más estar atento por la cantidad de estímulo abstracto,61.0,yes
163,2024-05-08_17h24.01.915,Unsyncopated_study3,s150,29.0,masculino,right,España,Español,Master degree,no,no,A,2,when,L1,unsyncopated,when,when,35,Online_whenL1//d.ne9.none.wav,lu,be,pu,sil,fa,cho,zu,sil1,la,fo,sil2,['-'],,,none,none,,,,ne,4,,,,,,,,,,,,,,,2.0,2.0,Español,0.0,Inglés,6.0,4.0,1.0,no,no,no,Flauta ,5,,,EL cuarto lenguaje ha costado un poco más estar atento por la cantidad de estímulo abstracto,61.0,yes
164,2024-05-08_17h24.01.915,Unsyncopated_study3,s150,29.0,masculino,right,España,Español,Master degree,no,no,A,2,when,L1,unsyncopated,when,when,36,Online_whenL1//b.ta26.888.wav,zu,la,be,sil,ta,ro,cho,sil1,fo,ne,sil2,['catch'],[1.39579999995226],[1.39579999995226],0.888,beat,0.5077999999522599,0.5077999999522599,"[""space""]",ta,1,,,,,,,,,,,,,,,2.0,2.0,Español,0.0,Inglés,6.0,4.0,1.0,no,no,no,Flauta ,5,,,EL cuarto lenguaje ha costado un poco más estar atento por la cantidad de estímulo abstracto,61.0,yes
165,2024-05-08_17h24.01.915,Unsyncopated_study3,s150,29.0,masculino,right,España,Español,Master degree,no,no,A,2,when,L1,unsyncopated,when,when,37,Online_whenL1//b.ta25.0.wav,ta,ne,ro,sil,fo,be,lu,sil1,zu,fa,sil2,['miss'],,,0.0,beat,,,,ta,1,,,,,,,,,,,,,,,2.0,2.0,Español,0.0,Inglés,6.0,4.0,1.0,no,no,no,Flauta ,5,,,EL cuarto lenguaje ha costado un poco más estar atento por la cantidad de estímulo abstracto,61.0,yes
166,2024-05-08_17h24.01.915,Unsyncopated_study3,s150,29.0,masculino,right,España,Español,Master degree,no,no,A,2,when,L1,unsyncopated,when,when,38,Online_whenL1//b.ta27.none.wav,be,fa,cho,sil,pu,ze,ni,sil1,lu,zu,sil2,['-'],,,none,none,,,,ta,1,,,,,,,,,,,,,,,2.0,2.0,Español,0.0,Inglés,6.0,4.0,1.0,no,no,no,Flauta ,5,,,EL cuarto lenguaje ha costado un poco más estar atento por la cantidad de estímulo abstracto,61.0,yes
167,2024-05-08_17h24.01.915,Unsyncopated_study3,s150,29.0,masculino,right,España,Español,Master degree,no,no,A,2,when,L1,unsyncopated,when,when,39,Online_whenL1//b.ta24.1998.wav,ro,lu,ki,sil,cho,ne,ri,sil1,ni,ta,sil2,['catch'],[2.3882999999523236],[2.3882999999523236],1.998,no_beat,0.3902999999523235,0.3902999999523235,"[""space""]",ta,1,,,,,,,,,,,,,,,2.0,2.0,Español,0.0,Inglés,6.0,4.0,1.0,no,no,no,Flauta ,5,,,EL cuarto lenguaje ha costado un poco más estar atento por la cantidad de estímulo abstracto,61.0,yes
168,2024-05-08_17h24.01.915,Unsyncopated_study3,s150,29.0,masculino,right,España,Español,Master degree,no,no,A,2,when,L1,unsyncopated,when,when,40,Online_whenL1//a.ki6.none.wav,la,ri,ni,sil,pu,ro,ne,sil1,be,zu,sil2,['-'],,,none,none,,,,ki,2,,,,,,,,,,,,,,,2.0,2.0,Español,0.0,Inglés,6.0,4.0,1.0,no,no,no,Flauta ,5,,,EL cuarto lenguaje ha costado un poco más estar atento por la cantidad de estímulo abstracto,61.0,yes
169,2024-05-08_17h24.01.915,Unsyncopated_study3,s150,29.0,masculino,right,España,Español,Master degree,no,no,A,2,when,L1,unsyncopated,when,when,41,Online_whenL1//a.ki5.none.wav,fo,be,lu,sil,ze,ro,cho,sil1,ta,zu,sil2,['-'],,,none,none,,,,ki,2,,,,,,,,,,,,,,,2.0,2.0,Español,0.0,Inglés,6.0,4.0,1.0,no,no,no,Flauta ,5,,,EL cuarto lenguaje ha costado un poco más estar atento por la cantidad de estímulo abstracto,61.0,yes
170,2024-05-08_17h24.01.915,Unsyncopated_study3,s150,29.0,masculino,right,España,Español,Master degree,no,no,A,2,when,L1,unsyncopated,when,when,42,Online_whenL1//a.ki4.222.wav,fa,ki,zu,sil,ni,ta,lu,sil1,ro,ri,sil2,['catch'],[0.7972999999524291],[0.7972999999524291],0.222,no_beat,0.5752999999524291,0.5752999999524291,"[""space""]",ki,2,,,,,,,,,,,,,,,2.0,2.0,Español,0.0,Inglés,6.0,4.0,1.0,no,no,no,Flauta ,5,,,EL cuarto lenguaje ha costado un poco más estar atento por la cantidad de estímulo abstracto,61.0,yes
171,2024-05-08_17h24.01.915,Unsyncopated_study3,s150,29.0,masculino,right,España,Español,Master degree,no,no,A,2,when,L1,unsyncopated,when,when,43,Online_whenL1//a.ki7.none.wav,cho,ro,ri,sil,pu,zu,fa,sil1,ni,be,sil2,['-'],,,none,none,,,,ki,2,,,,,,,,,,,,,,,2.0,2.0,Español,0.0,Inglés,6.0,4.0,1.0,no,no,no,Flauta ,5,,,EL cuarto lenguaje ha costado un poco más estar atento por la cantidad de estímulo abstracto,61.0,yes
172,2024-05-08_17h24.01.915,Unsyncopated_study3,s150,29.0,masculino,right,España,Español,Master degree,no,no,A,2,when,L1,unsyncopated,when,when,44,Online_whenL1//d.ne17.none.wav,fa,cho,ki,sil,la,ta,lu,sil1,fo,ni,sil2,['-'],,,none,none,,,,ne,4,,,,,,,,,,,,,,,2.0,2.0,Español,0.0,Inglés,6.0,4.0,1.0,no,no,no,Flauta ,5,,,EL cuarto lenguaje ha costado un poco más estar atento por la cantidad de estímulo abstracto,61.0,yes
173,2024-05-08_17h24.01.915,Unsyncopated_study3,s150,29.0,masculino,right,España,Español,Master degree,no,no,A,2,when,L1,unsyncopated,when,when,45,Online_whenL1//d.ne16.1776.wav,cho,fo,ri,sil,lu,pu,zu,sil1,ne,be,sil2,['catch'],[2.3488999998569398],[2.3488999998569398],1.776,beat,0.5728999998569397,0.5728999998569397,"[""space""]",ne,4,,,,,,,,,,,,,,,2.0,2.0,Español,0.0,Inglés,6.0,4.0,1.0,no,no,no,Flauta ,5,,,EL cuarto lenguaje ha costado un poco más estar atento por la cantidad de estímulo abstracto,61.0,yes
174,2024-05-08_17h24.01.915,Unsyncopated_study3,s150,29.0,masculino,right,España,Español,Master degree,no,no,A,2,when,L1,unsyncopated,when,when,46,Online_whenL1//d.ne19.222.wav,ri,ne,ni,sil,cho,be,zu,sil1,pu,fa,sil2,['miss'],,,0.222,no_beat,,,,ne,4,,,,,,,,,,,,,,,2.0,2.0,Español,0.0,Inglés,6.0,4.0,1.0,no,no,no,Flauta ,5,,,EL cuarto lenguaje ha costado un poco más estar atento por la cantidad de estímulo abstracto,61.0,yes
175,2024-05-08_17h24.01.915,Unsyncopated_study3,s150,29.0,masculino,right,España,Español,Master degree,no,no,A,2,when,L1,unsyncopated,when,when,47,Online_whenL1//d.ne18.1998.wav,fo,ri,be,sil,ki,ze,la,sil1,lu,ne,sil2,['catch'],[2.4311999998092233],[2.4311999998092233],1.998,no_beat,0.4331999998092233,0.4331999998092233,"[""space""]",ne,4,,,,,,,,,,,,,,,2.0,2.0,Español,0.0,Inglés,6.0,4.0,1.0,no,no,no,Flauta ,5,,,EL cuarto lenguaje ha costado un poco más estar atento por la cantidad de estímulo abstracto,61.0,yes
176,2024-05-08_17h24.01.915,Unsyncopated_study3,s150,29.0,masculino,right,España,Español,Master degree,no,no,A,2,when,L1,unsyncopated,when,when,48,Online_whenL1//a.ki31.0.wav,ki,ze,cho,sil,ri,lu,ta,sil1,ro,fa,sil2,['catch'],[0.8827000000476346],[0.8827000000476346],0.0,beat,0.8827000000476346,0.8827000000476346,"[""space""]",ki,2,,,,,,,,,,,,,,,2.0,2.0,Español,0.0,Inglés,6.0,4.0,1.0,no,no,no,Flauta ,5,,,EL cuarto lenguaje ha costado un poco más estar atento por la cantidad de estímulo abstracto,61.0,yes
177,2024-05-08_17h24.01.915,Unsyncopated_study3,s150,29.0,masculino,right,España,Español,Master degree,no,no,A,2,when,L1,unsyncopated,when,when,49,Online_whenL1//a.ki28.1998.wav,la,fa,ze,sil,zu,ta,ri,sil1,ni,ki,sil2,['catch'],[2.5025000000000546],[2.5025000000000546],1.998,no_beat,0.5045000000000546,0.5045000000000546,"[""space""]",ki,2,,,,,,,,,,,,,,,2.0,2.0,Español,0.0,Inglés,6.0,4.0,1.0,no,no,no,Flauta ,5,,,EL cuarto lenguaje ha costado un poco más estar atento por la cantidad de estímulo abstracto,61.0,yes
178,2024-05-08_17h24.01.915,Unsyncopated_study3,s150,29.0,masculino,right,España,Español,Master degree,no,no,A,2,when,L1,unsyncopated,when,when,50,Online_whenL1//a.ki29.none.wav,be,fa,ta,sil,zu,lu,ze,sil1,ri,ro,sil2,['-'],,,none,none,,,,ki,2,,,,,,,,,,,,,,,2.0,2.0,Español,0.0,Inglés,6.0,4.0,1.0,no,no,no,Flauta ,5,,,EL cuarto lenguaje ha costado un poco más estar atento por la cantidad de estímulo abstracto,61.0,yes
179,2024-05-08_17h24.01.915,Unsyncopated_study3,s150,29.0,masculino,right,España,Español,Master degree,no,no,A,2,when,L1,unsyncopated,when,when,51,Online_whenL1//a.ki30.none.wav,ta,fa,ze,sil,pu,ne,fo,sil1,ni,zu,sil2,['-'],,,none,none,,,,ki,2,,,,,,,,,,,,,,,2.0,2.0,Español,0.0,Inglés,6.0,4.0,1.0,no,no,no,Flauta ,5,,,EL cuarto lenguaje ha costado un poco más estar atento por la cantidad de estímulo abstracto,61.0,yes
180,2024-05-08_17h24.01.915,Unsyncopated_study3,s150,29.0,masculino,right,España,Español,Master degree,no,no,A,2,when,L1,unsyncopated,when,when,52,Online_whenL1//c.ro29.none.wav,fa,ne,cho,sil,fo,ki,ta,sil1,ze,la,sil2,['-'],,,none,none,,,,ro,3,,,,,,,,,,,,,,,2.0,2.0,Español,0.0,Inglés,6.0,4.0,1.0,no,no,no,Flauta ,5,,,EL cuarto lenguaje ha costado un poco más estar atento por la cantidad de estímulo abstracto,61.0,yes
181,2024-05-08_17h24.01.915,Unsyncopated_study3,s150,29.0,masculino,right,España,Español,Master degree,no,no,A,2,when,L1,unsyncopated,when,when,53,Online_whenL1//c.ro31.none.wav,ni,ze,fo,sil,ne,zu,pu,sil1,ta,la,sil2,['-'],,,none,none,,,,ro,3,,,,,,,,,,,,,,,2.0,2.0,Español,0.0,Inglés,6.0,4.0,1.0,no,no,no,Flauta ,5,,,EL cuarto lenguaje ha costado un poco más estar atento por la cantidad de estímulo abstracto,61.0,yes
182,2024-05-08_17h24.01.915,Unsyncopated_study3,s150,29.0,masculino,right,España,Español,Master degree,no,no,A,2,when,L1,unsyncopated,when,when,54,Online_whenL1//c.ro30.0.wav,ro,ze,zu,sil,ki,be,lu,sil1,fo,ni,sil2,['catch'],[0.6687999999521708],[0.6687999999521708],0.0,beat,0.6687999999521708,0.6687999999521708,"[""space""]",ro,3,,,,,,,,,,,,,,,2.0,2.0,Español,0.0,Inglés,6.0,4.0,1.0,no,no,no,Flauta ,5,,,EL cuarto lenguaje ha costado un poco más estar atento por la cantidad de estímulo abstracto,61.0,yes
183,2024-05-08_17h24.01.915,Unsyncopated_study3,s150,29.0,masculino,right,España,Español,Master degree,no,no,A,2,when,L1,unsyncopated,when,when,55,Online_whenL1//c.ro28.none.wav,fo,fa,ki,sil,ri,ze,zu,sil1,be,ne,sil2,['false alarm'],[1.7690000000000055],[1.7690000000000055],none,none,,,"[""space""]",ro,3,,,,,,,,,,,,,,,2.0,2.0,Español,0.0,Inglés,6.0,4.0,1.0,no,no,no,Flauta ,5,,,EL cuarto lenguaje ha costado un poco más estar atento por la cantidad de estímulo abstracto,61.0,yes
184,2024-05-08_17h24.01.915,Unsyncopated_study3,s150,29.0,masculino,right,España,Español,Master degree,no,no,A,2,when,L1,unsyncopated,when,when,56,Online_whenL1//c.ro7.0.wav,ro,ta,pu,sil,fa,lu,fo,sil1,cho,ri,sil2,['miss'],,,0.0,beat,,,,ro,3,,,,,,,,,,,,,,,2.0,2.0,Español,0.0,Inglés,6.0,4.0,1.0,no,no,no,Flauta ,5,,,EL cuarto lenguaje ha costado un poco más estar atento por la cantidad de estímulo abstracto,61.0,yes
185,2024-05-08_17h24.01.915,Unsyncopated_study3,s150,29.0,masculino,right,España,Español,Master degree,no,no,A,2,when,L1,unsyncopated,when,when,57,Online_whenL1//c.ro6.none.wav,ri,ze,ta,sil,ne,zu,lu,sil1,be,fo,sil2,['-'],,,none,none,,,,ro,3,,,,,,,,,,,,,,,2.0,2.0,Español,0.0,Inglés,6.0,4.0,1.0,no,no,no,Flauta ,5,,,EL cuarto lenguaje ha costado un poco más estar atento por la cantidad de estímulo abstracto,61.0,yes
186,2024-05-08_17h24.01.915,Unsyncopated_study3,s150,29.0,masculino,right,España,Español,Master degree,no,no,A,2,when,L1,unsyncopated,when,when,58,Online_whenL1//c.ro4.0.wav,ro,ri,ni,sil,pu,be,la,sil1,fa,ze,sil2,['catch'],[0.8667999999524909],[0.8667999999524909],0.0,beat,0.8667999999524909,0.8667999999524909,"[""space""]",ro,3,,,,,,,,,,,,,,,2.0,2.0,Español,0.0,Inglés,6.0,4.0,1.0,no,no,no,Flauta ,5,,,EL cuarto lenguaje ha costado un poco más estar atento por la cantidad de estímulo abstracto,61.0,yes
187,2024-05-08_17h24.01.915,Unsyncopated_study3,s150,29.0,masculino,right,España,Español,Master degree,no,no,A,2,when,L1,unsyncopated,when,when,59,Online_whenL1//c.ro5.none.wav,ni,zu,ze,sil,pu,be,fa,sil1,cho,fo,sil2,['-'],,,none,none,,,,ro,3,,,,,,,,,,,,,,,2.0,2.0,Español,0.0,Inglés,6.0,4.0,1.0,no,no,no,Flauta ,5,,,EL cuarto lenguaje ha costado un poco más estar atento por la cantidad de estímulo abstracto,61.0,yes
188,2024-05-08_17h24.01.915,Unsyncopated_study3,s150,29.0,masculino,right,España,Español,Master degree,no,no,A,2,when,L1,unsyncopated,when,when,60,Online_whenL1//a.ki16.888.wav,ni,ro,ta,sil,ki,lu,cho,sil1,fo,ri,sil2,['catch'],[1.479299999952218],[1.479299999952218],0.888,beat,0.591299999952218,0.591299999952218,"[""space""]",ki,2,,,,,,,,,,,,,,,2.0,2.0,Español,0.0,Inglés,6.0,4.0,1.0,no,no,no,Flauta ,5,,,EL cuarto lenguaje ha costado un poco más estar atento por la cantidad de estímulo abstracto,61.0,yes
189,2024-05-08_17h24.01.915,Unsyncopated_study3,s150,29.0,masculino,right,España,Español,Master degree,no,no,A,2,when,L1,unsyncopated,when,when,61,Online_whenL1//a.ki18.444.wav,ni,fa,ki,sil,pu,ri,fo,sil1,zu,ne,sil2,['catch'],[1.552599999904487],[1.552599999904487],0.444,no_beat,1.108599999904487,1.108599999904487,"[""space""]",ki,2,,,,,,,,,,,,,,,2.0,2.0,Español,0.0,Inglés,6.0,4.0,1.0,no,no,no,Flauta ,5,,,EL cuarto lenguaje ha costado un poco más estar atento por la cantidad de estímulo abstracto,61.0,yes
190,2024-05-08_17h24.01.915,Unsyncopated_study3,s150,29.0,masculino,right,España,Español,Master degree,no,no,A,2,when,L1,unsyncopated,when,when,62,Online_whenL1//a.ki19.1998.wav,pu,ze,ro,sil,fo,zu,cho,sil1,fa,ki,sil2,['catch_delay'],[0.7308999998570618],[0.7308999998570618],1.998,no_beat,0.7308999998570618,0.7308999998570618,,ki,2,,,,,,,,,,,,,,,2.0,2.0,Español,0.0,Inglés,6.0,4.0,1.0,no,no,no,Flauta ,5,,,EL cuarto lenguaje ha costado un poco más estar atento por la cantidad de estímulo abstracto,61.0,yes
