Unnamed: 0,date,expName,participant,age,sex,hand,residence,native_lang,education_level,lang_deficit,aud_deficit,group,block,condition,language,rhythm,rule structure online,rule type online,order_trial_on,trial_online,s1,s2,s3,s4,s5,s6,s7,s8,s9,s10,s11,catch_syll_resp,rts_syll_catch,clean_rts,time_syll,beat_no_beat,catch_rtsTR,catch_rts,syllable_catch.keys,cond_syll,syll_to_catch,test_offline,block_off,condition_off,rhythm_off,rule,rule_str_off,rule_norule,conds_offline,language_off,Partz_no_partm.keys,Partz_no_partm.rt,security_1_7.keys,accuracy,security_1_7.rt,n_lang,n_lang_used,lang_1,age_l1,lang_2,age_l2,lang_3,age_l3,lang_4,age_l4,ability_learn_l2,tendence_mix_lan,music_experience,muisc_use,partiture,instr_1,age_M1,instr_2,age_M2,instr_3,age_M3,instr_4,age_M4,preguntas_musica1,BMRQ_answer.response,BMRQ_Score,bilingual
0,2024-02-24_12h25.56.080,Unsyncopated_study3,s122,19.0,feminino,right,españa,castellano,Upper secondary,no,no,A,1,when,L1,unsyncopated,when,when,0,Online_whenL1//a.ki11.none.wav,cho,la,pu,sil,zu,ta,ro,sil1,ni,ri,sil2,['-'],,,none,none,,,,ki,2,testWhenL1Uns//r1.s2.0.wav,1.0,when,unsyncopated,a,s2,rule,rule,L1,z,1.456,6.0,1.0,4.4695,4.0,2.0,castellano,0.0,inglés,6.0,catalán,15.0,alemán,18.0,4.0,2.0,yes,no,yes,flauta,8,guitarra,8,piano,8,ukelele,15.0,1. Cuando comparto música con alguien siento una complicidad especial con aquella persona.,3.0,80.0,yes
1,2024-02-24_12h25.56.080,Unsyncopated_study3,s122,19.0,feminino,right,españa,castellano,Upper secondary,no,no,A,1,when,L1,unsyncopated,when,when,1,Online_whenL1//a.ki9.none.wav,la,ro,ze,sil,cho,fa,pu,sil1,ne,ta,sil2,['-'],,,none,none,,,,ki,2,testWhenL1Uns//r2.s2.2.wav,1.0,when,unsyncopated,b,s2,rule,rule,L1,z,1.6059,6.0,1.0,3.5425,4.0,2.0,castellano,0.0,inglés,6.0,catalán,15.0,alemán,18.0,4.0,2.0,yes,no,yes,flauta,8,guitarra,8,piano,8,ukelele,15.0,2. En mi tiempo libre apenas escucho música.,5.0,80.0,yes
2,2024-02-24_12h25.56.080,Unsyncopated_study3,s122,19.0,feminino,right,españa,castellano,Upper secondary,no,no,A,1,when,L1,unsyncopated,when,when,2,Online_whenL1//a.ki10.222.wav,ro,ki,be,sil,la,ri,lu,sil1,fo,fa,sil2,['catch'],[0.8239000000058923],[0.8239000000058923],0.222,no_beat,0.6019000000058923,0.6019000000058923,"[""space""]",ki,2,testWhenL1Uns//r2.s1.1.wav,1.0,when,unsyncopated,b,s1,rule,rule,L1,z,0.9086,6.0,1.0,2.1717,4.0,2.0,castellano,0.0,inglés,6.0,catalán,15.0,alemán,18.0,4.0,2.0,yes,no,yes,flauta,8,guitarra,8,piano,8,ukelele,15.0,3. Algunas canciones me ponen los pelos de punta,4.0,80.0,yes
3,2024-02-24_12h25.56.080,Unsyncopated_study3,s122,19.0,feminino,right,españa,castellano,Upper secondary,no,no,A,1,when,L1,unsyncopated,when,when,3,Online_whenL1//a.ki8.none.wav,ne,fo,zu,sil,pu,be,ni,sil1,ze,la,sil2,['-'],,,none,none,,,,ki,2,testWhenL1Uns//dep_viol.r1.s2.0.wav,1.0,when,unsyncopated,a,s2,no_rule,dep,L1,m,4.5549,2.0,0.0,2.7939,4.0,2.0,castellano,0.0,inglés,6.0,catalán,15.0,alemán,18.0,4.0,2.0,yes,no,yes,flauta,8,guitarra,8,piano,8,ukelele,15.0,4. La música me hace compañía cuando estoy solo,4.0,80.0,yes
4,2024-02-24_12h25.56.080,Unsyncopated_study3,s122,19.0,feminino,right,españa,castellano,Upper secondary,no,no,A,1,when,L1,unsyncopated,when,when,4,Online_whenL1//a.ki28.1998.wav,la,fa,ze,sil,zu,ta,ri,sil1,ni,ki,sil2,['catch'],[2.491199999988112],[2.491199999988112],1.998,no_beat,0.4931999999881118,0.4931999999881118,"[""space""]",ki,2,testWhenL1Uns//time_viol.r2.s1.0.wav,1.0,when,unsyncopated,b,s1,no_rule,time,L1,z,0.7997,5.0,1.0,2.9606,4.0,2.0,castellano,0.0,inglés,6.0,catalán,15.0,alemán,18.0,4.0,2.0,yes,no,yes,flauta,8,guitarra,8,piano,8,ukelele,15.0,5. No me apetece bailar ni con la música que más me gusta,5.0,80.0,yes
5,2024-02-24_12h25.56.080,Unsyncopated_study3,s122,19.0,feminino,right,españa,castellano,Upper secondary,no,no,A,1,when,L1,unsyncopated,when,when,5,Online_whenL1//a.ki29.none.wav,be,fa,ta,sil,zu,lu,ze,sil1,ri,ro,sil2,['-'],,,none,none,,,,ki,2,testWhenL1Uns//r2.s2.0.wav,1.0,when,unsyncopated,b,s2,rule,rule,L1,m,0.5748,2.0,0.0,2.4007,4.0,2.0,castellano,0.0,inglés,6.0,catalán,15.0,alemán,18.0,4.0,2.0,yes,no,yes,flauta,8,guitarra,8,piano,8,ukelele,15.0,6. La música me hace conectar con la gente,4.0,80.0,yes
6,2024-02-24_12h25.56.080,Unsyncopated_study3,s122,19.0,feminino,right,españa,castellano,Upper secondary,no,no,A,1,when,L1,unsyncopated,when,when,6,Online_whenL1//a.ki30.none.wav,ta,fa,ze,sil,pu,ne,fo,sil1,ni,zu,sil2,['-'],,,none,none,,,,ki,2,testWhenL1Uns//r1.s1.2.wav,1.0,when,unsyncopated,a,s1,rule,rule,L1,m,1.0176,2.0,0.0,1.4562,4.0,2.0,castellano,0.0,inglés,6.0,catalán,15.0,alemán,18.0,4.0,2.0,yes,no,yes,flauta,8,guitarra,8,piano,8,ukelele,15.0,7. Me informo sobre la música que me gusta.,4.0,80.0,yes
7,2024-02-24_12h25.56.080,Unsyncopated_study3,s122,19.0,feminino,right,españa,castellano,Upper secondary,no,no,A,1,when,L1,unsyncopated,when,when,7,Online_whenL1//a.ki31.0.wav,ki,ze,cho,sil,ri,lu,ta,sil1,ro,fa,sil2,['catch'],[0.5506999999880691],[0.5506999999880691],0.0,beat,0.5506999999880691,0.5506999999880691,"[""space""]",ki,2,testWhenL1Uns//cat_viol.r1.s1.0.wav,1.0,when,unsyncopated,a,s1,no_rule,cat,L1,m,1.8187,2.0,0.0,1.3508,4.0,2.0,castellano,0.0,inglés,6.0,catalán,15.0,alemán,18.0,4.0,2.0,yes,no,yes,flauta,8,guitarra,8,piano,8,ukelele,15.0,8.Me emociono escuchando ciertas canciones.,4.0,80.0,yes
8,2024-02-24_12h25.56.080,Unsyncopated_study3,s122,19.0,feminino,right,españa,castellano,Upper secondary,no,no,A,1,when,L1,unsyncopated,when,when,8,Online_whenL1//a.ki2.none.wav,zu,ne,ta,sil,ri,be,ni,sil1,fo,lu,sil2,['-'],,,none,none,,,,ki,2,testWhenL1Uns//r2.s1.0.wav,1.0,when,unsyncopated,b,s1,rule,rule,L1,z,1.492,4.0,1.0,2.8157,4.0,2.0,castellano,0.0,inglés,6.0,catalán,15.0,alemán,18.0,4.0,2.0,yes,no,yes,flauta,8,guitarra,8,piano,8,ukelele,15.0,9.La música me tranquiliza y me relaja.,4.0,80.0,yes
9,2024-02-24_12h25.56.080,Unsyncopated_study3,s122,19.0,feminino,right,españa,castellano,Upper secondary,no,no,A,1,when,L1,unsyncopated,when,when,9,Online_whenL1//a.ki3.1110.wav,ri,ni,fa,sil,cho,ki,ze,sil1,fo,ta,sil2,['catch'],[1.5483000000119773],[1.5483000000119773],1.11,no_beat,0.4383000000119772,0.4383000000119772,"[""space""]",ki,2,testWhenL1Uns//time_viol.r2.s2.0.wav,1.0,when,unsyncopated,b,s2,no_rule,time,L1,z,1.5128,3.0,1.0,0.4021,4.0,2.0,castellano,0.0,inglés,6.0,catalán,15.0,alemán,18.0,4.0,2.0,yes,no,yes,flauta,8,guitarra,8,piano,8,ukelele,15.0,10.La música me hace bailar,4.0,80.0,yes
10,2024-02-24_12h25.56.080,Unsyncopated_study3,s122,19.0,feminino,right,españa,castellano,Upper secondary,no,no,A,1,when,L1,unsyncopated,when,when,10,Online_whenL1//a.ki1.1776.wav,zu,ri,ni,sil,ne,be,ro,sil1,ki,fa,sil2,['catch'],[2.1489000000059377],[2.1489000000059377],1.776,beat,0.3729000000059377,0.3729000000059377,"[""space""]",ki,2,testWhenL1Uns//r1.s1.1.wav,1.0,when,unsyncopated,a,s1,rule,rule,L1,m,0.8702,2.0,0.0,0.5587,4.0,2.0,castellano,0.0,inglés,6.0,catalán,15.0,alemán,18.0,4.0,2.0,yes,no,yes,flauta,8,guitarra,8,piano,8,ukelele,15.0,11.Busco novedades musicales continuamente,3.0,80.0,yes
11,2024-02-24_12h25.56.080,Unsyncopated_study3,s122,19.0,feminino,right,españa,castellano,Upper secondary,no,no,A,1,when,L1,unsyncopated,when,when,11,Online_whenL1//a.ki0.none.wav,zu,ta,ri,sil,ro,ne,cho,sil1,pu,la,sil2,['-'],,,none,none,,,,ki,2,testWhenL1Uns//r2.s1.2.wav,1.0,when,unsyncopated,b,s1,rule,rule,L1,z,2.65,4.0,1.0,2.5566,4.0,2.0,castellano,0.0,inglés,6.0,catalán,15.0,alemán,18.0,4.0,2.0,yes,no,yes,flauta,8,guitarra,8,piano,8,ukelele,15.0,12. Puedo llorar cuando escucho algunas melodías que me gustan mucho.,4.0,80.0,yes
12,2024-02-24_12h25.56.080,Unsyncopated_study3,s122,19.0,feminino,right,españa,castellano,Upper secondary,no,no,A,1,when,L1,unsyncopated,when,when,12,Online_whenL1//a.ki21.0.wav,ki,ni,cho,sil,fo,ri,lu,sil1,ze,be,sil2,['catch'],[0.5813999999761563],[0.5813999999761563],0.0,beat,0.5813999999761563,0.5813999999761563,"[""space""]",ki,2,testWhenL1Uns//r1.s2.1.wav,1.0,when,unsyncopated,a,s2,rule,rule,L1,z,0.8861,4.0,1.0,0.8006,4.0,2.0,castellano,0.0,inglés,6.0,catalán,15.0,alemán,18.0,4.0,2.0,yes,no,yes,flauta,8,guitarra,8,piano,8,ukelele,15.0,13. Me gusta cantar o tocar un instrumento con más gente,4.0,80.0,yes
13,2024-02-24_12h25.56.080,Unsyncopated_study3,s122,19.0,feminino,right,españa,castellano,Upper secondary,no,no,A,1,when,L1,unsyncopated,when,when,13,Online_whenL1//a.ki22.444.wav,zu,pu,ki,sil,ze,cho,ne,sil1,ni,ro,sil2,['miss'],,,0.444,no_beat,,,,ki,2,testWhenL1Uns//r1.s2.2.wav,1.0,when,unsyncopated,a,s2,rule,rule,L1,m,1.583,3.0,0.0,0.7293,4.0,2.0,castellano,0.0,inglés,6.0,catalán,15.0,alemán,18.0,4.0,2.0,yes,no,yes,flauta,8,guitarra,8,piano,8,ukelele,15.0,14. La música me ayuda a desconectar.,4.0,80.0,yes
14,2024-02-24_12h25.56.080,Unsyncopated_study3,s122,19.0,feminino,right,españa,castellano,Upper secondary,no,no,A,1,when,L1,unsyncopated,when,when,14,Online_whenL1//a.ki23.1110.wav,be,ri,zu,sil,ro,ki,ni,sil1,la,ne,sil2,['catch'],[1.5810999999940805],[1.5810999999940805],1.11,no_beat,0.4710999999940803,0.4710999999940803,"[""space""]",ki,2,testWhenL1Uns//dep_viol.r1.s1.0.wav,1.0,when,unsyncopated,a,s1,no_rule,dep,L1,m,1.4005,3.0,0.0,0.6258,4.0,2.0,castellano,0.0,inglés,6.0,catalán,15.0,alemán,18.0,4.0,2.0,yes,no,yes,flauta,8,guitarra,8,piano,8,ukelele,15.0,15. No puedo evitar tararear las canciones que me gustan cuando las escucho.,4.0,80.0,yes
15,2024-02-24_12h25.56.080,Unsyncopated_study3,s122,19.0,feminino,right,españa,castellano,Upper secondary,no,no,A,1,when,L1,unsyncopated,when,when,15,Online_whenL1//a.ki20.0.wav,ki,ne,zu,sil,ri,ni,cho,sil1,lu,pu,sil2,['catch'],[0.7677000000178396],[0.7677000000178396],0.0,beat,0.7677000000178396,0.7677000000178396,"[""space""]",ki,2,testWhenL1Uns//dep_viol.r2.s1.0.wav,1.0,when,unsyncopated,b,s1,no_rule,dep,L1,z,1.9038,6.0,1.0,1.0954,4.0,2.0,castellano,0.0,inglés,6.0,catalán,15.0,alemán,18.0,4.0,2.0,yes,no,yes,flauta,8,guitarra,8,piano,8,ukelele,15.0,16. En los conciertos me siento en sintonía con los artistas y el público.,4.0,80.0,yes
16,2024-02-24_12h25.56.080,Unsyncopated_study3,s122,19.0,feminino,right,españa,castellano,Upper secondary,no,no,A,1,when,L1,unsyncopated,when,when,16,Online_whenL1//d.ne11.0.wav,ne,cho,la,sil,lu,ta,pu,sil1,fa,ze,sil2,['miss'],,,0.0,beat,,,,ne,4,testWhenL1Uns//cat_viol.r1.s2.0.wav,1.0,when,unsyncopated,a,s2,no_rule,cat,L1,m,0.9842,4.0,0.0,1.4501,4.0,2.0,castellano,0.0,inglés,6.0,catalán,15.0,alemán,18.0,4.0,2.0,yes,no,yes,flauta,8,guitarra,8,piano,8,ukelele,15.0,17. Me gasto bastante dinero en música y cosas relacionadas con la música.,4.0,80.0,yes
17,2024-02-24_12h25.56.080,Unsyncopated_study3,s122,19.0,feminino,right,españa,castellano,Upper secondary,no,no,A,1,when,L1,unsyncopated,when,when,17,Online_whenL1//d.ne10.222.wav,ki,ne,fa,sil,be,zu,lu,sil1,la,cho,sil2,['catch'],[0.7538000000118927],[0.7538000000118927],0.222,no_beat,0.5318000000118928,0.5318000000118928,"[""space""]",ne,4,testWhenL1Uns//cat_viol.r2.s1.0.wav,1.0,when,unsyncopated,b,s1,no_rule,cat,L1,m,2.4501,3.0,0.0,0.4268,4.0,2.0,castellano,0.0,inglés,6.0,catalán,15.0,alemán,18.0,4.0,2.0,yes,no,yes,flauta,8,guitarra,8,piano,8,ukelele,15.0,18. Siento escalofríos cuando escucho una melodía que me gusta.,4.0,80.0,yes
18,2024-02-24_12h25.56.080,Unsyncopated_study3,s122,19.0,feminino,right,españa,castellano,Upper secondary,no,no,A,1,when,L1,unsyncopated,when,when,18,Online_whenL1//d.ne8.none.wav,lu,ni,la,sil,ro,ri,fa,sil1,ta,pu,sil2,['-'],,,none,none,,,,ne,4,testWhenL1Uns//time_viol.r1.s2.0.wav,1.0,when,unsyncopated,a,s2,no_rule,time,L1,m,0.7742,3.0,0.0,0.7756,4.0,2.0,castellano,0.0,inglés,6.0,catalán,15.0,alemán,18.0,4.0,2.0,yes,no,yes,flauta,8,guitarra,8,piano,8,ukelele,15.0,19. Con la música me puedo desahogar.,4.0,80.0,yes
19,2024-02-24_12h25.56.080,Unsyncopated_study3,s122,19.0,feminino,right,españa,castellano,Upper secondary,no,no,A,1,when,L1,unsyncopated,when,when,19,Online_whenL1//d.ne9.none.wav,lu,be,pu,sil,fa,cho,zu,sil1,la,fo,sil2,['-'],,,none,none,,,,ne,4,testWhenL1Uns//r2.s2.1.wav,1.0,when,unsyncopated,b,s2,rule,rule,L1,m,0.657,4.0,0.0,0.5338,4.0,2.0,castellano,0.0,inglés,6.0,catalán,15.0,alemán,18.0,4.0,2.0,yes,no,yes,flauta,8,guitarra,8,piano,8,ukelele,15.0,20. Cuando escucho una melodía que me gusta mucho no puedo evitar mover el cuerpo.,4.0,80.0,yes
20,2024-02-24_12h25.56.080,Unsyncopated_study3,s122,19.0,feminino,right,españa,castellano,Upper secondary,no,no,A,1,when,L1,unsyncopated,when,when,20,Online_whenL1//c.ro25.none.wav,la,pu,cho,sil,ki,fo,ze,sil1,ne,ni,sil2,['-'],,,none,none,,,,ro,3,testWhenL1Uns//time_viol.r1.s1.0.wav,1.0,when,unsyncopated,a,s1,no_rule,time,L1,m,1.0512,4.0,0.0,1.2501,4.0,2.0,castellano,0.0,inglés,6.0,catalán,15.0,alemán,18.0,4.0,2.0,yes,no,yes,flauta,8,guitarra,8,piano,8,ukelele,15.0,,,80.0,yes
21,2024-02-24_12h25.56.080,Unsyncopated_study3,s122,19.0,feminino,right,españa,castellano,Upper secondary,no,no,A,1,when,L1,unsyncopated,when,when,21,Online_whenL1//c.ro24.222.wav,fo,ro,ta,sil,fa,ne,cho,sil1,be,ze,sil2,['catch'],[0.6985999999940304],[0.6985999999940304],0.222,no_beat,0.4765999999940304,0.4765999999940304,"[""space""]",ro,3,testWhenL1Uns//r1.s1.0.wav,1.0,when,unsyncopated,a,s1,rule,rule,L1,m,0.3358,4.0,0.0,0.5361,4.0,2.0,castellano,0.0,inglés,6.0,catalán,15.0,alemán,18.0,4.0,2.0,yes,no,yes,flauta,8,guitarra,8,piano,8,ukelele,15.0,,,80.0,yes
22,2024-02-24_12h25.56.080,Unsyncopated_study3,s122,19.0,feminino,right,españa,castellano,Upper secondary,no,no,A,1,when,L1,unsyncopated,when,when,22,Online_whenL1//c.ro26.444.wav,ki,zu,ro,sil,cho,ta,ne,sil1,ri,fa,sil2,['catch'],[1.2990999999940414],[1.2990999999940414],0.444,no_beat,0.8550999999940414,0.8550999999940414,"[""space""]",ro,3,testWhenL1Uns//dep_viol.r2.s2.0.wav,1.0,when,unsyncopated,b,s2,no_rule,dep,L1,m,0.3448,4.0,0.0,0.7749,4.0,2.0,castellano,0.0,inglés,6.0,catalán,15.0,alemán,18.0,4.0,2.0,yes,no,yes,flauta,8,guitarra,8,piano,8,ukelele,15.0,,,80.0,yes
23,2024-02-24_12h25.56.080,Unsyncopated_study3,s122,19.0,feminino,right,españa,castellano,Upper secondary,no,no,A,1,when,L1,unsyncopated,when,when,23,Online_whenL1//c.ro27.none.wav,ni,be,la,sil,lu,zu,ri,sil1,pu,ze,sil2,['-'],,,none,none,,,,ro,3,testWhenL1Uns//cat_viol.r2.s2.0.wav,1.0,when,unsyncopated,b,s2,no_rule,cat,L1,m,0.4626,5.0,0.0,0.6102,4.0,2.0,castellano,0.0,inglés,6.0,catalán,15.0,alemán,18.0,4.0,2.0,yes,no,yes,flauta,8,guitarra,8,piano,8,ukelele,15.0,,,80.0,yes
24,2024-02-24_12h25.56.080,Unsyncopated_study3,s122,19.0,feminino,right,españa,castellano,Upper secondary,no,no,A,1,when,L1,unsyncopated,when,when,24,Online_whenL1//d.ne0.1110.wav,ze,fa,fo,sil,pu,ne,ta,sil1,la,ni,sil2,['false alarm'],[0.35939999997606265],[0.35939999997606265],1.11,no_beat,,,"[""space""]",ne,4,testConjL3Uns//cat_viol.r1.s2.0.wav,2.0,conjunction_un,unsyncopated,a,s2,no_rule,cat,L3,z,2.0151,6.0,0.0,2.6424,4.0,2.0,castellano,0.0,inglés,6.0,catalán,15.0,alemán,18.0,4.0,2.0,yes,no,yes,flauta,8,guitarra,8,piano,8,ukelele,15.0,,,80.0,yes
25,2024-02-24_12h25.56.080,Unsyncopated_study3,s122,19.0,feminino,right,españa,castellano,Upper secondary,no,no,A,1,when,L1,unsyncopated,when,when,25,Online_whenL1//d.ne3.none.wav,fo,la,be,sil,pu,fa,ni,sil1,lu,cho,sil2,['-'],,,none,none,,,,ne,4,testConjL3Uns//time_viol.r1.s1.0.wav,2.0,conjunction_un,unsyncopated,a,s1,no_rule,time,L3,m,0.8341,3.0,1.0,1.7163,4.0,2.0,castellano,0.0,inglés,6.0,catalán,15.0,alemán,18.0,4.0,2.0,yes,no,yes,flauta,8,guitarra,8,piano,8,ukelele,15.0,,,80.0,yes
26,2024-02-24_12h25.56.080,Unsyncopated_study3,s122,19.0,feminino,right,españa,castellano,Upper secondary,no,no,A,1,when,L1,unsyncopated,when,when,26,Online_whenL1//d.ne2.none.wav,lu,ze,ni,sil,pu,la,ri,sil1,ki,zu,sil2,['-'],,,none,none,,,,ne,4,testConjL3Uns//time_viol.r2.s1.0.wav,2.0,conjunction_un,unsyncopated,b,s1,no_rule,time,L3,m,0.5848,3.0,1.0,1.1495,4.0,2.0,castellano,0.0,inglés,6.0,catalán,15.0,alemán,18.0,4.0,2.0,yes,no,yes,flauta,8,guitarra,8,piano,8,ukelele,15.0,,,80.0,yes
27,2024-02-24_12h25.56.080,Unsyncopated_study3,s122,19.0,feminino,right,españa,castellano,Upper secondary,no,no,A,1,when,L1,unsyncopated,when,when,27,Online_whenL1//d.ne1.none.wav,pu,zu,fo,sil,ze,fa,ni,sil1,ta,lu,sil2,['-'],,,none,none,,,,ne,4,testConjL3Uns//dep_viol.r1.s2.0.wav,2.0,conjunction_un,unsyncopated,a,s2,no_rule,dep,L3,m,0.8881,3.0,1.0,0.4774,4.0,2.0,castellano,0.0,inglés,6.0,catalán,15.0,alemán,18.0,4.0,2.0,yes,no,yes,flauta,8,guitarra,8,piano,8,ukelele,15.0,,,80.0,yes
28,2024-02-24_12h25.56.080,Unsyncopated_study3,s122,19.0,feminino,right,españa,castellano,Upper secondary,no,no,A,1,when,L1,unsyncopated,when,when,28,Online_whenL1//c.ro10.1110.wav,ne,ta,ni,sil,ri,ro,lu,sil1,ki,cho,sil2,['catch'],[1.6647000000178878],[1.6647000000178878],1.11,no_beat,0.5547000000178877,0.5547000000178877,"[""space""]",ro,3,testConjL3Uns//r2.s1.2.wav,2.0,conjunction_un,unsyncopated,b,s1,rule,rule,L3,z,0.8674,3.0,1.0,1.2391,4.0,2.0,castellano,0.0,inglés,6.0,catalán,15.0,alemán,18.0,4.0,2.0,yes,no,yes,flauta,8,guitarra,8,piano,8,ukelele,15.0,,,80.0,yes
29,2024-02-24_12h25.56.080,Unsyncopated_study3,s122,19.0,feminino,right,españa,castellano,Upper secondary,no,no,A,1,when,L1,unsyncopated,when,when,29,Online_whenL1//c.ro8.222.wav,ne,ro,ze,sil,ki,fo,zu,sil1,cho,pu,sil2,['catch'],[0.8989000000060514],[0.8989000000060514],0.222,no_beat,0.6769000000060514,0.6769000000060514,"[""space""]",ro,3,testConjL3Uns//r1.s2.1.wav,2.0,conjunction_un,unsyncopated,a,s2,rule,rule,L3,m,0.4564,3.0,0.0,0.3677,4.0,2.0,castellano,0.0,inglés,6.0,catalán,15.0,alemán,18.0,4.0,2.0,yes,no,yes,flauta,8,guitarra,8,piano,8,ukelele,15.0,,,80.0,yes
30,2024-02-24_12h25.56.080,Unsyncopated_study3,s122,19.0,feminino,right,españa,castellano,Upper secondary,no,no,A,1,when,L1,unsyncopated,when,when,30,Online_whenL1//c.ro9.none.wav,ze,zu,ta,sil,la,lu,fo,sil1,pu,ri,sil2,['-'],,,none,none,,,,ro,3,testConjL3Uns//dep_viol.r2.s1.0.wav,2.0,conjunction_un,unsyncopated,b,s1,no_rule,dep,L3,m,0.5538,4.0,1.0,1.503,4.0,2.0,castellano,0.0,inglés,6.0,catalán,15.0,alemán,18.0,4.0,2.0,yes,no,yes,flauta,8,guitarra,8,piano,8,ukelele,15.0,,,80.0,yes
31,2024-02-24_12h25.56.080,Unsyncopated_study3,s122,19.0,feminino,right,españa,castellano,Upper secondary,no,no,A,1,when,L1,unsyncopated,when,when,31,Online_whenL1//c.ro11.888.wav,ni,fa,ze,sil,ro,ta,ri,sil1,la,be,sil2,['catch'],[1.4539000000060014],[1.4539000000060014],0.888,beat,0.5659000000060014,0.5659000000060014,"[""space""]",ro,3,testConjL3Uns//r2.s1.1.wav,2.0,conjunction_un,unsyncopated,b,s1,rule,rule,L3,m,1.067,4.0,0.0,1.1268,4.0,2.0,castellano,0.0,inglés,6.0,catalán,15.0,alemán,18.0,4.0,2.0,yes,no,yes,flauta,8,guitarra,8,piano,8,ukelele,15.0,,,80.0,yes
32,2024-02-24_12h25.56.080,Unsyncopated_study3,s122,19.0,feminino,right,españa,castellano,Upper secondary,no,no,A,1,when,L1,unsyncopated,when,when,32,Online_whenL1//b.ta2.1332.wav,zu,ni,pu,sil,ri,ne,ta,sil1,ze,fa,sil2,['catch'],[1.9119000000059714],[1.9119000000059714],1.332,no_beat,0.5799000000059713,0.5799000000059713,"[""space""]",ta,1,testConjL3Uns//dep_viol.r2.s2.0.wav,2.0,conjunction_un,unsyncopated,b,s2,no_rule,dep,L3,z,0.5011,5.0,0.0,1.2172,4.0,2.0,castellano,0.0,inglés,6.0,catalán,15.0,alemán,18.0,4.0,2.0,yes,no,yes,flauta,8,guitarra,8,piano,8,ukelele,15.0,,,80.0,yes
33,2024-02-24_12h25.56.080,Unsyncopated_study3,s122,19.0,feminino,right,españa,castellano,Upper secondary,no,no,A,1,when,L1,unsyncopated,when,when,33,Online_whenL1//b.ta0.none.wav,ri,lu,ze,sil,zu,la,pu,sil1,cho,be,sil2,['-'],,,none,none,,,,ta,1,testConjL3Uns//time_viol.r2.s2.0.wav,2.0,conjunction_un,unsyncopated,b,s2,no_rule,time,L3,m,0.6008,5.0,1.0,1.5114,4.0,2.0,castellano,0.0,inglés,6.0,catalán,15.0,alemán,18.0,4.0,2.0,yes,no,yes,flauta,8,guitarra,8,piano,8,ukelele,15.0,,,80.0,yes
34,2024-02-24_12h25.56.080,Unsyncopated_study3,s122,19.0,feminino,right,españa,castellano,Upper secondary,no,no,A,1,when,L1,unsyncopated,when,when,34,Online_whenL1//b.ta3.222.wav,ri,ta,fo,sil,ro,ni,pu,sil1,zu,ne,sil2,['miss'],,,0.222,no_beat,,,,ta,1,testConjL3Uns//r2.s2.2.wav,2.0,conjunction_un,unsyncopated,b,s2,rule,rule,L3,m,1.4832,5.0,0.0,0.6993,4.0,2.0,castellano,0.0,inglés,6.0,catalán,15.0,alemán,18.0,4.0,2.0,yes,no,yes,flauta,8,guitarra,8,piano,8,ukelele,15.0,,,80.0,yes
35,2024-02-24_12h25.56.080,Unsyncopated_study3,s122,19.0,feminino,right,españa,castellano,Upper secondary,no,no,A,1,when,L1,unsyncopated,when,when,35,Online_whenL1//b.ta1.none.wav,ki,cho,fa,sil,ne,ze,ri,sil1,be,la,sil2,['-'],,,none,none,,,,ta,1,testConjL3Uns//cat_viol.r1.s1.0.wav,2.0,conjunction_un,unsyncopated,a,s1,no_rule,cat,L3,m,0.5075,5.0,1.0,0.8886,4.0,2.0,castellano,0.0,inglés,6.0,catalán,15.0,alemán,18.0,4.0,2.0,yes,no,yes,flauta,8,guitarra,8,piano,8,ukelele,15.0,,,80.0,yes
36,2024-02-24_12h25.56.080,Unsyncopated_study3,s122,19.0,feminino,right,españa,castellano,Upper secondary,no,no,A,1,when,L1,unsyncopated,when,when,36,Online_whenL1//b.ta11.none.wav,cho,pu,ri,sil,ro,zu,lu,sil1,ki,fa,sil2,['false alarm'],[2.4961999999881073],[2.4961999999881073],none,none,,,"[""space""]",ta,1,testConjL3Uns//cat_viol.r2.s2.0.wav,2.0,conjunction_un,unsyncopated,b,s2,no_rule,cat,L3,z,0.4493,3.0,0.0,0.8804,4.0,2.0,castellano,0.0,inglés,6.0,catalán,15.0,alemán,18.0,4.0,2.0,yes,no,yes,flauta,8,guitarra,8,piano,8,ukelele,15.0,,,80.0,yes
37,2024-02-24_12h25.56.080,Unsyncopated_study3,s122,19.0,feminino,right,españa,castellano,Upper secondary,no,no,A,1,when,L1,unsyncopated,when,when,37,Online_whenL1//b.ta10.none.wav,lu,ro,la,sil,be,ze,ki,sil1,fo,ne,sil2,['-'],,,none,none,,,,ta,1,testConjL3Uns//r1.s2.0.wav,2.0,conjunction_un,unsyncopated,a,s2,rule,rule,L3,m,0.2573,3.0,0.0,0.9016,4.0,2.0,castellano,0.0,inglés,6.0,catalán,15.0,alemán,18.0,4.0,2.0,yes,no,yes,flauta,8,guitarra,8,piano,8,ukelele,15.0,,,80.0,yes
38,2024-02-24_12h25.56.080,Unsyncopated_study3,s122,19.0,feminino,right,españa,castellano,Upper secondary,no,no,A,1,when,L1,unsyncopated,when,when,38,Online_whenL1//b.ta9.0.wav,ta,ri,ni,sil,ki,ro,ze,sil1,lu,la,sil2,['catch'],[0.7661000000238118],[0.7661000000238118],0.0,beat,0.7661000000238118,0.7661000000238118,"[""space""]",ta,1,testConjL3Uns//r1.s2.2.wav,2.0,conjunction_un,unsyncopated,a,s2,rule,rule,L3,m,0.3684,2.0,0.0,0.6074,4.0,2.0,castellano,0.0,inglés,6.0,catalán,15.0,alemán,18.0,4.0,2.0,yes,no,yes,flauta,8,guitarra,8,piano,8,ukelele,15.0,,,80.0,yes
39,2024-02-24_12h25.56.080,Unsyncopated_study3,s122,19.0,feminino,right,españa,castellano,Upper secondary,no,no,A,1,when,L1,unsyncopated,when,when,39,Online_whenL1//b.ta8.0.wav,ta,ki,lu,sil,cho,ne,ro,sil1,fo,ri,sil2,['catch'],[0.7319999999999709],[0.7319999999999709],0.0,beat,0.7319999999999709,0.7319999999999709,"[""space""]",ta,1,testConjL3Uns//r1.s1.1.wav,2.0,conjunction_un,unsyncopated,a,s1,rule,rule,L3,m,0.2435,2.0,0.0,0.6347,4.0,2.0,castellano,0.0,inglés,6.0,catalán,15.0,alemán,18.0,4.0,2.0,yes,no,yes,flauta,8,guitarra,8,piano,8,ukelele,15.0,,,80.0,yes
40,2024-02-24_12h25.56.080,Unsyncopated_study3,s122,19.0,feminino,right,españa,castellano,Upper secondary,no,no,A,1,when,L1,unsyncopated,when,when,40,Online_whenL1//d.ne30.888.wav,cho,ta,la,sil,ne,zu,fa,sil1,be,ri,sil2,['catch'],[1.5139000000059468],[1.5139000000059468],0.888,beat,0.6259000000059468,0.6259000000059468,"[""space""]",ne,4,testConjL3Uns//r2.s2.0.wav,2.0,conjunction_un,unsyncopated,b,s2,rule,rule,L3,z,0.4707,2.0,1.0,0.8573,4.0,2.0,castellano,0.0,inglés,6.0,catalán,15.0,alemán,18.0,4.0,2.0,yes,no,yes,flauta,8,guitarra,8,piano,8,ukelele,15.0,,,80.0,yes
41,2024-02-24_12h25.56.080,Unsyncopated_study3,s122,19.0,feminino,right,españa,castellano,Upper secondary,no,no,A,1,when,L1,unsyncopated,when,when,41,Online_whenL1//d.ne29.444.wav,lu,ri,ne,sil,zu,la,ze,sil1,pu,ki,sil2,['miss'],,,0.444,no_beat,,,,ne,4,testConjL3Uns//time_viol.r1.s2.0.wav,2.0,conjunction_un,unsyncopated,a,s2,no_rule,time,L3,m,0.8168,4.0,1.0,1.3948,4.0,2.0,castellano,0.0,inglés,6.0,catalán,15.0,alemán,18.0,4.0,2.0,yes,no,yes,flauta,8,guitarra,8,piano,8,ukelele,15.0,,,80.0,yes
42,2024-02-24_12h25.56.080,Unsyncopated_study3,s122,19.0,feminino,right,españa,castellano,Upper secondary,no,no,A,1,when,L1,unsyncopated,when,when,42,Online_whenL1//d.ne28.1332.wav,ta,ze,cho,sil,ro,zu,ne,sil1,ki,ri,sil2,['catch'],[1.8005000000000564],[1.8005000000000564],1.332,no_beat,0.4685000000000563,0.4685000000000563,"[""space""]",ne,4,testConjL3Uns//r1.s1.2.wav,2.0,conjunction_un,unsyncopated,a,s1,rule,rule,L3,m,0.2334,4.0,0.0,1.2508,4.0,2.0,castellano,0.0,inglés,6.0,catalán,15.0,alemán,18.0,4.0,2.0,yes,no,yes,flauta,8,guitarra,8,piano,8,ukelele,15.0,,,80.0,yes
43,2024-02-24_12h25.56.080,Unsyncopated_study3,s122,19.0,feminino,right,españa,castellano,Upper secondary,no,no,A,1,when,L1,unsyncopated,when,when,43,Online_whenL1//d.ne31.1998.wav,ni,ta,la,sil,be,ze,lu,sil1,fa,ne,sil2,['catch_delay'],[0.8356000000238202],[0.8356000000238202],1.998,no_beat,0.8356000000238202,0.8356000000238202,,ne,4,testConjL3Uns//cat_viol.r2.s1.0.wav,2.0,conjunction_un,unsyncopated,b,s1,no_rule,cat,L3,m,0.3001,4.0,1.0,0.5007,4.0,2.0,castellano,0.0,inglés,6.0,catalán,15.0,alemán,18.0,4.0,2.0,yes,no,yes,flauta,8,guitarra,8,piano,8,ukelele,15.0,,,80.0,yes
44,2024-02-24_12h25.56.080,Unsyncopated_study3,s122,19.0,feminino,right,españa,castellano,Upper secondary,no,no,A,1,when,L1,unsyncopated,when,when,44,Online_whenL1//a.ki5.none.wav,fo,be,lu,sil,ze,ro,cho,sil1,ta,zu,sil2,['-'],[0.16960000002382003],[0.16960000002382003],none,none,,,"[""space""]",ki,2,testConjL3Uns//r2.s2.1.wav,2.0,conjunction_un,unsyncopated,b,s2,rule,rule,L3,z,0.3335,4.0,1.0,0.6378,4.0,2.0,castellano,0.0,inglés,6.0,catalán,15.0,alemán,18.0,4.0,2.0,yes,no,yes,flauta,8,guitarra,8,piano,8,ukelele,15.0,,,80.0,yes
45,2024-02-24_12h25.56.080,Unsyncopated_study3,s122,19.0,feminino,right,españa,castellano,Upper secondary,no,no,A,1,when,L1,unsyncopated,when,when,45,Online_whenL1//a.ki6.none.wav,la,ri,ni,sil,pu,ro,ne,sil1,be,zu,sil2,['-'],,,none,none,,,,ki,2,testConjL3Uns//r2.s1.0.wav,2.0,conjunction_un,unsyncopated,b,s1,rule,rule,L3,z,0.3184,5.0,1.0,0.5026,4.0,2.0,castellano,0.0,inglés,6.0,catalán,15.0,alemán,18.0,4.0,2.0,yes,no,yes,flauta,8,guitarra,8,piano,8,ukelele,15.0,,,80.0,yes
46,2024-02-24_12h25.56.080,Unsyncopated_study3,s122,19.0,feminino,right,españa,castellano,Upper secondary,no,no,A,1,when,L1,unsyncopated,when,when,46,Online_whenL1//a.ki4.222.wav,fa,ki,zu,sil,ni,ta,lu,sil1,ro,ri,sil2,['catch'],[0.7315999999940459],[0.7315999999940459],0.222,no_beat,0.5095999999940459,0.5095999999940459,"[""space""]",ki,2,testConjL3Uns//dep_viol.r1.s1.0.wav,2.0,conjunction_un,unsyncopated,a,s1,no_rule,dep,L3,m,0.4011,3.0,1.0,0.6673,4.0,2.0,castellano,0.0,inglés,6.0,catalán,15.0,alemán,18.0,4.0,2.0,yes,no,yes,flauta,8,guitarra,8,piano,8,ukelele,15.0,,,80.0,yes
47,2024-02-24_12h25.56.080,Unsyncopated_study3,s122,19.0,feminino,right,españa,castellano,Upper secondary,no,no,A,1,when,L1,unsyncopated,when,when,47,Online_whenL1//a.ki7.none.wav,cho,ro,ri,sil,pu,zu,fa,sil1,ni,be,sil2,['-'],,,none,none,,,,ki,2,testConjL3Uns//r1.s1.0.wav,2.0,conjunction_un,unsyncopated,a,s1,rule,rule,L3,z,1.2004,4.0,1.0,1.4337,4.0,2.0,castellano,0.0,inglés,6.0,catalán,15.0,alemán,18.0,4.0,2.0,yes,no,yes,flauta,8,guitarra,8,piano,8,ukelele,15.0,,,80.0,yes
48,2024-02-24_12h25.56.080,Unsyncopated_study3,s122,19.0,feminino,right,españa,castellano,Upper secondary,no,no,A,1,when,L1,unsyncopated,when,when,48,Online_whenL1//b.ta23.none.wav,ni,fo,ri,sil,ki,la,be,sil1,ze,ne,sil2,['-'],,,none,none,,,,ta,1,testConjL2Syn//dep_viol.r2.s1.0.wav,3.0,conjunction_syn,syncopated,b,s1,no_rule,dep,L2,z,1.3761,6.0,0.0,1.2493,4.0,2.0,castellano,0.0,inglés,6.0,catalán,15.0,alemán,18.0,4.0,2.0,yes,no,yes,flauta,8,guitarra,8,piano,8,ukelele,15.0,,,80.0,yes
49,2024-02-24_12h25.56.080,Unsyncopated_study3,s122,19.0,feminino,right,españa,castellano,Upper secondary,no,no,A,1,when,L1,unsyncopated,when,when,49,Online_whenL1//b.ta22.none.wav,be,ri,fo,sil,ne,ki,zu,sil1,fa,lu,sil2,['-'],,,none,none,,,,ta,1,testConjL2Syn//r1.s2.1.wav,3.0,conjunction_syn,syncopated,a,s2,rule,rule,L2,z,0.3998,5.0,1.0,0.5863,4.0,2.0,castellano,0.0,inglés,6.0,catalán,15.0,alemán,18.0,4.0,2.0,yes,no,yes,flauta,8,guitarra,8,piano,8,ukelele,15.0,,,80.0,yes
50,2024-02-24_12h25.56.080,Unsyncopated_study3,s122,19.0,feminino,right,españa,castellano,Upper secondary,no,no,A,1,when,L1,unsyncopated,when,when,50,Online_whenL1//b.ta21.1998.wav,fa,be,la,sil,zu,cho,fo,sil1,ni,ta,sil2,['catch'],[2.4180999999940695],[2.4180999999940695],1.998,no_beat,0.4200999999940695,0.4200999999940695,"[""space""]",ta,1,testConjL2Syn//time_viol.r1.s1.0.wav,3.0,conjunction_syn,syncopated,a,s1,no_rule,time,L2,z,0.2682,5.0,0.0,0.9255,4.0,2.0,castellano,0.0,inglés,6.0,catalán,15.0,alemán,18.0,4.0,2.0,yes,no,yes,flauta,8,guitarra,8,piano,8,ukelele,15.0,,,80.0,yes
51,2024-02-24_12h25.56.080,Unsyncopated_study3,s122,19.0,feminino,right,españa,castellano,Upper secondary,no,no,A,1,when,L1,unsyncopated,when,when,51,Online_whenL1//b.ta20.1110.wav,zu,lu,fo,sil,ki,ta,ne,sil1,ri,la,sil2,['catch'],[1.46630000001187],[1.46630000001187],1.11,no_beat,0.3563000000118699,0.3563000000118699,"[""space""]",ta,1,testConjL2Syn//dep_viol.r1.s2.0.wav,3.0,conjunction_syn,syncopated,a,s2,no_rule,dep,L2,m,0.3831,3.0,1.0,1.2221,4.0,2.0,castellano,0.0,inglés,6.0,catalán,15.0,alemán,18.0,4.0,2.0,yes,no,yes,flauta,8,guitarra,8,piano,8,ukelele,15.0,,,80.0,yes
52,2024-02-24_12h25.56.080,Unsyncopated_study3,s122,19.0,feminino,right,españa,castellano,Upper secondary,no,no,A,1,when,L1,unsyncopated,when,when,52,Online_whenL1//d.ne5.none.wav,zu,ta,lu,sil,la,ni,ri,sil1,fa,be,sil2,['-'],,,none,none,,,,ne,4,testConjL2Syn//r2.s2.1.wav,3.0,conjunction_syn,syncopated,b,s2,rule,rule,L2,m,0.5202,3.0,0.0,0.7567,4.0,2.0,castellano,0.0,inglés,6.0,catalán,15.0,alemán,18.0,4.0,2.0,yes,no,yes,flauta,8,guitarra,8,piano,8,ukelele,15.0,,,80.0,yes
53,2024-02-24_12h25.56.080,Unsyncopated_study3,s122,19.0,feminino,right,españa,castellano,Upper secondary,no,no,A,1,when,L1,unsyncopated,when,when,53,Online_whenL1//d.ne6.444.wav,fo,pu,ne,sil,cho,ro,lu,sil1,ki,zu,sil2,['miss'],,,0.444,no_beat,,,,ne,4,testConjL2Syn//r2.s1.0.wav,3.0,conjunction_syn,syncopated,b,s1,rule,rule,L2,m,0.4214,4.0,0.0,0.4455,4.0,2.0,castellano,0.0,inglés,6.0,catalán,15.0,alemán,18.0,4.0,2.0,yes,no,yes,flauta,8,guitarra,8,piano,8,ukelele,15.0,,,80.0,yes
54,2024-02-24_12h25.56.080,Unsyncopated_study3,s122,19.0,feminino,right,españa,castellano,Upper secondary,no,no,A,1,when,L1,unsyncopated,when,when,54,Online_whenL1//d.ne7.none.wav,ri,lu,ki,sil,zu,ni,ta,sil1,cho,ro,sil2,['-'],,,none,none,,,,ne,4,testConjL2Syn//dep_viol.r2.s2.0.wav,3.0,conjunction_syn,syncopated,b,s2,no_rule,dep,L2,m,0.3324,3.0,1.0,0.6754,4.0,2.0,castellano,0.0,inglés,6.0,catalán,15.0,alemán,18.0,4.0,2.0,yes,no,yes,flauta,8,guitarra,8,piano,8,ukelele,15.0,,,80.0,yes
55,2024-02-24_12h25.56.080,Unsyncopated_study3,s122,19.0,feminino,right,españa,castellano,Upper secondary,no,no,A,1,when,L1,unsyncopated,when,when,55,Online_whenL1//d.ne4.1998.wav,fo,ki,ta,sil,ri,cho,zu,sil1,ni,ne,sil2,['catch_delay'],[0.7803000000118947],[0.7803000000118947],1.998,no_beat,0.7803000000118947,0.7803000000118947,,ne,4,testConjL2Syn//dep_viol.r1.s1.0.wav,3.0,conjunction_syn,syncopated,a,s1,no_rule,dep,L2,m,0.3378,3.0,1.0,0.9796,4.0,2.0,castellano,0.0,inglés,6.0,catalán,15.0,alemán,18.0,4.0,2.0,yes,no,yes,flauta,8,guitarra,8,piano,8,ukelele,15.0,,,80.0,yes
56,2024-02-24_12h25.56.080,Unsyncopated_study3,s122,19.0,feminino,right,españa,castellano,Upper secondary,no,no,A,1,when,L1,unsyncopated,when,when,56,Online_whenL1//c.ro14.none.wav,zu,ki,fa,sil,pu,ni,lu,sil1,fo,la,sil2,['-'],[0.11430000001189455],[0.11430000001189455],none,none,,,"[""space""]",ro,3,testConjL2Syn//r1.s1.2.wav,3.0,conjunction_syn,syncopated,a,s1,rule,rule,L2,m,0.4003,4.0,0.0,0.4545,4.0,2.0,castellano,0.0,inglés,6.0,catalán,15.0,alemán,18.0,4.0,2.0,yes,no,yes,flauta,8,guitarra,8,piano,8,ukelele,15.0,,,80.0,yes
57,2024-02-24_12h25.56.080,Unsyncopated_study3,s122,19.0,feminino,right,españa,castellano,Upper secondary,no,no,A,1,when,L1,unsyncopated,when,when,57,Online_whenL1//c.ro13.none.wav,ne,lu,be,sil,fo,ki,ri,sil1,ni,cho,sil2,['-'],,,none,none,,,,ro,3,testConjL2Syn//cat_viol.r2.s1.0.wav,3.0,conjunction_syn,syncopated,b,s1,no_rule,cat,L2,m,0.3947,5.0,1.0,2.2047,4.0,2.0,castellano,0.0,inglés,6.0,catalán,15.0,alemán,18.0,4.0,2.0,yes,no,yes,flauta,8,guitarra,8,piano,8,ukelele,15.0,,,80.0,yes
58,2024-02-24_12h25.56.080,Unsyncopated_study3,s122,19.0,feminino,right,españa,castellano,Upper secondary,no,no,A,1,when,L1,unsyncopated,when,when,58,Online_whenL1//c.ro12.444.wav,fa,la,ro,sil,ze,be,ki,sil1,fo,ni,sil2,['catch'],[0.9512000000178205],[0.9512000000178205],0.444,no_beat,0.5072000000178205,0.5072000000178205,"[""space""]",ro,3,testConjL2Syn//r2.s2.2.wav,3.0,conjunction_syn,syncopated,b,s2,rule,rule,L2,m,0.3968,4.0,0.0,0.5498,4.0,2.0,castellano,0.0,inglés,6.0,catalán,15.0,alemán,18.0,4.0,2.0,yes,no,yes,flauta,8,guitarra,8,piano,8,ukelele,15.0,,,80.0,yes
59,2024-02-24_12h25.56.080,Unsyncopated_study3,s122,19.0,feminino,right,españa,castellano,Upper secondary,no,no,A,1,when,L1,unsyncopated,when,when,59,Online_whenL1//c.ro15.0.wav,ro,ne,zu,sil,la,ri,pu,sil1,ki,ni,sil2,['miss'],,,0.0,beat,,,,ro,3,testConjL2Syn//r1.s1.1.wav,3.0,conjunction_syn,syncopated,a,s1,rule,rule,L2,z,0.376,4.0,1.0,1.0997,4.0,2.0,castellano,0.0,inglés,6.0,catalán,15.0,alemán,18.0,4.0,2.0,yes,no,yes,flauta,8,guitarra,8,piano,8,ukelele,15.0,,,80.0,yes
60,2024-02-24_12h25.56.080,Unsyncopated_study3,s122,19.0,feminino,right,españa,castellano,Upper secondary,no,no,A,1,when,L1,unsyncopated,when,when,60,Online_whenL1//c.ro28.none.wav,fo,fa,ki,sil,ri,ze,zu,sil1,be,ne,sil2,['-'],,,none,none,,,,ro,3,testConjL2Syn//cat_viol.r1.s1.0.wav,3.0,conjunction_syn,syncopated,a,s1,no_rule,cat,L2,m,0.3024,3.0,1.0,0.641,4.0,2.0,castellano,0.0,inglés,6.0,catalán,15.0,alemán,18.0,4.0,2.0,yes,no,yes,flauta,8,guitarra,8,piano,8,ukelele,15.0,,,80.0,yes
61,2024-02-24_12h25.56.080,Unsyncopated_study3,s122,19.0,feminino,right,españa,castellano,Upper secondary,no,no,A,1,when,L1,unsyncopated,when,when,61,Online_whenL1//c.ro30.0.wav,ro,ze,zu,sil,ki,be,lu,sil1,fo,ni,sil2,['catch'],[0.7051999999880536],[0.7051999999880536],0.0,beat,0.7051999999880536,0.7051999999880536,"[""space""]",ro,3,testConjL2Syn//r2.s1.2.wav,3.0,conjunction_syn,syncopated,b,s1,rule,rule,L2,m,0.2963,3.0,0.0,0.5939,4.0,2.0,castellano,0.0,inglés,6.0,catalán,15.0,alemán,18.0,4.0,2.0,yes,no,yes,flauta,8,guitarra,8,piano,8,ukelele,15.0,,,80.0,yes
62,2024-02-24_12h25.56.080,Unsyncopated_study3,s122,19.0,feminino,right,españa,castellano,Upper secondary,no,no,A,1,when,L1,unsyncopated,when,when,62,Online_whenL1//c.ro29.none.wav,fa,ne,cho,sil,fo,ki,ta,sil1,ze,la,sil2,['-'],,,none,none,,,,ro,3,testConjL2Syn//cat_viol.r1.s2.0.wav,3.0,conjunction_syn,syncopated,a,s2,no_rule,cat,L2,z,0.216,4.0,0.0,1.445,4.0,2.0,castellano,0.0,inglés,6.0,catalán,15.0,alemán,18.0,4.0,2.0,yes,no,yes,flauta,8,guitarra,8,piano,8,ukelele,15.0,,,80.0,yes
63,2024-02-24_12h25.56.080,Unsyncopated_study3,s122,19.0,feminino,right,españa,castellano,Upper secondary,no,no,A,1,when,L1,unsyncopated,when,when,63,Online_whenL1//c.ro31.none.wav,ni,ze,fo,sil,ne,zu,pu,sil1,ta,la,sil2,['false alarm'],[1.086200000017925],[1.086200000017925],none,none,,,"[""space""]",ro,3,testConjL2Syn//cat_viol.r2.s2.0.wav,3.0,conjunction_syn,syncopated,b,s2,no_rule,cat,L2,z,0.3842,3.0,0.0,1.641,4.0,2.0,castellano,0.0,inglés,6.0,catalán,15.0,alemán,18.0,4.0,2.0,yes,no,yes,flauta,8,guitarra,8,piano,8,ukelele,15.0,,,80.0,yes
64,2024-02-24_12h25.56.080,Unsyncopated_study3,s122,19.0,feminino,right,españa,castellano,Upper secondary,no,no,A,1,when,L1,unsyncopated,when,when,64,Online_whenL1//d.ne27.none.wav,ta,zu,ni,sil,lu,ri,fa,sil1,fo,be,sil2,['-'],,,none,none,,,,ne,4,testConjL2Syn//r1.s2.2.wav,3.0,conjunction_syn,syncopated,a,s2,rule,rule,L2,m,0.3169,4.0,0.0,1.0791,4.0,2.0,castellano,0.0,inglés,6.0,catalán,15.0,alemán,18.0,4.0,2.0,yes,no,yes,flauta,8,guitarra,8,piano,8,ukelele,15.0,,,80.0,yes
65,2024-02-24_12h25.56.080,Unsyncopated_study3,s122,19.0,feminino,right,españa,castellano,Upper secondary,no,no,A,1,when,L1,unsyncopated,when,when,65,Online_whenL1//d.ne26.none.wav,fo,lu,be,sil,ro,ta,ri,sil1,fa,ni,sil2,['-'],,,none,none,,,,ne,4,testConjL2Syn//r2.s2.0.wav,3.0,conjunction_syn,syncopated,b,s2,rule,rule,L2,m,0.4343,4.0,0.0,0.9009,4.0,2.0,castellano,0.0,inglés,6.0,catalán,15.0,alemán,18.0,4.0,2.0,yes,no,yes,flauta,8,guitarra,8,piano,8,ukelele,15.0,,,80.0,yes
66,2024-02-24_12h25.56.080,Unsyncopated_study3,s122,19.0,feminino,right,españa,castellano,Upper secondary,no,no,A,1,when,L1,unsyncopated,when,when,66,Online_whenL1//d.ne24.none.wav,ri,ze,cho,sil,pu,lu,fo,sil1,ki,ni,sil2,['-'],,,none,none,,,,ne,4,testConjL2Syn//r1.s1.0.wav,3.0,conjunction_syn,syncopated,a,s1,rule,rule,L2,m,0.79,3.0,0.0,0.6497,4.0,2.0,castellano,0.0,inglés,6.0,catalán,15.0,alemán,18.0,4.0,2.0,yes,no,yes,flauta,8,guitarra,8,piano,8,ukelele,15.0,,,80.0,yes
67,2024-02-24_12h25.56.080,Unsyncopated_study3,s122,19.0,feminino,right,españa,castellano,Upper secondary,no,no,A,1,when,L1,unsyncopated,when,when,67,Online_whenL1//d.ne25.none.wav,lu,la,ri,sil,ta,ni,zu,sil1,ze,ki,sil2,['-'],,,none,none,,,,ne,4,testConjL2Syn//r2.s1.1.wav,3.0,conjunction_syn,syncopated,b,s1,rule,rule,L2,m,0.3678,3.0,0.0,0.9199,4.0,2.0,castellano,0.0,inglés,6.0,catalán,15.0,alemán,18.0,4.0,2.0,yes,no,yes,flauta,8,guitarra,8,piano,8,ukelele,15.0,,,80.0,yes
68,2024-02-24_12h25.56.080,Unsyncopated_study3,s122,19.0,feminino,right,españa,castellano,Upper secondary,no,no,A,1,when,L1,unsyncopated,when,when,68,Online_whenL1//a.ki17.none.wav,be,la,fo,sil,zu,ze,ro,sil1,pu,ne,sil2,['-'],,,none,none,,,,ki,2,testConjL2Syn//time_viol.r2.s1.0.wav,3.0,conjunction_syn,syncopated,b,s1,no_rule,time,L2,m,0.3579,3.0,1.0,0.4999,4.0,2.0,castellano,0.0,inglés,6.0,catalán,15.0,alemán,18.0,4.0,2.0,yes,no,yes,flauta,8,guitarra,8,piano,8,ukelele,15.0,,,80.0,yes
69,2024-02-24_12h25.56.080,Unsyncopated_study3,s122,19.0,feminino,right,españa,castellano,Upper secondary,no,no,A,1,when,L1,unsyncopated,when,when,69,Online_whenL1//a.ki19.1998.wav,pu,ze,ro,sil,fo,zu,cho,sil1,fa,ki,sil2,['catch'],[2.41780000001188],[2.41780000001188],1.998,no_beat,0.41980000001188,0.41980000001188,"[""space""]",ki,2,testConjL2Syn//r1.s2.0.wav,3.0,conjunction_syn,syncopated,a,s2,rule,rule,L2,m,0.2425,3.0,0.0,0.4423,4.0,2.0,castellano,0.0,inglés,6.0,catalán,15.0,alemán,18.0,4.0,2.0,yes,no,yes,flauta,8,guitarra,8,piano,8,ukelele,15.0,,,80.0,yes
70,2024-02-24_12h25.56.080,Unsyncopated_study3,s122,19.0,feminino,right,españa,castellano,Upper secondary,no,no,A,1,when,L1,unsyncopated,when,when,70,Online_whenL1//a.ki16.888.wav,ni,ro,ta,sil,ki,lu,cho,sil1,fo,ri,sil2,['miss'],,,0.888,beat,,,,ki,2,testConjL2Syn//time_viol.r2.s2.0.wav,3.0,conjunction_syn,syncopated,b,s2,no_rule,time,L2,m,0.3186,4.0,1.0,1.0568,4.0,2.0,castellano,0.0,inglés,6.0,catalán,15.0,alemán,18.0,4.0,2.0,yes,no,yes,flauta,8,guitarra,8,piano,8,ukelele,15.0,,,80.0,yes
71,2024-02-24_12h25.56.080,Unsyncopated_study3,s122,19.0,feminino,right,españa,castellano,Upper secondary,no,no,A,1,when,L1,unsyncopated,when,when,71,Online_whenL1//a.ki18.444.wav,ni,fa,ki,sil,pu,ri,fo,sil1,zu,ne,sil2,['catch'],[1.018300000011891],[1.018300000011891],0.444,no_beat,0.574300000011891,0.574300000011891,"[""space""]",ki,2,testConjL2Syn//time_viol.r1.s2.0.wav,3.0,conjunction_syn,syncopated,a,s2,no_rule,time,L2,z,0.5873,4.0,0.0,0.4201,4.0,2.0,castellano,0.0,inglés,6.0,catalán,15.0,alemán,18.0,4.0,2.0,yes,no,yes,flauta,8,guitarra,8,piano,8,ukelele,15.0,,,80.0,yes
72,2024-02-24_12h25.56.080,Unsyncopated_study3,s122,19.0,feminino,right,españa,castellano,Upper secondary,no,no,A,1,when,L1,unsyncopated,when,when,72,Online_whenL1//b.ta25.0.wav,ta,ne,ro,sil,fo,be,lu,sil1,zu,fa,sil2,['catch'],[0.5771999999880109],[0.5771999999880109],0.0,beat,0.5771999999880109,0.5771999999880109,"[""space""]",ta,1,testWhatL4Uns//r2.s2.1.wav,4.0,what,unsyncopated,b,s2,rule,rule,L4,z,0.6042,5.0,1.0,1.7585,4.0,2.0,castellano,0.0,inglés,6.0,catalán,15.0,alemán,18.0,4.0,2.0,yes,no,yes,flauta,8,guitarra,8,piano,8,ukelele,15.0,,,80.0,yes
73,2024-02-24_12h25.56.080,Unsyncopated_study3,s122,19.0,feminino,right,españa,castellano,Upper secondary,no,no,A,1,when,L1,unsyncopated,when,when,73,Online_whenL1//b.ta26.888.wav,zu,la,be,sil,ta,ro,cho,sil1,fo,ne,sil2,['catch'],[1.365000000000009],[1.365000000000009],0.888,beat,0.4770000000000091,0.4770000000000091,"[""space""]",ta,1,testWhatL4Uns//cat_viol.r1.s1.0.wav,4.0,what,unsyncopated,a,s1,no_rule,cat,L4,m,1.2223,4.0,1.0,1.7321,4.0,2.0,castellano,0.0,inglés,6.0,catalán,15.0,alemán,18.0,4.0,2.0,yes,no,yes,flauta,8,guitarra,8,piano,8,ukelele,15.0,,,80.0,yes
74,2024-02-24_12h25.56.080,Unsyncopated_study3,s122,19.0,feminino,right,españa,castellano,Upper secondary,no,no,A,1,when,L1,unsyncopated,when,when,74,Online_whenL1//b.ta27.none.wav,be,fa,cho,sil,pu,ze,ni,sil1,lu,zu,sil2,['-'],,,none,none,,,,ta,1,testWhatL4Uns//r2.s2.0.wav,4.0,what,unsyncopated,b,s2,rule,rule,L4,m,0.9095,3.0,0.0,0.8731,4.0,2.0,castellano,0.0,inglés,6.0,catalán,15.0,alemán,18.0,4.0,2.0,yes,no,yes,flauta,8,guitarra,8,piano,8,ukelele,15.0,,,80.0,yes
75,2024-02-24_12h25.56.080,Unsyncopated_study3,s122,19.0,feminino,right,españa,castellano,Upper secondary,no,no,A,1,when,L1,unsyncopated,when,when,75,Online_whenL1//b.ta24.1998.wav,ro,lu,ki,sil,cho,ne,ri,sil1,ni,ta,sil2,['catch'],[2.38149999999996],[2.38149999999996],1.998,no_beat,0.38349999999996,0.38349999999996,"[""space""]",ta,1,testWhatL4Uns//r2.s1.1.wav,4.0,what,unsyncopated,b,s1,rule,rule,L4,m,0.3748,3.0,0.0,0.4995,4.0,2.0,castellano,0.0,inglés,6.0,catalán,15.0,alemán,18.0,4.0,2.0,yes,no,yes,flauta,8,guitarra,8,piano,8,ukelele,15.0,,,80.0,yes
76,2024-02-24_12h25.56.080,Unsyncopated_study3,s122,19.0,feminino,right,españa,castellano,Upper secondary,no,no,A,1,when,L1,unsyncopated,when,when,76,Online_whenL1//d.ne13.none.wav,ro,cho,fa,sil,lu,ki,ze,sil1,be,fo,sil2,['-'],,,none,none,,,,ne,4,testWhatL4Uns//r1.s2.2.wav,4.0,what,unsyncopated,a,s2,rule,rule,L4,z,0.8785,3.0,1.0,0.9652,4.0,2.0,castellano,0.0,inglés,6.0,catalán,15.0,alemán,18.0,4.0,2.0,yes,no,yes,flauta,8,guitarra,8,piano,8,ukelele,15.0,,,80.0,yes
77,2024-02-24_12h25.56.080,Unsyncopated_study3,s122,19.0,feminino,right,españa,castellano,Upper secondary,no,no,A,1,when,L1,unsyncopated,when,when,77,Online_whenL1//d.ne15.444.wav,be,la,ne,sil,fo,pu,ro,sil1,fa,lu,sil2,['catch'],[1.3654999999999973],[1.3654999999999973],0.444,no_beat,0.9214999999999972,0.9214999999999972,"[""space""]",ne,4,testWhatL4Uns//r1.s1.0.wav,4.0,what,unsyncopated,a,s1,rule,rule,L4,z,0.6779,4.0,1.0,0.4003,4.0,2.0,castellano,0.0,inglés,6.0,catalán,15.0,alemán,18.0,4.0,2.0,yes,no,yes,flauta,8,guitarra,8,piano,8,ukelele,15.0,,,80.0,yes
78,2024-02-24_12h25.56.080,Unsyncopated_study3,s122,19.0,feminino,right,españa,castellano,Upper secondary,no,no,A,1,when,L1,unsyncopated,when,when,78,Online_whenL1//d.ne12.888.wav,fo,be,zu,sil,ne,ro,ze,sil1,ni,ta,sil2,['catch'],[1.577900000006025],[1.577900000006025],0.888,beat,0.689900000006025,0.689900000006025,"[""space""]",ne,4,testWhatL4Uns//dep_viol.r1.s2.0.wav,4.0,what,unsyncopated,a,s2,no_rule,dep,L4,m,0.3188,3.0,1.0,0.6037,4.0,2.0,castellano,0.0,inglés,6.0,catalán,15.0,alemán,18.0,4.0,2.0,yes,no,yes,flauta,8,guitarra,8,piano,8,ukelele,15.0,,,80.0,yes
79,2024-02-24_12h25.56.080,Unsyncopated_study3,s122,19.0,feminino,right,españa,castellano,Upper secondary,no,no,A,1,when,L1,unsyncopated,when,when,79,Online_whenL1//d.ne14.none.wav,ro,lu,cho,sil,ni,pu,ri,sil1,be,zu,sil2,['-'],,,none,none,,,,ne,4,testWhatL4Uns//dep_viol.r1.s1.0.wav,4.0,what,unsyncopated,a,s1,no_rule,dep,L4,z,0.9764,3.0,0.0,0.8665,4.0,2.0,castellano,0.0,inglés,6.0,catalán,15.0,alemán,18.0,4.0,2.0,yes,no,yes,flauta,8,guitarra,8,piano,8,ukelele,15.0,,,80.0,yes
80,2024-02-24_12h25.56.080,Unsyncopated_study3,s122,19.0,feminino,right,españa,castellano,Upper secondary,no,no,A,1,when,L1,unsyncopated,when,when,80,Online_whenL1//b.ta31.none.wav,pu,lu,zu,sil,cho,la,ki,sil1,fa,ro,sil2,['-'],,,none,none,,,,ta,1,testWhatL4Uns//r2.s1.2.wav,4.0,what,unsyncopated,b,s1,rule,rule,L4,m,0.0444,3.0,0.0,1.4872,4.0,2.0,castellano,0.0,inglés,6.0,catalán,15.0,alemán,18.0,4.0,2.0,yes,no,yes,flauta,8,guitarra,8,piano,8,ukelele,15.0,,,80.0,yes
81,2024-02-24_12h25.56.080,Unsyncopated_study3,s122,19.0,feminino,right,españa,castellano,Upper secondary,no,no,A,1,when,L1,unsyncopated,when,when,81,Online_whenL1//b.ta28.222.wav,la,ta,lu,sil,fo,ni,ro,sil1,ki,cho,sil2,['catch'],[0.7348000000118873],[0.7348000000118873],0.222,no_beat,0.5128000000118873,0.5128000000118873,"[""space""]",ta,1,testWhatL4Uns//r2.s1.0.wav,4.0,what,unsyncopated,b,s1,rule,rule,L4,m,0.4871,3.0,0.0,0.5298,4.0,2.0,castellano,0.0,inglés,6.0,catalán,15.0,alemán,18.0,4.0,2.0,yes,no,yes,flauta,8,guitarra,8,piano,8,ukelele,15.0,,,80.0,yes
82,2024-02-24_12h25.56.080,Unsyncopated_study3,s122,19.0,feminino,right,españa,castellano,Upper secondary,no,no,A,1,when,L1,unsyncopated,when,when,82,Online_whenL1//b.ta29.none.wav,ri,ki,cho,sil,lu,zu,ze,sil1,fo,pu,sil2,['-'],,,none,none,,,,ta,1,testWhatL4Uns//time_viol.r2.s1.0.wav,4.0,what,unsyncopated,b,s1,no_rule,time,L4,m,0.7631,3.0,1.0,0.4377,4.0,2.0,castellano,0.0,inglés,6.0,catalán,15.0,alemán,18.0,4.0,2.0,yes,no,yes,flauta,8,guitarra,8,piano,8,ukelele,15.0,,,80.0,yes
83,2024-02-24_12h25.56.080,Unsyncopated_study3,s122,19.0,feminino,right,españa,castellano,Upper secondary,no,no,A,1,when,L1,unsyncopated,when,when,83,Online_whenL1//b.ta30.444.wav,lu,ze,ta,sil,ne,ni,fo,sil1,la,be,sil2,['catch'],[0.9565000000000055],[0.9565000000000055],0.444,no_beat,0.5125000000000055,0.5125000000000055,"[""space""]",ta,1,testWhatL4Uns//time_viol.r1.s1.0.wav,4.0,what,unsyncopated,a,s1,no_rule,time,L4,m,0.3079,3.0,1.0,0.7397,4.0,2.0,castellano,0.0,inglés,6.0,catalán,15.0,alemán,18.0,4.0,2.0,yes,no,yes,flauta,8,guitarra,8,piano,8,ukelele,15.0,,,80.0,yes
84,2024-02-24_12h25.56.080,Unsyncopated_study3,s122,19.0,feminino,right,españa,castellano,Upper secondary,no,no,A,1,when,L1,unsyncopated,when,when,84,Online_whenL1//d.ne20.1110.wav,fa,ki,cho,sil,pu,ne,zu,sil1,la,ro,sil2,['catch'],[1.7803000000119482],[1.7803000000119482],1.11,no_beat,0.6703000000119481,0.6703000000119481,"[""space""]",ne,4,testWhatL4Uns//time_viol.r2.s2.0.wav,4.0,what,unsyncopated,b,s2,no_rule,time,L4,m,3.679,4.0,1.0,0.3921,4.0,2.0,castellano,0.0,inglés,6.0,catalán,15.0,alemán,18.0,4.0,2.0,yes,no,yes,flauta,8,guitarra,8,piano,8,ukelele,15.0,,,80.0,yes
85,2024-02-24_12h25.56.080,Unsyncopated_study3,s122,19.0,feminino,right,españa,castellano,Upper secondary,no,no,A,1,when,L1,unsyncopated,when,when,85,Online_whenL1//d.ne21.1332.wav,la,ro,ki,sil,cho,fo,ne,sil1,ta,ni,sil2,['catch'],[1.8677000000178623],[1.8677000000178623],1.332,no_beat,0.5357000000178622,0.5357000000178622,"[""space""]",ne,4,testWhatL4Uns//cat_viol.r1.s2.0.wav,4.0,what,unsyncopated,a,s2,no_rule,cat,L4,m,1.7741,4.0,1.0,0.592,4.0,2.0,castellano,0.0,inglés,6.0,catalán,15.0,alemán,18.0,4.0,2.0,yes,no,yes,flauta,8,guitarra,8,piano,8,ukelele,15.0,,,80.0,yes
86,2024-02-24_12h25.56.080,Unsyncopated_study3,s122,19.0,feminino,right,españa,castellano,Upper secondary,no,no,A,1,when,L1,unsyncopated,when,when,86,Online_whenL1//d.ne22.none.wav,ni,ki,pu,sil,ro,la,cho,sil1,fa,ri,sil2,['-'],,,none,none,,,,ne,4,testWhatL4Uns//r1.s1.2.wav,4.0,what,unsyncopated,a,s1,rule,rule,L4,z,0.8034,2.0,1.0,1.1698,4.0,2.0,castellano,0.0,inglés,6.0,catalán,15.0,alemán,18.0,4.0,2.0,yes,no,yes,flauta,8,guitarra,8,piano,8,ukelele,15.0,,,80.0,yes
87,2024-02-24_12h25.56.080,Unsyncopated_study3,s122,19.0,feminino,right,españa,castellano,Upper secondary,no,no,A,1,when,L1,unsyncopated,when,when,87,Online_whenL1//d.ne23.none.wav,be,ni,cho,sil,ri,ro,fo,sil1,la,ki,sil2,['false alarm'],[0.7089999999999463],[0.7089999999999463],none,none,,,"[""space""]",ne,4,testWhatL4Uns//dep_viol.r2.s2.0.wav,4.0,what,unsyncopated,b,s2,no_rule,dep,L4,z,0.2944,3.0,0.0,0.6674,4.0,2.0,castellano,0.0,inglés,6.0,catalán,15.0,alemán,18.0,4.0,2.0,yes,no,yes,flauta,8,guitarra,8,piano,8,ukelele,15.0,,,80.0,yes
88,2024-02-24_12h25.56.080,Unsyncopated_study3,s122,19.0,feminino,right,españa,castellano,Upper secondary,no,no,A,1,when,L1,unsyncopated,when,when,88,Online_whenL1//a.ki27.none.wav,fa,fo,cho,sil,ze,ri,ta,sil1,pu,zu,sil2,['-'],,,none,none,,,,ki,2,testWhatL4Uns//r2.s2.2.wav,4.0,what,unsyncopated,b,s2,rule,rule,L4,z,0.3819,4.0,1.0,0.95,4.0,2.0,castellano,0.0,inglés,6.0,catalán,15.0,alemán,18.0,4.0,2.0,yes,no,yes,flauta,8,guitarra,8,piano,8,ukelele,15.0,,,80.0,yes
89,2024-02-24_12h25.56.080,Unsyncopated_study3,s122,19.0,feminino,right,españa,castellano,Upper secondary,no,no,A,1,when,L1,unsyncopated,when,when,89,Online_whenL1//a.ki25.none.wav,pu,lu,ni,sil,ro,ne,zu,sil1,la,ta,sil2,['-'],,,none,none,,,,ki,2,testWhatL4Uns//r1.s2.1.wav,4.0,what,unsyncopated,a,s2,rule,rule,L4,m,0.0266,2.0,0.0,1.859,4.0,2.0,castellano,0.0,inglés,6.0,catalán,15.0,alemán,18.0,4.0,2.0,yes,no,yes,flauta,8,guitarra,8,piano,8,ukelele,15.0,,,80.0,yes
90,2024-02-24_12h25.56.080,Unsyncopated_study3,s122,19.0,feminino,right,españa,castellano,Upper secondary,no,no,A,1,when,L1,unsyncopated,when,when,90,Online_whenL1//a.ki24.none.wav,cho,ze,ni,sil,zu,la,ri,sil1,be,pu,sil2,['-'],,,none,none,,,,ki,2,testWhatL4Uns//dep_viol.r2.s1.0.wav,4.0,what,unsyncopated,b,s1,no_rule,dep,L4,m,0.5923,3.0,1.0,0.6323,4.0,2.0,castellano,0.0,inglés,6.0,catalán,15.0,alemán,18.0,4.0,2.0,yes,no,yes,flauta,8,guitarra,8,piano,8,ukelele,15.0,,,80.0,yes
91,2024-02-24_12h25.56.080,Unsyncopated_study3,s122,19.0,feminino,right,españa,castellano,Upper secondary,no,no,A,1,when,L1,unsyncopated,when,when,91,Online_whenL1//a.ki26.none.wav,fo,be,ne,sil,ta,ze,ri,sil1,la,cho,sil2,['-'],,,none,none,,,,ki,2,testWhatL4Uns//time_viol.r1.s2.0.wav,4.0,what,unsyncopated,a,s2,no_rule,time,L4,z,0.4858,2.0,0.0,1.2217,4.0,2.0,castellano,0.0,inglés,6.0,catalán,15.0,alemán,18.0,4.0,2.0,yes,no,yes,flauta,8,guitarra,8,piano,8,ukelele,15.0,,,80.0,yes
92,2024-02-24_12h25.56.080,Unsyncopated_study3,s122,19.0,feminino,right,españa,castellano,Upper secondary,no,no,A,1,when,L1,unsyncopated,when,when,92,Online_whenL1//b.ta5.1332.wav,pu,ro,cho,sil,zu,fa,ta,sil1,ri,ne,sil2,['catch'],[1.7851000000238173],[1.7851000000238173],1.332,no_beat,0.4531000000238172,0.4531000000238172,"[""space""]",ta,1,testWhatL4Uns//cat_viol.r2.s2.0.wav,4.0,what,unsyncopated,b,s2,no_rule,cat,L4,z,0.2935,3.0,0.0,0.5,4.0,2.0,castellano,0.0,inglés,6.0,catalán,15.0,alemán,18.0,4.0,2.0,yes,no,yes,flauta,8,guitarra,8,piano,8,ukelele,15.0,,,80.0,yes
93,2024-02-24_12h25.56.080,Unsyncopated_study3,s122,19.0,feminino,right,españa,castellano,Upper secondary,no,no,A,1,when,L1,unsyncopated,when,when,93,Online_whenL1//b.ta4.1776.wav,ni,pu,ze,sil,fo,ro,ne,sil1,ta,zu,sil2,['catch'],[2.2650999999940495],[2.2650999999940495],1.776,beat,0.4890999999940495,0.4890999999940495,"[""space""]",ta,1,testWhatL4Uns//cat_viol.r2.s1.0.wav,4.0,what,unsyncopated,b,s1,no_rule,cat,L4,m,0.0345,3.0,1.0,1.7119,4.0,2.0,castellano,0.0,inglés,6.0,catalán,15.0,alemán,18.0,4.0,2.0,yes,no,yes,flauta,8,guitarra,8,piano,8,ukelele,15.0,,,80.0,yes
94,2024-02-24_12h25.56.080,Unsyncopated_study3,s122,19.0,feminino,right,españa,castellano,Upper secondary,no,no,A,1,when,L1,unsyncopated,when,when,94,Online_whenL1//b.ta6.none.wav,ze,zu,la,sil,ni,ri,ki,sil1,ro,pu,sil2,['-'],,,none,none,,,,ta,1,testWhatL4Uns//r1.s1.1.wav,4.0,what,unsyncopated,a,s1,rule,rule,L4,m,0.3332,3.0,0.0,0.5129,4.0,2.0,castellano,0.0,inglés,6.0,catalán,15.0,alemán,18.0,4.0,2.0,yes,no,yes,flauta,8,guitarra,8,piano,8,ukelele,15.0,,,80.0,yes
95,2024-02-24_12h25.56.080,Unsyncopated_study3,s122,19.0,feminino,right,españa,castellano,Upper secondary,no,no,A,1,when,L1,unsyncopated,when,when,95,Online_whenL1//b.ta7.888.wav,lu,fa,fo,sil,ta,pu,ri,sil1,ni,ne,sil2,['false alarm'],[0.7525000000000546],[0.7525000000000546],0.888,beat,,,"[""space""]",ta,1,testWhatL4Uns//r1.s2.0.wav,4.0,what,unsyncopated,a,s2,rule,rule,L4,m,0.4998,3.0,0.0,0.5271,4.0,2.0,castellano,0.0,inglés,6.0,catalán,15.0,alemán,18.0,4.0,2.0,yes,no,yes,flauta,8,guitarra,8,piano,8,ukelele,15.0,,,80.0,yes
96,2024-02-24_12h25.56.080,Unsyncopated_study3,s122,19.0,feminino,right,españa,castellano,Upper secondary,no,no,A,1,when,L1,unsyncopated,when,when,96,Online_whenL1//c.ro2.1110.wav,fo,be,ri,sil,ni,ro,ta,sil1,la,zu,sil2,['catch'],[1.598400000005995],[1.598400000005995],1.11,no_beat,0.4884000000059949,0.4884000000059949,"[""space""]",ro,3,,,,,,,,,,,,,,,4.0,2.0,castellano,0.0,inglés,6.0,catalán,15.0,alemán,18.0,4.0,2.0,yes,no,yes,flauta,8,guitarra,8,piano,8,ukelele,15.0,,,80.0,yes
97,2024-02-24_12h25.56.080,Unsyncopated_study3,s122,19.0,feminino,right,españa,castellano,Upper secondary,no,no,A,1,when,L1,unsyncopated,when,when,97,Online_whenL1//c.ro3.444.wav,ze,be,ro,sil,ri,pu,cho,sil1,lu,fa,sil2,['catch'],[1.001399999976229],[1.001399999976229],0.444,no_beat,0.5573999999762291,0.5573999999762291,"[""space""]",ro,3,,,,,,,,,,,,,,,4.0,2.0,castellano,0.0,inglés,6.0,catalán,15.0,alemán,18.0,4.0,2.0,yes,no,yes,flauta,8,guitarra,8,piano,8,ukelele,15.0,,,80.0,yes
98,2024-02-24_12h25.56.080,Unsyncopated_study3,s122,19.0,feminino,right,españa,castellano,Upper secondary,no,no,A,1,when,L1,unsyncopated,when,when,98,Online_whenL1//c.ro0.222.wav,zu,ro,ze,sil,ri,fo,pu,sil1,ki,lu,sil2,['catch'],[0.7345000000000255],[0.7345000000000255],0.222,no_beat,0.5125000000000255,0.5125000000000255,"[""space""]",ro,3,,,,,,,,,,,,,,,4.0,2.0,castellano,0.0,inglés,6.0,catalán,15.0,alemán,18.0,4.0,2.0,yes,no,yes,flauta,8,guitarra,8,piano,8,ukelele,15.0,,,80.0,yes
99,2024-02-24_12h25.56.080,Unsyncopated_study3,s122,19.0,feminino,right,españa,castellano,Upper secondary,no,no,A,1,when,L1,unsyncopated,when,when,99,Online_whenL1//c.ro1.none.wav,fo,be,cho,sil,lu,ze,ni,sil1,pu,la,sil2,['-'],,,none,none,,,,ro,3,,,,,,,,,,,,,,,4.0,2.0,castellano,0.0,inglés,6.0,catalán,15.0,alemán,18.0,4.0,2.0,yes,no,yes,flauta,8,guitarra,8,piano,8,ukelele,15.0,,,80.0,yes
100,2024-02-24_12h25.56.080,Unsyncopated_study3,s122,19.0,feminino,right,españa,castellano,Upper secondary,no,no,A,1,when,L1,unsyncopated,when,when,100,Online_whenL1//a.ki32.1110.wav,cho,ro,ne,sil,ri,ki,zu,sil1,ze,be,sil2,['catch'],[1.6809000000059768],[1.6809000000059768],1.11,no_beat,0.5709000000059767,0.5709000000059767,"[""space""]",ki,2,,,,,,,,,,,,,,,4.0,2.0,castellano,0.0,inglés,6.0,catalán,15.0,alemán,18.0,4.0,2.0,yes,no,yes,flauta,8,guitarra,8,piano,8,ukelele,15.0,,,80.0,yes
101,2024-02-24_12h25.56.080,Unsyncopated_study3,s122,19.0,feminino,right,españa,castellano,Upper secondary,no,no,A,1,when,L1,unsyncopated,when,when,101,Online_whenL1//a.ki33.1332.wav,fa,be,ne,sil,la,ni,ki,sil1,ro,zu,sil2,['catch'],[2.0015999999941414],[2.0015999999941414],1.332,no_beat,0.6695999999941413,0.6695999999941413,"[""space""]",ki,2,,,,,,,,,,,,,,,4.0,2.0,castellano,0.0,inglés,6.0,catalán,15.0,alemán,18.0,4.0,2.0,yes,no,yes,flauta,8,guitarra,8,piano,8,ukelele,15.0,,,80.0,yes
102,2024-02-24_12h25.56.080,Unsyncopated_study3,s122,19.0,feminino,right,españa,castellano,Upper secondary,no,no,A,1,when,L1,unsyncopated,when,when,102,Online_whenL1//a.ki35.none.wav,ne,la,fo,sil,cho,ta,ni,sil1,ri,be,sil2,['-'],,,none,none,,,,ki,2,,,,,,,,,,,,,,,4.0,2.0,castellano,0.0,inglés,6.0,catalán,15.0,alemán,18.0,4.0,2.0,yes,no,yes,flauta,8,guitarra,8,piano,8,ukelele,15.0,,,80.0,yes
103,2024-02-24_12h25.56.080,Unsyncopated_study3,s122,19.0,feminino,right,españa,castellano,Upper secondary,no,no,A,1,when,L1,unsyncopated,when,when,103,Online_whenL1//a.ki34.none.wav,ni,be,ro,sil,fo,cho,pu,sil1,ri,ze,sil2,['-'],,,none,none,,,,ki,2,,,,,,,,,,,,,,,4.0,2.0,castellano,0.0,inglés,6.0,catalán,15.0,alemán,18.0,4.0,2.0,yes,no,yes,flauta,8,guitarra,8,piano,8,ukelele,15.0,,,80.0,yes
104,2024-02-24_12h25.56.080,Unsyncopated_study3,s122,19.0,feminino,right,españa,castellano,Upper secondary,no,no,A,1,when,L1,unsyncopated,when,when,104,Online_whenL1//b.ta32.none.wav,ki,ni,fo,sil,lu,zu,cho,sil1,be,ri,sil2,['false alarm'],[0.34559999999396496],[0.34559999999396496],none,none,,,"[""space""]",ta,1,,,,,,,,,,,,,,,4.0,2.0,castellano,0.0,inglés,6.0,catalán,15.0,alemán,18.0,4.0,2.0,yes,no,yes,flauta,8,guitarra,8,piano,8,ukelele,15.0,,,80.0,yes
105,2024-02-24_12h25.56.080,Unsyncopated_study3,s122,19.0,feminino,right,españa,castellano,Upper secondary,no,no,A,1,when,L1,unsyncopated,when,when,105,Online_whenL1//b.ta33.none.wav,ro,cho,be,sil,la,pu,ri,sil1,lu,zu,sil2,['-'],,,none,none,,,,ta,1,,,,,,,,,,,,,,,4.0,2.0,castellano,0.0,inglés,6.0,catalán,15.0,alemán,18.0,4.0,2.0,yes,no,yes,flauta,8,guitarra,8,piano,8,ukelele,15.0,,,80.0,yes
106,2024-02-24_12h25.56.080,Unsyncopated_study3,s122,19.0,feminino,right,españa,castellano,Upper secondary,no,no,A,1,when,L1,unsyncopated,when,when,106,Online_whenL1//b.ta35.222.wav,fa,ta,ze,sil,fo,lu,ro,sil1,ni,be,sil2,['catch'],[0.5862999999822023],[0.5862999999822023],0.222,no_beat,0.3642999999822023,0.3642999999822023,"[""space""]",ta,1,,,,,,,,,,,,,,,4.0,2.0,castellano,0.0,inglés,6.0,catalán,15.0,alemán,18.0,4.0,2.0,yes,no,yes,flauta,8,guitarra,8,piano,8,ukelele,15.0,,,80.0,yes
107,2024-02-24_12h25.56.080,Unsyncopated_study3,s122,19.0,feminino,right,españa,castellano,Upper secondary,no,no,A,1,when,L1,unsyncopated,when,when,107,Online_whenL1//b.ta34.1110.wav,be,cho,la,sil,ro,ta,fo,sil1,lu,ni,sil2,['catch'],[1.625],[1.625],1.11,no_beat,0.5149999999999999,0.5149999999999999,"[""space""]",ta,1,,,,,,,,,,,,,,,4.0,2.0,castellano,0.0,inglés,6.0,catalán,15.0,alemán,18.0,4.0,2.0,yes,no,yes,flauta,8,guitarra,8,piano,8,ukelele,15.0,,,80.0,yes
108,2024-02-24_12h25.56.080,Unsyncopated_study3,s122,19.0,feminino,right,españa,castellano,Upper secondary,no,no,A,1,when,L1,unsyncopated,when,when,108,Online_whenL1//c.ro7.0.wav,ro,ta,pu,sil,fa,lu,fo,sil1,cho,ri,sil2,['catch'],[0.5601000000237946],[0.5601000000237946],0.0,beat,0.5601000000237946,0.5601000000237946,"[""space""]",ro,3,,,,,,,,,,,,,,,4.0,2.0,castellano,0.0,inglés,6.0,catalán,15.0,alemán,18.0,4.0,2.0,yes,no,yes,flauta,8,guitarra,8,piano,8,ukelele,15.0,,,80.0,yes
109,2024-02-24_12h25.56.080,Unsyncopated_study3,s122,19.0,feminino,right,españa,castellano,Upper secondary,no,no,A,1,when,L1,unsyncopated,when,when,109,Online_whenL1//c.ro4.0.wav,ro,ri,ni,sil,pu,be,la,sil1,fa,ze,sil2,"['catch', 'false alarm']","[0.018000000000029104, 0.6840999999940323]",[0.018000000000029104],0.0,beat,0.0180000000000291,0.0180000000000291,"[""space"",""space""]",ro,3,,,,,,,,,,,,,,,4.0,2.0,castellano,0.0,inglés,6.0,catalán,15.0,alemán,18.0,4.0,2.0,yes,no,yes,flauta,8,guitarra,8,piano,8,ukelele,15.0,,,80.0,yes
110,2024-02-24_12h25.56.080,Unsyncopated_study3,s122,19.0,feminino,right,españa,castellano,Upper secondary,no,no,A,1,when,L1,unsyncopated,when,when,110,Online_whenL1//c.ro6.none.wav,ri,ze,ta,sil,ne,zu,lu,sil1,be,fo,sil2,['-'],,,none,none,,,,ro,3,,,,,,,,,,,,,,,4.0,2.0,castellano,0.0,inglés,6.0,catalán,15.0,alemán,18.0,4.0,2.0,yes,no,yes,flauta,8,guitarra,8,piano,8,ukelele,15.0,,,80.0,yes
111,2024-02-24_12h25.56.080,Unsyncopated_study3,s122,19.0,feminino,right,españa,castellano,Upper secondary,no,no,A,1,when,L1,unsyncopated,when,when,111,Online_whenL1//c.ro5.none.wav,ni,zu,ze,sil,pu,be,fa,sil1,cho,fo,sil2,['-'],,,none,none,,,,ro,3,,,,,,,,,,,,,,,4.0,2.0,castellano,0.0,inglés,6.0,catalán,15.0,alemán,18.0,4.0,2.0,yes,no,yes,flauta,8,guitarra,8,piano,8,ukelele,15.0,,,80.0,yes
112,2024-02-24_12h25.56.080,Unsyncopated_study3,s122,19.0,feminino,right,españa,castellano,Upper secondary,no,no,A,1,when,L1,unsyncopated,when,when,112,Online_whenL1//b.ta18.0.wav,ta,ze,zu,sil,ri,ro,lu,sil1,pu,la,sil2,['catch'],[0.5204999999998563],[0.5204999999998563],0.0,beat,0.5204999999998563,0.5204999999998563,"[""space""]",ta,1,,,,,,,,,,,,,,,4.0,2.0,castellano,0.0,inglés,6.0,catalán,15.0,alemán,18.0,4.0,2.0,yes,no,yes,flauta,8,guitarra,8,piano,8,ukelele,15.0,,,80.0,yes
113,2024-02-24_12h25.56.080,Unsyncopated_study3,s122,19.0,feminino,right,españa,castellano,Upper secondary,no,no,A,1,when,L1,unsyncopated,when,when,113,Online_whenL1//b.ta16.none.wav,ni,pu,fa,sil,ne,ki,cho,sil1,fo,ro,sil2,['false alarm'],[1.0480000000000018],[1.0480000000000018],none,none,,,"[""space""]",ta,1,,,,,,,,,,,,,,,4.0,2.0,castellano,0.0,inglés,6.0,catalán,15.0,alemán,18.0,4.0,2.0,yes,no,yes,flauta,8,guitarra,8,piano,8,ukelele,15.0,,,80.0,yes
114,2024-02-24_12h25.56.080,Unsyncopated_study3,s122,19.0,feminino,right,españa,castellano,Upper secondary,no,no,A,1,when,L1,unsyncopated,when,when,114,Online_whenL1//b.ta17.none.wav,ni,fo,zu,sil,be,ki,ze,sil1,ro,ri,sil2,['-'],,,none,none,,,,ta,1,,,,,,,,,,,,,,,4.0,2.0,castellano,0.0,inglés,6.0,catalán,15.0,alemán,18.0,4.0,2.0,yes,no,yes,flauta,8,guitarra,8,piano,8,ukelele,15.0,,,80.0,yes
115,2024-02-24_12h25.56.080,Unsyncopated_study3,s122,19.0,feminino,right,españa,castellano,Upper secondary,no,no,A,1,when,L1,unsyncopated,when,when,115,Online_whenL1//b.ta19.none.wav,pu,fa,lu,sil,fo,cho,la,sil1,be,ri,sil2,['false alarm'],[2.1089000000058604],[2.1089000000058604],none,none,,,"[""space""]",ta,1,,,,,,,,,,,,,,,4.0,2.0,castellano,0.0,inglés,6.0,catalán,15.0,alemán,18.0,4.0,2.0,yes,no,yes,flauta,8,guitarra,8,piano,8,ukelele,15.0,,,80.0,yes
116,2024-02-24_12h25.56.080,Unsyncopated_study3,s122,19.0,feminino,right,españa,castellano,Upper secondary,no,no,A,1,when,L1,unsyncopated,when,when,116,Online_whenL1//a.ki12.222.wav,pu,ki,zu,sil,cho,ne,fo,sil1,ni,ze,sil2,['catch'],[0.7131000000238146],[0.7131000000238146],0.222,no_beat,0.4911000000238146,0.4911000000238146,"[""space""]",ki,2,,,,,,,,,,,,,,,4.0,2.0,castellano,0.0,inglés,6.0,catalán,15.0,alemán,18.0,4.0,2.0,yes,no,yes,flauta,8,guitarra,8,piano,8,ukelele,15.0,,,80.0,yes
117,2024-02-24_12h25.56.080,Unsyncopated_study3,s122,19.0,feminino,right,españa,castellano,Upper secondary,no,no,A,1,when,L1,unsyncopated,when,when,117,Online_whenL1//a.ki14.444.wav,fo,ni,ki,sil,ri,zu,la,sil1,ro,pu,sil2,['catch'],[0.8474000000060187],[0.8474000000060187],0.444,no_beat,0.4034000000060186,0.4034000000060186,"[""space""]",ki,2,,,,,,,,,,,,,,,4.0,2.0,castellano,0.0,inglés,6.0,catalán,15.0,alemán,18.0,4.0,2.0,yes,no,yes,flauta,8,guitarra,8,piano,8,ukelele,15.0,,,80.0,yes
118,2024-02-24_12h25.56.080,Unsyncopated_study3,s122,19.0,feminino,right,españa,castellano,Upper secondary,no,no,A,1,when,L1,unsyncopated,when,when,118,Online_whenL1//a.ki15.none.wav,ri,ta,fa,sil,fo,ne,be,sil1,ro,ze,sil2,['-'],,,none,none,,,,ki,2,,,,,,,,,,,,,,,4.0,2.0,castellano,0.0,inglés,6.0,catalán,15.0,alemán,18.0,4.0,2.0,yes,no,yes,flauta,8,guitarra,8,piano,8,ukelele,15.0,,,80.0,yes
119,2024-02-24_12h25.56.080,Unsyncopated_study3,s122,19.0,feminino,right,españa,castellano,Upper secondary,no,no,A,1,when,L1,unsyncopated,when,when,119,Online_whenL1//a.ki13.1332.wav,lu,cho,ri,sil,ta,la,ki,sil1,ne,ro,sil2,['catch'],[1.976300000011861],[1.976300000011861],1.332,no_beat,0.6443000000118608,0.6443000000118608,"[""space""]",ki,2,,,,,,,,,,,,,,,4.0,2.0,castellano,0.0,inglés,6.0,catalán,15.0,alemán,18.0,4.0,2.0,yes,no,yes,flauta,8,guitarra,8,piano,8,ukelele,15.0,,,80.0,yes
120,2024-02-24_12h25.56.080,Unsyncopated_study3,s122,19.0,feminino,right,españa,castellano,Upper secondary,no,no,A,1,when,L1,unsyncopated,when,when,120,Online_whenL1//c.ro23.1998.wav,cho,la,pu,sil,ri,fo,ta,sil1,lu,ro,sil2,"['false alarm', 'catch']","[0.8981999999880372, 2.573099999994156]",[2.573099999994156],1.998,no_beat,0.575099999994156,0.575099999994156,"[""space"",""space""]",ro,3,,,,,,,,,,,,,,,4.0,2.0,castellano,0.0,inglés,6.0,catalán,15.0,alemán,18.0,4.0,2.0,yes,no,yes,flauta,8,guitarra,8,piano,8,ukelele,15.0,,,80.0,yes
121,2024-02-24_12h25.56.080,Unsyncopated_study3,s122,19.0,feminino,right,españa,castellano,Upper secondary,no,no,A,1,when,L1,unsyncopated,when,when,121,Online_whenL1//c.ro21.none.wav,ni,ta,ki,sil,fo,lu,cho,sil1,la,ne,sil2,['false alarm'],[2.1094000000059623],[2.1094000000059623],none,none,,,"[""space""]",ro,3,,,,,,,,,,,,,,,4.0,2.0,castellano,0.0,inglés,6.0,catalán,15.0,alemán,18.0,4.0,2.0,yes,no,yes,flauta,8,guitarra,8,piano,8,ukelele,15.0,,,80.0,yes
122,2024-02-24_12h25.56.080,Unsyncopated_study3,s122,19.0,feminino,right,españa,castellano,Upper secondary,no,no,A,1,when,L1,unsyncopated,when,when,122,Online_whenL1//c.ro20.none.wav,cho,zu,ri,sil,la,be,ne,sil1,fa,ta,sil2,['false alarm'],[2.3754000000058113],[2.3754000000058113],none,none,,,"[""space""]",ro,3,,,,,,,,,,,,,,,4.0,2.0,castellano,0.0,inglés,6.0,catalán,15.0,alemán,18.0,4.0,2.0,yes,no,yes,flauta,8,guitarra,8,piano,8,ukelele,15.0,,,80.0,yes
123,2024-02-24_12h25.56.080,Unsyncopated_study3,s122,19.0,feminino,right,españa,castellano,Upper secondary,no,no,A,1,when,L1,unsyncopated,when,when,123,Online_whenL1//c.ro22.none.wav,cho,la,zu,sil,fa,fo,ta,sil1,ni,be,sil2,['-'],,,none,none,,,,ro,3,,,,,,,,,,,,,,,4.0,2.0,castellano,0.0,inglés,6.0,catalán,15.0,alemán,18.0,4.0,2.0,yes,no,yes,flauta,8,guitarra,8,piano,8,ukelele,15.0,,,80.0,yes
124,2024-02-24_12h25.56.080,Unsyncopated_study3,s122,19.0,feminino,right,españa,castellano,Upper secondary,no,no,A,1,when,L1,unsyncopated,when,when,124,Online_whenL1//d.ne17.none.wav,fa,cho,ki,sil,la,ta,lu,sil1,fo,ni,sil2,['-'],,,none,none,,,,ne,4,,,,,,,,,,,,,,,4.0,2.0,castellano,0.0,inglés,6.0,catalán,15.0,alemán,18.0,4.0,2.0,yes,no,yes,flauta,8,guitarra,8,piano,8,ukelele,15.0,,,80.0,yes
125,2024-02-24_12h25.56.080,Unsyncopated_study3,s122,19.0,feminino,right,españa,castellano,Upper secondary,no,no,A,1,when,L1,unsyncopated,when,when,125,Online_whenL1//d.ne19.222.wav,ri,ne,ni,sil,cho,be,zu,sil1,pu,fa,sil2,['miss'],,,0.222,no_beat,,,,ne,4,,,,,,,,,,,,,,,4.0,2.0,castellano,0.0,inglés,6.0,catalán,15.0,alemán,18.0,4.0,2.0,yes,no,yes,flauta,8,guitarra,8,piano,8,ukelele,15.0,,,80.0,yes
126,2024-02-24_12h25.56.080,Unsyncopated_study3,s122,19.0,feminino,right,españa,castellano,Upper secondary,no,no,A,1,when,L1,unsyncopated,when,when,126,Online_whenL1//d.ne16.1776.wav,cho,fo,ri,sil,lu,pu,zu,sil1,ne,be,sil2,['catch'],[2.3410999999939577],[2.3410999999939577],1.776,beat,0.5650999999939577,0.5650999999939577,"[""space""]",ne,4,,,,,,,,,,,,,,,4.0,2.0,castellano,0.0,inglés,6.0,catalán,15.0,alemán,18.0,4.0,2.0,yes,no,yes,flauta,8,guitarra,8,piano,8,ukelele,15.0,,,80.0,yes
127,2024-02-24_12h25.56.080,Unsyncopated_study3,s122,19.0,feminino,right,españa,castellano,Upper secondary,no,no,A,1,when,L1,unsyncopated,when,when,127,Online_whenL1//d.ne18.1998.wav,fo,ri,be,sil,ki,ze,la,sil1,lu,ne,sil2,['miss'],,,1.998,no_beat,,,,ne,4,,,,,,,,,,,,,,,4.0,2.0,castellano,0.0,inglés,6.0,catalán,15.0,alemán,18.0,4.0,2.0,yes,no,yes,flauta,8,guitarra,8,piano,8,ukelele,15.0,,,80.0,yes
128,2024-02-24_12h25.56.080,Unsyncopated_study3,s122,19.0,feminino,right,españa,castellano,Upper secondary,no,no,A,1,when,L1,unsyncopated,when,when,128,Online_whenL1//b.ta15.none.wav,fa,ro,la,sil,ki,ze,pu,sil1,ne,ri,sil2,"['false alarm', 'false alarm']","[0.7120999999940523, 2.372500000000173]",2.372500000000173,none,none,,,"[""space"",""space""]",ta,1,,,,,,,,,,,,,,,4.0,2.0,castellano,0.0,inglés,6.0,catalán,15.0,alemán,18.0,4.0,2.0,yes,no,yes,flauta,8,guitarra,8,piano,8,ukelele,15.0,,,80.0,yes
129,2024-02-24_12h25.56.080,Unsyncopated_study3,s122,19.0,feminino,right,españa,castellano,Upper secondary,no,no,A,1,when,L1,unsyncopated,when,when,129,Online_whenL1//b.ta14.none.wav,lu,fo,zu,sil,ni,be,cho,sil1,pu,ri,sil2,['-'],,,none,none,,,,ta,1,,,,,,,,,,,,,,,4.0,2.0,castellano,0.0,inglés,6.0,catalán,15.0,alemán,18.0,4.0,2.0,yes,no,yes,flauta,8,guitarra,8,piano,8,ukelele,15.0,,,80.0,yes
130,2024-02-24_12h25.56.080,Unsyncopated_study3,s122,19.0,feminino,right,españa,castellano,Upper secondary,no,no,A,1,when,L1,unsyncopated,when,when,130,Online_whenL1//b.ta12.1998.wav,lu,la,ro,sil,ne,zu,fo,sil1,ki,ta,sil2,['catch'],[2.4688000000119246],[2.4688000000119246],1.998,no_beat,0.4708000000119245,0.4708000000119245,"[""space""]",ta,1,,,,,,,,,,,,,,,4.0,2.0,castellano,0.0,inglés,6.0,catalán,15.0,alemán,18.0,4.0,2.0,yes,no,yes,flauta,8,guitarra,8,piano,8,ukelele,15.0,,,80.0,yes
131,2024-02-24_12h25.56.080,Unsyncopated_study3,s122,19.0,feminino,right,españa,castellano,Upper secondary,no,no,A,1,when,L1,unsyncopated,when,when,131,Online_whenL1//b.ta13.none.wav,pu,la,be,sil,zu,ze,ri,sil1,ne,ni,sil2,['-'],,,none,none,,,,ta,1,,,,,,,,,,,,,,,4.0,2.0,castellano,0.0,inglés,6.0,catalán,15.0,alemán,18.0,4.0,2.0,yes,no,yes,flauta,8,guitarra,8,piano,8,ukelele,15.0,,,80.0,yes
132,2024-02-24_12h25.56.080,Unsyncopated_study3,s122,19.0,feminino,right,españa,castellano,Upper secondary,no,no,A,1,when,L1,unsyncopated,when,when,132,Online_whenL1//c.ro16.1776.wav,fa,ne,zu,sil,ki,ta,ze,sil1,ro,cho,sil2,['catch'],[2.266399999976329],[2.266399999976329],1.776,beat,0.4903999999763291,0.4903999999763291,"[""space""]",ro,3,,,,,,,,,,,,,,,4.0,2.0,castellano,0.0,inglés,6.0,catalán,15.0,alemán,18.0,4.0,2.0,yes,no,yes,flauta,8,guitarra,8,piano,8,ukelele,15.0,,,80.0,yes
133,2024-02-24_12h25.56.080,Unsyncopated_study3,s122,19.0,feminino,right,españa,castellano,Upper secondary,no,no,A,1,when,L1,unsyncopated,when,when,133,Online_whenL1//c.ro17.none.wav,la,ze,pu,sil,ki,cho,zu,sil1,fa,ne,sil2,['-'],,,none,none,,,,ro,3,,,,,,,,,,,,,,,4.0,2.0,castellano,0.0,inglés,6.0,catalán,15.0,alemán,18.0,4.0,2.0,yes,no,yes,flauta,8,guitarra,8,piano,8,ukelele,15.0,,,80.0,yes
134,2024-02-24_12h25.56.080,Unsyncopated_study3,s122,19.0,feminino,right,españa,castellano,Upper secondary,no,no,A,1,when,L1,unsyncopated,when,when,134,Online_whenL1//c.ro19.1332.wav,ze,be,pu,sil,ne,fo,ro,sil1,lu,cho,sil2,['catch'],[1.8234999999999673],[1.8234999999999673],1.332,no_beat,0.4914999999999672,0.4914999999999672,"[""space""]",ro,3,,,,,,,,,,,,,,,4.0,2.0,castellano,0.0,inglés,6.0,catalán,15.0,alemán,18.0,4.0,2.0,yes,no,yes,flauta,8,guitarra,8,piano,8,ukelele,15.0,,,80.0,yes
135,2024-02-24_12h25.56.080,Unsyncopated_study3,s122,19.0,feminino,right,españa,castellano,Upper secondary,no,no,A,1,when,L1,unsyncopated,when,when,135,Online_whenL1//c.ro18.none.wav,ki,ri,ni,sil,ne,ta,cho,sil1,fo,ze,sil2,['-'],,,none,none,,,,ro,3,,,,,,,,,,,,,,,4.0,2.0,castellano,0.0,inglés,6.0,catalán,15.0,alemán,18.0,4.0,2.0,yes,no,yes,flauta,8,guitarra,8,piano,8,ukelele,15.0,,,80.0,yes
136,2024-02-24_12h25.56.080,Unsyncopated_study3,s122,19.0,feminino,right,españa,castellano,Upper secondary,no,no,A,2,conjunction_un,L3,unsyncopated,s1,r2,0,Online_conjL3_un//d.ji.li23.1332.222.wav,ñe,li,fu,sil,sa,le,ji,sil1,di,ka,sil2,['catch'],[1.8072000000179287],[1.8072000000179287],1.332,no_beat,0.4752000000179286,0.4752000000179286,"[""space""]",ji,4,,,,,,,,,,,,,,,4.0,2.0,castellano,0.0,inglés,6.0,catalán,15.0,alemán,18.0,4.0,2.0,yes,no,yes,flauta,8,guitarra,8,piano,8,ukelele,15.0,,,80.0,yes
137,2024-02-24_12h25.56.080,Unsyncopated_study3,s122,19.0,feminino,right,españa,castellano,Upper secondary,no,no,A,2,conjunction_un,L3,unsyncopated,s1,r2,1,Online_conjL3_un//d.ji.li21.none.none.wav,ñe,le,ko,sil,sa,do,ka,sil1,di,ga,sil2,['-'],,,none,none,,,,ji,4,,,,,,,,,,,,,,,4.0,2.0,castellano,0.0,inglés,6.0,catalán,15.0,alemán,18.0,4.0,2.0,yes,no,yes,flauta,8,guitarra,8,piano,8,ukelele,15.0,,,80.0,yes
138,2024-02-24_12h25.56.080,Unsyncopated_study3,s122,19.0,feminino,right,españa,castellano,Upper secondary,no,no,A,2,conjunction_un,L3,unsyncopated,s1,r2,2,Online_conjL3_un//d.ji.li20.1776.444.wav,ñe,ka,li,sil,sa,di,ko,sil1,ji,le,sil2,['miss'],,,1.776,beat,,,,ji,4,,,,,,,,,,,,,,,4.0,2.0,castellano,0.0,inglés,6.0,catalán,15.0,alemán,18.0,4.0,2.0,yes,no,yes,flauta,8,guitarra,8,piano,8,ukelele,15.0,,,80.0,yes
139,2024-02-24_12h25.56.080,Unsyncopated_study3,s122,19.0,feminino,right,españa,castellano,Upper secondary,no,no,A,2,conjunction_un,L3,unsyncopated,s1,r2,3,Online_conjL3_un//d.ji.li22.none.none.wav,ñe,ga,le,sil,sa,do,ka,sil1,gu,di,sil2,['-'],,,none,none,,,,ji,4,,,,,,,,,,,,,,,4.0,2.0,castellano,0.0,inglés,6.0,catalán,15.0,alemán,18.0,4.0,2.0,yes,no,yes,flauta,8,guitarra,8,piano,8,ukelele,15.0,,,80.0,yes
140,2024-02-24_12h25.56.080,Unsyncopated_study3,s122,19.0,feminino,right,españa,castellano,Upper secondary,no,no,A,2,conjunction_un,L3,unsyncopated,s1,r1,4,Online_conjL3_un//d.ji.li26.1776.1110.wav,chu,do,ga,sil,mo,li,je,sil1,ji,fu,sil2,['catch'],[2.556199999987939],[2.556199999987939],1.776,beat,0.780199999987939,0.780199999987939,"[""space""]",ji,4,,,,,,,,,,,,,,,4.0,2.0,castellano,0.0,inglés,6.0,catalán,15.0,alemán,18.0,4.0,2.0,yes,no,yes,flauta,8,guitarra,8,piano,8,ukelele,15.0,,,80.0,yes
141,2024-02-24_12h25.56.080,Unsyncopated_study3,s122,19.0,feminino,right,españa,castellano,Upper secondary,no,no,A,2,conjunction_un,L3,unsyncopated,s2,r1,5,Online_conjL3_un//d.ji.li27.none.none.wav,ga,le,ko,sil,chu,gu,ka,sil1,mo,fu,sil2,['-'],,,none,none,,,,ji,4,,,,,,,,,,,,,,,4.0,2.0,castellano,0.0,inglés,6.0,catalán,15.0,alemán,18.0,4.0,2.0,yes,no,yes,flauta,8,guitarra,8,piano,8,ukelele,15.0,,,80.0,yes
142,2024-02-24_12h25.56.080,Unsyncopated_study3,s122,19.0,feminino,right,españa,castellano,Upper secondary,no,no,A,2,conjunction_un,L3,unsyncopated,s1,r1,6,Online_conjL3_un//d.ji.li24.none.none.wav,chu,le,do,sil,mo,fu,ko,sil1,di,ga,sil2,['-'],,,none,none,,,,ji,4,,,,,,,,,,,,,,,4.0,2.0,castellano,0.0,inglés,6.0,catalán,15.0,alemán,18.0,4.0,2.0,yes,no,yes,flauta,8,guitarra,8,piano,8,ukelele,15.0,,,80.0,yes
143,2024-02-24_12h25.56.080,Unsyncopated_study3,s122,19.0,feminino,right,españa,castellano,Upper secondary,no,no,A,2,conjunction_un,L3,unsyncopated,s2,r1,7,Online_conjL3_un//d.ji.li25.1332.444.wav,di,je,li,sil,chu,le,ji,sil1,mo,ko,sil2,['catch'],[2.0034000000059677],[2.0034000000059677],1.332,no_beat,0.6714000000059677,0.6714000000059677,"[""space""]",ji,4,,,,,,,,,,,,,,,4.0,2.0,castellano,0.0,inglés,6.0,catalán,15.0,alemán,18.0,4.0,2.0,yes,no,yes,flauta,8,guitarra,8,piano,8,ukelele,15.0,,,80.0,yes
144,2024-02-24_12h25.56.080,Unsyncopated_study3,s122,19.0,feminino,right,españa,castellano,Upper secondary,no,no,A,2,conjunction_un,L3,unsyncopated,s1,r1,8,Online_conjL3_un//d.ji.li2.222.444.wav,chu,ji,li,sil,mo,je,ko,sil1,fu,ga,sil2,['catch'],[1.0474999999999],[1.0474999999999],0.222,no_beat,0.8254999999999,0.8254999999999,"[""space""]",ji,4,,,,,,,,,,,,,,,4.0,2.0,castellano,0.0,inglés,6.0,catalán,15.0,alemán,18.0,4.0,2.0,yes,no,yes,flauta,8,guitarra,8,piano,8,ukelele,15.0,,,80.0,yes
145,2024-02-24_12h25.56.080,Unsyncopated_study3,s122,19.0,feminino,right,españa,castellano,Upper secondary,no,no,A,2,conjunction_un,L3,unsyncopated,s2,r2,9,Online_conjL3_un//d.ji.li3.444.1110.wav,gu,je,ji,sil,ñe,li,fu,sil1,sa,do,sil2,"['catch', 'false alarm']","[1.0450999999939086, 2.1714000000058604]",[1.0450999999939086],0.444,no_beat,0.6010999999939086,0.6010999999939086,"[""space"",""space""]",ji,4,,,,,,,,,,,,,,,4.0,2.0,castellano,0.0,inglés,6.0,catalán,15.0,alemán,18.0,4.0,2.0,yes,no,yes,flauta,8,guitarra,8,piano,8,ukelele,15.0,,,80.0,yes
146,2024-02-24_12h25.56.080,Unsyncopated_study3,s122,19.0,feminino,right,españa,castellano,Upper secondary,no,no,A,2,conjunction_un,L3,unsyncopated,s2,r2,10,Online_conjL3_un//d.ji.li1.0.1110.wav,ji,ko,gu,sil,ñe,li,fu,sil1,sa,di,sil2,['catch'],[1.7301999999881446],[1.7301999999881446],0.0,beat,,1.7301999999881446,"[""space""]",ji,4,,,,,,,,,,,,,,,4.0,2.0,castellano,0.0,inglés,6.0,catalán,15.0,alemán,18.0,4.0,2.0,yes,no,yes,flauta,8,guitarra,8,piano,8,ukelele,15.0,,,80.0,yes
147,2024-02-24_12h25.56.080,Unsyncopated_study3,s122,19.0,feminino,right,españa,castellano,Upper secondary,no,no,A,2,conjunction_un,L3,unsyncopated,s2,r1,11,Online_conjL3_un//d.ji.li0.none.none.wav,je,fu,do,sil,chu,ga,ka,sil1,mo,gu,sil2,['false alarm'],[0.5185999999939668],[0.5185999999939668],none,none,,,"[""space""]",ji,4,,,,,,,,,,,,,,,4.0,2.0,castellano,0.0,inglés,6.0,catalán,15.0,alemán,18.0,4.0,2.0,yes,no,yes,flauta,8,guitarra,8,piano,8,ukelele,15.0,,,80.0,yes
148,2024-02-24_12h25.56.080,Unsyncopated_study3,s122,19.0,feminino,right,españa,castellano,Upper secondary,no,no,A,2,conjunction_un,L3,unsyncopated,s1,r2,12,Online_conjL3_un//c.gu.je14.444.1332.wav,ñe,ka,gu,sil,sa,li,je,sil1,le,di,sil2,['catch'],[0.8906999999878735],[0.8906999999878735],0.444,no_beat,0.4466999999878735,0.4466999999878735,"[""space""]",gu,3,,,,,,,,,,,,,,,4.0,2.0,castellano,0.0,inglés,6.0,catalán,15.0,alemán,18.0,4.0,2.0,yes,no,yes,flauta,8,guitarra,8,piano,8,ukelele,15.0,,,80.0,yes
149,2024-02-24_12h25.56.080,Unsyncopated_study3,s122,19.0,feminino,right,españa,castellano,Upper secondary,no,no,A,2,conjunction_un,L3,unsyncopated,s1,r1,13,Online_conjL3_un//c.gu.je12.none.none.wav,chu,ga,le,sil,mo,do,li,sil1,ji,fu,sil2,['false alarm'],[1.475400000006175],[1.475400000006175],none,none,,,"[""space""]",gu,3,,,,,,,,,,,,,,,4.0,2.0,castellano,0.0,inglés,6.0,catalán,15.0,alemán,18.0,4.0,2.0,yes,no,yes,flauta,8,guitarra,8,piano,8,ukelele,15.0,,,80.0,yes
150,2024-02-24_12h25.56.080,Unsyncopated_study3,s122,19.0,feminino,right,españa,castellano,Upper secondary,no,no,A,2,conjunction_un,L3,unsyncopated,s2,r2,14,Online_conjL3_un//c.gu.je15.none.none.wav,fu,ko,li,sil,ñe,ka,le,sil1,sa,di,sil2,['false alarm'],[0.671500000000151],[0.671500000000151],none,none,,,"[""space""]",gu,3,,,,,,,,,,,,,,,4.0,2.0,castellano,0.0,inglés,6.0,catalán,15.0,alemán,18.0,4.0,2.0,yes,no,yes,flauta,8,guitarra,8,piano,8,ukelele,15.0,,,80.0,yes
151,2024-02-24_12h25.56.080,Unsyncopated_study3,s122,19.0,feminino,right,españa,castellano,Upper secondary,no,no,A,2,conjunction_un,L3,unsyncopated,s1,r1,15,Online_conjL3_un//c.gu.je13.none.none.wav,chu,di,ko,sil,mo,ji,le,sil1,fu,li,sil2,['-'],,,none,none,,,,gu,3,,,,,,,,,,,,,,,4.0,2.0,castellano,0.0,inglés,6.0,catalán,15.0,alemán,18.0,4.0,2.0,yes,no,yes,flauta,8,guitarra,8,piano,8,ukelele,15.0,,,80.0,yes
152,2024-02-24_12h25.56.080,Unsyncopated_study3,s122,19.0,feminino,right,españa,castellano,Upper secondary,no,no,A,2,conjunction_un,L3,unsyncopated,s2,r2,16,Online_conjL3_un//a.chu.mo12.none.none.wav,di,fu,gu,sil,ñe,ji,ko,sil1,sa,li,sil2,['-'],,,none,none,,,,mo,2,,,,,,,,,,,,,,,4.0,2.0,castellano,0.0,inglés,6.0,catalán,15.0,alemán,18.0,4.0,2.0,yes,no,yes,flauta,8,guitarra,8,piano,8,ukelele,15.0,,,80.0,yes
153,2024-02-24_12h25.56.080,Unsyncopated_study3,s122,19.0,feminino,right,españa,castellano,Upper secondary,no,no,A,2,conjunction_un,L3,unsyncopated,s2,r2,17,Online_conjL3_un//a.chu.mo15.none.none.wav,fu,ko,di,sil,ñe,gu,je,sil1,sa,le,sil2,['-'],,,none,none,,,,mo,2,,,,,,,,,,,,,,,4.0,2.0,castellano,0.0,inglés,6.0,catalán,15.0,alemán,18.0,4.0,2.0,yes,no,yes,flauta,8,guitarra,8,piano,8,ukelele,15.0,,,80.0,yes
154,2024-02-24_12h25.56.080,Unsyncopated_study3,s122,19.0,feminino,right,españa,castellano,Upper secondary,no,no,A,2,conjunction_un,L3,unsyncopated,s2,r1,18,Online_conjL3_un//a.chu.mo14.888.1776.wav,je,ka,li,sil,chu,di,fu,sil1,mo,le,sil2,['catch'],[2.2745999999940523],[2.2745999999940523],1.776,beat,0.4985999999940522,0.4985999999940522,"[""space""]",mo,2,,,,,,,,,,,,,,,4.0,2.0,castellano,0.0,inglés,6.0,catalán,15.0,alemán,18.0,4.0,2.0,yes,no,yes,flauta,8,guitarra,8,piano,8,ukelele,15.0,,,80.0,yes
155,2024-02-24_12h25.56.080,Unsyncopated_study3,s122,19.0,feminino,right,españa,castellano,Upper secondary,no,no,A,2,conjunction_un,L3,unsyncopated,s1,r1,19,Online_conjL3_un//a.chu.mo13.0.888.wav,chu,gu,ji,sil,mo,li,ko,sil1,ga,le,sil2,['catch'],[1.3590999999939868],[1.3590999999939868],0.888,beat,0.4710999999939868,0.4710999999939868,"[""space""]",mo,2,,,,,,,,,,,,,,,4.0,2.0,castellano,0.0,inglés,6.0,catalán,15.0,alemán,18.0,4.0,2.0,yes,no,yes,flauta,8,guitarra,8,piano,8,ukelele,15.0,,,80.0,yes
156,2024-02-24_12h25.56.080,Unsyncopated_study3,s122,19.0,feminino,right,españa,castellano,Upper secondary,no,no,A,2,conjunction_un,L3,unsyncopated,s1,r1,20,Online_conjL3_un//c.gu.je31.none.none.wav,chu,ga,di,sil,mo,ji,li,sil1,ka,le,sil2,['-'],,,none,none,,,,gu,3,,,,,,,,,,,,,,,4.0,2.0,castellano,0.0,inglés,6.0,catalán,15.0,alemán,18.0,4.0,2.0,yes,no,yes,flauta,8,guitarra,8,piano,8,ukelele,15.0,,,80.0,yes
157,2024-02-24_12h25.56.080,Unsyncopated_study3,s122,19.0,feminino,right,españa,castellano,Upper secondary,no,no,A,2,conjunction_un,L3,unsyncopated,s2,r2,21,Online_conjL3_un//c.gu.je28.none.none.wav,ga,do,le,sil,ñe,ji,ka,sil1,sa,ko,sil2,['-'],,,none,none,,,,gu,3,,,,,,,,,,,,,,,4.0,2.0,castellano,0.0,inglés,6.0,catalán,15.0,alemán,18.0,4.0,2.0,yes,no,yes,flauta,8,guitarra,8,piano,8,ukelele,15.0,,,80.0,yes
158,2024-02-24_12h25.56.080,Unsyncopated_study3,s122,19.0,feminino,right,españa,castellano,Upper secondary,no,no,A,2,conjunction_un,L3,unsyncopated,s1,r2,22,Online_conjL3_un//c.gu.je30.none.none.wav,ñe,ka,ko,sil,sa,ga,do,sil1,di,ji,sil2,['-'],,,none,none,,,,gu,3,,,,,,,,,,,,,,,4.0,2.0,castellano,0.0,inglés,6.0,catalán,15.0,alemán,18.0,4.0,2.0,yes,no,yes,flauta,8,guitarra,8,piano,8,ukelele,15.0,,,80.0,yes
159,2024-02-24_12h25.56.080,Unsyncopated_study3,s122,19.0,feminino,right,españa,castellano,Upper secondary,no,no,A,2,conjunction_un,L3,unsyncopated,s1,r1,23,Online_conjL3_un//c.gu.je29.none.none.wav,chu,di,fu,sil,mo,li,ji,sil1,do,ga,sil2,['false alarm'],[1.241299999982175],[1.241299999982175],none,none,,,"[""space""]",gu,3,,,,,,,,,,,,,,,4.0,2.0,castellano,0.0,inglés,6.0,catalán,15.0,alemán,18.0,4.0,2.0,yes,no,yes,flauta,8,guitarra,8,piano,8,ukelele,15.0,,,80.0,yes
160,2024-02-24_12h25.56.080,Unsyncopated_study3,s122,19.0,feminino,right,españa,castellano,Upper secondary,no,no,A,2,conjunction_un,L3,unsyncopated,s1,r2,24,Online_conjL3_un//b.ñe.sa19.0.888.wav,ñe,je,ji,sil,sa,le,li,sil1,ko,ga,sil2,['catch'],[0.6073000000119464],[0.6073000000119464],0.0,beat,0.6073000000119464,0.6073000000119464,"[""space""]",ñe,1,,,,,,,,,,,,,,,4.0,2.0,castellano,0.0,inglés,6.0,catalán,15.0,alemán,18.0,4.0,2.0,yes,no,yes,flauta,8,guitarra,8,piano,8,ukelele,15.0,,,80.0,yes
161,2024-02-24_12h25.56.080,Unsyncopated_study3,s122,19.0,feminino,right,españa,castellano,Upper secondary,no,no,A,2,conjunction_un,L3,unsyncopated,s1,r2,25,Online_conjL3_un//b.ñe.sa17.0.888.wav,ñe,li,je,sil,sa,di,fu,sil1,le,ga,sil2,['catch'],[0.4275000000000091],[0.4275000000000091],0.0,beat,0.4275000000000091,0.4275000000000091,"[""space""]",ñe,1,,,,,,,,,,,,,,,4.0,2.0,castellano,0.0,inglés,6.0,catalán,15.0,alemán,18.0,4.0,2.0,yes,no,yes,flauta,8,guitarra,8,piano,8,ukelele,15.0,,,80.0,yes
162,2024-02-24_12h25.56.080,Unsyncopated_study3,s122,19.0,feminino,right,españa,castellano,Upper secondary,no,no,A,2,conjunction_un,L3,unsyncopated,s2,r1,26,Online_conjL3_un//b.ñe.sa16.none.none.wav,li,ga,ko,sil,chu,le,ji,sil1,mo,ka,sil2,['-'],,,none,none,,,,ñe,1,,,,,,,,,,,,,,,4.0,2.0,castellano,0.0,inglés,6.0,catalán,15.0,alemán,18.0,4.0,2.0,yes,no,yes,flauta,8,guitarra,8,piano,8,ukelele,15.0,,,80.0,yes
163,2024-02-24_12h25.56.080,Unsyncopated_study3,s122,19.0,feminino,right,españa,castellano,Upper secondary,no,no,A,2,conjunction_un,L3,unsyncopated,s1,r1,27,Online_conjL3_un//b.ñe.sa18.none.none.wav,chu,do,ga,sil,mo,ka,di,sil1,le,je,sil2,['-'],,,none,none,,,,ñe,1,,,,,,,,,,,,,,,4.0,2.0,castellano,0.0,inglés,6.0,catalán,15.0,alemán,18.0,4.0,2.0,yes,no,yes,flauta,8,guitarra,8,piano,8,ukelele,15.0,,,80.0,yes
164,2024-02-24_12h25.56.080,Unsyncopated_study3,s122,19.0,feminino,right,españa,castellano,Upper secondary,no,no,A,2,conjunction_un,L3,unsyncopated,s2,r2,28,Online_conjL3_un//d.ji.li18.1332.444.wav,ka,le,li,sil,ñe,gu,ji,sil1,sa,ko,sil2,['miss'],,,1.332,no_beat,,,,ji,4,,,,,,,,,,,,,,,4.0,2.0,castellano,0.0,inglés,6.0,catalán,15.0,alemán,18.0,4.0,2.0,yes,no,yes,flauta,8,guitarra,8,piano,8,ukelele,15.0,,,80.0,yes
165,2024-02-24_12h25.56.080,Unsyncopated_study3,s122,19.0,feminino,right,españa,castellano,Upper secondary,no,no,A,2,conjunction_un,L3,unsyncopated,s2,r2,29,Online_conjL3_un//d.ji.li19.none.none.wav,gu,ga,di,sil,ñe,do,ka,sil1,sa,ko,sil2,['-'],,,none,none,,,,ji,4,,,,,,,,,,,,,,,4.0,2.0,castellano,0.0,inglés,6.0,catalán,15.0,alemán,18.0,4.0,2.0,yes,no,yes,flauta,8,guitarra,8,piano,8,ukelele,15.0,,,80.0,yes
166,2024-02-24_12h25.56.080,Unsyncopated_study3,s122,19.0,feminino,right,españa,castellano,Upper secondary,no,no,A,2,conjunction_un,L3,unsyncopated,s1,r1,30,Online_conjL3_un//d.ji.li17.none.none.wav,chu,je,gu,sil,mo,do,ko,sil1,ga,le,sil2,['-'],,,none,none,,,,ji,4,,,,,,,,,,,,,,,4.0,2.0,castellano,0.0,inglés,6.0,catalán,15.0,alemán,18.0,4.0,2.0,yes,no,yes,flauta,8,guitarra,8,piano,8,ukelele,15.0,,,80.0,yes
167,2024-02-24_12h25.56.080,Unsyncopated_study3,s122,19.0,feminino,right,españa,castellano,Upper secondary,no,no,A,2,conjunction_un,L3,unsyncopated,s2,r2,31,Online_conjL3_un//d.ji.li16.none.none.wav,di,gu,je,sil,ñe,ga,ko,sil1,sa,ka,sil2,['-'],,,none,none,,,,ji,4,,,,,,,,,,,,,,,4.0,2.0,castellano,0.0,inglés,6.0,catalán,15.0,alemán,18.0,4.0,2.0,yes,no,yes,flauta,8,guitarra,8,piano,8,ukelele,15.0,,,80.0,yes
168,2024-02-24_12h25.56.080,Unsyncopated_study3,s122,19.0,feminino,right,españa,castellano,Upper secondary,no,no,A,2,conjunction_un,L3,unsyncopated,s1,r2,32,Online_conjL3_un//a.chu.mo2.none.none.wav,ñe,do,ji,sil,sa,li,fu,sil1,je,ko,sil2,['-'],,,none,none,,,,mo,2,,,,,,,,,,,,,,,4.0,2.0,castellano,0.0,inglés,6.0,catalán,15.0,alemán,18.0,4.0,2.0,yes,no,yes,flauta,8,guitarra,8,piano,8,ukelele,15.0,,,80.0,yes
169,2024-02-24_12h25.56.080,Unsyncopated_study3,s122,19.0,feminino,right,españa,castellano,Upper secondary,no,no,A,2,conjunction_un,L3,unsyncopated,s1,r1,33,Online_conjL3_un//a.chu.mo3.0.888.wav,chu,fu,ko,sil,mo,je,gu,sil1,do,li,sil2,['catch'],[1.4207999999819094],[1.4207999999819094],0.888,beat,0.5327999999819094,0.5327999999819094,"[""space""]",mo,2,,,,,,,,,,,,,,,4.0,2.0,castellano,0.0,inglés,6.0,catalán,15.0,alemán,18.0,4.0,2.0,yes,no,yes,flauta,8,guitarra,8,piano,8,ukelele,15.0,,,80.0,yes
170,2024-02-24_12h25.56.080,Unsyncopated_study3,s122,19.0,feminino,right,españa,castellano,Upper secondary,no,no,A,2,conjunction_un,L3,unsyncopated,s2,r2,34,Online_conjL3_un//a.chu.mo1.none.none.wav,di,je,gu,sil,ñe,ko,ji,sil1,sa,ka,sil2,['-'],,,none,none,,,,mo,2,,,,,,,,,,,,,,,4.0,2.0,castellano,0.0,inglés,6.0,catalán,15.0,alemán,18.0,4.0,2.0,yes,no,yes,flauta,8,guitarra,8,piano,8,ukelele,15.0,,,80.0,yes
171,2024-02-24_12h25.56.080,Unsyncopated_study3,s122,19.0,feminino,right,españa,castellano,Upper secondary,no,no,A,2,conjunction_un,L3,unsyncopated,s2,r1,35,Online_conjL3_un//a.chu.mo0.888.1776.wav,li,gu,fu,sil,chu,ga,ji,sil1,mo,do,sil2,['catch_delay'],[1.0130000000000001],[1.0130000000000001],1.776,beat,1.013,1.013,"[""space""]",mo,2,,,,,,,,,,,,,,,4.0,2.0,castellano,0.0,inglés,6.0,catalán,15.0,alemán,18.0,4.0,2.0,yes,no,yes,flauta,8,guitarra,8,piano,8,ukelele,15.0,,,80.0,yes
172,2024-02-24_12h25.56.080,Unsyncopated_study3,s122,19.0,feminino,right,españa,castellano,Upper secondary,no,no,A,2,conjunction_un,L3,unsyncopated,s2,r2,36,Online_conjL3_un//d.ji.li8.none.none.wav,fu,ko,le,sil,ñe,do,gu,sil1,sa,di,sil2,['-'],[0.125],[0.125],none,none,,,"[""space""]",ji,4,,,,,,,,,,,,,,,4.0,2.0,castellano,0.0,inglés,6.0,catalán,15.0,alemán,18.0,4.0,2.0,yes,no,yes,flauta,8,guitarra,8,piano,8,ukelele,15.0,,,80.0,yes
173,2024-02-24_12h25.56.080,Unsyncopated_study3,s122,19.0,feminino,right,españa,castellano,Upper secondary,no,no,A,2,conjunction_un,L3,unsyncopated,s1,r2,37,Online_conjL3_un//d.ji.li11.1776.222.wav,ñe,li,ga,sil,sa,je,le,sil1,ji,ko,sil2,['catch'],[2.374099999994087],[2.374099999994087],1.776,beat,0.5980999999940868,0.5980999999940868,"[""space""]",ji,4,,,,,,,,,,,,,,,4.0,2.0,castellano,0.0,inglés,6.0,catalán,15.0,alemán,18.0,4.0,2.0,yes,no,yes,flauta,8,guitarra,8,piano,8,ukelele,15.0,,,80.0,yes
174,2024-02-24_12h25.56.080,Unsyncopated_study3,s122,19.0,feminino,right,españa,castellano,Upper secondary,no,no,A,2,conjunction_un,L3,unsyncopated,s2,r1,38,Online_conjL3_un//d.ji.li10.222.444.wav,le,ji,li,sil,chu,fu,do,sil1,mo,gu,sil2,['catch'],[0.7940000000000964],[0.7940000000000964],0.222,no_beat,0.5720000000000964,0.5720000000000964,"[""space""]",ji,4,,,,,,,,,,,,,,,4.0,2.0,castellano,0.0,inglés,6.0,catalán,15.0,alemán,18.0,4.0,2.0,yes,no,yes,flauta,8,guitarra,8,piano,8,ukelele,15.0,,,80.0,yes
175,2024-02-24_12h25.56.080,Unsyncopated_study3,s122,19.0,feminino,right,españa,castellano,Upper secondary,no,no,A,2,conjunction_un,L3,unsyncopated,s2,r2,39,Online_conjL3_un//d.ji.li9.1332.222.wav,fu,li,je,sil,ñe,ko,ji,sil1,sa,do,sil2,['catch'],[1.9933999999761909],[1.9933999999761909],1.332,no_beat,0.6613999999761908,0.6613999999761908,"[""space""]",ji,4,,,,,,,,,,,,,,,4.0,2.0,castellano,0.0,inglés,6.0,catalán,15.0,alemán,18.0,4.0,2.0,yes,no,yes,flauta,8,guitarra,8,piano,8,ukelele,15.0,,,80.0,yes
176,2024-02-24_12h25.56.080,Unsyncopated_study3,s122,19.0,feminino,right,españa,castellano,Upper secondary,no,no,A,2,conjunction_un,L3,unsyncopated,s2,r2,40,Online_conjL3_un//b.ñe.sa4.888.1776.wav,fu,ji,ga,sil,ñe,gu,ko,sil1,sa,ka,sil2,['catch'],[1.4259999999999309],[1.4259999999999309],0.888,beat,0.5379999999999309,0.5379999999999309,"[""space""]",ñe,1,,,,,,,,,,,,,,,4.0,2.0,castellano,0.0,inglés,6.0,catalán,15.0,alemán,18.0,4.0,2.0,yes,no,yes,flauta,8,guitarra,8,piano,8,ukelele,15.0,,,80.0,yes
177,2024-02-24_12h25.56.080,Unsyncopated_study3,s122,19.0,feminino,right,españa,castellano,Upper secondary,no,no,A,2,conjunction_un,L3,unsyncopated,s1,r1,41,Online_conjL3_un//b.ñe.sa6.none.none.wav,chu,fu,di,sil,mo,li,do,sil1,ji,le,sil2,['-'],,,none,none,,,,ñe,1,,,,,,,,,,,,,,,4.0,2.0,castellano,0.0,inglés,6.0,catalán,15.0,alemán,18.0,4.0,2.0,yes,no,yes,flauta,8,guitarra,8,piano,8,ukelele,15.0,,,80.0,yes
178,2024-02-24_12h25.56.080,Unsyncopated_study3,s122,19.0,feminino,right,españa,castellano,Upper secondary,no,no,A,2,conjunction_un,L3,unsyncopated,s1,r1,42,Online_conjL3_un//b.ñe.sa7.none.none.wav,chu,gu,ka,sil,mo,di,li,sil1,do,je,sil2,['-'],,,none,none,,,,ñe,1,,,,,,,,,,,,,,,4.0,2.0,castellano,0.0,inglés,6.0,catalán,15.0,alemán,18.0,4.0,2.0,yes,no,yes,flauta,8,guitarra,8,piano,8,ukelele,15.0,,,80.0,yes
179,2024-02-24_12h25.56.080,Unsyncopated_study3,s122,19.0,feminino,right,españa,castellano,Upper secondary,no,no,A,2,conjunction_un,L3,unsyncopated,s2,r1,43,Online_conjL3_un//b.ñe.sa5.none.none.wav,li,je,le,sil,chu,di,fu,sil1,mo,ji,sil2,['-'],,,none,none,,,,ñe,1,,,,,,,,,,,,,,,4.0,2.0,castellano,0.0,inglés,6.0,catalán,15.0,alemán,18.0,4.0,2.0,yes,no,yes,flauta,8,guitarra,8,piano,8,ukelele,15.0,,,80.0,yes
180,2024-02-24_12h25.56.080,Unsyncopated_study3,s122,19.0,feminino,right,españa,castellano,Upper secondary,no,no,A,2,conjunction_un,L3,unsyncopated,s1,r2,44,Online_conjL3_un//d.ji.li12.1332.222.wav,ñe,li,le,sil,sa,je,ji,sil1,di,ga,sil2,"['false alarm', 'catch']","[0.5620999999939613, 1.829900000005864]",[1.829900000005864],1.332,no_beat,0.497900000005864,0.497900000005864,"[""space"",""space""]",ji,4,,,,,,,,,,,,,,,4.0,2.0,castellano,0.0,inglés,6.0,catalán,15.0,alemán,18.0,4.0,2.0,yes,no,yes,flauta,8,guitarra,8,piano,8,ukelele,15.0,,,80.0,yes
181,2024-02-24_12h25.56.080,Unsyncopated_study3,s122,19.0,feminino,right,españa,castellano,Upper secondary,no,no,A,2,conjunction_un,L3,unsyncopated,s1,r1,45,Online_conjL3_un//d.ji.li15.none.none.wav,chu,fu,ga,sil,mo,je,gu,sil1,do,di,sil2,['-'],,,none,none,,,,ji,4,,,,,,,,,,,,,,,4.0,2.0,castellano,0.0,inglés,6.0,catalán,15.0,alemán,18.0,4.0,2.0,yes,no,yes,flauta,8,guitarra,8,piano,8,ukelele,15.0,,,80.0,yes
182,2024-02-24_12h25.56.080,Unsyncopated_study3,s122,19.0,feminino,right,españa,castellano,Upper secondary,no,no,A,2,conjunction_un,L3,unsyncopated,s2,r1,46,Online_conjL3_un//d.ji.li13.0.1110.wav,ji,ko,gu,sil,chu,li,je,sil1,mo,ka,sil2,['catch'],[0.5244000000061533],[0.5244000000061533],0.0,beat,0.5244000000061533,0.5244000000061533,"[""space""]",ji,4,,,,,,,,,,,,,,,4.0,2.0,castellano,0.0,inglés,6.0,catalán,15.0,alemán,18.0,4.0,2.0,yes,no,yes,flauta,8,guitarra,8,piano,8,ukelele,15.0,,,80.0,yes
183,2024-02-24_12h25.56.080,Unsyncopated_study3,s122,19.0,feminino,right,españa,castellano,Upper secondary,no,no,A,2,conjunction_un,L3,unsyncopated,s1,r1,47,Online_conjL3_un//d.ji.li14.1332.444.wav,chu,ko,li,sil,mo,do,ji,sil1,di,gu,sil2,['miss'],,,1.332,no_beat,,,,ji,4,,,,,,,,,,,,,,,4.0,2.0,castellano,0.0,inglés,6.0,catalán,15.0,alemán,18.0,4.0,2.0,yes,no,yes,flauta,8,guitarra,8,piano,8,ukelele,15.0,,,80.0,yes
184,2024-02-24_12h25.56.080,Unsyncopated_study3,s122,19.0,feminino,right,españa,castellano,Upper secondary,no,no,A,2,conjunction_un,L3,unsyncopated,s2,r2,48,Online_conjL3_un//b.ñe.sa25.888.1776.wav,le,ji,gu,sil,ñe,di,fu,sil1,sa,ko,sil2,['catch'],[1.5075999999939995],[1.5075999999939995],0.888,beat,0.6195999999939995,0.6195999999939995,"[""space""]",ñe,1,,,,,,,,,,,,,,,4.0,2.0,castellano,0.0,inglés,6.0,catalán,15.0,alemán,18.0,4.0,2.0,yes,no,yes,flauta,8,guitarra,8,piano,8,ukelele,15.0,,,80.0,yes
185,2024-02-24_12h25.56.080,Unsyncopated_study3,s122,19.0,feminino,right,españa,castellano,Upper secondary,no,no,A,2,conjunction_un,L3,unsyncopated,s1,r2,49,Online_conjL3_un//b.ñe.sa24.0.888.wav,ñe,fu,le,sil,sa,ko,ji,sil1,ka,do,sil2,['catch'],[0.5319000000058622],[0.5319000000058622],0.0,beat,0.5319000000058622,0.5319000000058622,"[""space""]",ñe,1,,,,,,,,,,,,,,,4.0,2.0,castellano,0.0,inglés,6.0,catalán,15.0,alemán,18.0,4.0,2.0,yes,no,yes,flauta,8,guitarra,8,piano,8,ukelele,15.0,,,80.0,yes
186,2024-02-24_12h25.56.080,Unsyncopated_study3,s122,19.0,feminino,right,españa,castellano,Upper secondary,no,no,A,2,conjunction_un,L3,unsyncopated,s2,r2,50,Online_conjL3_un//b.ñe.sa27.888.1776.wav,ji,do,ka,sil,ñe,je,ko,sil1,sa,gu,sil2,['catch'],[1.4063999999762018],[1.4063999999762018],0.888,beat,0.5183999999762018,0.5183999999762018,"[""space""]",ñe,1,,,,,,,,,,,,,,,4.0,2.0,castellano,0.0,inglés,6.0,catalán,15.0,alemán,18.0,4.0,2.0,yes,no,yes,flauta,8,guitarra,8,piano,8,ukelele,15.0,,,80.0,yes
187,2024-02-24_12h25.56.080,Unsyncopated_study3,s122,19.0,feminino,right,españa,castellano,Upper secondary,no,no,A,2,conjunction_un,L3,unsyncopated,s2,r1,51,Online_conjL3_un//b.ñe.sa26.none.none.wav,do,je,gu,sil,chu,ga,ko,sil1,mo,ka,sil2,['-'],,,none,none,,,,ñe,1,,,,,,,,,,,,,,,4.0,2.0,castellano,0.0,inglés,6.0,catalán,15.0,alemán,18.0,4.0,2.0,yes,no,yes,flauta,8,guitarra,8,piano,8,ukelele,15.0,,,80.0,yes
188,2024-02-24_12h25.56.080,Unsyncopated_study3,s122,19.0,feminino,right,españa,castellano,Upper secondary,no,no,A,2,conjunction_un,L3,unsyncopated,s1,r2,52,Online_conjL3_un//a.chu.mo11.none.none.wav,ñe,fu,ko,sil,sa,li,ka,sil1,le,ji,sil2,['false alarm'],[0.662499999999909],[0.662499999999909],none,none,,,"[""space""]",mo,2,,,,,,,,,,,,,,,4.0,2.0,castellano,0.0,inglés,6.0,catalán,15.0,alemán,18.0,4.0,2.0,yes,no,yes,flauta,8,guitarra,8,piano,8,ukelele,15.0,,,80.0,yes
189,2024-02-24_12h25.56.080,Unsyncopated_study3,s122,19.0,feminino,right,españa,castellano,Upper secondary,no,no,A,2,conjunction_un,L3,unsyncopated,s1,r2,53,Online_conjL3_un//a.chu.mo9.none.none.wav,ñe,di,gu,sil,sa,ka,ga,sil1,je,do,sil2,['-'],,,none,none,,,,mo,2,,,,,,,,,,,,,,,4.0,2.0,castellano,0.0,inglés,6.0,catalán,15.0,alemán,18.0,4.0,2.0,yes,no,yes,flauta,8,guitarra,8,piano,8,ukelele,15.0,,,80.0,yes
190,2024-02-24_12h25.56.080,Unsyncopated_study3,s122,19.0,feminino,right,españa,castellano,Upper secondary,no,no,A,2,conjunction_un,L3,unsyncopated,s1,r1,54,Online_conjL3_un//a.chu.mo10.0.888.wav,chu,do,fu,sil,mo,le,ga,sil1,di,ji,sil2,['catch'],[1.40300000000002],[1.40300000000002],0.888,beat,0.51500000000002,0.51500000000002,"[""space""]",mo,2,,,,,,,,,,,,,,,4.0,2.0,castellano,0.0,inglés,6.0,catalán,15.0,alemán,18.0,4.0,2.0,yes,no,yes,flauta,8,guitarra,8,piano,8,ukelele,15.0,,,80.0,yes
191,2024-02-24_12h25.56.080,Unsyncopated_study3,s122,19.0,feminino,right,españa,castellano,Upper secondary,no,no,A,2,conjunction_un,L3,unsyncopated,s1,r1,55,Online_conjL3_un//a.chu.mo8.0.888.wav,chu,gu,ji,sil,mo,di,le,sil1,li,fu,sil2,['catch'],[1.3712000000177795],[1.3712000000177795],0.888,beat,0.4832000000177795,0.4832000000177795,"[""space""]",mo,2,,,,,,,,,,,,,,,4.0,2.0,castellano,0.0,inglés,6.0,catalán,15.0,alemán,18.0,4.0,2.0,yes,no,yes,flauta,8,guitarra,8,piano,8,ukelele,15.0,,,80.0,yes
192,2024-02-24_12h25.56.080,Unsyncopated_study3,s122,19.0,feminino,right,españa,castellano,Upper secondary,no,no,A,2,conjunction_un,L3,unsyncopated,s2,r2,56,Online_conjL3_un//b.ñe.sa14.888.1776.wav,gu,ko,le,sil,ñe,ka,fu,sil1,sa,di,sil2,['catch'],[1.3680999999940013],[1.3680999999940013],0.888,beat,0.4800999999940013,0.4800999999940013,"[""space""]",ñe,1,,,,,,,,,,,,,,,4.0,2.0,castellano,0.0,inglés,6.0,catalán,15.0,alemán,18.0,4.0,2.0,yes,no,yes,flauta,8,guitarra,8,piano,8,ukelele,15.0,,,80.0,yes
193,2024-02-24_12h25.56.080,Unsyncopated_study3,s122,19.0,feminino,right,españa,castellano,Upper secondary,no,no,A,2,conjunction_un,L3,unsyncopated,s1,r2,57,Online_conjL3_un//b.ñe.sa15.0.888.wav,ñe,le,di,sil,sa,je,ji,sil1,fu,gu,sil2,['catch'],[0.4970999999941341],[0.4970999999941341],0.0,beat,0.4970999999941341,0.4970999999941341,"[""space""]",ñe,1,,,,,,,,,,,,,,,4.0,2.0,castellano,0.0,inglés,6.0,catalán,15.0,alemán,18.0,4.0,2.0,yes,no,yes,flauta,8,guitarra,8,piano,8,ukelele,15.0,,,80.0,yes
194,2024-02-24_12h25.56.080,Unsyncopated_study3,s122,19.0,feminino,right,españa,castellano,Upper secondary,no,no,A,2,conjunction_un,L3,unsyncopated,s1,r1,58,Online_conjL3_un//b.ñe.sa12.none.none.wav,chu,je,li,sil,mo,ka,ga,sil1,ko,di,sil2,['-'],,,none,none,,,,ñe,1,,,,,,,,,,,,,,,4.0,2.0,castellano,0.0,inglés,6.0,catalán,15.0,alemán,18.0,4.0,2.0,yes,no,yes,flauta,8,guitarra,8,piano,8,ukelele,15.0,,,80.0,yes
195,2024-02-24_12h25.56.080,Unsyncopated_study3,s122,19.0,feminino,right,españa,castellano,Upper secondary,no,no,A,2,conjunction_un,L3,unsyncopated,s2,r1,59,Online_conjL3_un//b.ñe.sa13.none.none.wav,ji,je,gu,sil,chu,ko,do,sil1,mo,di,sil2,['-'],,,none,none,,,,ñe,1,,,,,,,,,,,,,,,4.0,2.0,castellano,0.0,inglés,6.0,catalán,15.0,alemán,18.0,4.0,2.0,yes,no,yes,flauta,8,guitarra,8,piano,8,ukelele,15.0,,,80.0,yes
196,2024-02-24_12h25.56.080,Unsyncopated_study3,s122,19.0,feminino,right,españa,castellano,Upper secondary,no,no,A,2,conjunction_un,L3,unsyncopated,s1,r2,60,Online_conjL3_un//c.gu.je7.none.none.wav,ñe,ka,ji,sil,sa,do,le,sil1,di,fu,sil2,['-'],,,none,none,,,,gu,3,,,,,,,,,,,,,,,4.0,2.0,castellano,0.0,inglés,6.0,catalán,15.0,alemán,18.0,4.0,2.0,yes,no,yes,flauta,8,guitarra,8,piano,8,ukelele,15.0,,,80.0,yes
197,2024-02-24_12h25.56.080,Unsyncopated_study3,s122,19.0,feminino,right,españa,castellano,Upper secondary,no,no,A,2,conjunction_un,L3,unsyncopated,s2,r2,61,Online_conjL3_un//c.gu.je4.444.0.wav,je,ji,gu,sil,ñe,ka,li,sil1,sa,fu,sil2,['catch'],[0.9944000000059532],[0.9944000000059532],0.444,no_beat,0.5504000000059532,0.5504000000059532,"[""space""]",gu,3,,,,,,,,,,,,,,,4.0,2.0,castellano,0.0,inglés,6.0,catalán,15.0,alemán,18.0,4.0,2.0,yes,no,yes,flauta,8,guitarra,8,piano,8,ukelele,15.0,,,80.0,yes
198,2024-02-24_12h25.56.080,Unsyncopated_study3,s122,19.0,feminino,right,españa,castellano,Upper secondary,no,no,A,2,conjunction_un,L3,unsyncopated,s2,r1,62,Online_conjL3_un//c.gu.je5.1332.222.wav,do,je,ka,sil,chu,di,gu,sil1,mo,ji,sil2,['catch'],[1.8473000000119555],[1.8473000000119555],1.332,no_beat,0.5153000000119554,0.5153000000119554,"[""space""]",gu,3,,,,,,,,,,,,,,,4.0,2.0,castellano,0.0,inglés,6.0,catalán,15.0,alemán,18.0,4.0,2.0,yes,no,yes,flauta,8,guitarra,8,piano,8,ukelele,15.0,,,80.0,yes
199,2024-02-24_12h25.56.080,Unsyncopated_study3,s122,19.0,feminino,right,españa,castellano,Upper secondary,no,no,A,2,conjunction_un,L3,unsyncopated,s1,r2,63,Online_conjL3_un//c.gu.je6.1110.222.wav,ñe,je,ko,sil,sa,gu,di,sil1,do,fu,sil2,['catch'],[2.0025999999938904],[2.0025999999938904],1.11,no_beat,0.8925999999938903,0.8925999999938903,"[""space""]",gu,3,,,,,,,,,,,,,,,4.0,2.0,castellano,0.0,inglés,6.0,catalán,15.0,alemán,18.0,4.0,2.0,yes,no,yes,flauta,8,guitarra,8,piano,8,ukelele,15.0,,,80.0,yes
200,2024-02-24_12h25.56.080,Unsyncopated_study3,s122,19.0,feminino,right,españa,castellano,Upper secondary,no,no,A,2,conjunction_un,L3,unsyncopated,s2,r1,64,Online_conjL3_un//b.ñe.sa10.none.none.wav,do,je,le,sil,chu,di,fu,sil1,mo,ji,sil2,['-'],,,none,none,,,,ñe,1,,,,,,,,,,,,,,,4.0,2.0,castellano,0.0,inglés,6.0,catalán,15.0,alemán,18.0,4.0,2.0,yes,no,yes,flauta,8,guitarra,8,piano,8,ukelele,15.0,,,80.0,yes
201,2024-02-24_12h25.56.080,Unsyncopated_study3,s122,19.0,feminino,right,españa,castellano,Upper secondary,no,no,A,2,conjunction_un,L3,unsyncopated,s1,r1,65,Online_conjL3_un//b.ñe.sa11.none.none.wav,chu,ka,fu,sil,mo,ga,ji,sil1,je,le,sil2,['-'],,,none,none,,,,ñe,1,,,,,,,,,,,,,,,4.0,2.0,castellano,0.0,inglés,6.0,catalán,15.0,alemán,18.0,4.0,2.0,yes,no,yes,flauta,8,guitarra,8,piano,8,ukelele,15.0,,,80.0,yes
