Unnamed: 0,date,expName,participant,age,sex,hand,residence,native_lang,education_level,lang_deficit,aud_deficit,group,block,condition,language,rhythm,rule structure online,rule type online,order_trial_on,trial_online,s1,s2,s3,s4,s5,s6,s7,s8,s9,s10,s11,catch_syll_resp,rts_syll_catch,clean_rts,time_syll,beat_no_beat,catch_rtsTR,catch_rts,syllable_catch.keys,cond_syll,syll_to_catch,test_offline,block_off,condition_off,rhythm_off,rule,rule_str_off,rule_norule,conds_offline,language_off,Partz_no_partm.keys,Partz_no_partm.rt,security_1_7.keys,accuracy,security_1_7.rt,n_lang,n_lang_used,lang_1,age_l1,lang_2,age_l2,lang_3,age_l3,lang_4,age_l4,ability_learn_l2,tendence_mix_lan,music_experience,muisc_use,partiture,instr_1,age_M1,preguntas_musica1,BMRQ_answer.response,final comment,BMRQ_Score,bilingual
0,2024-02-25_24h18.06.660,Unsyncopated_study3,s123,24.0,masculino,right,Catalunya - Espanya,Català,Upper secondary,no,no,A,1,when,L1,unsyncopated,when,when,0,Online_whenL1//c.ro23.1998.wav,cho,la,pu,sil,ri,fo,ta,sil1,lu,ro,sil2,['catch'],[2.5756000000001222],[2.5756000000001222],1.998,no_beat,0.5776000000001222,0.5776000000001222,"[""space""]",ro,3,testWhenL1Uns//cat_viol.r2.s2.0.wav,1.0,when,unsyncopated,b,s2,no_rule,cat,L1,m,19.107,5.0,0.0,3.9011,4.0,2.0,Català,0.0,Castellà,6.0,Inglés,6.0,Francés,14.0,5.0,3.0,yes,no,yes,Saxo,10,1. Cuando comparto música con alguien siento una complicidad especial con aquella persona.,4.0,"Mientras tanto me iba apareciendo a la mente pensamientos. No estaba 100% concentrado. He intentado estarlo todo lo posible, pero mi mente me iba diciendo ""tienes que comprar eso"" o me acordaba de citas con chicos etc. Pero me ha gustado mucho el experimento, repetiría y si queréis se lo paso a conocides. Gracias!",66.0,yes
1,2024-02-25_24h18.06.660,Unsyncopated_study3,s123,24.0,masculino,right,Catalunya - Espanya,Català,Upper secondary,no,no,A,1,when,L1,unsyncopated,when,when,1,Online_whenL1//c.ro21.none.wav,ni,ta,ki,sil,fo,lu,cho,sil1,la,ne,sil2,['-'],,,none,none,,,,ro,3,testWhenL1Uns//r2.s2.2.wav,1.0,when,unsyncopated,b,s2,rule,rule,L1,z,1.7027,7.0,1.0,2.0999,4.0,2.0,Català,0.0,Castellà,6.0,Inglés,6.0,Francés,14.0,5.0,3.0,yes,no,yes,Saxo,10,2. En mi tiempo libre apenas escucho música.,5.0,"Mientras tanto me iba apareciendo a la mente pensamientos. No estaba 100% concentrado. He intentado estarlo todo lo posible, pero mi mente me iba diciendo ""tienes que comprar eso"" o me acordaba de citas con chicos etc. Pero me ha gustado mucho el experimento, repetiría y si queréis se lo paso a conocides. Gracias!",66.0,yes
2,2024-02-25_24h18.06.660,Unsyncopated_study3,s123,24.0,masculino,right,Catalunya - Espanya,Català,Upper secondary,no,no,A,1,when,L1,unsyncopated,when,when,2,Online_whenL1//c.ro22.none.wav,cho,la,zu,sil,fa,fo,ta,sil1,ni,be,sil2,['-'],,,none,none,,,,ro,3,testWhenL1Uns//r1.s2.2.wav,1.0,when,unsyncopated,a,s2,rule,rule,L1,z,2.7234,3.0,1.0,2.0342,4.0,2.0,Català,0.0,Castellà,6.0,Inglés,6.0,Francés,14.0,5.0,3.0,yes,no,yes,Saxo,10,3. Algunas canciones me ponen los pelos de punta,4.0,"Mientras tanto me iba apareciendo a la mente pensamientos. No estaba 100% concentrado. He intentado estarlo todo lo posible, pero mi mente me iba diciendo ""tienes que comprar eso"" o me acordaba de citas con chicos etc. Pero me ha gustado mucho el experimento, repetiría y si queréis se lo paso a conocides. Gracias!",66.0,yes
3,2024-02-25_24h18.06.660,Unsyncopated_study3,s123,24.0,masculino,right,Catalunya - Espanya,Català,Upper secondary,no,no,A,1,when,L1,unsyncopated,when,when,3,Online_whenL1//c.ro20.none.wav,cho,zu,ri,sil,la,be,ne,sil1,fa,ta,sil2,['-'],,,none,none,,,,ro,3,testWhenL1Uns//r2.s2.0.wav,1.0,when,unsyncopated,b,s2,rule,rule,L1,z,2.7212,5.0,1.0,2.2088,4.0,2.0,Català,0.0,Castellà,6.0,Inglés,6.0,Francés,14.0,5.0,3.0,yes,no,yes,Saxo,10,4. La música me hace compañía cuando estoy solo,4.0,"Mientras tanto me iba apareciendo a la mente pensamientos. No estaba 100% concentrado. He intentado estarlo todo lo posible, pero mi mente me iba diciendo ""tienes que comprar eso"" o me acordaba de citas con chicos etc. Pero me ha gustado mucho el experimento, repetiría y si queréis se lo paso a conocides. Gracias!",66.0,yes
4,2024-02-25_24h18.06.660,Unsyncopated_study3,s123,24.0,masculino,right,Catalunya - Espanya,Català,Upper secondary,no,no,A,1,when,L1,unsyncopated,when,when,4,Online_whenL1//d.ne21.1332.wav,la,ro,ki,sil,cho,fo,ne,sil1,ta,ni,sil2,['false alarm'],[0.761299999999892],[0.761299999999892],1.332,no_beat,,,"[""space""]",ne,4,testWhenL1Uns//dep_viol.r2.s1.0.wav,1.0,when,unsyncopated,b,s1,no_rule,dep,L1,z,1.3512,6.0,1.0,1.4536,4.0,2.0,Català,0.0,Castellà,6.0,Inglés,6.0,Francés,14.0,5.0,3.0,yes,no,yes,Saxo,10,5. No me apetece bailar ni con la música que más me gusta,5.0,"Mientras tanto me iba apareciendo a la mente pensamientos. No estaba 100% concentrado. He intentado estarlo todo lo posible, pero mi mente me iba diciendo ""tienes que comprar eso"" o me acordaba de citas con chicos etc. Pero me ha gustado mucho el experimento, repetiría y si queréis se lo paso a conocides. Gracias!",66.0,yes
5,2024-02-25_24h18.06.660,Unsyncopated_study3,s123,24.0,masculino,right,Catalunya - Espanya,Català,Upper secondary,no,no,A,1,when,L1,unsyncopated,when,when,5,Online_whenL1//d.ne23.none.wav,be,ni,cho,sil,ri,ro,fo,sil1,la,ki,sil2,['false alarm'],[1.8278000000003658],[1.8278000000003658],none,none,,,"[""space""]",ne,4,testWhenL1Uns//time_viol.r2.s2.0.wav,1.0,when,unsyncopated,b,s2,no_rule,time,L1,z,3.5853,4.0,1.0,1.6004,4.0,2.0,Català,0.0,Castellà,6.0,Inglés,6.0,Francés,14.0,5.0,3.0,yes,no,yes,Saxo,10,6. La música me hace conectar con la gente,4.0,"Mientras tanto me iba apareciendo a la mente pensamientos. No estaba 100% concentrado. He intentado estarlo todo lo posible, pero mi mente me iba diciendo ""tienes que comprar eso"" o me acordaba de citas con chicos etc. Pero me ha gustado mucho el experimento, repetiría y si queréis se lo paso a conocides. Gracias!",66.0,yes
6,2024-02-25_24h18.06.660,Unsyncopated_study3,s123,24.0,masculino,right,Catalunya - Espanya,Català,Upper secondary,no,no,A,1,when,L1,unsyncopated,when,when,6,Online_whenL1//d.ne20.1110.wav,fa,ki,cho,sil,pu,ne,zu,sil1,la,ro,sil2,['catch'],[1.8857999999999038],[1.8857999999999038],1.11,no_beat,0.7757999999999037,0.7757999999999037,"[""space""]",ne,4,testWhenL1Uns//time_viol.r1.s1.0.wav,1.0,when,unsyncopated,a,s1,no_rule,time,L1,z,1.0856,7.0,1.0,1.8427,4.0,2.0,Català,0.0,Castellà,6.0,Inglés,6.0,Francés,14.0,5.0,3.0,yes,no,yes,Saxo,10,7. Me informo sobre la música que me gusta.,2.0,"Mientras tanto me iba apareciendo a la mente pensamientos. No estaba 100% concentrado. He intentado estarlo todo lo posible, pero mi mente me iba diciendo ""tienes que comprar eso"" o me acordaba de citas con chicos etc. Pero me ha gustado mucho el experimento, repetiría y si queréis se lo paso a conocides. Gracias!",66.0,yes
7,2024-02-25_24h18.06.660,Unsyncopated_study3,s123,24.0,masculino,right,Catalunya - Espanya,Català,Upper secondary,no,no,A,1,when,L1,unsyncopated,when,when,7,Online_whenL1//d.ne22.none.wav,ni,ki,pu,sil,ro,la,cho,sil1,fa,ri,sil2,['-'],,,none,none,,,,ne,4,testWhenL1Uns//dep_viol.r2.s2.0.wav,1.0,when,unsyncopated,b,s2,no_rule,dep,L1,z,0.8693,7.0,1.0,1.1961,4.0,2.0,Català,0.0,Castellà,6.0,Inglés,6.0,Francés,14.0,5.0,3.0,yes,no,yes,Saxo,10,8.Me emociono escuchando ciertas canciones.,4.0,"Mientras tanto me iba apareciendo a la mente pensamientos. No estaba 100% concentrado. He intentado estarlo todo lo posible, pero mi mente me iba diciendo ""tienes que comprar eso"" o me acordaba de citas con chicos etc. Pero me ha gustado mucho el experimento, repetiría y si queréis se lo paso a conocides. Gracias!",66.0,yes
8,2024-02-25_24h18.06.660,Unsyncopated_study3,s123,24.0,masculino,right,Catalunya - Espanya,Català,Upper secondary,no,no,A,1,when,L1,unsyncopated,when,when,8,Online_whenL1//c.ro19.1332.wav,ze,be,pu,sil,ne,fo,ro,sil1,lu,cho,sil2,['catch'],[1.8629999999999427],[1.8629999999999427],1.332,no_beat,0.5309999999999426,0.5309999999999426,"[""space""]",ro,3,testWhenL1Uns//dep_viol.r1.s2.0.wav,1.0,when,unsyncopated,a,s2,no_rule,dep,L1,z,1.1191,5.0,1.0,1.901,4.0,2.0,Català,0.0,Castellà,6.0,Inglés,6.0,Francés,14.0,5.0,3.0,yes,no,yes,Saxo,10,9.La música me tranquiliza y me relaja.,3.0,"Mientras tanto me iba apareciendo a la mente pensamientos. No estaba 100% concentrado. He intentado estarlo todo lo posible, pero mi mente me iba diciendo ""tienes que comprar eso"" o me acordaba de citas con chicos etc. Pero me ha gustado mucho el experimento, repetiría y si queréis se lo paso a conocides. Gracias!",66.0,yes
9,2024-02-25_24h18.06.660,Unsyncopated_study3,s123,24.0,masculino,right,Catalunya - Espanya,Català,Upper secondary,no,no,A,1,when,L1,unsyncopated,when,when,9,Online_whenL1//c.ro16.1776.wav,fa,ne,zu,sil,ki,ta,ze,sil1,ro,cho,sil2,['catch'],[2.2391000000001213],[2.2391000000001213],1.776,beat,0.4631000000001213,0.4631000000001213,"[""space""]",ro,3,testWhenL1Uns//r2.s1.0.wav,1.0,when,unsyncopated,b,s1,rule,rule,L1,z,0.8527,5.0,1.0,1.485,4.0,2.0,Català,0.0,Castellà,6.0,Inglés,6.0,Francés,14.0,5.0,3.0,yes,no,yes,Saxo,10,10.La música me hace bailar,4.0,"Mientras tanto me iba apareciendo a la mente pensamientos. No estaba 100% concentrado. He intentado estarlo todo lo posible, pero mi mente me iba diciendo ""tienes que comprar eso"" o me acordaba de citas con chicos etc. Pero me ha gustado mucho el experimento, repetiría y si queréis se lo paso a conocides. Gracias!",66.0,yes
10,2024-02-25_24h18.06.660,Unsyncopated_study3,s123,24.0,masculino,right,Catalunya - Espanya,Català,Upper secondary,no,no,A,1,when,L1,unsyncopated,when,when,10,Online_whenL1//c.ro17.none.wav,la,ze,pu,sil,ki,cho,zu,sil1,fa,ne,sil2,['-'],,,none,none,,,,ro,3,testWhenL1Uns//dep_viol.r1.s1.0.wav,1.0,when,unsyncopated,a,s1,no_rule,dep,L1,z,1.79,2.0,1.0,1.4199,4.0,2.0,Català,0.0,Castellà,6.0,Inglés,6.0,Francés,14.0,5.0,3.0,yes,no,yes,Saxo,10,11.Busco novedades musicales continuamente,4.0,"Mientras tanto me iba apareciendo a la mente pensamientos. No estaba 100% concentrado. He intentado estarlo todo lo posible, pero mi mente me iba diciendo ""tienes que comprar eso"" o me acordaba de citas con chicos etc. Pero me ha gustado mucho el experimento, repetiría y si queréis se lo paso a conocides. Gracias!",66.0,yes
11,2024-02-25_24h18.06.660,Unsyncopated_study3,s123,24.0,masculino,right,Catalunya - Espanya,Català,Upper secondary,no,no,A,1,when,L1,unsyncopated,when,when,11,Online_whenL1//c.ro18.none.wav,ki,ri,ni,sil,ne,ta,cho,sil1,fo,ze,sil2,['-'],,,none,none,,,,ro,3,testWhenL1Uns//r1.s1.2.wav,1.0,when,unsyncopated,a,s1,rule,rule,L1,z,0.6687,2.0,1.0,0.6544,4.0,2.0,Català,0.0,Castellà,6.0,Inglés,6.0,Francés,14.0,5.0,3.0,yes,no,yes,Saxo,10,12. Puedo llorar cuando escucho algunas melodías que me gustan mucho.,4.0,"Mientras tanto me iba apareciendo a la mente pensamientos. No estaba 100% concentrado. He intentado estarlo todo lo posible, pero mi mente me iba diciendo ""tienes que comprar eso"" o me acordaba de citas con chicos etc. Pero me ha gustado mucho el experimento, repetiría y si queréis se lo paso a conocides. Gracias!",66.0,yes
12,2024-02-25_24h18.06.660,Unsyncopated_study3,s123,24.0,masculino,right,Catalunya - Espanya,Català,Upper secondary,no,no,A,1,when,L1,unsyncopated,when,when,12,Online_whenL1//b.ta22.none.wav,be,ri,fo,sil,ne,ki,zu,sil1,fa,lu,sil2,['-'],,,none,none,,,,ta,1,testWhenL1Uns//cat_viol.r2.s1.0.wav,1.0,when,unsyncopated,b,s1,no_rule,cat,L1,m,5.8193,3.0,0.0,2.3736,4.0,2.0,Català,0.0,Castellà,6.0,Inglés,6.0,Francés,14.0,5.0,3.0,yes,no,yes,Saxo,10,13. Me gusta cantar o tocar un instrumento con más gente,0.0,"Mientras tanto me iba apareciendo a la mente pensamientos. No estaba 100% concentrado. He intentado estarlo todo lo posible, pero mi mente me iba diciendo ""tienes que comprar eso"" o me acordaba de citas con chicos etc. Pero me ha gustado mucho el experimento, repetiría y si queréis se lo paso a conocides. Gracias!",66.0,yes
13,2024-02-25_24h18.06.660,Unsyncopated_study3,s123,24.0,masculino,right,Catalunya - Espanya,Català,Upper secondary,no,no,A,1,when,L1,unsyncopated,when,when,13,Online_whenL1//b.ta20.1110.wav,zu,lu,fo,sil,ki,ta,ne,sil1,ri,la,sil2,['catch'],[1.614799999999832],[1.614799999999832],1.11,no_beat,0.5047999999998318,0.5047999999998318,"[""space""]",ta,1,testWhenL1Uns//r1.s1.0.wav,1.0,when,unsyncopated,a,s1,rule,rule,L1,m,4.0673,4.0,0.0,2.157,4.0,2.0,Català,0.0,Castellà,6.0,Inglés,6.0,Francés,14.0,5.0,3.0,yes,no,yes,Saxo,10,14. La música me ayuda a desconectar.,3.0,"Mientras tanto me iba apareciendo a la mente pensamientos. No estaba 100% concentrado. He intentado estarlo todo lo posible, pero mi mente me iba diciendo ""tienes que comprar eso"" o me acordaba de citas con chicos etc. Pero me ha gustado mucho el experimento, repetiría y si queréis se lo paso a conocides. Gracias!",66.0,yes
14,2024-02-25_24h18.06.660,Unsyncopated_study3,s123,24.0,masculino,right,Catalunya - Espanya,Català,Upper secondary,no,no,A,1,when,L1,unsyncopated,when,when,14,Online_whenL1//b.ta23.none.wav,ni,fo,ri,sil,ki,la,be,sil1,ze,ne,sil2,['-'],,,none,none,,,,ta,1,testWhenL1Uns//r2.s1.1.wav,1.0,when,unsyncopated,b,s1,rule,rule,L1,z,1.3672,5.0,1.0,1.5501,4.0,2.0,Català,0.0,Castellà,6.0,Inglés,6.0,Francés,14.0,5.0,3.0,yes,no,yes,Saxo,10,15. No puedo evitar tararear las canciones que me gustan cuando las escucho.,4.0,"Mientras tanto me iba apareciendo a la mente pensamientos. No estaba 100% concentrado. He intentado estarlo todo lo posible, pero mi mente me iba diciendo ""tienes que comprar eso"" o me acordaba de citas con chicos etc. Pero me ha gustado mucho el experimento, repetiría y si queréis se lo paso a conocides. Gracias!",66.0,yes
15,2024-02-25_24h18.06.660,Unsyncopated_study3,s123,24.0,masculino,right,Catalunya - Espanya,Català,Upper secondary,no,no,A,1,when,L1,unsyncopated,when,when,15,Online_whenL1//b.ta21.1998.wav,fa,be,la,sil,zu,cho,fo,sil1,ni,ta,sil2,['catch'],[2.35670000000016],[2.35670000000016],1.998,no_beat,0.3587000000001599,0.3587000000001599,"[""space""]",ta,1,testWhenL1Uns//cat_viol.r1.s1.0.wav,1.0,when,unsyncopated,a,s1,no_rule,cat,L1,z,2.2179,4.0,1.0,0.9897,4.0,2.0,Català,0.0,Castellà,6.0,Inglés,6.0,Francés,14.0,5.0,3.0,yes,no,yes,Saxo,10,16. En los conciertos me siento en sintonía con los artistas y el público.,2.0,"Mientras tanto me iba apareciendo a la mente pensamientos. No estaba 100% concentrado. He intentado estarlo todo lo posible, pero mi mente me iba diciendo ""tienes que comprar eso"" o me acordaba de citas con chicos etc. Pero me ha gustado mucho el experimento, repetiría y si queréis se lo paso a conocides. Gracias!",66.0,yes
16,2024-02-25_24h18.06.660,Unsyncopated_study3,s123,24.0,masculino,right,Catalunya - Espanya,Català,Upper secondary,no,no,A,1,when,L1,unsyncopated,when,when,16,Online_whenL1//a.ki20.0.wav,ki,ne,zu,sil,ri,ni,cho,sil1,lu,pu,sil2,['miss'],,,0.0,beat,,,,ki,2,testWhenL1Uns//r1.s2.1.wav,1.0,when,unsyncopated,a,s2,rule,rule,L1,m,1.1863,1.0,0.0,0.9853,4.0,2.0,Català,0.0,Castellà,6.0,Inglés,6.0,Francés,14.0,5.0,3.0,yes,no,yes,Saxo,10,17. Me gasto bastante dinero en música y cosas relacionadas con la música.,0.0,"Mientras tanto me iba apareciendo a la mente pensamientos. No estaba 100% concentrado. He intentado estarlo todo lo posible, pero mi mente me iba diciendo ""tienes que comprar eso"" o me acordaba de citas con chicos etc. Pero me ha gustado mucho el experimento, repetiría y si queréis se lo paso a conocides. Gracias!",66.0,yes
17,2024-02-25_24h18.06.660,Unsyncopated_study3,s123,24.0,masculino,right,Catalunya - Espanya,Català,Upper secondary,no,no,A,1,when,L1,unsyncopated,when,when,17,Online_whenL1//a.ki22.444.wav,zu,pu,ki,sil,ze,cho,ne,sil1,ni,ro,sil2,['miss'],,,0.444,no_beat,,,,ki,2,testWhenL1Uns//r1.s1.1.wav,1.0,when,unsyncopated,a,s1,rule,rule,L1,z,1.3386,7.0,1.0,0.5848,4.0,2.0,Català,0.0,Castellà,6.0,Inglés,6.0,Francés,14.0,5.0,3.0,yes,no,yes,Saxo,10,18. Siento escalofríos cuando escucho una melodía que me gusta.,4.0,"Mientras tanto me iba apareciendo a la mente pensamientos. No estaba 100% concentrado. He intentado estarlo todo lo posible, pero mi mente me iba diciendo ""tienes que comprar eso"" o me acordaba de citas con chicos etc. Pero me ha gustado mucho el experimento, repetiría y si queréis se lo paso a conocides. Gracias!",66.0,yes
18,2024-02-25_24h18.06.660,Unsyncopated_study3,s123,24.0,masculino,right,Catalunya - Espanya,Català,Upper secondary,no,no,A,1,when,L1,unsyncopated,when,when,18,Online_whenL1//a.ki23.1110.wav,be,ri,zu,sil,ro,ki,ni,sil1,la,ne,sil2,['catch'],[1.6207999999998037],[1.6207999999998037],1.11,no_beat,0.5107999999998036,0.5107999999998036,"[""space""]",ki,2,testWhenL1Uns//r1.s2.0.wav,1.0,when,unsyncopated,a,s2,rule,rule,L1,m,2.031,3.0,0.0,1.9033,4.0,2.0,Català,0.0,Castellà,6.0,Inglés,6.0,Francés,14.0,5.0,3.0,yes,no,yes,Saxo,10,19. Con la música me puedo desahogar.,2.0,"Mientras tanto me iba apareciendo a la mente pensamientos. No estaba 100% concentrado. He intentado estarlo todo lo posible, pero mi mente me iba diciendo ""tienes que comprar eso"" o me acordaba de citas con chicos etc. Pero me ha gustado mucho el experimento, repetiría y si queréis se lo paso a conocides. Gracias!",66.0,yes
19,2024-02-25_24h18.06.660,Unsyncopated_study3,s123,24.0,masculino,right,Catalunya - Espanya,Català,Upper secondary,no,no,A,1,when,L1,unsyncopated,when,when,19,Online_whenL1//a.ki21.0.wav,ki,ni,cho,sil,fo,ri,lu,sil1,ze,be,sil2,['catch'],[1.1030000000000655],[1.1030000000000655],0.0,beat,1.1030000000000657,1.1030000000000657,"[""space""]",ki,2,testWhenL1Uns//r2.s2.1.wav,1.0,when,unsyncopated,b,s2,rule,rule,L1,z,1.0679,6.0,1.0,0.7802,4.0,2.0,Català,0.0,Castellà,6.0,Inglés,6.0,Francés,14.0,5.0,3.0,yes,no,yes,Saxo,10,20. Cuando escucho una melodía que me gusta mucho no puedo evitar mover el cuerpo.,4.0,"Mientras tanto me iba apareciendo a la mente pensamientos. No estaba 100% concentrado. He intentado estarlo todo lo posible, pero mi mente me iba diciendo ""tienes que comprar eso"" o me acordaba de citas con chicos etc. Pero me ha gustado mucho el experimento, repetiría y si queréis se lo paso a conocides. Gracias!",66.0,yes
20,2024-02-25_24h18.06.660,Unsyncopated_study3,s123,24.0,masculino,right,Catalunya - Espanya,Català,Upper secondary,no,no,A,1,when,L1,unsyncopated,when,when,20,Online_whenL1//b.ta18.0.wav,ta,ze,zu,sil,ri,ro,lu,sil1,pu,la,sil2,['catch'],[0.7662000000002536],[0.7662000000002536],0.0,beat,0.7662000000002536,0.7662000000002536,"[""space""]",ta,1,testWhenL1Uns//r2.s1.2.wav,1.0,when,unsyncopated,b,s1,rule,rule,L1,z,1.0639,3.0,1.0,1.0026,4.0,2.0,Català,0.0,Castellà,6.0,Inglés,6.0,Francés,14.0,5.0,3.0,yes,no,yes,Saxo,10,,,"Mientras tanto me iba apareciendo a la mente pensamientos. No estaba 100% concentrado. He intentado estarlo todo lo posible, pero mi mente me iba diciendo ""tienes que comprar eso"" o me acordaba de citas con chicos etc. Pero me ha gustado mucho el experimento, repetiría y si queréis se lo paso a conocides. Gracias!",66.0,yes
21,2024-02-25_24h18.06.660,Unsyncopated_study3,s123,24.0,masculino,right,Catalunya - Espanya,Català,Upper secondary,no,no,A,1,when,L1,unsyncopated,when,when,21,Online_whenL1//b.ta19.none.wav,pu,fa,lu,sil,fo,cho,la,sil1,be,ri,sil2,['-'],,,none,none,,,,ta,1,testWhenL1Uns//time_viol.r2.s1.0.wav,1.0,when,unsyncopated,b,s1,no_rule,time,L1,m,0.9847,4.0,0.0,1.6844,4.0,2.0,Català,0.0,Castellà,6.0,Inglés,6.0,Francés,14.0,5.0,3.0,yes,no,yes,Saxo,10,,,"Mientras tanto me iba apareciendo a la mente pensamientos. No estaba 100% concentrado. He intentado estarlo todo lo posible, pero mi mente me iba diciendo ""tienes que comprar eso"" o me acordaba de citas con chicos etc. Pero me ha gustado mucho el experimento, repetiría y si queréis se lo paso a conocides. Gracias!",66.0,yes
22,2024-02-25_24h18.06.660,Unsyncopated_study3,s123,24.0,masculino,right,Catalunya - Espanya,Català,Upper secondary,no,no,A,1,when,L1,unsyncopated,when,when,22,Online_whenL1//b.ta17.none.wav,ni,fo,zu,sil,be,ki,ze,sil1,ro,ri,sil2,['-'],,,none,none,,,,ta,1,testWhenL1Uns//time_viol.r1.s2.0.wav,1.0,when,unsyncopated,a,s2,no_rule,time,L1,z,2.3513,7.0,1.0,1.9179,4.0,2.0,Català,0.0,Castellà,6.0,Inglés,6.0,Francés,14.0,5.0,3.0,yes,no,yes,Saxo,10,,,"Mientras tanto me iba apareciendo a la mente pensamientos. No estaba 100% concentrado. He intentado estarlo todo lo posible, pero mi mente me iba diciendo ""tienes que comprar eso"" o me acordaba de citas con chicos etc. Pero me ha gustado mucho el experimento, repetiría y si queréis se lo paso a conocides. Gracias!",66.0,yes
23,2024-02-25_24h18.06.660,Unsyncopated_study3,s123,24.0,masculino,right,Catalunya - Espanya,Català,Upper secondary,no,no,A,1,when,L1,unsyncopated,when,when,23,Online_whenL1//b.ta16.none.wav,ni,pu,fa,sil,ne,ki,cho,sil1,fo,ro,sil2,['-'],,,none,none,,,,ta,1,testWhenL1Uns//cat_viol.r1.s2.0.wav,1.0,when,unsyncopated,a,s2,no_rule,cat,L1,m,1.0592,1.0,0.0,0.7509,4.0,2.0,Català,0.0,Castellà,6.0,Inglés,6.0,Francés,14.0,5.0,3.0,yes,no,yes,Saxo,10,,,"Mientras tanto me iba apareciendo a la mente pensamientos. No estaba 100% concentrado. He intentado estarlo todo lo posible, pero mi mente me iba diciendo ""tienes que comprar eso"" o me acordaba de citas con chicos etc. Pero me ha gustado mucho el experimento, repetiría y si queréis se lo paso a conocides. Gracias!",66.0,yes
24,2024-02-25_24h18.06.660,Unsyncopated_study3,s123,24.0,masculino,right,Catalunya - Espanya,Català,Upper secondary,no,no,A,1,when,L1,unsyncopated,when,when,24,Online_whenL1//b.ta35.222.wav,fa,ta,ze,sil,fo,lu,ro,sil1,ni,be,sil2,['catch'],[0.7436999999996488],[0.7436999999996488],0.222,no_beat,0.5216999999996488,0.5216999999996488,"[""space""]",ta,1,testConjL2Syn//cat_viol.r2.s1.0.wav,2.0,conjunction_syn,syncopated,b,s1,no_rule,cat,L2,m,3.1537,7.0,1.0,1.7392,4.0,2.0,Català,0.0,Castellà,6.0,Inglés,6.0,Francés,14.0,5.0,3.0,yes,no,yes,Saxo,10,,,"Mientras tanto me iba apareciendo a la mente pensamientos. No estaba 100% concentrado. He intentado estarlo todo lo posible, pero mi mente me iba diciendo ""tienes que comprar eso"" o me acordaba de citas con chicos etc. Pero me ha gustado mucho el experimento, repetiría y si queréis se lo paso a conocides. Gracias!",66.0,yes
25,2024-02-25_24h18.06.660,Unsyncopated_study3,s123,24.0,masculino,right,Catalunya - Espanya,Català,Upper secondary,no,no,A,1,when,L1,unsyncopated,when,when,25,Online_whenL1//b.ta34.1110.wav,be,cho,la,sil,ro,ta,fo,sil1,lu,ni,sil2,['miss'],,,1.11,no_beat,,,,ta,1,testConjL2Syn//r2.s2.2.wav,2.0,conjunction_syn,syncopated,b,s2,rule,rule,L2,z,1.4183,1.0,1.0,1.2361,4.0,2.0,Català,0.0,Castellà,6.0,Inglés,6.0,Francés,14.0,5.0,3.0,yes,no,yes,Saxo,10,,,"Mientras tanto me iba apareciendo a la mente pensamientos. No estaba 100% concentrado. He intentado estarlo todo lo posible, pero mi mente me iba diciendo ""tienes que comprar eso"" o me acordaba de citas con chicos etc. Pero me ha gustado mucho el experimento, repetiría y si queréis se lo paso a conocides. Gracias!",66.0,yes
26,2024-02-25_24h18.06.660,Unsyncopated_study3,s123,24.0,masculino,right,Catalunya - Espanya,Català,Upper secondary,no,no,A,1,when,L1,unsyncopated,when,when,26,Online_whenL1//b.ta32.none.wav,ki,ni,fo,sil,lu,zu,cho,sil1,be,ri,sil2,['-'],,,none,none,,,,ta,1,testConjL2Syn//r2.s2.1.wav,2.0,conjunction_syn,syncopated,b,s2,rule,rule,L2,z,1.4372,7.0,1.0,1.0564,4.0,2.0,Català,0.0,Castellà,6.0,Inglés,6.0,Francés,14.0,5.0,3.0,yes,no,yes,Saxo,10,,,"Mientras tanto me iba apareciendo a la mente pensamientos. No estaba 100% concentrado. He intentado estarlo todo lo posible, pero mi mente me iba diciendo ""tienes que comprar eso"" o me acordaba de citas con chicos etc. Pero me ha gustado mucho el experimento, repetiría y si queréis se lo paso a conocides. Gracias!",66.0,yes
27,2024-02-25_24h18.06.660,Unsyncopated_study3,s123,24.0,masculino,right,Catalunya - Espanya,Català,Upper secondary,no,no,A,1,when,L1,unsyncopated,when,when,27,Online_whenL1//b.ta33.none.wav,ro,cho,be,sil,la,pu,ri,sil1,lu,zu,sil2,['-'],,,none,none,,,,ta,1,testConjL2Syn//r2.s1.1.wav,2.0,conjunction_syn,syncopated,b,s1,rule,rule,L2,z,2.6776,1.0,1.0,0.9689,4.0,2.0,Català,0.0,Castellà,6.0,Inglés,6.0,Francés,14.0,5.0,3.0,yes,no,yes,Saxo,10,,,"Mientras tanto me iba apareciendo a la mente pensamientos. No estaba 100% concentrado. He intentado estarlo todo lo posible, pero mi mente me iba diciendo ""tienes que comprar eso"" o me acordaba de citas con chicos etc. Pero me ha gustado mucho el experimento, repetiría y si queréis se lo paso a conocides. Gracias!",66.0,yes
28,2024-02-25_24h18.06.660,Unsyncopated_study3,s123,24.0,masculino,right,Catalunya - Espanya,Català,Upper secondary,no,no,A,1,when,L1,unsyncopated,when,when,28,Online_whenL1//b.ta30.444.wav,lu,ze,ta,sil,ne,ni,fo,sil1,la,be,sil2,['catch'],[0.8573000000002367],[0.8573000000002367],0.444,no_beat,0.4133000000002366,0.4133000000002366,"[""space""]",ta,1,testConjL2Syn//cat_viol.r1.s1.0.wav,2.0,conjunction_syn,syncopated,a,s1,no_rule,cat,L2,z,1.3251,4.0,0.0,1.3159,4.0,2.0,Català,0.0,Castellà,6.0,Inglés,6.0,Francés,14.0,5.0,3.0,yes,no,yes,Saxo,10,,,"Mientras tanto me iba apareciendo a la mente pensamientos. No estaba 100% concentrado. He intentado estarlo todo lo posible, pero mi mente me iba diciendo ""tienes que comprar eso"" o me acordaba de citas con chicos etc. Pero me ha gustado mucho el experimento, repetiría y si queréis se lo paso a conocides. Gracias!",66.0,yes
29,2024-02-25_24h18.06.660,Unsyncopated_study3,s123,24.0,masculino,right,Catalunya - Espanya,Català,Upper secondary,no,no,A,1,when,L1,unsyncopated,when,when,29,Online_whenL1//b.ta28.222.wav,la,ta,lu,sil,fo,ni,ro,sil1,ki,cho,sil2,['catch'],[0.6662000000001171],[0.6662000000001171],0.222,no_beat,0.4442000000001171,0.4442000000001171,"[""space""]",ta,1,testConjL2Syn//dep_viol.r2.s2.0.wav,2.0,conjunction_syn,syncopated,b,s2,no_rule,dep,L2,m,3.4183,5.0,1.0,3.7028,4.0,2.0,Català,0.0,Castellà,6.0,Inglés,6.0,Francés,14.0,5.0,3.0,yes,no,yes,Saxo,10,,,"Mientras tanto me iba apareciendo a la mente pensamientos. No estaba 100% concentrado. He intentado estarlo todo lo posible, pero mi mente me iba diciendo ""tienes que comprar eso"" o me acordaba de citas con chicos etc. Pero me ha gustado mucho el experimento, repetiría y si queréis se lo paso a conocides. Gracias!",66.0,yes
30,2024-02-25_24h18.06.660,Unsyncopated_study3,s123,24.0,masculino,right,Catalunya - Espanya,Català,Upper secondary,no,no,A,1,when,L1,unsyncopated,when,when,30,Online_whenL1//b.ta31.none.wav,pu,lu,zu,sil,cho,la,ki,sil1,fa,ro,sil2,['-'],,,none,none,,,,ta,1,testConjL2Syn//dep_viol.r1.s1.0.wav,2.0,conjunction_syn,syncopated,a,s1,no_rule,dep,L2,z,1.1523,1.0,0.0,1.386,4.0,2.0,Català,0.0,Castellà,6.0,Inglés,6.0,Francés,14.0,5.0,3.0,yes,no,yes,Saxo,10,,,"Mientras tanto me iba apareciendo a la mente pensamientos. No estaba 100% concentrado. He intentado estarlo todo lo posible, pero mi mente me iba diciendo ""tienes que comprar eso"" o me acordaba de citas con chicos etc. Pero me ha gustado mucho el experimento, repetiría y si queréis se lo paso a conocides. Gracias!",66.0,yes
31,2024-02-25_24h18.06.660,Unsyncopated_study3,s123,24.0,masculino,right,Catalunya - Espanya,Català,Upper secondary,no,no,A,1,when,L1,unsyncopated,when,when,31,Online_whenL1//b.ta29.none.wav,ri,ki,cho,sil,lu,zu,ze,sil1,fo,pu,sil2,['-'],,,none,none,,,,ta,1,testConjL2Syn//r1.s1.2.wav,2.0,conjunction_syn,syncopated,a,s1,rule,rule,L2,z,1.669,3.0,1.0,1.0617,4.0,2.0,Català,0.0,Castellà,6.0,Inglés,6.0,Francés,14.0,5.0,3.0,yes,no,yes,Saxo,10,,,"Mientras tanto me iba apareciendo a la mente pensamientos. No estaba 100% concentrado. He intentado estarlo todo lo posible, pero mi mente me iba diciendo ""tienes que comprar eso"" o me acordaba de citas con chicos etc. Pero me ha gustado mucho el experimento, repetiría y si queréis se lo paso a conocides. Gracias!",66.0,yes
32,2024-02-25_24h18.06.660,Unsyncopated_study3,s123,24.0,masculino,right,Catalunya - Espanya,Català,Upper secondary,no,no,A,1,when,L1,unsyncopated,when,when,32,Online_whenL1//c.ro26.444.wav,ki,zu,ro,sil,cho,ta,ne,sil1,ri,fa,sil2,['catch'],[0.9312000000002172],[0.9312000000002172],0.444,no_beat,0.4872000000002172,0.4872000000002172,"[""space""]",ro,3,testConjL2Syn//dep_viol.r2.s1.0.wav,2.0,conjunction_syn,syncopated,b,s1,no_rule,dep,L2,z,0.9276,5.0,0.0,1.2347,4.0,2.0,Català,0.0,Castellà,6.0,Inglés,6.0,Francés,14.0,5.0,3.0,yes,no,yes,Saxo,10,,,"Mientras tanto me iba apareciendo a la mente pensamientos. No estaba 100% concentrado. He intentado estarlo todo lo posible, pero mi mente me iba diciendo ""tienes que comprar eso"" o me acordaba de citas con chicos etc. Pero me ha gustado mucho el experimento, repetiría y si queréis se lo paso a conocides. Gracias!",66.0,yes
33,2024-02-25_24h18.06.660,Unsyncopated_study3,s123,24.0,masculino,right,Catalunya - Espanya,Català,Upper secondary,no,no,A,1,when,L1,unsyncopated,when,when,33,Online_whenL1//c.ro24.222.wav,fo,ro,ta,sil,fa,ne,cho,sil1,be,ze,sil2,['catch'],[0.9194999999999709],[0.9194999999999709],0.222,no_beat,0.6974999999999709,0.6974999999999709,"[""space""]",ro,3,testConjL2Syn//time_viol.r1.s2.0.wav,2.0,conjunction_syn,syncopated,a,s2,no_rule,time,L2,z,1.1538,2.0,0.0,0.4516,4.0,2.0,Català,0.0,Castellà,6.0,Inglés,6.0,Francés,14.0,5.0,3.0,yes,no,yes,Saxo,10,,,"Mientras tanto me iba apareciendo a la mente pensamientos. No estaba 100% concentrado. He intentado estarlo todo lo posible, pero mi mente me iba diciendo ""tienes que comprar eso"" o me acordaba de citas con chicos etc. Pero me ha gustado mucho el experimento, repetiría y si queréis se lo paso a conocides. Gracias!",66.0,yes
34,2024-02-25_24h18.06.660,Unsyncopated_study3,s123,24.0,masculino,right,Catalunya - Espanya,Català,Upper secondary,no,no,A,1,when,L1,unsyncopated,when,when,34,Online_whenL1//c.ro27.none.wav,ni,be,la,sil,lu,zu,ri,sil1,pu,ze,sil2,['-'],,,none,none,,,,ro,3,testConjL2Syn//time_viol.r1.s1.0.wav,2.0,conjunction_syn,syncopated,a,s1,no_rule,time,L2,z,1.1187,2.0,0.0,0.4484,4.0,2.0,Català,0.0,Castellà,6.0,Inglés,6.0,Francés,14.0,5.0,3.0,yes,no,yes,Saxo,10,,,"Mientras tanto me iba apareciendo a la mente pensamientos. No estaba 100% concentrado. He intentado estarlo todo lo posible, pero mi mente me iba diciendo ""tienes que comprar eso"" o me acordaba de citas con chicos etc. Pero me ha gustado mucho el experimento, repetiría y si queréis se lo paso a conocides. Gracias!",66.0,yes
35,2024-02-25_24h18.06.660,Unsyncopated_study3,s123,24.0,masculino,right,Catalunya - Espanya,Català,Upper secondary,no,no,A,1,when,L1,unsyncopated,when,when,35,Online_whenL1//c.ro25.none.wav,la,pu,cho,sil,ki,fo,ze,sil1,ne,ni,sil2,['false alarm'],[0.536899999999946],[0.536899999999946],none,none,,,"[""space""]",ro,3,testConjL2Syn//r2.s1.2.wav,2.0,conjunction_syn,syncopated,b,s1,rule,rule,L2,m,1.7516,5.0,0.0,1.8178,4.0,2.0,Català,0.0,Castellà,6.0,Inglés,6.0,Francés,14.0,5.0,3.0,yes,no,yes,Saxo,10,,,"Mientras tanto me iba apareciendo a la mente pensamientos. No estaba 100% concentrado. He intentado estarlo todo lo posible, pero mi mente me iba diciendo ""tienes que comprar eso"" o me acordaba de citas con chicos etc. Pero me ha gustado mucho el experimento, repetiría y si queréis se lo paso a conocides. Gracias!",66.0,yes
36,2024-02-25_24h18.06.660,Unsyncopated_study3,s123,24.0,masculino,right,Catalunya - Espanya,Català,Upper secondary,no,no,A,1,when,L1,unsyncopated,when,when,36,Online_whenL1//b.ta2.1332.wav,zu,ni,pu,sil,ri,ne,ta,sil1,ze,fa,sil2,['catch'],[1.6894000000004326],[1.6894000000004326],1.332,no_beat,0.3574000000004325,0.3574000000004325,"[""space""]",ta,1,testConjL2Syn//r1.s1.1.wav,2.0,conjunction_syn,syncopated,a,s1,rule,rule,L2,z,1.052,3.0,1.0,1.4188,4.0,2.0,Català,0.0,Castellà,6.0,Inglés,6.0,Francés,14.0,5.0,3.0,yes,no,yes,Saxo,10,,,"Mientras tanto me iba apareciendo a la mente pensamientos. No estaba 100% concentrado. He intentado estarlo todo lo posible, pero mi mente me iba diciendo ""tienes que comprar eso"" o me acordaba de citas con chicos etc. Pero me ha gustado mucho el experimento, repetiría y si queréis se lo paso a conocides. Gracias!",66.0,yes
37,2024-02-25_24h18.06.660,Unsyncopated_study3,s123,24.0,masculino,right,Catalunya - Espanya,Català,Upper secondary,no,no,A,1,when,L1,unsyncopated,when,when,37,Online_whenL1//b.ta1.none.wav,ki,cho,fa,sil,ne,ze,ri,sil1,be,la,sil2,['-'],,,none,none,,,,ta,1,testConjL2Syn//r1.s2.2.wav,2.0,conjunction_syn,syncopated,a,s2,rule,rule,L2,m,1.0901,5.0,0.0,1.1683,4.0,2.0,Català,0.0,Castellà,6.0,Inglés,6.0,Francés,14.0,5.0,3.0,yes,no,yes,Saxo,10,,,"Mientras tanto me iba apareciendo a la mente pensamientos. No estaba 100% concentrado. He intentado estarlo todo lo posible, pero mi mente me iba diciendo ""tienes que comprar eso"" o me acordaba de citas con chicos etc. Pero me ha gustado mucho el experimento, repetiría y si queréis se lo paso a conocides. Gracias!",66.0,yes
38,2024-02-25_24h18.06.660,Unsyncopated_study3,s123,24.0,masculino,right,Catalunya - Espanya,Català,Upper secondary,no,no,A,1,when,L1,unsyncopated,when,when,38,Online_whenL1//b.ta3.222.wav,ri,ta,fo,sil,ro,ni,pu,sil1,zu,ne,sil2,['catch'],[0.7482999999998583],[0.7482999999998583],0.222,no_beat,0.5262999999998583,0.5262999999998583,"[""space""]",ta,1,testConjL2Syn//r2.s1.0.wav,2.0,conjunction_syn,syncopated,b,s1,rule,rule,L2,z,1.4518,2.0,1.0,2.0432,4.0,2.0,Català,0.0,Castellà,6.0,Inglés,6.0,Francés,14.0,5.0,3.0,yes,no,yes,Saxo,10,,,"Mientras tanto me iba apareciendo a la mente pensamientos. No estaba 100% concentrado. He intentado estarlo todo lo posible, pero mi mente me iba diciendo ""tienes que comprar eso"" o me acordaba de citas con chicos etc. Pero me ha gustado mucho el experimento, repetiría y si queréis se lo paso a conocides. Gracias!",66.0,yes
39,2024-02-25_24h18.06.660,Unsyncopated_study3,s123,24.0,masculino,right,Catalunya - Espanya,Català,Upper secondary,no,no,A,1,when,L1,unsyncopated,when,when,39,Online_whenL1//b.ta0.none.wav,ri,lu,ze,sil,zu,la,pu,sil1,cho,be,sil2,['-'],,,none,none,,,,ta,1,testConjL2Syn//r2.s2.0.wav,2.0,conjunction_syn,syncopated,b,s2,rule,rule,L2,m,1.8565,5.0,0.0,1.2754,4.0,2.0,Català,0.0,Castellà,6.0,Inglés,6.0,Francés,14.0,5.0,3.0,yes,no,yes,Saxo,10,,,"Mientras tanto me iba apareciendo a la mente pensamientos. No estaba 100% concentrado. He intentado estarlo todo lo posible, pero mi mente me iba diciendo ""tienes que comprar eso"" o me acordaba de citas con chicos etc. Pero me ha gustado mucho el experimento, repetiría y si queréis se lo paso a conocides. Gracias!",66.0,yes
40,2024-02-25_24h18.06.660,Unsyncopated_study3,s123,24.0,masculino,right,Catalunya - Espanya,Català,Upper secondary,no,no,A,1,when,L1,unsyncopated,when,when,40,Online_whenL1//d.ne25.none.wav,lu,la,ri,sil,ta,ni,zu,sil1,ze,ki,sil2,['-'],,,none,none,,,,ne,4,testConjL2Syn//dep_viol.r1.s2.0.wav,2.0,conjunction_syn,syncopated,a,s2,no_rule,dep,L2,z,0.9188,4.0,0.0,0.5554,4.0,2.0,Català,0.0,Castellà,6.0,Inglés,6.0,Francés,14.0,5.0,3.0,yes,no,yes,Saxo,10,,,"Mientras tanto me iba apareciendo a la mente pensamientos. No estaba 100% concentrado. He intentado estarlo todo lo posible, pero mi mente me iba diciendo ""tienes que comprar eso"" o me acordaba de citas con chicos etc. Pero me ha gustado mucho el experimento, repetiría y si queréis se lo paso a conocides. Gracias!",66.0,yes
41,2024-02-25_24h18.06.660,Unsyncopated_study3,s123,24.0,masculino,right,Catalunya - Espanya,Català,Upper secondary,no,no,A,1,when,L1,unsyncopated,when,when,41,Online_whenL1//d.ne24.none.wav,ri,ze,cho,sil,pu,lu,fo,sil1,ki,ni,sil2,['-'],,,none,none,,,,ne,4,testConjL2Syn//r1.s2.0.wav,2.0,conjunction_syn,syncopated,a,s2,rule,rule,L2,z,0.4507,6.0,1.0,0.8767,4.0,2.0,Català,0.0,Castellà,6.0,Inglés,6.0,Francés,14.0,5.0,3.0,yes,no,yes,Saxo,10,,,"Mientras tanto me iba apareciendo a la mente pensamientos. No estaba 100% concentrado. He intentado estarlo todo lo posible, pero mi mente me iba diciendo ""tienes que comprar eso"" o me acordaba de citas con chicos etc. Pero me ha gustado mucho el experimento, repetiría y si queréis se lo paso a conocides. Gracias!",66.0,yes
42,2024-02-25_24h18.06.660,Unsyncopated_study3,s123,24.0,masculino,right,Catalunya - Espanya,Català,Upper secondary,no,no,A,1,when,L1,unsyncopated,when,when,42,Online_whenL1//d.ne26.none.wav,fo,lu,be,sil,ro,ta,ri,sil1,fa,ni,sil2,['-'],,,none,none,,,,ne,4,testConjL2Syn//time_viol.r2.s1.0.wav,2.0,conjunction_syn,syncopated,b,s1,no_rule,time,L2,z,1.3058,7.0,0.0,0.4062,4.0,2.0,Català,0.0,Castellà,6.0,Inglés,6.0,Francés,14.0,5.0,3.0,yes,no,yes,Saxo,10,,,"Mientras tanto me iba apareciendo a la mente pensamientos. No estaba 100% concentrado. He intentado estarlo todo lo posible, pero mi mente me iba diciendo ""tienes que comprar eso"" o me acordaba de citas con chicos etc. Pero me ha gustado mucho el experimento, repetiría y si queréis se lo paso a conocides. Gracias!",66.0,yes
43,2024-02-25_24h18.06.660,Unsyncopated_study3,s123,24.0,masculino,right,Catalunya - Espanya,Català,Upper secondary,no,no,A,1,when,L1,unsyncopated,when,when,43,Online_whenL1//d.ne27.none.wav,ta,zu,ni,sil,lu,ri,fa,sil1,fo,be,sil2,['-'],,,none,none,,,,ne,4,testConjL2Syn//time_viol.r2.s2.0.wav,2.0,conjunction_syn,syncopated,b,s2,no_rule,time,L2,z,0.8357,4.0,0.0,0.737,4.0,2.0,Català,0.0,Castellà,6.0,Inglés,6.0,Francés,14.0,5.0,3.0,yes,no,yes,Saxo,10,,,"Mientras tanto me iba apareciendo a la mente pensamientos. No estaba 100% concentrado. He intentado estarlo todo lo posible, pero mi mente me iba diciendo ""tienes que comprar eso"" o me acordaba de citas con chicos etc. Pero me ha gustado mucho el experimento, repetiría y si queréis se lo paso a conocides. Gracias!",66.0,yes
44,2024-02-25_24h18.06.660,Unsyncopated_study3,s123,24.0,masculino,right,Catalunya - Espanya,Català,Upper secondary,no,no,A,1,when,L1,unsyncopated,when,when,44,Online_whenL1//d.ne4.1998.wav,fo,ki,ta,sil,ri,cho,zu,sil1,ni,ne,sil2,['catch'],[2.5418000000003076],[2.5418000000003076],1.998,no_beat,0.5438000000003076,0.5438000000003076,"[""space""]",ne,4,testConjL2Syn//cat_viol.r2.s2.0.wav,2.0,conjunction_syn,syncopated,b,s2,no_rule,cat,L2,z,1.1222,2.0,0.0,0.8846,4.0,2.0,Català,0.0,Castellà,6.0,Inglés,6.0,Francés,14.0,5.0,3.0,yes,no,yes,Saxo,10,,,"Mientras tanto me iba apareciendo a la mente pensamientos. No estaba 100% concentrado. He intentado estarlo todo lo posible, pero mi mente me iba diciendo ""tienes que comprar eso"" o me acordaba de citas con chicos etc. Pero me ha gustado mucho el experimento, repetiría y si queréis se lo paso a conocides. Gracias!",66.0,yes
45,2024-02-25_24h18.06.660,Unsyncopated_study3,s123,24.0,masculino,right,Catalunya - Espanya,Català,Upper secondary,no,no,A,1,when,L1,unsyncopated,when,when,45,Online_whenL1//d.ne6.444.wav,fo,pu,ne,sil,cho,ro,lu,sil1,ki,zu,sil2,['catch'],[1.1231000000000222],[1.1231000000000222],0.444,no_beat,0.6791000000000222,0.6791000000000222,"[""space""]",ne,4,testConjL2Syn//r1.s2.1.wav,2.0,conjunction_syn,syncopated,a,s2,rule,rule,L2,z,1.0614,5.0,1.0,0.7341,4.0,2.0,Català,0.0,Castellà,6.0,Inglés,6.0,Francés,14.0,5.0,3.0,yes,no,yes,Saxo,10,,,"Mientras tanto me iba apareciendo a la mente pensamientos. No estaba 100% concentrado. He intentado estarlo todo lo posible, pero mi mente me iba diciendo ""tienes que comprar eso"" o me acordaba de citas con chicos etc. Pero me ha gustado mucho el experimento, repetiría y si queréis se lo paso a conocides. Gracias!",66.0,yes
46,2024-02-25_24h18.06.660,Unsyncopated_study3,s123,24.0,masculino,right,Catalunya - Espanya,Català,Upper secondary,no,no,A,1,when,L1,unsyncopated,when,when,46,Online_whenL1//d.ne7.none.wav,ri,lu,ki,sil,zu,ni,ta,sil1,cho,ro,sil2,['-'],,,none,none,,,,ne,4,testConjL2Syn//cat_viol.r1.s2.0.wav,2.0,conjunction_syn,syncopated,a,s2,no_rule,cat,L2,z,0.7682,4.0,0.0,1.3858,4.0,2.0,Català,0.0,Castellà,6.0,Inglés,6.0,Francés,14.0,5.0,3.0,yes,no,yes,Saxo,10,,,"Mientras tanto me iba apareciendo a la mente pensamientos. No estaba 100% concentrado. He intentado estarlo todo lo posible, pero mi mente me iba diciendo ""tienes que comprar eso"" o me acordaba de citas con chicos etc. Pero me ha gustado mucho el experimento, repetiría y si queréis se lo paso a conocides. Gracias!",66.0,yes
47,2024-02-25_24h18.06.660,Unsyncopated_study3,s123,24.0,masculino,right,Catalunya - Espanya,Català,Upper secondary,no,no,A,1,when,L1,unsyncopated,when,when,47,Online_whenL1//d.ne5.none.wav,zu,ta,lu,sil,la,ni,ri,sil1,fa,be,sil2,['false alarm'],[1.9340000000000828],[1.9340000000000828],none,none,,,"[""space""]",ne,4,testConjL2Syn//r1.s1.0.wav,2.0,conjunction_syn,syncopated,a,s1,rule,rule,L2,m,2.268,4.0,0.0,1.9602,4.0,2.0,Català,0.0,Castellà,6.0,Inglés,6.0,Francés,14.0,5.0,3.0,yes,no,yes,Saxo,10,,,"Mientras tanto me iba apareciendo a la mente pensamientos. No estaba 100% concentrado. He intentado estarlo todo lo posible, pero mi mente me iba diciendo ""tienes que comprar eso"" o me acordaba de citas con chicos etc. Pero me ha gustado mucho el experimento, repetiría y si queréis se lo paso a conocides. Gracias!",66.0,yes
48,2024-02-25_24h18.06.660,Unsyncopated_study3,s123,24.0,masculino,right,Catalunya - Espanya,Català,Upper secondary,no,no,A,1,when,L1,unsyncopated,when,when,48,Online_whenL1//d.ne13.none.wav,ro,cho,fa,sil,lu,ki,ze,sil1,be,fo,sil2,['-'],,,none,none,,,,ne,4,testConjL3Uns//r1.s1.0.wav,3.0,conjunction_un,unsyncopated,a,s1,rule,rule,L3,z,2.2124,3.0,1.0,1.174,4.0,2.0,Català,0.0,Castellà,6.0,Inglés,6.0,Francés,14.0,5.0,3.0,yes,no,yes,Saxo,10,,,"Mientras tanto me iba apareciendo a la mente pensamientos. No estaba 100% concentrado. He intentado estarlo todo lo posible, pero mi mente me iba diciendo ""tienes que comprar eso"" o me acordaba de citas con chicos etc. Pero me ha gustado mucho el experimento, repetiría y si queréis se lo paso a conocides. Gracias!",66.0,yes
49,2024-02-25_24h18.06.660,Unsyncopated_study3,s123,24.0,masculino,right,Catalunya - Espanya,Català,Upper secondary,no,no,A,1,when,L1,unsyncopated,when,when,49,Online_whenL1//d.ne15.444.wav,be,la,ne,sil,fo,pu,ro,sil1,fa,lu,sil2,['miss'],,,0.444,no_beat,,,,ne,4,testConjL3Uns//time_viol.r2.s1.0.wav,3.0,conjunction_un,unsyncopated,b,s1,no_rule,time,L3,z,1.6334,4.0,0.0,0.9159,4.0,2.0,Català,0.0,Castellà,6.0,Inglés,6.0,Francés,14.0,5.0,3.0,yes,no,yes,Saxo,10,,,"Mientras tanto me iba apareciendo a la mente pensamientos. No estaba 100% concentrado. He intentado estarlo todo lo posible, pero mi mente me iba diciendo ""tienes que comprar eso"" o me acordaba de citas con chicos etc. Pero me ha gustado mucho el experimento, repetiría y si queréis se lo paso a conocides. Gracias!",66.0,yes
50,2024-02-25_24h18.06.660,Unsyncopated_study3,s123,24.0,masculino,right,Catalunya - Espanya,Català,Upper secondary,no,no,A,1,when,L1,unsyncopated,when,when,50,Online_whenL1//d.ne14.none.wav,ro,lu,cho,sil,ni,pu,ri,sil1,be,zu,sil2,['-'],,,none,none,,,,ne,4,testConjL3Uns//cat_viol.r2.s1.0.wav,3.0,conjunction_un,unsyncopated,b,s1,no_rule,cat,L3,z,1.2853,3.0,0.0,0.5347,4.0,2.0,Català,0.0,Castellà,6.0,Inglés,6.0,Francés,14.0,5.0,3.0,yes,no,yes,Saxo,10,,,"Mientras tanto me iba apareciendo a la mente pensamientos. No estaba 100% concentrado. He intentado estarlo todo lo posible, pero mi mente me iba diciendo ""tienes que comprar eso"" o me acordaba de citas con chicos etc. Pero me ha gustado mucho el experimento, repetiría y si queréis se lo paso a conocides. Gracias!",66.0,yes
51,2024-02-25_24h18.06.660,Unsyncopated_study3,s123,24.0,masculino,right,Catalunya - Espanya,Català,Upper secondary,no,no,A,1,when,L1,unsyncopated,when,when,51,Online_whenL1//d.ne12.888.wav,fo,be,zu,sil,ne,ro,ze,sil1,ni,ta,sil2,['catch'],[1.43649999999991],[1.43649999999991],0.888,beat,0.54849999999991,0.54849999999991,"[""space""]",ne,4,testConjL3Uns//dep_viol.r2.s2.0.wav,3.0,conjunction_un,unsyncopated,b,s2,no_rule,dep,L3,z,1.2686,4.0,0.0,0.7679,4.0,2.0,Català,0.0,Castellà,6.0,Inglés,6.0,Francés,14.0,5.0,3.0,yes,no,yes,Saxo,10,,,"Mientras tanto me iba apareciendo a la mente pensamientos. No estaba 100% concentrado. He intentado estarlo todo lo posible, pero mi mente me iba diciendo ""tienes que comprar eso"" o me acordaba de citas con chicos etc. Pero me ha gustado mucho el experimento, repetiría y si queréis se lo paso a conocides. Gracias!",66.0,yes
52,2024-02-25_24h18.06.660,Unsyncopated_study3,s123,24.0,masculino,right,Catalunya - Espanya,Català,Upper secondary,no,no,A,1,when,L1,unsyncopated,when,when,52,Online_whenL1//b.ta8.0.wav,ta,ki,lu,sil,cho,ne,ro,sil1,fo,ri,sil2,['catch'],[0.7575999999996839],[0.7575999999996839],0.0,beat,0.7575999999996839,0.7575999999996839,"[""space""]",ta,1,testConjL3Uns//dep_viol.r1.s1.0.wav,3.0,conjunction_un,unsyncopated,a,s1,no_rule,dep,L3,z,0.9201,3.0,0.0,0.5019,4.0,2.0,Català,0.0,Castellà,6.0,Inglés,6.0,Francés,14.0,5.0,3.0,yes,no,yes,Saxo,10,,,"Mientras tanto me iba apareciendo a la mente pensamientos. No estaba 100% concentrado. He intentado estarlo todo lo posible, pero mi mente me iba diciendo ""tienes que comprar eso"" o me acordaba de citas con chicos etc. Pero me ha gustado mucho el experimento, repetiría y si queréis se lo paso a conocides. Gracias!",66.0,yes
53,2024-02-25_24h18.06.660,Unsyncopated_study3,s123,24.0,masculino,right,Catalunya - Espanya,Català,Upper secondary,no,no,A,1,when,L1,unsyncopated,when,when,53,Online_whenL1//b.ta9.0.wav,ta,ri,ni,sil,ki,ro,ze,sil1,lu,la,sil2,['catch'],[0.7220999999996138],[0.7220999999996138],0.0,beat,0.7220999999996138,0.7220999999996138,"[""space""]",ta,1,testConjL3Uns//r2.s1.1.wav,3.0,conjunction_un,unsyncopated,b,s1,rule,rule,L3,m,0.9685,2.0,0.0,1.4398,4.0,2.0,Català,0.0,Castellà,6.0,Inglés,6.0,Francés,14.0,5.0,3.0,yes,no,yes,Saxo,10,,,"Mientras tanto me iba apareciendo a la mente pensamientos. No estaba 100% concentrado. He intentado estarlo todo lo posible, pero mi mente me iba diciendo ""tienes que comprar eso"" o me acordaba de citas con chicos etc. Pero me ha gustado mucho el experimento, repetiría y si queréis se lo paso a conocides. Gracias!",66.0,yes
54,2024-02-25_24h18.06.660,Unsyncopated_study3,s123,24.0,masculino,right,Catalunya - Espanya,Català,Upper secondary,no,no,A,1,when,L1,unsyncopated,when,when,54,Online_whenL1//b.ta11.none.wav,cho,pu,ri,sil,ro,zu,lu,sil1,ki,fa,sil2,['-'],,,none,none,,,,ta,1,testConjL3Uns//time_viol.r2.s2.0.wav,3.0,conjunction_un,unsyncopated,b,s2,no_rule,time,L3,m,0.7842,7.0,1.0,0.8697,4.0,2.0,Català,0.0,Castellà,6.0,Inglés,6.0,Francés,14.0,5.0,3.0,yes,no,yes,Saxo,10,,,"Mientras tanto me iba apareciendo a la mente pensamientos. No estaba 100% concentrado. He intentado estarlo todo lo posible, pero mi mente me iba diciendo ""tienes que comprar eso"" o me acordaba de citas con chicos etc. Pero me ha gustado mucho el experimento, repetiría y si queréis se lo paso a conocides. Gracias!",66.0,yes
55,2024-02-25_24h18.06.660,Unsyncopated_study3,s123,24.0,masculino,right,Catalunya - Espanya,Català,Upper secondary,no,no,A,1,when,L1,unsyncopated,when,when,55,Online_whenL1//b.ta10.none.wav,lu,ro,la,sil,be,ze,ki,sil1,fo,ne,sil2,['-'],,,none,none,,,,ta,1,testConjL3Uns//r1.s1.1.wav,3.0,conjunction_un,unsyncopated,a,s1,rule,rule,L3,m,1.403,7.0,0.0,1.3685,4.0,2.0,Català,0.0,Castellà,6.0,Inglés,6.0,Francés,14.0,5.0,3.0,yes,no,yes,Saxo,10,,,"Mientras tanto me iba apareciendo a la mente pensamientos. No estaba 100% concentrado. He intentado estarlo todo lo posible, pero mi mente me iba diciendo ""tienes que comprar eso"" o me acordaba de citas con chicos etc. Pero me ha gustado mucho el experimento, repetiría y si queréis se lo paso a conocides. Gracias!",66.0,yes
56,2024-02-25_24h18.06.660,Unsyncopated_study3,s123,24.0,masculino,right,Catalunya - Espanya,Català,Upper secondary,no,no,A,1,when,L1,unsyncopated,when,when,56,Online_whenL1//a.ki31.0.wav,ki,ze,cho,sil,ri,lu,ta,sil1,ro,fa,sil2,['catch'],[0.6851999999996679],[0.6851999999996679],0.0,beat,0.6851999999996679,0.6851999999996679,"[""space""]",ki,2,testConjL3Uns//dep_viol.r1.s2.0.wav,3.0,conjunction_un,unsyncopated,a,s2,no_rule,dep,L3,m,2.3002,5.0,1.0,0.7135,4.0,2.0,Català,0.0,Castellà,6.0,Inglés,6.0,Francés,14.0,5.0,3.0,yes,no,yes,Saxo,10,,,"Mientras tanto me iba apareciendo a la mente pensamientos. No estaba 100% concentrado. He intentado estarlo todo lo posible, pero mi mente me iba diciendo ""tienes que comprar eso"" o me acordaba de citas con chicos etc. Pero me ha gustado mucho el experimento, repetiría y si queréis se lo paso a conocides. Gracias!",66.0,yes
57,2024-02-25_24h18.06.660,Unsyncopated_study3,s123,24.0,masculino,right,Catalunya - Espanya,Català,Upper secondary,no,no,A,1,when,L1,unsyncopated,when,when,57,Online_whenL1//a.ki28.1998.wav,la,fa,ze,sil,zu,ta,ri,sil1,ni,ki,sil2,['catch'],[2.6378000000003112],[2.6378000000003112],1.998,no_beat,0.6398000000003112,0.6398000000003112,"[""space""]",ki,2,testConjL3Uns//time_viol.r1.s2.0.wav,3.0,conjunction_un,unsyncopated,a,s2,no_rule,time,L3,m,0.7223,4.0,1.0,0.7293,4.0,2.0,Català,0.0,Castellà,6.0,Inglés,6.0,Francés,14.0,5.0,3.0,yes,no,yes,Saxo,10,,,"Mientras tanto me iba apareciendo a la mente pensamientos. No estaba 100% concentrado. He intentado estarlo todo lo posible, pero mi mente me iba diciendo ""tienes que comprar eso"" o me acordaba de citas con chicos etc. Pero me ha gustado mucho el experimento, repetiría y si queréis se lo paso a conocides. Gracias!",66.0,yes
58,2024-02-25_24h18.06.660,Unsyncopated_study3,s123,24.0,masculino,right,Catalunya - Espanya,Català,Upper secondary,no,no,A,1,when,L1,unsyncopated,when,when,58,Online_whenL1//a.ki29.none.wav,be,fa,ta,sil,zu,lu,ze,sil1,ri,ro,sil2,['-'],,,none,none,,,,ki,2,testConjL3Uns//r1.s2.0.wav,3.0,conjunction_un,unsyncopated,a,s2,rule,rule,L3,z,0.735,7.0,1.0,1.1864,4.0,2.0,Català,0.0,Castellà,6.0,Inglés,6.0,Francés,14.0,5.0,3.0,yes,no,yes,Saxo,10,,,"Mientras tanto me iba apareciendo a la mente pensamientos. No estaba 100% concentrado. He intentado estarlo todo lo posible, pero mi mente me iba diciendo ""tienes que comprar eso"" o me acordaba de citas con chicos etc. Pero me ha gustado mucho el experimento, repetiría y si queréis se lo paso a conocides. Gracias!",66.0,yes
59,2024-02-25_24h18.06.660,Unsyncopated_study3,s123,24.0,masculino,right,Catalunya - Espanya,Català,Upper secondary,no,no,A,1,when,L1,unsyncopated,when,when,59,Online_whenL1//a.ki30.none.wav,ta,fa,ze,sil,pu,ne,fo,sil1,ni,zu,sil2,['-'],,,none,none,,,,ki,2,testConjL3Uns//r2.s2.2.wav,3.0,conjunction_un,unsyncopated,b,s2,rule,rule,L3,z,0.5337,5.0,1.0,0.7387,4.0,2.0,Català,0.0,Castellà,6.0,Inglés,6.0,Francés,14.0,5.0,3.0,yes,no,yes,Saxo,10,,,"Mientras tanto me iba apareciendo a la mente pensamientos. No estaba 100% concentrado. He intentado estarlo todo lo posible, pero mi mente me iba diciendo ""tienes que comprar eso"" o me acordaba de citas con chicos etc. Pero me ha gustado mucho el experimento, repetiría y si queréis se lo paso a conocides. Gracias!",66.0,yes
60,2024-02-25_24h18.06.660,Unsyncopated_study3,s123,24.0,masculino,right,Catalunya - Espanya,Català,Upper secondary,no,no,A,1,when,L1,unsyncopated,when,when,60,Online_whenL1//a.ki34.none.wav,ni,be,ro,sil,fo,cho,pu,sil1,ri,ze,sil2,['-'],,,none,none,,,,ki,2,testConjL3Uns//r1.s1.2.wav,3.0,conjunction_un,unsyncopated,a,s1,rule,rule,L3,z,1.1507,5.0,1.0,0.7715,4.0,2.0,Català,0.0,Castellà,6.0,Inglés,6.0,Francés,14.0,5.0,3.0,yes,no,yes,Saxo,10,,,"Mientras tanto me iba apareciendo a la mente pensamientos. No estaba 100% concentrado. He intentado estarlo todo lo posible, pero mi mente me iba diciendo ""tienes que comprar eso"" o me acordaba de citas con chicos etc. Pero me ha gustado mucho el experimento, repetiría y si queréis se lo paso a conocides. Gracias!",66.0,yes
61,2024-02-25_24h18.06.660,Unsyncopated_study3,s123,24.0,masculino,right,Catalunya - Espanya,Català,Upper secondary,no,no,A,1,when,L1,unsyncopated,when,when,61,Online_whenL1//a.ki35.none.wav,ne,la,fo,sil,cho,ta,ni,sil1,ri,be,sil2,['-'],,,none,none,,,,ki,2,testConjL3Uns//r1.s2.2.wav,3.0,conjunction_un,unsyncopated,a,s2,rule,rule,L3,m,0.6407,4.0,0.0,1.075,4.0,2.0,Català,0.0,Castellà,6.0,Inglés,6.0,Francés,14.0,5.0,3.0,yes,no,yes,Saxo,10,,,"Mientras tanto me iba apareciendo a la mente pensamientos. No estaba 100% concentrado. He intentado estarlo todo lo posible, pero mi mente me iba diciendo ""tienes que comprar eso"" o me acordaba de citas con chicos etc. Pero me ha gustado mucho el experimento, repetiría y si queréis se lo paso a conocides. Gracias!",66.0,yes
62,2024-02-25_24h18.06.660,Unsyncopated_study3,s123,24.0,masculino,right,Catalunya - Espanya,Català,Upper secondary,no,no,A,1,when,L1,unsyncopated,when,when,62,Online_whenL1//a.ki32.1110.wav,cho,ro,ne,sil,ri,ki,zu,sil1,ze,be,sil2,['catch'],[1.5992999999997437],[1.5992999999997437],1.11,no_beat,0.4892999999997436,0.4892999999997436,"[""space""]",ki,2,testConjL3Uns//r1.s2.1.wav,3.0,conjunction_un,unsyncopated,a,s2,rule,rule,L3,m,1.3009,1.0,0.0,0.7852,4.0,2.0,Català,0.0,Castellà,6.0,Inglés,6.0,Francés,14.0,5.0,3.0,yes,no,yes,Saxo,10,,,"Mientras tanto me iba apareciendo a la mente pensamientos. No estaba 100% concentrado. He intentado estarlo todo lo posible, pero mi mente me iba diciendo ""tienes que comprar eso"" o me acordaba de citas con chicos etc. Pero me ha gustado mucho el experimento, repetiría y si queréis se lo paso a conocides. Gracias!",66.0,yes
63,2024-02-25_24h18.06.660,Unsyncopated_study3,s123,24.0,masculino,right,Catalunya - Espanya,Català,Upper secondary,no,no,A,1,when,L1,unsyncopated,when,when,63,Online_whenL1//a.ki33.1332.wav,fa,be,ne,sil,la,ni,ki,sil1,ro,zu,sil2,['catch'],[1.968499999999949],[1.968499999999949],1.332,no_beat,0.636499999999949,0.636499999999949,"[""space""]",ki,2,testConjL3Uns//r2.s1.0.wav,3.0,conjunction_un,unsyncopated,b,s1,rule,rule,L3,z,0.7844,3.0,1.0,0.9846,4.0,2.0,Català,0.0,Castellà,6.0,Inglés,6.0,Francés,14.0,5.0,3.0,yes,no,yes,Saxo,10,,,"Mientras tanto me iba apareciendo a la mente pensamientos. No estaba 100% concentrado. He intentado estarlo todo lo posible, pero mi mente me iba diciendo ""tienes que comprar eso"" o me acordaba de citas con chicos etc. Pero me ha gustado mucho el experimento, repetiría y si queréis se lo paso a conocides. Gracias!",66.0,yes
64,2024-02-25_24h18.06.660,Unsyncopated_study3,s123,24.0,masculino,right,Catalunya - Espanya,Català,Upper secondary,no,no,A,1,when,L1,unsyncopated,when,when,64,Online_whenL1//c.ro0.222.wav,zu,ro,ze,sil,ri,fo,pu,sil1,ki,lu,sil2,['catch'],[0.9436000000000604],[0.9436000000000604],0.222,no_beat,0.7216000000000604,0.7216000000000604,"[""space""]",ro,3,testConjL3Uns//cat_viol.r2.s2.0.wav,3.0,conjunction_un,unsyncopated,b,s2,no_rule,cat,L3,m,0.6002,4.0,1.0,1.0004,4.0,2.0,Català,0.0,Castellà,6.0,Inglés,6.0,Francés,14.0,5.0,3.0,yes,no,yes,Saxo,10,,,"Mientras tanto me iba apareciendo a la mente pensamientos. No estaba 100% concentrado. He intentado estarlo todo lo posible, pero mi mente me iba diciendo ""tienes que comprar eso"" o me acordaba de citas con chicos etc. Pero me ha gustado mucho el experimento, repetiría y si queréis se lo paso a conocides. Gracias!",66.0,yes
65,2024-02-25_24h18.06.660,Unsyncopated_study3,s123,24.0,masculino,right,Catalunya - Espanya,Català,Upper secondary,no,no,A,1,when,L1,unsyncopated,when,when,65,Online_whenL1//c.ro3.444.wav,ze,be,ro,sil,ri,pu,cho,sil1,lu,fa,sil2,['miss'],,,0.444,no_beat,,,,ro,3,testConjL3Uns//cat_viol.r1.s1.0.wav,3.0,conjunction_un,unsyncopated,a,s1,no_rule,cat,L3,z,0.5017,3.0,0.0,0.8185,4.0,2.0,Català,0.0,Castellà,6.0,Inglés,6.0,Francés,14.0,5.0,3.0,yes,no,yes,Saxo,10,,,"Mientras tanto me iba apareciendo a la mente pensamientos. No estaba 100% concentrado. He intentado estarlo todo lo posible, pero mi mente me iba diciendo ""tienes que comprar eso"" o me acordaba de citas con chicos etc. Pero me ha gustado mucho el experimento, repetiría y si queréis se lo paso a conocides. Gracias!",66.0,yes
66,2024-02-25_24h18.06.660,Unsyncopated_study3,s123,24.0,masculino,right,Catalunya - Espanya,Català,Upper secondary,no,no,A,1,when,L1,unsyncopated,when,when,66,Online_whenL1//c.ro1.none.wav,fo,be,cho,sil,lu,ze,ni,sil1,pu,la,sil2,['-'],,,none,none,,,,ro,3,testConjL3Uns//dep_viol.r2.s1.0.wav,3.0,conjunction_un,unsyncopated,b,s1,no_rule,dep,L3,z,0.4528,6.0,0.0,0.9836,4.0,2.0,Català,0.0,Castellà,6.0,Inglés,6.0,Francés,14.0,5.0,3.0,yes,no,yes,Saxo,10,,,"Mientras tanto me iba apareciendo a la mente pensamientos. No estaba 100% concentrado. He intentado estarlo todo lo posible, pero mi mente me iba diciendo ""tienes que comprar eso"" o me acordaba de citas con chicos etc. Pero me ha gustado mucho el experimento, repetiría y si queréis se lo paso a conocides. Gracias!",66.0,yes
67,2024-02-25_24h18.06.660,Unsyncopated_study3,s123,24.0,masculino,right,Catalunya - Espanya,Català,Upper secondary,no,no,A,1,when,L1,unsyncopated,when,when,67,Online_whenL1//c.ro2.1110.wav,fo,be,ri,sil,ni,ro,ta,sil1,la,zu,sil2,['catch'],[1.6833000000002585],[1.6833000000002585],1.11,no_beat,0.5733000000002584,0.5733000000002584,"[""space""]",ro,3,testConjL3Uns//cat_viol.r1.s2.0.wav,3.0,conjunction_un,unsyncopated,a,s2,no_rule,cat,L3,m,1.5701,2.0,1.0,0.6367,4.0,2.0,Català,0.0,Castellà,6.0,Inglés,6.0,Francés,14.0,5.0,3.0,yes,no,yes,Saxo,10,,,"Mientras tanto me iba apareciendo a la mente pensamientos. No estaba 100% concentrado. He intentado estarlo todo lo posible, pero mi mente me iba diciendo ""tienes que comprar eso"" o me acordaba de citas con chicos etc. Pero me ha gustado mucho el experimento, repetiría y si queréis se lo paso a conocides. Gracias!",66.0,yes
68,2024-02-25_24h18.06.660,Unsyncopated_study3,s123,24.0,masculino,right,Catalunya - Espanya,Català,Upper secondary,no,no,A,1,when,L1,unsyncopated,when,when,68,Online_whenL1//a.ki15.none.wav,ri,ta,fa,sil,fo,ne,be,sil1,ro,ze,sil2,['-'],,,none,none,,,,ki,2,testConjL3Uns//time_viol.r1.s1.0.wav,3.0,conjunction_un,unsyncopated,a,s1,no_rule,time,L3,z,1.3351,2.0,0.0,0.5008,4.0,2.0,Català,0.0,Castellà,6.0,Inglés,6.0,Francés,14.0,5.0,3.0,yes,no,yes,Saxo,10,,,"Mientras tanto me iba apareciendo a la mente pensamientos. No estaba 100% concentrado. He intentado estarlo todo lo posible, pero mi mente me iba diciendo ""tienes que comprar eso"" o me acordaba de citas con chicos etc. Pero me ha gustado mucho el experimento, repetiría y si queréis se lo paso a conocides. Gracias!",66.0,yes
69,2024-02-25_24h18.06.660,Unsyncopated_study3,s123,24.0,masculino,right,Catalunya - Espanya,Català,Upper secondary,no,no,A,1,when,L1,unsyncopated,when,when,69,Online_whenL1//a.ki14.444.wav,fo,ni,ki,sil,ri,zu,la,sil1,ro,pu,sil2,"['false alarm', 'catch']","[0.11520000000018626, 1.1309999999999718]",[1.1309999999999718],0.444,no_beat,0.6869999999999719,0.6869999999999719,"[""space"",""space""]",ki,2,testConjL3Uns//r2.s2.1.wav,3.0,conjunction_un,unsyncopated,b,s2,rule,rule,L3,m,0.4048,5.0,0.0,1.6017,4.0,2.0,Català,0.0,Castellà,6.0,Inglés,6.0,Francés,14.0,5.0,3.0,yes,no,yes,Saxo,10,,,"Mientras tanto me iba apareciendo a la mente pensamientos. No estaba 100% concentrado. He intentado estarlo todo lo posible, pero mi mente me iba diciendo ""tienes que comprar eso"" o me acordaba de citas con chicos etc. Pero me ha gustado mucho el experimento, repetiría y si queréis se lo paso a conocides. Gracias!",66.0,yes
70,2024-02-25_24h18.06.660,Unsyncopated_study3,s123,24.0,masculino,right,Catalunya - Espanya,Català,Upper secondary,no,no,A,1,when,L1,unsyncopated,when,when,70,Online_whenL1//a.ki12.222.wav,pu,ki,zu,sil,cho,ne,fo,sil1,ni,ze,sil2,['miss'],,,0.222,no_beat,,,,ki,2,testConjL3Uns//r2.s2.0.wav,3.0,conjunction_un,unsyncopated,b,s2,rule,rule,L3,z,0.4201,3.0,1.0,0.7179,4.0,2.0,Català,0.0,Castellà,6.0,Inglés,6.0,Francés,14.0,5.0,3.0,yes,no,yes,Saxo,10,,,"Mientras tanto me iba apareciendo a la mente pensamientos. No estaba 100% concentrado. He intentado estarlo todo lo posible, pero mi mente me iba diciendo ""tienes que comprar eso"" o me acordaba de citas con chicos etc. Pero me ha gustado mucho el experimento, repetiría y si queréis se lo paso a conocides. Gracias!",66.0,yes
71,2024-02-25_24h18.06.660,Unsyncopated_study3,s123,24.0,masculino,right,Catalunya - Espanya,Català,Upper secondary,no,no,A,1,when,L1,unsyncopated,when,when,71,Online_whenL1//a.ki13.1332.wav,lu,cho,ri,sil,ta,la,ki,sil1,ne,ro,sil2,['catch'],[2.0653999999998405],[2.0653999999998405],1.332,no_beat,0.7333999999998404,0.7333999999998404,"[""space""]",ki,2,testConjL3Uns//r2.s1.2.wav,3.0,conjunction_un,unsyncopated,b,s1,rule,rule,L3,m,1.4509,4.0,0.0,0.5361,4.0,2.0,Català,0.0,Castellà,6.0,Inglés,6.0,Francés,14.0,5.0,3.0,yes,no,yes,Saxo,10,,,"Mientras tanto me iba apareciendo a la mente pensamientos. No estaba 100% concentrado. He intentado estarlo todo lo posible, pero mi mente me iba diciendo ""tienes que comprar eso"" o me acordaba de citas con chicos etc. Pero me ha gustado mucho el experimento, repetiría y si queréis se lo paso a conocides. Gracias!",66.0,yes
72,2024-02-25_24h18.06.660,Unsyncopated_study3,s123,24.0,masculino,right,Catalunya - Espanya,Català,Upper secondary,no,no,A,1,when,L1,unsyncopated,when,when,72,Online_whenL1//a.ki9.none.wav,la,ro,ze,sil,cho,fa,pu,sil1,ne,ta,sil2,['-'],,,none,none,,,,ki,2,testWhatL4Uns//r2.s2.2.wav,4.0,what,unsyncopated,b,s2,rule,rule,L4,z,3.7509,4.0,1.0,1.5206,4.0,2.0,Català,0.0,Castellà,6.0,Inglés,6.0,Francés,14.0,5.0,3.0,yes,no,yes,Saxo,10,,,"Mientras tanto me iba apareciendo a la mente pensamientos. No estaba 100% concentrado. He intentado estarlo todo lo posible, pero mi mente me iba diciendo ""tienes que comprar eso"" o me acordaba de citas con chicos etc. Pero me ha gustado mucho el experimento, repetiría y si queréis se lo paso a conocides. Gracias!",66.0,yes
73,2024-02-25_24h18.06.660,Unsyncopated_study3,s123,24.0,masculino,right,Catalunya - Espanya,Català,Upper secondary,no,no,A,1,when,L1,unsyncopated,when,when,73,Online_whenL1//a.ki11.none.wav,cho,la,pu,sil,zu,ta,ro,sil1,ni,ri,sil2,['-'],,,none,none,,,,ki,2,testWhatL4Uns//r1.s2.0.wav,4.0,what,unsyncopated,a,s2,rule,rule,L4,m,1.7681,2.0,0.0,1.2236,4.0,2.0,Català,0.0,Castellà,6.0,Inglés,6.0,Francés,14.0,5.0,3.0,yes,no,yes,Saxo,10,,,"Mientras tanto me iba apareciendo a la mente pensamientos. No estaba 100% concentrado. He intentado estarlo todo lo posible, pero mi mente me iba diciendo ""tienes que comprar eso"" o me acordaba de citas con chicos etc. Pero me ha gustado mucho el experimento, repetiría y si queréis se lo paso a conocides. Gracias!",66.0,yes
74,2024-02-25_24h18.06.660,Unsyncopated_study3,s123,24.0,masculino,right,Catalunya - Espanya,Català,Upper secondary,no,no,A,1,when,L1,unsyncopated,when,when,74,Online_whenL1//a.ki10.222.wav,ro,ki,be,sil,la,ri,lu,sil1,fo,fa,sil2,['catch'],[0.8311999999997397],[0.8311999999997397],0.222,no_beat,0.6091999999997397,0.6091999999997397,"[""space""]",ki,2,testWhatL4Uns//r2.s1.2.wav,4.0,what,unsyncopated,b,s1,rule,rule,L4,z,1.3204,5.0,1.0,0.8021,4.0,2.0,Català,0.0,Castellà,6.0,Inglés,6.0,Francés,14.0,5.0,3.0,yes,no,yes,Saxo,10,,,"Mientras tanto me iba apareciendo a la mente pensamientos. No estaba 100% concentrado. He intentado estarlo todo lo posible, pero mi mente me iba diciendo ""tienes que comprar eso"" o me acordaba de citas con chicos etc. Pero me ha gustado mucho el experimento, repetiría y si queréis se lo paso a conocides. Gracias!",66.0,yes
75,2024-02-25_24h18.06.660,Unsyncopated_study3,s123,24.0,masculino,right,Catalunya - Espanya,Català,Upper secondary,no,no,A,1,when,L1,unsyncopated,when,when,75,Online_whenL1//a.ki8.none.wav,ne,fo,zu,sil,pu,be,ni,sil1,ze,la,sil2,['-'],,,none,none,,,,ki,2,testWhatL4Uns//r1.s1.0.wav,4.0,what,unsyncopated,a,s1,rule,rule,L4,z,0.9049,2.0,1.0,0.653,4.0,2.0,Català,0.0,Castellà,6.0,Inglés,6.0,Francés,14.0,5.0,3.0,yes,no,yes,Saxo,10,,,"Mientras tanto me iba apareciendo a la mente pensamientos. No estaba 100% concentrado. He intentado estarlo todo lo posible, pero mi mente me iba diciendo ""tienes que comprar eso"" o me acordaba de citas con chicos etc. Pero me ha gustado mucho el experimento, repetiría y si queréis se lo paso a conocides. Gracias!",66.0,yes
76,2024-02-25_24h18.06.660,Unsyncopated_study3,s123,24.0,masculino,right,Catalunya - Espanya,Català,Upper secondary,no,no,A,1,when,L1,unsyncopated,when,when,76,Online_whenL1//c.ro11.888.wav,ni,fa,ze,sil,ro,ta,ri,sil1,la,be,sil2,['catch'],[1.4437999999997828],[1.4437999999997828],0.888,beat,0.5557999999997828,0.5557999999997828,"[""space""]",ro,3,testWhatL4Uns//cat_viol.r1.s2.0.wav,4.0,what,unsyncopated,a,s2,no_rule,cat,L4,z,0.8865,6.0,0.0,0.718,4.0,2.0,Català,0.0,Castellà,6.0,Inglés,6.0,Francés,14.0,5.0,3.0,yes,no,yes,Saxo,10,,,"Mientras tanto me iba apareciendo a la mente pensamientos. No estaba 100% concentrado. He intentado estarlo todo lo posible, pero mi mente me iba diciendo ""tienes que comprar eso"" o me acordaba de citas con chicos etc. Pero me ha gustado mucho el experimento, repetiría y si queréis se lo paso a conocides. Gracias!",66.0,yes
77,2024-02-25_24h18.06.660,Unsyncopated_study3,s123,24.0,masculino,right,Catalunya - Espanya,Català,Upper secondary,no,no,A,1,when,L1,unsyncopated,when,when,77,Online_whenL1//c.ro9.none.wav,ze,zu,ta,sil,la,lu,fo,sil1,pu,ri,sil2,['-'],,,none,none,,,,ro,3,testWhatL4Uns//r2.s2.0.wav,4.0,what,unsyncopated,b,s2,rule,rule,L4,m,2.9508,1.0,0.0,0.2508,4.0,2.0,Català,0.0,Castellà,6.0,Inglés,6.0,Francés,14.0,5.0,3.0,yes,no,yes,Saxo,10,,,"Mientras tanto me iba apareciendo a la mente pensamientos. No estaba 100% concentrado. He intentado estarlo todo lo posible, pero mi mente me iba diciendo ""tienes que comprar eso"" o me acordaba de citas con chicos etc. Pero me ha gustado mucho el experimento, repetiría y si queréis se lo paso a conocides. Gracias!",66.0,yes
78,2024-02-25_24h18.06.660,Unsyncopated_study3,s123,24.0,masculino,right,Catalunya - Espanya,Català,Upper secondary,no,no,A,1,when,L1,unsyncopated,when,when,78,Online_whenL1//c.ro8.222.wav,ne,ro,ze,sil,ki,fo,zu,sil1,cho,pu,sil2,['catch'],[0.916700000000219],[0.916700000000219],0.222,no_beat,0.694700000000219,0.694700000000219,"[""space""]",ro,3,testWhatL4Uns//cat_viol.r1.s1.0.wav,4.0,what,unsyncopated,a,s1,no_rule,cat,L4,z,0.6564,3.0,0.0,0.9387,4.0,2.0,Català,0.0,Castellà,6.0,Inglés,6.0,Francés,14.0,5.0,3.0,yes,no,yes,Saxo,10,,,"Mientras tanto me iba apareciendo a la mente pensamientos. No estaba 100% concentrado. He intentado estarlo todo lo posible, pero mi mente me iba diciendo ""tienes que comprar eso"" o me acordaba de citas con chicos etc. Pero me ha gustado mucho el experimento, repetiría y si queréis se lo paso a conocides. Gracias!",66.0,yes
79,2024-02-25_24h18.06.660,Unsyncopated_study3,s123,24.0,masculino,right,Catalunya - Espanya,Català,Upper secondary,no,no,A,1,when,L1,unsyncopated,when,when,79,Online_whenL1//c.ro10.1110.wav,ne,ta,ni,sil,ri,ro,lu,sil1,ki,cho,sil2,['catch'],[1.7560999999996056],[1.7560999999996056],1.11,no_beat,0.6460999999996055,0.6460999999996055,"[""space""]",ro,3,testWhatL4Uns//r1.s2.2.wav,4.0,what,unsyncopated,a,s2,rule,rule,L4,m,1.1847,2.0,0.0,0.6083,4.0,2.0,Català,0.0,Castellà,6.0,Inglés,6.0,Francés,14.0,5.0,3.0,yes,no,yes,Saxo,10,,,"Mientras tanto me iba apareciendo a la mente pensamientos. No estaba 100% concentrado. He intentado estarlo todo lo posible, pero mi mente me iba diciendo ""tienes que comprar eso"" o me acordaba de citas con chicos etc. Pero me ha gustado mucho el experimento, repetiría y si queréis se lo paso a conocides. Gracias!",66.0,yes
80,2024-02-25_24h18.06.660,Unsyncopated_study3,s123,24.0,masculino,right,Catalunya - Espanya,Català,Upper secondary,no,no,A,1,when,L1,unsyncopated,when,when,80,Online_whenL1//d.ne31.1998.wav,ni,ta,la,sil,be,ze,lu,sil1,fa,ne,sil2,['miss'],,,1.998,no_beat,,,,ne,4,testWhatL4Uns//r1.s2.1.wav,4.0,what,unsyncopated,a,s2,rule,rule,L4,m,0.9848,2.0,0.0,0.6358,4.0,2.0,Català,0.0,Castellà,6.0,Inglés,6.0,Francés,14.0,5.0,3.0,yes,no,yes,Saxo,10,,,"Mientras tanto me iba apareciendo a la mente pensamientos. No estaba 100% concentrado. He intentado estarlo todo lo posible, pero mi mente me iba diciendo ""tienes que comprar eso"" o me acordaba de citas con chicos etc. Pero me ha gustado mucho el experimento, repetiría y si queréis se lo paso a conocides. Gracias!",66.0,yes
81,2024-02-25_24h18.06.660,Unsyncopated_study3,s123,24.0,masculino,right,Catalunya - Espanya,Català,Upper secondary,no,no,A,1,when,L1,unsyncopated,when,when,81,Online_whenL1//d.ne30.888.wav,cho,ta,la,sil,ne,zu,fa,sil1,be,ri,sil2,"['false alarm', 'catch']","[0.5639999999999645, 2.0306000000000495]",[2.0306000000000495],0.888,beat,1.1426000000000496,1.1426000000000496,"[""space"",""space""]",ne,4,testWhatL4Uns//r1.s1.2.wav,4.0,what,unsyncopated,a,s1,rule,rule,L4,z,0.3406,4.0,1.0,0.771,4.0,2.0,Català,0.0,Castellà,6.0,Inglés,6.0,Francés,14.0,5.0,3.0,yes,no,yes,Saxo,10,,,"Mientras tanto me iba apareciendo a la mente pensamientos. No estaba 100% concentrado. He intentado estarlo todo lo posible, pero mi mente me iba diciendo ""tienes que comprar eso"" o me acordaba de citas con chicos etc. Pero me ha gustado mucho el experimento, repetiría y si queréis se lo paso a conocides. Gracias!",66.0,yes
82,2024-02-25_24h18.06.660,Unsyncopated_study3,s123,24.0,masculino,right,Catalunya - Espanya,Català,Upper secondary,no,no,A,1,when,L1,unsyncopated,when,when,82,Online_whenL1//d.ne28.1332.wav,ta,ze,cho,sil,ro,zu,ne,sil1,ki,ri,sil2,['catch'],[1.9700000000000273],[1.9700000000000273],1.332,no_beat,0.6380000000000272,0.6380000000000272,"[""space""]",ne,4,testWhatL4Uns//time_viol.r1.s2.0.wav,4.0,what,unsyncopated,a,s2,no_rule,time,L4,m,0.7519,3.0,1.0,0.6514,4.0,2.0,Català,0.0,Castellà,6.0,Inglés,6.0,Francés,14.0,5.0,3.0,yes,no,yes,Saxo,10,,,"Mientras tanto me iba apareciendo a la mente pensamientos. No estaba 100% concentrado. He intentado estarlo todo lo posible, pero mi mente me iba diciendo ""tienes que comprar eso"" o me acordaba de citas con chicos etc. Pero me ha gustado mucho el experimento, repetiría y si queréis se lo paso a conocides. Gracias!",66.0,yes
83,2024-02-25_24h18.06.660,Unsyncopated_study3,s123,24.0,masculino,right,Catalunya - Espanya,Català,Upper secondary,no,no,A,1,when,L1,unsyncopated,when,when,83,Online_whenL1//d.ne29.444.wav,lu,ri,ne,sil,zu,la,ze,sil1,pu,ki,sil2,['catch'],[1.0345999999996138],[1.0345999999996138],0.444,no_beat,0.5905999999996139,0.5905999999996139,"[""space""]",ne,4,testWhatL4Uns//dep_viol.r2.s1.0.wav,4.0,what,unsyncopated,b,s1,no_rule,dep,L4,z,0.3521,2.0,0.0,0.7523,4.0,2.0,Català,0.0,Castellà,6.0,Inglés,6.0,Francés,14.0,5.0,3.0,yes,no,yes,Saxo,10,,,"Mientras tanto me iba apareciendo a la mente pensamientos. No estaba 100% concentrado. He intentado estarlo todo lo posible, pero mi mente me iba diciendo ""tienes que comprar eso"" o me acordaba de citas con chicos etc. Pero me ha gustado mucho el experimento, repetiría y si queréis se lo paso a conocides. Gracias!",66.0,yes
84,2024-02-25_24h18.06.660,Unsyncopated_study3,s123,24.0,masculino,right,Catalunya - Espanya,Català,Upper secondary,no,no,A,1,when,L1,unsyncopated,when,when,84,Online_whenL1//a.ki27.none.wav,fa,fo,cho,sil,ze,ri,ta,sil1,pu,zu,sil2,['-'],,,none,none,,,,ki,2,testWhatL4Uns//cat_viol.r2.s1.0.wav,4.0,what,unsyncopated,b,s1,no_rule,cat,L4,z,0.3675,4.0,0.0,0.6209,4.0,2.0,Català,0.0,Castellà,6.0,Inglés,6.0,Francés,14.0,5.0,3.0,yes,no,yes,Saxo,10,,,"Mientras tanto me iba apareciendo a la mente pensamientos. No estaba 100% concentrado. He intentado estarlo todo lo posible, pero mi mente me iba diciendo ""tienes que comprar eso"" o me acordaba de citas con chicos etc. Pero me ha gustado mucho el experimento, repetiría y si queréis se lo paso a conocides. Gracias!",66.0,yes
85,2024-02-25_24h18.06.660,Unsyncopated_study3,s123,24.0,masculino,right,Catalunya - Espanya,Català,Upper secondary,no,no,A,1,when,L1,unsyncopated,when,when,85,Online_whenL1//a.ki25.none.wav,pu,lu,ni,sil,ro,ne,zu,sil1,la,ta,sil2,['-'],,,none,none,,,,ki,2,testWhatL4Uns//dep_viol.r1.s1.0.wav,4.0,what,unsyncopated,a,s1,no_rule,dep,L4,m,0.4518,3.0,1.0,0.9056,4.0,2.0,Català,0.0,Castellà,6.0,Inglés,6.0,Francés,14.0,5.0,3.0,yes,no,yes,Saxo,10,,,"Mientras tanto me iba apareciendo a la mente pensamientos. No estaba 100% concentrado. He intentado estarlo todo lo posible, pero mi mente me iba diciendo ""tienes que comprar eso"" o me acordaba de citas con chicos etc. Pero me ha gustado mucho el experimento, repetiría y si queréis se lo paso a conocides. Gracias!",66.0,yes
86,2024-02-25_24h18.06.660,Unsyncopated_study3,s123,24.0,masculino,right,Catalunya - Espanya,Català,Upper secondary,no,no,A,1,when,L1,unsyncopated,when,when,86,Online_whenL1//a.ki24.none.wav,cho,ze,ni,sil,zu,la,ri,sil1,be,pu,sil2,['-'],,,none,none,,,,ki,2,testWhatL4Uns//dep_viol.r2.s2.0.wav,4.0,what,unsyncopated,b,s2,no_rule,dep,L4,z,0.2907,5.0,0.0,0.5894,4.0,2.0,Català,0.0,Castellà,6.0,Inglés,6.0,Francés,14.0,5.0,3.0,yes,no,yes,Saxo,10,,,"Mientras tanto me iba apareciendo a la mente pensamientos. No estaba 100% concentrado. He intentado estarlo todo lo posible, pero mi mente me iba diciendo ""tienes que comprar eso"" o me acordaba de citas con chicos etc. Pero me ha gustado mucho el experimento, repetiría y si queréis se lo paso a conocides. Gracias!",66.0,yes
87,2024-02-25_24h18.06.660,Unsyncopated_study3,s123,24.0,masculino,right,Catalunya - Espanya,Català,Upper secondary,no,no,A,1,when,L1,unsyncopated,when,when,87,Online_whenL1//a.ki26.none.wav,fo,be,ne,sil,ta,ze,ri,sil1,la,cho,sil2,['-'],,,none,none,,,,ki,2,testWhatL4Uns//time_viol.r2.s1.0.wav,4.0,what,unsyncopated,b,s1,no_rule,time,L4,z,0.3833,1.0,0.0,0.6726,4.0,2.0,Català,0.0,Castellà,6.0,Inglés,6.0,Francés,14.0,5.0,3.0,yes,no,yes,Saxo,10,,,"Mientras tanto me iba apareciendo a la mente pensamientos. No estaba 100% concentrado. He intentado estarlo todo lo posible, pero mi mente me iba diciendo ""tienes que comprar eso"" o me acordaba de citas con chicos etc. Pero me ha gustado mucho el experimento, repetiría y si queréis se lo paso a conocides. Gracias!",66.0,yes
88,2024-02-25_24h18.06.660,Unsyncopated_study3,s123,24.0,masculino,right,Catalunya - Espanya,Català,Upper secondary,no,no,A,1,when,L1,unsyncopated,when,when,88,Online_whenL1//a.ki7.none.wav,cho,ro,ri,sil,pu,zu,fa,sil1,ni,be,sil2,['false alarm'],[2.4196999999996933],[2.4196999999996933],none,none,,,"[""space""]",ki,2,testWhatL4Uns//r2.s1.0.wav,4.0,what,unsyncopated,b,s1,rule,rule,L4,z,0.3676,5.0,1.0,0.7694,4.0,2.0,Català,0.0,Castellà,6.0,Inglés,6.0,Francés,14.0,5.0,3.0,yes,no,yes,Saxo,10,,,"Mientras tanto me iba apareciendo a la mente pensamientos. No estaba 100% concentrado. He intentado estarlo todo lo posible, pero mi mente me iba diciendo ""tienes que comprar eso"" o me acordaba de citas con chicos etc. Pero me ha gustado mucho el experimento, repetiría y si queréis se lo paso a conocides. Gracias!",66.0,yes
89,2024-02-25_24h18.06.660,Unsyncopated_study3,s123,24.0,masculino,right,Catalunya - Espanya,Català,Upper secondary,no,no,A,1,when,L1,unsyncopated,when,when,89,Online_whenL1//a.ki5.none.wav,fo,be,lu,sil,ze,ro,cho,sil1,ta,zu,sil2,['-'],,,none,none,,,,ki,2,testWhatL4Uns//r1.s1.1.wav,4.0,what,unsyncopated,a,s1,rule,rule,L4,m,0.6414,1.0,0.0,0.3529,4.0,2.0,Català,0.0,Castellà,6.0,Inglés,6.0,Francés,14.0,5.0,3.0,yes,no,yes,Saxo,10,,,"Mientras tanto me iba apareciendo a la mente pensamientos. No estaba 100% concentrado. He intentado estarlo todo lo posible, pero mi mente me iba diciendo ""tienes que comprar eso"" o me acordaba de citas con chicos etc. Pero me ha gustado mucho el experimento, repetiría y si queréis se lo paso a conocides. Gracias!",66.0,yes
90,2024-02-25_24h18.06.660,Unsyncopated_study3,s123,24.0,masculino,right,Catalunya - Espanya,Català,Upper secondary,no,no,A,1,when,L1,unsyncopated,when,when,90,Online_whenL1//a.ki4.222.wav,fa,ki,zu,sil,ni,ta,lu,sil1,ro,ri,sil2,['catch'],[0.7606000000000677],[0.7606000000000677],0.222,no_beat,0.5386000000000677,0.5386000000000677,"[""space""]",ki,2,testWhatL4Uns//dep_viol.r1.s2.0.wav,4.0,what,unsyncopated,a,s2,no_rule,dep,L4,m,0.9681,2.0,1.0,0.2564,4.0,2.0,Català,0.0,Castellà,6.0,Inglés,6.0,Francés,14.0,5.0,3.0,yes,no,yes,Saxo,10,,,"Mientras tanto me iba apareciendo a la mente pensamientos. No estaba 100% concentrado. He intentado estarlo todo lo posible, pero mi mente me iba diciendo ""tienes que comprar eso"" o me acordaba de citas con chicos etc. Pero me ha gustado mucho el experimento, repetiría y si queréis se lo paso a conocides. Gracias!",66.0,yes
91,2024-02-25_24h18.06.660,Unsyncopated_study3,s123,24.0,masculino,right,Catalunya - Espanya,Català,Upper secondary,no,no,A,1,when,L1,unsyncopated,when,when,91,Online_whenL1//a.ki6.none.wav,la,ri,ni,sil,pu,ro,ne,sil1,be,zu,sil2,['-'],,,none,none,,,,ki,2,testWhatL4Uns//time_viol.r2.s2.0.wav,4.0,what,unsyncopated,b,s2,no_rule,time,L4,z,0.5022,7.0,0.0,0.5521,4.0,2.0,Català,0.0,Castellà,6.0,Inglés,6.0,Francés,14.0,5.0,3.0,yes,no,yes,Saxo,10,,,"Mientras tanto me iba apareciendo a la mente pensamientos. No estaba 100% concentrado. He intentado estarlo todo lo posible, pero mi mente me iba diciendo ""tienes que comprar eso"" o me acordaba de citas con chicos etc. Pero me ha gustado mucho el experimento, repetiría y si queréis se lo paso a conocides. Gracias!",66.0,yes
92,2024-02-25_24h18.06.660,Unsyncopated_study3,s123,24.0,masculino,right,Catalunya - Espanya,Català,Upper secondary,no,no,A,1,when,L1,unsyncopated,when,when,92,Online_whenL1//b.ta12.1998.wav,lu,la,ro,sil,ne,zu,fo,sil1,ki,ta,sil2,['catch'],[2.459399999999846],[2.459399999999846],1.998,no_beat,0.4613999999998459,0.4613999999998459,"[""space""]",ta,1,testWhatL4Uns//r2.s2.1.wav,4.0,what,unsyncopated,b,s2,rule,rule,L4,z,0.3059,2.0,1.0,0.3197,4.0,2.0,Català,0.0,Castellà,6.0,Inglés,6.0,Francés,14.0,5.0,3.0,yes,no,yes,Saxo,10,,,"Mientras tanto me iba apareciendo a la mente pensamientos. No estaba 100% concentrado. He intentado estarlo todo lo posible, pero mi mente me iba diciendo ""tienes que comprar eso"" o me acordaba de citas con chicos etc. Pero me ha gustado mucho el experimento, repetiría y si queréis se lo paso a conocides. Gracias!",66.0,yes
93,2024-02-25_24h18.06.660,Unsyncopated_study3,s123,24.0,masculino,right,Catalunya - Espanya,Català,Upper secondary,no,no,A,1,when,L1,unsyncopated,when,when,93,Online_whenL1//b.ta14.none.wav,lu,fo,zu,sil,ni,be,cho,sil1,pu,ri,sil2,['-'],,,none,none,,,,ta,1,testWhatL4Uns//cat_viol.r2.s2.0.wav,4.0,what,unsyncopated,b,s2,no_rule,cat,L4,z,0.3946,1.0,0.0,1.0557,4.0,2.0,Català,0.0,Castellà,6.0,Inglés,6.0,Francés,14.0,5.0,3.0,yes,no,yes,Saxo,10,,,"Mientras tanto me iba apareciendo a la mente pensamientos. No estaba 100% concentrado. He intentado estarlo todo lo posible, pero mi mente me iba diciendo ""tienes que comprar eso"" o me acordaba de citas con chicos etc. Pero me ha gustado mucho el experimento, repetiría y si queréis se lo paso a conocides. Gracias!",66.0,yes
94,2024-02-25_24h18.06.660,Unsyncopated_study3,s123,24.0,masculino,right,Catalunya - Espanya,Català,Upper secondary,no,no,A,1,when,L1,unsyncopated,when,when,94,Online_whenL1//b.ta13.none.wav,pu,la,be,sil,zu,ze,ri,sil1,ne,ni,sil2,['-'],,,none,none,,,,ta,1,testWhatL4Uns//r2.s1.1.wav,4.0,what,unsyncopated,b,s1,rule,rule,L4,z,0.3197,5.0,1.0,0.4843,4.0,2.0,Català,0.0,Castellà,6.0,Inglés,6.0,Francés,14.0,5.0,3.0,yes,no,yes,Saxo,10,,,"Mientras tanto me iba apareciendo a la mente pensamientos. No estaba 100% concentrado. He intentado estarlo todo lo posible, pero mi mente me iba diciendo ""tienes que comprar eso"" o me acordaba de citas con chicos etc. Pero me ha gustado mucho el experimento, repetiría y si queréis se lo paso a conocides. Gracias!",66.0,yes
95,2024-02-25_24h18.06.660,Unsyncopated_study3,s123,24.0,masculino,right,Catalunya - Espanya,Català,Upper secondary,no,no,A,1,when,L1,unsyncopated,when,when,95,Online_whenL1//b.ta15.none.wav,fa,ro,la,sil,ki,ze,pu,sil1,ne,ri,sil2,['-'],,,none,none,,,,ta,1,testWhatL4Uns//time_viol.r1.s1.0.wav,4.0,what,unsyncopated,a,s1,no_rule,time,L4,m,1.8024,1.0,1.0,0.3361,4.0,2.0,Català,0.0,Castellà,6.0,Inglés,6.0,Francés,14.0,5.0,3.0,yes,no,yes,Saxo,10,,,"Mientras tanto me iba apareciendo a la mente pensamientos. No estaba 100% concentrado. He intentado estarlo todo lo posible, pero mi mente me iba diciendo ""tienes que comprar eso"" o me acordaba de citas con chicos etc. Pero me ha gustado mucho el experimento, repetiría y si queréis se lo paso a conocides. Gracias!",66.0,yes
96,2024-02-25_24h18.06.660,Unsyncopated_study3,s123,24.0,masculino,right,Catalunya - Espanya,Català,Upper secondary,no,no,A,1,when,L1,unsyncopated,when,when,96,Online_whenL1//b.ta6.none.wav,ze,zu,la,sil,ni,ri,ki,sil1,ro,pu,sil2,['-'],,,none,none,,,,ta,1,,,,,,,,,,,,,,,4.0,2.0,Català,0.0,Castellà,6.0,Inglés,6.0,Francés,14.0,5.0,3.0,yes,no,yes,Saxo,10,,,"Mientras tanto me iba apareciendo a la mente pensamientos. No estaba 100% concentrado. He intentado estarlo todo lo posible, pero mi mente me iba diciendo ""tienes que comprar eso"" o me acordaba de citas con chicos etc. Pero me ha gustado mucho el experimento, repetiría y si queréis se lo paso a conocides. Gracias!",66.0,yes
97,2024-02-25_24h18.06.660,Unsyncopated_study3,s123,24.0,masculino,right,Catalunya - Espanya,Català,Upper secondary,no,no,A,1,when,L1,unsyncopated,when,when,97,Online_whenL1//b.ta5.1332.wav,pu,ro,cho,sil,zu,fa,ta,sil1,ri,ne,sil2,['catch'],[2.036000000000058],[2.036000000000058],1.332,no_beat,0.7040000000000581,0.7040000000000581,"[""space""]",ta,1,,,,,,,,,,,,,,,4.0,2.0,Català,0.0,Castellà,6.0,Inglés,6.0,Francés,14.0,5.0,3.0,yes,no,yes,Saxo,10,,,"Mientras tanto me iba apareciendo a la mente pensamientos. No estaba 100% concentrado. He intentado estarlo todo lo posible, pero mi mente me iba diciendo ""tienes que comprar eso"" o me acordaba de citas con chicos etc. Pero me ha gustado mucho el experimento, repetiría y si queréis se lo paso a conocides. Gracias!",66.0,yes
98,2024-02-25_24h18.06.660,Unsyncopated_study3,s123,24.0,masculino,right,Catalunya - Espanya,Català,Upper secondary,no,no,A,1,when,L1,unsyncopated,when,when,98,Online_whenL1//b.ta4.1776.wav,ni,pu,ze,sil,fo,ro,ne,sil1,ta,zu,sil2,['catch'],[2.4212000000002263],[2.4212000000002263],1.776,beat,0.6452000000002263,0.6452000000002263,"[""space""]",ta,1,,,,,,,,,,,,,,,4.0,2.0,Català,0.0,Castellà,6.0,Inglés,6.0,Francés,14.0,5.0,3.0,yes,no,yes,Saxo,10,,,"Mientras tanto me iba apareciendo a la mente pensamientos. No estaba 100% concentrado. He intentado estarlo todo lo posible, pero mi mente me iba diciendo ""tienes que comprar eso"" o me acordaba de citas con chicos etc. Pero me ha gustado mucho el experimento, repetiría y si queréis se lo paso a conocides. Gracias!",66.0,yes
99,2024-02-25_24h18.06.660,Unsyncopated_study3,s123,24.0,masculino,right,Catalunya - Espanya,Català,Upper secondary,no,no,A,1,when,L1,unsyncopated,when,when,99,Online_whenL1//b.ta7.888.wav,lu,fa,fo,sil,ta,pu,ri,sil1,ni,ne,sil2,['catch'],[1.5688000000003512],[1.5688000000003512],0.888,beat,0.6808000000003512,0.6808000000003512,"[""space""]",ta,1,,,,,,,,,,,,,,,4.0,2.0,Català,0.0,Castellà,6.0,Inglés,6.0,Francés,14.0,5.0,3.0,yes,no,yes,Saxo,10,,,"Mientras tanto me iba apareciendo a la mente pensamientos. No estaba 100% concentrado. He intentado estarlo todo lo posible, pero mi mente me iba diciendo ""tienes que comprar eso"" o me acordaba de citas con chicos etc. Pero me ha gustado mucho el experimento, repetiría y si queréis se lo paso a conocides. Gracias!",66.0,yes
100,2024-02-25_24h18.06.660,Unsyncopated_study3,s123,24.0,masculino,right,Catalunya - Espanya,Català,Upper secondary,no,no,A,1,when,L1,unsyncopated,when,when,100,Online_whenL1//d.ne17.none.wav,fa,cho,ki,sil,la,ta,lu,sil1,fo,ni,sil2,['false alarm'],[1.7412999999997965],[1.7412999999997965],none,none,,,"[""space""]",ne,4,,,,,,,,,,,,,,,4.0,2.0,Català,0.0,Castellà,6.0,Inglés,6.0,Francés,14.0,5.0,3.0,yes,no,yes,Saxo,10,,,"Mientras tanto me iba apareciendo a la mente pensamientos. No estaba 100% concentrado. He intentado estarlo todo lo posible, pero mi mente me iba diciendo ""tienes que comprar eso"" o me acordaba de citas con chicos etc. Pero me ha gustado mucho el experimento, repetiría y si queréis se lo paso a conocides. Gracias!",66.0,yes
101,2024-02-25_24h18.06.660,Unsyncopated_study3,s123,24.0,masculino,right,Catalunya - Espanya,Català,Upper secondary,no,no,A,1,when,L1,unsyncopated,when,when,101,Online_whenL1//d.ne16.1776.wav,cho,fo,ri,sil,lu,pu,zu,sil1,ne,be,sil2,['catch'],[2.46650000000011],[2.46650000000011],1.776,beat,0.69050000000011,0.69050000000011,"[""space""]",ne,4,,,,,,,,,,,,,,,4.0,2.0,Català,0.0,Castellà,6.0,Inglés,6.0,Francés,14.0,5.0,3.0,yes,no,yes,Saxo,10,,,"Mientras tanto me iba apareciendo a la mente pensamientos. No estaba 100% concentrado. He intentado estarlo todo lo posible, pero mi mente me iba diciendo ""tienes que comprar eso"" o me acordaba de citas con chicos etc. Pero me ha gustado mucho el experimento, repetiría y si queréis se lo paso a conocides. Gracias!",66.0,yes
102,2024-02-25_24h18.06.660,Unsyncopated_study3,s123,24.0,masculino,right,Catalunya - Espanya,Català,Upper secondary,no,no,A,1,when,L1,unsyncopated,when,when,102,Online_whenL1//d.ne18.1998.wav,fo,ri,be,sil,ki,ze,la,sil1,lu,ne,sil2,['catch_delay'],[0.7101000000001851],[0.7101000000001851],1.998,no_beat,0.7101000000001851,0.7101000000001851,,ne,4,,,,,,,,,,,,,,,4.0,2.0,Català,0.0,Castellà,6.0,Inglés,6.0,Francés,14.0,5.0,3.0,yes,no,yes,Saxo,10,,,"Mientras tanto me iba apareciendo a la mente pensamientos. No estaba 100% concentrado. He intentado estarlo todo lo posible, pero mi mente me iba diciendo ""tienes que comprar eso"" o me acordaba de citas con chicos etc. Pero me ha gustado mucho el experimento, repetiría y si queréis se lo paso a conocides. Gracias!",66.0,yes
103,2024-02-25_24h18.06.660,Unsyncopated_study3,s123,24.0,masculino,right,Catalunya - Espanya,Català,Upper secondary,no,no,A,1,when,L1,unsyncopated,when,when,103,Online_whenL1//d.ne19.222.wav,ri,ne,ni,sil,cho,be,zu,sil1,pu,fa,sil2,['miss'],[0.04410000000018499],[0.04410000000018499],0.222,no_beat,,,"[""space""]",ne,4,,,,,,,,,,,,,,,4.0,2.0,Català,0.0,Castellà,6.0,Inglés,6.0,Francés,14.0,5.0,3.0,yes,no,yes,Saxo,10,,,"Mientras tanto me iba apareciendo a la mente pensamientos. No estaba 100% concentrado. He intentado estarlo todo lo posible, pero mi mente me iba diciendo ""tienes que comprar eso"" o me acordaba de citas con chicos etc. Pero me ha gustado mucho el experimento, repetiría y si queréis se lo paso a conocides. Gracias!",66.0,yes
104,2024-02-25_24h18.06.660,Unsyncopated_study3,s123,24.0,masculino,right,Catalunya - Espanya,Català,Upper secondary,no,no,A,1,when,L1,unsyncopated,when,when,104,Online_whenL1//a.ki18.444.wav,ni,fa,ki,sil,pu,ri,fo,sil1,zu,ne,sil2,"['catch', 'false alarm']","[1.0847000000001117, 2.5949999999999136]",[1.0847000000001117],0.444,no_beat,0.6407000000001117,0.6407000000001117,"[""space"",""space""]",ki,2,,,,,,,,,,,,,,,4.0,2.0,Català,0.0,Castellà,6.0,Inglés,6.0,Francés,14.0,5.0,3.0,yes,no,yes,Saxo,10,,,"Mientras tanto me iba apareciendo a la mente pensamientos. No estaba 100% concentrado. He intentado estarlo todo lo posible, pero mi mente me iba diciendo ""tienes que comprar eso"" o me acordaba de citas con chicos etc. Pero me ha gustado mucho el experimento, repetiría y si queréis se lo paso a conocides. Gracias!",66.0,yes
105,2024-02-25_24h18.06.660,Unsyncopated_study3,s123,24.0,masculino,right,Catalunya - Espanya,Català,Upper secondary,no,no,A,1,when,L1,unsyncopated,when,when,105,Online_whenL1//a.ki17.none.wav,be,la,fo,sil,zu,ze,ro,sil1,pu,ne,sil2,['-'],,,none,none,,,,ki,2,,,,,,,,,,,,,,,4.0,2.0,Català,0.0,Castellà,6.0,Inglés,6.0,Francés,14.0,5.0,3.0,yes,no,yes,Saxo,10,,,"Mientras tanto me iba apareciendo a la mente pensamientos. No estaba 100% concentrado. He intentado estarlo todo lo posible, pero mi mente me iba diciendo ""tienes que comprar eso"" o me acordaba de citas con chicos etc. Pero me ha gustado mucho el experimento, repetiría y si queréis se lo paso a conocides. Gracias!",66.0,yes
106,2024-02-25_24h18.06.660,Unsyncopated_study3,s123,24.0,masculino,right,Catalunya - Espanya,Català,Upper secondary,no,no,A,1,when,L1,unsyncopated,when,when,106,Online_whenL1//a.ki19.1998.wav,pu,ze,ro,sil,fo,zu,cho,sil1,fa,ki,sil2,['catch'],[2.4447000000001253],[2.4447000000001253],1.998,no_beat,0.4467000000001253,0.4467000000001253,"[""space""]",ki,2,,,,,,,,,,,,,,,4.0,2.0,Català,0.0,Castellà,6.0,Inglés,6.0,Francés,14.0,5.0,3.0,yes,no,yes,Saxo,10,,,"Mientras tanto me iba apareciendo a la mente pensamientos. No estaba 100% concentrado. He intentado estarlo todo lo posible, pero mi mente me iba diciendo ""tienes que comprar eso"" o me acordaba de citas con chicos etc. Pero me ha gustado mucho el experimento, repetiría y si queréis se lo paso a conocides. Gracias!",66.0,yes
107,2024-02-25_24h18.06.660,Unsyncopated_study3,s123,24.0,masculino,right,Catalunya - Espanya,Català,Upper secondary,no,no,A,1,when,L1,unsyncopated,when,when,107,Online_whenL1//a.ki16.888.wav,ni,ro,ta,sil,ki,lu,cho,sil1,fo,ri,sil2,['catch'],[1.7866999999997688],[1.7866999999997688],0.888,beat,0.8986999999997688,0.8986999999997688,"[""space""]",ki,2,,,,,,,,,,,,,,,4.0,2.0,Català,0.0,Castellà,6.0,Inglés,6.0,Francés,14.0,5.0,3.0,yes,no,yes,Saxo,10,,,"Mientras tanto me iba apareciendo a la mente pensamientos. No estaba 100% concentrado. He intentado estarlo todo lo posible, pero mi mente me iba diciendo ""tienes que comprar eso"" o me acordaba de citas con chicos etc. Pero me ha gustado mucho el experimento, repetiría y si queréis se lo paso a conocides. Gracias!",66.0,yes
108,2024-02-25_24h18.06.660,Unsyncopated_study3,s123,24.0,masculino,right,Catalunya - Espanya,Català,Upper secondary,no,no,A,1,when,L1,unsyncopated,when,when,108,Online_whenL1//a.ki1.1776.wav,zu,ri,ni,sil,ne,be,ro,sil1,ki,fa,sil2,['catch'],[2.3851000000000795],[2.3851000000000795],1.776,beat,0.6091000000000795,0.6091000000000795,"[""space""]",ki,2,,,,,,,,,,,,,,,4.0,2.0,Català,0.0,Castellà,6.0,Inglés,6.0,Francés,14.0,5.0,3.0,yes,no,yes,Saxo,10,,,"Mientras tanto me iba apareciendo a la mente pensamientos. No estaba 100% concentrado. He intentado estarlo todo lo posible, pero mi mente me iba diciendo ""tienes que comprar eso"" o me acordaba de citas con chicos etc. Pero me ha gustado mucho el experimento, repetiría y si queréis se lo paso a conocides. Gracias!",66.0,yes
109,2024-02-25_24h18.06.660,Unsyncopated_study3,s123,24.0,masculino,right,Catalunya - Espanya,Català,Upper secondary,no,no,A,1,when,L1,unsyncopated,when,when,109,Online_whenL1//a.ki3.1110.wav,ri,ni,fa,sil,cho,ki,ze,sil1,fo,ta,sil2,['miss'],,,1.11,no_beat,,,,ki,2,,,,,,,,,,,,,,,4.0,2.0,Català,0.0,Castellà,6.0,Inglés,6.0,Francés,14.0,5.0,3.0,yes,no,yes,Saxo,10,,,"Mientras tanto me iba apareciendo a la mente pensamientos. No estaba 100% concentrado. He intentado estarlo todo lo posible, pero mi mente me iba diciendo ""tienes que comprar eso"" o me acordaba de citas con chicos etc. Pero me ha gustado mucho el experimento, repetiría y si queréis se lo paso a conocides. Gracias!",66.0,yes
110,2024-02-25_24h18.06.660,Unsyncopated_study3,s123,24.0,masculino,right,Catalunya - Espanya,Català,Upper secondary,no,no,A,1,when,L1,unsyncopated,when,when,110,Online_whenL1//a.ki2.none.wav,zu,ne,ta,sil,ri,be,ni,sil1,fo,lu,sil2,['-'],,,none,none,,,,ki,2,,,,,,,,,,,,,,,4.0,2.0,Català,0.0,Castellà,6.0,Inglés,6.0,Francés,14.0,5.0,3.0,yes,no,yes,Saxo,10,,,"Mientras tanto me iba apareciendo a la mente pensamientos. No estaba 100% concentrado. He intentado estarlo todo lo posible, pero mi mente me iba diciendo ""tienes que comprar eso"" o me acordaba de citas con chicos etc. Pero me ha gustado mucho el experimento, repetiría y si queréis se lo paso a conocides. Gracias!",66.0,yes
111,2024-02-25_24h18.06.660,Unsyncopated_study3,s123,24.0,masculino,right,Catalunya - Espanya,Català,Upper secondary,no,no,A,1,when,L1,unsyncopated,when,when,111,Online_whenL1//a.ki0.none.wav,zu,ta,ri,sil,ro,ne,cho,sil1,pu,la,sil2,['-'],,,none,none,,,,ki,2,,,,,,,,,,,,,,,4.0,2.0,Català,0.0,Castellà,6.0,Inglés,6.0,Francés,14.0,5.0,3.0,yes,no,yes,Saxo,10,,,"Mientras tanto me iba apareciendo a la mente pensamientos. No estaba 100% concentrado. He intentado estarlo todo lo posible, pero mi mente me iba diciendo ""tienes que comprar eso"" o me acordaba de citas con chicos etc. Pero me ha gustado mucho el experimento, repetiría y si queréis se lo paso a conocides. Gracias!",66.0,yes
112,2024-02-25_24h18.06.660,Unsyncopated_study3,s123,24.0,masculino,right,Catalunya - Espanya,Català,Upper secondary,no,no,A,1,when,L1,unsyncopated,when,when,112,Online_whenL1//b.ta24.1998.wav,ro,lu,ki,sil,cho,ne,ri,sil1,ni,ta,sil2,['catch'],[2.3662999999997965],[2.3662999999997965],1.998,no_beat,0.3682999999997964,0.3682999999997964,"[""space""]",ta,1,,,,,,,,,,,,,,,4.0,2.0,Català,0.0,Castellà,6.0,Inglés,6.0,Francés,14.0,5.0,3.0,yes,no,yes,Saxo,10,,,"Mientras tanto me iba apareciendo a la mente pensamientos. No estaba 100% concentrado. He intentado estarlo todo lo posible, pero mi mente me iba diciendo ""tienes que comprar eso"" o me acordaba de citas con chicos etc. Pero me ha gustado mucho el experimento, repetiría y si queréis se lo paso a conocides. Gracias!",66.0,yes
113,2024-02-25_24h18.06.660,Unsyncopated_study3,s123,24.0,masculino,right,Catalunya - Espanya,Català,Upper secondary,no,no,A,1,when,L1,unsyncopated,when,when,113,Online_whenL1//b.ta27.none.wav,be,fa,cho,sil,pu,ze,ni,sil1,lu,zu,sil2,['-'],,,none,none,,,,ta,1,,,,,,,,,,,,,,,4.0,2.0,Català,0.0,Castellà,6.0,Inglés,6.0,Francés,14.0,5.0,3.0,yes,no,yes,Saxo,10,,,"Mientras tanto me iba apareciendo a la mente pensamientos. No estaba 100% concentrado. He intentado estarlo todo lo posible, pero mi mente me iba diciendo ""tienes que comprar eso"" o me acordaba de citas con chicos etc. Pero me ha gustado mucho el experimento, repetiría y si queréis se lo paso a conocides. Gracias!",66.0,yes
114,2024-02-25_24h18.06.660,Unsyncopated_study3,s123,24.0,masculino,right,Catalunya - Espanya,Català,Upper secondary,no,no,A,1,when,L1,unsyncopated,when,when,114,Online_whenL1//b.ta25.0.wav,ta,ne,ro,sil,fo,be,lu,sil1,zu,fa,sil2,['catch'],[0.6480000000001382],[0.6480000000001382],0.0,beat,0.6480000000001382,0.6480000000001382,"[""space""]",ta,1,,,,,,,,,,,,,,,4.0,2.0,Català,0.0,Castellà,6.0,Inglés,6.0,Francés,14.0,5.0,3.0,yes,no,yes,Saxo,10,,,"Mientras tanto me iba apareciendo a la mente pensamientos. No estaba 100% concentrado. He intentado estarlo todo lo posible, pero mi mente me iba diciendo ""tienes que comprar eso"" o me acordaba de citas con chicos etc. Pero me ha gustado mucho el experimento, repetiría y si queréis se lo paso a conocides. Gracias!",66.0,yes
115,2024-02-25_24h18.06.660,Unsyncopated_study3,s123,24.0,masculino,right,Catalunya - Espanya,Català,Upper secondary,no,no,A,1,when,L1,unsyncopated,when,when,115,Online_whenL1//b.ta26.888.wav,zu,la,be,sil,ta,ro,cho,sil1,fo,ne,sil2,['miss'],,,0.888,beat,,,,ta,1,,,,,,,,,,,,,,,4.0,2.0,Català,0.0,Castellà,6.0,Inglés,6.0,Francés,14.0,5.0,3.0,yes,no,yes,Saxo,10,,,"Mientras tanto me iba apareciendo a la mente pensamientos. No estaba 100% concentrado. He intentado estarlo todo lo posible, pero mi mente me iba diciendo ""tienes que comprar eso"" o me acordaba de citas con chicos etc. Pero me ha gustado mucho el experimento, repetiría y si queréis se lo paso a conocides. Gracias!",66.0,yes
116,2024-02-25_24h18.06.660,Unsyncopated_study3,s123,24.0,masculino,right,Catalunya - Espanya,Català,Upper secondary,no,no,A,1,when,L1,unsyncopated,when,when,116,Online_whenL1//d.ne3.none.wav,fo,la,be,sil,pu,fa,ni,sil1,lu,cho,sil2,['-'],,,none,none,,,,ne,4,,,,,,,,,,,,,,,4.0,2.0,Català,0.0,Castellà,6.0,Inglés,6.0,Francés,14.0,5.0,3.0,yes,no,yes,Saxo,10,,,"Mientras tanto me iba apareciendo a la mente pensamientos. No estaba 100% concentrado. He intentado estarlo todo lo posible, pero mi mente me iba diciendo ""tienes que comprar eso"" o me acordaba de citas con chicos etc. Pero me ha gustado mucho el experimento, repetiría y si queréis se lo paso a conocides. Gracias!",66.0,yes
117,2024-02-25_24h18.06.660,Unsyncopated_study3,s123,24.0,masculino,right,Catalunya - Espanya,Català,Upper secondary,no,no,A,1,when,L1,unsyncopated,when,when,117,Online_whenL1//d.ne0.1110.wav,ze,fa,fo,sil,pu,ne,ta,sil1,la,ni,sil2,['catch'],[1.783800000000383],[1.783800000000383],1.11,no_beat,0.673800000000383,0.673800000000383,"[""space""]",ne,4,,,,,,,,,,,,,,,4.0,2.0,Català,0.0,Castellà,6.0,Inglés,6.0,Francés,14.0,5.0,3.0,yes,no,yes,Saxo,10,,,"Mientras tanto me iba apareciendo a la mente pensamientos. No estaba 100% concentrado. He intentado estarlo todo lo posible, pero mi mente me iba diciendo ""tienes que comprar eso"" o me acordaba de citas con chicos etc. Pero me ha gustado mucho el experimento, repetiría y si queréis se lo paso a conocides. Gracias!",66.0,yes
118,2024-02-25_24h18.06.660,Unsyncopated_study3,s123,24.0,masculino,right,Catalunya - Espanya,Català,Upper secondary,no,no,A,1,when,L1,unsyncopated,when,when,118,Online_whenL1//d.ne1.none.wav,pu,zu,fo,sil,ze,fa,ni,sil1,ta,lu,sil2,['-'],,,none,none,,,,ne,4,,,,,,,,,,,,,,,4.0,2.0,Català,0.0,Castellà,6.0,Inglés,6.0,Francés,14.0,5.0,3.0,yes,no,yes,Saxo,10,,,"Mientras tanto me iba apareciendo a la mente pensamientos. No estaba 100% concentrado. He intentado estarlo todo lo posible, pero mi mente me iba diciendo ""tienes que comprar eso"" o me acordaba de citas con chicos etc. Pero me ha gustado mucho el experimento, repetiría y si queréis se lo paso a conocides. Gracias!",66.0,yes
119,2024-02-25_24h18.06.660,Unsyncopated_study3,s123,24.0,masculino,right,Catalunya - Espanya,Català,Upper secondary,no,no,A,1,when,L1,unsyncopated,when,when,119,Online_whenL1//d.ne2.none.wav,lu,ze,ni,sil,pu,la,ri,sil1,ki,zu,sil2,['-'],,,none,none,,,,ne,4,,,,,,,,,,,,,,,4.0,2.0,Català,0.0,Castellà,6.0,Inglés,6.0,Francés,14.0,5.0,3.0,yes,no,yes,Saxo,10,,,"Mientras tanto me iba apareciendo a la mente pensamientos. No estaba 100% concentrado. He intentado estarlo todo lo posible, pero mi mente me iba diciendo ""tienes que comprar eso"" o me acordaba de citas con chicos etc. Pero me ha gustado mucho el experimento, repetiría y si queréis se lo paso a conocides. Gracias!",66.0,yes
120,2024-02-25_24h18.06.660,Unsyncopated_study3,s123,24.0,masculino,right,Catalunya - Espanya,Català,Upper secondary,no,no,A,1,when,L1,unsyncopated,when,when,120,Online_whenL1//c.ro6.none.wav,ri,ze,ta,sil,ne,zu,lu,sil1,be,fo,sil2,['-'],,,none,none,,,,ro,3,,,,,,,,,,,,,,,4.0,2.0,Català,0.0,Castellà,6.0,Inglés,6.0,Francés,14.0,5.0,3.0,yes,no,yes,Saxo,10,,,"Mientras tanto me iba apareciendo a la mente pensamientos. No estaba 100% concentrado. He intentado estarlo todo lo posible, pero mi mente me iba diciendo ""tienes que comprar eso"" o me acordaba de citas con chicos etc. Pero me ha gustado mucho el experimento, repetiría y si queréis se lo paso a conocides. Gracias!",66.0,yes
121,2024-02-25_24h18.06.660,Unsyncopated_study3,s123,24.0,masculino,right,Catalunya - Espanya,Català,Upper secondary,no,no,A,1,when,L1,unsyncopated,when,when,121,Online_whenL1//c.ro4.0.wav,ro,ri,ni,sil,pu,be,la,sil1,fa,ze,sil2,['catch'],[0.5619999999998981],[0.5619999999998981],0.0,beat,0.5619999999998981,0.5619999999998981,"[""space""]",ro,3,,,,,,,,,,,,,,,4.0,2.0,Català,0.0,Castellà,6.0,Inglés,6.0,Francés,14.0,5.0,3.0,yes,no,yes,Saxo,10,,,"Mientras tanto me iba apareciendo a la mente pensamientos. No estaba 100% concentrado. He intentado estarlo todo lo posible, pero mi mente me iba diciendo ""tienes que comprar eso"" o me acordaba de citas con chicos etc. Pero me ha gustado mucho el experimento, repetiría y si queréis se lo paso a conocides. Gracias!",66.0,yes
122,2024-02-25_24h18.06.660,Unsyncopated_study3,s123,24.0,masculino,right,Catalunya - Espanya,Català,Upper secondary,no,no,A,1,when,L1,unsyncopated,when,when,122,Online_whenL1//c.ro7.0.wav,ro,ta,pu,sil,fa,lu,fo,sil1,cho,ri,sil2,['catch'],[0.8418000000003758],[0.8418000000003758],0.0,beat,0.8418000000003758,0.8418000000003758,"[""space""]",ro,3,,,,,,,,,,,,,,,4.0,2.0,Català,0.0,Castellà,6.0,Inglés,6.0,Francés,14.0,5.0,3.0,yes,no,yes,Saxo,10,,,"Mientras tanto me iba apareciendo a la mente pensamientos. No estaba 100% concentrado. He intentado estarlo todo lo posible, pero mi mente me iba diciendo ""tienes que comprar eso"" o me acordaba de citas con chicos etc. Pero me ha gustado mucho el experimento, repetiría y si queréis se lo paso a conocides. Gracias!",66.0,yes
