Unnamed: 0,date,expName,participant,age,sex,hand,residence,native_lang,education_level,lang_deficit,aud_deficit,group,block,condition,language,rhythm,rule structure online,rule type online,order_trial_on,trial_online,s1,s2,s3,s4,s5,s6,s7,s8,s9,s10,s11,catch_syll_resp,rts_syll_catch,clean_rts,time_syll,beat_no_beat,catch_rtsTR,catch_rts,syllable_catch.keys,cond_syll,syll_to_catch,test_offline,block_off,condition_off,rhythm_off,rule,rule_str_off,rule_norule,conds_offline,language_off,Partz_no_partm.keys,Partz_no_partm.rt,security_1_7.keys,accuracy,security_1_7.rt,n_lang,n_lang_used,lang_1,age_l1,lang_2,age_l2,lang_3,age_l3,lang_4,age_l4,lang_5,age_l5,ability_learn_l2,tendence_mix_lan,music_experience,muisc_use,partiture,instr_1,age_M1,instr_2,age_M2,preguntas_musica1,BMRQ_answer.response,final comment,BMRQ_Score,bilingual
0,2023-07-13_11h41.22.030,Unsyncopated1,s5,36.0,masculino,both,España,Español,Master degree,no,no,A,1,conjunction_syn,L4,syncopated,s1,r2,0,Online_conjL4_syn//b.ja.nu19.0.666.wav,ja,ña,po,nu,sil,ñi,ru,re,sil1,da,sil2,['miss'],,,0.0,beat,,,,ja,1,testConjL4Syn//dep_viol.r1.s1.0.wav,1.0,conjunction_syn,syncopated,a,s1,no_rule,dep,L4,z,4.4641,7.0,0.0,3.2311,4.0,3.0,Español,0.0,Húngaro,1.0,Inglés,6.0,Alemán,15.0,Italiano,14.0,5.0,2.0,yes,no,no,Guitarra,10,Tambor,10,1. Cuando comparto música con alguien siento una complicidad especial con aquella persona.,4.0,"En el ultimo test la silaba FE es muy dificil de identificar, no se si es por que lo dice la maquina, pero casi no se aprecia.Algunos de los idiomas, tienen similitudes con las lenguages indigenas o Japonesas ya que usan silabas.",71.0,yes
1,2023-07-13_11h41.22.030,Unsyncopated1,s5,36.0,masculino,both,España,Español,Master degree,no,no,A,1,conjunction_syn,L4,syncopated,s2,r2,1,Online_conjL4_syn//b.ja.nu18.666.1554.wav,ru,pe,po,ja,sil,bu,bo,nu,sil1,da,sil2,['catch'],[1.0218000000006668],[1.0218000000006668],0.666,no_beat,0.3558000000006668,0.3558000000006668,"[""space""]",ja,1,testConjL4Syn//dep_viol.r2.s1.0.wav,1.0,conjunction_syn,syncopated,b,s1,no_rule,dep,L4,m,9.1878,6.0,1.0,3.1044,4.0,3.0,Español,0.0,Húngaro,1.0,Inglés,6.0,Alemán,15.0,Italiano,14.0,5.0,2.0,yes,no,no,Guitarra,10,Tambor,10,2. En mi tiempo libre apenas escucho música.,5.0,"En el ultimo test la silaba FE es muy dificil de identificar, no se si es por que lo dice la maquina, pero casi no se aprecia.Algunos de los idiomas, tienen similitudes con las lenguages indigenas o Japonesas ya que usan silabas.",71.0,yes
2,2023-07-13_11h41.22.030,Unsyncopated1,s5,36.0,masculino,both,España,Español,Master degree,no,no,A,1,conjunction_syn,L4,syncopated,s2,r1,2,Online_conjL4_syn//b.ja.nu17.none.none.wav,ci,ru,de,zi,sil,bo,po,lo,sil1,bu,sil2,['-'],,,none,none,,,,ja,1,testConjL4Syn//cat_viol.r1.s2.0.wav,1.0,conjunction_syn,syncopated,a,s2,no_rule,cat,L4,z,2.796,7.0,0.0,1.8527,4.0,3.0,Español,0.0,Húngaro,1.0,Inglés,6.0,Alemán,15.0,Italiano,14.0,5.0,2.0,yes,no,no,Guitarra,10,Tambor,10,3. Algunas canciones me ponen los pelos de punta,4.0,"En el ultimo test la silaba FE es muy dificil de identificar, no se si es por que lo dice la maquina, pero casi no se aprecia.Algunos de los idiomas, tienen similitudes con las lenguages indigenas o Japonesas ya que usan silabas.",71.0,yes
3,2023-07-13_11h41.22.030,Unsyncopated1,s5,36.0,masculino,both,España,Español,Master degree,no,no,A,1,conjunction_syn,L4,syncopated,s2,r1,3,Online_conjL4_syn//b.ja.nu16.none.none.wav,da,ru,bo,zi,sil,re,pe,lo,sil1,bu,sil2,['-'],,,none,none,,,,ja,1,testConjL4Syn//r2.s2.1.wav,1.0,conjunction_syn,syncopated,b,s2,rule,rule,L4,m,7.8691,6.0,0.0,1.5226,4.0,3.0,Español,0.0,Húngaro,1.0,Inglés,6.0,Alemán,15.0,Italiano,14.0,5.0,2.0,yes,no,no,Guitarra,10,Tambor,10,4. La música me hace compañía cuando estoy solo,4.0,"En el ultimo test la silaba FE es muy dificil de identificar, no se si es por que lo dice la maquina, pero casi no se aprecia.Algunos de los idiomas, tienen similitudes con las lenguages indigenas o Japonesas ya que usan silabas.",71.0,yes
4,2023-07-13_11h41.22.030,Unsyncopated1,s5,36.0,masculino,both,España,Español,Master degree,no,no,A,1,conjunction_syn,L4,syncopated,s1,r1,4,Online_conjL4_syn//c.bu.da18.1110.1332.wav,zi,bo,ñi,lo,sil,bu,da,de,sil1,po,sil2,['catch'],[1.6006999999992786],[1.6006999999992786],1.11,no_beat,0.4906999999992785,0.4906999999992785,"[""space""]",bu,3,testConjL4Syn//dep_viol.r1.s2.0.wav,1.0,conjunction_syn,syncopated,a,s2,no_rule,dep,L4,z,6.0784,6.0,0.0,2.954,4.0,3.0,Español,0.0,Húngaro,1.0,Inglés,6.0,Alemán,15.0,Italiano,14.0,5.0,2.0,yes,no,no,Guitarra,10,Tambor,10,5. No me apetece bailar ni con la música que más me gusta,5.0,"En el ultimo test la silaba FE es muy dificil de identificar, no se si es por que lo dice la maquina, pero casi no se aprecia.Algunos de los idiomas, tienen similitudes con las lenguages indigenas o Japonesas ya que usan silabas.",71.0,yes
5,2023-07-13_11h41.22.030,Unsyncopated1,s5,36.0,masculino,both,España,Español,Master degree,no,no,A,1,conjunction_syn,L4,syncopated,s2,r1,5,Online_conjL4_syn//c.bu.da19.none.none.wav,po,ña,ru,zi,sil,de,pe,lo,sil1,ci,sil2,['-'],,,none,none,,,,bu,3,testConjL4Syn//r2.s1.1.wav,1.0,conjunction_syn,syncopated,b,s1,rule,rule,L4,z,1.7983,7.0,1.0,1.8521,4.0,3.0,Español,0.0,Húngaro,1.0,Inglés,6.0,Alemán,15.0,Italiano,14.0,5.0,2.0,yes,no,no,Guitarra,10,Tambor,10,6. La música me hace conectar con la gente,3.0,"En el ultimo test la silaba FE es muy dificil de identificar, no se si es por que lo dice la maquina, pero casi no se aprecia.Algunos de los idiomas, tienen similitudes con las lenguages indigenas o Japonesas ya que usan silabas.",71.0,yes
6,2023-07-13_11h41.22.030,Unsyncopated1,s5,36.0,masculino,both,España,Español,Master degree,no,no,A,1,conjunction_syn,L4,syncopated,s1,r1,6,Online_conjL4_syn//c.bu.da17.none.none.wav,zi,bo,de,lo,sil,po,ña,re,sil1,ci,sil2,['-'],,,none,none,,,,bu,3,testConjL4Syn//cat_viol.r1.s1.0.wav,1.0,conjunction_syn,syncopated,a,s1,no_rule,cat,L4,z,1.5564,7.0,0.0,1.2211,4.0,3.0,Español,0.0,Húngaro,1.0,Inglés,6.0,Alemán,15.0,Italiano,14.0,5.0,2.0,yes,no,no,Guitarra,10,Tambor,10,7. Me informo sobre la música que me gusta.,3.0,"En el ultimo test la silaba FE es muy dificil de identificar, no se si es por que lo dice la maquina, pero casi no se aprecia.Algunos de los idiomas, tienen similitudes con las lenguages indigenas o Japonesas ya que usan silabas.",71.0,yes
7,2023-07-13_11h41.22.030,Unsyncopated1,s5,36.0,masculino,both,España,Español,Master degree,no,no,A,1,conjunction_syn,L4,syncopated,s2,r2,7,Online_conjL4_syn//c.bu.da16.none.none.wav,po,ci,re,ja,sil,pe,de,nu,sil1,ru,sil2,['-'],,,none,none,,,,bu,3,testConjL4Syn//time_viol.r1.s2.0.wav,1.0,conjunction_syn,syncopated,a,s2,no_rule,time,L4,z,3.4358,7.0,0.0,0.6956,4.0,3.0,Español,0.0,Húngaro,1.0,Inglés,6.0,Alemán,15.0,Italiano,14.0,5.0,2.0,yes,no,no,Guitarra,10,Tambor,10,8.Me emociono escuchando ciertas canciones.,4.0,"En el ultimo test la silaba FE es muy dificil de identificar, no se si es por que lo dice la maquina, pero casi no se aprecia.Algunos de los idiomas, tienen similitudes con las lenguages indigenas o Japonesas ya que usan silabas.",71.0,yes
8,2023-07-13_11h41.22.030,Unsyncopated1,s5,36.0,masculino,both,España,Español,Master degree,no,no,A,1,conjunction_syn,L4,syncopated,s1,r2,8,Online_conjL4_syn//b.ja.nu12.0.666.wav,ja,ñi,de,nu,sil,pe,po,da,sil1,ru,sil2,['catch'],[0.5442000000011831],[0.5442000000011831],0.0,beat,0.5442000000011831,0.5442000000011831,"[""space""]",ja,1,testConjL4Syn//r1.s1.0.wav,1.0,conjunction_syn,syncopated,a,s1,rule,rule,L4,z,1.7327,7.0,1.0,1.0887,4.0,3.0,Español,0.0,Húngaro,1.0,Inglés,6.0,Alemán,15.0,Italiano,14.0,5.0,2.0,yes,no,no,Guitarra,10,Tambor,10,9.La música me tranquiliza y me relaja.,4.0,"En el ultimo test la silaba FE es muy dificil de identificar, no se si es por que lo dice la maquina, pero casi no se aprecia.Algunos de los idiomas, tienen similitudes con las lenguages indigenas o Japonesas ya que usan silabas.",71.0,yes
9,2023-07-13_11h41.22.030,Unsyncopated1,s5,36.0,masculino,both,España,Español,Master degree,no,no,A,1,conjunction_syn,L4,syncopated,s2,r1,9,Online_conjL4_syn//b.ja.nu13.none.none.wav,re,ci,bu,zi,sil,po,bo,lo,sil1,pe,sil2,['-'],,,none,none,,,,ja,1,testConjL4Syn//r2.s1.0.wav,1.0,conjunction_syn,syncopated,b,s1,rule,rule,L4,z,1.2829,7.0,1.0,0.4399,4.0,3.0,Español,0.0,Húngaro,1.0,Inglés,6.0,Alemán,15.0,Italiano,14.0,5.0,2.0,yes,no,no,Guitarra,10,Tambor,10,10.La música me hace bailar,4.0,"En el ultimo test la silaba FE es muy dificil de identificar, no se si es por que lo dice la maquina, pero casi no se aprecia.Algunos de los idiomas, tienen similitudes con las lenguages indigenas o Japonesas ya que usan silabas.",71.0,yes
10,2023-07-13_11h41.22.030,Unsyncopated1,s5,36.0,masculino,both,España,Español,Master degree,no,no,A,1,conjunction_syn,L4,syncopated,s2,r1,10,Online_conjL4_syn//b.ja.nu14.none.none.wav,pe,ci,da,zi,sil,po,bu,lo,sil1,ña,sil2,['-'],,,none,none,,,,ja,1,testConjL4Syn//dep_viol.r2.s2.0.wav,1.0,conjunction_syn,syncopated,b,s2,no_rule,dep,L4,z,2.1678,7.0,0.0,0.7067,4.0,3.0,Español,0.0,Húngaro,1.0,Inglés,6.0,Alemán,15.0,Italiano,14.0,5.0,2.0,yes,no,no,Guitarra,10,Tambor,10,11.Busco novedades musicales continuamente,4.0,"En el ultimo test la silaba FE es muy dificil de identificar, no se si es por que lo dice la maquina, pero casi no se aprecia.Algunos de los idiomas, tienen similitudes con las lenguages indigenas o Japonesas ya que usan silabas.",71.0,yes
11,2023-07-13_11h41.22.030,Unsyncopated1,s5,36.0,masculino,both,España,Español,Master degree,no,no,A,1,conjunction_syn,L4,syncopated,s1,r2,11,Online_conjL4_syn//b.ja.nu15.0.666.wav,ja,ru,ci,nu,sil,de,da,po,sil1,bo,sil2,['catch'],[0.3524999999999636],[0.3524999999999636],0.0,beat,0.3524999999999636,0.3524999999999636,"[""space""]",ja,1,testConjL4Syn//r2.s1.2.wav,1.0,conjunction_syn,syncopated,b,s1,rule,rule,L4,z,3.6044,7.0,1.0,0.8356,4.0,3.0,Español,0.0,Húngaro,1.0,Inglés,6.0,Alemán,15.0,Italiano,14.0,5.0,2.0,yes,no,no,Guitarra,10,Tambor,10,12. Puedo llorar cuando escucho algunas melodías que me gustan mucho.,0.0,"En el ultimo test la silaba FE es muy dificil de identificar, no se si es por que lo dice la maquina, pero casi no se aprecia.Algunos de los idiomas, tienen similitudes con las lenguages indigenas o Japonesas ya que usan silabas.",71.0,yes
12,2023-07-13_11h41.22.030,Unsyncopated1,s5,36.0,masculino,both,España,Español,Master degree,no,no,A,1,conjunction_syn,L4,syncopated,s2,r2,12,Online_conjL4_syn//b.ja.nu0.666.1554.wav,ña,bu,ci,ja,sil,ñi,re,nu,sil1,po,sil2,['catch'],[1.351699999999255],[1.351699999999255],0.666,no_beat,0.6856999999992549,0.6856999999992549,"[""space""]",ja,1,testConjL4Syn//cat_viol.r2.s2.0.wav,1.0,conjunction_syn,syncopated,b,s2,no_rule,cat,L4,m,9.4061,5.0,1.0,1.6349,4.0,3.0,Español,0.0,Húngaro,1.0,Inglés,6.0,Alemán,15.0,Italiano,14.0,5.0,2.0,yes,no,no,Guitarra,10,Tambor,10,13. Me gusta cantar o tocar un instrumento con más gente,3.0,"En el ultimo test la silaba FE es muy dificil de identificar, no se si es por que lo dice la maquina, pero casi no se aprecia.Algunos de los idiomas, tienen similitudes con las lenguages indigenas o Japonesas ya que usan silabas.",71.0,yes
13,2023-07-13_11h41.22.030,Unsyncopated1,s5,36.0,masculino,both,España,Español,Master degree,no,no,A,1,conjunction_syn,L4,syncopated,s1,r1,13,Online_conjL4_syn//b.ja.nu1.none.none.wav,zi,de,ru,lo,sil,po,ña,bu,sil1,da,sil2,['-'],,,none,none,,,,ja,1,testConjL4Syn//time_viol.r1.s1.0.wav,1.0,conjunction_syn,syncopated,a,s1,no_rule,time,L4,m,2.3701,7.0,1.0,0.4346,4.0,3.0,Español,0.0,Húngaro,1.0,Inglés,6.0,Alemán,15.0,Italiano,14.0,5.0,2.0,yes,no,no,Guitarra,10,Tambor,10,14. La música me ayuda a desconectar.,4.0,"En el ultimo test la silaba FE es muy dificil de identificar, no se si es por que lo dice la maquina, pero casi no se aprecia.Algunos de los idiomas, tienen similitudes con las lenguages indigenas o Japonesas ya que usan silabas.",71.0,yes
14,2023-07-13_11h41.22.030,Unsyncopated1,s5,36.0,masculino,both,España,Español,Master degree,no,no,A,1,conjunction_syn,L4,syncopated,s1,r2,14,Online_conjL4_syn//b.ja.nu3.0.666.wav,ja,bu,bo,nu,sil,pe,ru,re,sil1,ñi,sil2,['catch'],[0.3019000000003871],[0.3019000000003871],0.0,beat,0.3019000000003871,0.3019000000003871,"[""space""]",ja,1,testConjL4Syn//r2.s2.2.wav,1.0,conjunction_syn,syncopated,b,s2,rule,rule,L4,z,1.1757,7.0,1.0,0.9996,4.0,3.0,Español,0.0,Húngaro,1.0,Inglés,6.0,Alemán,15.0,Italiano,14.0,5.0,2.0,yes,no,no,Guitarra,10,Tambor,10,15. No puedo evitar tararear las canciones que me gustan cuando las escucho.,4.0,"En el ultimo test la silaba FE es muy dificil de identificar, no se si es por que lo dice la maquina, pero casi no se aprecia.Algunos de los idiomas, tienen similitudes con las lenguages indigenas o Japonesas ya que usan silabas.",71.0,yes
15,2023-07-13_11h41.22.030,Unsyncopated1,s5,36.0,masculino,both,España,Español,Master degree,no,no,A,1,conjunction_syn,L4,syncopated,s1,r1,15,Online_conjL4_syn//b.ja.nu2.none.none.wav,zi,da,ru,lo,sil,bo,ci,ñi,sil1,de,sil2,['-'],,,none,none,,,,ja,1,testConjL4Syn//r1.s2.0.wav,1.0,conjunction_syn,syncopated,a,s2,rule,rule,L4,z,1.9772,7.0,1.0,0.8707,4.0,3.0,Español,0.0,Húngaro,1.0,Inglés,6.0,Alemán,15.0,Italiano,14.0,5.0,2.0,yes,no,no,Guitarra,10,Tambor,10,16. En los conciertos me siento en sintonía con los artistas y el público.,3.0,"En el ultimo test la silaba FE es muy dificil de identificar, no se si es por que lo dice la maquina, pero casi no se aprecia.Algunos de los idiomas, tienen similitudes con las lenguages indigenas o Japonesas ya que usan silabas.",71.0,yes
16,2023-07-13_11h41.22.030,Unsyncopated1,s5,36.0,masculino,both,España,Español,Master degree,no,no,A,1,conjunction_syn,L4,syncopated,s2,r2,16,Online_conjL4_syn//a.zi.lo3.none.none.wav,po,ci,pe,ja,sil,re,bo,nu,sil1,ña,sil2,['-'],,,none,none,,,,lo,2,testConjL4Syn//r1.s2.2.wav,1.0,conjunction_syn,syncopated,a,s2,rule,rule,L4,m,2.3908,7.0,0.0,2.3111,4.0,3.0,Español,0.0,Húngaro,1.0,Inglés,6.0,Alemán,15.0,Italiano,14.0,5.0,2.0,yes,no,no,Guitarra,10,Tambor,10,17. Me gasto bastante dinero en música y cosas relacionadas con la música.,1.0,"En el ultimo test la silaba FE es muy dificil de identificar, no se si es por que lo dice la maquina, pero casi no se aprecia.Algunos de los idiomas, tienen similitudes con las lenguages indigenas o Japonesas ya que usan silabas.",71.0,yes
17,2023-07-13_11h41.22.030,Unsyncopated1,s5,36.0,masculino,both,España,Español,Master degree,no,no,A,1,conjunction_syn,L4,syncopated,s1,r1,17,Online_conjL4_syn//a.zi.lo2.0.666.wav,zi,ñi,re,lo,sil,bu,ci,bo,sil1,ña,sil2,['catch'],[0.98700000000008],[0.98700000000008],0.666,no_beat,0.32100000000008,0.32100000000008,"[""space""]",lo,2,testConjL4Syn//time_viol.r2.s2.0.wav,1.0,conjunction_syn,syncopated,b,s2,no_rule,time,L4,z,1.3834,7.0,0.0,0.2046,4.0,3.0,Español,0.0,Húngaro,1.0,Inglés,6.0,Alemán,15.0,Italiano,14.0,5.0,2.0,yes,no,no,Guitarra,10,Tambor,10,18. Siento escalofríos cuando escucho una melodía que me gusta.,4.0,"En el ultimo test la silaba FE es muy dificil de identificar, no se si es por que lo dice la maquina, pero casi no se aprecia.Algunos de los idiomas, tienen similitudes con las lenguages indigenas o Japonesas ya que usan silabas.",71.0,yes
18,2023-07-13_11h41.22.030,Unsyncopated1,s5,36.0,masculino,both,España,Español,Master degree,no,no,A,1,conjunction_syn,L4,syncopated,s2,r2,18,Online_conjL4_syn//a.zi.lo0.none.none.wav,bu,bo,po,ja,sil,de,ñi,nu,sil1,re,sil2,['-'],,,none,none,,,,lo,2,testConjL4Syn//r2.s2.0.wav,1.0,conjunction_syn,syncopated,b,s2,rule,rule,L4,m,3.5539,5.0,0.0,0.2385,4.0,3.0,Español,0.0,Húngaro,1.0,Inglés,6.0,Alemán,15.0,Italiano,14.0,5.0,2.0,yes,no,no,Guitarra,10,Tambor,10,19. Con la música me puedo desahogar.,4.0,"En el ultimo test la silaba FE es muy dificil de identificar, no se si es por que lo dice la maquina, pero casi no se aprecia.Algunos de los idiomas, tienen similitudes con las lenguages indigenas o Japonesas ya que usan silabas.",71.0,yes
19,2023-07-13_11h41.22.030,Unsyncopated1,s5,36.0,masculino,both,España,Español,Master degree,no,no,A,1,conjunction_syn,L4,syncopated,s1,r2,19,Online_conjL4_syn//a.zi.lo1.none.none.wav,ja,re,ru,nu,sil,de,da,bu,sil1,ñi,sil2,['-'],,,none,none,,,,lo,2,testConjL4Syn//r1.s1.2.wav,1.0,conjunction_syn,syncopated,a,s1,rule,rule,L4,m,1.3729,7.0,0.0,0.373,4.0,3.0,Español,0.0,Húngaro,1.0,Inglés,6.0,Alemán,15.0,Italiano,14.0,5.0,2.0,yes,no,no,Guitarra,10,Tambor,10,20. Cuando escucho una melodía que me gusta mucho no puedo evitar mover el cuerpo.,4.0,"En el ultimo test la silaba FE es muy dificil de identificar, no se si es por que lo dice la maquina, pero casi no se aprecia.Algunos de los idiomas, tienen similitudes con las lenguages indigenas o Japonesas ya que usan silabas.",71.0,yes
20,2023-07-13_11h41.22.030,Unsyncopated1,s5,36.0,masculino,both,España,Español,Master degree,no,no,A,1,conjunction_syn,L4,syncopated,s2,r2,20,Online_conjL4_syn//a.zi.lo29.none.none.wav,ña,da,re,ja,sil,ci,po,nu,sil1,ru,sil2,['-'],,,none,none,,,,lo,2,testConjL4Syn//time_viol.r2.s1.0.wav,1.0,conjunction_syn,syncopated,b,s1,no_rule,time,L4,m,0.7988,7.0,1.0,0.3848,4.0,3.0,Español,0.0,Húngaro,1.0,Inglés,6.0,Alemán,15.0,Italiano,14.0,5.0,2.0,yes,no,no,Guitarra,10,Tambor,10,,,"En el ultimo test la silaba FE es muy dificil de identificar, no se si es por que lo dice la maquina, pero casi no se aprecia.Algunos de los idiomas, tienen similitudes con las lenguages indigenas o Japonesas ya que usan silabas.",71.0,yes
21,2023-07-13_11h41.22.030,Unsyncopated1,s5,36.0,masculino,both,España,Español,Master degree,no,no,A,1,conjunction_syn,L4,syncopated,s2,r2,21,Online_conjL4_syn//a.zi.lo31.none.none.wav,bo,ru,ci,ja,sil,po,da,nu,sil1,bu,sil2,['-'],,,none,none,,,,lo,2,testConjL4Syn//r1.s1.1.wav,1.0,conjunction_syn,syncopated,a,s1,rule,rule,L4,m,3.4617,7.0,0.0,0.5078,4.0,3.0,Español,0.0,Húngaro,1.0,Inglés,6.0,Alemán,15.0,Italiano,14.0,5.0,2.0,yes,no,no,Guitarra,10,Tambor,10,,,"En el ultimo test la silaba FE es muy dificil de identificar, no se si es por que lo dice la maquina, pero casi no se aprecia.Algunos de los idiomas, tienen similitudes con las lenguages indigenas o Japonesas ya que usan silabas.",71.0,yes
22,2023-07-13_11h41.22.030,Unsyncopated1,s5,36.0,masculino,both,España,Español,Master degree,no,no,A,1,conjunction_syn,L4,syncopated,s1,r1,22,Online_conjL4_syn//a.zi.lo30.0.666.wav,zi,ñi,ru,lo,sil,bu,bo,ña,sil1,de,sil2,['catch'],[1.084500000000162],[1.084500000000162],0.666,no_beat,0.4185000000001618,0.4185000000001618,"[""space""]",lo,2,testConjL4Syn//cat_viol.r2.s1.0.wav,1.0,conjunction_syn,syncopated,b,s1,no_rule,cat,L4,z,1.8856,7.0,0.0,0.2103,4.0,3.0,Español,0.0,Húngaro,1.0,Inglés,6.0,Alemán,15.0,Italiano,14.0,5.0,2.0,yes,no,no,Guitarra,10,Tambor,10,,,"En el ultimo test la silaba FE es muy dificil de identificar, no se si es por que lo dice la maquina, pero casi no se aprecia.Algunos de los idiomas, tienen similitudes con las lenguages indigenas o Japonesas ya que usan silabas.",71.0,yes
23,2023-07-13_11h41.22.030,Unsyncopated1,s5,36.0,masculino,both,España,Español,Master degree,no,no,A,1,conjunction_syn,L4,syncopated,s1,r2,23,Online_conjL4_syn//a.zi.lo28.none.none.wav,ja,pe,bu,nu,sil,ña,ñi,bo,sil1,ru,sil2,['-'],,,none,none,,,,lo,2,testConjL4Syn//r1.s2.1.wav,1.0,conjunction_syn,syncopated,a,s2,rule,rule,L4,z,1.0391,7.0,1.0,0.2271,4.0,3.0,Español,0.0,Húngaro,1.0,Inglés,6.0,Alemán,15.0,Italiano,14.0,5.0,2.0,yes,no,no,Guitarra,10,Tambor,10,,,"En el ultimo test la silaba FE es muy dificil de identificar, no se si es por que lo dice la maquina, pero casi no se aprecia.Algunos de los idiomas, tienen similitudes con las lenguages indigenas o Japonesas ya que usan silabas.",71.0,yes
24,2023-07-13_11h41.22.030,Unsyncopated1,s5,36.0,masculino,both,España,Español,Master degree,no,no,A,1,conjunction_syn,L4,syncopated,s1,r1,24,Online_conjL4_syn//a.zi.lo5.0.666.wav,zi,bo,ña,lo,sil,pe,de,re,sil1,ñi,sil2,['catch'],[1.0580999999997402],[1.0580999999997402],0.666,no_beat,0.3920999999997402,0.3920999999997402,"[""space""]",lo,2,testWhenL3Uns//cat_viol.r2.s1.0.wav,2.0,when,unsyncopated,b,s1,no_rule,cat,L3,m,13.5421,6.0,0.0,1.4268,4.0,3.0,Español,0.0,Húngaro,1.0,Inglés,6.0,Alemán,15.0,Italiano,14.0,5.0,2.0,yes,no,no,Guitarra,10,Tambor,10,,,"En el ultimo test la silaba FE es muy dificil de identificar, no se si es por que lo dice la maquina, pero casi no se aprecia.Algunos de los idiomas, tienen similitudes con las lenguages indigenas o Japonesas ya que usan silabas.",71.0,yes
25,2023-07-13_11h41.22.030,Unsyncopated1,s5,36.0,masculino,both,España,Español,Master degree,no,no,A,1,conjunction_syn,L4,syncopated,s2,r1,25,Online_conjL4_syn//a.zi.lo7.666.1554.wav,ru,de,po,zi,sil,ña,ñi,lo,sil1,da,sil2,['miss'],,,1.554,no_beat,,,,lo,2,testWhenL3Uns//dep_viol.r1.s1.0.wav,2.0,when,unsyncopated,a,s1,no_rule,dep,L3,m,5.5709,6.0,0.0,1.0372,4.0,3.0,Español,0.0,Húngaro,1.0,Inglés,6.0,Alemán,15.0,Italiano,14.0,5.0,2.0,yes,no,no,Guitarra,10,Tambor,10,,,"En el ultimo test la silaba FE es muy dificil de identificar, no se si es por que lo dice la maquina, pero casi no se aprecia.Algunos de los idiomas, tienen similitudes con las lenguages indigenas o Japonesas ya que usan silabas.",71.0,yes
26,2023-07-13_11h41.22.030,Unsyncopated1,s5,36.0,masculino,both,España,Español,Master degree,no,no,A,1,conjunction_syn,L4,syncopated,s1,r1,26,Online_conjL4_syn//a.zi.lo4.0.666.wav,zi,po,re,lo,sil,ñi,da,bo,sil1,bu,sil2,['catch'],[1.0949000000002798],[1.0949000000002798],0.666,no_beat,0.4289000000002797,0.4289000000002797,"[""space""]",lo,2,testWhenL3Uns//r2.s1.2.wav,2.0,when,unsyncopated,b,s1,rule,rule,L3,z,1.2785,6.0,1.0,1.5911,4.0,3.0,Español,0.0,Húngaro,1.0,Inglés,6.0,Alemán,15.0,Italiano,14.0,5.0,2.0,yes,no,no,Guitarra,10,Tambor,10,,,"En el ultimo test la silaba FE es muy dificil de identificar, no se si es por que lo dice la maquina, pero casi no se aprecia.Algunos de los idiomas, tienen similitudes con las lenguages indigenas o Japonesas ya que usan silabas.",71.0,yes
27,2023-07-13_11h41.22.030,Unsyncopated1,s5,36.0,masculino,both,España,Español,Master degree,no,no,A,1,conjunction_syn,L4,syncopated,s2,r2,27,Online_conjL4_syn//a.zi.lo6.none.none.wav,ci,da,ru,ja,sil,bo,pe,nu,sil1,re,sil2,['-'],,,none,none,,,,lo,2,testWhenL3Uns//r2.s1.1.wav,2.0,when,unsyncopated,b,s1,rule,rule,L3,m,2.8385,6.0,0.0,0.5056,4.0,3.0,Español,0.0,Húngaro,1.0,Inglés,6.0,Alemán,15.0,Italiano,14.0,5.0,2.0,yes,no,no,Guitarra,10,Tambor,10,,,"En el ultimo test la silaba FE es muy dificil de identificar, no se si es por que lo dice la maquina, pero casi no se aprecia.Algunos de los idiomas, tienen similitudes con las lenguages indigenas o Japonesas ya que usan silabas.",71.0,yes
28,2023-07-13_11h41.22.030,Unsyncopated1,s5,36.0,masculino,both,España,Español,Master degree,no,no,A,1,conjunction_syn,L4,syncopated,s2,r2,28,Online_conjL4_syn//d.pe.po22.444.1110.wav,de,ru,pe,ja,sil,po,re,nu,sil1,bo,sil2,"['catch', 'false alarm']","[1.037099999999782, 2.134699999999384]",[1.037099999999782],0.444,no_beat,0.5930999999997821,0.5930999999997821,"[""space"",""space""]",pe,4,testWhenL3Uns//time_viol.r1.s1.0.wav,2.0,when,unsyncopated,a,s1,no_rule,time,L3,z,2.1681,6.0,1.0,0.5227,4.0,3.0,Español,0.0,Húngaro,1.0,Inglés,6.0,Alemán,15.0,Italiano,14.0,5.0,2.0,yes,no,no,Guitarra,10,Tambor,10,,,"En el ultimo test la silaba FE es muy dificil de identificar, no se si es por que lo dice la maquina, pero casi no se aprecia.Algunos de los idiomas, tienen similitudes con las lenguages indigenas o Japonesas ya que usan silabas.",71.0,yes
29,2023-07-13_11h41.22.030,Unsyncopated1,s5,36.0,masculino,both,España,Español,Master degree,no,no,A,1,conjunction_syn,L4,syncopated,s1,r2,29,Online_conjL4_syn//d.pe.po21.none.none.wav,ja,bo,bu,nu,sil,ci,ña,de,sil1,ru,sil2,['-'],,,none,none,,,,pe,4,testWhenL3Uns//r2.s2.0.wav,2.0,when,unsyncopated,b,s2,rule,rule,L3,m,3.6183,7.0,0.0,1.3069,4.0,3.0,Español,0.0,Húngaro,1.0,Inglés,6.0,Alemán,15.0,Italiano,14.0,5.0,2.0,yes,no,no,Guitarra,10,Tambor,10,,,"En el ultimo test la silaba FE es muy dificil de identificar, no se si es por que lo dice la maquina, pero casi no se aprecia.Algunos de los idiomas, tienen similitudes con las lenguages indigenas o Japonesas ya que usan silabas.",71.0,yes
30,2023-07-13_11h41.22.030,Unsyncopated1,s5,36.0,masculino,both,España,Español,Master degree,no,no,A,1,conjunction_syn,L4,syncopated,s1,r1,30,Online_conjL4_syn//d.pe.po20.1332.444.wav,zi,ru,po,lo,sil,bo,pe,de,sil1,da,sil2,['miss'],,,1.332,no_beat,,,,pe,4,testWhenL3Uns//r1.s2.2.wav,2.0,when,unsyncopated,a,s2,rule,rule,L3,z,1.4277,7.0,1.0,0.5859,4.0,3.0,Español,0.0,Húngaro,1.0,Inglés,6.0,Alemán,15.0,Italiano,14.0,5.0,2.0,yes,no,no,Guitarra,10,Tambor,10,,,"En el ultimo test la silaba FE es muy dificil de identificar, no se si es por que lo dice la maquina, pero casi no se aprecia.Algunos de los idiomas, tienen similitudes con las lenguages indigenas o Japonesas ya que usan silabas.",71.0,yes
31,2023-07-13_11h41.22.030,Unsyncopated1,s5,36.0,masculino,both,España,Español,Master degree,no,no,A,1,conjunction_syn,L4,syncopated,s1,r1,31,Online_conjL4_syn//d.pe.po23.none.none.wav,zi,bo,da,lo,sil,de,ña,ñi,sil1,ru,sil2,['-'],,,none,none,,,,pe,4,testWhenL3Uns//dep_viol.r2.s2.0.wav,2.0,when,unsyncopated,b,s2,no_rule,dep,L3,m,1.8169,7.0,0.0,0.2742,4.0,3.0,Español,0.0,Húngaro,1.0,Inglés,6.0,Alemán,15.0,Italiano,14.0,5.0,2.0,yes,no,no,Guitarra,10,Tambor,10,,,"En el ultimo test la silaba FE es muy dificil de identificar, no se si es por que lo dice la maquina, pero casi no se aprecia.Algunos de los idiomas, tienen similitudes con las lenguages indigenas o Japonesas ya que usan silabas.",71.0,yes
32,2023-07-13_11h41.22.030,Unsyncopated1,s5,36.0,masculino,both,España,Español,Master degree,no,no,A,1,conjunction_syn,L4,syncopated,s2,r2,32,Online_conjL4_syn//a.zi.lo13.none.none.wav,pe,de,ña,ja,sil,ci,ru,nu,sil1,po,sil2,['false alarm'],[0.4002999999988788],[0.4002999999988788],none,none,,,"[""space""]",lo,2,testWhenL3Uns//dep_viol.r1.s2.0.wav,2.0,when,unsyncopated,a,s2,no_rule,dep,L3,m,1.901,7.0,0.0,0.808,4.0,3.0,Español,0.0,Húngaro,1.0,Inglés,6.0,Alemán,15.0,Italiano,14.0,5.0,2.0,yes,no,no,Guitarra,10,Tambor,10,,,"En el ultimo test la silaba FE es muy dificil de identificar, no se si es por que lo dice la maquina, pero casi no se aprecia.Algunos de los idiomas, tienen similitudes con las lenguages indigenas o Japonesas ya que usan silabas.",71.0,yes
33,2023-07-13_11h41.22.030,Unsyncopated1,s5,36.0,masculino,both,España,Español,Master degree,no,no,A,1,conjunction_syn,L4,syncopated,s2,r1,33,Online_conjL4_syn//a.zi.lo14.666.1554.wav,ci,bo,pe,zi,sil,re,bu,lo,sil1,da,sil2,['catch'],[2.0030000000001564],[2.0030000000001564],1.554,no_beat,0.4490000000001564,0.4490000000001564,"[""space""]",lo,2,testWhenL3Uns//r1.s1.0.wav,2.0,when,unsyncopated,a,s1,rule,rule,L3,m,3.7052,7.0,0.0,0.8361,4.0,3.0,Español,0.0,Húngaro,1.0,Inglés,6.0,Alemán,15.0,Italiano,14.0,5.0,2.0,yes,no,no,Guitarra,10,Tambor,10,,,"En el ultimo test la silaba FE es muy dificil de identificar, no se si es por que lo dice la maquina, pero casi no se aprecia.Algunos de los idiomas, tienen similitudes con las lenguages indigenas o Japonesas ya que usan silabas.",71.0,yes
34,2023-07-13_11h41.22.030,Unsyncopated1,s5,36.0,masculino,both,España,Español,Master degree,no,no,A,1,conjunction_syn,L4,syncopated,s1,r1,34,Online_conjL4_syn//a.zi.lo15.0.666.wav,zi,pe,ci,lo,sil,bo,po,ña,sil1,da,sil2,['miss'],,,0.666,no_beat,,,,lo,2,testWhenL3Uns//time_viol.r2.s2.0.wav,2.0,when,unsyncopated,b,s2,no_rule,time,L3,z,1.768,6.0,1.0,1.3674,4.0,3.0,Español,0.0,Húngaro,1.0,Inglés,6.0,Alemán,15.0,Italiano,14.0,5.0,2.0,yes,no,no,Guitarra,10,Tambor,10,,,"En el ultimo test la silaba FE es muy dificil de identificar, no se si es por que lo dice la maquina, pero casi no se aprecia.Algunos de los idiomas, tienen similitudes con las lenguages indigenas o Japonesas ya que usan silabas.",71.0,yes
35,2023-07-13_11h41.22.030,Unsyncopated1,s5,36.0,masculino,both,España,Español,Master degree,no,no,A,1,conjunction_syn,L4,syncopated,s1,r2,35,Online_conjL4_syn//a.zi.lo12.none.none.wav,ja,ci,ña,nu,sil,bu,bo,de,sil1,re,sil2,['-'],,,none,none,,,,lo,2,testWhenL3Uns//r2.s2.2.wav,2.0,when,unsyncopated,b,s2,rule,rule,L3,m,4.8505,7.0,0.0,0.3727,4.0,3.0,Español,0.0,Húngaro,1.0,Inglés,6.0,Alemán,15.0,Italiano,14.0,5.0,2.0,yes,no,no,Guitarra,10,Tambor,10,,,"En el ultimo test la silaba FE es muy dificil de identificar, no se si es por que lo dice la maquina, pero casi no se aprecia.Algunos de los idiomas, tienen similitudes con las lenguages indigenas o Japonesas ya que usan silabas.",71.0,yes
36,2023-07-13_11h41.22.030,Unsyncopated1,s5,36.0,masculino,both,España,Español,Master degree,no,no,A,1,conjunction_syn,L4,syncopated,s2,r1,36,Online_conjL4_syn//d.pe.po30.444.0.wav,po,ru,pe,zi,sil,bu,ci,lo,sil1,re,sil2,['catch'],[0.7899999999999636],[0.7899999999999636],0.444,no_beat,0.3459999999999636,0.3459999999999636,"[""space""]",pe,4,testWhenL3Uns//r1.s2.1.wav,2.0,when,unsyncopated,a,s2,rule,rule,L3,z,1.7184,7.0,1.0,0.1093,4.0,3.0,Español,0.0,Húngaro,1.0,Inglés,6.0,Alemán,15.0,Italiano,14.0,5.0,2.0,yes,no,no,Guitarra,10,Tambor,10,,,"En el ultimo test la silaba FE es muy dificil de identificar, no se si es por que lo dice la maquina, pero casi no se aprecia.Algunos de los idiomas, tienen similitudes con las lenguages indigenas o Japonesas ya que usan silabas.",71.0,yes
37,2023-07-13_11h41.22.030,Unsyncopated1,s5,36.0,masculino,both,España,Español,Master degree,no,no,A,1,conjunction_syn,L4,syncopated,s2,r2,37,Online_conjL4_syn//d.pe.po29.none.none.wav,da,ña,ru,ja,sil,ñi,de,nu,sil1,ci,sil2,['-'],,,none,none,,,,pe,4,testWhenL3Uns//cat_viol.r1.s2.0.wav,2.0,when,unsyncopated,a,s2,no_rule,cat,L3,m,0.9193,7.0,0.0,0.3171,4.0,3.0,Español,0.0,Húngaro,1.0,Inglés,6.0,Alemán,15.0,Italiano,14.0,5.0,2.0,yes,no,no,Guitarra,10,Tambor,10,,,"En el ultimo test la silaba FE es muy dificil de identificar, no se si es por que lo dice la maquina, pero casi no se aprecia.Algunos de los idiomas, tienen similitudes con las lenguages indigenas o Japonesas ya que usan silabas.",71.0,yes
38,2023-07-13_11h41.22.030,Unsyncopated1,s5,36.0,masculino,both,España,Español,Master degree,no,no,A,1,conjunction_syn,L4,syncopated,s1,r2,38,Online_conjL4_syn//d.pe.po28.none.none.wav,ja,ru,ña,nu,sil,re,bu,da,sil1,ci,sil2,['-'],,,none,none,,,,pe,4,testWhenL3Uns//r1.s2.0.wav,2.0,when,unsyncopated,a,s2,rule,rule,L3,m,1.1396,7.0,0.0,0.3174,4.0,3.0,Español,0.0,Húngaro,1.0,Inglés,6.0,Alemán,15.0,Italiano,14.0,5.0,2.0,yes,no,no,Guitarra,10,Tambor,10,,,"En el ultimo test la silaba FE es muy dificil de identificar, no se si es por que lo dice la maquina, pero casi no se aprecia.Algunos de los idiomas, tienen similitudes con las lenguages indigenas o Japonesas ya que usan silabas.",71.0,yes
39,2023-07-13_11h41.22.030,Unsyncopated1,s5,36.0,masculino,both,España,Español,Master degree,no,no,A,1,conjunction_syn,L4,syncopated,s1,r2,39,Online_conjL4_syn//d.pe.po31.444.1332.wav,ja,re,pe,nu,sil,de,po,ci,sil1,bo,sil2,['catch'],[0.9020999999995638],[0.9020999999995638],0.444,no_beat,0.4580999999995638,0.4580999999995638,"[""space""]",pe,4,testWhenL3Uns//r1.s1.1.wav,2.0,when,unsyncopated,a,s1,rule,rule,L3,z,3.0998,7.0,1.0,0.3688,4.0,3.0,Español,0.0,Húngaro,1.0,Inglés,6.0,Alemán,15.0,Italiano,14.0,5.0,2.0,yes,no,no,Guitarra,10,Tambor,10,,,"En el ultimo test la silaba FE es muy dificil de identificar, no se si es por que lo dice la maquina, pero casi no se aprecia.Algunos de los idiomas, tienen similitudes con las lenguages indigenas o Japonesas ya que usan silabas.",71.0,yes
40,2023-07-13_11h41.22.030,Unsyncopated1,s5,36.0,masculino,both,España,Español,Master degree,no,no,A,1,conjunction_syn,L4,syncopated,s1,r2,40,Online_conjL4_syn//d.pe.po24.1332.222.wav,ja,po,ña,nu,sil,re,pe,ñi,sil1,ci,sil2,['catch'],[1.806599999999662],[1.806599999999662],1.332,no_beat,0.4745999999996619,0.4745999999996619,"[""space""]",pe,4,testWhenL3Uns//time_viol.r1.s2.0.wav,2.0,when,unsyncopated,a,s2,no_rule,time,L3,z,4.1172,7.0,1.0,0.3191,4.0,3.0,Español,0.0,Húngaro,1.0,Inglés,6.0,Alemán,15.0,Italiano,14.0,5.0,2.0,yes,no,no,Guitarra,10,Tambor,10,,,"En el ultimo test la silaba FE es muy dificil de identificar, no se si es por que lo dice la maquina, pero casi no se aprecia.Algunos de los idiomas, tienen similitudes con las lenguages indigenas o Japonesas ya que usan silabas.",71.0,yes
41,2023-07-13_11h41.22.030,Unsyncopated1,s5,36.0,masculino,both,España,Español,Master degree,no,no,A,1,conjunction_syn,L4,syncopated,s1,r1,41,Online_conjL4_syn//d.pe.po27.none.none.wav,zi,bo,ñi,lo,sil,ña,de,ci,sil1,ru,sil2,['-'],,,none,none,,,,pe,4,testWhenL3Uns//cat_viol.r2.s2.0.wav,2.0,when,unsyncopated,b,s2,no_rule,cat,L3,z,0.2336,7.0,1.0,0.0959,4.0,3.0,Español,0.0,Húngaro,1.0,Inglés,6.0,Alemán,15.0,Italiano,14.0,5.0,2.0,yes,no,no,Guitarra,10,Tambor,10,,,"En el ultimo test la silaba FE es muy dificil de identificar, no se si es por que lo dice la maquina, pero casi no se aprecia.Algunos de los idiomas, tienen similitudes con las lenguages indigenas o Japonesas ya que usan silabas.",71.0,yes
42,2023-07-13_11h41.22.030,Unsyncopated1,s5,36.0,masculino,both,España,Español,Master degree,no,no,A,1,conjunction_syn,L4,syncopated,s1,r1,42,Online_conjL4_syn//d.pe.po26.none.none.wav,zi,bo,ci,lo,sil,de,ña,da,sil1,ru,sil2,['-'],,,none,none,,,,pe,4,testWhenL3Uns//cat_viol.r1.s1.0.wav,2.0,when,unsyncopated,a,s1,no_rule,cat,L3,m,3.7427,7.0,0.0,0.1181,4.0,3.0,Español,0.0,Húngaro,1.0,Inglés,6.0,Alemán,15.0,Italiano,14.0,5.0,2.0,yes,no,no,Guitarra,10,Tambor,10,,,"En el ultimo test la silaba FE es muy dificil de identificar, no se si es por que lo dice la maquina, pero casi no se aprecia.Algunos de los idiomas, tienen similitudes con las lenguages indigenas o Japonesas ya que usan silabas.",71.0,yes
43,2023-07-13_11h41.22.030,Unsyncopated1,s5,36.0,masculino,both,España,Español,Master degree,no,no,A,1,conjunction_syn,L4,syncopated,s1,r1,43,Online_conjL4_syn//d.pe.po25.none.none.wav,zi,ña,ru,lo,sil,da,re,bu,sil1,ci,sil2,['-'],,,none,none,,,,pe,4,testWhenL3Uns//r2.s2.1.wav,2.0,when,unsyncopated,b,s2,rule,rule,L3,m,1.611,7.0,0.0,0.1344,4.0,3.0,Español,0.0,Húngaro,1.0,Inglés,6.0,Alemán,15.0,Italiano,14.0,5.0,2.0,yes,no,no,Guitarra,10,Tambor,10,,,"En el ultimo test la silaba FE es muy dificil de identificar, no se si es por que lo dice la maquina, pero casi no se aprecia.Algunos de los idiomas, tienen similitudes con las lenguages indigenas o Japonesas ya que usan silabas.",71.0,yes
44,2023-07-13_11h41.22.030,Unsyncopated1,s5,36.0,masculino,both,España,Español,Master degree,no,no,A,1,conjunction_syn,L4,syncopated,s2,r1,44,Online_conjL4_syn//d.pe.po2.none.none.wav,de,bo,da,zi,sil,ci,ñi,lo,sil1,ña,sil2,['-'],,,none,none,,,,pe,4,testWhenL3Uns//dep_viol.r2.s1.0.wav,2.0,when,unsyncopated,b,s1,no_rule,dep,L3,m,4.0839,7.0,0.0,0.3876,4.0,3.0,Español,0.0,Húngaro,1.0,Inglés,6.0,Alemán,15.0,Italiano,14.0,5.0,2.0,yes,no,no,Guitarra,10,Tambor,10,,,"En el ultimo test la silaba FE es muy dificil de identificar, no se si es por que lo dice la maquina, pero casi no se aprecia.Algunos de los idiomas, tienen similitudes con las lenguages indigenas o Japonesas ya que usan silabas.",71.0,yes
45,2023-07-13_11h41.22.030,Unsyncopated1,s5,36.0,masculino,both,España,Español,Master degree,no,no,A,1,conjunction_syn,L4,syncopated,s2,r1,45,Online_conjL4_syn//d.pe.po1.1332.222.wav,ñi,po,da,zi,sil,bu,pe,lo,sil1,bo,sil2,['catch'],[1.8350000000000364],[1.8350000000000364],1.332,no_beat,0.5030000000000363,0.5030000000000363,"[""space""]",pe,4,testWhenL3Uns//r1.s1.2.wav,2.0,when,unsyncopated,a,s1,rule,rule,L3,m,2.7849,6.0,0.0,0.1482,4.0,3.0,Español,0.0,Húngaro,1.0,Inglés,6.0,Alemán,15.0,Italiano,14.0,5.0,2.0,yes,no,no,Guitarra,10,Tambor,10,,,"En el ultimo test la silaba FE es muy dificil de identificar, no se si es por que lo dice la maquina, pero casi no se aprecia.Algunos de los idiomas, tienen similitudes con las lenguages indigenas o Japonesas ya que usan silabas.",71.0,yes
46,2023-07-13_11h41.22.030,Unsyncopated1,s5,36.0,masculino,both,España,Español,Master degree,no,no,A,1,conjunction_syn,L4,syncopated,s2,r1,46,Online_conjL4_syn//d.pe.po0.none.none.wav,ci,ru,ña,zi,sil,de,bu,lo,sil1,da,sil2,['-'],,,none,none,,,,pe,4,testWhenL3Uns//r2.s1.0.wav,2.0,when,unsyncopated,b,s1,rule,rule,L3,m,0.3016,7.0,0.0,0.1356,4.0,3.0,Español,0.0,Húngaro,1.0,Inglés,6.0,Alemán,15.0,Italiano,14.0,5.0,2.0,yes,no,no,Guitarra,10,Tambor,10,,,"En el ultimo test la silaba FE es muy dificil de identificar, no se si es por que lo dice la maquina, pero casi no se aprecia.Algunos de los idiomas, tienen similitudes con las lenguages indigenas o Japonesas ya que usan silabas.",71.0,yes
47,2023-07-13_11h41.22.030,Unsyncopated1,s5,36.0,masculino,both,España,Español,Master degree,no,no,A,1,conjunction_syn,L4,syncopated,s2,r2,47,Online_conjL4_syn//d.pe.po3.none.none.wav,re,ñi,ña,ja,sil,ci,da,nu,sil1,bo,sil2,['-'],,,none,none,,,,pe,4,testWhenL3Uns//time_viol.r2.s1.0.wav,2.0,when,unsyncopated,b,s1,no_rule,time,L3,z,1.251,7.0,1.0,0.2114,4.0,3.0,Español,0.0,Húngaro,1.0,Inglés,6.0,Alemán,15.0,Italiano,14.0,5.0,2.0,yes,no,no,Guitarra,10,Tambor,10,,,"En el ultimo test la silaba FE es muy dificil de identificar, no se si es por que lo dice la maquina, pero casi no se aprecia.Algunos de los idiomas, tienen similitudes con las lenguages indigenas o Japonesas ya que usan silabas.",71.0,yes
48,2023-07-13_11h41.22.030,Unsyncopated1,s5,36.0,masculino,both,España,Español,Master degree,no,no,A,1,conjunction_syn,L4,syncopated,s2,r1,48,Online_conjL4_syn//c.bu.da6.none.none.wav,pe,ci,ru,zi,sil,bo,po,lo,sil1,de,sil2,['false alarm'],[0.4309000000002925],[0.4309000000002925],none,none,,,"[""space""]",bu,3,testConjL1Uns//dep_viol.r1.s1.0.wav,3.0,conjunction_un,unsyncopated,a,s1,no_rule,dep,L1,z,1.7622,7.0,0.0,0.1069,4.0,3.0,Español,0.0,Húngaro,1.0,Inglés,6.0,Alemán,15.0,Italiano,14.0,5.0,2.0,yes,no,no,Guitarra,10,Tambor,10,,,"En el ultimo test la silaba FE es muy dificil de identificar, no se si es por que lo dice la maquina, pero casi no se aprecia.Algunos de los idiomas, tienen similitudes con las lenguages indigenas o Japonesas ya que usan silabas.",71.0,yes
49,2023-07-13_11h41.22.030,Unsyncopated1,s5,36.0,masculino,both,España,Español,Master degree,no,no,A,1,conjunction_syn,L4,syncopated,s1,r1,49,Online_conjL4_syn//c.bu.da5.222.1110.wav,zi,bu,ru,lo,sil,da,re,pe,sil1,ña,sil2,['miss'],,,0.222,no_beat,,,,bu,3,testConjL1Uns//r2.s2.2.wav,3.0,conjunction_un,unsyncopated,b,s2,rule,rule,L1,z,1.4891,7.0,1.0,0.3351,4.0,3.0,Español,0.0,Húngaro,1.0,Inglés,6.0,Alemán,15.0,Italiano,14.0,5.0,2.0,yes,no,no,Guitarra,10,Tambor,10,,,"En el ultimo test la silaba FE es muy dificil de identificar, no se si es por que lo dice la maquina, pero casi no se aprecia.Algunos de los idiomas, tienen similitudes con las lenguages indigenas o Japonesas ya que usan silabas.",71.0,yes
50,2023-07-13_11h41.22.030,Unsyncopated1,s5,36.0,masculino,both,España,Español,Master degree,no,no,A,1,conjunction_syn,L4,syncopated,s2,r1,50,Online_conjL4_syn//c.bu.da7.0.444.wav,bu,re,da,zi,sil,ña,po,lo,sil1,ñi,sil2,['catch'],[0.40300000000002],[0.40300000000002],0.0,beat,0.40300000000002,0.40300000000002,"[""space""]",bu,3,testConjL1Uns//cat_viol.r1.s2.0.wav,3.0,conjunction_un,unsyncopated,a,s2,no_rule,cat,L1,z,0.568,7.0,0.0,0.1349,4.0,3.0,Español,0.0,Húngaro,1.0,Inglés,6.0,Alemán,15.0,Italiano,14.0,5.0,2.0,yes,no,no,Guitarra,10,Tambor,10,,,"En el ultimo test la silaba FE es muy dificil de identificar, no se si es por que lo dice la maquina, pero casi no se aprecia.Algunos de los idiomas, tienen similitudes con las lenguages indigenas o Japonesas ya que usan silabas.",71.0,yes
51,2023-07-13_11h41.22.030,Unsyncopated1,s5,36.0,masculino,both,España,Español,Master degree,no,no,A,1,conjunction_syn,L4,syncopated,s2,r1,51,Online_conjL4_syn//c.bu.da4.none.none.wav,pe,re,ru,zi,sil,ci,bo,lo,sil1,po,sil2,['-'],,,none,none,,,,bu,3,testConjL1Uns//dep_viol.r2.s1.0.wav,3.0,conjunction_un,unsyncopated,b,s1,no_rule,dep,L1,z,0.1037,7.0,0.0,0.134,4.0,3.0,Español,0.0,Húngaro,1.0,Inglés,6.0,Alemán,15.0,Italiano,14.0,5.0,2.0,yes,no,no,Guitarra,10,Tambor,10,,,"En el ultimo test la silaba FE es muy dificil de identificar, no se si es por que lo dice la maquina, pero casi no se aprecia.Algunos de los idiomas, tienen similitudes con las lenguages indigenas o Japonesas ya que usan silabas.",71.0,yes
52,2023-07-13_11h41.22.030,Unsyncopated1,s5,36.0,masculino,both,España,Español,Master degree,no,no,A,1,conjunction_syn,L4,syncopated,s2,r2,52,Online_conjL4_syn//b.ja.nu8.666.1554.wav,da,bu,de,ja,sil,ci,pe,nu,sil1,re,sil2,['catch'],[1.0768000000007305],[1.0768000000007305],0.666,no_beat,0.4108000000007304,0.4108000000007304,"[""space""]",ja,1,testConjL1Uns//r1.s1.1.wav,3.0,conjunction_un,unsyncopated,a,s1,rule,rule,L1,z,0.0522,7.0,1.0,0.1703,4.0,3.0,Español,0.0,Húngaro,1.0,Inglés,6.0,Alemán,15.0,Italiano,14.0,5.0,2.0,yes,no,no,Guitarra,10,Tambor,10,,,"En el ultimo test la silaba FE es muy dificil de identificar, no se si es por que lo dice la maquina, pero casi no se aprecia.Algunos de los idiomas, tienen similitudes con las lenguages indigenas o Japonesas ya que usan silabas.",71.0,yes
53,2023-07-13_11h41.22.030,Unsyncopated1,s5,36.0,masculino,both,España,Español,Master degree,no,no,A,1,conjunction_syn,L4,syncopated,s2,r2,53,Online_conjL4_syn//b.ja.nu11.666.1554.wav,de,ru,po,ja,sil,ci,pe,nu,sil1,ña,sil2,['catch'],[1.155999999999949],[1.155999999999949],0.666,no_beat,0.489999999999949,0.489999999999949,"[""space""]",ja,1,testConjL1Uns//r1.s2.2.wav,3.0,conjunction_un,unsyncopated,a,s2,rule,rule,L1,z,0.0693,7.0,1.0,0.1379,4.0,3.0,Español,0.0,Húngaro,1.0,Inglés,6.0,Alemán,15.0,Italiano,14.0,5.0,2.0,yes,no,no,Guitarra,10,Tambor,10,,,"En el ultimo test la silaba FE es muy dificil de identificar, no se si es por que lo dice la maquina, pero casi no se aprecia.Algunos de los idiomas, tienen similitudes con las lenguages indigenas o Japonesas ya que usan silabas.",71.0,yes
54,2023-07-13_11h41.22.030,Unsyncopated1,s5,36.0,masculino,both,España,Español,Master degree,no,no,A,1,conjunction_syn,L4,syncopated,s1,r2,54,Online_conjL4_syn//b.ja.nu10.0.666.wav,ja,pe,ñi,nu,sil,bu,ci,de,sil1,ru,sil2,['catch'],[0.46509999999966567],[0.46509999999966567],0.0,beat,0.4650999999996656,0.4650999999996656,"[""space""]",ja,1,testConjL1Uns//r2.s2.1.wav,3.0,conjunction_un,unsyncopated,b,s2,rule,rule,L1,m,2.8281,7.0,0.0,0.3729,4.0,3.0,Español,0.0,Húngaro,1.0,Inglés,6.0,Alemán,15.0,Italiano,14.0,5.0,2.0,yes,no,no,Guitarra,10,Tambor,10,,,"En el ultimo test la silaba FE es muy dificil de identificar, no se si es por que lo dice la maquina, pero casi no se aprecia.Algunos de los idiomas, tienen similitudes con las lenguages indigenas o Japonesas ya que usan silabas.",71.0,yes
55,2023-07-13_11h41.22.030,Unsyncopated1,s5,36.0,masculino,both,España,Español,Master degree,no,no,A,1,conjunction_syn,L4,syncopated,s2,r2,55,Online_conjL4_syn//b.ja.nu9.666.1554.wav,bo,ñi,po,ja,sil,da,re,nu,sil1,ru,sil2,['catch'],[0.8981000000014774],[0.8981000000014774],0.666,no_beat,0.2321000000014773,0.2321000000014773,"[""space""]",ja,1,testConjL1Uns//time_viol.r2.s2.0.wav,3.0,conjunction_un,unsyncopated,b,s2,no_rule,time,L1,m,2.5179,7.0,1.0,0.2846,4.0,3.0,Español,0.0,Húngaro,1.0,Inglés,6.0,Alemán,15.0,Italiano,14.0,5.0,2.0,yes,no,no,Guitarra,10,Tambor,10,,,"En el ultimo test la silaba FE es muy dificil de identificar, no se si es por que lo dice la maquina, pero casi no se aprecia.Algunos de los idiomas, tienen similitudes con las lenguages indigenas o Japonesas ya que usan silabas.",71.0,yes
56,2023-07-13_11h41.22.030,Unsyncopated1,s5,36.0,masculino,both,España,Español,Master degree,no,no,A,1,conjunction_syn,L4,syncopated,s1,r2,56,Online_conjL4_syn//c.bu.da1.none.none.wav,ja,po,pe,nu,sil,ñi,ru,bo,sil1,ci,sil2,"['false alarm', 'false alarm']","[0.5645000000001801, 0.7290000000000418]",0.7290000000000418,none,none,,,"[""space"",""space""]",bu,3,testConjL1Uns//r1.s2.0.wav,3.0,conjunction_un,unsyncopated,a,s2,rule,rule,L1,m,0.058,7.0,0.0,0.2893,4.0,3.0,Español,0.0,Húngaro,1.0,Inglés,6.0,Alemán,15.0,Italiano,14.0,5.0,2.0,yes,no,no,Guitarra,10,Tambor,10,,,"En el ultimo test la silaba FE es muy dificil de identificar, no se si es por que lo dice la maquina, pero casi no se aprecia.Algunos de los idiomas, tienen similitudes con las lenguages indigenas o Japonesas ya que usan silabas.",71.0,yes
57,2023-07-13_11h41.22.030,Unsyncopated1,s5,36.0,masculino,both,España,Español,Master degree,no,no,A,1,conjunction_syn,L4,syncopated,s2,r2,57,Online_conjL4_syn//c.bu.da3.0.444.wav,bu,ci,da,ja,sil,pe,po,nu,sil1,bo,sil2,['catch'],[0.5369000000005144],[0.5369000000005144],0.0,beat,0.5369000000005144,0.5369000000005144,"[""space""]",bu,3,testConjL1Uns//time_viol.r2.s1.0.wav,3.0,conjunction_un,unsyncopated,b,s1,no_rule,time,L1,m,0.7766,7.0,1.0,0.3338,4.0,3.0,Español,0.0,Húngaro,1.0,Inglés,6.0,Alemán,15.0,Italiano,14.0,5.0,2.0,yes,no,no,Guitarra,10,Tambor,10,,,"En el ultimo test la silaba FE es muy dificil de identificar, no se si es por que lo dice la maquina, pero casi no se aprecia.Algunos de los idiomas, tienen similitudes con las lenguages indigenas o Japonesas ya que usan silabas.",71.0,yes
58,2023-07-13_11h41.22.030,Unsyncopated1,s5,36.0,masculino,both,España,Español,Master degree,no,no,A,1,conjunction_syn,L4,syncopated,s1,r2,58,Online_conjL4_syn//c.bu.da0.none.none.wav,ja,bo,re,nu,sil,ñi,ña,pe,sil1,ci,sil2,['-'],,,none,none,,,,bu,3,testConjL1Uns//dep_viol.r1.s2.0.wav,3.0,conjunction_un,unsyncopated,a,s2,no_rule,dep,L1,m,2.0336,7.0,1.0,5.2211,4.0,3.0,Español,0.0,Húngaro,1.0,Inglés,6.0,Alemán,15.0,Italiano,14.0,5.0,2.0,yes,no,no,Guitarra,10,Tambor,10,,,"En el ultimo test la silaba FE es muy dificil de identificar, no se si es por que lo dice la maquina, pero casi no se aprecia.Algunos de los idiomas, tienen similitudes con las lenguages indigenas o Japonesas ya que usan silabas.",71.0,yes
59,2023-07-13_11h41.22.030,Unsyncopated1,s5,36.0,masculino,both,España,Español,Master degree,no,no,A,1,conjunction_syn,L4,syncopated,s2,r2,59,Online_conjL4_syn//c.bu.da2.0.222.wav,bu,da,ñi,ja,sil,pe,re,nu,sil1,bo,sil2,['catch'],[0.38630000000080145],[0.38630000000080145],0.0,beat,0.3863000000008014,0.3863000000008014,"[""space""]",bu,3,testConjL1Uns//time_viol.r1.s2.0.wav,3.0,conjunction_un,unsyncopated,a,s2,no_rule,time,L1,m,1.901,7.0,1.0,0.318,4.0,3.0,Español,0.0,Húngaro,1.0,Inglés,6.0,Alemán,15.0,Italiano,14.0,5.0,2.0,yes,no,no,Guitarra,10,Tambor,10,,,"En el ultimo test la silaba FE es muy dificil de identificar, no se si es por que lo dice la maquina, pero casi no se aprecia.Algunos de los idiomas, tienen similitudes con las lenguages indigenas o Japonesas ya que usan silabas.",71.0,yes
60,2023-07-13_11h41.22.030,Unsyncopated1,s5,36.0,masculino,both,España,Español,Master degree,no,no,A,1,conjunction_syn,L4,syncopated,s1,r1,60,Online_conjL4_syn//b.ja.nu22.none.none.wav,zi,ñi,re,lo,sil,bu,po,pe,sil1,ña,sil2,['-'],,,none,none,,,,ja,1,testConjL1Uns//dep_viol.r2.s2.0.wav,3.0,conjunction_un,unsyncopated,b,s2,no_rule,dep,L1,m,1.2379,7.0,1.0,0.3117,4.0,3.0,Español,0.0,Húngaro,1.0,Inglés,6.0,Alemán,15.0,Italiano,14.0,5.0,2.0,yes,no,no,Guitarra,10,Tambor,10,,,"En el ultimo test la silaba FE es muy dificil de identificar, no se si es por que lo dice la maquina, pero casi no se aprecia.Algunos de los idiomas, tienen similitudes con las lenguages indigenas o Japonesas ya que usan silabas.",71.0,yes
61,2023-07-13_11h41.22.030,Unsyncopated1,s5,36.0,masculino,both,España,Español,Master degree,no,no,A,1,conjunction_syn,L4,syncopated,s1,r1,61,Online_conjL4_syn//b.ja.nu21.none.none.wav,zi,ñi,ru,lo,sil,da,ci,po,sil1,re,sil2,['false alarm'],[1.558400000000347],[1.558400000000347],none,none,,,"[""space""]",ja,1,testConjL1Uns//time_viol.r1.s1.0.wav,3.0,conjunction_un,unsyncopated,a,s1,no_rule,time,L1,z,4.544,7.0,0.0,0.0874,4.0,3.0,Español,0.0,Húngaro,1.0,Inglés,6.0,Alemán,15.0,Italiano,14.0,5.0,2.0,yes,no,no,Guitarra,10,Tambor,10,,,"En el ultimo test la silaba FE es muy dificil de identificar, no se si es por que lo dice la maquina, pero casi no se aprecia.Algunos de los idiomas, tienen similitudes con las lenguages indigenas o Japonesas ya que usan silabas.",71.0,yes
62,2023-07-13_11h41.22.030,Unsyncopated1,s5,36.0,masculino,both,España,Español,Master degree,no,no,A,1,conjunction_syn,L4,syncopated,s1,r2,62,Online_conjL4_syn//b.ja.nu23.0.666.wav,ja,bu,da,nu,sil,po,ña,pe,sil1,ru,sil2,['catch'],[0.56899999999996],[0.56899999999996],0.0,beat,0.56899999999996,0.56899999999996,"[""space""]",ja,1,testConjL1Uns//cat_viol.r2.s1.0.wav,3.0,conjunction_un,unsyncopated,b,s1,no_rule,cat,L1,m,0.4017,7.0,1.0,0.3869,4.0,3.0,Español,0.0,Húngaro,1.0,Inglés,6.0,Alemán,15.0,Italiano,14.0,5.0,2.0,yes,no,no,Guitarra,10,Tambor,10,,,"En el ultimo test la silaba FE es muy dificil de identificar, no se si es por que lo dice la maquina, pero casi no se aprecia.Algunos de los idiomas, tienen similitudes con las lenguages indigenas o Japonesas ya que usan silabas.",71.0,yes
63,2023-07-13_11h41.22.030,Unsyncopated1,s5,36.0,masculino,both,España,Español,Master degree,no,no,A,1,conjunction_syn,L4,syncopated,s1,r2,63,Online_conjL4_syn//b.ja.nu20.0.666.wav,ja,bu,po,nu,sil,da,ña,ru,sil1,ci,sil2,['catch'],[0.3830000000000382],[0.3830000000000382],0.0,beat,0.3830000000000382,0.3830000000000382,"[""space""]",ja,1,testConjL1Uns//r2.s1.0.wav,3.0,conjunction_un,unsyncopated,b,s1,rule,rule,L1,z,0.0858,7.0,1.0,0.365,4.0,3.0,Español,0.0,Húngaro,1.0,Inglés,6.0,Alemán,15.0,Italiano,14.0,5.0,2.0,yes,no,no,Guitarra,10,Tambor,10,,,"En el ultimo test la silaba FE es muy dificil de identificar, no se si es por que lo dice la maquina, pero casi no se aprecia.Algunos de los idiomas, tienen similitudes con las lenguages indigenas o Japonesas ya que usan silabas.",71.0,yes
64,2023-07-13_11h41.22.030,Unsyncopated1,s5,36.0,masculino,both,España,Español,Master degree,no,no,A,1,conjunction_syn,L4,syncopated,s1,r1,64,Online_conjL4_syn//a.zi.lo8.0.666.wav,zi,pe,re,lo,sil,ña,bo,bu,sil1,de,sil2,['catch'],[1.001799999998866],[1.001799999998866],0.666,no_beat,0.335799999998866,0.335799999998866,"[""space""]",lo,2,testConjL1Uns//r1.s1.2.wav,3.0,conjunction_un,unsyncopated,a,s1,rule,rule,L1,z,0.8048,7.0,1.0,0.2698,4.0,3.0,Español,0.0,Húngaro,1.0,Inglés,6.0,Alemán,15.0,Italiano,14.0,5.0,2.0,yes,no,no,Guitarra,10,Tambor,10,,,"En el ultimo test la silaba FE es muy dificil de identificar, no se si es por que lo dice la maquina, pero casi no se aprecia.Algunos de los idiomas, tienen similitudes con las lenguages indigenas o Japonesas ya que usan silabas.",71.0,yes
65,2023-07-13_11h41.22.030,Unsyncopated1,s5,36.0,masculino,both,España,Español,Master degree,no,no,A,1,conjunction_syn,L4,syncopated,s2,r1,65,Online_conjL4_syn//a.zi.lo11.666.1554.wav,bu,ru,ci,zi,sil,po,de,lo,sil1,da,sil2,['catch'],[2.020100000001321],[2.020100000001321],1.554,no_beat,0.4661000000013209,0.4661000000013209,"[""space""]",lo,2,testConjL1Uns//r1.s2.1.wav,3.0,conjunction_un,unsyncopated,a,s2,rule,rule,L1,m,1.1209,7.0,0.0,0.2192,4.0,3.0,Español,0.0,Húngaro,1.0,Inglés,6.0,Alemán,15.0,Italiano,14.0,5.0,2.0,yes,no,no,Guitarra,10,Tambor,10,,,"En el ultimo test la silaba FE es muy dificil de identificar, no se si es por que lo dice la maquina, pero casi no se aprecia.Algunos de los idiomas, tienen similitudes con las lenguages indigenas o Japonesas ya que usan silabas.",71.0,yes
66,2023-07-13_11h41.22.030,Unsyncopated1,s5,36.0,masculino,both,España,Español,Master degree,no,no,A,1,conjunction_syn,L4,syncopated,s2,r1,66,Online_conjL4_syn//a.zi.lo9.666.1554.wav,po,ci,bu,zi,sil,de,ña,lo,sil1,ñi,sil2,['catch'],[2.1239000000005035],[2.1239000000005035],1.554,no_beat,0.5699000000005034,0.5699000000005034,"[""space""]",lo,2,testConjL1Uns//r2.s1.1.wav,3.0,conjunction_un,unsyncopated,b,s1,rule,rule,L1,z,1.5486,7.0,1.0,0.1266,4.0,3.0,Español,0.0,Húngaro,1.0,Inglés,6.0,Alemán,15.0,Italiano,14.0,5.0,2.0,yes,no,no,Guitarra,10,Tambor,10,,,"En el ultimo test la silaba FE es muy dificil de identificar, no se si es por que lo dice la maquina, pero casi no se aprecia.Algunos de los idiomas, tienen similitudes con las lenguages indigenas o Japonesas ya que usan silabas.",71.0,yes
67,2023-07-13_11h41.22.030,Unsyncopated1,s5,36.0,masculino,both,España,Español,Master degree,no,no,A,1,conjunction_syn,L4,syncopated,s1,r2,67,Online_conjL4_syn//a.zi.lo10.none.none.wav,ja,bu,de,nu,sil,re,ci,bo,sil1,ña,sil2,['-'],,,none,none,,,,lo,2,testConjL1Uns//cat_viol.r2.s2.0.wav,3.0,conjunction_un,unsyncopated,b,s2,no_rule,cat,L1,m,0.7483,7.0,1.0,0.138,4.0,3.0,Español,0.0,Húngaro,1.0,Inglés,6.0,Alemán,15.0,Italiano,14.0,5.0,2.0,yes,no,no,Guitarra,10,Tambor,10,,,"En el ultimo test la silaba FE es muy dificil de identificar, no se si es por que lo dice la maquina, pero casi no se aprecia.Algunos de los idiomas, tienen similitudes con las lenguages indigenas o Japonesas ya que usan silabas.",71.0,yes
68,2023-07-13_11h41.22.030,Unsyncopated1,s5,36.0,masculino,both,España,Español,Master degree,no,no,A,1,conjunction_syn,L4,syncopated,s2,r2,68,Online_conjL4_syn//b.ja.nu26.666.1554.wav,pe,bu,ña,ja,sil,po,ru,nu,sil1,bo,sil2,['catch'],[0.9145999999996093],[0.9145999999996093],0.666,no_beat,0.2485999999996092,0.2485999999996092,"[""space""]",ja,1,testConjL1Uns//r1.s1.0.wav,3.0,conjunction_un,unsyncopated,a,s1,rule,rule,L1,z,0.9335,7.0,1.0,0.155,4.0,3.0,Español,0.0,Húngaro,1.0,Inglés,6.0,Alemán,15.0,Italiano,14.0,5.0,2.0,yes,no,no,Guitarra,10,Tambor,10,,,"En el ultimo test la silaba FE es muy dificil de identificar, no se si es por que lo dice la maquina, pero casi no se aprecia.Algunos de los idiomas, tienen similitudes con las lenguages indigenas o Japonesas ya que usan silabas.",71.0,yes
69,2023-07-13_11h41.22.030,Unsyncopated1,s5,36.0,masculino,both,España,Español,Master degree,no,no,A,1,conjunction_syn,L4,syncopated,s1,r1,69,Online_conjL4_syn//b.ja.nu25.none.none.wav,zi,pe,da,lo,sil,re,po,bo,sil1,ci,sil2,['-'],,,none,none,,,,ja,1,testConjL1Uns//r2.s1.2.wav,3.0,conjunction_un,unsyncopated,b,s1,rule,rule,L1,m,1.694,7.0,0.0,0.311,4.0,3.0,Español,0.0,Húngaro,1.0,Inglés,6.0,Alemán,15.0,Italiano,14.0,5.0,2.0,yes,no,no,Guitarra,10,Tambor,10,,,"En el ultimo test la silaba FE es muy dificil de identificar, no se si es por que lo dice la maquina, pero casi no se aprecia.Algunos de los idiomas, tienen similitudes con las lenguages indigenas o Japonesas ya que usan silabas.",71.0,yes
70,2023-07-13_11h41.22.030,Unsyncopated1,s5,36.0,masculino,both,España,Español,Master degree,no,no,A,1,conjunction_syn,L4,syncopated,s2,r1,70,Online_conjL4_syn//b.ja.nu24.none.none.wav,bo,ñi,re,zi,sil,pe,ci,lo,sil1,de,sil2,['-'],,,none,none,,,,ja,1,testConjL1Uns//r2.s2.0.wav,3.0,conjunction_un,unsyncopated,b,s2,rule,rule,L1,m,2.2473,7.0,0.0,0.3203,4.0,3.0,Español,0.0,Húngaro,1.0,Inglés,6.0,Alemán,15.0,Italiano,14.0,5.0,2.0,yes,no,no,Guitarra,10,Tambor,10,,,"En el ultimo test la silaba FE es muy dificil de identificar, no se si es por que lo dice la maquina, pero casi no se aprecia.Algunos de los idiomas, tienen similitudes con las lenguages indigenas o Japonesas ya que usan silabas.",71.0,yes
71,2023-07-13_11h41.22.030,Unsyncopated1,s5,36.0,masculino,both,España,Español,Master degree,no,no,A,1,conjunction_syn,L4,syncopated,s2,r2,71,Online_conjL4_syn//b.ja.nu27.666.1554.wav,ña,po,re,ja,sil,de,bo,nu,sil1,ci,sil2,['catch'],[1.0222999999989497],[1.0222999999989497],0.666,no_beat,0.3562999999989497,0.3562999999989497,"[""space""]",ja,1,testConjL1Uns//cat_viol.r1.s1.0.wav,3.0,conjunction_un,unsyncopated,a,s1,no_rule,cat,L1,m,1.1718,7.0,1.0,0.3731,4.0,3.0,Español,0.0,Húngaro,1.0,Inglés,6.0,Alemán,15.0,Italiano,14.0,5.0,2.0,yes,no,no,Guitarra,10,Tambor,10,,,"En el ultimo test la silaba FE es muy dificil de identificar, no se si es por que lo dice la maquina, pero casi no se aprecia.Algunos de los idiomas, tienen similitudes con las lenguages indigenas o Japonesas ya que usan silabas.",71.0,yes
72,2023-07-13_11h41.22.030,Unsyncopated1,s5,36.0,masculino,both,España,Español,Master degree,no,no,A,1,conjunction_syn,L4,syncopated,s2,r2,72,Online_conjL4_syn//c.bu.da30.none.none.wav,po,ci,ña,ja,sil,ru,bo,nu,sil1,ñi,sil2,['-'],,,none,none,,,,bu,3,testWhatL2Uns//r1.s1.0.wav,4.0,what,unsyncopated,a,s1,rule,rule,L2,z,0.7835,7.0,1.0,1.022,4.0,3.0,Español,0.0,Húngaro,1.0,Inglés,6.0,Alemán,15.0,Italiano,14.0,5.0,2.0,yes,no,no,Guitarra,10,Tambor,10,,,"En el ultimo test la silaba FE es muy dificil de identificar, no se si es por que lo dice la maquina, pero casi no se aprecia.Algunos de los idiomas, tienen similitudes con las lenguages indigenas o Japonesas ya que usan silabas.",71.0,yes
73,2023-07-13_11h41.22.030,Unsyncopated1,s5,36.0,masculino,both,España,Español,Master degree,no,no,A,1,conjunction_syn,L4,syncopated,s1,r1,73,Online_conjL4_syn//c.bu.da29.none.none.wav,zi,ñi,pe,lo,sil,re,ci,ru,sil1,ña,sil2,['-'],,,none,none,,,,bu,3,testWhatL2Uns//time_viol.r2.s1.0.wav,4.0,what,unsyncopated,b,s1,no_rule,time,L2,m,1.0023,7.0,1.0,0.2844,4.0,3.0,Español,0.0,Húngaro,1.0,Inglés,6.0,Alemán,15.0,Italiano,14.0,5.0,2.0,yes,no,no,Guitarra,10,Tambor,10,,,"En el ultimo test la silaba FE es muy dificil de identificar, no se si es por que lo dice la maquina, pero casi no se aprecia.Algunos de los idiomas, tienen similitudes con las lenguages indigenas o Japonesas ya que usan silabas.",71.0,yes
74,2023-07-13_11h41.22.030,Unsyncopated1,s5,36.0,masculino,both,España,Español,Master degree,no,no,A,1,conjunction_syn,L4,syncopated,s1,r2,74,Online_conjL4_syn//c.bu.da28.none.none.wav,ja,ru,ñi,nu,sil,po,ci,de,sil1,bo,sil2,['-'],,,none,none,,,,bu,3,testWhatL2Uns//r2.s1.1.wav,4.0,what,unsyncopated,b,s1,rule,rule,L2,m,0.2839,7.0,0.0,0.2761,4.0,3.0,Español,0.0,Húngaro,1.0,Inglés,6.0,Alemán,15.0,Italiano,14.0,5.0,2.0,yes,no,no,Guitarra,10,Tambor,10,,,"En el ultimo test la silaba FE es muy dificil de identificar, no se si es por que lo dice la maquina, pero casi no se aprecia.Algunos de los idiomas, tienen similitudes con las lenguages indigenas o Japonesas ya que usan silabas.",71.0,yes
75,2023-07-13_11h41.22.030,Unsyncopated1,s5,36.0,masculino,both,España,Español,Master degree,no,no,A,1,conjunction_syn,L4,syncopated,s1,r1,75,Online_conjL4_syn//c.bu.da31.none.none.wav,zi,ñi,pe,lo,sil,de,ci,ña,sil1,bo,sil2,['-'],,,none,none,,,,bu,3,testWhatL2Uns//r1.s2.1.wav,4.0,what,unsyncopated,a,s2,rule,rule,L2,m,0.0497,7.0,0.0,0.2834,4.0,3.0,Español,0.0,Húngaro,1.0,Inglés,6.0,Alemán,15.0,Italiano,14.0,5.0,2.0,yes,no,no,Guitarra,10,Tambor,10,,,"En el ultimo test la silaba FE es muy dificil de identificar, no se si es por que lo dice la maquina, pero casi no se aprecia.Algunos de los idiomas, tienen similitudes con las lenguages indigenas o Japonesas ya que usan silabas.",71.0,yes
76,2023-07-13_11h41.22.030,Unsyncopated1,s5,36.0,masculino,both,España,Español,Master degree,no,no,A,1,conjunction_syn,L4,syncopated,s1,r2,76,Online_conjL4_syn//c.bu.da8.222.444.wav,ja,bu,da,nu,sil,re,ru,ñi,sil1,de,sil2,['miss'],,,0.222,no_beat,,,,bu,3,testWhatL2Uns//r2.s2.0.wav,4.0,what,unsyncopated,b,s2,rule,rule,L2,z,0.0188,7.0,1.0,0.3915,4.0,3.0,Español,0.0,Húngaro,1.0,Inglés,6.0,Alemán,15.0,Italiano,14.0,5.0,2.0,yes,no,no,Guitarra,10,Tambor,10,,,"En el ultimo test la silaba FE es muy dificil de identificar, no se si es por que lo dice la maquina, pero casi no se aprecia.Algunos de los idiomas, tienen similitudes con las lenguages indigenas o Japonesas ya que usan silabas.",71.0,yes
77,2023-07-13_11h41.22.030,Unsyncopated1,s5,36.0,masculino,both,España,Español,Master degree,no,no,A,1,conjunction_syn,L4,syncopated,s1,r2,77,Online_conjL4_syn//c.bu.da10.none.none.wav,ja,de,bo,nu,sil,ñi,ru,po,sil1,pe,sil2,['-'],,,none,none,,,,bu,3,testWhatL2Uns//r1.s2.0.wav,4.0,what,unsyncopated,a,s2,rule,rule,L2,z,0.0682,7.0,1.0,0.2766,4.0,3.0,Español,0.0,Húngaro,1.0,Inglés,6.0,Alemán,15.0,Italiano,14.0,5.0,2.0,yes,no,no,Guitarra,10,Tambor,10,,,"En el ultimo test la silaba FE es muy dificil de identificar, no se si es por que lo dice la maquina, pero casi no se aprecia.Algunos de los idiomas, tienen similitudes con las lenguages indigenas o Japonesas ya que usan silabas.",71.0,yes
78,2023-07-13_11h41.22.030,Unsyncopated1,s5,36.0,masculino,both,España,Español,Master degree,no,no,A,1,conjunction_syn,L4,syncopated,s1,r1,78,Online_conjL4_syn//c.bu.da11.1332.222.wav,zi,da,po,lo,sil,bo,bu,ci,sil1,pe,sil2,['miss'],,,1.332,no_beat,,,,bu,3,testWhatL2Uns//time_viol.r1.s2.0.wav,4.0,what,unsyncopated,a,s2,no_rule,time,L2,z,5.6391,7.0,0.0,1.2846,4.0,3.0,Español,0.0,Húngaro,1.0,Inglés,6.0,Alemán,15.0,Italiano,14.0,5.0,2.0,yes,no,no,Guitarra,10,Tambor,10,,,"En el ultimo test la silaba FE es muy dificil de identificar, no se si es por que lo dice la maquina, pero casi no se aprecia.Algunos de los idiomas, tienen similitudes con las lenguages indigenas o Japonesas ya que usan silabas.",71.0,yes
79,2023-07-13_11h41.22.030,Unsyncopated1,s5,36.0,masculino,both,España,Español,Master degree,no,no,A,1,conjunction_syn,L4,syncopated,s2,r1,79,Online_conjL4_syn//c.bu.da9.444.1110.wav,pe,re,bu,zi,sil,da,po,lo,sil1,de,sil2,['miss'],,,0.444,no_beat,,,,bu,3,testWhatL2Uns//r1.s2.2.wav,4.0,what,unsyncopated,a,s2,rule,rule,L2,z,0.2692,7.0,1.0,0.8109,4.0,3.0,Español,0.0,Húngaro,1.0,Inglés,6.0,Alemán,15.0,Italiano,14.0,5.0,2.0,yes,no,no,Guitarra,10,Tambor,10,,,"En el ultimo test la silaba FE es muy dificil de identificar, no se si es por que lo dice la maquina, pero casi no se aprecia.Algunos de los idiomas, tienen similitudes con las lenguages indigenas o Japonesas ya que usan silabas.",71.0,yes
80,2023-07-13_11h41.22.030,Unsyncopated1,s5,36.0,masculino,both,España,Español,Master degree,no,no,A,1,conjunction_syn,L4,syncopated,s2,r2,80,Online_conjL4_syn//a.zi.lo24.none.none.wav,ñi,po,de,ja,sil,pe,ci,nu,sil1,bo,sil2,['-'],,,none,none,,,,lo,2,testWhatL2Uns//cat_viol.r2.s1.0.wav,4.0,what,unsyncopated,b,s1,no_rule,cat,L2,z,0.4162,7.0,0.0,0.2189,4.0,3.0,Español,0.0,Húngaro,1.0,Inglés,6.0,Alemán,15.0,Italiano,14.0,5.0,2.0,yes,no,no,Guitarra,10,Tambor,10,,,"En el ultimo test la silaba FE es muy dificil de identificar, no se si es por que lo dice la maquina, pero casi no se aprecia.Algunos de los idiomas, tienen similitudes con las lenguages indigenas o Japonesas ya que usan silabas.",71.0,yes
81,2023-07-13_11h41.22.030,Unsyncopated1,s5,36.0,masculino,both,España,Español,Master degree,no,no,A,1,conjunction_syn,L4,syncopated,s1,r1,81,Online_conjL4_syn//a.zi.lo25.0.666.wav,zi,po,ci,lo,sil,re,da,ru,sil1,pe,sil2,['catch'],[1.0408000000006723],[1.0408000000006723],0.666,no_beat,0.3748000000006722,0.3748000000006722,"[""space""]",lo,2,testWhatL2Uns//r2.s2.2.wav,4.0,what,unsyncopated,b,s2,rule,rule,L2,m,0.6071,7.0,0.0,0.3955,4.0,3.0,Español,0.0,Húngaro,1.0,Inglés,6.0,Alemán,15.0,Italiano,14.0,5.0,2.0,yes,no,no,Guitarra,10,Tambor,10,,,"En el ultimo test la silaba FE es muy dificil de identificar, no se si es por que lo dice la maquina, pero casi no se aprecia.Algunos de los idiomas, tienen similitudes con las lenguages indigenas o Japonesas ya que usan silabas.",71.0,yes
82,2023-07-13_11h41.22.030,Unsyncopated1,s5,36.0,masculino,both,España,Español,Master degree,no,no,A,1,conjunction_syn,L4,syncopated,s1,r1,82,Online_conjL4_syn//a.zi.lo26.0.666.wav,zi,bu,po,lo,sil,bo,da,re,sil1,pe,sil2,['catch'],[1.0817999999987933],[1.0817999999987933],0.666,no_beat,0.4157999999987932,0.4157999999987932,"[""space""]",lo,2,testWhatL2Uns//dep_viol.r1.s1.0.wav,4.0,what,unsyncopated,a,s1,no_rule,dep,L2,m,0.5197,7.0,1.0,0.42,4.0,3.0,Español,0.0,Húngaro,1.0,Inglés,6.0,Alemán,15.0,Italiano,14.0,5.0,2.0,yes,no,no,Guitarra,10,Tambor,10,,,"En el ultimo test la silaba FE es muy dificil de identificar, no se si es por que lo dice la maquina, pero casi no se aprecia.Algunos de los idiomas, tienen similitudes con las lenguages indigenas o Japonesas ya que usan silabas.",71.0,yes
83,2023-07-13_11h41.22.030,Unsyncopated1,s5,36.0,masculino,both,España,Español,Master degree,no,no,A,1,conjunction_syn,L4,syncopated,s1,r2,83,Online_conjL4_syn//a.zi.lo27.none.none.wav,ja,re,bo,nu,sil,bu,pe,ru,sil1,ñi,sil2,['-'],,,none,none,,,,lo,2,testWhatL2Uns//r1.s1.2.wav,4.0,what,unsyncopated,a,s1,rule,rule,L2,z,0.8183,7.0,1.0,0.3112,4.0,3.0,Español,0.0,Húngaro,1.0,Inglés,6.0,Alemán,15.0,Italiano,14.0,5.0,2.0,yes,no,no,Guitarra,10,Tambor,10,,,"En el ultimo test la silaba FE es muy dificil de identificar, no se si es por que lo dice la maquina, pero casi no se aprecia.Algunos de los idiomas, tienen similitudes con las lenguages indigenas o Japonesas ya que usan silabas.",71.0,yes
84,2023-07-13_11h41.22.030,Unsyncopated1,s5,36.0,masculino,both,España,Español,Master degree,no,no,A,1,conjunction_syn,L4,syncopated,s1,r1,84,Online_conjL4_syn//b.ja.nu28.none.none.wav,zi,ña,bu,lo,sil,re,de,ci,sil1,pe,sil2,['-'],,,none,none,,,,ja,1,testWhatL2Uns//r2.s1.0.wav,4.0,what,unsyncopated,b,s1,rule,rule,L2,z,2.1446,7.0,1.0,0.6199,4.0,3.0,Español,0.0,Húngaro,1.0,Inglés,6.0,Alemán,15.0,Italiano,14.0,5.0,2.0,yes,no,no,Guitarra,10,Tambor,10,,,"En el ultimo test la silaba FE es muy dificil de identificar, no se si es por que lo dice la maquina, pero casi no se aprecia.Algunos de los idiomas, tienen similitudes con las lenguages indigenas o Japonesas ya que usan silabas.",71.0,yes
85,2023-07-13_11h41.22.030,Unsyncopated1,s5,36.0,masculino,both,España,Español,Master degree,no,no,A,1,conjunction_syn,L4,syncopated,s2,r2,85,Online_conjL4_syn//b.ja.nu31.666.1554.wav,po,ru,ña,ja,sil,da,ci,nu,sil1,re,sil2,['catch'],[0.8869000000001961],[0.8869000000001961],0.666,no_beat,0.220900000000196,0.220900000000196,"[""space""]",ja,1,testWhatL2Uns//r2.s2.1.wav,4.0,what,unsyncopated,b,s2,rule,rule,L2,m,0.6402,7.0,0.0,0.4703,4.0,3.0,Español,0.0,Húngaro,1.0,Inglés,6.0,Alemán,15.0,Italiano,14.0,5.0,2.0,yes,no,no,Guitarra,10,Tambor,10,,,"En el ultimo test la silaba FE es muy dificil de identificar, no se si es por que lo dice la maquina, pero casi no se aprecia.Algunos de los idiomas, tienen similitudes con las lenguages indigenas o Japonesas ya que usan silabas.",71.0,yes
86,2023-07-13_11h41.22.030,Unsyncopated1,s5,36.0,masculino,both,España,Español,Master degree,no,no,A,1,conjunction_syn,L4,syncopated,s2,r1,86,Online_conjL4_syn//b.ja.nu30.none.none.wav,ci,ña,ru,zi,sil,bo,pe,lo,sil1,bu,sil2,['-'],,,none,none,,,,ja,1,testWhatL2Uns//time_viol.r1.s1.0.wav,4.0,what,unsyncopated,a,s1,no_rule,time,L2,m,0.7,7.0,1.0,0.3696,4.0,3.0,Español,0.0,Húngaro,1.0,Inglés,6.0,Alemán,15.0,Italiano,14.0,5.0,2.0,yes,no,no,Guitarra,10,Tambor,10,,,"En el ultimo test la silaba FE es muy dificil de identificar, no se si es por que lo dice la maquina, pero casi no se aprecia.Algunos de los idiomas, tienen similitudes con las lenguages indigenas o Japonesas ya que usan silabas.",71.0,yes
87,2023-07-13_11h41.22.030,Unsyncopated1,s5,36.0,masculino,both,España,Español,Master degree,no,no,A,1,conjunction_syn,L4,syncopated,s2,r1,87,Online_conjL4_syn//b.ja.nu29.none.none.wav,da,po,ña,zi,sil,pe,re,lo,sil1,bo,sil2,['-'],,,none,none,,,,ja,1,testWhatL2Uns//r1.s1.1.wav,4.0,what,unsyncopated,a,s1,rule,rule,L2,m,0.3329,7.0,0.0,0.3556,4.0,3.0,Español,0.0,Húngaro,1.0,Inglés,6.0,Alemán,15.0,Italiano,14.0,5.0,2.0,yes,no,no,Guitarra,10,Tambor,10,,,"En el ultimo test la silaba FE es muy dificil de identificar, no se si es por que lo dice la maquina, pero casi no se aprecia.Algunos de los idiomas, tienen similitudes con las lenguages indigenas o Japonesas ya que usan silabas.",71.0,yes
88,2023-07-13_11h41.22.030,Unsyncopated1,s5,36.0,masculino,both,España,Español,Master degree,no,no,A,1,conjunction_syn,L4,syncopated,s1,r1,88,Online_conjL4_syn//c.bu.da12.1110.1332.wav,zi,ci,ña,lo,sil,bu,da,pe,sil1,po,sil2,['catch'],[1.6485000000000127],[1.6485000000000127],1.11,no_beat,0.5385000000000126,0.5385000000000126,"[""space""]",bu,3,testWhatL2Uns//time_viol.r2.s2.0.wav,4.0,what,unsyncopated,b,s2,no_rule,time,L2,z,0.2518,7.0,0.0,0.2681,4.0,3.0,Español,0.0,Húngaro,1.0,Inglés,6.0,Alemán,15.0,Italiano,14.0,5.0,2.0,yes,no,no,Guitarra,10,Tambor,10,,,"En el ultimo test la silaba FE es muy dificil de identificar, no se si es por que lo dice la maquina, pero casi no se aprecia.Algunos de los idiomas, tienen similitudes con las lenguages indigenas o Japonesas ya que usan silabas.",71.0,yes
89,2023-07-13_11h41.22.030,Unsyncopated1,s5,36.0,masculino,both,España,Español,Master degree,no,no,A,1,conjunction_syn,L4,syncopated,s2,r2,89,Online_conjL4_syn//c.bu.da15.222.444.wav,de,bu,da,ja,sil,ci,bo,nu,sil1,re,sil2,['miss'],,,0.222,no_beat,,,,bu,3,testWhatL2Uns//dep_viol.r2.s2.0.wav,4.0,what,unsyncopated,b,s2,no_rule,dep,L2,z,0.2783,7.0,0.0,0.3402,4.0,3.0,Español,0.0,Húngaro,1.0,Inglés,6.0,Alemán,15.0,Italiano,14.0,5.0,2.0,yes,no,no,Guitarra,10,Tambor,10,,,"En el ultimo test la silaba FE es muy dificil de identificar, no se si es por que lo dice la maquina, pero casi no se aprecia.Algunos de los idiomas, tienen similitudes con las lenguages indigenas o Japonesas ya que usan silabas.",71.0,yes
90,2023-07-13_11h41.22.030,Unsyncopated1,s5,36.0,masculino,both,España,Español,Master degree,no,no,A,1,conjunction_syn,L4,syncopated,s2,r2,90,Online_conjL4_syn//c.bu.da14.none.none.wav,ci,ñi,pe,ja,sil,ru,re,nu,sil1,ña,sil2,['-'],,,none,none,,,,bu,3,testWhatL2Uns//cat_viol.r1.s1.0.wav,4.0,what,unsyncopated,a,s1,no_rule,cat,L2,z,0.2024,7.0,0.0,0.2344,4.0,3.0,Español,0.0,Húngaro,1.0,Inglés,6.0,Alemán,15.0,Italiano,14.0,5.0,2.0,yes,no,no,Guitarra,10,Tambor,10,,,"En el ultimo test la silaba FE es muy dificil de identificar, no se si es por que lo dice la maquina, pero casi no se aprecia.Algunos de los idiomas, tienen similitudes con las lenguages indigenas o Japonesas ya que usan silabas.",71.0,yes
91,2023-07-13_11h41.22.030,Unsyncopated1,s5,36.0,masculino,both,España,Español,Master degree,no,no,A,1,conjunction_syn,L4,syncopated,s2,r1,91,Online_conjL4_syn//c.bu.da13.none.none.wav,ci,ñi,ña,zi,sil,ru,re,lo,sil1,po,sil2,['-'],,,none,none,,,,bu,3,testWhatL2Uns//dep_viol.r1.s2.0.wav,4.0,what,unsyncopated,a,s2,no_rule,dep,L2,z,0.1181,7.0,0.0,0.1762,4.0,3.0,Español,0.0,Húngaro,1.0,Inglés,6.0,Alemán,15.0,Italiano,14.0,5.0,2.0,yes,no,no,Guitarra,10,Tambor,10,,,"En el ultimo test la silaba FE es muy dificil de identificar, no se si es por que lo dice la maquina, pero casi no se aprecia.Algunos de los idiomas, tienen similitudes con las lenguages indigenas o Japonesas ya que usan silabas.",71.0,yes
92,2023-07-13_11h41.22.030,Unsyncopated1,s5,36.0,masculino,both,España,Español,Master degree,no,no,A,1,conjunction_syn,L4,syncopated,s1,r2,92,Online_conjL4_syn//b.ja.nu4.0.666.wav,ja,re,ru,nu,sil,po,pe,da,sil1,ñi,sil2,['catch'],[0.5646999999992204],[0.5646999999992204],0.0,beat,0.5646999999992204,0.5646999999992204,"[""space""]",ja,1,testWhatL2Uns//r2.s1.2.wav,4.0,what,unsyncopated,b,s1,rule,rule,L2,z,0.2693,7.0,1.0,0.1999,4.0,3.0,Español,0.0,Húngaro,1.0,Inglés,6.0,Alemán,15.0,Italiano,14.0,5.0,2.0,yes,no,no,Guitarra,10,Tambor,10,,,"En el ultimo test la silaba FE es muy dificil de identificar, no se si es por que lo dice la maquina, pero casi no se aprecia.Algunos de los idiomas, tienen similitudes con las lenguages indigenas o Japonesas ya que usan silabas.",71.0,yes
93,2023-07-13_11h41.22.030,Unsyncopated1,s5,36.0,masculino,both,España,Español,Master degree,no,no,A,1,conjunction_syn,L4,syncopated,s1,r1,93,Online_conjL4_syn//b.ja.nu7.none.none.wav,zi,po,pe,lo,sil,ci,bu,ñi,sil1,ru,sil2,['-'],,,none,none,,,,ja,1,testWhatL2Uns//dep_viol.r2.s1.0.wav,4.0,what,unsyncopated,b,s1,no_rule,dep,L2,z,0.5685,7.0,0.0,0.3029,4.0,3.0,Español,0.0,Húngaro,1.0,Inglés,6.0,Alemán,15.0,Italiano,14.0,5.0,2.0,yes,no,no,Guitarra,10,Tambor,10,,,"En el ultimo test la silaba FE es muy dificil de identificar, no se si es por que lo dice la maquina, pero casi no se aprecia.Algunos de los idiomas, tienen similitudes con las lenguages indigenas o Japonesas ya que usan silabas.",71.0,yes
94,2023-07-13_11h41.22.030,Unsyncopated1,s5,36.0,masculino,both,España,Español,Master degree,no,no,A,1,conjunction_syn,L4,syncopated,s2,r1,94,Online_conjL4_syn//b.ja.nu6.none.none.wav,ña,po,ru,zi,sil,ñi,re,lo,sil1,bo,sil2,['-'],,,none,none,,,,ja,1,testWhatL2Uns//cat_viol.r1.s2.0.wav,4.0,what,unsyncopated,a,s2,no_rule,cat,L2,m,3.035,7.0,1.0,0.2853,4.0,3.0,Español,0.0,Húngaro,1.0,Inglés,6.0,Alemán,15.0,Italiano,14.0,5.0,2.0,yes,no,no,Guitarra,10,Tambor,10,,,"En el ultimo test la silaba FE es muy dificil de identificar, no se si es por que lo dice la maquina, pero casi no se aprecia.Algunos de los idiomas, tienen similitudes con las lenguages indigenas o Japonesas ya que usan silabas.",71.0,yes
95,2023-07-13_11h41.22.030,Unsyncopated1,s5,36.0,masculino,both,España,Español,Master degree,no,no,A,1,conjunction_syn,L4,syncopated,s1,r1,95,Online_conjL4_syn//b.ja.nu5.none.none.wav,zi,bo,pe,lo,sil,po,re,da,sil1,ñi,sil2,['-'],,,none,none,,,,ja,1,testWhatL2Uns//cat_viol.r2.s2.0.wav,4.0,what,unsyncopated,b,s2,no_rule,cat,L2,m,1.2683,7.0,1.0,0.4325,4.0,3.0,Español,0.0,Húngaro,1.0,Inglés,6.0,Alemán,15.0,Italiano,14.0,5.0,2.0,yes,no,no,Guitarra,10,Tambor,10,,,"En el ultimo test la silaba FE es muy dificil de identificar, no se si es por que lo dice la maquina, pero casi no se aprecia.Algunos de los idiomas, tienen similitudes con las lenguages indigenas o Japonesas ya que usan silabas.",71.0,yes
96,2023-07-13_11h41.22.030,Unsyncopated1,s5,36.0,masculino,both,España,Español,Master degree,no,no,A,1,conjunction_syn,L4,syncopated,s2,r2,96,Online_conjL4_syn//d.pe.po10.1332.444.wav,bu,ci,po,ja,sil,bo,pe,nu,sil1,de,sil2,['catch'],[1.9135000000001128],[1.9135000000001128],1.332,no_beat,0.5815000000001127,0.5815000000001127,"[""space""]",pe,4,,,,,,,,,,,,,,,4.0,3.0,Español,0.0,Húngaro,1.0,Inglés,6.0,Alemán,15.0,Italiano,14.0,5.0,2.0,yes,no,no,Guitarra,10,Tambor,10,,,"En el ultimo test la silaba FE es muy dificil de identificar, no se si es por que lo dice la maquina, pero casi no se aprecia.Algunos de los idiomas, tienen similitudes con las lenguages indigenas o Japonesas ya que usan silabas.",71.0,yes
97,2023-07-13_11h41.22.030,Unsyncopated1,s5,36.0,masculino,both,España,Español,Master degree,no,no,A,1,conjunction_syn,L4,syncopated,s1,r2,97,Online_conjL4_syn//d.pe.po11.1332.222.wav,ja,po,re,nu,sil,ñi,pe,ña,sil1,ci,sil2,['miss'],,,1.332,no_beat,,,,pe,4,,,,,,,,,,,,,,,4.0,3.0,Español,0.0,Húngaro,1.0,Inglés,6.0,Alemán,15.0,Italiano,14.0,5.0,2.0,yes,no,no,Guitarra,10,Tambor,10,,,"En el ultimo test la silaba FE es muy dificil de identificar, no se si es por que lo dice la maquina, pero casi no se aprecia.Algunos de los idiomas, tienen similitudes con las lenguages indigenas o Japonesas ya que usan silabas.",71.0,yes
98,2023-07-13_11h41.22.030,Unsyncopated1,s5,36.0,masculino,both,España,Español,Master degree,no,no,A,1,conjunction_syn,L4,syncopated,s1,r2,98,Online_conjL4_syn//d.pe.po8.none.none.wav,ja,re,de,nu,sil,ci,ru,ñi,sil1,bu,sil2,['-'],,,none,none,,,,pe,4,,,,,,,,,,,,,,,4.0,3.0,Español,0.0,Húngaro,1.0,Inglés,6.0,Alemán,15.0,Italiano,14.0,5.0,2.0,yes,no,no,Guitarra,10,Tambor,10,,,"En el ultimo test la silaba FE es muy dificil de identificar, no se si es por que lo dice la maquina, pero casi no se aprecia.Algunos de los idiomas, tienen similitudes con las lenguages indigenas o Japonesas ya que usan silabas.",71.0,yes
99,2023-07-13_11h41.22.030,Unsyncopated1,s5,36.0,masculino,both,España,Español,Master degree,no,no,A,1,conjunction_syn,L4,syncopated,s1,r1,99,Online_conjL4_syn//d.pe.po9.1554.1110.wav,zi,bo,ci,lo,sil,po,de,pe,sil1,ru,sil2,['catch'],[2.1227999999987333],[2.1227999999987333],1.554,no_beat,0.5687999999987332,0.5687999999987332,"[""space""]",pe,4,,,,,,,,,,,,,,,4.0,3.0,Español,0.0,Húngaro,1.0,Inglés,6.0,Alemán,15.0,Italiano,14.0,5.0,2.0,yes,no,no,Guitarra,10,Tambor,10,,,"En el ultimo test la silaba FE es muy dificil de identificar, no se si es por que lo dice la maquina, pero casi no se aprecia.Algunos de los idiomas, tienen similitudes con las lenguages indigenas o Japonesas ya que usan silabas.",71.0,yes
100,2023-07-13_11h41.22.030,Unsyncopated1,s5,36.0,masculino,both,España,Español,Master degree,no,no,A,1,conjunction_syn,L4,syncopated,s1,r2,100,Online_conjL4_syn//d.pe.po16.none.none.wav,ja,bo,ci,nu,sil,da,ru,re,sil1,de,sil2,['-'],,,none,none,,,,pe,4,,,,,,,,,,,,,,,4.0,3.0,Español,0.0,Húngaro,1.0,Inglés,6.0,Alemán,15.0,Italiano,14.0,5.0,2.0,yes,no,no,Guitarra,10,Tambor,10,,,"En el ultimo test la silaba FE es muy dificil de identificar, no se si es por que lo dice la maquina, pero casi no se aprecia.Algunos de los idiomas, tienen similitudes con las lenguages indigenas o Japonesas ya que usan silabas.",71.0,yes
101,2023-07-13_11h41.22.030,Unsyncopated1,s5,36.0,masculino,both,España,Español,Master degree,no,no,A,1,conjunction_syn,L4,syncopated,s2,r2,101,Online_conjL4_syn//d.pe.po17.222.444.wav,bo,pe,po,ja,sil,re,ci,nu,sil1,ru,sil2,['catch'],[0.6878000000006068],[0.6878000000006068],0.222,no_beat,0.4658000000006068,0.4658000000006068,"[""space""]",pe,4,,,,,,,,,,,,,,,4.0,3.0,Español,0.0,Húngaro,1.0,Inglés,6.0,Alemán,15.0,Italiano,14.0,5.0,2.0,yes,no,no,Guitarra,10,Tambor,10,,,"En el ultimo test la silaba FE es muy dificil de identificar, no se si es por que lo dice la maquina, pero casi no se aprecia.Algunos de los idiomas, tienen similitudes con las lenguages indigenas o Japonesas ya que usan silabas.",71.0,yes
102,2023-07-13_11h41.22.030,Unsyncopated1,s5,36.0,masculino,both,España,Español,Master degree,no,no,A,1,conjunction_syn,L4,syncopated,s1,r1,102,Online_conjL4_syn//d.pe.po18.1554.1110.wav,zi,ña,da,lo,sil,po,bo,pe,sil1,ru,sil2,['miss'],,,1.554,no_beat,,,,pe,4,,,,,,,,,,,,,,,4.0,3.0,Español,0.0,Húngaro,1.0,Inglés,6.0,Alemán,15.0,Italiano,14.0,5.0,2.0,yes,no,no,Guitarra,10,Tambor,10,,,"En el ultimo test la silaba FE es muy dificil de identificar, no se si es por que lo dice la maquina, pero casi no se aprecia.Algunos de los idiomas, tienen similitudes con las lenguages indigenas o Japonesas ya que usan silabas.",71.0,yes
103,2023-07-13_11h41.22.030,Unsyncopated1,s5,36.0,masculino,both,España,Español,Master degree,no,no,A,1,conjunction_syn,L4,syncopated,s2,r1,103,Online_conjL4_syn//d.pe.po19.none.none.wav,da,de,ña,zi,sil,bo,ru,lo,sil1,ñi,sil2,['-'],,,none,none,,,,pe,4,,,,,,,,,,,,,,,4.0,3.0,Español,0.0,Húngaro,1.0,Inglés,6.0,Alemán,15.0,Italiano,14.0,5.0,2.0,yes,no,no,Guitarra,10,Tambor,10,,,"En el ultimo test la silaba FE es muy dificil de identificar, no se si es por que lo dice la maquina, pero casi no se aprecia.Algunos de los idiomas, tienen similitudes con las lenguages indigenas o Japonesas ya que usan silabas.",71.0,yes
104,2023-07-13_11h41.22.030,Unsyncopated1,s5,36.0,masculino,both,España,Español,Master degree,no,no,A,1,conjunction_syn,L4,syncopated,s2,r2,104,Online_conjL4_syn//c.bu.da23.444.1110.wav,ña,re,bu,ja,sil,da,de,nu,sil1,ci,sil2,['miss'],,,0.444,no_beat,,,,bu,3,,,,,,,,,,,,,,,4.0,3.0,Español,0.0,Húngaro,1.0,Inglés,6.0,Alemán,15.0,Italiano,14.0,5.0,2.0,yes,no,no,Guitarra,10,Tambor,10,,,"En el ultimo test la silaba FE es muy dificil de identificar, no se si es por que lo dice la maquina, pero casi no se aprecia.Algunos de los idiomas, tienen similitudes con las lenguages indigenas o Japonesas ya que usan silabas.",71.0,yes
105,2023-07-13_11h41.22.030,Unsyncopated1,s5,36.0,masculino,both,España,Español,Master degree,no,no,A,1,conjunction_syn,L4,syncopated,s1,r2,105,Online_conjL4_syn//c.bu.da20.444.1332.wav,ja,pe,bu,nu,sil,ci,da,re,sil1,ru,sil2,['miss'],,,0.444,no_beat,,,,bu,3,,,,,,,,,,,,,,,4.0,3.0,Español,0.0,Húngaro,1.0,Inglés,6.0,Alemán,15.0,Italiano,14.0,5.0,2.0,yes,no,no,Guitarra,10,Tambor,10,,,"En el ultimo test la silaba FE es muy dificil de identificar, no se si es por que lo dice la maquina, pero casi no se aprecia.Algunos de los idiomas, tienen similitudes con las lenguages indigenas o Japonesas ya que usan silabas.",71.0,yes
106,2023-07-13_11h41.22.030,Unsyncopated1,s5,36.0,masculino,both,España,Español,Master degree,no,no,A,1,conjunction_syn,L4,syncopated,s2,r1,106,Online_conjL4_syn//c.bu.da22.0.222.wav,bu,da,bo,zi,sil,re,ru,lo,sil1,ñi,sil2,['catch'],[0.5890999999996893],[0.5890999999996893],0.0,beat,0.5890999999996893,0.5890999999996893,"[""space""]",bu,3,,,,,,,,,,,,,,,4.0,3.0,Español,0.0,Húngaro,1.0,Inglés,6.0,Alemán,15.0,Italiano,14.0,5.0,2.0,yes,no,no,Guitarra,10,Tambor,10,,,"En el ultimo test la silaba FE es muy dificil de identificar, no se si es por que lo dice la maquina, pero casi no se aprecia.Algunos de los idiomas, tienen similitudes con las lenguages indigenas o Japonesas ya que usan silabas.",71.0,yes
107,2023-07-13_11h41.22.030,Unsyncopated1,s5,36.0,masculino,both,España,Español,Master degree,no,no,A,1,conjunction_syn,L4,syncopated,s2,r2,107,Online_conjL4_syn//c.bu.da21.none.none.wav,ña,re,po,ja,sil,de,ñi,nu,sil1,ru,sil2,['-'],,,none,none,,,,bu,3,,,,,,,,,,,,,,,4.0,3.0,Español,0.0,Húngaro,1.0,Inglés,6.0,Alemán,15.0,Italiano,14.0,5.0,2.0,yes,no,no,Guitarra,10,Tambor,10,,,"En el ultimo test la silaba FE es muy dificil de identificar, no se si es por que lo dice la maquina, pero casi no se aprecia.Algunos de los idiomas, tienen similitudes con las lenguages indigenas o Japonesas ya que usan silabas.",71.0,yes
108,2023-07-13_11h41.22.030,Unsyncopated1,s5,36.0,masculino,both,España,Español,Master degree,no,no,A,1,conjunction_syn,L4,syncopated,s1,r1,108,Online_conjL4_syn//d.pe.po6.1110.222.wav,zi,po,de,lo,sil,pe,ñi,ru,sil1,ci,sil2,['catch'],[1.4961999999991349],[1.4961999999991349],1.11,no_beat,0.3861999999991348,0.3861999999991348,"[""space""]",pe,4,,,,,,,,,,,,,,,4.0,3.0,Español,0.0,Húngaro,1.0,Inglés,6.0,Alemán,15.0,Italiano,14.0,5.0,2.0,yes,no,no,Guitarra,10,Tambor,10,,,"En el ultimo test la silaba FE es muy dificil de identificar, no se si es por que lo dice la maquina, pero casi no se aprecia.Algunos de los idiomas, tienen similitudes con las lenguages indigenas o Japonesas ya que usan silabas.",71.0,yes
109,2023-07-13_11h41.22.030,Unsyncopated1,s5,36.0,masculino,both,España,Español,Master degree,no,no,A,1,conjunction_syn,L4,syncopated,s2,r2,109,Online_conjL4_syn//d.pe.po4.none.none.wav,ña,bu,de,ja,sil,re,ci,nu,sil1,bo,sil2,['-'],,,none,none,,,,pe,4,,,,,,,,,,,,,,,4.0,3.0,Español,0.0,Húngaro,1.0,Inglés,6.0,Alemán,15.0,Italiano,14.0,5.0,2.0,yes,no,no,Guitarra,10,Tambor,10,,,"En el ultimo test la silaba FE es muy dificil de identificar, no se si es por que lo dice la maquina, pero casi no se aprecia.Algunos de los idiomas, tienen similitudes con las lenguages indigenas o Japonesas ya que usan silabas.",71.0,yes
110,2023-07-13_11h41.22.030,Unsyncopated1,s5,36.0,masculino,both,España,Español,Master degree,no,no,A,1,conjunction_syn,L4,syncopated,s2,r1,110,Online_conjL4_syn//d.pe.po5.222.1110.wav,ñi,pe,da,zi,sil,po,ru,lo,sil1,bo,sil2,['catch'],[0.7407000000009702],[0.7407000000009702],0.222,no_beat,0.5187000000009703,0.5187000000009703,"[""space""]",pe,4,,,,,,,,,,,,,,,4.0,3.0,Español,0.0,Húngaro,1.0,Inglés,6.0,Alemán,15.0,Italiano,14.0,5.0,2.0,yes,no,no,Guitarra,10,Tambor,10,,,"En el ultimo test la silaba FE es muy dificil de identificar, no se si es por que lo dice la maquina, pero casi no se aprecia.Algunos de los idiomas, tienen similitudes con las lenguages indigenas o Japonesas ya que usan silabas.",71.0,yes
111,2023-07-13_11h41.22.030,Unsyncopated1,s5,36.0,masculino,both,España,Español,Master degree,no,no,A,1,conjunction_syn,L4,syncopated,s2,r1,111,Online_conjL4_syn//d.pe.po7.1110.0.wav,po,ñi,de,zi,sil,pe,bu,lo,sil1,ña,sil2,['catch'],[1.4710000000000036],[1.4710000000000036],1.11,no_beat,0.3610000000000035,0.3610000000000035,"[""space""]",pe,4,,,,,,,,,,,,,,,4.0,3.0,Español,0.0,Húngaro,1.0,Inglés,6.0,Alemán,15.0,Italiano,14.0,5.0,2.0,yes,no,no,Guitarra,10,Tambor,10,,,"En el ultimo test la silaba FE es muy dificil de identificar, no se si es por que lo dice la maquina, pero casi no se aprecia.Algunos de los idiomas, tienen similitudes con las lenguages indigenas o Japonesas ya que usan silabas.",71.0,yes
112,2023-07-13_11h41.22.030,Unsyncopated1,s5,36.0,masculino,both,España,Español,Master degree,no,no,A,1,conjunction_syn,L4,syncopated,s1,r2,112,Online_conjL4_syn//a.zi.lo17.none.none.wav,ja,po,bu,nu,sil,de,ru,ñi,sil1,ci,sil2,['-'],,,none,none,,,,lo,2,,,,,,,,,,,,,,,4.0,3.0,Español,0.0,Húngaro,1.0,Inglés,6.0,Alemán,15.0,Italiano,14.0,5.0,2.0,yes,no,no,Guitarra,10,Tambor,10,,,"En el ultimo test la silaba FE es muy dificil de identificar, no se si es por que lo dice la maquina, pero casi no se aprecia.Algunos de los idiomas, tienen similitudes con las lenguages indigenas o Japonesas ya que usan silabas.",71.0,yes
113,2023-07-13_11h41.22.030,Unsyncopated1,s5,36.0,masculino,both,España,Español,Master degree,no,no,A,1,conjunction_syn,L4,syncopated,s2,r1,113,Online_conjL4_syn//a.zi.lo19.666.1554.wav,da,bo,po,zi,sil,ru,ci,lo,sil1,bu,sil2,['catch'],[1.9843000000007578],[1.9843000000007578],1.554,no_beat,0.4303000000007577,0.4303000000007577,"[""space""]",lo,2,,,,,,,,,,,,,,,4.0,3.0,Español,0.0,Húngaro,1.0,Inglés,6.0,Alemán,15.0,Italiano,14.0,5.0,2.0,yes,no,no,Guitarra,10,Tambor,10,,,"En el ultimo test la silaba FE es muy dificil de identificar, no se si es por que lo dice la maquina, pero casi no se aprecia.Algunos de los idiomas, tienen similitudes con las lenguages indigenas o Japonesas ya que usan silabas.",71.0,yes
114,2023-07-13_11h41.22.030,Unsyncopated1,s5,36.0,masculino,both,España,Español,Master degree,no,no,A,1,conjunction_syn,L4,syncopated,s2,r1,114,Online_conjL4_syn//a.zi.lo16.666.1554.wav,ña,po,ci,zi,sil,pe,de,lo,sil1,ru,sil2,['catch'],[1.9714999999998781],[1.9714999999998781],1.554,no_beat,0.4174999999998781,0.4174999999998781,"[""space""]",lo,2,,,,,,,,,,,,,,,4.0,3.0,Español,0.0,Húngaro,1.0,Inglés,6.0,Alemán,15.0,Italiano,14.0,5.0,2.0,yes,no,no,Guitarra,10,Tambor,10,,,"En el ultimo test la silaba FE es muy dificil de identificar, no se si es por que lo dice la maquina, pero casi no se aprecia.Algunos de los idiomas, tienen similitudes con las lenguages indigenas o Japonesas ya que usan silabas.",71.0,yes
115,2023-07-13_11h41.22.030,Unsyncopated1,s5,36.0,masculino,both,España,Español,Master degree,no,no,A,1,conjunction_syn,L4,syncopated,s1,r2,115,Online_conjL4_syn//a.zi.lo18.none.none.wav,ja,pe,ru,nu,sil,de,ñi,bu,sil1,re,sil2,['-'],,,none,none,,,,lo,2,,,,,,,,,,,,,,,4.0,3.0,Español,0.0,Húngaro,1.0,Inglés,6.0,Alemán,15.0,Italiano,14.0,5.0,2.0,yes,no,no,Guitarra,10,Tambor,10,,,"En el ultimo test la silaba FE es muy dificil de identificar, no se si es por que lo dice la maquina, pero casi no se aprecia.Algunos de los idiomas, tienen similitudes con las lenguages indigenas o Japonesas ya que usan silabas.",71.0,yes
116,2023-07-13_11h41.22.030,Unsyncopated1,s5,36.0,masculino,both,España,Español,Master degree,no,no,A,1,conjunction_syn,L4,syncopated,s1,r1,116,Online_conjL4_syn//c.bu.da24.none.none.wav,zi,po,pe,lo,sil,ñi,ci,ru,sil1,re,sil2,['-'],,,none,none,,,,bu,3,,,,,,,,,,,,,,,4.0,3.0,Español,0.0,Húngaro,1.0,Inglés,6.0,Alemán,15.0,Italiano,14.0,5.0,2.0,yes,no,no,Guitarra,10,Tambor,10,,,"En el ultimo test la silaba FE es muy dificil de identificar, no se si es por que lo dice la maquina, pero casi no se aprecia.Algunos de los idiomas, tienen similitudes con las lenguages indigenas o Japonesas ya que usan silabas.",71.0,yes
117,2023-07-13_11h41.22.030,Unsyncopated1,s5,36.0,masculino,both,España,Español,Master degree,no,no,A,1,conjunction_syn,L4,syncopated,s1,r2,117,Online_conjL4_syn//c.bu.da27.222.1110.wav,ja,bu,re,nu,sil,da,bo,ru,sil1,ci,sil2,['catch'],[0.6957999999990534],[0.6957999999990534],0.222,no_beat,0.4737999999990534,0.4737999999990534,"[""space""]",bu,3,,,,,,,,,,,,,,,4.0,3.0,Español,0.0,Húngaro,1.0,Inglés,6.0,Alemán,15.0,Italiano,14.0,5.0,2.0,yes,no,no,Guitarra,10,Tambor,10,,,"En el ultimo test la silaba FE es muy dificil de identificar, no se si es por que lo dice la maquina, pero casi no se aprecia.Algunos de los idiomas, tienen similitudes con las lenguages indigenas o Japonesas ya que usan silabas.",71.0,yes
118,2023-07-13_11h41.22.030,Unsyncopated1,s5,36.0,masculino,both,España,Español,Master degree,no,no,A,1,conjunction_syn,L4,syncopated,s1,r2,118,Online_conjL4_syn//c.bu.da25.1110.222.wav,ja,da,re,nu,sil,bu,ru,po,sil1,bo,sil2,['catch'],[1.6943000000007942],[1.6943000000007942],1.11,no_beat,0.5843000000007941,0.5843000000007941,"[""space""]",bu,3,,,,,,,,,,,,,,,4.0,3.0,Español,0.0,Húngaro,1.0,Inglés,6.0,Alemán,15.0,Italiano,14.0,5.0,2.0,yes,no,no,Guitarra,10,Tambor,10,,,"En el ultimo test la silaba FE es muy dificil de identificar, no se si es por que lo dice la maquina, pero casi no se aprecia.Algunos de los idiomas, tienen similitudes con las lenguages indigenas o Japonesas ya que usan silabas.",71.0,yes
119,2023-07-13_11h41.22.030,Unsyncopated1,s5,36.0,masculino,both,España,Español,Master degree,no,no,A,1,conjunction_syn,L4,syncopated,s2,r1,119,Online_conjL4_syn//c.bu.da26.1110.222.wav,ñi,da,de,zi,sil,bu,pe,lo,sil1,bo,sil2,['catch'],[2.103199999999333],[2.103199999999333],1.11,no_beat,0.9931999999993332,0.9931999999993332,"[""space""]",bu,3,,,,,,,,,,,,,,,4.0,3.0,Español,0.0,Húngaro,1.0,Inglés,6.0,Alemán,15.0,Italiano,14.0,5.0,2.0,yes,no,no,Guitarra,10,Tambor,10,,,"En el ultimo test la silaba FE es muy dificil de identificar, no se si es por que lo dice la maquina, pero casi no se aprecia.Algunos de los idiomas, tienen similitudes con las lenguages indigenas o Japonesas ya que usan silabas.",71.0,yes
120,2023-07-13_11h41.22.030,Unsyncopated1,s5,36.0,masculino,both,España,Español,Master degree,no,no,A,1,conjunction_syn,L4,syncopated,s2,r1,120,Online_conjL4_syn//a.zi.lo22.666.1554.wav,po,bo,pe,zi,sil,re,bu,lo,sil1,da,sil2,['catch'],[2.099999999999909],[2.099999999999909],1.554,no_beat,0.545999999999909,0.545999999999909,"[""space""]",lo,2,,,,,,,,,,,,,,,4.0,3.0,Español,0.0,Húngaro,1.0,Inglés,6.0,Alemán,15.0,Italiano,14.0,5.0,2.0,yes,no,no,Guitarra,10,Tambor,10,,,"En el ultimo test la silaba FE es muy dificil de identificar, no se si es por que lo dice la maquina, pero casi no se aprecia.Algunos de los idiomas, tienen similitudes con las lenguages indigenas o Japonesas ya que usan silabas.",71.0,yes
121,2023-07-13_11h41.22.030,Unsyncopated1,s5,36.0,masculino,both,España,Español,Master degree,no,no,A,1,conjunction_syn,L4,syncopated,s2,r2,121,Online_conjL4_syn//a.zi.lo23.none.none.wav,da,ci,po,ja,sil,ñi,pe,nu,sil1,bo,sil2,['-'],,,none,none,,,,lo,2,,,,,,,,,,,,,,,4.0,3.0,Español,0.0,Húngaro,1.0,Inglés,6.0,Alemán,15.0,Italiano,14.0,5.0,2.0,yes,no,no,Guitarra,10,Tambor,10,,,"En el ultimo test la silaba FE es muy dificil de identificar, no se si es por que lo dice la maquina, pero casi no se aprecia.Algunos de los idiomas, tienen similitudes con las lenguages indigenas o Japonesas ya que usan silabas.",71.0,yes
122,2023-07-13_11h41.22.030,Unsyncopated1,s5,36.0,masculino,both,España,Español,Master degree,no,no,A,1,conjunction_syn,L4,syncopated,s1,r2,122,Online_conjL4_syn//a.zi.lo20.none.none.wav,ja,ru,po,nu,sil,ña,re,da,sil1,de,sil2,['-'],,,none,none,,,,lo,2,,,,,,,,,,,,,,,4.0,3.0,Español,0.0,Húngaro,1.0,Inglés,6.0,Alemán,15.0,Italiano,14.0,5.0,2.0,yes,no,no,Guitarra,10,Tambor,10,,,"En el ultimo test la silaba FE es muy dificil de identificar, no se si es por que lo dice la maquina, pero casi no se aprecia.Algunos de los idiomas, tienen similitudes con las lenguages indigenas o Japonesas ya que usan silabas.",71.0,yes
123,2023-07-13_11h41.22.030,Unsyncopated1,s5,36.0,masculino,both,España,Español,Master degree,no,no,A,1,conjunction_syn,L4,syncopated,s2,r1,123,Online_conjL4_syn//a.zi.lo21.666.1554.wav,ñi,bo,ru,zi,sil,pe,ña,lo,sil1,de,sil2,['catch'],[2.371800000000576],[2.371800000000576],1.554,no_beat,0.8178000000005758,0.8178000000005758,"[""space""]",lo,2,,,,,,,,,,,,,,,4.0,3.0,Español,0.0,Húngaro,1.0,Inglés,6.0,Alemán,15.0,Italiano,14.0,5.0,2.0,yes,no,no,Guitarra,10,Tambor,10,,,"En el ultimo test la silaba FE es muy dificil de identificar, no se si es por que lo dice la maquina, pero casi no se aprecia.Algunos de los idiomas, tienen similitudes con las lenguages indigenas o Japonesas ya que usan silabas.",71.0,yes
124,2023-07-13_11h41.22.030,Unsyncopated1,s5,36.0,masculino,both,España,Español,Master degree,no,no,A,1,conjunction_syn,L4,syncopated,s2,r2,124,Online_conjL4_syn//d.pe.po13.none.none.wav,ci,ru,da,ja,sil,de,ñi,nu,sil1,bu,sil2,['-'],,,none,none,,,,pe,4,,,,,,,,,,,,,,,4.0,3.0,Español,0.0,Húngaro,1.0,Inglés,6.0,Alemán,15.0,Italiano,14.0,5.0,2.0,yes,no,no,Guitarra,10,Tambor,10,,,"En el ultimo test la silaba FE es muy dificil de identificar, no se si es por que lo dice la maquina, pero casi no se aprecia.Algunos de los idiomas, tienen similitudes con las lenguages indigenas o Japonesas ya que usan silabas.",71.0,yes
125,2023-07-13_11h41.22.030,Unsyncopated1,s5,36.0,masculino,both,España,Español,Master degree,no,no,A,1,conjunction_syn,L4,syncopated,s1,r2,125,Online_conjL4_syn//d.pe.po14.1110.1332.wav,ja,bo,bu,nu,sil,pe,po,de,sil1,da,sil2,['catch'],[1.5207999999988715],[1.5207999999988715],1.11,no_beat,0.4107999999988714,0.4107999999988714,"[""space""]",pe,4,,,,,,,,,,,,,,,4.0,3.0,Español,0.0,Húngaro,1.0,Inglés,6.0,Alemán,15.0,Italiano,14.0,5.0,2.0,yes,no,no,Guitarra,10,Tambor,10,,,"En el ultimo test la silaba FE es muy dificil de identificar, no se si es por que lo dice la maquina, pero casi no se aprecia.Algunos de los idiomas, tienen similitudes con las lenguages indigenas o Japonesas ya que usan silabas.",71.0,yes
126,2023-07-13_11h41.22.030,Unsyncopated1,s5,36.0,masculino,both,España,Español,Master degree,no,no,A,1,conjunction_syn,L4,syncopated,s2,r1,126,Online_conjL4_syn//d.pe.po12.none.none.wav,bu,de,re,zi,sil,ña,ci,lo,sil1,ñi,sil2,['-'],,,none,none,,,,pe,4,,,,,,,,,,,,,,,4.0,3.0,Español,0.0,Húngaro,1.0,Inglés,6.0,Alemán,15.0,Italiano,14.0,5.0,2.0,yes,no,no,Guitarra,10,Tambor,10,,,"En el ultimo test la silaba FE es muy dificil de identificar, no se si es por que lo dice la maquina, pero casi no se aprecia.Algunos de los idiomas, tienen similitudes con las lenguages indigenas o Japonesas ya que usan silabas.",71.0,yes
127,2023-07-13_11h41.22.030,Unsyncopated1,s5,36.0,masculino,both,España,Español,Master degree,no,no,A,1,conjunction_syn,L4,syncopated,s2,r2,127,Online_conjL4_syn//d.pe.po15.222.1110.wav,ci,pe,de,ja,sil,po,bo,nu,sil1,da,sil2,['miss'],,,0.222,no_beat,,,,pe,4,,,,,,,,,,,,,,,4.0,3.0,Español,0.0,Húngaro,1.0,Inglés,6.0,Alemán,15.0,Italiano,14.0,5.0,2.0,yes,no,no,Guitarra,10,Tambor,10,,,"En el ultimo test la silaba FE es muy dificil de identificar, no se si es por que lo dice la maquina, pero casi no se aprecia.Algunos de los idiomas, tienen similitudes con las lenguages indigenas o Japonesas ya que usan silabas.",71.0,yes
128,2023-07-13_11h41.22.030,Unsyncopated1,s5,36.0,masculino,both,España,Español,Master degree,no,no,A,2,when,L3,unsyncopated,when,when,0,Online_whenL3//c.gu16.1332.wav,do,ji,ñe,sil,ka,ga,gu,sil1,mo,di,sil2,['catch'],[1.809599999999591],[1.809599999999591],1.332,no_beat,0.477599999999591,0.477599999999591,"[""space""]",gu,3,,,,,,,,,,,,,,,4.0,3.0,Español,0.0,Húngaro,1.0,Inglés,6.0,Alemán,15.0,Italiano,14.0,5.0,2.0,yes,no,no,Guitarra,10,Tambor,10,,,"En el ultimo test la silaba FE es muy dificil de identificar, no se si es por que lo dice la maquina, pero casi no se aprecia.Algunos de los idiomas, tienen similitudes con las lenguages indigenas o Japonesas ya que usan silabas.",71.0,yes
129,2023-07-13_11h41.22.030,Unsyncopated1,s5,36.0,masculino,both,España,Español,Master degree,no,no,A,2,when,L3,unsyncopated,when,when,1,Online_whenL3//c.gu18.444.wav,di,ko,gu,sil,chu,sa,ka,sil1,li,do,sil2,['catch'],[0.8696000000015829],[0.8696000000015829],0.444,no_beat,0.4256000000015829,0.4256000000015829,"[""space""]",gu,3,,,,,,,,,,,,,,,4.0,3.0,Español,0.0,Húngaro,1.0,Inglés,6.0,Alemán,15.0,Italiano,14.0,5.0,2.0,yes,no,no,Guitarra,10,Tambor,10,,,"En el ultimo test la silaba FE es muy dificil de identificar, no se si es por que lo dice la maquina, pero casi no se aprecia.Algunos de los idiomas, tienen similitudes con las lenguages indigenas o Japonesas ya que usan silabas.",71.0,yes
130,2023-07-13_11h41.22.030,Unsyncopated1,s5,36.0,masculino,both,España,Español,Master degree,no,no,A,2,when,L3,unsyncopated,when,when,2,Online_whenL3//c.gu17.none.wav,ga,ji,le,sil,sa,ka,chu,sil1,do,je,sil2,['-'],,,none,none,,,,gu,3,,,,,,,,,,,,,,,4.0,3.0,Español,0.0,Húngaro,1.0,Inglés,6.0,Alemán,15.0,Italiano,14.0,5.0,2.0,yes,no,no,Guitarra,10,Tambor,10,,,"En el ultimo test la silaba FE es muy dificil de identificar, no se si es por que lo dice la maquina, pero casi no se aprecia.Algunos de los idiomas, tienen similitudes con las lenguages indigenas o Japonesas ya que usan silabas.",71.0,yes
131,2023-07-13_11h41.22.030,Unsyncopated1,s5,36.0,masculino,both,España,Español,Master degree,no,no,A,2,when,L3,unsyncopated,when,when,3,Online_whenL3//c.gu19.1998.wav,ka,sa,je,sil,chu,do,ji,sil1,le,gu,sil2,['catch'],[2.513800000000856],[2.513800000000856],1.998,no_beat,0.515800000000856,0.515800000000856,"[""space""]",gu,3,,,,,,,,,,,,,,,4.0,3.0,Español,0.0,Húngaro,1.0,Inglés,6.0,Alemán,15.0,Italiano,14.0,5.0,2.0,yes,no,no,Guitarra,10,Tambor,10,,,"En el ultimo test la silaba FE es muy dificil de identificar, no se si es por que lo dice la maquina, pero casi no se aprecia.Algunos de los idiomas, tienen similitudes con las lenguages indigenas o Japonesas ya que usan silabas.",71.0,yes
132,2023-07-13_11h41.22.030,Unsyncopated1,s5,36.0,masculino,both,España,Español,Master degree,no,no,A,2,when,L3,unsyncopated,when,when,4,Online_whenL3//a.mo27.888.wav,fu,le,ka,sil,mo,ko,gu,sil1,chu,di,sil2,['catch'],[1.2231000000015229],[1.2231000000015229],0.888,beat,0.3351000000015228,0.3351000000015228,"[""space""]",mo,2,,,,,,,,,,,,,,,4.0,3.0,Español,0.0,Húngaro,1.0,Inglés,6.0,Alemán,15.0,Italiano,14.0,5.0,2.0,yes,no,no,Guitarra,10,Tambor,10,,,"En el ultimo test la silaba FE es muy dificil de identificar, no se si es por que lo dice la maquina, pero casi no se aprecia.Algunos de los idiomas, tienen similitudes con las lenguages indigenas o Japonesas ya que usan silabas.",71.0,yes
133,2023-07-13_11h41.22.030,Unsyncopated1,s5,36.0,masculino,both,España,Español,Master degree,no,no,A,2,when,L3,unsyncopated,when,when,5,Online_whenL3//a.mo25.none.wav,sa,ji,ga,sil,do,ñe,je,sil1,di,ka,sil2,['-'],,,none,none,,,,mo,2,,,,,,,,,,,,,,,4.0,3.0,Español,0.0,Húngaro,1.0,Inglés,6.0,Alemán,15.0,Italiano,14.0,5.0,2.0,yes,no,no,Guitarra,10,Tambor,10,,,"En el ultimo test la silaba FE es muy dificil de identificar, no se si es por que lo dice la maquina, pero casi no se aprecia.Algunos de los idiomas, tienen similitudes con las lenguages indigenas o Japonesas ya que usan silabas.",71.0,yes
134,2023-07-13_11h41.22.030,Unsyncopated1,s5,36.0,masculino,both,España,Español,Master degree,no,no,A,2,when,L3,unsyncopated,when,when,6,Online_whenL3//a.mo24.1998.wav,ji,le,do,sil,li,chu,fu,sil1,gu,mo,sil2,['catch'],[2.4560999999994237],[2.4560999999994237],1.998,no_beat,0.4580999999994237,0.4580999999994237,"[""space""]",mo,2,,,,,,,,,,,,,,,4.0,3.0,Español,0.0,Húngaro,1.0,Inglés,6.0,Alemán,15.0,Italiano,14.0,5.0,2.0,yes,no,no,Guitarra,10,Tambor,10,,,"En el ultimo test la silaba FE es muy dificil de identificar, no se si es por que lo dice la maquina, pero casi no se aprecia.Algunos de los idiomas, tienen similitudes con las lenguages indigenas o Japonesas ya que usan silabas.",71.0,yes
135,2023-07-13_11h41.22.030,Unsyncopated1,s5,36.0,masculino,both,España,Español,Master degree,no,no,A,2,when,L3,unsyncopated,when,when,7,Online_whenL3//a.mo26.none.wav,di,li,ka,sil,chu,ji,je,sil1,do,ñe,sil2,['-'],,,none,none,,,,mo,2,,,,,,,,,,,,,,,4.0,3.0,Español,0.0,Húngaro,1.0,Inglés,6.0,Alemán,15.0,Italiano,14.0,5.0,2.0,yes,no,no,Guitarra,10,Tambor,10,,,"En el ultimo test la silaba FE es muy dificil de identificar, no se si es por que lo dice la maquina, pero casi no se aprecia.Algunos de los idiomas, tienen similitudes con las lenguages indigenas o Japonesas ya que usan silabas.",71.0,yes
136,2023-07-13_11h41.22.030,Unsyncopated1,s5,36.0,masculino,both,España,Español,Master degree,no,no,A,2,when,L3,unsyncopated,when,when,8,Online_whenL3//b.ñe9.1110.wav,fu,do,ka,sil,li,ñe,chu,sil1,ko,ji,sil2,['miss'],,,1.11,no_beat,,,,ñe,1,,,,,,,,,,,,,,,4.0,3.0,Español,0.0,Húngaro,1.0,Inglés,6.0,Alemán,15.0,Italiano,14.0,5.0,2.0,yes,no,no,Guitarra,10,Tambor,10,,,"En el ultimo test la silaba FE es muy dificil de identificar, no se si es por que lo dice la maquina, pero casi no se aprecia.Algunos de los idiomas, tienen similitudes con las lenguages indigenas o Japonesas ya que usan silabas.",71.0,yes
