Unnamed: 0,date,expName,participant,age,sex,hand,residence,native_lang,education_level,lang_deficit,aud_deficit,group,block,condition,language,rhythm,rule structure online,rule type online,order_trial_on,trial_online,s1,s2,s3,s4,s5,s6,s7,s8,s9,s10,s11,catch_syll_resp,rts_syll_catch,clean_rts,time_syll,beat_no_beat,catch_rtsTR,catch_rts,syllable_catch.keys,cond_syll,syll_to_catch,test_offline,block_off,condition_off,rhythm_off,rule,rule_str_off,rule_norule,conds_offline,language_off,Partz_no_partm.keys,Partz_no_partm.rt,security_1_7.keys,accuracy,security_1_7.rt,n_lang,n_lang_used,lang_1,age_l1,lang_2,age_l2,ability_learn_l2,tendence_mix_lan,music_experience,muisc_use,partiture,instr_1,age_M1,preguntas_musica1,BMRQ_answer.response,final comment,BMRQ_Score,bilingual
0,2024-02-03_16h50.34.026,Unsyncopated_study2,s100,23.0,feminino,right,España,Castellano,Master degree,no,no,B,1,what,L3,unsyncopated,s2,r2,0,Online_whatL3//b.ñe.sa10.1110.1998.wav,ga,le,gu,sil2,ñe,di,li,sil,sa,ji,sil1,['catch'],[2.3486000000239073],[2.3486000000239073],1.998,no_beat,0.3506000000239073,0.3506000000239073,"[""space""]",sa,2,testWhatL3Uns//dep_viol.r2.s1.0.wav,1.0,what,unsyncopated,b,s1,no_rule,dep,L3,z,1.3342,6.0,0.0,2.8319,2.0,2.0,Castellano,0.0,Inglés,6.0,3.0,2.0,no,no,no,nada,,1. Cuando comparto música con alguien siento una complicidad especial con aquella persona.,0.0,nada,53.0,yes
1,2024-02-03_16h50.34.026,Unsyncopated_study2,s100,23.0,feminino,right,España,Castellano,Master degree,no,no,B,1,what,L3,unsyncopated,s2,r2,1,Online_whatL3//b.ñe.sa11.1110.1998.wav,li,ko,ka,sil2,ñe,je,ji,sil,sa,fu,sil1,['catch'],[2.3881999999284744],[2.3881999999284744],1.998,no_beat,0.3901999999284744,0.3901999999284744,"[""space""]",sa,2,testWhatL3Uns//dep_viol.r1.s2.0.wav,1.0,what,unsyncopated,a,s2,no_rule,dep,L3,z,0.9438,6.0,0.0,2.7379,2.0,2.0,Castellano,0.0,Inglés,6.0,3.0,2.0,no,no,no,nada,,2. En mi tiempo libre apenas escucho música.,4.0,nada,53.0,yes
2,2024-02-03_16h50.34.026,Unsyncopated_study2,s100,23.0,feminino,right,España,Castellano,Master degree,no,no,B,1,what,L3,unsyncopated,s2,r2,2,Online_whatL3//b.ñe.sa8.1110.1998.wav,li,do,di,sil2,ñe,gu,ji,sil,sa,je,sil1,['catch'],[2.3424999999999727],[2.3424999999999727],1.998,no_beat,0.3444999999999727,0.3444999999999727,"[""space""]",sa,2,testWhatL3Uns//time_viol.r1.s1.0.wav,1.0,what,unsyncopated,a,s1,no_rule,time,L3,z,0.9679,5.0,0.0,1.4904,2.0,2.0,Castellano,0.0,Inglés,6.0,3.0,2.0,no,no,no,nada,,3. Algunas canciones me ponen los pelos de punta,3.0,nada,53.0,yes
3,2024-02-03_16h50.34.026,Unsyncopated_study2,s100,23.0,feminino,right,España,Castellano,Master degree,no,no,B,1,what,L3,unsyncopated,s1,r2,3,Online_whatL3//b.ñe.sa9.0.1110.wav,ñe,fu,di,sil2,sa,ka,le,sil,li,je,sil1,['catch'],[1.5045000000000073],[1.5045000000000073],1.11,no_beat,0.3945000000000072,0.3945000000000072,"[""space""]",sa,2,testWhatL3Uns//r2.s1.0.wav,1.0,what,unsyncopated,b,s1,rule,rule,L3,m,0.3183,5.0,0.0,2.7412,2.0,2.0,Castellano,0.0,Inglés,6.0,3.0,2.0,no,no,no,nada,,4. La música me hace compañía cuando estoy solo,3.0,nada,53.0,yes
4,2024-02-03_16h50.34.026,Unsyncopated_study2,s100,23.0,feminino,right,España,Castellano,Master degree,no,no,B,1,what,L3,unsyncopated,s1,r1,4,Online_whatL3//c.gu.je26.none.none.wav,chu,di,le,sil,mo,li,ko,sil2,ka,fu,sil1,['-'],,,none,none,,,,je,3,testWhatL3Uns//dep_viol.r1.s1.0.wav,1.0,what,unsyncopated,a,s1,no_rule,dep,L3,z,0.9589,5.0,0.0,1.6337,2.0,2.0,Castellano,0.0,Inglés,6.0,3.0,2.0,no,no,no,nada,,5. No me apetece bailar ni con la música que más me gusta,5.0,nada,53.0,yes
5,2024-02-03_16h50.34.026,Unsyncopated_study2,s100,23.0,feminino,right,España,Castellano,Master degree,no,no,B,1,what,L3,unsyncopated,s1,r2,5,Online_whatL3//c.gu.je25.none.none.wav,ñe,ko,ka,sil,sa,do,li,sil2,di,ji,sil1,['false alarm'],[1.2207000000477137],[1.2207000000477137],none,none,,,"[""space""]",je,3,testWhatL3Uns//cat_viol.r1.s1.0.wav,1.0,what,unsyncopated,a,s1,no_rule,cat,L3,z,0.8186,5.0,0.0,1.2166,2.0,2.0,Castellano,0.0,Inglés,6.0,3.0,2.0,no,no,no,nada,,6. La música me hace conectar con la gente,3.0,nada,53.0,yes
6,2024-02-03_16h50.34.026,Unsyncopated_study2,s100,23.0,feminino,right,España,Castellano,Master degree,no,no,B,1,what,L3,unsyncopated,s1,r2,6,Online_whatL3//c.gu.je27.1776.222.wav,ñe,je,li,sil,sa,ji,ga,sil1,gu,fu,sil2,['miss'],,,0.222,no_beat,,,,je,3,testWhatL3Uns//cat_viol.r1.s2.0.wav,1.0,what,unsyncopated,a,s2,no_rule,cat,L3,z,0.9179,5.0,0.0,1.2182,2.0,2.0,Castellano,0.0,Inglés,6.0,3.0,2.0,no,no,no,nada,,7. Me informo sobre la música que me gusta.,1.0,nada,53.0,yes
7,2024-02-03_16h50.34.026,Unsyncopated_study2,s100,23.0,feminino,right,España,Castellano,Master degree,no,no,B,1,what,L3,unsyncopated,s2,r2,7,Online_whatL3//c.gu.je24.222.1110.wav,fu,gu,do,sil,ñe,je,di,sil1,sa,ga,sil2,['catch'],[1.8872999999523472],[1.8872999999523472],1.11,no_beat,0.7772999999523471,0.7772999999523471,"[""space""]",je,3,testWhatL3Uns//dep_viol.r2.s2.0.wav,1.0,what,unsyncopated,b,s2,no_rule,dep,L3,z,0.5827,5.0,0.0,1.2695,2.0,2.0,Castellano,0.0,Inglés,6.0,3.0,2.0,no,no,no,nada,,8.Me emociono escuchando ciertas canciones.,4.0,nada,53.0,yes
8,2024-02-03_16h50.34.026,Unsyncopated_study2,s100,23.0,feminino,right,España,Castellano,Master degree,no,no,B,1,what,L3,unsyncopated,s2,r2,8,Online_whatL3//d.ji.li30.none.none.wav,gu,di,fu,sil,ñe,je,le,sil1,sa,ko,sil2,['-'],,,none,none,,,,li,4,testWhatL3Uns//r1.s1.1.wav,1.0,what,unsyncopated,a,s1,rule,rule,L3,z,2.2015,7.0,1.0,0.8113,2.0,2.0,Castellano,0.0,Inglés,6.0,3.0,2.0,no,no,no,nada,,9.La música me tranquiliza y me relaja.,4.0,nada,53.0,yes
9,2024-02-03_16h50.34.026,Unsyncopated_study2,s100,23.0,feminino,right,España,Castellano,Master degree,no,no,B,1,what,L3,unsyncopated,s1,r2,9,Online_whatL3//d.ji.li28.none.none.wav,ñe,ka,di,sil2,sa,le,ko,sil,je,ga,sil1,['-'],,,none,none,,,,li,4,testWhatL3Uns//r2.s2.1.wav,1.0,what,unsyncopated,b,s2,rule,rule,L3,m,0.4383,4.0,0.0,1.6737,2.0,2.0,Castellano,0.0,Inglés,6.0,3.0,2.0,no,no,no,nada,,10.La música me hace bailar,4.0,nada,53.0,yes
10,2024-02-03_16h50.34.026,Unsyncopated_study2,s100,23.0,feminino,right,España,Castellano,Master degree,no,no,B,1,what,L3,unsyncopated,s2,r2,10,Online_whatL3//d.ji.li29.1554.222.wav,je,li,ga,sil2,ñe,do,ji,sil,sa,gu,sil1,['catch'],[0.642299999952229],[0.642299999952229],0.222,no_beat,0.420299999952229,0.420299999952229,"[""space""]",li,4,testWhatL3Uns//r1.s1.2.wav,1.0,what,unsyncopated,a,s1,rule,rule,L3,m,0.5354,5.0,0.0,1.1895,2.0,2.0,Castellano,0.0,Inglés,6.0,3.0,2.0,no,no,no,nada,,11.Busco novedades musicales continuamente,0.0,nada,53.0,yes
11,2024-02-03_16h50.34.026,Unsyncopated_study2,s100,23.0,feminino,right,España,Castellano,Master degree,no,no,B,1,what,L3,unsyncopated,s1,r1,11,Online_whatL3//d.ji.li31.1332.444.wav,chu,gu,li,sil,mo,ka,ji,sil2,ga,je,sil1,['catch'],[1.1040000000000418],[1.1040000000000418],0.444,no_beat,0.6600000000000419,0.6600000000000419,"[""space""]",li,4,testWhatL3Uns//r2.s2.0.wav,1.0,what,unsyncopated,b,s2,rule,rule,L3,m,0.2845,4.0,0.0,1.4151,2.0,2.0,Castellano,0.0,Inglés,6.0,3.0,2.0,no,no,no,nada,,12. Puedo llorar cuando escucho algunas melodías que me gustan mucho.,4.0,nada,53.0,yes
12,2024-02-03_16h50.34.026,Unsyncopated_study2,s100,23.0,feminino,right,España,Castellano,Master degree,no,no,B,1,what,L3,unsyncopated,s2,r1,12,Online_whatL3//d.ji.li19.1554.222.wav,le,li,do,sil2,chu,ka,ji,sil,mo,di,sil1,"['catch', 'false alarm']","[0.6853999999761982, 2.003500000000031]",[0.6853999999761982],0.222,no_beat,0.4633999999761982,0.4633999999761982,"[""space"",""space""]",li,4,testWhatL3Uns//r2.s2.2.wav,1.0,what,unsyncopated,b,s2,rule,rule,L3,z,0.416,5.0,1.0,1.0499,2.0,2.0,Castellano,0.0,Inglés,6.0,3.0,2.0,no,no,no,nada,,13. Me gusta cantar o tocar un instrumento con más gente,3.0,nada,53.0,yes
13,2024-02-03_16h50.34.026,Unsyncopated_study2,s100,23.0,feminino,right,España,Castellano,Master degree,no,no,B,1,what,L3,unsyncopated,s1,r2,13,Online_whatL3//d.ji.li17.none.none.wav,ñe,ko,gu,sil,sa,le,do,sil2,je,ga,sil1,['-'],,,none,none,,,,li,4,testWhatL3Uns//r1.s2.0.wav,1.0,what,unsyncopated,a,s2,rule,rule,L3,m,0.5182,6.0,0.0,1.0008,2.0,2.0,Castellano,0.0,Inglés,6.0,3.0,2.0,no,no,no,nada,,14. La música me ayuda a desconectar.,3.0,nada,53.0,yes
14,2024-02-03_16h50.34.026,Unsyncopated_study2,s100,23.0,feminino,right,España,Castellano,Master degree,no,no,B,1,what,L3,unsyncopated,s1,r2,14,Online_whatL3//d.ji.li16.1776.1110.wav,ñe,le,ko,sil,sa,li,je,sil1,ji,fu,sil2,['miss'],,,1.11,no_beat,,,,li,4,testWhatL3Uns//time_viol.r2.s2.0.wav,1.0,what,unsyncopated,b,s2,no_rule,time,L3,m,0.9043,6.0,1.0,1.5245,2.0,2.0,Castellano,0.0,Inglés,6.0,3.0,2.0,no,no,no,nada,,15. No puedo evitar tararear las canciones que me gustan cuando las escucho.,3.0,nada,53.0,yes
15,2024-02-03_16h50.34.026,Unsyncopated_study2,s100,23.0,feminino,right,España,Castellano,Master degree,no,no,B,1,what,L3,unsyncopated,s1,r2,15,Online_whatL3//d.ji.li18.222.1332.wav,ñe,ji,di,sil2,sa,li,gu,sil,ko,fu,sil1,['catch'],[1.9587999999523618],[1.9587999999523618],1.332,no_beat,0.6267999999523617,0.6267999999523617,"[""space""]",li,4,testWhatL3Uns//cat_viol.r2.s2.0.wav,1.0,what,unsyncopated,b,s2,no_rule,cat,L3,z,0.7197,5.0,0.0,1.4951,2.0,2.0,Castellano,0.0,Inglés,6.0,3.0,2.0,no,no,no,nada,,16. En los conciertos me siento en sintonía con los artistas y el público.,2.0,nada,53.0,yes
16,2024-02-03_16h50.34.026,Unsyncopated_study2,s100,23.0,feminino,right,España,Castellano,Master degree,no,no,B,1,what,L3,unsyncopated,s1,r1,16,Online_whatL3//a.chu.mo10.0.888.wav,chu,je,di,sil,mo,ka,ji,sil2,ko,le,sil1,['catch'],[1.0761000000237573],[1.0761000000237573],0.0,beat,1.0761000000237573,1.0761000000237573,"[""space""]",chu,1,testWhatL3Uns//time_viol.r2.s1.0.wav,1.0,what,unsyncopated,b,s1,no_rule,time,L3,m,1.3012,5.0,1.0,1.7395,2.0,2.0,Castellano,0.0,Inglés,6.0,3.0,2.0,no,no,no,nada,,17. Me gasto bastante dinero en música y cosas relacionadas con la música.,0.0,nada,53.0,yes
17,2024-02-03_16h50.34.026,Unsyncopated_study2,s100,23.0,feminino,right,España,Castellano,Master degree,no,no,B,1,what,L3,unsyncopated,s2,r2,17,Online_whatL3//a.chu.mo11.none.none.wav,ka,gu,ko,sil,ñe,do,ga,sil1,sa,je,sil2,['-'],,,none,none,,,,chu,1,testWhatL3Uns//r1.s2.2.wav,1.0,what,unsyncopated,a,s2,rule,rule,L3,z,0.3852,6.0,1.0,1.0346,2.0,2.0,Castellano,0.0,Inglés,6.0,3.0,2.0,no,no,no,nada,,18. Siento escalofríos cuando escucho una melodía que me gusta.,1.0,nada,53.0,yes
18,2024-02-03_16h50.34.026,Unsyncopated_study2,s100,23.0,feminino,right,España,Castellano,Master degree,no,no,B,1,what,L3,unsyncopated,s2,r2,18,Online_whatL3//a.chu.mo8.none.none.wav,je,ji,li,sil2,ñe,ga,do,sil,sa,ko,sil1,['-'],,,none,none,,,,chu,1,testWhatL3Uns//r2.s1.1.wav,1.0,what,unsyncopated,b,s1,rule,rule,L3,m,0.4843,5.0,0.0,1.1095,2.0,2.0,Castellano,0.0,Inglés,6.0,3.0,2.0,no,no,no,nada,,19. Con la música me puedo desahogar.,3.0,nada,53.0,yes
19,2024-02-03_16h50.34.026,Unsyncopated_study2,s100,23.0,feminino,right,España,Castellano,Master degree,no,no,B,1,what,L3,unsyncopated,s1,r2,19,Online_whatL3//a.chu.mo9.none.none.wav,ñe,ga,gu,sil2,sa,je,ko,sil,le,ka,sil1,['-'],,,none,none,,,,chu,1,testWhatL3Uns//r1.s2.1.wav,1.0,what,unsyncopated,a,s2,rule,rule,L3,m,0.7993,6.0,0.0,0.7843,2.0,2.0,Castellano,0.0,Inglés,6.0,3.0,2.0,no,no,no,nada,,20. Cuando escucho una melodía que me gusta mucho no puedo evitar mover el cuerpo.,3.0,nada,53.0,yes
20,2024-02-03_16h50.34.026,Unsyncopated_study2,s100,23.0,feminino,right,España,Castellano,Master degree,no,no,B,1,what,L3,unsyncopated,s2,r1,20,Online_whatL3//d.ji.li11.none.none.wav,fu,di,ka,sil2,chu,do,je,sil,mo,le,sil1,['-'],,,none,none,,,,li,4,testWhatL3Uns//time_viol.r1.s2.0.wav,1.0,what,unsyncopated,a,s2,no_rule,time,L3,m,0.3231,5.0,1.0,0.7175,2.0,2.0,Castellano,0.0,Inglés,6.0,3.0,2.0,no,no,no,nada,,,,nada,53.0,yes
21,2024-02-03_16h50.34.026,Unsyncopated_study2,s100,23.0,feminino,right,España,Castellano,Master degree,no,no,B,1,what,L3,unsyncopated,s2,r1,21,Online_whatL3//d.ji.li8.none.none.wav,di,ko,do,sil,chu,ga,le,sil2,mo,je,sil1,['false alarm'],[0.7032000000476728],[0.7032000000476728],none,none,,,"[""space""]",li,4,testWhatL3Uns//r2.s1.2.wav,1.0,what,unsyncopated,b,s1,rule,rule,L3,z,0.9012,3.0,1.0,1.3429,2.0,2.0,Castellano,0.0,Inglés,6.0,3.0,2.0,no,no,no,nada,,,,nada,53.0,yes
22,2024-02-03_16h50.34.026,Unsyncopated_study2,s100,23.0,feminino,right,España,Castellano,Master degree,no,no,B,1,what,L3,unsyncopated,s2,r2,22,Online_whatL3//d.ji.li10.444.0.wav,li,le,ji,sil,ñe,do,di,sil1,sa,ga,sil2,['catch'],[0.6609999999999445],[0.6609999999999445],0.0,beat,0.6609999999999445,0.6609999999999445,"[""space""]",li,4,testWhatL3Uns//r1.s1.0.wav,1.0,what,unsyncopated,a,s1,rule,rule,L3,m,0.8509,6.0,0.0,0.8522,2.0,2.0,Castellano,0.0,Inglés,6.0,3.0,2.0,no,no,no,nada,,,,nada,53.0,yes
23,2024-02-03_16h50.34.026,Unsyncopated_study2,s100,23.0,feminino,right,España,Castellano,Master degree,no,no,B,1,what,L3,unsyncopated,s2,r1,23,Online_whatL3//d.ji.li9.1554.444.wav,fu,ga,li,sil2,chu,gu,ji,sil,mo,do,sil1,['catch'],[1.1042999999523317],[1.1042999999523317],0.444,no_beat,0.6602999999523318,0.6602999999523318,"[""space""]",li,4,testWhatL3Uns//cat_viol.r2.s1.0.wav,1.0,what,unsyncopated,b,s1,no_rule,cat,L3,m,0.3557,5.0,1.0,0.9012,2.0,2.0,Castellano,0.0,Inglés,6.0,3.0,2.0,no,no,no,nada,,,,nada,53.0,yes
24,2024-02-03_16h50.34.026,Unsyncopated_study2,s100,23.0,feminino,right,España,Castellano,Master degree,no,no,B,1,what,L3,unsyncopated,s2,r1,24,Online_whatL3//c.gu.je9.none.none.wav,ga,fu,ko,sil,chu,ji,ka,sil1,mo,di,sil2,['false alarm'],[0.07839999997611358],[0.07839999997611358],none,none,,,"[""space""]",je,3,testWhenL4Uns//r1.s1.0.wav,2.0,when,unsyncopated,a,s1,rule,rule,L4,z,0.7767,7.0,1.0,1.2231,2.0,2.0,Castellano,0.0,Inglés,6.0,3.0,2.0,no,no,no,nada,,,,nada,53.0,yes
25,2024-02-03_16h50.34.026,Unsyncopated_study2,s100,23.0,feminino,right,España,Castellano,Master degree,no,no,B,1,what,L3,unsyncopated,s2,r2,25,Online_whatL3//c.gu.je8.none.none.wav,ko,ka,di,sil2,ñe,ji,li,sil,sa,ga,sil1,['false alarm'],[1.8957000000476683],[1.8957000000476683],none,none,,,"[""space""]",je,3,testWhenL4Uns//cat_viol.r1.s1.0.wav,2.0,when,unsyncopated,a,s1,no_rule,cat,L4,m,2.3003,5.0,0.0,1.2017,2.0,2.0,Castellano,0.0,Inglés,6.0,3.0,2.0,no,no,no,nada,,,,nada,53.0,yes
26,2024-02-03_16h50.34.026,Unsyncopated_study2,s100,23.0,feminino,right,España,Castellano,Master degree,no,no,B,1,what,L3,unsyncopated,s1,r1,26,Online_whatL3//c.gu.je11.444.1332.wav,chu,li,gu,sil2,mo,je,ka,sil,ko,do,sil1,['catch'],[1.7709000000953665],[1.7709000000953665],1.332,no_beat,0.4389000000953664,0.4389000000953664,"[""space""]",je,3,testWhenL4Uns//r1.s2.0.wav,2.0,when,unsyncopated,a,s2,rule,rule,L4,z,0.3381,6.0,1.0,1.1524,2.0,2.0,Castellano,0.0,Inglés,6.0,3.0,2.0,no,no,no,nada,,,,nada,53.0,yes
27,2024-02-03_16h50.34.026,Unsyncopated_study2,s100,23.0,feminino,right,España,Castellano,Master degree,no,no,B,1,what,L3,unsyncopated,s1,r2,27,Online_whatL3//c.gu.je10.none.none.wav,ñe,li,le,sil,sa,ko,do,sil2,di,ji,sil1,['-'],,,none,none,,,,je,3,testWhenL4Uns//r1.s1.1.wav,2.0,when,unsyncopated,a,s1,rule,rule,L4,z,0.2726,7.0,1.0,1.2002,2.0,2.0,Castellano,0.0,Inglés,6.0,3.0,2.0,no,no,no,nada,,,,nada,53.0,yes
28,2024-02-03_16h50.34.026,Unsyncopated_study2,s100,23.0,feminino,right,España,Castellano,Master degree,no,no,B,1,what,L3,unsyncopated,s1,r2,28,Online_whatL3//d.ji.li3.none.none.wav,ñe,di,le,sil,sa,je,gu,sil2,do,ga,sil1,['false alarm'],[1.0960000000000036],[1.0960000000000036],none,none,,,"[""space""]",li,4,testWhenL4Uns//r2.s2.2.wav,2.0,when,unsyncopated,b,s2,rule,rule,L4,m,0.5334,5.0,0.0,2.6268,2.0,2.0,Castellano,0.0,Inglés,6.0,3.0,2.0,no,no,no,nada,,,,nada,53.0,yes
29,2024-02-03_16h50.34.026,Unsyncopated_study2,s100,23.0,feminino,right,España,Castellano,Master degree,no,no,B,1,what,L3,unsyncopated,s1,r1,29,Online_whatL3//d.ji.li1.444.1110.wav,chu,je,ji,sil,mo,li,ko,sil1,le,do,sil2,['catch'],[1.7759999999999536],[1.7759999999999536],1.11,no_beat,0.6659999999999535,0.6659999999999535,"[""space""]",li,4,testWhenL4Uns//cat_viol.r1.s2.0.wav,2.0,when,unsyncopated,a,s2,no_rule,cat,L4,m,0.47,6.0,0.0,1.0035,2.0,2.0,Castellano,0.0,Inglés,6.0,3.0,2.0,no,no,no,nada,,,,nada,53.0,yes
30,2024-02-03_16h50.34.026,Unsyncopated_study2,s100,23.0,feminino,right,España,Castellano,Master degree,no,no,B,1,what,L3,unsyncopated,s1,r2,30,Online_whatL3//d.ji.li0.1776.1110.wav,ñe,do,fu,sil,sa,li,gu,sil1,ji,ka,sil2,['catch'],[1.6527999999523217],[1.6527999999523217],1.11,no_beat,0.5427999999523216,0.5427999999523216,"[""space""]",li,4,testWhenL4Uns//r2.s2.1.wav,2.0,when,unsyncopated,b,s2,rule,rule,L4,z,0.5007,6.0,1.0,1.5991,2.0,2.0,Castellano,0.0,Inglés,6.0,3.0,2.0,no,no,no,nada,,,,nada,53.0,yes
31,2024-02-03_16h50.34.026,Unsyncopated_study2,s100,23.0,feminino,right,España,Castellano,Master degree,no,no,B,1,what,L3,unsyncopated,s2,r2,31,Online_whatL3//d.ji.li2.none.none.wav,ga,do,ka,sil2,ñe,fu,di,sil,sa,le,sil1,['-'],,,none,none,,,,li,4,testWhenL4Uns//r1.s1.2.wav,2.0,when,unsyncopated,a,s1,rule,rule,L4,z,0.3346,5.0,1.0,1.224,2.0,2.0,Castellano,0.0,Inglés,6.0,3.0,2.0,no,no,no,nada,,,,nada,53.0,yes
32,2024-02-03_16h50.34.026,Unsyncopated_study2,s100,23.0,feminino,right,España,Castellano,Master degree,no,no,B,1,what,L3,unsyncopated,s1,r1,32,Online_whatL3//b.ñe.sa20.none.none.wav,chu,li,do,sil,mo,je,gu,sil1,ga,le,sil2,['-'],,,none,none,,,,sa,2,testWhenL4Uns//dep_viol.r1.s2.0.wav,2.0,when,unsyncopated,a,s2,no_rule,dep,L4,z,3.1564,6.0,1.0,0.6347,2.0,2.0,Castellano,0.0,Inglés,6.0,3.0,2.0,no,no,no,nada,,,,nada,53.0,yes
33,2024-02-03_16h50.34.026,Unsyncopated_study2,s100,23.0,feminino,right,España,Castellano,Master degree,no,no,B,1,what,L3,unsyncopated,s1,r2,33,Online_whatL3//b.ñe.sa22.0.1110.wav,ñe,gu,fu,sil2,sa,je,ga,sil,do,ko,sil1,['catch'],[1.4064999999999372],[1.4064999999999372],1.11,no_beat,0.2964999999999371,0.2964999999999371,"[""space""]",sa,2,testWhenL4Uns//time_viol.r1.s1.0.wav,2.0,when,unsyncopated,a,s1,no_rule,time,L4,m,0.3359,4.0,0.0,1.4558,2.0,2.0,Castellano,0.0,Inglés,6.0,3.0,2.0,no,no,no,nada,,,,nada,53.0,yes
34,2024-02-03_16h50.34.026,Unsyncopated_study2,s100,23.0,feminino,right,España,Castellano,Master degree,no,no,B,1,what,L3,unsyncopated,s2,r1,34,Online_whatL3//b.ñe.sa23.none.none.wav,le,je,do,sil,chu,ji,ka,sil2,mo,ko,sil1,['-'],,,none,none,,,,sa,2,testWhenL4Uns//dep_viol.r1.s1.0.wav,2.0,when,unsyncopated,a,s1,no_rule,dep,L4,m,0.2471,5.0,0.0,1.0237,2.0,2.0,Castellano,0.0,Inglés,6.0,3.0,2.0,no,no,no,nada,,,,nada,53.0,yes
35,2024-02-03_16h50.34.026,Unsyncopated_study2,s100,23.0,feminino,right,España,Castellano,Master degree,no,no,B,1,what,L3,unsyncopated,s1,r2,35,Online_whatL3//b.ñe.sa21.0.1110.wav,ñe,do,li,sil2,sa,je,ko,sil,le,ga,sil1,['catch'],[1.887300000071491],[1.887300000071491],1.11,no_beat,0.7773000000714909,0.7773000000714909,"[""space""]",sa,2,testWhenL4Uns//r1.s2.2.wav,2.0,when,unsyncopated,a,s2,rule,rule,L4,m,2.3494,6.0,0.0,0.457,2.0,2.0,Castellano,0.0,Inglés,6.0,3.0,2.0,no,no,no,nada,,,,nada,53.0,yes
36,2024-02-03_16h50.34.026,Unsyncopated_study2,s100,23.0,feminino,right,España,Castellano,Master degree,no,no,B,1,what,L3,unsyncopated,s2,r1,36,Online_whatL3//a.chu.mo27.888.1776.wav,ka,ga,ji,sil,chu,je,di,sil1,mo,gu,sil2,['catch'],[1.51110000002393],[1.51110000002393],0.888,beat,0.6231000000239301,0.6231000000239301,"[""space""]",chu,1,testWhenL4Uns//r2.s1.2.wav,2.0,when,unsyncopated,b,s1,rule,rule,L4,z,0.2258,6.0,1.0,0.8989,2.0,2.0,Castellano,0.0,Inglés,6.0,3.0,2.0,no,no,no,nada,,,,nada,53.0,yes
37,2024-02-03_16h50.34.026,Unsyncopated_study2,s100,23.0,feminino,right,España,Castellano,Master degree,no,no,B,1,what,L3,unsyncopated,s1,r1,37,Online_whatL3//a.chu.mo24.0.1110.wav,chu,gu,ka,sil2,mo,le,ji,sil,do,li,sil1,['catch'],[0.6539999999999964],[0.6539999999999964],0.0,beat,0.6539999999999964,0.6539999999999964,"[""space""]",chu,1,testWhenL4Uns//r2.s1.0.wav,2.0,when,unsyncopated,b,s1,rule,rule,L4,m,0.1195,6.0,0.0,0.7865,2.0,2.0,Castellano,0.0,Inglés,6.0,3.0,2.0,no,no,no,nada,,,,nada,53.0,yes
38,2024-02-03_16h50.34.026,Unsyncopated_study2,s100,23.0,feminino,right,España,Castellano,Master degree,no,no,B,1,what,L3,unsyncopated,s1,r1,38,Online_whatL3//a.chu.mo26.0.888.wav,chu,ji,li,sil,mo,ko,fu,sil2,di,gu,sil1,['miss'],,,0.0,beat,,,,chu,1,testWhenL4Uns//time_viol.r2.s2.0.wav,2.0,when,unsyncopated,b,s2,no_rule,time,L4,m,0.4057,6.0,0.0,0.8196,2.0,2.0,Castellano,0.0,Inglés,6.0,3.0,2.0,no,no,no,nada,,,,nada,53.0,yes
39,2024-02-03_16h50.34.026,Unsyncopated_study2,s100,23.0,feminino,right,España,Castellano,Master degree,no,no,B,1,what,L3,unsyncopated,s2,r2,39,Online_whatL3//a.chu.mo25.none.none.wav,le,di,do,sil2,ñe,ga,li,sil,sa,je,sil1,['-'],,,none,none,,,,chu,1,testWhenL4Uns//r2.s1.1.wav,2.0,when,unsyncopated,b,s1,rule,rule,L4,z,0.3007,6.0,1.0,0.857,2.0,2.0,Castellano,0.0,Inglés,6.0,3.0,2.0,no,no,no,nada,,,,nada,53.0,yes
40,2024-02-03_16h50.34.026,Unsyncopated_study2,s100,23.0,feminino,right,España,Castellano,Master degree,no,no,B,1,what,L3,unsyncopated,s2,r1,40,Online_whatL3//a.chu.mo20.888.1776.wav,ko,fu,ka,sil,chu,le,do,sil1,mo,je,sil2,['catch'],[1.344500000000039],[1.344500000000039],0.888,beat,0.4565000000000391,0.4565000000000391,"[""space""]",chu,1,testWhenL4Uns//cat_viol.r2.s1.0.wav,2.0,when,unsyncopated,b,s1,no_rule,cat,L4,m,0.0683,4.0,0.0,0.8034,2.0,2.0,Castellano,0.0,Inglés,6.0,3.0,2.0,no,no,no,nada,,,,nada,53.0,yes
41,2024-02-03_16h50.34.026,Unsyncopated_study2,s100,23.0,feminino,right,España,Castellano,Master degree,no,no,B,1,what,L3,unsyncopated,s1,r2,41,Online_whatL3//a.chu.mo21.none.none.wav,ñe,ko,do,sil,sa,li,ji,sil1,gu,ka,sil2,['-'],,,none,none,,,,chu,1,testWhenL4Uns//dep_viol.r2.s1.0.wav,2.0,when,unsyncopated,b,s1,no_rule,dep,L4,z,0.3012,6.0,1.0,1.0229,2.0,2.0,Castellano,0.0,Inglés,6.0,3.0,2.0,no,no,no,nada,,,,nada,53.0,yes
42,2024-02-03_16h50.34.026,Unsyncopated_study2,s100,23.0,feminino,right,España,Castellano,Master degree,no,no,B,1,what,L3,unsyncopated,s2,r1,42,Online_whatL3//a.chu.mo23.888.1998.wav,fu,ko,li,sil,chu,ga,je,sil2,mo,ji,sil1,['catch'],[1.520899999976109],[1.520899999976109],0.888,beat,0.632899999976109,0.632899999976109,"[""space""]",chu,1,testWhenL4Uns//dep_viol.r2.s2.0.wav,2.0,when,unsyncopated,b,s2,no_rule,dep,L4,m,0.3513,5.0,0.0,1.16,2.0,2.0,Castellano,0.0,Inglés,6.0,3.0,2.0,no,no,no,nada,,,,nada,53.0,yes
43,2024-02-03_16h50.34.026,Unsyncopated_study2,s100,23.0,feminino,right,España,Castellano,Master degree,no,no,B,1,what,L3,unsyncopated,s1,r2,43,Online_whatL3//a.chu.mo22.none.none.wav,ñe,gu,fu,sil,sa,di,li,sil1,do,ji,sil2,['-'],,,none,none,,,,chu,1,testWhenL4Uns//r1.s2.1.wav,2.0,when,unsyncopated,a,s2,rule,rule,L4,m,2.9784,6.0,0.0,0.8696,2.0,2.0,Castellano,0.0,Inglés,6.0,3.0,2.0,no,no,no,nada,,,,nada,53.0,yes
44,2024-02-03_16h50.34.026,Unsyncopated_study2,s100,23.0,feminino,right,España,Castellano,Master degree,no,no,B,1,what,L3,unsyncopated,s1,r2,44,Online_whatL3//b.ñe.sa1.0.888.wav,ñe,le,je,sil,sa,ka,ko,sil2,do,gu,sil1,['catch'],[1.252999999999929],[1.252999999999929],0.888,beat,0.364999999999929,0.364999999999929,"[""space""]",sa,2,testWhenL4Uns//time_viol.r2.s1.0.wav,2.0,when,unsyncopated,b,s1,no_rule,time,L4,m,0.6007,5.0,0.0,0.9836,2.0,2.0,Castellano,0.0,Inglés,6.0,3.0,2.0,no,no,no,nada,,,,nada,53.0,yes
45,2024-02-03_16h50.34.026,Unsyncopated_study2,s100,23.0,feminino,right,España,Castellano,Master degree,no,no,B,1,what,L3,unsyncopated,s2,r1,45,Online_whatL3//b.ñe.sa2.none.none.wav,fu,ko,di,sil,chu,le,gu,sil2,mo,je,sil1,['-'],,,none,none,,,,sa,2,testWhenL4Uns//cat_viol.r2.s2.0.wav,2.0,when,unsyncopated,b,s2,no_rule,cat,L4,z,0.0398,6.0,1.0,0.8249,2.0,2.0,Castellano,0.0,Inglés,6.0,3.0,2.0,no,no,no,nada,,,,nada,53.0,yes
46,2024-02-03_16h50.34.026,Unsyncopated_study2,s100,23.0,feminino,right,España,Castellano,Master degree,no,no,B,1,what,L3,unsyncopated,s2,r1,46,Online_whatL3//b.ñe.sa0.none.none.wav,ko,le,ji,sil2,chu,do,gu,sil,mo,fu,sil1,['-'],,,none,none,,,,sa,2,testWhenL4Uns//time_viol.r1.s2.0.wav,2.0,when,unsyncopated,a,s2,no_rule,time,L4,z,0.1661,6.0,1.0,0.4667,2.0,2.0,Castellano,0.0,Inglés,6.0,3.0,2.0,no,no,no,nada,,,,nada,53.0,yes
47,2024-02-03_16h50.34.026,Unsyncopated_study2,s100,23.0,feminino,right,España,Castellano,Master degree,no,no,B,1,what,L3,unsyncopated,s2,r2,47,Online_whatL3//b.ñe.sa3.888.1776.wav,le,di,gu,sil,ñe,li,je,sil1,sa,ko,sil2,['catch'],[2.2703999999762345],[2.2703999999762345],1.776,beat,0.4943999999762345,0.4943999999762345,"[""space""]",sa,2,testWhenL4Uns//r2.s2.0.wav,2.0,when,unsyncopated,b,s2,rule,rule,L4,z,0.3023,6.0,1.0,0.4196,2.0,2.0,Castellano,0.0,Inglés,6.0,3.0,2.0,no,no,no,nada,,,,nada,53.0,yes
48,2024-02-03_16h50.34.026,Unsyncopated_study2,s100,23.0,feminino,right,España,Castellano,Master degree,no,no,B,1,what,L3,unsyncopated,s2,r1,48,Online_whatL3//c.gu.je1.222.1332.wav,di,gu,le,sil2,chu,je,ga,sil,mo,ka,sil1,['miss'],,,1.332,no_beat,,,,je,3,testConjL2Uns//time_viol.r2.s2.0.wav,3.0,conjunction_un,unsyncopated,b,s2,no_rule,time,L2,z,0.3194,4.0,0.0,1.2368,2.0,2.0,Castellano,0.0,Inglés,6.0,3.0,2.0,no,no,no,nada,,,,nada,53.0,yes
49,2024-02-03_16h50.34.026,Unsyncopated_study2,s100,23.0,feminino,right,España,Castellano,Master degree,no,no,B,1,what,L3,unsyncopated,s1,r1,49,Online_whatL3//c.gu.je0.none.none.wav,chu,ko,li,sil,mo,ji,le,sil2,ga,di,sil1,['false alarm'],[1.5447000000477829],[1.5447000000477829],none,none,,,"[""space""]",je,3,testConjL2Uns//cat_viol.r1.s1.0.wav,3.0,conjunction_un,unsyncopated,a,s1,no_rule,cat,L2,z,1.1528,5.0,0.0,0.4844,2.0,2.0,Castellano,0.0,Inglés,6.0,3.0,2.0,no,no,no,nada,,,,nada,53.0,yes
50,2024-02-03_16h50.34.026,Unsyncopated_study2,s100,23.0,feminino,right,España,Castellano,Master degree,no,no,B,1,what,L3,unsyncopated,s1,r1,50,Online_whatL3//c.gu.je3.none.none.wav,chu,le,do,sil,mo,ji,ka,sil2,li,fu,sil1,['false alarm'],[1.5303999999761118],[1.5303999999761118],none,none,,,"[""space""]",je,3,testConjL2Uns//r2.s1.1.wav,3.0,conjunction_un,unsyncopated,b,s1,rule,rule,L2,z,0.4266,5.0,1.0,0.6605,2.0,2.0,Castellano,0.0,Inglés,6.0,3.0,2.0,no,no,no,nada,,,,nada,53.0,yes
51,2024-02-03_16h50.34.026,Unsyncopated_study2,s100,23.0,feminino,right,España,Castellano,Master degree,no,no,B,1,what,L3,unsyncopated,s1,r2,51,Online_whatL3//c.gu.je2.none.none.wav,ñe,di,fu,sil,sa,ji,ga,sil1,ko,do,sil2,['-'],,,none,none,,,,je,3,testConjL2Uns//time_viol.r2.s1.0.wav,3.0,conjunction_un,unsyncopated,b,s1,no_rule,time,L2,m,0.4828,5.0,1.0,0.9013,2.0,2.0,Castellano,0.0,Inglés,6.0,3.0,2.0,no,no,no,nada,,,,nada,53.0,yes
52,2024-02-03_16h50.34.026,Unsyncopated_study2,s100,23.0,feminino,right,España,Castellano,Master degree,no,no,B,1,what,L3,unsyncopated,s1,r2,52,Online_whatL3//c.gu.je17.none.none.wav,ñe,ga,li,sil2,sa,ko,ji,sil,do,ka,sil1,['-'],,,none,none,,,,je,3,testConjL2Uns//dep_viol.r2.s2.0.wav,3.0,conjunction_un,unsyncopated,b,s2,no_rule,dep,L2,m,0.3197,5.0,1.0,0.2014,2.0,2.0,Castellano,0.0,Inglés,6.0,3.0,2.0,no,no,no,nada,,,,nada,53.0,yes
53,2024-02-03_16h50.34.026,Unsyncopated_study2,s100,23.0,feminino,right,España,Castellano,Master degree,no,no,B,1,what,L3,unsyncopated,s2,r2,53,Online_whatL3//c.gu.je18.none.none.wav,ko,do,ji,sil,ñe,li,ga,sil2,sa,di,sil1,['-'],,,none,none,,,,je,3,testConjL2Uns//r1.s2.2.wav,3.0,conjunction_un,unsyncopated,a,s2,rule,rule,L2,z,0.2727,6.0,1.0,0.8179,2.0,2.0,Castellano,0.0,Inglés,6.0,3.0,2.0,no,no,no,nada,,,,nada,53.0,yes
54,2024-02-03_16h50.34.026,Unsyncopated_study2,s100,23.0,feminino,right,España,Castellano,Master degree,no,no,B,1,what,L3,unsyncopated,s1,r1,54,Online_whatL3//c.gu.je16.1332.444.wav,chu,fu,je,sil,mo,di,gu,sil1,li,ko,sil2,['catch'],[0.993100000023901],[0.993100000023901],0.444,no_beat,0.549100000023901,0.549100000023901,"[""space""]",je,3,testConjL2Uns//time_viol.r1.s1.0.wav,3.0,conjunction_un,unsyncopated,a,s1,no_rule,time,L2,m,0.2827,5.0,1.0,1.0674,2.0,2.0,Castellano,0.0,Inglés,6.0,3.0,2.0,no,no,no,nada,,,,nada,53.0,yes
55,2024-02-03_16h50.34.026,Unsyncopated_study2,s100,23.0,feminino,right,España,Castellano,Master degree,no,no,B,1,what,L3,unsyncopated,s2,r2,55,Online_whatL3//c.gu.je19.0.1110.wav,gu,do,li,sil,ñe,je,ji,sil2,sa,di,sil1,['catch'],[1.7058000000714628],[1.7058000000714628],1.11,no_beat,0.5958000000714627,0.5958000000714627,"[""space""]",je,3,testConjL2Uns//cat_viol.r1.s2.0.wav,3.0,conjunction_un,unsyncopated,a,s2,no_rule,cat,L2,m,0.437,5.0,1.0,0.6842,2.0,2.0,Castellano,0.0,Inglés,6.0,3.0,2.0,no,no,no,nada,,,,nada,53.0,yes
56,2024-02-03_16h50.34.026,Unsyncopated_study2,s100,23.0,feminino,right,España,Castellano,Master degree,no,no,B,1,what,L3,unsyncopated,s2,r1,56,Online_whatL3//c.gu.je20.0.1110.wav,gu,li,ko,sil,chu,je,ga,sil2,mo,le,sil1,['miss'],,,1.11,no_beat,,,,je,3,testConjL2Uns//r2.s2.1.wav,3.0,conjunction_un,unsyncopated,b,s2,rule,rule,L2,z,2.8541,6.0,1.0,0.7916,2.0,2.0,Castellano,0.0,Inglés,6.0,3.0,2.0,no,no,no,nada,,,,nada,53.0,yes
57,2024-02-03_16h50.34.026,Unsyncopated_study2,s100,23.0,feminino,right,España,Castellano,Master degree,no,no,B,1,what,L3,unsyncopated,s2,r2,57,Online_whatL3//c.gu.je22.0.444.wav,gu,li,je,sil2,ñe,ji,ko,sil,sa,ga,sil1,['catch'],[1.0823999999761327],[1.0823999999761327],0.444,no_beat,0.6383999999761327,0.6383999999761327,"[""space""]",je,3,testConjL2Uns//r1.s2.1.wav,3.0,conjunction_un,unsyncopated,a,s2,rule,rule,L2,z,0.5578,6.0,1.0,1.0783,2.0,2.0,Castellano,0.0,Inglés,6.0,3.0,2.0,no,no,no,nada,,,,nada,53.0,yes
58,2024-02-03_16h50.34.026,Unsyncopated_study2,s100,23.0,feminino,right,España,Castellano,Master degree,no,no,B,1,what,L3,unsyncopated,s1,r2,58,Online_whatL3//c.gu.je23.222.1110.wav,ñe,gu,li,sil,sa,je,do,sil2,ka,ko,sil1,['catch'],[1.6032999999522417],[1.6032999999522417],1.11,no_beat,0.4932999999522416,0.4932999999522416,"[""space""]",je,3,testConjL2Uns//cat_viol.r2.s2.0.wav,3.0,conjunction_un,unsyncopated,b,s2,no_rule,cat,L2,z,0.3334,5.0,0.0,0.8248,2.0,2.0,Castellano,0.0,Inglés,6.0,3.0,2.0,no,no,no,nada,,,,nada,53.0,yes
59,2024-02-03_16h50.34.026,Unsyncopated_study2,s100,23.0,feminino,right,España,Castellano,Master degree,no,no,B,1,what,L3,unsyncopated,s1,r1,59,Online_whatL3//c.gu.je21.1332.444.wav,chu,li,je,sil,mo,ka,gu,sil1,do,ga,sil2,['catch'],[1.30570000004775],[1.30570000004775],0.444,no_beat,0.8617000000477502,0.8617000000477502,"[""space""]",je,3,testConjL2Uns//r2.s2.2.wav,3.0,conjunction_un,unsyncopated,b,s2,rule,rule,L2,z,0.3055,6.0,1.0,0.8846,2.0,2.0,Castellano,0.0,Inglés,6.0,3.0,2.0,no,no,no,nada,,,,nada,53.0,yes
60,2024-02-03_16h50.34.026,Unsyncopated_study2,s100,23.0,feminino,right,España,Castellano,Master degree,no,no,B,1,what,L3,unsyncopated,s2,r1,60,Online_whatL3//b.ñe.sa18.none.none.wav,ko,je,ga,sil2,chu,li,fu,sil,mo,gu,sil1,['-'],,,none,none,,,,sa,2,testConjL2Uns//r1.s1.1.wav,3.0,conjunction_un,unsyncopated,a,s1,rule,rule,L2,m,0.118,4.0,0.0,1.2662,2.0,2.0,Castellano,0.0,Inglés,6.0,3.0,2.0,no,no,no,nada,,,,nada,53.0,yes
61,2024-02-03_16h50.34.026,Unsyncopated_study2,s100,23.0,feminino,right,España,Castellano,Master degree,no,no,B,1,what,L3,unsyncopated,s2,r1,61,Online_whatL3//b.ñe.sa19.none.none.wav,ji,fu,gu,sil2,chu,do,ka,sil,mo,ko,sil1,['-'],,,none,none,,,,sa,2,testConjL2Uns//time_viol.r1.s2.0.wav,3.0,conjunction_un,unsyncopated,a,s2,no_rule,time,L2,m,0.1093,5.0,1.0,0.4348,2.0,2.0,Castellano,0.0,Inglés,6.0,3.0,2.0,no,no,no,nada,,,,nada,53.0,yes
62,2024-02-03_16h50.34.026,Unsyncopated_study2,s100,23.0,feminino,right,España,Castellano,Master degree,no,no,B,1,what,L3,unsyncopated,s1,r1,62,Online_whatL3//b.ñe.sa16.none.none.wav,chu,fu,ko,sil,mo,li,je,sil1,ka,gu,sil2,['-'],,,none,none,,,,sa,2,testConjL2Uns//r1.s2.0.wav,3.0,conjunction_un,unsyncopated,a,s2,rule,rule,L2,z,2.2533,6.0,1.0,0.4939,2.0,2.0,Castellano,0.0,Inglés,6.0,3.0,2.0,no,no,no,nada,,,,nada,53.0,yes
63,2024-02-03_16h50.34.026,Unsyncopated_study2,s100,23.0,feminino,right,España,Castellano,Master degree,no,no,B,1,what,L3,unsyncopated,s2,r1,63,Online_whatL3//b.ñe.sa17.none.none.wav,di,gu,do,sil,chu,li,le,sil1,mo,ji,sil2,['-'],,,none,none,,,,sa,2,testConjL2Uns//r1.s1.2.wav,3.0,conjunction_un,unsyncopated,a,s1,rule,rule,L2,m,0.235,5.0,0.0,0.7532,2.0,2.0,Castellano,0.0,Inglés,6.0,3.0,2.0,no,no,no,nada,,,,nada,53.0,yes
64,2024-02-03_16h50.34.026,Unsyncopated_study2,s100,23.0,feminino,right,España,Castellano,Master degree,no,no,B,1,what,L3,unsyncopated,s2,r2,64,Online_whatL3//a.chu.mo13.none.none.wav,ko,ka,li,sil2,ñe,fu,gu,sil,sa,ji,sil1,['-'],,,none,none,,,,chu,1,testConjL2Uns//dep_viol.r1.s1.0.wav,3.0,conjunction_un,unsyncopated,a,s1,no_rule,dep,L2,m,0.0681,4.0,1.0,0.976,2.0,2.0,Castellano,0.0,Inglés,6.0,3.0,2.0,no,no,no,nada,,,,nada,53.0,yes
65,2024-02-03_16h50.34.026,Unsyncopated_study2,s100,23.0,feminino,right,España,Castellano,Master degree,no,no,B,1,what,L3,unsyncopated,s2,r1,65,Online_whatL3//a.chu.mo12.1110.1998.wav,gu,do,le,sil2,chu,ko,ji,sil,mo,li,sil1,['catch'],[1.8913999999761018],[1.8913999999761018],1.11,no_beat,0.7813999999761017,0.7813999999761017,"[""space""]",chu,1,testConjL2Uns//dep_viol.r1.s2.0.wav,3.0,conjunction_un,unsyncopated,a,s2,no_rule,dep,L2,m,0.4227,5.0,1.0,0.6995,2.0,2.0,Castellano,0.0,Inglés,6.0,3.0,2.0,no,no,no,nada,,,,nada,53.0,yes
66,2024-02-03_16h50.34.026,Unsyncopated_study2,s100,23.0,feminino,right,España,Castellano,Master degree,no,no,B,1,what,L3,unsyncopated,s1,r2,66,Online_whatL3//a.chu.mo15.none.none.wav,ñe,gu,li,sil,sa,ko,ji,sil2,je,ka,sil1,['-'],,,none,none,,,,chu,1,testConjL2Uns//dep_viol.r2.s1.0.wav,3.0,conjunction_un,unsyncopated,b,s1,no_rule,dep,L2,m,0.2695,5.0,1.0,0.6162,2.0,2.0,Castellano,0.0,Inglés,6.0,3.0,2.0,no,no,no,nada,,,,nada,53.0,yes
67,2024-02-03_16h50.34.026,Unsyncopated_study2,s100,23.0,feminino,right,España,Castellano,Master degree,no,no,B,1,what,L3,unsyncopated,s1,r1,67,Online_whatL3//a.chu.mo14.0.888.wav,chu,fu,do,sil,mo,ko,je,sil2,ga,ji,sil1,['catch'],[0.624300000071571],[0.624300000071571],0.0,beat,0.624300000071571,0.624300000071571,"[""space""]",chu,1,testConjL2Uns//r2.s2.0.wav,3.0,conjunction_un,unsyncopated,b,s2,rule,rule,L2,z,1.1016,7.0,1.0,1.278,2.0,2.0,Castellano,0.0,Inglés,6.0,3.0,2.0,no,no,no,nada,,,,nada,53.0,yes
68,2024-02-03_16h50.34.026,Unsyncopated_study2,s100,23.0,feminino,right,España,Castellano,Master degree,no,no,B,1,what,L3,unsyncopated,s2,r1,68,Online_whatL3//c.gu.je29.1332.222.wav,ko,je,le,sil2,chu,gu,do,sil,mo,ji,sil1,['catch'],[0.7963999999761882],[0.7963999999761882],0.222,no_beat,0.5743999999761882,0.5743999999761882,"[""space""]",je,3,testConjL2Uns//r2.s1.0.wav,3.0,conjunction_un,unsyncopated,b,s1,rule,rule,L2,z,0.385,4.0,1.0,0.775,2.0,2.0,Castellano,0.0,Inglés,6.0,3.0,2.0,no,no,no,nada,,,,nada,53.0,yes
69,2024-02-03_16h50.34.026,Unsyncopated_study2,s100,23.0,feminino,right,España,Castellano,Master degree,no,no,B,1,what,L3,unsyncopated,s1,r2,69,Online_whatL3//c.gu.je28.1332.444.wav,ñe,ko,je,sil,sa,fu,gu,sil1,le,ji,sil2,['catch'],[1.060599999904639],[1.060599999904639],0.444,no_beat,0.616599999904639,0.616599999904639,"[""space""]",je,3,testConjL2Uns//cat_viol.r2.s1.0.wav,3.0,conjunction_un,unsyncopated,b,s1,no_rule,cat,L2,z,1.8159,7.0,0.0,0.74,2.0,2.0,Castellano,0.0,Inglés,6.0,3.0,2.0,no,no,no,nada,,,,nada,53.0,yes
70,2024-02-03_16h50.34.026,Unsyncopated_study2,s100,23.0,feminino,right,España,Castellano,Master degree,no,no,B,1,what,L3,unsyncopated,s2,r2,70,Online_whatL3//c.gu.je30.none.none.wav,ka,li,do,sil2,ñe,fu,ga,sil,sa,di,sil1,['-'],,,none,none,,,,je,3,testConjL2Uns//r1.s1.0.wav,3.0,conjunction_un,unsyncopated,a,s1,rule,rule,L2,m,0.3033,4.0,0.0,0.9921,2.0,2.0,Castellano,0.0,Inglés,6.0,3.0,2.0,no,no,no,nada,,,,nada,53.0,yes
71,2024-02-03_16h50.34.026,Unsyncopated_study2,s100,23.0,feminino,right,España,Castellano,Master degree,no,no,B,1,what,L3,unsyncopated,s1,r1,71,Online_whatL3//c.gu.je31.none.none.wav,chu,fu,ko,sil,mo,li,di,sil2,ga,ka,sil1,['-'],,,none,none,,,,je,3,testConjL2Uns//r2.s1.2.wav,3.0,conjunction_un,unsyncopated,b,s1,rule,rule,L2,m,0.1181,4.0,0.0,0.7584,2.0,2.0,Castellano,0.0,Inglés,6.0,3.0,2.0,no,no,no,nada,,,,nada,53.0,yes
72,2024-02-03_16h50.34.026,Unsyncopated_study2,s100,23.0,feminino,right,España,Castellano,Master degree,no,no,B,1,what,L3,unsyncopated,s2,r2,72,Online_whatL3//d.ji.li22.none.none.wav,gu,ka,di,sil,ñe,do,ga,sil2,sa,ko,sil1,['-'],,,none,none,,,,li,4,testConjL1Syn//r1.s1.0.wav,4.0,conjunction_syn,syncopated,a,s1,rule,rule,L1,m,0.439,6.0,0.0,1.2645,2.0,2.0,Castellano,0.0,Inglés,6.0,3.0,2.0,no,no,no,nada,,,,nada,53.0,yes
73,2024-02-03_16h50.34.026,Unsyncopated_study2,s100,23.0,feminino,right,España,Castellano,Master degree,no,no,B,1,what,L3,unsyncopated,s2,r2,73,Online_whatL3//d.ji.li23.0.444.wav,ji,ko,li,sil,ñe,di,fu,sil2,sa,je,sil1,['catch'],[0.9086000000238528],[0.9086000000238528],0.444,no_beat,0.4646000000238527,0.4646000000238527,"[""space""]",li,4,testConjL1Syn//r1.s2.0.wav,4.0,conjunction_syn,syncopated,a,s2,rule,rule,L1,m,0.2527,6.0,0.0,0.7362,2.0,2.0,Castellano,0.0,Inglés,6.0,3.0,2.0,no,no,no,nada,,,,nada,53.0,yes
74,2024-02-03_16h50.34.026,Unsyncopated_study2,s100,23.0,feminino,right,España,Castellano,Master degree,no,no,B,1,what,L3,unsyncopated,s2,r2,74,Online_whatL3//d.ji.li21.none.none.wav,di,le,ko,sil,ñe,ka,je,sil1,sa,gu,sil2,['-'],,,none,none,,,,li,4,testConjL1Syn//r2.s1.1.wav,4.0,conjunction_syn,syncopated,b,s1,rule,rule,L1,m,0.4013,6.0,0.0,1.0003,2.0,2.0,Castellano,0.0,Inglés,6.0,3.0,2.0,no,no,no,nada,,,,nada,53.0,yes
75,2024-02-03_16h50.34.026,Unsyncopated_study2,s100,23.0,feminino,right,España,Castellano,Master degree,no,no,B,1,what,L3,unsyncopated,s1,r1,75,Online_whatL3//d.ji.li20.none.none.wav,chu,gu,fu,sil2,mo,ga,do,sil,ka,di,sil1,['-'],,,none,none,,,,li,4,testConjL1Syn//time_viol.r1.s1.0.wav,4.0,conjunction_syn,syncopated,a,s1,no_rule,time,L1,m,0.324,6.0,1.0,0.8365,2.0,2.0,Castellano,0.0,Inglés,6.0,3.0,2.0,no,no,no,nada,,,,nada,53.0,yes
76,2024-02-03_16h50.34.026,Unsyncopated_study2,s100,23.0,feminino,right,España,Castellano,Master degree,no,no,B,1,what,L3,unsyncopated,s1,r2,76,Online_whatL3//a.chu.mo29.none.none.wav,ñe,do,di,sil,sa,gu,ko,sil1,le,ka,sil2,['-'],,,none,none,,,,chu,1,testConjL1Syn//dep_viol.r2.s2.0.wav,4.0,conjunction_syn,syncopated,b,s2,no_rule,dep,L1,m,0.4704,6.0,1.0,0.6844,2.0,2.0,Castellano,0.0,Inglés,6.0,3.0,2.0,no,no,no,nada,,,,nada,53.0,yes
77,2024-02-03_16h50.34.026,Unsyncopated_study2,s100,23.0,feminino,right,España,Castellano,Master degree,no,no,B,1,what,L3,unsyncopated,s1,r1,77,Online_whatL3//a.chu.mo30.0.888.wav,chu,ko,li,sil,mo,gu,le,sil2,je,fu,sil1,['catch'],[0.6730000000000018],[0.6730000000000018],0.0,beat,0.6730000000000018,0.6730000000000018,"[""space""]",chu,1,testConjL1Syn//time_viol.r2.s1.0.wav,4.0,conjunction_syn,syncopated,b,s1,no_rule,time,L1,m,0.9863,7.0,1.0,0.3092,2.0,2.0,Castellano,0.0,Inglés,6.0,3.0,2.0,no,no,no,nada,,,,nada,53.0,yes
78,2024-02-03_16h50.34.026,Unsyncopated_study2,s100,23.0,feminino,right,España,Castellano,Master degree,no,no,B,1,what,L3,unsyncopated,s2,r2,78,Online_whatL3//a.chu.mo28.none.none.wav,di,do,ka,sil,ñe,ko,ji,sil1,sa,fu,sil2,['-'],,,none,none,,,,chu,1,testConjL1Syn//cat_viol.r1.s2.0.wav,4.0,conjunction_syn,syncopated,a,s2,no_rule,cat,L1,m,0.1892,6.0,1.0,0.6887,2.0,2.0,Castellano,0.0,Inglés,6.0,3.0,2.0,no,no,no,nada,,,,nada,53.0,yes
79,2024-02-03_16h50.34.026,Unsyncopated_study2,s100,23.0,feminino,right,España,Castellano,Master degree,no,no,B,1,what,L3,unsyncopated,s2,r2,79,Online_whatL3//a.chu.mo31.none.none.wav,ka,di,ko,sil,ñe,ji,fu,sil1,sa,le,sil2,['-'],,,none,none,,,,chu,1,testConjL1Syn//r2.s1.0.wav,4.0,conjunction_syn,syncopated,b,s1,rule,rule,L1,m,0.2679,6.0,0.0,0.6009,2.0,2.0,Castellano,0.0,Inglés,6.0,3.0,2.0,no,no,no,nada,,,,nada,53.0,yes
80,2024-02-03_16h50.34.026,Unsyncopated_study2,s100,23.0,feminino,right,España,Castellano,Master degree,no,no,B,1,what,L3,unsyncopated,s1,r1,80,Online_whatL3//b.ñe.sa26.none.none.wav,chu,di,ga,sil,mo,li,le,sil2,ka,ko,sil1,['-'],,,none,none,,,,sa,2,testConjL1Syn//r1.s2.1.wav,4.0,conjunction_syn,syncopated,a,s2,rule,rule,L1,m,0.1452,6.0,0.0,0.3519,2.0,2.0,Castellano,0.0,Inglés,6.0,3.0,2.0,no,no,no,nada,,,,nada,53.0,yes
81,2024-02-03_16h50.34.026,Unsyncopated_study2,s100,23.0,feminino,right,España,Castellano,Master degree,no,no,B,1,what,L3,unsyncopated,s2,r2,81,Online_whatL3//b.ñe.sa27.1110.1998.wav,ga,je,fu,sil2,ñe,li,gu,sil,sa,ka,sil1,['catch'],[2.4392000000477765],[2.4392000000477765],1.998,no_beat,0.4412000000477765,0.4412000000477765,"[""space""]",sa,2,testConjL1Syn//cat_viol.r2.s1.0.wav,4.0,conjunction_syn,syncopated,b,s1,no_rule,cat,L1,m,0.6183,6.0,1.0,0.4349,2.0,2.0,Castellano,0.0,Inglés,6.0,3.0,2.0,no,no,no,nada,,,,nada,53.0,yes
82,2024-02-03_16h50.34.026,Unsyncopated_study2,s100,23.0,feminino,right,España,Castellano,Master degree,no,no,B,1,what,L3,unsyncopated,s1,r2,82,Online_whatL3//b.ñe.sa24.0.888.wav,ñe,je,ga,sil,sa,di,ji,sil1,li,ka,sil2,['miss'],,,0.888,beat,,,,sa,2,testConjL1Syn//dep_viol.r2.s1.0.wav,4.0,conjunction_syn,syncopated,b,s1,no_rule,dep,L1,m,0.2176,6.0,1.0,0.4997,2.0,2.0,Castellano,0.0,Inglés,6.0,3.0,2.0,no,no,no,nada,,,,nada,53.0,yes
83,2024-02-03_16h50.34.026,Unsyncopated_study2,s100,23.0,feminino,right,España,Castellano,Master degree,no,no,B,1,what,L3,unsyncopated,s1,r2,83,Online_whatL3//b.ñe.sa25.0.888.wav,ñe,di,do,sil,sa,ko,le,sil2,gu,ka,sil1,['catch'],[1.5068000000715074],[1.5068000000715074],0.888,beat,0.6188000000715074,0.6188000000715074,"[""space""]",sa,2,testConjL1Syn//r2.s2.1.wav,4.0,conjunction_syn,syncopated,b,s2,rule,rule,L1,m,2.0859,6.0,0.0,0.3276,2.0,2.0,Castellano,0.0,Inglés,6.0,3.0,2.0,no,no,no,nada,,,,nada,53.0,yes
84,2024-02-03_16h50.34.026,Unsyncopated_study2,s100,23.0,feminino,right,España,Castellano,Master degree,no,no,B,1,what,L3,unsyncopated,s1,r2,84,Online_whatL3//a.chu.mo3.none.none.wav,ñe,gu,li,sil,sa,je,do,sil1,ji,ka,sil2,['-'],,,none,none,,,,chu,1,testConjL1Syn//r1.s1.1.wav,4.0,conjunction_syn,syncopated,a,s1,rule,rule,L1,z,0.4502,5.0,1.0,1.042,2.0,2.0,Castellano,0.0,Inglés,6.0,3.0,2.0,no,no,no,nada,,,,nada,53.0,yes
85,2024-02-03_16h50.34.026,Unsyncopated_study2,s100,23.0,feminino,right,España,Castellano,Master degree,no,no,B,1,what,L3,unsyncopated,s2,r1,85,Online_whatL3//a.chu.mo0.1110.1998.wav,fu,di,li,sil2,chu,ga,ko,sil,mo,le,sil1,['catch'],[1.6269999999999527],[1.6269999999999527],1.11,no_beat,0.5169999999999526,0.5169999999999526,"[""space""]",chu,1,testConjL1Syn//dep_viol.r1.s2.0.wav,4.0,conjunction_syn,syncopated,a,s2,no_rule,dep,L1,z,0.283,5.0,0.0,0.4513,2.0,2.0,Castellano,0.0,Inglés,6.0,3.0,2.0,no,no,no,nada,,,,nada,53.0,yes
86,2024-02-03_16h50.34.026,Unsyncopated_study2,s100,23.0,feminino,right,España,Castellano,Master degree,no,no,B,1,what,L3,unsyncopated,s1,r2,86,Online_whatL3//a.chu.mo1.none.none.wav,ñe,gu,ji,sil,sa,di,ga,sil2,fu,ka,sil1,['-'],,,none,none,,,,chu,1,testConjL1Syn//r2.s1.2.wav,4.0,conjunction_syn,syncopated,b,s1,rule,rule,L1,m,0.0199,6.0,0.0,0.5517,2.0,2.0,Castellano,0.0,Inglés,6.0,3.0,2.0,no,no,no,nada,,,,nada,53.0,yes
87,2024-02-03_16h50.34.026,Unsyncopated_study2,s100,23.0,feminino,right,España,Castellano,Master degree,no,no,B,1,what,L3,unsyncopated,s2,r1,87,Online_whatL3//a.chu.mo2.1110.1998.wav,fu,do,je,sil2,chu,gu,li,sil,mo,ka,sil1,['miss'],,,1.11,no_beat,,,,chu,1,testConjL1Syn//cat_viol.r1.s1.0.wav,4.0,conjunction_syn,syncopated,a,s1,no_rule,cat,L1,m,0.2869,6.0,1.0,0.6874,2.0,2.0,Castellano,0.0,Inglés,6.0,3.0,2.0,no,no,no,nada,,,,nada,53.0,yes
88,2024-02-03_16h50.34.026,Unsyncopated_study2,s100,23.0,feminino,right,España,Castellano,Master degree,no,no,B,1,what,L3,unsyncopated,s1,r1,88,Online_whatL3//a.chu.mo16.0.1110.wav,chu,ga,gu,sil2,mo,li,fu,sil,do,ka,sil1,['catch'],[0.6692999999522726],[0.6692999999522726],0.0,beat,0.6692999999522726,0.6692999999522726,"[""space""]",chu,1,testConjL1Syn//r1.s2.2.wav,4.0,conjunction_syn,syncopated,a,s2,rule,rule,L1,m,0.3211,6.0,0.0,0.6584,2.0,2.0,Castellano,0.0,Inglés,6.0,3.0,2.0,no,no,no,nada,,,,nada,53.0,yes
89,2024-02-03_16h50.34.026,Unsyncopated_study2,s100,23.0,feminino,right,España,Castellano,Master degree,no,no,B,1,what,L3,unsyncopated,s2,r1,89,Online_whatL3//a.chu.mo17.888.1998.wav,je,le,ji,sil,chu,do,fu,sil2,mo,li,sil1,['catch'],[1.6378000000714792],[1.6378000000714792],0.888,beat,0.7498000000714792,0.7498000000714792,"[""space""]",chu,1,testConjL1Syn//cat_viol.r2.s2.0.wav,4.0,conjunction_syn,syncopated,b,s2,no_rule,cat,L1,z,0.3183,5.0,0.0,0.5388,2.0,2.0,Castellano,0.0,Inglés,6.0,3.0,2.0,no,no,no,nada,,,,nada,53.0,yes
90,2024-02-03_16h50.34.026,Unsyncopated_study2,s100,23.0,feminino,right,España,Castellano,Master degree,no,no,B,1,what,L3,unsyncopated,s1,r1,90,Online_whatL3//a.chu.mo18.0.888.wav,chu,le,ko,sil,mo,ka,li,sil1,gu,je,sil2,['catch'],[0.6366000000238046],[0.6366000000238046],0.0,beat,0.6366000000238046,0.6366000000238046,"[""space""]",chu,1,testConjL1Syn//dep_viol.r1.s1.0.wav,4.0,conjunction_syn,syncopated,a,s1,no_rule,dep,L1,z,0.4541,5.0,0.0,0.4347,2.0,2.0,Castellano,0.0,Inglés,6.0,3.0,2.0,no,no,no,nada,,,,nada,53.0,yes
91,2024-02-03_16h50.34.026,Unsyncopated_study2,s100,23.0,feminino,right,España,Castellano,Master degree,no,no,B,1,what,L3,unsyncopated,s2,r2,91,Online_whatL3//a.chu.mo19.none.none.wav,ga,gu,ji,sil,ñe,ko,je,sil2,sa,li,sil1,['-'],,,none,none,,,,chu,1,testConjL1Syn//r2.s2.2.wav,4.0,conjunction_syn,syncopated,b,s2,rule,rule,L1,m,0.9015,6.0,0.0,0.4412,2.0,2.0,Castellano,0.0,Inglés,6.0,3.0,2.0,no,no,no,nada,,,,nada,53.0,yes
92,2024-02-03_16h50.34.026,Unsyncopated_study2,s100,23.0,feminino,right,España,Castellano,Master degree,no,no,B,1,what,L3,unsyncopated,s1,r2,92,Online_whatL3//b.ñe.sa15.0.888.wav,ñe,li,ka,sil,sa,le,fu,sil2,je,do,sil1,['catch'],[1.3021999999284617],[1.3021999999284617],0.888,beat,0.4141999999284617,0.4141999999284617,"[""space""]",sa,2,testConjL1Syn//time_viol.r1.s2.0.wav,4.0,conjunction_syn,syncopated,a,s2,no_rule,time,L1,m,0.9392,6.0,1.0,0.3817,2.0,2.0,Castellano,0.0,Inglés,6.0,3.0,2.0,no,no,no,nada,,,,nada,53.0,yes
93,2024-02-03_16h50.34.026,Unsyncopated_study2,s100,23.0,feminino,right,España,Castellano,Master degree,no,no,B,1,what,L3,unsyncopated,s2,r2,93,Online_whatL3//b.ñe.sa13.888.1776.wav,di,ga,ji,sil,ñe,li,ko,sil1,sa,le,sil2,['catch'],[2.2721000000237837],[2.2721000000237837],1.776,beat,0.4961000000237836,0.4961000000237836,"[""space""]",sa,2,testConjL1Syn//r2.s2.0.wav,4.0,conjunction_syn,syncopated,b,s2,rule,rule,L1,m,0.0569,7.0,0.0,0.918,2.0,2.0,Castellano,0.0,Inglés,6.0,3.0,2.0,no,no,no,nada,,,,nada,53.0,yes
94,2024-02-03_16h50.34.026,Unsyncopated_study2,s100,23.0,feminino,right,España,Castellano,Master degree,no,no,B,1,what,L3,unsyncopated,s1,r1,94,Online_whatL3//b.ñe.sa12.none.none.wav,chu,ji,di,sil2,mo,ka,li,sil,do,ko,sil1,['-'],,,none,none,,,,sa,2,testConjL1Syn//time_viol.r2.s2.0.wav,4.0,conjunction_syn,syncopated,b,s2,no_rule,time,L1,m,0.453,6.0,1.0,0.3829,2.0,2.0,Castellano,0.0,Inglés,6.0,3.0,2.0,no,no,no,nada,,,,nada,53.0,yes
95,2024-02-03_16h50.34.026,Unsyncopated_study2,s100,23.0,feminino,right,España,Castellano,Master degree,no,no,B,1,what,L3,unsyncopated,s1,r2,95,Online_whatL3//b.ñe.sa14.0.888.wav,ñe,le,je,sil,sa,li,fu,sil2,ko,ji,sil1,['catch'],[1.3437999999523527],[1.3437999999523527],0.888,beat,0.4557999999523526,0.4557999999523526,"[""space""]",sa,2,testConjL1Syn//r1.s1.2.wav,4.0,conjunction_syn,syncopated,a,s1,rule,rule,L1,m,0.4912,5.0,0.0,0.5089,2.0,2.0,Castellano,0.0,Inglés,6.0,3.0,2.0,no,no,no,nada,,,,nada,53.0,yes
96,2024-02-03_16h50.34.026,Unsyncopated_study2,s100,23.0,feminino,right,España,Castellano,Master degree,no,no,B,1,what,L3,unsyncopated,s2,r1,96,Online_whatL3//c.gu.je5.none.none.wav,do,di,ji,sil,chu,li,ka,sil1,mo,le,sil2,['-'],,,none,none,,,,je,3,,,,,,,,,,,,,,,2.0,2.0,Castellano,0.0,Inglés,6.0,3.0,2.0,no,no,no,nada,,,,nada,53.0,yes
97,2024-02-03_16h50.34.026,Unsyncopated_study2,s100,23.0,feminino,right,España,Castellano,Master degree,no,no,B,1,what,L3,unsyncopated,s1,r1,97,Online_whatL3//c.gu.je6.222.444.wav,chu,gu,je,sil2,mo,fu,ko,sil,ji,ka,sil1,['catch'],[1.0526000000238582],[1.0526000000238582],0.444,no_beat,0.6086000000238583,0.6086000000238583,"[""space""]",je,3,,,,,,,,,,,,,,,2.0,2.0,Castellano,0.0,Inglés,6.0,3.0,2.0,no,no,no,nada,,,,nada,53.0,yes
98,2024-02-03_16h50.34.026,Unsyncopated_study2,s100,23.0,feminino,right,España,Castellano,Master degree,no,no,B,1,what,L3,unsyncopated,s2,r2,98,Online_whatL3//c.gu.je7.none.none.wav,ga,li,do,sil,ñe,ka,ko,sil1,sa,le,sil2,['-'],,,none,none,,,,je,3,,,,,,,,,,,,,,,2.0,2.0,Castellano,0.0,Inglés,6.0,3.0,2.0,no,no,no,nada,,,,nada,53.0,yes
99,2024-02-03_16h50.34.026,Unsyncopated_study2,s100,23.0,feminino,right,España,Castellano,Master degree,no,no,B,1,what,L3,unsyncopated,s2,r2,99,Online_whatL3//c.gu.je4.1110.222.wav,do,je,di,sil,ñe,gu,ji,sil1,sa,le,sil2,['catch'],[0.7050000000000409],[0.7050000000000409],0.222,no_beat,0.4830000000000409,0.4830000000000409,"[""space""]",je,3,,,,,,,,,,,,,,,2.0,2.0,Castellano,0.0,Inglés,6.0,3.0,2.0,no,no,no,nada,,,,nada,53.0,yes
100,2024-02-03_16h50.34.026,Unsyncopated_study2,s100,23.0,feminino,right,España,Castellano,Master degree,no,no,B,1,what,L3,unsyncopated,s1,r1,100,Online_whatL3//d.ji.li14.222.1110.wav,chu,ji,ko,sil,mo,li,ga,sil2,do,di,sil1,['catch'],[1.59699999999998],[1.59699999999998],1.11,no_beat,0.4869999999999799,0.4869999999999799,"[""space""]",li,4,,,,,,,,,,,,,,,2.0,2.0,Castellano,0.0,Inglés,6.0,3.0,2.0,no,no,no,nada,,,,nada,53.0,yes
101,2024-02-03_16h50.34.026,Unsyncopated_study2,s100,23.0,feminino,right,España,Castellano,Master degree,no,no,B,1,what,L3,unsyncopated,s2,r1,101,Online_whatL3//d.ji.li15.222.444.wav,fu,ji,li,sil2,chu,je,ga,sil,mo,di,sil1,['catch'],[1.12860000002388],[1.12860000002388],0.444,no_beat,0.6846000000238801,0.6846000000238801,"[""space""]",li,4,,,,,,,,,,,,,,,2.0,2.0,Castellano,0.0,Inglés,6.0,3.0,2.0,no,no,no,nada,,,,nada,53.0,yes
102,2024-02-03_16h50.34.026,Unsyncopated_study2,s100,23.0,feminino,right,España,Castellano,Master degree,no,no,B,1,what,L3,unsyncopated,s2,r1,102,Online_whatL3//d.ji.li13.none.none.wav,ga,do,le,sil,chu,ko,ka,sil1,mo,di,sil2,['-'],,,none,none,,,,li,4,,,,,,,,,,,,,,,2.0,2.0,Castellano,0.0,Inglés,6.0,3.0,2.0,no,no,no,nada,,,,nada,53.0,yes
103,2024-02-03_16h50.34.026,Unsyncopated_study2,s100,23.0,feminino,right,España,Castellano,Master degree,no,no,B,1,what,L3,unsyncopated,s1,r1,103,Online_whatL3//d.ji.li12.none.none.wav,chu,je,fu,sil,mo,ga,le,sil2,di,gu,sil1,['-'],,,none,none,,,,li,4,,,,,,,,,,,,,,,2.0,2.0,Castellano,0.0,Inglés,6.0,3.0,2.0,no,no,no,nada,,,,nada,53.0,yes
104,2024-02-03_16h50.34.026,Unsyncopated_study2,s100,23.0,feminino,right,España,Castellano,Master degree,no,no,B,1,what,L3,unsyncopated,s2,r1,104,Online_whatL3//a.chu.mo6.888.1776.wav,do,ko,ka,sil,chu,fu,gu,sil1,mo,ga,sil2,['catch'],[1.5228999999761754],[1.5228999999761754],0.888,beat,0.6348999999761754,0.6348999999761754,"[""space""]",chu,1,,,,,,,,,,,,,,,2.0,2.0,Castellano,0.0,Inglés,6.0,3.0,2.0,no,no,no,nada,,,,nada,53.0,yes
105,2024-02-03_16h50.34.026,Unsyncopated_study2,s100,23.0,feminino,right,España,Castellano,Master degree,no,no,B,1,what,L3,unsyncopated,s1,r1,105,Online_whatL3//a.chu.mo7.0.888.wav,chu,ka,do,sil,mo,le,je,sil1,li,fu,sil2,['miss'],,,0.0,beat,,,,chu,1,,,,,,,,,,,,,,,2.0,2.0,Castellano,0.0,Inglés,6.0,3.0,2.0,no,no,no,nada,,,,nada,53.0,yes
106,2024-02-03_16h50.34.026,Unsyncopated_study2,s100,23.0,feminino,right,España,Castellano,Master degree,no,no,B,1,what,L3,unsyncopated,s1,r2,106,Online_whatL3//a.chu.mo4.none.none.wav,ñe,le,gu,sil2,sa,ji,je,sil,ga,li,sil1,['-'],,,none,none,,,,chu,1,,,,,,,,,,,,,,,2.0,2.0,Castellano,0.0,Inglés,6.0,3.0,2.0,no,no,no,nada,,,,nada,53.0,yes
107,2024-02-03_16h50.34.026,Unsyncopated_study2,s100,23.0,feminino,right,España,Castellano,Master degree,no,no,B,1,what,L3,unsyncopated,s2,r2,107,Online_whatL3//a.chu.mo5.none.none.wav,ga,ka,li,sil2,ñe,gu,le,sil,sa,di,sil1,['-'],,,none,none,,,,chu,1,,,,,,,,,,,,,,,2.0,2.0,Castellano,0.0,Inglés,6.0,3.0,2.0,no,no,no,nada,,,,nada,53.0,yes
108,2024-02-03_16h50.34.026,Unsyncopated_study2,s100,23.0,feminino,right,España,Castellano,Master degree,no,no,B,1,what,L3,unsyncopated,s2,r2,108,Online_whatL3//b.ñe.sa30.888.1998.wav,li,do,ko,sil,ñe,ka,ji,sil2,sa,fu,sil1,['catch'],[2.58069999992847],[2.58069999992847],1.998,no_beat,0.5826999999284699,0.5826999999284699,"[""space""]",sa,2,,,,,,,,,,,,,,,2.0,2.0,Castellano,0.0,Inglés,6.0,3.0,2.0,no,no,no,nada,,,,nada,53.0,yes
109,2024-02-03_16h50.34.026,Unsyncopated_study2,s100,23.0,feminino,right,España,Castellano,Master degree,no,no,B,1,what,L3,unsyncopated,s1,r1,109,Online_whatL3//b.ñe.sa29.none.none.wav,chu,le,ga,sil,mo,fu,di,sil2,ji,ko,sil1,['-'],,,none,none,,,,sa,2,,,,,,,,,,,,,,,2.0,2.0,Castellano,0.0,Inglés,6.0,3.0,2.0,no,no,no,nada,,,,nada,53.0,yes
110,2024-02-03_16h50.34.026,Unsyncopated_study2,s100,23.0,feminino,right,España,Castellano,Master degree,no,no,B,1,what,L3,unsyncopated,s1,r1,110,Online_whatL3//b.ñe.sa31.none.none.wav,chu,ji,fu,sil,mo,li,le,sil1,ka,ko,sil2,['-'],,,none,none,,,,sa,2,,,,,,,,,,,,,,,2.0,2.0,Castellano,0.0,Inglés,6.0,3.0,2.0,no,no,no,nada,,,,nada,53.0,yes
111,2024-02-03_16h50.34.026,Unsyncopated_study2,s100,23.0,feminino,right,España,Castellano,Master degree,no,no,B,1,what,L3,unsyncopated,s2,r1,111,Online_whatL3//b.ñe.sa28.none.none.wav,do,gu,le,sil2,chu,ka,ga,sil,mo,je,sil1,['-'],,,none,none,,,,sa,2,,,,,,,,,,,,,,,2.0,2.0,Castellano,0.0,Inglés,6.0,3.0,2.0,no,no,no,nada,,,,nada,53.0,yes
112,2024-02-03_16h50.34.026,Unsyncopated_study2,s100,23.0,feminino,right,España,Castellano,Master degree,no,no,B,1,what,L3,unsyncopated,s2,r1,112,Online_whatL3//c.gu.je12.none.none.wav,ga,di,li,sil,chu,do,fu,sil2,mo,le,sil1,['-'],,,none,none,,,,je,3,,,,,,,,,,,,,,,2.0,2.0,Castellano,0.0,Inglés,6.0,3.0,2.0,no,no,no,nada,,,,nada,53.0,yes
113,2024-02-03_16h50.34.026,Unsyncopated_study2,s100,23.0,feminino,right,España,Castellano,Master degree,no,no,B,1,what,L3,unsyncopated,s2,r1,113,Online_whatL3//c.gu.je14.none.none.wav,do,ga,fu,sil2,chu,li,ji,sil,mo,ka,sil1,['-'],,,none,none,,,,je,3,,,,,,,,,,,,,,,2.0,2.0,Castellano,0.0,Inglés,6.0,3.0,2.0,no,no,no,nada,,,,nada,53.0,yes
114,2024-02-03_16h50.34.026,Unsyncopated_study2,s100,23.0,feminino,right,España,Castellano,Master degree,no,no,B,1,what,L3,unsyncopated,s2,r1,114,Online_whatL3//c.gu.je15.1332.0.wav,je,ji,ko,sil,chu,ka,gu,sil2,mo,ga,sil1,['catch'],[0.8547999999523199],[0.8547999999523199],0.0,beat,0.8547999999523199,0.8547999999523199,"[""space""]",je,3,,,,,,,,,,,,,,,2.0,2.0,Castellano,0.0,Inglés,6.0,3.0,2.0,no,no,no,nada,,,,nada,53.0,yes
115,2024-02-03_16h50.34.026,Unsyncopated_study2,s100,23.0,feminino,right,España,Castellano,Master degree,no,no,B,1,what,L3,unsyncopated,s1,r2,115,Online_whatL3//c.gu.je13.1332.222.wav,ñe,je,fu,sil,sa,ko,gu,sil1,di,li,sil2,['catch'],[0.803900000095382],[0.803900000095382],0.222,no_beat,0.581900000095382,0.581900000095382,"[""space""]",je,3,,,,,,,,,,,,,,,2.0,2.0,Castellano,0.0,Inglés,6.0,3.0,2.0,no,no,no,nada,,,,nada,53.0,yes
116,2024-02-03_16h50.34.026,Unsyncopated_study2,s100,23.0,feminino,right,España,Castellano,Master degree,no,no,B,1,what,L3,unsyncopated,s2,r1,116,Online_whatL3//d.ji.li5.none.none.wav,le,ka,di,sil,chu,fu,ko,sil2,mo,gu,sil1,['-'],,,none,none,,,,li,4,,,,,,,,,,,,,,,2.0,2.0,Castellano,0.0,Inglés,6.0,3.0,2.0,no,no,no,nada,,,,nada,53.0,yes
117,2024-02-03_16h50.34.026,Unsyncopated_study2,s100,23.0,feminino,right,España,Castellano,Master degree,no,no,B,1,what,L3,unsyncopated,s1,r1,117,Online_whatL3//d.ji.li4.none.none.wav,chu,je,ko,sil,mo,ga,le,sil2,do,di,sil1,['-'],,,none,none,,,,li,4,,,,,,,,,,,,,,,2.0,2.0,Castellano,0.0,Inglés,6.0,3.0,2.0,no,no,no,nada,,,,nada,53.0,yes
118,2024-02-03_16h50.34.026,Unsyncopated_study2,s100,23.0,feminino,right,España,Castellano,Master degree,no,no,B,1,what,L3,unsyncopated,s2,r2,118,Online_whatL3//d.ji.li6.222.1110.wav,ko,ji,ka,sil,ñe,li,di,sil2,sa,ga,sil1,['catch'],[1.745199999928559],[1.745199999928559],1.11,no_beat,0.6351999999285589,0.6351999999285589,"[""space""]",li,4,,,,,,,,,,,,,,,2.0,2.0,Castellano,0.0,Inglés,6.0,3.0,2.0,no,no,no,nada,,,,nada,53.0,yes
119,2024-02-03_16h50.34.026,Unsyncopated_study2,s100,23.0,feminino,right,España,Castellano,Master degree,no,no,B,1,what,L3,unsyncopated,s1,r2,119,Online_whatL3//d.ji.li7.1332.1554.wav,ñe,ga,ka,sil2,sa,ji,li,sil,gu,do,sil1,['catch'],[2.13799999999992],[2.13799999999992],1.554,no_beat,0.5839999999999199,0.5839999999999199,"[""space""]",li,4,,,,,,,,,,,,,,,2.0,2.0,Castellano,0.0,Inglés,6.0,3.0,2.0,no,no,no,nada,,,,nada,53.0,yes
120,2024-02-03_16h50.34.026,Unsyncopated_study2,s100,23.0,feminino,right,España,Castellano,Master degree,no,no,B,1,what,L3,unsyncopated,s1,r1,120,Online_whatL3//b.ñe.sa6.none.none.wav,chu,ji,gu,sil,mo,li,fu,sil2,ka,do,sil1,['false alarm'],[1.7792000000476946],[1.7792000000476946],none,none,,,"[""space""]",sa,2,,,,,,,,,,,,,,,2.0,2.0,Castellano,0.0,Inglés,6.0,3.0,2.0,no,no,no,nada,,,,nada,53.0,yes
121,2024-02-03_16h50.34.026,Unsyncopated_study2,s100,23.0,feminino,right,España,Castellano,Master degree,no,no,B,1,what,L3,unsyncopated,s2,r2,121,Online_whatL3//b.ñe.sa5.888.1998.wav,di,je,do,sil,ñe,gu,li,sil2,sa,le,sil1,['catch'],[2.625100000023849],[2.625100000023849],1.998,no_beat,0.6271000000238491,0.6271000000238491,"[""space""]",sa,2,,,,,,,,,,,,,,,2.0,2.0,Castellano,0.0,Inglés,6.0,3.0,2.0,no,no,no,nada,,,,nada,53.0,yes
122,2024-02-03_16h50.34.026,Unsyncopated_study2,s100,23.0,feminino,right,España,Castellano,Master degree,no,no,B,1,what,L3,unsyncopated,s2,r1,122,Online_whatL3//b.ñe.sa7.none.none.wav,gu,di,le,sil,chu,ga,ka,sil1,mo,ko,sil2,['-'],,,none,none,,,,sa,2,,,,,,,,,,,,,,,2.0,2.0,Castellano,0.0,Inglés,6.0,3.0,2.0,no,no,no,nada,,,,nada,53.0,yes
123,2024-02-03_16h50.34.026,Unsyncopated_study2,s100,23.0,feminino,right,España,Castellano,Master degree,no,no,B,1,what,L3,unsyncopated,s1,r1,123,Online_whatL3//b.ñe.sa4.none.none.wav,chu,ka,le,sil,mo,je,ga,sil1,do,ji,sil2,['-'],,,none,none,,,,sa,2,,,,,,,,,,,,,,,2.0,2.0,Castellano,0.0,Inglés,6.0,3.0,2.0,no,no,no,nada,,,,nada,53.0,yes
124,2024-02-03_16h50.34.026,Unsyncopated_study2,s100,23.0,feminino,right,España,Castellano,Master degree,no,no,B,1,what,L3,unsyncopated,s1,r2,124,Online_whatL3//d.ji.li25.none.none.wav,ñe,gu,ko,sil2,sa,ka,le,sil,do,ga,sil1,['-'],,,none,none,,,,li,4,,,,,,,,,,,,,,,2.0,2.0,Castellano,0.0,Inglés,6.0,3.0,2.0,no,no,no,nada,,,,nada,53.0,yes
125,2024-02-03_16h50.34.026,Unsyncopated_study2,s100,23.0,feminino,right,España,Castellano,Master degree,no,no,B,1,what,L3,unsyncopated,s2,r1,125,Online_whatL3//d.ji.li27.222.1110.wav,gu,ji,do,sil,chu,li,ga,sil1,mo,fu,sil2,['catch'],[1.88900000000001],[1.88900000000001],1.11,no_beat,0.7790000000000099,0.7790000000000099,"[""space""]",li,4,,,,,,,,,,,,,,,2.0,2.0,Castellano,0.0,Inglés,6.0,3.0,2.0,no,no,no,nada,,,,nada,53.0,yes
126,2024-02-03_16h50.34.026,Unsyncopated_study2,s100,23.0,feminino,right,España,Castellano,Master degree,no,no,B,1,what,L3,unsyncopated,s1,r1,126,Online_whatL3//d.ji.li24.1332.1554.wav,chu,di,ko,sil2,mo,ji,li,sil,do,gu,sil1,"['false alarm', 'catch']","[0.9653000000715792, 2.254900000095404]",[2.254900000095404],1.554,no_beat,0.7009000000954038,0.7009000000954038,"[""space"",""space""]",li,4,,,,,,,,,,,,,,,2.0,2.0,Castellano,0.0,Inglés,6.0,3.0,2.0,no,no,no,nada,,,,nada,53.0,yes
127,2024-02-03_16h50.34.026,Unsyncopated_study2,s100,23.0,feminino,right,España,Castellano,Master degree,no,no,B,1,what,L3,unsyncopated,s1,r1,127,Online_whatL3//d.ji.li26.none.none.wav,chu,gu,je,sil,mo,di,do,sil1,ka,ga,sil2,['false alarm'],[1.3192999999523636],[1.3192999999523636],none,none,,,"[""space""]",li,4,,,,,,,,,,,,,,,2.0,2.0,Castellano,0.0,Inglés,6.0,3.0,2.0,no,no,no,nada,,,,nada,53.0,yes
128,2024-02-03_16h50.34.026,Unsyncopated_study2,s100,23.0,feminino,right,España,Castellano,Master degree,no,no,B,2,when,L4,unsyncopated,when,when,0,Online_whenL4//a.lo5.1998.wav,ci,bu,zi,sil,ru,bo,pe,sil1,de,lo,sil2,['catch'],[2.4996000000237473],[2.4996000000237473],1.998,no_beat,0.5016000000237473,0.5016000000237473,"[""space""]",lo,1,,,,,,,,,,,,,,,2.0,2.0,Castellano,0.0,Inglés,6.0,3.0,2.0,no,no,no,nada,,,,nada,53.0,yes
129,2024-02-03_16h50.34.026,Unsyncopated_study2,s100,23.0,feminino,right,España,Castellano,Master degree,no,no,B,2,when,L4,unsyncopated,when,when,1,Online_whenL4//a.lo7.1776.wav,de,po,da,sil,ru,zi,ñi,sil1,lo,pe,sil2,['catch'],[2.2588999999761654],[2.2588999999761654],1.776,beat,0.4828999999761654,0.4828999999761654,"[""space""]",lo,1,,,,,,,,,,,,,,,2.0,2.0,Castellano,0.0,Inglés,6.0,3.0,2.0,no,no,no,nada,,,,nada,53.0,yes
130,2024-02-03_16h50.34.026,Unsyncopated_study2,s100,23.0,feminino,right,España,Castellano,Master degree,no,no,B,2,when,L4,unsyncopated,when,when,2,Online_whenL4//a.lo4.none.wav,bo,ñi,pe,sil,ja,re,ru,sil1,nu,da,sil2,['-'],,,none,none,,,,lo,1,,,,,,,,,,,,,,,2.0,2.0,Castellano,0.0,Inglés,6.0,3.0,2.0,no,no,no,nada,,,,nada,53.0,yes
131,2024-02-03_16h50.34.026,Unsyncopated_study2,s100,23.0,feminino,right,España,Castellano,Master degree,no,no,B,2,when,L4,unsyncopated,when,when,3,Online_whenL4//a.lo6.none.wav,ñi,ja,ña,sil,de,re,po,sil1,nu,bo,sil2,['-'],,,none,none,,,,lo,1,,,,,,,,,,,,,,,2.0,2.0,Castellano,0.0,Inglés,6.0,3.0,2.0,no,no,no,nada,,,,nada,53.0,yes
132,2024-02-03_16h50.34.026,Unsyncopated_study2,s100,23.0,feminino,right,España,Castellano,Master degree,no,no,B,2,when,L4,unsyncopated,when,when,4,Online_whenL4//c.bu18.none.wav,da,re,zi,sil,pe,po,lo,sil1,ci,ña,sil2,['-'],,,none,none,,,,bu,3,,,,,,,,,,,,,,,2.0,2.0,Castellano,0.0,Inglés,6.0,3.0,2.0,no,no,no,nada,,,,nada,53.0,yes
133,2024-02-03_16h50.34.026,Unsyncopated_study2,s100,23.0,feminino,right,España,Castellano,Master degree,no,no,B,2,when,L4,unsyncopated,when,when,5,Online_whenL4//c.bu17.none.wav,bo,zi,de,sil,ña,nu,ci,sil1,ru,po,sil2,['false alarm'],[2.555499999999938],[2.555499999999938],none,none,,,"[""space""]",bu,3,,,,,,,,,,,,,,,2.0,2.0,Castellano,0.0,Inglés,6.0,3.0,2.0,no,no,no,nada,,,,nada,53.0,yes
134,2024-02-03_16h50.34.026,Unsyncopated_study2,s100,23.0,feminino,right,España,Castellano,Master degree,no,no,B,2,when,L4,unsyncopated,when,when,6,Online_whenL4//c.bu19.0.wav,bu,de,nu,sil,ja,ru,bo,sil1,ñi,pe,sil2,"['catch', 'false alarm']","[0.9217000000478492, 2.06450000000018]",[0.9217000000478492],0.0,beat,0.9217000000478492,0.9217000000478492,"[""space"",""space""]",bu,3,,,,,,,,,,,,,,,2.0,2.0,Castellano,0.0,Inglés,6.0,3.0,2.0,no,no,no,nada,,,,nada,53.0,yes
135,2024-02-03_16h50.34.026,Unsyncopated_study2,s100,23.0,feminino,right,España,Castellano,Master degree,no,no,B,2,when,L4,unsyncopated,when,when,7,Online_whenL4//c.bu16.0.wav,bu,ñi,pe,sil,ru,zi,bo,sil1,de,lo,sil2,['catch'],[0.56120000004762],[0.56120000004762],0.0,beat,0.56120000004762,0.56120000004762,"[""space""]",bu,3,,,,,,,,,,,,,,,2.0,2.0,Castellano,0.0,Inglés,6.0,3.0,2.0,no,no,no,nada,,,,nada,53.0,yes
136,2024-02-03_16h50.34.026,Unsyncopated_study2,s100,23.0,feminino,right,España,Castellano,Master degree,no,no,B,2,when,L4,unsyncopated,when,when,8,Online_whenL4//a.lo16.none.wav,po,bu,re,sil,ja,pe,zi,sil1,da,ña,sil2,['-'],,,none,none,,,,lo,1,,,,,,,,,,,,,,,2.0,2.0,Castellano,0.0,Inglés,6.0,3.0,2.0,no,no,no,nada,,,,nada,53.0,yes
137,2024-02-03_16h50.34.026,Unsyncopated_study2,s100,23.0,feminino,right,España,Castellano,Master degree,no,no,B,2,when,L4,unsyncopated,when,when,9,Online_whenL4//a.lo17.888.wav,ci,de,re,sil,lo,ru,da,sil1,ñi,zi,sil2,['catch'],[1.5286000000237436],[1.5286000000237436],0.888,beat,0.6406000000237436,0.6406000000237436,"[""space""]",lo,1,,,,,,,,,,,,,,,2.0,2.0,Castellano,0.0,Inglés,6.0,3.0,2.0,no,no,no,nada,,,,nada,53.0,yes
138,2024-02-03_16h50.34.026,Unsyncopated_study2,s100,23.0,feminino,right,España,Castellano,Master degree,no,no,B,2,when,L4,unsyncopated,when,when,10,Online_whenL4//a.lo19.0.wav,lo,ru,po,sil,pe,bu,re,sil1,nu,bo,sil2,['catch'],[0.5251000000239401],[0.5251000000239401],0.0,beat,0.5251000000239401,0.5251000000239401,"[""space""]",lo,1,,,,,,,,,,,,,,,2.0,2.0,Castellano,0.0,Inglés,6.0,3.0,2.0,no,no,no,nada,,,,nada,53.0,yes
139,2024-02-03_16h50.34.026,Unsyncopated_study2,s100,23.0,feminino,right,España,Castellano,Master degree,no,no,B,2,when,L4,unsyncopated,when,when,11,Online_whenL4//a.lo18.none.wav,re,ñi,de,sil,nu,bo,ña,sil1,ru,zi,sil2,['-'],,,none,none,,,,lo,1,,,,,,,,,,,,,,,2.0,2.0,Castellano,0.0,Inglés,6.0,3.0,2.0,no,no,no,nada,,,,nada,53.0,yes
140,2024-02-03_16h50.34.026,Unsyncopated_study2,s100,23.0,feminino,right,España,Castellano,Master degree,no,no,B,2,when,L4,unsyncopated,when,when,12,Online_whenL4//a.lo15.1776.wav,de,pe,da,sil,ñi,po,re,sil1,lo,ja,sil2,['catch'],[2.40949999999998],[2.40949999999998],1.776,beat,0.63349999999998,0.63349999999998,"[""space""]",lo,1,,,,,,,,,,,,,,,2.0,2.0,Castellano,0.0,Inglés,6.0,3.0,2.0,no,no,no,nada,,,,nada,53.0,yes
141,2024-02-03_16h50.34.026,Unsyncopated_study2,s100,23.0,feminino,right,España,Castellano,Master degree,no,no,B,2,when,L4,unsyncopated,when,when,13,Online_whenL4//a.lo12.none.wav,nu,bu,zi,sil,ñi,bo,ci,sil1,ru,ña,sil2,['-'],,,none,none,,,,lo,1,,,,,,,,,,,,,,,2.0,2.0,Castellano,0.0,Inglés,6.0,3.0,2.0,no,no,no,nada,,,,nada,53.0,yes
142,2024-02-03_16h50.34.026,Unsyncopated_study2,s100,23.0,feminino,right,España,Castellano,Master degree,no,no,B,2,when,L4,unsyncopated,when,when,14,Online_whenL4//a.lo14.none.wav,bu,ru,nu,sil,zi,bo,pe,sil1,da,ñi,sil2,['-'],,,none,none,,,,lo,1,,,,,,,,,,,,,,,2.0,2.0,Castellano,0.0,Inglés,6.0,3.0,2.0,no,no,no,nada,,,,nada,53.0,yes
143,2024-02-03_16h50.34.026,Unsyncopated_study2,s100,23.0,feminino,right,España,Castellano,Master degree,no,no,B,2,when,L4,unsyncopated,when,when,15,Online_whenL4//a.lo13.1776.wav,re,ña,ru,sil,ci,ja,ñi,sil1,lo,pe,sil2,['catch'],[2.338799999952471],[2.338799999952471],1.776,beat,0.5627999999524709,0.5627999999524709,"[""space""]",lo,1,,,,,,,,,,,,,,,2.0,2.0,Castellano,0.0,Inglés,6.0,3.0,2.0,no,no,no,nada,,,,nada,53.0,yes
144,2024-02-03_16h50.34.026,Unsyncopated_study2,s100,23.0,feminino,right,España,Castellano,Master degree,no,no,B,2,when,L4,unsyncopated,when,when,16,Online_whenL4//d.pe17.444.wav,ci,ru,pe,sil,ña,bu,zi,sil1,ñi,nu,sil2,['catch'],[1.2823000000714728],[1.2823000000714728],0.444,no_beat,0.8383000000714729,0.8383000000714729,"[""space""]",pe,4,,,,,,,,,,,,,,,2.0,2.0,Castellano,0.0,Inglés,6.0,3.0,2.0,no,no,no,nada,,,,nada,53.0,yes
145,2024-02-03_16h50.34.026,Unsyncopated_study2,s100,23.0,feminino,right,España,Castellano,Master degree,no,no,B,2,when,L4,unsyncopated,when,when,17,Online_whenL4//d.pe16.888.wav,lo,bu,zi,sil,pe,ñi,da,sil1,ci,ña,sil2,['catch'],[1.5083999999760636],[1.5083999999760636],0.888,beat,0.6203999999760635,0.6203999999760635,"[""space""]",pe,4,,,,,,,,,,,,,,,2.0,2.0,Castellano,0.0,Inglés,6.0,3.0,2.0,no,no,no,nada,,,,nada,53.0,yes
146,2024-02-03_16h50.34.026,Unsyncopated_study2,s100,23.0,feminino,right,España,Castellano,Master degree,no,no,B,2,when,L4,unsyncopated,when,when,18,Online_whenL4//d.pe19.none.wav,nu,ci,ñi,sil,de,po,ru,sil1,ña,zi,sil2,['-'],,,none,none,,,,pe,4,,,,,,,,,,,,,,,2.0,2.0,Castellano,0.0,Inglés,6.0,3.0,2.0,no,no,no,nada,,,,nada,53.0,yes
147,2024-02-03_16h50.34.026,Unsyncopated_study2,s100,23.0,feminino,right,España,Castellano,Master degree,no,no,B,2,when,L4,unsyncopated,when,when,19,Online_whenL4//d.pe18.none.wav,zi,re,po,sil,bo,ja,ci,sil1,ru,da,sil2,['-'],,,none,none,,,,pe,4,,,,,,,,,,,,,,,2.0,2.0,Castellano,0.0,Inglés,6.0,3.0,2.0,no,no,no,nada,,,,nada,53.0,yes
148,2024-02-03_16h50.34.026,Unsyncopated_study2,s100,23.0,feminino,right,España,Castellano,Master degree,no,no,B,2,when,L4,unsyncopated,when,when,20,Online_whenL4//c.bu0.888.wav,ci,ñi,ja,sil,bu,da,ru,sil1,po,nu,sil2,['catch'],[1.5015000000000782],[1.5015000000000782],0.888,beat,0.6135000000000782,0.6135000000000782,"[""space""]",bu,3,,,,,,,,,,,,,,,2.0,2.0,Castellano,0.0,Inglés,6.0,3.0,2.0,no,no,no,nada,,,,nada,53.0,yes
149,2024-02-03_16h50.34.026,Unsyncopated_study2,s100,23.0,feminino,right,España,Castellano,Master degree,no,no,B,2,when,L4,unsyncopated,when,when,21,Online_whenL4//c.bu3.none.wav,ja,de,pe,sil,ña,ñi,bo,sil1,nu,po,sil2,['-'],,,none,none,,,,bu,3,,,,,,,,,,,,,,,2.0,2.0,Castellano,0.0,Inglés,6.0,3.0,2.0,no,no,no,nada,,,,nada,53.0,yes
150,2024-02-03_16h50.34.026,Unsyncopated_study2,s100,23.0,feminino,right,España,Castellano,Master degree,no,no,B,2,when,L4,unsyncopated,when,when,22,Online_whenL4//c.bu2.1110.wav,lo,bo,ci,sil,da,bu,ñi,sil1,ja,de,sil2,['catch'],[1.690300000071602],[1.690300000071602],1.11,no_beat,0.5803000000716019,0.5803000000716019,"[""space""]",bu,3,,,,,,,,,,,,,,,2.0,2.0,Castellano,0.0,Inglés,6.0,3.0,2.0,no,no,no,nada,,,,nada,53.0,yes
151,2024-02-03_16h50.34.026,Unsyncopated_study2,s100,23.0,feminino,right,España,Castellano,Master degree,no,no,B,2,when,L4,unsyncopated,when,when,23,Online_whenL4//c.bu1.none.wav,lo,pe,po,sil,ci,ja,de,sil1,bo,ru,sil2,['-'],,,none,none,,,,bu,3,,,,,,,,,,,,,,,2.0,2.0,Castellano,0.0,Inglés,6.0,3.0,2.0,no,no,no,nada,,,,nada,53.0,yes
152,2024-02-03_16h50.34.026,Unsyncopated_study2,s100,23.0,feminino,right,España,Castellano,Master degree,no,no,B,2,when,L4,unsyncopated,when,when,24,Online_whenL4//d.pe23.444.wav,po,ja,pe,sil,de,ru,re,sil1,lo,bo,sil2,['catch'],[1.1779000000954056],[1.1779000000954056],0.444,no_beat,0.7339000000954057,0.7339000000954057,"[""space""]",pe,4,,,,,,,,,,,,,,,2.0,2.0,Castellano,0.0,Inglés,6.0,3.0,2.0,no,no,no,nada,,,,nada,53.0,yes
153,2024-02-03_16h50.34.026,Unsyncopated_study2,s100,23.0,feminino,right,España,Castellano,Master degree,no,no,B,2,when,L4,unsyncopated,when,when,25,Online_whenL4//d.pe21.none.wav,ci,lo,bu,sil,ña,po,ja,sil1,bo,ru,sil2,['-'],,,none,none,,,,pe,4,,,,,,,,,,,,,,,2.0,2.0,Castellano,0.0,Inglés,6.0,3.0,2.0,no,no,no,nada,,,,nada,53.0,yes
154,2024-02-03_16h50.34.026,Unsyncopated_study2,s100,23.0,feminino,right,España,Castellano,Master degree,no,no,B,2,when,L4,unsyncopated,when,when,26,Online_whenL4//d.pe22.0.wav,pe,zi,ña,sil,lo,ci,ñi,sil1,re,da,sil2,['catch'],[0.6220000000000709],[0.6220000000000709],0.0,beat,0.6220000000000709,0.6220000000000709,"[""space""]",pe,4,,,,,,,,,,,,,,,2.0,2.0,Castellano,0.0,Inglés,6.0,3.0,2.0,no,no,no,nada,,,,nada,53.0,yes
155,2024-02-03_16h50.34.026,Unsyncopated_study2,s100,23.0,feminino,right,España,Castellano,Master degree,no,no,B,2,when,L4,unsyncopated,when,when,27,Online_whenL4//d.pe20.none.wav,bu,lo,po,sil,ru,ñi,ja,sil1,ña,de,sil2,['-'],,,none,none,,,,pe,4,,,,,,,,,,,,,,,2.0,2.0,Castellano,0.0,Inglés,6.0,3.0,2.0,no,no,no,nada,,,,nada,53.0,yes
156,2024-02-03_16h50.34.026,Unsyncopated_study2,s100,23.0,feminino,right,España,Castellano,Master degree,no,no,B,2,when,L4,unsyncopated,when,when,28,Online_whenL4//d.pe27.222.wav,ru,pe,nu,sil,zi,ña,ci,sil1,ñi,bu,sil2,['catch'],[0.7316000000239455],[0.7316000000239455],0.222,no_beat,0.5096000000239456,0.5096000000239456,"[""space""]",pe,4,,,,,,,,,,,,,,,2.0,2.0,Castellano,0.0,Inglés,6.0,3.0,2.0,no,no,no,nada,,,,nada,53.0,yes
157,2024-02-03_16h50.34.026,Unsyncopated_study2,s100,23.0,feminino,right,España,Castellano,Master degree,no,no,B,2,when,L4,unsyncopated,when,when,29,Online_whenL4//d.pe24.0.wav,pe,de,re,sil,zi,ña,bo,sil1,ja,ñi,sil2,['miss'],,,0.0,beat,,,,pe,4,,,,,,,,,,,,,,,2.0,2.0,Castellano,0.0,Inglés,6.0,3.0,2.0,no,no,no,nada,,,,nada,53.0,yes
158,2024-02-03_16h50.34.026,Unsyncopated_study2,s100,23.0,feminino,right,España,Castellano,Master degree,no,no,B,2,when,L4,unsyncopated,when,when,30,Online_whenL4//d.pe25.none.wav,re,bu,ja,sil,da,bo,ci,sil1,nu,ru,sil2,['-'],,,none,none,,,,pe,4,,,,,,,,,,,,,,,2.0,2.0,Castellano,0.0,Inglés,6.0,3.0,2.0,no,no,no,nada,,,,nada,53.0,yes
159,2024-02-03_16h50.34.026,Unsyncopated_study2,s100,23.0,feminino,right,España,Castellano,Master degree,no,no,B,2,when,L4,unsyncopated,when,when,31,Online_whenL4//d.pe26.none.wav,lo,re,ña,sil,bo,po,ñi,sil1,zi,da,sil2,['-'],,,none,none,,,,pe,4,,,,,,,,,,,,,,,2.0,2.0,Castellano,0.0,Inglés,6.0,3.0,2.0,no,no,no,nada,,,,nada,53.0,yes
160,2024-02-03_16h50.34.026,Unsyncopated_study2,s100,23.0,feminino,right,España,Castellano,Master degree,no,no,B,2,when,L4,unsyncopated,when,when,32,Online_whenL4//c.bu24.1998.wav,lo,po,ci,sil,nu,re,ñi,sil1,pe,bu,sil2,['miss'],,,1.998,no_beat,,,,bu,3,,,,,,,,,,,,,,,2.0,2.0,Castellano,0.0,Inglés,6.0,3.0,2.0,no,no,no,nada,,,,nada,53.0,yes
161,2024-02-03_16h50.34.026,Unsyncopated_study2,s100,23.0,feminino,right,España,Castellano,Master degree,no,no,B,2,when,L4,unsyncopated,when,when,33,Online_whenL4//c.bu26.none.wav,po,da,ña,sil,zi,ru,lo,sil1,ci,re,sil2,['-'],,,none,none,,,,bu,3,,,,,,,,,,,,,,,2.0,2.0,Castellano,0.0,Inglés,6.0,3.0,2.0,no,no,no,nada,,,,nada,53.0,yes
162,2024-02-03_16h50.34.026,Unsyncopated_study2,s100,23.0,feminino,right,España,Castellano,Master degree,no,no,B,2,when,L4,unsyncopated,when,when,34,Online_whenL4//c.bu27.0.wav,bu,de,zi,sil,ja,da,ru,sil1,bo,po,sil2,['catch'],[0.42160000002377274],[0.42160000002377274],0.0,beat,0.4216000000237727,0.4216000000237727,"[""space""]",bu,3,,,,,,,,,,,,,,,2.0,2.0,Castellano,0.0,Inglés,6.0,3.0,2.0,no,no,no,nada,,,,nada,53.0,yes
163,2024-02-03_16h50.34.026,Unsyncopated_study2,s100,23.0,feminino,right,España,Castellano,Master degree,no,no,B,2,when,L4,unsyncopated,when,when,35,Online_whenL4//c.bu25.222.wav,ña,bu,de,sil,da,po,lo,sil1,ja,pe,sil2,['miss'],,,0.222,no_beat,,,,bu,3,,,,,,,,,,,,,,,2.0,2.0,Castellano,0.0,Inglés,6.0,3.0,2.0,no,no,no,nada,,,,nada,53.0,yes
164,2024-02-03_16h50.34.026,Unsyncopated_study2,s100,23.0,feminino,right,España,Castellano,Master degree,no,no,B,2,when,L4,unsyncopated,when,when,36,Online_whenL4//d.pe14.none.wav,po,ña,bu,sil,de,ru,nu,sil1,ci,zi,sil2,['-'],,,none,none,,,,pe,4,,,,,,,,,,,,,,,2.0,2.0,Castellano,0.0,Inglés,6.0,3.0,2.0,no,no,no,nada,,,,nada,53.0,yes
165,2024-02-03_16h50.34.026,Unsyncopated_study2,s100,23.0,feminino,right,España,Castellano,Master degree,no,no,B,2,when,L4,unsyncopated,when,when,37,Online_whenL4//d.pe13.none.wav,da,ja,nu,sil,ru,ci,ñi,sil1,bu,po,sil2,['-'],,,none,none,,,,pe,4,,,,,,,,,,,,,,,2.0,2.0,Castellano,0.0,Inglés,6.0,3.0,2.0,no,no,no,nada,,,,nada,53.0,yes
166,2024-02-03_16h50.34.026,Unsyncopated_study2,s100,23.0,feminino,right,España,Castellano,Master degree,no,no,B,2,when,L4,unsyncopated,when,when,38,Online_whenL4//d.pe12.none.wav,ru,zi,ñi,sil,bu,de,ña,sil1,lo,re,sil2,['-'],,,none,none,,,,pe,4,,,,,,,,,,,,,,,2.0,2.0,Castellano,0.0,Inglés,6.0,3.0,2.0,no,no,no,nada,,,,nada,53.0,yes
167,2024-02-03_16h50.34.026,Unsyncopated_study2,s100,23.0,feminino,right,España,Castellano,Master degree,no,no,B,2,when,L4,unsyncopated,when,when,39,Online_whenL4//d.pe15.888.wav,po,lo,de,sil,pe,ja,bo,sil1,ña,bu,sil2,['miss'],,,0.888,beat,,,,pe,4,,,,,,,,,,,,,,,2.0,2.0,Castellano,0.0,Inglés,6.0,3.0,2.0,no,no,no,nada,,,,nada,53.0,yes
168,2024-02-03_16h50.34.026,Unsyncopated_study2,s100,23.0,feminino,right,España,Castellano,Master degree,no,no,B,2,when,L4,unsyncopated,when,when,40,Online_whenL4//a.lo22.444.wav,pe,ña,lo,sil,re,ñi,bo,sil1,ru,ja,sil2,['catch'],[1.0260999999047726],[1.0260999999047726],0.444,no_beat,0.5820999999047727,0.5820999999047727,"[""space""]",lo,1,,,,,,,,,,,,,,,2.0,2.0,Castellano,0.0,Inglés,6.0,3.0,2.0,no,no,no,nada,,,,nada,53.0,yes
169,2024-02-03_16h50.34.026,Unsyncopated_study2,s100,23.0,feminino,right,España,Castellano,Master degree,no,no,B,2,when,L4,unsyncopated,when,when,41,Online_whenL4//a.lo21.1998.wav,ñi,zi,bu,sil,de,ru,po,sil1,ña,lo,sil2,['catch'],[2.6110999999045816],[2.6110999999045816],1.998,no_beat,0.6130999999045816,0.6130999999045816,"[""space""]",lo,1,,,,,,,,,,,,,,,2.0,2.0,Castellano,0.0,Inglés,6.0,3.0,2.0,no,no,no,nada,,,,nada,53.0,yes
170,2024-02-03_16h50.34.026,Unsyncopated_study2,s100,23.0,feminino,right,España,Castellano,Master degree,no,no,B,2,when,L4,unsyncopated,when,when,42,Online_whenL4//a.lo20.none.wav,re,po,ja,sil,de,ña,nu,sil1,pe,ru,sil2,['-'],,,none,none,,,,lo,1,,,,,,,,,,,,,,,2.0,2.0,Castellano,0.0,Inglés,6.0,3.0,2.0,no,no,no,nada,,,,nada,53.0,yes
171,2024-02-03_16h50.34.026,Unsyncopated_study2,s100,23.0,feminino,right,España,Castellano,Master degree,no,no,B,2,when,L4,unsyncopated,when,when,43,Online_whenL4//a.lo23.1332.wav,nu,ña,ci,sil,re,ñi,lo,sil1,pe,bu,sil2,['miss'],,,1.332,no_beat,,,,lo,1,,,,,,,,,,,,,,,2.0,2.0,Castellano,0.0,Inglés,6.0,3.0,2.0,no,no,no,nada,,,,nada,53.0,yes
172,2024-02-03_16h50.34.026,Unsyncopated_study2,s100,23.0,feminino,right,España,Castellano,Master degree,no,no,B,2,when,L4,unsyncopated,when,when,44,Online_whenL4//c.bu22.none.wav,nu,ci,ña,sil,re,ñi,ru,sil1,zi,pe,sil2,['-'],,,none,none,,,,bu,3,,,,,,,,,,,,,,,2.0,2.0,Castellano,0.0,Inglés,6.0,3.0,2.0,no,no,no,nada,,,,nada,53.0,yes
173,2024-02-03_16h50.34.026,Unsyncopated_study2,s100,23.0,feminino,right,España,Castellano,Master degree,no,no,B,2,when,L4,unsyncopated,when,when,45,Online_whenL4//c.bu20.1332.wav,lo,re,ru,sil,ña,de,bu,sil1,zi,ci,sil2,['miss'],,,1.332,no_beat,,,,bu,3,,,,,,,,,,,,,,,2.0,2.0,Castellano,0.0,Inglés,6.0,3.0,2.0,no,no,no,nada,,,,nada,53.0,yes
174,2024-02-03_16h50.34.026,Unsyncopated_study2,s100,23.0,feminino,right,España,Castellano,Master degree,no,no,B,2,when,L4,unsyncopated,when,when,46,Online_whenL4//c.bu21.1332.wav,zi,pe,ci,sil,ña,nu,bu,sil1,bo,ru,sil2,['catch'],[2.63870000004772],[2.63870000004772],1.332,no_beat,,1.30670000004772,"[""space""]",bu,3,,,,,,,,,,,,,,,2.0,2.0,Castellano,0.0,Inglés,6.0,3.0,2.0,no,no,no,nada,,,,nada,53.0,yes
175,2024-02-03_16h50.34.026,Unsyncopated_study2,s100,23.0,feminino,right,España,Castellano,Master degree,no,no,B,2,when,L4,unsyncopated,when,when,47,Online_whenL4//c.bu23.none.wav,ña,nu,pe,sil,ru,ja,bo,sil1,re,ñi,sil2,['-'],,,none,none,,,,bu,3,,,,,,,,,,,,,,,2.0,2.0,Castellano,0.0,Inglés,6.0,3.0,2.0,no,no,no,nada,,,,nada,53.0,yes
176,2024-02-03_16h50.34.026,Unsyncopated_study2,s100,23.0,feminino,right,España,Castellano,Master degree,no,no,B,2,when,L4,unsyncopated,when,when,48,Online_whenL4//b.ja6.1332.wav,pe,ña,de,sil,bo,ci,ja,sil1,lo,po,sil2,['catch'],[1.8616000000238273],[1.8616000000238273],1.332,no_beat,0.5296000000238272,0.5296000000238272,"[""space""]",ja,2,,,,,,,,,,,,,,,2.0,2.0,Castellano,0.0,Inglés,6.0,3.0,2.0,no,no,no,nada,,,,nada,53.0,yes
177,2024-02-03_16h50.34.026,Unsyncopated_study2,s100,23.0,feminino,right,España,Castellano,Master degree,no,no,B,2,when,L4,unsyncopated,when,when,49,Online_whenL4//b.ja5.none.wav,re,pe,ña,sil,bu,po,ci,sil1,lo,nu,sil2,['-'],,,none,none,,,,ja,2,,,,,,,,,,,,,,,2.0,2.0,Castellano,0.0,Inglés,6.0,3.0,2.0,no,no,no,nada,,,,nada,53.0,yes
178,2024-02-03_16h50.34.026,Unsyncopated_study2,s100,23.0,feminino,right,España,Castellano,Master degree,no,no,B,2,when,L4,unsyncopated,when,when,50,Online_whenL4//b.ja4.none.wav,ñi,nu,ru,sil,po,de,da,sil1,re,lo,sil2,['-'],,,none,none,,,,ja,2,,,,,,,,,,,,,,,2.0,2.0,Castellano,0.0,Inglés,6.0,3.0,2.0,no,no,no,nada,,,,nada,53.0,yes
179,2024-02-03_16h50.34.026,Unsyncopated_study2,s100,23.0,feminino,right,España,Castellano,Master degree,no,no,B,2,when,L4,unsyncopated,when,when,51,Online_whenL4//b.ja7.none.wav,de,bo,zi,sil,ru,pe,da,sil1,po,nu,sil2,['-'],,,none,none,,,,ja,2,,,,,,,,,,,,,,,2.0,2.0,Castellano,0.0,Inglés,6.0,3.0,2.0,no,no,no,nada,,,,nada,53.0,yes
180,2024-02-03_16h50.34.026,Unsyncopated_study2,s100,23.0,feminino,right,España,Castellano,Master degree,no,no,B,2,when,L4,unsyncopated,when,when,52,Online_whenL4//b.ja35.1998.wav,ru,re,da,sil,lo,bo,ña,sil1,po,ja,sil2,['catch'],[2.4772999999522654],[2.4772999999522654],1.998,no_beat,0.4792999999522653,0.4792999999522653,"[""space""]",ja,2,,,,,,,,,,,,,,,2.0,2.0,Castellano,0.0,Inglés,6.0,3.0,2.0,no,no,no,nada,,,,nada,53.0,yes
181,2024-02-03_16h50.34.026,Unsyncopated_study2,s100,23.0,feminino,right,España,Castellano,Master degree,no,no,B,2,when,L4,unsyncopated,when,when,53,Online_whenL4//b.ja33.none.wav,ci,po,nu,sil,ñi,zi,pe,sil1,re,bu,sil2,['-'],,,none,none,,,,ja,2,,,,,,,,,,,,,,,2.0,2.0,Castellano,0.0,Inglés,6.0,3.0,2.0,no,no,no,nada,,,,nada,53.0,yes
182,2024-02-03_16h50.34.026,Unsyncopated_study2,s100,23.0,feminino,right,España,Castellano,Master degree,no,no,B,2,when,L4,unsyncopated,when,when,54,Online_whenL4//b.ja34.1776.wav,re,bo,da,sil,zi,bu,ña,sil1,ja,ci,sil2,['catch'],[2.5218000000716074],[2.5218000000716074],1.776,beat,0.7458000000716074,0.7458000000716074,"[""space""]",ja,2,,,,,,,,,,,,,,,2.0,2.0,Castellano,0.0,Inglés,6.0,3.0,2.0,no,no,no,nada,,,,nada,53.0,yes
183,2024-02-03_16h50.34.026,Unsyncopated_study2,s100,23.0,feminino,right,España,Castellano,Master degree,no,no,B,2,when,L4,unsyncopated,when,when,55,Online_whenL4//b.ja32.none.wav,ru,bu,de,sil,ña,lo,nu,sil1,re,ci,sil2,['-'],,,none,none,,,,ja,2,,,,,,,,,,,,,,,2.0,2.0,Castellano,0.0,Inglés,6.0,3.0,2.0,no,no,no,nada,,,,nada,53.0,yes
184,2024-02-03_16h50.34.026,Unsyncopated_study2,s100,23.0,feminino,right,España,Castellano,Master degree,no,no,B,2,when,L4,unsyncopated,when,when,56,Online_whenL4//b.ja22.1776.wav,da,ci,zi,sil,ña,ru,bo,sil1,ja,bu,sil2,['catch'],[2.253500000000031],[2.253500000000031],1.776,beat,0.4775000000000309,0.4775000000000309,"[""space""]",ja,2,,,,,,,,,,,,,,,2.0,2.0,Castellano,0.0,Inglés,6.0,3.0,2.0,no,no,no,nada,,,,nada,53.0,yes
185,2024-02-03_16h50.34.026,Unsyncopated_study2,s100,23.0,feminino,right,España,Castellano,Master degree,no,no,B,2,when,L4,unsyncopated,when,when,57,Online_whenL4//b.ja20.0.wav,ja,bu,ñi,sil,bo,de,lo,sil1,ru,da,sil2,['catch'],[0.7024999999998727],[0.7024999999998727],0.0,beat,0.7024999999998727,0.7024999999998727,"[""space""]",ja,2,,,,,,,,,,,,,,,2.0,2.0,Castellano,0.0,Inglés,6.0,3.0,2.0,no,no,no,nada,,,,nada,53.0,yes
186,2024-02-03_16h50.34.026,Unsyncopated_study2,s100,23.0,feminino,right,España,Castellano,Master degree,no,no,B,2,when,L4,unsyncopated,when,when,58,Online_whenL4//b.ja21.none.wav,bu,da,ci,sil,ru,nu,zi,sil1,de,po,sil2,['-'],,,none,none,,,,ja,2,,,,,,,,,,,,,,,2.0,2.0,Castellano,0.0,Inglés,6.0,3.0,2.0,no,no,no,nada,,,,nada,53.0,yes
187,2024-02-03_16h50.34.026,Unsyncopated_study2,s100,23.0,feminino,right,España,Castellano,Master degree,no,no,B,2,when,L4,unsyncopated,when,when,59,Online_whenL4//b.ja23.444.wav,bu,da,ja,sil,ña,de,nu,sil1,ñi,po,sil2,['catch'],[0.8992999999522908],[0.8992999999522908],0.444,no_beat,0.4552999999522908,0.4552999999522908,"[""space""]",ja,2,,,,,,,,,,,,,,,2.0,2.0,Castellano,0.0,Inglés,6.0,3.0,2.0,no,no,no,nada,,,,nada,53.0,yes
188,2024-02-03_16h50.34.026,Unsyncopated_study2,s100,23.0,feminino,right,España,Castellano,Master degree,no,no,B,2,when,L4,unsyncopated,when,when,60,Online_whenL4//d.pe3.888.wav,nu,bo,de,sil,pe,bu,po,sil1,da,zi,sil2,['catch'],[1.548800000071651],[1.548800000071651],0.888,beat,0.6608000000716511,0.6608000000716511,"[""space""]",pe,4,,,,,,,,,,,,,,,2.0,2.0,Castellano,0.0,Inglés,6.0,3.0,2.0,no,no,no,nada,,,,nada,53.0,yes
189,2024-02-03_16h50.34.026,Unsyncopated_study2,s100,23.0,feminino,right,España,Castellano,Master degree,no,no,B,2,when,L4,unsyncopated,when,when,61,Online_whenL4//d.pe1.222.wav,bo,pe,bu,sil,ja,ña,ru,sil1,ñi,nu,sil2,['miss'],,,0.222,no_beat,,,,pe,4,,,,,,,,,,,,,,,2.0,2.0,Castellano,0.0,Inglés,6.0,3.0,2.0,no,no,no,nada,,,,nada,53.0,yes
190,2024-02-03_16h50.34.026,Unsyncopated_study2,s100,23.0,feminino,right,España,Castellano,Master degree,no,no,B,2,when,L4,unsyncopated,when,when,62,Online_whenL4//d.pe2.none.wav,ñi,ña,ru,sil,nu,da,po,sil1,de,ja,sil2,['-'],,,none,none,,,,pe,4,,,,,,,,,,,,,,,2.0,2.0,Castellano,0.0,Inglés,6.0,3.0,2.0,no,no,no,nada,,,,nada,53.0,yes
191,2024-02-03_16h50.34.026,Unsyncopated_study2,s100,23.0,feminino,right,España,Castellano,Master degree,no,no,B,2,when,L4,unsyncopated,when,when,63,Online_whenL4//d.pe0.none.wav,ja,zi,ñi,sil,ru,ci,ña,sil1,da,bu,sil2,['-'],,,none,none,,,,pe,4,,,,,,,,,,,,,,,2.0,2.0,Castellano,0.0,Inglés,6.0,3.0,2.0,no,no,no,nada,,,,nada,53.0,yes
192,2024-02-03_16h50.34.026,Unsyncopated_study2,s100,23.0,feminino,right,España,Castellano,Master degree,no,no,B,2,when,L4,unsyncopated,when,when,64,Online_whenL4//a.lo1.none.wav,nu,ja,ci,sil,bo,ña,de,sil1,po,re,sil2,['-'],,,none,none,,,,lo,1,,,,,,,,,,,,,,,2.0,2.0,Castellano,0.0,Inglés,6.0,3.0,2.0,no,no,no,nada,,,,nada,53.0,yes
193,2024-02-03_16h50.34.026,Unsyncopated_study2,s100,23.0,feminino,right,España,Castellano,Master degree,no,no,B,2,when,L4,unsyncopated,when,when,65,Online_whenL4//a.lo2.444.wav,ñi,bu,lo,sil,da,pe,ña,sil1,zi,bo,sil2,['catch'],[1.0236999999283398],[1.0236999999283398],0.444,no_beat,0.5796999999283399,0.5796999999283399,"[""space""]",lo,1,,,,,,,,,,,,,,,2.0,2.0,Castellano,0.0,Inglés,6.0,3.0,2.0,no,no,no,nada,,,,nada,53.0,yes
194,2024-02-03_16h50.34.026,Unsyncopated_study2,s100,23.0,feminino,right,España,Castellano,Master degree,no,no,B,2,when,L4,unsyncopated,when,when,66,Online_whenL4//a.lo3.none.wav,ci,nu,ja,sil,re,ña,ru,sil1,po,bo,sil2,['-'],,,none,none,,,,lo,1,,,,,,,,,,,,,,,2.0,2.0,Castellano,0.0,Inglés,6.0,3.0,2.0,no,no,no,nada,,,,nada,53.0,yes
195,2024-02-03_16h50.34.026,Unsyncopated_study2,s100,23.0,feminino,right,España,Castellano,Master degree,no,no,B,2,when,L4,unsyncopated,when,when,67,Online_whenL4//a.lo0.none.wav,ru,pe,ci,sil,zi,ja,da,sil1,ñi,ña,sil2,['-'],,,none,none,,,,lo,1,,,,,,,,,,,,,,,2.0,2.0,Castellano,0.0,Inglés,6.0,3.0,2.0,no,no,no,nada,,,,nada,53.0,yes
196,2024-02-03_16h50.34.026,Unsyncopated_study2,s100,23.0,feminino,right,España,Castellano,Master degree,no,no,B,2,when,L4,unsyncopated,when,when,68,Online_whenL4//b.ja18.none.wav,bo,re,ru,sil,de,lo,zi,sil1,ci,ña,sil2,['-'],,,none,none,,,,ja,2,,,,,,,,,,,,,,,2.0,2.0,Castellano,0.0,Inglés,6.0,3.0,2.0,no,no,no,nada,,,,nada,53.0,yes
197,2024-02-03_16h50.34.026,Unsyncopated_study2,s100,23.0,feminino,right,España,Castellano,Master degree,no,no,B,2,when,L4,unsyncopated,when,when,69,Online_whenL4//b.ja19.none.wav,ñi,da,nu,sil,ña,bo,de,sil1,po,lo,sil2,['-'],,,none,none,,,,ja,2,,,,,,,,,,,,,,,2.0,2.0,Castellano,0.0,Inglés,6.0,3.0,2.0,no,no,no,nada,,,,nada,53.0,yes
198,2024-02-03_16h50.34.026,Unsyncopated_study2,s100,23.0,feminino,right,España,Castellano,Master degree,no,no,B,2,when,L4,unsyncopated,when,when,70,Online_whenL4//b.ja16.1110.wav,re,ci,bu,sil,de,ja,ru,sil1,pe,nu,sil2,['catch'],[1.6065000000000964],[1.6065000000000964],1.11,no_beat,0.4965000000000963,0.4965000000000963,"[""space""]",ja,2,,,,,,,,,,,,,,,2.0,2.0,Castellano,0.0,Inglés,6.0,3.0,2.0,no,no,no,nada,,,,nada,53.0,yes
199,2024-02-03_16h50.34.026,Unsyncopated_study2,s100,23.0,feminino,right,España,Castellano,Master degree,no,no,B,2,when,L4,unsyncopated,when,when,71,Online_whenL4//b.ja17.none.wav,pe,ru,ñi,sil,zi,lo,re,sil1,de,bu,sil2,['-'],,,none,none,,,,ja,2,,,,,,,,,,,,,,,2.0,2.0,Castellano,0.0,Inglés,6.0,3.0,2.0,no,no,no,nada,,,,nada,53.0,yes
200,2024-02-03_16h50.34.026,Unsyncopated_study2,s100,23.0,feminino,right,España,Castellano,Master degree,no,no,B,2,when,L4,unsyncopated,when,when,72,Online_whenL4//d.pe7.1998.wav,da,lo,ña,sil,bu,ñi,ru,sil1,ja,pe,sil2,['catch'],[2.5656999999284835],[2.5656999999284835],1.998,no_beat,0.5676999999284835,0.5676999999284835,"[""space""]",pe,4,,,,,,,,,,,,,,,2.0,2.0,Castellano,0.0,Inglés,6.0,3.0,2.0,no,no,no,nada,,,,nada,53.0,yes
201,2024-02-03_16h50.34.026,Unsyncopated_study2,s100,23.0,feminino,right,España,Castellano,Master degree,no,no,B,2,when,L4,unsyncopated,when,when,73,Online_whenL4//d.pe5.444.wav,bu,nu,pe,sil,ci,da,re,sil1,de,lo,sil2,['miss'],,,0.444,no_beat,,,,pe,4,,,,,,,,,,,,,,,2.0,2.0,Castellano,0.0,Inglés,6.0,3.0,2.0,no,no,no,nada,,,,nada,53.0,yes
202,2024-02-03_16h50.34.026,Unsyncopated_study2,s100,23.0,feminino,right,España,Castellano,Master degree,no,no,B,2,when,L4,unsyncopated,when,when,74,Online_whenL4//d.pe6.1110.wav,da,lo,nu,sil,po,pe,ci,sil1,bo,ña,sil2,['catch'],[1.7044999999998254],[1.7044999999998254],1.11,no_beat,0.5944999999998253,0.5944999999998253,"[""space""]",pe,4,,,,,,,,,,,,,,,2.0,2.0,Castellano,0.0,Inglés,6.0,3.0,2.0,no,no,no,nada,,,,nada,53.0,yes
203,2024-02-03_16h50.34.026,Unsyncopated_study2,s100,23.0,feminino,right,España,Castellano,Master degree,no,no,B,2,when,L4,unsyncopated,when,when,75,Online_whenL4//d.pe4.1110.wav,da,ru,ja,sil,nu,pe,ña,sil1,ñi,de,sil2,['miss'],,,1.11,no_beat,,,,pe,4,,,,,,,,,,,,,,,2.0,2.0,Castellano,0.0,Inglés,6.0,3.0,2.0,no,no,no,nada,,,,nada,53.0,yes
204,2024-02-03_16h50.34.026,Unsyncopated_study2,s100,23.0,feminino,right,España,Castellano,Master degree,no,no,B,2,when,L4,unsyncopated,when,when,76,Online_whenL4//c.bu31.none.wav,ru,bo,ci,sil,lo,po,pe,sil1,zi,ña,sil2,['false alarm'],[0.995700000047691],[0.995700000047691],none,none,,,"[""space""]",bu,3,,,,,,,,,,,,,,,2.0,2.0,Castellano,0.0,Inglés,6.0,3.0,2.0,no,no,no,nada,,,,nada,53.0,yes
205,2024-02-03_16h50.34.026,Unsyncopated_study2,s100,23.0,feminino,right,España,Castellano,Master degree,no,no,B,2,when,L4,unsyncopated,when,when,77,Online_whenL4//c.bu28.1998.wav,ñi,re,ru,sil,ja,zi,ña,sil1,pe,bu,sil2,['catch'],[2.5702000000476346],[2.5702000000476346],1.998,no_beat,0.5722000000476346,0.5722000000476346,"[""space""]",bu,3,,,,,,,,,,,,,,,2.0,2.0,Castellano,0.0,Inglés,6.0,3.0,2.0,no,no,no,nada,,,,nada,53.0,yes
206,2024-02-03_16h50.34.026,Unsyncopated_study2,s100,23.0,feminino,right,España,Castellano,Master degree,no,no,B,2,when,L4,unsyncopated,when,when,78,Online_whenL4//c.bu30.none.wav,ña,ru,lo,sil,bo,ci,ñi,sil1,nu,po,sil2,['-'],,,none,none,,,,bu,3,,,,,,,,,,,,,,,2.0,2.0,Castellano,0.0,Inglés,6.0,3.0,2.0,no,no,no,nada,,,,nada,53.0,yes
207,2024-02-03_16h50.34.026,Unsyncopated_study2,s100,23.0,feminino,right,España,Castellano,Master degree,no,no,B,2,when,L4,unsyncopated,when,when,79,Online_whenL4//c.bu29.none.wav,ja,nu,po,sil,da,re,de,sil1,ru,ci,sil2,['-'],,,none,none,,,,bu,3,,,,,,,,,,,,,,,2.0,2.0,Castellano,0.0,Inglés,6.0,3.0,2.0,no,no,no,nada,,,,nada,53.0,yes
208,2024-02-03_16h50.34.026,Unsyncopated_study2,s100,23.0,feminino,right,España,Castellano,Master degree,no,no,B,2,when,L4,unsyncopated,when,when,80,Online_whenL4//b.ja1.none.wav,lo,re,po,sil,bu,de,ña,sil1,da,nu,sil2,['-'],,,none,none,,,,ja,2,,,,,,,,,,,,,,,2.0,2.0,Castellano,0.0,Inglés,6.0,3.0,2.0,no,no,no,nada,,,,nada,53.0,yes
209,2024-02-03_16h50.34.026,Unsyncopated_study2,s100,23.0,feminino,right,España,Castellano,Master degree,no,no,B,2,when,L4,unsyncopated,when,when,81,Online_whenL4//b.ja0.222.wav,re,ja,da,sil,ci,ru,bo,sil1,bu,lo,sil2,['catch'],[0.6814999999999145],[0.6814999999999145],0.222,no_beat,0.4594999999999145,0.4594999999999145,"[""space""]",ja,2,,,,,,,,,,,,,,,2.0,2.0,Castellano,0.0,Inglés,6.0,3.0,2.0,no,no,no,nada,,,,nada,53.0,yes
210,2024-02-03_16h50.34.026,Unsyncopated_study2,s100,23.0,feminino,right,España,Castellano,Master degree,no,no,B,2,when,L4,unsyncopated,when,when,82,Online_whenL4//b.ja2.none.wav,ci,ru,zi,sil,da,de,pe,sil1,re,lo,sil2,['-'],,,none,none,,,,ja,2,,,,,,,,,,,,,,,2.0,2.0,Castellano,0.0,Inglés,6.0,3.0,2.0,no,no,no,nada,,,,nada,53.0,yes
211,2024-02-03_16h50.34.026,Unsyncopated_study2,s100,23.0,feminino,right,España,Castellano,Master degree,no,no,B,2,when,L4,unsyncopated,when,when,83,Online_whenL4//b.ja3.none.wav,nu,da,po,sil,ru,zi,bu,sil1,re,ña,sil2,['-'],,,none,none,,,,ja,2,,,,,,,,,,,,,,,2.0,2.0,Castellano,0.0,Inglés,6.0,3.0,2.0,no,no,no,nada,,,,nada,53.0,yes
212,2024-02-03_16h50.34.026,Unsyncopated_study2,s100,23.0,feminino,right,España,Castellano,Master degree,no,no,B,2,when,L4,unsyncopated,when,when,84,Online_whenL4//a.lo10.none.wav,pe,da,re,sil,de,ja,zi,sil1,bu,po,sil2,['-'],,,none,none,,,,lo,1,,,,,,,,,,,,,,,2.0,2.0,Castellano,0.0,Inglés,6.0,3.0,2.0,no,no,no,nada,,,,nada,53.0,yes
213,2024-02-03_16h50.34.026,Unsyncopated_study2,s100,23.0,feminino,right,España,Castellano,Master degree,no,no,B,2,when,L4,unsyncopated,when,when,85,Online_whenL4//a.lo8.0.wav,lo,ñi,nu,sil,de,bo,pe,sil1,da,bu,sil2,['catch'],[0.5095000000001164],[0.5095000000001164],0.0,beat,0.5095000000001164,0.5095000000001164,"[""space""]",lo,1,,,,,,,,,,,,,,,2.0,2.0,Castellano,0.0,Inglés,6.0,3.0,2.0,no,no,no,nada,,,,nada,53.0,yes
214,2024-02-03_16h50.34.026,Unsyncopated_study2,s100,23.0,feminino,right,España,Castellano,Master degree,no,no,B,2,when,L4,unsyncopated,when,when,86,Online_whenL4//a.lo9.none.wav,bo,ci,po,sil,de,zi,ñi,sil1,ja,ña,sil2,['-'],,,none,none,,,,lo,1,,,,,,,,,,,,,,,2.0,2.0,Castellano,0.0,Inglés,6.0,3.0,2.0,no,no,no,nada,,,,nada,53.0,yes
215,2024-02-03_16h50.34.026,Unsyncopated_study2,s100,23.0,feminino,right,España,Castellano,Master degree,no,no,B,2,when,L4,unsyncopated,when,when,87,Online_whenL4//a.lo11.0.wav,lo,ci,pe,sil,ñi,de,zi,sil1,ru,da,sil2,['miss'],,,0.0,beat,,,,lo,1,,,,,,,,,,,,,,,2.0,2.0,Castellano,0.0,Inglés,6.0,3.0,2.0,no,no,no,nada,,,,nada,53.0,yes
216,2024-02-03_16h50.34.026,Unsyncopated_study2,s100,23.0,feminino,right,España,Castellano,Master degree,no,no,B,2,when,L4,unsyncopated,when,when,88,Online_whenL4//d.pe31.1332.wav,bu,re,ru,sil,ja,de,pe,sil1,ci,zi,sil2,['catch'],[1.992899999976089],[1.992899999976089],1.332,no_beat,0.660899999976089,0.660899999976089,"[""space""]",pe,4,,,,,,,,,,,,,,,2.0,2.0,Castellano,0.0,Inglés,6.0,3.0,2.0,no,no,no,nada,,,,nada,53.0,yes
217,2024-02-03_16h50.34.026,Unsyncopated_study2,s100,23.0,feminino,right,España,Castellano,Master degree,no,no,B,2,when,L4,unsyncopated,when,when,89,Online_whenL4//d.pe29.none.wav,da,po,ja,sil,bu,bo,lo,sil1,ña,de,sil2,['-'],,,none,none,,,,pe,4,,,,,,,,,,,,,,,2.0,2.0,Castellano,0.0,Inglés,6.0,3.0,2.0,no,no,no,nada,,,,nada,53.0,yes
218,2024-02-03_16h50.34.026,Unsyncopated_study2,s100,23.0,feminino,right,España,Castellano,Master degree,no,no,B,2,when,L4,unsyncopated,when,when,90,Online_whenL4//d.pe30.none.wav,ru,lo,po,sil,nu,de,da,sil1,ña,ñi,sil2,['-'],,,none,none,,,,pe,4,,,,,,,,,,,,,,,2.0,2.0,Castellano,0.0,Inglés,6.0,3.0,2.0,no,no,no,nada,,,,nada,53.0,yes
219,2024-02-03_16h50.34.026,Unsyncopated_study2,s100,23.0,feminino,right,España,Castellano,Master degree,no,no,B,2,when,L4,unsyncopated,when,when,91,Online_whenL4//d.pe28.none.wav,bo,nu,lo,sil,ru,re,bu,sil1,po,da,sil2,['-'],,,none,none,,,,pe,4,,,,,,,,,,,,,,,2.0,2.0,Castellano,0.0,Inglés,6.0,3.0,2.0,no,no,no,nada,,,,nada,53.0,yes
220,2024-02-03_16h50.34.026,Unsyncopated_study2,s100,23.0,feminino,right,España,Castellano,Master degree,no,no,B,2,when,L4,unsyncopated,when,when,92,Online_whenL4//c.bu11.none.wav,ña,pe,re,sil,nu,bo,lo,sil1,ci,de,sil2,['-'],,,none,none,,,,bu,3,,,,,,,,,,,,,,,2.0,2.0,Castellano,0.0,Inglés,6.0,3.0,2.0,no,no,no,nada,,,,nada,53.0,yes
221,2024-02-03_16h50.34.026,Unsyncopated_study2,s100,23.0,feminino,right,España,Castellano,Master degree,no,no,B,2,when,L4,unsyncopated,when,when,93,Online_whenL4//c.bu8.444.wav,nu,bo,bu,sil,ñi,re,zi,sil1,pe,ci,sil2,['miss'],,,0.444,no_beat,,,,bu,3,,,,,,,,,,,,,,,2.0,2.0,Castellano,0.0,Inglés,6.0,3.0,2.0,no,no,no,nada,,,,nada,53.0,yes
222,2024-02-03_16h50.34.026,Unsyncopated_study2,s100,23.0,feminino,right,España,Castellano,Master degree,no,no,B,2,when,L4,unsyncopated,when,when,94,Online_whenL4//c.bu9.444.wav,bo,ja,bu,sil,lo,re,pe,sil1,ci,po,sil2,['miss'],,,0.444,no_beat,,,,bu,3,,,,,,,,,,,,,,,2.0,2.0,Castellano,0.0,Inglés,6.0,3.0,2.0,no,no,no,nada,,,,nada,53.0,yes
223,2024-02-03_16h50.34.026,Unsyncopated_study2,s100,23.0,feminino,right,España,Castellano,Master degree,no,no,B,2,when,L4,unsyncopated,when,when,95,Online_whenL4//c.bu10.0.wav,bu,ñi,da,sil,ña,ja,re,sil1,nu,ci,sil2,['catch'],[0.7817999999524545],[0.7817999999524545],0.0,beat,0.7817999999524545,0.7817999999524545,"[""space""]",bu,3,,,,,,,,,,,,,,,2.0,2.0,Castellano,0.0,Inglés,6.0,3.0,2.0,no,no,no,nada,,,,nada,53.0,yes
224,2024-02-03_16h50.34.026,Unsyncopated_study2,s100,23.0,feminino,right,España,Castellano,Master degree,no,no,B,2,when,L4,unsyncopated,when,when,96,Online_whenL4//a.lo29.none.wav,pe,ña,ru,sil,de,zi,ñi,sil1,nu,re,sil2,['-'],,,none,none,,,,lo,1,,,,,,,,,,,,,,,2.0,2.0,Castellano,0.0,Inglés,6.0,3.0,2.0,no,no,no,nada,,,,nada,53.0,yes
225,2024-02-03_16h50.34.026,Unsyncopated_study2,s100,23.0,feminino,right,España,Castellano,Master degree,no,no,B,2,when,L4,unsyncopated,when,when,97,Online_whenL4//a.lo28.1110.wav,ña,nu,da,sil,ci,lo,po,sil1,re,pe,sil2,['catch'],[1.7385999999046362],[1.7385999999046362],1.11,no_beat,0.6285999999046361,0.6285999999046361,"[""space""]",lo,1,,,,,,,,,,,,,,,2.0,2.0,Castellano,0.0,Inglés,6.0,3.0,2.0,no,no,no,nada,,,,nada,53.0,yes
226,2024-02-03_16h50.34.026,Unsyncopated_study2,s100,23.0,feminino,right,España,Castellano,Master degree,no,no,B,2,when,L4,unsyncopated,when,when,98,Online_whenL4//a.lo31.none.wav,re,de,zi,sil,ru,pe,da,sil1,ci,nu,sil2,['-'],,,none,none,,,,lo,1,,,,,,,,,,,,,,,2.0,2.0,Castellano,0.0,Inglés,6.0,3.0,2.0,no,no,no,nada,,,,nada,53.0,yes
227,2024-02-03_16h50.34.026,Unsyncopated_study2,s100,23.0,feminino,right,España,Castellano,Master degree,no,no,B,2,when,L4,unsyncopated,when,when,99,Online_whenL4//a.lo30.none.wav,de,re,ru,sil,pe,ñi,zi,sil1,bo,nu,sil2,['-'],,,none,none,,,,lo,1,,,,,,,,,,,,,,,2.0,2.0,Castellano,0.0,Inglés,6.0,3.0,2.0,no,no,no,nada,,,,nada,53.0,yes
228,2024-02-03_16h50.34.026,Unsyncopated_study2,s100,23.0,feminino,right,España,Castellano,Master degree,no,no,B,2,when,L4,unsyncopated,when,when,100,Online_whenL4//b.ja9.0.wav,ja,ci,re,sil,de,zi,pe,sil1,po,bu,sil2,['catch'],[0.681900000095311],[0.681900000095311],0.0,beat,0.681900000095311,0.681900000095311,"[""space""]",ja,2,,,,,,,,,,,,,,,2.0,2.0,Castellano,0.0,Inglés,6.0,3.0,2.0,no,no,no,nada,,,,nada,53.0,yes
229,2024-02-03_16h50.34.026,Unsyncopated_study2,s100,23.0,feminino,right,España,Castellano,Master degree,no,no,B,2,when,L4,unsyncopated,when,when,101,Online_whenL4//b.ja8.1998.wav,nu,de,da,sil,re,pe,ña,sil1,bu,ja,sil2,['catch'],[2.5592000000476673],[2.5592000000476673],1.998,no_beat,0.5612000000476673,0.5612000000476673,"[""space""]",ja,2,,,,,,,,,,,,,,,2.0,2.0,Castellano,0.0,Inglés,6.0,3.0,2.0,no,no,no,nada,,,,nada,53.0,yes
230,2024-02-03_16h50.34.026,Unsyncopated_study2,s100,23.0,feminino,right,España,Castellano,Master degree,no,no,B,2,when,L4,unsyncopated,when,when,102,Online_whenL4//b.ja10.none.wav,bu,lo,pe,sil,zi,po,ru,sil1,ci,de,sil2,['-'],,,none,none,,,,ja,2,,,,,,,,,,,,,,,2.0,2.0,Castellano,0.0,Inglés,6.0,3.0,2.0,no,no,no,nada,,,,nada,53.0,yes
231,2024-02-03_16h50.34.026,Unsyncopated_study2,s100,23.0,feminino,right,España,Castellano,Master degree,no,no,B,2,when,L4,unsyncopated,when,when,103,Online_whenL4//b.ja11.444.wav,po,da,ja,sil,nu,ru,bo,sil1,pe,de,sil2,['miss'],,,0.444,no_beat,,,,ja,2,,,,,,,,,,,,,,,2.0,2.0,Castellano,0.0,Inglés,6.0,3.0,2.0,no,no,no,nada,,,,nada,53.0,yes
232,2024-02-03_16h50.34.026,Unsyncopated_study2,s100,23.0,feminino,right,España,Castellano,Master degree,no,no,B,2,when,L4,unsyncopated,when,when,104,Online_whenL4//d.pe11.none.wav,re,da,zi,sil,bu,lo,ña,sil1,ci,po,sil2,['-'],,,none,none,,,,pe,4,,,,,,,,,,,,,,,2.0,2.0,Castellano,0.0,Inglés,6.0,3.0,2.0,no,no,no,nada,,,,nada,53.0,yes
233,2024-02-03_16h50.34.026,Unsyncopated_study2,s100,23.0,feminino,right,España,Castellano,Master degree,no,no,B,2,when,L4,unsyncopated,when,when,105,Online_whenL4//d.pe8.1998.wav,bo,ru,ña,sil,nu,ñi,ja,sil1,po,pe,sil2,['catch'],[2.5338999999762564],[2.5338999999762564],1.998,no_beat,0.5358999999762564,0.5358999999762564,"[""space""]",pe,4,,,,,,,,,,,,,,,2.0,2.0,Castellano,0.0,Inglés,6.0,3.0,2.0,no,no,no,nada,,,,nada,53.0,yes
234,2024-02-03_16h50.34.026,Unsyncopated_study2,s100,23.0,feminino,right,España,Castellano,Master degree,no,no,B,2,when,L4,unsyncopated,when,when,106,Online_whenL4//d.pe10.888.wav,da,zi,po,sil,pe,lo,ru,sil1,ci,re,sil2,['miss'],,,0.888,beat,,,,pe,4,,,,,,,,,,,,,,,2.0,2.0,Castellano,0.0,Inglés,6.0,3.0,2.0,no,no,no,nada,,,,nada,53.0,yes
235,2024-02-03_16h50.34.026,Unsyncopated_study2,s100,23.0,feminino,right,España,Castellano,Master degree,no,no,B,2,when,L4,unsyncopated,when,when,107,Online_whenL4//d.pe9.none.wav,de,bu,da,sil,zi,ña,nu,sil1,ci,re,sil2,['-'],,,none,none,,,,pe,4,,,,,,,,,,,,,,,2.0,2.0,Castellano,0.0,Inglés,6.0,3.0,2.0,no,no,no,nada,,,,nada,53.0,yes
236,2024-02-03_16h50.34.026,Unsyncopated_study2,s100,23.0,feminino,right,España,Castellano,Master degree,no,no,B,2,when,L4,unsyncopated,when,when,108,Online_whenL4//b.ja24.444.wav,bu,nu,ja,sil,ci,pe,de,sil1,po,ña,sil2,['catch'],[0.9478999999762436],[0.9478999999762436],0.444,no_beat,0.5038999999762437,0.5038999999762437,"[""space""]",ja,2,,,,,,,,,,,,,,,2.0,2.0,Castellano,0.0,Inglés,6.0,3.0,2.0,no,no,no,nada,,,,nada,53.0,yes
237,2024-02-03_16h50.34.026,Unsyncopated_study2,s100,23.0,feminino,right,España,Castellano,Master degree,no,no,B,2,when,L4,unsyncopated,when,when,109,Online_whenL4//b.ja27.444.wav,bu,ñi,ja,sil,ci,ru,ña,sil1,bo,zi,sil2,['miss'],,,0.444,no_beat,,,,ja,2,,,,,,,,,,,,,,,2.0,2.0,Castellano,0.0,Inglés,6.0,3.0,2.0,no,no,no,nada,,,,nada,53.0,yes
238,2024-02-03_16h50.34.026,Unsyncopated_study2,s100,23.0,feminino,right,España,Castellano,Master degree,no,no,B,2,when,L4,unsyncopated,when,when,110,Online_whenL4//b.ja26.none.wav,bu,ru,de,sil,zi,bo,re,sil1,ci,nu,sil2,['-'],,,none,none,,,,ja,2,,,,,,,,,,,,,,,2.0,2.0,Castellano,0.0,Inglés,6.0,3.0,2.0,no,no,no,nada,,,,nada,53.0,yes
