Unnamed: 0,date,expName,participant,age,sex,hand,residence,native_lang,education_level,lang_deficit,aud_deficit,group,block,condition,language,rhythm,rule structure online,rule type online,order_trial_on,trial_online,s1,s2,s3,s4,s5,s6,s7,s8,s9,s10,s11,catch_syll_resp,rts_syll_catch,clean_rts,time_syll,beat_no_beat,catch_rtsTR,catch_rts,syllable_catch.keys,cond_syll,syll_to_catch,test_offline,block_off,condition_off,rhythm_off,rule,rule_str_off,rule_norule,conds_offline,language_off,Partz_no_partm.keys,Partz_no_partm.rt,security_1_7.keys,accuracy,security_1_7.rt,n_lang,n_lang_used,lang_1,age_l1,lang_2,age_l2,lang_3,age_l3,ability_learn_l2,tendence_mix_lan,music_experience,muisc_use,partiture,instr_1,age_M1,instr_2,age_M2,preguntas_musica1,BMRQ_answer.response,final comment,BMRQ_Score,bilingual
0,2023-10-10_11h58.35.266,Unsyncopated1,s30,23.0,feminino,right,España,Catalán y Español,Bachelor degree,no,no,B,1,conjunction_un,L1,unsyncopated,s2,r1,0,Online_conjL1_un//d.ne.ni3.none.none.wav,cho,lu,zu,sil,pu,ro,la,sil1,ki,ri,sil2,['-'],,,none,none,,,,ni,4,testConjL1Uns//time_viol.r1.s2.0.wav,1.0,conjunction_un,unsyncopated,a,s2,no_rule,time,L1,m,9.1212,3.0,1.0,10.5089,3.0,2.0,Catalán,0.0,Español,0.0,Inglés,5.0,3.0,2.0,yes,no,no,Piano,12,Canto,12,1. Cuando comparto música con alguien siento una complicidad especial con aquella persona.,4.0,nada,67.0,yes
1,2023-10-10_11h58.35.266,Unsyncopated1,s30,23.0,feminino,right,España,Catalán y Español,Bachelor degree,no,no,B,1,conjunction_un,L1,unsyncopated,s1,r1,1,Online_conjL1_un//d.ne.ni2.none.none.wav,pu,ze,fa,sil,ki,ro,cho,sil1,lu,zu,sil2,['-'],,,none,none,,,,ni,4,testConjL1Uns//r1.s2.2.wav,1.0,conjunction_un,unsyncopated,a,s2,rule,rule,L1,z,2.5309,7.0,1.0,3.3321,3.0,2.0,Catalán,0.0,Español,0.0,Inglés,5.0,3.0,2.0,yes,no,no,Piano,12,Canto,12,2. En mi tiempo libre apenas escucho música.,4.0,nada,67.0,yes
2,2023-10-10_11h58.35.266,Unsyncopated1,s30,23.0,feminino,right,España,Catalán y Español,Bachelor degree,no,no,B,1,conjunction_un,L1,unsyncopated,s2,r1,2,Online_conjL1_un//d.ne.ni0.none.none.wav,ro,lu,fa,sil,pu,fo,ri,sil1,ki,ze,sil2,['-'],,,none,none,,,,ni,4,testConjL1Uns//r1.s2.0.wav,1.0,conjunction_un,unsyncopated,a,s2,rule,rule,L1,z,2.6985,7.0,1.0,1.5679,3.0,2.0,Catalán,0.0,Español,0.0,Inglés,5.0,3.0,2.0,yes,no,no,Piano,12,Canto,12,3. Algunas canciones me ponen los pelos de punta,4.0,nada,67.0,yes
3,2023-10-10_11h58.35.266,Unsyncopated1,s30,23.0,feminino,right,España,Catalán y Español,Bachelor degree,no,no,B,1,conjunction_un,L1,unsyncopated,s2,r1,3,Online_conjL1_un//d.ne.ni1.222.444.wav,ro,ne,ni,sil,pu,ze,fo,sil1,ki,cho,sil2,['catch'],[0.9154999999999518],[0.9154999999999518],0.444,no_beat,0.4714999999999518,0.4714999999999518,"[""space""]",ni,4,testConjL1Uns//time_viol.r1.s1.0.wav,1.0,conjunction_un,unsyncopated,a,s1,no_rule,time,L1,z,1.9761,7.0,0.0,1.4689,3.0,2.0,Catalán,0.0,Español,0.0,Inglés,5.0,3.0,2.0,yes,no,no,Piano,12,Canto,12,4. La música me hace compañía cuando estoy solo,3.0,nada,67.0,yes
4,2023-10-10_11h58.35.266,Unsyncopated1,s30,23.0,feminino,right,España,Catalán y Español,Bachelor degree,no,no,B,1,conjunction_un,L1,unsyncopated,s2,r1,4,Online_conjL1_un//c.ro.fo5.1110.222.wav,ze,fo,lu,sil,pu,ro,zu,sil1,ki,la,sil2,['catch'],[0.8909999999999627],[0.8909999999999627],0.222,no_beat,0.6689999999999627,0.6689999999999627,"[""space""]",fo,3,testConjL1Uns//r2.s1.1.wav,1.0,conjunction_un,unsyncopated,b,s1,rule,rule,L1,z,0.9652,7.0,1.0,1.2308,3.0,2.0,Catalán,0.0,Español,0.0,Inglés,5.0,3.0,2.0,yes,no,no,Piano,12,Canto,12,5. No me apetece bailar ni con la música que más me gusta,5.0,nada,67.0,yes
5,2023-10-10_11h58.35.266,Unsyncopated1,s30,23.0,feminino,right,España,Catalán y Español,Bachelor degree,no,no,B,1,conjunction_un,L1,unsyncopated,s2,r2,5,Online_conjL1_un//c.ro.fo4.0.1110.wav,ro,lu,fa,sil,ta,fo,ne,sil1,be,ni,sil2,['miss'],,,1.11,no_beat,,,,fo,3,testConjL1Uns//cat_viol.r2.s2.0.wav,1.0,conjunction_un,unsyncopated,b,s2,no_rule,cat,L1,z,4.351,6.0,0.0,1.3317,3.0,2.0,Catalán,0.0,Español,0.0,Inglés,5.0,3.0,2.0,yes,no,no,Piano,12,Canto,12,6. La música me hace conectar con la gente,4.0,nada,67.0,yes
6,2023-10-10_11h58.35.266,Unsyncopated1,s30,23.0,feminino,right,España,Catalán y Español,Bachelor degree,no,no,B,1,conjunction_un,L1,unsyncopated,s1,r1,6,Online_conjL1_un//c.ro.fo6.none.none.wav,pu,ne,la,sil,ki,ze,ni,sil1,zu,ri,sil2,['-'],,,none,none,,,,fo,3,testConjL1Uns//cat_viol.r1.s2.0.wav,1.0,conjunction_un,unsyncopated,a,s2,no_rule,cat,L1,z,1.3328,7.0,0.0,1.7867,3.0,2.0,Catalán,0.0,Español,0.0,Inglés,5.0,3.0,2.0,yes,no,no,Piano,12,Canto,12,7. Me informo sobre la música que me gusta.,3.0,nada,67.0,yes
7,2023-10-10_11h58.35.266,Unsyncopated1,s30,23.0,feminino,right,España,Catalán y Español,Bachelor degree,no,no,B,1,conjunction_un,L1,unsyncopated,s2,r2,7,Online_conjL1_un//c.ro.fo7.444.1110.wav,ni,lu,ro,sil,ta,fo,fa,sil1,be,la,sil2,['catch'],[1.6007999999523008],[1.6007999999523008],1.11,no_beat,0.4907999999523007,0.4907999999523007,"[""space""]",fo,3,testConjL1Uns//r1.s2.1.wav,1.0,conjunction_un,unsyncopated,a,s2,rule,rule,L1,m,3.6301,4.0,0.0,1.567,3.0,2.0,Catalán,0.0,Español,0.0,Inglés,5.0,3.0,2.0,yes,no,no,Piano,12,Canto,12,8.Me emociono escuchando ciertas canciones.,3.0,nada,67.0,yes
8,2023-10-10_11h58.35.266,Unsyncopated1,s30,23.0,feminino,right,España,Catalán y Español,Bachelor degree,no,no,B,1,conjunction_un,L1,unsyncopated,s1,r1,8,Online_conjL1_un//a.pu.ki11.0.888.wav,pu,fa,fo,sil,ki,ze,lu,sil1,ri,ni,sil2,['miss'],,,0.0,beat,,,,pu,1,testConjL1Uns//dep_viol.r1.s1.0.wav,1.0,conjunction_un,unsyncopated,a,s1,no_rule,dep,L1,m,3.0606,5.0,1.0,1.349,3.0,2.0,Catalán,0.0,Español,0.0,Inglés,5.0,3.0,2.0,yes,no,no,Piano,12,Canto,12,9.La música me tranquiliza y me relaja.,3.0,nada,67.0,yes
9,2023-10-10_11h58.35.266,Unsyncopated1,s30,23.0,feminino,right,España,Catalán y Español,Bachelor degree,no,no,B,1,conjunction_un,L1,unsyncopated,s1,r2,9,Online_conjL1_un//a.pu.ki10.none.none.wav,ta,ze,ni,sil,be,zu,fa,sil1,ro,fo,sil2,['-'],,,none,none,,,,pu,1,testConjL1Uns//r2.s1.0.wav,1.0,conjunction_un,unsyncopated,b,s1,rule,rule,L1,z,1.2465,6.0,1.0,1.713,3.0,2.0,Catalán,0.0,Español,0.0,Inglés,5.0,3.0,2.0,yes,no,no,Piano,12,Canto,12,10.La música me hace bailar,4.0,nada,67.0,yes
10,2023-10-10_11h58.35.266,Unsyncopated1,s30,23.0,feminino,right,España,Catalán y Español,Bachelor degree,no,no,B,1,conjunction_un,L1,unsyncopated,s1,r1,10,Online_conjL1_un//a.pu.ki8.0.888.wav,pu,ne,ro,sil,ki,ze,zu,sil1,la,ni,sil2,"['catch', 'false alarm']","[0.351299999952289, 0.5812999999523072]",[0.351299999952289],0.0,beat,0.351299999952289,0.351299999952289,"[""space"",""space""]",pu,1,testConjL1Uns//r2.s2.1.wav,1.0,conjunction_un,unsyncopated,b,s2,rule,rule,L1,m,0.929,5.0,0.0,2.6209,3.0,2.0,Catalán,0.0,Español,0.0,Inglés,5.0,3.0,2.0,yes,no,no,Piano,12,Canto,12,11.Busco novedades musicales continuamente,3.0,nada,67.0,yes
11,2023-10-10_11h58.35.266,Unsyncopated1,s30,23.0,feminino,right,España,Catalán y Español,Bachelor degree,no,no,B,1,conjunction_un,L1,unsyncopated,s1,r1,11,Online_conjL1_un//a.pu.ki9.0.888.wav,pu,ne,fo,sil,ki,fa,ni,sil1,ze,ri,sil2,['catch'],[0.7863999999760836],[0.7863999999760836],0.0,beat,0.7863999999760836,0.7863999999760836,"[""space""]",pu,1,testConjL1Uns//r2.s2.0.wav,1.0,conjunction_un,unsyncopated,b,s2,rule,rule,L1,z,7.8495,4.0,1.0,1.5687,3.0,2.0,Catalán,0.0,Español,0.0,Inglés,5.0,3.0,2.0,yes,no,no,Piano,12,Canto,12,12. Puedo llorar cuando escucho algunas melodías que me gustan mucho.,3.0,nada,67.0,yes
12,2023-10-10_11h58.35.266,Unsyncopated1,s30,23.0,feminino,right,España,Catalán y Español,Bachelor degree,no,no,B,1,conjunction_un,L1,unsyncopated,s2,r2,12,Online_conjL1_un//c.ro.fo14.none.none.wav,ne,ze,ri,sil,ta,ni,lu,sil1,be,fa,sil2,['-'],,,none,none,,,,fo,3,testConjL1Uns//time_viol.r2.s2.0.wav,1.0,conjunction_un,unsyncopated,b,s2,no_rule,time,L1,m,1.1531,5.0,1.0,2.2804,3.0,2.0,Catalán,0.0,Español,0.0,Inglés,5.0,3.0,2.0,yes,no,no,Piano,12,Canto,12,13. Me gusta cantar o tocar un instrumento con más gente,3.0,nada,67.0,yes
13,2023-10-10_11h58.35.266,Unsyncopated1,s30,23.0,feminino,right,España,Catalán y Español,Bachelor degree,no,no,B,1,conjunction_un,L1,unsyncopated,s2,r1,13,Online_conjL1_un//c.ro.fo12.222.1110.wav,lu,ro,cho,sil,pu,fo,ze,sil1,ki,la,sil2,['catch'],[1.6026000000238128],[1.6026000000238128],1.11,no_beat,0.4926000000238126,0.4926000000238126,"[""space""]",fo,3,testConjL1Uns//r2.s1.2.wav,1.0,conjunction_un,unsyncopated,b,s1,rule,rule,L1,z,0.9789,5.0,1.0,2.0835,3.0,2.0,Catalán,0.0,Español,0.0,Inglés,5.0,3.0,2.0,yes,no,no,Piano,12,Canto,12,14. La música me ayuda a desconectar.,3.0,nada,67.0,yes
14,2023-10-10_11h58.35.266,Unsyncopated1,s30,23.0,feminino,right,España,Catalán y Español,Bachelor degree,no,no,B,1,conjunction_un,L1,unsyncopated,s1,r2,14,Online_conjL1_un//c.ro.fo13.1332.222.wav,ta,fo,fa,sil,be,ri,ro,sil1,ne,cho,sil2,['catch'],[2.0083999999761772],[2.0083999999761772],0.222,no_beat,,1.7863999999761773,"[""space""]",fo,3,testConjL1Uns//dep_viol.r2.s2.0.wav,1.0,conjunction_un,unsyncopated,b,s2,no_rule,dep,L1,z,1.828,6.0,0.0,1.2525,3.0,2.0,Catalán,0.0,Español,0.0,Inglés,5.0,3.0,2.0,yes,no,no,Piano,12,Canto,12,15. No puedo evitar tararear las canciones que me gustan cuando las escucho.,3.0,nada,67.0,yes
15,2023-10-10_11h58.35.266,Unsyncopated1,s30,23.0,feminino,right,España,Catalán y Español,Bachelor degree,no,no,B,1,conjunction_un,L1,unsyncopated,s1,r1,15,Online_conjL1_un//c.ro.fo15.none.none.wav,pu,la,ri,sil,ki,lu,zu,sil1,cho,ni,sil2,['-'],,,none,none,,,,fo,3,testConjL1Uns//r2.s2.2.wav,1.0,conjunction_un,unsyncopated,b,s2,rule,rule,L1,m,0.8836,5.0,0.0,1.4344,3.0,2.0,Catalán,0.0,Español,0.0,Inglés,5.0,3.0,2.0,yes,no,no,Piano,12,Canto,12,16. En los conciertos me siento en sintonía con los artistas y el público.,4.0,nada,67.0,yes
16,2023-10-10_11h58.35.266,Unsyncopated1,s30,23.0,feminino,right,España,Catalán y Español,Bachelor degree,no,no,B,1,conjunction_un,L1,unsyncopated,s2,r1,16,Online_conjL1_un//b.ta.be6.none.none.wav,la,fo,cho,sil,pu,fa,ro,sil1,ki,ze,sil2,['-'],,,none,none,,,,be,2,testConjL1Uns//cat_viol.r1.s1.0.wav,1.0,conjunction_un,unsyncopated,a,s1,no_rule,cat,L1,z,0.867,7.0,0.0,1.2904,3.0,2.0,Catalán,0.0,Español,0.0,Inglés,5.0,3.0,2.0,yes,no,no,Piano,12,Canto,12,17. Me gasto bastante dinero en música y cosas relacionadas con la música.,2.0,nada,67.0,yes
17,2023-10-10_11h58.35.266,Unsyncopated1,s30,23.0,feminino,right,España,Catalán y Español,Bachelor degree,no,no,B,1,conjunction_un,L1,unsyncopated,s2,r1,17,Online_conjL1_un//b.ta.be7.none.none.wav,zu,fa,lu,sil,pu,fo,ri,sil1,ki,ne,sil2,['-'],,,none,none,,,,be,2,testConjL1Uns//cat_viol.r2.s1.0.wav,1.0,conjunction_un,unsyncopated,b,s1,no_rule,cat,L1,z,6.5648,3.0,0.0,1.2995,3.0,2.0,Catalán,0.0,Español,0.0,Inglés,5.0,3.0,2.0,yes,no,no,Piano,12,Canto,12,18. Siento escalofríos cuando escucho una melodía que me gusta.,3.0,nada,67.0,yes
18,2023-10-10_11h58.35.266,Unsyncopated1,s30,23.0,feminino,right,España,Catalán y Español,Bachelor degree,no,no,B,1,conjunction_un,L1,unsyncopated,s2,r2,18,Online_conjL1_un//b.ta.be4.888.1776.wav,fa,ri,cho,sil,ta,ni,ze,sil1,be,ro,sil2,['catch'],[2.2492999999523136],[2.2492999999523136],1.776,beat,0.4732999999523135,0.4732999999523135,"[""space""]",be,2,testConjL1Uns//dep_viol.r1.s2.0.wav,1.0,conjunction_un,unsyncopated,a,s2,no_rule,dep,L1,z,10.1171,5.0,0.0,1.096,3.0,2.0,Catalán,0.0,Español,0.0,Inglés,5.0,3.0,2.0,yes,no,no,Piano,12,Canto,12,19. Con la música me puedo desahogar.,2.0,nada,67.0,yes
19,2023-10-10_11h58.35.266,Unsyncopated1,s30,23.0,feminino,right,España,Catalán y Español,Bachelor degree,no,no,B,1,conjunction_un,L1,unsyncopated,s2,r1,19,Online_conjL1_un//b.ta.be5.none.none.wav,ri,ni,fo,sil,pu,la,ze,sil1,ki,zu,sil2,['-'],,,none,none,,,,be,2,testConjL1Uns//dep_viol.r2.s1.0.wav,1.0,conjunction_un,unsyncopated,b,s1,no_rule,dep,L1,m,1.8332,3.0,1.0,1.2171,3.0,2.0,Catalán,0.0,Español,0.0,Inglés,5.0,3.0,2.0,yes,no,no,Piano,12,Canto,12,20. Cuando escucho una melodía que me gusta mucho no puedo evitar mover el cuerpo.,4.0,nada,67.0,yes
20,2023-10-10_11h58.35.266,Unsyncopated1,s30,23.0,feminino,right,España,Catalán y Español,Bachelor degree,no,no,B,1,conjunction_un,L1,unsyncopated,s2,r1,20,Online_conjL1_un//d.ne.ni26.none.none.wav,lu,ri,ro,sil,pu,cho,fa,sil1,ki,ze,sil2,['false alarm'],[0.23789999997609357],[0.23789999997609357],none,none,,,"[""space""]",ni,4,testConjL1Uns//r1.s1.0.wav,1.0,conjunction_un,unsyncopated,a,s1,rule,rule,L1,m,8.3087,3.0,0.0,1.1007,3.0,2.0,Catalán,0.0,Español,0.0,Inglés,5.0,3.0,2.0,yes,no,no,Piano,12,Canto,12,,,nada,67.0,yes
21,2023-10-10_11h58.35.266,Unsyncopated1,s30,23.0,feminino,right,España,Catalán y Español,Bachelor degree,no,no,B,1,conjunction_un,L1,unsyncopated,s2,r2,21,Online_conjL1_un//d.ne.ni27.1110.0.wav,ni,fa,ri,sil,ta,ne,zu,sil1,be,la,sil2,['catch'],[0.6074999999999591],[0.6074999999999591],0.0,beat,0.6074999999999591,0.6074999999999591,"[""space""]",ni,4,testConjL1Uns//time_viol.r2.s1.0.wav,1.0,conjunction_un,unsyncopated,b,s1,no_rule,time,L1,z,0.9991,5.0,0.0,0.8983,3.0,2.0,Catalán,0.0,Español,0.0,Inglés,5.0,3.0,2.0,yes,no,no,Piano,12,Canto,12,,,nada,67.0,yes
22,2023-10-10_11h58.35.266,Unsyncopated1,s30,23.0,feminino,right,España,Catalán y Español,Bachelor degree,no,no,B,1,conjunction_un,L1,unsyncopated,s1,r2,22,Online_conjL1_un//d.ne.ni25.none.none.wav,ta,fa,ze,sil,be,ro,lu,sil1,la,fo,sil2,['-'],,,none,none,,,,ni,4,testConjL1Uns//r1.s1.1.wav,1.0,conjunction_un,unsyncopated,a,s1,rule,rule,L1,z,3.3653,3.0,1.0,1.2008,3.0,2.0,Catalán,0.0,Español,0.0,Inglés,5.0,3.0,2.0,yes,no,no,Piano,12,Canto,12,,,nada,67.0,yes
23,2023-10-10_11h58.35.266,Unsyncopated1,s30,23.0,feminino,right,España,Catalán y Español,Bachelor degree,no,no,B,1,conjunction_un,L1,unsyncopated,s2,r1,23,Online_conjL1_un//d.ne.ni24.1110.222.wav,ri,ni,fa,sil,pu,ne,ro,sil1,ki,fo,sil2,['catch'],[0.93229999995242],[0.93229999995242],0.222,no_beat,0.71029999995242,0.71029999995242,"[""space""]",ni,4,testConjL1Uns//r1.s1.2.wav,1.0,conjunction_un,unsyncopated,a,s1,rule,rule,L1,z,22.3824,3.0,1.0,1.2144,3.0,2.0,Catalán,0.0,Español,0.0,Inglés,5.0,3.0,2.0,yes,no,no,Piano,12,Canto,12,,,nada,67.0,yes
24,2023-10-10_11h58.35.266,Unsyncopated1,s30,23.0,feminino,right,España,Catalán y Español,Bachelor degree,no,no,B,1,conjunction_un,L1,unsyncopated,s2,r2,24,Online_conjL1_un//a.pu.ki31.none.none.wav,ze,la,ni,sil,ta,ne,lu,sil1,be,cho,sil2,['-'],,,none,none,,,,pu,1,testConjL4Syn//time_viol.r2.s2.0.wav,2.0,conjunction_syn,syncopated,b,s2,no_rule,time,L4,z,0.8312,7.0,0.0,1.3922,3.0,2.0,Catalán,0.0,Español,0.0,Inglés,5.0,3.0,2.0,yes,no,no,Piano,12,Canto,12,,,nada,67.0,yes
25,2023-10-10_11h58.35.266,Unsyncopated1,s30,23.0,feminino,right,España,Catalán y Español,Bachelor degree,no,no,B,1,conjunction_un,L1,unsyncopated,s2,r2,25,Online_conjL1_un//a.pu.ki30.none.none.wav,ri,lu,ze,sil,ta,zu,fa,sil1,be,ne,sil2,['-'],,,none,none,,,,pu,1,testConjL4Syn//dep_viol.r1.s2.0.wav,2.0,conjunction_syn,syncopated,a,s2,no_rule,dep,L4,m,0.8351,6.0,1.0,1.6494,3.0,2.0,Catalán,0.0,Español,0.0,Inglés,5.0,3.0,2.0,yes,no,no,Piano,12,Canto,12,,,nada,67.0,yes
26,2023-10-10_11h58.35.266,Unsyncopated1,s30,23.0,feminino,right,España,Catalán y Español,Bachelor degree,no,no,B,1,conjunction_un,L1,unsyncopated,s1,r1,26,Online_conjL1_un//a.pu.ki29.0.888.wav,pu,fa,ze,sil,ki,la,cho,sil1,ro,ni,sil2,['catch'],[0.43310000002384186],[0.43310000002384186],0.0,beat,0.4331000000238418,0.4331000000238418,"[""space""]",pu,1,testConjL4Syn//dep_viol.r2.s2.0.wav,2.0,conjunction_syn,syncopated,b,s2,no_rule,dep,L4,z,0.4803,6.0,0.0,1.6216,3.0,2.0,Catalán,0.0,Español,0.0,Inglés,5.0,3.0,2.0,yes,no,no,Piano,12,Canto,12,,,nada,67.0,yes
27,2023-10-10_11h58.35.266,Unsyncopated1,s30,23.0,feminino,right,España,Catalán y Español,Bachelor degree,no,no,B,1,conjunction_un,L1,unsyncopated,s2,r2,27,Online_conjL1_un//a.pu.ki28.none.none.wav,ne,zu,ze,sil,ta,ni,fa,sil1,be,lu,sil2,['-'],,,none,none,,,,pu,1,testConjL4Syn//r1.s1.1.wav,2.0,conjunction_syn,syncopated,a,s1,rule,rule,L4,m,4.5664,6.0,0.0,1.1797,3.0,2.0,Catalán,0.0,Español,0.0,Inglés,5.0,3.0,2.0,yes,no,no,Piano,12,Canto,12,,,nada,67.0,yes
28,2023-10-10_11h58.35.266,Unsyncopated1,s30,23.0,feminino,right,España,Catalán y Español,Bachelor degree,no,no,B,1,conjunction_un,L1,unsyncopated,s1,r2,28,Online_conjL1_un//a.pu.ki20.none.none.wav,ta,ni,ze,sil,be,ri,ne,sil1,cho,fo,sil2,['-'],,,none,none,,,,pu,1,testConjL4Syn//r1.s2.2.wav,2.0,conjunction_syn,syncopated,a,s2,rule,rule,L4,z,0.8676,6.0,1.0,1.3647,3.0,2.0,Catalán,0.0,Español,0.0,Inglés,5.0,3.0,2.0,yes,no,no,Piano,12,Canto,12,,,nada,67.0,yes
29,2023-10-10_11h58.35.266,Unsyncopated1,s30,23.0,feminino,right,España,Catalán y Español,Bachelor degree,no,no,B,1,conjunction_un,L1,unsyncopated,s1,r1,29,Online_conjL1_un//a.pu.ki23.0.888.wav,pu,la,ze,sil,ki,cho,fo,sil1,ne,zu,sil2,['catch'],[0.4257999999522326],[0.4257999999522326],0.0,beat,0.4257999999522326,0.4257999999522326,"[""space""]",pu,1,testConjL4Syn//r2.s2.1.wav,2.0,conjunction_syn,syncopated,b,s2,rule,rule,L4,z,0.5272,5.0,1.0,1.2223,3.0,2.0,Catalán,0.0,Español,0.0,Inglés,5.0,3.0,2.0,yes,no,no,Piano,12,Canto,12,,,nada,67.0,yes
30,2023-10-10_11h58.35.266,Unsyncopated1,s30,23.0,feminino,right,España,Catalán y Español,Bachelor degree,no,no,B,1,conjunction_un,L1,unsyncopated,s2,r1,30,Online_conjL1_un//a.pu.ki22.888.1776.wav,la,ze,zu,sil,pu,ne,cho,sil1,ki,ri,sil2,['catch'],[1.5408999999760908],[1.5408999999760908],0.888,beat,0.6528999999760908,0.6528999999760908,"[""space""]",pu,1,testConjL4Syn//r1.s2.0.wav,2.0,conjunction_syn,syncopated,a,s2,rule,rule,L4,z,0.4807,7.0,1.0,0.9491,3.0,2.0,Catalán,0.0,Español,0.0,Inglés,5.0,3.0,2.0,yes,no,no,Piano,12,Canto,12,,,nada,67.0,yes
31,2023-10-10_11h58.35.266,Unsyncopated1,s30,23.0,feminino,right,España,Catalán y Español,Bachelor degree,no,no,B,1,conjunction_un,L1,unsyncopated,s2,r1,31,Online_conjL1_un//a.pu.ki21.888.1776.wav,zu,ri,ni,sil,pu,lu,fa,sil1,ki,ro,sil2,['catch'],[1.4308000000714856],[1.4308000000714856],0.888,beat,0.5428000000714855,0.5428000000714855,"[""space""]",pu,1,testConjL4Syn//r2.s1.2.wav,2.0,conjunction_syn,syncopated,b,s1,rule,rule,L4,z,0.3089,7.0,1.0,0.9826,3.0,2.0,Catalán,0.0,Español,0.0,Inglés,5.0,3.0,2.0,yes,no,no,Piano,12,Canto,12,,,nada,67.0,yes
32,2023-10-10_11h58.35.266,Unsyncopated1,s30,23.0,feminino,right,España,Catalán y Español,Bachelor degree,no,no,B,1,conjunction_un,L1,unsyncopated,s2,r1,32,Online_conjL1_un//a.pu.ki0.888.1776.wav,ni,zu,ne,sil,pu,fa,ze,sil1,ki,ri,sil2,['catch'],[1.3437999999523527],[1.3437999999523527],0.888,beat,0.4557999999523526,0.4557999999523526,"[""space""]",pu,1,testConjL4Syn//r1.s2.1.wav,2.0,conjunction_syn,syncopated,a,s2,rule,rule,L4,z,3.3345,5.0,1.0,1.0823,3.0,2.0,Catalán,0.0,Español,0.0,Inglés,5.0,3.0,2.0,yes,no,no,Piano,12,Canto,12,,,nada,67.0,yes
33,2023-10-10_11h58.35.266,Unsyncopated1,s30,23.0,feminino,right,España,Catalán y Español,Bachelor degree,no,no,B,1,conjunction_un,L1,unsyncopated,s1,r2,33,Online_conjL1_un//a.pu.ki3.none.none.wav,ta,fo,lu,sil,be,ze,cho,sil1,ri,la,sil2,['false alarm'],[0.9042000000476946],[0.9042000000476946],none,none,,,"[""space""]",pu,1,testConjL4Syn//r2.s2.0.wav,2.0,conjunction_syn,syncopated,b,s2,rule,rule,L4,z,1.8171,7.0,1.0,0.5471,3.0,2.0,Catalán,0.0,Español,0.0,Inglés,5.0,3.0,2.0,yes,no,no,Piano,12,Canto,12,,,nada,67.0,yes
34,2023-10-10_11h58.35.266,Unsyncopated1,s30,23.0,feminino,right,España,Catalán y Español,Bachelor degree,no,no,B,1,conjunction_un,L1,unsyncopated,s2,r1,34,Online_conjL1_un//a.pu.ki1.888.1776.wav,ro,fa,ne,sil,pu,lu,cho,sil1,ki,ri,sil2,['catch'],[1.2641000000238591],[1.2641000000238591],0.888,beat,0.3761000000238591,0.3761000000238591,"[""space""]",pu,1,testConjL4Syn//r2.s1.0.wav,2.0,conjunction_syn,syncopated,b,s1,rule,rule,L4,m,0.9766,5.0,0.0,1.4322,3.0,2.0,Catalán,0.0,Español,0.0,Inglés,5.0,3.0,2.0,yes,no,no,Piano,12,Canto,12,,,nada,67.0,yes
35,2023-10-10_11h58.35.266,Unsyncopated1,s30,23.0,feminino,right,España,Catalán y Español,Bachelor degree,no,no,B,1,conjunction_un,L1,unsyncopated,s1,r2,35,Online_conjL1_un//a.pu.ki2.none.none.wav,ta,ro,ne,sil,be,lu,fo,sil1,la,ri,sil2,['-'],,,none,none,,,,pu,1,testConjL4Syn//r1.s1.2.wav,2.0,conjunction_syn,syncopated,a,s1,rule,rule,L4,z,0.7115,5.0,1.0,1.38,3.0,2.0,Catalán,0.0,Español,0.0,Inglés,5.0,3.0,2.0,yes,no,no,Piano,12,Canto,12,,,nada,67.0,yes
36,2023-10-10_11h58.35.266,Unsyncopated1,s30,23.0,feminino,right,España,Catalán y Español,Bachelor degree,no,no,B,1,conjunction_un,L1,unsyncopated,s1,r2,36,Online_conjL1_un//b.ta.be25.0.888.wav,ta,la,lu,sil,be,cho,zu,sil1,ne,ro,sil2,['catch'],[1.4512999999523117],[1.4512999999523117],0.888,beat,0.5632999999523117,0.5632999999523117,"[""space""]",be,2,testConjL4Syn//time_viol.r2.s1.0.wav,2.0,conjunction_syn,syncopated,b,s1,no_rule,time,L4,m,0.2624,5.0,1.0,1.0491,3.0,2.0,Catalán,0.0,Español,0.0,Inglés,5.0,3.0,2.0,yes,no,no,Piano,12,Canto,12,,,nada,67.0,yes
37,2023-10-10_11h58.35.266,Unsyncopated1,s30,23.0,feminino,right,España,Catalán y Español,Bachelor degree,no,no,B,1,conjunction_un,L1,unsyncopated,s2,r2,37,Online_conjL1_un//b.ta.be27.888.1776.wav,fo,ni,lu,sil,ta,ne,ro,sil1,be,fa,sil2,['catch'],[2.332800000071529],[2.332800000071529],1.776,beat,0.5568000000715292,0.5568000000715292,"[""space""]",be,2,testConjL4Syn//cat_viol.r1.s1.0.wav,2.0,conjunction_syn,syncopated,a,s1,no_rule,cat,L4,z,1.2996,4.0,0.0,1.0479,3.0,2.0,Catalán,0.0,Español,0.0,Inglés,5.0,3.0,2.0,yes,no,no,Piano,12,Canto,12,,,nada,67.0,yes
38,2023-10-10_11h58.35.266,Unsyncopated1,s30,23.0,feminino,right,España,Catalán y Español,Bachelor degree,no,no,B,1,conjunction_un,L1,unsyncopated,s2,r2,38,Online_conjL1_un//b.ta.be24.888.1776.wav,ze,ne,ri,sil,ta,fa,la,sil1,be,fo,sil2,['catch'],[2.2193000000714846],[2.2193000000714846],1.776,beat,0.4433000000714846,0.4433000000714846,"[""space""]",be,2,testConjL4Syn//time_viol.r1.s1.0.wav,2.0,conjunction_syn,syncopated,a,s1,no_rule,time,L4,m,0.6345,7.0,1.0,1.4077,3.0,2.0,Catalán,0.0,Español,0.0,Inglés,5.0,3.0,2.0,yes,no,no,Piano,12,Canto,12,,,nada,67.0,yes
39,2023-10-10_11h58.35.266,Unsyncopated1,s30,23.0,feminino,right,España,Catalán y Español,Bachelor degree,no,no,B,1,conjunction_un,L1,unsyncopated,s2,r2,39,Online_conjL1_un//b.ta.be26.888.1776.wav,ni,ri,fa,sil,ta,zu,lu,sil1,be,ze,sil2,['catch'],[2.264799999952288],[2.264799999952288],1.776,beat,0.488799999952288,0.488799999952288,"[""space""]",be,2,testConjL4Syn//time_viol.r1.s2.0.wav,2.0,conjunction_syn,syncopated,a,s2,no_rule,time,L4,m,5.7213,3.0,1.0,0.8767,3.0,2.0,Catalán,0.0,Español,0.0,Inglés,5.0,3.0,2.0,yes,no,no,Piano,12,Canto,12,,,nada,67.0,yes
40,2023-10-10_11h58.35.266,Unsyncopated1,s30,23.0,feminino,right,España,Catalán y Español,Bachelor degree,no,no,B,1,conjunction_un,L1,unsyncopated,s2,r2,40,Online_conjL1_un//d.ne.ni16.444.1110.wav,ze,zu,ne,sil,ta,ni,fo,sil1,be,cho,sil2,['catch'],[1.6853000000716065],[1.6853000000716065],1.11,no_beat,0.5753000000716064,0.5753000000716064,"[""space""]",ni,4,testConjL4Syn//dep_viol.r1.s1.0.wav,2.0,conjunction_syn,syncopated,a,s1,no_rule,dep,L4,z,0.3466,6.0,0.0,1.038,3.0,2.0,Catalán,0.0,Español,0.0,Inglés,5.0,3.0,2.0,yes,no,no,Piano,12,Canto,12,,,nada,67.0,yes
41,2023-10-10_11h58.35.266,Unsyncopated1,s30,23.0,feminino,right,España,Catalán y Español,Bachelor degree,no,no,B,1,conjunction_un,L1,unsyncopated,s2,r2,41,Online_conjL1_un//d.ne.ni18.none.none.wav,fa,ro,fo,sil,ta,ri,lu,sil1,be,la,sil2,['-'],,,none,none,,,,ni,4,testConjL4Syn//cat_viol.r1.s2.0.wav,2.0,conjunction_syn,syncopated,a,s2,no_rule,cat,L4,z,0.5002,5.0,0.0,0.7183,3.0,2.0,Catalán,0.0,Español,0.0,Inglés,5.0,3.0,2.0,yes,no,no,Piano,12,Canto,12,,,nada,67.0,yes
42,2023-10-10_11h58.35.266,Unsyncopated1,s30,23.0,feminino,right,España,Catalán y Español,Bachelor degree,no,no,B,1,conjunction_un,L1,unsyncopated,s2,r1,42,Online_conjL1_un//d.ne.ni19.none.none.wav,zu,fa,ri,sil,pu,lu,la,sil1,ki,ze,sil2,['-'],,,none,none,,,,ni,4,testConjL4Syn//r1.s1.0.wav,2.0,conjunction_syn,syncopated,a,s1,rule,rule,L4,z,1.3188,5.0,1.0,0.7603,3.0,2.0,Catalán,0.0,Español,0.0,Inglés,5.0,3.0,2.0,yes,no,no,Piano,12,Canto,12,,,nada,67.0,yes
43,2023-10-10_11h58.35.266,Unsyncopated1,s30,23.0,feminino,right,España,Catalán y Español,Bachelor degree,no,no,B,1,conjunction_un,L1,unsyncopated,s2,r2,43,Online_conjL1_un//d.ne.ni17.0.1110.wav,ne,la,ro,sil,ta,ni,ri,sil1,be,cho,sil2,['catch'],[1.6656999999283926],[1.6656999999283926],1.11,no_beat,0.5556999999283925,0.5556999999283925,"[""space""]",ni,4,testConjL4Syn//dep_viol.r2.s1.0.wav,2.0,conjunction_syn,syncopated,b,s1,no_rule,dep,L4,z,0.1937,5.0,0.0,0.6932,3.0,2.0,Catalán,0.0,Español,0.0,Inglés,5.0,3.0,2.0,yes,no,no,Piano,12,Canto,12,,,nada,67.0,yes
44,2023-10-10_11h58.35.266,Unsyncopated1,s30,23.0,feminino,right,España,Catalán y Español,Bachelor degree,no,no,B,1,conjunction_un,L1,unsyncopated,s2,r1,44,Online_conjL1_un//a.pu.ki26.888.1776.wav,zu,ze,cho,sil,pu,ni,ne,sil1,ki,fo,sil2,['catch'],[1.3079999999999927],[1.3079999999999927],0.888,beat,0.4199999999999927,0.4199999999999927,"[""space""]",pu,1,testConjL4Syn//r2.s1.1.wav,2.0,conjunction_syn,syncopated,b,s1,rule,rule,L4,m,2.3763,4.0,0.0,1.1061,3.0,2.0,Catalán,0.0,Español,0.0,Inglés,5.0,3.0,2.0,yes,no,no,Piano,12,Canto,12,,,nada,67.0,yes
45,2023-10-10_11h58.35.266,Unsyncopated1,s30,23.0,feminino,right,España,Catalán y Español,Bachelor degree,no,no,B,1,conjunction_un,L1,unsyncopated,s1,r2,45,Online_conjL1_un//a.pu.ki24.none.none.wav,ta,lu,ri,sil,be,la,zu,sil1,fa,ze,sil2,['-'],,,none,none,,,,pu,1,testConjL4Syn//cat_viol.r2.s1.0.wav,2.0,conjunction_syn,syncopated,b,s1,no_rule,cat,L4,m,0.8449,4.0,1.0,0.7253,3.0,2.0,Catalán,0.0,Español,0.0,Inglés,5.0,3.0,2.0,yes,no,no,Piano,12,Canto,12,,,nada,67.0,yes
46,2023-10-10_11h58.35.266,Unsyncopated1,s30,23.0,feminino,right,España,Catalán y Español,Bachelor degree,no,no,B,1,conjunction_un,L1,unsyncopated,s1,r2,46,Online_conjL1_un//a.pu.ki25.none.none.wav,ta,lu,la,sil,be,cho,ro,sil1,ni,zu,sil2,['-'],,,none,none,,,,pu,1,testConjL4Syn//cat_viol.r2.s2.0.wav,2.0,conjunction_syn,syncopated,b,s2,no_rule,cat,L4,z,2.73,4.0,0.0,0.8334,3.0,2.0,Catalán,0.0,Español,0.0,Inglés,5.0,3.0,2.0,yes,no,no,Piano,12,Canto,12,,,nada,67.0,yes
47,2023-10-10_11h58.35.266,Unsyncopated1,s30,23.0,feminino,right,España,Catalán y Español,Bachelor degree,no,no,B,1,conjunction_un,L1,unsyncopated,s1,r2,47,Online_conjL1_un//a.pu.ki27.none.none.wav,ta,fa,ro,sil,be,ze,ni,sil1,lu,fo,sil2,['false alarm'],[2.2796000000238337],[2.2796000000238337],none,none,,,"[""space""]",pu,1,testConjL4Syn//r2.s2.2.wav,2.0,conjunction_syn,syncopated,b,s2,rule,rule,L4,z,0.8622,5.0,1.0,0.7704,3.0,2.0,Catalán,0.0,Español,0.0,Inglés,5.0,3.0,2.0,yes,no,no,Piano,12,Canto,12,,,nada,67.0,yes
48,2023-10-10_11h58.35.266,Unsyncopated1,s30,23.0,feminino,right,España,Catalán y Español,Bachelor degree,no,no,B,1,conjunction_un,L1,unsyncopated,s2,r2,48,Online_conjL1_un//c.ro.fo8.none.none.wav,ni,cho,ri,sil,ta,la,ze,sil1,be,zu,sil2,['-'],,,none,none,,,,fo,3,testWhenL3Uns//time_viol.r2.s2.0.wav,3.0,when,unsyncopated,b,s2,no_rule,time,L3,z,0.3831,7.0,1.0,1.0334,3.0,2.0,Catalán,0.0,Español,0.0,Inglés,5.0,3.0,2.0,yes,no,no,Piano,12,Canto,12,,,nada,67.0,yes
49,2023-10-10_11h58.35.266,Unsyncopated1,s30,23.0,feminino,right,España,Catalán y Español,Bachelor degree,no,no,B,1,conjunction_un,L1,unsyncopated,s2,r1,49,Online_conjL1_un//c.ro.fo9.1332.444.wav,ri,ze,fo,sil,pu,fa,ro,sil1,ki,ne,sil2,['catch'],[0.9858000000715492],[0.9858000000715492],0.444,no_beat,0.5418000000715493,0.5418000000715493,"[""space""]",fo,3,testWhenL3Uns//r2.s1.2.wav,3.0,when,unsyncopated,b,s1,rule,rule,L3,m,0.3614,6.0,0.0,0.9576,3.0,2.0,Catalán,0.0,Español,0.0,Inglés,5.0,3.0,2.0,yes,no,no,Piano,12,Canto,12,,,nada,67.0,yes
50,2023-10-10_11h58.35.266,Unsyncopated1,s30,23.0,feminino,right,España,Catalán y Español,Bachelor degree,no,no,B,1,conjunction_un,L1,unsyncopated,s1,r2,50,Online_conjL1_un//c.ro.fo11.none.none.wav,ta,lu,la,sil,be,fa,ne,sil1,ze,ni,sil2,['-'],,,none,none,,,,fo,3,testWhenL3Uns//r1.s1.2.wav,3.0,when,unsyncopated,a,s1,rule,rule,L3,m,1.8128,5.0,0.0,1.2575,3.0,2.0,Catalán,0.0,Español,0.0,Inglés,5.0,3.0,2.0,yes,no,no,Piano,12,Canto,12,,,nada,67.0,yes
51,2023-10-10_11h58.35.266,Unsyncopated1,s30,23.0,feminino,right,España,Catalán y Español,Bachelor degree,no,no,B,1,conjunction_un,L1,unsyncopated,s1,r2,51,Online_conjL1_un//c.ro.fo10.none.none.wav,ta,zu,cho,sil,be,ze,la,sil1,ne,lu,sil2,['-'],,,none,none,,,,fo,3,testWhenL3Uns//dep_viol.r2.s1.0.wav,3.0,when,unsyncopated,b,s1,no_rule,dep,L3,z,0.1529,6.0,1.0,1.0619,3.0,2.0,Catalán,0.0,Español,0.0,Inglés,5.0,3.0,2.0,yes,no,no,Piano,12,Canto,12,,,nada,67.0,yes
52,2023-10-10_11h58.35.266,Unsyncopated1,s30,23.0,feminino,right,España,Catalán y Español,Bachelor degree,no,no,B,1,conjunction_un,L1,unsyncopated,s1,r2,52,Online_conjL1_un//d.ne.ni13.none.none.wav,ta,ri,fa,sil,be,fo,ze,sil1,ro,zu,sil2,['-'],,,none,none,,,,ni,4,testWhenL3Uns//r1.s2.2.wav,3.0,when,unsyncopated,a,s2,rule,rule,L3,z,1.1988,5.0,1.0,0.6151,3.0,2.0,Catalán,0.0,Español,0.0,Inglés,5.0,3.0,2.0,yes,no,no,Piano,12,Canto,12,,,nada,67.0,yes
53,2023-10-10_11h58.35.266,Unsyncopated1,s30,23.0,feminino,right,España,Catalán y Español,Bachelor degree,no,no,B,1,conjunction_un,L1,unsyncopated,s1,r1,53,Online_conjL1_un//d.ne.ni12.1332.444.wav,pu,fo,ni,sil,ki,ri,ne,sil1,fa,zu,sil2,['catch'],[0.9723999999762327],[0.9723999999762327],0.444,no_beat,0.5283999999762328,0.5283999999762328,"[""space""]",ni,4,testWhenL3Uns//time_viol.r1.s1.0.wav,3.0,when,unsyncopated,a,s1,no_rule,time,L3,z,0.1169,7.0,1.0,1.0337,3.0,2.0,Catalán,0.0,Español,0.0,Inglés,5.0,3.0,2.0,yes,no,no,Piano,12,Canto,12,,,nada,67.0,yes
54,2023-10-10_11h58.35.266,Unsyncopated1,s30,23.0,feminino,right,España,Catalán y Español,Bachelor degree,no,no,B,1,conjunction_un,L1,unsyncopated,s1,r1,54,Online_conjL1_un//d.ne.ni15.222.1110.wav,pu,ne,ze,sil,ki,ni,cho,sil1,lu,zu,sil2,['catch'],[1.8028000000715565],[1.8028000000715565],1.11,no_beat,0.6928000000715564,0.6928000000715564,"[""space""]",ni,4,testWhenL3Uns//r2.s1.1.wav,3.0,when,unsyncopated,b,s1,rule,rule,L3,m,0.3847,7.0,0.0,0.5014,3.0,2.0,Catalán,0.0,Español,0.0,Inglés,5.0,3.0,2.0,yes,no,no,Piano,12,Canto,12,,,nada,67.0,yes
55,2023-10-10_11h58.35.266,Unsyncopated1,s30,23.0,feminino,right,España,Catalán y Español,Bachelor degree,no,no,B,1,conjunction_un,L1,unsyncopated,s1,r2,55,Online_conjL1_un//d.ne.ni14.222.1332.wav,ta,ne,ri,sil,be,fa,ni,sil1,cho,ro,sil2,['catch'],[1.9529999999999745],[1.9529999999999745],1.332,no_beat,0.6209999999999745,0.6209999999999745,"[""space""]",ni,4,testWhenL3Uns//cat_viol.r2.s2.0.wav,3.0,when,unsyncopated,b,s2,no_rule,cat,L3,z,1.5503,5.0,1.0,0.8128,3.0,2.0,Catalán,0.0,Español,0.0,Inglés,5.0,3.0,2.0,yes,no,no,Piano,12,Canto,12,,,nada,67.0,yes
56,2023-10-10_11h58.35.266,Unsyncopated1,s30,23.0,feminino,right,España,Catalán y Español,Bachelor degree,no,no,B,1,conjunction_un,L1,unsyncopated,s2,r2,56,Online_conjL1_un//a.pu.ki14.none.none.wav,ne,ze,ni,sil,ta,zu,fo,sil1,be,lu,sil2,['-'],,,none,none,,,,pu,1,testWhenL3Uns//r1.s2.0.wav,3.0,when,unsyncopated,a,s2,rule,rule,L3,z,2.5009,7.0,1.0,1.1268,3.0,2.0,Catalán,0.0,Español,0.0,Inglés,5.0,3.0,2.0,yes,no,no,Piano,12,Canto,12,,,nada,67.0,yes
57,2023-10-10_11h58.35.266,Unsyncopated1,s30,23.0,feminino,right,España,Catalán y Español,Bachelor degree,no,no,B,1,conjunction_un,L1,unsyncopated,s2,r2,57,Online_conjL1_un//a.pu.ki12.none.none.wav,ri,ze,fo,sil,ta,lu,ro,sil1,be,ne,sil2,['-'],,,none,none,,,,pu,1,testWhenL3Uns//dep_viol.r1.s1.0.wav,3.0,when,unsyncopated,a,s1,no_rule,dep,L3,m,0.5672,7.0,0.0,0.6488,3.0,2.0,Catalán,0.0,Español,0.0,Inglés,5.0,3.0,2.0,yes,no,no,Piano,12,Canto,12,,,nada,67.0,yes
58,2023-10-10_11h58.35.266,Unsyncopated1,s30,23.0,feminino,right,España,Catalán y Español,Bachelor degree,no,no,B,1,conjunction_un,L1,unsyncopated,s1,r2,58,Online_conjL1_un//a.pu.ki13.none.none.wav,ta,ne,ro,sil,be,lu,fa,sil1,zu,la,sil2,['-'],,,none,none,,,,pu,1,testWhenL3Uns//r2.s2.1.wav,3.0,when,unsyncopated,b,s2,rule,rule,L3,m,6.2565,3.0,0.0,1.0109,3.0,2.0,Catalán,0.0,Español,0.0,Inglés,5.0,3.0,2.0,yes,no,no,Piano,12,Canto,12,,,nada,67.0,yes
59,2023-10-10_11h58.35.266,Unsyncopated1,s30,23.0,feminino,right,España,Catalán y Español,Bachelor degree,no,no,B,1,conjunction_un,L1,unsyncopated,s2,r1,59,Online_conjL1_un//a.pu.ki15.888.1776.wav,cho,ri,ne,sil,pu,ze,ni,sil1,ki,zu,sil2,['catch'],[1.3737999999523254],[1.3737999999523254],0.888,beat,0.4857999999523253,0.4857999999523253,"[""space""]",pu,1,testWhenL3Uns//r2.s1.0.wav,3.0,when,unsyncopated,b,s1,rule,rule,L3,z,5.6006,5.0,1.0,0.628,3.0,2.0,Catalán,0.0,Español,0.0,Inglés,5.0,3.0,2.0,yes,no,no,Piano,12,Canto,12,,,nada,67.0,yes
60,2023-10-10_11h58.35.266,Unsyncopated1,s30,23.0,feminino,right,España,Catalán y Español,Bachelor degree,no,no,B,1,conjunction_un,L1,unsyncopated,s1,r1,60,Online_conjL1_un//a.pu.ki6.0.888.wav,pu,cho,fa,sil,ki,zu,ni,sil1,ne,ro,sil2,['catch'],[0.5209999999999582],[0.5209999999999582],0.0,beat,0.5209999999999582,0.5209999999999582,"[""space""]",pu,1,testWhenL3Uns//cat_viol.r2.s1.0.wav,3.0,when,unsyncopated,b,s1,no_rule,cat,L3,z,0.2831,7.0,1.0,0.8638,3.0,2.0,Catalán,0.0,Español,0.0,Inglés,5.0,3.0,2.0,yes,no,no,Piano,12,Canto,12,,,nada,67.0,yes
61,2023-10-10_11h58.35.266,Unsyncopated1,s30,23.0,feminino,right,España,Catalán y Español,Bachelor degree,no,no,B,1,conjunction_un,L1,unsyncopated,s2,r1,61,Online_conjL1_un//a.pu.ki4.888.1776.wav,ni,cho,fa,sil,pu,fo,ne,sil1,ki,la,sil2,['catch'],[1.3825000000001637],[1.3825000000001637],0.888,beat,0.4945000000001637,0.4945000000001637,"[""space""]",pu,1,testWhenL3Uns//dep_viol.r1.s2.0.wav,3.0,when,unsyncopated,a,s2,no_rule,dep,L3,m,0.6976,5.0,0.0,1.3485,3.0,2.0,Catalán,0.0,Español,0.0,Inglés,5.0,3.0,2.0,yes,no,no,Piano,12,Canto,12,,,nada,67.0,yes
62,2023-10-10_11h58.35.266,Unsyncopated1,s30,23.0,feminino,right,España,Catalán y Español,Bachelor degree,no,no,B,1,conjunction_un,L1,unsyncopated,s1,r1,62,Online_conjL1_un//a.pu.ki7.0.888.wav,pu,la,fa,sil,ki,ri,ze,sil1,lu,ro,sil2,['catch'],[0.5111999999285217],[0.5111999999285217],0.0,beat,0.5111999999285217,0.5111999999285217,"[""space""]",pu,1,testWhenL3Uns//cat_viol.r1.s1.0.wav,3.0,when,unsyncopated,a,s1,no_rule,cat,L3,z,0.4333,7.0,1.0,0.7142,3.0,2.0,Catalán,0.0,Español,0.0,Inglés,5.0,3.0,2.0,yes,no,no,Piano,12,Canto,12,,,nada,67.0,yes
63,2023-10-10_11h58.35.266,Unsyncopated1,s30,23.0,feminino,right,España,Catalán y Español,Bachelor degree,no,no,B,1,conjunction_un,L1,unsyncopated,s1,r1,63,Online_conjL1_un//a.pu.ki5.0.888.wav,pu,lu,zu,sil,ki,fo,la,sil1,cho,ze,sil2,['catch'],[0.5662999999522071],[0.5662999999522071],0.0,beat,0.5662999999522071,0.5662999999522071,"[""space""]",pu,1,testWhenL3Uns//r2.s2.2.wav,3.0,when,unsyncopated,b,s2,rule,rule,L3,z,0.6159,7.0,1.0,0.3819,3.0,2.0,Catalán,0.0,Español,0.0,Inglés,5.0,3.0,2.0,yes,no,no,Piano,12,Canto,12,,,nada,67.0,yes
64,2023-10-10_11h58.35.266,Unsyncopated1,s30,23.0,feminino,right,España,Catalán y Español,Bachelor degree,no,no,B,1,conjunction_un,L1,unsyncopated,s1,r2,64,Online_conjL1_un//b.ta.be8.0.888.wav,ta,la,ne,sil,be,lu,ni,sil1,ro,fa,sil2,['catch'],[1.28939999997624],[1.28939999997624],0.888,beat,0.40139999997624,0.40139999997624,"[""space""]",be,2,testWhenL3Uns//r1.s2.1.wav,3.0,when,unsyncopated,a,s2,rule,rule,L3,m,1.1331,7.0,0.0,0.7128,3.0,2.0,Catalán,0.0,Español,0.0,Inglés,5.0,3.0,2.0,yes,no,no,Piano,12,Canto,12,,,nada,67.0,yes
65,2023-10-10_11h58.35.266,Unsyncopated1,s30,23.0,feminino,right,España,Catalán y Español,Bachelor degree,no,no,B,1,conjunction_un,L1,unsyncopated,s2,r1,65,Online_conjL1_un//b.ta.be10.none.none.wav,ni,lu,cho,sil,pu,fa,zu,sil1,ki,fo,sil2,['-'],,,none,none,,,,be,2,testWhenL3Uns//r1.s1.0.wav,3.0,when,unsyncopated,a,s1,rule,rule,L3,m,0.8236,6.0,0.0,0.6334,3.0,2.0,Catalán,0.0,Español,0.0,Inglés,5.0,3.0,2.0,yes,no,no,Piano,12,Canto,12,,,nada,67.0,yes
66,2023-10-10_11h58.35.266,Unsyncopated1,s30,23.0,feminino,right,España,Catalán y Español,Bachelor degree,no,no,B,1,conjunction_un,L1,unsyncopated,s1,r2,66,Online_conjL1_un//b.ta.be11.0.888.wav,ta,fa,lu,sil,be,ni,ze,sil1,ri,ro,sil2,['catch'],[1.3797999999524109],[1.3797999999524109],0.888,beat,0.4917999999524108,0.4917999999524108,"[""space""]",be,2,testWhenL3Uns//r2.s2.0.wav,3.0,when,unsyncopated,b,s2,rule,rule,L3,z,3.2825,4.0,1.0,1.0634,3.0,2.0,Catalán,0.0,Español,0.0,Inglés,5.0,3.0,2.0,yes,no,no,Piano,12,Canto,12,,,nada,67.0,yes
67,2023-10-10_11h58.35.266,Unsyncopated1,s30,23.0,feminino,right,España,Catalán y Español,Bachelor degree,no,no,B,1,conjunction_un,L1,unsyncopated,s2,r1,67,Online_conjL1_un//b.ta.be9.none.none.wav,fa,ne,lu,sil,pu,ri,la,sil1,ki,ni,sil2,['-'],,,none,none,,,,be,2,testWhenL3Uns//r1.s1.1.wav,3.0,when,unsyncopated,a,s1,rule,rule,L3,m,4.2313,4.0,0.0,0.746,3.0,2.0,Catalán,0.0,Español,0.0,Inglés,5.0,3.0,2.0,yes,no,no,Piano,12,Canto,12,,,nada,67.0,yes
68,2023-10-10_11h58.35.266,Unsyncopated1,s30,23.0,feminino,right,España,Catalán y Español,Bachelor degree,no,no,B,1,conjunction_un,L1,unsyncopated,s1,r1,68,Online_conjL1_un//c.ro.fo2.none.none.wav,pu,ni,ne,sil,ki,la,ri,sil1,cho,zu,sil2,['-'],,,none,none,,,,fo,3,testWhenL3Uns//dep_viol.r2.s2.0.wav,3.0,when,unsyncopated,b,s2,no_rule,dep,L3,z,0.2737,7.0,1.0,0.5163,3.0,2.0,Catalán,0.0,Español,0.0,Inglés,5.0,3.0,2.0,yes,no,no,Piano,12,Canto,12,,,nada,67.0,yes
69,2023-10-10_11h58.35.266,Unsyncopated1,s30,23.0,feminino,right,España,Catalán y Español,Bachelor degree,no,no,B,1,conjunction_un,L1,unsyncopated,s2,r2,69,Online_conjL1_un//c.ro.fo0.0.222.wav,ro,fo,ri,sil,ta,fa,zu,sil1,be,ze,sil2,['catch'],[1.0177000000476255],[1.0177000000476255],0.222,no_beat,0.7957000000476255,0.7957000000476255,"[""space""]",fo,3,testWhenL3Uns//time_viol.r1.s2.0.wav,3.0,when,unsyncopated,a,s2,no_rule,time,L3,z,0.3042,6.0,1.0,0.5915,3.0,2.0,Catalán,0.0,Español,0.0,Inglés,5.0,3.0,2.0,yes,no,no,Piano,12,Canto,12,,,nada,67.0,yes
70,2023-10-10_11h58.35.266,Unsyncopated1,s30,23.0,feminino,right,España,Catalán y Español,Bachelor degree,no,no,B,1,conjunction_un,L1,unsyncopated,s1,r2,70,Online_conjL1_un//c.ro.fo3.222.1110.wav,ta,ro,ne,sil,be,fo,fa,sil1,cho,ze,sil2,['catch'],[1.715699999928347],[1.715699999928347],1.11,no_beat,0.605699999928347,0.605699999928347,"[""space""]",fo,3,testWhenL3Uns//time_viol.r2.s1.0.wav,3.0,when,unsyncopated,b,s1,no_rule,time,L3,z,3.2257,5.0,1.0,0.7483,3.0,2.0,Catalán,0.0,Español,0.0,Inglés,5.0,3.0,2.0,yes,no,no,Piano,12,Canto,12,,,nada,67.0,yes
71,2023-10-10_11h58.35.266,Unsyncopated1,s30,23.0,feminino,right,España,Catalán y Español,Bachelor degree,no,no,B,1,conjunction_un,L1,unsyncopated,s2,r1,71,Online_conjL1_un//c.ro.fo1.none.none.wav,cho,zu,fa,sil,pu,lu,ni,sil1,ki,ze,sil2,['-'],,,none,none,,,,fo,3,testWhenL3Uns//cat_viol.r1.s2.0.wav,3.0,when,unsyncopated,a,s2,no_rule,cat,L3,z,0.3535,6.0,1.0,0.4924,3.0,2.0,Catalán,0.0,Español,0.0,Inglés,5.0,3.0,2.0,yes,no,no,Piano,12,Canto,12,,,nada,67.0,yes
72,2023-10-10_11h58.35.266,Unsyncopated1,s30,23.0,feminino,right,España,Catalán y Español,Bachelor degree,no,no,B,1,conjunction_un,L1,unsyncopated,s1,r2,72,Online_conjL1_un//b.ta.be3.0.888.wav,ta,fa,ri,sil,be,lu,ro,sil1,zu,la,sil2,['catch'],[1.3481999999285108],[1.3481999999285108],0.888,beat,0.4601999999285108,0.4601999999285108,"[""space""]",be,2,testWhatL2Uns//r2.s1.0.wav,4.0,what,unsyncopated,b,s1,rule,rule,L2,z,0.316,6.0,1.0,1.5443,3.0,2.0,Catalán,0.0,Español,0.0,Inglés,5.0,3.0,2.0,yes,no,no,Piano,12,Canto,12,,,nada,67.0,yes
73,2023-10-10_11h58.35.266,Unsyncopated1,s30,23.0,feminino,right,España,Catalán y Español,Bachelor degree,no,no,B,1,conjunction_un,L1,unsyncopated,s2,r1,73,Online_conjL1_un//b.ta.be0.none.none.wav,fa,fo,ze,sil,pu,ri,zu,sil1,ki,ne,sil2,['-'],,,none,none,,,,be,2,testWhatL2Uns//dep_viol.r2.s2.0.wav,4.0,what,unsyncopated,b,s2,no_rule,dep,L2,m,1.8006,3.0,1.0,1.064,3.0,2.0,Catalán,0.0,Español,0.0,Inglés,5.0,3.0,2.0,yes,no,no,Piano,12,Canto,12,,,nada,67.0,yes
74,2023-10-10_11h58.35.266,Unsyncopated1,s30,23.0,feminino,right,España,Catalán y Español,Bachelor degree,no,no,B,1,conjunction_un,L1,unsyncopated,s1,r1,74,Online_conjL1_un//b.ta.be1.none.none.wav,pu,fa,ne,sil,ki,fo,lu,sil1,cho,la,sil2,['-'],,,none,none,,,,be,2,testWhatL2Uns//r2.s1.2.wav,4.0,what,unsyncopated,b,s1,rule,rule,L2,m,0.864,3.0,0.0,1.3024,3.0,2.0,Catalán,0.0,Español,0.0,Inglés,5.0,3.0,2.0,yes,no,no,Piano,12,Canto,12,,,nada,67.0,yes
75,2023-10-10_11h58.35.266,Unsyncopated1,s30,23.0,feminino,right,España,Catalán y Español,Bachelor degree,no,no,B,1,conjunction_un,L1,unsyncopated,s1,r1,75,Online_conjL1_un//b.ta.be2.none.none.wav,pu,ro,ri,sil,ki,fa,la,sil1,ze,zu,sil2,['-'],,,none,none,,,,be,2,testWhatL2Uns//r2.s2.0.wav,4.0,what,unsyncopated,b,s2,rule,rule,L2,z,0.7952,5.0,1.0,1.8557,3.0,2.0,Catalán,0.0,Español,0.0,Inglés,5.0,3.0,2.0,yes,no,no,Piano,12,Canto,12,,,nada,67.0,yes
76,2023-10-10_11h58.35.266,Unsyncopated1,s30,23.0,feminino,right,España,Catalán y Español,Bachelor degree,no,no,B,1,conjunction_un,L1,unsyncopated,s1,r1,76,Online_conjL1_un//c.ro.fo23.444.1332.wav,pu,ri,ro,sil,ki,ne,fo,sil1,cho,ze,sil2,['false alarm'],[1.0931000000239237],[1.0931000000239237],1.332,no_beat,,,"[""space""]",fo,3,testWhatL2Uns//r1.s1.1.wav,4.0,what,unsyncopated,a,s1,rule,rule,L2,z,0.6037,5.0,1.0,0.9458,3.0,2.0,Catalán,0.0,Español,0.0,Inglés,5.0,3.0,2.0,yes,no,no,Piano,12,Canto,12,,,nada,67.0,yes
77,2023-10-10_11h58.35.266,Unsyncopated1,s30,23.0,feminino,right,España,Catalán y Español,Bachelor degree,no,no,B,1,conjunction_un,L1,unsyncopated,s1,r2,77,Online_conjL1_un//c.ro.fo20.none.none.wav,ta,ri,ni,sil,be,ze,cho,sil1,la,fa,sil2,['-'],,,none,none,,,,fo,3,testWhatL2Uns//dep_viol.r1.s1.0.wav,4.0,what,unsyncopated,a,s1,no_rule,dep,L2,z,0.5487,5.0,0.0,0.5484,3.0,2.0,Catalán,0.0,Español,0.0,Inglés,5.0,3.0,2.0,yes,no,no,Piano,12,Canto,12,,,nada,67.0,yes
78,2023-10-10_11h58.35.266,Unsyncopated1,s30,23.0,feminino,right,España,Catalán y Español,Bachelor degree,no,no,B,1,conjunction_un,L1,unsyncopated,s2,r1,78,Online_conjL1_un//c.ro.fo21.none.none.wav,zu,lu,cho,sil,pu,la,ne,sil1,ki,fa,sil2,['-'],,,none,none,,,,fo,3,testWhatL2Uns//r2.s2.1.wav,4.0,what,unsyncopated,b,s2,rule,rule,L2,z,3.0328,7.0,1.0,0.7186,3.0,2.0,Catalán,0.0,Español,0.0,Inglés,5.0,3.0,2.0,yes,no,no,Piano,12,Canto,12,,,nada,67.0,yes
79,2023-10-10_11h58.35.266,Unsyncopated1,s30,23.0,feminino,right,España,Catalán y Español,Bachelor degree,no,no,B,1,conjunction_un,L1,unsyncopated,s1,r1,79,Online_conjL1_un//c.ro.fo22.444.1332.wav,pu,la,ro,sil,ki,ri,fo,sil1,cho,ni,sil2,['catch'],[2.0026000000236763],[2.0026000000236763],1.332,no_beat,0.6706000000236763,0.6706000000236763,"[""space""]",fo,3,testWhatL2Uns//r1.s2.1.wav,4.0,what,unsyncopated,a,s2,rule,rule,L2,z,0.9842,3.0,1.0,0.8644,3.0,2.0,Catalán,0.0,Español,0.0,Inglés,5.0,3.0,2.0,yes,no,no,Piano,12,Canto,12,,,nada,67.0,yes
80,2023-10-10_11h58.35.266,Unsyncopated1,s30,23.0,feminino,right,España,Catalán y Español,Bachelor degree,no,no,B,1,conjunction_un,L1,unsyncopated,s1,r1,80,Online_conjL1_un//d.ne.ni30.none.none.wav,pu,la,ro,sil,ki,ze,fa,sil1,ri,lu,sil2,['-'],,,none,none,,,,ni,4,testWhatL2Uns//time_viol.r2.s2.0.wav,4.0,what,unsyncopated,b,s2,no_rule,time,L2,z,3.8825,3.0,0.0,0.5875,3.0,2.0,Catalán,0.0,Español,0.0,Inglés,5.0,3.0,2.0,yes,no,no,Piano,12,Canto,12,,,nada,67.0,yes
81,2023-10-10_11h58.35.266,Unsyncopated1,s30,23.0,feminino,right,España,Catalán y Español,Bachelor degree,no,no,B,1,conjunction_un,L1,unsyncopated,s1,r1,81,Online_conjL1_un//d.ne.ni28.none.none.wav,pu,ro,ri,sil,ki,la,zu,sil1,lu,cho,sil2,['-'],,,none,none,,,,ni,4,testWhatL2Uns//r1.s1.2.wav,4.0,what,unsyncopated,a,s1,rule,rule,L2,z,0.5988,5.0,1.0,1.3692,3.0,2.0,Catalán,0.0,Español,0.0,Inglés,5.0,3.0,2.0,yes,no,no,Piano,12,Canto,12,,,nada,67.0,yes
82,2023-10-10_11h58.35.266,Unsyncopated1,s30,23.0,feminino,right,España,Catalán y Español,Bachelor degree,no,no,B,1,conjunction_un,L1,unsyncopated,s1,r2,82,Online_conjL1_un//d.ne.ni31.none.none.wav,ta,ro,cho,sil,be,ri,lu,sil1,fo,fa,sil2,['-'],,,none,none,,,,ni,4,testWhatL2Uns//r1.s2.2.wav,4.0,what,unsyncopated,a,s2,rule,rule,L2,m,0.3971,3.0,0.0,0.7036,3.0,2.0,Catalán,0.0,Español,0.0,Inglés,5.0,3.0,2.0,yes,no,no,Piano,12,Canto,12,,,nada,67.0,yes
83,2023-10-10_11h58.35.266,Unsyncopated1,s30,23.0,feminino,right,España,Catalán y Español,Bachelor degree,no,no,B,1,conjunction_un,L1,unsyncopated,s2,r2,83,Online_conjL1_un//d.ne.ni29.0.444.wav,ne,ro,ni,sil,ta,fa,cho,sil1,be,ri,sil2,['catch'],[0.9747000000477328],[0.9747000000477328],0.444,no_beat,0.5307000000477329,0.5307000000477329,"[""space""]",ni,4,testWhatL2Uns//dep_viol.r2.s1.0.wav,4.0,what,unsyncopated,b,s1,no_rule,dep,L2,z,1.018,7.0,0.0,0.4639,3.0,2.0,Catalán,0.0,Español,0.0,Inglés,5.0,3.0,2.0,yes,no,no,Piano,12,Canto,12,,,nada,67.0,yes
84,2023-10-10_11h58.35.266,Unsyncopated1,s30,23.0,feminino,right,España,Catalán y Español,Bachelor degree,no,no,B,1,conjunction_un,L1,unsyncopated,s2,r2,84,Online_conjL1_un//b.ta.be31.888.1776.wav,la,cho,zu,sil,ta,ne,ri,sil1,be,ze,sil2,['catch'],[2.468499999999949],[2.468499999999949],1.776,beat,0.692499999999949,0.692499999999949,"[""space""]",be,2,testWhatL2Uns//cat_viol.r2.s2.0.wav,4.0,what,unsyncopated,b,s2,no_rule,cat,L2,m,0.463,5.0,1.0,0.7339,3.0,2.0,Catalán,0.0,Español,0.0,Inglés,5.0,3.0,2.0,yes,no,no,Piano,12,Canto,12,,,nada,67.0,yes
85,2023-10-10_11h58.35.266,Unsyncopated1,s30,23.0,feminino,right,España,Catalán y Español,Bachelor degree,no,no,B,1,conjunction_un,L1,unsyncopated,s1,r2,85,Online_conjL1_un//b.ta.be29.0.888.wav,ta,ze,lu,sil,be,la,zu,sil1,fo,fa,sil2,['catch'],[1.4257999999522326],[1.4257999999522326],0.888,beat,0.5377999999522326,0.5377999999522326,"[""space""]",be,2,testWhatL2Uns//time_viol.r1.s1.0.wav,4.0,what,unsyncopated,a,s1,no_rule,time,L2,m,0.3876,5.0,1.0,0.535,3.0,2.0,Catalán,0.0,Español,0.0,Inglés,5.0,3.0,2.0,yes,no,no,Piano,12,Canto,12,,,nada,67.0,yes
86,2023-10-10_11h58.35.266,Unsyncopated1,s30,23.0,feminino,right,España,Catalán y Español,Bachelor degree,no,no,B,1,conjunction_un,L1,unsyncopated,s1,r1,86,Online_conjL1_un//b.ta.be30.none.none.wav,pu,fa,lu,sil,ki,ni,ne,sil1,ri,ro,sil2,['-'],,,none,none,,,,be,2,testWhatL2Uns//r2.s1.1.wav,4.0,what,unsyncopated,b,s1,rule,rule,L2,z,8.1857,3.0,1.0,0.3698,3.0,2.0,Catalán,0.0,Español,0.0,Inglés,5.0,3.0,2.0,yes,no,no,Piano,12,Canto,12,,,nada,67.0,yes
87,2023-10-10_11h58.35.266,Unsyncopated1,s30,23.0,feminino,right,España,Catalán y Español,Bachelor degree,no,no,B,1,conjunction_un,L1,unsyncopated,s1,r2,87,Online_conjL1_un//b.ta.be28.0.888.wav,ta,fo,ni,sil,be,ze,ne,sil1,fa,ri,sil2,['catch'],[1.4081000000239783],[1.4081000000239783],0.888,beat,0.5201000000239783,0.5201000000239783,"[""space""]",be,2,testWhatL2Uns//cat_viol.r1.s1.0.wav,4.0,what,unsyncopated,a,s1,no_rule,cat,L2,m,1.037,2.0,1.0,0.3122,3.0,2.0,Catalán,0.0,Español,0.0,Inglés,5.0,3.0,2.0,yes,no,no,Piano,12,Canto,12,,,nada,67.0,yes
88,2023-10-10_11h58.35.266,Unsyncopated1,s30,23.0,feminino,right,España,Catalán y Español,Bachelor degree,no,no,B,1,conjunction_un,L1,unsyncopated,s1,r1,88,Online_conjL1_un//b.ta.be23.none.none.wav,pu,ro,zu,sil,ki,ze,ni,sil1,fo,ri,sil2,['-'],,,none,none,,,,be,2,testWhatL2Uns//r2.s2.2.wav,4.0,what,unsyncopated,b,s2,rule,rule,L2,m,4.1316,3.0,0.0,0.3552,3.0,2.0,Catalán,0.0,Español,0.0,Inglés,5.0,3.0,2.0,yes,no,no,Piano,12,Canto,12,,,nada,67.0,yes
89,2023-10-10_11h58.35.266,Unsyncopated1,s30,23.0,feminino,right,España,Catalán y Español,Bachelor degree,no,no,B,1,conjunction_un,L1,unsyncopated,s1,r1,89,Online_conjL1_un//b.ta.be20.none.none.wav,pu,ri,ro,sil,ki,ze,ne,sil1,zu,fa,sil2,['-'],,,none,none,,,,be,2,testWhatL2Uns//cat_viol.r1.s2.0.wav,4.0,what,unsyncopated,a,s2,no_rule,cat,L2,z,2.6506,5.0,0.0,0.4815,3.0,2.0,Catalán,0.0,Español,0.0,Inglés,5.0,3.0,2.0,yes,no,no,Piano,12,Canto,12,,,nada,67.0,yes
90,2023-10-10_11h58.35.266,Unsyncopated1,s30,23.0,feminino,right,España,Catalán y Español,Bachelor degree,no,no,B,1,conjunction_un,L1,unsyncopated,s1,r1,90,Online_conjL1_un//b.ta.be22.none.none.wav,pu,ze,fa,sil,ki,zu,cho,sil1,ro,la,sil2,['-'],,,none,none,,,,be,2,testWhatL2Uns//time_viol.r1.s2.0.wav,4.0,what,unsyncopated,a,s2,no_rule,time,L2,m,2.62,3.0,1.0,0.3927,3.0,2.0,Catalán,0.0,Español,0.0,Inglés,5.0,3.0,2.0,yes,no,no,Piano,12,Canto,12,,,nada,67.0,yes
91,2023-10-10_11h58.35.266,Unsyncopated1,s30,23.0,feminino,right,España,Catalán y Español,Bachelor degree,no,no,B,1,conjunction_un,L1,unsyncopated,s1,r2,91,Online_conjL1_un//b.ta.be21.0.888.wav,ta,fo,ri,sil,be,lu,ni,sil1,zu,la,sil2,['catch'],[1.4091000000237273],[1.4091000000237273],0.888,beat,0.5211000000237273,0.5211000000237273,"[""space""]",be,2,testWhatL2Uns//r1.s2.0.wav,4.0,what,unsyncopated,a,s2,rule,rule,L2,z,0.4092,5.0,1.0,0.4251,3.0,2.0,Catalán,0.0,Español,0.0,Inglés,5.0,3.0,2.0,yes,no,no,Piano,12,Canto,12,,,nada,67.0,yes
92,2023-10-10_11h58.35.266,Unsyncopated1,s30,23.0,feminino,right,España,Catalán y Español,Bachelor degree,no,no,B,1,conjunction_un,L1,unsyncopated,s2,r2,92,Online_conjL1_un//c.ro.fo19.none.none.wav,cho,ne,zu,sil,ta,fa,lu,sil1,be,ze,sil2,['-'],,,none,none,,,,fo,3,testWhatL2Uns//r1.s1.0.wav,4.0,what,unsyncopated,a,s1,rule,rule,L2,z,2.6431,4.0,1.0,0.4163,3.0,2.0,Catalán,0.0,Español,0.0,Inglés,5.0,3.0,2.0,yes,no,no,Piano,12,Canto,12,,,nada,67.0,yes
93,2023-10-10_11h58.35.266,Unsyncopated1,s30,23.0,feminino,right,España,Catalán y Español,Bachelor degree,no,no,B,1,conjunction_un,L1,unsyncopated,s1,r2,93,Online_conjL1_un//c.ro.fo16.none.none.wav,ta,lu,fa,sil,be,zu,ze,sil1,ne,cho,sil2,['-'],,,none,none,,,,fo,3,testWhatL2Uns//time_viol.r2.s1.0.wav,4.0,what,unsyncopated,b,s1,no_rule,time,L2,z,0.8808,6.0,0.0,0.5473,3.0,2.0,Catalán,0.0,Español,0.0,Inglés,5.0,3.0,2.0,yes,no,no,Piano,12,Canto,12,,,nada,67.0,yes
94,2023-10-10_11h58.35.266,Unsyncopated1,s30,23.0,feminino,right,España,Catalán y Español,Bachelor degree,no,no,B,1,conjunction_un,L1,unsyncopated,s2,r1,94,Online_conjL1_un//c.ro.fo17.none.none.wav,cho,lu,zu,sil,pu,ze,ni,sil1,ki,la,sil2,['-'],,,none,none,,,,fo,3,testWhatL2Uns//dep_viol.r1.s2.0.wav,4.0,what,unsyncopated,a,s2,no_rule,dep,L2,z,0.5302,6.0,0.0,0.4006,3.0,2.0,Catalán,0.0,Español,0.0,Inglés,5.0,3.0,2.0,yes,no,no,Piano,12,Canto,12,,,nada,67.0,yes
95,2023-10-10_11h58.35.266,Unsyncopated1,s30,23.0,feminino,right,España,Catalán y Español,Bachelor degree,no,no,B,1,conjunction_un,L1,unsyncopated,s1,r2,95,Online_conjL1_un//c.ro.fo18.1776.222.wav,ta,fo,ni,sil,be,cho,zu,sil1,ro,ne,sil2,['catch'],[0.8187000000477838],[0.8187000000477838],0.222,no_beat,0.5967000000477838,0.5967000000477838,"[""space""]",fo,3,testWhatL2Uns//cat_viol.r2.s1.0.wav,4.0,what,unsyncopated,b,s1,no_rule,cat,L2,z,0.3431,5.0,0.0,0.4689,3.0,2.0,Catalán,0.0,Español,0.0,Inglés,5.0,3.0,2.0,yes,no,no,Piano,12,Canto,12,,,nada,67.0,yes
96,2023-10-10_11h58.35.266,Unsyncopated1,s30,23.0,feminino,right,España,Catalán y Español,Bachelor degree,no,no,B,1,conjunction_un,L1,unsyncopated,s2,r2,96,Online_conjL1_un//a.pu.ki19.none.none.wav,ze,fo,cho,sil,ta,fa,lu,sil1,be,ne,sil2,['-'],,,none,none,,,,pu,1,,,,,,,,,,,,,,,3.0,2.0,Catalán,0.0,Español,0.0,Inglés,5.0,3.0,2.0,yes,no,no,Piano,12,Canto,12,,,nada,67.0,yes
97,2023-10-10_11h58.35.266,Unsyncopated1,s30,23.0,feminino,right,España,Catalán y Español,Bachelor degree,no,no,B,1,conjunction_un,L1,unsyncopated,s2,r2,97,Online_conjL1_un//a.pu.ki18.none.none.wav,zu,ro,ze,sil,ta,fa,cho,sil1,be,ne,sil2,['-'],,,none,none,,,,pu,1,,,,,,,,,,,,,,,3.0,2.0,Catalán,0.0,Español,0.0,Inglés,5.0,3.0,2.0,yes,no,no,Piano,12,Canto,12,,,nada,67.0,yes
98,2023-10-10_11h58.35.266,Unsyncopated1,s30,23.0,feminino,right,España,Catalán y Español,Bachelor degree,no,no,B,1,conjunction_un,L1,unsyncopated,s2,r1,98,Online_conjL1_un//a.pu.ki17.888.1776.wav,ne,ro,ze,sil,pu,fo,lu,sil1,ki,zu,sil2,['catch'],[1.2951000000236945],[1.2951000000236945],0.888,beat,0.4071000000236945,0.4071000000236945,"[""space""]",pu,1,,,,,,,,,,,,,,,3.0,2.0,Catalán,0.0,Español,0.0,Inglés,5.0,3.0,2.0,yes,no,no,Piano,12,Canto,12,,,nada,67.0,yes
99,2023-10-10_11h58.35.266,Unsyncopated1,s30,23.0,feminino,right,España,Catalán y Español,Bachelor degree,no,no,B,1,conjunction_un,L1,unsyncopated,s2,r2,99,Online_conjL1_un//a.pu.ki16.none.none.wav,ze,zu,ni,sil,ta,lu,ne,sil1,be,ri,sil2,['-'],,,none,none,,,,pu,1,,,,,,,,,,,,,,,3.0,2.0,Catalán,0.0,Español,0.0,Inglés,5.0,3.0,2.0,yes,no,no,Piano,12,Canto,12,,,nada,67.0,yes
100,2023-10-10_11h58.35.266,Unsyncopated1,s30,23.0,feminino,right,España,Catalán y Español,Bachelor degree,no,no,B,1,conjunction_un,L1,unsyncopated,s2,r1,100,Online_conjL1_un//d.ne.ni10.1110.222.wav,la,ni,cho,sil,pu,ne,lu,sil1,ki,zu,sil2,['catch'],[1.2081000000239328],[1.2081000000239328],0.222,no_beat,0.9861000000239328,0.9861000000239328,"[""space""]",ni,4,,,,,,,,,,,,,,,3.0,2.0,Catalán,0.0,Español,0.0,Inglés,5.0,3.0,2.0,yes,no,no,Piano,12,Canto,12,,,nada,67.0,yes
101,2023-10-10_11h58.35.266,Unsyncopated1,s30,23.0,feminino,right,España,Catalán y Español,Bachelor degree,no,no,B,1,conjunction_un,L1,unsyncopated,s1,r2,101,Online_conjL1_un//d.ne.ni9.none.none.wav,ta,ro,fo,sil,be,zu,cho,sil1,lu,ze,sil2,['-'],,,none,none,,,,ni,4,,,,,,,,,,,,,,,3.0,2.0,Catalán,0.0,Español,0.0,Inglés,5.0,3.0,2.0,yes,no,no,Piano,12,Canto,12,,,nada,67.0,yes
102,2023-10-10_11h58.35.266,Unsyncopated1,s30,23.0,feminino,right,España,Catalán y Español,Bachelor degree,no,no,B,1,conjunction_un,L1,unsyncopated,s1,r2,102,Online_conjL1_un//d.ne.ni8.1776.222.wav,ta,ni,ri,sil,be,zu,lu,sil1,ne,fa,sil2,['catch'],[0.7538999999760563],[0.7538999999760563],0.222,no_beat,0.5318999999760563,0.5318999999760563,"[""space""]",ni,4,,,,,,,,,,,,,,,3.0,2.0,Catalán,0.0,Español,0.0,Inglés,5.0,3.0,2.0,yes,no,no,Piano,12,Canto,12,,,nada,67.0,yes
103,2023-10-10_11h58.35.266,Unsyncopated1,s30,23.0,feminino,right,España,Catalán y Español,Bachelor degree,no,no,B,1,conjunction_un,L1,unsyncopated,s2,r2,103,Online_conjL1_un//d.ne.ni11.none.none.wav,ro,zu,la,sil,ta,ze,cho,sil1,be,fa,sil2,['-'],,,none,none,,,,ni,4,,,,,,,,,,,,,,,3.0,2.0,Catalán,0.0,Español,0.0,Inglés,5.0,3.0,2.0,yes,no,no,Piano,12,Canto,12,,,nada,67.0,yes
104,2023-10-10_11h58.35.266,Unsyncopated1,s30,23.0,feminino,right,España,Catalán y Español,Bachelor degree,no,no,B,1,conjunction_un,L1,unsyncopated,s2,r1,104,Online_conjL1_un//b.ta.be15.none.none.wav,fa,ri,cho,sil,pu,ne,la,sil1,ki,zu,sil2,['-'],,,none,none,,,,be,2,,,,,,,,,,,,,,,3.0,2.0,Catalán,0.0,Español,0.0,Inglés,5.0,3.0,2.0,yes,no,no,Piano,12,Canto,12,,,nada,67.0,yes
105,2023-10-10_11h58.35.266,Unsyncopated1,s30,23.0,feminino,right,España,Catalán y Español,Bachelor degree,no,no,B,1,conjunction_un,L1,unsyncopated,s1,r1,105,Online_conjL1_un//b.ta.be13.none.none.wav,pu,zu,fo,sil,ki,fa,ri,sil1,ro,ne,sil2,['-'],,,none,none,,,,be,2,,,,,,,,,,,,,,,3.0,2.0,Catalán,0.0,Español,0.0,Inglés,5.0,3.0,2.0,yes,no,no,Piano,12,Canto,12,,,nada,67.0,yes
106,2023-10-10_11h58.35.266,Unsyncopated1,s30,23.0,feminino,right,España,Catalán y Español,Bachelor degree,no,no,B,1,conjunction_un,L1,unsyncopated,s1,r2,106,Online_conjL1_un//b.ta.be12.0.888.wav,ta,lu,fa,sil,be,ri,la,sil1,fo,zu,sil2,['catch'],[1.4478999999762436],[1.4478999999762436],0.888,beat,0.5598999999762436,0.5598999999762436,"[""space""]",be,2,,,,,,,,,,,,,,,3.0,2.0,Catalán,0.0,Español,0.0,Inglés,5.0,3.0,2.0,yes,no,no,Piano,12,Canto,12,,,nada,67.0,yes
107,2023-10-10_11h58.35.266,Unsyncopated1,s30,23.0,feminino,right,España,Catalán y Español,Bachelor degree,no,no,B,1,conjunction_un,L1,unsyncopated,s1,r1,107,Online_conjL1_un//b.ta.be14.none.none.wav,pu,ri,la,sil,ki,cho,fo,sil1,lu,ze,sil2,['-'],,,none,none,,,,be,2,,,,,,,,,,,,,,,3.0,2.0,Catalán,0.0,Español,0.0,Inglés,5.0,3.0,2.0,yes,no,no,Piano,12,Canto,12,,,nada,67.0,yes
108,2023-10-10_11h58.35.266,Unsyncopated1,s30,23.0,feminino,right,España,Catalán y Español,Bachelor degree,no,no,B,1,conjunction_un,L1,unsyncopated,s1,r2,108,Online_conjL1_un//d.ne.ni5.1332.444.wav,ta,fa,ni,sil,be,cho,ne,sil1,ri,lu,sil2,['catch'],[0.9565000000000055],[0.9565000000000055],0.444,no_beat,0.5125000000000055,0.5125000000000055,"[""space""]",ni,4,,,,,,,,,,,,,,,3.0,2.0,Catalán,0.0,Español,0.0,Inglés,5.0,3.0,2.0,yes,no,no,Piano,12,Canto,12,,,nada,67.0,yes
109,2023-10-10_11h58.35.266,Unsyncopated1,s30,23.0,feminino,right,España,Catalán y Español,Bachelor degree,no,no,B,1,conjunction_un,L1,unsyncopated,s2,r2,109,Online_conjL1_un//d.ne.ni7.none.none.wav,cho,ro,la,sil,ta,ze,fa,sil1,be,lu,sil2,['-'],,,none,none,,,,ni,4,,,,,,,,,,,,,,,3.0,2.0,Catalán,0.0,Español,0.0,Inglés,5.0,3.0,2.0,yes,no,no,Piano,12,Canto,12,,,nada,67.0,yes
110,2023-10-10_11h58.35.266,Unsyncopated1,s30,23.0,feminino,right,España,Catalán y Español,Bachelor degree,no,no,B,1,conjunction_un,L1,unsyncopated,s1,r2,110,Online_conjL1_un//d.ne.ni4.1110.1332.wav,ta,lu,la,sil,be,ne,ni,sil1,fa,fo,sil2,['catch'],[1.6511999999286218],[1.6511999999286218],1.332,no_beat,0.3191999999286217,0.3191999999286217,"[""space""]",ni,4,,,,,,,,,,,,,,,3.0,2.0,Catalán,0.0,Español,0.0,Inglés,5.0,3.0,2.0,yes,no,no,Piano,12,Canto,12,,,nada,67.0,yes
111,2023-10-10_11h58.35.266,Unsyncopated1,s30,23.0,feminino,right,España,Catalán y Español,Bachelor degree,no,no,B,1,conjunction_un,L1,unsyncopated,s2,r1,111,Online_conjL1_un//d.ne.ni6.0.1110.wav,ne,ro,ze,sil,pu,ni,ri,sil1,ki,zu,sil2,['catch'],[1.7807999999524782],[1.7807999999524782],1.11,no_beat,0.6707999999524781,0.6707999999524781,"[""space""]",ni,4,,,,,,,,,,,,,,,3.0,2.0,Catalán,0.0,Español,0.0,Inglés,5.0,3.0,2.0,yes,no,no,Piano,12,Canto,12,,,nada,67.0,yes
112,2023-10-10_11h58.35.266,Unsyncopated1,s30,23.0,feminino,right,España,Catalán y Español,Bachelor degree,no,no,B,1,conjunction_un,L1,unsyncopated,s2,r2,112,Online_conjL1_un//c.ro.fo25.none.none.wav,ni,cho,fa,sil,ta,zu,la,sil1,be,lu,sil2,['-'],,,none,none,,,,fo,3,,,,,,,,,,,,,,,3.0,2.0,Catalán,0.0,Español,0.0,Inglés,5.0,3.0,2.0,yes,no,no,Piano,12,Canto,12,,,nada,67.0,yes
113,2023-10-10_11h58.35.266,Unsyncopated1,s30,23.0,feminino,right,España,Catalán y Español,Bachelor degree,no,no,B,1,conjunction_un,L1,unsyncopated,s2,r1,113,Online_conjL1_un//c.ro.fo24.none.none.wav,la,lu,cho,sil,pu,fa,ri,sil1,ki,ze,sil2,['-'],,,none,none,,,,fo,3,,,,,,,,,,,,,,,3.0,2.0,Catalán,0.0,Español,0.0,Inglés,5.0,3.0,2.0,yes,no,no,Piano,12,Canto,12,,,nada,67.0,yes
114,2023-10-10_11h58.35.266,Unsyncopated1,s30,23.0,feminino,right,España,Catalán y Español,Bachelor degree,no,no,B,1,conjunction_un,L1,unsyncopated,s1,r1,114,Online_conjL1_un//c.ro.fo27.1332.222.wav,pu,fo,lu,sil,ki,la,ro,sil1,ze,zu,sil2,['catch'],[0.8378999999763437],[0.8378999999763437],0.222,no_beat,0.6158999999763437,0.6158999999763437,"[""space""]",fo,3,,,,,,,,,,,,,,,3.0,2.0,Catalán,0.0,Español,0.0,Inglés,5.0,3.0,2.0,yes,no,no,Piano,12,Canto,12,,,nada,67.0,yes
115,2023-10-10_11h58.35.266,Unsyncopated1,s30,23.0,feminino,right,España,Catalán y Español,Bachelor degree,no,no,B,1,conjunction_un,L1,unsyncopated,s2,r1,115,Online_conjL1_un//c.ro.fo26.1332.0.wav,fo,lu,ne,sil,pu,ri,ro,sil1,ki,ze,sil2,['catch'],[0.9616000000237364],[0.9616000000237364],0.0,beat,0.9616000000237364,0.9616000000237364,"[""space""]",fo,3,,,,,,,,,,,,,,,3.0,2.0,Catalán,0.0,Español,0.0,Inglés,5.0,3.0,2.0,yes,no,no,Piano,12,Canto,12,,,nada,67.0,yes
116,2023-10-10_11h58.35.266,Unsyncopated1,s30,23.0,feminino,right,España,Catalán y Español,Bachelor degree,no,no,B,1,conjunction_un,L1,unsyncopated,s1,r2,116,Online_conjL1_un//c.ro.fo28.444.1110.wav,ta,lu,ro,sil,be,fo,ri,sil1,cho,fa,sil2,['miss'],,,1.11,no_beat,,,,fo,3,,,,,,,,,,,,,,,3.0,2.0,Catalán,0.0,Español,0.0,Inglés,5.0,3.0,2.0,yes,no,no,Piano,12,Canto,12,,,nada,67.0,yes
117,2023-10-10_11h58.35.266,Unsyncopated1,s30,23.0,feminino,right,España,Catalán y Español,Bachelor degree,no,no,B,1,conjunction_un,L1,unsyncopated,s1,r1,117,Online_conjL1_un//c.ro.fo29.1110.1332.wav,pu,fa,ni,sil,ki,ro,fo,sil1,zu,cho,sil2,['catch'],[1.8391999999282689],[1.8391999999282689],1.332,no_beat,0.5071999999282688,0.5071999999282688,"[""space""]",fo,3,,,,,,,,,,,,,,,3.0,2.0,Catalán,0.0,Español,0.0,Inglés,5.0,3.0,2.0,yes,no,no,Piano,12,Canto,12,,,nada,67.0,yes
118,2023-10-10_11h58.35.266,Unsyncopated1,s30,23.0,feminino,right,España,Catalán y Español,Bachelor degree,no,no,B,1,conjunction_un,L1,unsyncopated,s1,r1,118,Online_conjL1_un//c.ro.fo30.none.none.wav,pu,ni,cho,sil,ki,la,lu,sil1,ne,fa,sil2,['-'],,,none,none,,,,fo,3,,,,,,,,,,,,,,,3.0,2.0,Catalán,0.0,Español,0.0,Inglés,5.0,3.0,2.0,yes,no,no,Piano,12,Canto,12,,,nada,67.0,yes
119,2023-10-10_11h58.35.266,Unsyncopated1,s30,23.0,feminino,right,España,Catalán y Español,Bachelor degree,no,no,B,1,conjunction_un,L1,unsyncopated,s2,r2,119,Online_conjL1_un//c.ro.fo31.0.1110.wav,ro,ne,zu,sil,ta,fo,cho,sil1,be,ri,sil2,['catch'],[1.8421999999284253],[1.8421999999284253],1.11,no_beat,0.7321999999284252,0.7321999999284252,"[""space""]",fo,3,,,,,,,,,,,,,,,3.0,2.0,Catalán,0.0,Español,0.0,Inglés,5.0,3.0,2.0,yes,no,no,Piano,12,Canto,12,,,nada,67.0,yes
120,2023-10-10_11h58.35.266,Unsyncopated1,s30,23.0,feminino,right,España,Catalán y Español,Bachelor degree,no,no,B,1,conjunction_un,L1,unsyncopated,s2,r1,120,Online_conjL1_un//b.ta.be18.none.none.wav,ne,ze,ro,sil,pu,la,cho,sil1,ki,lu,sil2,['-'],,,none,none,,,,be,2,,,,,,,,,,,,,,,3.0,2.0,Catalán,0.0,Español,0.0,Inglés,5.0,3.0,2.0,yes,no,no,Piano,12,Canto,12,,,nada,67.0,yes
121,2023-10-10_11h58.35.266,Unsyncopated1,s30,23.0,feminino,right,España,Catalán y Español,Bachelor degree,no,no,B,1,conjunction_un,L1,unsyncopated,s2,r2,121,Online_conjL1_un//b.ta.be19.888.1776.wav,zu,ni,lu,sil,ta,ri,la,sil1,be,ze,sil2,['catch'],[2.358299999952351],[2.358299999952351],1.776,beat,0.5822999999523508,0.5822999999523508,"[""space""]",be,2,,,,,,,,,,,,,,,3.0,2.0,Catalán,0.0,Español,0.0,Inglés,5.0,3.0,2.0,yes,no,no,Piano,12,Canto,12,,,nada,67.0,yes
122,2023-10-10_11h58.35.266,Unsyncopated1,s30,23.0,feminino,right,España,Catalán y Español,Bachelor degree,no,no,B,1,conjunction_un,L1,unsyncopated,s2,r2,122,Online_conjL1_un//b.ta.be16.888.1776.wav,ze,cho,fo,sil,ta,ne,zu,sil1,be,lu,sil2,['miss'],,,1.776,beat,,,,be,2,,,,,,,,,,,,,,,3.0,2.0,Catalán,0.0,Español,0.0,Inglés,5.0,3.0,2.0,yes,no,no,Piano,12,Canto,12,,,nada,67.0,yes
123,2023-10-10_11h58.35.266,Unsyncopated1,s30,23.0,feminino,right,España,Catalán y Español,Bachelor degree,no,no,B,1,conjunction_un,L1,unsyncopated,s2,r2,123,Online_conjL1_un//b.ta.be17.888.1776.wav,ro,zu,ne,sil,ta,ze,fo,sil1,be,ri,sil2,['catch'],[2.2509999999999764],[2.2509999999999764],1.776,beat,0.4749999999999763,0.4749999999999763,"[""space""]",be,2,,,,,,,,,,,,,,,3.0,2.0,Catalán,0.0,Español,0.0,Inglés,5.0,3.0,2.0,yes,no,no,Piano,12,Canto,12,,,nada,67.0,yes
124,2023-10-10_11h58.35.266,Unsyncopated1,s30,23.0,feminino,right,España,Catalán y Español,Bachelor degree,no,no,B,1,conjunction_un,L1,unsyncopated,s1,r1,124,Online_conjL1_un//d.ne.ni22.none.none.wav,pu,cho,la,sil,ki,ro,ze,sil1,ri,lu,sil2,['-'],,,none,none,,,,ni,4,,,,,,,,,,,,,,,3.0,2.0,Catalán,0.0,Español,0.0,Inglés,5.0,3.0,2.0,yes,no,no,Piano,12,Canto,12,,,nada,67.0,yes
125,2023-10-10_11h58.35.266,Unsyncopated1,s30,23.0,feminino,right,España,Catalán y Español,Bachelor degree,no,no,B,1,conjunction_un,L1,unsyncopated,s1,r1,125,Online_conjL1_un//d.ne.ni23.1110.222.wav,pu,ni,ro,sil,ki,ne,lu,sil1,zu,fa,sil2,"['catch', 'false alarm']","[0.676700000047731, 2.1143999999762855]",[0.676700000047731],0.222,no_beat,0.454700000047731,0.454700000047731,"[""space"",""space""]",ni,4,,,,,,,,,,,,,,,3.0,2.0,Catalán,0.0,Español,0.0,Inglés,5.0,3.0,2.0,yes,no,no,Piano,12,Canto,12,,,nada,67.0,yes
126,2023-10-10_11h58.35.266,Unsyncopated1,s30,23.0,feminino,right,España,Catalán y Español,Bachelor degree,no,no,B,1,conjunction_un,L1,unsyncopated,s2,r2,126,Online_conjL1_un//d.ne.ni21.none.none.wav,lu,ro,ze,sil,ta,fo,cho,sil1,be,zu,sil2,['-'],,,none,none,,,,ni,4,,,,,,,,,,,,,,,3.0,2.0,Catalán,0.0,Español,0.0,Inglés,5.0,3.0,2.0,yes,no,no,Piano,12,Canto,12,,,nada,67.0,yes
127,2023-10-10_11h58.35.266,Unsyncopated1,s30,23.0,feminino,right,España,Catalán y Español,Bachelor degree,no,no,B,1,conjunction_un,L1,unsyncopated,s1,r1,127,Online_conjL1_un//d.ne.ni20.1110.1332.wav,pu,ro,fa,sil,ki,ne,ni,sil1,cho,fo,sil2,['catch'],[1.4010000000000673],[1.4010000000000673],1.332,no_beat,0.0690000000000672,0.0690000000000672,"[""space""]",ni,4,,,,,,,,,,,,,,,3.0,2.0,Catalán,0.0,Español,0.0,Inglés,5.0,3.0,2.0,yes,no,no,Piano,12,Canto,12,,,nada,67.0,yes
128,2023-10-10_11h58.35.266,Unsyncopated1,s30,23.0,feminino,right,España,Catalán y Español,Bachelor degree,no,no,B,2,conjunction_syn,L4,syncopated,s1,r1,0,Online_conjL4_syn//d.pe.po9.1554.1110.wav,zi,bo,ci,lo,sil,po,de,pe,sil1,ru,sil2,['catch'],[1.5421000000237655],[1.5421000000237655],1.11,no_beat,0.4321000000237653,0.4321000000237653,"[""space""]",po,4,,,,,,,,,,,,,,,3.0,2.0,Catalán,0.0,Español,0.0,Inglés,5.0,3.0,2.0,yes,no,no,Piano,12,Canto,12,,,nada,67.0,yes
129,2023-10-10_11h58.35.266,Unsyncopated1,s30,23.0,feminino,right,España,Catalán y Español,Bachelor degree,no,no,B,2,conjunction_syn,L4,syncopated,s2,r2,1,Online_conjL4_syn//d.pe.po10.1332.444.wav,bu,ci,po,ja,sil,bo,pe,nu,sil1,de,sil2,['miss'],,,0.444,no_beat,,,,po,4,,,,,,,,,,,,,,,3.0,2.0,Catalán,0.0,Español,0.0,Inglés,5.0,3.0,2.0,yes,no,no,Piano,12,Canto,12,,,nada,67.0,yes
130,2023-10-10_11h58.35.266,Unsyncopated1,s30,23.0,feminino,right,España,Catalán y Español,Bachelor degree,no,no,B,2,conjunction_syn,L4,syncopated,s1,r2,2,Online_conjL4_syn//d.pe.po11.1332.222.wav,ja,po,re,nu,sil,ñi,pe,ña,sil1,ci,sil2,['miss'],,,0.222,no_beat,,,,po,4,,,,,,,,,,,,,,,3.0,2.0,Catalán,0.0,Español,0.0,Inglés,5.0,3.0,2.0,yes,no,no,Piano,12,Canto,12,,,nada,67.0,yes
131,2023-10-10_11h58.35.266,Unsyncopated1,s30,23.0,feminino,right,España,Catalán y Español,Bachelor degree,no,no,B,2,conjunction_syn,L4,syncopated,s1,r2,3,Online_conjL4_syn//d.pe.po8.none.none.wav,ja,re,de,nu,sil,ci,ru,ñi,sil1,bu,sil2,['-'],,,none,none,,,,po,4,,,,,,,,,,,,,,,3.0,2.0,Catalán,0.0,Español,0.0,Inglés,5.0,3.0,2.0,yes,no,no,Piano,12,Canto,12,,,nada,67.0,yes
132,2023-10-10_11h58.35.266,Unsyncopated1,s30,23.0,feminino,right,España,Catalán y Español,Bachelor degree,no,no,B,2,conjunction_syn,L4,syncopated,s2,r1,4,Online_conjL4_syn//d.pe.po12.none.none.wav,bu,de,re,zi,sil,ña,ci,lo,sil1,ñi,sil2,['-'],,,none,none,,,,po,4,,,,,,,,,,,,,,,3.0,2.0,Catalán,0.0,Español,0.0,Inglés,5.0,3.0,2.0,yes,no,no,Piano,12,Canto,12,,,nada,67.0,yes
133,2023-10-10_11h58.35.266,Unsyncopated1,s30,23.0,feminino,right,España,Catalán y Español,Bachelor degree,no,no,B,2,conjunction_syn,L4,syncopated,s1,r2,5,Online_conjL4_syn//d.pe.po14.1110.1332.wav,ja,bo,bu,nu,sil,pe,po,de,sil1,da,sil2,['catch'],[2.144399999976258],[2.144399999976258],1.332,no_beat,0.8123999999762581,0.8123999999762581,"[""space""]",po,4,,,,,,,,,,,,,,,3.0,2.0,Catalán,0.0,Español,0.0,Inglés,5.0,3.0,2.0,yes,no,no,Piano,12,Canto,12,,,nada,67.0,yes
134,2023-10-10_11h58.35.266,Unsyncopated1,s30,23.0,feminino,right,España,Catalán y Español,Bachelor degree,no,no,B,2,conjunction_syn,L4,syncopated,s2,r2,6,Online_conjL4_syn//d.pe.po13.none.none.wav,ci,ru,da,ja,sil,de,ñi,nu,sil1,bu,sil2,['-'],,,none,none,,,,po,4,,,,,,,,,,,,,,,3.0,2.0,Catalán,0.0,Español,0.0,Inglés,5.0,3.0,2.0,yes,no,no,Piano,12,Canto,12,,,nada,67.0,yes
135,2023-10-10_11h58.35.266,Unsyncopated1,s30,23.0,feminino,right,España,Catalán y Español,Bachelor degree,no,no,B,2,conjunction_syn,L4,syncopated,s2,r2,7,Online_conjL4_syn//d.pe.po15.222.1110.wav,ci,pe,de,ja,sil,po,bo,nu,sil1,da,sil2,['catch'],[1.5102999999521671],[1.5102999999521671],1.11,no_beat,0.400299999952167,0.400299999952167,"[""space""]",po,4,,,,,,,,,,,,,,,3.0,2.0,Catalán,0.0,Español,0.0,Inglés,5.0,3.0,2.0,yes,no,no,Piano,12,Canto,12,,,nada,67.0,yes
136,2023-10-10_11h58.35.266,Unsyncopated1,s30,23.0,feminino,right,España,Catalán y Español,Bachelor degree,no,no,B,2,conjunction_syn,L4,syncopated,s1,r2,8,Online_conjL4_syn//d.pe.po31.444.1332.wav,ja,re,pe,nu,sil,de,po,ci,sil1,bo,sil2,['miss'],,,1.332,no_beat,,,,po,4,,,,,,,,,,,,,,,3.0,2.0,Catalán,0.0,Español,0.0,Inglés,5.0,3.0,2.0,yes,no,no,Piano,12,Canto,12,,,nada,67.0,yes
137,2023-10-10_11h58.35.266,Unsyncopated1,s30,23.0,feminino,right,España,Catalán y Español,Bachelor degree,no,no,B,2,conjunction_syn,L4,syncopated,s2,r2,9,Online_conjL4_syn//d.pe.po29.none.none.wav,da,ña,ru,ja,sil,ñi,de,nu,sil1,ci,sil2,['-'],,,none,none,,,,po,4,,,,,,,,,,,,,,,3.0,2.0,Catalán,0.0,Español,0.0,Inglés,5.0,3.0,2.0,yes,no,no,Piano,12,Canto,12,,,nada,67.0,yes
138,2023-10-10_11h58.35.266,Unsyncopated1,s30,23.0,feminino,right,España,Catalán y Español,Bachelor degree,no,no,B,2,conjunction_syn,L4,syncopated,s1,r2,10,Online_conjL4_syn//d.pe.po28.none.none.wav,ja,ru,ña,nu,sil,re,bu,da,sil1,ci,sil2,['-'],,,none,none,,,,po,4,,,,,,,,,,,,,,,3.0,2.0,Catalán,0.0,Español,0.0,Inglés,5.0,3.0,2.0,yes,no,no,Piano,12,Canto,12,,,nada,67.0,yes
139,2023-10-10_11h58.35.266,Unsyncopated1,s30,23.0,feminino,right,España,Catalán y Español,Bachelor degree,no,no,B,2,conjunction_syn,L4,syncopated,s2,r1,11,Online_conjL4_syn//d.pe.po30.444.0.wav,po,ru,pe,zi,sil,bu,ci,lo,sil1,re,sil2,['catch'],[0.4994000000954202],[0.4994000000954202],0.0,beat,0.4994000000954202,0.4994000000954202,"[""space""]",po,4,,,,,,,,,,,,,,,3.0,2.0,Catalán,0.0,Español,0.0,Inglés,5.0,3.0,2.0,yes,no,no,Piano,12,Canto,12,,,nada,67.0,yes
140,2023-10-10_11h58.35.266,Unsyncopated1,s30,23.0,feminino,right,España,Catalán y Español,Bachelor degree,no,no,B,2,conjunction_syn,L4,syncopated,s2,r2,12,Online_conjL4_syn//d.pe.po22.444.1110.wav,de,ru,pe,ja,sil,po,re,nu,sil1,bo,sil2,['catch'],[1.5491000000238273],[1.5491000000238273],1.11,no_beat,0.4391000000238272,0.4391000000238272,"[""space""]",po,4,,,,,,,,,,,,,,,3.0,2.0,Catalán,0.0,Español,0.0,Inglés,5.0,3.0,2.0,yes,no,no,Piano,12,Canto,12,,,nada,67.0,yes
141,2023-10-10_11h58.35.266,Unsyncopated1,s30,23.0,feminino,right,España,Catalán y Español,Bachelor degree,no,no,B,2,conjunction_syn,L4,syncopated,s1,r2,13,Online_conjL4_syn//d.pe.po21.none.none.wav,ja,bo,bu,nu,sil,ci,ña,de,sil1,ru,sil2,['-'],,,none,none,,,,po,4,,,,,,,,,,,,,,,3.0,2.0,Catalán,0.0,Español,0.0,Inglés,5.0,3.0,2.0,yes,no,no,Piano,12,Canto,12,,,nada,67.0,yes
142,2023-10-10_11h58.35.266,Unsyncopated1,s30,23.0,feminino,right,España,Catalán y Español,Bachelor degree,no,no,B,2,conjunction_syn,L4,syncopated,s1,r1,14,Online_conjL4_syn//d.pe.po23.none.none.wav,zi,bo,da,lo,sil,de,ña,ñi,sil1,ru,sil2,['-'],,,none,none,,,,po,4,,,,,,,,,,,,,,,3.0,2.0,Catalán,0.0,Español,0.0,Inglés,5.0,3.0,2.0,yes,no,no,Piano,12,Canto,12,,,nada,67.0,yes
143,2023-10-10_11h58.35.266,Unsyncopated1,s30,23.0,feminino,right,España,Catalán y Español,Bachelor degree,no,no,B,2,conjunction_syn,L4,syncopated,s1,r1,15,Online_conjL4_syn//d.pe.po20.1332.444.wav,zi,ru,po,lo,sil,bo,pe,de,sil1,da,sil2,['miss'],,,0.444,no_beat,,,,po,4,,,,,,,,,,,,,,,3.0,2.0,Catalán,0.0,Español,0.0,Inglés,5.0,3.0,2.0,yes,no,no,Piano,12,Canto,12,,,nada,67.0,yes
144,2023-10-10_11h58.35.266,Unsyncopated1,s30,23.0,feminino,right,España,Catalán y Español,Bachelor degree,no,no,B,2,conjunction_syn,L4,syncopated,s1,r2,16,Online_conjL4_syn//b.ja.nu10.0.666.wav,ja,pe,ñi,nu,sil,bu,ci,de,sil1,ru,sil2,['catch'],[1.1426000000237764],[1.1426000000237764],0.666,no_beat,0.4766000000237763,0.4766000000237763,"[""space""]",nu,2,,,,,,,,,,,,,,,3.0,2.0,Catalán,0.0,Español,0.0,Inglés,5.0,3.0,2.0,yes,no,no,Piano,12,Canto,12,,,nada,67.0,yes
145,2023-10-10_11h58.35.266,Unsyncopated1,s30,23.0,feminino,right,España,Catalán y Español,Bachelor degree,no,no,B,2,conjunction_syn,L4,syncopated,s2,r2,17,Online_conjL4_syn//b.ja.nu8.666.1554.wav,da,bu,de,ja,sil,ci,pe,nu,sil1,re,sil2,['catch'],[2.0428000000715656],[2.0428000000715656],1.554,no_beat,0.4888000000715655,0.4888000000715655,"[""space""]",nu,2,,,,,,,,,,,,,,,3.0,2.0,Catalán,0.0,Español,0.0,Inglés,5.0,3.0,2.0,yes,no,no,Piano,12,Canto,12,,,nada,67.0,yes
146,2023-10-10_11h58.35.266,Unsyncopated1,s30,23.0,feminino,right,España,Catalán y Español,Bachelor degree,no,no,B,2,conjunction_syn,L4,syncopated,s2,r2,18,Online_conjL4_syn//b.ja.nu11.666.1554.wav,de,ru,po,ja,sil,ci,pe,nu,sil1,ña,sil2,['catch'],[2.0190000000000055],[2.0190000000000055],1.554,no_beat,0.4650000000000054,0.4650000000000054,"[""space""]",nu,2,,,,,,,,,,,,,,,3.0,2.0,Catalán,0.0,Español,0.0,Inglés,5.0,3.0,2.0,yes,no,no,Piano,12,Canto,12,,,nada,67.0,yes
147,2023-10-10_11h58.35.266,Unsyncopated1,s30,23.0,feminino,right,España,Catalán y Español,Bachelor degree,no,no,B,2,conjunction_syn,L4,syncopated,s2,r2,19,Online_conjL4_syn//b.ja.nu9.666.1554.wav,bo,ñi,po,ja,sil,da,re,nu,sil1,ru,sil2,['catch'],[2.081900000095402],[2.081900000095402],1.554,no_beat,0.5279000000954019,0.5279000000954019,"[""space""]",nu,2,,,,,,,,,,,,,,,3.0,2.0,Catalán,0.0,Español,0.0,Inglés,5.0,3.0,2.0,yes,no,no,Piano,12,Canto,12,,,nada,67.0,yes
148,2023-10-10_11h58.35.266,Unsyncopated1,s30,23.0,feminino,right,España,Catalán y Español,Bachelor degree,no,no,B,2,conjunction_syn,L4,syncopated,s1,r2,20,Online_conjL4_syn//d.pe.po16.none.none.wav,ja,bo,ci,nu,sil,da,ru,re,sil1,de,sil2,['-'],,,none,none,,,,po,4,,,,,,,,,,,,,,,3.0,2.0,Catalán,0.0,Español,0.0,Inglés,5.0,3.0,2.0,yes,no,no,Piano,12,Canto,12,,,nada,67.0,yes
149,2023-10-10_11h58.35.266,Unsyncopated1,s30,23.0,feminino,right,España,Catalán y Español,Bachelor degree,no,no,B,2,conjunction_syn,L4,syncopated,s2,r1,21,Online_conjL4_syn//d.pe.po19.none.none.wav,da,de,ña,zi,sil,bo,ru,lo,sil1,ñi,sil2,['-'],,,none,none,,,,po,4,,,,,,,,,,,,,,,3.0,2.0,Catalán,0.0,Español,0.0,Inglés,5.0,3.0,2.0,yes,no,no,Piano,12,Canto,12,,,nada,67.0,yes
150,2023-10-10_11h58.35.266,Unsyncopated1,s30,23.0,feminino,right,España,Catalán y Español,Bachelor degree,no,no,B,2,conjunction_syn,L4,syncopated,s2,r2,22,Online_conjL4_syn//d.pe.po17.222.444.wav,bo,pe,po,ja,sil,re,ci,nu,sil1,ru,sil2,['miss'],,,0.444,no_beat,,,,po,4,,,,,,,,,,,,,,,3.0,2.0,Catalán,0.0,Español,0.0,Inglés,5.0,3.0,2.0,yes,no,no,Piano,12,Canto,12,,,nada,67.0,yes
151,2023-10-10_11h58.35.266,Unsyncopated1,s30,23.0,feminino,right,España,Catalán y Español,Bachelor degree,no,no,B,2,conjunction_syn,L4,syncopated,s1,r1,23,Online_conjL4_syn//d.pe.po18.1554.1110.wav,zi,ña,da,lo,sil,po,bo,pe,sil1,ru,sil2,['catch'],[1.6435999999048363],[1.6435999999048363],1.11,no_beat,0.5335999999048362,0.5335999999048362,"[""space""]",po,4,,,,,,,,,,,,,,,3.0,2.0,Catalán,0.0,Español,0.0,Inglés,5.0,3.0,2.0,yes,no,no,Piano,12,Canto,12,,,nada,67.0,yes
152,2023-10-10_11h58.35.266,Unsyncopated1,s30,23.0,feminino,right,España,Catalán y Español,Bachelor degree,no,no,B,2,conjunction_syn,L4,syncopated,s2,r2,24,Online_conjL4_syn//b.ja.nu27.666.1554.wav,ña,po,re,ja,sil,de,bo,nu,sil1,ci,sil2,['catch'],[2.1858999999760726],[2.1858999999760726],1.554,no_beat,0.6318999999760726,0.6318999999760726,"[""space""]",nu,2,,,,,,,,,,,,,,,3.0,2.0,Catalán,0.0,Español,0.0,Inglés,5.0,3.0,2.0,yes,no,no,Piano,12,Canto,12,,,nada,67.0,yes
153,2023-10-10_11h58.35.266,Unsyncopated1,s30,23.0,feminino,right,España,Catalán y Español,Bachelor degree,no,no,B,2,conjunction_syn,L4,syncopated,s1,r1,25,Online_conjL4_syn//b.ja.nu25.none.none.wav,zi,pe,da,lo,sil,re,po,bo,sil1,ci,sil2,['-'],,,none,none,,,,nu,2,,,,,,,,,,,,,,,3.0,2.0,Catalán,0.0,Español,0.0,Inglés,5.0,3.0,2.0,yes,no,no,Piano,12,Canto,12,,,nada,67.0,yes
154,2023-10-10_11h58.35.266,Unsyncopated1,s30,23.0,feminino,right,España,Catalán y Español,Bachelor degree,no,no,B,2,conjunction_syn,L4,syncopated,s2,r2,26,Online_conjL4_syn//b.ja.nu26.666.1554.wav,pe,bu,ña,ja,sil,po,ru,nu,sil1,bo,sil2,"['false alarm', 'catch']","[0.7472000000477692, 1.9763999999761381]",[1.9763999999761381],1.554,no_beat,0.4223999999761381,0.4223999999761381,"[""space"",""space""]",nu,2,,,,,,,,,,,,,,,3.0,2.0,Catalán,0.0,Español,0.0,Inglés,5.0,3.0,2.0,yes,no,no,Piano,12,Canto,12,,,nada,67.0,yes
155,2023-10-10_11h58.35.266,Unsyncopated1,s30,23.0,feminino,right,España,Catalán y Español,Bachelor degree,no,no,B,2,conjunction_syn,L4,syncopated,s2,r1,27,Online_conjL4_syn//b.ja.nu24.none.none.wav,bo,ñi,re,zi,sil,pe,ci,lo,sil1,de,sil2,['-'],,,none,none,,,,nu,2,,,,,,,,,,,,,,,3.0,2.0,Catalán,0.0,Español,0.0,Inglés,5.0,3.0,2.0,yes,no,no,Piano,12,Canto,12,,,nada,67.0,yes
156,2023-10-10_11h58.35.266,Unsyncopated1,s30,23.0,feminino,right,España,Catalán y Español,Bachelor degree,no,no,B,2,conjunction_syn,L4,syncopated,s1,r1,28,Online_conjL4_syn//a.zi.lo2.0.666.wav,zi,ñi,re,lo,sil,bu,ci,bo,sil1,ña,sil2,['catch'],[0.6218000000715165],[0.6218000000715165],0.0,beat,0.6218000000715165,0.6218000000715165,"[""space""]",zi,1,,,,,,,,,,,,,,,3.0,2.0,Catalán,0.0,Español,0.0,Inglés,5.0,3.0,2.0,yes,no,no,Piano,12,Canto,12,,,nada,67.0,yes
157,2023-10-10_11h58.35.266,Unsyncopated1,s30,23.0,feminino,right,España,Catalán y Español,Bachelor degree,no,no,B,2,conjunction_syn,L4,syncopated,s2,r2,29,Online_conjL4_syn//a.zi.lo0.none.none.wav,bu,bo,po,ja,sil,de,ñi,nu,sil1,re,sil2,['-'],,,none,none,,,,zi,1,,,,,,,,,,,,,,,3.0,2.0,Catalán,0.0,Español,0.0,Inglés,5.0,3.0,2.0,yes,no,no,Piano,12,Canto,12,,,nada,67.0,yes
158,2023-10-10_11h58.35.266,Unsyncopated1,s30,23.0,feminino,right,España,Catalán y Español,Bachelor degree,no,no,B,2,conjunction_syn,L4,syncopated,s2,r2,30,Online_conjL4_syn//a.zi.lo3.none.none.wav,po,ci,pe,ja,sil,re,bo,nu,sil1,ña,sil2,['-'],,,none,none,,,,zi,1,,,,,,,,,,,,,,,3.0,2.0,Catalán,0.0,Español,0.0,Inglés,5.0,3.0,2.0,yes,no,no,Piano,12,Canto,12,,,nada,67.0,yes
159,2023-10-10_11h58.35.266,Unsyncopated1,s30,23.0,feminino,right,España,Catalán y Español,Bachelor degree,no,no,B,2,conjunction_syn,L4,syncopated,s1,r2,31,Online_conjL4_syn//a.zi.lo1.none.none.wav,ja,re,ru,nu,sil,de,da,bu,sil1,ñi,sil2,['-'],,,none,none,,,,zi,1,,,,,,,,,,,,,,,3.0,2.0,Catalán,0.0,Español,0.0,Inglés,5.0,3.0,2.0,yes,no,no,Piano,12,Canto,12,,,nada,67.0,yes
160,2023-10-10_11h58.35.266,Unsyncopated1,s30,23.0,feminino,right,España,Catalán y Español,Bachelor degree,no,no,B,2,conjunction_syn,L4,syncopated,s2,r2,32,Online_conjL4_syn//d.pe.po4.none.none.wav,ña,bu,de,ja,sil,re,ci,nu,sil1,bo,sil2,['-'],,,none,none,,,,po,4,,,,,,,,,,,,,,,3.0,2.0,Catalán,0.0,Español,0.0,Inglés,5.0,3.0,2.0,yes,no,no,Piano,12,Canto,12,,,nada,67.0,yes
161,2023-10-10_11h58.35.266,Unsyncopated1,s30,23.0,feminino,right,España,Catalán y Español,Bachelor degree,no,no,B,2,conjunction_syn,L4,syncopated,s2,r1,33,Online_conjL4_syn//d.pe.po5.222.1110.wav,ñi,pe,da,zi,sil,po,ru,lo,sil1,bo,sil2,['catch'],[1.5298999999761236],[1.5298999999761236],1.11,no_beat,0.4198999999761235,0.4198999999761235,"[""space""]",po,4,,,,,,,,,,,,,,,3.0,2.0,Catalán,0.0,Español,0.0,Inglés,5.0,3.0,2.0,yes,no,no,Piano,12,Canto,12,,,nada,67.0,yes
162,2023-10-10_11h58.35.266,Unsyncopated1,s30,23.0,feminino,right,España,Catalán y Español,Bachelor degree,no,no,B,2,conjunction_syn,L4,syncopated,s2,r1,34,Online_conjL4_syn//d.pe.po7.1110.0.wav,po,ñi,de,zi,sil,pe,bu,lo,sil1,ña,sil2,['catch'],[0.6301000000237309],[0.6301000000237309],0.0,beat,0.6301000000237309,0.6301000000237309,"[""space""]",po,4,,,,,,,,,,,,,,,3.0,2.0,Catalán,0.0,Español,0.0,Inglés,5.0,3.0,2.0,yes,no,no,Piano,12,Canto,12,,,nada,67.0,yes
163,2023-10-10_11h58.35.266,Unsyncopated1,s30,23.0,feminino,right,España,Catalán y Español,Bachelor degree,no,no,B,2,conjunction_syn,L4,syncopated,s1,r1,35,Online_conjL4_syn//d.pe.po6.1110.222.wav,zi,po,de,lo,sil,pe,ñi,ru,sil1,ci,sil2,['miss'],,,0.222,no_beat,,,,po,4,,,,,,,,,,,,,,,3.0,2.0,Catalán,0.0,Español,0.0,Inglés,5.0,3.0,2.0,yes,no,no,Piano,12,Canto,12,,,nada,67.0,yes
164,2023-10-10_11h58.35.266,Unsyncopated1,s30,23.0,feminino,right,España,Catalán y Español,Bachelor degree,no,no,B,2,conjunction_syn,L4,syncopated,s1,r1,36,Online_conjL4_syn//d.pe.po26.none.none.wav,zi,bo,ci,lo,sil,de,ña,da,sil1,ru,sil2,['-'],,,none,none,,,,po,4,,,,,,,,,,,,,,,3.0,2.0,Catalán,0.0,Español,0.0,Inglés,5.0,3.0,2.0,yes,no,no,Piano,12,Canto,12,,,nada,67.0,yes
165,2023-10-10_11h58.35.266,Unsyncopated1,s30,23.0,feminino,right,España,Catalán y Español,Bachelor degree,no,no,B,2,conjunction_syn,L4,syncopated,s1,r2,37,Online_conjL4_syn//d.pe.po24.1332.222.wav,ja,po,ña,nu,sil,re,pe,ñi,sil1,ci,sil2,['miss'],,,0.222,no_beat,,,,po,4,,,,,,,,,,,,,,,3.0,2.0,Catalán,0.0,Español,0.0,Inglés,5.0,3.0,2.0,yes,no,no,Piano,12,Canto,12,,,nada,67.0,yes
166,2023-10-10_11h58.35.266,Unsyncopated1,s30,23.0,feminino,right,España,Catalán y Español,Bachelor degree,no,no,B,2,conjunction_syn,L4,syncopated,s1,r1,38,Online_conjL4_syn//d.pe.po27.none.none.wav,zi,bo,ñi,lo,sil,ña,de,ci,sil1,ru,sil2,['-'],,,none,none,,,,po,4,,,,,,,,,,,,,,,3.0,2.0,Catalán,0.0,Español,0.0,Inglés,5.0,3.0,2.0,yes,no,no,Piano,12,Canto,12,,,nada,67.0,yes
167,2023-10-10_11h58.35.266,Unsyncopated1,s30,23.0,feminino,right,España,Catalán y Español,Bachelor degree,no,no,B,2,conjunction_syn,L4,syncopated,s1,r1,39,Online_conjL4_syn//d.pe.po25.none.none.wav,zi,ña,ru,lo,sil,da,re,bu,sil1,ci,sil2,['-'],,,none,none,,,,po,4,,,,,,,,,,,,,,,3.0,2.0,Catalán,0.0,Español,0.0,Inglés,5.0,3.0,2.0,yes,no,no,Piano,12,Canto,12,,,nada,67.0,yes
168,2023-10-10_11h58.35.266,Unsyncopated1,s30,23.0,feminino,right,España,Catalán y Español,Bachelor degree,no,no,B,2,conjunction_syn,L4,syncopated,s2,r2,40,Online_conjL4_syn//c.bu.da16.none.none.wav,po,ci,re,ja,sil,pe,de,nu,sil1,ru,sil2,['-'],,,none,none,,,,da,3,,,,,,,,,,,,,,,3.0,2.0,Catalán,0.0,Español,0.0,Inglés,5.0,3.0,2.0,yes,no,no,Piano,12,Canto,12,,,nada,67.0,yes
169,2023-10-10_11h58.35.266,Unsyncopated1,s30,23.0,feminino,right,España,Catalán y Español,Bachelor degree,no,no,B,2,conjunction_syn,L4,syncopated,s1,r1,41,Online_conjL4_syn//c.bu.da17.none.none.wav,zi,bo,de,lo,sil,po,ña,re,sil1,ci,sil2,['-'],,,none,none,,,,da,3,,,,,,,,,,,,,,,3.0,2.0,Catalán,0.0,Español,0.0,Inglés,5.0,3.0,2.0,yes,no,no,Piano,12,Canto,12,,,nada,67.0,yes
170,2023-10-10_11h58.35.266,Unsyncopated1,s30,23.0,feminino,right,España,Catalán y Español,Bachelor degree,no,no,B,2,conjunction_syn,L4,syncopated,s2,r1,42,Online_conjL4_syn//c.bu.da19.none.none.wav,po,ña,ru,zi,sil,de,pe,lo,sil1,ci,sil2,['-'],,,none,none,,,,da,3,,,,,,,,,,,,,,,3.0,2.0,Catalán,0.0,Español,0.0,Inglés,5.0,3.0,2.0,yes,no,no,Piano,12,Canto,12,,,nada,67.0,yes
171,2023-10-10_11h58.35.266,Unsyncopated1,s30,23.0,feminino,right,España,Catalán y Español,Bachelor degree,no,no,B,2,conjunction_syn,L4,syncopated,s1,r1,43,Online_conjL4_syn//c.bu.da18.1110.1332.wav,zi,bo,ñi,lo,sil,bu,da,de,sil1,po,sil2,['miss'],,,1.332,no_beat,,,,da,3,,,,,,,,,,,,,,,3.0,2.0,Catalán,0.0,Español,0.0,Inglés,5.0,3.0,2.0,yes,no,no,Piano,12,Canto,12,,,nada,67.0,yes
172,2023-10-10_11h58.35.266,Unsyncopated1,s30,23.0,feminino,right,España,Catalán y Español,Bachelor degree,no,no,B,2,conjunction_syn,L4,syncopated,s2,r1,44,Online_conjL4_syn//b.ja.nu30.none.none.wav,ci,ña,ru,zi,sil,bo,pe,lo,sil1,bu,sil2,['-'],,,none,none,,,,nu,2,,,,,,,,,,,,,,,3.0,2.0,Catalán,0.0,Español,0.0,Inglés,5.0,3.0,2.0,yes,no,no,Piano,12,Canto,12,,,nada,67.0,yes
173,2023-10-10_11h58.35.266,Unsyncopated1,s30,23.0,feminino,right,España,Catalán y Español,Bachelor degree,no,no,B,2,conjunction_syn,L4,syncopated,s2,r2,45,Online_conjL4_syn//b.ja.nu31.666.1554.wav,po,ru,ña,ja,sil,da,ci,nu,sil1,re,sil2,['miss'],,,1.554,no_beat,,,,nu,2,,,,,,,,,,,,,,,3.0,2.0,Catalán,0.0,Español,0.0,Inglés,5.0,3.0,2.0,yes,no,no,Piano,12,Canto,12,,,nada,67.0,yes
174,2023-10-10_11h58.35.266,Unsyncopated1,s30,23.0,feminino,right,España,Catalán y Español,Bachelor degree,no,no,B,2,conjunction_syn,L4,syncopated,s1,r1,46,Online_conjL4_syn//b.ja.nu28.none.none.wav,zi,ña,bu,lo,sil,re,de,ci,sil1,pe,sil2,['-'],,,none,none,,,,nu,2,,,,,,,,,,,,,,,3.0,2.0,Catalán,0.0,Español,0.0,Inglés,5.0,3.0,2.0,yes,no,no,Piano,12,Canto,12,,,nada,67.0,yes
175,2023-10-10_11h58.35.266,Unsyncopated1,s30,23.0,feminino,right,España,Catalán y Español,Bachelor degree,no,no,B,2,conjunction_syn,L4,syncopated,s2,r1,47,Online_conjL4_syn//b.ja.nu29.none.none.wav,da,po,ña,zi,sil,pe,re,lo,sil1,bo,sil2,['-'],,,none,none,,,,nu,2,,,,,,,,,,,,,,,3.0,2.0,Catalán,0.0,Español,0.0,Inglés,5.0,3.0,2.0,yes,no,no,Piano,12,Canto,12,,,nada,67.0,yes
176,2023-10-10_11h58.35.266,Unsyncopated1,s30,23.0,feminino,right,España,Catalán y Español,Bachelor degree,no,no,B,2,conjunction_syn,L4,syncopated,s1,r1,48,Online_conjL4_syn//b.ja.nu7.none.none.wav,zi,po,pe,lo,sil,ci,bu,ñi,sil1,ru,sil2,['-'],,,none,none,,,,nu,2,,,,,,,,,,,,,,,3.0,2.0,Catalán,0.0,Español,0.0,Inglés,5.0,3.0,2.0,yes,no,no,Piano,12,Canto,12,,,nada,67.0,yes
177,2023-10-10_11h58.35.266,Unsyncopated1,s30,23.0,feminino,right,España,Catalán y Español,Bachelor degree,no,no,B,2,conjunction_syn,L4,syncopated,s2,r1,49,Online_conjL4_syn//b.ja.nu6.none.none.wav,ña,po,ru,zi,sil,ñi,re,lo,sil1,bo,sil2,['-'],,,none,none,,,,nu,2,,,,,,,,,,,,,,,3.0,2.0,Catalán,0.0,Español,0.0,Inglés,5.0,3.0,2.0,yes,no,no,Piano,12,Canto,12,,,nada,67.0,yes
178,2023-10-10_11h58.35.266,Unsyncopated1,s30,23.0,feminino,right,España,Catalán y Español,Bachelor degree,no,no,B,2,conjunction_syn,L4,syncopated,s1,r2,50,Online_conjL4_syn//b.ja.nu4.0.666.wav,ja,re,ru,nu,sil,po,pe,da,sil1,ñi,sil2,['catch'],[1.2231999999285108],[1.2231999999285108],0.666,no_beat,0.5571999999285108,0.5571999999285108,"[""space""]",nu,2,,,,,,,,,,,,,,,3.0,2.0,Catalán,0.0,Español,0.0,Inglés,5.0,3.0,2.0,yes,no,no,Piano,12,Canto,12,,,nada,67.0,yes
179,2023-10-10_11h58.35.266,Unsyncopated1,s30,23.0,feminino,right,España,Catalán y Español,Bachelor degree,no,no,B,2,conjunction_syn,L4,syncopated,s1,r1,51,Online_conjL4_syn//b.ja.nu5.none.none.wav,zi,bo,pe,lo,sil,po,re,da,sil1,ñi,sil2,['-'],,,none,none,,,,nu,2,,,,,,,,,,,,,,,3.0,2.0,Catalán,0.0,Español,0.0,Inglés,5.0,3.0,2.0,yes,no,no,Piano,12,Canto,12,,,nada,67.0,yes
180,2023-10-10_11h58.35.266,Unsyncopated1,s30,23.0,feminino,right,España,Catalán y Español,Bachelor degree,no,no,B,2,conjunction_syn,L4,syncopated,s2,r1,52,Online_conjL4_syn//c.bu.da9.444.1110.wav,pe,re,bu,zi,sil,da,po,lo,sil1,de,sil2,['catch'],[1.6420000000000528],[1.6420000000000528],1.11,no_beat,0.5320000000000527,0.5320000000000527,"[""space""]",da,3,,,,,,,,,,,,,,,3.0,2.0,Catalán,0.0,Español,0.0,Inglés,5.0,3.0,2.0,yes,no,no,Piano,12,Canto,12,,,nada,67.0,yes
181,2023-10-10_11h58.35.266,Unsyncopated1,s30,23.0,feminino,right,España,Catalán y Español,Bachelor degree,no,no,B,2,conjunction_syn,L4,syncopated,s1,r2,53,Online_conjL4_syn//c.bu.da8.222.444.wav,ja,bu,da,nu,sil,re,ru,ñi,sil1,de,sil2,['miss'],,,0.444,no_beat,,,,da,3,,,,,,,,,,,,,,,3.0,2.0,Catalán,0.0,Español,0.0,Inglés,5.0,3.0,2.0,yes,no,no,Piano,12,Canto,12,,,nada,67.0,yes
182,2023-10-10_11h58.35.266,Unsyncopated1,s30,23.0,feminino,right,España,Catalán y Español,Bachelor degree,no,no,B,2,conjunction_syn,L4,syncopated,s1,r1,54,Online_conjL4_syn//c.bu.da11.1332.222.wav,zi,da,po,lo,sil,bo,bu,ci,sil1,pe,sil2,['miss'],,,0.222,no_beat,,,,da,3,,,,,,,,,,,,,,,3.0,2.0,Catalán,0.0,Español,0.0,Inglés,5.0,3.0,2.0,yes,no,no,Piano,12,Canto,12,,,nada,67.0,yes
183,2023-10-10_11h58.35.266,Unsyncopated1,s30,23.0,feminino,right,España,Catalán y Español,Bachelor degree,no,no,B,2,conjunction_syn,L4,syncopated,s1,r2,55,Online_conjL4_syn//c.bu.da10.none.none.wav,ja,de,bo,nu,sil,ñi,ru,po,sil1,pe,sil2,['-'],,,none,none,,,,da,3,,,,,,,,,,,,,,,3.0,2.0,Catalán,0.0,Español,0.0,Inglés,5.0,3.0,2.0,yes,no,no,Piano,12,Canto,12,,,nada,67.0,yes
184,2023-10-10_11h58.35.266,Unsyncopated1,s30,23.0,feminino,right,España,Catalán y Español,Bachelor degree,no,no,B,2,conjunction_syn,L4,syncopated,s2,r2,56,Online_conjL4_syn//a.zi.lo29.none.none.wav,ña,da,re,ja,sil,ci,po,nu,sil1,ru,sil2,['-'],,,none,none,,,,zi,1,,,,,,,,,,,,,,,3.0,2.0,Catalán,0.0,Español,0.0,Inglés,5.0,3.0,2.0,yes,no,no,Piano,12,Canto,12,,,nada,67.0,yes
185,2023-10-10_11h58.35.266,Unsyncopated1,s30,23.0,feminino,right,España,Catalán y Español,Bachelor degree,no,no,B,2,conjunction_syn,L4,syncopated,s1,r2,57,Online_conjL4_syn//a.zi.lo28.none.none.wav,ja,pe,bu,nu,sil,ña,ñi,bo,sil1,ru,sil2,['-'],,,none,none,,,,zi,1,,,,,,,,,,,,,,,3.0,2.0,Catalán,0.0,Español,0.0,Inglés,5.0,3.0,2.0,yes,no,no,Piano,12,Canto,12,,,nada,67.0,yes
186,2023-10-10_11h58.35.266,Unsyncopated1,s30,23.0,feminino,right,España,Catalán y Español,Bachelor degree,no,no,B,2,conjunction_syn,L4,syncopated,s1,r1,58,Online_conjL4_syn//a.zi.lo30.0.666.wav,zi,ñi,ru,lo,sil,bu,bo,ña,sil1,de,sil2,['catch'],[0.47589999997603627],[0.47589999997603627],0.0,beat,0.4758999999760362,0.4758999999760362,"[""space""]",zi,1,,,,,,,,,,,,,,,3.0,2.0,Catalán,0.0,Español,0.0,Inglés,5.0,3.0,2.0,yes,no,no,Piano,12,Canto,12,,,nada,67.0,yes
187,2023-10-10_11h58.35.266,Unsyncopated1,s30,23.0,feminino,right,España,Catalán y Español,Bachelor degree,no,no,B,2,conjunction_syn,L4,syncopated,s2,r2,59,Online_conjL4_syn//a.zi.lo31.none.none.wav,bo,ru,ci,ja,sil,po,da,nu,sil1,bu,sil2,['-'],,,none,none,,,,zi,1,,,,,,,,,,,,,,,3.0,2.0,Catalán,0.0,Español,0.0,Inglés,5.0,3.0,2.0,yes,no,no,Piano,12,Canto,12,,,nada,67.0,yes
188,2023-10-10_11h58.35.266,Unsyncopated1,s30,23.0,feminino,right,España,Catalán y Español,Bachelor degree,no,no,B,2,conjunction_syn,L4,syncopated,s2,r1,60,Online_conjL4_syn//c.bu.da4.none.none.wav,pe,re,ru,zi,sil,ci,bo,lo,sil1,po,sil2,['-'],,,none,none,,,,da,3,,,,,,,,,,,,,,,3.0,2.0,Catalán,0.0,Español,0.0,Inglés,5.0,3.0,2.0,yes,no,no,Piano,12,Canto,12,,,nada,67.0,yes
189,2023-10-10_11h58.35.266,Unsyncopated1,s30,23.0,feminino,right,España,Catalán y Español,Bachelor degree,no,no,B,2,conjunction_syn,L4,syncopated,s2,r1,61,Online_conjL4_syn//c.bu.da7.0.444.wav,bu,re,da,zi,sil,ña,po,lo,sil1,ñi,sil2,['miss'],,,0.444,no_beat,,,,da,3,,,,,,,,,,,,,,,3.0,2.0,Catalán,0.0,Español,0.0,Inglés,5.0,3.0,2.0,yes,no,no,Piano,12,Canto,12,,,nada,67.0,yes
190,2023-10-10_11h58.35.266,Unsyncopated1,s30,23.0,feminino,right,España,Catalán y Español,Bachelor degree,no,no,B,2,conjunction_syn,L4,syncopated,s1,r1,62,Online_conjL4_syn//c.bu.da5.222.1110.wav,zi,bu,ru,lo,sil,da,re,pe,sil1,ña,sil2,['catch'],[1.76949999999988],[1.76949999999988],1.11,no_beat,0.6594999999998798,0.6594999999998798,"[""space""]",da,3,,,,,,,,,,,,,,,3.0,2.0,Catalán,0.0,Español,0.0,Inglés,5.0,3.0,2.0,yes,no,no,Piano,12,Canto,12,,,nada,67.0,yes
191,2023-10-10_11h58.35.266,Unsyncopated1,s30,23.0,feminino,right,España,Catalán y Español,Bachelor degree,no,no,B,2,conjunction_syn,L4,syncopated,s2,r1,63,Online_conjL4_syn//c.bu.da6.none.none.wav,pe,ci,ru,zi,sil,bo,po,lo,sil1,de,sil2,['-'],,,none,none,,,,da,3,,,,,,,,,,,,,,,3.0,2.0,Catalán,0.0,Español,0.0,Inglés,5.0,3.0,2.0,yes,no,no,Piano,12,Canto,12,,,nada,67.0,yes
192,2023-10-10_11h58.35.266,Unsyncopated1,s30,23.0,feminino,right,España,Catalán y Español,Bachelor degree,no,no,B,2,conjunction_syn,L4,syncopated,s2,r2,64,Online_conjL4_syn//c.bu.da23.444.1110.wav,ña,re,bu,ja,sil,da,de,nu,sil1,ci,sil2,['catch'],[1.7423999999762145],[1.7423999999762145],1.11,no_beat,0.6323999999762144,0.6323999999762144,"[""space""]",da,3,,,,,,,,,,,,,,,3.0,2.0,Catalán,0.0,Español,0.0,Inglés,5.0,3.0,2.0,yes,no,no,Piano,12,Canto,12,,,nada,67.0,yes
193,2023-10-10_11h58.35.266,Unsyncopated1,s30,23.0,feminino,right,España,Catalán y Español,Bachelor degree,no,no,B,2,conjunction_syn,L4,syncopated,s2,r2,65,Online_conjL4_syn//c.bu.da21.none.none.wav,ña,re,po,ja,sil,de,ñi,nu,sil1,ru,sil2,['-'],,,none,none,,,,da,3,,,,,,,,,,,,,,,3.0,2.0,Catalán,0.0,Español,0.0,Inglés,5.0,3.0,2.0,yes,no,no,Piano,12,Canto,12,,,nada,67.0,yes
194,2023-10-10_11h58.35.266,Unsyncopated1,s30,23.0,feminino,right,España,Catalán y Español,Bachelor degree,no,no,B,2,conjunction_syn,L4,syncopated,s1,r2,66,Online_conjL4_syn//c.bu.da20.444.1332.wav,ja,pe,bu,nu,sil,ci,da,re,sil1,ru,sil2,['miss'],,,1.332,no_beat,,,,da,3,,,,,,,,,,,,,,,3.0,2.0,Catalán,0.0,Español,0.0,Inglés,5.0,3.0,2.0,yes,no,no,Piano,12,Canto,12,,,nada,67.0,yes
195,2023-10-10_11h58.35.266,Unsyncopated1,s30,23.0,feminino,right,España,Catalán y Español,Bachelor degree,no,no,B,2,conjunction_syn,L4,syncopated,s2,r1,67,Online_conjL4_syn//c.bu.da22.0.222.wav,bu,da,bo,zi,sil,re,ru,lo,sil1,ñi,sil2,['miss'],,,0.222,no_beat,,,,da,3,,,,,,,,,,,,,,,3.0,2.0,Catalán,0.0,Español,0.0,Inglés,5.0,3.0,2.0,yes,no,no,Piano,12,Canto,12,,,nada,67.0,yes
196,2023-10-10_11h58.35.266,Unsyncopated1,s30,23.0,feminino,right,España,Catalán y Español,Bachelor degree,no,no,B,2,conjunction_syn,L4,syncopated,s2,r1,68,Online_conjL4_syn//c.bu.da13.none.none.wav,ci,ñi,ña,zi,sil,ru,re,lo,sil1,po,sil2,['-'],,,none,none,,,,da,3,,,,,,,,,,,,,,,3.0,2.0,Catalán,0.0,Español,0.0,Inglés,5.0,3.0,2.0,yes,no,no,Piano,12,Canto,12,,,nada,67.0,yes
197,2023-10-10_11h58.35.266,Unsyncopated1,s30,23.0,feminino,right,España,Catalán y Español,Bachelor degree,no,no,B,2,conjunction_syn,L4,syncopated,s2,r2,69,Online_conjL4_syn//c.bu.da15.222.444.wav,de,bu,da,ja,sil,ci,bo,nu,sil1,re,sil2,['miss'],,,0.444,no_beat,,,,da,3,,,,,,,,,,,,,,,3.0,2.0,Catalán,0.0,Español,0.0,Inglés,5.0,3.0,2.0,yes,no,no,Piano,12,Canto,12,,,nada,67.0,yes
198,2023-10-10_11h58.35.266,Unsyncopated1,s30,23.0,feminino,right,España,Catalán y Español,Bachelor degree,no,no,B,2,conjunction_syn,L4,syncopated,s2,r2,70,Online_conjL4_syn//c.bu.da14.none.none.wav,ci,ñi,pe,ja,sil,ru,re,nu,sil1,ña,sil2,['-'],,,none,none,,,,da,3,,,,,,,,,,,,,,,3.0,2.0,Catalán,0.0,Español,0.0,Inglés,5.0,3.0,2.0,yes,no,no,Piano,12,Canto,12,,,nada,67.0,yes
199,2023-10-10_11h58.35.266,Unsyncopated1,s30,23.0,feminino,right,España,Catalán y Español,Bachelor degree,no,no,B,2,conjunction_syn,L4,syncopated,s1,r1,71,Online_conjL4_syn//c.bu.da12.1110.1332.wav,zi,ci,ña,lo,sil,bu,da,pe,sil1,po,sil2,['miss'],,,1.332,no_beat,,,,da,3,,,,,,,,,,,,,,,3.0,2.0,Catalán,0.0,Español,0.0,Inglés,5.0,3.0,2.0,yes,no,no,Piano,12,Canto,12,,,nada,67.0,yes
200,2023-10-10_11h58.35.266,Unsyncopated1,s30,23.0,feminino,right,España,Catalán y Español,Bachelor degree,no,no,B,2,conjunction_syn,L4,syncopated,s1,r1,72,Online_conjL4_syn//a.zi.lo25.0.666.wav,zi,po,ci,lo,sil,re,da,ru,sil1,pe,sil2,['catch'],[0.6401000000239492],[0.6401000000239492],0.0,beat,0.6401000000239492,0.6401000000239492,"[""space""]",zi,1,,,,,,,,,,,,,,,3.0,2.0,Catalán,0.0,Español,0.0,Inglés,5.0,3.0,2.0,yes,no,no,Piano,12,Canto,12,,,nada,67.0,yes
201,2023-10-10_11h58.35.266,Unsyncopated1,s30,23.0,feminino,right,España,Catalán y Español,Bachelor degree,no,no,B,2,conjunction_syn,L4,syncopated,s1,r2,73,Online_conjL4_syn//a.zi.lo27.none.none.wav,ja,re,bo,nu,sil,bu,pe,ru,sil1,ñi,sil2,['-'],,,none,none,,,,zi,1,,,,,,,,,,,,,,,3.0,2.0,Catalán,0.0,Español,0.0,Inglés,5.0,3.0,2.0,yes,no,no,Piano,12,Canto,12,,,nada,67.0,yes
202,2023-10-10_11h58.35.266,Unsyncopated1,s30,23.0,feminino,right,España,Catalán y Español,Bachelor degree,no,no,B,2,conjunction_syn,L4,syncopated,s1,r1,74,Online_conjL4_syn//a.zi.lo26.0.666.wav,zi,bu,po,lo,sil,bo,da,re,sil1,pe,sil2,['catch'],[0.5312999999521253],[0.5312999999521253],0.0,beat,0.5312999999521253,0.5312999999521253,"[""space""]",zi,1,,,,,,,,,,,,,,,3.0,2.0,Catalán,0.0,Español,0.0,Inglés,5.0,3.0,2.0,yes,no,no,Piano,12,Canto,12,,,nada,67.0,yes
203,2023-10-10_11h58.35.266,Unsyncopated1,s30,23.0,feminino,right,España,Catalán y Español,Bachelor degree,no,no,B,2,conjunction_syn,L4,syncopated,s2,r2,75,Online_conjL4_syn//a.zi.lo24.none.none.wav,ñi,po,de,ja,sil,pe,ci,nu,sil1,bo,sil2,['-'],,,none,none,,,,zi,1,,,,,,,,,,,,,,,3.0,2.0,Catalán,0.0,Español,0.0,Inglés,5.0,3.0,2.0,yes,no,no,Piano,12,Canto,12,,,nada,67.0,yes
204,2023-10-10_11h58.35.266,Unsyncopated1,s30,23.0,feminino,right,España,Catalán y Español,Bachelor degree,no,no,B,2,conjunction_syn,L4,syncopated,s1,r1,76,Online_conjL4_syn//a.zi.lo8.0.666.wav,zi,pe,re,lo,sil,ña,bo,bu,sil1,de,sil2,['catch'],[0.46910000002390007],[0.46910000002390007],0.0,beat,0.4691000000239,0.4691000000239,"[""space""]",zi,1,,,,,,,,,,,,,,,3.0,2.0,Catalán,0.0,Español,0.0,Inglés,5.0,3.0,2.0,yes,no,no,Piano,12,Canto,12,,,nada,67.0,yes
205,2023-10-10_11h58.35.266,Unsyncopated1,s30,23.0,feminino,right,España,Catalán y Español,Bachelor degree,no,no,B,2,conjunction_syn,L4,syncopated,s2,r1,77,Online_conjL4_syn//a.zi.lo11.666.1554.wav,bu,ru,ci,zi,sil,po,de,lo,sil1,da,sil2,['catch'],[1.2472999999522472],[1.2472999999522472],0.666,no_beat,0.5812999999522471,0.5812999999522471,"[""space""]",zi,1,,,,,,,,,,,,,,,3.0,2.0,Catalán,0.0,Español,0.0,Inglés,5.0,3.0,2.0,yes,no,no,Piano,12,Canto,12,,,nada,67.0,yes
206,2023-10-10_11h58.35.266,Unsyncopated1,s30,23.0,feminino,right,España,Catalán y Español,Bachelor degree,no,no,B,2,conjunction_syn,L4,syncopated,s2,r1,78,Online_conjL4_syn//a.zi.lo9.666.1554.wav,po,ci,bu,zi,sil,de,ña,lo,sil1,ñi,sil2,['catch'],[1.1679999999998927],[1.1679999999998927],0.666,no_beat,0.5019999999998926,0.5019999999998926,"[""space""]",zi,1,,,,,,,,,,,,,,,3.0,2.0,Catalán,0.0,Español,0.0,Inglés,5.0,3.0,2.0,yes,no,no,Piano,12,Canto,12,,,nada,67.0,yes
207,2023-10-10_11h58.35.266,Unsyncopated1,s30,23.0,feminino,right,España,Catalán y Español,Bachelor degree,no,no,B,2,conjunction_syn,L4,syncopated,s1,r2,79,Online_conjL4_syn//a.zi.lo10.none.none.wav,ja,bu,de,nu,sil,re,ci,bo,sil1,ña,sil2,['-'],,,none,none,,,,zi,1,,,,,,,,,,,,,,,3.0,2.0,Catalán,0.0,Español,0.0,Inglés,5.0,3.0,2.0,yes,no,no,Piano,12,Canto,12,,,nada,67.0,yes
208,2023-10-10_11h58.35.266,Unsyncopated1,s30,23.0,feminino,right,España,Catalán y Español,Bachelor degree,no,no,B,2,conjunction_syn,L4,syncopated,s2,r2,80,Online_conjL4_syn//c.bu.da2.0.222.wav,bu,da,ñi,ja,sil,pe,re,nu,sil1,bo,sil2,['miss'],,,0.222,no_beat,,,,da,3,,,,,,,,,,,,,,,3.0,2.0,Catalán,0.0,Español,0.0,Inglés,5.0,3.0,2.0,yes,no,no,Piano,12,Canto,12,,,nada,67.0,yes
209,2023-10-10_11h58.35.266,Unsyncopated1,s30,23.0,feminino,right,España,Catalán y Español,Bachelor degree,no,no,B,2,conjunction_syn,L4,syncopated,s1,r2,81,Online_conjL4_syn//c.bu.da1.none.none.wav,ja,po,pe,nu,sil,ñi,ru,bo,sil1,ci,sil2,['-'],,,none,none,,,,da,3,,,,,,,,,,,,,,,3.0,2.0,Catalán,0.0,Español,0.0,Inglés,5.0,3.0,2.0,yes,no,no,Piano,12,Canto,12,,,nada,67.0,yes
210,2023-10-10_11h58.35.266,Unsyncopated1,s30,23.0,feminino,right,España,Catalán y Español,Bachelor degree,no,no,B,2,conjunction_syn,L4,syncopated,s1,r2,82,Online_conjL4_syn//c.bu.da0.none.none.wav,ja,bo,re,nu,sil,ñi,ña,pe,sil1,ci,sil2,['-'],,,none,none,,,,da,3,,,,,,,,,,,,,,,3.0,2.0,Catalán,0.0,Español,0.0,Inglés,5.0,3.0,2.0,yes,no,no,Piano,12,Canto,12,,,nada,67.0,yes
211,2023-10-10_11h58.35.266,Unsyncopated1,s30,23.0,feminino,right,España,Catalán y Español,Bachelor degree,no,no,B,2,conjunction_syn,L4,syncopated,s2,r2,83,Online_conjL4_syn//c.bu.da3.0.444.wav,bu,ci,da,ja,sil,pe,po,nu,sil1,bo,sil2,['miss'],,,0.444,no_beat,,,,da,3,,,,,,,,,,,,,,,3.0,2.0,Catalán,0.0,Español,0.0,Inglés,5.0,3.0,2.0,yes,no,no,Piano,12,Canto,12,,,nada,67.0,yes
212,2023-10-10_11h58.35.266,Unsyncopated1,s30,23.0,feminino,right,España,Catalán y Español,Bachelor degree,no,no,B,2,conjunction_syn,L4,syncopated,s1,r1,84,Online_conjL4_syn//b.ja.nu21.none.none.wav,zi,ñi,ru,lo,sil,da,ci,po,sil1,re,sil2,['-'],,,none,none,,,,nu,2,,,,,,,,,,,,,,,3.0,2.0,Catalán,0.0,Español,0.0,Inglés,5.0,3.0,2.0,yes,no,no,Piano,12,Canto,12,,,nada,67.0,yes
213,2023-10-10_11h58.35.266,Unsyncopated1,s30,23.0,feminino,right,España,Catalán y Español,Bachelor degree,no,no,B,2,conjunction_syn,L4,syncopated,s1,r2,85,Online_conjL4_syn//b.ja.nu20.0.666.wav,ja,bu,po,nu,sil,da,ña,ru,sil1,ci,sil2,['catch'],[1.24510000002374],[1.24510000002374],0.666,no_beat,0.57910000002374,0.57910000002374,"[""space""]",nu,2,,,,,,,,,,,,,,,3.0,2.0,Catalán,0.0,Español,0.0,Inglés,5.0,3.0,2.0,yes,no,no,Piano,12,Canto,12,,,nada,67.0,yes
214,2023-10-10_11h58.35.266,Unsyncopated1,s30,23.0,feminino,right,España,Catalán y Español,Bachelor degree,no,no,B,2,conjunction_syn,L4,syncopated,s1,r1,86,Online_conjL4_syn//b.ja.nu22.none.none.wav,zi,ñi,re,lo,sil,bu,po,pe,sil1,ña,sil2,['-'],,,none,none,,,,nu,2,,,,,,,,,,,,,,,3.0,2.0,Catalán,0.0,Español,0.0,Inglés,5.0,3.0,2.0,yes,no,no,Piano,12,Canto,12,,,nada,67.0,yes
215,2023-10-10_11h58.35.266,Unsyncopated1,s30,23.0,feminino,right,España,Catalán y Español,Bachelor degree,no,no,B,2,conjunction_syn,L4,syncopated,s1,r2,87,Online_conjL4_syn//b.ja.nu23.0.666.wav,ja,bu,da,nu,sil,po,ña,pe,sil1,ru,sil2,['catch'],[1.1776000000236309],[1.1776000000236309],0.666,no_beat,0.5116000000236308,0.5116000000236308,"[""space""]",nu,2,,,,,,,,,,,,,,,3.0,2.0,Catalán,0.0,Español,0.0,Inglés,5.0,3.0,2.0,yes,no,no,Piano,12,Canto,12,,,nada,67.0,yes
216,2023-10-10_11h58.35.266,Unsyncopated1,s30,23.0,feminino,right,España,Catalán y Español,Bachelor degree,no,no,B,2,conjunction_syn,L4,syncopated,s2,r1,88,Online_conjL4_syn//a.zi.lo19.666.1554.wav,da,bo,po,zi,sil,ru,ci,lo,sil1,bu,sil2,['catch'],[1.1084999999998217],[1.1084999999998217],0.666,no_beat,0.4424999999998217,0.4424999999998217,"[""space""]",zi,1,,,,,,,,,,,,,,,3.0,2.0,Catalán,0.0,Español,0.0,Inglés,5.0,3.0,2.0,yes,no,no,Piano,12,Canto,12,,,nada,67.0,yes
217,2023-10-10_11h58.35.266,Unsyncopated1,s30,23.0,feminino,right,España,Catalán y Español,Bachelor degree,no,no,B,2,conjunction_syn,L4,syncopated,s1,r2,89,Online_conjL4_syn//a.zi.lo17.none.none.wav,ja,po,bu,nu,sil,de,ru,ñi,sil1,ci,sil2,['-'],,,none,none,,,,zi,1,,,,,,,,,,,,,,,3.0,2.0,Catalán,0.0,Español,0.0,Inglés,5.0,3.0,2.0,yes,no,no,Piano,12,Canto,12,,,nada,67.0,yes
