Unnamed: 0,date,expName,participant,age,sex,hand,residence,native_lang,education_level,lang_deficit,aud_deficit,group,block,condition,language,rhythm,rule structure online,rule type online,order_trial_on,trial_online,s1,s2,s3,s4,s5,s6,s7,s8,s9,s10,s11,catch_syll_resp,rts_syll_catch,clean_rts,time_syll,beat_no_beat,catch_rtsTR,catch_rts,syllable_catch.keys,cond_syll,syll_to_catch,test_offline,block_off,condition_off,rhythm_off,rule,rule_str_off,rule_norule,conds_offline,language_off,Partz_no_partm.keys,Partz_no_partm.rt,security_1_7.keys,accuracy,security_1_7.rt,n_lang,n_lang_used,lang_1,age_l1,ability_learn_l2,tendence_mix_lan,music_experience,muisc_use,partiture,instr_1,age_M1,instr_2,age_M2,instr_3,age_M3,instr_4,age_M4,instr_5,age_M5,preguntas_musica1,BMRQ_answer.response,final comment,BMRQ_Score,bilingual
0,2023-11-12_20h32.58.555,Unsyncopated1,s73,31.0,masculino,right,España,Español,Bachelor degree,no,no,A,1,what,L2,unsyncopated,s1,r2,0,Online_whatL2//d.si.ñu4.1776.1110.wav,fe,su,to,sil,ra,ñu,cha,sil1,si,me,sil2,['catch'],[2.439300000000685],[2.439300000000685],1.776,beat,0.663300000000685,0.663300000000685,"[""space""]",si,4,testWhatL2Uns//time_viol.r2.s1.0.wav,1.0,what,unsyncopated,b,s1,no_rule,time,L2,z,14.1657,5.0,0.0,4.5057,1.0,1.0,Español,0.0,3.0,2.0,yes,yes,yes,Canto ,19,Guitarra,19,Bateria,19,Piano ,18.0,Bajo ,18.0,1. Cuando comparto música con alguien siento una complicidad especial con aquella persona.,3.0,"Creo que es un exceso hacer un experimento con 4 idiomas, creo que es muy largo y extenso, con 2 ya estaba bien porque al llegar al tercero uno ya está más distraido porque ha hecho por mucho rato lo mismo y al llegar al cuarto idioma ya ni quedan ganas de seguir, si esto fuera más corto uno lo haría con más animo, pero ya al final no me quedaban ganas de seguir y mi atención iba decayendo. Además mejoraría los audios de los idiomas para que se escuchen más claros, por ejemplo los haría con voz humana y no tan pegada cada silaba, es decir con espacios entre medio.  ",76.0,no
1,2023-11-12_20h32.58.555,Unsyncopated1,s73,31.0,masculino,right,España,Español,Bachelor degree,no,no,A,1,what,L2,unsyncopated,s2,r1,1,Online_whatL2//d.si.ñu6.none.none.wav,te,me,mi,sil2,go,su,to,sil,du,bi,sil1,['-'],,,none,none,,,,si,4,testWhatL2Uns//r1.s2.2.wav,1.0,what,unsyncopated,a,s2,rule,rule,L2,z,8.2477,2.0,1.0,5.4759,1.0,1.0,Español,0.0,3.0,2.0,yes,yes,yes,Canto ,19,Guitarra,19,Bateria,19,Piano ,18.0,Bajo ,18.0,2. En mi tiempo libre apenas escucho música.,2.0,"Creo que es un exceso hacer un experimento con 4 idiomas, creo que es muy largo y extenso, con 2 ya estaba bien porque al llegar al tercero uno ya está más distraido porque ha hecho por mucho rato lo mismo y al llegar al cuarto idioma ya ni quedan ganas de seguir, si esto fuera más corto uno lo haría con más animo, pero ya al final no me quedaban ganas de seguir y mi atención iba decayendo. Además mejoraría los audios de los idiomas para que se escuchen más claros, por ejemplo los haría con voz humana y no tan pegada cada silaba, es decir con espacios entre medio.  ",76.0,no
2,2023-11-12_20h32.58.555,Unsyncopated1,s73,31.0,masculino,right,España,Español,Bachelor degree,no,no,A,1,what,L2,unsyncopated,s2,r2,2,Online_whatL2//d.si.ñu7.1332.0.wav,ñu,to,me,sil,fe,su,si,sil1,ra,bi,sil2,['catch'],[1.7378000000007887],[1.7378000000007887],1.332,no_beat,0.4058000000007886,0.4058000000007886,"[""space""]",si,4,testWhatL2Uns//time_viol.r2.s2.0.wav,1.0,what,unsyncopated,b,s2,no_rule,time,L2,m,2.5113,6.0,1.0,3.3259,1.0,1.0,Español,0.0,3.0,2.0,yes,yes,yes,Canto ,19,Guitarra,19,Bateria,19,Piano ,18.0,Bajo ,18.0,3. Algunas canciones me ponen los pelos de punta,4.0,"Creo que es un exceso hacer un experimento con 4 idiomas, creo que es muy largo y extenso, con 2 ya estaba bien porque al llegar al tercero uno ya está más distraido porque ha hecho por mucho rato lo mismo y al llegar al cuarto idioma ya ni quedan ganas de seguir, si esto fuera más corto uno lo haría con más animo, pero ya al final no me quedaban ganas de seguir y mi atención iba decayendo. Además mejoraría los audios de los idiomas para que se escuchen más claros, por ejemplo los haría con voz humana y no tan pegada cada silaba, es decir con espacios entre medio.  ",76.0,no
3,2023-11-12_20h32.58.555,Unsyncopated1,s73,31.0,masculino,right,España,Español,Bachelor degree,no,no,A,1,what,L2,unsyncopated,s1,r1,3,Online_whatL2//d.si.ñu5.none.none.wav,go,to,me,sil2,du,mi,ño,sil,ba,su,sil1,['-'],,,none,none,,,,si,4,testWhatL2Uns//r1.s1.2.wav,1.0,what,unsyncopated,a,s1,rule,rule,L2,m,2.4826,6.0,0.0,3.5275,1.0,1.0,Español,0.0,3.0,2.0,yes,yes,yes,Canto ,19,Guitarra,19,Bateria,19,Piano ,18.0,Bajo ,18.0,4. La música me hace compañía cuando estoy solo,4.0,"Creo que es un exceso hacer un experimento con 4 idiomas, creo que es muy largo y extenso, con 2 ya estaba bien porque al llegar al tercero uno ya está más distraido porque ha hecho por mucho rato lo mismo y al llegar al cuarto idioma ya ni quedan ganas de seguir, si esto fuera más corto uno lo haría con más animo, pero ya al final no me quedaban ganas de seguir y mi atención iba decayendo. Además mejoraría los audios de los idiomas para que se escuchen más claros, por ejemplo los haría con voz humana y no tan pegada cada silaba, es decir con espacios entre medio.  ",76.0,no
4,2023-11-12_20h32.58.555,Unsyncopated1,s73,31.0,masculino,right,España,Español,Bachelor degree,no,no,A,1,what,L2,unsyncopated,s1,r2,4,Online_whatL2//d.si.ñu24.none.none.wav,fe,ba,cha,sil2,ra,to,mi,sil,te,bi,sil1,['-'],,,none,none,,,,si,4,testWhatL2Uns//r1.s2.0.wav,1.0,what,unsyncopated,a,s2,rule,rule,L2,z,1.6311,6.0,1.0,2.6757,1.0,1.0,Español,0.0,3.0,2.0,yes,yes,yes,Canto ,19,Guitarra,19,Bateria,19,Piano ,18.0,Bajo ,18.0,5. No me apetece bailar ni con la música que más me gusta,5.0,"Creo que es un exceso hacer un experimento con 4 idiomas, creo que es muy largo y extenso, con 2 ya estaba bien porque al llegar al tercero uno ya está más distraido porque ha hecho por mucho rato lo mismo y al llegar al cuarto idioma ya ni quedan ganas de seguir, si esto fuera más corto uno lo haría con más animo, pero ya al final no me quedaban ganas de seguir y mi atención iba decayendo. Además mejoraría los audios de los idiomas para que se escuchen más claros, por ejemplo los haría con voz humana y no tan pegada cada silaba, es decir con espacios entre medio.  ",76.0,no
5,2023-11-12_20h32.58.555,Unsyncopated1,s73,31.0,masculino,right,España,Español,Bachelor degree,no,no,A,1,what,L2,unsyncopated,s1,r1,5,Online_whatL2//d.si.ñu25.none.none.wav,go,te,su,sil,du,to,ba,sil2,cha,mi,sil1,['-'],,,none,none,,,,si,4,testWhatL2Uns//dep_viol.r1.s1.0.wav,1.0,what,unsyncopated,a,s1,no_rule,dep,L2,m,0.8851,6.0,1.0,3.1246,1.0,1.0,Español,0.0,3.0,2.0,yes,yes,yes,Canto ,19,Guitarra,19,Bateria,19,Piano ,18.0,Bajo ,18.0,6. La música me hace conectar con la gente,4.0,"Creo que es un exceso hacer un experimento con 4 idiomas, creo que es muy largo y extenso, con 2 ya estaba bien porque al llegar al tercero uno ya está más distraido porque ha hecho por mucho rato lo mismo y al llegar al cuarto idioma ya ni quedan ganas de seguir, si esto fuera más corto uno lo haría con más animo, pero ya al final no me quedaban ganas de seguir y mi atención iba decayendo. Además mejoraría los audios de los idiomas para que se escuchen más claros, por ejemplo los haría con voz humana y no tan pegada cada silaba, es decir con espacios entre medio.  ",76.0,no
6,2023-11-12_20h32.58.555,Unsyncopated1,s73,31.0,masculino,right,España,Español,Bachelor degree,no,no,A,1,what,L2,unsyncopated,s2,r2,6,Online_whatL2//d.si.ñu27.none.none.wav,su,te,bi,sil,fe,cha,ño,sil2,ra,ba,sil1,['-'],,,none,none,,,,si,4,testWhatL2Uns//cat_viol.r1.s2.0.wav,1.0,what,unsyncopated,a,s2,no_rule,cat,L2,m,0.9664,6.0,1.0,1.552,1.0,1.0,Español,0.0,3.0,2.0,yes,yes,yes,Canto ,19,Guitarra,19,Bateria,19,Piano ,18.0,Bajo ,18.0,7. Me informo sobre la música que me gusta.,3.0,"Creo que es un exceso hacer un experimento con 4 idiomas, creo que es muy largo y extenso, con 2 ya estaba bien porque al llegar al tercero uno ya está más distraido porque ha hecho por mucho rato lo mismo y al llegar al cuarto idioma ya ni quedan ganas de seguir, si esto fuera más corto uno lo haría con más animo, pero ya al final no me quedaban ganas de seguir y mi atención iba decayendo. Además mejoraría los audios de los idiomas para que se escuchen más claros, por ejemplo los haría con voz humana y no tan pegada cada silaba, es decir con espacios entre medio.  ",76.0,no
7,2023-11-12_20h32.58.555,Unsyncopated1,s73,31.0,masculino,right,España,Español,Bachelor degree,no,no,A,1,what,L2,unsyncopated,s2,r1,7,Online_whatL2//d.si.ñu26.none.none.wav,mi,cha,te,sil,go,ño,su,sil2,du,me,sil1,['-'],,,none,none,,,,si,4,testWhatL2Uns//r2.s1.1.wav,1.0,what,unsyncopated,b,s1,rule,rule,L2,z,2.146,3.0,1.0,5.6205,1.0,1.0,Español,0.0,3.0,2.0,yes,yes,yes,Canto ,19,Guitarra,19,Bateria,19,Piano ,18.0,Bajo ,18.0,8.Me emociono escuchando ciertas canciones.,4.0,"Creo que es un exceso hacer un experimento con 4 idiomas, creo que es muy largo y extenso, con 2 ya estaba bien porque al llegar al tercero uno ya está más distraido porque ha hecho por mucho rato lo mismo y al llegar al cuarto idioma ya ni quedan ganas de seguir, si esto fuera más corto uno lo haría con más animo, pero ya al final no me quedaban ganas de seguir y mi atención iba decayendo. Además mejoraría los audios de los idiomas para que se escuchen más claros, por ejemplo los haría con voz humana y no tan pegada cada silaba, es decir con espacios entre medio.  ",76.0,no
8,2023-11-12_20h32.58.555,Unsyncopated1,s73,31.0,masculino,right,España,Español,Bachelor degree,no,no,A,1,what,L2,unsyncopated,s2,r1,8,Online_whatL2//b.fe.ra6.none.none.wav,si,su,te,sil2,go,ba,mi,sil,du,ñu,sil1,['false alarm'],[0.6159999999999854],[0.6159999999999854],none,none,,,"[""space""]",fe,1,testWhatL2Uns//dep_viol.r2.s1.0.wav,1.0,what,unsyncopated,b,s1,no_rule,dep,L2,z,0.9303,2.0,0.0,1.7682,1.0,1.0,Español,0.0,3.0,2.0,yes,yes,yes,Canto ,19,Guitarra,19,Bateria,19,Piano ,18.0,Bajo ,18.0,9.La música me tranquiliza y me relaja.,4.0,"Creo que es un exceso hacer un experimento con 4 idiomas, creo que es muy largo y extenso, con 2 ya estaba bien porque al llegar al tercero uno ya está más distraido porque ha hecho por mucho rato lo mismo y al llegar al cuarto idioma ya ni quedan ganas de seguir, si esto fuera más corto uno lo haría con más animo, pero ya al final no me quedaban ganas de seguir y mi atención iba decayendo. Además mejoraría los audios de los idiomas para que se escuchen más claros, por ejemplo los haría con voz humana y no tan pegada cada silaba, es decir con espacios entre medio.  ",76.0,no
9,2023-11-12_20h32.58.555,Unsyncopated1,s73,31.0,masculino,right,España,Español,Bachelor degree,no,no,A,1,what,L2,unsyncopated,s1,r1,9,Online_whatL2//b.fe.ra4.none.none.wav,go,te,to,sil2,du,ño,me,sil,su,cha,sil1,['-'],,,none,none,,,,fe,1,testWhatL2Uns//dep_viol.r2.s2.0.wav,1.0,what,unsyncopated,b,s2,no_rule,dep,L2,z,1.2276,1.0,0.0,1.9177,1.0,1.0,Español,0.0,3.0,2.0,yes,yes,yes,Canto ,19,Guitarra,19,Bateria,19,Piano ,18.0,Bajo ,18.0,10.La música me hace bailar,4.0,"Creo que es un exceso hacer un experimento con 4 idiomas, creo que es muy largo y extenso, con 2 ya estaba bien porque al llegar al tercero uno ya está más distraido porque ha hecho por mucho rato lo mismo y al llegar al cuarto idioma ya ni quedan ganas de seguir, si esto fuera más corto uno lo haría con más animo, pero ya al final no me quedaban ganas de seguir y mi atención iba decayendo. Además mejoraría los audios de los idiomas para que se escuchen más claros, por ejemplo los haría con voz humana y no tan pegada cada silaba, es decir con espacios entre medio.  ",76.0,no
10,2023-11-12_20h32.58.555,Unsyncopated1,s73,31.0,masculino,right,España,Español,Bachelor degree,no,no,A,1,what,L2,unsyncopated,s2,r2,10,Online_whatL2//b.fe.ra5.888.1776.wav,ñu,ño,mi,sil,fe,me,ba,sil1,ra,te,sil2,['miss'],,,0.888,beat,,,,fe,1,testWhatL2Uns//r1.s1.0.wav,1.0,what,unsyncopated,a,s1,rule,rule,L2,m,0.7659,1.0,0.0,1.5825,1.0,1.0,Español,0.0,3.0,2.0,yes,yes,yes,Canto ,19,Guitarra,19,Bateria,19,Piano ,18.0,Bajo ,18.0,11.Busco novedades musicales continuamente,4.0,"Creo que es un exceso hacer un experimento con 4 idiomas, creo que es muy largo y extenso, con 2 ya estaba bien porque al llegar al tercero uno ya está más distraido porque ha hecho por mucho rato lo mismo y al llegar al cuarto idioma ya ni quedan ganas de seguir, si esto fuera más corto uno lo haría con más animo, pero ya al final no me quedaban ganas de seguir y mi atención iba decayendo. Además mejoraría los audios de los idiomas para que se escuchen más claros, por ejemplo los haría con voz humana y no tan pegada cada silaba, es decir con espacios entre medio.  ",76.0,no
11,2023-11-12_20h32.58.555,Unsyncopated1,s73,31.0,masculino,right,España,Español,Bachelor degree,no,no,A,1,what,L2,unsyncopated,s1,r1,11,Online_whatL2//b.fe.ra7.none.none.wav,go,cha,me,sil,du,bi,te,sil1,ñu,su,sil2,['false alarm'],[0.044999999999845386],[0.044999999999845386],none,none,,,"[""space""]",fe,1,testWhatL2Uns//r1.s2.1.wav,1.0,what,unsyncopated,a,s2,rule,rule,L2,m,1.2021,3.0,0.0,2.0996,1.0,1.0,Español,0.0,3.0,2.0,yes,yes,yes,Canto ,19,Guitarra,19,Bateria,19,Piano ,18.0,Bajo ,18.0,12. Puedo llorar cuando escucho algunas melodías que me gustan mucho.,4.0,"Creo que es un exceso hacer un experimento con 4 idiomas, creo que es muy largo y extenso, con 2 ya estaba bien porque al llegar al tercero uno ya está más distraido porque ha hecho por mucho rato lo mismo y al llegar al cuarto idioma ya ni quedan ganas de seguir, si esto fuera más corto uno lo haría con más animo, pero ya al final no me quedaban ganas de seguir y mi atención iba decayendo. Además mejoraría los audios de los idiomas para que se escuchen más claros, por ejemplo los haría con voz humana y no tan pegada cada silaba, es decir con espacios entre medio.  ",76.0,no
12,2023-11-12_20h32.58.555,Unsyncopated1,s73,31.0,masculino,right,España,Español,Bachelor degree,no,no,A,1,what,L2,unsyncopated,s1,r1,12,Online_whatL2//d.si.ñu8.none.none.wav,go,ba,to,sil2,du,mi,su,sil,te,cha,sil1,['-'],,,none,none,,,,si,4,testWhatL2Uns//cat_viol.r1.s1.0.wav,1.0,what,unsyncopated,a,s1,no_rule,cat,L2,m,0.5383,7.0,1.0,5.5081,1.0,1.0,Español,0.0,3.0,2.0,yes,yes,yes,Canto ,19,Guitarra,19,Bateria,19,Piano ,18.0,Bajo ,18.0,13. Me gusta cantar o tocar un instrumento con más gente,4.0,"Creo que es un exceso hacer un experimento con 4 idiomas, creo que es muy largo y extenso, con 2 ya estaba bien porque al llegar al tercero uno ya está más distraido porque ha hecho por mucho rato lo mismo y al llegar al cuarto idioma ya ni quedan ganas de seguir, si esto fuera más corto uno lo haría con más animo, pero ya al final no me quedaban ganas de seguir y mi atención iba decayendo. Además mejoraría los audios de los idiomas para que se escuchen más claros, por ejemplo los haría con voz humana y no tan pegada cada silaba, es decir con espacios entre medio.  ",76.0,no
13,2023-11-12_20h32.58.555,Unsyncopated1,s73,31.0,masculino,right,España,Español,Bachelor degree,no,no,A,1,what,L2,unsyncopated,s2,r1,13,Online_whatL2//d.si.ñu11.none.none.wav,su,bi,me,sil,go,te,mi,sil1,du,ño,sil2,['-'],,,none,none,,,,si,4,testWhatL2Uns//cat_viol.r2.s2.0.wav,1.0,what,unsyncopated,b,s2,no_rule,cat,L2,z,4.34,2.0,0.0,2.9084,1.0,1.0,Español,0.0,3.0,2.0,yes,yes,yes,Canto ,19,Guitarra,19,Bateria,19,Piano ,18.0,Bajo ,18.0,14. La música me ayuda a desconectar.,4.0,"Creo que es un exceso hacer un experimento con 4 idiomas, creo que es muy largo y extenso, con 2 ya estaba bien porque al llegar al tercero uno ya está más distraido porque ha hecho por mucho rato lo mismo y al llegar al cuarto idioma ya ni quedan ganas de seguir, si esto fuera más corto uno lo haría con más animo, pero ya al final no me quedaban ganas de seguir y mi atención iba decayendo. Además mejoraría los audios de los idiomas para que se escuchen más claros, por ejemplo los haría con voz humana y no tan pegada cada silaba, es decir con espacios entre medio.  ",76.0,no
14,2023-11-12_20h32.58.555,Unsyncopated1,s73,31.0,masculino,right,España,Español,Bachelor degree,no,no,A,1,what,L2,unsyncopated,s2,r2,14,Online_whatL2//d.si.ñu10.1554.222.wav,to,ñu,cha,sil2,fe,me,si,sil,ra,te,sil1,['catch'],[1.640399999998408],[1.640399999998408],1.554,no_beat,0.0863999999984079,0.0863999999984079,"[""space""]",si,4,testWhatL2Uns//time_viol.r1.s2.0.wav,1.0,what,unsyncopated,a,s2,no_rule,time,L2,z,12.5867,1.0,0.0,1.6961,1.0,1.0,Español,0.0,3.0,2.0,yes,yes,yes,Canto ,19,Guitarra,19,Bateria,19,Piano ,18.0,Bajo ,18.0,15. No puedo evitar tararear las canciones que me gustan cuando las escucho.,4.0,"Creo que es un exceso hacer un experimento con 4 idiomas, creo que es muy largo y extenso, con 2 ya estaba bien porque al llegar al tercero uno ya está más distraido porque ha hecho por mucho rato lo mismo y al llegar al cuarto idioma ya ni quedan ganas de seguir, si esto fuera más corto uno lo haría con más animo, pero ya al final no me quedaban ganas de seguir y mi atención iba decayendo. Además mejoraría los audios de los idiomas para que se escuchen más claros, por ejemplo los haría con voz humana y no tan pegada cada silaba, es decir con espacios entre medio.  ",76.0,no
15,2023-11-12_20h32.58.555,Unsyncopated1,s73,31.0,masculino,right,España,Español,Bachelor degree,no,no,A,1,what,L2,unsyncopated,s1,r1,15,Online_whatL2//d.si.ñu9.444.1332.wav,go,mi,si,sil,du,me,ñu,sil2,to,su,sil1,['catch'],[1.24060000000145],[1.24060000000145],0.444,no_beat,0.7966000000014501,0.7966000000014501,"[""space""]",si,4,testWhatL2Uns//r2.s2.0.wav,1.0,what,unsyncopated,b,s2,rule,rule,L2,m,2.7816,1.0,0.0,1.1669,1.0,1.0,Español,0.0,3.0,2.0,yes,yes,yes,Canto ,19,Guitarra,19,Bateria,19,Piano ,18.0,Bajo ,18.0,16. En los conciertos me siento en sintonía con los artistas y el público.,4.0,"Creo que es un exceso hacer un experimento con 4 idiomas, creo que es muy largo y extenso, con 2 ya estaba bien porque al llegar al tercero uno ya está más distraido porque ha hecho por mucho rato lo mismo y al llegar al cuarto idioma ya ni quedan ganas de seguir, si esto fuera más corto uno lo haría con más animo, pero ya al final no me quedaban ganas de seguir y mi atención iba decayendo. Además mejoraría los audios de los idiomas para que se escuchen más claros, por ejemplo los haría con voz humana y no tan pegada cada silaba, es decir con espacios entre medio.  ",76.0,no
16,2023-11-12_20h32.58.555,Unsyncopated1,s73,31.0,masculino,right,España,Español,Bachelor degree,no,no,A,1,what,L2,unsyncopated,s1,r2,16,Online_whatL2//a.go.du5.none.none.wav,fe,su,bi,sil,ra,te,to,sil1,ño,ñu,sil2,['-'],,,none,none,,,,du,2,testWhatL2Uns//dep_viol.r1.s2.0.wav,1.0,what,unsyncopated,a,s2,no_rule,dep,L2,m,5.5013,1.0,1.0,0.7814,1.0,1.0,Español,0.0,3.0,2.0,yes,yes,yes,Canto ,19,Guitarra,19,Bateria,19,Piano ,18.0,Bajo ,18.0,17. Me gasto bastante dinero en música y cosas relacionadas con la música.,3.0,"Creo que es un exceso hacer un experimento con 4 idiomas, creo que es muy largo y extenso, con 2 ya estaba bien porque al llegar al tercero uno ya está más distraido porque ha hecho por mucho rato lo mismo y al llegar al cuarto idioma ya ni quedan ganas de seguir, si esto fuera más corto uno lo haría con más animo, pero ya al final no me quedaban ganas de seguir y mi atención iba decayendo. Además mejoraría los audios de los idiomas para que se escuchen más claros, por ejemplo los haría con voz humana y no tan pegada cada silaba, es decir con espacios entre medio.  ",76.0,no
17,2023-11-12_20h32.58.555,Unsyncopated1,s73,31.0,masculino,right,España,Español,Bachelor degree,no,no,A,1,what,L2,unsyncopated,s2,r2,17,Online_whatL2//a.go.du4.none.none.wav,te,mi,cha,sil,fe,bi,ñu,sil1,ra,ba,sil2,['-'],,,none,none,,,,du,2,testWhatL2Uns//r1.s1.1.wav,1.0,what,unsyncopated,a,s1,rule,rule,L2,m,1.1625,1.0,0.0,0.9708,1.0,1.0,Español,0.0,3.0,2.0,yes,yes,yes,Canto ,19,Guitarra,19,Bateria,19,Piano ,18.0,Bajo ,18.0,18. Siento escalofríos cuando escucho una melodía que me gusta.,4.0,"Creo que es un exceso hacer un experimento con 4 idiomas, creo que es muy largo y extenso, con 2 ya estaba bien porque al llegar al tercero uno ya está más distraido porque ha hecho por mucho rato lo mismo y al llegar al cuarto idioma ya ni quedan ganas de seguir, si esto fuera más corto uno lo haría con más animo, pero ya al final no me quedaban ganas de seguir y mi atención iba decayendo. Además mejoraría los audios de los idiomas para que se escuchen más claros, por ejemplo los haría con voz humana y no tan pegada cada silaba, es decir con espacios entre medio.  ",76.0,no
18,2023-11-12_20h32.58.555,Unsyncopated1,s73,31.0,masculino,right,España,Español,Bachelor degree,no,no,A,1,what,L2,unsyncopated,s2,r1,18,Online_whatL2//a.go.du6.888.1776.wav,bi,su,cha,sil,go,te,ñu,sil1,du,me,sil2,['catch'],[2.5534999999999854],[2.5534999999999854],1.776,beat,0.7774999999999854,0.7774999999999854,"[""space""]",du,2,testWhatL2Uns//cat_viol.r2.s1.0.wav,1.0,what,unsyncopated,b,s1,no_rule,cat,L2,z,2.4068,5.0,0.0,1.7966,1.0,1.0,Español,0.0,3.0,2.0,yes,yes,yes,Canto ,19,Guitarra,19,Bateria,19,Piano ,18.0,Bajo ,18.0,19. Con la música me puedo desahogar.,4.0,"Creo que es un exceso hacer un experimento con 4 idiomas, creo que es muy largo y extenso, con 2 ya estaba bien porque al llegar al tercero uno ya está más distraido porque ha hecho por mucho rato lo mismo y al llegar al cuarto idioma ya ni quedan ganas de seguir, si esto fuera más corto uno lo haría con más animo, pero ya al final no me quedaban ganas de seguir y mi atención iba decayendo. Además mejoraría los audios de los idiomas para que se escuchen más claros, por ejemplo los haría con voz humana y no tan pegada cada silaba, es decir con espacios entre medio.  ",76.0,no
19,2023-11-12_20h32.58.555,Unsyncopated1,s73,31.0,masculino,right,España,Español,Bachelor degree,no,no,A,1,what,L2,unsyncopated,s1,r2,19,Online_whatL2//a.go.du7.none.none.wav,fe,ñu,me,sil,ra,cha,to,sil1,si,su,sil2,['false alarm'],[1.8575000000000728],[1.8575000000000728],none,none,,,"[""space""]",du,2,testWhatL2Uns//r2.s2.1.wav,1.0,what,unsyncopated,b,s2,rule,rule,L2,z,1.3299,2.0,1.0,2.7771,1.0,1.0,Español,0.0,3.0,2.0,yes,yes,yes,Canto ,19,Guitarra,19,Bateria,19,Piano ,18.0,Bajo ,18.0,20. Cuando escucho una melodía que me gusta mucho no puedo evitar mover el cuerpo.,4.0,"Creo que es un exceso hacer un experimento con 4 idiomas, creo que es muy largo y extenso, con 2 ya estaba bien porque al llegar al tercero uno ya está más distraido porque ha hecho por mucho rato lo mismo y al llegar al cuarto idioma ya ni quedan ganas de seguir, si esto fuera más corto uno lo haría con más animo, pero ya al final no me quedaban ganas de seguir y mi atención iba decayendo. Además mejoraría los audios de los idiomas para que se escuchen más claros, por ejemplo los haría con voz humana y no tan pegada cada silaba, es decir con espacios entre medio.  ",76.0,no
20,2023-11-12_20h32.58.555,Unsyncopated1,s73,31.0,masculino,right,España,Español,Bachelor degree,no,no,A,1,what,L2,unsyncopated,s1,r2,20,Online_whatL2//c.cha.me13.none.none.wav,fe,su,te,sil,ra,ño,si,sil2,ba,bi,sil1,['-'],,,none,none,,,,cha,3,testWhatL2Uns//r2.s2.2.wav,1.0,what,unsyncopated,b,s2,rule,rule,L2,z,9.6446,1.0,1.0,1.3831,1.0,1.0,Español,0.0,3.0,2.0,yes,yes,yes,Canto ,19,Guitarra,19,Bateria,19,Piano ,18.0,Bajo ,18.0,,,"Creo que es un exceso hacer un experimento con 4 idiomas, creo que es muy largo y extenso, con 2 ya estaba bien porque al llegar al tercero uno ya está más distraido porque ha hecho por mucho rato lo mismo y al llegar al cuarto idioma ya ni quedan ganas de seguir, si esto fuera más corto uno lo haría con más animo, pero ya al final no me quedaban ganas de seguir y mi atención iba decayendo. Además mejoraría los audios de los idiomas para que se escuchen más claros, por ejemplo los haría con voz humana y no tan pegada cada silaba, es decir con espacios entre medio.  ",76.0,no
21,2023-11-12_20h32.58.555,Unsyncopated1,s73,31.0,masculino,right,España,Español,Bachelor degree,no,no,A,1,what,L2,unsyncopated,s2,r1,21,Online_whatL2//c.cha.me15.none.none.wav,su,ñu,mi,sil,go,ba,bi,sil1,du,to,sil2,['-'],,,none,none,,,,cha,3,testWhatL2Uns//r2.s1.2.wav,1.0,what,unsyncopated,b,s1,rule,rule,L2,z,1.4623,6.0,1.0,1.9178,1.0,1.0,Español,0.0,3.0,2.0,yes,yes,yes,Canto ,19,Guitarra,19,Bateria,19,Piano ,18.0,Bajo ,18.0,,,"Creo que es un exceso hacer un experimento con 4 idiomas, creo que es muy largo y extenso, con 2 ya estaba bien porque al llegar al tercero uno ya está más distraido porque ha hecho por mucho rato lo mismo y al llegar al cuarto idioma ya ni quedan ganas de seguir, si esto fuera más corto uno lo haría con más animo, pero ya al final no me quedaban ganas de seguir y mi atención iba decayendo. Además mejoraría los audios de los idiomas para que se escuchen más claros, por ejemplo los haría con voz humana y no tan pegada cada silaba, es decir con espacios entre medio.  ",76.0,no
22,2023-11-12_20h32.58.555,Unsyncopated1,s73,31.0,masculino,right,España,Español,Bachelor degree,no,no,A,1,what,L2,unsyncopated,s1,r1,22,Online_whatL2//c.cha.me12.1332.222.wav,go,me,si,sil,du,ñu,cha,sil1,mi,to,sil2,['catch'],[2.0166999999992186],[2.0166999999992186],1.332,no_beat,0.6846999999992185,0.6846999999992185,"[""space""]",cha,3,testWhatL2Uns//r2.s1.0.wav,1.0,what,unsyncopated,b,s1,rule,rule,L2,z,4.7776,1.0,1.0,0.8158,1.0,1.0,Español,0.0,3.0,2.0,yes,yes,yes,Canto ,19,Guitarra,19,Bateria,19,Piano ,18.0,Bajo ,18.0,,,"Creo que es un exceso hacer un experimento con 4 idiomas, creo que es muy largo y extenso, con 2 ya estaba bien porque al llegar al tercero uno ya está más distraido porque ha hecho por mucho rato lo mismo y al llegar al cuarto idioma ya ni quedan ganas de seguir, si esto fuera más corto uno lo haría con más animo, pero ya al final no me quedaban ganas de seguir y mi atención iba decayendo. Además mejoraría los audios de los idiomas para que se escuchen más claros, por ejemplo los haría con voz humana y no tan pegada cada silaba, es decir con espacios entre medio.  ",76.0,no
23,2023-11-12_20h32.58.555,Unsyncopated1,s73,31.0,masculino,right,España,Español,Bachelor degree,no,no,A,1,what,L2,unsyncopated,s2,r1,23,Online_whatL2//c.cha.me14.none.none.wav,ñu,to,ño,sil,go,ba,si,sil2,du,mi,sil1,['-'],,,none,none,,,,cha,3,testWhatL2Uns//time_viol.r1.s1.0.wav,1.0,what,unsyncopated,a,s1,no_rule,time,L2,m,0.3044,1.0,1.0,1.9082,1.0,1.0,Español,0.0,3.0,2.0,yes,yes,yes,Canto ,19,Guitarra,19,Bateria,19,Piano ,18.0,Bajo ,18.0,,,"Creo que es un exceso hacer un experimento con 4 idiomas, creo que es muy largo y extenso, con 2 ya estaba bien porque al llegar al tercero uno ya está más distraido porque ha hecho por mucho rato lo mismo y al llegar al cuarto idioma ya ni quedan ganas de seguir, si esto fuera más corto uno lo haría con más animo, pero ya al final no me quedaban ganas de seguir y mi atención iba decayendo. Además mejoraría los audios de los idiomas para que se escuchen más claros, por ejemplo los haría con voz humana y no tan pegada cada silaba, es decir con espacios entre medio.  ",76.0,no
24,2023-11-12_20h32.58.555,Unsyncopated1,s73,31.0,masculino,right,España,Español,Bachelor degree,no,no,A,1,what,L2,unsyncopated,s1,r2,24,Online_whatL2//d.si.ñu22.444.1332.wav,fe,to,si,sil,ra,bi,ñu,sil2,ba,me,sil1,['catch'],[1.1173999999984972],[1.1173999999984972],0.444,no_beat,0.6733999999984972,0.6733999999984972,"[""space""]",si,4,testConjL1Uns//r1.s1.0.wav,2.0,conjunction_un,unsyncopated,a,s1,rule,rule,L1,m,4.3334,1.0,0.0,2.5366,1.0,1.0,Español,0.0,3.0,2.0,yes,yes,yes,Canto ,19,Guitarra,19,Bateria,19,Piano ,18.0,Bajo ,18.0,,,"Creo que es un exceso hacer un experimento con 4 idiomas, creo que es muy largo y extenso, con 2 ya estaba bien porque al llegar al tercero uno ya está más distraido porque ha hecho por mucho rato lo mismo y al llegar al cuarto idioma ya ni quedan ganas de seguir, si esto fuera más corto uno lo haría con más animo, pero ya al final no me quedaban ganas de seguir y mi atención iba decayendo. Además mejoraría los audios de los idiomas para que se escuchen más claros, por ejemplo los haría con voz humana y no tan pegada cada silaba, es decir con espacios entre medio.  ",76.0,no
25,2023-11-12_20h32.58.555,Unsyncopated1,s73,31.0,masculino,right,España,Español,Bachelor degree,no,no,A,1,what,L2,unsyncopated,s1,r2,25,Online_whatL2//d.si.ñu20.none.none.wav,fe,cha,me,sil2,ra,to,bi,sil,mi,ba,sil1,['-'],,,none,none,,,,si,4,testConjL1Uns//r2.s2.1.wav,2.0,conjunction_un,unsyncopated,b,s2,rule,rule,L1,m,2.6734,7.0,0.0,2.5578,1.0,1.0,Español,0.0,3.0,2.0,yes,yes,yes,Canto ,19,Guitarra,19,Bateria,19,Piano ,18.0,Bajo ,18.0,,,"Creo que es un exceso hacer un experimento con 4 idiomas, creo que es muy largo y extenso, con 2 ya estaba bien porque al llegar al tercero uno ya está más distraido porque ha hecho por mucho rato lo mismo y al llegar al cuarto idioma ya ni quedan ganas de seguir, si esto fuera más corto uno lo haría con más animo, pero ya al final no me quedaban ganas de seguir y mi atención iba decayendo. Además mejoraría los audios de los idiomas para que se escuchen más claros, por ejemplo los haría con voz humana y no tan pegada cada silaba, es decir con espacios entre medio.  ",76.0,no
26,2023-11-12_20h32.58.555,Unsyncopated1,s73,31.0,masculino,right,España,Español,Bachelor degree,no,no,A,1,what,L2,unsyncopated,s1,r1,26,Online_whatL2//d.si.ñu21.none.none.wav,go,cha,ño,sil,du,su,bi,sil2,ba,te,sil1,['-'],,,none,none,,,,si,4,testConjL1Uns//r2.s2.2.wav,2.0,conjunction_un,unsyncopated,b,s2,rule,rule,L1,m,0.7377,5.0,0.0,1.5799,1.0,1.0,Español,0.0,3.0,2.0,yes,yes,yes,Canto ,19,Guitarra,19,Bateria,19,Piano ,18.0,Bajo ,18.0,,,"Creo que es un exceso hacer un experimento con 4 idiomas, creo que es muy largo y extenso, con 2 ya estaba bien porque al llegar al tercero uno ya está más distraido porque ha hecho por mucho rato lo mismo y al llegar al cuarto idioma ya ni quedan ganas de seguir, si esto fuera más corto uno lo haría con más animo, pero ya al final no me quedaban ganas de seguir y mi atención iba decayendo. Además mejoraría los audios de los idiomas para que se escuchen más claros, por ejemplo los haría con voz humana y no tan pegada cada silaba, es decir con espacios entre medio.  ",76.0,no
27,2023-11-12_20h32.58.555,Unsyncopated1,s73,31.0,masculino,right,España,Español,Bachelor degree,no,no,A,1,what,L2,unsyncopated,s2,r2,27,Online_whatL2//d.si.ñu23.none.none.wav,me,to,ño,sil2,fe,cha,su,sil,ra,mi,sil1,['-'],,,none,none,,,,si,4,testConjL1Uns//dep_viol.r1.s1.0.wav,2.0,conjunction_un,unsyncopated,a,s1,no_rule,dep,L1,m,1.2638,1.0,1.0,2.3445,1.0,1.0,Español,0.0,3.0,2.0,yes,yes,yes,Canto ,19,Guitarra,19,Bateria,19,Piano ,18.0,Bajo ,18.0,,,"Creo que es un exceso hacer un experimento con 4 idiomas, creo que es muy largo y extenso, con 2 ya estaba bien porque al llegar al tercero uno ya está más distraido porque ha hecho por mucho rato lo mismo y al llegar al cuarto idioma ya ni quedan ganas de seguir, si esto fuera más corto uno lo haría con más animo, pero ya al final no me quedaban ganas de seguir y mi atención iba decayendo. Además mejoraría los audios de los idiomas para que se escuchen más claros, por ejemplo los haría con voz humana y no tan pegada cada silaba, es decir con espacios entre medio.  ",76.0,no
28,2023-11-12_20h32.58.555,Unsyncopated1,s73,31.0,masculino,right,España,Español,Bachelor degree,no,no,A,1,what,L2,unsyncopated,s1,r1,28,Online_whatL2//d.si.ñu12.222.444.wav,go,si,ñu,sil,du,ba,me,sil1,bi,to,sil2,['catch'],[0.8322999999970762],[0.8322999999970762],0.222,no_beat,0.6102999999970762,0.6102999999970762,"[""space""]",si,4,testConjL1Uns//r2.s2.0.wav,2.0,conjunction_un,unsyncopated,b,s2,rule,rule,L1,m,1.844,1.0,0.0,2.4271,1.0,1.0,Español,0.0,3.0,2.0,yes,yes,yes,Canto ,19,Guitarra,19,Bateria,19,Piano ,18.0,Bajo ,18.0,,,"Creo que es un exceso hacer un experimento con 4 idiomas, creo que es muy largo y extenso, con 2 ya estaba bien porque al llegar al tercero uno ya está más distraido porque ha hecho por mucho rato lo mismo y al llegar al cuarto idioma ya ni quedan ganas de seguir, si esto fuera más corto uno lo haría con más animo, pero ya al final no me quedaban ganas de seguir y mi atención iba decayendo. Además mejoraría los audios de los idiomas para que se escuchen más claros, por ejemplo los haría con voz humana y no tan pegada cada silaba, es decir con espacios entre medio.  ",76.0,no
29,2023-11-12_20h32.58.555,Unsyncopated1,s73,31.0,masculino,right,España,Español,Bachelor degree,no,no,A,1,what,L2,unsyncopated,s2,r2,29,Online_whatL2//d.si.ñu13.444.0.wav,ñu,te,si,sil,fe,bi,cha,sil1,ra,ba,sil2,['catch'],[1.1769999999999072],[1.1769999999999072],0.444,no_beat,0.7329999999999073,0.7329999999999073,"[""space""]",si,4,testConjL1Uns//r1.s1.2.wav,2.0,conjunction_un,unsyncopated,a,s1,rule,rule,L1,z,1.2512,2.0,1.0,1.681,1.0,1.0,Español,0.0,3.0,2.0,yes,yes,yes,Canto ,19,Guitarra,19,Bateria,19,Piano ,18.0,Bajo ,18.0,,,"Creo que es un exceso hacer un experimento con 4 idiomas, creo que es muy largo y extenso, con 2 ya estaba bien porque al llegar al tercero uno ya está más distraido porque ha hecho por mucho rato lo mismo y al llegar al cuarto idioma ya ni quedan ganas de seguir, si esto fuera más corto uno lo haría con más animo, pero ya al final no me quedaban ganas de seguir y mi atención iba decayendo. Además mejoraría los audios de los idiomas para que se escuchen más claros, por ejemplo los haría con voz humana y no tan pegada cada silaba, es decir con espacios entre medio.  ",76.0,no
30,2023-11-12_20h32.58.555,Unsyncopated1,s73,31.0,masculino,right,España,Español,Bachelor degree,no,no,A,1,what,L2,unsyncopated,s2,r2,30,Online_whatL2//d.si.ñu15.none.none.wav,su,te,mi,sil2,fe,ño,bi,sil,ra,cha,sil1,['-'],,,none,none,,,,si,4,testConjL1Uns//dep_viol.r2.s1.0.wav,2.0,conjunction_un,unsyncopated,b,s1,no_rule,dep,L1,z,1.8982,5.0,0.0,1.4613,1.0,1.0,Español,0.0,3.0,2.0,yes,yes,yes,Canto ,19,Guitarra,19,Bateria,19,Piano ,18.0,Bajo ,18.0,,,"Creo que es un exceso hacer un experimento con 4 idiomas, creo que es muy largo y extenso, con 2 ya estaba bien porque al llegar al tercero uno ya está más distraido porque ha hecho por mucho rato lo mismo y al llegar al cuarto idioma ya ni quedan ganas de seguir, si esto fuera más corto uno lo haría con más animo, pero ya al final no me quedaban ganas de seguir y mi atención iba decayendo. Además mejoraría los audios de los idiomas para que se escuchen más claros, por ejemplo los haría con voz humana y no tan pegada cada silaba, es decir con espacios entre medio.  ",76.0,no
31,2023-11-12_20h32.58.555,Unsyncopated1,s73,31.0,masculino,right,España,Español,Bachelor degree,no,no,A,1,what,L2,unsyncopated,s1,r2,31,Online_whatL2//d.si.ñu14.none.none.wav,fe,te,cha,sil,ra,mi,ba,sil1,bi,ño,sil2,['-'],,,none,none,,,,si,4,testConjL1Uns//r2.s1.1.wav,2.0,conjunction_un,unsyncopated,b,s1,rule,rule,L1,z,4.611,3.0,1.0,4.6068,1.0,1.0,Español,0.0,3.0,2.0,yes,yes,yes,Canto ,19,Guitarra,19,Bateria,19,Piano ,18.0,Bajo ,18.0,,,"Creo que es un exceso hacer un experimento con 4 idiomas, creo que es muy largo y extenso, con 2 ya estaba bien porque al llegar al tercero uno ya está más distraido porque ha hecho por mucho rato lo mismo y al llegar al cuarto idioma ya ni quedan ganas de seguir, si esto fuera más corto uno lo haría con más animo, pero ya al final no me quedaban ganas de seguir y mi atención iba decayendo. Además mejoraría los audios de los idiomas para que se escuchen más claros, por ejemplo los haría con voz humana y no tan pegada cada silaba, es decir con espacios entre medio.  ",76.0,no
32,2023-11-12_20h32.58.555,Unsyncopated1,s73,31.0,masculino,right,España,Español,Bachelor degree,no,no,A,1,what,L2,unsyncopated,s1,r2,32,Online_whatL2//c.cha.me25.none.none.wav,fe,te,mi,sil,ra,ñu,si,sil2,ba,bi,sil1,['-'],,,none,none,,,,cha,3,testConjL1Uns//dep_viol.r1.s2.0.wav,2.0,conjunction_un,unsyncopated,a,s2,no_rule,dep,L1,m,0.2323,7.0,1.0,1.8646,1.0,1.0,Español,0.0,3.0,2.0,yes,yes,yes,Canto ,19,Guitarra,19,Bateria,19,Piano ,18.0,Bajo ,18.0,,,"Creo que es un exceso hacer un experimento con 4 idiomas, creo que es muy largo y extenso, con 2 ya estaba bien porque al llegar al tercero uno ya está más distraido porque ha hecho por mucho rato lo mismo y al llegar al cuarto idioma ya ni quedan ganas de seguir, si esto fuera más corto uno lo haría con más animo, pero ya al final no me quedaban ganas de seguir y mi atención iba decayendo. Además mejoraría los audios de los idiomas para que se escuchen más claros, por ejemplo los haría con voz humana y no tan pegada cada silaba, es decir con espacios entre medio.  ",76.0,no
33,2023-11-12_20h32.58.555,Unsyncopated1,s73,31.0,masculino,right,España,Español,Bachelor degree,no,no,A,1,what,L2,unsyncopated,s2,r1,33,Online_whatL2//c.cha.me26.444.1110.wav,mi,bi,cha,sil,go,me,ño,sil1,du,te,sil2,['catch'],[0.9081999999991694],[0.9081999999991694],0.444,no_beat,0.4641999999991694,0.4641999999991694,"[""space""]",cha,3,testConjL1Uns//r2.s1.0.wav,2.0,conjunction_un,unsyncopated,b,s1,rule,rule,L1,z,1.5465,4.0,1.0,3.1729,1.0,1.0,Español,0.0,3.0,2.0,yes,yes,yes,Canto ,19,Guitarra,19,Bateria,19,Piano ,18.0,Bajo ,18.0,,,"Creo que es un exceso hacer un experimento con 4 idiomas, creo que es muy largo y extenso, con 2 ya estaba bien porque al llegar al tercero uno ya está más distraido porque ha hecho por mucho rato lo mismo y al llegar al cuarto idioma ya ni quedan ganas de seguir, si esto fuera más corto uno lo haría con más animo, pero ya al final no me quedaban ganas de seguir y mi atención iba decayendo. Además mejoraría los audios de los idiomas para que se escuchen más claros, por ejemplo los haría con voz humana y no tan pegada cada silaba, es decir con espacios entre medio.  ",76.0,no
34,2023-11-12_20h32.58.555,Unsyncopated1,s73,31.0,masculino,right,España,Español,Bachelor degree,no,no,A,1,what,L2,unsyncopated,s1,r2,34,Online_whatL2//c.cha.me27.none.none.wav,fe,si,ñu,sil2,ra,ño,ba,sil,te,bi,sil1,['-'],,,none,none,,,,cha,3,testConjL1Uns//r1.s1.1.wav,2.0,conjunction_un,unsyncopated,a,s1,rule,rule,L1,m,0.5667,6.0,0.0,3.4921,1.0,1.0,Español,0.0,3.0,2.0,yes,yes,yes,Canto ,19,Guitarra,19,Bateria,19,Piano ,18.0,Bajo ,18.0,,,"Creo que es un exceso hacer un experimento con 4 idiomas, creo que es muy largo y extenso, con 2 ya estaba bien porque al llegar al tercero uno ya está más distraido porque ha hecho por mucho rato lo mismo y al llegar al cuarto idioma ya ni quedan ganas de seguir, si esto fuera más corto uno lo haría con más animo, pero ya al final no me quedaban ganas de seguir y mi atención iba decayendo. Además mejoraría los audios de los idiomas para que se escuchen más claros, por ejemplo los haría con voz humana y no tan pegada cada silaba, es decir con espacios entre medio.  ",76.0,no
35,2023-11-12_20h32.58.555,Unsyncopated1,s73,31.0,masculino,right,España,Español,Bachelor degree,no,no,A,1,what,L2,unsyncopated,s2,r1,35,Online_whatL2//c.cha.me24.0.444.wav,cha,te,me,sil,go,ba,ño,sil2,du,si,sil1,['catch'],[1.6255000000001019],[1.6255000000001019],0.0,beat,,1.625500000000102,"[""space""]",cha,3,testConjL1Uns//time_viol.r2.s2.0.wav,2.0,conjunction_un,unsyncopated,b,s2,no_rule,time,L1,m,1.9339,1.0,1.0,3.4772,1.0,1.0,Español,0.0,3.0,2.0,yes,yes,yes,Canto ,19,Guitarra,19,Bateria,19,Piano ,18.0,Bajo ,18.0,,,"Creo que es un exceso hacer un experimento con 4 idiomas, creo que es muy largo y extenso, con 2 ya estaba bien porque al llegar al tercero uno ya está más distraido porque ha hecho por mucho rato lo mismo y al llegar al cuarto idioma ya ni quedan ganas de seguir, si esto fuera más corto uno lo haría con más animo, pero ya al final no me quedaban ganas de seguir y mi atención iba decayendo. Además mejoraría los audios de los idiomas para que se escuchen más claros, por ejemplo los haría con voz humana y no tan pegada cada silaba, es decir con espacios entre medio.  ",76.0,no
36,2023-11-12_20h32.58.555,Unsyncopated1,s73,31.0,masculino,right,España,Español,Bachelor degree,no,no,A,1,what,L2,unsyncopated,s2,r2,36,Online_whatL2//a.go.du27.none.none.wav,mi,cha,ba,sil,fe,bi,su,sil2,ra,ño,sil1,['-'],,,none,none,,,,du,2,testConjL1Uns//dep_viol.r2.s2.0.wav,2.0,conjunction_un,unsyncopated,b,s2,no_rule,dep,L1,m,3.7586,1.0,1.0,0.9818,1.0,1.0,Español,0.0,3.0,2.0,yes,yes,yes,Canto ,19,Guitarra,19,Bateria,19,Piano ,18.0,Bajo ,18.0,,,"Creo que es un exceso hacer un experimento con 4 idiomas, creo que es muy largo y extenso, con 2 ya estaba bien porque al llegar al tercero uno ya está más distraido porque ha hecho por mucho rato lo mismo y al llegar al cuarto idioma ya ni quedan ganas de seguir, si esto fuera más corto uno lo haría con más animo, pero ya al final no me quedaban ganas de seguir y mi atención iba decayendo. Además mejoraría los audios de los idiomas para que se escuchen más claros, por ejemplo los haría con voz humana y no tan pegada cada silaba, es decir con espacios entre medio.  ",76.0,no
37,2023-11-12_20h32.58.555,Unsyncopated1,s73,31.0,masculino,right,España,Español,Bachelor degree,no,no,A,1,what,L2,unsyncopated,s1,r1,37,Online_whatL2//a.go.du25.0.888.wav,go,bi,ñu,sil,du,mi,si,sil2,su,cha,sil1,['catch'],[1.788699999999153],[1.788699999999153],0.888,beat,0.9006999999991531,0.9006999999991531,"[""space""]",du,2,testConjL1Uns//r1.s2.1.wav,2.0,conjunction_un,unsyncopated,a,s2,rule,rule,L1,z,1.7141,1.0,1.0,1.0533,1.0,1.0,Español,0.0,3.0,2.0,yes,yes,yes,Canto ,19,Guitarra,19,Bateria,19,Piano ,18.0,Bajo ,18.0,,,"Creo que es un exceso hacer un experimento con 4 idiomas, creo que es muy largo y extenso, con 2 ya estaba bien porque al llegar al tercero uno ya está más distraido porque ha hecho por mucho rato lo mismo y al llegar al cuarto idioma ya ni quedan ganas de seguir, si esto fuera más corto uno lo haría con más animo, pero ya al final no me quedaban ganas de seguir y mi atención iba decayendo. Además mejoraría los audios de los idiomas para que se escuchen más claros, por ejemplo los haría con voz humana y no tan pegada cada silaba, es decir con espacios entre medio.  ",76.0,no
38,2023-11-12_20h32.58.555,Unsyncopated1,s73,31.0,masculino,right,España,Español,Bachelor degree,no,no,A,1,what,L2,unsyncopated,s2,r2,38,Online_whatL2//a.go.du24.none.none.wav,me,cha,bi,sil,fe,ño,su,sil2,ra,to,sil1,['-'],,,none,none,,,,du,2,testConjL1Uns//time_viol.r1.s1.0.wav,2.0,conjunction_un,unsyncopated,a,s1,no_rule,time,L1,m,2.4654,2.0,1.0,0.8458,1.0,1.0,Español,0.0,3.0,2.0,yes,yes,yes,Canto ,19,Guitarra,19,Bateria,19,Piano ,18.0,Bajo ,18.0,,,"Creo que es un exceso hacer un experimento con 4 idiomas, creo que es muy largo y extenso, con 2 ya estaba bien porque al llegar al tercero uno ya está más distraido porque ha hecho por mucho rato lo mismo y al llegar al cuarto idioma ya ni quedan ganas de seguir, si esto fuera más corto uno lo haría con más animo, pero ya al final no me quedaban ganas de seguir y mi atención iba decayendo. Además mejoraría los audios de los idiomas para que se escuchen más claros, por ejemplo los haría con voz humana y no tan pegada cada silaba, es decir con espacios entre medio.  ",76.0,no
39,2023-11-12_20h32.58.555,Unsyncopated1,s73,31.0,masculino,right,España,Español,Bachelor degree,no,no,A,1,what,L2,unsyncopated,s1,r2,39,Online_whatL2//a.go.du26.none.none.wav,fe,te,si,sil2,ra,ba,to,sil,su,bi,sil1,['-'],,,none,none,,,,du,2,testConjL1Uns//cat_viol.r2.s1.0.wav,2.0,conjunction_un,unsyncopated,b,s1,no_rule,cat,L1,m,3.5647,1.0,1.0,1.0435,1.0,1.0,Español,0.0,3.0,2.0,yes,yes,yes,Canto ,19,Guitarra,19,Bateria,19,Piano ,18.0,Bajo ,18.0,,,"Creo que es un exceso hacer un experimento con 4 idiomas, creo que es muy largo y extenso, con 2 ya estaba bien porque al llegar al tercero uno ya está más distraido porque ha hecho por mucho rato lo mismo y al llegar al cuarto idioma ya ni quedan ganas de seguir, si esto fuera más corto uno lo haría con más animo, pero ya al final no me quedaban ganas de seguir y mi atención iba decayendo. Además mejoraría los audios de los idiomas para que se escuchen más claros, por ejemplo los haría con voz humana y no tan pegada cada silaba, es decir con espacios entre medio.  ",76.0,no
40,2023-11-12_20h32.58.555,Unsyncopated1,s73,31.0,masculino,right,España,Español,Bachelor degree,no,no,A,1,what,L2,unsyncopated,s2,r2,40,Online_whatL2//c.cha.me11.1332.0.wav,me,ba,si,sil2,fe,cha,ñu,sil,ra,bi,sil1,['miss'],,,1.332,no_beat,,,,cha,3,testConjL1Uns//r2.s1.2.wav,2.0,conjunction_un,unsyncopated,b,s1,rule,rule,L1,z,0.911,3.0,1.0,1.3946,1.0,1.0,Español,0.0,3.0,2.0,yes,yes,yes,Canto ,19,Guitarra,19,Bateria,19,Piano ,18.0,Bajo ,18.0,,,"Creo que es un exceso hacer un experimento con 4 idiomas, creo que es muy largo y extenso, con 2 ya estaba bien porque al llegar al tercero uno ya está más distraido porque ha hecho por mucho rato lo mismo y al llegar al cuarto idioma ya ni quedan ganas de seguir, si esto fuera más corto uno lo haría con más animo, pero ya al final no me quedaban ganas de seguir y mi atención iba decayendo. Además mejoraría los audios de los idiomas para que se escuchen más claros, por ejemplo los haría con voz humana y no tan pegada cada silaba, es decir con espacios entre medio.  ",76.0,no
41,2023-11-12_20h32.58.555,Unsyncopated1,s73,31.0,masculino,right,España,Español,Bachelor degree,no,no,A,1,what,L2,unsyncopated,s1,r2,41,Online_whatL2//c.cha.me10.222.1110.wav,fe,cha,ño,sil,ra,me,su,sil1,si,to,sil2,['miss'],,,0.222,no_beat,,,,cha,3,testConjL1Uns//r1.s2.0.wav,2.0,conjunction_un,unsyncopated,a,s2,rule,rule,L1,m,1.9748,1.0,0.0,1.1148,1.0,1.0,Español,0.0,3.0,2.0,yes,yes,yes,Canto ,19,Guitarra,19,Bateria,19,Piano ,18.0,Bajo ,18.0,,,"Creo que es un exceso hacer un experimento con 4 idiomas, creo que es muy largo y extenso, con 2 ya estaba bien porque al llegar al tercero uno ya está más distraido porque ha hecho por mucho rato lo mismo y al llegar al cuarto idioma ya ni quedan ganas de seguir, si esto fuera más corto uno lo haría con más animo, pero ya al final no me quedaban ganas de seguir y mi atención iba decayendo. Además mejoraría los audios de los idiomas para que se escuchen más claros, por ejemplo los haría con voz humana y no tan pegada cada silaba, es decir con espacios entre medio.  ",76.0,no
42,2023-11-12_20h32.58.555,Unsyncopated1,s73,31.0,masculino,right,España,Español,Bachelor degree,no,no,A,1,what,L2,unsyncopated,s2,r2,42,Online_whatL2//c.cha.me9.none.none.wav,te,to,si,sil2,fe,su,ñu,sil,ra,bi,sil1,['false alarm'],[2.5691999999992277],[2.5691999999992277],none,none,,,"[""space""]",cha,3,testConjL1Uns//time_viol.r2.s1.0.wav,2.0,conjunction_un,unsyncopated,b,s1,no_rule,time,L1,z,0.9321,2.0,0.0,1.2984,1.0,1.0,Español,0.0,3.0,2.0,yes,yes,yes,Canto ,19,Guitarra,19,Bateria,19,Piano ,18.0,Bajo ,18.0,,,"Creo que es un exceso hacer un experimento con 4 idiomas, creo que es muy largo y extenso, con 2 ya estaba bien porque al llegar al tercero uno ya está más distraido porque ha hecho por mucho rato lo mismo y al llegar al cuarto idioma ya ni quedan ganas de seguir, si esto fuera más corto uno lo haría con más animo, pero ya al final no me quedaban ganas de seguir y mi atención iba decayendo. Además mejoraría los audios de los idiomas para que se escuchen más claros, por ejemplo los haría con voz humana y no tan pegada cada silaba, es decir con espacios entre medio.  ",76.0,no
43,2023-11-12_20h32.58.555,Unsyncopated1,s73,31.0,masculino,right,España,Español,Bachelor degree,no,no,A,1,what,L2,unsyncopated,s1,r1,43,Online_whatL2//c.cha.me8.1998.1332.wav,go,ñu,ño,sil2,du,me,mi,sil,cha,su,sil1,['catch_delay'],[0.9361000000015485],[0.9361000000015485],1.998,no_beat,0.9361000000015484,0.9361000000015484,,cha,3,testConjL1Uns//cat_viol.r1.s1.0.wav,2.0,conjunction_un,unsyncopated,a,s1,no_rule,cat,L1,m,3.248,1.0,1.0,0.9981,1.0,1.0,Español,0.0,3.0,2.0,yes,yes,yes,Canto ,19,Guitarra,19,Bateria,19,Piano ,18.0,Bajo ,18.0,,,"Creo que es un exceso hacer un experimento con 4 idiomas, creo que es muy largo y extenso, con 2 ya estaba bien porque al llegar al tercero uno ya está más distraido porque ha hecho por mucho rato lo mismo y al llegar al cuarto idioma ya ni quedan ganas de seguir, si esto fuera más corto uno lo haría con más animo, pero ya al final no me quedaban ganas de seguir y mi atención iba decayendo. Además mejoraría los audios de los idiomas para que se escuchen más claros, por ejemplo los haría con voz humana y no tan pegada cada silaba, es decir con espacios entre medio.  ",76.0,no
44,2023-11-12_20h32.58.555,Unsyncopated1,s73,31.0,masculino,right,España,Español,Bachelor degree,no,no,A,1,what,L2,unsyncopated,s2,r1,44,Online_whatL2//b.fe.ra17.none.none.wav,ñu,su,to,sil,go,te,bi,sil2,du,si,sil1,['-'],[0.2701000000015483],[0.2701000000015483],none,none,,,"[""space""]",fe,1,testConjL1Uns//r1.s2.2.wav,2.0,conjunction_un,unsyncopated,a,s2,rule,rule,L1,z,4.1739,1.0,1.0,0.5688,1.0,1.0,Español,0.0,3.0,2.0,yes,yes,yes,Canto ,19,Guitarra,19,Bateria,19,Piano ,18.0,Bajo ,18.0,,,"Creo que es un exceso hacer un experimento con 4 idiomas, creo que es muy largo y extenso, con 2 ya estaba bien porque al llegar al tercero uno ya está más distraido porque ha hecho por mucho rato lo mismo y al llegar al cuarto idioma ya ni quedan ganas de seguir, si esto fuera más corto uno lo haría con más animo, pero ya al final no me quedaban ganas de seguir y mi atención iba decayendo. Además mejoraría los audios de los idiomas para que se escuchen más claros, por ejemplo los haría con voz humana y no tan pegada cada silaba, es decir con espacios entre medio.  ",76.0,no
45,2023-11-12_20h32.58.555,Unsyncopated1,s73,31.0,masculino,right,España,Español,Bachelor degree,no,no,A,1,what,L2,unsyncopated,s1,r2,45,Online_whatL2//b.fe.ra16.0.1110.wav,fe,te,su,sil2,ra,si,ñu,sil,cha,mi,sil1,['catch'],[0.5283000000008542],[0.5283000000008542],0.0,beat,0.5283000000008542,0.5283000000008542,"[""space""]",fe,1,testConjL1Uns//cat_viol.r2.s2.0.wav,2.0,conjunction_un,unsyncopated,b,s2,no_rule,cat,L1,z,0.3999,2.0,0.0,1.0383,1.0,1.0,Español,0.0,3.0,2.0,yes,yes,yes,Canto ,19,Guitarra,19,Bateria,19,Piano ,18.0,Bajo ,18.0,,,"Creo que es un exceso hacer un experimento con 4 idiomas, creo que es muy largo y extenso, con 2 ya estaba bien porque al llegar al tercero uno ya está más distraido porque ha hecho por mucho rato lo mismo y al llegar al cuarto idioma ya ni quedan ganas de seguir, si esto fuera más corto uno lo haría con más animo, pero ya al final no me quedaban ganas de seguir y mi atención iba decayendo. Además mejoraría los audios de los idiomas para que se escuchen más claros, por ejemplo los haría con voz humana y no tan pegada cada silaba, es decir con espacios entre medio.  ",76.0,no
46,2023-11-12_20h32.58.555,Unsyncopated1,s73,31.0,masculino,right,España,Español,Bachelor degree,no,no,A,1,what,L2,unsyncopated,s1,r2,46,Online_whatL2//b.fe.ra19.0.888.wav,fe,si,ñu,sil,ra,me,su,sil2,cha,to,sil1,['catch'],[0.6578000000008615],[0.6578000000008615],0.0,beat,0.6578000000008615,0.6578000000008615,"[""space""]",fe,1,testConjL1Uns//time_viol.r1.s2.0.wav,2.0,conjunction_un,unsyncopated,a,s2,no_rule,time,L1,z,1.8167,2.0,0.0,1.2804,1.0,1.0,Español,0.0,3.0,2.0,yes,yes,yes,Canto ,19,Guitarra,19,Bateria,19,Piano ,18.0,Bajo ,18.0,,,"Creo que es un exceso hacer un experimento con 4 idiomas, creo que es muy largo y extenso, con 2 ya estaba bien porque al llegar al tercero uno ya está más distraido porque ha hecho por mucho rato lo mismo y al llegar al cuarto idioma ya ni quedan ganas de seguir, si esto fuera más corto uno lo haría con más animo, pero ya al final no me quedaban ganas de seguir y mi atención iba decayendo. Además mejoraría los audios de los idiomas para que se escuchen más claros, por ejemplo los haría con voz humana y no tan pegada cada silaba, es decir con espacios entre medio.  ",76.0,no
47,2023-11-12_20h32.58.555,Unsyncopated1,s73,31.0,masculino,right,España,Español,Bachelor degree,no,no,A,1,what,L2,unsyncopated,s1,r1,47,Online_whatL2//b.fe.ra18.none.none.wav,go,si,te,sil,du,to,ño,sil2,me,bi,sil1,['-'],,,none,none,,,,fe,1,testConjL1Uns//cat_viol.r1.s2.0.wav,2.0,conjunction_un,unsyncopated,a,s2,no_rule,cat,L1,m,2.6568,1.0,1.0,0.8299,1.0,1.0,Español,0.0,3.0,2.0,yes,yes,yes,Canto ,19,Guitarra,19,Bateria,19,Piano ,18.0,Bajo ,18.0,,,"Creo que es un exceso hacer un experimento con 4 idiomas, creo que es muy largo y extenso, con 2 ya estaba bien porque al llegar al tercero uno ya está más distraido porque ha hecho por mucho rato lo mismo y al llegar al cuarto idioma ya ni quedan ganas de seguir, si esto fuera más corto uno lo haría con más animo, pero ya al final no me quedaban ganas de seguir y mi atención iba decayendo. Además mejoraría los audios de los idiomas para que se escuchen más claros, por ejemplo los haría con voz humana y no tan pegada cada silaba, es decir con espacios entre medio.  ",76.0,no
48,2023-11-12_20h32.58.555,Unsyncopated1,s73,31.0,masculino,right,España,Español,Bachelor degree,no,no,A,1,what,L2,unsyncopated,s2,r1,48,Online_whatL2//b.fe.ra12.none.none.wav,te,mi,ñu,sil,go,bi,to,sil2,du,cha,sil1,['-'],,,none,none,,,,fe,1,testWhenL3Uns//dep_viol.r2.s2.0.wav,3.0,when,unsyncopated,b,s2,no_rule,dep,L3,m,0.9133,3.0,0.0,1.3883,1.0,1.0,Español,0.0,3.0,2.0,yes,yes,yes,Canto ,19,Guitarra,19,Bateria,19,Piano ,18.0,Bajo ,18.0,,,"Creo que es un exceso hacer un experimento con 4 idiomas, creo que es muy largo y extenso, con 2 ya estaba bien porque al llegar al tercero uno ya está más distraido porque ha hecho por mucho rato lo mismo y al llegar al cuarto idioma ya ni quedan ganas de seguir, si esto fuera más corto uno lo haría con más animo, pero ya al final no me quedaban ganas de seguir y mi atención iba decayendo. Además mejoraría los audios de los idiomas para que se escuchen más claros, por ejemplo los haría con voz humana y no tan pegada cada silaba, es decir con espacios entre medio.  ",76.0,no
49,2023-11-12_20h32.58.555,Unsyncopated1,s73,31.0,masculino,right,España,Español,Bachelor degree,no,no,A,1,what,L2,unsyncopated,s1,r1,49,Online_whatL2//b.fe.ra13.none.none.wav,go,mi,te,sil2,du,to,si,sil,ñu,me,sil1,['-'],,,none,none,,,,fe,1,testWhenL3Uns//dep_viol.r2.s1.0.wav,3.0,when,unsyncopated,b,s1,no_rule,dep,L3,z,0.8659,1.0,1.0,0.973,1.0,1.0,Español,0.0,3.0,2.0,yes,yes,yes,Canto ,19,Guitarra,19,Bateria,19,Piano ,18.0,Bajo ,18.0,,,"Creo que es un exceso hacer un experimento con 4 idiomas, creo que es muy largo y extenso, con 2 ya estaba bien porque al llegar al tercero uno ya está más distraido porque ha hecho por mucho rato lo mismo y al llegar al cuarto idioma ya ni quedan ganas de seguir, si esto fuera más corto uno lo haría con más animo, pero ya al final no me quedaban ganas de seguir y mi atención iba decayendo. Además mejoraría los audios de los idiomas para que se escuchen más claros, por ejemplo los haría con voz humana y no tan pegada cada silaba, es decir con espacios entre medio.  ",76.0,no
50,2023-11-12_20h32.58.555,Unsyncopated1,s73,31.0,masculino,right,España,Español,Bachelor degree,no,no,A,1,what,L2,unsyncopated,s1,r1,50,Online_whatL2//b.fe.ra14.none.none.wav,go,bi,su,sil,du,me,te,sil2,to,cha,sil1,['-'],,,none,none,,,,fe,1,testWhenL3Uns//r2.s2.0.wav,3.0,when,unsyncopated,b,s2,rule,rule,L3,m,6.8759,1.0,0.0,0.9815,1.0,1.0,Español,0.0,3.0,2.0,yes,yes,yes,Canto ,19,Guitarra,19,Bateria,19,Piano ,18.0,Bajo ,18.0,,,"Creo que es un exceso hacer un experimento con 4 idiomas, creo que es muy largo y extenso, con 2 ya estaba bien porque al llegar al tercero uno ya está más distraido porque ha hecho por mucho rato lo mismo y al llegar al cuarto idioma ya ni quedan ganas de seguir, si esto fuera más corto uno lo haría con más animo, pero ya al final no me quedaban ganas de seguir y mi atención iba decayendo. Además mejoraría los audios de los idiomas para que se escuchen más claros, por ejemplo los haría con voz humana y no tan pegada cada silaba, es decir con espacios entre medio.  ",76.0,no
51,2023-11-12_20h32.58.555,Unsyncopated1,s73,31.0,masculino,right,España,Español,Bachelor degree,no,no,A,1,what,L2,unsyncopated,s2,r2,51,Online_whatL2//b.fe.ra15.888.1998.wav,to,ñu,cha,sil,fe,me,ba,sil2,ra,si,sil1,['catch'],[1.492300000000796],[1.492300000000796],0.888,beat,0.604300000000796,0.604300000000796,"[""space""]",fe,1,testWhenL3Uns//cat_viol.r2.s2.0.wav,3.0,when,unsyncopated,b,s2,no_rule,cat,L3,m,3.2301,1.0,0.0,0.8691,1.0,1.0,Español,0.0,3.0,2.0,yes,yes,yes,Canto ,19,Guitarra,19,Bateria,19,Piano ,18.0,Bajo ,18.0,,,"Creo que es un exceso hacer un experimento con 4 idiomas, creo que es muy largo y extenso, con 2 ya estaba bien porque al llegar al tercero uno ya está más distraido porque ha hecho por mucho rato lo mismo y al llegar al cuarto idioma ya ni quedan ganas de seguir, si esto fuera más corto uno lo haría con más animo, pero ya al final no me quedaban ganas de seguir y mi atención iba decayendo. Además mejoraría los audios de los idiomas para que se escuchen más claros, por ejemplo los haría con voz humana y no tan pegada cada silaba, es decir con espacios entre medio.  ",76.0,no
52,2023-11-12_20h32.58.555,Unsyncopated1,s73,31.0,masculino,right,España,Español,Bachelor degree,no,no,A,1,what,L2,unsyncopated,s2,r2,52,Online_whatL2//c.cha.me4.none.none.wav,ba,te,su,sil2,fe,ño,si,sil,ra,ñu,sil1,['-'],,,none,none,,,,cha,3,testWhenL3Uns//r1.s1.1.wav,3.0,when,unsyncopated,a,s1,rule,rule,L3,z,0.91,7.0,1.0,2.3827,1.0,1.0,Español,0.0,3.0,2.0,yes,yes,yes,Canto ,19,Guitarra,19,Bateria,19,Piano ,18.0,Bajo ,18.0,,,"Creo que es un exceso hacer un experimento con 4 idiomas, creo que es muy largo y extenso, con 2 ya estaba bien porque al llegar al tercero uno ya está más distraido porque ha hecho por mucho rato lo mismo y al llegar al cuarto idioma ya ni quedan ganas de seguir, si esto fuera más corto uno lo haría con más animo, pero ya al final no me quedaban ganas de seguir y mi atención iba decayendo. Además mejoraría los audios de los idiomas para que se escuchen más claros, por ejemplo los haría con voz humana y no tan pegada cada silaba, es decir con espacios entre medio.  ",76.0,no
53,2023-11-12_20h32.58.555,Unsyncopated1,s73,31.0,masculino,right,España,Español,Bachelor degree,no,no,A,1,what,L2,unsyncopated,s2,r1,53,Online_whatL2//c.cha.me5.none.none.wav,ñu,mi,ño,sil2,go,te,ba,sil,du,su,sil1,['-'],,,none,none,,,,cha,3,testWhenL3Uns//cat_viol.r2.s1.0.wav,3.0,when,unsyncopated,b,s1,no_rule,cat,L3,m,2.811,1.0,0.0,0.4858,1.0,1.0,Español,0.0,3.0,2.0,yes,yes,yes,Canto ,19,Guitarra,19,Bateria,19,Piano ,18.0,Bajo ,18.0,,,"Creo que es un exceso hacer un experimento con 4 idiomas, creo que es muy largo y extenso, con 2 ya estaba bien porque al llegar al tercero uno ya está más distraido porque ha hecho por mucho rato lo mismo y al llegar al cuarto idioma ya ni quedan ganas de seguir, si esto fuera más corto uno lo haría con más animo, pero ya al final no me quedaban ganas de seguir y mi atención iba decayendo. Además mejoraría los audios de los idiomas para que se escuchen más claros, por ejemplo los haría con voz humana y no tan pegada cada silaba, es decir con espacios entre medio.  ",76.0,no
54,2023-11-12_20h32.58.555,Unsyncopated1,s73,31.0,masculino,right,España,Español,Bachelor degree,no,no,A,1,what,L2,unsyncopated,s1,r1,54,Online_whatL2//c.cha.me7.222.444.wav,go,cha,me,sil,du,bi,si,sil1,su,ba,sil2,['catch'],[0.8574000000021442],[0.8574000000021442],0.222,no_beat,0.6354000000021442,0.6354000000021442,"[""space""]",cha,3,testWhenL3Uns//cat_viol.r1.s1.0.wav,3.0,when,unsyncopated,a,s1,no_rule,cat,L3,z,0.2784,7.0,1.0,1.7754,1.0,1.0,Español,0.0,3.0,2.0,yes,yes,yes,Canto ,19,Guitarra,19,Bateria,19,Piano ,18.0,Bajo ,18.0,,,"Creo que es un exceso hacer un experimento con 4 idiomas, creo que es muy largo y extenso, con 2 ya estaba bien porque al llegar al tercero uno ya está más distraido porque ha hecho por mucho rato lo mismo y al llegar al cuarto idioma ya ni quedan ganas de seguir, si esto fuera más corto uno lo haría con más animo, pero ya al final no me quedaban ganas de seguir y mi atención iba decayendo. Además mejoraría los audios de los idiomas para que se escuchen más claros, por ejemplo los haría con voz humana y no tan pegada cada silaba, es decir con espacios entre medio.  ",76.0,no
55,2023-11-12_20h32.58.555,Unsyncopated1,s73,31.0,masculino,right,España,Español,Bachelor degree,no,no,A,1,what,L2,unsyncopated,s1,r2,55,Online_whatL2//c.cha.me6.222.1110.wav,fe,cha,ba,sil,ra,me,te,sil2,si,mi,sil1,['miss'],,,0.222,no_beat,,,,cha,3,testWhenL3Uns//cat_viol.r1.s2.0.wav,3.0,when,unsyncopated,a,s2,no_rule,cat,L3,z,0.8365,3.0,1.0,2.3687,1.0,1.0,Español,0.0,3.0,2.0,yes,yes,yes,Canto ,19,Guitarra,19,Bateria,19,Piano ,18.0,Bajo ,18.0,,,"Creo que es un exceso hacer un experimento con 4 idiomas, creo que es muy largo y extenso, con 2 ya estaba bien porque al llegar al tercero uno ya está más distraido porque ha hecho por mucho rato lo mismo y al llegar al cuarto idioma ya ni quedan ganas de seguir, si esto fuera más corto uno lo haría con más animo, pero ya al final no me quedaban ganas de seguir y mi atención iba decayendo. Además mejoraría los audios de los idiomas para que se escuchen más claros, por ejemplo los haría con voz humana y no tan pegada cada silaba, es decir con espacios entre medio.  ",76.0,no
56,2023-11-12_20h32.58.555,Unsyncopated1,s73,31.0,masculino,right,España,Español,Bachelor degree,no,no,A,1,what,L2,unsyncopated,s2,r2,56,Online_whatL2//a.go.du21.none.none.wav,ñu,ba,mi,sil,fe,cha,me,sil2,ra,bi,sil1,['-'],,,none,none,,,,du,2,testWhenL3Uns//r1.s1.0.wav,3.0,when,unsyncopated,a,s1,rule,rule,L3,z,0.2205,1.0,1.0,1.0134,1.0,1.0,Español,0.0,3.0,2.0,yes,yes,yes,Canto ,19,Guitarra,19,Bateria,19,Piano ,18.0,Bajo ,18.0,,,"Creo que es un exceso hacer un experimento con 4 idiomas, creo que es muy largo y extenso, con 2 ya estaba bien porque al llegar al tercero uno ya está más distraido porque ha hecho por mucho rato lo mismo y al llegar al cuarto idioma ya ni quedan ganas de seguir, si esto fuera más corto uno lo haría con más animo, pero ya al final no me quedaban ganas de seguir y mi atención iba decayendo. Además mejoraría los audios de los idiomas para que se escuchen más claros, por ejemplo los haría con voz humana y no tan pegada cada silaba, es decir con espacios entre medio.  ",76.0,no
57,2023-11-12_20h32.58.555,Unsyncopated1,s73,31.0,masculino,right,España,Español,Bachelor degree,no,no,A,1,what,L2,unsyncopated,s2,r1,57,Online_whatL2//a.go.du22.888.1776.wav,me,ño,cha,sil,go,te,ñu,sil1,du,to,sil2,['miss'],,,1.776,beat,,,,du,2,testWhenL3Uns//r1.s1.2.wav,3.0,when,unsyncopated,a,s1,rule,rule,L3,m,1.482,1.0,0.0,0.3394,1.0,1.0,Español,0.0,3.0,2.0,yes,yes,yes,Canto ,19,Guitarra,19,Bateria,19,Piano ,18.0,Bajo ,18.0,,,"Creo que es un exceso hacer un experimento con 4 idiomas, creo que es muy largo y extenso, con 2 ya estaba bien porque al llegar al tercero uno ya está más distraido porque ha hecho por mucho rato lo mismo y al llegar al cuarto idioma ya ni quedan ganas de seguir, si esto fuera más corto uno lo haría con más animo, pero ya al final no me quedaban ganas de seguir y mi atención iba decayendo. Además mejoraría los audios de los idiomas para que se escuchen más claros, por ejemplo los haría con voz humana y no tan pegada cada silaba, es decir con espacios entre medio.  ",76.0,no
58,2023-11-12_20h32.58.555,Unsyncopated1,s73,31.0,masculino,right,España,Español,Bachelor degree,no,no,A,1,what,L2,unsyncopated,s2,r2,58,Online_whatL2//a.go.du20.none.none.wav,mi,ba,cha,sil,fe,to,ñu,sil1,ra,bi,sil2,['false alarm'],[0.42639999999846623],[0.42639999999846623],none,none,,,"[""space""]",du,2,testWhenL3Uns//r2.s2.2.wav,3.0,when,unsyncopated,b,s2,rule,rule,L3,m,1.4671,1.0,0.0,0.5662,1.0,1.0,Español,0.0,3.0,2.0,yes,yes,yes,Canto ,19,Guitarra,19,Bateria,19,Piano ,18.0,Bajo ,18.0,,,"Creo que es un exceso hacer un experimento con 4 idiomas, creo que es muy largo y extenso, con 2 ya estaba bien porque al llegar al tercero uno ya está más distraido porque ha hecho por mucho rato lo mismo y al llegar al cuarto idioma ya ni quedan ganas de seguir, si esto fuera más corto uno lo haría con más animo, pero ya al final no me quedaban ganas de seguir y mi atención iba decayendo. Además mejoraría los audios de los idiomas para que se escuchen más claros, por ejemplo los haría con voz humana y no tan pegada cada silaba, es decir con espacios entre medio.  ",76.0,no
59,2023-11-12_20h32.58.555,Unsyncopated1,s73,31.0,masculino,right,España,Español,Bachelor degree,no,no,A,1,what,L2,unsyncopated,s1,r2,59,Online_whatL2//a.go.du23.none.none.wav,fe,si,me,sil2,ra,mi,ba,sil,ño,ñu,sil1,['-'],,,none,none,,,,du,2,testWhenL3Uns//r2.s1.2.wav,3.0,when,unsyncopated,b,s1,rule,rule,L3,z,1.085,5.0,1.0,1.2026,1.0,1.0,Español,0.0,3.0,2.0,yes,yes,yes,Canto ,19,Guitarra,19,Bateria,19,Piano ,18.0,Bajo ,18.0,,,"Creo que es un exceso hacer un experimento con 4 idiomas, creo que es muy largo y extenso, con 2 ya estaba bien porque al llegar al tercero uno ya está más distraido porque ha hecho por mucho rato lo mismo y al llegar al cuarto idioma ya ni quedan ganas de seguir, si esto fuera más corto uno lo haría con más animo, pero ya al final no me quedaban ganas de seguir y mi atención iba decayendo. Además mejoraría los audios de los idiomas para que se escuchen más claros, por ejemplo los haría con voz humana y no tan pegada cada silaba, es decir con espacios entre medio.  ",76.0,no
60,2023-11-12_20h32.58.555,Unsyncopated1,s73,31.0,masculino,right,España,Español,Bachelor degree,no,no,A,1,what,L2,unsyncopated,s2,r2,60,Online_whatL2//b.fe.ra29.1110.1998.wav,ñu,si,cha,sil2,fe,ba,ño,sil,ra,me,sil1,['catch'],[1.7508999999986372],[1.7508999999986372],1.11,no_beat,0.6408999999986371,0.6408999999986371,"[""space""]",fe,1,testWhenL3Uns//r2.s1.0.wav,3.0,when,unsyncopated,b,s1,rule,rule,L3,z,1.5977,3.0,1.0,0.7857,1.0,1.0,Español,0.0,3.0,2.0,yes,yes,yes,Canto ,19,Guitarra,19,Bateria,19,Piano ,18.0,Bajo ,18.0,,,"Creo que es un exceso hacer un experimento con 4 idiomas, creo que es muy largo y extenso, con 2 ya estaba bien porque al llegar al tercero uno ya está más distraido porque ha hecho por mucho rato lo mismo y al llegar al cuarto idioma ya ni quedan ganas de seguir, si esto fuera más corto uno lo haría con más animo, pero ya al final no me quedaban ganas de seguir y mi atención iba decayendo. Además mejoraría los audios de los idiomas para que se escuchen más claros, por ejemplo los haría con voz humana y no tan pegada cada silaba, es decir con espacios entre medio.  ",76.0,no
61,2023-11-12_20h32.58.555,Unsyncopated1,s73,31.0,masculino,right,España,Español,Bachelor degree,no,no,A,1,what,L2,unsyncopated,s1,r2,61,Online_whatL2//b.fe.ra28.0.888.wav,fe,me,mi,sil,ra,cha,bi,sil2,su,to,sil1,['miss'],,,0.0,beat,,,,fe,1,testWhenL3Uns//r2.s1.1.wav,3.0,when,unsyncopated,b,s1,rule,rule,L3,m,0.9817,1.0,0.0,0.8988,1.0,1.0,Español,0.0,3.0,2.0,yes,yes,yes,Canto ,19,Guitarra,19,Bateria,19,Piano ,18.0,Bajo ,18.0,,,"Creo que es un exceso hacer un experimento con 4 idiomas, creo que es muy largo y extenso, con 2 ya estaba bien porque al llegar al tercero uno ya está más distraido porque ha hecho por mucho rato lo mismo y al llegar al cuarto idioma ya ni quedan ganas de seguir, si esto fuera más corto uno lo haría con más animo, pero ya al final no me quedaban ganas de seguir y mi atención iba decayendo. Además mejoraría los audios de los idiomas para que se escuchen más claros, por ejemplo los haría con voz humana y no tan pegada cada silaba, es decir con espacios entre medio.  ",76.0,no
62,2023-11-12_20h32.58.555,Unsyncopated1,s73,31.0,masculino,right,España,Español,Bachelor degree,no,no,A,1,what,L2,unsyncopated,s1,r2,62,Online_whatL2//b.fe.ra31.0.888.wav,fe,bi,to,sil,ra,ño,me,sil1,su,te,sil2,['catch'],[1.6837000000030002],[1.6837000000030002],0.0,beat,,1.6837000000030002,"[""space""]",fe,1,testWhenL3Uns//time_viol.r2.s1.0.wav,3.0,when,unsyncopated,b,s1,no_rule,time,L3,m,5.6696,1.0,0.0,0.5991,1.0,1.0,Español,0.0,3.0,2.0,yes,yes,yes,Canto ,19,Guitarra,19,Bateria,19,Piano ,18.0,Bajo ,18.0,,,"Creo que es un exceso hacer un experimento con 4 idiomas, creo que es muy largo y extenso, con 2 ya estaba bien porque al llegar al tercero uno ya está más distraido porque ha hecho por mucho rato lo mismo y al llegar al cuarto idioma ya ni quedan ganas de seguir, si esto fuera más corto uno lo haría con más animo, pero ya al final no me quedaban ganas de seguir y mi atención iba decayendo. Además mejoraría los audios de los idiomas para que se escuchen más claros, por ejemplo los haría con voz humana y no tan pegada cada silaba, es decir con espacios entre medio.  ",76.0,no
63,2023-11-12_20h32.58.555,Unsyncopated1,s73,31.0,masculino,right,España,Español,Bachelor degree,no,no,A,1,what,L2,unsyncopated,s2,r1,63,Online_whatL2//b.fe.ra30.none.none.wav,si,cha,bi,sil,go,ba,to,sil1,du,me,sil2,['-'],,,none,none,,,,fe,1,testWhenL3Uns//time_viol.r1.s1.0.wav,3.0,when,unsyncopated,a,s1,no_rule,time,L3,z,1.3204,5.0,1.0,0.7011,1.0,1.0,Español,0.0,3.0,2.0,yes,yes,yes,Canto ,19,Guitarra,19,Bateria,19,Piano ,18.0,Bajo ,18.0,,,"Creo que es un exceso hacer un experimento con 4 idiomas, creo que es muy largo y extenso, con 2 ya estaba bien porque al llegar al tercero uno ya está más distraido porque ha hecho por mucho rato lo mismo y al llegar al cuarto idioma ya ni quedan ganas de seguir, si esto fuera más corto uno lo haría con más animo, pero ya al final no me quedaban ganas de seguir y mi atención iba decayendo. Además mejoraría los audios de los idiomas para que se escuchen más claros, por ejemplo los haría con voz humana y no tan pegada cada silaba, es decir con espacios entre medio.  ",76.0,no
64,2023-11-12_20h32.58.555,Unsyncopated1,s73,31.0,masculino,right,España,Español,Bachelor degree,no,no,A,1,what,L2,unsyncopated,s1,r1,64,Online_whatL2//a.go.du18.0.1110.wav,go,cha,me,sil2,du,ño,ñu,sil,ba,mi,sil1,['miss'],,,1.11,no_beat,,,,du,2,testWhenL3Uns//r2.s2.1.wav,3.0,when,unsyncopated,b,s2,rule,rule,L3,z,0.5987,1.0,1.0,0.9834,1.0,1.0,Español,0.0,3.0,2.0,yes,yes,yes,Canto ,19,Guitarra,19,Bateria,19,Piano ,18.0,Bajo ,18.0,,,"Creo que es un exceso hacer un experimento con 4 idiomas, creo que es muy largo y extenso, con 2 ya estaba bien porque al llegar al tercero uno ya está más distraido porque ha hecho por mucho rato lo mismo y al llegar al cuarto idioma ya ni quedan ganas de seguir, si esto fuera más corto uno lo haría con más animo, pero ya al final no me quedaban ganas de seguir y mi atención iba decayendo. Además mejoraría los audios de los idiomas para que se escuchen más claros, por ejemplo los haría con voz humana y no tan pegada cada silaba, es decir con espacios entre medio.  ",76.0,no
65,2023-11-12_20h32.58.555,Unsyncopated1,s73,31.0,masculino,right,España,Español,Bachelor degree,no,no,A,1,what,L2,unsyncopated,s2,r1,65,Online_whatL2//a.go.du16.888.1776.wav,cha,bi,mi,sil,go,me,to,sil1,du,ño,sil2,['catch'],[2.425100000001521],[2.425100000001521],1.776,beat,0.649100000001521,0.649100000001521,"[""space""]",du,2,testWhenL3Uns//r1.s2.2.wav,3.0,when,unsyncopated,a,s2,rule,rule,L3,m,1.6568,1.0,0.0,1.4981,1.0,1.0,Español,0.0,3.0,2.0,yes,yes,yes,Canto ,19,Guitarra,19,Bateria,19,Piano ,18.0,Bajo ,18.0,,,"Creo que es un exceso hacer un experimento con 4 idiomas, creo que es muy largo y extenso, con 2 ya estaba bien porque al llegar al tercero uno ya está más distraido porque ha hecho por mucho rato lo mismo y al llegar al cuarto idioma ya ni quedan ganas de seguir, si esto fuera más corto uno lo haría con más animo, pero ya al final no me quedaban ganas de seguir y mi atención iba decayendo. Además mejoraría los audios de los idiomas para que se escuchen más claros, por ejemplo los haría con voz humana y no tan pegada cada silaba, es decir con espacios entre medio.  ",76.0,no
66,2023-11-12_20h32.58.555,Unsyncopated1,s73,31.0,masculino,right,España,Español,Bachelor degree,no,no,A,1,what,L2,unsyncopated,s2,r1,66,Online_whatL2//a.go.du19.1110.1998.wav,si,cha,ñu,sil2,go,mi,ño,sil,du,me,sil1,['catch_delay'],[0.7936000000013939],[0.7936000000013939],1.998,no_beat,0.7936000000013939,0.7936000000013939,,du,2,testWhenL3Uns//time_viol.r2.s2.0.wav,3.0,when,unsyncopated,b,s2,no_rule,time,L3,m,0.5709,1.0,0.0,0.9844,1.0,1.0,Español,0.0,3.0,2.0,yes,yes,yes,Canto ,19,Guitarra,19,Bateria,19,Piano ,18.0,Bajo ,18.0,,,"Creo que es un exceso hacer un experimento con 4 idiomas, creo que es muy largo y extenso, con 2 ya estaba bien porque al llegar al tercero uno ya está más distraido porque ha hecho por mucho rato lo mismo y al llegar al cuarto idioma ya ni quedan ganas de seguir, si esto fuera más corto uno lo haría con más animo, pero ya al final no me quedaban ganas de seguir y mi atención iba decayendo. Además mejoraría los audios de los idiomas para que se escuchen más claros, por ejemplo los haría con voz humana y no tan pegada cada silaba, es decir con espacios entre medio.  ",76.0,no
67,2023-11-12_20h32.58.555,Unsyncopated1,s73,31.0,masculino,right,España,Español,Bachelor degree,no,no,A,1,what,L2,unsyncopated,s2,r1,67,Online_whatL2//a.go.du17.888.1776.wav,si,ño,bi,sil,go,te,ñu,sil1,du,su,sil2,['catch'],"[0.1276000000013937, 2.4413999999985663]",[2.4413999999985663],1.776,beat,0.6653999999985662,0.6653999999985662,"[""space"",""space""]",du,2,testWhenL3Uns//dep_viol.r1.s2.0.wav,3.0,when,unsyncopated,a,s2,no_rule,dep,L3,m,0.6111,1.0,0.0,0.9553,1.0,1.0,Español,0.0,3.0,2.0,yes,yes,yes,Canto ,19,Guitarra,19,Bateria,19,Piano ,18.0,Bajo ,18.0,,,"Creo que es un exceso hacer un experimento con 4 idiomas, creo que es muy largo y extenso, con 2 ya estaba bien porque al llegar al tercero uno ya está más distraido porque ha hecho por mucho rato lo mismo y al llegar al cuarto idioma ya ni quedan ganas de seguir, si esto fuera más corto uno lo haría con más animo, pero ya al final no me quedaban ganas de seguir y mi atención iba decayendo. Además mejoraría los audios de los idiomas para que se escuchen más claros, por ejemplo los haría con voz humana y no tan pegada cada silaba, es decir con espacios entre medio.  ",76.0,no
68,2023-11-12_20h32.58.555,Unsyncopated1,s73,31.0,masculino,right,España,Español,Bachelor degree,no,no,A,1,what,L2,unsyncopated,s2,r2,68,Online_whatL2//d.si.ñu1.none.none.wav,te,ño,bi,sil,fe,cha,to,sil1,ra,mi,sil2,['-'],,,none,none,,,,si,4,testWhenL3Uns//time_viol.r1.s2.0.wav,3.0,when,unsyncopated,a,s2,no_rule,time,L3,z,1.4957,2.0,1.0,1.4656,1.0,1.0,Español,0.0,3.0,2.0,yes,yes,yes,Canto ,19,Guitarra,19,Bateria,19,Piano ,18.0,Bajo ,18.0,,,"Creo que es un exceso hacer un experimento con 4 idiomas, creo que es muy largo y extenso, con 2 ya estaba bien porque al llegar al tercero uno ya está más distraido porque ha hecho por mucho rato lo mismo y al llegar al cuarto idioma ya ni quedan ganas de seguir, si esto fuera más corto uno lo haría con más animo, pero ya al final no me quedaban ganas de seguir y mi atención iba decayendo. Además mejoraría los audios de los idiomas para que se escuchen más claros, por ejemplo los haría con voz humana y no tan pegada cada silaba, es decir con espacios entre medio.  ",76.0,no
69,2023-11-12_20h32.58.555,Unsyncopated1,s73,31.0,masculino,right,España,Español,Bachelor degree,no,no,A,1,what,L2,unsyncopated,s2,r1,69,Online_whatL2//d.si.ñu0.0.444.wav,si,mi,ñu,sil,go,ba,te,sil2,du,to,sil1,['catch'],[0.5566999999991822],[0.5566999999991822],0.0,beat,0.5566999999991822,0.5566999999991822,"[""space""]",si,4,testWhenL3Uns//dep_viol.r1.s1.0.wav,3.0,when,unsyncopated,a,s1,no_rule,dep,L3,z,0.3827,1.0,1.0,0.4533,1.0,1.0,Español,0.0,3.0,2.0,yes,yes,yes,Canto ,19,Guitarra,19,Bateria,19,Piano ,18.0,Bajo ,18.0,,,"Creo que es un exceso hacer un experimento con 4 idiomas, creo que es muy largo y extenso, con 2 ya estaba bien porque al llegar al tercero uno ya está más distraido porque ha hecho por mucho rato lo mismo y al llegar al cuarto idioma ya ni quedan ganas de seguir, si esto fuera más corto uno lo haría con más animo, pero ya al final no me quedaban ganas de seguir y mi atención iba decayendo. Además mejoraría los audios de los idiomas para que se escuchen más claros, por ejemplo los haría con voz humana y no tan pegada cada silaba, es decir con espacios entre medio.  ",76.0,no
70,2023-11-12_20h32.58.555,Unsyncopated1,s73,31.0,masculino,right,España,Español,Bachelor degree,no,no,A,1,what,L2,unsyncopated,s2,r1,70,Online_whatL2//d.si.ñu2.none.none.wav,mi,ño,ba,sil,go,te,cha,sil1,du,su,sil2,['-'],,,none,none,,,,si,4,testWhenL3Uns//r1.s2.1.wav,3.0,when,unsyncopated,a,s2,rule,rule,L3,z,1.5136,1.0,1.0,0.6495,1.0,1.0,Español,0.0,3.0,2.0,yes,yes,yes,Canto ,19,Guitarra,19,Bateria,19,Piano ,18.0,Bajo ,18.0,,,"Creo que es un exceso hacer un experimento con 4 idiomas, creo que es muy largo y extenso, con 2 ya estaba bien porque al llegar al tercero uno ya está más distraido porque ha hecho por mucho rato lo mismo y al llegar al cuarto idioma ya ni quedan ganas de seguir, si esto fuera más corto uno lo haría con más animo, pero ya al final no me quedaban ganas de seguir y mi atención iba decayendo. Además mejoraría los audios de los idiomas para que se escuchen más claros, por ejemplo los haría con voz humana y no tan pegada cada silaba, es decir con espacios entre medio.  ",76.0,no
71,2023-11-12_20h32.58.555,Unsyncopated1,s73,31.0,masculino,right,España,Español,Bachelor degree,no,no,A,1,what,L2,unsyncopated,s2,r2,71,Online_whatL2//d.si.ñu3.0.444.wav,si,ba,ñu,sil2,fe,te,cha,sil,ra,ño,sil1,['catch'],[0.44220000000291293],[0.44220000000291293],0.0,beat,0.4422000000029129,0.4422000000029129,"[""space""]",si,4,testWhenL3Uns//r1.s2.0.wav,3.0,when,unsyncopated,a,s2,rule,rule,L3,m,3.5567,2.0,0.0,1.3481,1.0,1.0,Español,0.0,3.0,2.0,yes,yes,yes,Canto ,19,Guitarra,19,Bateria,19,Piano ,18.0,Bajo ,18.0,,,"Creo que es un exceso hacer un experimento con 4 idiomas, creo que es muy largo y extenso, con 2 ya estaba bien porque al llegar al tercero uno ya está más distraido porque ha hecho por mucho rato lo mismo y al llegar al cuarto idioma ya ni quedan ganas de seguir, si esto fuera más corto uno lo haría con más animo, pero ya al final no me quedaban ganas de seguir y mi atención iba decayendo. Además mejoraría los audios de los idiomas para que se escuchen más claros, por ejemplo los haría con voz humana y no tan pegada cada silaba, es decir con espacios entre medio.  ",76.0,no
72,2023-11-12_20h32.58.555,Unsyncopated1,s73,31.0,masculino,right,España,Español,Bachelor degree,no,no,A,1,what,L2,unsyncopated,s2,r1,72,Online_whatL2//c.cha.me22.0.1110.wav,cha,to,su,sil,go,me,ño,sil1,du,ba,sil2,['miss'],,,0.0,beat,,,,cha,3,testConjL4Syn//dep_viol.r2.s2.0.wav,4.0,conjunction_syn,syncopated,b,s2,no_rule,dep,L4,z,3.9794,1.0,0.0,2.2682,1.0,1.0,Español,0.0,3.0,2.0,yes,yes,yes,Canto ,19,Guitarra,19,Bateria,19,Piano ,18.0,Bajo ,18.0,,,"Creo que es un exceso hacer un experimento con 4 idiomas, creo que es muy largo y extenso, con 2 ya estaba bien porque al llegar al tercero uno ya está más distraido porque ha hecho por mucho rato lo mismo y al llegar al cuarto idioma ya ni quedan ganas de seguir, si esto fuera más corto uno lo haría con más animo, pero ya al final no me quedaban ganas de seguir y mi atención iba decayendo. Además mejoraría los audios de los idiomas para que se escuchen más claros, por ejemplo los haría con voz humana y no tan pegada cada silaba, es decir con espacios entre medio.  ",76.0,no
73,2023-11-12_20h32.58.555,Unsyncopated1,s73,31.0,masculino,right,España,Español,Bachelor degree,no,no,A,1,what,L2,unsyncopated,s2,r2,73,Online_whatL2//c.cha.me23.none.none.wav,si,ñu,te,sil,fe,ba,su,sil2,ra,to,sil1,['-'],,,none,none,,,,cha,3,testConjL4Syn//r2.s1.2.wav,4.0,conjunction_syn,syncopated,b,s1,rule,rule,L4,z,0.5014,1.0,1.0,0.8066,1.0,1.0,Español,0.0,3.0,2.0,yes,yes,yes,Canto ,19,Guitarra,19,Bateria,19,Piano ,18.0,Bajo ,18.0,,,"Creo que es un exceso hacer un experimento con 4 idiomas, creo que es muy largo y extenso, con 2 ya estaba bien porque al llegar al tercero uno ya está más distraido porque ha hecho por mucho rato lo mismo y al llegar al cuarto idioma ya ni quedan ganas de seguir, si esto fuera más corto uno lo haría con más animo, pero ya al final no me quedaban ganas de seguir y mi atención iba decayendo. Además mejoraría los audios de los idiomas para que se escuchen más claros, por ejemplo los haría con voz humana y no tan pegada cada silaba, es decir con espacios entre medio.  ",76.0,no
74,2023-11-12_20h32.58.555,Unsyncopated1,s73,31.0,masculino,right,España,Español,Bachelor degree,no,no,A,1,what,L2,unsyncopated,s1,r1,74,Online_whatL2//c.cha.me21.none.none.wav,go,mi,bi,sil,du,si,su,sil2,te,ba,sil1,['-'],,,none,none,,,,cha,3,testConjL4Syn//r2.s1.0.wav,4.0,conjunction_syn,syncopated,b,s1,rule,rule,L4,z,1.3196,1.0,1.0,0.6969,1.0,1.0,Español,0.0,3.0,2.0,yes,yes,yes,Canto ,19,Guitarra,19,Bateria,19,Piano ,18.0,Bajo ,18.0,,,"Creo que es un exceso hacer un experimento con 4 idiomas, creo que es muy largo y extenso, con 2 ya estaba bien porque al llegar al tercero uno ya está más distraido porque ha hecho por mucho rato lo mismo y al llegar al cuarto idioma ya ni quedan ganas de seguir, si esto fuera más corto uno lo haría con más animo, pero ya al final no me quedaban ganas de seguir y mi atención iba decayendo. Además mejoraría los audios de los idiomas para que se escuchen más claros, por ejemplo los haría con voz humana y no tan pegada cada silaba, es decir con espacios entre medio.  ",76.0,no
75,2023-11-12_20h32.58.555,Unsyncopated1,s73,31.0,masculino,right,España,Español,Bachelor degree,no,no,A,1,what,L2,unsyncopated,s1,r2,75,Online_whatL2//c.cha.me20.444.1332.wav,fe,si,cha,sil,ra,bi,me,sil2,ño,mi,sil1,['catch'],[1.1918000000007396],[1.1918000000007396],0.444,no_beat,0.7478000000007397,0.7478000000007397,"[""space""]",cha,3,testConjL4Syn//cat_viol.r2.s1.0.wav,4.0,conjunction_syn,syncopated,b,s1,no_rule,cat,L4,z,1.9192,1.0,0.0,0.432,1.0,1.0,Español,0.0,3.0,2.0,yes,yes,yes,Canto ,19,Guitarra,19,Bateria,19,Piano ,18.0,Bajo ,18.0,,,"Creo que es un exceso hacer un experimento con 4 idiomas, creo que es muy largo y extenso, con 2 ya estaba bien porque al llegar al tercero uno ya está más distraido porque ha hecho por mucho rato lo mismo y al llegar al cuarto idioma ya ni quedan ganas de seguir, si esto fuera más corto uno lo haría con más animo, pero ya al final no me quedaban ganas de seguir y mi atención iba decayendo. Además mejoraría los audios de los idiomas para que se escuchen más claros, por ejemplo los haría con voz humana y no tan pegada cada silaba, es decir con espacios entre medio.  ",76.0,no
76,2023-11-12_20h32.58.555,Unsyncopated1,s73,31.0,masculino,right,España,Español,Bachelor degree,no,no,A,1,what,L2,unsyncopated,s1,r1,76,Online_whatL2//a.go.du15.0.888.wav,go,cha,mi,sil,du,ñu,to,sil1,ba,ño,sil2,['catch'],[1.526200000002973],[1.526200000002973],0.888,beat,0.638200000002973,0.638200000002973,"[""space""]",du,2,testConjL4Syn//r1.s1.2.wav,4.0,conjunction_syn,syncopated,a,s1,rule,rule,L4,m,0.0506,1.0,0.0,1.166,1.0,1.0,Español,0.0,3.0,2.0,yes,yes,yes,Canto ,19,Guitarra,19,Bateria,19,Piano ,18.0,Bajo ,18.0,,,"Creo que es un exceso hacer un experimento con 4 idiomas, creo que es muy largo y extenso, con 2 ya estaba bien porque al llegar al tercero uno ya está más distraido porque ha hecho por mucho rato lo mismo y al llegar al cuarto idioma ya ni quedan ganas de seguir, si esto fuera más corto uno lo haría con más animo, pero ya al final no me quedaban ganas de seguir y mi atención iba decayendo. Además mejoraría los audios de los idiomas para que se escuchen más claros, por ejemplo los haría con voz humana y no tan pegada cada silaba, es decir con espacios entre medio.  ",76.0,no
77,2023-11-12_20h32.58.555,Unsyncopated1,s73,31.0,masculino,right,España,Español,Bachelor degree,no,no,A,1,what,L2,unsyncopated,s2,r2,77,Online_whatL2//a.go.du13.none.none.wav,te,si,ño,sil2,fe,su,ñu,sil,ra,mi,sil1,['-'],,,none,none,,,,du,2,testConjL4Syn//r1.s2.1.wav,4.0,conjunction_syn,syncopated,a,s2,rule,rule,L4,m,1.6447,1.0,0.0,0.2689,1.0,1.0,Español,0.0,3.0,2.0,yes,yes,yes,Canto ,19,Guitarra,19,Bateria,19,Piano ,18.0,Bajo ,18.0,,,"Creo que es un exceso hacer un experimento con 4 idiomas, creo que es muy largo y extenso, con 2 ya estaba bien porque al llegar al tercero uno ya está más distraido porque ha hecho por mucho rato lo mismo y al llegar al cuarto idioma ya ni quedan ganas de seguir, si esto fuera más corto uno lo haría con más animo, pero ya al final no me quedaban ganas de seguir y mi atención iba decayendo. Además mejoraría los audios de los idiomas para que se escuchen más claros, por ejemplo los haría con voz humana y no tan pegada cada silaba, es decir con espacios entre medio.  ",76.0,no
78,2023-11-12_20h32.58.555,Unsyncopated1,s73,31.0,masculino,right,España,Español,Bachelor degree,no,no,A,1,what,L2,unsyncopated,s1,r1,78,Online_whatL2//a.go.du12.0.888.wav,go,su,cha,sil,du,to,te,sil2,me,mi,sil1,['catch'],[1.705500000000029],[1.705500000000029],0.888,beat,0.8175000000000291,0.8175000000000291,"[""space""]",du,2,testConjL4Syn//r2.s1.1.wav,4.0,conjunction_syn,syncopated,b,s1,rule,rule,L4,z,0.1214,1.0,1.0,0.4295,1.0,1.0,Español,0.0,3.0,2.0,yes,yes,yes,Canto ,19,Guitarra,19,Bateria,19,Piano ,18.0,Bajo ,18.0,,,"Creo que es un exceso hacer un experimento con 4 idiomas, creo que es muy largo y extenso, con 2 ya estaba bien porque al llegar al tercero uno ya está más distraido porque ha hecho por mucho rato lo mismo y al llegar al cuarto idioma ya ni quedan ganas de seguir, si esto fuera más corto uno lo haría con más animo, pero ya al final no me quedaban ganas de seguir y mi atención iba decayendo. Además mejoraría los audios de los idiomas para que se escuchen más claros, por ejemplo los haría con voz humana y no tan pegada cada silaba, es decir con espacios entre medio.  ",76.0,no
79,2023-11-12_20h32.58.555,Unsyncopated1,s73,31.0,masculino,right,España,Español,Bachelor degree,no,no,A,1,what,L2,unsyncopated,s2,r2,79,Online_whatL2//a.go.du14.none.none.wav,bi,me,mi,sil2,fe,to,ñu,sil,ra,su,sil1,['-'],,,none,none,,,,du,2,testConjL4Syn//time_viol.r2.s1.0.wav,4.0,conjunction_syn,syncopated,b,s1,no_rule,time,L4,z,0.1708,1.0,0.0,0.3345,1.0,1.0,Español,0.0,3.0,2.0,yes,yes,yes,Canto ,19,Guitarra,19,Bateria,19,Piano ,18.0,Bajo ,18.0,,,"Creo que es un exceso hacer un experimento con 4 idiomas, creo que es muy largo y extenso, con 2 ya estaba bien porque al llegar al tercero uno ya está más distraido porque ha hecho por mucho rato lo mismo y al llegar al cuarto idioma ya ni quedan ganas de seguir, si esto fuera más corto uno lo haría con más animo, pero ya al final no me quedaban ganas de seguir y mi atención iba decayendo. Además mejoraría los audios de los idiomas para que se escuchen más claros, por ejemplo los haría con voz humana y no tan pegada cada silaba, es decir con espacios entre medio.  ",76.0,no
80,2023-11-12_20h32.58.555,Unsyncopated1,s73,31.0,masculino,right,España,Español,Bachelor degree,no,no,A,1,what,L2,unsyncopated,s1,r1,80,Online_whatL2//a.go.du28.0.888.wav,go,ñu,mi,sil,du,ba,ño,sil1,me,su,sil2,['false alarm'],[0.007899999998471685],[0.007899999998471685],0.888,beat,,,"[""space""]",du,2,testConjL4Syn//dep_viol.r1.s1.0.wav,4.0,conjunction_syn,syncopated,a,s1,no_rule,dep,L4,z,2.3653,1.0,0.0,0.35,1.0,1.0,Español,0.0,3.0,2.0,yes,yes,yes,Canto ,19,Guitarra,19,Bateria,19,Piano ,18.0,Bajo ,18.0,,,"Creo que es un exceso hacer un experimento con 4 idiomas, creo que es muy largo y extenso, con 2 ya estaba bien porque al llegar al tercero uno ya está más distraido porque ha hecho por mucho rato lo mismo y al llegar al cuarto idioma ya ni quedan ganas de seguir, si esto fuera más corto uno lo haría con más animo, pero ya al final no me quedaban ganas de seguir y mi atención iba decayendo. Además mejoraría los audios de los idiomas para que se escuchen más claros, por ejemplo los haría con voz humana y no tan pegada cada silaba, es decir con espacios entre medio.  ",76.0,no
81,2023-11-12_20h32.58.555,Unsyncopated1,s73,31.0,masculino,right,España,Español,Bachelor degree,no,no,A,1,what,L2,unsyncopated,s1,r2,81,Online_whatL2//a.go.du29.none.none.wav,fe,ñu,mi,sil,ra,cha,su,sil2,te,bi,sil1,['-'],,,none,none,,,,du,2,testConjL4Syn//r1.s2.2.wav,4.0,conjunction_syn,syncopated,a,s2,rule,rule,L4,z,0.017,1.0,1.0,0.3162,1.0,1.0,Español,0.0,3.0,2.0,yes,yes,yes,Canto ,19,Guitarra,19,Bateria,19,Piano ,18.0,Bajo ,18.0,,,"Creo que es un exceso hacer un experimento con 4 idiomas, creo que es muy largo y extenso, con 2 ya estaba bien porque al llegar al tercero uno ya está más distraido porque ha hecho por mucho rato lo mismo y al llegar al cuarto idioma ya ni quedan ganas de seguir, si esto fuera más corto uno lo haría con más animo, pero ya al final no me quedaban ganas de seguir y mi atención iba decayendo. Además mejoraría los audios de los idiomas para que se escuchen más claros, por ejemplo los haría con voz humana y no tan pegada cada silaba, es decir con espacios entre medio.  ",76.0,no
82,2023-11-12_20h32.58.555,Unsyncopated1,s73,31.0,masculino,right,España,Español,Bachelor degree,no,no,A,1,what,L2,unsyncopated,s2,r1,82,Online_whatL2//a.go.du30.888.1776.wav,cha,me,te,sil,go,ba,mi,sil1,du,bi,sil2,['catch'],[2.355000000000018],[2.355000000000018],1.776,beat,0.5790000000000182,0.5790000000000182,"[""space""]",du,2,testConjL4Syn//cat_viol.r1.s1.0.wav,4.0,conjunction_syn,syncopated,a,s1,no_rule,cat,L4,z,0.1175,1.0,0.0,0.3169,1.0,1.0,Español,0.0,3.0,2.0,yes,yes,yes,Canto ,19,Guitarra,19,Bateria,19,Piano ,18.0,Bajo ,18.0,,,"Creo que es un exceso hacer un experimento con 4 idiomas, creo que es muy largo y extenso, con 2 ya estaba bien porque al llegar al tercero uno ya está más distraido porque ha hecho por mucho rato lo mismo y al llegar al cuarto idioma ya ni quedan ganas de seguir, si esto fuera más corto uno lo haría con más animo, pero ya al final no me quedaban ganas de seguir y mi atención iba decayendo. Además mejoraría los audios de los idiomas para que se escuchen más claros, por ejemplo los haría con voz humana y no tan pegada cada silaba, es decir con espacios entre medio.  ",76.0,no
83,2023-11-12_20h32.58.555,Unsyncopated1,s73,31.0,masculino,right,España,Español,Bachelor degree,no,no,A,1,what,L2,unsyncopated,s2,r2,83,Online_whatL2//a.go.du31.none.none.wav,cha,su,mi,sil,fe,ño,si,sil2,ra,te,sil1,['-'],,,none,none,,,,du,2,testConjL4Syn//r2.s2.2.wav,4.0,conjunction_syn,syncopated,b,s2,rule,rule,L4,z,1.1295,1.0,1.0,0.4503,1.0,1.0,Español,0.0,3.0,2.0,yes,yes,yes,Canto ,19,Guitarra,19,Bateria,19,Piano ,18.0,Bajo ,18.0,,,"Creo que es un exceso hacer un experimento con 4 idiomas, creo que es muy largo y extenso, con 2 ya estaba bien porque al llegar al tercero uno ya está más distraido porque ha hecho por mucho rato lo mismo y al llegar al cuarto idioma ya ni quedan ganas de seguir, si esto fuera más corto uno lo haría con más animo, pero ya al final no me quedaban ganas de seguir y mi atención iba decayendo. Además mejoraría los audios de los idiomas para que se escuchen más claros, por ejemplo los haría con voz humana y no tan pegada cada silaba, es decir con espacios entre medio.  ",76.0,no
84,2023-11-12_20h32.58.555,Unsyncopated1,s73,31.0,masculino,right,España,Español,Bachelor degree,no,no,A,1,what,L2,unsyncopated,s1,r2,84,Online_whatL2//b.fe.ra0.0.1110.wav,fe,cha,ño,sil2,ra,te,me,sil,to,ñu,sil1,['miss'],,,0.0,beat,,,,fe,1,testConjL4Syn//r1.s2.0.wav,4.0,conjunction_syn,syncopated,a,s2,rule,rule,L4,z,0.8224,1.0,1.0,0.354,1.0,1.0,Español,0.0,3.0,2.0,yes,yes,yes,Canto ,19,Guitarra,19,Bateria,19,Piano ,18.0,Bajo ,18.0,,,"Creo que es un exceso hacer un experimento con 4 idiomas, creo que es muy largo y extenso, con 2 ya estaba bien porque al llegar al tercero uno ya está más distraido porque ha hecho por mucho rato lo mismo y al llegar al cuarto idioma ya ni quedan ganas de seguir, si esto fuera más corto uno lo haría con más animo, pero ya al final no me quedaban ganas de seguir y mi atención iba decayendo. Además mejoraría los audios de los idiomas para que se escuchen más claros, por ejemplo los haría con voz humana y no tan pegada cada silaba, es decir con espacios entre medio.  ",76.0,no
85,2023-11-12_20h32.58.555,Unsyncopated1,s73,31.0,masculino,right,España,Español,Bachelor degree,no,no,A,1,what,L2,unsyncopated,s2,r2,85,Online_whatL2//b.fe.ra3.1110.1998.wav,si,ño,me,sil2,fe,ñu,cha,sil,ra,bi,sil1,['catch'],[1.739099999997734],[1.739099999997734],1.11,no_beat,0.6290999999977338,0.6290999999977338,"[""space""]",fe,1,testConjL4Syn//time_viol.r1.s1.0.wav,4.0,conjunction_syn,syncopated,a,s1,no_rule,time,L4,m,1.1821,7.0,1.0,1.2816,1.0,1.0,Español,0.0,3.0,2.0,yes,yes,yes,Canto ,19,Guitarra,19,Bateria,19,Piano ,18.0,Bajo ,18.0,,,"Creo que es un exceso hacer un experimento con 4 idiomas, creo que es muy largo y extenso, con 2 ya estaba bien porque al llegar al tercero uno ya está más distraido porque ha hecho por mucho rato lo mismo y al llegar al cuarto idioma ya ni quedan ganas de seguir, si esto fuera más corto uno lo haría con más animo, pero ya al final no me quedaban ganas de seguir y mi atención iba decayendo. Además mejoraría los audios de los idiomas para que se escuchen más claros, por ejemplo los haría con voz humana y no tan pegada cada silaba, es decir con espacios entre medio.  ",76.0,no
86,2023-11-12_20h32.58.555,Unsyncopated1,s73,31.0,masculino,right,España,Español,Bachelor degree,no,no,A,1,what,L2,unsyncopated,s1,r1,86,Online_whatL2//b.fe.ra2.none.none.wav,go,cha,mi,sil2,du,to,bi,sil,ño,ba,sil1,['-'],,,none,none,,,,fe,1,testConjL4Syn//cat_viol.r2.s2.0.wav,4.0,conjunction_syn,syncopated,b,s2,no_rule,cat,L4,m,1.5916,7.0,1.0,0.9157,1.0,1.0,Español,0.0,3.0,2.0,yes,yes,yes,Canto ,19,Guitarra,19,Bateria,19,Piano ,18.0,Bajo ,18.0,,,"Creo que es un exceso hacer un experimento con 4 idiomas, creo que es muy largo y extenso, con 2 ya estaba bien porque al llegar al tercero uno ya está más distraido porque ha hecho por mucho rato lo mismo y al llegar al cuarto idioma ya ni quedan ganas de seguir, si esto fuera más corto uno lo haría con más animo, pero ya al final no me quedaban ganas de seguir y mi atención iba decayendo. Además mejoraría los audios de los idiomas para que se escuchen más claros, por ejemplo los haría con voz humana y no tan pegada cada silaba, es decir con espacios entre medio.  ",76.0,no
87,2023-11-12_20h32.58.555,Unsyncopated1,s73,31.0,masculino,right,España,Español,Bachelor degree,no,no,A,1,what,L2,unsyncopated,s1,r2,87,Online_whatL2//b.fe.ra1.0.1110.wav,fe,bi,ño,sil2,ra,ba,cha,sil,ñu,to,sil1,['catch'],[0.6059999999999945],[0.6059999999999945],0.0,beat,0.6059999999999945,0.6059999999999945,"[""space""]",fe,1,testConjL4Syn//time_viol.r2.s2.0.wav,4.0,conjunction_syn,syncopated,b,s2,no_rule,time,L4,m,5.1434,1.0,1.0,0.1339,1.0,1.0,Español,0.0,3.0,2.0,yes,yes,yes,Canto ,19,Guitarra,19,Bateria,19,Piano ,18.0,Bajo ,18.0,,,"Creo que es un exceso hacer un experimento con 4 idiomas, creo que es muy largo y extenso, con 2 ya estaba bien porque al llegar al tercero uno ya está más distraido porque ha hecho por mucho rato lo mismo y al llegar al cuarto idioma ya ni quedan ganas de seguir, si esto fuera más corto uno lo haría con más animo, pero ya al final no me quedaban ganas de seguir y mi atención iba decayendo. Además mejoraría los audios de los idiomas para que se escuchen más claros, por ejemplo los haría con voz humana y no tan pegada cada silaba, es decir con espacios entre medio.  ",76.0,no
88,2023-11-12_20h32.58.555,Unsyncopated1,s73,31.0,masculino,right,España,Español,Bachelor degree,no,no,A,1,what,L2,unsyncopated,s2,r1,88,Online_whatL2//c.cha.me29.none.none.wav,ño,ba,mi,sil,go,ñu,bi,sil1,du,te,sil2,['-'],,,none,none,,,,cha,3,testConjL4Syn//dep_viol.r2.s1.0.wav,4.0,conjunction_syn,syncopated,b,s1,no_rule,dep,L4,z,0.0256,1.0,0.0,0.3706,1.0,1.0,Español,0.0,3.0,2.0,yes,yes,yes,Canto ,19,Guitarra,19,Bateria,19,Piano ,18.0,Bajo ,18.0,,,"Creo que es un exceso hacer un experimento con 4 idiomas, creo que es muy largo y extenso, con 2 ya estaba bien porque al llegar al tercero uno ya está más distraido porque ha hecho por mucho rato lo mismo y al llegar al cuarto idioma ya ni quedan ganas de seguir, si esto fuera más corto uno lo haría con más animo, pero ya al final no me quedaban ganas de seguir y mi atención iba decayendo. Además mejoraría los audios de los idiomas para que se escuchen más claros, por ejemplo los haría con voz humana y no tan pegada cada silaba, es decir con espacios entre medio.  ",76.0,no
89,2023-11-12_20h32.58.555,Unsyncopated1,s73,31.0,masculino,right,España,Español,Bachelor degree,no,no,A,1,what,L2,unsyncopated,s1,r2,89,Online_whatL2//c.cha.me30.none.none.wav,fe,ba,su,sil,ra,mi,ño,sil1,ñu,to,sil2,['-'],,,none,none,,,,cha,3,testConjL4Syn//r1.s1.0.wav,4.0,conjunction_syn,syncopated,a,s1,rule,rule,L4,z,1.7461,1.0,1.0,0.3004,1.0,1.0,Español,0.0,3.0,2.0,yes,yes,yes,Canto ,19,Guitarra,19,Bateria,19,Piano ,18.0,Bajo ,18.0,,,"Creo que es un exceso hacer un experimento con 4 idiomas, creo que es muy largo y extenso, con 2 ya estaba bien porque al llegar al tercero uno ya está más distraido porque ha hecho por mucho rato lo mismo y al llegar al cuarto idioma ya ni quedan ganas de seguir, si esto fuera más corto uno lo haría con más animo, pero ya al final no me quedaban ganas de seguir y mi atención iba decayendo. Además mejoraría los audios de los idiomas para que se escuchen más claros, por ejemplo los haría con voz humana y no tan pegada cada silaba, es decir con espacios entre medio.  ",76.0,no
90,2023-11-12_20h32.58.555,Unsyncopated1,s73,31.0,masculino,right,España,Español,Bachelor degree,no,no,A,1,what,L2,unsyncopated,s2,r2,90,Online_whatL2//c.cha.me31.1110.222.wav,su,me,ño,sil,fe,cha,bi,sil1,ra,mi,sil2,['catch'],[2.2053999999984626],[2.2053999999984626],1.11,no_beat,1.0953999999984625,1.0953999999984625,"[""space""]",cha,3,testConjL4Syn//r2.s2.0.wav,4.0,conjunction_syn,syncopated,b,s2,rule,rule,L4,m,3.3883,1.0,0.0,0.2611,1.0,1.0,Español,0.0,3.0,2.0,yes,yes,yes,Canto ,19,Guitarra,19,Bateria,19,Piano ,18.0,Bajo ,18.0,,,"Creo que es un exceso hacer un experimento con 4 idiomas, creo que es muy largo y extenso, con 2 ya estaba bien porque al llegar al tercero uno ya está más distraido porque ha hecho por mucho rato lo mismo y al llegar al cuarto idioma ya ni quedan ganas de seguir, si esto fuera más corto uno lo haría con más animo, pero ya al final no me quedaban ganas de seguir y mi atención iba decayendo. Además mejoraría los audios de los idiomas para que se escuchen más claros, por ejemplo los haría con voz humana y no tan pegada cada silaba, es decir con espacios entre medio.  ",76.0,no
91,2023-11-12_20h32.58.555,Unsyncopated1,s73,31.0,masculino,right,España,Español,Bachelor degree,no,no,A,1,what,L2,unsyncopated,s2,r2,91,Online_whatL2//c.cha.me28.0.1110.wav,cha,to,su,sil,fe,me,te,sil1,ra,bi,sil2,['miss'],,,0.0,beat,,,,cha,3,testConjL4Syn//r2.s2.1.wav,4.0,conjunction_syn,syncopated,b,s2,rule,rule,L4,m,1.8016,1.0,0.0,0.8991,1.0,1.0,Español,0.0,3.0,2.0,yes,yes,yes,Canto ,19,Guitarra,19,Bateria,19,Piano ,18.0,Bajo ,18.0,,,"Creo que es un exceso hacer un experimento con 4 idiomas, creo que es muy largo y extenso, con 2 ya estaba bien porque al llegar al tercero uno ya está más distraido porque ha hecho por mucho rato lo mismo y al llegar al cuarto idioma ya ni quedan ganas de seguir, si esto fuera más corto uno lo haría con más animo, pero ya al final no me quedaban ganas de seguir y mi atención iba decayendo. Además mejoraría los audios de los idiomas para que se escuchen más claros, por ejemplo los haría con voz humana y no tan pegada cada silaba, es decir con espacios entre medio.  ",76.0,no
