Unnamed: 0,date,expName,participant,age,sex,hand,residence,native_lang,education_level,lang_deficit,aud_deficit,group,block,condition,language,rhythm,rule structure online,rule type online,order_trial_on,trial_online,s1,s2,s3,s4,s5,s6,s7,s8,s9,s10,s11,catch_syll_resp,rts_syll_catch,clean_rts,time_syll,beat_no_beat,catch_rtsTR,catch_rts,syllable_catch.keys,cond_syll,syll_to_catch,test_offline,block_off,condition_off,rhythm_off,rule,rule_str_off,rule_norule,conds_offline,language_off,Partz_no_partm.keys,Partz_no_partm.rt,security_1_7.keys,accuracy,security_1_7.rt,n_lang,n_lang_used,lang_1,age_l1,lang_2,age_l2,lang_3,age_l3,lang_4,age_l4,ability_learn_l2,tendence_mix_lan,music_experience,muisc_use,partiture,instr_1,age_M1,preguntas_musica1,BMRQ_answer.response,final comment,BMRQ_Score,bilingual
0,2024-04-11_15h51.23.119,Experiment4_uns,s178,18.0,masculino,right,España,Castellano Catalán,Upper secondary,no,no,B,1,conjunction_syn,L3,syncopated,s1,r1,0,Online_conjL3_syn//a.chu.mo3.0.666.wav,chu,li,do,mo,sil,je,ji,fu,sil1,ga,sil2,['miss'],,,0.0,beat,,,,chu,1,testConjL3Syn//r2.s1.2.wav,1.0,conjunction_syn,syncopated,b,s1,rule,rule,L3,m,10.834,3.0,0.0,4.939,4.0,3.0,Inglés,5.0,Francés,13.0,Castellano ,0.0,Catalán,0.0,4.0,2.0,yes,no,no,Flauta,10,1. Cuando comparto música con alguien siento una complicidad especial con aquella persona.,3.0, ,64.0,yes
1,2024-04-11_15h51.23.119,Experiment4_uns,s178,18.0,masculino,right,España,Castellano Catalán,Upper secondary,no,no,B,1,conjunction_syn,L3,syncopated,s1,r1,1,Online_conjL3_syn//a.chu.mo0.0.666.wav,chu,do,ji,mo,sil,ka,ko,di,sil1,li,sil2,['catch'],[0.6190000000001419],[0.6190000000001419],0.0,beat,0.6190000000001419,0.6190000000001419,"[""space""]",chu,1,testConjL3Syn//r2.s2.2.wav,1.0,conjunction_syn,syncopated,b,s2,rule,rule,L3,z,6.2,3.0,1.0,2.319,4.0,3.0,Inglés,5.0,Francés,13.0,Castellano ,0.0,Catalán,0.0,4.0,2.0,yes,no,no,Flauta,10,2. En mi tiempo libre apenas escucho música.,4.0, ,64.0,yes
2,2024-04-11_15h51.23.119,Experiment4_uns,s178,18.0,masculino,right,España,Castellano Catalán,Upper secondary,no,no,B,1,conjunction_syn,L3,syncopated,s1,r2,2,Online_conjL3_syn//a.chu.mo1.none.none.wav,ñe,le,ko,sa,sil,gu,do,di,sil1,ka,sil2,['false alarm'],[0.5539999999998599],[0.5539999999998599],none,none,,,"[""space""]",chu,1,testConjL3Syn//r2.s2.0.wav,1.0,conjunction_syn,syncopated,b,s2,rule,rule,L3,z,2.001,6.0,1.0,2.801,4.0,3.0,Inglés,5.0,Francés,13.0,Castellano ,0.0,Catalán,0.0,4.0,2.0,yes,no,no,Flauta,10,3. Algunas canciones me ponen los pelos de punta,3.0, ,64.0,yes
3,2024-04-11_15h51.23.119,Experiment4_uns,s178,18.0,masculino,right,España,Castellano Catalán,Upper secondary,no,no,B,1,conjunction_syn,L3,syncopated,s2,r1,3,Online_conjL3_syn//a.chu.mo2.666.1554.wav,ka,ko,fu,chu,sil,le,je,mo,sil1,gu,sil2,['catch'],[1.3740000000000236],[1.3740000000000236],0.666,no_beat,0.7080000000000236,0.7080000000000236,"[""space""]",chu,1,testConjL3Syn//dep_viol.r1.s2.0.wav,1.0,conjunction_syn,syncopated,a,s2,no_rule,dep,L3,z,1.524,6.0,0.0,1.335,4.0,3.0,Inglés,5.0,Francés,13.0,Castellano ,0.0,Catalán,0.0,4.0,2.0,yes,no,no,Flauta,10,4. La música me hace compañía cuando estoy solo,2.0, ,64.0,yes
4,2024-04-11_15h51.23.119,Experiment4_uns,s178,18.0,masculino,right,España,Castellano Catalán,Upper secondary,no,no,B,1,conjunction_syn,L3,syncopated,s2,r2,4,Online_conjL3_syn//a.chu.mo5.none.none.wav,fu,do,le,ñe,sil,di,ga,sa,sil1,ji,sil2,['false alarm'],[2.6089999999999236],[2.6089999999999236],none,none,,,"[""space""]",chu,1,testConjL3Syn//time_viol.r1.s2.0.wav,1.0,conjunction_syn,syncopated,a,s2,no_rule,time,L3,m,1.924,3.0,1.0,0.782,4.0,3.0,Inglés,5.0,Francés,13.0,Castellano ,0.0,Catalán,0.0,4.0,2.0,yes,no,no,Flauta,10,5. No me apetece bailar ni con la música que más me gusta,5.0, ,64.0,yes
5,2024-04-11_15h51.23.119,Experiment4_uns,s178,18.0,masculino,right,España,Castellano Catalán,Upper secondary,no,no,B,1,conjunction_syn,L3,syncopated,s2,r2,5,Online_conjL3_syn//a.chu.mo4.none.none.wav,le,ji,gu,ñe,sil,li,ga,sa,sil1,ka,sil2,['-'],,,none,none,,,,chu,1,testConjL3Syn//r1.s1.0.wav,1.0,conjunction_syn,syncopated,a,s1,rule,rule,L3,m,2.087,2.0,0.0,1.017,4.0,3.0,Inglés,5.0,Francés,13.0,Castellano ,0.0,Catalán,0.0,4.0,2.0,yes,no,no,Flauta,10,6. La música me hace conectar con la gente,3.0, ,64.0,yes
6,2024-04-11_15h51.23.119,Experiment4_uns,s178,18.0,masculino,right,España,Castellano Catalán,Upper secondary,no,no,B,1,conjunction_syn,L3,syncopated,s2,r2,6,Online_conjL3_syn//a.chu.mo7.none.none.wav,ko,le,fu,ñe,sil,ka,gu,sa,sil1,do,sil2,['-'],,,none,none,,,,chu,1,testConjL3Syn//cat_viol.r2.s1.0.wav,1.0,conjunction_syn,syncopated,b,s1,no_rule,cat,L3,z,1.138,5.0,0.0,1.652,4.0,3.0,Inglés,5.0,Francés,13.0,Castellano ,0.0,Catalán,0.0,4.0,2.0,yes,no,no,Flauta,10,7. Me informo sobre la música que me gusta.,4.0, ,64.0,yes
7,2024-04-11_15h51.23.119,Experiment4_uns,s178,18.0,masculino,right,España,Castellano Catalán,Upper secondary,no,no,B,1,conjunction_syn,L3,syncopated,s2,r1,7,Online_conjL3_syn//a.chu.mo6.666.1554.wav,ko,di,ga,chu,sil,li,gu,mo,sil1,do,sil2,['catch'],[1.5079999999998108],[1.5079999999998108],0.666,no_beat,0.8419999999998108,0.8419999999998108,"[""space""]",chu,1,testConjL3Syn//cat_viol.r1.s2.0.wav,1.0,conjunction_syn,syncopated,a,s2,no_rule,cat,L3,z,0.45,5.0,0.0,1.232,4.0,3.0,Inglés,5.0,Francés,13.0,Castellano ,0.0,Catalán,0.0,4.0,2.0,yes,no,no,Flauta,10,8.Me emociono escuchando ciertas canciones.,4.0, ,64.0,yes
8,2024-04-11_15h51.23.119,Experiment4_uns,s178,18.0,masculino,right,España,Castellano Catalán,Upper secondary,no,no,B,1,conjunction_syn,L3,syncopated,s2,r2,8,Online_conjL3_syn//c.gu.je23.222.444.wav,li,gu,je,ñe,sil,ko,ga,sa,sil1,le,sil2,['miss'],,,0.444,no_beat,,,,je,3,testConjL3Syn//r1.s1.2.wav,1.0,conjunction_syn,syncopated,a,s1,rule,rule,L3,z,3.021,5.0,1.0,1.134,4.0,3.0,Inglés,5.0,Francés,13.0,Castellano ,0.0,Catalán,0.0,4.0,2.0,yes,no,no,Flauta,10,9.La música me tranquiliza y me relaja.,4.0, ,64.0,yes
9,2024-04-11_15h51.23.119,Experiment4_uns,s178,18.0,masculino,right,España,Castellano Catalán,Upper secondary,no,no,B,1,conjunction_syn,L3,syncopated,s2,r2,9,Online_conjL3_syn//c.gu.je21.none.none.wav,fu,ko,le,ñe,sil,li,do,sa,sil1,ji,sil2,['-'],,,none,none,,,,je,3,testConjL3Syn//r1.s2.0.wav,1.0,conjunction_syn,syncopated,a,s2,rule,rule,L3,z,3.217,4.0,1.0,0.889,4.0,3.0,Inglés,5.0,Francés,13.0,Castellano ,0.0,Catalán,0.0,4.0,2.0,yes,no,no,Flauta,10,10.La música me hace bailar,4.0, ,64.0,yes
10,2024-04-11_15h51.23.119,Experiment4_uns,s178,18.0,masculino,right,España,Castellano Catalán,Upper secondary,no,no,B,1,conjunction_syn,L3,syncopated,s1,r2,10,Online_conjL3_syn//c.gu.je22.1554.444.wav,ñe,li,je,sa,sil,ji,ka,gu,sil1,di,sil2,['miss'],,,0.444,no_beat,,,,je,3,testConjL3Syn//r1.s2.2.wav,1.0,conjunction_syn,syncopated,a,s2,rule,rule,L3,z,1.118,5.0,1.0,1.103,4.0,3.0,Inglés,5.0,Francés,13.0,Castellano ,0.0,Catalán,0.0,4.0,2.0,yes,no,no,Flauta,10,11.Busco novedades musicales continuamente,4.0, ,64.0,yes
11,2024-04-11_15h51.23.119,Experiment4_uns,s178,18.0,masculino,right,España,Castellano Catalán,Upper secondary,no,no,B,1,conjunction_syn,L3,syncopated,s1,r2,11,Online_conjL3_syn//c.gu.je20.1554.1110.wav,ñe,fu,di,sa,sil,je,ka,gu,sil1,le,sil2,['miss'],,,1.11,no_beat,,,,je,3,testConjL3Syn//r2.s1.0.wav,1.0,conjunction_syn,syncopated,b,s1,rule,rule,L3,m,0.771,3.0,0.0,1.115,4.0,3.0,Inglés,5.0,Francés,13.0,Castellano ,0.0,Catalán,0.0,4.0,2.0,yes,no,no,Flauta,10,12. Puedo llorar cuando escucho algunas melodías que me gustan mucho.,3.0, ,64.0,yes
12,2024-04-11_15h51.23.119,Experiment4_uns,s178,18.0,masculino,right,España,Castellano Catalán,Upper secondary,no,no,B,1,conjunction_syn,L3,syncopated,s1,r1,12,Online_conjL3_syn//b.ñe.sa30.none.none.wav,chu,ka,ji,mo,sil,je,gu,do,sil1,li,sil2,['false alarm'],[0.9100000000000819],[0.9100000000000819],none,none,,,"[""space""]",sa,2,testConjL3Syn//dep_viol.r2.s1.0.wav,1.0,conjunction_syn,syncopated,b,s1,no_rule,dep,L3,m,0.571,4.0,1.0,1.585,4.0,3.0,Inglés,5.0,Francés,13.0,Castellano ,0.0,Catalán,0.0,4.0,2.0,yes,no,no,Flauta,10,13. Me gusta cantar o tocar un instrumento con más gente,2.0, ,64.0,yes
13,2024-04-11_15h51.23.119,Experiment4_uns,s178,18.0,masculino,right,España,Castellano Catalán,Upper secondary,no,no,B,1,conjunction_syn,L3,syncopated,s2,r2,13,Online_conjL3_syn//b.ñe.sa29.666.1554.wav,je,do,ga,ñe,sil,li,ka,sa,sil1,gu,sil2,['catch'],[2.252999999999929],[2.252999999999929],1.554,no_beat,0.698999999999929,0.698999999999929,"[""space""]",sa,2,testConjL3Syn//r2.s1.1.wav,1.0,conjunction_syn,syncopated,b,s1,rule,rule,L3,m,0.549,4.0,0.0,0.816,4.0,3.0,Inglés,5.0,Francés,13.0,Castellano ,0.0,Catalán,0.0,4.0,2.0,yes,no,no,Flauta,10,14. La música me ayuda a desconectar.,3.0, ,64.0,yes
14,2024-04-11_15h51.23.119,Experiment4_uns,s178,18.0,masculino,right,España,Castellano Catalán,Upper secondary,no,no,B,1,conjunction_syn,L3,syncopated,s1,r1,14,Online_conjL3_syn//b.ñe.sa28.none.none.wav,chu,ji,ga,mo,sil,fu,ka,di,sil1,gu,sil2,['-'],,,none,none,,,,sa,2,testConjL3Syn//r1.s1.1.wav,1.0,conjunction_syn,syncopated,a,s1,rule,rule,L3,z,1.169,5.0,1.0,1.975,4.0,3.0,Inglés,5.0,Francés,13.0,Castellano ,0.0,Catalán,0.0,4.0,2.0,yes,no,no,Flauta,10,15. No puedo evitar tararear las canciones que me gustan cuando las escucho.,1.0, ,64.0,yes
15,2024-04-11_15h51.23.119,Experiment4_uns,s178,18.0,masculino,right,España,Castellano Catalán,Upper secondary,no,no,B,1,conjunction_syn,L3,syncopated,s1,r1,15,Online_conjL3_syn//b.ñe.sa31.none.none.wav,chu,fu,gu,mo,sil,le,ji,di,sil1,ka,sil2,['-'],,,none,none,,,,sa,2,testConjL3Syn//dep_viol.r1.s1.0.wav,1.0,conjunction_syn,syncopated,a,s1,no_rule,dep,L3,z,1.303,5.0,0.0,1.601,4.0,3.0,Inglés,5.0,Francés,13.0,Castellano ,0.0,Catalán,0.0,4.0,2.0,yes,no,no,Flauta,10,16. En los conciertos me siento en sintonía con los artistas y el público.,3.0, ,64.0,yes
16,2024-04-11_15h51.23.119,Experiment4_uns,s178,18.0,masculino,right,España,Castellano Catalán,Upper secondary,no,no,B,1,conjunction_syn,L3,syncopated,s2,r1,16,Online_conjL3_syn//d.ji.li31.0.222.wav,ji,li,ko,chu,sil,do,ga,mo,sil1,je,sil2,['catch'],[0.9009999999998399],[0.9009999999998399],0.222,no_beat,0.67899999999984,0.67899999999984,"[""space""]",li,4,testConjL3Syn//r1.s2.1.wav,1.0,conjunction_syn,syncopated,a,s2,rule,rule,L3,m,0.934,3.0,0.0,1.07,4.0,3.0,Inglés,5.0,Francés,13.0,Castellano ,0.0,Catalán,0.0,4.0,2.0,yes,no,no,Flauta,10,17. Me gasto bastante dinero en música y cosas relacionadas con la música.,3.0, ,64.0,yes
17,2024-04-11_15h51.23.119,Experiment4_uns,s178,18.0,masculino,right,España,Castellano Catalán,Upper secondary,no,no,B,1,conjunction_syn,L3,syncopated,s2,r2,17,Online_conjL3_syn//d.ji.li28.none.none.wav,fu,ka,ga,ñe,sil,di,gu,sa,sil1,je,sil2,['false alarm'],[1.9259999999999309],[1.9259999999999309],none,none,,,"[""space""]",li,4,testConjL3Syn//cat_viol.r1.s1.0.wav,1.0,conjunction_syn,syncopated,a,s1,no_rule,cat,L3,m,0.616,3.0,1.0,0.853,4.0,3.0,Inglés,5.0,Francés,13.0,Castellano ,0.0,Catalán,0.0,4.0,2.0,yes,no,no,Flauta,10,18. Siento escalofríos cuando escucho una melodía que me gusta.,4.0, ,64.0,yes
18,2024-04-11_15h51.23.119,Experiment4_uns,s178,18.0,masculino,right,España,Castellano Catalán,Upper secondary,no,no,B,1,conjunction_syn,L3,syncopated,s1,r2,18,Online_conjL3_syn//d.ji.li30.none.none.wav,ñe,je,fu,sa,sil,ga,do,le,sil1,di,sil2,['false alarm'],[2.4370000000001255],[2.4370000000001255],none,none,,,"[""space""]",li,4,testConjL3Syn//r2.s2.1.wav,1.0,conjunction_syn,syncopated,b,s2,rule,rule,L3,m,3.556,4.0,0.0,0.519,4.0,3.0,Inglés,5.0,Francés,13.0,Castellano ,0.0,Catalán,0.0,4.0,2.0,yes,no,no,Flauta,10,19. Con la música me puedo desahogar.,1.0, ,64.0,yes
19,2024-04-11_15h51.23.119,Experiment4_uns,s178,18.0,masculino,right,España,Castellano Catalán,Upper secondary,no,no,B,1,conjunction_syn,L3,syncopated,s2,r2,19,Online_conjL3_syn//d.ji.li29.none.none.wav,ka,gu,di,ñe,sil,ko,ga,sa,sil1,le,sil2,['-'],,,none,none,,,,li,4,testConjL3Syn//time_viol.r2.s2.0.wav,1.0,conjunction_syn,syncopated,b,s2,no_rule,time,L3,m,0.568,3.0,1.0,0.47,4.0,3.0,Inglés,5.0,Francés,13.0,Castellano ,0.0,Catalán,0.0,4.0,2.0,yes,no,no,Flauta,10,20. Cuando escucho una melodía que me gusta mucho no puedo evitar mover el cuerpo.,4.0, ,64.0,yes
20,2024-04-11_15h51.23.119,Experiment4_uns,s178,18.0,masculino,right,España,Castellano Catalán,Upper secondary,no,no,B,1,conjunction_syn,L3,syncopated,s1,r1,20,Online_conjL3_syn//d.ji.li27.none.none.wav,chu,je,ga,mo,sil,gu,do,le,sil1,ka,sil2,['false alarm'],[0.09400000000005093],[0.09400000000005093],none,none,,,"[""space""]",li,4,testConjL3Syn//time_viol.r2.s1.0.wav,1.0,conjunction_syn,syncopated,b,s1,no_rule,time,L3,z,0.371,4.0,0.0,0.669,4.0,3.0,Inglés,5.0,Francés,13.0,Castellano ,0.0,Catalán,0.0,4.0,2.0,yes,no,no,Flauta,10,,, ,64.0,yes
21,2024-04-11_15h51.23.119,Experiment4_uns,s178,18.0,masculino,right,España,Castellano Catalán,Upper secondary,no,no,B,1,conjunction_syn,L3,syncopated,s2,r1,21,Online_conjL3_syn//d.ji.li25.none.none.wav,le,fu,ka,chu,sil,ga,je,mo,sil1,gu,sil2,['-'],,,none,none,,,,li,4,testConjL3Syn//cat_viol.r2.s2.0.wav,1.0,conjunction_syn,syncopated,b,s2,no_rule,cat,L3,m,0.548,4.0,1.0,0.668,4.0,3.0,Inglés,5.0,Francés,13.0,Castellano ,0.0,Catalán,0.0,4.0,2.0,yes,no,no,Flauta,10,,, ,64.0,yes
22,2024-04-11_15h51.23.119,Experiment4_uns,s178,18.0,masculino,right,España,Castellano Catalán,Upper secondary,no,no,B,1,conjunction_syn,L3,syncopated,s1,r2,22,Online_conjL3_syn//d.ji.li26.1554.222.wav,ñe,li,je,sa,sil,fu,ga,ji,sil1,ka,sil2,['catch'],[1.3449999999998],[1.3449999999998],0.222,no_beat,1.1229999999998,1.1229999999998,"[""space""]",li,4,testConjL3Syn//time_viol.r1.s1.0.wav,1.0,conjunction_syn,syncopated,a,s1,no_rule,time,L3,z,0.41,5.0,0.0,0.634,4.0,3.0,Inglés,5.0,Francés,13.0,Castellano ,0.0,Catalán,0.0,4.0,2.0,yes,no,no,Flauta,10,,, ,64.0,yes
23,2024-04-11_15h51.23.119,Experiment4_uns,s178,18.0,masculino,right,España,Castellano Catalán,Upper secondary,no,no,B,1,conjunction_syn,L3,syncopated,s1,r2,23,Online_conjL3_syn//d.ji.li24.222.1110.wav,ñe,ji,ga,sa,sil,li,fu,ka,sil1,di,sil2,['catch'],[1.9919999999999618],[1.9919999999999618],1.11,no_beat,0.8819999999999617,0.8819999999999617,"[""space""]",li,4,testConjL3Syn//dep_viol.r2.s2.0.wav,1.0,conjunction_syn,syncopated,b,s2,no_rule,dep,L3,z,0.584,4.0,0.0,0.504,4.0,3.0,Inglés,5.0,Francés,13.0,Castellano ,0.0,Catalán,0.0,4.0,2.0,yes,no,no,Flauta,10,,, ,64.0,yes
24,2024-04-11_15h51.23.119,Experiment4_uns,s178,18.0,masculino,right,España,Castellano Catalán,Upper secondary,no,no,B,1,conjunction_syn,L3,syncopated,s2,r1,24,Online_conjL3_syn//a.chu.mo22.666.1554.wav,ka,li,le,chu,sil,di,ko,mo,sil1,je,sil2,['catch'],[1.4349999999999454],[1.4349999999999454],0.666,no_beat,0.7689999999999454,0.7689999999999454,"[""space""]",chu,1,testConjL4Uns//time_viol.r2.s1.0.wav,2.0,conjunction_un,unsyncopated,b,s1,no_rule,time,L4,m,4.011,5.0,1.0,1.173,4.0,3.0,Inglés,5.0,Francés,13.0,Castellano ,0.0,Catalán,0.0,4.0,2.0,yes,no,no,Flauta,10,,, ,64.0,yes
25,2024-04-11_15h51.23.119,Experiment4_uns,s178,18.0,masculino,right,España,Castellano Catalán,Upper secondary,no,no,B,1,conjunction_syn,L3,syncopated,s2,r1,25,Online_conjL3_syn//a.chu.mo21.666.1554.wav,gu,ka,je,chu,sil,do,ko,mo,sil1,li,sil2,['catch'],[1.384999999999991],[1.384999999999991],0.666,no_beat,0.7189999999999909,0.7189999999999909,"[""space""]",chu,1,testConjL4Uns//r1.s2.1.wav,2.0,conjunction_un,unsyncopated,a,s2,rule,rule,L4,z,0.835,7.0,1.0,0.717,4.0,3.0,Inglés,5.0,Francés,13.0,Castellano ,0.0,Catalán,0.0,4.0,2.0,yes,no,no,Flauta,10,,, ,64.0,yes
26,2024-04-11_15h51.23.119,Experiment4_uns,s178,18.0,masculino,right,España,Castellano Catalán,Upper secondary,no,no,B,1,conjunction_syn,L3,syncopated,s1,r1,26,Online_conjL3_syn//a.chu.mo20.0.666.wav,chu,do,li,mo,sil,je,ka,ga,sil1,gu,sil2,['catch'],[0.8779999999999291],[0.8779999999999291],0.0,beat,0.8779999999999291,0.8779999999999291,"[""space""]",chu,1,testConjL4Uns//r1.s1.1.wav,2.0,conjunction_un,unsyncopated,a,s1,rule,rule,L4,z,0.818,7.0,1.0,0.405,4.0,3.0,Inglés,5.0,Francés,13.0,Castellano ,0.0,Catalán,0.0,4.0,2.0,yes,no,no,Flauta,10,,, ,64.0,yes
27,2024-04-11_15h51.23.119,Experiment4_uns,s178,18.0,masculino,right,España,Castellano Catalán,Upper secondary,no,no,B,1,conjunction_syn,L3,syncopated,s2,r1,27,Online_conjL3_syn//a.chu.mo23.666.1554.wav,gu,ga,le,chu,sil,fu,je,mo,sil1,ka,sil2,['catch'],[1.377999999999929],[1.377999999999929],0.666,no_beat,0.711999999999929,0.711999999999929,"[""space""]",chu,1,testConjL4Uns//cat_viol.r1.s1.0.wav,2.0,conjunction_un,unsyncopated,a,s1,no_rule,cat,L4,z,0.6,6.0,0.0,0.819,4.0,3.0,Inglés,5.0,Francés,13.0,Castellano ,0.0,Catalán,0.0,4.0,2.0,yes,no,no,Flauta,10,,, ,64.0,yes
28,2024-04-11_15h51.23.119,Experiment4_uns,s178,18.0,masculino,right,España,Castellano Catalán,Upper secondary,no,no,B,1,conjunction_syn,L3,syncopated,s1,r1,28,Online_conjL3_syn//c.gu.je13.none.none.wav,chu,le,ka,mo,sil,fu,ko,do,sil1,ji,sil2,['-'],,,none,none,,,,je,3,testConjL4Uns//r2.s2.1.wav,2.0,conjunction_un,unsyncopated,b,s2,rule,rule,L4,m,0.956,4.0,0.0,1.154,4.0,3.0,Inglés,5.0,Francés,13.0,Castellano ,0.0,Catalán,0.0,4.0,2.0,yes,no,no,Flauta,10,,, ,64.0,yes
29,2024-04-11_15h51.23.119,Experiment4_uns,s178,18.0,masculino,right,España,Castellano Catalán,Upper secondary,no,no,B,1,conjunction_syn,L3,syncopated,s1,r2,29,Online_conjL3_syn//c.gu.je15.1554.444.wav,ñe,le,je,sa,sil,fu,do,gu,sil1,ga,sil2,"['false alarm', 'catch']","[0.12299999999981992, 1.2369999999998527]",[1.2369999999998527],0.444,no_beat,0.7929999999998527,0.7929999999998527,"[""space"",""space""]",je,3,testConjL4Uns//cat_viol.r2.s1.0.wav,2.0,conjunction_un,unsyncopated,b,s1,no_rule,cat,L4,z,0.839,5.0,0.0,2.266,4.0,3.0,Inglés,5.0,Francés,13.0,Castellano ,0.0,Catalán,0.0,4.0,2.0,yes,no,no,Flauta,10,,, ,64.0,yes
30,2024-04-11_15h51.23.119,Experiment4_uns,s178,18.0,masculino,right,España,Castellano Catalán,Upper secondary,no,no,B,1,conjunction_syn,L3,syncopated,s2,r2,30,Online_conjL3_syn//c.gu.je12.none.none.wav,ka,ji,li,ñe,sil,do,ga,sa,sil1,fu,sil2,['-'],,,none,none,,,,je,3,testConjL4Uns//time_viol.r1.s1.0.wav,2.0,conjunction_un,unsyncopated,a,s1,no_rule,time,L4,z,0.723,4.0,0.0,0.931,4.0,3.0,Inglés,5.0,Francés,13.0,Castellano ,0.0,Catalán,0.0,4.0,2.0,yes,no,no,Flauta,10,,, ,64.0,yes
31,2024-04-11_15h51.23.119,Experiment4_uns,s178,18.0,masculino,right,España,Castellano Catalán,Upper secondary,no,no,B,1,conjunction_syn,L3,syncopated,s2,r1,31,Online_conjL3_syn//c.gu.je14.none.none.wav,ka,ko,ga,chu,sil,fu,do,mo,sil1,ji,sil2,['-'],,,none,none,,,,je,3,testConjL4Uns//dep_viol.r1.s1.0.wav,2.0,conjunction_un,unsyncopated,a,s1,no_rule,dep,L4,m,0.702,7.0,1.0,0.851,4.0,3.0,Inglés,5.0,Francés,13.0,Castellano ,0.0,Catalán,0.0,4.0,2.0,yes,no,no,Flauta,10,,, ,64.0,yes
32,2024-04-11_15h51.23.119,Experiment4_uns,s178,18.0,masculino,right,España,Castellano Catalán,Upper secondary,no,no,B,1,conjunction_syn,L3,syncopated,s2,r1,32,Online_conjL3_syn//b.ñe.sa5.none.none.wav,le,fu,do,chu,sil,li,ga,mo,sil1,ka,sil2,['-'],,,none,none,,,,sa,2,testConjL4Uns//r2.s1.0.wav,2.0,conjunction_un,unsyncopated,b,s1,rule,rule,L4,m,0.873,6.0,0.0,1.524,4.0,3.0,Inglés,5.0,Francés,13.0,Castellano ,0.0,Catalán,0.0,4.0,2.0,yes,no,no,Flauta,10,,, ,64.0,yes
33,2024-04-11_15h51.23.119,Experiment4_uns,s178,18.0,masculino,right,España,Castellano Catalán,Upper secondary,no,no,B,1,conjunction_syn,L3,syncopated,s2,r2,33,Online_conjL3_syn//b.ñe.sa7.666.1554.wav,ji,je,ko,ñe,sil,gu,ga,sa,sil1,do,sil2,['catch'],[2.269999999999982],[2.269999999999982],1.554,no_beat,0.7159999999999818,0.7159999999999818,"[""space""]",sa,2,testConjL4Uns//r2.s2.2.wav,2.0,conjunction_un,unsyncopated,b,s2,rule,rule,L4,m,1.058,6.0,0.0,0.781,4.0,3.0,Inglés,5.0,Francés,13.0,Castellano ,0.0,Catalán,0.0,4.0,2.0,yes,no,no,Flauta,10,,, ,64.0,yes
34,2024-04-11_15h51.23.119,Experiment4_uns,s178,18.0,masculino,right,España,Castellano Catalán,Upper secondary,no,no,B,1,conjunction_syn,L3,syncopated,s2,r2,34,Online_conjL3_syn//b.ñe.sa4.666.1554.wav,li,di,ka,ñe,sil,do,gu,sa,sil1,ji,sil2,['catch'],[2.4249999999999545],[2.4249999999999545],1.554,no_beat,0.8709999999999545,0.8709999999999545,"[""space""]",sa,2,testConjL4Uns//time_viol.r1.s2.0.wav,2.0,conjunction_un,unsyncopated,a,s2,no_rule,time,L4,m,2.418,3.0,1.0,0.883,4.0,3.0,Inglés,5.0,Francés,13.0,Castellano ,0.0,Catalán,0.0,4.0,2.0,yes,no,no,Flauta,10,,, ,64.0,yes
35,2024-04-11_15h51.23.119,Experiment4_uns,s178,18.0,masculino,right,España,Castellano Catalán,Upper secondary,no,no,B,1,conjunction_syn,L3,syncopated,s2,r1,35,Online_conjL3_syn//b.ñe.sa6.none.none.wav,le,ka,ko,chu,sil,do,li,mo,sil1,gu,sil2,['-'],,,none,none,,,,sa,2,testConjL4Uns//cat_viol.r1.s2.0.wav,2.0,conjunction_un,unsyncopated,a,s2,no_rule,cat,L4,m,1.187,5.0,1.0,0.651,4.0,3.0,Inglés,5.0,Francés,13.0,Castellano ,0.0,Catalán,0.0,4.0,2.0,yes,no,no,Flauta,10,,, ,64.0,yes
36,2024-04-11_15h51.23.119,Experiment4_uns,s178,18.0,masculino,right,España,Castellano Catalán,Upper secondary,no,no,B,1,conjunction_syn,L3,syncopated,s2,r1,36,Online_conjL3_syn//d.ji.li4.0.222.wav,ji,li,ka,chu,sil,le,di,mo,sil1,gu,sil2,['catch'],[0.9770000000000891],[0.9770000000000891],0.222,no_beat,0.7550000000000892,0.7550000000000892,"[""space""]",li,4,testConjL4Uns//dep_viol.r2.s1.0.wav,2.0,conjunction_un,unsyncopated,b,s1,no_rule,dep,L4,m,0.62,2.0,1.0,0.525,4.0,3.0,Inglés,5.0,Francés,13.0,Castellano ,0.0,Catalán,0.0,4.0,2.0,yes,no,no,Flauta,10,,, ,64.0,yes
37,2024-04-11_15h51.23.119,Experiment4_uns,s178,18.0,masculino,right,España,Castellano Catalán,Upper secondary,no,no,B,1,conjunction_syn,L3,syncopated,s2,r1,37,Online_conjL3_syn//d.ji.li7.1332.0.wav,li,ko,di,chu,sil,le,ji,mo,sil1,do,sil2,['catch'],[0.7540000000001328],[0.7540000000001328],0.0,beat,0.7540000000001328,0.7540000000001328,"[""space""]",li,4,testConjL4Uns//r2.s1.1.wav,2.0,conjunction_un,unsyncopated,b,s1,rule,rule,L4,z,0.518,7.0,1.0,0.551,4.0,3.0,Inglés,5.0,Francés,13.0,Castellano ,0.0,Catalán,0.0,4.0,2.0,yes,no,no,Flauta,10,,, ,64.0,yes
38,2024-04-11_15h51.23.119,Experiment4_uns,s178,18.0,masculino,right,España,Castellano Catalán,Upper secondary,no,no,B,1,conjunction_syn,L3,syncopated,s1,r2,38,Online_conjL3_syn//d.ji.li5.1332.222.wav,ñe,li,do,sa,sil,le,ji,di,sil1,ko,sil2,['catch'],[1.1369999999999436],[1.1369999999999436],0.222,no_beat,0.9149999999999436,0.9149999999999436,"[""space""]",li,4,testConjL4Uns//time_viol.r2.s2.0.wav,2.0,conjunction_un,unsyncopated,b,s2,no_rule,time,L4,z,0.621,4.0,0.0,0.887,4.0,3.0,Inglés,5.0,Francés,13.0,Castellano ,0.0,Catalán,0.0,4.0,2.0,yes,no,no,Flauta,10,,, ,64.0,yes
39,2024-04-11_15h51.23.119,Experiment4_uns,s178,18.0,masculino,right,España,Castellano Catalán,Upper secondary,no,no,B,1,conjunction_syn,L3,syncopated,s1,r1,39,Online_conjL3_syn//d.ji.li6.none.none.wav,chu,je,fu,mo,sil,ka,ga,le,sil1,do,sil2,"['false alarm', 'false alarm']","[2.3710000000000946, 2.578999999999951]",2.578999999999951,none,none,,,"[""space"",""space""]",li,4,testConjL4Uns//r1.s2.0.wav,2.0,conjunction_un,unsyncopated,a,s2,rule,rule,L4,z,0.55,5.0,1.0,0.856,4.0,3.0,Inglés,5.0,Francés,13.0,Castellano ,0.0,Catalán,0.0,4.0,2.0,yes,no,no,Flauta,10,,, ,64.0,yes
40,2024-04-11_15h51.23.119,Experiment4_uns,s178,18.0,masculino,right,España,Castellano Catalán,Upper secondary,no,no,B,1,conjunction_syn,L3,syncopated,s1,r2,40,Online_conjL3_syn//b.ñe.sa9.0.666.wav,ñe,ko,je,sa,sil,fu,li,di,sil1,ji,sil2,['catch'],[1.3109999999999218],[1.3109999999999218],0.666,no_beat,0.6449999999999217,0.6449999999999217,"[""space""]",sa,2,testConjL4Uns//r1.s1.0.wav,2.0,conjunction_un,unsyncopated,a,s1,rule,rule,L4,z,0.855,5.0,1.0,0.618,4.0,3.0,Inglés,5.0,Francés,13.0,Castellano ,0.0,Catalán,0.0,4.0,2.0,yes,no,no,Flauta,10,,, ,64.0,yes
41,2024-04-11_15h51.23.119,Experiment4_uns,s178,18.0,masculino,right,España,Castellano Catalán,Upper secondary,no,no,B,1,conjunction_syn,L3,syncopated,s1,r1,41,Online_conjL3_syn//b.ñe.sa10.none.none.wav,chu,ji,li,mo,sil,je,le,gu,sil1,do,sil2,['-'],,,none,none,,,,sa,2,testConjL4Uns//r2.s2.0.wav,2.0,conjunction_un,unsyncopated,b,s2,rule,rule,L4,z,0.568,5.0,1.0,0.656,4.0,3.0,Inglés,5.0,Francés,13.0,Castellano ,0.0,Catalán,0.0,4.0,2.0,yes,no,no,Flauta,10,,, ,64.0,yes
42,2024-04-11_15h51.23.119,Experiment4_uns,s178,18.0,masculino,right,España,Castellano Catalán,Upper secondary,no,no,B,1,conjunction_syn,L3,syncopated,s1,r2,42,Online_conjL3_syn//b.ñe.sa8.0.666.wav,ñe,do,di,sa,sil,je,ko,le,sil1,gu,sil2,['catch'],[1.40300000000002],[1.40300000000002],0.666,no_beat,0.73700000000002,0.73700000000002,"[""space""]",sa,2,testConjL4Uns//dep_viol.r2.s2.0.wav,2.0,conjunction_un,unsyncopated,b,s2,no_rule,dep,L4,m,3.473,1.0,1.0,2.133,4.0,3.0,Inglés,5.0,Francés,13.0,Castellano ,0.0,Catalán,0.0,4.0,2.0,yes,no,no,Flauta,10,,, ,64.0,yes
43,2024-04-11_15h51.23.119,Experiment4_uns,s178,18.0,masculino,right,España,Castellano Catalán,Upper secondary,no,no,B,1,conjunction_syn,L3,syncopated,s2,r2,43,Online_conjL3_syn//b.ñe.sa11.666.1554.wav,li,fu,ga,ñe,sil,do,ka,sa,sil1,ko,sil2,['catch'],[2.2210000000000036],[2.2210000000000036],1.554,no_beat,0.6670000000000036,0.6670000000000036,"[""space""]",sa,2,testConjL4Uns//r2.s1.2.wav,2.0,conjunction_un,unsyncopated,b,s1,rule,rule,L4,m,0.633,2.0,0.0,0.684,4.0,3.0,Inglés,5.0,Francés,13.0,Castellano ,0.0,Catalán,0.0,4.0,2.0,yes,no,no,Flauta,10,,, ,64.0,yes
44,2024-04-11_15h51.23.119,Experiment4_uns,s178,18.0,masculino,right,España,Castellano Catalán,Upper secondary,no,no,B,1,conjunction_syn,L3,syncopated,s2,r1,44,Online_conjL3_syn//b.ñe.sa24.none.none.wav,ga,di,le,chu,sil,li,ka,mo,sil1,do,sil2,['-'],,,none,none,,,,sa,2,testConjL4Uns//dep_viol.r1.s2.0.wav,2.0,conjunction_un,unsyncopated,a,s2,no_rule,dep,L4,m,0.373,6.0,1.0,1.004,4.0,3.0,Inglés,5.0,Francés,13.0,Castellano ,0.0,Catalán,0.0,4.0,2.0,yes,no,no,Flauta,10,,, ,64.0,yes
45,2024-04-11_15h51.23.119,Experiment4_uns,s178,18.0,masculino,right,España,Castellano Catalán,Upper secondary,no,no,B,1,conjunction_syn,L3,syncopated,s1,r2,45,Online_conjL3_syn//b.ñe.sa25.0.666.wav,ñe,je,li,sa,sil,fu,le,ko,sil1,ji,sil2,['catch'],[1.336999999999989],[1.336999999999989],0.666,no_beat,0.670999999999989,0.670999999999989,"[""space""]",sa,2,testConjL4Uns//r1.s2.2.wav,2.0,conjunction_un,unsyncopated,a,s2,rule,rule,L4,m,1.25,3.0,0.0,0.334,4.0,3.0,Inglés,5.0,Francés,13.0,Castellano ,0.0,Catalán,0.0,4.0,2.0,yes,no,no,Flauta,10,,, ,64.0,yes
46,2024-04-11_15h51.23.119,Experiment4_uns,s178,18.0,masculino,right,España,Castellano Catalán,Upper secondary,no,no,B,1,conjunction_syn,L3,syncopated,s2,r1,46,Online_conjL3_syn//b.ñe.sa27.none.none.wav,ka,gu,je,chu,sil,ko,di,mo,sil1,li,sil2,['-'],,,none,none,,,,sa,2,testConjL4Uns//cat_viol.r2.s2.0.wav,2.0,conjunction_un,unsyncopated,b,s2,no_rule,cat,L4,m,0.785,2.0,1.0,0.284,4.0,3.0,Inglés,5.0,Francés,13.0,Castellano ,0.0,Catalán,0.0,4.0,2.0,yes,no,no,Flauta,10,,, ,64.0,yes
47,2024-04-11_15h51.23.119,Experiment4_uns,s178,18.0,masculino,right,España,Castellano Catalán,Upper secondary,no,no,B,1,conjunction_syn,L3,syncopated,s1,r1,47,Online_conjL3_syn//b.ñe.sa26.none.none.wav,chu,ko,ji,mo,sil,ka,li,do,sil1,gu,sil2,['-'],,,none,none,,,,sa,2,testConjL4Uns//r1.s1.2.wav,2.0,conjunction_un,unsyncopated,a,s1,rule,rule,L4,z,0.537,7.0,1.0,0.525,4.0,3.0,Inglés,5.0,Francés,13.0,Castellano ,0.0,Catalán,0.0,4.0,2.0,yes,no,no,Flauta,10,,, ,64.0,yes
48,2024-04-11_15h51.23.119,Experiment4_uns,s178,18.0,masculino,right,España,Castellano Catalán,Upper secondary,no,no,B,1,conjunction_syn,L3,syncopated,s1,r1,48,Online_conjL3_syn//a.chu.mo31.0.666.wav,chu,ka,je,mo,sil,ga,di,gu,sil1,ko,sil2,['catch'],[0.7950000000000728],[0.7950000000000728],0.0,beat,0.7950000000000728,0.7950000000000728,"[""space""]",chu,1,testWhatL1Uns//r1.s1.2.wav,3.0,what,unsyncopated,a,s1,rule,rule,L1,z,4.819,3.0,1.0,1.396,4.0,3.0,Inglés,5.0,Francés,13.0,Castellano ,0.0,Catalán,0.0,4.0,2.0,yes,no,no,Flauta,10,,, ,64.0,yes
49,2024-04-11_15h51.23.119,Experiment4_uns,s178,18.0,masculino,right,España,Castellano Catalán,Upper secondary,no,no,B,1,conjunction_syn,L3,syncopated,s2,r2,49,Online_conjL3_syn//a.chu.mo30.none.none.wav,fu,gu,ji,ñe,sil,li,do,sa,sil1,je,sil2,['false alarm'],[2.372000000000071],[2.372000000000071],none,none,,,"[""space""]",chu,1,testWhatL1Uns//time_viol.r2.s2.0.wav,3.0,what,unsyncopated,b,s2,no_rule,time,L1,z,0.901,4.0,0.0,1.368,4.0,3.0,Inglés,5.0,Francés,13.0,Castellano ,0.0,Catalán,0.0,4.0,2.0,yes,no,no,Flauta,10,,, ,64.0,yes
50,2024-04-11_15h51.23.119,Experiment4_uns,s178,18.0,masculino,right,España,Castellano Catalán,Upper secondary,no,no,B,1,conjunction_syn,L3,syncopated,s1,r2,50,Online_conjL3_syn//a.chu.mo28.none.none.wav,ñe,ga,li,sa,sil,je,do,ko,sil1,ka,sil2,['-'],,,none,none,,,,chu,1,testWhatL1Uns//dep_viol.r2.s2.0.wav,3.0,what,unsyncopated,b,s2,no_rule,dep,L1,z,1.207,3.0,0.0,0.251,4.0,3.0,Inglés,5.0,Francés,13.0,Castellano ,0.0,Catalán,0.0,4.0,2.0,yes,no,no,Flauta,10,,, ,64.0,yes
51,2024-04-11_15h51.23.119,Experiment4_uns,s178,18.0,masculino,right,España,Castellano Catalán,Upper secondary,no,no,B,1,conjunction_syn,L3,syncopated,s2,r2,51,Online_conjL3_syn//a.chu.mo29.none.none.wav,ji,ka,do,ñe,sil,gu,di,sa,sil1,ko,sil2,['-'],,,none,none,,,,chu,1,testWhatL1Uns//cat_viol.r2.s1.0.wav,3.0,what,unsyncopated,b,s1,no_rule,cat,L1,z,0.284,5.0,0.0,0.818,4.0,3.0,Inglés,5.0,Francés,13.0,Castellano ,0.0,Catalán,0.0,4.0,2.0,yes,no,no,Flauta,10,,, ,64.0,yes
52,2024-04-11_15h51.23.119,Experiment4_uns,s178,18.0,masculino,right,España,Castellano Catalán,Upper secondary,no,no,B,1,conjunction_syn,L3,syncopated,s2,r2,52,Online_conjL3_syn//b.ñe.sa21.666.1554.wav,le,di,gu,ñe,sil,ga,je,sa,sil1,li,sil2,['catch'],[2.2899999999999636],[2.2899999999999636],1.554,no_beat,0.7359999999999636,0.7359999999999636,"[""space""]",sa,2,testWhatL1Uns//r2.s2.1.wav,3.0,what,unsyncopated,b,s2,rule,rule,L1,m,0.369,5.0,0.0,1.325,4.0,3.0,Inglés,5.0,Francés,13.0,Castellano ,0.0,Catalán,0.0,4.0,2.0,yes,no,no,Flauta,10,,, ,64.0,yes
53,2024-04-11_15h51.23.119,Experiment4_uns,s178,18.0,masculino,right,España,Castellano Catalán,Upper secondary,no,no,B,1,conjunction_syn,L3,syncopated,s1,r1,53,Online_conjL3_syn//b.ñe.sa22.none.none.wav,chu,di,li,mo,sil,le,fu,gu,sil1,je,sil2,['-'],,,none,none,,,,sa,2,testWhatL1Uns//r2.s2.0.wav,3.0,what,unsyncopated,b,s2,rule,rule,L1,z,0.359,5.0,1.0,0.497,4.0,3.0,Inglés,5.0,Francés,13.0,Castellano ,0.0,Catalán,0.0,4.0,2.0,yes,no,no,Flauta,10,,, ,64.0,yes
54,2024-04-11_15h51.23.119,Experiment4_uns,s178,18.0,masculino,right,España,Castellano Catalán,Upper secondary,no,no,B,1,conjunction_syn,L3,syncopated,s2,r2,54,Online_conjL3_syn//b.ñe.sa20.666.1554.wav,le,di,ka,ñe,sil,li,je,sa,sil1,ko,sil2,['catch'],[2.4220000000000255],[2.4220000000000255],1.554,no_beat,0.8680000000000254,0.8680000000000254,"[""space""]",sa,2,testWhatL1Uns//r2.s2.2.wav,3.0,what,unsyncopated,b,s2,rule,rule,L1,m,0.284,3.0,0.0,0.276,4.0,3.0,Inglés,5.0,Francés,13.0,Castellano ,0.0,Catalán,0.0,4.0,2.0,yes,no,no,Flauta,10,,, ,64.0,yes
55,2024-04-11_15h51.23.119,Experiment4_uns,s178,18.0,masculino,right,España,Castellano Catalán,Upper secondary,no,no,B,1,conjunction_syn,L3,syncopated,s2,r1,55,Online_conjL3_syn//b.ñe.sa23.none.none.wav,ka,le,di,chu,sil,je,gu,mo,sil1,ji,sil2,['-'],,,none,none,,,,sa,2,testWhatL1Uns//dep_viol.r1.s2.0.wav,3.0,what,unsyncopated,a,s2,no_rule,dep,L1,z,0.521,5.0,0.0,0.32,4.0,3.0,Inglés,5.0,Francés,13.0,Castellano ,0.0,Catalán,0.0,4.0,2.0,yes,no,no,Flauta,10,,, ,64.0,yes
56,2024-04-11_15h51.23.119,Experiment4_uns,s178,18.0,masculino,right,España,Castellano Catalán,Upper secondary,no,no,B,1,conjunction_syn,L3,syncopated,s1,r1,56,Online_conjL3_syn//c.gu.je1.222.1332.wav,chu,gu,li,mo,sil,di,je,fu,sil1,ka,sil2,['catch'],[2.0930000000000746],[2.0930000000000746],1.332,no_beat,0.7610000000000745,0.7610000000000745,"[""space""]",je,3,testWhatL1Uns//cat_viol.r2.s2.0.wav,3.0,what,unsyncopated,b,s2,no_rule,cat,L1,m,0.426,3.0,1.0,0.464,4.0,3.0,Inglés,5.0,Francés,13.0,Castellano ,0.0,Catalán,0.0,4.0,2.0,yes,no,no,Flauta,10,,, ,64.0,yes
57,2024-04-11_15h51.23.119,Experiment4_uns,s178,18.0,masculino,right,España,Castellano Catalán,Upper secondary,no,no,B,1,conjunction_syn,L3,syncopated,s1,r1,57,Online_conjL3_syn//c.gu.je0.1332.444.wav,chu,ga,je,mo,sil,ko,gu,ji,sil1,do,sil2,['catch'],[1.5209999999999582],[1.5209999999999582],0.444,no_beat,1.0769999999999582,1.0769999999999582,"[""space""]",je,3,testWhatL1Uns//r1.s1.0.wav,3.0,what,unsyncopated,a,s1,rule,rule,L1,z,0.353,3.0,1.0,0.5,4.0,3.0,Inglés,5.0,Francés,13.0,Castellano ,0.0,Catalán,0.0,4.0,2.0,yes,no,no,Flauta,10,,, ,64.0,yes
58,2024-04-11_15h51.23.119,Experiment4_uns,s178,18.0,masculino,right,España,Castellano Catalán,Upper secondary,no,no,B,1,conjunction_syn,L3,syncopated,s1,r2,58,Online_conjL3_syn//c.gu.je2.none.none.wav,ñe,ka,ga,sa,sil,li,ji,do,sil1,le,sil2,['-'],,,none,none,,,,je,3,testWhatL1Uns//time_viol.r1.s1.0.wav,3.0,what,unsyncopated,a,s1,no_rule,time,L1,m,1.617,2.0,1.0,1.021,4.0,3.0,Inglés,5.0,Francés,13.0,Castellano ,0.0,Catalán,0.0,4.0,2.0,yes,no,no,Flauta,10,,, ,64.0,yes
59,2024-04-11_15h51.23.119,Experiment4_uns,s178,18.0,masculino,right,España,Castellano Catalán,Upper secondary,no,no,B,1,conjunction_syn,L3,syncopated,s1,r1,59,Online_conjL3_syn//c.gu.je3.none.none.wav,chu,ka,li,mo,sil,ga,le,di,sil1,ji,sil2,['-'],,,none,none,,,,je,3,testWhatL1Uns//cat_viol.r1.s1.0.wav,3.0,what,unsyncopated,a,s1,no_rule,cat,L1,z,1.131,5.0,0.0,1.465,4.0,3.0,Inglés,5.0,Francés,13.0,Castellano ,0.0,Catalán,0.0,4.0,2.0,yes,no,no,Flauta,10,,, ,64.0,yes
60,2024-04-11_15h51.23.119,Experiment4_uns,s178,18.0,masculino,right,España,Castellano Catalán,Upper secondary,no,no,B,1,conjunction_syn,L3,syncopated,s2,r1,60,Online_conjL3_syn//b.ñe.sa12.none.none.wav,ko,li,di,chu,sil,do,ga,mo,sil1,ka,sil2,['-'],,,none,none,,,,sa,2,testWhatL1Uns//r2.s1.0.wav,3.0,what,unsyncopated,b,s1,rule,rule,L1,z,1.152,4.0,1.0,0.218,4.0,3.0,Inglés,5.0,Francés,13.0,Castellano ,0.0,Catalán,0.0,4.0,2.0,yes,no,no,Flauta,10,,, ,64.0,yes
61,2024-04-11_15h51.23.119,Experiment4_uns,s178,18.0,masculino,right,España,Castellano Catalán,Upper secondary,no,no,B,1,conjunction_syn,L3,syncopated,s2,r1,61,Online_conjL3_syn//b.ñe.sa15.none.none.wav,di,gu,le,chu,sil,do,fu,mo,sil1,ji,sil2,['-'],,,none,none,,,,sa,2,testWhatL1Uns//r2.s1.2.wav,3.0,what,unsyncopated,b,s1,rule,rule,L1,z,1.221,3.0,1.0,1.117,4.0,3.0,Inglés,5.0,Francés,13.0,Castellano ,0.0,Catalán,0.0,4.0,2.0,yes,no,no,Flauta,10,,, ,64.0,yes
62,2024-04-11_15h51.23.119,Experiment4_uns,s178,18.0,masculino,right,España,Castellano Catalán,Upper secondary,no,no,B,1,conjunction_syn,L3,syncopated,s2,r2,62,Online_conjL3_syn//b.ñe.sa13.666.1554.wav,fu,li,ka,ñe,sil,ga,le,sa,sil1,je,sil2,['catch'],[2.2929999999998927],[2.2929999999998927],1.554,no_beat,0.7389999999998926,0.7389999999998926,"[""space""]",sa,2,testWhatL1Uns//r1.s2.2.wav,3.0,what,unsyncopated,a,s2,rule,rule,L1,m,0.291,2.0,0.0,0.362,4.0,3.0,Inglés,5.0,Francés,13.0,Castellano ,0.0,Catalán,0.0,4.0,2.0,yes,no,no,Flauta,10,,, ,64.0,yes
63,2024-04-11_15h51.23.119,Experiment4_uns,s178,18.0,masculino,right,España,Castellano Catalán,Upper secondary,no,no,B,1,conjunction_syn,L3,syncopated,s1,r2,63,Online_conjL3_syn//b.ñe.sa14.0.666.wav,ñe,ko,li,sa,sil,fu,je,gu,sil1,ga,sil2,['catch'],[1.7200000000000273],[1.7200000000000273],0.666,no_beat,1.0540000000000274,1.0540000000000274,"[""space""]",sa,2,testWhatL1Uns//dep_viol.r2.s1.0.wav,3.0,what,unsyncopated,b,s1,no_rule,dep,L1,z,0.316,6.0,0.0,1.517,4.0,3.0,Inglés,5.0,Francés,13.0,Castellano ,0.0,Catalán,0.0,4.0,2.0,yes,no,no,Flauta,10,,, ,64.0,yes
64,2024-04-11_15h51.23.119,Experiment4_uns,s178,18.0,masculino,right,España,Castellano Catalán,Upper secondary,no,no,B,1,conjunction_syn,L3,syncopated,s2,r2,64,Online_conjL3_syn//d.ji.li8.444.0.wav,li,fu,ji,ñe,sil,ko,je,sa,sil1,gu,sil2,['catch'],[0.8260000000000218],[0.8260000000000218],0.0,beat,0.8260000000000218,0.8260000000000218,"[""space""]",li,4,testWhatL1Uns//r1.s2.0.wav,3.0,what,unsyncopated,a,s2,rule,rule,L1,m,0.634,3.0,0.0,1.934,4.0,3.0,Inglés,5.0,Francés,13.0,Castellano ,0.0,Catalán,0.0,4.0,2.0,yes,no,no,Flauta,10,,, ,64.0,yes
65,2024-04-11_15h51.23.119,Experiment4_uns,s178,18.0,masculino,right,España,Castellano Catalán,Upper secondary,no,no,B,1,conjunction_syn,L3,syncopated,s2,r2,65,Online_conjL3_syn//d.ji.li9.none.none.wav,ka,le,do,ñe,sil,fu,ko,sa,sil1,je,sil2,['-'],,,none,none,,,,li,4,testWhatL1Uns//r2.s1.1.wav,3.0,what,unsyncopated,b,s1,rule,rule,L1,m,0.585,2.0,0.0,0.367,4.0,3.0,Inglés,5.0,Francés,13.0,Castellano ,0.0,Catalán,0.0,4.0,2.0,yes,no,no,Flauta,10,,, ,64.0,yes
66,2024-04-11_15h51.23.119,Experiment4_uns,s178,18.0,masculino,right,España,Castellano Catalán,Upper secondary,no,no,B,1,conjunction_syn,L3,syncopated,s2,r1,66,Online_conjL3_syn//d.ji.li11.1332.0.wav,li,gu,do,chu,sil,le,ji,mo,sil1,je,sil2,['catch'],[0.8269999999999982],[0.8269999999999982],0.0,beat,0.8269999999999982,0.8269999999999982,"[""space""]",li,4,testWhatL1Uns//r1.s1.1.wav,3.0,what,unsyncopated,a,s1,rule,rule,L1,m,0.487,5.0,0.0,0.501,4.0,3.0,Inglés,5.0,Francés,13.0,Castellano ,0.0,Catalán,0.0,4.0,2.0,yes,no,no,Flauta,10,,, ,64.0,yes
67,2024-04-11_15h51.23.119,Experiment4_uns,s178,18.0,masculino,right,España,Castellano Catalán,Upper secondary,no,no,B,1,conjunction_syn,L3,syncopated,s1,r1,67,Online_conjL3_syn//d.ji.li10.1554.444.wav,chu,je,li,mo,sil,do,fu,ji,sil1,ko,sil2,['catch'],[1.6059999999999945],[1.6059999999999945],0.444,no_beat,1.1619999999999946,1.1619999999999946,"[""space""]",li,4,testWhatL1Uns//r1.s2.1.wav,3.0,what,unsyncopated,a,s2,rule,rule,L1,m,0.653,5.0,0.0,0.473,4.0,3.0,Inglés,5.0,Francés,13.0,Castellano ,0.0,Catalán,0.0,4.0,2.0,yes,no,no,Flauta,10,,, ,64.0,yes
68,2024-04-11_15h51.23.119,Experiment4_uns,s178,18.0,masculino,right,España,Castellano Catalán,Upper secondary,no,no,B,1,conjunction_syn,L3,syncopated,s1,r2,68,Online_conjL3_syn//d.ji.li23.none.none.wav,ñe,ga,ko,sa,sil,fu,do,le,sil1,gu,sil2,['-'],,,none,none,,,,li,4,testWhatL1Uns//time_viol.r1.s2.0.wav,3.0,what,unsyncopated,a,s2,no_rule,time,L1,m,0.505,5.0,1.0,0.251,4.0,3.0,Inglés,5.0,Francés,13.0,Castellano ,0.0,Catalán,0.0,4.0,2.0,yes,no,no,Flauta,10,,, ,64.0,yes
69,2024-04-11_15h51.23.119,Experiment4_uns,s178,18.0,masculino,right,España,Castellano Catalán,Upper secondary,no,no,B,1,conjunction_syn,L3,syncopated,s2,r1,69,Online_conjL3_syn//d.ji.li21.none.none.wav,ko,gu,je,chu,sil,ka,ga,mo,sil1,di,sil2,['-'],,,none,none,,,,li,4,testWhatL1Uns//time_viol.r2.s1.0.wav,3.0,what,unsyncopated,b,s1,no_rule,time,L1,z,0.804,5.0,0.0,0.517,4.0,3.0,Inglés,5.0,Francés,13.0,Castellano ,0.0,Catalán,0.0,4.0,2.0,yes,no,no,Flauta,10,,, ,64.0,yes
70,2024-04-11_15h51.23.119,Experiment4_uns,s178,18.0,masculino,right,España,Castellano Catalán,Upper secondary,no,no,B,1,conjunction_syn,L3,syncopated,s2,r2,70,Online_conjL3_syn//d.ji.li22.0.1110.wav,ji,do,le,ñe,sil,li,ga,sa,sil1,je,sil2,"['false alarm', 'catch']","[0.2940000000000964, 2.0590000000001965]",[2.0590000000001965],1.11,no_beat,0.9490000000001964,0.9490000000001964,"[""space"",""space""]",li,4,testWhatL1Uns//cat_viol.r1.s2.0.wav,3.0,what,unsyncopated,a,s2,no_rule,cat,L1,z,0.568,5.0,0.0,0.305,4.0,3.0,Inglés,5.0,Francés,13.0,Castellano ,0.0,Catalán,0.0,4.0,2.0,yes,no,no,Flauta,10,,, ,64.0,yes
71,2024-04-11_15h51.23.119,Experiment4_uns,s178,18.0,masculino,right,España,Castellano Catalán,Upper secondary,no,no,B,1,conjunction_syn,L3,syncopated,s2,r1,71,Online_conjL3_syn//d.ji.li20.none.none.wav,di,le,ko,chu,sil,ka,do,mo,sil1,gu,sil2,['false alarm'],[1.1539999999999964],[1.1539999999999964],none,none,,,"[""space""]",li,4,testWhatL1Uns//dep_viol.r1.s1.0.wav,3.0,what,unsyncopated,a,s1,no_rule,dep,L1,z,1.123,7.0,0.0,0.785,4.0,3.0,Inglés,5.0,Francés,13.0,Castellano ,0.0,Catalán,0.0,4.0,2.0,yes,no,no,Flauta,10,,, ,64.0,yes
72,2024-04-11_15h51.23.119,Experiment4_uns,s178,18.0,masculino,right,España,Castellano Catalán,Upper secondary,no,no,B,1,conjunction_syn,L3,syncopated,s1,r2,72,Online_conjL3_syn//b.ñe.sa3.0.666.wav,ñe,li,do,sa,sil,gu,ka,fu,sil1,ko,sil2,['catch'],[1.344000000000051],[1.344000000000051],0.666,no_beat,0.6780000000000509,0.6780000000000509,"[""space""]",sa,2,testWhenL2Uns//dep_viol.r2.s2.0.wav,4.0,when,unsyncopated,b,s2,no_rule,dep,L2,z,0.548,5.0,1.0,0.874,4.0,3.0,Inglés,5.0,Francés,13.0,Castellano ,0.0,Catalán,0.0,4.0,2.0,yes,no,no,Flauta,10,,, ,64.0,yes
73,2024-04-11_15h51.23.119,Experiment4_uns,s178,18.0,masculino,right,España,Castellano Catalán,Upper secondary,no,no,B,1,conjunction_syn,L3,syncopated,s1,r2,73,Online_conjL3_syn//b.ñe.sa1.0.666.wav,ñe,di,li,sa,sil,ga,ko,je,sil1,ji,sil2,['catch'],[1.4390000000000782],[1.4390000000000782],0.666,no_beat,0.7730000000000782,0.7730000000000782,"[""space""]",sa,2,testWhenL2Uns//r2.s1.1.wav,4.0,when,unsyncopated,b,s1,rule,rule,L2,m,0.686,3.0,0.0,0.368,4.0,3.0,Inglés,5.0,Francés,13.0,Castellano ,0.0,Catalán,0.0,4.0,2.0,yes,no,no,Flauta,10,,, ,64.0,yes
74,2024-04-11_15h51.23.119,Experiment4_uns,s178,18.0,masculino,right,España,Castellano Catalán,Upper secondary,no,no,B,1,conjunction_syn,L3,syncopated,s1,r2,74,Online_conjL3_syn//b.ñe.sa0.0.666.wav,ñe,ji,fu,sa,sil,li,do,je,sil1,gu,sil2,['catch'],[1.4859999999998763],[1.4859999999998763],0.666,no_beat,0.8199999999998763,0.8199999999998763,"[""space""]",sa,2,testWhenL2Uns//r2.s2.2.wav,4.0,when,unsyncopated,b,s2,rule,rule,L2,z,1.008,7.0,1.0,0.401,4.0,3.0,Inglés,5.0,Francés,13.0,Castellano ,0.0,Catalán,0.0,4.0,2.0,yes,no,no,Flauta,10,,, ,64.0,yes
75,2024-04-11_15h51.23.119,Experiment4_uns,s178,18.0,masculino,right,España,Castellano Catalán,Upper secondary,no,no,B,1,conjunction_syn,L3,syncopated,s1,r1,75,Online_conjL3_syn//b.ñe.sa2.none.none.wav,chu,fu,di,mo,sil,do,ga,li,sil1,ko,sil2,['-'],,,none,none,,,,sa,2,testWhenL2Uns//r1.s1.1.wav,4.0,when,unsyncopated,a,s1,rule,rule,L2,z,0.689,6.0,1.0,0.588,4.0,3.0,Inglés,5.0,Francés,13.0,Castellano ,0.0,Catalán,0.0,4.0,2.0,yes,no,no,Flauta,10,,, ,64.0,yes
76,2024-04-11_15h51.23.119,Experiment4_uns,s178,18.0,masculino,right,España,Castellano Catalán,Upper secondary,no,no,B,1,conjunction_syn,L3,syncopated,s1,r1,76,Online_conjL3_syn//c.gu.je24.1554.1110.wav,chu,ji,ko,mo,sil,je,li,gu,sil1,ka,sil2,['catch'],[1.941000000000031],[1.941000000000031],1.11,no_beat,0.8310000000000308,0.8310000000000308,"[""space""]",je,3,testWhenL2Uns//time_viol.r2.s2.0.wav,4.0,when,unsyncopated,b,s2,no_rule,time,L2,m,0.556,6.0,0.0,0.808,4.0,3.0,Inglés,5.0,Francés,13.0,Castellano ,0.0,Catalán,0.0,4.0,2.0,yes,no,no,Flauta,10,,, ,64.0,yes
77,2024-04-11_15h51.23.119,Experiment4_uns,s178,18.0,masculino,right,España,Castellano Catalán,Upper secondary,no,no,B,1,conjunction_syn,L3,syncopated,s1,r1,77,Online_conjL3_syn//c.gu.je26.none.none.wav,chu,ji,do,mo,sil,ga,le,ko,sil1,ka,sil2,['-'],,,none,none,,,,je,3,testWhenL2Uns//r2.s1.2.wav,4.0,when,unsyncopated,b,s1,rule,rule,L2,z,0.296,2.0,1.0,2.167,4.0,3.0,Inglés,5.0,Francés,13.0,Castellano ,0.0,Catalán,0.0,4.0,2.0,yes,no,no,Flauta,10,,, ,64.0,yes
78,2024-04-11_15h51.23.119,Experiment4_uns,s178,18.0,masculino,right,España,Castellano Catalán,Upper secondary,no,no,B,1,conjunction_syn,L3,syncopated,s1,r2,78,Online_conjL3_syn//c.gu.je27.none.none.wav,ñe,li,fu,sa,sil,di,le,ko,sil1,ji,sil2,['-'],,,none,none,,,,je,3,testWhenL2Uns//r2.s1.0.wav,4.0,when,unsyncopated,b,s1,rule,rule,L2,z,0.789,4.0,1.0,0.739,4.0,3.0,Inglés,5.0,Francés,13.0,Castellano ,0.0,Catalán,0.0,4.0,2.0,yes,no,no,Flauta,10,,, ,64.0,yes
79,2024-04-11_15h51.23.119,Experiment4_uns,s178,18.0,masculino,right,España,Castellano Catalán,Upper secondary,no,no,B,1,conjunction_syn,L3,syncopated,s2,r2,79,Online_conjL3_syn//c.gu.je25.none.none.wav,fu,ka,di,ñe,sil,do,le,sa,sil1,ji,sil2,['-'],,,none,none,,,,je,3,testWhenL2Uns//cat_viol.r2.s1.0.wav,4.0,when,unsyncopated,b,s1,no_rule,cat,L2,m,0.318,6.0,0.0,0.686,4.0,3.0,Inglés,5.0,Francés,13.0,Castellano ,0.0,Catalán,0.0,4.0,2.0,yes,no,no,Flauta,10,,, ,64.0,yes
80,2024-04-11_15h51.23.119,Experiment4_uns,s178,18.0,masculino,right,España,Castellano Catalán,Upper secondary,no,no,B,1,conjunction_syn,L3,syncopated,s1,r2,80,Online_conjL3_syn//c.gu.je11.222.1110.wav,ñe,gu,ka,sa,sil,je,fu,ji,sil1,le,sil2,['catch'],[1.94399999999996],[1.94399999999996],1.11,no_beat,0.8339999999999599,0.8339999999999599,"[""space""]",je,3,testWhenL2Uns//r1.s1.2.wav,4.0,when,unsyncopated,a,s1,rule,rule,L2,z,0.102,7.0,1.0,0.688,4.0,3.0,Inglés,5.0,Francés,13.0,Castellano ,0.0,Catalán,0.0,4.0,2.0,yes,no,no,Flauta,10,,, ,64.0,yes
81,2024-04-11_15h51.23.119,Experiment4_uns,s178,18.0,masculino,right,España,Castellano Catalán,Upper secondary,no,no,B,1,conjunction_syn,L3,syncopated,s2,r1,81,Online_conjL3_syn//c.gu.je9.1332.0.wav,je,le,ko,chu,sil,ka,gu,mo,sil1,ji,sil2,['catch'],[1.0910000000001219],[1.0910000000001219],0.0,beat,1.091000000000122,1.091000000000122,"[""space""]",je,3,testWhenL2Uns//dep_viol.r1.s2.0.wav,4.0,when,unsyncopated,a,s2,no_rule,dep,L2,m,1.934,2.0,0.0,1.036,4.0,3.0,Inglés,5.0,Francés,13.0,Castellano ,0.0,Catalán,0.0,4.0,2.0,yes,no,no,Flauta,10,,, ,64.0,yes
82,2024-04-11_15h51.23.119,Experiment4_uns,s178,18.0,masculino,right,España,Castellano Catalán,Upper secondary,no,no,B,1,conjunction_syn,L3,syncopated,s1,r1,82,Online_conjL3_syn//c.gu.je8.222.1110.wav,chu,gu,do,mo,sil,je,ga,ko,sil1,ka,sil2,['catch'],[1.9210000000000491],[1.9210000000000491],1.11,no_beat,0.811000000000049,0.811000000000049,"[""space""]",je,3,testWhenL2Uns//cat_viol.r1.s1.0.wav,4.0,when,unsyncopated,a,s1,no_rule,cat,L2,m,3.418,3.0,0.0,1.007,4.0,3.0,Inglés,5.0,Francés,13.0,Castellano ,0.0,Catalán,0.0,4.0,2.0,yes,no,no,Flauta,10,,, ,64.0,yes
83,2024-04-11_15h51.23.119,Experiment4_uns,s178,18.0,masculino,right,España,Castellano Catalán,Upper secondary,no,no,B,1,conjunction_syn,L3,syncopated,s1,r1,83,Online_conjL3_syn//c.gu.je10.none.none.wav,chu,di,do,mo,sil,ko,ga,ji,sil1,ka,sil2,['-'],,,none,none,,,,je,3,testWhenL2Uns//r1.s2.1.wav,4.0,when,unsyncopated,a,s2,rule,rule,L2,m,0.738,3.0,0.0,0.814,4.0,3.0,Inglés,5.0,Francés,13.0,Castellano ,0.0,Catalán,0.0,4.0,2.0,yes,no,no,Flauta,10,,, ,64.0,yes
84,2024-04-11_15h51.23.119,Experiment4_uns,s178,18.0,masculino,right,España,Castellano Catalán,Upper secondary,no,no,B,1,conjunction_syn,L3,syncopated,s1,r2,84,Online_conjL3_syn//a.chu.mo8.none.none.wav,ñe,ga,fu,sa,sil,ji,li,je,sil1,le,sil2,['-'],,,none,none,,,,chu,1,testWhenL2Uns//dep_viol.r1.s1.0.wav,4.0,when,unsyncopated,a,s1,no_rule,dep,L2,m,0.638,2.0,0.0,0.601,4.0,3.0,Inglés,5.0,Francés,13.0,Castellano ,0.0,Catalán,0.0,4.0,2.0,yes,no,no,Flauta,10,,, ,64.0,yes
85,2024-04-11_15h51.23.119,Experiment4_uns,s178,18.0,masculino,right,España,Castellano Catalán,Upper secondary,no,no,B,1,conjunction_syn,L3,syncopated,s1,r2,85,Online_conjL3_syn//a.chu.mo10.none.none.wav,ñe,je,gu,sa,sil,ko,fu,ji,sil1,di,sil2,['-'],,,none,none,,,,chu,1,testWhenL2Uns//time_viol.r2.s1.0.wav,4.0,when,unsyncopated,b,s1,no_rule,time,L2,z,0.154,6.0,1.0,0.682,4.0,3.0,Inglés,5.0,Francés,13.0,Castellano ,0.0,Catalán,0.0,4.0,2.0,yes,no,no,Flauta,10,,, ,64.0,yes
86,2024-04-11_15h51.23.119,Experiment4_uns,s178,18.0,masculino,right,España,Castellano Catalán,Upper secondary,no,no,B,1,conjunction_syn,L3,syncopated,s2,r1,86,Online_conjL3_syn//a.chu.mo9.666.1554.wav,ka,ko,di,chu,sil,li,ga,mo,sil1,gu,sil2,['catch'],[1.4919999999999618],[1.4919999999999618],0.666,no_beat,0.8259999999999618,0.8259999999999618,"[""space""]",chu,1,testWhenL2Uns//time_viol.r1.s2.0.wav,4.0,when,unsyncopated,a,s2,no_rule,time,L2,m,0.851,4.0,0.0,1.033,4.0,3.0,Inglés,5.0,Francés,13.0,Castellano ,0.0,Catalán,0.0,4.0,2.0,yes,no,no,Flauta,10,,, ,64.0,yes
87,2024-04-11_15h51.23.119,Experiment4_uns,s178,18.0,masculino,right,España,Castellano Catalán,Upper secondary,no,no,B,1,conjunction_syn,L3,syncopated,s2,r2,87,Online_conjL3_syn//a.chu.mo11.none.none.wav,ka,di,je,ñe,sil,ga,ko,sa,sil1,ji,sil2,['-'],,,none,none,,,,chu,1,testWhenL2Uns//r1.s1.0.wav,4.0,when,unsyncopated,a,s1,rule,rule,L2,m,0.836,3.0,0.0,0.269,4.0,3.0,Inglés,5.0,Francés,13.0,Castellano ,0.0,Catalán,0.0,4.0,2.0,yes,no,no,Flauta,10,,, ,64.0,yes
88,2024-04-11_15h51.23.119,Experiment4_uns,s178,18.0,masculino,right,España,Castellano Catalán,Upper secondary,no,no,B,1,conjunction_syn,L3,syncopated,s1,r1,88,Online_conjL3_syn//d.ji.li13.none.none.wav,chu,je,ka,mo,sil,di,ko,fu,sil1,ga,sil2,['false alarm'],[2.048000000000002],[2.048000000000002],none,none,,,"[""space""]",li,4,testWhenL2Uns//dep_viol.r2.s1.0.wav,4.0,when,unsyncopated,b,s1,no_rule,dep,L2,m,0.785,3.0,0.0,0.443,4.0,3.0,Inglés,5.0,Francés,13.0,Castellano ,0.0,Catalán,0.0,4.0,2.0,yes,no,no,Flauta,10,,, ,64.0,yes
89,2024-04-11_15h51.23.119,Experiment4_uns,s178,18.0,masculino,right,España,Castellano Catalán,Upper secondary,no,no,B,1,conjunction_syn,L3,syncopated,s1,r1,89,Online_conjL3_syn//d.ji.li14.444.1332.wav,chu,gu,ji,mo,sil,do,li,fu,sil1,le,sil2,['catch'],[2.2749999999998636],[2.2749999999998636],1.332,no_beat,0.9429999999998636,0.9429999999998636,"[""space""]",li,4,testWhenL2Uns//cat_viol.r1.s2.0.wav,4.0,when,unsyncopated,a,s2,no_rule,cat,L2,m,0.453,6.0,0.0,0.702,4.0,3.0,Inglés,5.0,Francés,13.0,Castellano ,0.0,Catalán,0.0,4.0,2.0,yes,no,no,Flauta,10,,, ,64.0,yes
90,2024-04-11_15h51.23.119,Experiment4_uns,s178,18.0,masculino,right,España,Castellano Catalán,Upper secondary,no,no,B,1,conjunction_syn,L3,syncopated,s2,r1,90,Online_conjL3_syn//d.ji.li12.none.none.wav,gu,ko,le,chu,sil,do,ga,mo,sil1,fu,sil2,['-'],,,none,none,,,,li,4,testWhenL2Uns//r2.s2.0.wav,4.0,when,unsyncopated,b,s2,rule,rule,L2,z,1.235,6.0,1.0,0.498,4.0,3.0,Inglés,5.0,Francés,13.0,Castellano ,0.0,Catalán,0.0,4.0,2.0,yes,no,no,Flauta,10,,, ,64.0,yes
91,2024-04-11_15h51.23.119,Experiment4_uns,s178,18.0,masculino,right,España,Castellano Catalán,Upper secondary,no,no,B,1,conjunction_syn,L3,syncopated,s1,r2,91,Online_conjL3_syn//d.ji.li15.1554.444.wav,ñe,je,li,sa,sil,ko,fu,ji,sil1,gu,sil2,['catch'],[1.28899999999976],[1.28899999999976],0.444,no_beat,0.8449999999997599,0.8449999999997599,"[""space""]",li,4,testWhenL2Uns//time_viol.r1.s1.0.wav,4.0,when,unsyncopated,a,s1,no_rule,time,L2,z,1.254,6.0,1.0,0.368,4.0,3.0,Inglés,5.0,Francés,13.0,Castellano ,0.0,Catalán,0.0,4.0,2.0,yes,no,no,Flauta,10,,, ,64.0,yes
92,2024-04-11_15h51.23.119,Experiment4_uns,s178,18.0,masculino,right,España,Castellano Catalán,Upper secondary,no,no,B,1,conjunction_syn,L3,syncopated,s2,r2,92,Online_conjL3_syn//c.gu.je5.1332.222.wav,li,je,ko,ñe,sil,di,gu,sa,sil1,do,sil2,['catch'],[1.0760000000000218],[1.0760000000000218],0.222,no_beat,0.8540000000000219,0.8540000000000219,"[""space""]",je,3,testWhenL2Uns//r1.s2.2.wav,4.0,when,unsyncopated,a,s2,rule,rule,L2,m,2.668,3.0,0.0,0.804,4.0,3.0,Inglés,5.0,Francés,13.0,Castellano ,0.0,Catalán,0.0,4.0,2.0,yes,no,no,Flauta,10,,, ,64.0,yes
93,2024-04-11_15h51.23.119,Experiment4_uns,s178,18.0,masculino,right,España,Castellano Catalán,Upper secondary,no,no,B,1,conjunction_syn,L3,syncopated,s1,r2,93,Online_conjL3_syn//c.gu.je4.none.none.wav,ñe,ga,do,sa,sil,ji,ka,fu,sil1,li,sil2,['-'],,,none,none,,,,je,3,testWhenL2Uns//r2.s2.1.wav,4.0,when,unsyncopated,b,s2,rule,rule,L2,z,1.608,4.0,1.0,0.537,4.0,3.0,Inglés,5.0,Francés,13.0,Castellano ,0.0,Catalán,0.0,4.0,2.0,yes,no,no,Flauta,10,,, ,64.0,yes
94,2024-04-11_15h51.23.119,Experiment4_uns,s178,18.0,masculino,right,España,Castellano Catalán,Upper secondary,no,no,B,1,conjunction_syn,L3,syncopated,s2,r2,94,Online_conjL3_syn//c.gu.je7.222.444.wav,ko,gu,je,ñe,sil,ji,fu,sa,sil1,ka,sil2,['miss'],,,0.444,no_beat,,,,je,3,testWhenL2Uns//cat_viol.r2.s2.0.wav,4.0,when,unsyncopated,b,s2,no_rule,cat,L2,m,0.302,2.0,0.0,0.3,4.0,3.0,Inglés,5.0,Francés,13.0,Castellano ,0.0,Catalán,0.0,4.0,2.0,yes,no,no,Flauta,10,,, ,64.0,yes
95,2024-04-11_15h51.23.119,Experiment4_uns,s178,18.0,masculino,right,España,Castellano Catalán,Upper secondary,no,no,B,1,conjunction_syn,L3,syncopated,s1,r2,95,Online_conjL3_syn//c.gu.je6.none.none.wav,ñe,di,ka,sa,sil,le,ko,do,sil1,ji,sil2,['-'],,,none,none,,,,je,3,testWhenL2Uns//r1.s2.0.wav,4.0,when,unsyncopated,a,s2,rule,rule,L2,z,0.483,7.0,1.0,0.387,4.0,3.0,Inglés,5.0,Francés,13.0,Castellano ,0.0,Catalán,0.0,4.0,2.0,yes,no,no,Flauta,10,,, ,64.0,yes
96,2024-04-11_15h51.23.119,Experiment4_uns,s178,18.0,masculino,right,España,Castellano Catalán,Upper secondary,no,no,B,1,conjunction_syn,L3,syncopated,s1,r1,96,Online_conjL3_syn//d.ji.li0.none.none.wav,chu,ga,ko,mo,sil,do,le,gu,sil1,di,sil2,['false alarm'],[2.2100000000000364],[2.2100000000000364],none,none,,,"[""space""]",li,4,,,,,,,,,,,,,,,4.0,3.0,Inglés,5.0,Francés,13.0,Castellano ,0.0,Catalán,0.0,4.0,2.0,yes,no,no,Flauta,10,,, ,64.0,yes
97,2024-04-11_15h51.23.119,Experiment4_uns,s178,18.0,masculino,right,España,Castellano Catalán,Upper secondary,no,no,B,1,conjunction_syn,L3,syncopated,s1,r1,97,Online_conjL3_syn//d.ji.li1.1554.444.wav,chu,gu,li,mo,sil,ga,je,ji,sil1,do,sil2,['catch'],[1.7050000000001546],[1.7050000000001546],0.444,no_beat,,1.2610000000001549,"[""space""]",li,4,,,,,,,,,,,,,,,4.0,3.0,Inglés,5.0,Francés,13.0,Castellano ,0.0,Catalán,0.0,4.0,2.0,yes,no,no,Flauta,10,,, ,64.0,yes
98,2024-04-11_15h51.23.119,Experiment4_uns,s178,18.0,masculino,right,España,Castellano Catalán,Upper secondary,no,no,B,1,conjunction_syn,L3,syncopated,s2,r2,98,Online_conjL3_syn//d.ji.li2.1332.0.wav,li,fu,di,ñe,sil,gu,ji,sa,sil1,ko,sil2,['catch'],[0.8840000000000146],[0.8840000000000146],0.0,beat,0.8840000000000146,0.8840000000000146,"[""space""]",li,4,,,,,,,,,,,,,,,4.0,3.0,Inglés,5.0,Francés,13.0,Castellano ,0.0,Catalán,0.0,4.0,2.0,yes,no,no,Flauta,10,,, ,64.0,yes
99,2024-04-11_15h51.23.119,Experiment4_uns,s178,18.0,masculino,right,España,Castellano Catalán,Upper secondary,no,no,B,1,conjunction_syn,L3,syncopated,s1,r2,99,Online_conjL3_syn//d.ji.li3.none.none.wav,ñe,ka,gu,sa,sil,ga,do,di,sil1,ko,sil2,['-'],,,none,none,,,,li,4,,,,,,,,,,,,,,,4.0,3.0,Inglés,5.0,Francés,13.0,Castellano ,0.0,Catalán,0.0,4.0,2.0,yes,no,no,Flauta,10,,, ,64.0,yes
100,2024-04-11_15h51.23.119,Experiment4_uns,s178,18.0,masculino,right,España,Castellano Catalán,Upper secondary,no,no,B,1,conjunction_syn,L3,syncopated,s1,r2,100,Online_conjL3_syn//b.ñe.sa16.0.666.wav,ñe,ka,le,sa,sil,do,ga,ji,sil1,fu,sil2,['catch'],[1.365000000000009],[1.365000000000009],0.666,no_beat,0.6990000000000091,0.6990000000000091,"[""space""]",sa,2,,,,,,,,,,,,,,,4.0,3.0,Inglés,5.0,Francés,13.0,Castellano ,0.0,Catalán,0.0,4.0,2.0,yes,no,no,Flauta,10,,, ,64.0,yes
101,2024-04-11_15h51.23.119,Experiment4_uns,s178,18.0,masculino,right,España,Castellano Catalán,Upper secondary,no,no,B,1,conjunction_syn,L3,syncopated,s2,r2,101,Online_conjL3_syn//b.ñe.sa19.666.1554.wav,do,fu,le,ñe,sil,li,je,sa,sil1,ji,sil2,['catch'],[2.4020000000000437],[2.4020000000000437],1.554,no_beat,0.8480000000000436,0.8480000000000436,"[""space""]",sa,2,,,,,,,,,,,,,,,4.0,3.0,Inglés,5.0,Francés,13.0,Castellano ,0.0,Catalán,0.0,4.0,2.0,yes,no,no,Flauta,10,,, ,64.0,yes
102,2024-04-11_15h51.23.119,Experiment4_uns,s178,18.0,masculino,right,España,Castellano Catalán,Upper secondary,no,no,B,1,conjunction_syn,L3,syncopated,s1,r1,102,Online_conjL3_syn//b.ñe.sa18.none.none.wav,chu,li,ga,mo,sil,di,do,je,sil1,le,sil2,['-'],,,none,none,,,,sa,2,,,,,,,,,,,,,,,4.0,3.0,Inglés,5.0,Francés,13.0,Castellano ,0.0,Catalán,0.0,4.0,2.0,yes,no,no,Flauta,10,,, ,64.0,yes
103,2024-04-11_15h51.23.119,Experiment4_uns,s178,18.0,masculino,right,España,Castellano Catalán,Upper secondary,no,no,B,1,conjunction_syn,L3,syncopated,s2,r1,103,Online_conjL3_syn//b.ñe.sa17.none.none.wav,di,ka,le,chu,sil,ji,ga,mo,sil1,ko,sil2,['-'],,,none,none,,,,sa,2,,,,,,,,,,,,,,,4.0,3.0,Inglés,5.0,Francés,13.0,Castellano ,0.0,Catalán,0.0,4.0,2.0,yes,no,no,Flauta,10,,, ,64.0,yes
104,2024-04-11_15h51.23.119,Experiment4_uns,s178,18.0,masculino,right,España,Castellano Catalán,Upper secondary,no,no,B,1,conjunction_syn,L3,syncopated,s2,r1,104,Online_conjL3_syn//c.gu.je18.1110.0.wav,je,di,ka,chu,sil,gu,ko,mo,sil1,li,sil2,['catch'],[0.8250000000000455],[0.8250000000000455],0.0,beat,0.8250000000000455,0.8250000000000455,"[""space""]",je,3,,,,,,,,,,,,,,,4.0,3.0,Inglés,5.0,Francés,13.0,Castellano ,0.0,Catalán,0.0,4.0,2.0,yes,no,no,Flauta,10,,, ,64.0,yes
105,2024-04-11_15h51.23.119,Experiment4_uns,s178,18.0,masculino,right,España,Castellano Catalán,Upper secondary,no,no,B,1,conjunction_syn,L3,syncopated,s2,r2,105,Online_conjL3_syn//c.gu.je19.none.none.wav,fu,le,li,ñe,sil,ji,ka,sa,sil1,di,sil2,['-'],,,none,none,,,,je,3,,,,,,,,,,,,,,,4.0,3.0,Inglés,5.0,Francés,13.0,Castellano ,0.0,Catalán,0.0,4.0,2.0,yes,no,no,Flauta,10,,, ,64.0,yes
106,2024-04-11_15h51.23.119,Experiment4_uns,s178,18.0,masculino,right,España,Castellano Catalán,Upper secondary,no,no,B,1,conjunction_syn,L3,syncopated,s2,r2,106,Online_conjL3_syn//c.gu.je17.222.1110.wav,fu,gu,le,ñe,sil,je,ka,sa,sil1,ko,sil2,['catch'],[2.158000000000129],[2.158000000000129],1.11,no_beat,1.048000000000129,1.048000000000129,"[""space""]",je,3,,,,,,,,,,,,,,,4.0,3.0,Inglés,5.0,Francés,13.0,Castellano ,0.0,Catalán,0.0,4.0,2.0,yes,no,no,Flauta,10,,, ,64.0,yes
107,2024-04-11_15h51.23.119,Experiment4_uns,s178,18.0,masculino,right,España,Castellano Catalán,Upper secondary,no,no,B,1,conjunction_syn,L3,syncopated,s2,r1,107,Online_conjL3_syn//c.gu.je16.1332.444.wav,fu,ga,je,chu,sil,do,gu,mo,sil1,ji,sil2,['miss'],,,0.444,no_beat,,,,je,3,,,,,,,,,,,,,,,4.0,3.0,Inglés,5.0,Francés,13.0,Castellano ,0.0,Catalán,0.0,4.0,2.0,yes,no,no,Flauta,10,,, ,64.0,yes
108,2024-04-11_15h51.23.119,Experiment4_uns,s178,18.0,masculino,right,España,Castellano Catalán,Upper secondary,no,no,B,1,conjunction_syn,L3,syncopated,s1,r1,108,Online_conjL3_syn//d.ji.li18.1554.444.wav,chu,ga,li,mo,sil,je,do,ji,sil1,fu,sil2,['catch'],[2.094000000000051],[2.094000000000051],0.444,no_beat,,1.650000000000051,"[""space""]",li,4,,,,,,,,,,,,,,,4.0,3.0,Inglés,5.0,Francés,13.0,Castellano ,0.0,Catalán,0.0,4.0,2.0,yes,no,no,Flauta,10,,, ,64.0,yes
109,2024-04-11_15h51.23.119,Experiment4_uns,s178,18.0,masculino,right,España,Castellano Catalán,Upper secondary,no,no,B,1,conjunction_syn,L3,syncopated,s2,r2,109,Online_conjL3_syn//d.ji.li19.none.none.wav,je,le,ko,ñe,sil,ga,do,sa,sil1,gu,sil2,['-'],,,none,none,,,,li,4,,,,,,,,,,,,,,,4.0,3.0,Inglés,5.0,Francés,13.0,Castellano ,0.0,Catalán,0.0,4.0,2.0,yes,no,no,Flauta,10,,, ,64.0,yes
110,2024-04-11_15h51.23.119,Experiment4_uns,s178,18.0,masculino,right,España,Castellano Catalán,Upper secondary,no,no,B,1,conjunction_syn,L3,syncopated,s1,r2,110,Online_conjL3_syn//d.ji.li16.none.none.wav,ñe,gu,le,sa,sil,do,ga,ko,sil1,fu,sil2,['-'],,,none,none,,,,li,4,,,,,,,,,,,,,,,4.0,3.0,Inglés,5.0,Francés,13.0,Castellano ,0.0,Catalán,0.0,4.0,2.0,yes,no,no,Flauta,10,,, ,64.0,yes
111,2024-04-11_15h51.23.119,Experiment4_uns,s178,18.0,masculino,right,España,Castellano Catalán,Upper secondary,no,no,B,1,conjunction_syn,L3,syncopated,s2,r2,111,Online_conjL3_syn//d.ji.li17.1332.222.wav,fu,li,do,ñe,sil,di,ji,sa,sil1,je,sil2,['catch'],[1.3700000000001182],[1.3700000000001182],0.222,no_beat,1.1480000000001185,1.1480000000001185,"[""space""]",li,4,,,,,,,,,,,,,,,4.0,3.0,Inglés,5.0,Francés,13.0,Castellano ,0.0,Catalán,0.0,4.0,2.0,yes,no,no,Flauta,10,,, ,64.0,yes
112,2024-04-11_15h51.23.119,Experiment4_uns,s178,18.0,masculino,right,España,Castellano Catalán,Upper secondary,no,no,B,1,conjunction_syn,L3,syncopated,s1,r2,112,Online_conjL3_syn//a.chu.mo17.none.none.wav,ñe,do,ga,sa,sil,fu,je,ji,sil1,ko,sil2,['-'],,,none,none,,,,chu,1,,,,,,,,,,,,,,,4.0,3.0,Inglés,5.0,Francés,13.0,Castellano ,0.0,Catalán,0.0,4.0,2.0,yes,no,no,Flauta,10,,, ,64.0,yes
113,2024-04-11_15h51.23.119,Experiment4_uns,s178,18.0,masculino,right,España,Castellano Catalán,Upper secondary,no,no,B,1,conjunction_syn,L3,syncopated,s1,r2,113,Online_conjL3_syn//a.chu.mo18.none.none.wav,ñe,ka,gu,sa,sil,ko,fu,je,sil1,ga,sil2,['-'],,,none,none,,,,chu,1,,,,,,,,,,,,,,,4.0,3.0,Inglés,5.0,Francés,13.0,Castellano ,0.0,Catalán,0.0,4.0,2.0,yes,no,no,Flauta,10,,, ,64.0,yes
114,2024-04-11_15h51.23.119,Experiment4_uns,s178,18.0,masculino,right,España,Castellano Catalán,Upper secondary,no,no,B,1,conjunction_syn,L3,syncopated,s1,r2,114,Online_conjL3_syn//a.chu.mo19.none.none.wav,ñe,di,je,sa,sil,ga,do,fu,sil1,ji,sil2,['-'],,,none,none,,,,chu,1,,,,,,,,,,,,,,,4.0,3.0,Inglés,5.0,Francés,13.0,Castellano ,0.0,Catalán,0.0,4.0,2.0,yes,no,no,Flauta,10,,, ,64.0,yes
115,2024-04-11_15h51.23.119,Experiment4_uns,s178,18.0,masculino,right,España,Castellano Catalán,Upper secondary,no,no,B,1,conjunction_syn,L3,syncopated,s2,r1,115,Online_conjL3_syn//a.chu.mo16.666.1554.wav,li,je,fu,chu,sil,do,le,mo,sil1,ka,sil2,['catch'],[1.4610000000000127],[1.4610000000000127],0.666,no_beat,0.7950000000000127,0.7950000000000127,"[""space""]",chu,1,,,,,,,,,,,,,,,4.0,3.0,Inglés,5.0,Francés,13.0,Castellano ,0.0,Catalán,0.0,4.0,2.0,yes,no,no,Flauta,10,,, ,64.0,yes
116,2024-04-11_15h51.23.119,Experiment4_uns,s178,18.0,masculino,right,España,Castellano Catalán,Upper secondary,no,no,B,1,conjunction_syn,L3,syncopated,s1,r2,116,Online_conjL3_syn//a.chu.mo12.none.none.wav,ñe,je,do,sa,sil,ka,le,ji,sil1,ga,sil2,['-'],,,none,none,,,,chu,1,,,,,,,,,,,,,,,4.0,3.0,Inglés,5.0,Francés,13.0,Castellano ,0.0,Catalán,0.0,4.0,2.0,yes,no,no,Flauta,10,,, ,64.0,yes
117,2024-04-11_15h51.23.119,Experiment4_uns,s178,18.0,masculino,right,España,Castellano Catalán,Upper secondary,no,no,B,1,conjunction_syn,L3,syncopated,s1,r1,117,Online_conjL3_syn//a.chu.mo13.0.666.wav,chu,ji,fu,mo,sil,je,li,do,sil1,ka,sil2,['catch'],[0.8849999999999909],[0.8849999999999909],0.0,beat,0.8849999999999909,0.8849999999999909,"[""space""]",chu,1,,,,,,,,,,,,,,,4.0,3.0,Inglés,5.0,Francés,13.0,Castellano ,0.0,Catalán,0.0,4.0,2.0,yes,no,no,Flauta,10,,, ,64.0,yes
118,2024-04-11_15h51.23.119,Experiment4_uns,s178,18.0,masculino,right,España,Castellano Catalán,Upper secondary,no,no,B,1,conjunction_syn,L3,syncopated,s1,r1,118,Online_conjL3_syn//a.chu.mo15.0.666.wav,chu,le,gu,mo,sil,do,li,ka,sil1,ji,sil2,['catch'],[0.9320000000000164],[0.9320000000000164],0.0,beat,0.9320000000000164,0.9320000000000164,"[""space""]",chu,1,,,,,,,,,,,,,,,4.0,3.0,Inglés,5.0,Francés,13.0,Castellano ,0.0,Catalán,0.0,4.0,2.0,yes,no,no,Flauta,10,,, ,64.0,yes
119,2024-04-11_15h51.23.119,Experiment4_uns,s178,18.0,masculino,right,España,Castellano Catalán,Upper secondary,no,no,B,1,conjunction_syn,L3,syncopated,s1,r1,119,Online_conjL3_syn//a.chu.mo14.0.666.wav,chu,ka,li,mo,sil,ga,je,ji,sil1,do,sil2,['catch'],[0.9580000000000837],[0.9580000000000837],0.0,beat,0.9580000000000836,0.9580000000000836,"[""space""]",chu,1,,,,,,,,,,,,,,,4.0,3.0,Inglés,5.0,Francés,13.0,Castellano ,0.0,Catalán,0.0,4.0,2.0,yes,no,no,Flauta,10,,, ,64.0,yes
120,2024-04-11_15h51.23.119,Experiment4_uns,s178,18.0,masculino,right,España,Castellano Catalán,Upper secondary,no,no,B,1,conjunction_syn,L3,syncopated,s2,r1,120,Online_conjL3_syn//c.gu.je28.none.none.wav,ga,li,ka,chu,sil,di,ji,mo,sil1,do,sil2,['false alarm'],[1.4940000000001419],[1.4940000000001419],none,none,,,"[""space""]",je,3,,,,,,,,,,,,,,,4.0,3.0,Inglés,5.0,Francés,13.0,Castellano ,0.0,Catalán,0.0,4.0,2.0,yes,no,no,Flauta,10,,, ,64.0,yes
121,2024-04-11_15h51.23.119,Experiment4_uns,s178,18.0,masculino,right,España,Castellano Catalán,Upper secondary,no,no,B,1,conjunction_syn,L3,syncopated,s2,r1,121,Online_conjL3_syn//c.gu.je31.none.none.wav,do,li,ga,chu,sil,ka,ko,mo,sil1,fu,sil2,['-'],,,none,none,,,,je,3,,,,,,,,,,,,,,,4.0,3.0,Inglés,5.0,Francés,13.0,Castellano ,0.0,Catalán,0.0,4.0,2.0,yes,no,no,Flauta,10,,, ,64.0,yes
122,2024-04-11_15h51.23.119,Experiment4_uns,s178,18.0,masculino,right,España,Castellano Catalán,Upper secondary,no,no,B,1,conjunction_syn,L3,syncopated,s2,r1,122,Online_conjL3_syn//c.gu.je30.none.none.wav,fu,di,ga,chu,sil,ko,li,mo,sil1,ka,sil2,['-'],,,none,none,,,,je,3,,,,,,,,,,,,,,,4.0,3.0,Inglés,5.0,Francés,13.0,Castellano ,0.0,Catalán,0.0,4.0,2.0,yes,no,no,Flauta,10,,, ,64.0,yes
123,2024-04-11_15h51.23.119,Experiment4_uns,s178,18.0,masculino,right,España,Castellano Catalán,Upper secondary,no,no,B,1,conjunction_syn,L3,syncopated,s2,r1,123,Online_conjL3_syn//c.gu.je29.444.1110.wav,ji,li,gu,chu,sil,je,ko,mo,sil1,do,sil2,['catch'],[2.1920000000000073],[2.1920000000000073],1.11,no_beat,1.0820000000000072,1.0820000000000072,"[""space""]",je,3,,,,,,,,,,,,,,,4.0,3.0,Inglés,5.0,Francés,13.0,Castellano ,0.0,Catalán,0.0,4.0,2.0,yes,no,no,Flauta,10,,, ,64.0,yes
124,2024-04-11_15h51.23.119,Experiment4_uns,s178,18.0,masculino,right,España,Castellano Catalán,Upper secondary,no,no,B,1,conjunction_syn,L3,syncopated,s2,r1,124,Online_conjL3_syn//a.chu.mo24.666.1554.wav,fu,je,gu,chu,sil,ga,ka,mo,sil1,le,sil2,['catch'],[1.4639999999999418],[1.4639999999999418],0.666,no_beat,0.7979999999999418,0.7979999999999418,"[""space""]",chu,1,,,,,,,,,,,,,,,4.0,3.0,Inglés,5.0,Francés,13.0,Castellano ,0.0,Catalán,0.0,4.0,2.0,yes,no,no,Flauta,10,,, ,64.0,yes
125,2024-04-11_15h51.23.119,Experiment4_uns,s178,18.0,masculino,right,España,Castellano Catalán,Upper secondary,no,no,B,1,conjunction_syn,L3,syncopated,s2,r2,125,Online_conjL3_syn//a.chu.mo26.none.none.wav,do,ga,fu,ñe,sil,ko,di,sa,sil1,le,sil2,['-'],,,none,none,,,,chu,1,,,,,,,,,,,,,,,4.0,3.0,Inglés,5.0,Francés,13.0,Castellano ,0.0,Catalán,0.0,4.0,2.0,yes,no,no,Flauta,10,,, ,64.0,yes
126,2024-04-11_15h51.23.119,Experiment4_uns,s178,18.0,masculino,right,España,Castellano Catalán,Upper secondary,no,no,B,1,conjunction_syn,L3,syncopated,s1,r1,126,Online_conjL3_syn//a.chu.mo25.0.666.wav,chu,gu,ko,mo,sil,do,ga,fu,sil1,li,sil2,['catch'],[0.8260000000000218],[0.8260000000000218],0.0,beat,0.8260000000000218,0.8260000000000218,"[""space""]",chu,1,,,,,,,,,,,,,,,4.0,3.0,Inglés,5.0,Francés,13.0,Castellano ,0.0,Catalán,0.0,4.0,2.0,yes,no,no,Flauta,10,,, ,64.0,yes
127,2024-04-11_15h51.23.119,Experiment4_uns,s178,18.0,masculino,right,España,Castellano Catalán,Upper secondary,no,no,B,1,conjunction_syn,L3,syncopated,s2,r2,127,Online_conjL3_syn//a.chu.mo27.none.none.wav,ji,li,ko,ñe,sil,di,fu,sa,sil1,le,sil2,['-'],,,none,none,,,,chu,1,,,,,,,,,,,,,,,4.0,3.0,Inglés,5.0,Francés,13.0,Castellano ,0.0,Catalán,0.0,4.0,2.0,yes,no,no,Flauta,10,,, ,64.0,yes
128,2024-04-11_15h51.23.119,Experiment4_uns,s178,18.0,masculino,right,España,Castellano Catalán,Upper secondary,no,no,B,2,conjunction_un,L4,unsyncopated,s2,r1,0,Online_conjL4_un//b.ja.nu4.none.none.wav,ru,pe,bo,sil,zi,ña,ci,sil1,lo,da,sil2,['-'],,,none,none,,,,nu,2,,,,,,,,,,,,,,,4.0,3.0,Inglés,5.0,Francés,13.0,Castellano ,0.0,Catalán,0.0,4.0,2.0,yes,no,no,Flauta,10,,, ,64.0,yes
129,2024-04-11_15h51.23.119,Experiment4_uns,s178,18.0,masculino,right,España,Castellano Catalán,Upper secondary,no,no,B,2,conjunction_un,L4,unsyncopated,s1,r1,1,Online_conjL4_un//b.ja.nu5.none.none.wav,zi,ci,ñi,sil,lo,bo,da,sil1,po,ña,sil2,['-'],,,none,none,,,,nu,2,,,,,,,,,,,,,,,4.0,3.0,Inglés,5.0,Francés,13.0,Castellano ,0.0,Catalán,0.0,4.0,2.0,yes,no,no,Flauta,10,,, ,64.0,yes
130,2024-04-11_15h51.23.119,Experiment4_uns,s178,18.0,masculino,right,España,Castellano Catalán,Upper secondary,no,no,B,2,conjunction_un,L4,unsyncopated,s1,r1,2,Online_conjL4_un//b.ja.nu6.none.none.wav,zi,de,bo,sil,lo,ñi,da,sil1,ña,bu,sil2,['-'],,,none,none,,,,nu,2,,,,,,,,,,,,,,,4.0,3.0,Inglés,5.0,Francés,13.0,Castellano ,0.0,Catalán,0.0,4.0,2.0,yes,no,no,Flauta,10,,, ,64.0,yes
131,2024-04-11_15h51.23.119,Experiment4_uns,s178,18.0,masculino,right,España,Castellano Catalán,Upper secondary,no,no,B,2,conjunction_un,L4,unsyncopated,s2,r2,3,Online_conjL4_un//b.ja.nu7.888.1776.wav,pe,bu,bo,sil,ja,de,da,sil1,nu,ña,sil2,['catch'],[2.606999999999971],[2.606999999999971],1.776,beat,0.8309999999999709,0.8309999999999709,"[""space""]",nu,2,,,,,,,,,,,,,,,4.0,3.0,Inglés,5.0,Francés,13.0,Castellano ,0.0,Catalán,0.0,4.0,2.0,yes,no,no,Flauta,10,,, ,64.0,yes
132,2024-04-11_15h51.23.119,Experiment4_uns,s178,18.0,masculino,right,España,Castellano Catalán,Upper secondary,no,no,B,2,conjunction_un,L4,unsyncopated,s1,r1,4,Online_conjL4_un//c.bu.da1.none.none.wav,zi,bo,po,sil,lo,re,ci,sil1,ñi,pe,sil2,['-'],,,none,none,,,,da,3,,,,,,,,,,,,,,,4.0,3.0,Inglés,5.0,Francés,13.0,Castellano ,0.0,Catalán,0.0,4.0,2.0,yes,no,no,Flauta,10,,, ,64.0,yes
133,2024-04-11_15h51.23.119,Experiment4_uns,s178,18.0,masculino,right,España,Castellano Catalán,Upper secondary,no,no,B,2,conjunction_un,L4,unsyncopated,s2,r2,5,Online_conjL4_un//c.bu.da3.444.1110.wav,po,pe,bu,sil,ja,da,ci,sil1,nu,de,sil2,['miss'],,,1.11,no_beat,,,,da,3,,,,,,,,,,,,,,,4.0,3.0,Inglés,5.0,Francés,13.0,Castellano ,0.0,Catalán,0.0,4.0,2.0,yes,no,no,Flauta,10,,, ,64.0,yes
134,2024-04-11_15h51.23.119,Experiment4_uns,s178,18.0,masculino,right,España,Castellano Catalán,Upper secondary,no,no,B,2,conjunction_un,L4,unsyncopated,s1,r1,6,Online_conjL4_un//c.bu.da2.none.none.wav,zi,pe,ci,sil,lo,de,ña,sil1,ñi,re,sil2,['-'],,,none,none,,,,da,3,,,,,,,,,,,,,,,4.0,3.0,Inglés,5.0,Francés,13.0,Castellano ,0.0,Catalán,0.0,4.0,2.0,yes,no,no,Flauta,10,,, ,64.0,yes
135,2024-04-11_15h51.23.119,Experiment4_uns,s178,18.0,masculino,right,España,Castellano Catalán,Upper secondary,no,no,B,2,conjunction_un,L4,unsyncopated,s1,r1,7,Online_conjL4_un//c.bu.da0.none.none.wav,zi,ña,ru,sil,lo,re,ñi,sil1,bo,ci,sil2,['-'],,,none,none,,,,da,3,,,,,,,,,,,,,,,4.0,3.0,Inglés,5.0,Francés,13.0,Castellano ,0.0,Catalán,0.0,4.0,2.0,yes,no,no,Flauta,10,,, ,64.0,yes
136,2024-04-11_15h51.23.119,Experiment4_uns,s178,18.0,masculino,right,España,Castellano Catalán,Upper secondary,no,no,B,2,conjunction_un,L4,unsyncopated,s1,r1,8,Online_conjL4_un//c.bu.da4.1776.1110.wav,zi,re,bo,sil,lo,da,ru,sil1,bu,de,sil2,['catch'],[1.9480000000003201],[1.9480000000003201],1.11,no_beat,0.83800000000032,0.83800000000032,"[""space""]",da,3,,,,,,,,,,,,,,,4.0,3.0,Inglés,5.0,Francés,13.0,Castellano ,0.0,Catalán,0.0,4.0,2.0,yes,no,no,Flauta,10,,, ,64.0,yes
137,2024-04-11_15h51.23.119,Experiment4_uns,s178,18.0,masculino,right,España,Castellano Catalán,Upper secondary,no,no,B,2,conjunction_un,L4,unsyncopated,s2,r1,9,Online_conjL4_un//c.bu.da5.222.444.wav,po,bu,da,sil,zi,de,ci,sil1,lo,re,sil2,['catch'],[1.4169999999999163],[1.4169999999999163],0.444,no_beat,0.9729999999999164,0.9729999999999164,"[""space""]",da,3,,,,,,,,,,,,,,,4.0,3.0,Inglés,5.0,Francés,13.0,Castellano ,0.0,Catalán,0.0,4.0,2.0,yes,no,no,Flauta,10,,, ,64.0,yes
138,2024-04-11_15h51.23.119,Experiment4_uns,s178,18.0,masculino,right,España,Castellano Catalán,Upper secondary,no,no,B,2,conjunction_un,L4,unsyncopated,s1,r2,10,Online_conjL4_un//c.bu.da6.1776.444.wav,ja,ru,da,sil,nu,ñi,ña,sil1,bu,re,sil2,['catch'],[1.2599999999997635],[1.2599999999997635],0.444,no_beat,0.8159999999997636,0.8159999999997636,"[""space""]",da,3,,,,,,,,,,,,,,,4.0,3.0,Inglés,5.0,Francés,13.0,Castellano ,0.0,Catalán,0.0,4.0,2.0,yes,no,no,Flauta,10,,, ,64.0,yes
139,2024-04-11_15h51.23.119,Experiment4_uns,s178,18.0,masculino,right,España,Castellano Catalán,Upper secondary,no,no,B,2,conjunction_un,L4,unsyncopated,s1,r1,11,Online_conjL4_un//c.bu.da7.none.none.wav,zi,re,po,sil,lo,bo,ci,sil1,ña,de,sil2,['-'],,,none,none,,,,da,3,,,,,,,,,,,,,,,4.0,3.0,Inglés,5.0,Francés,13.0,Castellano ,0.0,Catalán,0.0,4.0,2.0,yes,no,no,Flauta,10,,, ,64.0,yes
140,2024-04-11_15h51.23.119,Experiment4_uns,s178,18.0,masculino,right,España,Castellano Catalán,Upper secondary,no,no,B,2,conjunction_un,L4,unsyncopated,s1,r2,12,Online_conjL4_un//c.bu.da9.none.none.wav,ja,re,ñi,sil,nu,ña,de,sil1,bo,po,sil2,['-'],,,none,none,,,,da,3,,,,,,,,,,,,,,,4.0,3.0,Inglés,5.0,Francés,13.0,Castellano ,0.0,Catalán,0.0,4.0,2.0,yes,no,no,Flauta,10,,, ,64.0,yes
141,2024-04-11_15h51.23.119,Experiment4_uns,s178,18.0,masculino,right,España,Castellano Catalán,Upper secondary,no,no,B,2,conjunction_un,L4,unsyncopated,s2,r2,13,Online_conjL4_un//c.bu.da8.1332.444.wav,ña,ñi,da,sil,ja,ru,bu,sil1,nu,ci,sil2,['miss'],,,0.444,no_beat,,,,da,3,,,,,,,,,,,,,,,4.0,3.0,Inglés,5.0,Francés,13.0,Castellano ,0.0,Catalán,0.0,4.0,2.0,yes,no,no,Flauta,10,,, ,64.0,yes
142,2024-04-11_15h51.23.119,Experiment4_uns,s178,18.0,masculino,right,España,Castellano Catalán,Upper secondary,no,no,B,2,conjunction_un,L4,unsyncopated,s1,r2,14,Online_conjL4_un//c.bu.da11.none.none.wav,ja,bo,ñi,sil,nu,pe,re,sil1,ci,ña,sil2,['-'],,,none,none,,,,da,3,,,,,,,,,,,,,,,4.0,3.0,Inglés,5.0,Francés,13.0,Castellano ,0.0,Catalán,0.0,4.0,2.0,yes,no,no,Flauta,10,,, ,64.0,yes
143,2024-04-11_15h51.23.119,Experiment4_uns,s178,18.0,masculino,right,España,Castellano Catalán,Upper secondary,no,no,B,2,conjunction_un,L4,unsyncopated,s2,r2,15,Online_conjL4_un//c.bu.da10.0.1110.wav,bu,po,ña,sil,ja,da,ru,sil1,nu,ñi,sil2,['miss'],,,1.11,no_beat,,,,da,3,,,,,,,,,,,,,,,4.0,3.0,Inglés,5.0,Francés,13.0,Castellano ,0.0,Catalán,0.0,4.0,2.0,yes,no,no,Flauta,10,,, ,64.0,yes
144,2024-04-11_15h51.23.119,Experiment4_uns,s178,18.0,masculino,right,España,Castellano Catalán,Upper secondary,no,no,B,2,conjunction_un,L4,unsyncopated,s1,r2,16,Online_conjL4_un//a.zi.lo27.none.none.wav,ja,ña,bu,sil,nu,ñi,re,sil1,pe,po,sil2,['-'],,,none,none,,,,zi,1,,,,,,,,,,,,,,,4.0,3.0,Inglés,5.0,Francés,13.0,Castellano ,0.0,Catalán,0.0,4.0,2.0,yes,no,no,Flauta,10,,, ,64.0,yes
145,2024-04-11_15h51.23.119,Experiment4_uns,s178,18.0,masculino,right,España,Castellano Catalán,Upper secondary,no,no,B,2,conjunction_un,L4,unsyncopated,s2,r1,17,Online_conjL4_un//a.zi.lo25.888.1776.wav,bu,ña,de,sil,zi,ci,pe,sil1,lo,po,sil2,['catch'],[1.6859999999996944],[1.6859999999996944],0.888,beat,0.7979999999996944,0.7979999999996944,"[""space""]",zi,1,,,,,,,,,,,,,,,4.0,3.0,Inglés,5.0,Francés,13.0,Castellano ,0.0,Catalán,0.0,4.0,2.0,yes,no,no,Flauta,10,,, ,64.0,yes
146,2024-04-11_15h51.23.119,Experiment4_uns,s178,18.0,masculino,right,España,Castellano Catalán,Upper secondary,no,no,B,2,conjunction_un,L4,unsyncopated,s2,r1,18,Online_conjL4_un//a.zi.lo24.888.1776.wav,re,bo,po,sil,zi,da,ñi,sil1,lo,pe,sil2,['catch'],[2.368999999999687],[2.368999999999687],0.888,beat,,1.4809999999996872,"[""space""]",zi,1,,,,,,,,,,,,,,,4.0,3.0,Inglés,5.0,Francés,13.0,Castellano ,0.0,Catalán,0.0,4.0,2.0,yes,no,no,Flauta,10,,, ,64.0,yes
147,2024-04-11_15h51.23.119,Experiment4_uns,s178,18.0,masculino,right,España,Castellano Catalán,Upper secondary,no,no,B,2,conjunction_un,L4,unsyncopated,s2,r1,19,Online_conjL4_un//a.zi.lo26.888.1776.wav,pe,bu,de,sil,zi,da,ñi,sil1,lo,bo,sil2,['catch'],[1.6869999999998981],[1.6869999999998981],0.888,beat,0.7989999999998981,0.7989999999998981,"[""space""]",zi,1,,,,,,,,,,,,,,,4.0,3.0,Inglés,5.0,Francés,13.0,Castellano ,0.0,Catalán,0.0,4.0,2.0,yes,no,no,Flauta,10,,, ,64.0,yes
148,2024-04-11_15h51.23.119,Experiment4_uns,s178,18.0,masculino,right,España,Castellano Catalán,Upper secondary,no,no,B,2,conjunction_un,L4,unsyncopated,s2,r1,20,Online_conjL4_un//d.pe.po21.1110.0.wav,po,da,ña,sil,zi,pe,ci,sil1,lo,bu,sil2,['catch'],[0.7329999999997199],[0.7329999999997199],0.0,beat,0.7329999999997199,0.7329999999997199,"[""space""]",po,4,,,,,,,,,,,,,,,4.0,3.0,Inglés,5.0,Francés,13.0,Castellano ,0.0,Catalán,0.0,4.0,2.0,yes,no,no,Flauta,10,,, ,64.0,yes
149,2024-04-11_15h51.23.119,Experiment4_uns,s178,18.0,masculino,right,España,Castellano Catalán,Upper secondary,no,no,B,2,conjunction_un,L4,unsyncopated,s2,r1,21,Online_conjL4_un//d.pe.po22.none.none.wav,ñi,bu,de,sil,zi,bo,ña,sil1,lo,ci,sil2,['-'],,,none,none,,,,po,4,,,,,,,,,,,,,,,4.0,3.0,Inglés,5.0,Francés,13.0,Castellano ,0.0,Catalán,0.0,4.0,2.0,yes,no,no,Flauta,10,,, ,64.0,yes
150,2024-04-11_15h51.23.119,Experiment4_uns,s178,18.0,masculino,right,España,Castellano Catalán,Upper secondary,no,no,B,2,conjunction_un,L4,unsyncopated,s2,r2,22,Online_conjL4_un//d.pe.po20.444.0.wav,po,bu,pe,sil,ja,ñi,ru,sil1,nu,bo,sil2,"['catch', 'false alarm']","[0.6720000000000255, 0.9710000000000036]",[0.6720000000000255],0.0,beat,0.6720000000000255,0.6720000000000255,"[""space"",""space""]",po,4,,,,,,,,,,,,,,,4.0,3.0,Inglés,5.0,Francés,13.0,Castellano ,0.0,Catalán,0.0,4.0,2.0,yes,no,no,Flauta,10,,, ,64.0,yes
151,2024-04-11_15h51.23.119,Experiment4_uns,s178,18.0,masculino,right,España,Castellano Catalán,Upper secondary,no,no,B,2,conjunction_un,L4,unsyncopated,s2,r2,23,Online_conjL4_un//d.pe.po23.none.none.wav,ru,ñi,re,sil,ja,de,bu,sil1,nu,ci,sil2,['-'],,,none,none,,,,po,4,,,,,,,,,,,,,,,4.0,3.0,Inglés,5.0,Francés,13.0,Castellano ,0.0,Catalán,0.0,4.0,2.0,yes,no,no,Flauta,10,,, ,64.0,yes
152,2024-04-11_15h51.23.119,Experiment4_uns,s178,18.0,masculino,right,España,Castellano Catalán,Upper secondary,no,no,B,2,conjunction_un,L4,unsyncopated,s1,r1,24,Online_conjL4_un//d.pe.po19.none.none.wav,zi,da,ña,sil,lo,bo,bu,sil1,ñi,re,sil2,['-'],,,none,none,,,,po,4,,,,,,,,,,,,,,,4.0,3.0,Inglés,5.0,Francés,13.0,Castellano ,0.0,Catalán,0.0,4.0,2.0,yes,no,no,Flauta,10,,, ,64.0,yes
153,2024-04-11_15h51.23.119,Experiment4_uns,s178,18.0,masculino,right,España,Castellano Catalán,Upper secondary,no,no,B,2,conjunction_un,L4,unsyncopated,s1,r2,25,Online_conjL4_un//d.pe.po16.1776.444.wav,ja,re,po,sil,nu,da,bu,sil1,pe,bo,sil2,['catch'],[1.5830000000000837],[1.5830000000000837],0.444,no_beat,1.1390000000000835,1.1390000000000835,"[""space""]",po,4,,,,,,,,,,,,,,,4.0,3.0,Inglés,5.0,Francés,13.0,Castellano ,0.0,Catalán,0.0,4.0,2.0,yes,no,no,Flauta,10,,, ,64.0,yes
154,2024-04-11_15h51.23.119,Experiment4_uns,s178,18.0,masculino,right,España,Castellano Catalán,Upper secondary,no,no,B,2,conjunction_un,L4,unsyncopated,s1,r2,26,Online_conjL4_un//d.pe.po18.none.none.wav,ja,ña,ñi,sil,nu,de,ru,sil1,da,bo,sil2,['-'],,,none,none,,,,po,4,,,,,,,,,,,,,,,4.0,3.0,Inglés,5.0,Francés,13.0,Castellano ,0.0,Catalán,0.0,4.0,2.0,yes,no,no,Flauta,10,,, ,64.0,yes
155,2024-04-11_15h51.23.119,Experiment4_uns,s178,18.0,masculino,right,España,Castellano Catalán,Upper secondary,no,no,B,2,conjunction_un,L4,unsyncopated,s2,r2,27,Online_conjL4_un//d.pe.po17.222.444.wav,re,pe,po,sil,ja,ci,ña,sil1,nu,bo,sil2,['catch'],[1.2100000000000364],[1.2100000000000364],0.444,no_beat,0.7660000000000364,0.7660000000000364,"[""space""]",po,4,,,,,,,,,,,,,,,4.0,3.0,Inglés,5.0,Francés,13.0,Castellano ,0.0,Catalán,0.0,4.0,2.0,yes,no,no,Flauta,10,,, ,64.0,yes
156,2024-04-11_15h51.23.119,Experiment4_uns,s178,18.0,masculino,right,España,Castellano Catalán,Upper secondary,no,no,B,2,conjunction_un,L4,unsyncopated,s2,r1,28,Online_conjL4_un//d.pe.po11.1110.222.wav,bo,po,da,sil,zi,pe,de,sil1,lo,ñi,sil2,['miss'],,,0.222,no_beat,,,,po,4,,,,,,,,,,,,,,,4.0,3.0,Inglés,5.0,Francés,13.0,Castellano ,0.0,Catalán,0.0,4.0,2.0,yes,no,no,Flauta,10,,, ,64.0,yes
157,2024-04-11_15h51.23.119,Experiment4_uns,s178,18.0,masculino,right,España,Castellano Catalán,Upper secondary,no,no,B,2,conjunction_un,L4,unsyncopated,s2,r1,29,Online_conjL4_un//d.pe.po8.none.none.wav,ña,re,ci,sil,zi,ru,ñi,sil1,lo,de,sil2,['-'],,,none,none,,,,po,4,,,,,,,,,,,,,,,4.0,3.0,Inglés,5.0,Francés,13.0,Castellano ,0.0,Catalán,0.0,4.0,2.0,yes,no,no,Flauta,10,,, ,64.0,yes
158,2024-04-11_15h51.23.119,Experiment4_uns,s178,18.0,masculino,right,España,Castellano Catalán,Upper secondary,no,no,B,2,conjunction_un,L4,unsyncopated,s2,r2,30,Online_conjL4_un//d.pe.po10.1332.444.wav,re,ñi,po,sil,ja,bu,pe,sil1,nu,ru,sil2,"['catch', 'false alarm']","[1.337999999999738, 1.6589999999996508]",[1.337999999999738],0.444,no_beat,0.8939999999997381,0.8939999999997381,"[""space"",""space""]",po,4,,,,,,,,,,,,,,,4.0,3.0,Inglés,5.0,Francés,13.0,Castellano ,0.0,Catalán,0.0,4.0,2.0,yes,no,no,Flauta,10,,, ,64.0,yes
159,2024-04-11_15h51.23.119,Experiment4_uns,s178,18.0,masculino,right,España,Castellano Catalán,Upper secondary,no,no,B,2,conjunction_un,L4,unsyncopated,s1,r1,31,Online_conjL4_un//d.pe.po9.222.1110.wav,zi,pe,bo,sil,lo,po,de,sil1,ru,re,sil2,['catch'],[2.1400000000003274],[2.1400000000003274],1.11,no_beat,1.030000000000327,1.030000000000327,"[""space""]",po,4,,,,,,,,,,,,,,,4.0,3.0,Inglés,5.0,Francés,13.0,Castellano ,0.0,Catalán,0.0,4.0,2.0,yes,no,no,Flauta,10,,, ,64.0,yes
160,2024-04-11_15h51.23.119,Experiment4_uns,s178,18.0,masculino,right,España,Castellano Catalán,Upper secondary,no,no,B,2,conjunction_un,L4,unsyncopated,s2,r2,32,Online_conjL4_un//a.zi.lo9.none.none.wav,de,po,ña,sil,ja,bu,da,sil1,nu,ñi,sil2,['false alarm'],[1.0139999999992142],[1.0139999999992142],none,none,,,"[""space""]",zi,1,,,,,,,,,,,,,,,4.0,3.0,Inglés,5.0,Francés,13.0,Castellano ,0.0,Catalán,0.0,4.0,2.0,yes,no,no,Flauta,10,,, ,64.0,yes
161,2024-04-11_15h51.23.119,Experiment4_uns,s178,18.0,masculino,right,España,Castellano Catalán,Upper secondary,no,no,B,2,conjunction_un,L4,unsyncopated,s1,r2,33,Online_conjL4_un//a.zi.lo10.none.none.wav,ja,ña,da,sil,nu,re,de,sil1,bu,bo,sil2,['-'],,,none,none,,,,zi,1,,,,,,,,,,,,,,,4.0,3.0,Inglés,5.0,Francés,13.0,Castellano ,0.0,Catalán,0.0,4.0,2.0,yes,no,no,Flauta,10,,, ,64.0,yes
162,2024-04-11_15h51.23.119,Experiment4_uns,s178,18.0,masculino,right,España,Castellano Catalán,Upper secondary,no,no,B,2,conjunction_un,L4,unsyncopated,s2,r1,34,Online_conjL4_un//a.zi.lo8.888.1776.wav,re,pe,da,sil,zi,de,ña,sil1,lo,ru,sil2,['catch'],[1.624000000000251],[1.624000000000251],0.888,beat,0.736000000000251,0.736000000000251,"[""space""]",zi,1,,,,,,,,,,,,,,,4.0,3.0,Inglés,5.0,Francés,13.0,Castellano ,0.0,Catalán,0.0,4.0,2.0,yes,no,no,Flauta,10,,, ,64.0,yes
163,2024-04-11_15h51.23.119,Experiment4_uns,s178,18.0,masculino,right,España,Castellano Catalán,Upper secondary,no,no,B,2,conjunction_un,L4,unsyncopated,s2,r2,35,Online_conjL4_un//a.zi.lo11.none.none.wav,po,re,ña,sil,ja,bo,ru,sil1,nu,pe,sil2,['-'],,,none,none,,,,zi,1,,,,,,,,,,,,,,,4.0,3.0,Inglés,5.0,Francés,13.0,Castellano ,0.0,Catalán,0.0,4.0,2.0,yes,no,no,Flauta,10,,, ,64.0,yes
164,2024-04-11_15h51.23.119,Experiment4_uns,s178,18.0,masculino,right,España,Castellano Catalán,Upper secondary,no,no,B,2,conjunction_un,L4,unsyncopated,s2,r1,36,Online_conjL4_un//d.pe.po24.444.1110.wav,de,da,pe,sil,zi,po,re,sil1,lo,bu,sil2,['catch'],[1.8910000000000764],[1.8910000000000764],1.11,no_beat,0.7810000000000763,0.7810000000000763,"[""space""]",po,4,,,,,,,,,,,,,,,4.0,3.0,Inglés,5.0,Francés,13.0,Castellano ,0.0,Catalán,0.0,4.0,2.0,yes,no,no,Flauta,10,,, ,64.0,yes
165,2024-04-11_15h51.23.119,Experiment4_uns,s178,18.0,masculino,right,España,Castellano Catalán,Upper secondary,no,no,B,2,conjunction_un,L4,unsyncopated,s2,r2,37,Online_conjL4_un//d.pe.po27.none.none.wav,ru,ci,bo,sil,ja,de,ñi,sil1,nu,ña,sil2,['false alarm'],[0.37199999999984357],[0.37199999999984357],none,none,,,"[""space""]",po,4,,,,,,,,,,,,,,,4.0,3.0,Inglés,5.0,Francés,13.0,Castellano ,0.0,Catalán,0.0,4.0,2.0,yes,no,no,Flauta,10,,, ,64.0,yes
166,2024-04-11_15h51.23.119,Experiment4_uns,s178,18.0,masculino,right,España,Castellano Catalán,Upper secondary,no,no,B,2,conjunction_un,L4,unsyncopated,s2,r1,38,Online_conjL4_un//d.pe.po26.none.none.wav,ci,bo,bu,sil,zi,re,ru,sil1,lo,ñi,sil2,['-'],,,none,none,,,,po,4,,,,,,,,,,,,,,,4.0,3.0,Inglés,5.0,Francés,13.0,Castellano ,0.0,Catalán,0.0,4.0,2.0,yes,no,no,Flauta,10,,, ,64.0,yes
167,2024-04-11_15h51.23.119,Experiment4_uns,s178,18.0,masculino,right,España,Castellano Catalán,Upper secondary,no,no,B,2,conjunction_un,L4,unsyncopated,s2,r2,39,Online_conjL4_un//d.pe.po25.none.none.wav,re,bu,ña,sil,ja,bo,de,sil1,nu,da,sil2,['-'],,,none,none,,,,po,4,,,,,,,,,,,,,,,4.0,3.0,Inglés,5.0,Francés,13.0,Castellano ,0.0,Catalán,0.0,4.0,2.0,yes,no,no,Flauta,10,,, ,64.0,yes
168,2024-04-11_15h51.23.119,Experiment4_uns,s178,18.0,masculino,right,España,Castellano Catalán,Upper secondary,no,no,B,2,conjunction_un,L4,unsyncopated,s1,r1,40,Online_conjL4_un//d.pe.po7.1110.222.wav,zi,po,ña,sil,lo,pe,ru,sil1,da,re,sil2,['catch'],[1.207999999999629],[1.207999999999629],0.222,no_beat,0.985999999999629,0.985999999999629,"[""space""]",po,4,,,,,,,,,,,,,,,4.0,3.0,Inglés,5.0,Francés,13.0,Castellano ,0.0,Catalán,0.0,4.0,2.0,yes,no,no,Flauta,10,,, ,64.0,yes
169,2024-04-11_15h51.23.119,Experiment4_uns,s178,18.0,masculino,right,España,Castellano Catalán,Upper secondary,no,no,B,2,conjunction_un,L4,unsyncopated,s1,r2,41,Online_conjL4_un//d.pe.po6.1110.222.wav,ja,po,de,sil,nu,pe,da,sil1,ru,bo,sil2,['catch'],[1.0579999999999927],[1.0579999999999927],0.222,no_beat,0.8359999999999927,0.8359999999999927,"[""space""]",po,4,,,,,,,,,,,,,,,4.0,3.0,Inglés,5.0,Francés,13.0,Castellano ,0.0,Catalán,0.0,4.0,2.0,yes,no,no,Flauta,10,,, ,64.0,yes
170,2024-04-11_15h51.23.119,Experiment4_uns,s178,18.0,masculino,right,España,Castellano Catalán,Upper secondary,no,no,B,2,conjunction_un,L4,unsyncopated,s2,r1,42,Online_conjL4_un//d.pe.po4.0.1110.wav,pe,ru,da,sil,zi,po,ñi,sil1,lo,bu,sil2,['catch'],[2.019999999999982],[2.019999999999982],1.11,no_beat,0.9099999999999816,0.9099999999999816,"[""space""]",po,4,,,,,,,,,,,,,,,4.0,3.0,Inglés,5.0,Francés,13.0,Castellano ,0.0,Catalán,0.0,4.0,2.0,yes,no,no,Flauta,10,,, ,64.0,yes
171,2024-04-11_15h51.23.119,Experiment4_uns,s178,18.0,masculino,right,España,Castellano Catalán,Upper secondary,no,no,B,2,conjunction_un,L4,unsyncopated,s1,r1,43,Online_conjL4_un//d.pe.po5.none.none.wav,zi,de,re,sil,lo,ru,ci,sil1,bo,bu,sil2,['-'],,,none,none,,,,po,4,,,,,,,,,,,,,,,4.0,3.0,Inglés,5.0,Francés,13.0,Castellano ,0.0,Catalán,0.0,4.0,2.0,yes,no,no,Flauta,10,,, ,64.0,yes
172,2024-04-11_15h51.23.119,Experiment4_uns,s178,18.0,masculino,right,España,Castellano Catalán,Upper secondary,no,no,B,2,conjunction_un,L4,unsyncopated,s1,r2,44,Online_conjL4_un//c.bu.da24.none.none.wav,ja,po,ci,sil,nu,ña,ru,sil1,re,bo,sil2,['false alarm'],[0.9679999999998472],[0.9679999999998472],none,none,,,"[""space""]",da,3,,,,,,,,,,,,,,,4.0,3.0,Inglés,5.0,Francés,13.0,Castellano ,0.0,Catalán,0.0,4.0,2.0,yes,no,no,Flauta,10,,, ,64.0,yes
173,2024-04-11_15h51.23.119,Experiment4_uns,s178,18.0,masculino,right,España,Castellano Catalán,Upper secondary,no,no,B,2,conjunction_un,L4,unsyncopated,s2,r1,45,Online_conjL4_un//c.bu.da27.0.444.wav,bu,po,da,sil,zi,re,pe,sil1,lo,bo,sil2,['catch'],[1.2130000000001928],[1.2130000000001928],0.444,no_beat,0.7690000000001929,0.7690000000001929,"[""space""]",da,3,,,,,,,,,,,,,,,4.0,3.0,Inglés,5.0,Francés,13.0,Castellano ,0.0,Catalán,0.0,4.0,2.0,yes,no,no,Flauta,10,,, ,64.0,yes
174,2024-04-11_15h51.23.119,Experiment4_uns,s178,18.0,masculino,right,España,Castellano Catalán,Upper secondary,no,no,B,2,conjunction_un,L4,unsyncopated,s1,r1,46,Online_conjL4_un//c.bu.da26.444.1110.wav,zi,po,bu,sil,lo,da,ci,sil1,de,ñi,sil2,['catch'],[1.9750000000003638],[1.9750000000003638],1.11,no_beat,0.8650000000003637,0.8650000000003637,"[""space""]",da,3,,,,,,,,,,,,,,,4.0,3.0,Inglés,5.0,Francés,13.0,Castellano ,0.0,Catalán,0.0,4.0,2.0,yes,no,no,Flauta,10,,, ,64.0,yes
175,2024-04-11_15h51.23.119,Experiment4_uns,s178,18.0,masculino,right,España,Castellano Catalán,Upper secondary,no,no,B,2,conjunction_un,L4,unsyncopated,s2,r1,47,Online_conjL4_un//c.bu.da25.444.1110.wav,ru,de,bu,sil,zi,da,ñi,sil1,lo,ña,sil2,['catch'],[2.218000000000302],[2.218000000000302],1.11,no_beat,1.108000000000302,1.108000000000302,"[""space""]",da,3,,,,,,,,,,,,,,,4.0,3.0,Inglés,5.0,Francés,13.0,Castellano ,0.0,Catalán,0.0,4.0,2.0,yes,no,no,Flauta,10,,, ,64.0,yes
176,2024-04-11_15h51.23.119,Experiment4_uns,s178,18.0,masculino,right,España,Castellano Catalán,Upper secondary,no,no,B,2,conjunction_un,L4,unsyncopated,s1,r2,48,Online_conjL4_un//d.pe.po30.1776.1110.wav,ja,ñi,ru,sil,nu,po,ña,sil1,pe,da,sil2,['catch'],[1.86200000000008],[1.86200000000008],1.11,no_beat,0.7520000000000799,0.7520000000000799,"[""space""]",po,4,,,,,,,,,,,,,,,4.0,3.0,Inglés,5.0,Francés,13.0,Castellano ,0.0,Catalán,0.0,4.0,2.0,yes,no,no,Flauta,10,,, ,64.0,yes
177,2024-04-11_15h51.23.119,Experiment4_uns,s178,18.0,masculino,right,España,Castellano Catalán,Upper secondary,no,no,B,2,conjunction_un,L4,unsyncopated,s2,r1,49,Online_conjL4_un//d.pe.po29.none.none.wav,bo,ña,bu,sil,zi,ru,ci,sil1,lo,de,sil2,['-'],,,none,none,,,,po,4,,,,,,,,,,,,,,,4.0,3.0,Inglés,5.0,Francés,13.0,Castellano ,0.0,Catalán,0.0,4.0,2.0,yes,no,no,Flauta,10,,, ,64.0,yes
178,2024-04-11_15h51.23.119,Experiment4_uns,s178,18.0,masculino,right,España,Castellano Catalán,Upper secondary,no,no,B,2,conjunction_un,L4,unsyncopated,s1,r1,50,Online_conjL4_un//d.pe.po28.444.1332.wav,zi,ci,pe,sil,lo,ñi,po,sil1,ña,da,sil2,['catch'],[2.1269999999999527],[2.1269999999999527],1.332,no_beat,0.7949999999999526,0.7949999999999526,"[""space""]",po,4,,,,,,,,,,,,,,,4.0,3.0,Inglés,5.0,Francés,13.0,Castellano ,0.0,Catalán,0.0,4.0,2.0,yes,no,no,Flauta,10,,, ,64.0,yes
179,2024-04-11_15h51.23.119,Experiment4_uns,s178,18.0,masculino,right,España,Castellano Catalán,Upper secondary,no,no,B,2,conjunction_un,L4,unsyncopated,s1,r2,51,Online_conjL4_un//d.pe.po31.none.none.wav,ja,re,ña,sil,nu,bo,ci,sil1,bu,de,sil2,['-'],,,none,none,,,,po,4,,,,,,,,,,,,,,,4.0,3.0,Inglés,5.0,Francés,13.0,Castellano ,0.0,Catalán,0.0,4.0,2.0,yes,no,no,Flauta,10,,, ,64.0,yes
180,2024-04-11_15h51.23.119,Experiment4_uns,s178,18.0,masculino,right,España,Castellano Catalán,Upper secondary,no,no,B,2,conjunction_un,L4,unsyncopated,s1,r2,52,Online_conjL4_un//b.ja.nu3.0.888.wav,ja,ña,re,sil,nu,bo,po,sil1,ci,ñi,sil2,['catch'],[1.8609999999998763],[1.8609999999998763],0.888,beat,0.9729999999998764,0.9729999999998764,"[""space""]",nu,2,,,,,,,,,,,,,,,4.0,3.0,Inglés,5.0,Francés,13.0,Castellano ,0.0,Catalán,0.0,4.0,2.0,yes,no,no,Flauta,10,,, ,64.0,yes
181,2024-04-11_15h51.23.119,Experiment4_uns,s178,18.0,masculino,right,España,Castellano Catalán,Upper secondary,no,no,B,2,conjunction_un,L4,unsyncopated,s2,r2,53,Online_conjL4_un//b.ja.nu2.888.1776.wav,po,ci,bu,sil,ja,pe,ru,sil1,nu,de,sil2,['miss'],,,1.776,beat,,,,nu,2,,,,,,,,,,,,,,,4.0,3.0,Inglés,5.0,Francés,13.0,Castellano ,0.0,Catalán,0.0,4.0,2.0,yes,no,no,Flauta,10,,, ,64.0,yes
182,2024-04-11_15h51.23.119,Experiment4_uns,s178,18.0,masculino,right,España,Castellano Catalán,Upper secondary,no,no,B,2,conjunction_un,L4,unsyncopated,s2,r1,54,Online_conjL4_un//b.ja.nu1.none.none.wav,bo,ci,ru,sil,zi,re,da,sil1,lo,de,sil2,['-'],,,none,none,,,,nu,2,,,,,,,,,,,,,,,4.0,3.0,Inglés,5.0,Francés,13.0,Castellano ,0.0,Catalán,0.0,4.0,2.0,yes,no,no,Flauta,10,,, ,64.0,yes
183,2024-04-11_15h51.23.119,Experiment4_uns,s178,18.0,masculino,right,España,Castellano Catalán,Upper secondary,no,no,B,2,conjunction_un,L4,unsyncopated,s2,r1,55,Online_conjL4_un//b.ja.nu0.none.none.wav,de,ru,da,sil,zi,re,pe,sil1,lo,bu,sil2,['-'],,,none,none,,,,nu,2,,,,,,,,,,,,,,,4.0,3.0,Inglés,5.0,Francés,13.0,Castellano ,0.0,Catalán,0.0,4.0,2.0,yes,no,no,Flauta,10,,, ,64.0,yes
184,2024-04-11_15h51.23.119,Experiment4_uns,s178,18.0,masculino,right,España,Castellano Catalán,Upper secondary,no,no,B,2,conjunction_un,L4,unsyncopated,s1,r2,56,Online_conjL4_un//c.bu.da12.1776.444.wav,ja,po,da,sil,nu,ñi,re,sil1,bu,de,sil2,['catch'],[1.256999999999607],[1.256999999999607],0.444,no_beat,0.8129999999996071,0.8129999999996071,"[""space""]",da,3,,,,,,,,,,,,,,,4.0,3.0,Inglés,5.0,Francés,13.0,Castellano ,0.0,Catalán,0.0,4.0,2.0,yes,no,no,Flauta,10,,, ,64.0,yes
185,2024-04-11_15h51.23.119,Experiment4_uns,s178,18.0,masculino,right,España,Castellano Catalán,Upper secondary,no,no,B,2,conjunction_un,L4,unsyncopated,s2,r1,57,Online_conjL4_un//c.bu.da14.none.none.wav,po,ru,pe,sil,zi,ñi,de,sil1,lo,ña,sil2,['-'],,,none,none,,,,da,3,,,,,,,,,,,,,,,4.0,3.0,Inglés,5.0,Francés,13.0,Castellano ,0.0,Catalán,0.0,4.0,2.0,yes,no,no,Flauta,10,,, ,64.0,yes
186,2024-04-11_15h51.23.119,Experiment4_uns,s178,18.0,masculino,right,España,Castellano Catalán,Upper secondary,no,no,B,2,conjunction_un,L4,unsyncopated,s2,r2,58,Online_conjL4_un//c.bu.da15.222.1110.wav,ñi,bu,po,sil,ja,da,re,sil1,nu,pe,sil2,['catch'],[2.6219999999998436],[2.6219999999998436],1.11,no_beat,,1.5119999999998437,"[""space""]",da,3,,,,,,,,,,,,,,,4.0,3.0,Inglés,5.0,Francés,13.0,Castellano ,0.0,Catalán,0.0,4.0,2.0,yes,no,no,Flauta,10,,, ,64.0,yes
187,2024-04-11_15h51.23.119,Experiment4_uns,s178,18.0,masculino,right,España,Castellano Catalán,Upper secondary,no,no,B,2,conjunction_un,L4,unsyncopated,s2,r2,59,Online_conjL4_un//c.bu.da13.none.none.wav,pe,ru,de,sil,ja,re,bo,sil1,nu,ña,sil2,['-'],,,none,none,,,,da,3,,,,,,,,,,,,,,,4.0,3.0,Inglés,5.0,Francés,13.0,Castellano ,0.0,Catalán,0.0,4.0,2.0,yes,no,no,Flauta,10,,, ,64.0,yes
188,2024-04-11_15h51.23.119,Experiment4_uns,s178,18.0,masculino,right,España,Castellano Catalán,Upper secondary,no,no,B,2,conjunction_un,L4,unsyncopated,s1,r2,60,Online_conjL4_un//a.zi.lo20.none.none.wav,ja,da,ñi,sil,nu,ña,ci,sil1,re,ru,sil2,['false alarm'],[2.111000000000331],[2.111000000000331],none,none,,,"[""space""]",zi,1,,,,,,,,,,,,,,,4.0,3.0,Inglés,5.0,Francés,13.0,Castellano ,0.0,Catalán,0.0,4.0,2.0,yes,no,no,Flauta,10,,, ,64.0,yes
189,2024-04-11_15h51.23.119,Experiment4_uns,s178,18.0,masculino,right,España,Castellano Catalán,Upper secondary,no,no,B,2,conjunction_un,L4,unsyncopated,s2,r2,61,Online_conjL4_un//a.zi.lo23.none.none.wav,ñi,bo,po,sil,ja,da,ña,sil1,nu,re,sil2,['-'],,,none,none,,,,zi,1,,,,,,,,,,,,,,,4.0,3.0,Inglés,5.0,Francés,13.0,Castellano ,0.0,Catalán,0.0,4.0,2.0,yes,no,no,Flauta,10,,, ,64.0,yes
190,2024-04-11_15h51.23.119,Experiment4_uns,s178,18.0,masculino,right,España,Castellano Catalán,Upper secondary,no,no,B,2,conjunction_un,L4,unsyncopated,s2,r1,62,Online_conjL4_un//a.zi.lo22.888.1776.wav,bu,ñi,pe,sil,zi,bo,ci,sil1,lo,ru,sil2,['catch'],[2.0859999999997854],[2.0859999999997854],0.888,beat,1.1979999999997857,1.1979999999997857,"[""space""]",zi,1,,,,,,,,,,,,,,,4.0,3.0,Inglés,5.0,Francés,13.0,Castellano ,0.0,Catalán,0.0,4.0,2.0,yes,no,no,Flauta,10,,, ,64.0,yes
191,2024-04-11_15h51.23.119,Experiment4_uns,s178,18.0,masculino,right,España,Castellano Catalán,Upper secondary,no,no,B,2,conjunction_un,L4,unsyncopated,s2,r1,63,Online_conjL4_un//a.zi.lo21.888.1776.wav,ci,da,de,sil,zi,bu,po,sil1,lo,re,sil2,"['catch', 'false alarm']","[1.1079999999997199, 2.306999999999789]",[1.1079999999997199],0.888,beat,0.2199999999997198,0.2199999999997198,"[""space"",""space""]",zi,1,,,,,,,,,,,,,,,4.0,3.0,Inglés,5.0,Francés,13.0,Castellano ,0.0,Catalán,0.0,4.0,2.0,yes,no,no,Flauta,10,,, ,64.0,yes
192,2024-04-11_15h51.23.119,Experiment4_uns,s178,18.0,masculino,right,España,Castellano Catalán,Upper secondary,no,no,B,2,conjunction_un,L4,unsyncopated,s1,r1,64,Online_conjL4_un//a.zi.lo6.0.888.wav,zi,da,po,sil,lo,de,ci,sil1,re,bo,sil2,['catch'],[0.8989999999998872],[0.8989999999998872],0.0,beat,0.8989999999998872,0.8989999999998872,"[""space""]",zi,1,,,,,,,,,,,,,,,4.0,3.0,Inglés,5.0,Francés,13.0,Castellano ,0.0,Catalán,0.0,4.0,2.0,yes,no,no,Flauta,10,,, ,64.0,yes
193,2024-04-11_15h51.23.119,Experiment4_uns,s178,18.0,masculino,right,España,Castellano Catalán,Upper secondary,no,no,B,2,conjunction_un,L4,unsyncopated,s2,r2,65,Online_conjL4_un//a.zi.lo5.none.none.wav,ñi,re,pe,sil,ja,da,ña,sil1,nu,bu,sil2,['false alarm'],[0.1890000000003056],[0.1890000000003056],none,none,,,"[""space""]",zi,1,,,,,,,,,,,,,,,4.0,3.0,Inglés,5.0,Francés,13.0,Castellano ,0.0,Catalán,0.0,4.0,2.0,yes,no,no,Flauta,10,,, ,64.0,yes
194,2024-04-11_15h51.23.119,Experiment4_uns,s178,18.0,masculino,right,España,Castellano Catalán,Upper secondary,no,no,B,2,conjunction_un,L4,unsyncopated,s1,r2,66,Online_conjL4_un//a.zi.lo4.none.none.wav,ja,da,ñi,sil,nu,pe,re,sil1,bu,bo,sil2,['-'],,,none,none,,,,zi,1,,,,,,,,,,,,,,,4.0,3.0,Inglés,5.0,Francés,13.0,Castellano ,0.0,Catalán,0.0,4.0,2.0,yes,no,no,Flauta,10,,, ,64.0,yes
195,2024-04-11_15h51.23.119,Experiment4_uns,s178,18.0,masculino,right,España,Castellano Catalán,Upper secondary,no,no,B,2,conjunction_un,L4,unsyncopated,s1,r1,67,Online_conjL4_un//a.zi.lo7.0.888.wav,zi,ci,da,sil,lo,ñi,de,sil1,ru,po,sil2,['catch'],[0.7559999999998581],[0.7559999999998581],0.0,beat,0.7559999999998581,0.7559999999998581,"[""space""]",zi,1,,,,,,,,,,,,,,,4.0,3.0,Inglés,5.0,Francés,13.0,Castellano ,0.0,Catalán,0.0,4.0,2.0,yes,no,no,Flauta,10,,, ,64.0,yes
196,2024-04-11_15h51.23.119,Experiment4_uns,s178,18.0,masculino,right,España,Castellano Catalán,Upper secondary,no,no,B,2,conjunction_un,L4,unsyncopated,s1,r2,68,Online_conjL4_un//a.zi.lo31.none.none.wav,ja,ru,da,sil,nu,bu,ci,sil1,pe,re,sil2,['-'],,,none,none,,,,zi,1,,,,,,,,,,,,,,,4.0,3.0,Inglés,5.0,Francés,13.0,Castellano ,0.0,Catalán,0.0,4.0,2.0,yes,no,no,Flauta,10,,, ,64.0,yes
197,2024-04-11_15h51.23.119,Experiment4_uns,s178,18.0,masculino,right,España,Castellano Catalán,Upper secondary,no,no,B,2,conjunction_un,L4,unsyncopated,s1,r1,69,Online_conjL4_un//a.zi.lo30.0.888.wav,zi,ci,bu,sil,lo,ru,da,sil1,ñi,de,sil2,['catch'],[0.9920000000001892],[0.9920000000001892],0.0,beat,0.9920000000001892,0.9920000000001892,"[""space""]",zi,1,,,,,,,,,,,,,,,4.0,3.0,Inglés,5.0,Francés,13.0,Castellano ,0.0,Catalán,0.0,4.0,2.0,yes,no,no,Flauta,10,,, ,64.0,yes
198,2024-04-11_15h51.23.119,Experiment4_uns,s178,18.0,masculino,right,España,Castellano Catalán,Upper secondary,no,no,B,2,conjunction_un,L4,unsyncopated,s1,r2,70,Online_conjL4_un//a.zi.lo29.none.none.wav,ja,ci,pe,sil,nu,ru,po,sil1,ñi,da,sil2,['-'],,,none,none,,,,zi,1,,,,,,,,,,,,,,,4.0,3.0,Inglés,5.0,Francés,13.0,Castellano ,0.0,Catalán,0.0,4.0,2.0,yes,no,no,Flauta,10,,, ,64.0,yes
199,2024-04-11_15h51.23.119,Experiment4_uns,s178,18.0,masculino,right,España,Castellano Catalán,Upper secondary,no,no,B,2,conjunction_un,L4,unsyncopated,s1,r1,71,Online_conjL4_un//a.zi.lo28.0.888.wav,zi,da,bo,sil,lo,ña,po,sil1,de,pe,sil2,['catch'],[0.8229999999998654],[0.8229999999998654],0.0,beat,0.8229999999998654,0.8229999999998654,"[""space""]",zi,1,,,,,,,,,,,,,,,4.0,3.0,Inglés,5.0,Francés,13.0,Castellano ,0.0,Catalán,0.0,4.0,2.0,yes,no,no,Flauta,10,,, ,64.0,yes
200,2024-04-11_15h51.23.119,Experiment4_uns,s178,18.0,masculino,right,España,Castellano Catalán,Upper secondary,no,no,B,2,conjunction_un,L4,unsyncopated,s2,r1,72,Online_conjL4_un//b.ja.nu18.none.none.wav,re,ci,bu,sil,zi,ñi,ña,sil1,lo,pe,sil2,['-'],,,none,none,,,,nu,2,,,,,,,,,,,,,,,4.0,3.0,Inglés,5.0,Francés,13.0,Castellano ,0.0,Catalán,0.0,4.0,2.0,yes,no,no,Flauta,10,,, ,64.0,yes
201,2024-04-11_15h51.23.119,Experiment4_uns,s178,18.0,masculino,right,España,Castellano Catalán,Upper secondary,no,no,B,2,conjunction_un,L4,unsyncopated,s1,r2,73,Online_conjL4_un//b.ja.nu16.0.888.wav,ja,da,po,sil,nu,ru,bu,sil1,ci,de,sil2,['catch'],[1.788000000000011],[1.788000000000011],0.888,beat,0.9000000000000109,0.9000000000000109,"[""space""]",nu,2,,,,,,,,,,,,,,,4.0,3.0,Inglés,5.0,Francés,13.0,Castellano ,0.0,Catalán,0.0,4.0,2.0,yes,no,no,Flauta,10,,, ,64.0,yes
202,2024-04-11_15h51.23.119,Experiment4_uns,s178,18.0,masculino,right,España,Castellano Catalán,Upper secondary,no,no,B,2,conjunction_un,L4,unsyncopated,s1,r1,74,Online_conjL4_un//b.ja.nu19.none.none.wav,zi,ña,pe,sil,lo,bu,ñi,sil1,da,ru,sil2,['-'],,,none,none,,,,nu,2,,,,,,,,,,,,,,,4.0,3.0,Inglés,5.0,Francés,13.0,Castellano ,0.0,Catalán,0.0,4.0,2.0,yes,no,no,Flauta,10,,, ,64.0,yes
203,2024-04-11_15h51.23.119,Experiment4_uns,s178,18.0,masculino,right,España,Castellano Catalán,Upper secondary,no,no,B,2,conjunction_un,L4,unsyncopated,s1,r2,75,Online_conjL4_un//b.ja.nu17.0.888.wav,ja,da,ru,sil,nu,ña,ci,sil1,po,re,sil2,['catch'],[1.7899999999999636],[1.7899999999999636],0.888,beat,0.9019999999999636,0.9019999999999636,"[""space""]",nu,2,,,,,,,,,,,,,,,4.0,3.0,Inglés,5.0,Francés,13.0,Castellano ,0.0,Catalán,0.0,4.0,2.0,yes,no,no,Flauta,10,,, ,64.0,yes
204,2024-04-11_15h51.23.119,Experiment4_uns,s178,18.0,masculino,right,España,Castellano Catalán,Upper secondary,no,no,B,2,conjunction_un,L4,unsyncopated,s1,r2,76,Online_conjL4_un//c.bu.da18.1110.222.wav,ja,da,re,sil,nu,bu,ru,sil1,bo,pe,sil2,['miss'],,,0.222,no_beat,,,,da,3,,,,,,,,,,,,,,,4.0,3.0,Inglés,5.0,Francés,13.0,Castellano ,0.0,Catalán,0.0,4.0,2.0,yes,no,no,Flauta,10,,, ,64.0,yes
205,2024-04-11_15h51.23.119,Experiment4_uns,s178,18.0,masculino,right,España,Castellano Catalán,Upper secondary,no,no,B,2,conjunction_un,L4,unsyncopated,s1,r2,77,Online_conjL4_un//c.bu.da16.none.none.wav,ja,de,ñi,sil,nu,pe,ru,sil1,re,ci,sil2,['-'],,,none,none,,,,da,3,,,,,,,,,,,,,,,4.0,3.0,Inglés,5.0,Francés,13.0,Castellano ,0.0,Catalán,0.0,4.0,2.0,yes,no,no,Flauta,10,,, ,64.0,yes
206,2024-04-11_15h51.23.119,Experiment4_uns,s178,18.0,masculino,right,España,Castellano Catalán,Upper secondary,no,no,B,2,conjunction_un,L4,unsyncopated,s2,r1,78,Online_conjL4_un//c.bu.da19.none.none.wav,ña,ru,pe,sil,zi,re,ñi,sil1,lo,de,sil2,['-'],,,none,none,,,,da,3,,,,,,,,,,,,,,,4.0,3.0,Inglés,5.0,Francés,13.0,Castellano ,0.0,Catalán,0.0,4.0,2.0,yes,no,no,Flauta,10,,, ,64.0,yes
207,2024-04-11_15h51.23.119,Experiment4_uns,s178,18.0,masculino,right,España,Castellano Catalán,Upper secondary,no,no,B,2,conjunction_un,L4,unsyncopated,s2,r1,79,Online_conjL4_un//c.bu.da17.none.none.wav,ru,de,re,sil,zi,ci,po,sil1,lo,pe,sil2,['-'],,,none,none,,,,da,3,,,,,,,,,,,,,,,4.0,3.0,Inglés,5.0,Francés,13.0,Castellano ,0.0,Catalán,0.0,4.0,2.0,yes,no,no,Flauta,10,,, ,64.0,yes
208,2024-04-11_15h51.23.119,Experiment4_uns,s178,18.0,masculino,right,España,Castellano Catalán,Upper secondary,no,no,B,2,conjunction_un,L4,unsyncopated,s2,r2,80,Online_conjL4_un//b.ja.nu14.888.1776.wav,ru,ñi,re,sil,ja,pe,po,sil1,nu,da,sil2,['miss'],,,1.776,beat,,,,nu,2,,,,,,,,,,,,,,,4.0,3.0,Inglés,5.0,Francés,13.0,Castellano ,0.0,Catalán,0.0,4.0,2.0,yes,no,no,Flauta,10,,, ,64.0,yes
