Unnamed: 0,date,expName,participant,age,sex,hand,residence,native_lang,education_level,lang_deficit,aud_deficit,group,block,condition,language,rhythm,rule structure online,rule type online,order_trial_on,trial_online,s1,s2,s3,s4,s5,s6,s7,s8,s9,s10,s11,catch_syll_resp,rts_syll_catch,clean_rts,time_syll,beat_no_beat,catch_rtsTR,catch_rts,syllable_catch.keys,cond_syll,syll_to_catch,test_offline,block_off,condition_off,rhythm_off,rule,rule_str_off,rule_norule,conds_offline,language_off,Partz_no_partm.keys,Partz_no_partm.rt,security_1_7.keys,accuracy,security_1_7.rt,n_lang,n_lang_used,lang_1,age_l1,lang_2,age_l2,lang_3,age_l3,lang_4,age_l4,ability_learn_l2,tendence_mix_lan,music_experience,muisc_use,partiture,instr_1,age_M1,instr_2,age_M2,preguntas_musica1,BMRQ_answer.response,final comment,BMRQ_Score,bilingual
0,2024-02-23_23h06.43.551,Unsyncopated_study3,s126,21.0,feminino,right,españa,castellano y gallego,Bachelor degree,no,no,A,1,what,L4,unsyncopated,s1,r2,0,Online_whatL4//c.bu.da19.1998.444.wav,ja,de,da,sil,nu,re,ci,sil2,bu,ña,sil1,['catch'],[2.5766999999880227],[2.5766999999880227],1.998,no_beat,0.5786999999880227,0.5786999999880227,"[""space""]",bu,3,testWhatL4Uns//r1.s1.1.wav,1.0,what,unsyncopated,a,s1,rule,rule,L4,z,2.5579,6.0,1.0,2.7132,4 ,3.0,castellano,0.0,gallego,0.0,ingles,3.0,catalán,19.0,4.0,5.0,yes,no,yes,piano,5,guitarra,5,1. Cuando comparto música con alguien siento una complicidad especial con aquella persona.,3.0,A medida que iban pasando los lenguajes me distraía más porque es una tarea bastante monótona. ,77.0,yes
1,2024-02-23_23h06.43.551,Unsyncopated_study3,s126,21.0,feminino,right,españa,castellano y gallego,Bachelor degree,no,no,A,1,what,L4,unsyncopated,s2,r2,1,Online_whatL4//c.bu.da16.none.none.wav,re,de,po,sil,ja,ci,ru,sil2,nu,ña,sil1,['false alarm'],[1.91359999996439],[1.91359999996439],none,none,,,"[""space""]",bu,3,testWhatL4Uns//r1.s2.0.wav,1.0,what,unsyncopated,a,s2,rule,rule,L4,m,1.3282,4.0,0.0,0.9869,4 ,3.0,castellano,0.0,gallego,0.0,ingles,3.0,catalán,19.0,4.0,5.0,yes,no,yes,piano,5,guitarra,5,2. En mi tiempo libre apenas escucho música.,5.0,A medida que iban pasando los lenguajes me distraía más porque es una tarea bastante monótona. ,77.0,yes
2,2024-02-23_23h06.43.551,Unsyncopated_study3,s126,21.0,feminino,right,españa,castellano y gallego,Bachelor degree,no,no,A,1,what,L4,unsyncopated,s2,r1,2,Online_whatL4//c.bu.da17.none.none.wav,ña,po,pe,sil,zi,ñi,re,sil1,lo,bo,sil2,['false alarm'],[2.539699999987988],[2.539699999987988],none,none,,,"[""space""]",bu,3,testWhatL4Uns//time_viol.r2.s1.0.wav,1.0,what,unsyncopated,b,s1,no_rule,time,L4,z,1.5024,5.0,0.0,3.9506,4 ,3.0,castellano,0.0,gallego,0.0,ingles,3.0,catalán,19.0,4.0,5.0,yes,no,yes,piano,5,guitarra,5,3. Algunas canciones me ponen los pelos de punta,4.0,A medida que iban pasando los lenguajes me distraía más porque es una tarea bastante monótona. ,77.0,yes
3,2024-02-23_23h06.43.551,Unsyncopated_study3,s126,21.0,feminino,right,españa,castellano y gallego,Bachelor degree,no,no,A,1,what,L4,unsyncopated,s2,r2,3,Online_whatL4//c.bu.da18.444.1332.wav,ña,pe,bu,sil2,ja,da,de,sil,nu,re,sil1,['catch'],[1.0882000000476637],[1.0882000000476637],0.444,no_beat,0.6442000000476638,0.6442000000476638,"[""space""]",bu,3,testWhatL4Uns//time_viol.r1.s2.0.wav,1.0,what,unsyncopated,a,s2,no_rule,time,L4,m,0.6344,5.0,1.0,2.1689,4 ,3.0,castellano,0.0,gallego,0.0,ingles,3.0,catalán,19.0,4.0,5.0,yes,no,yes,piano,5,guitarra,5,4. La música me hace compañía cuando estoy solo,4.0,A medida que iban pasando los lenguajes me distraía más porque es una tarea bastante monótona. ,77.0,yes
4,2024-02-23_23h06.43.551,Unsyncopated_study3,s126,21.0,feminino,right,españa,castellano y gallego,Bachelor degree,no,no,A,1,what,L4,unsyncopated,s1,r2,4,Online_whatL4//c.bu.da5.none.none.wav,ja,ci,ña,sil2,nu,bo,de,sil,ñi,re,sil1,['false alarm'],[1.8455999999644064],[1.8455999999644064],none,none,,,"[""space""]",bu,3,testWhatL4Uns//cat_viol.r1.s1.0.wav,1.0,what,unsyncopated,a,s1,no_rule,cat,L4,m,1.178,7.0,1.0,1.3982,4 ,3.0,castellano,0.0,gallego,0.0,ingles,3.0,catalán,19.0,4.0,5.0,yes,no,yes,piano,5,guitarra,5,5. No me apetece bailar ni con la música que más me gusta,5.0,A medida que iban pasando los lenguajes me distraía más porque es una tarea bastante monótona. ,77.0,yes
5,2024-02-23_23h06.43.551,Unsyncopated_study3,s126,21.0,feminino,right,españa,castellano y gallego,Bachelor degree,no,no,A,1,what,L4,unsyncopated,s1,r1,5,Online_whatL4//c.bu.da7.222.1332.wav,zi,bu,re,sil,lo,po,da,sil2,bo,ci,sil1,['miss'],,,0.222,no_beat,,,,bu,3,testWhatL4Uns//time_viol.r1.s1.0.wav,1.0,what,unsyncopated,a,s1,no_rule,time,L4,m,3.1178,2.0,1.0,0.5849,4 ,3.0,castellano,0.0,gallego,0.0,ingles,3.0,catalán,19.0,4.0,5.0,yes,no,yes,piano,5,guitarra,5,6. La música me hace conectar con la gente,4.0,A medida que iban pasando los lenguajes me distraía más porque es una tarea bastante monótona. ,77.0,yes
6,2024-02-23_23h06.43.551,Unsyncopated_study3,s126,21.0,feminino,right,españa,castellano y gallego,Bachelor degree,no,no,A,1,what,L4,unsyncopated,s1,r1,6,Online_whatL4//c.bu.da4.none.none.wav,zi,ru,de,sil2,lo,ci,po,sil,pe,bo,sil1,['-'],,,none,none,,,,bu,3,testWhatL4Uns//r2.s2.0.wav,1.0,what,unsyncopated,b,s2,rule,rule,L4,z,0.6506,6.0,1.0,1.3037,4 ,3.0,castellano,0.0,gallego,0.0,ingles,3.0,catalán,19.0,4.0,5.0,yes,no,yes,piano,5,guitarra,5,7. Me informo sobre la música que me gusta.,4.0,A medida que iban pasando los lenguajes me distraía más porque es una tarea bastante monótona. ,77.0,yes
7,2024-02-23_23h06.43.551,Unsyncopated_study3,s126,21.0,feminino,right,españa,castellano y gallego,Bachelor degree,no,no,A,1,what,L4,unsyncopated,s1,r1,7,Online_whatL4//c.bu.da6.1110.1332.wav,zi,ña,ci,sil,lo,bu,da,sil1,pe,ñi,sil2,['catch'],[1.7360000000001037],[1.7360000000001037],1.11,no_beat,0.6260000000001036,0.6260000000001036,"[""space""]",bu,3,testWhatL4Uns//r1.s2.1.wav,1.0,what,unsyncopated,a,s2,rule,rule,L4,z,3.8462,4.0,1.0,0.9333,4 ,3.0,castellano,0.0,gallego,0.0,ingles,3.0,catalán,19.0,4.0,5.0,yes,no,yes,piano,5,guitarra,5,8.Me emociono escuchando ciertas canciones.,4.0,A medida que iban pasando los lenguajes me distraía más porque es una tarea bastante monótona. ,77.0,yes
8,2024-02-23_23h06.43.551,Unsyncopated_study3,s126,21.0,feminino,right,españa,castellano y gallego,Bachelor degree,no,no,A,1,what,L4,unsyncopated,s2,r2,8,Online_whatL4//b.ja.nu24.888.1998.wav,ñi,ru,bo,sil,ja,po,de,sil2,nu,da,sil1,['catch'],[1.4545000000000528],[1.4545000000000528],0.888,beat,0.5665000000000527,0.5665000000000527,"[""space""]",ja,1,testWhatL4Uns//r1.s1.0.wav,1.0,what,unsyncopated,a,s1,rule,rule,L4,z,3.9695,5.0,1.0,1.0341,4 ,3.0,castellano,0.0,gallego,0.0,ingles,3.0,catalán,19.0,4.0,5.0,yes,no,yes,piano,5,guitarra,5,9.La música me tranquiliza y me relaja.,4.0,A medida que iban pasando los lenguajes me distraía más porque es una tarea bastante monótona. ,77.0,yes
9,2024-02-23_23h06.43.551,Unsyncopated_study3,s126,21.0,feminino,right,españa,castellano y gallego,Bachelor degree,no,no,A,1,what,L4,unsyncopated,s2,r2,9,Online_whatL4//b.ja.nu25.888.1998.wav,bu,ru,de,sil,ja,ñi,bo,sil2,nu,pe,sil1,['catch'],[1.390699999988101],[1.390699999988101],0.888,beat,0.5026999999881009,0.5026999999881009,"[""space""]",ja,1,testWhatL4Uns//dep_viol.r2.s2.0.wav,1.0,what,unsyncopated,b,s2,no_rule,dep,L4,z,0.6823,6.0,0.0,0.7538,4 ,3.0,castellano,0.0,gallego,0.0,ingles,3.0,catalán,19.0,4.0,5.0,yes,no,yes,piano,5,guitarra,5,10.La música me hace bailar,3.0,A medida que iban pasando los lenguajes me distraía más porque es una tarea bastante monótona. ,77.0,yes
10,2024-02-23_23h06.43.551,Unsyncopated_study3,s126,21.0,feminino,right,españa,castellano y gallego,Bachelor degree,no,no,A,1,what,L4,unsyncopated,s2,r2,10,Online_whatL4//b.ja.nu26.888.1776.wav,da,ña,re,sil,ja,ci,bo,sil1,nu,bu,sil2,['catch'],[1.3371000000238382],[1.3371000000238382],0.888,beat,0.4491000000238382,0.4491000000238382,"[""space""]",ja,1,testWhatL4Uns//cat_viol.r2.s1.0.wav,1.0,what,unsyncopated,b,s1,no_rule,cat,L4,z,1.6323,5.0,0.0,0.8365,4 ,3.0,castellano,0.0,gallego,0.0,ingles,3.0,catalán,19.0,4.0,5.0,yes,no,yes,piano,5,guitarra,5,11.Busco novedades musicales continuamente,4.0,A medida que iban pasando los lenguajes me distraía más porque es una tarea bastante monótona. ,77.0,yes
11,2024-02-23_23h06.43.551,Unsyncopated_study3,s126,21.0,feminino,right,españa,castellano y gallego,Bachelor degree,no,no,A,1,what,L4,unsyncopated,s1,r2,11,Online_whatL4//b.ja.nu27.0.888.wav,ja,de,re,sil,nu,ci,pe,sil1,po,ñi,sil2,['catch'],[0.821199999988039],[0.821199999988039],0.0,beat,0.821199999988039,0.821199999988039,"[""space""]",ja,1,testWhatL4Uns//r2.s2.1.wav,1.0,what,unsyncopated,b,s2,rule,rule,L4,m,0.8335,6.0,0.0,2.2293,4 ,3.0,castellano,0.0,gallego,0.0,ingles,3.0,catalán,19.0,4.0,5.0,yes,no,yes,piano,5,guitarra,5,12. Puedo llorar cuando escucho algunas melodías que me gustan mucho.,4.0,A medida que iban pasando los lenguajes me distraía más porque es una tarea bastante monótona. ,77.0,yes
12,2024-02-23_23h06.43.551,Unsyncopated_study3,s126,21.0,feminino,right,españa,castellano y gallego,Bachelor degree,no,no,A,1,what,L4,unsyncopated,s2,r2,12,Online_whatL4//a.zi.lo20.none.none.wav,re,ña,ci,sil,ja,ñi,pe,sil1,nu,bo,sil2,['-'],,,none,none,,,,lo,2,testWhatL4Uns//r2.s1.0.wav,1.0,what,unsyncopated,b,s1,rule,rule,L4,m,1.8846,7.0,0.0,1.0843,4 ,3.0,castellano,0.0,gallego,0.0,ingles,3.0,catalán,19.0,4.0,5.0,yes,no,yes,piano,5,guitarra,5,13. Me gusta cantar o tocar un instrumento con más gente,4.0,A medida que iban pasando los lenguajes me distraía más porque es una tarea bastante monótona. ,77.0,yes
13,2024-02-23_23h06.43.551,Unsyncopated_study3,s126,21.0,feminino,right,españa,castellano y gallego,Bachelor degree,no,no,A,1,what,L4,unsyncopated,s2,r2,13,Online_whatL4//a.zi.lo23.none.none.wav,pe,ci,po,sil,ja,bu,de,sil2,nu,ñi,sil1,['-'],,,none,none,,,,lo,2,testWhatL4Uns//r2.s1.2.wav,1.0,what,unsyncopated,b,s1,rule,rule,L4,z,0.8689,5.0,1.0,1.0516,4 ,3.0,castellano,0.0,gallego,0.0,ingles,3.0,catalán,19.0,4.0,5.0,yes,no,yes,piano,5,guitarra,5,14. La música me ayuda a desconectar.,4.0,A medida que iban pasando los lenguajes me distraía más porque es una tarea bastante monótona. ,77.0,yes
14,2024-02-23_23h06.43.551,Unsyncopated_study3,s126,21.0,feminino,right,españa,castellano y gallego,Bachelor degree,no,no,A,1,what,L4,unsyncopated,s2,r2,14,Online_whatL4//a.zi.lo22.none.none.wav,ci,bu,da,sil,ja,re,ñi,sil1,nu,de,sil2,['-'],,,none,none,,,,lo,2,testWhatL4Uns//dep_viol.r1.s1.0.wav,1.0,what,unsyncopated,a,s1,no_rule,dep,L4,z,0.2445,7.0,0.0,1.2529,4 ,3.0,castellano,0.0,gallego,0.0,ingles,3.0,catalán,19.0,4.0,5.0,yes,no,yes,piano,5,guitarra,5,15. No puedo evitar tararear las canciones que me gustan cuando las escucho.,4.0,A medida que iban pasando los lenguajes me distraía más porque es una tarea bastante monótona. ,77.0,yes
15,2024-02-23_23h06.43.551,Unsyncopated_study3,s126,21.0,feminino,right,españa,castellano y gallego,Bachelor degree,no,no,A,1,what,L4,unsyncopated,s1,r1,15,Online_whatL4//a.zi.lo21.0.888.wav,zi,ru,ña,sil,lo,pe,po,sil1,re,bo,sil2,['catch'],[1.5138999999760472],[1.5138999999760472],0.888,beat,0.6258999999760472,0.6258999999760472,"[""space""]",lo,2,testWhatL4Uns//r1.s2.2.wav,1.0,what,unsyncopated,a,s2,rule,rule,L4,z,0.4671,6.0,1.0,0.6314,4 ,3.0,castellano,0.0,gallego,0.0,ingles,3.0,catalán,19.0,4.0,5.0,yes,no,yes,piano,5,guitarra,5,16. En los conciertos me siento en sintonía con los artistas y el público.,4.0,A medida que iban pasando los lenguajes me distraía más porque es una tarea bastante monótona. ,77.0,yes
16,2024-02-23_23h06.43.551,Unsyncopated_study3,s126,21.0,feminino,right,españa,castellano y gallego,Bachelor degree,no,no,A,1,what,L4,unsyncopated,s1,r2,16,Online_whatL4//c.bu.da1.none.none.wav,ja,ña,ñi,sil2,nu,re,de,sil,ru,pe,sil1,['-'],,,none,none,,,,bu,3,testWhatL4Uns//dep_viol.r2.s1.0.wav,1.0,what,unsyncopated,b,s1,no_rule,dep,L4,m,1.7618,4.0,1.0,0.7029,4 ,3.0,castellano,0.0,gallego,0.0,ingles,3.0,catalán,19.0,4.0,5.0,yes,no,yes,piano,5,guitarra,5,17. Me gasto bastante dinero en música y cosas relacionadas con la música.,1.0,A medida que iban pasando los lenguajes me distraía más porque es una tarea bastante monótona. ,77.0,yes
17,2024-02-23_23h06.43.551,Unsyncopated_study3,s126,21.0,feminino,right,españa,castellano y gallego,Bachelor degree,no,no,A,1,what,L4,unsyncopated,s2,r2,17,Online_whatL4//c.bu.da0.444.1332.wav,re,de,bu,sil2,ja,da,bo,sil,nu,pe,sil1,['catch'],[1.1780999999641608],[1.1780999999641608],0.444,no_beat,0.7340999999641609,0.7340999999641609,"[""space""]",bu,3,testWhatL4Uns//r2.s2.2.wav,1.0,what,unsyncopated,b,s2,rule,rule,L4,z,0.6432,6.0,1.0,0.5346,4 ,3.0,castellano,0.0,gallego,0.0,ingles,3.0,catalán,19.0,4.0,5.0,yes,no,yes,piano,5,guitarra,5,18. Siento escalofríos cuando escucho una melodía que me gusta.,4.0,A medida que iban pasando los lenguajes me distraía más porque es una tarea bastante monótona. ,77.0,yes
18,2024-02-23_23h06.43.551,Unsyncopated_study3,s126,21.0,feminino,right,españa,castellano y gallego,Bachelor degree,no,no,A,1,what,L4,unsyncopated,s2,r1,18,Online_whatL4//c.bu.da2.1332.222.wav,de,da,po,sil,zi,ru,bu,sil2,lo,ña,sil1,['catch'],[2.1786000000238346],[2.1786000000238346],1.332,no_beat,0.8466000000238345,0.8466000000238345,"[""space""]",bu,3,testWhatL4Uns//r2.s1.1.wav,1.0,what,unsyncopated,b,s1,rule,rule,L4,z,2.118,6.0,1.0,0.4591,4 ,3.0,castellano,0.0,gallego,0.0,ingles,3.0,catalán,19.0,4.0,5.0,yes,no,yes,piano,5,guitarra,5,19. Con la música me puedo desahogar.,4.0,A medida que iban pasando los lenguajes me distraía más porque es una tarea bastante monótona. ,77.0,yes
19,2024-02-23_23h06.43.551,Unsyncopated_study3,s126,21.0,feminino,right,españa,castellano y gallego,Bachelor degree,no,no,A,1,what,L4,unsyncopated,s2,r1,19,Online_whatL4//c.bu.da3.none.none.wav,pe,po,bo,sil,zi,re,ña,sil1,lo,ru,sil2,['-'],,,none,none,,,,bu,3,testWhatL4Uns//time_viol.r2.s2.0.wav,1.0,what,unsyncopated,b,s2,no_rule,time,L4,z,0.7963,6.0,0.0,0.6917,4 ,3.0,castellano,0.0,gallego,0.0,ingles,3.0,catalán,19.0,4.0,5.0,yes,no,yes,piano,5,guitarra,5,20. Cuando escucho una melodía que me gusta mucho no puedo evitar mover el cuerpo.,4.0,A medida que iban pasando los lenguajes me distraía más porque es una tarea bastante monótona. ,77.0,yes
20,2024-02-23_23h06.43.551,Unsyncopated_study3,s126,21.0,feminino,right,españa,castellano y gallego,Bachelor degree,no,no,A,1,what,L4,unsyncopated,s1,r1,20,Online_whatL4//c.bu.da22.none.none.wav,zi,de,ña,sil2,lo,re,ñi,sil,po,ru,sil1,['-'],,,none,none,,,,bu,3,testWhatL4Uns//r1.s1.2.wav,1.0,what,unsyncopated,a,s1,rule,rule,L4,z,0.1682,4.0,1.0,1.1216,4 ,3.0,castellano,0.0,gallego,0.0,ingles,3.0,catalán,19.0,4.0,5.0,yes,no,yes,piano,5,guitarra,5,,,A medida que iban pasando los lenguajes me distraía más porque es una tarea bastante monótona. ,77.0,yes
21,2024-02-23_23h06.43.551,Unsyncopated_study3,s126,21.0,feminino,right,españa,castellano y gallego,Bachelor degree,no,no,A,1,what,L4,unsyncopated,s1,r2,21,Online_whatL4//c.bu.da20.1776.444.wav,ja,ci,da,sil,nu,po,ru,sil1,bu,de,sil2,['catch'],[2.4638000000118154],[2.4638000000118154],1.776,beat,0.6878000000118154,0.6878000000118154,"[""space""]",bu,3,testWhatL4Uns//cat_viol.r2.s2.0.wav,1.0,what,unsyncopated,b,s2,no_rule,cat,L4,m,4.118,3.0,1.0,1.0334,4 ,3.0,castellano,0.0,gallego,0.0,ingles,3.0,catalán,19.0,4.0,5.0,yes,no,yes,piano,5,guitarra,5,,,A medida que iban pasando los lenguajes me distraía más porque es una tarea bastante monótona. ,77.0,yes
22,2024-02-23_23h06.43.551,Unsyncopated_study3,s126,21.0,feminino,right,españa,castellano y gallego,Bachelor degree,no,no,A,1,what,L4,unsyncopated,s1,r1,22,Online_whatL4//c.bu.da23.none.none.wav,zi,pe,ru,sil,lo,re,po,sil2,ci,ña,sil1,['false alarm'],[1.0369000000357573],[1.0369000000357573],none,none,,,"[""space""]",bu,3,testWhatL4Uns//dep_viol.r1.s2.0.wav,1.0,what,unsyncopated,a,s2,no_rule,dep,L4,z,2.613,3.0,0.0,1.0839,4 ,3.0,castellano,0.0,gallego,0.0,ingles,3.0,catalán,19.0,4.0,5.0,yes,no,yes,piano,5,guitarra,5,,,A medida que iban pasando los lenguajes me distraía más porque es una tarea bastante monótona. ,77.0,yes
23,2024-02-23_23h06.43.551,Unsyncopated_study3,s126,21.0,feminino,right,españa,castellano y gallego,Bachelor degree,no,no,A,1,what,L4,unsyncopated,s1,r1,23,Online_whatL4//c.bu.da21.none.none.wav,zi,ci,re,sil2,lo,ñi,de,sil,ña,bo,sil1,['-'],,,none,none,,,,bu,3,testWhatL4Uns//cat_viol.r1.s2.0.wav,1.0,what,unsyncopated,a,s2,no_rule,cat,L4,z,0.5347,2.0,0.0,0.7296,4 ,3.0,castellano,0.0,gallego,0.0,ingles,3.0,catalán,19.0,4.0,5.0,yes,no,yes,piano,5,guitarra,5,,,A medida que iban pasando los lenguajes me distraía más porque es una tarea bastante monótona. ,77.0,yes
24,2024-02-23_23h06.43.551,Unsyncopated_study3,s126,21.0,feminino,right,españa,castellano y gallego,Bachelor degree,no,no,A,1,what,L4,unsyncopated,s2,r2,24,Online_whatL4//d.pe.po7.444.0.wav,po,bo,pe,sil,ja,ci,da,sil1,nu,ñi,sil2,['catch'],[1.1626999999880354],[1.1626999999880354],0.444,no_beat,0.7186999999880355,0.7186999999880355,"[""space""]",pe,4,testConjL2Syn//dep_viol.r1.s1.0.wav,2.0,conjunction_syn,syncopated,a,s1,no_rule,dep,L2,z,0.5094,6.0,0.0,2.4933,4 ,3.0,castellano,0.0,gallego,0.0,ingles,3.0,catalán,19.0,4.0,5.0,yes,no,yes,piano,5,guitarra,5,,,A medida que iban pasando los lenguajes me distraía más porque es una tarea bastante monótona. ,77.0,yes
25,2024-02-23_23h06.43.551,Unsyncopated_study3,s126,21.0,feminino,right,españa,castellano y gallego,Bachelor degree,no,no,A,1,what,L4,unsyncopated,s2,r1,25,Online_whatL4//d.pe.po4.1554.444.wav,bu,ci,po,sil2,zi,de,pe,sil,lo,bo,sil1,['catch'],[2.3380999999642427],[2.3380999999642427],1.554,no_beat,0.7840999999642426,0.7840999999642426,"[""space""]",pe,4,testConjL2Syn//r1.s2.2.wav,2.0,conjunction_syn,syncopated,a,s2,rule,rule,L2,z,1.1112,7.0,1.0,0.3669,4 ,3.0,castellano,0.0,gallego,0.0,ingles,3.0,catalán,19.0,4.0,5.0,yes,no,yes,piano,5,guitarra,5,,,A medida que iban pasando los lenguajes me distraía más porque es una tarea bastante monótona. ,77.0,yes
26,2024-02-23_23h06.43.551,Unsyncopated_study3,s126,21.0,feminino,right,españa,castellano y gallego,Bachelor degree,no,no,A,1,what,L4,unsyncopated,s2,r2,26,Online_whatL4//d.pe.po6.none.none.wav,ñi,bu,ru,sil,ja,ña,ci,sil1,nu,de,sil2,['-'],,,none,none,,,,pe,4,testConjL2Syn//r1.s1.0.wav,2.0,conjunction_syn,syncopated,a,s1,rule,rule,L2,z,0.7618,7.0,1.0,0.3686,4 ,3.0,castellano,0.0,gallego,0.0,ingles,3.0,catalán,19.0,4.0,5.0,yes,no,yes,piano,5,guitarra,5,,,A medida que iban pasando los lenguajes me distraía más porque es una tarea bastante monótona. ,77.0,yes
27,2024-02-23_23h06.43.551,Unsyncopated_study3,s126,21.0,feminino,right,españa,castellano y gallego,Bachelor degree,no,no,A,1,what,L4,unsyncopated,s2,r1,27,Online_whatL4//d.pe.po5.none.none.wav,bo,da,ña,sil,zi,bu,re,sil2,lo,de,sil1,['-'],,,none,none,,,,pe,4,testConjL2Syn//cat_viol.r1.s2.0.wav,2.0,conjunction_syn,syncopated,a,s2,no_rule,cat,L2,m,1.7167,6.0,1.0,0.367,4 ,3.0,castellano,0.0,gallego,0.0,ingles,3.0,catalán,19.0,4.0,5.0,yes,no,yes,piano,5,guitarra,5,,,A medida que iban pasando los lenguajes me distraía más porque es una tarea bastante monótona. ,77.0,yes
28,2024-02-23_23h06.43.551,Unsyncopated_study3,s126,21.0,feminino,right,españa,castellano y gallego,Bachelor degree,no,no,A,1,what,L4,unsyncopated,s2,r1,28,Online_whatL4//a.zi.lo17.1110.1998.wav,po,pe,ru,sil2,zi,ci,re,sil,lo,ña,sil1,"['false alarm', 'catch']","[0.9106999999880827, 2.63719999998807]",[2.63719999998807],1.998,no_beat,0.63919999998807,0.63919999998807,"[""space"",""space""]",lo,2,testConjL2Syn//dep_viol.r2.s1.0.wav,2.0,conjunction_syn,syncopated,b,s1,no_rule,dep,L2,m,1.2516,4.0,1.0,0.1335,4 ,3.0,castellano,0.0,gallego,0.0,ingles,3.0,catalán,19.0,4.0,5.0,yes,no,yes,piano,5,guitarra,5,,,A medida que iban pasando los lenguajes me distraía más porque es una tarea bastante monótona. ,77.0,yes
29,2024-02-23_23h06.43.551,Unsyncopated_study3,s126,21.0,feminino,right,españa,castellano y gallego,Bachelor degree,no,no,A,1,what,L4,unsyncopated,s1,r1,29,Online_whatL4//a.zi.lo16.0.888.wav,zi,ñi,bo,sil,lo,da,ña,sil1,ru,bu,sil2,['miss'],,,0.888,beat,,,,lo,2,testConjL2Syn//time_viol.r2.s1.0.wav,2.0,conjunction_syn,syncopated,b,s1,no_rule,time,L2,z,0.4245,6.0,0.0,0.6677,4 ,3.0,castellano,0.0,gallego,0.0,ingles,3.0,catalán,19.0,4.0,5.0,yes,no,yes,piano,5,guitarra,5,,,A medida que iban pasando los lenguajes me distraía más porque es una tarea bastante monótona. ,77.0,yes
30,2024-02-23_23h06.43.551,Unsyncopated_study3,s126,21.0,feminino,right,españa,castellano y gallego,Bachelor degree,no,no,A,1,what,L4,unsyncopated,s2,r1,30,Online_whatL4//a.zi.lo19.888.1776.wav,da,ru,re,sil,zi,ña,po,sil1,lo,ci,sil2,['catch'],[2.269399999976031],[2.269399999976031],1.776,beat,0.4933999999760308,0.4933999999760308,"[""space""]",lo,2,testConjL2Syn//r2.s1.1.wav,2.0,conjunction_syn,syncopated,b,s1,rule,rule,L2,z,3.1999,5.0,1.0,0.658,4 ,3.0,castellano,0.0,gallego,0.0,ingles,3.0,catalán,19.0,4.0,5.0,yes,no,yes,piano,5,guitarra,5,,,A medida que iban pasando los lenguajes me distraía más porque es una tarea bastante monótona. ,77.0,yes
31,2024-02-23_23h06.43.551,Unsyncopated_study3,s126,21.0,feminino,right,españa,castellano y gallego,Bachelor degree,no,no,A,1,what,L4,unsyncopated,s1,r2,31,Online_whatL4//a.zi.lo18.none.none.wav,ja,de,da,sil,nu,ña,re,sil2,ci,ru,sil1,['-'],,,none,none,,,,lo,2,testConjL2Syn//r2.s2.1.wav,2.0,conjunction_syn,syncopated,b,s2,rule,rule,L2,z,0.6841,7.0,1.0,0.585,4 ,3.0,castellano,0.0,gallego,0.0,ingles,3.0,catalán,19.0,4.0,5.0,yes,no,yes,piano,5,guitarra,5,,,A medida que iban pasando los lenguajes me distraía más porque es una tarea bastante monótona. ,77.0,yes
32,2024-02-23_23h06.43.551,Unsyncopated_study3,s126,21.0,feminino,right,españa,castellano y gallego,Bachelor degree,no,no,A,1,what,L4,unsyncopated,s1,r2,32,Online_whatL4//b.ja.nu18.0.1110.wav,ja,re,ru,sil2,nu,bu,bo,sil,po,de,sil1,['catch'],[0.6899000000357773],[0.6899000000357773],0.0,beat,0.6899000000357773,0.6899000000357773,"[""space""]",ja,1,testConjL2Syn//r1.s1.2.wav,2.0,conjunction_syn,syncopated,a,s1,rule,rule,L2,z,0.0773,7.0,1.0,0.4121,4 ,3.0,castellano,0.0,gallego,0.0,ingles,3.0,catalán,19.0,4.0,5.0,yes,no,yes,piano,5,guitarra,5,,,A medida que iban pasando los lenguajes me distraía más porque es una tarea bastante monótona. ,77.0,yes
33,2024-02-23_23h06.43.551,Unsyncopated_study3,s126,21.0,feminino,right,españa,castellano y gallego,Bachelor degree,no,no,A,1,what,L4,unsyncopated,s1,r1,33,Online_whatL4//b.ja.nu17.none.none.wav,zi,ñi,ña,sil2,lo,pe,ci,sil,po,re,sil1,['-'],,,none,none,,,,ja,1,testConjL2Syn//r2.s2.0.wav,2.0,conjunction_syn,syncopated,b,s2,rule,rule,L2,m,0.9171,4.0,0.0,1.2511,4 ,3.0,castellano,0.0,gallego,0.0,ingles,3.0,catalán,19.0,4.0,5.0,yes,no,yes,piano,5,guitarra,5,,,A medida que iban pasando los lenguajes me distraía más porque es una tarea bastante monótona. ,77.0,yes
34,2024-02-23_23h06.43.551,Unsyncopated_study3,s126,21.0,feminino,right,españa,castellano y gallego,Bachelor degree,no,no,A,1,what,L4,unsyncopated,s2,r1,34,Online_whatL4//b.ja.nu16.none.none.wav,bo,pe,po,sil,zi,ci,ñi,sil2,lo,ru,sil1,['-'],,,none,none,,,,ja,1,testConjL2Syn//dep_viol.r2.s2.0.wav,2.0,conjunction_syn,syncopated,b,s2,no_rule,dep,L2,m,1.8682,5.0,1.0,1.0167,4 ,3.0,castellano,0.0,gallego,0.0,ingles,3.0,catalán,19.0,4.0,5.0,yes,no,yes,piano,5,guitarra,5,,,A medida que iban pasando los lenguajes me distraía más porque es una tarea bastante monótona. ,77.0,yes
35,2024-02-23_23h06.43.551,Unsyncopated_study3,s126,21.0,feminino,right,españa,castellano y gallego,Bachelor degree,no,no,A,1,what,L4,unsyncopated,s1,r1,35,Online_whatL4//b.ja.nu19.none.none.wav,zi,pe,de,sil2,lo,bo,ru,sil,bu,po,sil1,['-'],,,none,none,,,,ja,1,testConjL2Syn//r2.s1.0.wav,2.0,conjunction_syn,syncopated,b,s1,rule,rule,L2,z,0.3033,6.0,1.0,0.5011,4 ,3.0,castellano,0.0,gallego,0.0,ingles,3.0,catalán,19.0,4.0,5.0,yes,no,yes,piano,5,guitarra,5,,,A medida que iban pasando los lenguajes me distraía más porque es una tarea bastante monótona. ,77.0,yes
36,2024-02-23_23h06.43.551,Unsyncopated_study3,s126,21.0,feminino,right,españa,castellano y gallego,Bachelor degree,no,no,A,1,what,L4,unsyncopated,s1,r1,36,Online_whatL4//b.ja.nu30.none.none.wav,zi,da,bu,sil2,lo,bo,po,sil,de,ñi,sil1,['-'],,,none,none,,,,ja,1,testConjL2Syn//r2.s2.2.wav,2.0,conjunction_syn,syncopated,b,s2,rule,rule,L2,z,0.5175,7.0,1.0,0.379,4 ,3.0,castellano,0.0,gallego,0.0,ingles,3.0,catalán,19.0,4.0,5.0,yes,no,yes,piano,5,guitarra,5,,,A medida que iban pasando los lenguajes me distraía más porque es una tarea bastante monótona. ,77.0,yes
37,2024-02-23_23h06.43.551,Unsyncopated_study3,s126,21.0,feminino,right,españa,castellano y gallego,Bachelor degree,no,no,A,1,what,L4,unsyncopated,s2,r1,37,Online_whatL4//b.ja.nu31.none.none.wav,bu,po,ru,sil2,zi,re,ña,sil,lo,de,sil1,['-'],,,none,none,,,,ja,1,testConjL2Syn//time_viol.r1.s2.0.wav,2.0,conjunction_syn,syncopated,a,s2,no_rule,time,L2,z,0.7203,5.0,0.0,0.6694,4 ,3.0,castellano,0.0,gallego,0.0,ingles,3.0,catalán,19.0,4.0,5.0,yes,no,yes,piano,5,guitarra,5,,,A medida que iban pasando los lenguajes me distraía más porque es una tarea bastante monótona. ,77.0,yes
38,2024-02-23_23h06.43.551,Unsyncopated_study3,s126,21.0,feminino,right,españa,castellano y gallego,Bachelor degree,no,no,A,1,what,L4,unsyncopated,s2,r1,38,Online_whatL4//b.ja.nu28.none.none.wav,de,ci,bu,sil,zi,bo,ña,sil2,lo,re,sil1,['-'],,,none,none,,,,ja,1,testConjL2Syn//dep_viol.r1.s2.0.wav,2.0,conjunction_syn,syncopated,a,s2,no_rule,dep,L2,z,0.0117,6.0,0.0,0.4841,4 ,3.0,castellano,0.0,gallego,0.0,ingles,3.0,catalán,19.0,4.0,5.0,yes,no,yes,piano,5,guitarra,5,,,A medida que iban pasando los lenguajes me distraía más porque es una tarea bastante monótona. ,77.0,yes
39,2024-02-23_23h06.43.551,Unsyncopated_study3,s126,21.0,feminino,right,españa,castellano y gallego,Bachelor degree,no,no,A,1,what,L4,unsyncopated,s1,r2,39,Online_whatL4//b.ja.nu29.0.888.wav,ja,de,da,sil,nu,ñi,ru,sil1,ci,ña,sil2,['catch'],[0.5306999999879736],[0.5306999999879736],0.0,beat,0.5306999999879736,0.5306999999879736,"[""space""]",ja,1,testConjL2Syn//cat_viol.r2.s1.0.wav,2.0,conjunction_syn,syncopated,b,s1,no_rule,cat,L2,m,0.2345,3.0,1.0,0.2843,4 ,3.0,castellano,0.0,gallego,0.0,ingles,3.0,catalán,19.0,4.0,5.0,yes,no,yes,piano,5,guitarra,5,,,A medida que iban pasando los lenguajes me distraía más porque es una tarea bastante monótona. ,77.0,yes
40,2024-02-23_23h06.43.551,Unsyncopated_study3,s126,21.0,feminino,right,españa,castellano y gallego,Bachelor degree,no,no,A,1,what,L4,unsyncopated,s2,r2,40,Online_whatL4//d.pe.po31.1554.0.wav,po,de,ña,sil2,ja,ci,pe,sil,nu,re,sil1,['catch'],[2.0871999999881155],[2.0871999999881155],1.554,no_beat,0.5331999999881154,0.5331999999881154,"[""space""]",pe,4,testConjL2Syn//time_viol.r1.s1.0.wav,2.0,conjunction_syn,syncopated,a,s1,no_rule,time,L2,z,2.65,2.0,0.0,0.5836,4 ,3.0,castellano,0.0,gallego,0.0,ingles,3.0,catalán,19.0,4.0,5.0,yes,no,yes,piano,5,guitarra,5,,,A medida que iban pasando los lenguajes me distraía más porque es una tarea bastante monótona. ,77.0,yes
41,2024-02-23_23h06.43.551,Unsyncopated_study3,s126,21.0,feminino,right,españa,castellano y gallego,Bachelor degree,no,no,A,1,what,L4,unsyncopated,s1,r2,41,Online_whatL4//d.pe.po29.222.444.wav,ja,pe,po,sil2,nu,de,ñi,sil,ru,da,sil1,['catch'],[0.88719999998807],[0.88719999998807],0.222,no_beat,0.66519999998807,0.66519999998807,"[""space""]",pe,4,testConjL2Syn//time_viol.r2.s2.0.wav,2.0,conjunction_syn,syncopated,b,s2,no_rule,time,L2,z,0.3377,5.0,0.0,0.3782,4 ,3.0,castellano,0.0,gallego,0.0,ingles,3.0,catalán,19.0,4.0,5.0,yes,no,yes,piano,5,guitarra,5,,,A medida que iban pasando los lenguajes me distraía más porque es una tarea bastante monótona. ,77.0,yes
42,2024-02-23_23h06.43.551,Unsyncopated_study3,s126,21.0,feminino,right,españa,castellano y gallego,Bachelor degree,no,no,A,1,what,L4,unsyncopated,s1,r1,42,Online_whatL4//d.pe.po30.none.none.wav,zi,ci,ña,sil,lo,re,bu,sil2,ñi,de,sil1,['-'],,,none,none,,,,pe,4,testConjL2Syn//cat_viol.r2.s2.0.wav,2.0,conjunction_syn,syncopated,b,s2,no_rule,cat,L2,z,0.0517,7.0,0.0,0.3178,4 ,3.0,castellano,0.0,gallego,0.0,ingles,3.0,catalán,19.0,4.0,5.0,yes,no,yes,piano,5,guitarra,5,,,A medida que iban pasando los lenguajes me distraía más porque es una tarea bastante monótona. ,77.0,yes
43,2024-02-23_23h06.43.551,Unsyncopated_study3,s126,21.0,feminino,right,españa,castellano y gallego,Bachelor degree,no,no,A,1,what,L4,unsyncopated,s1,r1,43,Online_whatL4//d.pe.po28.none.none.wav,zi,ci,bu,sil,lo,ru,ñi,sil1,de,da,sil2,['-'],,,none,none,,,,pe,4,testConjL2Syn//r1.s2.0.wav,2.0,conjunction_syn,syncopated,a,s2,rule,rule,L2,z,0.2192,6.0,1.0,0.3361,4 ,3.0,castellano,0.0,gallego,0.0,ingles,3.0,catalán,19.0,4.0,5.0,yes,no,yes,piano,5,guitarra,5,,,A medida que iban pasando los lenguajes me distraía más porque es una tarea bastante monótona. ,77.0,yes
44,2024-02-23_23h06.43.551,Unsyncopated_study3,s126,21.0,feminino,right,españa,castellano y gallego,Bachelor degree,no,no,A,1,what,L4,unsyncopated,s1,r1,44,Online_whatL4//b.ja.nu12.none.none.wav,zi,re,de,sil,lo,bu,pe,sil2,ru,ña,sil1,['-'],,,none,none,,,,ja,1,testConjL2Syn//r1.s2.1.wav,2.0,conjunction_syn,syncopated,a,s2,rule,rule,L2,z,0.5834,6.0,1.0,0.8339,4 ,3.0,castellano,0.0,gallego,0.0,ingles,3.0,catalán,19.0,4.0,5.0,yes,no,yes,piano,5,guitarra,5,,,A medida que iban pasando los lenguajes me distraía más porque es una tarea bastante monótona. ,77.0,yes
45,2024-02-23_23h06.43.551,Unsyncopated_study3,s126,21.0,feminino,right,españa,castellano y gallego,Bachelor degree,no,no,A,1,what,L4,unsyncopated,s2,r1,45,Online_whatL4//b.ja.nu13.none.none.wav,da,po,bu,sil,zi,ña,ru,sil2,lo,de,sil1,['-'],,,none,none,,,,ja,1,testConjL2Syn//r2.s1.2.wav,2.0,conjunction_syn,syncopated,b,s1,rule,rule,L2,m,1.7518,5.0,0.0,3.6006,4 ,3.0,castellano,0.0,gallego,0.0,ingles,3.0,catalán,19.0,4.0,5.0,yes,no,yes,piano,5,guitarra,5,,,A medida que iban pasando los lenguajes me distraía más porque es una tarea bastante monótona. ,77.0,yes
46,2024-02-23_23h06.43.551,Unsyncopated_study3,s126,21.0,feminino,right,españa,castellano y gallego,Bachelor degree,no,no,A,1,what,L4,unsyncopated,s1,r2,46,Online_whatL4//b.ja.nu15.0.1110.wav,ja,bu,bo,sil2,nu,pe,re,sil,ci,po,sil1,['catch'],[0.5676000000239583],[0.5676000000239583],0.0,beat,0.5676000000239583,0.5676000000239583,"[""space""]",ja,1,testConjL2Syn//r1.s1.1.wav,2.0,conjunction_syn,syncopated,a,s1,rule,rule,L2,m,1.118,5.0,0.0,1.2341,4 ,3.0,castellano,0.0,gallego,0.0,ingles,3.0,catalán,19.0,4.0,5.0,yes,no,yes,piano,5,guitarra,5,,,A medida que iban pasando los lenguajes me distraía más porque es una tarea bastante monótona. ,77.0,yes
47,2024-02-23_23h06.43.551,Unsyncopated_study3,s126,21.0,feminino,right,españa,castellano y gallego,Bachelor degree,no,no,A,1,what,L4,unsyncopated,s1,r1,47,Online_whatL4//b.ja.nu14.none.none.wav,zi,bo,re,sil2,lo,ña,po,sil,ru,ñi,sil1,['-'],,,none,none,,,,ja,1,testConjL2Syn//cat_viol.r1.s1.0.wav,2.0,conjunction_syn,syncopated,a,s1,no_rule,cat,L2,m,1.7843,7.0,1.0,0.8162,4 ,3.0,castellano,0.0,gallego,0.0,ingles,3.0,catalán,19.0,4.0,5.0,yes,no,yes,piano,5,guitarra,5,,,A medida que iban pasando los lenguajes me distraía más porque es una tarea bastante monótona. ,77.0,yes
48,2024-02-23_23h06.43.551,Unsyncopated_study3,s126,21.0,feminino,right,españa,castellano y gallego,Bachelor degree,no,no,A,1,what,L4,unsyncopated,s1,r1,48,Online_whatL4//b.ja.nu10.none.none.wav,zi,ñi,re,sil,lo,de,pe,sil1,ña,po,sil2,['-'],,,none,none,,,,ja,1,testWhenL1Uns//r2.s1.2.wav,3.0,when,unsyncopated,b,s1,rule,rule,L1,z,2.2958,6.0,1.0,0.5104,4 ,3.0,castellano,0.0,gallego,0.0,ingles,3.0,catalán,19.0,4.0,5.0,yes,no,yes,piano,5,guitarra,5,,,A medida que iban pasando los lenguajes me distraía más porque es una tarea bastante monótona. ,77.0,yes
49,2024-02-23_23h06.43.551,Unsyncopated_study3,s126,21.0,feminino,right,españa,castellano y gallego,Bachelor degree,no,no,A,1,what,L4,unsyncopated,s2,r1,49,Online_whatL4//b.ja.nu9.none.none.wav,re,ña,ru,sil2,zi,ñi,de,sil,lo,bo,sil1,['-'],,,none,none,,,,ja,1,testWhenL1Uns//time_viol.r1.s1.0.wav,3.0,when,unsyncopated,a,s1,no_rule,time,L1,z,1.2442,7.0,1.0,0.5866,4 ,3.0,castellano,0.0,gallego,0.0,ingles,3.0,catalán,19.0,4.0,5.0,yes,no,yes,piano,5,guitarra,5,,,A medida que iban pasando los lenguajes me distraía más porque es una tarea bastante monótona. ,77.0,yes
50,2024-02-23_23h06.43.551,Unsyncopated_study3,s126,21.0,feminino,right,españa,castellano y gallego,Bachelor degree,no,no,A,1,what,L4,unsyncopated,s2,r1,50,Online_whatL4//b.ja.nu8.none.none.wav,po,de,re,sil2,zi,ru,pe,sil,lo,bu,sil1,['-'],,,none,none,,,,ja,1,testWhenL1Uns//dep_viol.r1.s2.0.wav,3.0,when,unsyncopated,a,s2,no_rule,dep,L1,z,0.3842,6.0,1.0,0.5124,4 ,3.0,castellano,0.0,gallego,0.0,ingles,3.0,catalán,19.0,4.0,5.0,yes,no,yes,piano,5,guitarra,5,,,A medida que iban pasando los lenguajes me distraía más porque es una tarea bastante monótona. ,77.0,yes
51,2024-02-23_23h06.43.551,Unsyncopated_study3,s126,21.0,feminino,right,españa,castellano y gallego,Bachelor degree,no,no,A,1,what,L4,unsyncopated,s1,r2,51,Online_whatL4//b.ja.nu11.0.888.wav,ja,bo,ru,sil,nu,ñi,ci,sil2,pe,po,sil1,['catch'],[0.5028000000120301],[0.5028000000120301],0.0,beat,0.5028000000120301,0.5028000000120301,"[""space""]",ja,1,testWhenL1Uns//r1.s1.0.wav,3.0,when,unsyncopated,a,s1,rule,rule,L1,m,0.7778,4.0,0.0,0.235,4 ,3.0,castellano,0.0,gallego,0.0,ingles,3.0,catalán,19.0,4.0,5.0,yes,no,yes,piano,5,guitarra,5,,,A medida que iban pasando los lenguajes me distraía más porque es una tarea bastante monótona. ,77.0,yes
52,2024-02-23_23h06.43.551,Unsyncopated_study3,s126,21.0,feminino,right,españa,castellano y gallego,Bachelor degree,no,no,A,1,what,L4,unsyncopated,s2,r1,52,Online_whatL4//a.zi.lo14.888.1998.wav,ru,bo,re,sil,zi,de,po,sil2,lo,ñi,sil1,['miss'],,,1.998,no_beat,,,,lo,2,testWhenL1Uns//cat_viol.r1.s1.0.wav,3.0,when,unsyncopated,a,s1,no_rule,cat,L1,z,0.5167,6.0,1.0,0.5841,4 ,3.0,castellano,0.0,gallego,0.0,ingles,3.0,catalán,19.0,4.0,5.0,yes,no,yes,piano,5,guitarra,5,,,A medida que iban pasando los lenguajes me distraía más porque es una tarea bastante monótona. ,77.0,yes
53,2024-02-23_23h06.43.551,Unsyncopated_study3,s126,21.0,feminino,right,españa,castellano y gallego,Bachelor degree,no,no,A,1,what,L4,unsyncopated,s1,r2,53,Online_whatL4//a.zi.lo15.none.none.wav,ja,ru,po,sil2,nu,de,bo,sil,ña,bu,sil1,['-'],,,none,none,,,,lo,2,testWhenL1Uns//time_viol.r2.s2.0.wav,3.0,when,unsyncopated,b,s2,no_rule,time,L1,z,0.4351,7.0,1.0,0.2215,4 ,3.0,castellano,0.0,gallego,0.0,ingles,3.0,catalán,19.0,4.0,5.0,yes,no,yes,piano,5,guitarra,5,,,A medida que iban pasando los lenguajes me distraía más porque es una tarea bastante monótona. ,77.0,yes
54,2024-02-23_23h06.43.551,Unsyncopated_study3,s126,21.0,feminino,right,españa,castellano y gallego,Bachelor degree,no,no,A,1,what,L4,unsyncopated,s1,r1,54,Online_whatL4//a.zi.lo12.0.888.wav,zi,po,da,sil,lo,bo,de,sil1,ña,pe,sil2,['catch'],[1.5125000000000455],[1.5125000000000455],0.888,beat,0.6245000000000455,0.6245000000000455,"[""space""]",lo,2,testWhenL1Uns//dep_viol.r2.s1.0.wav,3.0,when,unsyncopated,b,s1,no_rule,dep,L1,m,0.9867,3.0,0.0,0.252,4 ,3.0,castellano,0.0,gallego,0.0,ingles,3.0,catalán,19.0,4.0,5.0,yes,no,yes,piano,5,guitarra,5,,,A medida que iban pasando los lenguajes me distraía más porque es una tarea bastante monótona. ,77.0,yes
55,2024-02-23_23h06.43.551,Unsyncopated_study3,s126,21.0,feminino,right,españa,castellano y gallego,Bachelor degree,no,no,A,1,what,L4,unsyncopated,s1,r1,55,Online_whatL4//a.zi.lo13.0.888.wav,zi,pe,da,sil,lo,ru,ci,sil2,re,bu,sil1,['catch'],[1.4993000000119991],[1.4993000000119991],0.888,beat,0.6113000000119991,0.6113000000119991,"[""space""]",lo,2,testWhenL1Uns//dep_viol.r2.s2.0.wav,3.0,when,unsyncopated,b,s2,no_rule,dep,L1,z,0.2707,5.0,1.0,0.4194,4 ,3.0,castellano,0.0,gallego,0.0,ingles,3.0,catalán,19.0,4.0,5.0,yes,no,yes,piano,5,guitarra,5,,,A medida que iban pasando los lenguajes me distraía más porque es una tarea bastante monótona. ,77.0,yes
56,2024-02-23_23h06.43.551,Unsyncopated_study3,s126,21.0,feminino,right,españa,castellano y gallego,Bachelor degree,no,no,A,1,what,L4,unsyncopated,s1,r2,56,Online_whatL4//c.bu.da28.none.none.wav,ja,ña,bo,sil,nu,pe,ñi,sil1,re,de,sil2,['-'],,,none,none,,,,bu,3,testWhenL1Uns//r2.s2.2.wav,3.0,when,unsyncopated,b,s2,rule,rule,L1,m,0.0293,5.0,0.0,1.1095,4 ,3.0,castellano,0.0,gallego,0.0,ingles,3.0,catalán,19.0,4.0,5.0,yes,no,yes,piano,5,guitarra,5,,,A medida que iban pasando los lenguajes me distraía más porque es una tarea bastante monótona. ,77.0,yes
57,2024-02-23_23h06.43.551,Unsyncopated_study3,s126,21.0,feminino,right,españa,castellano y gallego,Bachelor degree,no,no,A,1,what,L4,unsyncopated,s2,r2,57,Online_whatL4//c.bu.da31.222.444.wav,de,bu,da,sil,ja,ci,bo,sil2,nu,ña,sil1,['catch'],[1.2535999999640808],[1.2535999999640808],0.222,no_beat,1.0315999999640808,1.0315999999640808,"[""space""]",bu,3,testWhenL1Uns//cat_viol.r2.s2.0.wav,3.0,when,unsyncopated,b,s2,no_rule,cat,L1,m,0.5463,2.0,0.0,0.3834,4 ,3.0,castellano,0.0,gallego,0.0,ingles,3.0,catalán,19.0,4.0,5.0,yes,no,yes,piano,5,guitarra,5,,,A medida que iban pasando los lenguajes me distraía más porque es una tarea bastante monótona. ,77.0,yes
58,2024-02-23_23h06.43.551,Unsyncopated_study3,s126,21.0,feminino,right,españa,castellano y gallego,Bachelor degree,no,no,A,1,what,L4,unsyncopated,s2,r1,58,Online_whatL4//c.bu.da29.1110.0.wav,da,ru,pe,sil,zi,bu,ci,sil1,lo,de,sil2,['miss'],,,1.11,no_beat,,,,bu,3,testWhenL1Uns//cat_viol.r1.s2.0.wav,3.0,when,unsyncopated,a,s2,no_rule,cat,L1,z,0.5514,6.0,1.0,0.2673,4 ,3.0,castellano,0.0,gallego,0.0,ingles,3.0,catalán,19.0,4.0,5.0,yes,no,yes,piano,5,guitarra,5,,,A medida que iban pasando los lenguajes me distraía más porque es una tarea bastante monótona. ,77.0,yes
59,2024-02-23_23h06.43.551,Unsyncopated_study3,s126,21.0,feminino,right,españa,castellano y gallego,Bachelor degree,no,no,A,1,what,L4,unsyncopated,s2,r2,59,Online_whatL4//c.bu.da30.1554.0.wav,da,ña,re,sil2,ja,po,bu,sil,nu,ci,sil1,['catch'],[2.3214000000357373],[2.3214000000357373],1.554,no_beat,0.7674000000357373,0.7674000000357373,"[""space""]",bu,3,testWhenL1Uns//r2.s1.0.wav,3.0,when,unsyncopated,b,s1,rule,rule,L1,z,0.5503,7.0,1.0,0.2694,4 ,3.0,castellano,0.0,gallego,0.0,ingles,3.0,catalán,19.0,4.0,5.0,yes,no,yes,piano,5,guitarra,5,,,A medida que iban pasando los lenguajes me distraía más porque es una tarea bastante monótona. ,77.0,yes
60,2024-02-23_23h06.43.551,Unsyncopated_study3,s126,21.0,feminino,right,españa,castellano y gallego,Bachelor degree,no,no,A,1,what,L4,unsyncopated,s1,r1,60,Online_whatL4//b.ja.nu22.none.none.wav,zi,ñi,ci,sil,lo,da,pe,sil2,po,bo,sil1,['-'],,,none,none,,,,ja,1,testWhenL1Uns//cat_viol.r2.s1.0.wav,3.0,when,unsyncopated,b,s1,no_rule,cat,L1,m,0.718,2.0,0.0,0.1679,4 ,3.0,castellano,0.0,gallego,0.0,ingles,3.0,catalán,19.0,4.0,5.0,yes,no,yes,piano,5,guitarra,5,,,A medida que iban pasando los lenguajes me distraía más porque es una tarea bastante monótona. ,77.0,yes
61,2024-02-23_23h06.43.551,Unsyncopated_study3,s126,21.0,feminino,right,españa,castellano y gallego,Bachelor degree,no,no,A,1,what,L4,unsyncopated,s2,r2,61,Online_whatL4//b.ja.nu23.888.1776.wav,bo,ci,ña,sil,ja,de,ru,sil1,nu,pe,sil2,['catch'],[1.5193000000117536],[1.5193000000117536],0.888,beat,0.6313000000117536,0.6313000000117536,"[""space""]",ja,1,testWhenL1Uns//dep_viol.r1.s1.0.wav,3.0,when,unsyncopated,a,s1,no_rule,dep,L1,z,2.7784,6.0,1.0,0.2288,4 ,3.0,castellano,0.0,gallego,0.0,ingles,3.0,catalán,19.0,4.0,5.0,yes,no,yes,piano,5,guitarra,5,,,A medida que iban pasando los lenguajes me distraía más porque es una tarea bastante monótona. ,77.0,yes
62,2024-02-23_23h06.43.551,Unsyncopated_study3,s126,21.0,feminino,right,españa,castellano y gallego,Bachelor degree,no,no,A,1,what,L4,unsyncopated,s1,r2,62,Online_whatL4//b.ja.nu20.0.888.wav,ja,ñi,ci,sil,nu,bo,de,sil2,po,pe,sil1,['catch'],[0.7302000000474891],[0.7302000000474891],0.0,beat,0.7302000000474891,0.7302000000474891,"[""space""]",ja,1,testWhenL1Uns//r1.s2.1.wav,3.0,when,unsyncopated,a,s2,rule,rule,L1,z,0.8333,3.0,1.0,0.133,4 ,3.0,castellano,0.0,gallego,0.0,ingles,3.0,catalán,19.0,4.0,5.0,yes,no,yes,piano,5,guitarra,5,,,A medida que iban pasando los lenguajes me distraía más porque es una tarea bastante monótona. ,77.0,yes
63,2024-02-23_23h06.43.551,Unsyncopated_study3,s126,21.0,feminino,right,españa,castellano y gallego,Bachelor degree,no,no,A,1,what,L4,unsyncopated,s2,r2,63,Online_whatL4//b.ja.nu21.1110.1998.wav,po,da,ci,sil2,ja,bu,re,sil,nu,pe,sil1,['catch'],[1.620899999976018],[1.620899999976018],1.11,no_beat,0.510899999976018,0.510899999976018,"[""space""]",ja,1,testWhenL1Uns//r2.s1.1.wav,3.0,when,unsyncopated,b,s1,rule,rule,L1,m,0.9508,2.0,0.0,0.5168,4 ,3.0,castellano,0.0,gallego,0.0,ingles,3.0,catalán,19.0,4.0,5.0,yes,no,yes,piano,5,guitarra,5,,,A medida que iban pasando los lenguajes me distraía más porque es una tarea bastante monótona. ,77.0,yes
64,2024-02-23_23h06.43.551,Unsyncopated_study3,s126,21.0,feminino,right,españa,castellano y gallego,Bachelor degree,no,no,A,1,what,L4,unsyncopated,s2,r1,64,Online_whatL4//d.pe.po9.none.none.wav,ña,da,bo,sil,zi,ñi,ru,sil2,lo,de,sil1,['-'],,,none,none,,,,pe,4,testWhenL1Uns//r1.s1.2.wav,3.0,when,unsyncopated,a,s1,rule,rule,L1,z,0.4233,3.0,1.0,0.2502,4 ,3.0,castellano,0.0,gallego,0.0,ingles,3.0,catalán,19.0,4.0,5.0,yes,no,yes,piano,5,guitarra,5,,,A medida que iban pasando los lenguajes me distraía más porque es una tarea bastante monótona. ,77.0,yes
65,2024-02-23_23h06.43.551,Unsyncopated_study3,s126,21.0,feminino,right,españa,castellano y gallego,Bachelor degree,no,no,A,1,what,L4,unsyncopated,s1,r1,65,Online_whatL4//d.pe.po10.444.1332.wav,zi,ci,pe,sil,lo,bo,po,sil2,re,bu,sil1,['catch'],[1.0228000000120119],[1.0228000000120119],0.444,no_beat,0.5788000000120119,0.5788000000120119,"[""space""]",pe,4,testWhenL1Uns//r1.s1.1.wav,3.0,when,unsyncopated,a,s1,rule,rule,L1,z,1.3011,7.0,1.0,0.2837,4 ,3.0,castellano,0.0,gallego,0.0,ingles,3.0,catalán,19.0,4.0,5.0,yes,no,yes,piano,5,guitarra,5,,,A medida que iban pasando los lenguajes me distraía más porque es una tarea bastante monótona. ,77.0,yes
66,2024-02-23_23h06.43.551,Unsyncopated_study3,s126,21.0,feminino,right,españa,castellano y gallego,Bachelor degree,no,no,A,1,what,L4,unsyncopated,s1,r2,66,Online_whatL4//d.pe.po8.222.1332.wav,ja,pe,bu,sil,nu,ci,po,sil2,da,re,sil1,['catch'],[0.7725000000000364],[0.7725000000000364],0.222,no_beat,0.5505000000000364,0.5505000000000364,"[""space""]",pe,4,testWhenL1Uns//r1.s2.2.wav,3.0,when,unsyncopated,a,s2,rule,rule,L1,z,1.9642,6.0,1.0,0.3501,4 ,3.0,castellano,0.0,gallego,0.0,ingles,3.0,catalán,19.0,4.0,5.0,yes,no,yes,piano,5,guitarra,5,,,A medida que iban pasando los lenguajes me distraía más porque es una tarea bastante monótona. ,77.0,yes
67,2024-02-23_23h06.43.551,Unsyncopated_study3,s126,21.0,feminino,right,españa,castellano y gallego,Bachelor degree,no,no,A,1,what,L4,unsyncopated,s2,r1,67,Online_whatL4//d.pe.po11.222.1332.wav,re,pe,ñi,sil2,zi,po,bu,sil,lo,de,sil1,['catch'],[1.035899999976209],[1.035899999976209],0.222,no_beat,0.8138999999762091,0.8138999999762091,"[""space""]",pe,4,testWhenL1Uns//r2.s2.1.wav,3.0,when,unsyncopated,b,s2,rule,rule,L1,m,1.9304,5.0,0.0,1.0673,4 ,3.0,castellano,0.0,gallego,0.0,ingles,3.0,catalán,19.0,4.0,5.0,yes,no,yes,piano,5,guitarra,5,,,A medida que iban pasando los lenguajes me distraía más porque es una tarea bastante monótona. ,77.0,yes
68,2024-02-23_23h06.43.551,Unsyncopated_study3,s126,21.0,feminino,right,españa,castellano y gallego,Bachelor degree,no,no,A,1,what,L4,unsyncopated,s2,r1,68,Online_whatL4//c.bu.da14.222.444.wav,po,bu,da,sil,zi,pe,re,sil2,lo,ña,sil1,['miss'],,,0.222,no_beat,,,,bu,3,testWhenL1Uns//time_viol.r1.s2.0.wav,3.0,when,unsyncopated,a,s2,no_rule,time,L1,z,0.4339,5.0,1.0,0.1277,4 ,3.0,castellano,0.0,gallego,0.0,ingles,3.0,catalán,19.0,4.0,5.0,yes,no,yes,piano,5,guitarra,5,,,A medida que iban pasando los lenguajes me distraía más porque es una tarea bastante monótona. ,77.0,yes
69,2024-02-23_23h06.43.551,Unsyncopated_study3,s126,21.0,feminino,right,españa,castellano y gallego,Bachelor degree,no,no,A,1,what,L4,unsyncopated,s2,r2,69,Online_whatL4//c.bu.da12.none.none.wav,re,ñi,ña,sil,ja,po,bo,sil2,nu,de,sil1,['-'],,,none,none,,,,bu,3,testWhenL1Uns//r2.s2.0.wav,3.0,when,unsyncopated,b,s2,rule,rule,L1,z,1.0168,6.0,1.0,0.1597,4 ,3.0,castellano,0.0,gallego,0.0,ingles,3.0,catalán,19.0,4.0,5.0,yes,no,yes,piano,5,guitarra,5,,,A medida que iban pasando los lenguajes me distraía más porque es una tarea bastante monótona. ,77.0,yes
70,2024-02-23_23h06.43.551,Unsyncopated_study3,s126,21.0,feminino,right,españa,castellano y gallego,Bachelor degree,no,no,A,1,what,L4,unsyncopated,s1,r2,70,Online_whatL4//c.bu.da13.1332.444.wav,ja,de,da,sil,nu,ci,bu,sil1,ña,po,sil2,['catch'],[1.9041999999881227],[1.9041999999881227],1.332,no_beat,0.5721999999881227,0.5721999999881227,"[""space""]",bu,3,testWhenL1Uns//time_viol.r2.s1.0.wav,3.0,when,unsyncopated,b,s1,no_rule,time,L1,z,0.3343,4.0,1.0,0.2346,4 ,3.0,castellano,0.0,gallego,0.0,ingles,3.0,catalán,19.0,4.0,5.0,yes,no,yes,piano,5,guitarra,5,,,A medida que iban pasando los lenguajes me distraía más porque es una tarea bastante monótona. ,77.0,yes
71,2024-02-23_23h06.43.551,Unsyncopated_study3,s126,21.0,feminino,right,españa,castellano y gallego,Bachelor degree,no,no,A,1,what,L4,unsyncopated,s1,r1,71,Online_whatL4//c.bu.da15.1110.222.wav,zi,da,ru,sil,lo,bu,bo,sil1,ñi,ci,sil2,['catch'],[1.849199999988059],[1.849199999988059],1.11,no_beat,0.739199999988059,0.739199999988059,"[""space""]",bu,3,testWhenL1Uns//r1.s2.0.wav,3.0,when,unsyncopated,a,s2,rule,rule,L1,m,0.3001,7.0,0.0,0.2711,4 ,3.0,castellano,0.0,gallego,0.0,ingles,3.0,catalán,19.0,4.0,5.0,yes,no,yes,piano,5,guitarra,5,,,A medida que iban pasando los lenguajes me distraía más porque es una tarea bastante monótona. ,77.0,yes
72,2024-02-23_23h06.43.551,Unsyncopated_study3,s126,21.0,feminino,right,españa,castellano y gallego,Bachelor degree,no,no,A,1,what,L4,unsyncopated,s1,r2,72,Online_whatL4//a.zi.lo8.none.none.wav,ja,bo,ña,sil2,nu,po,pe,sil,de,ñi,sil1,['-'],,,none,none,,,,lo,2,testConjL3Uns//r1.s2.0.wav,4.0,conjunction_un,unsyncopated,a,s2,rule,rule,L3,z,0.7162,7.0,1.0,0.6113,4 ,3.0,castellano,0.0,gallego,0.0,ingles,3.0,catalán,19.0,4.0,5.0,yes,no,yes,piano,5,guitarra,5,,,A medida que iban pasando los lenguajes me distraía más porque es una tarea bastante monótona. ,77.0,yes
73,2024-02-23_23h06.43.551,Unsyncopated_study3,s126,21.0,feminino,right,españa,castellano y gallego,Bachelor degree,no,no,A,1,what,L4,unsyncopated,s2,r2,73,Online_whatL4//a.zi.lo9.none.none.wav,pe,bu,ñi,sil2,ja,re,de,sil,nu,ña,sil1,['-'],,,none,none,,,,lo,2,testConjL3Uns//r2.s2.0.wav,4.0,conjunction_un,unsyncopated,b,s2,rule,rule,L3,z,3.0052,5.0,1.0,0.8114,4 ,3.0,castellano,0.0,gallego,0.0,ingles,3.0,catalán,19.0,4.0,5.0,yes,no,yes,piano,5,guitarra,5,,,A medida que iban pasando los lenguajes me distraía más porque es una tarea bastante monótona. ,77.0,yes
74,2024-02-23_23h06.43.551,Unsyncopated_study3,s126,21.0,feminino,right,españa,castellano y gallego,Bachelor degree,no,no,A,1,what,L4,unsyncopated,s2,r2,74,Online_whatL4//a.zi.lo11.none.none.wav,ru,po,re,sil,ja,bo,ña,sil1,nu,de,sil2,['-'],,,none,none,,,,lo,2,testConjL3Uns//r1.s2.1.wav,4.0,conjunction_un,unsyncopated,a,s2,rule,rule,L3,z,0.1505,4.0,1.0,0.618,4 ,3.0,castellano,0.0,gallego,0.0,ingles,3.0,catalán,19.0,4.0,5.0,yes,no,yes,piano,5,guitarra,5,,,A medida que iban pasando los lenguajes me distraía más porque es una tarea bastante monótona. ,77.0,yes
75,2024-02-23_23h06.43.551,Unsyncopated_study3,s126,21.0,feminino,right,españa,castellano y gallego,Bachelor degree,no,no,A,1,what,L4,unsyncopated,s2,r1,75,Online_whatL4//a.zi.lo10.888.1776.wav,ña,ci,de,sil,zi,bu,re,sil1,lo,ñi,sil2,['catch'],[2.3738000000118973],[2.3738000000118973],1.776,beat,0.5978000000118973,0.5978000000118973,"[""space""]",lo,2,testConjL3Uns//cat_viol.r1.s1.0.wav,4.0,conjunction_un,unsyncopated,a,s1,no_rule,cat,L3,m,0.5187,6.0,1.0,0.2501,4 ,3.0,castellano,0.0,gallego,0.0,ingles,3.0,catalán,19.0,4.0,5.0,yes,no,yes,piano,5,guitarra,5,,,A medida que iban pasando los lenguajes me distraía más porque es una tarea bastante monótona. ,77.0,yes
76,2024-02-23_23h06.43.551,Unsyncopated_study3,s126,21.0,feminino,right,españa,castellano y gallego,Bachelor degree,no,no,A,1,what,L4,unsyncopated,s2,r2,76,Online_whatL4//b.ja.nu7.888.1776.wav,de,bo,re,sil,ja,ñi,bu,sil1,nu,da,sil2,['catch'],[1.5467000000478492],[1.5467000000478492],0.888,beat,0.6587000000478492,0.6587000000478492,"[""space""]",ja,1,testConjL3Uns//r2.s2.2.wav,4.0,conjunction_un,unsyncopated,b,s2,rule,rule,L3,z,0.0826,5.0,1.0,0.901,4 ,3.0,castellano,0.0,gallego,0.0,ingles,3.0,catalán,19.0,4.0,5.0,yes,no,yes,piano,5,guitarra,5,,,A medida que iban pasando los lenguajes me distraía más porque es una tarea bastante monótona. ,77.0,yes
77,2024-02-23_23h06.43.551,Unsyncopated_study3,s126,21.0,feminino,right,españa,castellano y gallego,Bachelor degree,no,no,A,1,what,L4,unsyncopated,s2,r2,77,Online_whatL4//b.ja.nu5.888.1776.wav,re,ña,ci,sil,ja,bu,ru,sil1,nu,de,sil2,['catch'],[1.5520999999644118],[1.5520999999644118],0.888,beat,0.6640999999644118,0.6640999999644118,"[""space""]",ja,1,testConjL3Uns//time_viol.r1.s1.0.wav,4.0,conjunction_un,unsyncopated,a,s1,no_rule,time,L3,m,1.7537,3.0,1.0,0.3524,4 ,3.0,castellano,0.0,gallego,0.0,ingles,3.0,catalán,19.0,4.0,5.0,yes,no,yes,piano,5,guitarra,5,,,A medida que iban pasando los lenguajes me distraía más porque es una tarea bastante monótona. ,77.0,yes
78,2024-02-23_23h06.43.551,Unsyncopated_study3,s126,21.0,feminino,right,españa,castellano y gallego,Bachelor degree,no,no,A,1,what,L4,unsyncopated,s1,r2,78,Online_whatL4//b.ja.nu4.0.888.wav,ja,po,ru,sil,nu,ñi,de,sil2,ña,bo,sil1,['catch'],[0.6387000000477201],[0.6387000000477201],0.0,beat,0.6387000000477201,0.6387000000477201,"[""space""]",ja,1,testConjL3Uns//cat_viol.r2.s1.0.wav,4.0,conjunction_un,unsyncopated,b,s1,no_rule,cat,L3,z,1.029,7.0,0.0,0.2673,4 ,3.0,castellano,0.0,gallego,0.0,ingles,3.0,catalán,19.0,4.0,5.0,yes,no,yes,piano,5,guitarra,5,,,A medida que iban pasando los lenguajes me distraía más porque es una tarea bastante monótona. ,77.0,yes
79,2024-02-23_23h06.43.551,Unsyncopated_study3,s126,21.0,feminino,right,españa,castellano y gallego,Bachelor degree,no,no,A,1,what,L4,unsyncopated,s2,r2,79,Online_whatL4//b.ja.nu6.888.1776.wav,bo,ña,bu,sil,ja,re,pe,sil1,nu,ci,sil2,['catch'],[1.836999999999989],[1.836999999999989],0.888,beat,0.9489999999999892,0.9489999999999892,"[""space""]",ja,1,testConjL3Uns//r2.s1.1.wav,4.0,conjunction_un,unsyncopated,b,s1,rule,rule,L3,z,0.3114,7.0,1.0,0.3549,4 ,3.0,castellano,0.0,gallego,0.0,ingles,3.0,catalán,19.0,4.0,5.0,yes,no,yes,piano,5,guitarra,5,,,A medida que iban pasando los lenguajes me distraía más porque es una tarea bastante monótona. ,77.0,yes
80,2024-02-23_23h06.43.551,Unsyncopated_study3,s126,21.0,feminino,right,españa,castellano y gallego,Bachelor degree,no,no,A,1,what,L4,unsyncopated,s1,r2,80,Online_whatL4//c.bu.da10.none.none.wav,ja,ru,ña,sil,nu,ci,ñi,sil2,pe,re,sil1,['-'],,,none,none,,,,bu,3,testConjL3Uns//r1.s2.2.wav,4.0,conjunction_un,unsyncopated,a,s2,rule,rule,L3,m,0.9345,5.0,0.0,0.2597,4 ,3.0,castellano,0.0,gallego,0.0,ingles,3.0,catalán,19.0,4.0,5.0,yes,no,yes,piano,5,guitarra,5,,,A medida que iban pasando los lenguajes me distraía más porque es una tarea bastante monótona. ,77.0,yes
81,2024-02-23_23h06.43.551,Unsyncopated_study3,s126,21.0,feminino,right,españa,castellano y gallego,Bachelor degree,no,no,A,1,what,L4,unsyncopated,s2,r2,81,Online_whatL4//c.bu.da9.none.none.wav,pe,po,de,sil,ja,ru,ña,sil2,nu,re,sil1,['-'],,,none,none,,,,bu,3,testConjL3Uns//dep_viol.r2.s2.0.wav,4.0,conjunction_un,unsyncopated,b,s2,no_rule,dep,L3,z,0.3348,3.0,0.0,0.9286,4 ,3.0,castellano,0.0,gallego,0.0,ingles,3.0,catalán,19.0,4.0,5.0,yes,no,yes,piano,5,guitarra,5,,,A medida que iban pasando los lenguajes me distraía más porque es una tarea bastante monótona. ,77.0,yes
82,2024-02-23_23h06.43.551,Unsyncopated_study3,s126,21.0,feminino,right,españa,castellano y gallego,Bachelor degree,no,no,A,1,what,L4,unsyncopated,s2,r2,82,Online_whatL4//c.bu.da11.none.none.wav,ci,bo,po,sil,ja,ña,pe,sil1,nu,re,sil2,['-'],,,none,none,,,,bu,3,testConjL3Uns//time_viol.r1.s2.0.wav,4.0,conjunction_un,unsyncopated,a,s2,no_rule,time,L3,m,0.3344,7.0,1.0,0.6434,4 ,3.0,castellano,0.0,gallego,0.0,ingles,3.0,catalán,19.0,4.0,5.0,yes,no,yes,piano,5,guitarra,5,,,A medida que iban pasando los lenguajes me distraía más porque es una tarea bastante monótona. ,77.0,yes
83,2024-02-23_23h06.43.551,Unsyncopated_study3,s126,21.0,feminino,right,españa,castellano y gallego,Bachelor degree,no,no,A,1,what,L4,unsyncopated,s2,r1,83,Online_whatL4//c.bu.da8.none.none.wav,ña,ñi,pe,sil,zi,ci,re,sil1,lo,de,sil2,['-'],,,none,none,,,,bu,3,testConjL3Uns//dep_viol.r1.s2.0.wav,4.0,conjunction_un,unsyncopated,a,s2,no_rule,dep,L3,m,2.5875,5.0,1.0,0.2879,4 ,3.0,castellano,0.0,gallego,0.0,ingles,3.0,catalán,19.0,4.0,5.0,yes,no,yes,piano,5,guitarra,5,,,A medida que iban pasando los lenguajes me distraía más porque es una tarea bastante monótona. ,77.0,yes
84,2024-02-23_23h06.43.551,Unsyncopated_study3,s126,21.0,feminino,right,españa,castellano y gallego,Bachelor degree,no,no,A,1,what,L4,unsyncopated,s1,r2,84,Online_whatL4//c.bu.da25.1110.1332.wav,ja,bo,ci,sil,nu,bu,da,sil2,ru,de,sil1,['catch'],[1.7153999999761709],[1.7153999999761709],1.11,no_beat,0.6053999999761708,0.6053999999761708,"[""space""]",bu,3,testConjL3Uns//cat_viol.r1.s2.0.wav,4.0,conjunction_un,unsyncopated,a,s2,no_rule,cat,L3,z,0.1713,7.0,0.0,0.4027,4 ,3.0,castellano,0.0,gallego,0.0,ingles,3.0,catalán,19.0,4.0,5.0,yes,no,yes,piano,5,guitarra,5,,,A medida que iban pasando los lenguajes me distraía más porque es una tarea bastante monótona. ,77.0,yes
85,2024-02-23_23h06.43.551,Unsyncopated_study3,s126,21.0,feminino,right,españa,castellano y gallego,Bachelor degree,no,no,A,1,what,L4,unsyncopated,s1,r1,85,Online_whatL4//c.bu.da27.1998.222.wav,zi,da,ñi,sil2,lo,ña,pe,sil,bu,ru,sil1,['catch'],[2.552500000000009],[2.552500000000009],1.998,no_beat,0.5545000000000091,0.5545000000000091,"[""space""]",bu,3,testConjL3Uns//cat_viol.r2.s2.0.wav,4.0,conjunction_un,unsyncopated,b,s2,no_rule,cat,L3,z,0.87,5.0,0.0,0.4339,4 ,3.0,castellano,0.0,gallego,0.0,ingles,3.0,catalán,19.0,4.0,5.0,yes,no,yes,piano,5,guitarra,5,,,A medida que iban pasando los lenguajes me distraía más porque es una tarea bastante monótona. ,77.0,yes
86,2024-02-23_23h06.43.551,Unsyncopated_study3,s126,21.0,feminino,right,españa,castellano y gallego,Bachelor degree,no,no,A,1,what,L4,unsyncopated,s2,r1,86,Online_whatL4//c.bu.da24.1332.0.wav,da,bo,ña,sil,zi,po,bu,sil2,lo,re,sil1,['catch'],[2.4026999999880445],[2.4026999999880445],1.332,no_beat,1.0706999999880444,1.0706999999880444,"[""space""]",bu,3,testConjL3Uns//r2.s1.0.wav,4.0,conjunction_un,unsyncopated,b,s1,rule,rule,L3,z,0.3072,5.0,1.0,0.3529,4 ,3.0,castellano,0.0,gallego,0.0,ingles,3.0,catalán,19.0,4.0,5.0,yes,no,yes,piano,5,guitarra,5,,,A medida que iban pasando los lenguajes me distraía más porque es una tarea bastante monótona. ,77.0,yes
87,2024-02-23_23h06.43.551,Unsyncopated_study3,s126,21.0,feminino,right,españa,castellano y gallego,Bachelor degree,no,no,A,1,what,L4,unsyncopated,s2,r1,87,Online_whatL4//c.bu.da26.none.none.wav,de,pe,ña,sil,zi,ci,ñi,sil1,lo,re,sil2,['-'],,,none,none,,,,bu,3,testConjL3Uns//r2.s1.2.wav,4.0,conjunction_un,unsyncopated,b,s1,rule,rule,L3,m,0.395,6.0,0.0,0.7676,4 ,3.0,castellano,0.0,gallego,0.0,ingles,3.0,catalán,19.0,4.0,5.0,yes,no,yes,piano,5,guitarra,5,,,A medida que iban pasando los lenguajes me distraía más porque es una tarea bastante monótona. ,77.0,yes
88,2024-02-23_23h06.43.551,Unsyncopated_study3,s126,21.0,feminino,right,españa,castellano y gallego,Bachelor degree,no,no,A,1,what,L4,unsyncopated,s1,r2,88,Online_whatL4//a.zi.lo26.none.none.wav,ja,pe,ru,sil2,nu,bu,de,sil,ñi,ña,sil1,['-'],,,none,none,,,,lo,2,testConjL3Uns//r1.s1.1.wav,4.0,conjunction_un,unsyncopated,a,s1,rule,rule,L3,z,0.7287,3.0,1.0,0.767,4 ,3.0,castellano,0.0,gallego,0.0,ingles,3.0,catalán,19.0,4.0,5.0,yes,no,yes,piano,5,guitarra,5,,,A medida que iban pasando los lenguajes me distraía más porque es una tarea bastante monótona. ,77.0,yes
89,2024-02-23_23h06.43.551,Unsyncopated_study3,s126,21.0,feminino,right,españa,castellano y gallego,Bachelor degree,no,no,A,1,what,L4,unsyncopated,s2,r1,89,Online_whatL4//a.zi.lo24.888.1998.wav,ñi,bu,ña,sil,zi,pe,ru,sil2,lo,ci,sil1,['catch'],[2.571200000047611],[2.571200000047611],1.998,no_beat,0.573200000047611,0.573200000047611,"[""space""]",lo,2,testConjL3Uns//r2.s2.1.wav,4.0,conjunction_un,unsyncopated,b,s2,rule,rule,L3,m,0.8436,3.0,0.0,0.589,4 ,3.0,castellano,0.0,gallego,0.0,ingles,3.0,catalán,19.0,4.0,5.0,yes,no,yes,piano,5,guitarra,5,,,A medida que iban pasando los lenguajes me distraía más porque es una tarea bastante monótona. ,77.0,yes
90,2024-02-23_23h06.43.551,Unsyncopated_study3,s126,21.0,feminino,right,españa,castellano y gallego,Bachelor degree,no,no,A,1,what,L4,unsyncopated,s1,r2,90,Online_whatL4//a.zi.lo27.none.none.wav,ja,da,re,sil,nu,ña,po,sil2,ru,ci,sil1,['-'],,,none,none,,,,lo,2,testConjL3Uns//r1.s1.2.wav,4.0,conjunction_un,unsyncopated,a,s1,rule,rule,L3,z,0.313,6.0,1.0,0.3602,4 ,3.0,castellano,0.0,gallego,0.0,ingles,3.0,catalán,19.0,4.0,5.0,yes,no,yes,piano,5,guitarra,5,,,A medida que iban pasando los lenguajes me distraía más porque es una tarea bastante monótona. ,77.0,yes
91,2024-02-23_23h06.43.551,Unsyncopated_study3,s126,21.0,feminino,right,españa,castellano y gallego,Bachelor degree,no,no,A,1,what,L4,unsyncopated,s2,r2,91,Online_whatL4//a.zi.lo25.none.none.wav,ña,ci,bu,sil2,ja,po,bo,sil,nu,pe,sil1,['-'],,,none,none,,,,lo,2,testConjL3Uns//dep_viol.r2.s1.0.wav,4.0,conjunction_un,unsyncopated,b,s1,no_rule,dep,L3,z,0.0108,7.0,0.0,0.4175,4 ,3.0,castellano,0.0,gallego,0.0,ingles,3.0,catalán,19.0,4.0,5.0,yes,no,yes,piano,5,guitarra,5,,,A medida que iban pasando los lenguajes me distraía más porque es una tarea bastante monótona. ,77.0,yes
92,2024-02-23_23h06.43.551,Unsyncopated_study3,s126,21.0,feminino,right,españa,castellano y gallego,Bachelor degree,no,no,A,1,what,L4,unsyncopated,s1,r2,92,Online_whatL4//a.zi.lo5.none.none.wav,ja,ci,bo,sil,nu,da,bu,sil1,ña,ru,sil2,['-'],,,none,none,,,,lo,2,testConjL3Uns//time_viol.r2.s1.0.wav,4.0,conjunction_un,unsyncopated,b,s1,no_rule,time,L3,z,0.6413,4.0,0.0,0.2791,4 ,3.0,castellano,0.0,gallego,0.0,ingles,3.0,catalán,19.0,4.0,5.0,yes,no,yes,piano,5,guitarra,5,,,A medida que iban pasando los lenguajes me distraía más porque es una tarea bastante monótona. ,77.0,yes
93,2024-02-23_23h06.43.551,Unsyncopated_study3,s126,21.0,feminino,right,españa,castellano y gallego,Bachelor degree,no,no,A,1,what,L4,unsyncopated,s2,r1,93,Online_whatL4//a.zi.lo4.1110.1998.wav,ci,ñi,po,sil2,zi,bo,re,sil,lo,pe,sil1,['catch'],[2.606600000023718],[2.606600000023718],1.998,no_beat,0.6086000000237182,0.6086000000237182,"[""space""]",lo,2,testConjL3Uns//dep_viol.r1.s1.0.wav,4.0,conjunction_un,unsyncopated,a,s1,no_rule,dep,L3,m,2.2854,3.0,1.0,0.36,4 ,3.0,castellano,0.0,gallego,0.0,ingles,3.0,catalán,19.0,4.0,5.0,yes,no,yes,piano,5,guitarra,5,,,A medida que iban pasando los lenguajes me distraía más porque es una tarea bastante monótona. ,77.0,yes
94,2024-02-23_23h06.43.551,Unsyncopated_study3,s126,21.0,feminino,right,españa,castellano y gallego,Bachelor degree,no,no,A,1,what,L4,unsyncopated,s2,r2,94,Online_whatL4//a.zi.lo7.none.none.wav,po,ci,ñi,sil2,ja,bo,de,sil,nu,ña,sil1,['-'],,,none,none,,,,lo,2,testConjL3Uns//r1.s1.0.wav,4.0,conjunction_un,unsyncopated,a,s1,rule,rule,L3,m,0.3269,7.0,0.0,0.2842,4 ,3.0,castellano,0.0,gallego,0.0,ingles,3.0,catalán,19.0,4.0,5.0,yes,no,yes,piano,5,guitarra,5,,,A medida que iban pasando los lenguajes me distraía más porque es una tarea bastante monótona. ,77.0,yes
95,2024-02-23_23h06.43.551,Unsyncopated_study3,s126,21.0,feminino,right,españa,castellano y gallego,Bachelor degree,no,no,A,1,what,L4,unsyncopated,s2,r1,95,Online_whatL4//a.zi.lo6.1110.1998.wav,pe,de,ñi,sil2,zi,ru,bu,sil,lo,ci,sil1,['catch'],[2.5048999999760326],[2.5048999999760326],1.998,no_beat,0.5068999999760326,0.5068999999760326,"[""space""]",lo,2,testConjL3Uns//time_viol.r2.s2.0.wav,4.0,conjunction_un,unsyncopated,b,s2,no_rule,time,L3,z,0.0662,6.0,0.0,0.3669,4 ,3.0,castellano,0.0,gallego,0.0,ingles,3.0,catalán,19.0,4.0,5.0,yes,no,yes,piano,5,guitarra,5,,,A medida que iban pasando los lenguajes me distraía más porque es una tarea bastante monótona. ,77.0,yes
96,2024-02-23_23h06.43.551,Unsyncopated_study3,s126,21.0,feminino,right,españa,castellano y gallego,Bachelor degree,no,no,A,1,what,L4,unsyncopated,s1,r2,96,Online_whatL4//d.pe.po19.1776.222.wav,ja,po,re,sil,nu,ru,ña,sil1,pe,da,sil2,['catch'],[2.446699999988141],[2.446699999988141],1.776,beat,0.6706999999881409,0.6706999999881409,"[""space""]",pe,4,,,,,,,,,,,,,,,4 ,3.0,castellano,0.0,gallego,0.0,ingles,3.0,catalán,19.0,4.0,5.0,yes,no,yes,piano,5,guitarra,5,,,A medida que iban pasando los lenguajes me distraía más porque es una tarea bastante monótona. ,77.0,yes
97,2024-02-23_23h06.43.551,Unsyncopated_study3,s126,21.0,feminino,right,españa,castellano y gallego,Bachelor degree,no,no,A,1,what,L4,unsyncopated,s1,r2,97,Online_whatL4//d.pe.po17.none.none.wav,ja,re,bo,sil,nu,ci,ru,sil1,ñi,da,sil2,['-'],,,none,none,,,,pe,4,,,,,,,,,,,,,,,4 ,3.0,castellano,0.0,gallego,0.0,ingles,3.0,catalán,19.0,4.0,5.0,yes,no,yes,piano,5,guitarra,5,,,A medida que iban pasando los lenguajes me distraía más porque es una tarea bastante monótona. ,77.0,yes
98,2024-02-23_23h06.43.551,Unsyncopated_study3,s126,21.0,feminino,right,españa,castellano y gallego,Bachelor degree,no,no,A,1,what,L4,unsyncopated,s2,r2,98,Online_whatL4//d.pe.po16.none.none.wav,ci,bo,ña,sil2,ja,bu,da,sil,nu,ru,sil1,['-'],,,none,none,,,,pe,4,,,,,,,,,,,,,,,4 ,3.0,castellano,0.0,gallego,0.0,ingles,3.0,catalán,19.0,4.0,5.0,yes,no,yes,piano,5,guitarra,5,,,A medida que iban pasando los lenguajes me distraía más porque es una tarea bastante monótona. ,77.0,yes
99,2024-02-23_23h06.43.551,Unsyncopated_study3,s126,21.0,feminino,right,españa,castellano y gallego,Bachelor degree,no,no,A,1,what,L4,unsyncopated,s2,r2,99,Online_whatL4//d.pe.po18.0.444.wav,pe,de,po,sil,ja,ña,ñi,sil1,nu,re,sil2,['catch'],[1.094000000000051],[1.094000000000051],0.0,beat,1.094000000000051,1.094000000000051,"[""space""]",pe,4,,,,,,,,,,,,,,,4 ,3.0,castellano,0.0,gallego,0.0,ingles,3.0,catalán,19.0,4.0,5.0,yes,no,yes,piano,5,guitarra,5,,,A medida que iban pasando los lenguajes me distraía más porque es una tarea bastante monótona. ,77.0,yes
100,2024-02-23_23h06.43.551,Unsyncopated_study3,s126,21.0,feminino,right,españa,castellano y gallego,Bachelor degree,no,no,A,1,what,L4,unsyncopated,s1,r2,100,Online_whatL4//d.pe.po21.none.none.wav,ja,ru,de,sil,nu,da,ñi,sil2,ña,re,sil1,['-'],,,none,none,,,,pe,4,,,,,,,,,,,,,,,4 ,3.0,castellano,0.0,gallego,0.0,ingles,3.0,catalán,19.0,4.0,5.0,yes,no,yes,piano,5,guitarra,5,,,A medida que iban pasando los lenguajes me distraía más porque es una tarea bastante monótona. ,77.0,yes
101,2024-02-23_23h06.43.551,Unsyncopated_study3,s126,21.0,feminino,right,españa,castellano y gallego,Bachelor degree,no,no,A,1,what,L4,unsyncopated,s2,r1,101,Online_whatL4//d.pe.po23.none.none.wav,ña,ñi,de,sil2,zi,ru,bu,sil,lo,ci,sil1,['-'],,,none,none,,,,pe,4,,,,,,,,,,,,,,,4 ,3.0,castellano,0.0,gallego,0.0,ingles,3.0,catalán,19.0,4.0,5.0,yes,no,yes,piano,5,guitarra,5,,,A medida que iban pasando los lenguajes me distraía más porque es una tarea bastante monótona. ,77.0,yes
102,2024-02-23_23h06.43.551,Unsyncopated_study3,s126,21.0,feminino,right,españa,castellano y gallego,Bachelor degree,no,no,A,1,what,L4,unsyncopated,s1,r1,102,Online_whatL4//d.pe.po20.444.1332.wav,zi,ña,pe,sil,lo,re,po,sil2,de,ci,sil1,['catch'],[1.10269999998809],[1.10269999998809],0.444,no_beat,0.65869999998809,0.65869999998809,"[""space""]",pe,4,,,,,,,,,,,,,,,4 ,3.0,castellano,0.0,gallego,0.0,ingles,3.0,catalán,19.0,4.0,5.0,yes,no,yes,piano,5,guitarra,5,,,A medida que iban pasando los lenguajes me distraía más porque es una tarea bastante monótona. ,77.0,yes
103,2024-02-23_23h06.43.551,Unsyncopated_study3,s126,21.0,feminino,right,españa,castellano y gallego,Bachelor degree,no,no,A,1,what,L4,unsyncopated,s1,r1,103,Online_whatL4//d.pe.po22.1332.222.wav,zi,po,bu,sil,lo,ci,pe,sil2,ñi,bo,sil1,['miss'],,,1.332,no_beat,,,,pe,4,,,,,,,,,,,,,,,4 ,3.0,castellano,0.0,gallego,0.0,ingles,3.0,catalán,19.0,4.0,5.0,yes,no,yes,piano,5,guitarra,5,,,A medida que iban pasando los lenguajes me distraía más porque es una tarea bastante monótona. ,77.0,yes
104,2024-02-23_23h06.43.551,Unsyncopated_study3,s126,21.0,feminino,right,españa,castellano y gallego,Bachelor degree,no,no,A,1,what,L4,unsyncopated,s2,r1,104,Online_whatL4//a.zi.lo3.888.1998.wav,po,re,ñi,sil,zi,de,ña,sil2,lo,ci,sil1,['catch'],[2.5750999999640953],[2.5750999999640953],1.998,no_beat,0.5770999999640953,0.5770999999640953,"[""space""]",lo,2,,,,,,,,,,,,,,,4 ,3.0,castellano,0.0,gallego,0.0,ingles,3.0,catalán,19.0,4.0,5.0,yes,no,yes,piano,5,guitarra,5,,,A medida que iban pasando los lenguajes me distraía más porque es una tarea bastante monótona. ,77.0,yes
105,2024-02-23_23h06.43.551,Unsyncopated_study3,s126,21.0,feminino,right,españa,castellano y gallego,Bachelor degree,no,no,A,1,what,L4,unsyncopated,s1,r1,105,Online_whatL4//a.zi.lo1.0.888.wav,zi,ru,po,sil,lo,ñi,da,sil2,de,bu,sil1,['catch'],[1.7278999999762163],[1.7278999999762163],0.888,beat,0.8398999999762163,0.8398999999762163,"[""space""]",lo,2,,,,,,,,,,,,,,,4 ,3.0,castellano,0.0,gallego,0.0,ingles,3.0,catalán,19.0,4.0,5.0,yes,no,yes,piano,5,guitarra,5,,,A medida que iban pasando los lenguajes me distraía más porque es una tarea bastante monótona. ,77.0,yes
106,2024-02-23_23h06.43.551,Unsyncopated_study3,s126,21.0,feminino,right,españa,castellano y gallego,Bachelor degree,no,no,A,1,what,L4,unsyncopated,s1,r1,106,Online_whatL4//a.zi.lo2.0.1110.wav,zi,ñi,po,sil2,lo,re,bu,sil,de,da,sil1,['catch'],[1.1524999999999181],[1.1524999999999181],1.11,no_beat,0.042499999999918,0.042499999999918,"[""space""]",lo,2,,,,,,,,,,,,,,,4 ,3.0,castellano,0.0,gallego,0.0,ingles,3.0,catalán,19.0,4.0,5.0,yes,no,yes,piano,5,guitarra,5,,,A medida que iban pasando los lenguajes me distraía más porque es una tarea bastante monótona. ,77.0,yes
107,2024-02-23_23h06.43.551,Unsyncopated_study3,s126,21.0,feminino,right,españa,castellano y gallego,Bachelor degree,no,no,A,1,what,L4,unsyncopated,s1,r1,107,Online_whatL4//a.zi.lo0.0.888.wav,zi,re,bo,sil,lo,pe,ña,sil1,de,bu,sil2,['catch'],[1.9528000000120755],[1.9528000000120755],0.888,beat,1.0648000000120756,1.0648000000120756,"[""space""]",lo,2,,,,,,,,,,,,,,,4 ,3.0,castellano,0.0,gallego,0.0,ingles,3.0,catalán,19.0,4.0,5.0,yes,no,yes,piano,5,guitarra,5,,,A medida que iban pasando los lenguajes me distraía más porque es una tarea bastante monótona. ,77.0,yes
108,2024-02-23_23h06.43.551,Unsyncopated_study3,s126,21.0,feminino,right,españa,castellano y gallego,Bachelor degree,no,no,A,1,what,L4,unsyncopated,s1,r2,108,Online_whatL4//d.pe.po12.none.none.wav,ja,ci,da,sil,nu,re,ñi,sil2,ña,bu,sil1,['-'],,,none,none,,,,pe,4,,,,,,,,,,,,,,,4 ,3.0,castellano,0.0,gallego,0.0,ingles,3.0,catalán,19.0,4.0,5.0,yes,no,yes,piano,5,guitarra,5,,,A medida que iban pasando los lenguajes me distraía más porque es una tarea bastante monótona. ,77.0,yes
109,2024-02-23_23h06.43.551,Unsyncopated_study3,s126,21.0,feminino,right,españa,castellano y gallego,Bachelor degree,no,no,A,1,what,L4,unsyncopated,s2,r2,109,Online_whatL4//d.pe.po15.none.none.wav,ña,ci,bo,sil2,ja,bu,ñi,sil,nu,ru,sil1,['-'],,,none,none,,,,pe,4,,,,,,,,,,,,,,,4 ,3.0,castellano,0.0,gallego,0.0,ingles,3.0,catalán,19.0,4.0,5.0,yes,no,yes,piano,5,guitarra,5,,,A medida que iban pasando los lenguajes me distraía más porque es una tarea bastante monótona. ,77.0,yes
110,2024-02-23_23h06.43.551,Unsyncopated_study3,s126,21.0,feminino,right,españa,castellano y gallego,Bachelor degree,no,no,A,1,what,L4,unsyncopated,s1,r2,110,Online_whatL4//d.pe.po13.none.none.wav,ja,da,bo,sil2,nu,ru,re,sil,ci,bu,sil1,['-'],,,none,none,,,,pe,4,,,,,,,,,,,,,,,4 ,3.0,castellano,0.0,gallego,0.0,ingles,3.0,catalán,19.0,4.0,5.0,yes,no,yes,piano,5,guitarra,5,,,A medida que iban pasando los lenguajes me distraía más porque es una tarea bastante monótona. ,77.0,yes
111,2024-02-23_23h06.43.551,Unsyncopated_study3,s126,21.0,feminino,right,españa,castellano y gallego,Bachelor degree,no,no,A,1,what,L4,unsyncopated,s2,r1,111,Online_whatL4//d.pe.po14.222.444.wav,ñi,pe,po,sil2,zi,ña,da,sil,lo,ci,sil1,['catch'],[0.7360000000001037],[0.7360000000001037],0.222,no_beat,0.5140000000001037,0.5140000000001037,"[""space""]",pe,4,,,,,,,,,,,,,,,4 ,3.0,castellano,0.0,gallego,0.0,ingles,3.0,catalán,19.0,4.0,5.0,yes,no,yes,piano,5,guitarra,5,,,A medida que iban pasando los lenguajes me distraía más porque es una tarea bastante monótona. ,77.0,yes
112,2024-02-23_23h06.43.551,Unsyncopated_study3,s126,21.0,feminino,right,españa,castellano y gallego,Bachelor degree,no,no,A,1,what,L4,unsyncopated,s1,r1,112,Online_whatL4//a.zi.lo30.0.1110.wav,zi,da,ña,sil2,lo,bo,pe,sil,bu,re,sil1,['catch'],[1.889899999976251],[1.889899999976251],1.11,no_beat,0.7798999999762508,0.7798999999762508,"[""space""]",lo,2,,,,,,,,,,,,,,,4 ,3.0,castellano,0.0,gallego,0.0,ingles,3.0,catalán,19.0,4.0,5.0,yes,no,yes,piano,5,guitarra,5,,,A medida que iban pasando los lenguajes me distraía más porque es una tarea bastante monótona. ,77.0,yes
113,2024-02-23_23h06.43.551,Unsyncopated_study3,s126,21.0,feminino,right,españa,castellano y gallego,Bachelor degree,no,no,A,1,what,L4,unsyncopated,s2,r2,113,Online_whatL4//a.zi.lo28.none.none.wav,ñi,re,de,sil,ja,bu,po,sil1,nu,ci,sil2,['-'],,,none,none,,,,lo,2,,,,,,,,,,,,,,,4 ,3.0,castellano,0.0,gallego,0.0,ingles,3.0,catalán,19.0,4.0,5.0,yes,no,yes,piano,5,guitarra,5,,,A medida que iban pasando los lenguajes me distraía más porque es una tarea bastante monótona. ,77.0,yes
114,2024-02-23_23h06.43.551,Unsyncopated_study3,s126,21.0,feminino,right,españa,castellano y gallego,Bachelor degree,no,no,A,1,what,L4,unsyncopated,s1,r2,114,Online_whatL4//a.zi.lo31.none.none.wav,ja,da,ru,sil,nu,pe,bu,sil2,ñi,ña,sil1,['-'],,,none,none,,,,lo,2,,,,,,,,,,,,,,,4 ,3.0,castellano,0.0,gallego,0.0,ingles,3.0,catalán,19.0,4.0,5.0,yes,no,yes,piano,5,guitarra,5,,,A medida que iban pasando los lenguajes me distraía más porque es una tarea bastante monótona. ,77.0,yes
115,2024-02-23_23h06.43.551,Unsyncopated_study3,s126,21.0,feminino,right,españa,castellano y gallego,Bachelor degree,no,no,A,1,what,L4,unsyncopated,s1,r2,115,Online_whatL4//a.zi.lo29.none.none.wav,ja,da,pe,sil,nu,ña,ru,sil1,ñi,ci,sil2,['-'],,,none,none,,,,lo,2,,,,,,,,,,,,,,,4 ,3.0,castellano,0.0,gallego,0.0,ingles,3.0,catalán,19.0,4.0,5.0,yes,no,yes,piano,5,guitarra,5,,,A medida que iban pasando los lenguajes me distraía más porque es una tarea bastante monótona. ,77.0,yes
116,2024-02-23_23h06.43.551,Unsyncopated_study3,s126,21.0,feminino,right,españa,castellano y gallego,Bachelor degree,no,no,A,1,what,L4,unsyncopated,s1,r1,116,Online_whatL4//d.pe.po25.222.444.wav,zi,pe,po,sil2,lo,re,bu,sil,de,ru,sil1,['catch'],[0.9125999999641863],[0.9125999999641863],0.222,no_beat,0.6905999999641863,0.6905999999641863,"[""space""]",pe,4,,,,,,,,,,,,,,,4 ,3.0,castellano,0.0,gallego,0.0,ingles,3.0,catalán,19.0,4.0,5.0,yes,no,yes,piano,5,guitarra,5,,,A medida que iban pasando los lenguajes me distraía más porque es una tarea bastante monótona. ,77.0,yes
117,2024-02-23_23h06.43.551,Unsyncopated_study3,s126,21.0,feminino,right,españa,castellano y gallego,Bachelor degree,no,no,A,1,what,L4,unsyncopated,s2,r2,117,Online_whatL4//d.pe.po27.222.444.wav,re,pe,po,sil2,ja,ña,ru,sil,nu,ci,sil1,['catch'],[0.8203999999761891],[0.8203999999761891],0.222,no_beat,0.5983999999761891,0.5983999999761891,"[""space""]",pe,4,,,,,,,,,,,,,,,4 ,3.0,castellano,0.0,gallego,0.0,ingles,3.0,catalán,19.0,4.0,5.0,yes,no,yes,piano,5,guitarra,5,,,A medida que iban pasando los lenguajes me distraía más porque es una tarea bastante monótona. ,77.0,yes
118,2024-02-23_23h06.43.551,Unsyncopated_study3,s126,21.0,feminino,right,españa,castellano y gallego,Bachelor degree,no,no,A,1,what,L4,unsyncopated,s1,r2,118,Online_whatL4//d.pe.po24.1110.1332.wav,ja,re,bu,sil,nu,pe,po,sil2,ci,ru,sil1,['catch'],[1.839100000023791],[1.839100000023791],1.11,no_beat,0.7291000000237908,0.7291000000237908,"[""space""]",pe,4,,,,,,,,,,,,,,,4 ,3.0,castellano,0.0,gallego,0.0,ingles,3.0,catalán,19.0,4.0,5.0,yes,no,yes,piano,5,guitarra,5,,,A medida que iban pasando los lenguajes me distraía más porque es una tarea bastante monótona. ,77.0,yes
119,2024-02-23_23h06.43.551,Unsyncopated_study3,s126,21.0,feminino,right,españa,castellano y gallego,Bachelor degree,no,no,A,1,what,L4,unsyncopated,s2,r2,119,Online_whatL4//d.pe.po26.none.none.wav,ru,da,ñi,sil,ja,bu,re,sil1,nu,de,sil2,['false alarm'],[2.4326000000239674],[2.4326000000239674],none,none,,,"[""space""]",pe,4,,,,,,,,,,,,,,,4 ,3.0,castellano,0.0,gallego,0.0,ingles,3.0,catalán,19.0,4.0,5.0,yes,no,yes,piano,5,guitarra,5,,,A medida que iban pasando los lenguajes me distraía más porque es una tarea bastante monótona. ,77.0,yes
120,2024-02-23_23h06.43.551,Unsyncopated_study3,s126,21.0,feminino,right,españa,castellano y gallego,Bachelor degree,no,no,A,1,what,L4,unsyncopated,s2,r1,120,Online_whatL4//d.pe.po1.none.none.wav,ña,ru,de,sil,zi,da,bo,sil1,lo,ñi,sil2,['-'],,,none,none,,,,pe,4,,,,,,,,,,,,,,,4 ,3.0,castellano,0.0,gallego,0.0,ingles,3.0,catalán,19.0,4.0,5.0,yes,no,yes,piano,5,guitarra,5,,,A medida que iban pasando los lenguajes me distraía más porque es una tarea bastante monótona. ,77.0,yes
121,2024-02-23_23h06.43.551,Unsyncopated_study3,s126,21.0,feminino,right,españa,castellano y gallego,Bachelor degree,no,no,A,1,what,L4,unsyncopated,s1,r1,121,Online_whatL4//d.pe.po3.none.none.wav,zi,ci,ñi,sil2,lo,de,ña,sil,da,bu,sil1,['-'],,,none,none,,,,pe,4,,,,,,,,,,,,,,,4 ,3.0,castellano,0.0,gallego,0.0,ingles,3.0,catalán,19.0,4.0,5.0,yes,no,yes,piano,5,guitarra,5,,,A medida que iban pasando los lenguajes me distraía más porque es una tarea bastante monótona. ,77.0,yes
122,2024-02-23_23h06.43.551,Unsyncopated_study3,s126,21.0,feminino,right,españa,castellano y gallego,Bachelor degree,no,no,A,1,what,L4,unsyncopated,s2,r1,122,Online_whatL4//d.pe.po0.0.222.wav,pe,po,ru,sil,zi,ña,ñi,sil1,lo,bo,sil2,['catch'],[0.6666999999881682],[0.6666999999881682],0.0,beat,0.6666999999881682,0.6666999999881682,"[""space""]",pe,4,,,,,,,,,,,,,,,4 ,3.0,castellano,0.0,gallego,0.0,ingles,3.0,catalán,19.0,4.0,5.0,yes,no,yes,piano,5,guitarra,5,,,A medida que iban pasando los lenguajes me distraía más porque es una tarea bastante monótona. ,77.0,yes
123,2024-02-23_23h06.43.551,Unsyncopated_study3,s126,21.0,feminino,right,españa,castellano y gallego,Bachelor degree,no,no,A,1,what,L4,unsyncopated,s1,r1,123,Online_whatL4//d.pe.po2.none.none.wav,zi,de,ña,sil,lo,bo,da,sil2,re,ñi,sil1,['-'],,,none,none,,,,pe,4,,,,,,,,,,,,,,,4 ,3.0,castellano,0.0,gallego,0.0,ingles,3.0,catalán,19.0,4.0,5.0,yes,no,yes,piano,5,guitarra,5,,,A medida que iban pasando los lenguajes me distraía más porque es una tarea bastante monótona. ,77.0,yes
124,2024-02-23_23h06.43.551,Unsyncopated_study3,s126,21.0,feminino,right,españa,castellano y gallego,Bachelor degree,no,no,A,1,what,L4,unsyncopated,s1,r1,124,Online_whatL4//b.ja.nu3.none.none.wav,zi,ci,pe,sil,lo,da,bu,sil2,bo,re,sil1,['-'],,,none,none,,,,ja,1,,,,,,,,,,,,,,,4 ,3.0,castellano,0.0,gallego,0.0,ingles,3.0,catalán,19.0,4.0,5.0,yes,no,yes,piano,5,guitarra,5,,,A medida que iban pasando los lenguajes me distraía más porque es una tarea bastante monótona. ,77.0,yes
125,2024-02-23_23h06.43.551,Unsyncopated_study3,s126,21.0,feminino,right,españa,castellano y gallego,Bachelor degree,no,no,A,1,what,L4,unsyncopated,s1,r2,125,Online_whatL4//b.ja.nu0.0.888.wav,ja,pe,da,sil,nu,po,ña,sil1,ci,de,sil2,['catch'],[0.5115000000000691],[0.5115000000000691],0.0,beat,0.5115000000000691,0.5115000000000691,"[""space""]",ja,1,,,,,,,,,,,,,,,4 ,3.0,castellano,0.0,gallego,0.0,ingles,3.0,catalán,19.0,4.0,5.0,yes,no,yes,piano,5,guitarra,5,,,A medida que iban pasando los lenguajes me distraía más porque es una tarea bastante monótona. ,77.0,yes
126,2024-02-23_23h06.43.551,Unsyncopated_study3,s126,21.0,feminino,right,españa,castellano y gallego,Bachelor degree,no,no,A,1,what,L4,unsyncopated,s2,r1,126,Online_whatL4//b.ja.nu2.none.none.wav,ña,re,ru,sil2,zi,de,bu,sil,lo,pe,sil1,['-'],,,none,none,,,,ja,1,,,,,,,,,,,,,,,4 ,3.0,castellano,0.0,gallego,0.0,ingles,3.0,catalán,19.0,4.0,5.0,yes,no,yes,piano,5,guitarra,5,,,A medida que iban pasando los lenguajes me distraía más porque es una tarea bastante monótona. ,77.0,yes
127,2024-02-23_23h06.43.551,Unsyncopated_study3,s126,21.0,feminino,right,españa,castellano y gallego,Bachelor degree,no,no,A,1,what,L4,unsyncopated,s2,r1,127,Online_whatL4//b.ja.nu1.none.none.wav,pe,re,de,sil2,zi,ñi,da,sil,lo,po,sil1,['-'],,,none,none,,,,ja,1,,,,,,,,,,,,,,,4 ,3.0,castellano,0.0,gallego,0.0,ingles,3.0,catalán,19.0,4.0,5.0,yes,no,yes,piano,5,guitarra,5,,,A medida que iban pasando los lenguajes me distraía más porque es una tarea bastante monótona. ,77.0,yes
128,2024-02-23_23h06.43.551,Unsyncopated_study3,s126,21.0,feminino,right,españa,castellano y gallego,Bachelor degree,no,no,A,2,conjunction_syn,L2,syncopated,s2,r2,0,Online_conjL2_syn//c.cha.me9.none.none.wav,ño,mi,to,fe,sil,si,te,ra,sil1,ñu,sil2,['-'],,,none,none,,,,cha,3,,,,,,,,,,,,,,,4 ,3.0,castellano,0.0,gallego,0.0,ingles,3.0,catalán,19.0,4.0,5.0,yes,no,yes,piano,5,guitarra,5,,,A medida que iban pasando los lenguajes me distraía más porque es una tarea bastante monótona. ,77.0,yes
129,2024-02-23_23h06.43.551,Unsyncopated_study3,s126,21.0,feminino,right,españa,castellano y gallego,Bachelor degree,no,no,A,2,conjunction_syn,L2,syncopated,s1,r1,1,Online_conjL2_syn//c.cha.me10.none.none.wav,go,te,bi,du,sil,si,ño,ba,sil1,to,sil2,['-'],,,none,none,,,,cha,3,,,,,,,,,,,,,,,4 ,3.0,castellano,0.0,gallego,0.0,ingles,3.0,catalán,19.0,4.0,5.0,yes,no,yes,piano,5,guitarra,5,,,A medida que iban pasando los lenguajes me distraía más porque es una tarea bastante monótona. ,77.0,yes
130,2024-02-23_23h06.43.551,Unsyncopated_study3,s126,21.0,feminino,right,españa,castellano y gallego,Bachelor degree,no,no,A,2,conjunction_syn,L2,syncopated,s2,r2,2,Online_conjL2_syn//c.cha.me8.222.1110.wav,si,cha,to,fe,sil,me,ba,ra,sil1,ñu,sil2,['catch'],[0.7873000000122374],[0.7873000000122374],0.222,no_beat,0.5653000000122375,0.5653000000122375,"[""space""]",cha,3,,,,,,,,,,,,,,,4 ,3.0,castellano,0.0,gallego,0.0,ingles,3.0,catalán,19.0,4.0,5.0,yes,no,yes,piano,5,guitarra,5,,,A medida que iban pasando los lenguajes me distraía más porque es una tarea bastante monótona. ,77.0,yes
131,2024-02-23_23h06.43.551,Unsyncopated_study3,s126,21.0,feminino,right,españa,castellano y gallego,Bachelor degree,no,no,A,2,conjunction_syn,L2,syncopated,s1,r2,3,Online_conjL2_syn//c.cha.me11.1554.1110.wav,fe,mi,ñu,ra,sil,me,si,cha,sil1,ba,sil2,['catch'],[2.102199999987988],[2.102199999987988],1.554,no_beat,0.5481999999879881,0.5481999999879881,"[""space""]",cha,3,,,,,,,,,,,,,,,4 ,3.0,castellano,0.0,gallego,0.0,ingles,3.0,catalán,19.0,4.0,5.0,yes,no,yes,piano,5,guitarra,5,,,A medida que iban pasando los lenguajes me distraía más porque es una tarea bastante monótona. ,77.0,yes
132,2024-02-23_23h06.43.551,Unsyncopated_study3,s126,21.0,feminino,right,españa,castellano y gallego,Bachelor degree,no,no,A,2,conjunction_syn,L2,syncopated,s1,r2,4,Online_conjL2_syn//a.go.du5.none.none.wav,fe,ñu,cha,ra,sil,te,ño,ba,sil1,si,sil2,['-'],,,none,none,,,,du,2,,,,,,,,,,,,,,,4 ,3.0,castellano,0.0,gallego,0.0,ingles,3.0,catalán,19.0,4.0,5.0,yes,no,yes,piano,5,guitarra,5,,,A medida que iban pasando los lenguajes me distraía más porque es una tarea bastante monótona. ,77.0,yes
133,2024-02-23_23h06.43.551,Unsyncopated_study3,s126,21.0,feminino,right,españa,castellano y gallego,Bachelor degree,no,no,A,2,conjunction_syn,L2,syncopated,s1,r2,5,Online_conjL2_syn//a.go.du7.none.none.wav,fe,mi,ñu,ra,sil,ño,ba,me,sil1,su,sil2,['-'],,,none,none,,,,du,2,,,,,,,,,,,,,,,4 ,3.0,castellano,0.0,gallego,0.0,ingles,3.0,catalán,19.0,4.0,5.0,yes,no,yes,piano,5,guitarra,5,,,A medida que iban pasando los lenguajes me distraía más porque es una tarea bastante monótona. ,77.0,yes
134,2024-02-23_23h06.43.551,Unsyncopated_study3,s126,21.0,feminino,right,españa,castellano y gallego,Bachelor degree,no,no,A,2,conjunction_syn,L2,syncopated,s1,r1,6,Online_conjL2_syn//a.go.du6.0.666.wav,go,bi,to,du,sil,me,su,ba,sil1,te,sil2,['catch'],[1.7539999999999054],[1.7539999999999054],0.666,no_beat,1.0879999999999057,1.0879999999999057,"[""space""]",du,2,,,,,,,,,,,,,,,4 ,3.0,castellano,0.0,gallego,0.0,ingles,3.0,catalán,19.0,4.0,5.0,yes,no,yes,piano,5,guitarra,5,,,A medida que iban pasando los lenguajes me distraía más porque es una tarea bastante monótona. ,77.0,yes
135,2024-02-23_23h06.43.551,Unsyncopated_study3,s126,21.0,feminino,right,españa,castellano y gallego,Bachelor degree,no,no,A,2,conjunction_syn,L2,syncopated,s2,r1,7,Online_conjL2_syn//a.go.du4.666.1554.wav,mi,si,te,go,sil,ño,to,du,sil1,ñu,sil2,['catch'],[2.138599999964299],[2.138599999964299],1.554,no_beat,0.584599999964299,0.584599999964299,"[""space""]",du,2,,,,,,,,,,,,,,,4 ,3.0,castellano,0.0,gallego,0.0,ingles,3.0,catalán,19.0,4.0,5.0,yes,no,yes,piano,5,guitarra,5,,,A medida que iban pasando los lenguajes me distraía más porque es una tarea bastante monótona. ,77.0,yes
136,2024-02-23_23h06.43.551,Unsyncopated_study3,s126,21.0,feminino,right,españa,castellano y gallego,Bachelor degree,no,no,A,2,conjunction_syn,L2,syncopated,s2,r2,8,Online_conjL2_syn//a.go.du8.none.none.wav,to,bi,te,fe,sil,ñu,mi,ra,sil1,si,sil2,['-'],,,none,none,,,,du,2,,,,,,,,,,,,,,,4 ,3.0,castellano,0.0,gallego,0.0,ingles,3.0,catalán,19.0,4.0,5.0,yes,no,yes,piano,5,guitarra,5,,,A medida que iban pasando los lenguajes me distraía más porque es una tarea bastante monótona. ,77.0,yes
137,2024-02-23_23h06.43.551,Unsyncopated_study3,s126,21.0,feminino,right,españa,castellano y gallego,Bachelor degree,no,no,A,2,conjunction_syn,L2,syncopated,s1,r2,9,Online_conjL2_syn//a.go.du10.none.none.wav,fe,cha,ba,ra,sil,ño,si,me,sil1,mi,sil2,['-'],,,none,none,,,,du,2,,,,,,,,,,,,,,,4 ,3.0,castellano,0.0,gallego,0.0,ingles,3.0,catalán,19.0,4.0,5.0,yes,no,yes,piano,5,guitarra,5,,,A medida que iban pasando los lenguajes me distraía más porque es una tarea bastante monótona. ,77.0,yes
138,2024-02-23_23h06.43.551,Unsyncopated_study3,s126,21.0,feminino,right,españa,castellano y gallego,Bachelor degree,no,no,A,2,conjunction_syn,L2,syncopated,s2,r2,10,Online_conjL2_syn//a.go.du11.none.none.wav,to,te,ba,fe,sil,cha,me,ra,sil1,bi,sil2,['-'],,,none,none,,,,du,2,,,,,,,,,,,,,,,4 ,3.0,castellano,0.0,gallego,0.0,ingles,3.0,catalán,19.0,4.0,5.0,yes,no,yes,piano,5,guitarra,5,,,A medida que iban pasando los lenguajes me distraía más porque es una tarea bastante monótona. ,77.0,yes
139,2024-02-23_23h06.43.551,Unsyncopated_study3,s126,21.0,feminino,right,españa,castellano y gallego,Bachelor degree,no,no,A,2,conjunction_syn,L2,syncopated,s1,r2,11,Online_conjL2_syn//a.go.du9.none.none.wav,fe,ñu,bi,ra,sil,to,te,si,sil1,su,sil2,['false alarm'],[0.956399999975929],[0.956399999975929],none,none,,,"[""space""]",du,2,,,,,,,,,,,,,,,4 ,3.0,castellano,0.0,gallego,0.0,ingles,3.0,catalán,19.0,4.0,5.0,yes,no,yes,piano,5,guitarra,5,,,A medida que iban pasando los lenguajes me distraía más porque es una tarea bastante monótona. ,77.0,yes
140,2024-02-23_23h06.43.551,Unsyncopated_study3,s126,21.0,feminino,right,españa,castellano y gallego,Bachelor degree,no,no,A,2,conjunction_syn,L2,syncopated,s1,r2,12,Online_conjL2_syn//c.cha.me21.222.444.wav,fe,cha,me,ra,sil,su,ñu,to,sil1,mi,sil2,['catch'],[0.9007000000474363],[0.9007000000474363],0.222,no_beat,0.6787000000474364,0.6787000000474364,"[""space""]",cha,3,,,,,,,,,,,,,,,4 ,3.0,castellano,0.0,gallego,0.0,ingles,3.0,catalán,19.0,4.0,5.0,yes,no,yes,piano,5,guitarra,5,,,A medida que iban pasando los lenguajes me distraía más porque es una tarea bastante monótona. ,77.0,yes
141,2024-02-23_23h06.43.551,Unsyncopated_study3,s126,21.0,feminino,right,españa,castellano y gallego,Bachelor degree,no,no,A,2,conjunction_syn,L2,syncopated,s1,r1,13,Online_conjL2_syn//c.cha.me20.none.none.wav,go,mi,si,du,sil,bi,ba,ño,sil1,su,sil2,['-'],,,none,none,,,,cha,3,,,,,,,,,,,,,,,4 ,3.0,castellano,0.0,gallego,0.0,ingles,3.0,catalán,19.0,4.0,5.0,yes,no,yes,piano,5,guitarra,5,,,A medida que iban pasando los lenguajes me distraía más porque es una tarea bastante monótona. ,77.0,yes
142,2024-02-23_23h06.43.551,Unsyncopated_study3,s126,21.0,feminino,right,españa,castellano y gallego,Bachelor degree,no,no,A,2,conjunction_syn,L2,syncopated,s1,r1,14,Online_conjL2_syn//c.cha.me22.1554.444.wav,go,bi,me,du,sil,to,ba,cha,sil1,ño,sil2,['catch'],[2.1878999999762527],[2.1878999999762527],1.554,no_beat,0.6338999999762527,0.6338999999762527,"[""space""]",cha,3,,,,,,,,,,,,,,,4 ,3.0,castellano,0.0,gallego,0.0,ingles,3.0,catalán,19.0,4.0,5.0,yes,no,yes,piano,5,guitarra,5,,,A medida que iban pasando los lenguajes me distraía más porque es una tarea bastante monótona. ,77.0,yes
143,2024-02-23_23h06.43.551,Unsyncopated_study3,s126,21.0,feminino,right,españa,castellano y gallego,Bachelor degree,no,no,A,2,conjunction_syn,L2,syncopated,s1,r2,15,Online_conjL2_syn//c.cha.me23.none.none.wav,fe,bi,ñu,ra,sil,ba,su,to,sil1,te,sil2,['-'],,,none,none,,,,cha,3,,,,,,,,,,,,,,,4 ,3.0,castellano,0.0,gallego,0.0,ingles,3.0,catalán,19.0,4.0,5.0,yes,no,yes,piano,5,guitarra,5,,,A medida que iban pasando los lenguajes me distraía más porque es una tarea bastante monótona. ,77.0,yes
144,2024-02-23_23h06.43.551,Unsyncopated_study3,s126,21.0,feminino,right,españa,castellano y gallego,Bachelor degree,no,no,A,2,conjunction_syn,L2,syncopated,s1,r2,16,Online_conjL2_syn//b.fe.ra13.0.666.wav,fe,si,ba,ra,sil,bi,su,ñu,sil1,ño,sil2,['catch'],[0.6293000000118809],[0.6293000000118809],0.0,beat,0.6293000000118809,0.6293000000118809,"[""space""]",fe,1,,,,,,,,,,,,,,,4 ,3.0,castellano,0.0,gallego,0.0,ingles,3.0,catalán,19.0,4.0,5.0,yes,no,yes,piano,5,guitarra,5,,,A medida que iban pasando los lenguajes me distraía más porque es una tarea bastante monótona. ,77.0,yes
145,2024-02-23_23h06.43.551,Unsyncopated_study3,s126,21.0,feminino,right,españa,castellano y gallego,Bachelor degree,no,no,A,2,conjunction_syn,L2,syncopated,s1,r1,17,Online_conjL2_syn//b.fe.ra15.none.none.wav,go,ñu,to,du,sil,bi,cha,ño,sil1,ba,sil2,['-'],,,none,none,,,,fe,1,,,,,,,,,,,,,,,4 ,3.0,castellano,0.0,gallego,0.0,ingles,3.0,catalán,19.0,4.0,5.0,yes,no,yes,piano,5,guitarra,5,,,A medida que iban pasando los lenguajes me distraía más porque es una tarea bastante monótona. ,77.0,yes
146,2024-02-23_23h06.43.551,Unsyncopated_study3,s126,21.0,feminino,right,españa,castellano y gallego,Bachelor degree,no,no,A,2,conjunction_syn,L2,syncopated,s2,r1,18,Online_conjL2_syn//b.fe.ra12.none.none.wav,ba,to,mi,go,sil,bi,si,du,sil1,me,sil2,['-'],,,none,none,,,,fe,1,,,,,,,,,,,,,,,4 ,3.0,castellano,0.0,gallego,0.0,ingles,3.0,catalán,19.0,4.0,5.0,yes,no,yes,piano,5,guitarra,5,,,A medida que iban pasando los lenguajes me distraía más porque es una tarea bastante monótona. ,77.0,yes
147,2024-02-23_23h06.43.551,Unsyncopated_study3,s126,21.0,feminino,right,españa,castellano y gallego,Bachelor degree,no,no,A,2,conjunction_syn,L2,syncopated,s1,r2,19,Online_conjL2_syn//b.fe.ra14.0.666.wav,fe,te,ño,ra,sil,su,cha,bi,sil1,to,sil2,['catch'],[0.6678999999762709],[0.6678999999762709],0.0,beat,0.6678999999762709,0.6678999999762709,"[""space""]",fe,1,,,,,,,,,,,,,,,4 ,3.0,castellano,0.0,gallego,0.0,ingles,3.0,catalán,19.0,4.0,5.0,yes,no,yes,piano,5,guitarra,5,,,A medida que iban pasando los lenguajes me distraía más porque es una tarea bastante monótona. ,77.0,yes
148,2024-02-23_23h06.43.551,Unsyncopated_study3,s126,21.0,feminino,right,españa,castellano y gallego,Bachelor degree,no,no,A,2,conjunction_syn,L2,syncopated,s2,r1,20,Online_conjL2_syn//b.fe.ra23.none.none.wav,me,su,bi,go,sil,ñu,mi,du,sil1,si,sil2,['-'],,,none,none,,,,fe,1,,,,,,,,,,,,,,,4 ,3.0,castellano,0.0,gallego,0.0,ingles,3.0,catalán,19.0,4.0,5.0,yes,no,yes,piano,5,guitarra,5,,,A medida que iban pasando los lenguajes me distraía más porque es una tarea bastante monótona. ,77.0,yes
149,2024-02-23_23h06.43.551,Unsyncopated_study3,s126,21.0,feminino,right,españa,castellano y gallego,Bachelor degree,no,no,A,2,conjunction_syn,L2,syncopated,s2,r2,21,Online_conjL2_syn//b.fe.ra20.666.1554.wav,si,ño,cha,fe,sil,to,me,ra,sil1,su,sil2,['catch'],[1.714100000023791],[1.714100000023791],0.666,no_beat,1.048100000023791,1.048100000023791,"[""space""]",fe,1,,,,,,,,,,,,,,,4 ,3.0,castellano,0.0,gallego,0.0,ingles,3.0,catalán,19.0,4.0,5.0,yes,no,yes,piano,5,guitarra,5,,,A medida que iban pasando los lenguajes me distraía más porque es una tarea bastante monótona. ,77.0,yes
150,2024-02-23_23h06.43.551,Unsyncopated_study3,s126,21.0,feminino,right,españa,castellano y gallego,Bachelor degree,no,no,A,2,conjunction_syn,L2,syncopated,s1,r1,22,Online_conjL2_syn//b.fe.ra21.none.none.wav,go,bi,cha,du,sil,te,me,mi,sil1,ba,sil2,['-'],,,none,none,,,,fe,1,,,,,,,,,,,,,,,4 ,3.0,castellano,0.0,gallego,0.0,ingles,3.0,catalán,19.0,4.0,5.0,yes,no,yes,piano,5,guitarra,5,,,A medida que iban pasando los lenguajes me distraía más porque es una tarea bastante monótona. ,77.0,yes
151,2024-02-23_23h06.43.551,Unsyncopated_study3,s126,21.0,feminino,right,españa,castellano y gallego,Bachelor degree,no,no,A,2,conjunction_syn,L2,syncopated,s2,r1,23,Online_conjL2_syn//b.fe.ra22.none.none.wav,cha,ño,me,go,sil,ñu,to,du,sil1,mi,sil2,['-'],,,none,none,,,,fe,1,,,,,,,,,,,,,,,4 ,3.0,castellano,0.0,gallego,0.0,ingles,3.0,catalán,19.0,4.0,5.0,yes,no,yes,piano,5,guitarra,5,,,A medida que iban pasando los lenguajes me distraía más porque es una tarea bastante monótona. ,77.0,yes
152,2024-02-23_23h06.43.551,Unsyncopated_study3,s126,21.0,feminino,right,españa,castellano y gallego,Bachelor degree,no,no,A,2,conjunction_syn,L2,syncopated,s1,r2,24,Online_conjL2_syn//d.si.ñu2.none.none.wav,fe,bi,me,ra,sil,te,mi,to,sil1,cha,sil2,['-'],,,none,none,,,,si,4,,,,,,,,,,,,,,,4 ,3.0,castellano,0.0,gallego,0.0,ingles,3.0,catalán,19.0,4.0,5.0,yes,no,yes,piano,5,guitarra,5,,,A medida que iban pasando los lenguajes me distraía más porque es una tarea bastante monótona. ,77.0,yes
153,2024-02-23_23h06.43.551,Unsyncopated_study3,s126,21.0,feminino,right,españa,castellano y gallego,Bachelor degree,no,no,A,2,conjunction_syn,L2,syncopated,s1,r1,25,Online_conjL2_syn//d.si.ñu1.none.none.wav,go,te,ba,du,sil,bi,mi,me,sil1,to,sil2,['-'],,,none,none,,,,si,4,,,,,,,,,,,,,,,4 ,3.0,castellano,0.0,gallego,0.0,ingles,3.0,catalán,19.0,4.0,5.0,yes,no,yes,piano,5,guitarra,5,,,A medida que iban pasando los lenguajes me distraía más porque es una tarea bastante monótona. ,77.0,yes
154,2024-02-23_23h06.43.551,Unsyncopated_study3,s126,21.0,feminino,right,españa,castellano y gallego,Bachelor degree,no,no,A,2,conjunction_syn,L2,syncopated,s1,r1,26,Online_conjL2_syn//d.si.ñu0.1554.1110.wav,go,su,bi,du,sil,ñu,ba,si,sil1,ño,sil2,['catch'],[2.1060999999640444],[2.1060999999640444],1.554,no_beat,0.5520999999640444,0.5520999999640444,"[""space""]",si,4,,,,,,,,,,,,,,,4 ,3.0,castellano,0.0,gallego,0.0,ingles,3.0,catalán,19.0,4.0,5.0,yes,no,yes,piano,5,guitarra,5,,,A medida que iban pasando los lenguajes me distraía más porque es una tarea bastante monótona. ,77.0,yes
155,2024-02-23_23h06.43.551,Unsyncopated_study3,s126,21.0,feminino,right,españa,castellano y gallego,Bachelor degree,no,no,A,2,conjunction_syn,L2,syncopated,s1,r1,27,Online_conjL2_syn//d.si.ñu3.none.none.wav,go,to,cha,du,sil,bi,te,mi,sil1,ño,sil2,['-'],,,none,none,,,,si,4,,,,,,,,,,,,,,,4 ,3.0,castellano,0.0,gallego,0.0,ingles,3.0,catalán,19.0,4.0,5.0,yes,no,yes,piano,5,guitarra,5,,,A medida que iban pasando los lenguajes me distraía más porque es una tarea bastante monótona. ,77.0,yes
156,2024-02-23_23h06.43.551,Unsyncopated_study3,s126,21.0,feminino,right,españa,castellano y gallego,Bachelor degree,no,no,A,2,conjunction_syn,L2,syncopated,s2,r2,28,Online_conjL2_syn//d.si.ñu24.222.1110.wav,ba,si,cha,fe,sil,ñu,su,ra,sil1,ño,sil2,['catch'],[0.8405000000002474],[0.8405000000002474],0.222,no_beat,0.6185000000002474,0.6185000000002474,"[""space""]",si,4,,,,,,,,,,,,,,,4 ,3.0,castellano,0.0,gallego,0.0,ingles,3.0,catalán,19.0,4.0,5.0,yes,no,yes,piano,5,guitarra,5,,,A medida que iban pasando los lenguajes me distraía más porque es una tarea bastante monótona. ,77.0,yes
157,2024-02-23_23h06.43.551,Unsyncopated_study3,s126,21.0,feminino,right,españa,castellano y gallego,Bachelor degree,no,no,A,2,conjunction_syn,L2,syncopated,s2,r2,29,Online_conjL2_syn//d.si.ñu26.none.none.wav,ba,su,cha,fe,sil,mi,me,ra,sil1,to,sil2,['-'],,,none,none,,,,si,4,,,,,,,,,,,,,,,4 ,3.0,castellano,0.0,gallego,0.0,ingles,3.0,catalán,19.0,4.0,5.0,yes,no,yes,piano,5,guitarra,5,,,A medida que iban pasando los lenguajes me distraía más porque es una tarea bastante monótona. ,77.0,yes
158,2024-02-23_23h06.43.551,Unsyncopated_study3,s126,21.0,feminino,right,españa,castellano y gallego,Bachelor degree,no,no,A,2,conjunction_syn,L2,syncopated,s2,r2,30,Online_conjL2_syn//d.si.ñu25.none.none.wav,mi,to,ño,fe,sil,bi,ba,ra,sil1,su,sil2,['-'],,,none,none,,,,si,4,,,,,,,,,,,,,,,4 ,3.0,castellano,0.0,gallego,0.0,ingles,3.0,catalán,19.0,4.0,5.0,yes,no,yes,piano,5,guitarra,5,,,A medida que iban pasando los lenguajes me distraía más porque es una tarea bastante monótona. ,77.0,yes
159,2024-02-23_23h06.43.551,Unsyncopated_study3,s126,21.0,feminino,right,españa,castellano y gallego,Bachelor degree,no,no,A,2,conjunction_syn,L2,syncopated,s2,r1,31,Online_conjL2_syn//d.si.ñu27.none.none.wav,cha,ño,ba,go,sil,mi,to,du,sil1,bi,sil2,['-'],,,none,none,,,,si,4,,,,,,,,,,,,,,,4 ,3.0,castellano,0.0,gallego,0.0,ingles,3.0,catalán,19.0,4.0,5.0,yes,no,yes,piano,5,guitarra,5,,,A medida que iban pasando los lenguajes me distraía más porque es una tarea bastante monótona. ,77.0,yes
160,2024-02-23_23h06.43.551,Unsyncopated_study3,s126,21.0,feminino,right,españa,castellano y gallego,Bachelor degree,no,no,A,2,conjunction_syn,L2,syncopated,s1,r2,32,Online_conjL2_syn//b.fe.ra1.0.666.wav,fe,to,bi,ra,sil,me,te,su,sil1,ño,sil2,['catch'],[0.6518000000119173],[0.6518000000119173],0.0,beat,0.6518000000119173,0.6518000000119173,"[""space""]",fe,1,,,,,,,,,,,,,,,4 ,3.0,castellano,0.0,gallego,0.0,ingles,3.0,catalán,19.0,4.0,5.0,yes,no,yes,piano,5,guitarra,5,,,A medida que iban pasando los lenguajes me distraía más porque es una tarea bastante monótona. ,77.0,yes
161,2024-02-23_23h06.43.551,Unsyncopated_study3,s126,21.0,feminino,right,españa,castellano y gallego,Bachelor degree,no,no,A,2,conjunction_syn,L2,syncopated,s2,r2,33,Online_conjL2_syn//b.fe.ra0.666.1554.wav,te,si,ba,fe,sil,mi,ño,ra,sil1,cha,sil2,['miss'],,,0.666,no_beat,,,,fe,1,,,,,,,,,,,,,,,4 ,3.0,castellano,0.0,gallego,0.0,ingles,3.0,catalán,19.0,4.0,5.0,yes,no,yes,piano,5,guitarra,5,,,A medida que iban pasando los lenguajes me distraía más porque es una tarea bastante monótona. ,77.0,yes
162,2024-02-23_23h06.43.551,Unsyncopated_study3,s126,21.0,feminino,right,españa,castellano y gallego,Bachelor degree,no,no,A,2,conjunction_syn,L2,syncopated,s2,r1,34,Online_conjL2_syn//b.fe.ra2.none.none.wav,te,to,bi,go,sil,cha,ñu,du,sil1,su,sil2,['-'],,,none,none,,,,fe,1,,,,,,,,,,,,,,,4 ,3.0,castellano,0.0,gallego,0.0,ingles,3.0,catalán,19.0,4.0,5.0,yes,no,yes,piano,5,guitarra,5,,,A medida que iban pasando los lenguajes me distraía más porque es una tarea bastante monótona. ,77.0,yes
163,2024-02-23_23h06.43.551,Unsyncopated_study3,s126,21.0,feminino,right,españa,castellano y gallego,Bachelor degree,no,no,A,2,conjunction_syn,L2,syncopated,s2,r2,35,Online_conjL2_syn//b.fe.ra3.666.1554.wav,cha,ba,ñu,fe,sil,me,ño,ra,sil1,bi,sil2,['catch'],[1.2308000000120956],[1.2308000000120956],0.666,no_beat,0.5648000000120955,0.5648000000120955,"[""space""]",fe,1,,,,,,,,,,,,,,,4 ,3.0,castellano,0.0,gallego,0.0,ingles,3.0,catalán,19.0,4.0,5.0,yes,no,yes,piano,5,guitarra,5,,,A medida que iban pasando los lenguajes me distraía más porque es una tarea bastante monótona. ,77.0,yes
164,2024-02-23_23h06.43.551,Unsyncopated_study3,s126,21.0,feminino,right,españa,castellano y gallego,Bachelor degree,no,no,A,2,conjunction_syn,L2,syncopated,s2,r2,36,Online_conjL2_syn//b.fe.ra5.666.1554.wav,ñu,te,to,fe,sil,ba,su,ra,sil1,mi,sil2,['miss'],,,0.666,no_beat,,,,fe,1,,,,,,,,,,,,,,,4 ,3.0,castellano,0.0,gallego,0.0,ingles,3.0,catalán,19.0,4.0,5.0,yes,no,yes,piano,5,guitarra,5,,,A medida que iban pasando los lenguajes me distraía más porque es una tarea bastante monótona. ,77.0,yes
165,2024-02-23_23h06.43.551,Unsyncopated_study3,s126,21.0,feminino,right,españa,castellano y gallego,Bachelor degree,no,no,A,2,conjunction_syn,L2,syncopated,s2,r1,37,Online_conjL2_syn//b.fe.ra7.none.none.wav,ba,cha,me,go,sil,su,si,du,sil1,mi,sil2,['-'],,,none,none,,,,fe,1,,,,,,,,,,,,,,,4 ,3.0,castellano,0.0,gallego,0.0,ingles,3.0,catalán,19.0,4.0,5.0,yes,no,yes,piano,5,guitarra,5,,,A medida que iban pasando los lenguajes me distraía más porque es una tarea bastante monótona. ,77.0,yes
166,2024-02-23_23h06.43.551,Unsyncopated_study3,s126,21.0,feminino,right,españa,castellano y gallego,Bachelor degree,no,no,A,2,conjunction_syn,L2,syncopated,s2,r1,38,Online_conjL2_syn//b.fe.ra6.none.none.wav,te,ño,ba,go,sil,ñu,cha,du,sil1,su,sil2,['-'],,,none,none,,,,fe,1,,,,,,,,,,,,,,,4 ,3.0,castellano,0.0,gallego,0.0,ingles,3.0,catalán,19.0,4.0,5.0,yes,no,yes,piano,5,guitarra,5,,,A medida que iban pasando los lenguajes me distraía más porque es una tarea bastante monótona. ,77.0,yes
167,2024-02-23_23h06.43.551,Unsyncopated_study3,s126,21.0,feminino,right,españa,castellano y gallego,Bachelor degree,no,no,A,2,conjunction_syn,L2,syncopated,s2,r1,39,Online_conjL2_syn//b.fe.ra4.none.none.wav,me,bi,ño,go,sil,ñu,to,du,sil1,te,sil2,['-'],,,none,none,,,,fe,1,,,,,,,,,,,,,,,4 ,3.0,castellano,0.0,gallego,0.0,ingles,3.0,catalán,19.0,4.0,5.0,yes,no,yes,piano,5,guitarra,5,,,A medida que iban pasando los lenguajes me distraía más porque es una tarea bastante monótona. ,77.0,yes
168,2024-02-23_23h06.43.551,Unsyncopated_study3,s126,21.0,feminino,right,españa,castellano y gallego,Bachelor degree,no,no,A,2,conjunction_syn,L2,syncopated,s1,r1,40,Online_conjL2_syn//a.go.du0.0.666.wav,go,me,bi,du,sil,te,su,ba,sil1,cha,sil2,['catch'],[1.3487999999524618],[1.3487999999524618],0.666,no_beat,0.6827999999524618,0.6827999999524618,"[""space""]",du,2,,,,,,,,,,,,,,,4 ,3.0,castellano,0.0,gallego,0.0,ingles,3.0,catalán,19.0,4.0,5.0,yes,no,yes,piano,5,guitarra,5,,,A medida que iban pasando los lenguajes me distraía más porque es una tarea bastante monótona. ,77.0,yes
169,2024-02-23_23h06.43.551,Unsyncopated_study3,s126,21.0,feminino,right,españa,castellano y gallego,Bachelor degree,no,no,A,2,conjunction_syn,L2,syncopated,s1,r2,41,Online_conjL2_syn//a.go.du2.none.none.wav,fe,me,to,ra,sil,mi,te,ñu,sil1,ño,sil2,['-'],,,none,none,,,,du,2,,,,,,,,,,,,,,,4 ,3.0,castellano,0.0,gallego,0.0,ingles,3.0,catalán,19.0,4.0,5.0,yes,no,yes,piano,5,guitarra,5,,,A medida que iban pasando los lenguajes me distraía más porque es una tarea bastante monótona. ,77.0,yes
170,2024-02-23_23h06.43.551,Unsyncopated_study3,s126,21.0,feminino,right,españa,castellano y gallego,Bachelor degree,no,no,A,2,conjunction_syn,L2,syncopated,s2,r1,42,Online_conjL2_syn//a.go.du1.666.1554.wav,su,me,mi,go,sil,ño,cha,du,sil1,te,sil2,['catch'],[2.1861000000239983],[2.1861000000239983],1.554,no_beat,0.6321000000239982,0.6321000000239982,"[""space""]",du,2,,,,,,,,,,,,,,,4 ,3.0,castellano,0.0,gallego,0.0,ingles,3.0,catalán,19.0,4.0,5.0,yes,no,yes,piano,5,guitarra,5,,,A medida que iban pasando los lenguajes me distraía más porque es una tarea bastante monótona. ,77.0,yes
