Unnamed: 0,date,expName,participant,age,sex,hand,residence,native_lang,education_level,lang_deficit,aud_deficit,group,block,condition,language,rhythm,rule structure online,rule type online,order_trial_on,trial_online,s1,s2,s3,s4,s5,s6,s7,s8,s9,s10,s11,catch_syll_resp,rts_syll_catch,clean_rts,time_syll,beat_no_beat,catch_rtsTR,catch_rts,syllable_catch.keys,cond_syll,syll_to_catch,test_offline,block_off,condition_off,rhythm_off,rule,rule_str_off,rule_norule,conds_offline,language_off,Partz_no_partm.keys,Partz_no_partm.rt,security_1_7.keys,accuracy,security_1_7.rt,n_lang,n_lang_used,lang_1,age_l1,lang_2,age_l2,ability_learn_l2,tendence_mix_lan,music_experience,muisc_use,partiture,instr_1,age_M1,instr_2,age_M2,preguntas_musica1,BMRQ_answer.response,final comment,BMRQ_Score,bilingual
0,2023-11-21_21h37.14.803,Unsyncopated1,s81,21.0,feminino,right,España,2.0,Bachelor degree,no,no,B,1,conjunction_un,L1,unsyncopated,s1,r1,0,Online_conjL1_un//a.pu.ki23.0.888.wav,pu,la,ze,sil,ki,cho,fo,sil1,ne,zu,sil2,['catch'],[2.405399999998508],[2.405399999998508],0.0,beat,,2.405399999998508,"[""space""]",pu,1,testConjL1Uns//dep_viol.r1.s1.0.wav,1.0,conjunction_un,unsyncopated,a,s1,no_rule,dep,L1,z,2.1975,6.0,0.0,6.9075,2 ,2.0,catalan,0.0,castellano,1.0,0.0,3.0,no,no,no,nada,0,nada,0,1. Cuando comparto música con alguien siento una complicidad especial con aquella persona.,4.0,nada ,78.0,yes
1,2023-11-21_21h37.14.803,Unsyncopated1,s81,21.0,feminino,right,España,2.0,Bachelor degree,no,no,B,1,conjunction_un,L1,unsyncopated,s2,r1,1,Online_conjL1_un//a.pu.ki22.888.1776.wav,la,ze,zu,sil,pu,ne,cho,sil1,ki,ri,sil2,['catch'],[1.3285999999995965],[1.3285999999995965],0.888,beat,0.4405999999995965,0.4405999999995965,"[""space""]",pu,1,testConjL1Uns//time_viol.r1.s1.0.wav,1.0,conjunction_un,unsyncopated,a,s1,no_rule,time,L1,m,0.1512,5.0,1.0,5.2527,2 ,2.0,catalan,0.0,castellano,1.0,0.0,3.0,no,no,no,nada,0,nada,0,2. En mi tiempo libre apenas escucho música.,5.0,nada ,78.0,yes
2,2023-11-21_21h37.14.803,Unsyncopated1,s81,21.0,feminino,right,España,2.0,Bachelor degree,no,no,B,1,conjunction_un,L1,unsyncopated,s2,r1,2,Online_conjL1_un//a.pu.ki21.888.1776.wav,zu,ri,ni,sil,pu,lu,fa,sil1,ki,ro,sil2,['catch'],[1.3555000000000064],[1.3555000000000064],0.888,beat,0.4675000000000063,0.4675000000000063,"[""space""]",pu,1,testConjL1Uns//cat_viol.r1.s1.0.wav,1.0,conjunction_un,unsyncopated,a,s1,no_rule,cat,L1,z,0.8317,6.0,0.0,2.0353,2 ,2.0,catalan,0.0,castellano,1.0,0.0,3.0,no,no,no,nada,0,nada,0,3. Algunas canciones me ponen los pelos de punta,4.0,nada ,78.0,yes
3,2023-11-21_21h37.14.803,Unsyncopated1,s81,21.0,feminino,right,España,2.0,Bachelor degree,no,no,B,1,conjunction_un,L1,unsyncopated,s1,r2,3,Online_conjL1_un//a.pu.ki20.none.none.wav,ta,ni,ze,sil,be,ri,ne,sil1,cho,fo,sil2,['-'],,,none,none,,,,pu,1,testConjL1Uns//cat_viol.r1.s2.0.wav,1.0,conjunction_un,unsyncopated,a,s2,no_rule,cat,L1,z,1.3394,6.0,0.0,2.6079,2 ,2.0,catalan,0.0,castellano,1.0,0.0,3.0,no,no,no,nada,0,nada,0,4. La música me hace compañía cuando estoy solo,4.0,nada ,78.0,yes
4,2023-11-21_21h37.14.803,Unsyncopated1,s81,21.0,feminino,right,España,2.0,Bachelor degree,no,no,B,1,conjunction_un,L1,unsyncopated,s1,r1,4,Online_conjL1_un//a.pu.ki5.0.888.wav,pu,lu,zu,sil,ki,fo,la,sil1,cho,ze,sil2,['catch'],[0.514099999999587],[0.514099999999587],0.0,beat,0.514099999999587,0.514099999999587,"[""space""]",pu,1,testConjL1Uns//r1.s1.0.wav,1.0,conjunction_un,unsyncopated,a,s1,rule,rule,L1,m,0.3687,6.0,0.0,4.0337,2 ,2.0,catalan,0.0,castellano,1.0,0.0,3.0,no,no,no,nada,0,nada,0,5. No me apetece bailar ni con la música que más me gusta,5.0,nada ,78.0,yes
5,2023-11-21_21h37.14.803,Unsyncopated1,s81,21.0,feminino,right,España,2.0,Bachelor degree,no,no,B,1,conjunction_un,L1,unsyncopated,s1,r1,5,Online_conjL1_un//a.pu.ki7.0.888.wav,pu,la,fa,sil,ki,ri,ze,sil1,lu,ro,sil2,['catch'],[0.4746000000014874],[0.4746000000014874],0.0,beat,0.4746000000014874,0.4746000000014874,"[""space""]",pu,1,testConjL1Uns//r2.s2.1.wav,1.0,conjunction_un,unsyncopated,b,s2,rule,rule,L1,z,0.5991,6.0,1.0,2.5354,2 ,2.0,catalan,0.0,castellano,1.0,0.0,3.0,no,no,no,nada,0,nada,0,6. La música me hace conectar con la gente,4.0,nada ,78.0,yes
6,2023-11-21_21h37.14.803,Unsyncopated1,s81,21.0,feminino,right,España,2.0,Bachelor degree,no,no,B,1,conjunction_un,L1,unsyncopated,s2,r1,6,Online_conjL1_un//a.pu.ki4.888.1776.wav,ni,cho,fa,sil,pu,fo,ne,sil1,ki,la,sil2,['catch'],[1.2925000000000182],[1.2925000000000182],0.888,beat,0.4045000000000182,0.4045000000000182,"[""space""]",pu,1,testConjL1Uns//cat_viol.r2.s2.0.wav,1.0,conjunction_un,unsyncopated,b,s2,no_rule,cat,L1,m,1.0881,5.0,1.0,2.3013,2 ,2.0,catalan,0.0,castellano,1.0,0.0,3.0,no,no,no,nada,0,nada,0,7. Me informo sobre la música que me gusta.,3.0,nada ,78.0,yes
7,2023-11-21_21h37.14.803,Unsyncopated1,s81,21.0,feminino,right,España,2.0,Bachelor degree,no,no,B,1,conjunction_un,L1,unsyncopated,s1,r1,7,Online_conjL1_un//a.pu.ki6.0.888.wav,pu,cho,fa,sil,ki,zu,ni,sil1,ne,ro,sil2,['miss'],,,0.0,beat,,,,pu,1,testConjL1Uns//r2.s1.1.wav,1.0,conjunction_un,unsyncopated,b,s1,rule,rule,L1,m,0.9863,4.0,0.0,1.7677,2 ,2.0,catalan,0.0,castellano,1.0,0.0,3.0,no,no,no,nada,0,nada,0,8.Me emociono escuchando ciertas canciones.,4.0,nada ,78.0,yes
8,2023-11-21_21h37.14.803,Unsyncopated1,s81,21.0,feminino,right,España,2.0,Bachelor degree,no,no,B,1,conjunction_un,L1,unsyncopated,s1,r2,8,Online_conjL1_un//b.ta.be8.0.888.wav,ta,la,ne,sil,be,lu,ni,sil1,ro,fa,sil2,['catch'],[1.3687999999988847],[1.3687999999988847],0.888,beat,0.4807999999988847,0.4807999999988847,"[""space""]",be,2,testConjL1Uns//r2.s1.2.wav,1.0,conjunction_un,unsyncopated,b,s1,rule,rule,L1,m,0.8687,6.0,0.0,1.1043,2 ,2.0,catalan,0.0,castellano,1.0,0.0,3.0,no,no,no,nada,0,nada,0,9.La música me tranquiliza y me relaja.,3.0,nada ,78.0,yes
9,2023-11-21_21h37.14.803,Unsyncopated1,s81,21.0,feminino,right,España,2.0,Bachelor degree,no,no,B,1,conjunction_un,L1,unsyncopated,s1,r2,9,Online_conjL1_un//b.ta.be11.0.888.wav,ta,fa,lu,sil,be,ni,ze,sil1,ri,ro,sil2,['catch'],[1.3414000000004194],[1.3414000000004194],0.888,beat,0.4534000000004193,0.4534000000004193,"[""space""]",be,2,testConjL1Uns//time_viol.r1.s2.0.wav,1.0,conjunction_un,unsyncopated,a,s2,no_rule,time,L1,m,0.7028,6.0,1.0,0.7674,2 ,2.0,catalan,0.0,castellano,1.0,0.0,3.0,no,no,no,nada,0,nada,0,10.La música me hace bailar,3.0,nada ,78.0,yes
10,2023-11-21_21h37.14.803,Unsyncopated1,s81,21.0,feminino,right,España,2.0,Bachelor degree,no,no,B,1,conjunction_un,L1,unsyncopated,s2,r1,10,Online_conjL1_un//b.ta.be9.none.none.wav,fa,ne,lu,sil,pu,ri,la,sil1,ki,ni,sil2,['-'],,,none,none,,,,be,2,testConjL1Uns//r1.s2.0.wav,1.0,conjunction_un,unsyncopated,a,s2,rule,rule,L1,z,1.6997,6.0,1.0,1.8004,2 ,2.0,catalan,0.0,castellano,1.0,0.0,3.0,no,no,no,nada,0,nada,0,11.Busco novedades musicales continuamente,4.0,nada ,78.0,yes
11,2023-11-21_21h37.14.803,Unsyncopated1,s81,21.0,feminino,right,España,2.0,Bachelor degree,no,no,B,1,conjunction_un,L1,unsyncopated,s2,r1,11,Online_conjL1_un//b.ta.be10.none.none.wav,ni,lu,cho,sil,pu,fa,zu,sil1,ki,fo,sil2,['-'],,,none,none,,,,be,2,testConjL1Uns//dep_viol.r2.s1.0.wav,1.0,conjunction_un,unsyncopated,b,s1,no_rule,dep,L1,m,0.8203,6.0,1.0,0.7826,2 ,2.0,catalan,0.0,castellano,1.0,0.0,3.0,no,no,no,nada,0,nada,0,12. Puedo llorar cuando escucho algunas melodías que me gustan mucho.,4.0,nada ,78.0,yes
12,2023-11-21_21h37.14.803,Unsyncopated1,s81,21.0,feminino,right,España,2.0,Bachelor degree,no,no,B,1,conjunction_un,L1,unsyncopated,s2,r2,12,Online_conjL1_un//d.ne.ni18.none.none.wav,fa,ro,fo,sil,ta,ri,lu,sil1,be,la,sil2,['-'],,,none,none,,,,ni,4,testConjL1Uns//r2.s1.0.wav,1.0,conjunction_un,unsyncopated,b,s1,rule,rule,L1,z,0.4834,5.0,1.0,1.4516,2 ,2.0,catalan,0.0,castellano,1.0,0.0,3.0,no,no,no,nada,0,nada,0,13. Me gusta cantar o tocar un instrumento con más gente,4.0,nada ,78.0,yes
13,2023-11-21_21h37.14.803,Unsyncopated1,s81,21.0,feminino,right,España,2.0,Bachelor degree,no,no,B,1,conjunction_un,L1,unsyncopated,s2,r1,13,Online_conjL1_un//d.ne.ni19.none.none.wav,zu,fa,ri,sil,pu,lu,la,sil1,ki,ze,sil2,['false alarm'],[1.473699999999269],[1.473699999999269],none,none,,,"[""space""]",ni,4,testConjL1Uns//time_viol.r2.s1.0.wav,1.0,conjunction_un,unsyncopated,b,s1,no_rule,time,L1,m,0.9871,5.0,1.0,1.1344,2 ,2.0,catalan,0.0,castellano,1.0,0.0,3.0,no,no,no,nada,0,nada,0,14. La música me ayuda a desconectar.,4.0,nada ,78.0,yes
14,2023-11-21_21h37.14.803,Unsyncopated1,s81,21.0,feminino,right,España,2.0,Bachelor degree,no,no,B,1,conjunction_un,L1,unsyncopated,s2,r2,14,Online_conjL1_un//d.ne.ni16.444.1110.wav,ze,zu,ne,sil,ta,ni,fo,sil1,be,cho,sil2,['miss'],,,1.11,no_beat,,,,ni,4,testConjL1Uns//r2.s2.0.wav,1.0,conjunction_un,unsyncopated,b,s2,rule,rule,L1,z,0.8984,5.0,1.0,1.2148,2 ,2.0,catalan,0.0,castellano,1.0,0.0,3.0,no,no,no,nada,0,nada,0,15. No puedo evitar tararear las canciones que me gustan cuando las escucho.,4.0,nada ,78.0,yes
15,2023-11-21_21h37.14.803,Unsyncopated1,s81,21.0,feminino,right,España,2.0,Bachelor degree,no,no,B,1,conjunction_un,L1,unsyncopated,s2,r2,15,Online_conjL1_un//d.ne.ni17.0.1110.wav,ne,la,ro,sil,ta,ni,ri,sil1,be,cho,sil2,['miss'],,,1.11,no_beat,,,,ni,4,testConjL1Uns//dep_viol.r2.s2.0.wav,1.0,conjunction_un,unsyncopated,b,s2,no_rule,dep,L1,z,0.4511,6.0,0.0,1.2883,2 ,2.0,catalan,0.0,castellano,1.0,0.0,3.0,no,no,no,nada,0,nada,0,16. En los conciertos me siento en sintonía con los artistas y el público.,4.0,nada ,78.0,yes
16,2023-11-21_21h37.14.803,Unsyncopated1,s81,21.0,feminino,right,España,2.0,Bachelor degree,no,no,B,1,conjunction_un,L1,unsyncopated,s2,r2,16,Online_conjL1_un//b.ta.be27.888.1776.wav,fo,ni,lu,sil,ta,ne,ro,sil1,be,fa,sil2,['catch'],[2.2386999999992554],[2.2386999999992554],1.776,beat,0.4626999999992554,0.4626999999992554,"[""space""]",be,2,testConjL1Uns//time_viol.r2.s2.0.wav,1.0,conjunction_un,unsyncopated,b,s2,no_rule,time,L1,m,0.416,5.0,1.0,1.4055,2 ,2.0,catalan,0.0,castellano,1.0,0.0,3.0,no,no,no,nada,0,nada,0,17. Me gasto bastante dinero en música y cosas relacionadas con la música.,3.0,nada ,78.0,yes
17,2023-11-21_21h37.14.803,Unsyncopated1,s81,21.0,feminino,right,España,2.0,Bachelor degree,no,no,B,1,conjunction_un,L1,unsyncopated,s1,r2,17,Online_conjL1_un//b.ta.be25.0.888.wav,ta,la,lu,sil,be,cho,zu,sil1,ne,ro,sil2,"['catch', 'false alarm']","[1.4880999999996334, 2.4892999999988774]",[1.4880999999996334],0.888,beat,0.6000999999996334,0.6000999999996334,"[""space"",""space""]",be,2,testConjL1Uns//r1.s2.2.wav,1.0,conjunction_un,unsyncopated,a,s2,rule,rule,L1,m,1.3987,4.0,0.0,1.3003,2 ,2.0,catalan,0.0,castellano,1.0,0.0,3.0,no,no,no,nada,0,nada,0,18. Siento escalofríos cuando escucho una melodía que me gusta.,4.0,nada ,78.0,yes
18,2023-11-21_21h37.14.803,Unsyncopated1,s81,21.0,feminino,right,España,2.0,Bachelor degree,no,no,B,1,conjunction_un,L1,unsyncopated,s2,r2,18,Online_conjL1_un//b.ta.be26.888.1776.wav,ni,ri,fa,sil,ta,zu,lu,sil1,be,ze,sil2,['catch'],[2.2069999999999936],[2.2069999999999936],1.776,beat,0.4309999999999936,0.4309999999999936,"[""space""]",be,2,testConjL1Uns//cat_viol.r2.s1.0.wav,1.0,conjunction_un,unsyncopated,b,s1,no_rule,cat,L1,z,0.5169,6.0,0.0,2.3906,2 ,2.0,catalan,0.0,castellano,1.0,0.0,3.0,no,no,no,nada,0,nada,0,19. Con la música me puedo desahogar.,4.0,nada ,78.0,yes
19,2023-11-21_21h37.14.803,Unsyncopated1,s81,21.0,feminino,right,España,2.0,Bachelor degree,no,no,B,1,conjunction_un,L1,unsyncopated,s2,r2,19,Online_conjL1_un//b.ta.be24.888.1776.wav,ze,ne,ri,sil,ta,fa,la,sil1,be,fo,sil2,['catch'],[2.2205999999995925],[2.2205999999995925],1.776,beat,0.4445999999995924,0.4445999999995924,"[""space""]",be,2,testConjL1Uns//dep_viol.r1.s2.0.wav,1.0,conjunction_un,unsyncopated,a,s2,no_rule,dep,L1,z,0.882,6.0,0.0,0.7389,2 ,2.0,catalan,0.0,castellano,1.0,0.0,3.0,no,no,no,nada,0,nada,0,20. Cuando escucho una melodía que me gusta mucho no puedo evitar mover el cuerpo.,4.0,nada ,78.0,yes
20,2023-11-21_21h37.14.803,Unsyncopated1,s81,21.0,feminino,right,España,2.0,Bachelor degree,no,no,B,1,conjunction_un,L1,unsyncopated,s2,r2,20,Online_conjL1_un//d.ne.ni7.none.none.wav,cho,ro,la,sil,ta,ze,fa,sil1,be,lu,sil2,['-'],,,none,none,,,,ni,4,testConjL1Uns//r2.s2.2.wav,1.0,conjunction_un,unsyncopated,b,s2,rule,rule,L1,m,1.0187,3.0,0.0,2.1829,2 ,2.0,catalan,0.0,castellano,1.0,0.0,3.0,no,no,no,nada,0,nada,0,,,nada ,78.0,yes
21,2023-11-21_21h37.14.803,Unsyncopated1,s81,21.0,feminino,right,España,2.0,Bachelor degree,no,no,B,1,conjunction_un,L1,unsyncopated,s2,r1,21,Online_conjL1_un//d.ne.ni6.0.1110.wav,ne,ro,ze,sil,pu,ni,ri,sil1,ki,zu,sil2,['catch'],[1.872699999999213],[1.872699999999213],1.11,no_beat,0.762699999999213,0.762699999999213,"[""space""]",ni,4,testConjL1Uns//r1.s1.1.wav,1.0,conjunction_un,unsyncopated,a,s1,rule,rule,L1,m,0.4577,6.0,0.0,1.268,2 ,2.0,catalan,0.0,castellano,1.0,0.0,3.0,no,no,no,nada,0,nada,0,,,nada ,78.0,yes
22,2023-11-21_21h37.14.803,Unsyncopated1,s81,21.0,feminino,right,España,2.0,Bachelor degree,no,no,B,1,conjunction_un,L1,unsyncopated,s1,r2,22,Online_conjL1_un//d.ne.ni5.1332.444.wav,ta,fa,ni,sil,be,cho,ne,sil1,ri,lu,sil2,['catch'],[2.30499999999995],[2.30499999999995],0.444,no_beat,,1.86099999999995,"[""space""]",ni,4,testConjL1Uns//r1.s2.1.wav,1.0,conjunction_un,unsyncopated,a,s2,rule,rule,L1,z,0.5679,5.0,1.0,1.0593,2 ,2.0,catalan,0.0,castellano,1.0,0.0,3.0,no,no,no,nada,0,nada,0,,,nada ,78.0,yes
23,2023-11-21_21h37.14.803,Unsyncopated1,s81,21.0,feminino,right,España,2.0,Bachelor degree,no,no,B,1,conjunction_un,L1,unsyncopated,s1,r2,23,Online_conjL1_un//d.ne.ni4.1110.1332.wav,ta,lu,la,sil,be,ne,ni,sil1,fa,fo,sil2,['miss'],,,1.332,no_beat,,,,ni,4,testConjL1Uns//r1.s1.2.wav,1.0,conjunction_un,unsyncopated,a,s1,rule,rule,L1,z,1.6337,5.0,1.0,1.334,2 ,2.0,catalan,0.0,castellano,1.0,0.0,3.0,no,no,no,nada,0,nada,0,,,nada ,78.0,yes
24,2023-11-21_21h37.14.803,Unsyncopated1,s81,21.0,feminino,right,España,2.0,Bachelor degree,no,no,B,1,conjunction_un,L1,unsyncopated,s2,r1,24,Online_conjL1_un//a.pu.ki17.888.1776.wav,ne,ro,ze,sil,pu,fo,lu,sil1,ki,zu,sil2,['catch'],[1.5317000000011376],[1.5317000000011376],0.888,beat,0.6437000000011376,0.6437000000011376,"[""space""]",pu,1,testWhatL2Uns//r1.s1.0.wav,2.0,what,unsyncopated,a,s1,rule,rule,L2,z,1.304,7.0,1.0,1.1602,2 ,2.0,catalan,0.0,castellano,1.0,0.0,3.0,no,no,no,nada,0,nada,0,,,nada ,78.0,yes
25,2023-11-21_21h37.14.803,Unsyncopated1,s81,21.0,feminino,right,España,2.0,Bachelor degree,no,no,B,1,conjunction_un,L1,unsyncopated,s2,r2,25,Online_conjL1_un//a.pu.ki18.none.none.wav,zu,ro,ze,sil,ta,fa,cho,sil1,be,ne,sil2,['-'],,,none,none,,,,pu,1,testWhatL2Uns//time_viol.r2.s1.0.wav,2.0,what,unsyncopated,b,s1,no_rule,time,L2,m,1.4673,6.0,1.0,0.934,2 ,2.0,catalan,0.0,castellano,1.0,0.0,3.0,no,no,no,nada,0,nada,0,,,nada ,78.0,yes
26,2023-11-21_21h37.14.803,Unsyncopated1,s81,21.0,feminino,right,España,2.0,Bachelor degree,no,no,B,1,conjunction_un,L1,unsyncopated,s2,r2,26,Online_conjL1_un//a.pu.ki16.none.none.wav,ze,zu,ni,sil,ta,lu,ne,sil1,be,ri,sil2,['false alarm'],[1.5433000000007837],[1.5433000000007837],none,none,,,"[""space""]",pu,1,testWhatL2Uns//r1.s2.2.wav,2.0,what,unsyncopated,a,s2,rule,rule,L2,m,2.352,3.0,0.0,0.7823,2 ,2.0,catalan,0.0,castellano,1.0,0.0,3.0,no,no,no,nada,0,nada,0,,,nada ,78.0,yes
27,2023-11-21_21h37.14.803,Unsyncopated1,s81,21.0,feminino,right,España,2.0,Bachelor degree,no,no,B,1,conjunction_un,L1,unsyncopated,s2,r2,27,Online_conjL1_un//a.pu.ki19.none.none.wav,ze,fo,cho,sil,ta,fa,lu,sil1,be,ne,sil2,['false alarm'],[0.20809999999960382],[0.20809999999960382],none,none,,,"[""space""]",pu,1,testWhatL2Uns//r2.s1.0.wav,2.0,what,unsyncopated,b,s1,rule,rule,L2,z,0.4503,6.0,1.0,0.7876,2 ,2.0,catalan,0.0,castellano,1.0,0.0,3.0,no,no,no,nada,0,nada,0,,,nada ,78.0,yes
28,2023-11-21_21h37.14.803,Unsyncopated1,s81,21.0,feminino,right,España,2.0,Bachelor degree,no,no,B,1,conjunction_un,L1,unsyncopated,s2,r2,28,Online_conjL1_un//d.ne.ni11.none.none.wav,ro,zu,la,sil,ta,ze,cho,sil1,be,fa,sil2,['-'],,,none,none,,,,ni,4,testWhatL2Uns//r1.s2.1.wav,2.0,what,unsyncopated,a,s2,rule,rule,L2,z,0.5016,6.0,1.0,0.9894,2 ,2.0,catalan,0.0,castellano,1.0,0.0,3.0,no,no,no,nada,0,nada,0,,,nada ,78.0,yes
29,2023-11-21_21h37.14.803,Unsyncopated1,s81,21.0,feminino,right,España,2.0,Bachelor degree,no,no,B,1,conjunction_un,L1,unsyncopated,s1,r2,29,Online_conjL1_un//d.ne.ni8.1776.222.wav,ta,ni,ri,sil,be,zu,lu,sil1,ne,fa,sil2,['catch'],[0.8763000000006969],[0.8763000000006969],0.222,no_beat,0.6543000000006969,0.6543000000006969,"[""space""]",ni,4,testWhatL2Uns//cat_viol.r2.s2.0.wav,2.0,what,unsyncopated,b,s2,no_rule,cat,L2,m,0.7519,4.0,1.0,0.9535,2 ,2.0,catalan,0.0,castellano,1.0,0.0,3.0,no,no,no,nada,0,nada,0,,,nada ,78.0,yes
30,2023-11-21_21h37.14.803,Unsyncopated1,s81,21.0,feminino,right,España,2.0,Bachelor degree,no,no,B,1,conjunction_un,L1,unsyncopated,s1,r2,30,Online_conjL1_un//d.ne.ni9.none.none.wav,ta,ro,fo,sil,be,zu,cho,sil1,lu,ze,sil2,['-'],,,none,none,,,,ni,4,testWhatL2Uns//cat_viol.r2.s1.0.wav,2.0,what,unsyncopated,b,s1,no_rule,cat,L2,z,0.9487,4.0,0.0,0.8161,2 ,2.0,catalan,0.0,castellano,1.0,0.0,3.0,no,no,no,nada,0,nada,0,,,nada ,78.0,yes
31,2023-11-21_21h37.14.803,Unsyncopated1,s81,21.0,feminino,right,España,2.0,Bachelor degree,no,no,B,1,conjunction_un,L1,unsyncopated,s2,r1,31,Online_conjL1_un//d.ne.ni10.1110.222.wav,la,ni,cho,sil,pu,ne,lu,sil1,ki,zu,sil2,['miss'],,,0.222,no_beat,,,,ni,4,testWhatL2Uns//time_viol.r2.s2.0.wav,2.0,what,unsyncopated,b,s2,no_rule,time,L2,z,0.4679,6.0,0.0,0.6892,2 ,2.0,catalan,0.0,castellano,1.0,0.0,3.0,no,no,no,nada,0,nada,0,,,nada ,78.0,yes
32,2023-11-21_21h37.14.803,Unsyncopated1,s81,21.0,feminino,right,España,2.0,Bachelor degree,no,no,B,1,conjunction_un,L1,unsyncopated,s2,r1,32,Online_conjL1_un//b.ta.be15.none.none.wav,fa,ri,cho,sil,pu,ne,la,sil1,ki,zu,sil2,['-'],,,none,none,,,,be,2,testWhatL2Uns//r2.s1.1.wav,2.0,what,unsyncopated,b,s1,rule,rule,L2,m,0.9638,4.0,0.0,1.1155,2 ,2.0,catalan,0.0,castellano,1.0,0.0,3.0,no,no,no,nada,0,nada,0,,,nada ,78.0,yes
33,2023-11-21_21h37.14.803,Unsyncopated1,s81,21.0,feminino,right,España,2.0,Bachelor degree,no,no,B,1,conjunction_un,L1,unsyncopated,s1,r1,33,Online_conjL1_un//b.ta.be14.none.none.wav,pu,ri,la,sil,ki,cho,fo,sil1,lu,ze,sil2,['false alarm'],[2.2772999999988883],[2.2772999999988883],none,none,,,"[""space""]",be,2,testWhatL2Uns//time_viol.r1.s2.0.wav,2.0,what,unsyncopated,a,s2,no_rule,time,L2,z,2.3679,4.0,0.0,0.5178,2 ,2.0,catalan,0.0,castellano,1.0,0.0,3.0,no,no,no,nada,0,nada,0,,,nada ,78.0,yes
34,2023-11-21_21h37.14.803,Unsyncopated1,s81,21.0,feminino,right,España,2.0,Bachelor degree,no,no,B,1,conjunction_un,L1,unsyncopated,s1,r1,34,Online_conjL1_un//b.ta.be13.none.none.wav,pu,zu,fo,sil,ki,fa,ri,sil1,ro,ne,sil2,['-'],,,none,none,,,,be,2,testWhatL2Uns//cat_viol.r1.s2.0.wav,2.0,what,unsyncopated,a,s2,no_rule,cat,L2,m,0.4506,6.0,1.0,1.2875,2 ,2.0,catalan,0.0,castellano,1.0,0.0,3.0,no,no,no,nada,0,nada,0,,,nada ,78.0,yes
35,2023-11-21_21h37.14.803,Unsyncopated1,s81,21.0,feminino,right,España,2.0,Bachelor degree,no,no,B,1,conjunction_un,L1,unsyncopated,s1,r2,35,Online_conjL1_un//b.ta.be12.0.888.wav,ta,lu,fa,sil,be,ri,la,sil1,fo,zu,sil2,['catch'],[1.4123000000006982],[1.4123000000006982],0.888,beat,0.5243000000006982,0.5243000000006982,"[""space""]",be,2,testWhatL2Uns//r2.s2.0.wav,2.0,what,unsyncopated,b,s2,rule,rule,L2,m,0.9996,3.0,0.0,0.6841,2 ,2.0,catalan,0.0,castellano,1.0,0.0,3.0,no,no,no,nada,0,nada,0,,,nada ,78.0,yes
36,2023-11-21_21h37.14.803,Unsyncopated1,s81,21.0,feminino,right,España,2.0,Bachelor degree,no,no,B,1,conjunction_un,L1,unsyncopated,s1,r2,36,Online_conjL1_un//a.pu.ki24.none.none.wav,ta,lu,ri,sil,be,la,zu,sil1,fa,ze,sil2,['-'],,,none,none,,,,pu,1,testWhatL2Uns//dep_viol.r2.s1.0.wav,2.0,what,unsyncopated,b,s1,no_rule,dep,L2,z,0.9188,5.0,0.0,0.9403,2 ,2.0,catalan,0.0,castellano,1.0,0.0,3.0,no,no,no,nada,0,nada,0,,,nada ,78.0,yes
37,2023-11-21_21h37.14.803,Unsyncopated1,s81,21.0,feminino,right,España,2.0,Bachelor degree,no,no,B,1,conjunction_un,L1,unsyncopated,s2,r1,37,Online_conjL1_un//a.pu.ki26.888.1776.wav,zu,ze,cho,sil,pu,ni,ne,sil1,ki,fo,sil2,['catch'],[1.6560999999996397],[1.6560999999996397],0.888,beat,0.7680999999996397,0.7680999999996397,"[""space""]",pu,1,testWhatL2Uns//r2.s2.1.wav,2.0,what,unsyncopated,b,s2,rule,rule,L2,z,1.0489,4.0,1.0,1.0685,2 ,2.0,catalan,0.0,castellano,1.0,0.0,3.0,no,no,no,nada,0,nada,0,,,nada ,78.0,yes
38,2023-11-21_21h37.14.803,Unsyncopated1,s81,21.0,feminino,right,España,2.0,Bachelor degree,no,no,B,1,conjunction_un,L1,unsyncopated,s1,r2,38,Online_conjL1_un//a.pu.ki27.none.none.wav,ta,fa,ro,sil,be,ze,ni,sil1,lu,fo,sil2,['-'],,,none,none,,,,pu,1,testWhatL2Uns//dep_viol.r1.s2.0.wav,2.0,what,unsyncopated,a,s2,no_rule,dep,L2,m,0.5821,6.0,1.0,1.8071,2 ,2.0,catalan,0.0,castellano,1.0,0.0,3.0,no,no,no,nada,0,nada,0,,,nada ,78.0,yes
39,2023-11-21_21h37.14.803,Unsyncopated1,s81,21.0,feminino,right,España,2.0,Bachelor degree,no,no,B,1,conjunction_un,L1,unsyncopated,s1,r2,39,Online_conjL1_un//a.pu.ki25.none.none.wav,ta,lu,la,sil,be,cho,ro,sil1,ni,zu,sil2,['-'],,,none,none,,,,pu,1,testWhatL2Uns//dep_viol.r2.s2.0.wav,2.0,what,unsyncopated,b,s2,no_rule,dep,L2,m,1.9006,5.0,1.0,0.7025,2 ,2.0,catalan,0.0,castellano,1.0,0.0,3.0,no,no,no,nada,0,nada,0,,,nada ,78.0,yes
40,2023-11-21_21h37.14.803,Unsyncopated1,s81,21.0,feminino,right,España,2.0,Bachelor degree,no,no,B,1,conjunction_un,L1,unsyncopated,s2,r1,40,Online_conjL1_un//c.ro.fo1.none.none.wav,cho,zu,fa,sil,pu,lu,ni,sil1,ki,ze,sil2,['-'],,,none,none,,,,fo,3,testWhatL2Uns//r1.s1.1.wav,2.0,what,unsyncopated,a,s1,rule,rule,L2,m,1.0485,5.0,0.0,0.9027,2 ,2.0,catalan,0.0,castellano,1.0,0.0,3.0,no,no,no,nada,0,nada,0,,,nada ,78.0,yes
41,2023-11-21_21h37.14.803,Unsyncopated1,s81,21.0,feminino,right,España,2.0,Bachelor degree,no,no,B,1,conjunction_un,L1,unsyncopated,s2,r2,41,Online_conjL1_un//c.ro.fo0.0.222.wav,ro,fo,ri,sil,ta,fa,zu,sil1,be,ze,sil2,['catch'],[0.7749000000004003],[0.7749000000004003],0.222,no_beat,0.5529000000004003,0.5529000000004003,"[""space""]",fo,3,testWhatL2Uns//cat_viol.r1.s1.0.wav,2.0,what,unsyncopated,a,s1,no_rule,cat,L2,z,0.3817,6.0,0.0,0.8505,2 ,2.0,catalan,0.0,castellano,1.0,0.0,3.0,no,no,no,nada,0,nada,0,,,nada ,78.0,yes
42,2023-11-21_21h37.14.803,Unsyncopated1,s81,21.0,feminino,right,España,2.0,Bachelor degree,no,no,B,1,conjunction_un,L1,unsyncopated,s1,r2,42,Online_conjL1_un//c.ro.fo3.222.1110.wav,ta,ro,ne,sil,be,fo,fa,sil1,cho,ze,sil2,['miss'],,,1.11,no_beat,,,,fo,3,testWhatL2Uns//r2.s2.2.wav,2.0,what,unsyncopated,b,s2,rule,rule,L2,z,1.9187,4.0,1.0,1.1585,2 ,2.0,catalan,0.0,castellano,1.0,0.0,3.0,no,no,no,nada,0,nada,0,,,nada ,78.0,yes
43,2023-11-21_21h37.14.803,Unsyncopated1,s81,21.0,feminino,right,España,2.0,Bachelor degree,no,no,B,1,conjunction_un,L1,unsyncopated,s1,r1,43,Online_conjL1_un//c.ro.fo2.none.none.wav,pu,ni,ne,sil,ki,la,ri,sil1,cho,zu,sil2,['false alarm'],[0.7891999999992549],[0.7891999999992549],none,none,,,"[""space""]",fo,3,testWhatL2Uns//r1.s2.0.wav,2.0,what,unsyncopated,a,s2,rule,rule,L2,m,1.083,5.0,0.0,1.6076,2 ,2.0,catalan,0.0,castellano,1.0,0.0,3.0,no,no,no,nada,0,nada,0,,,nada ,78.0,yes
44,2023-11-21_21h37.14.803,Unsyncopated1,s81,21.0,feminino,right,España,2.0,Bachelor degree,no,no,B,1,conjunction_un,L1,unsyncopated,s2,r1,44,Online_conjL1_un//b.ta.be0.none.none.wav,fa,fo,ze,sil,pu,ri,zu,sil1,ki,ne,sil2,['-'],,,none,none,,,,be,2,testWhatL2Uns//dep_viol.r1.s1.0.wav,2.0,what,unsyncopated,a,s1,no_rule,dep,L2,z,0.4394,6.0,0.0,0.8844,2 ,2.0,catalan,0.0,castellano,1.0,0.0,3.0,no,no,no,nada,0,nada,0,,,nada ,78.0,yes
45,2023-11-21_21h37.14.803,Unsyncopated1,s81,21.0,feminino,right,España,2.0,Bachelor degree,no,no,B,1,conjunction_un,L1,unsyncopated,s1,r2,45,Online_conjL1_un//b.ta.be3.0.888.wav,ta,fa,ri,sil,be,lu,ro,sil1,zu,la,sil2,['catch'],[1.6122999999989247],[1.6122999999989247],0.888,beat,0.7242999999989247,0.7242999999989247,"[""space""]",be,2,testWhatL2Uns//r1.s1.2.wav,2.0,what,unsyncopated,a,s1,rule,rule,L2,m,1.2996,4.0,0.0,1.7403,2 ,2.0,catalan,0.0,castellano,1.0,0.0,3.0,no,no,no,nada,0,nada,0,,,nada ,78.0,yes
46,2023-11-21_21h37.14.803,Unsyncopated1,s81,21.0,feminino,right,España,2.0,Bachelor degree,no,no,B,1,conjunction_un,L1,unsyncopated,s1,r1,46,Online_conjL1_un//b.ta.be1.none.none.wav,pu,fa,ne,sil,ki,fo,lu,sil1,cho,la,sil2,['-'],,,none,none,,,,be,2,testWhatL2Uns//time_viol.r1.s1.0.wav,2.0,what,unsyncopated,a,s1,no_rule,time,L2,z,1.3839,6.0,0.0,1.0719,2 ,2.0,catalan,0.0,castellano,1.0,0.0,3.0,no,no,no,nada,0,nada,0,,,nada ,78.0,yes
47,2023-11-21_21h37.14.803,Unsyncopated1,s81,21.0,feminino,right,España,2.0,Bachelor degree,no,no,B,1,conjunction_un,L1,unsyncopated,s1,r1,47,Online_conjL1_un//b.ta.be2.none.none.wav,pu,ro,ri,sil,ki,fa,la,sil1,ze,zu,sil2,['false alarm'],[1.854599999999607],[1.854599999999607],none,none,,,"[""space""]",be,2,testWhatL2Uns//r2.s1.2.wav,2.0,what,unsyncopated,b,s1,rule,rule,L2,z,0.3682,6.0,1.0,0.8055,2 ,2.0,catalan,0.0,castellano,1.0,0.0,3.0,no,no,no,nada,0,nada,0,,,nada ,78.0,yes
48,2023-11-21_21h37.14.803,Unsyncopated1,s81,21.0,feminino,right,España,2.0,Bachelor degree,no,no,B,1,conjunction_un,L1,unsyncopated,s2,r1,48,Online_conjL1_un//a.pu.ki0.888.1776.wav,ni,zu,ne,sil,pu,fa,ze,sil1,ki,ri,sil2,['miss'],,,0.888,beat,,,,pu,1,testConjL4Syn//r1.s2.0.wav,3.0,conjunction_syn,syncopated,a,s2,rule,rule,L4,z,0.7506,6.0,1.0,1.2287,2 ,2.0,catalan,0.0,castellano,1.0,0.0,3.0,no,no,no,nada,0,nada,0,,,nada ,78.0,yes
49,2023-11-21_21h37.14.803,Unsyncopated1,s81,21.0,feminino,right,España,2.0,Bachelor degree,no,no,B,1,conjunction_un,L1,unsyncopated,s1,r2,49,Online_conjL1_un//a.pu.ki3.none.none.wav,ta,fo,lu,sil,be,ze,cho,sil1,ri,la,sil2,['-'],,,none,none,,,,pu,1,testConjL4Syn//cat_viol.r1.s1.0.wav,3.0,conjunction_syn,syncopated,a,s1,no_rule,cat,L4,m,0.3842,5.0,1.0,1.3679,2 ,2.0,catalan,0.0,castellano,1.0,0.0,3.0,no,no,no,nada,0,nada,0,,,nada ,78.0,yes
50,2023-11-21_21h37.14.803,Unsyncopated1,s81,21.0,feminino,right,España,2.0,Bachelor degree,no,no,B,1,conjunction_un,L1,unsyncopated,s1,r2,50,Online_conjL1_un//a.pu.ki2.none.none.wav,ta,ro,ne,sil,be,lu,fo,sil1,la,ri,sil2,['-'],,,none,none,,,,pu,1,testConjL4Syn//r2.s2.2.wav,3.0,conjunction_syn,syncopated,b,s2,rule,rule,L4,m,0.6018,6.0,0.0,1.0174,2 ,2.0,catalan,0.0,castellano,1.0,0.0,3.0,no,no,no,nada,0,nada,0,,,nada ,78.0,yes
51,2023-11-21_21h37.14.803,Unsyncopated1,s81,21.0,feminino,right,España,2.0,Bachelor degree,no,no,B,1,conjunction_un,L1,unsyncopated,s2,r1,51,Online_conjL1_un//a.pu.ki1.888.1776.wav,ro,fa,ne,sil,pu,lu,cho,sil1,ki,ri,sil2,['catch'],[1.4882999999988442],[1.4882999999988442],0.888,beat,0.6002999999988442,0.6002999999988442,"[""space""]",pu,1,testConjL4Syn//cat_viol.r1.s2.0.wav,3.0,conjunction_syn,syncopated,a,s2,no_rule,cat,L4,z,0.1511,5.0,0.0,0.9338,2 ,2.0,catalan,0.0,castellano,1.0,0.0,3.0,no,no,no,nada,0,nada,0,,,nada ,78.0,yes
52,2023-11-21_21h37.14.803,Unsyncopated1,s81,21.0,feminino,right,España,2.0,Bachelor degree,no,no,B,1,conjunction_un,L1,unsyncopated,s1,r2,52,Online_conjL1_un//c.ro.fo16.none.none.wav,ta,lu,fa,sil,be,zu,ze,sil1,ne,cho,sil2,['-'],,,none,none,,,,fo,3,testConjL4Syn//r1.s2.2.wav,3.0,conjunction_syn,syncopated,a,s2,rule,rule,L4,m,0.2883,5.0,0.0,1.4734,2 ,2.0,catalan,0.0,castellano,1.0,0.0,3.0,no,no,no,nada,0,nada,0,,,nada ,78.0,yes
53,2023-11-21_21h37.14.803,Unsyncopated1,s81,21.0,feminino,right,España,2.0,Bachelor degree,no,no,B,1,conjunction_un,L1,unsyncopated,s2,r2,53,Online_conjL1_un//c.ro.fo19.none.none.wav,cho,ne,zu,sil,ta,fa,lu,sil1,be,ze,sil2,['-'],,,none,none,,,,fo,3,testConjL4Syn//dep_viol.r1.s2.0.wav,3.0,conjunction_syn,syncopated,a,s2,no_rule,dep,L4,z,1.0979,5.0,0.0,1.4682,2 ,2.0,catalan,0.0,castellano,1.0,0.0,3.0,no,no,no,nada,0,nada,0,,,nada ,78.0,yes
54,2023-11-21_21h37.14.803,Unsyncopated1,s81,21.0,feminino,right,España,2.0,Bachelor degree,no,no,B,1,conjunction_un,L1,unsyncopated,s1,r2,54,Online_conjL1_un//c.ro.fo18.1776.222.wav,ta,fo,ni,sil,be,cho,zu,sil1,ro,ne,sil2,['miss'],,,0.222,no_beat,,,,fo,3,testConjL4Syn//time_viol.r2.s1.0.wav,3.0,conjunction_syn,syncopated,b,s1,no_rule,time,L4,m,0.4836,6.0,1.0,1.4339,2 ,2.0,catalan,0.0,castellano,1.0,0.0,3.0,no,no,no,nada,0,nada,0,,,nada ,78.0,yes
55,2023-11-21_21h37.14.803,Unsyncopated1,s81,21.0,feminino,right,España,2.0,Bachelor degree,no,no,B,1,conjunction_un,L1,unsyncopated,s2,r1,55,Online_conjL1_un//c.ro.fo17.none.none.wav,cho,lu,zu,sil,pu,ze,ni,sil1,ki,la,sil2,['-'],,,none,none,,,,fo,3,testConjL4Syn//r2.s1.1.wav,3.0,conjunction_syn,syncopated,b,s1,rule,rule,L4,m,0.402,4.0,0.0,1.79,2 ,2.0,catalan,0.0,castellano,1.0,0.0,3.0,no,no,no,nada,0,nada,0,,,nada ,78.0,yes
56,2023-11-21_21h37.14.803,Unsyncopated1,s81,21.0,feminino,right,España,2.0,Bachelor degree,no,no,B,1,conjunction_un,L1,unsyncopated,s2,r1,56,Online_conjL1_un//c.ro.fo12.222.1110.wav,lu,ro,cho,sil,pu,fo,ze,sil1,ki,la,sil2,['catch'],[1.800700000001143],[1.800700000001143],1.11,no_beat,0.690700000001143,0.690700000001143,"[""space""]",fo,3,testConjL4Syn//cat_viol.r2.s2.0.wav,3.0,conjunction_syn,syncopated,b,s2,no_rule,cat,L4,z,0.8511,5.0,0.0,2.3394,2 ,2.0,catalan,0.0,castellano,1.0,0.0,3.0,no,no,no,nada,0,nada,0,,,nada ,78.0,yes
57,2023-11-21_21h37.14.803,Unsyncopated1,s81,21.0,feminino,right,España,2.0,Bachelor degree,no,no,B,1,conjunction_un,L1,unsyncopated,s1,r2,57,Online_conjL1_un//c.ro.fo13.1332.222.wav,ta,fo,fa,sil,be,ri,ro,sil1,ne,cho,sil2,['miss'],,,0.222,no_beat,,,,fo,3,testConjL4Syn//r1.s2.1.wav,3.0,conjunction_syn,syncopated,a,s2,rule,rule,L4,z,1.2166,6.0,1.0,1.1176,2 ,2.0,catalan,0.0,castellano,1.0,0.0,3.0,no,no,no,nada,0,nada,0,,,nada ,78.0,yes
58,2023-11-21_21h37.14.803,Unsyncopated1,s81,21.0,feminino,right,España,2.0,Bachelor degree,no,no,B,1,conjunction_un,L1,unsyncopated,s1,r1,58,Online_conjL1_un//c.ro.fo15.none.none.wav,pu,la,ri,sil,ki,lu,zu,sil1,cho,ni,sil2,['-'],,,none,none,,,,fo,3,testConjL4Syn//r1.s1.1.wav,3.0,conjunction_syn,syncopated,a,s1,rule,rule,L4,m,0.3501,6.0,0.0,3.12,2 ,2.0,catalan,0.0,castellano,1.0,0.0,3.0,no,no,no,nada,0,nada,0,,,nada ,78.0,yes
59,2023-11-21_21h37.14.803,Unsyncopated1,s81,21.0,feminino,right,España,2.0,Bachelor degree,no,no,B,1,conjunction_un,L1,unsyncopated,s2,r2,59,Online_conjL1_un//c.ro.fo14.none.none.wav,ne,ze,ri,sil,ta,ni,lu,sil1,be,fa,sil2,['-'],,,none,none,,,,fo,3,testConjL4Syn//time_viol.r2.s2.0.wav,3.0,conjunction_syn,syncopated,b,s2,no_rule,time,L4,z,3.0499,4.0,0.0,1.187,2 ,2.0,catalan,0.0,castellano,1.0,0.0,3.0,no,no,no,nada,0,nada,0,,,nada ,78.0,yes
60,2023-11-21_21h37.14.803,Unsyncopated1,s81,21.0,feminino,right,España,2.0,Bachelor degree,no,no,B,1,conjunction_un,L1,unsyncopated,s2,r2,60,Online_conjL1_un//b.ta.be19.888.1776.wav,zu,ni,lu,sil,ta,ri,la,sil1,be,ze,sil2,['catch'],[2.5827000000011253],[2.5827000000011253],1.776,beat,0.8067000000011253,0.8067000000011253,"[""space""]",be,2,testConjL4Syn//dep_viol.r1.s1.0.wav,3.0,conjunction_syn,syncopated,a,s1,no_rule,dep,L4,m,0.3037,6.0,1.0,0.402,2 ,2.0,catalan,0.0,castellano,1.0,0.0,3.0,no,no,no,nada,0,nada,0,,,nada ,78.0,yes
61,2023-11-21_21h37.14.803,Unsyncopated1,s81,21.0,feminino,right,España,2.0,Bachelor degree,no,no,B,1,conjunction_un,L1,unsyncopated,s2,r2,61,Online_conjL1_un//b.ta.be16.888.1776.wav,ze,cho,fo,sil,ta,ne,zu,sil1,be,lu,sil2,['catch'],[2.6066999999992504],[2.6066999999992504],1.776,beat,0.8306999999992504,0.8306999999992504,"[""space""]",be,2,testConjL4Syn//time_viol.r1.s1.0.wav,3.0,conjunction_syn,syncopated,a,s1,no_rule,time,L4,z,0.5717,5.0,0.0,0.7845,2 ,2.0,catalan,0.0,castellano,1.0,0.0,3.0,no,no,no,nada,0,nada,0,,,nada ,78.0,yes
62,2023-11-21_21h37.14.803,Unsyncopated1,s81,21.0,feminino,right,España,2.0,Bachelor degree,no,no,B,1,conjunction_un,L1,unsyncopated,s2,r2,62,Online_conjL1_un//b.ta.be17.888.1776.wav,ro,zu,ne,sil,ta,ze,fo,sil1,be,ri,sil2,['catch'],[2.1894000000003757],[2.1894000000003757],1.776,beat,0.4134000000003757,0.4134000000003757,"[""space""]",be,2,testConjL4Syn//r1.s1.2.wav,3.0,conjunction_syn,syncopated,a,s1,rule,rule,L4,z,1.1036,5.0,1.0,0.6858,2 ,2.0,catalan,0.0,castellano,1.0,0.0,3.0,no,no,no,nada,0,nada,0,,,nada ,78.0,yes
63,2023-11-21_21h37.14.803,Unsyncopated1,s81,21.0,feminino,right,España,2.0,Bachelor degree,no,no,B,1,conjunction_un,L1,unsyncopated,s2,r1,63,Online_conjL1_un//b.ta.be18.none.none.wav,ne,ze,ro,sil,pu,la,cho,sil1,ki,lu,sil2,['-'],,,none,none,,,,be,2,testConjL4Syn//time_viol.r1.s2.0.wav,3.0,conjunction_syn,syncopated,a,s2,no_rule,time,L4,m,0.4704,6.0,1.0,0.7825,2 ,2.0,catalan,0.0,castellano,1.0,0.0,3.0,no,no,no,nada,0,nada,0,,,nada ,78.0,yes
64,2023-11-21_21h37.14.803,Unsyncopated1,s81,21.0,feminino,right,España,2.0,Bachelor degree,no,no,B,1,conjunction_un,L1,unsyncopated,s2,r1,64,Online_conjL1_un//d.ne.ni0.none.none.wav,ro,lu,fa,sil,pu,fo,ri,sil1,ki,ze,sil2,['-'],,,none,none,,,,ni,4,testConjL4Syn//dep_viol.r2.s2.0.wav,3.0,conjunction_syn,syncopated,b,s2,no_rule,dep,L4,m,1.0837,5.0,1.0,0.7007,2 ,2.0,catalan,0.0,castellano,1.0,0.0,3.0,no,no,no,nada,0,nada,0,,,nada ,78.0,yes
65,2023-11-21_21h37.14.803,Unsyncopated1,s81,21.0,feminino,right,España,2.0,Bachelor degree,no,no,B,1,conjunction_un,L1,unsyncopated,s2,r1,65,Online_conjL1_un//d.ne.ni1.222.444.wav,ro,ne,ni,sil,pu,ze,fo,sil1,ki,cho,sil2,['miss'],,,0.444,no_beat,,,,ni,4,testConjL4Syn//r2.s1.2.wav,3.0,conjunction_syn,syncopated,b,s1,rule,rule,L4,z,0.3202,6.0,1.0,0.6499,2 ,2.0,catalan,0.0,castellano,1.0,0.0,3.0,no,no,no,nada,0,nada,0,,,nada ,78.0,yes
66,2023-11-21_21h37.14.803,Unsyncopated1,s81,21.0,feminino,right,España,2.0,Bachelor degree,no,no,B,1,conjunction_un,L1,unsyncopated,s2,r1,66,Online_conjL1_un//d.ne.ni3.none.none.wav,cho,lu,zu,sil,pu,ro,la,sil1,ki,ri,sil2,['-'],,,none,none,,,,ni,4,testConjL4Syn//r2.s1.0.wav,3.0,conjunction_syn,syncopated,b,s1,rule,rule,L4,z,1.2815,4.0,1.0,0.8004,2 ,2.0,catalan,0.0,castellano,1.0,0.0,3.0,no,no,no,nada,0,nada,0,,,nada ,78.0,yes
67,2023-11-21_21h37.14.803,Unsyncopated1,s81,21.0,feminino,right,España,2.0,Bachelor degree,no,no,B,1,conjunction_un,L1,unsyncopated,s1,r1,67,Online_conjL1_un//d.ne.ni2.none.none.wav,pu,ze,fa,sil,ki,ro,cho,sil1,lu,zu,sil2,['false alarm'],[0.07090000000027885],[0.07090000000027885],none,none,,,"[""space""]",ni,4,testConjL4Syn//dep_viol.r2.s1.0.wav,3.0,conjunction_syn,syncopated,b,s1,no_rule,dep,L4,m,1.0483,6.0,1.0,1.2834,2 ,2.0,catalan,0.0,castellano,1.0,0.0,3.0,no,no,no,nada,0,nada,0,,,nada ,78.0,yes
68,2023-11-21_21h37.14.803,Unsyncopated1,s81,21.0,feminino,right,España,2.0,Bachelor degree,no,no,B,1,conjunction_un,L1,unsyncopated,s2,r2,68,Online_conjL1_un//a.pu.ki31.none.none.wav,ze,la,ni,sil,ta,ne,lu,sil1,be,cho,sil2,['-'],,,none,none,,,,pu,1,testConjL4Syn//cat_viol.r2.s1.0.wav,3.0,conjunction_syn,syncopated,b,s1,no_rule,cat,L4,z,1.4377,7.0,0.0,1.2221,2 ,2.0,catalan,0.0,castellano,1.0,0.0,3.0,no,no,no,nada,0,nada,0,,,nada ,78.0,yes
69,2023-11-21_21h37.14.803,Unsyncopated1,s81,21.0,feminino,right,España,2.0,Bachelor degree,no,no,B,1,conjunction_un,L1,unsyncopated,s1,r1,69,Online_conjL1_un//a.pu.ki29.0.888.wav,pu,fa,ze,sil,ki,la,cho,sil1,ro,ni,sil2,['catch'],[0.7081999999992377],[0.7081999999992377],0.0,beat,0.7081999999992377,0.7081999999992377,"[""space""]",pu,1,testConjL4Syn//r2.s2.1.wav,3.0,conjunction_syn,syncopated,b,s2,rule,rule,L4,m,1.4152,5.0,0.0,0.6512,2 ,2.0,catalan,0.0,castellano,1.0,0.0,3.0,no,no,no,nada,0,nada,0,,,nada ,78.0,yes
70,2023-11-21_21h37.14.803,Unsyncopated1,s81,21.0,feminino,right,España,2.0,Bachelor degree,no,no,B,1,conjunction_un,L1,unsyncopated,s2,r2,70,Online_conjL1_un//a.pu.ki28.none.none.wav,ne,zu,ze,sil,ta,ni,fa,sil1,be,lu,sil2,['-'],,,none,none,,,,pu,1,testConjL4Syn//r1.s1.0.wav,3.0,conjunction_syn,syncopated,a,s1,rule,rule,L4,z,0.6002,4.0,1.0,0.8509,2 ,2.0,catalan,0.0,castellano,1.0,0.0,3.0,no,no,no,nada,0,nada,0,,,nada ,78.0,yes
71,2023-11-21_21h37.14.803,Unsyncopated1,s81,21.0,feminino,right,España,2.0,Bachelor degree,no,no,B,1,conjunction_un,L1,unsyncopated,s2,r2,71,Online_conjL1_un//a.pu.ki30.none.none.wav,ri,lu,ze,sil,ta,zu,fa,sil1,be,ne,sil2,['-'],,,none,none,,,,pu,1,testConjL4Syn//r2.s2.0.wav,3.0,conjunction_syn,syncopated,b,s2,rule,rule,L4,m,0.1699,5.0,0.0,0.7506,2 ,2.0,catalan,0.0,castellano,1.0,0.0,3.0,no,no,no,nada,0,nada,0,,,nada ,78.0,yes
72,2023-11-21_21h37.14.803,Unsyncopated1,s81,21.0,feminino,right,España,2.0,Bachelor degree,no,no,B,1,conjunction_un,L1,unsyncopated,s2,r1,72,Online_conjL1_un//c.ro.fo9.1332.444.wav,ri,ze,fo,sil,pu,fa,ro,sil1,ki,ne,sil2,"['false alarm', 'catch']","[0.06780000000071595, 1.8004000000004226]",[1.8004000000004226],0.444,no_beat,,1.3564000000004226,"[""space"",""space""]",fo,3,testWhenL3Uns//cat_viol.r1.s2.0.wav,4.0,when,unsyncopated,a,s2,no_rule,cat,L3,z,0.3185,6.0,1.0,1.0927,2 ,2.0,catalan,0.0,castellano,1.0,0.0,3.0,no,no,no,nada,0,nada,0,,,nada ,78.0,yes
73,2023-11-21_21h37.14.803,Unsyncopated1,s81,21.0,feminino,right,España,2.0,Bachelor degree,no,no,B,1,conjunction_un,L1,unsyncopated,s1,r2,73,Online_conjL1_un//c.ro.fo11.none.none.wav,ta,lu,la,sil,be,fa,ne,sil1,ze,ni,sil2,['-'],,,none,none,,,,fo,3,testWhenL3Uns//cat_viol.r2.s1.0.wav,4.0,when,unsyncopated,b,s1,no_rule,cat,L3,z,0.6819,7.0,1.0,0.9554,2 ,2.0,catalan,0.0,castellano,1.0,0.0,3.0,no,no,no,nada,0,nada,0,,,nada ,78.0,yes
74,2023-11-21_21h37.14.803,Unsyncopated1,s81,21.0,feminino,right,España,2.0,Bachelor degree,no,no,B,1,conjunction_un,L1,unsyncopated,s2,r2,74,Online_conjL1_un//c.ro.fo8.none.none.wav,ni,cho,ri,sil,ta,la,ze,sil1,be,zu,sil2,['-'],,,none,none,,,,fo,3,testWhenL3Uns//time_viol.r2.s1.0.wav,4.0,when,unsyncopated,b,s1,no_rule,time,L3,m,0.4178,4.0,0.0,0.6163,2 ,2.0,catalan,0.0,castellano,1.0,0.0,3.0,no,no,no,nada,0,nada,0,,,nada ,78.0,yes
75,2023-11-21_21h37.14.803,Unsyncopated1,s81,21.0,feminino,right,España,2.0,Bachelor degree,no,no,B,1,conjunction_un,L1,unsyncopated,s1,r2,75,Online_conjL1_un//c.ro.fo10.none.none.wav,ta,zu,cho,sil,be,ze,la,sil1,ne,lu,sil2,['false alarm'],[0.2929999999998927],[0.2929999999998927],none,none,,,"[""space""]",fo,3,testWhenL3Uns//time_viol.r2.s2.0.wav,4.0,when,unsyncopated,b,s2,no_rule,time,L3,m,0.4692,5.0,0.0,0.6654,2 ,2.0,catalan,0.0,castellano,1.0,0.0,3.0,no,no,no,nada,0,nada,0,,,nada ,78.0,yes
76,2023-11-21_21h37.14.803,Unsyncopated1,s81,21.0,feminino,right,España,2.0,Bachelor degree,no,no,B,1,conjunction_un,L1,unsyncopated,s2,r2,76,Online_conjL1_un//b.ta.be4.888.1776.wav,fa,ri,cho,sil,ta,ni,ze,sil1,be,ro,sil2,['catch'],[2.3741000000014765],[2.3741000000014765],1.776,beat,0.5981000000014765,0.5981000000014765,"[""space""]",be,2,testWhenL3Uns//r1.s2.1.wav,4.0,when,unsyncopated,a,s2,rule,rule,L3,z,0.3712,6.0,1.0,0.8024,2 ,2.0,catalan,0.0,castellano,1.0,0.0,3.0,no,no,no,nada,0,nada,0,,,nada ,78.0,yes
77,2023-11-21_21h37.14.803,Unsyncopated1,s81,21.0,feminino,right,España,2.0,Bachelor degree,no,no,B,1,conjunction_un,L1,unsyncopated,s2,r1,77,Online_conjL1_un//b.ta.be5.none.none.wav,ri,ni,fo,sil,pu,la,ze,sil1,ki,zu,sil2,['-'],,,none,none,,,,be,2,testWhenL3Uns//r2.s1.1.wav,4.0,when,unsyncopated,b,s1,rule,rule,L3,m,0.8055,4.0,0.0,1.0557,2 ,2.0,catalan,0.0,castellano,1.0,0.0,3.0,no,no,no,nada,0,nada,0,,,nada ,78.0,yes
78,2023-11-21_21h37.14.803,Unsyncopated1,s81,21.0,feminino,right,España,2.0,Bachelor degree,no,no,B,1,conjunction_un,L1,unsyncopated,s2,r1,78,Online_conjL1_un//b.ta.be7.none.none.wav,zu,fa,lu,sil,pu,fo,ri,sil1,ki,ne,sil2,['-'],,,none,none,,,,be,2,testWhenL3Uns//r1.s1.0.wav,4.0,when,unsyncopated,a,s1,rule,rule,L3,z,0.3071,6.0,1.0,0.7174,2 ,2.0,catalan,0.0,castellano,1.0,0.0,3.0,no,no,no,nada,0,nada,0,,,nada ,78.0,yes
79,2023-11-21_21h37.14.803,Unsyncopated1,s81,21.0,feminino,right,España,2.0,Bachelor degree,no,no,B,1,conjunction_un,L1,unsyncopated,s2,r1,79,Online_conjL1_un//b.ta.be6.none.none.wav,la,fo,cho,sil,pu,fa,ro,sil1,ki,ze,sil2,['-'],,,none,none,,,,be,2,testWhenL3Uns//dep_viol.r2.s1.0.wav,4.0,when,unsyncopated,b,s1,no_rule,dep,L3,m,0.4507,5.0,0.0,1.0378,2 ,2.0,catalan,0.0,castellano,1.0,0.0,3.0,no,no,no,nada,0,nada,0,,,nada ,78.0,yes
80,2023-11-21_21h37.14.803,Unsyncopated1,s81,21.0,feminino,right,España,2.0,Bachelor degree,no,no,B,1,conjunction_un,L1,unsyncopated,s1,r1,80,Online_conjL1_un//b.ta.be30.none.none.wav,pu,fa,lu,sil,ki,ni,ne,sil1,ri,ro,sil2,['-'],,,none,none,,,,be,2,testWhenL3Uns//r1.s1.1.wav,4.0,when,unsyncopated,a,s1,rule,rule,L3,m,0.451,6.0,0.0,0.7847,2 ,2.0,catalan,0.0,castellano,1.0,0.0,3.0,no,no,no,nada,0,nada,0,,,nada ,78.0,yes
81,2023-11-21_21h37.14.803,Unsyncopated1,s81,21.0,feminino,right,España,2.0,Bachelor degree,no,no,B,1,conjunction_un,L1,unsyncopated,s1,r2,81,Online_conjL1_un//b.ta.be29.0.888.wav,ta,ze,lu,sil,be,la,zu,sil1,fo,fa,sil2,"['false alarm', 'catch']","[0.7560999999996056, 2.111599999999612]",[2.111599999999612],0.888,beat,,1.223599999999612,"[""space"",""space""]",be,2,testWhenL3Uns//r2.s2.2.wav,4.0,when,unsyncopated,b,s2,rule,rule,L3,z,0.0185,4.0,1.0,1.9851,2 ,2.0,catalan,0.0,castellano,1.0,0.0,3.0,no,no,no,nada,0,nada,0,,,nada ,78.0,yes
82,2023-11-21_21h37.14.803,Unsyncopated1,s81,21.0,feminino,right,España,2.0,Bachelor degree,no,no,B,1,conjunction_un,L1,unsyncopated,s2,r2,82,Online_conjL1_un//b.ta.be31.888.1776.wav,la,cho,zu,sil,ta,ne,ri,sil1,be,ze,sil2,['miss'],,,1.776,beat,,,,be,2,testWhenL3Uns//r2.s2.0.wav,4.0,when,unsyncopated,b,s2,rule,rule,L3,m,0.6476,5.0,0.0,0.7381,2 ,2.0,catalan,0.0,castellano,1.0,0.0,3.0,no,no,no,nada,0,nada,0,,,nada ,78.0,yes
83,2023-11-21_21h37.14.803,Unsyncopated1,s81,21.0,feminino,right,España,2.0,Bachelor degree,no,no,B,1,conjunction_un,L1,unsyncopated,s1,r2,83,Online_conjL1_un//b.ta.be28.0.888.wav,ta,fo,ni,sil,be,ze,ne,sil1,fa,ri,sil2,"['false alarm', 'catch']","[0.47310000000140917, 1.7246000000014874]",[1.7246000000014874],0.888,beat,0.8366000000014874,0.8366000000014874,"[""space"",""space""]",be,2,testWhenL3Uns//dep_viol.r1.s2.0.wav,4.0,when,unsyncopated,a,s2,no_rule,dep,L3,m,1.0169,6.0,0.0,0.5543,2 ,2.0,catalan,0.0,castellano,1.0,0.0,3.0,no,no,no,nada,0,nada,0,,,nada ,78.0,yes
84,2023-11-21_21h37.14.803,Unsyncopated1,s81,21.0,feminino,right,España,2.0,Bachelor degree,no,no,B,1,conjunction_un,L1,unsyncopated,s1,r2,84,Online_conjL1_un//c.ro.fo20.none.none.wav,ta,ri,ni,sil,be,ze,cho,sil1,la,fa,sil2,['-'],,,none,none,,,,fo,3,testWhenL3Uns//dep_viol.r1.s1.0.wav,4.0,when,unsyncopated,a,s1,no_rule,dep,L3,z,0.3583,5.0,1.0,0.8027,2 ,2.0,catalan,0.0,castellano,1.0,0.0,3.0,no,no,no,nada,0,nada,0,,,nada ,78.0,yes
85,2023-11-21_21h37.14.803,Unsyncopated1,s81,21.0,feminino,right,España,2.0,Bachelor degree,no,no,B,1,conjunction_un,L1,unsyncopated,s1,r1,85,Online_conjL1_un//c.ro.fo23.444.1332.wav,pu,ri,ro,sil,ki,ne,fo,sil1,cho,ze,sil2,['false alarm'],[0.8077999999989061],[0.8077999999989061],1.332,no_beat,,,"[""space""]",fo,3,testWhenL3Uns//r1.s1.2.wav,4.0,when,unsyncopated,a,s1,rule,rule,L3,z,0.9899,6.0,1.0,0.6068,2 ,2.0,catalan,0.0,castellano,1.0,0.0,3.0,no,no,no,nada,0,nada,0,,,nada ,78.0,yes
86,2023-11-21_21h37.14.803,Unsyncopated1,s81,21.0,feminino,right,España,2.0,Bachelor degree,no,no,B,1,conjunction_un,L1,unsyncopated,s2,r1,86,Online_conjL1_un//c.ro.fo21.none.none.wav,zu,lu,cho,sil,pu,la,ne,sil1,ki,fa,sil2,['false alarm'],[1.60639999999853],[1.60639999999853],none,none,,,"[""space""]",fo,3,testWhenL3Uns//r1.s2.2.wav,4.0,when,unsyncopated,a,s2,rule,rule,L3,z,0.7161,5.0,1.0,0.8174,2 ,2.0,catalan,0.0,castellano,1.0,0.0,3.0,no,no,no,nada,0,nada,0,,,nada ,78.0,yes
87,2023-11-21_21h37.14.803,Unsyncopated1,s81,21.0,feminino,right,España,2.0,Bachelor degree,no,no,B,1,conjunction_un,L1,unsyncopated,s1,r1,87,Online_conjL1_un//c.ro.fo22.444.1332.wav,pu,la,ro,sil,ki,ri,fo,sil1,cho,ni,sil2,['miss'],,,1.332,no_beat,,,,fo,3,testWhenL3Uns//r1.s2.0.wav,4.0,when,unsyncopated,a,s2,rule,rule,L3,m,4.1474,4.0,0.0,0.851,2 ,2.0,catalan,0.0,castellano,1.0,0.0,3.0,no,no,no,nada,0,nada,0,,,nada ,78.0,yes
88,2023-11-21_21h37.14.803,Unsyncopated1,s81,21.0,feminino,right,España,2.0,Bachelor degree,no,no,B,1,conjunction_un,L1,unsyncopated,s1,r1,88,Online_conjL1_un//b.ta.be23.none.none.wav,pu,ro,zu,sil,ki,ze,ni,sil1,fo,ri,sil2,['-'],,,none,none,,,,be,2,testWhenL3Uns//time_viol.r1.s1.0.wav,4.0,when,unsyncopated,a,s1,no_rule,time,L3,z,0.6499,5.0,1.0,0.9173,2 ,2.0,catalan,0.0,castellano,1.0,0.0,3.0,no,no,no,nada,0,nada,0,,,nada ,78.0,yes
89,2023-11-21_21h37.14.803,Unsyncopated1,s81,21.0,feminino,right,España,2.0,Bachelor degree,no,no,B,1,conjunction_un,L1,unsyncopated,s1,r1,89,Online_conjL1_un//b.ta.be22.none.none.wav,pu,ze,fa,sil,ki,zu,cho,sil1,ro,la,sil2,['-'],,,none,none,,,,be,2,testWhenL3Uns//cat_viol.r2.s2.0.wav,4.0,when,unsyncopated,b,s2,no_rule,cat,L3,m,0.5674,3.0,0.0,0.9176,2 ,2.0,catalan,0.0,castellano,1.0,0.0,3.0,no,no,no,nada,0,nada,0,,,nada ,78.0,yes
90,2023-11-21_21h37.14.803,Unsyncopated1,s81,21.0,feminino,right,España,2.0,Bachelor degree,no,no,B,1,conjunction_un,L1,unsyncopated,s1,r2,90,Online_conjL1_un//b.ta.be21.0.888.wav,ta,fo,ri,sil,be,lu,ni,sil1,zu,la,sil2,['catch'],[1.509899999998538],[1.509899999998538],0.888,beat,0.6218999999985381,0.6218999999985381,"[""space""]",be,2,testWhenL3Uns//r2.s1.0.wav,4.0,when,unsyncopated,b,s1,rule,rule,L3,z,0.2157,4.0,1.0,0.8094,2 ,2.0,catalan,0.0,castellano,1.0,0.0,3.0,no,no,no,nada,0,nada,0,,,nada ,78.0,yes
91,2023-11-21_21h37.14.803,Unsyncopated1,s81,21.0,feminino,right,España,2.0,Bachelor degree,no,no,B,1,conjunction_un,L1,unsyncopated,s1,r1,91,Online_conjL1_un//b.ta.be20.none.none.wav,pu,ri,ro,sil,ki,ze,ne,sil1,zu,fa,sil2,['-'],,,none,none,,,,be,2,testWhenL3Uns//r2.s1.2.wav,4.0,when,unsyncopated,b,s1,rule,rule,L3,z,0.4533,5.0,1.0,0.8169,2 ,2.0,catalan,0.0,castellano,1.0,0.0,3.0,no,no,no,nada,0,nada,0,,,nada ,78.0,yes
92,2023-11-21_21h37.14.803,Unsyncopated1,s81,21.0,feminino,right,España,2.0,Bachelor degree,no,no,B,1,conjunction_un,L1,unsyncopated,s2,r2,92,Online_conjL1_un//c.ro.fo7.444.1110.wav,ni,lu,ro,sil,ta,fo,fa,sil1,be,la,sil2,['catch'],[2.217100000001551],[2.217100000001551],1.11,no_beat,1.107100000001551,1.107100000001551,"[""space""]",fo,3,testWhenL3Uns//r2.s2.1.wav,4.0,when,unsyncopated,b,s2,rule,rule,L3,m,0.3671,6.0,0.0,2.1678,2 ,2.0,catalan,0.0,castellano,1.0,0.0,3.0,no,no,no,nada,0,nada,0,,,nada ,78.0,yes
93,2023-11-21_21h37.14.803,Unsyncopated1,s81,21.0,feminino,right,España,2.0,Bachelor degree,no,no,B,1,conjunction_un,L1,unsyncopated,s2,r2,93,Online_conjL1_un//c.ro.fo4.0.1110.wav,ro,lu,fa,sil,ta,fo,ne,sil1,be,ni,sil2,['miss'],,,1.11,no_beat,,,,fo,3,testWhenL3Uns//time_viol.r1.s2.0.wav,4.0,when,unsyncopated,a,s2,no_rule,time,L3,m,1.1686,4.0,0.0,1.8505,2 ,2.0,catalan,0.0,castellano,1.0,0.0,3.0,no,no,no,nada,0,nada,0,,,nada ,78.0,yes
94,2023-11-21_21h37.14.803,Unsyncopated1,s81,21.0,feminino,right,España,2.0,Bachelor degree,no,no,B,1,conjunction_un,L1,unsyncopated,s1,r1,94,Online_conjL1_un//c.ro.fo6.none.none.wav,pu,ne,la,sil,ki,ze,ni,sil1,zu,ri,sil2,['false alarm'],[2.3430999999995947],[2.3430999999995947],none,none,,,"[""space""]",fo,3,testWhenL3Uns//dep_viol.r2.s2.0.wav,4.0,when,unsyncopated,b,s2,no_rule,dep,L3,z,0.2914,6.0,1.0,0.8847,2 ,2.0,catalan,0.0,castellano,1.0,0.0,3.0,no,no,no,nada,0,nada,0,,,nada ,78.0,yes
95,2023-11-21_21h37.14.803,Unsyncopated1,s81,21.0,feminino,right,España,2.0,Bachelor degree,no,no,B,1,conjunction_un,L1,unsyncopated,s2,r1,95,Online_conjL1_un//c.ro.fo5.1110.222.wav,ze,fo,lu,sil,pu,ro,zu,sil1,ki,la,sil2,['catch'],[1.0410000000000537],[1.0410000000000537],0.222,no_beat,0.8190000000000537,0.8190000000000537,"[""space""]",fo,3,testWhenL3Uns//cat_viol.r1.s1.0.wav,4.0,when,unsyncopated,a,s1,no_rule,cat,L3,z,0.3011,5.0,1.0,0.7757,2 ,2.0,catalan,0.0,castellano,1.0,0.0,3.0,no,no,no,nada,0,nada,0,,,nada ,78.0,yes
96,2023-11-21_21h37.14.803,Unsyncopated1,s81,21.0,feminino,right,España,2.0,Bachelor degree,no,no,B,1,conjunction_un,L1,unsyncopated,s2,r1,96,Online_conjL1_un//c.ro.fo26.1332.0.wav,fo,lu,ne,sil,pu,ri,ro,sil1,ki,ze,sil2,['miss'],,,0.0,beat,,,,fo,3,,,,,,,,,,,,,,,2 ,2.0,catalan,0.0,castellano,1.0,0.0,3.0,no,no,no,nada,0,nada,0,,,nada ,78.0,yes
97,2023-11-21_21h37.14.803,Unsyncopated1,s81,21.0,feminino,right,España,2.0,Bachelor degree,no,no,B,1,conjunction_un,L1,unsyncopated,s2,r1,97,Online_conjL1_un//c.ro.fo24.none.none.wav,la,lu,cho,sil,pu,fa,ri,sil1,ki,ze,sil2,['-'],,,none,none,,,,fo,3,,,,,,,,,,,,,,,2 ,2.0,catalan,0.0,castellano,1.0,0.0,3.0,no,no,no,nada,0,nada,0,,,nada ,78.0,yes
98,2023-11-21_21h37.14.803,Unsyncopated1,s81,21.0,feminino,right,España,2.0,Bachelor degree,no,no,B,1,conjunction_un,L1,unsyncopated,s1,r1,98,Online_conjL1_un//c.ro.fo27.1332.222.wav,pu,fo,lu,sil,ki,la,ro,sil1,ze,zu,sil2,['catch'],[0.6392000000010967],[0.6392000000010967],0.222,no_beat,0.4172000000010967,0.4172000000010967,"[""space""]",fo,3,,,,,,,,,,,,,,,2 ,2.0,catalan,0.0,castellano,1.0,0.0,3.0,no,no,no,nada,0,nada,0,,,nada ,78.0,yes
99,2023-11-21_21h37.14.803,Unsyncopated1,s81,21.0,feminino,right,España,2.0,Bachelor degree,no,no,B,1,conjunction_un,L1,unsyncopated,s2,r2,99,Online_conjL1_un//c.ro.fo25.none.none.wav,ni,cho,fa,sil,ta,zu,la,sil1,be,lu,sil2,['false alarm'],[0.2785000000000082],[0.2785000000000082],none,none,,,"[""space""]",fo,3,,,,,,,,,,,,,,,2 ,2.0,catalan,0.0,castellano,1.0,0.0,3.0,no,no,no,nada,0,nada,0,,,nada ,78.0,yes
100,2023-11-21_21h37.14.803,Unsyncopated1,s81,21.0,feminino,right,España,2.0,Bachelor degree,no,no,B,1,conjunction_un,L1,unsyncopated,s1,r2,100,Online_conjL1_un//d.ne.ni31.none.none.wav,ta,ro,cho,sil,be,ri,lu,sil1,fo,fa,sil2,['-'],,,none,none,,,,ni,4,,,,,,,,,,,,,,,2 ,2.0,catalan,0.0,castellano,1.0,0.0,3.0,no,no,no,nada,0,nada,0,,,nada ,78.0,yes
101,2023-11-21_21h37.14.803,Unsyncopated1,s81,21.0,feminino,right,España,2.0,Bachelor degree,no,no,B,1,conjunction_un,L1,unsyncopated,s2,r2,101,Online_conjL1_un//d.ne.ni29.0.444.wav,ne,ro,ni,sil,ta,fa,cho,sil1,be,ri,sil2,['catch'],[1.0409000000004198],[1.0409000000004198],0.444,no_beat,0.5969000000004199,0.5969000000004199,"[""space""]",ni,4,,,,,,,,,,,,,,,2 ,2.0,catalan,0.0,castellano,1.0,0.0,3.0,no,no,no,nada,0,nada,0,,,nada ,78.0,yes
102,2023-11-21_21h37.14.803,Unsyncopated1,s81,21.0,feminino,right,España,2.0,Bachelor degree,no,no,B,1,conjunction_un,L1,unsyncopated,s1,r1,102,Online_conjL1_un//d.ne.ni28.none.none.wav,pu,ro,ri,sil,ki,la,zu,sil1,lu,cho,sil2,['false alarm'],[1.5541999999992413],[1.5541999999992413],none,none,,,"[""space""]",ni,4,,,,,,,,,,,,,,,2 ,2.0,catalan,0.0,castellano,1.0,0.0,3.0,no,no,no,nada,0,nada,0,,,nada ,78.0,yes
103,2023-11-21_21h37.14.803,Unsyncopated1,s81,21.0,feminino,right,España,2.0,Bachelor degree,no,no,B,1,conjunction_un,L1,unsyncopated,s1,r1,103,Online_conjL1_un//d.ne.ni30.none.none.wav,pu,la,ro,sil,ki,ze,fa,sil1,ri,lu,sil2,['-'],,,none,none,,,,ni,4,,,,,,,,,,,,,,,2 ,2.0,catalan,0.0,castellano,1.0,0.0,3.0,no,no,no,nada,0,nada,0,,,nada ,78.0,yes
104,2023-11-21_21h37.14.803,Unsyncopated1,s81,21.0,feminino,right,España,2.0,Bachelor degree,no,no,B,1,conjunction_un,L1,unsyncopated,s2,r2,104,Online_conjL1_un//a.pu.ki12.none.none.wav,ri,ze,fo,sil,ta,lu,ro,sil1,be,ne,sil2,['-'],,,none,none,,,,pu,1,,,,,,,,,,,,,,,2 ,2.0,catalan,0.0,castellano,1.0,0.0,3.0,no,no,no,nada,0,nada,0,,,nada ,78.0,yes
105,2023-11-21_21h37.14.803,Unsyncopated1,s81,21.0,feminino,right,España,2.0,Bachelor degree,no,no,B,1,conjunction_un,L1,unsyncopated,s1,r2,105,Online_conjL1_un//a.pu.ki13.none.none.wav,ta,ne,ro,sil,be,lu,fa,sil1,zu,la,sil2,['-'],,,none,none,,,,pu,1,,,,,,,,,,,,,,,2 ,2.0,catalan,0.0,castellano,1.0,0.0,3.0,no,no,no,nada,0,nada,0,,,nada ,78.0,yes
106,2023-11-21_21h37.14.803,Unsyncopated1,s81,21.0,feminino,right,España,2.0,Bachelor degree,no,no,B,1,conjunction_un,L1,unsyncopated,s2,r2,106,Online_conjL1_un//a.pu.ki14.none.none.wav,ne,ze,ni,sil,ta,zu,fo,sil1,be,lu,sil2,['-'],,,none,none,,,,pu,1,,,,,,,,,,,,,,,2 ,2.0,catalan,0.0,castellano,1.0,0.0,3.0,no,no,no,nada,0,nada,0,,,nada ,78.0,yes
107,2023-11-21_21h37.14.803,Unsyncopated1,s81,21.0,feminino,right,España,2.0,Bachelor degree,no,no,B,1,conjunction_un,L1,unsyncopated,s2,r1,107,Online_conjL1_un//a.pu.ki15.888.1776.wav,cho,ri,ne,sil,pu,ze,ni,sil1,ki,zu,sil2,['catch'],[1.3735999999996693],[1.3735999999996693],0.888,beat,0.4855999999996693,0.4855999999996693,"[""space""]",pu,1,,,,,,,,,,,,,,,2 ,2.0,catalan,0.0,castellano,1.0,0.0,3.0,no,no,no,nada,0,nada,0,,,nada ,78.0,yes
108,2023-11-21_21h37.14.803,Unsyncopated1,s81,21.0,feminino,right,España,2.0,Bachelor degree,no,no,B,1,conjunction_un,L1,unsyncopated,s2,r2,108,Online_conjL1_un//d.ne.ni21.none.none.wav,lu,ro,ze,sil,ta,fo,cho,sil1,be,zu,sil2,['-'],,,none,none,,,,ni,4,,,,,,,,,,,,,,,2 ,2.0,catalan,0.0,castellano,1.0,0.0,3.0,no,no,no,nada,0,nada,0,,,nada ,78.0,yes
109,2023-11-21_21h37.14.803,Unsyncopated1,s81,21.0,feminino,right,España,2.0,Bachelor degree,no,no,B,1,conjunction_un,L1,unsyncopated,s1,r1,109,Online_conjL1_un//d.ne.ni23.1110.222.wav,pu,ni,ro,sil,ki,ne,lu,sil1,zu,fa,sil2,['catch'],[1.1406999999992422],[1.1406999999992422],0.222,no_beat,0.9186999999992422,0.9186999999992422,"[""space""]",ni,4,,,,,,,,,,,,,,,2 ,2.0,catalan,0.0,castellano,1.0,0.0,3.0,no,no,no,nada,0,nada,0,,,nada ,78.0,yes
110,2023-11-21_21h37.14.803,Unsyncopated1,s81,21.0,feminino,right,España,2.0,Bachelor degree,no,no,B,1,conjunction_un,L1,unsyncopated,s1,r1,110,Online_conjL1_un//d.ne.ni22.none.none.wav,pu,cho,la,sil,ki,ro,ze,sil1,ri,lu,sil2,['-'],,,none,none,,,,ni,4,,,,,,,,,,,,,,,2 ,2.0,catalan,0.0,castellano,1.0,0.0,3.0,no,no,no,nada,0,nada,0,,,nada ,78.0,yes
111,2023-11-21_21h37.14.803,Unsyncopated1,s81,21.0,feminino,right,España,2.0,Bachelor degree,no,no,B,1,conjunction_un,L1,unsyncopated,s1,r1,111,Online_conjL1_un//d.ne.ni20.1110.1332.wav,pu,ro,fa,sil,ki,ne,ni,sil1,cho,fo,sil2,['catch'],[2.2603999999984126],[2.2603999999984126],1.332,no_beat,0.9283999999984124,0.9283999999984124,"[""space""]",ni,4,,,,,,,,,,,,,,,2 ,2.0,catalan,0.0,castellano,1.0,0.0,3.0,no,no,no,nada,0,nada,0,,,nada ,78.0,yes
112,2023-11-21_21h37.14.803,Unsyncopated1,s81,21.0,feminino,right,España,2.0,Bachelor degree,no,no,B,1,conjunction_un,L1,unsyncopated,s2,r2,112,Online_conjL1_un//c.ro.fo31.0.1110.wav,ro,ne,zu,sil,ta,fo,cho,sil1,be,ri,sil2,['miss'],,,1.11,no_beat,,,,fo,3,,,,,,,,,,,,,,,2 ,2.0,catalan,0.0,castellano,1.0,0.0,3.0,no,no,no,nada,0,nada,0,,,nada ,78.0,yes
113,2023-11-21_21h37.14.803,Unsyncopated1,s81,21.0,feminino,right,España,2.0,Bachelor degree,no,no,B,1,conjunction_un,L1,unsyncopated,s1,r2,113,Online_conjL1_un//c.ro.fo28.444.1110.wav,ta,lu,ro,sil,be,fo,ri,sil1,cho,fa,sil2,['catch'],[1.4045999999996184],[1.4045999999996184],1.11,no_beat,0.2945999999996183,0.2945999999996183,"[""space""]",fo,3,,,,,,,,,,,,,,,2 ,2.0,catalan,0.0,castellano,1.0,0.0,3.0,no,no,no,nada,0,nada,0,,,nada ,78.0,yes
114,2023-11-21_21h37.14.803,Unsyncopated1,s81,21.0,feminino,right,España,2.0,Bachelor degree,no,no,B,1,conjunction_un,L1,unsyncopated,s1,r1,114,Online_conjL1_un//c.ro.fo30.none.none.wav,pu,ni,cho,sil,ki,la,lu,sil1,ne,fa,sil2,['false alarm'],[2.439999999999941],[2.439999999999941],none,none,,,"[""space""]",fo,3,,,,,,,,,,,,,,,2 ,2.0,catalan,0.0,castellano,1.0,0.0,3.0,no,no,no,nada,0,nada,0,,,nada ,78.0,yes
115,2023-11-21_21h37.14.803,Unsyncopated1,s81,21.0,feminino,right,España,2.0,Bachelor degree,no,no,B,1,conjunction_un,L1,unsyncopated,s1,r1,115,Online_conjL1_un//c.ro.fo29.1110.1332.wav,pu,fa,ni,sil,ki,ro,fo,sil1,zu,cho,sil2,['miss'],,,1.332,no_beat,,,,fo,3,,,,,,,,,,,,,,,2 ,2.0,catalan,0.0,castellano,1.0,0.0,3.0,no,no,no,nada,0,nada,0,,,nada ,78.0,yes
116,2023-11-21_21h37.14.803,Unsyncopated1,s81,21.0,feminino,right,España,2.0,Bachelor degree,no,no,B,1,conjunction_un,L1,unsyncopated,s1,r2,116,Online_conjL1_un//d.ne.ni13.none.none.wav,ta,ri,fa,sil,be,fo,ze,sil1,ro,zu,sil2,['-'],,,none,none,,,,ni,4,,,,,,,,,,,,,,,2 ,2.0,catalan,0.0,castellano,1.0,0.0,3.0,no,no,no,nada,0,nada,0,,,nada ,78.0,yes
117,2023-11-21_21h37.14.803,Unsyncopated1,s81,21.0,feminino,right,España,2.0,Bachelor degree,no,no,B,1,conjunction_un,L1,unsyncopated,s1,r1,117,Online_conjL1_un//d.ne.ni12.1332.444.wav,pu,fo,ni,sil,ki,ri,ne,sil1,fa,zu,sil2,['miss'],,,0.444,no_beat,,,,ni,4,,,,,,,,,,,,,,,2 ,2.0,catalan,0.0,castellano,1.0,0.0,3.0,no,no,no,nada,0,nada,0,,,nada ,78.0,yes
118,2023-11-21_21h37.14.803,Unsyncopated1,s81,21.0,feminino,right,España,2.0,Bachelor degree,no,no,B,1,conjunction_un,L1,unsyncopated,s1,r1,118,Online_conjL1_un//d.ne.ni15.222.1110.wav,pu,ne,ze,sil,ki,ni,cho,sil1,lu,zu,sil2,['miss'],,,1.11,no_beat,,,,ni,4,,,,,,,,,,,,,,,2 ,2.0,catalan,0.0,castellano,1.0,0.0,3.0,no,no,no,nada,0,nada,0,,,nada ,78.0,yes
119,2023-11-21_21h37.14.803,Unsyncopated1,s81,21.0,feminino,right,España,2.0,Bachelor degree,no,no,B,1,conjunction_un,L1,unsyncopated,s1,r2,119,Online_conjL1_un//d.ne.ni14.222.1332.wav,ta,ne,ri,sil,be,fa,ni,sil1,cho,ro,sil2,['false alarm'],[0.9089999999999918],[0.9089999999999918],1.332,no_beat,,,"[""space""]",ni,4,,,,,,,,,,,,,,,2 ,2.0,catalan,0.0,castellano,1.0,0.0,3.0,no,no,no,nada,0,nada,0,,,nada ,78.0,yes
120,2023-11-21_21h37.14.803,Unsyncopated1,s81,21.0,feminino,right,España,2.0,Bachelor degree,no,no,B,1,conjunction_un,L1,unsyncopated,s1,r2,120,Online_conjL1_un//a.pu.ki10.none.none.wav,ta,ze,ni,sil,be,zu,fa,sil1,ro,fo,sil2,['-'],,,none,none,,,,pu,1,,,,,,,,,,,,,,,2 ,2.0,catalan,0.0,castellano,1.0,0.0,3.0,no,no,no,nada,0,nada,0,,,nada ,78.0,yes
121,2023-11-21_21h37.14.803,Unsyncopated1,s81,21.0,feminino,right,España,2.0,Bachelor degree,no,no,B,1,conjunction_un,L1,unsyncopated,s1,r1,121,Online_conjL1_un//a.pu.ki9.0.888.wav,pu,ne,fo,sil,ki,fa,ni,sil1,ze,ri,sil2,['catch'],[0.6090000000000373],[0.6090000000000373],0.0,beat,0.6090000000000373,0.6090000000000373,"[""space""]",pu,1,,,,,,,,,,,,,,,2 ,2.0,catalan,0.0,castellano,1.0,0.0,3.0,no,no,no,nada,0,nada,0,,,nada ,78.0,yes
122,2023-11-21_21h37.14.803,Unsyncopated1,s81,21.0,feminino,right,España,2.0,Bachelor degree,no,no,B,1,conjunction_un,L1,unsyncopated,s1,r1,122,Online_conjL1_un//a.pu.ki8.0.888.wav,pu,ne,ro,sil,ki,ze,zu,sil1,la,ni,sil2,['catch'],[0.5048000000008415],[0.5048000000008415],0.0,beat,0.5048000000008415,0.5048000000008415,"[""space""]",pu,1,,,,,,,,,,,,,,,2 ,2.0,catalan,0.0,castellano,1.0,0.0,3.0,no,no,no,nada,0,nada,0,,,nada ,78.0,yes
123,2023-11-21_21h37.14.803,Unsyncopated1,s81,21.0,feminino,right,España,2.0,Bachelor degree,no,no,B,1,conjunction_un,L1,unsyncopated,s1,r1,123,Online_conjL1_un//a.pu.ki11.0.888.wav,pu,fa,fo,sil,ki,ze,lu,sil1,ri,ni,sil2,['catch'],[0.4909000000003516],[0.4909000000003516],0.0,beat,0.4909000000003516,0.4909000000003516,"[""space""]",pu,1,,,,,,,,,,,,,,,2 ,2.0,catalan,0.0,castellano,1.0,0.0,3.0,no,no,no,nada,0,nada,0,,,nada ,78.0,yes
124,2023-11-21_21h37.14.803,Unsyncopated1,s81,21.0,feminino,right,España,2.0,Bachelor degree,no,no,B,1,conjunction_un,L1,unsyncopated,s1,r2,124,Online_conjL1_un//d.ne.ni25.none.none.wav,ta,fa,ze,sil,be,ro,lu,sil1,la,fo,sil2,['-'],,,none,none,,,,ni,4,,,,,,,,,,,,,,,2 ,2.0,catalan,0.0,castellano,1.0,0.0,3.0,no,no,no,nada,0,nada,0,,,nada ,78.0,yes
125,2023-11-21_21h37.14.803,Unsyncopated1,s81,21.0,feminino,right,España,2.0,Bachelor degree,no,no,B,1,conjunction_un,L1,unsyncopated,s2,r2,125,Online_conjL1_un//d.ne.ni27.1110.0.wav,ni,fa,ri,sil,ta,ne,zu,sil1,be,la,sil2,['catch'],[0.45869999999922584],[0.45869999999922584],0.0,beat,0.4586999999992258,0.4586999999992258,"[""space""]",ni,4,,,,,,,,,,,,,,,2 ,2.0,catalan,0.0,castellano,1.0,0.0,3.0,no,no,no,nada,0,nada,0,,,nada ,78.0,yes
126,2023-11-21_21h37.14.803,Unsyncopated1,s81,21.0,feminino,right,España,2.0,Bachelor degree,no,no,B,1,conjunction_un,L1,unsyncopated,s2,r1,126,Online_conjL1_un//d.ne.ni24.1110.222.wav,ri,ni,fa,sil,pu,ne,ro,sil1,ki,fo,sil2,['catch'],[1.139599999999632],[1.139599999999632],0.222,no_beat,0.917599999999632,0.917599999999632,"[""space""]",ni,4,,,,,,,,,,,,,,,2 ,2.0,catalan,0.0,castellano,1.0,0.0,3.0,no,no,no,nada,0,nada,0,,,nada ,78.0,yes
127,2023-11-21_21h37.14.803,Unsyncopated1,s81,21.0,feminino,right,España,2.0,Bachelor degree,no,no,B,1,conjunction_un,L1,unsyncopated,s2,r1,127,Online_conjL1_un//d.ne.ni26.none.none.wav,lu,ri,ro,sil,pu,cho,fa,sil1,ki,ze,sil2,['false alarm'],[0.9919000000004417],[0.9919000000004417],none,none,,,"[""space""]",ni,4,,,,,,,,,,,,,,,2 ,2.0,catalan,0.0,castellano,1.0,0.0,3.0,no,no,no,nada,0,nada,0,,,nada ,78.0,yes
128,2023-11-21_21h37.14.803,Unsyncopated1,s81,21.0,feminino,right,España,2.0,Bachelor degree,no,no,B,2,what,L2,unsyncopated,s2,r1,0,Online_whatL2//c.cha.me5.none.none.wav,ñu,mi,ño,sil2,go,te,ba,sil,du,su,sil1,['-'],,,none,none,,,,me,3,,,,,,,,,,,,,,,2 ,2.0,catalan,0.0,castellano,1.0,0.0,3.0,no,no,no,nada,0,nada,0,,,nada ,78.0,yes
129,2023-11-21_21h37.14.803,Unsyncopated1,s81,21.0,feminino,right,España,2.0,Bachelor degree,no,no,B,2,what,L2,unsyncopated,s1,r1,1,Online_whatL2//c.cha.me7.222.444.wav,go,cha,me,sil,du,bi,si,sil1,su,ba,sil2,['catch'],[0.9239999999999782],[0.9239999999999782],0.444,no_beat,0.4799999999999781,0.4799999999999781,"[""space""]",me,3,,,,,,,,,,,,,,,2 ,2.0,catalan,0.0,castellano,1.0,0.0,3.0,no,no,no,nada,0,nada,0,,,nada ,78.0,yes
130,2023-11-21_21h37.14.803,Unsyncopated1,s81,21.0,feminino,right,España,2.0,Bachelor degree,no,no,B,2,what,L2,unsyncopated,s2,r2,2,Online_whatL2//c.cha.me4.none.none.wav,ba,te,su,sil2,fe,ño,si,sil,ra,ñu,sil1,['-'],,,none,none,,,,me,3,,,,,,,,,,,,,,,2 ,2.0,catalan,0.0,castellano,1.0,0.0,3.0,no,no,no,nada,0,nada,0,,,nada ,78.0,yes
131,2023-11-21_21h37.14.803,Unsyncopated1,s81,21.0,feminino,right,España,2.0,Bachelor degree,no,no,B,2,what,L2,unsyncopated,s1,r2,3,Online_whatL2//c.cha.me6.222.1110.wav,fe,cha,ba,sil,ra,me,te,sil2,si,mi,sil1,"['false alarm', 'catch']","[0.3288999999983844, 1.9079999999999018]",[1.9079999999999018],1.11,no_beat,0.7979999999999017,0.7979999999999017,"[""space"",""space""]",me,3,,,,,,,,,,,,,,,2 ,2.0,catalan,0.0,castellano,1.0,0.0,3.0,no,no,no,nada,0,nada,0,,,nada ,78.0,yes
132,2023-11-21_21h37.14.803,Unsyncopated1,s81,21.0,feminino,right,España,2.0,Bachelor degree,no,no,B,2,what,L2,unsyncopated,s2,r1,4,Online_whatL2//a.go.du17.888.1776.wav,si,ño,bi,sil,go,te,ñu,sil1,du,su,sil2,['catch'],[1.3834000000003925],[1.3834000000003925],0.888,beat,0.4954000000003925,0.4954000000003925,"[""space""]",go,1,,,,,,,,,,,,,,,2 ,2.0,catalan,0.0,castellano,1.0,0.0,3.0,no,no,no,nada,0,nada,0,,,nada ,78.0,yes
133,2023-11-21_21h37.14.803,Unsyncopated1,s81,21.0,feminino,right,España,2.0,Bachelor degree,no,no,B,2,what,L2,unsyncopated,s2,r1,5,Online_whatL2//a.go.du16.888.1776.wav,cha,bi,mi,sil,go,me,to,sil1,du,ño,sil2,['catch'],[1.5363999999983662],[1.5363999999983662],0.888,beat,0.6483999999983662,0.6483999999983662,"[""space""]",go,1,,,,,,,,,,,,,,,2 ,2.0,catalan,0.0,castellano,1.0,0.0,3.0,no,no,no,nada,0,nada,0,,,nada ,78.0,yes
134,2023-11-21_21h37.14.803,Unsyncopated1,s81,21.0,feminino,right,España,2.0,Bachelor degree,no,no,B,2,what,L2,unsyncopated,s1,r1,6,Online_whatL2//a.go.du18.0.1110.wav,go,cha,me,sil2,du,ño,ñu,sil,ba,mi,sil1,['catch'],[1.4576999999992495],[1.4576999999992495],0.0,beat,,1.4576999999992497,"[""space""]",go,1,,,,,,,,,,,,,,,2 ,2.0,catalan,0.0,castellano,1.0,0.0,3.0,no,no,no,nada,0,nada,0,,,nada ,78.0,yes
135,2023-11-21_21h37.14.803,Unsyncopated1,s81,21.0,feminino,right,España,2.0,Bachelor degree,no,no,B,2,what,L2,unsyncopated,s2,r1,7,Online_whatL2//a.go.du19.1110.1998.wav,si,cha,ñu,sil2,go,mi,ño,sil,du,me,sil1,['catch'],[1.612999999999829],[1.612999999999829],1.11,no_beat,0.5029999999998289,0.5029999999998289,"[""space""]",go,1,,,,,,,,,,,,,,,2 ,2.0,catalan,0.0,castellano,1.0,0.0,3.0,no,no,no,nada,0,nada,0,,,nada ,78.0,yes
136,2023-11-21_21h37.14.803,Unsyncopated1,s81,21.0,feminino,right,España,2.0,Bachelor degree,no,no,B,2,what,L2,unsyncopated,s1,r2,8,Online_whatL2//b.fe.ra25.0.888.wav,fe,to,si,sil,ra,mi,su,sil2,cha,ño,sil1,['catch'],[1.2642000000012104],[1.2642000000012104],0.888,beat,0.3762000000012103,0.3762000000012103,"[""space""]",ra,2,,,,,,,,,,,,,,,2 ,2.0,catalan,0.0,castellano,1.0,0.0,3.0,no,no,no,nada,0,nada,0,,,nada ,78.0,yes
137,2023-11-21_21h37.14.803,Unsyncopated1,s81,21.0,feminino,right,España,2.0,Bachelor degree,no,no,B,2,what,L2,unsyncopated,s2,r1,9,Online_whatL2//b.fe.ra24.none.none.wav,si,cha,su,sil2,go,mi,me,sil,du,bi,sil1,['-'],,,none,none,,,,ra,2,,,,,,,,,,,,,,,2 ,2.0,catalan,0.0,castellano,1.0,0.0,3.0,no,no,no,nada,0,nada,0,,,nada ,78.0,yes
138,2023-11-21_21h37.14.803,Unsyncopated1,s81,21.0,feminino,right,España,2.0,Bachelor degree,no,no,B,2,what,L2,unsyncopated,s2,r2,10,Online_whatL2//b.fe.ra26.1110.1998.wav,si,me,bi,sil2,fe,cha,te,sil,ra,to,sil1,['catch'],[2.5099000000002434],[2.5099000000002434],1.998,no_beat,0.5119000000002434,0.5119000000002434,"[""space""]",ra,2,,,,,,,,,,,,,,,2 ,2.0,catalan,0.0,castellano,1.0,0.0,3.0,no,no,no,nada,0,nada,0,,,nada ,78.0,yes
139,2023-11-21_21h37.14.803,Unsyncopated1,s81,21.0,feminino,right,España,2.0,Bachelor degree,no,no,B,2,what,L2,unsyncopated,s2,r1,11,Online_whatL2//b.fe.ra27.none.none.wav,mi,me,su,sil,go,cha,ño,sil2,du,te,sil1,['-'],,,none,none,,,,ra,2,,,,,,,,,,,,,,,2 ,2.0,catalan,0.0,castellano,1.0,0.0,3.0,no,no,no,nada,0,nada,0,,,nada ,78.0,yes
140,2023-11-21_21h37.14.803,Unsyncopated1,s81,21.0,feminino,right,España,2.0,Bachelor degree,no,no,B,2,what,L2,unsyncopated,s1,r1,12,Online_whatL2//c.cha.me19.none.none.wav,go,su,bi,sil,du,ño,to,sil2,ñu,ba,sil1,['-'],,,none,none,,,,me,3,,,,,,,,,,,,,,,2 ,2.0,catalan,0.0,castellano,1.0,0.0,3.0,no,no,no,nada,0,nada,0,,,nada ,78.0,yes
141,2023-11-21_21h37.14.803,Unsyncopated1,s81,21.0,feminino,right,España,2.0,Bachelor degree,no,no,B,2,what,L2,unsyncopated,s2,r1,13,Online_whatL2//c.cha.me17.0.444.wav,cha,te,me,sil2,go,bi,ñu,sil,du,mi,sil1,['catch'],[0.5906000000015865],[0.5906000000015865],0.444,no_beat,0.1466000000015865,0.1466000000015865,"[""space""]",me,3,,,,,,,,,,,,,,,2 ,2.0,catalan,0.0,castellano,1.0,0.0,3.0,no,no,no,nada,0,nada,0,,,nada ,78.0,yes
142,2023-11-21_21h37.14.803,Unsyncopated1,s81,21.0,feminino,right,España,2.0,Bachelor degree,no,no,B,2,what,L2,unsyncopated,s1,r1,14,Online_whatL2//c.cha.me16.none.none.wav,go,ñu,bi,sil2,du,to,te,sil,ño,mi,sil1,"['false alarm', 'false alarm']","[0.16280000000074324, 1.057700000001205]",1.057700000001205,none,none,,,"[""space"",""space""]",me,3,,,,,,,,,,,,,,,2 ,2.0,catalan,0.0,castellano,1.0,0.0,3.0,no,no,no,nada,0,nada,0,,,nada ,78.0,yes
143,2023-11-21_21h37.14.803,Unsyncopated1,s81,21.0,feminino,right,España,2.0,Bachelor degree,no,no,B,2,what,L2,unsyncopated,s2,r2,15,Online_whatL2//c.cha.me18.none.none.wav,bi,to,ñu,sil,fe,ño,ba,sil1,ra,si,sil2,['false alarm'],[0.1899999999998272],[0.1899999999998272],none,none,,,"[""space""]",me,3,,,,,,,,,,,,,,,2 ,2.0,catalan,0.0,castellano,1.0,0.0,3.0,no,no,no,nada,0,nada,0,,,nada ,78.0,yes
144,2023-11-21_21h37.14.803,Unsyncopated1,s81,21.0,feminino,right,España,2.0,Bachelor degree,no,no,B,2,what,L2,unsyncopated,s1,r2,16,Online_whatL2//b.fe.ra1.0.1110.wav,fe,bi,ño,sil2,ra,ba,cha,sil,ñu,to,sil1,['catch'],[1.5494000000003325],[1.5494000000003325],1.11,no_beat,0.4394000000003324,0.4394000000003324,"[""space""]",ra,2,,,,,,,,,,,,,,,2 ,2.0,catalan,0.0,castellano,1.0,0.0,3.0,no,no,no,nada,0,nada,0,,,nada ,78.0,yes
145,2023-11-21_21h37.14.803,Unsyncopated1,s81,21.0,feminino,right,España,2.0,Bachelor degree,no,no,B,2,what,L2,unsyncopated,s1,r1,17,Online_whatL2//b.fe.ra2.none.none.wav,go,cha,mi,sil2,du,to,bi,sil,ño,ba,sil1,['-'],,,none,none,,,,ra,2,,,,,,,,,,,,,,,2 ,2.0,catalan,0.0,castellano,1.0,0.0,3.0,no,no,no,nada,0,nada,0,,,nada ,78.0,yes
146,2023-11-21_21h37.14.803,Unsyncopated1,s81,21.0,feminino,right,España,2.0,Bachelor degree,no,no,B,2,what,L2,unsyncopated,s1,r2,18,Online_whatL2//b.fe.ra0.0.1110.wav,fe,cha,ño,sil2,ra,te,me,sil,to,ñu,sil1,['catch'],[1.8233000000006996],[1.8233000000006996],1.11,no_beat,0.7133000000006995,0.7133000000006995,"[""space""]",ra,2,,,,,,,,,,,,,,,2 ,2.0,catalan,0.0,castellano,1.0,0.0,3.0,no,no,no,nada,0,nada,0,,,nada ,78.0,yes
147,2023-11-21_21h37.14.803,Unsyncopated1,s81,21.0,feminino,right,España,2.0,Bachelor degree,no,no,B,2,what,L2,unsyncopated,s2,r2,19,Online_whatL2//b.fe.ra3.1110.1998.wav,si,ño,me,sil2,fe,ñu,cha,sil,ra,bi,sil1,['catch_delay'],[0.9321999999991168],[0.9321999999991168],1.998,no_beat,0.9321999999991168,0.9321999999991168,,ra,2,,,,,,,,,,,,,,,2 ,2.0,catalan,0.0,castellano,1.0,0.0,3.0,no,no,no,nada,0,nada,0,,,nada ,78.0,yes
148,2023-11-21_21h37.14.803,Unsyncopated1,s81,21.0,feminino,right,España,2.0,Bachelor degree,no,no,B,2,what,L2,unsyncopated,s1,r2,20,Online_whatL2//a.go.du23.none.none.wav,fe,si,me,sil2,ra,mi,ba,sil,ño,ñu,sil1,['-'],[0.2661999999991167],[0.2661999999991167],none,none,,,"[""space""]",go,1,,,,,,,,,,,,,,,2 ,2.0,catalan,0.0,castellano,1.0,0.0,3.0,no,no,no,nada,0,nada,0,,,nada ,78.0,yes
149,2023-11-21_21h37.14.803,Unsyncopated1,s81,21.0,feminino,right,España,2.0,Bachelor degree,no,no,B,2,what,L2,unsyncopated,s2,r1,21,Online_whatL2//a.go.du22.888.1776.wav,me,ño,cha,sil,go,te,ñu,sil1,du,to,sil2,['catch'],[1.331000000000131],[1.331000000000131],0.888,beat,0.4430000000001309,0.4430000000001309,"[""space""]",go,1,,,,,,,,,,,,,,,2 ,2.0,catalan,0.0,castellano,1.0,0.0,3.0,no,no,no,nada,0,nada,0,,,nada ,78.0,yes
150,2023-11-21_21h37.14.803,Unsyncopated1,s81,21.0,feminino,right,España,2.0,Bachelor degree,no,no,B,2,what,L2,unsyncopated,s2,r2,22,Online_whatL2//a.go.du21.none.none.wav,ñu,ba,mi,sil,fe,cha,me,sil2,ra,bi,sil1,['-'],,,none,none,,,,go,1,,,,,,,,,,,,,,,2 ,2.0,catalan,0.0,castellano,1.0,0.0,3.0,no,no,no,nada,0,nada,0,,,nada ,78.0,yes
151,2023-11-21_21h37.14.803,Unsyncopated1,s81,21.0,feminino,right,España,2.0,Bachelor degree,no,no,B,2,what,L2,unsyncopated,s2,r2,23,Online_whatL2//a.go.du20.none.none.wav,mi,ba,cha,sil,fe,to,ñu,sil1,ra,bi,sil2,['-'],,,none,none,,,,go,1,,,,,,,,,,,,,,,2 ,2.0,catalan,0.0,castellano,1.0,0.0,3.0,no,no,no,nada,0,nada,0,,,nada ,78.0,yes
152,2023-11-21_21h37.14.803,Unsyncopated1,s81,21.0,feminino,right,España,2.0,Bachelor degree,no,no,B,2,what,L2,unsyncopated,s1,r2,24,Online_whatL2//c.cha.me27.none.none.wav,fe,si,ñu,sil2,ra,ño,ba,sil,te,bi,sil1,['false alarm'],[2.540699999999106],[2.540699999999106],none,none,,,"[""space""]",me,3,,,,,,,,,,,,,,,2 ,2.0,catalan,0.0,castellano,1.0,0.0,3.0,no,no,no,nada,0,nada,0,,,nada ,78.0,yes
153,2023-11-21_21h37.14.803,Unsyncopated1,s81,21.0,feminino,right,España,2.0,Bachelor degree,no,no,B,2,what,L2,unsyncopated,s2,r1,25,Online_whatL2//c.cha.me26.444.1110.wav,mi,bi,cha,sil,go,me,ño,sil1,du,te,sil2,['catch'],[1.841700000001083],[1.841700000001083],1.11,no_beat,0.7317000000010829,0.7317000000010829,"[""space""]",me,3,,,,,,,,,,,,,,,2 ,2.0,catalan,0.0,castellano,1.0,0.0,3.0,no,no,no,nada,0,nada,0,,,nada ,78.0,yes
154,2023-11-21_21h37.14.803,Unsyncopated1,s81,21.0,feminino,right,España,2.0,Bachelor degree,no,no,B,2,what,L2,unsyncopated,s1,r2,26,Online_whatL2//c.cha.me25.none.none.wav,fe,te,mi,sil,ra,ñu,si,sil2,ba,bi,sil1,['false alarm'],[2.313099999999622],[2.313099999999622],none,none,,,"[""space""]",me,3,,,,,,,,,,,,,,,2 ,2.0,catalan,0.0,castellano,1.0,0.0,3.0,no,no,no,nada,0,nada,0,,,nada ,78.0,yes
155,2023-11-21_21h37.14.803,Unsyncopated1,s81,21.0,feminino,right,España,2.0,Bachelor degree,no,no,B,2,what,L2,unsyncopated,s2,r1,27,Online_whatL2//c.cha.me24.0.444.wav,cha,te,me,sil,go,ba,ño,sil2,du,si,sil1,['catch'],[1.255299999998897],[1.255299999998897],0.444,no_beat,0.811299999998897,0.811299999998897,"[""space""]",me,3,,,,,,,,,,,,,,,2 ,2.0,catalan,0.0,castellano,1.0,0.0,3.0,no,no,no,nada,0,nada,0,,,nada ,78.0,yes
156,2023-11-21_21h37.14.803,Unsyncopated1,s81,21.0,feminino,right,España,2.0,Bachelor degree,no,no,B,2,what,L2,unsyncopated,s2,r1,28,Online_whatL2//b.fe.ra20.none.none.wav,te,me,mi,sil,go,to,ñu,sil2,du,ba,sil1,['-'],,,none,none,,,,ra,2,,,,,,,,,,,,,,,2 ,2.0,catalan,0.0,castellano,1.0,0.0,3.0,no,no,no,nada,0,nada,0,,,nada ,78.0,yes
157,2023-11-21_21h37.14.803,Unsyncopated1,s81,21.0,feminino,right,España,2.0,Bachelor degree,no,no,B,2,what,L2,unsyncopated,s1,r2,29,Online_whatL2//b.fe.ra21.0.888.wav,fe,bi,su,sil,ra,to,te,sil1,ba,ñu,sil2,"['false alarm', 'catch']","[0.1562000000012631, 1.7468000000008033]",[1.7468000000008033],0.888,beat,0.8588000000008033,0.8588000000008033,"[""space"",""space""]",ra,2,,,,,,,,,,,,,,,2 ,2.0,catalan,0.0,castellano,1.0,0.0,3.0,no,no,no,nada,0,nada,0,,,nada ,78.0,yes
158,2023-11-21_21h37.14.803,Unsyncopated1,s81,21.0,feminino,right,España,2.0,Bachelor degree,no,no,B,2,what,L2,unsyncopated,s2,r2,30,Online_whatL2//b.fe.ra22.888.1776.wav,ba,me,cha,sil,fe,su,ño,sil1,ra,to,sil2,['catch'],[2.573699999999235],[2.573699999999235],1.776,beat,0.7976999999992349,0.7976999999992349,"[""space""]",ra,2,,,,,,,,,,,,,,,2 ,2.0,catalan,0.0,castellano,1.0,0.0,3.0,no,no,no,nada,0,nada,0,,,nada ,78.0,yes
159,2023-11-21_21h37.14.803,Unsyncopated1,s81,21.0,feminino,right,España,2.0,Bachelor degree,no,no,B,2,what,L2,unsyncopated,s2,r1,31,Online_whatL2//b.fe.ra23.none.none.wav,te,ñu,me,sil,go,cha,ño,sil1,du,bi,sil2,['-'],,,none,none,,,,ra,2,,,,,,,,,,,,,,,2 ,2.0,catalan,0.0,castellano,1.0,0.0,3.0,no,no,no,nada,0,nada,0,,,nada ,78.0,yes
160,2023-11-21_21h37.14.803,Unsyncopated1,s81,21.0,feminino,right,España,2.0,Bachelor degree,no,no,B,2,what,L2,unsyncopated,s1,r2,32,Online_whatL2//d.si.ñu22.444.1332.wav,fe,to,si,sil,ra,bi,ñu,sil2,ba,me,sil1,['catch'],[2.0307999999988624],[2.0307999999988624],1.332,no_beat,0.6987999999988623,0.6987999999988623,"[""space""]",ñu,4,,,,,,,,,,,,,,,2 ,2.0,catalan,0.0,castellano,1.0,0.0,3.0,no,no,no,nada,0,nada,0,,,nada ,78.0,yes
161,2023-11-21_21h37.14.803,Unsyncopated1,s81,21.0,feminino,right,España,2.0,Bachelor degree,no,no,B,2,what,L2,unsyncopated,s1,r1,33,Online_whatL2//d.si.ñu21.none.none.wav,go,cha,ño,sil,du,su,bi,sil2,ba,te,sil1,['false alarm'],[1.1400999999996202],[1.1400999999996202],none,none,,,"[""space""]",ñu,4,,,,,,,,,,,,,,,2 ,2.0,catalan,0.0,castellano,1.0,0.0,3.0,no,no,no,nada,0,nada,0,,,nada ,78.0,yes
162,2023-11-21_21h37.14.803,Unsyncopated1,s81,21.0,feminino,right,España,2.0,Bachelor degree,no,no,B,2,what,L2,unsyncopated,s2,r2,34,Online_whatL2//d.si.ñu23.none.none.wav,me,to,ño,sil2,fe,cha,su,sil,ra,mi,sil1,['false alarm'],[1.1389000000003762],[1.1389000000003762],none,none,,,"[""space""]",ñu,4,,,,,,,,,,,,,,,2 ,2.0,catalan,0.0,castellano,1.0,0.0,3.0,no,no,no,nada,0,nada,0,,,nada ,78.0,yes
163,2023-11-21_21h37.14.803,Unsyncopated1,s81,21.0,feminino,right,España,2.0,Bachelor degree,no,no,B,2,what,L2,unsyncopated,s1,r2,35,Online_whatL2//d.si.ñu20.none.none.wav,fe,cha,me,sil2,ra,to,bi,sil,mi,ba,sil1,['false alarm'],[1.8713000000007014],[1.8713000000007014],none,none,,,"[""space""]",ñu,4,,,,,,,,,,,,,,,2 ,2.0,catalan,0.0,castellano,1.0,0.0,3.0,no,no,no,nada,0,nada,0,,,nada ,78.0,yes
164,2023-11-21_21h37.14.803,Unsyncopated1,s81,21.0,feminino,right,España,2.0,Bachelor degree,no,no,B,2,what,L2,unsyncopated,s1,r1,36,Online_whatL2//d.si.ñu28.444.1554.wav,go,me,si,sil2,du,to,ñu,sil,te,mi,sil1,['catch'],[2.1830999999997402],[2.1830999999997402],1.554,no_beat,0.6290999999997402,0.6290999999997402,"[""space""]",ñu,4,,,,,,,,,,,,,,,2 ,2.0,catalan,0.0,castellano,1.0,0.0,3.0,no,no,no,nada,0,nada,0,,,nada ,78.0,yes
165,2023-11-21_21h37.14.803,Unsyncopated1,s81,21.0,feminino,right,España,2.0,Bachelor degree,no,no,B,2,what,L2,unsyncopated,s1,r2,37,Online_whatL2//d.si.ñu30.1332.222.wav,fe,ñu,te,sil2,ra,si,to,sil,bi,ba,sil1,['miss'],,,0.222,no_beat,,,,ñu,4,,,,,,,,,,,,,,,2 ,2.0,catalan,0.0,castellano,1.0,0.0,3.0,no,no,no,nada,0,nada,0,,,nada ,78.0,yes
166,2023-11-21_21h37.14.803,Unsyncopated1,s81,21.0,feminino,right,España,2.0,Bachelor degree,no,no,B,2,what,L2,unsyncopated,s1,r2,38,Online_whatL2//d.si.ñu29.222.1110.wav,fe,si,me,sil,ra,ñu,ño,sil2,mi,te,sil1,"['catch', 'false alarm']","[2.2407000000009702, 2.474300000000767]",[2.2407000000009702],1.11,no_beat,1.1307000000009702,1.1307000000009702,"[""space"",""space""]",ñu,4,,,,,,,,,,,,,,,2 ,2.0,catalan,0.0,castellano,1.0,0.0,3.0,no,no,no,nada,0,nada,0,,,nada ,78.0,yes
167,2023-11-21_21h37.14.803,Unsyncopated1,s81,21.0,feminino,right,España,2.0,Bachelor degree,no,no,B,2,what,L2,unsyncopated,s1,r2,39,Online_whatL2//d.si.ñu31.none.none.wav,fe,mi,ño,sil,ra,su,me,sil1,ba,te,sil2,['false alarm'],[1.2554999999999836],[1.2554999999999836],none,none,,,"[""space""]",ñu,4,,,,,,,,,,,,,,,2 ,2.0,catalan,0.0,castellano,1.0,0.0,3.0,no,no,no,nada,0,nada,0,,,nada ,78.0,yes
168,2023-11-21_21h37.14.803,Unsyncopated1,s81,21.0,feminino,right,España,2.0,Bachelor degree,no,no,B,2,what,L2,unsyncopated,s1,r1,40,Online_whatL2//a.go.du3.0.888.wav,go,te,me,sil,du,mi,cha,sil2,ba,ño,sil1,['miss'],,,0.0,beat,,,,go,1,,,,,,,,,,,,,,,2 ,2.0,catalan,0.0,castellano,1.0,0.0,3.0,no,no,no,nada,0,nada,0,,,nada ,78.0,yes
169,2023-11-21_21h37.14.803,Unsyncopated1,s81,21.0,feminino,right,España,2.0,Bachelor degree,no,no,B,2,what,L2,unsyncopated,s1,r2,41,Online_whatL2//a.go.du1.none.none.wav,fe,cha,me,sil2,ra,to,ñu,sil,ño,mi,sil1,['false alarm'],[0.32340000000021973],[0.32340000000021973],none,none,,,"[""space""]",go,1,,,,,,,,,,,,,,,2 ,2.0,catalan,0.0,castellano,1.0,0.0,3.0,no,no,no,nada,0,nada,0,,,nada ,78.0,yes
170,2023-11-21_21h37.14.803,Unsyncopated1,s81,21.0,feminino,right,España,2.0,Bachelor degree,no,no,B,2,what,L2,unsyncopated,s2,r1,42,Online_whatL2//a.go.du2.1110.1998.wav,te,bi,ñu,sil2,go,cha,mi,sil,du,to,sil1,['miss'],,,1.11,no_beat,,,,go,1,,,,,,,,,,,,,,,2 ,2.0,catalan,0.0,castellano,1.0,0.0,3.0,no,no,no,nada,0,nada,0,,,nada ,78.0,yes
171,2023-11-21_21h37.14.803,Unsyncopated1,s81,21.0,feminino,right,España,2.0,Bachelor degree,no,no,B,2,what,L2,unsyncopated,s1,r2,43,Online_whatL2//a.go.du0.none.none.wav,fe,ñu,to,sil2,ra,ño,su,sil,ba,bi,sil1,['false alarm'],[0.23890000000028522],[0.23890000000028522],none,none,,,"[""space""]",go,1,,,,,,,,,,,,,,,2 ,2.0,catalan,0.0,castellano,1.0,0.0,3.0,no,no,no,nada,0,nada,0,,,nada ,78.0,yes
172,2023-11-21_21h37.14.803,Unsyncopated1,s81,21.0,feminino,right,España,2.0,Bachelor degree,no,no,B,2,what,L2,unsyncopated,s1,r1,44,Online_whatL2//b.fe.ra9.none.none.wav,go,mi,bi,sil,du,to,te,sil1,ño,si,sil2,['-'],,,none,none,,,,ra,2,,,,,,,,,,,,,,,2 ,2.0,catalan,0.0,castellano,1.0,0.0,3.0,no,no,no,nada,0,nada,0,,,nada ,78.0,yes
173,2023-11-21_21h37.14.803,Unsyncopated1,s81,21.0,feminino,right,España,2.0,Bachelor degree,no,no,B,2,what,L2,unsyncopated,s2,r2,45,Online_whatL2//b.fe.ra8.1110.1998.wav,si,me,bi,sil2,fe,te,ba,sil,ra,mi,sil1,['catch_delay'],[0.6909000000003436],[0.6909000000003436],1.998,no_beat,0.6909000000003436,0.6909000000003436,,ra,2,,,,,,,,,,,,,,,2 ,2.0,catalan,0.0,castellano,1.0,0.0,3.0,no,no,no,nada,0,nada,0,,,nada ,78.0,yes
174,2023-11-21_21h37.14.803,Unsyncopated1,s81,21.0,feminino,right,España,2.0,Bachelor degree,no,no,B,2,what,L2,unsyncopated,s1,r1,46,Online_whatL2//b.fe.ra10.none.none.wav,go,ñu,ño,sil,du,cha,mi,sil2,to,si,sil1,['-'],[0.024900000000343425],[0.024900000000343425],none,none,,,"[""space""]",ra,2,,,,,,,,,,,,,,,2 ,2.0,catalan,0.0,castellano,1.0,0.0,3.0,no,no,no,nada,0,nada,0,,,nada ,78.0,yes
175,2023-11-21_21h37.14.803,Unsyncopated1,s81,21.0,feminino,right,España,2.0,Bachelor degree,no,no,B,2,what,L2,unsyncopated,s2,r2,47,Online_whatL2//b.fe.ra11.888.1776.wav,ño,me,su,sil,fe,bi,ñu,sil1,ra,ba,sil2,['catch_delay'],[0.9868000000006651],[0.9868000000006651],1.776,beat,0.9868000000006651,0.9868000000006651,,ra,2,,,,,,,,,,,,,,,2 ,2.0,catalan,0.0,castellano,1.0,0.0,3.0,no,no,no,nada,0,nada,0,,,nada ,78.0,yes
176,2023-11-21_21h37.14.803,Unsyncopated1,s81,21.0,feminino,right,España,2.0,Bachelor degree,no,no,B,2,what,L2,unsyncopated,s2,r2,48,Online_whatL2//c.cha.me23.none.none.wav,si,ñu,te,sil,fe,ba,su,sil2,ra,to,sil1,['-'],[0.09880000000066502],[0.09880000000066502],none,none,,,"[""space""]",me,3,,,,,,,,,,,,,,,2 ,2.0,catalan,0.0,castellano,1.0,0.0,3.0,no,no,no,nada,0,nada,0,,,nada ,78.0,yes
177,2023-11-21_21h37.14.803,Unsyncopated1,s81,21.0,feminino,right,España,2.0,Bachelor degree,no,no,B,2,what,L2,unsyncopated,s1,r1,49,Online_whatL2//c.cha.me21.none.none.wav,go,mi,bi,sil,du,si,su,sil2,te,ba,sil1,['false alarm'],[0.971400000000358],[0.971400000000358],none,none,,,"[""space""]",me,3,,,,,,,,,,,,,,,2 ,2.0,catalan,0.0,castellano,1.0,0.0,3.0,no,no,no,nada,0,nada,0,,,nada ,78.0,yes
178,2023-11-21_21h37.14.803,Unsyncopated1,s81,21.0,feminino,right,España,2.0,Bachelor degree,no,no,B,2,what,L2,unsyncopated,s1,r2,50,Online_whatL2//c.cha.me20.444.1332.wav,fe,si,cha,sil,ra,bi,me,sil2,ño,mi,sil1,['catch'],[1.8070000000000164],[1.8070000000000164],1.332,no_beat,0.4750000000000163,0.4750000000000163,"[""space""]",me,3,,,,,,,,,,,,,,,2 ,2.0,catalan,0.0,castellano,1.0,0.0,3.0,no,no,no,nada,0,nada,0,,,nada ,78.0,yes
179,2023-11-21_21h37.14.803,Unsyncopated1,s81,21.0,feminino,right,España,2.0,Bachelor degree,no,no,B,2,what,L2,unsyncopated,s2,r1,51,Online_whatL2//c.cha.me22.0.1110.wav,cha,to,su,sil,go,me,ño,sil1,du,ba,sil2,['catch'],[1.8805999999995038],[1.8805999999995038],1.11,no_beat,0.7705999999995037,0.7705999999995037,"[""space""]",me,3,,,,,,,,,,,,,,,2 ,2.0,catalan,0.0,castellano,1.0,0.0,3.0,no,no,no,nada,0,nada,0,,,nada ,78.0,yes
180,2023-11-21_21h37.14.803,Unsyncopated1,s81,21.0,feminino,right,España,2.0,Bachelor degree,no,no,B,2,what,L2,unsyncopated,s1,r1,52,Online_whatL2//d.si.ñu16.222.1332.wav,go,si,ba,sil2,du,ñu,te,sil,me,ño,sil1,['miss'],,,1.332,no_beat,,,,ñu,4,,,,,,,,,,,,,,,2 ,2.0,catalan,0.0,castellano,1.0,0.0,3.0,no,no,no,nada,0,nada,0,,,nada ,78.0,yes
181,2023-11-21_21h37.14.803,Unsyncopated1,s81,21.0,feminino,right,España,2.0,Bachelor degree,no,no,B,2,what,L2,unsyncopated,s2,r1,53,Online_whatL2//d.si.ñu17.0.444.wav,si,me,ñu,sil,go,mi,cha,sil2,du,bi,sil1,['catch'],[0.9745000000000346],[0.9745000000000346],0.444,no_beat,0.5305000000000346,0.5305000000000346,"[""space""]",ñu,4,,,,,,,,,,,,,,,2 ,2.0,catalan,0.0,castellano,1.0,0.0,3.0,no,no,no,nada,0,nada,0,,,nada ,78.0,yes
182,2023-11-21_21h37.14.803,Unsyncopated1,s81,21.0,feminino,right,España,2.0,Bachelor degree,no,no,B,2,what,L2,unsyncopated,s2,r1,54,Online_whatL2//d.si.ñu19.1110.0.wav,ñu,mi,me,sil,go,si,su,sil2,du,cha,sil1,['catch'],[0.8050999999995838],[0.8050999999995838],0.0,beat,0.8050999999995838,0.8050999999995838,"[""space""]",ñu,4,,,,,,,,,,,,,,,2 ,2.0,catalan,0.0,castellano,1.0,0.0,3.0,no,no,no,nada,0,nada,0,,,nada ,78.0,yes
183,2023-11-21_21h37.14.803,Unsyncopated1,s81,21.0,feminino,right,España,2.0,Bachelor degree,no,no,B,2,what,L2,unsyncopated,s2,r1,55,Online_whatL2//d.si.ñu18.222.444.wav,su,si,ñu,sil,go,te,me,sil2,du,ba,sil1,['catch'],[1.1913999999985663],[1.1913999999985663],0.444,no_beat,0.7473999999985663,0.7473999999985663,"[""space""]",ñu,4,,,,,,,,,,,,,,,2 ,2.0,catalan,0.0,castellano,1.0,0.0,3.0,no,no,no,nada,0,nada,0,,,nada ,78.0,yes
184,2023-11-21_21h37.14.803,Unsyncopated1,s81,21.0,feminino,right,España,2.0,Bachelor degree,no,no,B,2,what,L2,unsyncopated,s2,r2,56,Online_whatL2//c.cha.me11.1332.0.wav,me,ba,si,sil2,fe,cha,ñu,sil,ra,bi,sil1,['catch'],[0.5642000000011649],[0.5642000000011649],0.0,beat,0.5642000000011649,0.5642000000011649,"[""space""]",me,3,,,,,,,,,,,,,,,2 ,2.0,catalan,0.0,castellano,1.0,0.0,3.0,no,no,no,nada,0,nada,0,,,nada ,78.0,yes
185,2023-11-21_21h37.14.803,Unsyncopated1,s81,21.0,feminino,right,España,2.0,Bachelor degree,no,no,B,2,what,L2,unsyncopated,s2,r2,57,Online_whatL2//c.cha.me9.none.none.wav,te,to,si,sil2,fe,su,ñu,sil,ra,bi,sil1,['false alarm'],[0.8932999999990443],[0.8932999999990443],none,none,,,"[""space""]",me,3,,,,,,,,,,,,,,,2 ,2.0,catalan,0.0,castellano,1.0,0.0,3.0,no,no,no,nada,0,nada,0,,,nada ,78.0,yes
186,2023-11-21_21h37.14.803,Unsyncopated1,s81,21.0,feminino,right,España,2.0,Bachelor degree,no,no,B,2,what,L2,unsyncopated,s1,r2,58,Online_whatL2//c.cha.me10.222.1110.wav,fe,cha,ño,sil,ra,me,su,sil1,si,to,sil2,['miss'],,,1.11,no_beat,,,,me,3,,,,,,,,,,,,,,,2 ,2.0,catalan,0.0,castellano,1.0,0.0,3.0,no,no,no,nada,0,nada,0,,,nada ,78.0,yes
187,2023-11-21_21h37.14.803,Unsyncopated1,s81,21.0,feminino,right,España,2.0,Bachelor degree,no,no,B,2,what,L2,unsyncopated,s1,r1,59,Online_whatL2//c.cha.me8.1998.1332.wav,go,ñu,ño,sil2,du,me,mi,sil,cha,su,sil1,['catch'],[2.4062000000010357],[2.4062000000010357],1.332,no_beat,1.0742000000010357,1.0742000000010357,"[""space""]",me,3,,,,,,,,,,,,,,,2 ,2.0,catalan,0.0,castellano,1.0,0.0,3.0,no,no,no,nada,0,nada,0,,,nada ,78.0,yes
188,2023-11-21_21h37.14.803,Unsyncopated1,s81,21.0,feminino,right,España,2.0,Bachelor degree,no,no,B,2,what,L2,unsyncopated,s2,r2,60,Online_whatL2//a.go.du13.none.none.wav,te,si,ño,sil2,fe,su,ñu,sil,ra,mi,sil1,['-'],,,none,none,,,,go,1,,,,,,,,,,,,,,,2 ,2.0,catalan,0.0,castellano,1.0,0.0,3.0,no,no,no,nada,0,nada,0,,,nada ,78.0,yes
189,2023-11-21_21h37.14.803,Unsyncopated1,s81,21.0,feminino,right,España,2.0,Bachelor degree,no,no,B,2,what,L2,unsyncopated,s2,r2,61,Online_whatL2//a.go.du14.none.none.wav,bi,me,mi,sil2,fe,to,ñu,sil,ra,su,sil1,['-'],,,none,none,,,,go,1,,,,,,,,,,,,,,,2 ,2.0,catalan,0.0,castellano,1.0,0.0,3.0,no,no,no,nada,0,nada,0,,,nada ,78.0,yes
190,2023-11-21_21h37.14.803,Unsyncopated1,s81,21.0,feminino,right,España,2.0,Bachelor degree,no,no,B,2,what,L2,unsyncopated,s1,r1,62,Online_whatL2//a.go.du12.0.888.wav,go,su,cha,sil,du,to,te,sil2,me,mi,sil1,['catch'],[0.47679999999900247],[0.47679999999900247],0.0,beat,0.4767999999990024,0.4767999999990024,"[""space""]",go,1,,,,,,,,,,,,,,,2 ,2.0,catalan,0.0,castellano,1.0,0.0,3.0,no,no,no,nada,0,nada,0,,,nada ,78.0,yes
191,2023-11-21_21h37.14.803,Unsyncopated1,s81,21.0,feminino,right,España,2.0,Bachelor degree,no,no,B,2,what,L2,unsyncopated,s1,r1,63,Online_whatL2//a.go.du15.0.888.wav,go,cha,mi,sil,du,ñu,to,sil1,ba,ño,sil2,['miss'],,,0.0,beat,,,,go,1,,,,,,,,,,,,,,,2 ,2.0,catalan,0.0,castellano,1.0,0.0,3.0,no,no,no,nada,0,nada,0,,,nada ,78.0,yes
192,2023-11-21_21h37.14.803,Unsyncopated1,s81,21.0,feminino,right,España,2.0,Bachelor degree,no,no,B,2,what,L2,unsyncopated,s2,r1,64,Online_whatL2//a.go.du11.1110.1998.wav,si,me,to,sil2,go,su,te,sil,du,mi,sil1,['false alarm'],[0.7831999999993968],[0.7831999999993968],1.11,no_beat,,,"[""space""]",go,1,,,,,,,,,,,,,,,2 ,2.0,catalan,0.0,castellano,1.0,0.0,3.0,no,no,no,nada,0,nada,0,,,nada ,78.0,yes
193,2023-11-21_21h37.14.803,Unsyncopated1,s81,21.0,feminino,right,España,2.0,Bachelor degree,no,no,B,2,what,L2,unsyncopated,s1,r2,65,Online_whatL2//a.go.du9.none.none.wav,fe,ba,to,sil2,ra,mi,ño,sil,si,ñu,sil1,['-'],,,none,none,,,,go,1,,,,,,,,,,,,,,,2 ,2.0,catalan,0.0,castellano,1.0,0.0,3.0,no,no,no,nada,0,nada,0,,,nada ,78.0,yes
194,2023-11-21_21h37.14.803,Unsyncopated1,s81,21.0,feminino,right,España,2.0,Bachelor degree,no,no,B,2,what,L2,unsyncopated,s1,r1,66,Online_whatL2//a.go.du10.0.888.wav,go,to,ño,sil,du,si,ba,sil2,ñu,me,sil1,['miss'],,,0.0,beat,,,,go,1,,,,,,,,,,,,,,,2 ,2.0,catalan,0.0,castellano,1.0,0.0,3.0,no,no,no,nada,0,nada,0,,,nada ,78.0,yes
195,2023-11-21_21h37.14.803,Unsyncopated1,s81,21.0,feminino,right,España,2.0,Bachelor degree,no,no,B,2,what,L2,unsyncopated,s1,r1,67,Online_whatL2//a.go.du8.0.888.wav,go,su,mi,sil,du,ñu,ño,sil1,to,si,sil2,['catch'],[0.9433000000008178],[0.9433000000008178],0.0,beat,0.9433000000008178,0.9433000000008178,"[""space""]",go,1,,,,,,,,,,,,,,,2 ,2.0,catalan,0.0,castellano,1.0,0.0,3.0,no,no,no,nada,0,nada,0,,,nada ,78.0,yes
196,2023-11-21_21h37.14.803,Unsyncopated1,s81,21.0,feminino,right,España,2.0,Bachelor degree,no,no,B,2,what,L2,unsyncopated,s2,r2,68,Online_whatL2//d.si.ñu15.none.none.wav,su,te,mi,sil2,fe,ño,bi,sil,ra,cha,sil1,['false alarm'],[0.9355000000000473],[0.9355000000000473],none,none,,,"[""space""]",ñu,4,,,,,,,,,,,,,,,2 ,2.0,catalan,0.0,castellano,1.0,0.0,3.0,no,no,no,nada,0,nada,0,,,nada ,78.0,yes
197,2023-11-21_21h37.14.803,Unsyncopated1,s81,21.0,feminino,right,España,2.0,Bachelor degree,no,no,B,2,what,L2,unsyncopated,s2,r2,69,Online_whatL2//d.si.ñu13.444.0.wav,ñu,te,si,sil,fe,bi,cha,sil1,ra,ba,sil2,['miss'],,,0.0,beat,,,,ñu,4,,,,,,,,,,,,,,,2 ,2.0,catalan,0.0,castellano,1.0,0.0,3.0,no,no,no,nada,0,nada,0,,,nada ,78.0,yes
198,2023-11-21_21h37.14.803,Unsyncopated1,s81,21.0,feminino,right,España,2.0,Bachelor degree,no,no,B,2,what,L2,unsyncopated,s1,r1,70,Online_whatL2//d.si.ñu12.222.444.wav,go,si,ñu,sil,du,ba,me,sil1,bi,to,sil2,['catch'],[0.894700000001194],[0.894700000001194],0.444,no_beat,0.450700000001194,0.450700000001194,"[""space""]",ñu,4,,,,,,,,,,,,,,,2 ,2.0,catalan,0.0,castellano,1.0,0.0,3.0,no,no,no,nada,0,nada,0,,,nada ,78.0,yes
199,2023-11-21_21h37.14.803,Unsyncopated1,s81,21.0,feminino,right,España,2.0,Bachelor degree,no,no,B,2,what,L2,unsyncopated,s1,r2,71,Online_whatL2//d.si.ñu14.none.none.wav,fe,te,cha,sil,ra,mi,ba,sil1,bi,ño,sil2,['false alarm'],[2.4915000000000873],[2.4915000000000873],none,none,,,"[""space""]",ñu,4,,,,,,,,,,,,,,,2 ,2.0,catalan,0.0,castellano,1.0,0.0,3.0,no,no,no,nada,0,nada,0,,,nada ,78.0,yes
200,2023-11-21_21h37.14.803,Unsyncopated1,s81,21.0,feminino,right,España,2.0,Bachelor degree,no,no,B,2,what,L2,unsyncopated,s2,r1,72,Online_whatL2//b.fe.ra17.none.none.wav,ñu,su,to,sil,go,te,bi,sil2,du,si,sil1,['false alarm'],[0.5155999999994947],[0.5155999999994947],none,none,,,"[""space""]",ra,2,,,,,,,,,,,,,,,2 ,2.0,catalan,0.0,castellano,1.0,0.0,3.0,no,no,no,nada,0,nada,0,,,nada ,78.0,yes
201,2023-11-21_21h37.14.803,Unsyncopated1,s81,21.0,feminino,right,España,2.0,Bachelor degree,no,no,B,2,what,L2,unsyncopated,s1,r2,73,Online_whatL2//b.fe.ra16.0.1110.wav,fe,te,su,sil2,ra,si,ñu,sil,cha,mi,sil1,"['false alarm', 'catch']","[0.37849999999980355, 1.8979999999999109]",[1.8979999999999109],1.11,no_beat,0.7879999999999108,0.7879999999999108,"[""space"",""space""]",ra,2,,,,,,,,,,,,,,,2 ,2.0,catalan,0.0,castellano,1.0,0.0,3.0,no,no,no,nada,0,nada,0,,,nada ,78.0,yes
202,2023-11-21_21h37.14.803,Unsyncopated1,s81,21.0,feminino,right,España,2.0,Bachelor degree,no,no,B,2,what,L2,unsyncopated,s1,r1,74,Online_whatL2//b.fe.ra18.none.none.wav,go,si,te,sil,du,to,ño,sil2,me,bi,sil1,['-'],,,none,none,,,,ra,2,,,,,,,,,,,,,,,2 ,2.0,catalan,0.0,castellano,1.0,0.0,3.0,no,no,no,nada,0,nada,0,,,nada ,78.0,yes
203,2023-11-21_21h37.14.803,Unsyncopated1,s81,21.0,feminino,right,España,2.0,Bachelor degree,no,no,B,2,what,L2,unsyncopated,s1,r2,75,Online_whatL2//b.fe.ra19.0.888.wav,fe,si,ñu,sil,ra,me,su,sil2,cha,to,sil1,['miss'],,,0.888,beat,,,,ra,2,,,,,,,,,,,,,,,2 ,2.0,catalan,0.0,castellano,1.0,0.0,3.0,no,no,no,nada,0,nada,0,,,nada ,78.0,yes
204,2023-11-21_21h37.14.803,Unsyncopated1,s81,21.0,feminino,right,España,2.0,Bachelor degree,no,no,B,2,what,L2,unsyncopated,s2,r1,76,Online_whatL2//c.cha.me14.none.none.wav,ñu,to,ño,sil,go,ba,si,sil2,du,mi,sil1,['-'],,,none,none,,,,me,3,,,,,,,,,,,,,,,2 ,2.0,catalan,0.0,castellano,1.0,0.0,3.0,no,no,no,nada,0,nada,0,,,nada ,78.0,yes
205,2023-11-21_21h37.14.803,Unsyncopated1,s81,21.0,feminino,right,España,2.0,Bachelor degree,no,no,B,2,what,L2,unsyncopated,s2,r1,77,Online_whatL2//c.cha.me15.none.none.wav,su,ñu,mi,sil,go,ba,bi,sil1,du,to,sil2,['-'],,,none,none,,,,me,3,,,,,,,,,,,,,,,2 ,2.0,catalan,0.0,castellano,1.0,0.0,3.0,no,no,no,nada,0,nada,0,,,nada ,78.0,yes
206,2023-11-21_21h37.14.803,Unsyncopated1,s81,21.0,feminino,right,España,2.0,Bachelor degree,no,no,B,2,what,L2,unsyncopated,s1,r1,78,Online_whatL2//c.cha.me12.1332.222.wav,go,me,si,sil,du,ñu,cha,sil1,mi,to,sil2,"['catch', 'false alarm']","[0.9743000000005395, 2.2215999999996257]",[0.9743000000005395],0.222,no_beat,0.7523000000005395,0.7523000000005395,"[""space"",""space""]",me,3,,,,,,,,,,,,,,,2 ,2.0,catalan,0.0,castellano,1.0,0.0,3.0,no,no,no,nada,0,nada,0,,,nada ,78.0,yes
207,2023-11-21_21h37.14.803,Unsyncopated1,s81,21.0,feminino,right,España,2.0,Bachelor degree,no,no,B,2,what,L2,unsyncopated,s1,r2,79,Online_whatL2//c.cha.me13.none.none.wav,fe,su,te,sil,ra,ño,si,sil2,ba,bi,sil1,['false alarm'],[2.540899999998601],[2.540899999998601],none,none,,,"[""space""]",me,3,,,,,,,,,,,,,,,2 ,2.0,catalan,0.0,castellano,1.0,0.0,3.0,no,no,no,nada,0,nada,0,,,nada ,78.0,yes
208,2023-11-21_21h37.14.803,Unsyncopated1,s81,21.0,feminino,right,España,2.0,Bachelor degree,no,no,B,2,what,L2,unsyncopated,s1,r2,80,Online_whatL2//a.go.du29.none.none.wav,fe,ñu,mi,sil,ra,cha,su,sil2,te,bi,sil1,['-'],,,none,none,,,,go,1,,,,,,,,,,,,,,,2 ,2.0,catalan,0.0,castellano,1.0,0.0,3.0,no,no,no,nada,0,nada,0,,,nada ,78.0,yes
209,2023-11-21_21h37.14.803,Unsyncopated1,s81,21.0,feminino,right,España,2.0,Bachelor degree,no,no,B,2,what,L2,unsyncopated,s2,r1,81,Online_whatL2//a.go.du30.888.1776.wav,cha,me,te,sil,go,ba,mi,sil1,du,bi,sil2,['miss'],,,0.888,beat,,,,go,1,,,,,,,,,,,,,,,2 ,2.0,catalan,0.0,castellano,1.0,0.0,3.0,no,no,no,nada,0,nada,0,,,nada ,78.0,yes
210,2023-11-21_21h37.14.803,Unsyncopated1,s81,21.0,feminino,right,España,2.0,Bachelor degree,no,no,B,2,what,L2,unsyncopated,s1,r1,82,Online_whatL2//a.go.du28.0.888.wav,go,ñu,mi,sil,du,ba,ño,sil1,me,su,sil2,['catch'],[0.7596000000014556],[0.7596000000014556],0.0,beat,0.7596000000014556,0.7596000000014556,"[""space""]",go,1,,,,,,,,,,,,,,,2 ,2.0,catalan,0.0,castellano,1.0,0.0,3.0,no,no,no,nada,0,nada,0,,,nada ,78.0,yes
211,2023-11-21_21h37.14.803,Unsyncopated1,s81,21.0,feminino,right,España,2.0,Bachelor degree,no,no,B,2,what,L2,unsyncopated,s2,r2,83,Online_whatL2//a.go.du31.none.none.wav,cha,su,mi,sil,fe,ño,si,sil2,ra,te,sil1,['-'],,,none,none,,,,go,1,,,,,,,,,,,,,,,2 ,2.0,catalan,0.0,castellano,1.0,0.0,3.0,no,no,no,nada,0,nada,0,,,nada ,78.0,yes
212,2023-11-21_21h37.14.803,Unsyncopated1,s81,21.0,feminino,right,España,2.0,Bachelor degree,no,no,B,2,what,L2,unsyncopated,s2,r1,84,Online_whatL2//b.fe.ra12.none.none.wav,te,mi,ñu,sil,go,bi,to,sil2,du,cha,sil1,['false alarm'],[0.12700000000018008],[0.12700000000018008],none,none,,,"[""space""]",ra,2,,,,,,,,,,,,,,,2 ,2.0,catalan,0.0,castellano,1.0,0.0,3.0,no,no,no,nada,0,nada,0,,,nada ,78.0,yes
213,2023-11-21_21h37.14.803,Unsyncopated1,s81,21.0,feminino,right,España,2.0,Bachelor degree,no,no,B,2,what,L2,unsyncopated,s2,r2,85,Online_whatL2//b.fe.ra15.888.1998.wav,to,ñu,cha,sil,fe,me,ba,sil2,ra,si,sil1,['catch_delay'],[0.7901000000013629],[0.7901000000013629],1.998,no_beat,0.7901000000013629,0.7901000000013629,,ra,2,,,,,,,,,,,,,,,2 ,2.0,catalan,0.0,castellano,1.0,0.0,3.0,no,no,no,nada,0,nada,0,,,nada ,78.0,yes
214,2023-11-21_21h37.14.803,Unsyncopated1,s81,21.0,feminino,right,España,2.0,Bachelor degree,no,no,B,2,what,L2,unsyncopated,s1,r1,86,Online_whatL2//b.fe.ra13.none.none.wav,go,mi,te,sil2,du,to,si,sil,ñu,me,sil1,['-'],[0.12410000000136279],[0.12410000000136279],none,none,,,"[""space""]",ra,2,,,,,,,,,,,,,,,2 ,2.0,catalan,0.0,castellano,1.0,0.0,3.0,no,no,no,nada,0,nada,0,,,nada ,78.0,yes
215,2023-11-21_21h37.14.803,Unsyncopated1,s81,21.0,feminino,right,España,2.0,Bachelor degree,no,no,B,2,what,L2,unsyncopated,s1,r1,87,Online_whatL2//b.fe.ra14.none.none.wav,go,bi,su,sil,du,me,te,sil2,to,cha,sil1,['-'],,,none,none,,,,ra,2,,,,,,,,,,,,,,,2 ,2.0,catalan,0.0,castellano,1.0,0.0,3.0,no,no,no,nada,0,nada,0,,,nada ,78.0,yes
216,2023-11-21_21h37.14.803,Unsyncopated1,s81,21.0,feminino,right,España,2.0,Bachelor degree,no,no,B,2,what,L2,unsyncopated,s1,r1,88,Online_whatL2//a.go.du25.0.888.wav,go,bi,ñu,sil,du,mi,si,sil2,su,cha,sil1,['miss'],,,0.0,beat,,,,go,1,,,,,,,,,,,,,,,2 ,2.0,catalan,0.0,castellano,1.0,0.0,3.0,no,no,no,nada,0,nada,0,,,nada ,78.0,yes
217,2023-11-21_21h37.14.803,Unsyncopated1,s81,21.0,feminino,right,España,2.0,Bachelor degree,no,no,B,2,what,L2,unsyncopated,s2,r2,89,Online_whatL2//a.go.du24.none.none.wav,me,cha,bi,sil,fe,ño,su,sil2,ra,to,sil1,['-'],,,none,none,,,,go,1,,,,,,,,,,,,,,,2 ,2.0,catalan,0.0,castellano,1.0,0.0,3.0,no,no,no,nada,0,nada,0,,,nada ,78.0,yes
218,2023-11-21_21h37.14.803,Unsyncopated1,s81,21.0,feminino,right,España,2.0,Bachelor degree,no,no,B,2,what,L2,unsyncopated,s2,r2,90,Online_whatL2//a.go.du27.none.none.wav,mi,cha,ba,sil,fe,bi,su,sil2,ra,ño,sil1,['false alarm'],[2.420699999999215],[2.420699999999215],none,none,,,"[""space""]",go,1,,,,,,,,,,,,,,,2 ,2.0,catalan,0.0,castellano,1.0,0.0,3.0,no,no,no,nada,0,nada,0,,,nada ,78.0,yes
219,2023-11-21_21h37.14.803,Unsyncopated1,s81,21.0,feminino,right,España,2.0,Bachelor degree,no,no,B,2,what,L2,unsyncopated,s1,r2,91,Online_whatL2//a.go.du26.none.none.wav,fe,te,si,sil2,ra,ba,to,sil,su,bi,sil1,['-'],,,none,none,,,,go,1,,,,,,,,,,,,,,,2 ,2.0,catalan,0.0,castellano,1.0,0.0,3.0,no,no,no,nada,0,nada,0,,,nada ,78.0,yes
220,2023-11-21_21h37.14.803,Unsyncopated1,s81,21.0,feminino,right,España,2.0,Bachelor degree,no,no,B,2,what,L2,unsyncopated,s1,r1,92,Online_whatL2//d.si.ñu5.none.none.wav,go,to,me,sil2,du,mi,ño,sil,ba,su,sil1,['-'],,,none,none,,,,ñu,4,,,,,,,,,,,,,,,2 ,2.0,catalan,0.0,castellano,1.0,0.0,3.0,no,no,no,nada,0,nada,0,,,nada ,78.0,yes
221,2023-11-21_21h37.14.803,Unsyncopated1,s81,21.0,feminino,right,España,2.0,Bachelor degree,no,no,B,2,what,L2,unsyncopated,s2,r1,93,Online_whatL2//d.si.ñu6.none.none.wav,te,me,mi,sil2,go,su,to,sil,du,bi,sil1,['false alarm'],[0.3075999999996384],[0.3075999999996384],none,none,,,"[""space""]",ñu,4,,,,,,,,,,,,,,,2 ,2.0,catalan,0.0,castellano,1.0,0.0,3.0,no,no,no,nada,0,nada,0,,,nada ,78.0,yes
222,2023-11-21_21h37.14.803,Unsyncopated1,s81,21.0,feminino,right,España,2.0,Bachelor degree,no,no,B,2,what,L2,unsyncopated,s2,r2,94,Online_whatL2//d.si.ñu7.1332.0.wav,ñu,to,me,sil,fe,su,si,sil1,ra,bi,sil2,['catch'],[0.49209999999948195],[0.49209999999948195],0.0,beat,0.4920999999994819,0.4920999999994819,"[""space""]",ñu,4,,,,,,,,,,,,,,,2 ,2.0,catalan,0.0,castellano,1.0,0.0,3.0,no,no,no,nada,0,nada,0,,,nada ,78.0,yes
223,2023-11-21_21h37.14.803,Unsyncopated1,s81,21.0,feminino,right,España,2.0,Bachelor degree,no,no,B,2,what,L2,unsyncopated,s1,r2,95,Online_whatL2//d.si.ñu4.1776.1110.wav,fe,su,to,sil,ra,ñu,cha,sil1,si,me,sil2,['miss'],,,1.11,no_beat,,,,ñu,4,,,,,,,,,,,,,,,2 ,2.0,catalan,0.0,castellano,1.0,0.0,3.0,no,no,no,nada,0,nada,0,,,nada ,78.0,yes
224,2023-11-21_21h37.14.803,Unsyncopated1,s81,21.0,feminino,right,España,2.0,Bachelor degree,no,no,B,2,what,L2,unsyncopated,s1,r1,96,Online_whatL2//c.cha.me2.none.none.wav,go,ba,si,sil2,du,mi,ñu,sil,bi,ño,sil1,['false alarm'],[2.016799999998966],[2.016799999998966],none,none,,,"[""space""]",me,3,,,,,,,,,,,,,,,2 ,2.0,catalan,0.0,castellano,1.0,0.0,3.0,no,no,no,nada,0,nada,0,,,nada ,78.0,yes
225,2023-11-21_21h37.14.803,Unsyncopated1,s81,21.0,feminino,right,España,2.0,Bachelor degree,no,no,B,2,what,L2,unsyncopated,s2,r2,97,Online_whatL2//c.cha.me1.1110.0.wav,me,mi,ba,sil,fe,cha,su,sil2,ra,ñu,sil1,['catch'],[0.7260999999996329],[0.7260999999996329],0.0,beat,0.7260999999996329,0.7260999999996329,"[""space""]",me,3,,,,,,,,,,,,,,,2 ,2.0,catalan,0.0,castellano,1.0,0.0,3.0,no,no,no,nada,0,nada,0,,,nada ,78.0,yes
226,2023-11-21_21h37.14.803,Unsyncopated1,s81,21.0,feminino,right,España,2.0,Bachelor degree,no,no,B,2,what,L2,unsyncopated,s1,r2,98,Online_whatL2//c.cha.me0.1998.222.wav,fe,me,ño,sil,ra,su,si,sil2,cha,mi,sil1,['catch'],[1.2398000000007414],[1.2398000000007414],0.222,no_beat,1.0178000000007414,1.0178000000007414,"[""space""]",me,3,,,,,,,,,,,,,,,2 ,2.0,catalan,0.0,castellano,1.0,0.0,3.0,no,no,no,nada,0,nada,0,,,nada ,78.0,yes
227,2023-11-21_21h37.14.803,Unsyncopated1,s81,21.0,feminino,right,España,2.0,Bachelor degree,no,no,B,2,what,L2,unsyncopated,s1,r1,99,Online_whatL2//c.cha.me3.1332.444.wav,go,to,me,sil,du,si,cha,sil2,ño,te,sil1,['miss'],,,0.444,no_beat,,,,me,3,,,,,,,,,,,,,,,2 ,2.0,catalan,0.0,castellano,1.0,0.0,3.0,no,no,no,nada,0,nada,0,,,nada ,78.0,yes
228,2023-11-21_21h37.14.803,Unsyncopated1,s81,21.0,feminino,right,España,2.0,Bachelor degree,no,no,B,2,what,L2,unsyncopated,s1,r2,100,Online_whatL2//a.go.du5.none.none.wav,fe,su,bi,sil,ra,te,to,sil1,ño,ñu,sil2,['-'],,,none,none,,,,go,1,,,,,,,,,,,,,,,2 ,2.0,catalan,0.0,castellano,1.0,0.0,3.0,no,no,no,nada,0,nada,0,,,nada ,78.0,yes
229,2023-11-21_21h37.14.803,Unsyncopated1,s81,21.0,feminino,right,España,2.0,Bachelor degree,no,no,B,2,what,L2,unsyncopated,s2,r2,101,Online_whatL2//a.go.du4.none.none.wav,te,mi,cha,sil,fe,bi,ñu,sil1,ra,ba,sil2,['false alarm'],[0.15629999999896427],[0.15629999999896427],none,none,,,"[""space""]",go,1,,,,,,,,,,,,,,,2 ,2.0,catalan,0.0,castellano,1.0,0.0,3.0,no,no,no,nada,0,nada,0,,,nada ,78.0,yes
230,2023-11-21_21h37.14.803,Unsyncopated1,s81,21.0,feminino,right,España,2.0,Bachelor degree,no,no,B,2,what,L2,unsyncopated,s1,r2,102,Online_whatL2//a.go.du7.none.none.wav,fe,ñu,me,sil,ra,cha,to,sil1,si,su,sil2,['-'],,,none,none,,,,go,1,,,,,,,,,,,,,,,2 ,2.0,catalan,0.0,castellano,1.0,0.0,3.0,no,no,no,nada,0,nada,0,,,nada ,78.0,yes
231,2023-11-21_21h37.14.803,Unsyncopated1,s81,21.0,feminino,right,España,2.0,Bachelor degree,no,no,B,2,what,L2,unsyncopated,s2,r1,103,Online_whatL2//a.go.du6.888.1776.wav,bi,su,cha,sil,go,te,ñu,sil1,du,me,sil2,['catch'],[1.5467999999989388],[1.5467999999989388],0.888,beat,0.6587999999989388,0.6587999999989388,"[""space""]",go,1,,,,,,,,,,,,,,,2 ,2.0,catalan,0.0,castellano,1.0,0.0,3.0,no,no,no,nada,0,nada,0,,,nada ,78.0,yes
