Unnamed: 0,date,expName,participant,age,sex,hand,residence,native_lang,education_level,lang_deficit,aud_deficit,group,block,condition,language,rhythm,rule structure online,rule type online,order_trial_on,trial_online,s1,s2,s3,s4,s5,s6,s7,s8,s9,s10,s11,catch_syll_resp,rts_syll_catch,clean_rts,time_syll,beat_no_beat,catch_rtsTR,catch_rts,syllable_catch.keys,cond_syll,syll_to_catch,test_offline,block_off,condition_off,rhythm_off,rule,rule_str_off,rule_norule,conds_offline,language_off,Partz_no_partm.keys,Partz_no_partm.rt,security_1_7.keys,accuracy,security_1_7.rt,n_lang,n_lang_used,lang_1,age_l1,lang_2,age_l2,lang_3,age_l3,ability_learn_l2,tendence_mix_lan,music_experience,muisc_use,partiture,instr_1,age_M1,preguntas_musica1,BMRQ_answer.response,final comment,BMRQ_Score,bilingual
0,2024-04-09_17h52.21.782,Experiment4_uns,s171,18.0,masculino,both,España,Catalán y Castellano,Upper secondary,no,no,B,1,conjunction_syn,L3,syncopated,s2,r1,0,Online_conjL3_syn//d.ji.li7.1332.0.wav,li,ko,di,chu,sil,le,ji,mo,sil1,do,sil2,['catch'],[0.7970999999977266],[0.7970999999977266],0.0,beat,0.7970999999977266,0.7970999999977266,"[""space""]",li,4,testConjL3Syn//r1.s1.2.wav,1.0,conjunction_syn,syncopated,a,s1,rule,rule,L3,m,1.0702,5.0,0.0,4.2223,3 ,2.0,Catalán,0.0,Castellano,0.0,Inglés,3.0,4.0,3.0,yes,no,yes,Flauta,12,1. Cuando comparto música con alguien siento una complicidad especial con aquella persona.,4.0,nada,65.0,yes
1,2024-04-09_17h52.21.782,Experiment4_uns,s171,18.0,masculino,both,España,Catalán y Castellano,Upper secondary,no,no,B,1,conjunction_syn,L3,syncopated,s2,r1,1,Online_conjL3_syn//d.ji.li4.0.222.wav,ji,li,ka,chu,sil,le,di,mo,sil1,gu,sil2,"['catch', 'false alarm']","[0.8179000000022825, 2.0774999999999864]",[0.8179000000022825],0.222,no_beat,0.5959000000022825,0.5959000000022825,"[""space"",""space""]",li,4,testConjL3Syn//time_viol.r2.s2.0.wav,1.0,conjunction_syn,syncopated,b,s2,no_rule,time,L3,z,1.1561,6.0,0.0,1.3226,3 ,2.0,Catalán,0.0,Castellano,0.0,Inglés,3.0,4.0,3.0,yes,no,yes,Flauta,12,2. En mi tiempo libre apenas escucho música.,5.0,nada,65.0,yes
2,2024-04-09_17h52.21.782,Experiment4_uns,s171,18.0,masculino,both,España,Catalán y Castellano,Upper secondary,no,no,B,1,conjunction_syn,L3,syncopated,s1,r2,2,Online_conjL3_syn//d.ji.li5.1332.222.wav,ñe,li,do,sa,sil,le,ji,di,sil1,ko,sil2,"['catch', 'false alarm']","[0.8121999999992795, 1.87210000000141]",[0.8121999999992795],0.222,no_beat,0.5901999999992795,0.5901999999992795,"[""space"",""space""]",li,4,testConjL3Syn//dep_viol.r2.s1.0.wav,1.0,conjunction_syn,syncopated,b,s1,no_rule,dep,L3,z,1.0245,6.0,0.0,1.6066,3 ,2.0,Catalán,0.0,Castellano,0.0,Inglés,3.0,4.0,3.0,yes,no,yes,Flauta,12,3. Algunas canciones me ponen los pelos de punta,3.0,nada,65.0,yes
3,2024-04-09_17h52.21.782,Experiment4_uns,s171,18.0,masculino,both,España,Catalán y Castellano,Upper secondary,no,no,B,1,conjunction_syn,L3,syncopated,s1,r1,3,Online_conjL3_syn//d.ji.li6.none.none.wav,chu,je,fu,mo,sil,ka,ga,le,sil1,do,sil2,['-'],,,none,none,,,,li,4,testConjL3Syn//time_viol.r2.s1.0.wav,1.0,conjunction_syn,syncopated,b,s1,no_rule,time,L3,m,0.7346,5.0,1.0,2.1613,3 ,2.0,Catalán,0.0,Castellano,0.0,Inglés,3.0,4.0,3.0,yes,no,yes,Flauta,12,4. La música me hace compañía cuando estoy solo,4.0,nada,65.0,yes
4,2024-04-09_17h52.21.782,Experiment4_uns,s171,18.0,masculino,both,España,Catalán y Castellano,Upper secondary,no,no,B,1,conjunction_syn,L3,syncopated,s1,r2,4,Online_conjL3_syn//b.ñe.sa8.0.666.wav,ñe,do,di,sa,sil,je,ko,le,sil1,gu,sil2,['miss'],,,0.666,no_beat,,,,sa,2,testConjL3Syn//time_viol.r1.s2.0.wav,1.0,conjunction_syn,syncopated,a,s2,no_rule,time,L3,z,0.5187,6.0,0.0,1.8527,3 ,2.0,Catalán,0.0,Castellano,0.0,Inglés,3.0,4.0,3.0,yes,no,yes,Flauta,12,5. No me apetece bailar ni con la música que más me gusta,5.0,nada,65.0,yes
5,2024-04-09_17h52.21.782,Experiment4_uns,s171,18.0,masculino,both,España,Catalán y Castellano,Upper secondary,no,no,B,1,conjunction_syn,L3,syncopated,s1,r2,5,Online_conjL3_syn//b.ñe.sa9.0.666.wav,ñe,ko,je,sa,sil,fu,li,di,sil1,ji,sil2,['catch'],[1.982900000002246],[1.982900000002246],0.666,no_beat,,1.3169000000022462,"[""space""]",sa,2,testConjL3Syn//r1.s2.1.wav,1.0,conjunction_syn,syncopated,a,s2,rule,rule,L3,m,0.9826,7.0,0.0,1.3847,3 ,2.0,Catalán,0.0,Castellano,0.0,Inglés,3.0,4.0,3.0,yes,no,yes,Flauta,12,6. La música me hace conectar con la gente,3.0,nada,65.0,yes
6,2024-04-09_17h52.21.782,Experiment4_uns,s171,18.0,masculino,both,España,Catalán y Castellano,Upper secondary,no,no,B,1,conjunction_syn,L3,syncopated,s2,r2,6,Online_conjL3_syn//b.ñe.sa11.666.1554.wav,li,fu,ga,ñe,sil,do,ka,sa,sil1,ko,sil2,['false alarm'],[0.6345000000000027],[0.6345000000000027],1.554,no_beat,,,"[""space""]",sa,2,testConjL3Syn//r1.s1.0.wav,1.0,conjunction_syn,syncopated,a,s1,rule,rule,L3,m,0.4446,7.0,0.0,0.8824,3 ,2.0,Catalán,0.0,Castellano,0.0,Inglés,3.0,4.0,3.0,yes,no,yes,Flauta,12,7. Me informo sobre la música que me gusta.,4.0,nada,65.0,yes
7,2024-04-09_17h52.21.782,Experiment4_uns,s171,18.0,masculino,both,España,Catalán y Castellano,Upper secondary,no,no,B,1,conjunction_syn,L3,syncopated,s1,r1,7,Online_conjL3_syn//b.ñe.sa10.none.none.wav,chu,ji,li,mo,sil,je,le,gu,sil1,do,sil2,['false alarm'],[0.9031999999992877],[0.9031999999992877],none,none,,,"[""space""]",sa,2,testConjL3Syn//r1.s2.0.wav,1.0,conjunction_syn,syncopated,a,s2,rule,rule,L3,z,0.6519,3.0,1.0,2.3767,3 ,2.0,Catalán,0.0,Castellano,0.0,Inglés,3.0,4.0,3.0,yes,no,yes,Flauta,12,8.Me emociono escuchando ciertas canciones.,3.0,nada,65.0,yes
8,2024-04-09_17h52.21.782,Experiment4_uns,s171,18.0,masculino,both,España,Catalán y Castellano,Upper secondary,no,no,B,1,conjunction_syn,L3,syncopated,s2,r1,8,Online_conjL3_syn//b.ñe.sa15.none.none.wav,di,gu,le,chu,sil,do,fu,mo,sil1,ji,sil2,['false alarm'],[0.7894000000021606],[0.7894000000021606],none,none,,,"[""space""]",sa,2,testConjL3Syn//r2.s1.0.wav,1.0,conjunction_syn,syncopated,b,s1,rule,rule,L3,z,0.6013,4.0,1.0,1.4531,3 ,2.0,Catalán,0.0,Castellano,0.0,Inglés,3.0,4.0,3.0,yes,no,yes,Flauta,12,9.La música me tranquiliza y me relaja.,3.0,nada,65.0,yes
9,2024-04-09_17h52.21.782,Experiment4_uns,s171,18.0,masculino,both,España,Catalán y Castellano,Upper secondary,no,no,B,1,conjunction_syn,L3,syncopated,s2,r2,9,Online_conjL3_syn//b.ñe.sa13.666.1554.wav,fu,li,ka,ñe,sil,ga,le,sa,sil1,je,sil2,['false alarm'],[1.1074000000021442],[1.1074000000021442],1.554,no_beat,,,"[""space""]",sa,2,testConjL3Syn//dep_viol.r2.s2.0.wav,1.0,conjunction_syn,syncopated,b,s2,no_rule,dep,L3,z,0.4873,6.0,0.0,1.2232,3 ,2.0,Catalán,0.0,Castellano,0.0,Inglés,3.0,4.0,3.0,yes,no,yes,Flauta,12,10.La música me hace bailar,3.0,nada,65.0,yes
10,2024-04-09_17h52.21.782,Experiment4_uns,s171,18.0,masculino,both,España,Catalán y Castellano,Upper secondary,no,no,B,1,conjunction_syn,L3,syncopated,s2,r1,10,Online_conjL3_syn//b.ñe.sa12.none.none.wav,ko,li,di,chu,sil,do,ga,mo,sil1,ka,sil2,['false alarm'],[0.7293000000007623],[0.7293000000007623],none,none,,,"[""space""]",sa,2,testConjL3Syn//r2.s1.2.wav,1.0,conjunction_syn,syncopated,b,s1,rule,rule,L3,z,0.7667,6.0,1.0,0.8681,3 ,2.0,Catalán,0.0,Castellano,0.0,Inglés,3.0,4.0,3.0,yes,no,yes,Flauta,12,11.Busco novedades musicales continuamente,1.0,nada,65.0,yes
11,2024-04-09_17h52.21.782,Experiment4_uns,s171,18.0,masculino,both,España,Catalán y Castellano,Upper secondary,no,no,B,1,conjunction_syn,L3,syncopated,s1,r2,11,Online_conjL3_syn//b.ñe.sa14.0.666.wav,ñe,ko,li,sa,sil,fu,je,gu,sil1,ga,sil2,['catch'],[1.2749999999999773],[1.2749999999999773],0.666,no_beat,0.6089999999999772,0.6089999999999772,"[""space""]",sa,2,testConjL3Syn//r1.s1.1.wav,1.0,conjunction_syn,syncopated,a,s1,rule,rule,L3,z,0.9856,7.0,1.0,0.8992,3 ,2.0,Catalán,0.0,Castellano,0.0,Inglés,3.0,4.0,3.0,yes,no,yes,Flauta,12,12. Puedo llorar cuando escucho algunas melodías que me gustan mucho.,3.0,nada,65.0,yes
12,2024-04-09_17h52.21.782,Experiment4_uns,s171,18.0,masculino,both,España,Catalán y Castellano,Upper secondary,no,no,B,1,conjunction_syn,L3,syncopated,s2,r2,12,Online_conjL3_syn//b.ñe.sa21.666.1554.wav,le,di,gu,ñe,sil,ga,je,sa,sil1,li,sil2,['false alarm'],[1.0155999999976757],[1.0155999999976757],1.554,no_beat,,,"[""space""]",sa,2,testConjL3Syn//r1.s2.2.wav,1.0,conjunction_syn,syncopated,a,s2,rule,rule,L3,z,0.5985,7.0,1.0,0.8079,3 ,2.0,Catalán,0.0,Castellano,0.0,Inglés,3.0,4.0,3.0,yes,no,yes,Flauta,12,13. Me gusta cantar o tocar un instrumento con más gente,1.0,nada,65.0,yes
13,2024-04-09_17h52.21.782,Experiment4_uns,s171,18.0,masculino,both,España,Catalán y Castellano,Upper secondary,no,no,B,1,conjunction_syn,L3,syncopated,s2,r1,13,Online_conjL3_syn//b.ñe.sa23.none.none.wav,ka,le,di,chu,sil,je,gu,mo,sil1,ji,sil2,['-'],,,none,none,,,,sa,2,testConjL3Syn//r2.s2.2.wav,1.0,conjunction_syn,syncopated,b,s2,rule,rule,L3,m,1.9683,1.0,0.0,1.7014,3 ,2.0,Catalán,0.0,Castellano,0.0,Inglés,3.0,4.0,3.0,yes,no,yes,Flauta,12,14. La música me ayuda a desconectar.,4.0,nada,65.0,yes
14,2024-04-09_17h52.21.782,Experiment4_uns,s171,18.0,masculino,both,España,Catalán y Castellano,Upper secondary,no,no,B,1,conjunction_syn,L3,syncopated,s1,r1,14,Online_conjL3_syn//b.ñe.sa22.none.none.wav,chu,di,li,mo,sil,le,fu,gu,sil1,je,sil2,['-'],,,none,none,,,,sa,2,testConjL3Syn//dep_viol.r1.s2.0.wav,1.0,conjunction_syn,syncopated,a,s2,no_rule,dep,L3,m,0.6117,5.0,1.0,1.9336,3 ,2.0,Catalán,0.0,Castellano,0.0,Inglés,3.0,4.0,3.0,yes,no,yes,Flauta,12,15. No puedo evitar tararear las canciones que me gustan cuando las escucho.,4.0,nada,65.0,yes
15,2024-04-09_17h52.21.782,Experiment4_uns,s171,18.0,masculino,both,España,Catalán y Castellano,Upper secondary,no,no,B,1,conjunction_syn,L3,syncopated,s2,r2,15,Online_conjL3_syn//b.ñe.sa20.666.1554.wav,le,di,ka,ñe,sil,li,je,sa,sil1,ko,sil2,['catch'],[2.1409999999999627],[2.1409999999999627],1.554,no_beat,0.5869999999999627,0.5869999999999627,"[""space""]",sa,2,testConjL3Syn//r2.s1.1.wav,1.0,conjunction_syn,syncopated,b,s1,rule,rule,L3,z,0.5324,6.0,1.0,1.2341,3 ,2.0,Catalán,0.0,Castellano,0.0,Inglés,3.0,4.0,3.0,yes,no,yes,Flauta,12,16. En los conciertos me siento en sintonía con los artistas y el público.,4.0,nada,65.0,yes
16,2024-04-09_17h52.21.782,Experiment4_uns,s171,18.0,masculino,both,España,Catalán y Castellano,Upper secondary,no,no,B,1,conjunction_syn,L3,syncopated,s2,r2,16,Online_conjL3_syn//d.ji.li17.1332.222.wav,fu,li,do,ñe,sil,di,ji,sa,sil1,je,sil2,['catch'],[0.8475000000000819],[0.8475000000000819],0.222,no_beat,0.6255000000000819,0.6255000000000819,"[""space""]",li,4,testConjL3Syn//r2.s2.0.wav,1.0,conjunction_syn,syncopated,b,s2,rule,rule,L3,m,0.4345,5.0,0.0,0.9509,3 ,2.0,Catalán,0.0,Castellano,0.0,Inglés,3.0,4.0,3.0,yes,no,yes,Flauta,12,17. Me gasto bastante dinero en música y cosas relacionadas con la música.,0.0,nada,65.0,yes
17,2024-04-09_17h52.21.782,Experiment4_uns,s171,18.0,masculino,both,España,Catalán y Castellano,Upper secondary,no,no,B,1,conjunction_syn,L3,syncopated,s2,r2,17,Online_conjL3_syn//d.ji.li19.none.none.wav,je,le,ko,ñe,sil,ga,do,sa,sil1,gu,sil2,['-'],,,none,none,,,,li,4,testConjL3Syn//dep_viol.r1.s1.0.wav,1.0,conjunction_syn,syncopated,a,s1,no_rule,dep,L3,m,0.3213,7.0,1.0,0.974,3 ,2.0,Catalán,0.0,Castellano,0.0,Inglés,3.0,4.0,3.0,yes,no,yes,Flauta,12,18. Siento escalofríos cuando escucho una melodía que me gusta.,4.0,nada,65.0,yes
18,2024-04-09_17h52.21.782,Experiment4_uns,s171,18.0,masculino,both,España,Catalán y Castellano,Upper secondary,no,no,B,1,conjunction_syn,L3,syncopated,s1,r1,18,Online_conjL3_syn//d.ji.li18.1554.444.wav,chu,ga,li,mo,sil,je,do,ji,sil1,fu,sil2,['catch'],[1.132099999997763],[1.132099999997763],0.444,no_beat,0.6880999999977631,0.6880999999977631,"[""space""]",li,4,testConjL3Syn//cat_viol.r1.s1.0.wav,1.0,conjunction_syn,syncopated,a,s1,no_rule,cat,L3,m,0.3344,7.0,1.0,0.6299,3 ,2.0,Catalán,0.0,Castellano,0.0,Inglés,3.0,4.0,3.0,yes,no,yes,Flauta,12,19. Con la música me puedo desahogar.,3.0,nada,65.0,yes
19,2024-04-09_17h52.21.782,Experiment4_uns,s171,18.0,masculino,both,España,Catalán y Castellano,Upper secondary,no,no,B,1,conjunction_syn,L3,syncopated,s1,r2,19,Online_conjL3_syn//d.ji.li16.none.none.wav,ñe,gu,le,sa,sil,do,ga,ko,sil1,fu,sil2,['-'],,,none,none,,,,li,4,testConjL3Syn//r2.s2.1.wav,1.0,conjunction_syn,syncopated,b,s2,rule,rule,L3,z,1.0842,2.0,1.0,1.2591,3 ,2.0,Catalán,0.0,Castellano,0.0,Inglés,3.0,4.0,3.0,yes,no,yes,Flauta,12,20. Cuando escucho una melodía que me gusta mucho no puedo evitar mover el cuerpo.,4.0,nada,65.0,yes
20,2024-04-09_17h52.21.782,Experiment4_uns,s171,18.0,masculino,both,España,Catalán y Castellano,Upper secondary,no,no,B,1,conjunction_syn,L3,syncopated,s1,r1,20,Online_conjL3_syn//a.chu.mo31.0.666.wav,chu,ka,je,mo,sil,ga,di,gu,sil1,ko,sil2,['catch'],[0.6160999999978003],[0.6160999999978003],0.0,beat,0.6160999999978003,0.6160999999978003,"[""space""]",chu,1,testConjL3Syn//cat_viol.r2.s2.0.wav,1.0,conjunction_syn,syncopated,b,s2,no_rule,cat,L3,z,0.6009,6.0,0.0,0.8509,3 ,2.0,Catalán,0.0,Castellano,0.0,Inglés,3.0,4.0,3.0,yes,no,yes,Flauta,12,,,nada,65.0,yes
21,2024-04-09_17h52.21.782,Experiment4_uns,s171,18.0,masculino,both,España,Catalán y Castellano,Upper secondary,no,no,B,1,conjunction_syn,L3,syncopated,s1,r2,21,Online_conjL3_syn//a.chu.mo28.none.none.wav,ñe,ga,li,sa,sil,je,do,ko,sil1,ka,sil2,['-'],,,none,none,,,,chu,1,testConjL3Syn//cat_viol.r1.s2.0.wav,1.0,conjunction_syn,syncopated,a,s2,no_rule,cat,L3,z,0.4351,5.0,0.0,0.8183,3 ,2.0,Catalán,0.0,Castellano,0.0,Inglés,3.0,4.0,3.0,yes,no,yes,Flauta,12,,,nada,65.0,yes
22,2024-04-09_17h52.21.782,Experiment4_uns,s171,18.0,masculino,both,España,Catalán y Castellano,Upper secondary,no,no,B,1,conjunction_syn,L3,syncopated,s2,r2,22,Online_conjL3_syn//a.chu.mo30.none.none.wav,fu,gu,ji,ñe,sil,li,do,sa,sil1,je,sil2,['-'],,,none,none,,,,chu,1,testConjL3Syn//cat_viol.r2.s1.0.wav,1.0,conjunction_syn,syncopated,b,s1,no_rule,cat,L3,m,0.2025,7.0,1.0,1.3022,3 ,2.0,Catalán,0.0,Castellano,0.0,Inglés,3.0,4.0,3.0,yes,no,yes,Flauta,12,,,nada,65.0,yes
23,2024-04-09_17h52.21.782,Experiment4_uns,s171,18.0,masculino,both,España,Catalán y Castellano,Upper secondary,no,no,B,1,conjunction_syn,L3,syncopated,s2,r2,23,Online_conjL3_syn//a.chu.mo29.none.none.wav,ji,ka,do,ñe,sil,gu,di,sa,sil1,ko,sil2,['-'],,,none,none,,,,chu,1,testConjL3Syn//time_viol.r1.s1.0.wav,1.0,conjunction_syn,syncopated,a,s1,no_rule,time,L3,m,0.5349,7.0,1.0,0.9346,3 ,2.0,Catalán,0.0,Castellano,0.0,Inglés,3.0,4.0,3.0,yes,no,yes,Flauta,12,,,nada,65.0,yes
24,2024-04-09_17h52.21.782,Experiment4_uns,s171,18.0,masculino,both,España,Catalán y Castellano,Upper secondary,no,no,B,1,conjunction_syn,L3,syncopated,s1,r1,24,Online_conjL3_syn//c.gu.je24.1554.1110.wav,chu,ji,ko,mo,sil,je,li,gu,sil1,ka,sil2,['catch'],[1.5944000000022243],[1.5944000000022243],1.11,no_beat,0.4844000000022241,0.4844000000022241,"[""space""]",je,3,testWhatL1Uns//r2.s1.1.wav,2.0,what,unsyncopated,b,s1,rule,rule,L1,z,1.1659,3.0,1.0,1.1757,3 ,2.0,Catalán,0.0,Castellano,0.0,Inglés,3.0,4.0,3.0,yes,no,yes,Flauta,12,,,nada,65.0,yes
25,2024-04-09_17h52.21.782,Experiment4_uns,s171,18.0,masculino,both,España,Catalán y Castellano,Upper secondary,no,no,B,1,conjunction_syn,L3,syncopated,s2,r2,25,Online_conjL3_syn//c.gu.je25.none.none.wav,fu,ka,di,ñe,sil,do,le,sa,sil1,ji,sil2,['-'],,,none,none,,,,je,3,testWhatL1Uns//time_viol.r1.s2.0.wav,2.0,what,unsyncopated,a,s2,no_rule,time,L1,m,1.3011,2.0,1.0,0.5341,3 ,2.0,Catalán,0.0,Castellano,0.0,Inglés,3.0,4.0,3.0,yes,no,yes,Flauta,12,,,nada,65.0,yes
26,2024-04-09_17h52.21.782,Experiment4_uns,s171,18.0,masculino,both,España,Catalán y Castellano,Upper secondary,no,no,B,1,conjunction_syn,L3,syncopated,s1,r2,26,Online_conjL3_syn//c.gu.je27.none.none.wav,ñe,li,fu,sa,sil,di,le,ko,sil1,ji,sil2,"['false alarm', 'false alarm']","[0.021399999998493513, 2.491999999999962]",2.491999999999962,none,none,,,"[""space"",""space""]",je,3,testWhatL1Uns//dep_viol.r1.s1.0.wav,2.0,what,unsyncopated,a,s1,no_rule,dep,L1,m,0.6343,6.0,1.0,1.6235,3 ,2.0,Catalán,0.0,Castellano,0.0,Inglés,3.0,4.0,3.0,yes,no,yes,Flauta,12,,,nada,65.0,yes
27,2024-04-09_17h52.21.782,Experiment4_uns,s171,18.0,masculino,both,España,Catalán y Castellano,Upper secondary,no,no,B,1,conjunction_syn,L3,syncopated,s1,r1,27,Online_conjL3_syn//c.gu.je26.none.none.wav,chu,ji,do,mo,sil,ga,le,ko,sil1,ka,sil2,['-'],,,none,none,,,,je,3,testWhatL1Uns//r1.s1.0.wav,2.0,what,unsyncopated,a,s1,rule,rule,L1,m,0.6842,2.0,0.0,1.6496,3 ,2.0,Catalán,0.0,Castellano,0.0,Inglés,3.0,4.0,3.0,yes,no,yes,Flauta,12,,,nada,65.0,yes
28,2024-04-09_17h52.21.782,Experiment4_uns,s171,18.0,masculino,both,España,Catalán y Castellano,Upper secondary,no,no,B,1,conjunction_syn,L3,syncopated,s2,r2,28,Online_conjL3_syn//b.ñe.sa4.666.1554.wav,li,di,ka,ñe,sil,do,gu,sa,sil1,ji,sil2,['catch'],[2.331800000000726],[2.331800000000726],1.554,no_beat,0.7778000000007259,0.7778000000007259,"[""space""]",sa,2,testWhatL1Uns//r1.s1.1.wav,2.0,what,unsyncopated,a,s1,rule,rule,L1,z,0.429,4.0,1.0,1.35,3 ,2.0,Catalán,0.0,Castellano,0.0,Inglés,3.0,4.0,3.0,yes,no,yes,Flauta,12,,,nada,65.0,yes
29,2024-04-09_17h52.21.782,Experiment4_uns,s171,18.0,masculino,both,España,Catalán y Castellano,Upper secondary,no,no,B,1,conjunction_syn,L3,syncopated,s2,r2,29,Online_conjL3_syn//b.ñe.sa7.666.1554.wav,ji,je,ko,ñe,sil,gu,ga,sa,sil1,do,sil2,['catch'],[2.109300000000644],[2.109300000000644],1.554,no_beat,0.5553000000006441,0.5553000000006441,"[""space""]",sa,2,testWhatL1Uns//dep_viol.r2.s2.0.wav,2.0,what,unsyncopated,b,s2,no_rule,dep,L1,z,0.3061,6.0,0.0,0.4333,3 ,2.0,Catalán,0.0,Castellano,0.0,Inglés,3.0,4.0,3.0,yes,no,yes,Flauta,12,,,nada,65.0,yes
30,2024-04-09_17h52.21.782,Experiment4_uns,s171,18.0,masculino,both,España,Catalán y Castellano,Upper secondary,no,no,B,1,conjunction_syn,L3,syncopated,s2,r1,30,Online_conjL3_syn//b.ñe.sa5.none.none.wav,le,fu,do,chu,sil,li,ga,mo,sil1,ka,sil2,['-'],,,none,none,,,,sa,2,testWhatL1Uns//r2.s1.0.wav,2.0,what,unsyncopated,b,s1,rule,rule,L1,z,0.356,6.0,1.0,0.2562,3 ,2.0,Catalán,0.0,Castellano,0.0,Inglés,3.0,4.0,3.0,yes,no,yes,Flauta,12,,,nada,65.0,yes
31,2024-04-09_17h52.21.782,Experiment4_uns,s171,18.0,masculino,both,España,Catalán y Castellano,Upper secondary,no,no,B,1,conjunction_syn,L3,syncopated,s2,r1,31,Online_conjL3_syn//b.ñe.sa6.none.none.wav,le,ka,ko,chu,sil,do,li,mo,sil1,gu,sil2,['-'],,,none,none,,,,sa,2,testWhatL1Uns//cat_viol.r1.s1.0.wav,2.0,what,unsyncopated,a,s1,no_rule,cat,L1,z,0.5012,1.0,0.0,0.7578,3 ,2.0,Catalán,0.0,Castellano,0.0,Inglés,3.0,4.0,3.0,yes,no,yes,Flauta,12,,,nada,65.0,yes
32,2024-04-09_17h52.21.782,Experiment4_uns,s171,18.0,masculino,both,España,Catalán y Castellano,Upper secondary,no,no,B,1,conjunction_syn,L3,syncopated,s2,r2,32,Online_conjL3_syn//d.ji.li8.444.0.wav,li,fu,ji,ñe,sil,ko,je,sa,sil1,gu,sil2,['catch'],[0.6853999999984808],[0.6853999999984808],0.0,beat,0.6853999999984808,0.6853999999984808,"[""space""]",li,4,testWhatL1Uns//dep_viol.r1.s2.0.wav,2.0,what,unsyncopated,a,s2,no_rule,dep,L1,m,0.5333,4.0,1.0,1.35,3 ,2.0,Catalán,0.0,Castellano,0.0,Inglés,3.0,4.0,3.0,yes,no,yes,Flauta,12,,,nada,65.0,yes
33,2024-04-09_17h52.21.782,Experiment4_uns,s171,18.0,masculino,both,España,Catalán y Castellano,Upper secondary,no,no,B,1,conjunction_syn,L3,syncopated,s2,r1,33,Online_conjL3_syn//d.ji.li11.1332.0.wav,li,gu,do,chu,sil,le,ji,mo,sil1,je,sil2,"['catch', 'false alarm']","[0.64549999999997, 1.9144999999999754]",[0.64549999999997],0.0,beat,0.64549999999997,0.64549999999997,"[""space"",""space""]",li,4,testWhatL1Uns//r2.s2.0.wav,2.0,what,unsyncopated,b,s2,rule,rule,L1,z,0.3798,1.0,1.0,2.8399,3 ,2.0,Catalán,0.0,Castellano,0.0,Inglés,3.0,4.0,3.0,yes,no,yes,Flauta,12,,,nada,65.0,yes
34,2024-04-09_17h52.21.782,Experiment4_uns,s171,18.0,masculino,both,España,Catalán y Castellano,Upper secondary,no,no,B,1,conjunction_syn,L3,syncopated,s2,r2,34,Online_conjL3_syn//d.ji.li9.none.none.wav,ka,le,do,ñe,sil,fu,ko,sa,sil1,je,sil2,['-'],,,none,none,,,,li,4,testWhatL1Uns//r1.s2.0.wav,2.0,what,unsyncopated,a,s2,rule,rule,L1,m,1.3344,4.0,0.0,1.2183,3 ,2.0,Catalán,0.0,Castellano,0.0,Inglés,3.0,4.0,3.0,yes,no,yes,Flauta,12,,,nada,65.0,yes
35,2024-04-09_17h52.21.782,Experiment4_uns,s171,18.0,masculino,both,España,Catalán y Castellano,Upper secondary,no,no,B,1,conjunction_syn,L3,syncopated,s1,r1,35,Online_conjL3_syn//d.ji.li10.1554.444.wav,chu,je,li,mo,sil,do,fu,ji,sil1,ko,sil2,['catch'],[0.960399999998458],[0.960399999998458],0.444,no_beat,0.5163999999984581,0.5163999999984581,"[""space""]",li,4,testWhatL1Uns//cat_viol.r2.s1.0.wav,2.0,what,unsyncopated,b,s1,no_rule,cat,L1,z,0.4009,7.0,0.0,0.3013,3 ,2.0,Catalán,0.0,Castellano,0.0,Inglés,3.0,4.0,3.0,yes,no,yes,Flauta,12,,,nada,65.0,yes
36,2024-04-09_17h52.21.782,Experiment4_uns,s171,18.0,masculino,both,España,Catalán y Castellano,Upper secondary,no,no,B,1,conjunction_syn,L3,syncopated,s2,r1,36,Online_conjL3_syn//b.ñe.sa24.none.none.wav,ga,di,le,chu,sil,li,ka,mo,sil1,do,sil2,['-'],,,none,none,,,,sa,2,testWhatL1Uns//r1.s1.2.wav,2.0,what,unsyncopated,a,s1,rule,rule,L1,z,0.3512,7.0,1.0,0.2787,3 ,2.0,Catalán,0.0,Castellano,0.0,Inglés,3.0,4.0,3.0,yes,no,yes,Flauta,12,,,nada,65.0,yes
37,2024-04-09_17h52.21.782,Experiment4_uns,s171,18.0,masculino,both,España,Catalán y Castellano,Upper secondary,no,no,B,1,conjunction_syn,L3,syncopated,s2,r1,37,Online_conjL3_syn//b.ñe.sa27.none.none.wav,ka,gu,je,chu,sil,ko,di,mo,sil1,li,sil2,['-'],,,none,none,,,,sa,2,testWhatL1Uns//r2.s2.2.wav,2.0,what,unsyncopated,b,s2,rule,rule,L1,z,1.6015,6.0,1.0,0.5365,3 ,2.0,Catalán,0.0,Castellano,0.0,Inglés,3.0,4.0,3.0,yes,no,yes,Flauta,12,,,nada,65.0,yes
38,2024-04-09_17h52.21.782,Experiment4_uns,s171,18.0,masculino,both,España,Catalán y Castellano,Upper secondary,no,no,B,1,conjunction_syn,L3,syncopated,s1,r2,38,Online_conjL3_syn//b.ñe.sa25.0.666.wav,ñe,je,li,sa,sil,fu,le,ko,sil1,ji,sil2,['catch'],[1.1890000000000782],[1.1890000000000782],0.666,no_beat,0.5230000000000782,0.5230000000000782,"[""space""]",sa,2,testWhatL1Uns//time_viol.r1.s1.0.wav,2.0,what,unsyncopated,a,s1,no_rule,time,L1,m,0.3675,4.0,1.0,0.169,3 ,2.0,Catalán,0.0,Castellano,0.0,Inglés,3.0,4.0,3.0,yes,no,yes,Flauta,12,,,nada,65.0,yes
39,2024-04-09_17h52.21.782,Experiment4_uns,s171,18.0,masculino,both,España,Catalán y Castellano,Upper secondary,no,no,B,1,conjunction_syn,L3,syncopated,s1,r1,39,Online_conjL3_syn//b.ñe.sa26.none.none.wav,chu,ko,ji,mo,sil,ka,li,do,sil1,gu,sil2,['-'],,,none,none,,,,sa,2,testWhatL1Uns//r1.s2.2.wav,2.0,what,unsyncopated,a,s2,rule,rule,L1,z,0.556,3.0,1.0,0.7177,3 ,2.0,Catalán,0.0,Castellano,0.0,Inglés,3.0,4.0,3.0,yes,no,yes,Flauta,12,,,nada,65.0,yes
40,2024-04-09_17h52.21.782,Experiment4_uns,s171,18.0,masculino,both,España,Catalán y Castellano,Upper secondary,no,no,B,1,conjunction_syn,L3,syncopated,s2,r1,40,Online_conjL3_syn//c.gu.je9.1332.0.wav,je,le,ko,chu,sil,ka,gu,mo,sil1,ji,sil2,['catch'],[0.6609000000022434],[0.6609000000022434],0.0,beat,0.6609000000022434,0.6609000000022434,"[""space""]",je,3,testWhatL1Uns//r1.s2.1.wav,2.0,what,unsyncopated,a,s2,rule,rule,L1,z,0.3453,6.0,1.0,0.5427,3 ,2.0,Catalán,0.0,Castellano,0.0,Inglés,3.0,4.0,3.0,yes,no,yes,Flauta,12,,,nada,65.0,yes
41,2024-04-09_17h52.21.782,Experiment4_uns,s171,18.0,masculino,both,España,Catalán y Castellano,Upper secondary,no,no,B,1,conjunction_syn,L3,syncopated,s1,r1,41,Online_conjL3_syn//c.gu.je10.none.none.wav,chu,di,do,mo,sil,ko,ga,ji,sil1,ka,sil2,['-'],,,none,none,,,,je,3,testWhatL1Uns//cat_viol.r1.s2.0.wav,2.0,what,unsyncopated,a,s2,no_rule,cat,L1,z,0.4101,6.0,0.0,1.0561,3 ,2.0,Catalán,0.0,Castellano,0.0,Inglés,3.0,4.0,3.0,yes,no,yes,Flauta,12,,,nada,65.0,yes
42,2024-04-09_17h52.21.782,Experiment4_uns,s171,18.0,masculino,both,España,Catalán y Castellano,Upper secondary,no,no,B,1,conjunction_syn,L3,syncopated,s1,r1,42,Online_conjL3_syn//c.gu.je8.222.1110.wav,chu,gu,do,mo,sil,je,ga,ko,sil1,ka,sil2,['catch'],[1.7949000000021442],[1.7949000000021442],1.11,no_beat,0.6849000000021441,0.6849000000021441,"[""space""]",je,3,testWhatL1Uns//cat_viol.r2.s2.0.wav,2.0,what,unsyncopated,b,s2,no_rule,cat,L1,z,0.3087,3.0,0.0,0.5342,3 ,2.0,Catalán,0.0,Castellano,0.0,Inglés,3.0,4.0,3.0,yes,no,yes,Flauta,12,,,nada,65.0,yes
43,2024-04-09_17h52.21.782,Experiment4_uns,s171,18.0,masculino,both,España,Catalán y Castellano,Upper secondary,no,no,B,1,conjunction_syn,L3,syncopated,s1,r2,43,Online_conjL3_syn//c.gu.je11.222.1110.wav,ñe,gu,ka,sa,sil,je,fu,ji,sil1,le,sil2,['catch'],[2.0399000000021488],[2.0399000000021488],1.11,no_beat,0.9299000000021488,0.9299000000021488,"[""space""]",je,3,testWhatL1Uns//r2.s2.1.wav,2.0,what,unsyncopated,b,s2,rule,rule,L1,m,0.5327,2.0,0.0,0.3157,3 ,2.0,Catalán,0.0,Castellano,0.0,Inglés,3.0,4.0,3.0,yes,no,yes,Flauta,12,,,nada,65.0,yes
44,2024-04-09_17h52.21.782,Experiment4_uns,s171,18.0,masculino,both,España,Catalán y Castellano,Upper secondary,no,no,B,1,conjunction_syn,L3,syncopated,s2,r1,44,Online_conjL3_syn//c.gu.je31.none.none.wav,do,li,ga,chu,sil,ka,ko,mo,sil1,fu,sil2,['-'],,,none,none,,,,je,3,testWhatL1Uns//time_viol.r2.s2.0.wav,2.0,what,unsyncopated,b,s2,no_rule,time,L1,m,0.6889,7.0,1.0,0.8326,3 ,2.0,Catalán,0.0,Castellano,0.0,Inglés,3.0,4.0,3.0,yes,no,yes,Flauta,12,,,nada,65.0,yes
45,2024-04-09_17h52.21.782,Experiment4_uns,s171,18.0,masculino,both,España,Catalán y Castellano,Upper secondary,no,no,B,1,conjunction_syn,L3,syncopated,s2,r1,45,Online_conjL3_syn//c.gu.je28.none.none.wav,ga,li,ka,chu,sil,di,ji,mo,sil1,do,sil2,['-'],,,none,none,,,,je,3,testWhatL1Uns//r2.s1.2.wav,2.0,what,unsyncopated,b,s1,rule,rule,L1,m,0.4836,7.0,0.0,0.7845,3 ,2.0,Catalán,0.0,Castellano,0.0,Inglés,3.0,4.0,3.0,yes,no,yes,Flauta,12,,,nada,65.0,yes
46,2024-04-09_17h52.21.782,Experiment4_uns,s171,18.0,masculino,both,España,Catalán y Castellano,Upper secondary,no,no,B,1,conjunction_syn,L3,syncopated,s2,r1,46,Online_conjL3_syn//c.gu.je29.444.1110.wav,ji,li,gu,chu,sil,je,ko,mo,sil1,do,sil2,['catch'],[1.6696000000015374],[1.6696000000015374],1.11,no_beat,0.5596000000015373,0.5596000000015373,"[""space""]",je,3,testWhatL1Uns//dep_viol.r2.s1.0.wav,2.0,what,unsyncopated,b,s1,no_rule,dep,L1,z,0.9164,3.0,0.0,1.1846,3 ,2.0,Catalán,0.0,Castellano,0.0,Inglés,3.0,4.0,3.0,yes,no,yes,Flauta,12,,,nada,65.0,yes
47,2024-04-09_17h52.21.782,Experiment4_uns,s171,18.0,masculino,both,España,Catalán y Castellano,Upper secondary,no,no,B,1,conjunction_syn,L3,syncopated,s2,r1,47,Online_conjL3_syn//c.gu.je30.none.none.wav,fu,di,ga,chu,sil,ko,li,mo,sil1,ka,sil2,['-'],,,none,none,,,,je,3,testWhatL1Uns//time_viol.r2.s1.0.wav,2.0,what,unsyncopated,b,s1,no_rule,time,L1,m,0.7516,1.0,1.0,0.9418,3 ,2.0,Catalán,0.0,Castellano,0.0,Inglés,3.0,4.0,3.0,yes,no,yes,Flauta,12,,,nada,65.0,yes
48,2024-04-09_17h52.21.782,Experiment4_uns,s171,18.0,masculino,both,España,Catalán y Castellano,Upper secondary,no,no,B,1,conjunction_syn,L3,syncopated,s2,r2,48,Online_conjL3_syn//a.chu.mo7.none.none.wav,ko,le,fu,ñe,sil,ka,gu,sa,sil1,do,sil2,['-'],,,none,none,,,,chu,1,testConjL4Uns//r2.s2.1.wav,3.0,conjunction_un,unsyncopated,b,s2,rule,rule,L4,z,0.4175,7.0,1.0,1.1008,3 ,2.0,Catalán,0.0,Castellano,0.0,Inglés,3.0,4.0,3.0,yes,no,yes,Flauta,12,,,nada,65.0,yes
49,2024-04-09_17h52.21.782,Experiment4_uns,s171,18.0,masculino,both,España,Catalán y Castellano,Upper secondary,no,no,B,1,conjunction_syn,L3,syncopated,s2,r2,49,Online_conjL3_syn//a.chu.mo5.none.none.wav,fu,do,le,ñe,sil,di,ga,sa,sil1,ji,sil2,['-'],,,none,none,,,,chu,1,testConjL4Uns//r1.s2.1.wav,3.0,conjunction_un,unsyncopated,a,s2,rule,rule,L4,m,0.3633,1.0,0.0,0.4176,3 ,2.0,Catalán,0.0,Castellano,0.0,Inglés,3.0,4.0,3.0,yes,no,yes,Flauta,12,,,nada,65.0,yes
50,2024-04-09_17h52.21.782,Experiment4_uns,s171,18.0,masculino,both,España,Catalán y Castellano,Upper secondary,no,no,B,1,conjunction_syn,L3,syncopated,s2,r2,50,Online_conjL3_syn//a.chu.mo4.none.none.wav,le,ji,gu,ñe,sil,li,ga,sa,sil1,ka,sil2,['-'],,,none,none,,,,chu,1,testConjL4Uns//cat_viol.r2.s1.0.wav,3.0,conjunction_un,unsyncopated,b,s1,no_rule,cat,L4,z,0.3993,4.0,0.0,0.6007,3 ,2.0,Catalán,0.0,Castellano,0.0,Inglés,3.0,4.0,3.0,yes,no,yes,Flauta,12,,,nada,65.0,yes
51,2024-04-09_17h52.21.782,Experiment4_uns,s171,18.0,masculino,both,España,Catalán y Castellano,Upper secondary,no,no,B,1,conjunction_syn,L3,syncopated,s2,r1,51,Online_conjL3_syn//a.chu.mo6.666.1554.wav,ko,di,ga,chu,sil,li,gu,mo,sil1,do,sil2,['catch'],[1.5079000000022234],[1.5079000000022234],0.666,no_beat,0.8419000000022233,0.8419000000022233,"[""space""]",chu,1,testConjL4Uns//dep_viol.r1.s1.0.wav,3.0,conjunction_un,unsyncopated,a,s1,no_rule,dep,L4,z,0.4676,1.0,0.0,1.9677,3 ,2.0,Catalán,0.0,Castellano,0.0,Inglés,3.0,4.0,3.0,yes,no,yes,Flauta,12,,,nada,65.0,yes
52,2024-04-09_17h52.21.782,Experiment4_uns,s171,18.0,masculino,both,España,Catalán y Castellano,Upper secondary,no,no,B,1,conjunction_syn,L3,syncopated,s1,r2,52,Online_conjL3_syn//a.chu.mo18.none.none.wav,ñe,ka,gu,sa,sil,ko,fu,je,sil1,ga,sil2,['-'],,,none,none,,,,chu,1,testConjL4Uns//cat_viol.r2.s2.0.wav,3.0,conjunction_un,unsyncopated,b,s2,no_rule,cat,L4,m,0.7753,6.0,1.0,0.8678,3 ,2.0,Catalán,0.0,Castellano,0.0,Inglés,3.0,4.0,3.0,yes,no,yes,Flauta,12,,,nada,65.0,yes
53,2024-04-09_17h52.21.782,Experiment4_uns,s171,18.0,masculino,both,España,Catalán y Castellano,Upper secondary,no,no,B,1,conjunction_syn,L3,syncopated,s1,r2,53,Online_conjL3_syn//a.chu.mo17.none.none.wav,ñe,do,ga,sa,sil,fu,je,ji,sil1,ko,sil2,['-'],,,none,none,,,,chu,1,testConjL4Uns//r2.s1.0.wav,3.0,conjunction_un,unsyncopated,b,s1,rule,rule,L4,z,0.2008,7.0,1.0,0.1509,3 ,2.0,Catalán,0.0,Castellano,0.0,Inglés,3.0,4.0,3.0,yes,no,yes,Flauta,12,,,nada,65.0,yes
54,2024-04-09_17h52.21.782,Experiment4_uns,s171,18.0,masculino,both,España,Catalán y Castellano,Upper secondary,no,no,B,1,conjunction_syn,L3,syncopated,s1,r2,54,Online_conjL3_syn//a.chu.mo19.none.none.wav,ñe,di,je,sa,sil,ga,do,fu,sil1,ji,sil2,['-'],,,none,none,,,,chu,1,testConjL4Uns//r1.s2.2.wav,3.0,conjunction_un,unsyncopated,a,s2,rule,rule,L4,z,1.7239,7.0,1.0,0.1302,3 ,2.0,Catalán,0.0,Castellano,0.0,Inglés,3.0,4.0,3.0,yes,no,yes,Flauta,12,,,nada,65.0,yes
55,2024-04-09_17h52.21.782,Experiment4_uns,s171,18.0,masculino,both,España,Catalán y Castellano,Upper secondary,no,no,B,1,conjunction_syn,L3,syncopated,s2,r1,55,Online_conjL3_syn//a.chu.mo16.666.1554.wav,li,je,fu,chu,sil,do,le,mo,sil1,ka,sil2,['catch'],[1.2702000000030012],[1.2702000000030012],0.666,no_beat,0.6042000000030011,0.6042000000030011,"[""space""]",chu,1,testConjL4Uns//cat_viol.r1.s1.0.wav,3.0,conjunction_un,unsyncopated,a,s1,no_rule,cat,L4,z,0.4022,7.0,0.0,0.2225,3 ,2.0,Catalán,0.0,Castellano,0.0,Inglés,3.0,4.0,3.0,yes,no,yes,Flauta,12,,,nada,65.0,yes
56,2024-04-09_17h52.21.782,Experiment4_uns,s171,18.0,masculino,both,España,Catalán y Castellano,Upper secondary,no,no,B,1,conjunction_syn,L3,syncopated,s1,r1,56,Online_conjL3_syn//b.ñe.sa31.none.none.wav,chu,fu,gu,mo,sil,le,ji,di,sil1,ka,sil2,['-'],,,none,none,,,,sa,2,testConjL4Uns//time_viol.r2.s1.0.wav,3.0,conjunction_un,unsyncopated,b,s1,no_rule,time,L4,m,0.6007,4.0,1.0,0.308,3 ,2.0,Catalán,0.0,Castellano,0.0,Inglés,3.0,4.0,3.0,yes,no,yes,Flauta,12,,,nada,65.0,yes
57,2024-04-09_17h52.21.782,Experiment4_uns,s171,18.0,masculino,both,España,Catalán y Castellano,Upper secondary,no,no,B,1,conjunction_syn,L3,syncopated,s1,r1,57,Online_conjL3_syn//b.ñe.sa28.none.none.wav,chu,ji,ga,mo,sil,fu,ka,di,sil1,gu,sil2,['-'],,,none,none,,,,sa,2,testConjL4Uns//r2.s1.1.wav,3.0,conjunction_un,unsyncopated,b,s1,rule,rule,L4,z,2.4886,6.0,1.0,0.7007,3 ,2.0,Catalán,0.0,Castellano,0.0,Inglés,3.0,4.0,3.0,yes,no,yes,Flauta,12,,,nada,65.0,yes
58,2024-04-09_17h52.21.782,Experiment4_uns,s171,18.0,masculino,both,España,Catalán y Castellano,Upper secondary,no,no,B,1,conjunction_syn,L3,syncopated,s1,r1,58,Online_conjL3_syn//b.ñe.sa30.none.none.wav,chu,ka,ji,mo,sil,je,gu,do,sil1,li,sil2,['-'],,,none,none,,,,sa,2,testConjL4Uns//r1.s1.2.wav,3.0,conjunction_un,unsyncopated,a,s1,rule,rule,L4,m,1.3679,2.0,0.0,0.2172,3 ,2.0,Catalán,0.0,Castellano,0.0,Inglés,3.0,4.0,3.0,yes,no,yes,Flauta,12,,,nada,65.0,yes
59,2024-04-09_17h52.21.782,Experiment4_uns,s171,18.0,masculino,both,España,Catalán y Castellano,Upper secondary,no,no,B,1,conjunction_syn,L3,syncopated,s2,r2,59,Online_conjL3_syn//b.ñe.sa29.666.1554.wav,je,do,ga,ñe,sil,li,ka,sa,sil1,gu,sil2,['catch'],[2.1929999999999836],[2.1929999999999836],1.554,no_beat,0.6389999999999836,0.6389999999999836,"[""space""]",sa,2,testConjL4Uns//r2.s2.2.wav,3.0,conjunction_un,unsyncopated,b,s2,rule,rule,L4,m,1.9733,5.0,0.0,0.5175,3 ,2.0,Catalán,0.0,Castellano,0.0,Inglés,3.0,4.0,3.0,yes,no,yes,Flauta,12,,,nada,65.0,yes
60,2024-04-09_17h52.21.782,Experiment4_uns,s171,18.0,masculino,both,España,Catalán y Castellano,Upper secondary,no,no,B,1,conjunction_syn,L3,syncopated,s1,r2,60,Online_conjL3_syn//d.ji.li26.1554.222.wav,ñe,li,je,sa,sil,fu,ga,ji,sil1,ka,sil2,['catch'],[1.0773999999985335],[1.0773999999985335],0.222,no_beat,0.8553999999985336,0.8553999999985336,"[""space""]",li,4,testConjL4Uns//r1.s1.0.wav,3.0,conjunction_un,unsyncopated,a,s1,rule,rule,L4,m,0.4297,2.0,0.0,0.2007,3 ,2.0,Catalán,0.0,Castellano,0.0,Inglés,3.0,4.0,3.0,yes,no,yes,Flauta,12,,,nada,65.0,yes
61,2024-04-09_17h52.21.782,Experiment4_uns,s171,18.0,masculino,both,España,Catalán y Castellano,Upper secondary,no,no,B,1,conjunction_syn,L3,syncopated,s1,r1,61,Online_conjL3_syn//d.ji.li27.none.none.wav,chu,je,ga,mo,sil,gu,do,le,sil1,ka,sil2,['-'],,,none,none,,,,li,4,testConjL4Uns//r1.s1.1.wav,3.0,conjunction_un,unsyncopated,a,s1,rule,rule,L4,m,1.1843,4.0,0.0,0.5891,3 ,2.0,Catalán,0.0,Castellano,0.0,Inglés,3.0,4.0,3.0,yes,no,yes,Flauta,12,,,nada,65.0,yes
62,2024-04-09_17h52.21.782,Experiment4_uns,s171,18.0,masculino,both,España,Catalán y Castellano,Upper secondary,no,no,B,1,conjunction_syn,L3,syncopated,s2,r1,62,Online_conjL3_syn//d.ji.li25.none.none.wav,le,fu,ka,chu,sil,ga,je,mo,sil1,gu,sil2,['-'],,,none,none,,,,li,4,testConjL4Uns//r1.s2.0.wav,3.0,conjunction_un,unsyncopated,a,s2,rule,rule,L4,z,0.3065,6.0,1.0,0.9846,3 ,2.0,Catalán,0.0,Castellano,0.0,Inglés,3.0,4.0,3.0,yes,no,yes,Flauta,12,,,nada,65.0,yes
63,2024-04-09_17h52.21.782,Experiment4_uns,s171,18.0,masculino,both,España,Catalán y Castellano,Upper secondary,no,no,B,1,conjunction_syn,L3,syncopated,s1,r2,63,Online_conjL3_syn//d.ji.li24.222.1110.wav,ñe,ji,ga,sa,sil,li,fu,ka,sil1,di,sil2,['catch'],[1.704400000002238],[1.704400000002238],1.11,no_beat,0.5944000000022378,0.5944000000022378,"[""space""]",li,4,testConjL4Uns//dep_viol.r2.s2.0.wav,3.0,conjunction_un,unsyncopated,b,s2,no_rule,dep,L4,z,0.4517,2.0,0.0,1.1583,3 ,2.0,Catalán,0.0,Castellano,0.0,Inglés,3.0,4.0,3.0,yes,no,yes,Flauta,12,,,nada,65.0,yes
64,2024-04-09_17h52.21.782,Experiment4_uns,s171,18.0,masculino,both,España,Catalán y Castellano,Upper secondary,no,no,B,1,conjunction_syn,L3,syncopated,s1,r2,64,Online_conjL3_syn//c.gu.je15.1554.444.wav,ñe,le,je,sa,sil,fu,do,gu,sil1,ga,sil2,['miss'],,,0.444,no_beat,,,,je,3,testConjL4Uns//dep_viol.r2.s1.0.wav,3.0,conjunction_un,unsyncopated,b,s1,no_rule,dep,L4,m,0.1031,6.0,1.0,0.1837,3 ,2.0,Catalán,0.0,Castellano,0.0,Inglés,3.0,4.0,3.0,yes,no,yes,Flauta,12,,,nada,65.0,yes
65,2024-04-09_17h52.21.782,Experiment4_uns,s171,18.0,masculino,both,España,Catalán y Castellano,Upper secondary,no,no,B,1,conjunction_syn,L3,syncopated,s2,r1,65,Online_conjL3_syn//c.gu.je14.none.none.wav,ka,ko,ga,chu,sil,fu,do,mo,sil1,ji,sil2,['-'],,,none,none,,,,je,3,testConjL4Uns//time_viol.r2.s2.0.wav,3.0,conjunction_un,unsyncopated,b,s2,no_rule,time,L4,z,1.2513,5.0,0.0,0.6176,3 ,2.0,Catalán,0.0,Castellano,0.0,Inglés,3.0,4.0,3.0,yes,no,yes,Flauta,12,,,nada,65.0,yes
66,2024-04-09_17h52.21.782,Experiment4_uns,s171,18.0,masculino,both,España,Catalán y Castellano,Upper secondary,no,no,B,1,conjunction_syn,L3,syncopated,s2,r2,66,Online_conjL3_syn//c.gu.je12.none.none.wav,ka,ji,li,ñe,sil,do,ga,sa,sil1,fu,sil2,['-'],,,none,none,,,,je,3,testConjL4Uns//cat_viol.r1.s2.0.wav,3.0,conjunction_un,unsyncopated,a,s2,no_rule,cat,L4,m,0.5522,1.0,1.0,0.3016,3 ,2.0,Catalán,0.0,Castellano,0.0,Inglés,3.0,4.0,3.0,yes,no,yes,Flauta,12,,,nada,65.0,yes
67,2024-04-09_17h52.21.782,Experiment4_uns,s171,18.0,masculino,both,España,Catalán y Castellano,Upper secondary,no,no,B,1,conjunction_syn,L3,syncopated,s1,r1,67,Online_conjL3_syn//c.gu.je13.none.none.wav,chu,le,ka,mo,sil,fu,ko,do,sil1,ji,sil2,['-'],,,none,none,,,,je,3,testConjL4Uns//r2.s2.0.wav,3.0,conjunction_un,unsyncopated,b,s2,rule,rule,L4,m,0.5512,6.0,0.0,2.3515,3 ,2.0,Catalán,0.0,Castellano,0.0,Inglés,3.0,4.0,3.0,yes,no,yes,Flauta,12,,,nada,65.0,yes
68,2024-04-09_17h52.21.782,Experiment4_uns,s171,18.0,masculino,both,España,Catalán y Castellano,Upper secondary,no,no,B,1,conjunction_syn,L3,syncopated,s2,r2,68,Online_conjL3_syn//c.gu.je21.none.none.wav,fu,ko,le,ñe,sil,li,do,sa,sil1,ji,sil2,['-'],,,none,none,,,,je,3,testConjL4Uns//dep_viol.r1.s2.0.wav,3.0,conjunction_un,unsyncopated,a,s2,no_rule,dep,L4,m,0.5845,7.0,1.0,0.3843,3 ,2.0,Catalán,0.0,Castellano,0.0,Inglés,3.0,4.0,3.0,yes,no,yes,Flauta,12,,,nada,65.0,yes
69,2024-04-09_17h52.21.782,Experiment4_uns,s171,18.0,masculino,both,España,Catalán y Castellano,Upper secondary,no,no,B,1,conjunction_syn,L3,syncopated,s2,r2,69,Online_conjL3_syn//c.gu.je23.222.444.wav,li,gu,je,ñe,sil,ko,ga,sa,sil1,le,sil2,['catch'],[1.247600000001512],[1.247600000001512],0.444,no_beat,0.803600000001512,0.803600000001512,"[""space""]",je,3,testConjL4Uns//r2.s1.2.wav,3.0,conjunction_un,unsyncopated,b,s1,rule,rule,L4,m,0.4002,7.0,0.0,0.2339,3 ,2.0,Catalán,0.0,Castellano,0.0,Inglés,3.0,4.0,3.0,yes,no,yes,Flauta,12,,,nada,65.0,yes
70,2024-04-09_17h52.21.782,Experiment4_uns,s171,18.0,masculino,both,España,Catalán y Castellano,Upper secondary,no,no,B,1,conjunction_syn,L3,syncopated,s1,r2,70,Online_conjL3_syn//c.gu.je22.1554.444.wav,ñe,li,je,sa,sil,ji,ka,gu,sil1,di,sil2,['catch'],[0.98599999999999],[0.98599999999999],0.444,no_beat,0.54199999999999,0.54199999999999,"[""space""]",je,3,testConjL4Uns//time_viol.r1.s1.0.wav,3.0,conjunction_un,unsyncopated,a,s1,no_rule,time,L4,m,0.2842,7.0,1.0,0.1843,3 ,2.0,Catalán,0.0,Castellano,0.0,Inglés,3.0,4.0,3.0,yes,no,yes,Flauta,12,,,nada,65.0,yes
71,2024-04-09_17h52.21.782,Experiment4_uns,s171,18.0,masculino,both,España,Catalán y Castellano,Upper secondary,no,no,B,1,conjunction_syn,L3,syncopated,s1,r2,71,Online_conjL3_syn//c.gu.je20.1554.1110.wav,ñe,fu,di,sa,sil,je,ka,gu,sil1,le,sil2,['catch'],[1.704599999997754],[1.704599999997754],1.11,no_beat,0.5945999999977538,0.5945999999977538,"[""space""]",je,3,testConjL4Uns//time_viol.r1.s2.0.wav,3.0,conjunction_un,unsyncopated,a,s2,no_rule,time,L4,m,0.5336,1.0,1.0,1.3884,3 ,2.0,Catalán,0.0,Castellano,0.0,Inglés,3.0,4.0,3.0,yes,no,yes,Flauta,12,,,nada,65.0,yes
72,2024-04-09_17h52.21.782,Experiment4_uns,s171,18.0,masculino,both,España,Catalán y Castellano,Upper secondary,no,no,B,1,conjunction_syn,L3,syncopated,s2,r2,72,Online_conjL3_syn//b.ñe.sa19.666.1554.wav,do,fu,le,ñe,sil,li,je,sa,sil1,ji,sil2,['catch'],[1.9831999999993286],[1.9831999999993286],1.554,no_beat,0.4291999999993285,0.4291999999993285,"[""space""]",sa,2,testWhenL2Uns//cat_viol.r1.s2.0.wav,4.0,when,unsyncopated,a,s2,no_rule,cat,L2,z,3.2353,4.0,1.0,6.1232,3 ,2.0,Catalán,0.0,Castellano,0.0,Inglés,3.0,4.0,3.0,yes,no,yes,Flauta,12,,,nada,65.0,yes
73,2024-04-09_17h52.21.782,Experiment4_uns,s171,18.0,masculino,both,España,Catalán y Castellano,Upper secondary,no,no,B,1,conjunction_syn,L3,syncopated,s1,r1,73,Online_conjL3_syn//b.ñe.sa18.none.none.wav,chu,li,ga,mo,sil,di,do,je,sil1,le,sil2,['-'],,,none,none,,,,sa,2,testWhenL2Uns//r1.s1.0.wav,4.0,when,unsyncopated,a,s1,rule,rule,L2,m,1.768,1.0,0.0,0.7681,3 ,2.0,Catalán,0.0,Castellano,0.0,Inglés,3.0,4.0,3.0,yes,no,yes,Flauta,12,,,nada,65.0,yes
74,2024-04-09_17h52.21.782,Experiment4_uns,s171,18.0,masculino,both,España,Catalán y Castellano,Upper secondary,no,no,B,1,conjunction_syn,L3,syncopated,s1,r2,74,Online_conjL3_syn//b.ñe.sa16.0.666.wav,ñe,ka,le,sa,sil,do,ga,ji,sil1,fu,sil2,['catch'],[1.2311999999992622],[1.2311999999992622],0.666,no_beat,0.5651999999992622,0.5651999999992622,"[""space""]",sa,2,testWhenL2Uns//r2.s1.0.wav,4.0,when,unsyncopated,b,s1,rule,rule,L2,m,1.1723,4.0,0.0,1.4521,3 ,2.0,Catalán,0.0,Castellano,0.0,Inglés,3.0,4.0,3.0,yes,no,yes,Flauta,12,,,nada,65.0,yes
75,2024-04-09_17h52.21.782,Experiment4_uns,s171,18.0,masculino,both,España,Catalán y Castellano,Upper secondary,no,no,B,1,conjunction_syn,L3,syncopated,s2,r1,75,Online_conjL3_syn//b.ñe.sa17.none.none.wav,di,ka,le,chu,sil,ji,ga,mo,sil1,ko,sil2,['-'],,,none,none,,,,sa,2,testWhenL2Uns//dep_viol.r2.s2.0.wav,4.0,when,unsyncopated,b,s2,no_rule,dep,L2,m,2.2513,6.0,0.0,0.8015,3 ,2.0,Catalán,0.0,Castellano,0.0,Inglés,3.0,4.0,3.0,yes,no,yes,Flauta,12,,,nada,65.0,yes
76,2024-04-09_17h52.21.782,Experiment4_uns,s171,18.0,masculino,both,España,Catalán y Castellano,Upper secondary,no,no,B,1,conjunction_syn,L3,syncopated,s1,r1,76,Online_conjL3_syn//a.chu.mo14.0.666.wav,chu,ka,li,mo,sil,ga,je,ji,sil1,do,sil2,['catch'],[0.5116999999992231],[0.5116999999992231],0.0,beat,0.5116999999992231,0.5116999999992231,"[""space""]",chu,1,testWhenL2Uns//time_viol.r1.s2.0.wav,4.0,when,unsyncopated,a,s2,no_rule,time,L2,z,0.3506,7.0,1.0,1.1552,3 ,2.0,Catalán,0.0,Castellano,0.0,Inglés,3.0,4.0,3.0,yes,no,yes,Flauta,12,,,nada,65.0,yes
77,2024-04-09_17h52.21.782,Experiment4_uns,s171,18.0,masculino,both,España,Catalán y Castellano,Upper secondary,no,no,B,1,conjunction_syn,L3,syncopated,s1,r2,77,Online_conjL3_syn//a.chu.mo12.none.none.wav,ñe,je,do,sa,sil,ka,le,ji,sil1,ga,sil2,['-'],,,none,none,,,,chu,1,testWhenL2Uns//cat_viol.r2.s1.0.wav,4.0,when,unsyncopated,b,s1,no_rule,cat,L2,z,0.2838,7.0,1.0,1.0059,3 ,2.0,Catalán,0.0,Castellano,0.0,Inglés,3.0,4.0,3.0,yes,no,yes,Flauta,12,,,nada,65.0,yes
78,2024-04-09_17h52.21.782,Experiment4_uns,s171,18.0,masculino,both,España,Catalán y Castellano,Upper secondary,no,no,B,1,conjunction_syn,L3,syncopated,s1,r1,78,Online_conjL3_syn//a.chu.mo15.0.666.wav,chu,le,gu,mo,sil,do,li,ka,sil1,ji,sil2,['catch'],[0.6577999999969961],[0.6577999999969961],0.0,beat,0.6577999999969961,0.6577999999969961,"[""space""]",chu,1,testWhenL2Uns//dep_viol.r1.s2.0.wav,4.0,when,unsyncopated,a,s2,no_rule,dep,L2,z,1.2914,5.0,1.0,0.8497,3 ,2.0,Catalán,0.0,Castellano,0.0,Inglés,3.0,4.0,3.0,yes,no,yes,Flauta,12,,,nada,65.0,yes
79,2024-04-09_17h52.21.782,Experiment4_uns,s171,18.0,masculino,both,España,Catalán y Castellano,Upper secondary,no,no,B,1,conjunction_syn,L3,syncopated,s1,r1,79,Online_conjL3_syn//a.chu.mo13.0.666.wav,chu,ji,fu,mo,sil,je,li,do,sil1,ka,sil2,['catch'],[0.8316999999992731],[0.8316999999992731],0.0,beat,0.8316999999992731,0.8316999999992731,"[""space""]",chu,1,testWhenL2Uns//dep_viol.r2.s1.0.wav,4.0,when,unsyncopated,b,s1,no_rule,dep,L2,m,1.3457,2.0,0.0,0.4504,3 ,2.0,Catalán,0.0,Castellano,0.0,Inglés,3.0,4.0,3.0,yes,no,yes,Flauta,12,,,nada,65.0,yes
80,2024-04-09_17h52.21.782,Experiment4_uns,s171,18.0,masculino,both,España,Catalán y Castellano,Upper secondary,no,no,B,1,conjunction_syn,L3,syncopated,s2,r1,80,Online_conjL3_syn//a.chu.mo21.666.1554.wav,gu,ka,je,chu,sil,do,ko,mo,sil1,li,sil2,['catch'],[1.1610000000000582],[1.1610000000000582],0.666,no_beat,0.4950000000000581,0.4950000000000581,"[""space""]",chu,1,testWhenL2Uns//time_viol.r2.s1.0.wav,4.0,when,unsyncopated,b,s1,no_rule,time,L2,z,2.7519,4.0,1.0,0.7046,3 ,2.0,Catalán,0.0,Castellano,0.0,Inglés,3.0,4.0,3.0,yes,no,yes,Flauta,12,,,nada,65.0,yes
81,2024-04-09_17h52.21.782,Experiment4_uns,s171,18.0,masculino,both,España,Catalán y Castellano,Upper secondary,no,no,B,1,conjunction_syn,L3,syncopated,s2,r1,81,Online_conjL3_syn//a.chu.mo23.666.1554.wav,gu,ga,le,chu,sil,fu,je,mo,sil1,ka,sil2,['catch'],[1.404199999999264],[1.404199999999264],0.666,no_beat,0.738199999999264,0.738199999999264,"[""space""]",chu,1,testWhenL2Uns//r2.s2.1.wav,4.0,when,unsyncopated,b,s2,rule,rule,L2,m,0.6517,1.0,0.0,0.5575,3 ,2.0,Catalán,0.0,Castellano,0.0,Inglés,3.0,4.0,3.0,yes,no,yes,Flauta,12,,,nada,65.0,yes
82,2024-04-09_17h52.21.782,Experiment4_uns,s171,18.0,masculino,both,España,Catalán y Castellano,Upper secondary,no,no,B,1,conjunction_syn,L3,syncopated,s1,r1,82,Online_conjL3_syn//a.chu.mo20.0.666.wav,chu,do,li,mo,sil,je,ka,ga,sil1,gu,sil2,['catch'],[1.0633999999984098],[1.0633999999984098],0.0,beat,1.0633999999984098,1.0633999999984098,"[""space""]",chu,1,testWhenL2Uns//dep_viol.r1.s1.0.wav,4.0,when,unsyncopated,a,s1,no_rule,dep,L2,z,0.3502,7.0,1.0,0.7627,3 ,2.0,Catalán,0.0,Castellano,0.0,Inglés,3.0,4.0,3.0,yes,no,yes,Flauta,12,,,nada,65.0,yes
83,2024-04-09_17h52.21.782,Experiment4_uns,s171,18.0,masculino,both,España,Catalán y Castellano,Upper secondary,no,no,B,1,conjunction_syn,L3,syncopated,s2,r1,83,Online_conjL3_syn//a.chu.mo22.666.1554.wav,ka,li,le,chu,sil,di,ko,mo,sil1,je,sil2,['catch'],[1.2064000000021906],[1.2064000000021906],0.666,no_beat,0.5404000000021906,0.5404000000021906,"[""space""]",chu,1,testWhenL2Uns//r2.s2.0.wav,4.0,when,unsyncopated,b,s2,rule,rule,L2,m,1.294,1.0,0.0,0.6863,3 ,2.0,Catalán,0.0,Castellano,0.0,Inglés,3.0,4.0,3.0,yes,no,yes,Flauta,12,,,nada,65.0,yes
84,2024-04-09_17h52.21.782,Experiment4_uns,s171,18.0,masculino,both,España,Catalán y Castellano,Upper secondary,no,no,B,1,conjunction_syn,L3,syncopated,s2,r2,84,Online_conjL3_syn//d.ji.li28.none.none.wav,fu,ka,ga,ñe,sil,di,gu,sa,sil1,je,sil2,['-'],,,none,none,,,,li,4,testWhenL2Uns//r1.s1.2.wav,4.0,when,unsyncopated,a,s1,rule,rule,L2,z,0.3107,7.0,1.0,0.139,3 ,2.0,Catalán,0.0,Castellano,0.0,Inglés,3.0,4.0,3.0,yes,no,yes,Flauta,12,,,nada,65.0,yes
85,2024-04-09_17h52.21.782,Experiment4_uns,s171,18.0,masculino,both,España,Catalán y Castellano,Upper secondary,no,no,B,1,conjunction_syn,L3,syncopated,s2,r2,85,Online_conjL3_syn//d.ji.li29.none.none.wav,ka,gu,di,ñe,sil,ko,ga,sa,sil1,le,sil2,['-'],,,none,none,,,,li,4,testWhenL2Uns//r1.s2.1.wav,4.0,when,unsyncopated,a,s2,rule,rule,L2,m,1.0361,4.0,0.0,0.7857,3 ,2.0,Catalán,0.0,Castellano,0.0,Inglés,3.0,4.0,3.0,yes,no,yes,Flauta,12,,,nada,65.0,yes
86,2024-04-09_17h52.21.782,Experiment4_uns,s171,18.0,masculino,both,España,Catalán y Castellano,Upper secondary,no,no,B,1,conjunction_syn,L3,syncopated,s2,r1,86,Online_conjL3_syn//d.ji.li31.0.222.wav,ji,li,ko,chu,sil,do,ga,mo,sil1,je,sil2,['catch'],[0.7799999999999727],[0.7799999999999727],0.222,no_beat,0.5579999999999727,0.5579999999999727,"[""space""]",li,4,testWhenL2Uns//r1.s2.0.wav,4.0,when,unsyncopated,a,s2,rule,rule,L2,z,0.9932,7.0,1.0,0.791,3 ,2.0,Catalán,0.0,Castellano,0.0,Inglés,3.0,4.0,3.0,yes,no,yes,Flauta,12,,,nada,65.0,yes
87,2024-04-09_17h52.21.782,Experiment4_uns,s171,18.0,masculino,both,España,Catalán y Castellano,Upper secondary,no,no,B,1,conjunction_syn,L3,syncopated,s1,r2,87,Online_conjL3_syn//d.ji.li30.none.none.wav,ñe,je,fu,sa,sil,ga,do,le,sil1,di,sil2,['-'],,,none,none,,,,li,4,testWhenL2Uns//r2.s1.1.wav,4.0,when,unsyncopated,b,s1,rule,rule,L2,m,0.3751,7.0,0.0,0.3556,3 ,2.0,Catalán,0.0,Castellano,0.0,Inglés,3.0,4.0,3.0,yes,no,yes,Flauta,12,,,nada,65.0,yes
88,2024-04-09_17h52.21.782,Experiment4_uns,s171,18.0,masculino,both,España,Catalán y Castellano,Upper secondary,no,no,B,1,conjunction_syn,L3,syncopated,s2,r2,88,Online_conjL3_syn//d.ji.li22.0.1110.wav,ji,do,le,ñe,sil,li,ga,sa,sil1,je,sil2,['false alarm'],[0.08730000000082327],[0.08730000000082327],1.11,no_beat,,,"[""space""]",li,4,testWhenL2Uns//r2.s2.2.wav,4.0,when,unsyncopated,b,s2,rule,rule,L2,m,0.7681,7.0,0.0,0.3184,3 ,2.0,Catalán,0.0,Castellano,0.0,Inglés,3.0,4.0,3.0,yes,no,yes,Flauta,12,,,nada,65.0,yes
89,2024-04-09_17h52.21.782,Experiment4_uns,s171,18.0,masculino,both,España,Catalán y Castellano,Upper secondary,no,no,B,1,conjunction_syn,L3,syncopated,s2,r1,89,Online_conjL3_syn//d.ji.li20.none.none.wav,di,le,ko,chu,sil,ka,do,mo,sil1,gu,sil2,['-'],,,none,none,,,,li,4,testWhenL2Uns//cat_viol.r1.s1.0.wav,4.0,when,unsyncopated,a,s1,no_rule,cat,L2,z,1.5497,6.0,1.0,0.3557,3 ,2.0,Catalán,0.0,Castellano,0.0,Inglés,3.0,4.0,3.0,yes,no,yes,Flauta,12,,,nada,65.0,yes
90,2024-04-09_17h52.21.782,Experiment4_uns,s171,18.0,masculino,both,España,Catalán y Castellano,Upper secondary,no,no,B,1,conjunction_syn,L3,syncopated,s1,r2,90,Online_conjL3_syn//d.ji.li23.none.none.wav,ñe,ga,ko,sa,sil,fu,do,le,sil1,gu,sil2,['-'],,,none,none,,,,li,4,testWhenL2Uns//time_viol.r2.s2.0.wav,4.0,when,unsyncopated,b,s2,no_rule,time,L2,z,0.6717,5.0,1.0,0.551,3 ,2.0,Catalán,0.0,Castellano,0.0,Inglés,3.0,4.0,3.0,yes,no,yes,Flauta,12,,,nada,65.0,yes
91,2024-04-09_17h52.21.782,Experiment4_uns,s171,18.0,masculino,both,España,Catalán y Castellano,Upper secondary,no,no,B,1,conjunction_syn,L3,syncopated,s2,r1,91,Online_conjL3_syn//d.ji.li21.none.none.wav,ko,gu,je,chu,sil,ka,ga,mo,sil1,di,sil2,['false alarm'],[2.57189999999855],[2.57189999999855],none,none,,,"[""space""]",li,4,testWhenL2Uns//r2.s1.2.wav,4.0,when,unsyncopated,b,s1,rule,rule,L2,z,0.2703,7.0,1.0,0.3218,3 ,2.0,Catalán,0.0,Castellano,0.0,Inglés,3.0,4.0,3.0,yes,no,yes,Flauta,12,,,nada,65.0,yes
92,2024-04-09_17h52.21.782,Experiment4_uns,s171,18.0,masculino,both,España,Catalán y Castellano,Upper secondary,no,no,B,1,conjunction_syn,L3,syncopated,s1,r2,92,Online_conjL3_syn//d.ji.li3.none.none.wav,ñe,ka,gu,sa,sil,ga,do,di,sil1,ko,sil2,['-'],,,none,none,,,,li,4,testWhenL2Uns//time_viol.r1.s1.0.wav,4.0,when,unsyncopated,a,s1,no_rule,time,L2,m,0.3834,7.0,0.0,0.3507,3 ,2.0,Catalán,0.0,Castellano,0.0,Inglés,3.0,4.0,3.0,yes,no,yes,Flauta,12,,,nada,65.0,yes
93,2024-04-09_17h52.21.782,Experiment4_uns,s171,18.0,masculino,both,España,Catalán y Castellano,Upper secondary,no,no,B,1,conjunction_syn,L3,syncopated,s1,r1,93,Online_conjL3_syn//d.ji.li1.1554.444.wav,chu,gu,li,mo,sil,ga,je,ji,sil1,do,sil2,['catch'],[1.0136999999992895],[1.0136999999992895],0.444,no_beat,0.5696999999992896,0.5696999999992896,"[""space""]",li,4,testWhenL2Uns//r1.s2.2.wav,4.0,when,unsyncopated,a,s2,rule,rule,L2,z,0.2847,5.0,1.0,0.5835,3 ,2.0,Catalán,0.0,Castellano,0.0,Inglés,3.0,4.0,3.0,yes,no,yes,Flauta,12,,,nada,65.0,yes
94,2024-04-09_17h52.21.782,Experiment4_uns,s171,18.0,masculino,both,España,Catalán y Castellano,Upper secondary,no,no,B,1,conjunction_syn,L3,syncopated,s2,r2,94,Online_conjL3_syn//d.ji.li2.1332.0.wav,li,fu,di,ñe,sil,gu,ji,sa,sil1,ko,sil2,['catch'],[1.2214999999999918],[1.2214999999999918],0.0,beat,,1.2214999999999918,"[""space""]",li,4,testWhenL2Uns//cat_viol.r2.s2.0.wav,4.0,when,unsyncopated,b,s2,no_rule,cat,L2,z,0.8342,3.0,1.0,0.6944,3 ,2.0,Catalán,0.0,Castellano,0.0,Inglés,3.0,4.0,3.0,yes,no,yes,Flauta,12,,,nada,65.0,yes
95,2024-04-09_17h52.21.782,Experiment4_uns,s171,18.0,masculino,both,España,Catalán y Castellano,Upper secondary,no,no,B,1,conjunction_syn,L3,syncopated,s1,r1,95,Online_conjL3_syn//d.ji.li0.none.none.wav,chu,ga,ko,mo,sil,do,le,gu,sil1,di,sil2,['-'],,,none,none,,,,li,4,testWhenL2Uns//r1.s1.1.wav,4.0,when,unsyncopated,a,s1,rule,rule,L2,z,2.9398,1.0,1.0,0.1842,3 ,2.0,Catalán,0.0,Castellano,0.0,Inglés,3.0,4.0,3.0,yes,no,yes,Flauta,12,,,nada,65.0,yes
96,2024-04-09_17h52.21.782,Experiment4_uns,s171,18.0,masculino,both,España,Catalán y Castellano,Upper secondary,no,no,B,1,conjunction_syn,L3,syncopated,s1,r1,96,Online_conjL3_syn//c.gu.je0.1332.444.wav,chu,ga,je,mo,sil,ko,gu,ji,sil1,do,sil2,"['catch', 'false alarm']","[0.9814000000022816, 1.1153000000007296]",[0.9814000000022816],0.444,no_beat,0.5374000000022816,0.5374000000022816,"[""space"",""space""]",je,3,,,,,,,,,,,,,,,3 ,2.0,Catalán,0.0,Castellano,0.0,Inglés,3.0,4.0,3.0,yes,no,yes,Flauta,12,,,nada,65.0,yes
97,2024-04-09_17h52.21.782,Experiment4_uns,s171,18.0,masculino,both,España,Catalán y Castellano,Upper secondary,no,no,B,1,conjunction_syn,L3,syncopated,s1,r2,97,Online_conjL3_syn//c.gu.je2.none.none.wav,ñe,ka,ga,sa,sil,li,ji,do,sil1,le,sil2,['-'],,,none,none,,,,je,3,,,,,,,,,,,,,,,3 ,2.0,Catalán,0.0,Castellano,0.0,Inglés,3.0,4.0,3.0,yes,no,yes,Flauta,12,,,nada,65.0,yes
98,2024-04-09_17h52.21.782,Experiment4_uns,s171,18.0,masculino,both,España,Catalán y Castellano,Upper secondary,no,no,B,1,conjunction_syn,L3,syncopated,s1,r1,98,Online_conjL3_syn//c.gu.je1.222.1332.wav,chu,gu,li,mo,sil,di,je,fu,sil1,ka,sil2,['catch'],[1.9388000000006969],[1.9388000000006969],1.332,no_beat,0.6068000000006968,0.6068000000006968,"[""space""]",je,3,,,,,,,,,,,,,,,3 ,2.0,Catalán,0.0,Castellano,0.0,Inglés,3.0,4.0,3.0,yes,no,yes,Flauta,12,,,nada,65.0,yes
99,2024-04-09_17h52.21.782,Experiment4_uns,s171,18.0,masculino,both,España,Catalán y Castellano,Upper secondary,no,no,B,1,conjunction_syn,L3,syncopated,s1,r1,99,Online_conjL3_syn//c.gu.je3.none.none.wav,chu,ka,li,mo,sil,ga,le,di,sil1,ji,sil2,['-'],,,none,none,,,,je,3,,,,,,,,,,,,,,,3 ,2.0,Catalán,0.0,Castellano,0.0,Inglés,3.0,4.0,3.0,yes,no,yes,Flauta,12,,,nada,65.0,yes
100,2024-04-09_17h52.21.782,Experiment4_uns,s171,18.0,masculino,both,España,Catalán y Castellano,Upper secondary,no,no,B,1,conjunction_syn,L3,syncopated,s2,r1,100,Online_conjL3_syn//a.chu.mo24.666.1554.wav,fu,je,gu,chu,sil,ga,ka,mo,sil1,le,sil2,['catch'],[1.145900000002257],[1.145900000002257],0.666,no_beat,0.4799000000022569,0.4799000000022569,"[""space""]",chu,1,,,,,,,,,,,,,,,3 ,2.0,Catalán,0.0,Castellano,0.0,Inglés,3.0,4.0,3.0,yes,no,yes,Flauta,12,,,nada,65.0,yes
101,2024-04-09_17h52.21.782,Experiment4_uns,s171,18.0,masculino,both,España,Catalán y Castellano,Upper secondary,no,no,B,1,conjunction_syn,L3,syncopated,s2,r2,101,Online_conjL3_syn//a.chu.mo27.none.none.wav,ji,li,ko,ñe,sil,di,fu,sa,sil1,le,sil2,['-'],,,none,none,,,,chu,1,,,,,,,,,,,,,,,3 ,2.0,Catalán,0.0,Castellano,0.0,Inglés,3.0,4.0,3.0,yes,no,yes,Flauta,12,,,nada,65.0,yes
102,2024-04-09_17h52.21.782,Experiment4_uns,s171,18.0,masculino,both,España,Catalán y Castellano,Upper secondary,no,no,B,1,conjunction_syn,L3,syncopated,s2,r2,102,Online_conjL3_syn//a.chu.mo26.none.none.wav,do,ga,fu,ñe,sil,ko,di,sa,sil1,le,sil2,['-'],,,none,none,,,,chu,1,,,,,,,,,,,,,,,3 ,2.0,Catalán,0.0,Castellano,0.0,Inglés,3.0,4.0,3.0,yes,no,yes,Flauta,12,,,nada,65.0,yes
103,2024-04-09_17h52.21.782,Experiment4_uns,s171,18.0,masculino,both,España,Catalán y Castellano,Upper secondary,no,no,B,1,conjunction_syn,L3,syncopated,s1,r1,103,Online_conjL3_syn//a.chu.mo25.0.666.wav,chu,gu,ko,mo,sil,do,ga,fu,sil1,li,sil2,['catch'],[0.748199999999315],[0.748199999999315],0.0,beat,0.748199999999315,0.748199999999315,"[""space""]",chu,1,,,,,,,,,,,,,,,3 ,2.0,Catalán,0.0,Castellano,0.0,Inglés,3.0,4.0,3.0,yes,no,yes,Flauta,12,,,nada,65.0,yes
104,2024-04-09_17h52.21.782,Experiment4_uns,s171,18.0,masculino,both,España,Catalán y Castellano,Upper secondary,no,no,B,1,conjunction_syn,L3,syncopated,s2,r1,104,Online_conjL3_syn//a.chu.mo9.666.1554.wav,ka,ko,di,chu,sil,li,ga,mo,sil1,gu,sil2,['catch'],[1.635900000002266],[1.635900000002266],0.666,no_beat,0.969900000002266,0.969900000002266,"[""space""]",chu,1,,,,,,,,,,,,,,,3 ,2.0,Catalán,0.0,Castellano,0.0,Inglés,3.0,4.0,3.0,yes,no,yes,Flauta,12,,,nada,65.0,yes
105,2024-04-09_17h52.21.782,Experiment4_uns,s171,18.0,masculino,both,España,Catalán y Castellano,Upper secondary,no,no,B,1,conjunction_syn,L3,syncopated,s1,r2,105,Online_conjL3_syn//a.chu.mo8.none.none.wav,ñe,ga,fu,sa,sil,ji,li,je,sil1,le,sil2,['-'],,,none,none,,,,chu,1,,,,,,,,,,,,,,,3 ,2.0,Catalán,0.0,Castellano,0.0,Inglés,3.0,4.0,3.0,yes,no,yes,Flauta,12,,,nada,65.0,yes
106,2024-04-09_17h52.21.782,Experiment4_uns,s171,18.0,masculino,both,España,Catalán y Castellano,Upper secondary,no,no,B,1,conjunction_syn,L3,syncopated,s2,r2,106,Online_conjL3_syn//a.chu.mo11.none.none.wav,ka,di,je,ñe,sil,ga,ko,sa,sil1,ji,sil2,['-'],,,none,none,,,,chu,1,,,,,,,,,,,,,,,3 ,2.0,Catalán,0.0,Castellano,0.0,Inglés,3.0,4.0,3.0,yes,no,yes,Flauta,12,,,nada,65.0,yes
107,2024-04-09_17h52.21.782,Experiment4_uns,s171,18.0,masculino,both,España,Catalán y Castellano,Upper secondary,no,no,B,1,conjunction_syn,L3,syncopated,s1,r2,107,Online_conjL3_syn//a.chu.mo10.none.none.wav,ñe,je,gu,sa,sil,ko,fu,ji,sil1,di,sil2,['-'],,,none,none,,,,chu,1,,,,,,,,,,,,,,,3 ,2.0,Catalán,0.0,Castellano,0.0,Inglés,3.0,4.0,3.0,yes,no,yes,Flauta,12,,,nada,65.0,yes
108,2024-04-09_17h52.21.782,Experiment4_uns,s171,18.0,masculino,both,España,Catalán y Castellano,Upper secondary,no,no,B,1,conjunction_syn,L3,syncopated,s1,r2,108,Online_conjL3_syn//b.ñe.sa1.0.666.wav,ñe,di,li,sa,sil,ga,ko,je,sil1,ji,sil2,['catch'],[1.0758000000007542],[1.0758000000007542],0.666,no_beat,0.4098000000007541,0.4098000000007541,"[""space""]",sa,2,,,,,,,,,,,,,,,3 ,2.0,Catalán,0.0,Castellano,0.0,Inglés,3.0,4.0,3.0,yes,no,yes,Flauta,12,,,nada,65.0,yes
109,2024-04-09_17h52.21.782,Experiment4_uns,s171,18.0,masculino,both,España,Catalán y Castellano,Upper secondary,no,no,B,1,conjunction_syn,L3,syncopated,s1,r2,109,Online_conjL3_syn//b.ñe.sa0.0.666.wav,ñe,ji,fu,sa,sil,li,do,je,sil1,gu,sil2,['catch'],[1.2594000000023016],[1.2594000000023016],0.666,no_beat,0.5934000000023015,0.5934000000023015,"[""space""]",sa,2,,,,,,,,,,,,,,,3 ,2.0,Catalán,0.0,Castellano,0.0,Inglés,3.0,4.0,3.0,yes,no,yes,Flauta,12,,,nada,65.0,yes
110,2024-04-09_17h52.21.782,Experiment4_uns,s171,18.0,masculino,both,España,Catalán y Castellano,Upper secondary,no,no,B,1,conjunction_syn,L3,syncopated,s1,r2,110,Online_conjL3_syn//b.ñe.sa3.0.666.wav,ñe,li,do,sa,sil,gu,ka,fu,sil1,ko,sil2,['catch'],[1.1876999999992677],[1.1876999999992677],0.666,no_beat,0.5216999999992676,0.5216999999992676,"[""space""]",sa,2,,,,,,,,,,,,,,,3 ,2.0,Catalán,0.0,Castellano,0.0,Inglés,3.0,4.0,3.0,yes,no,yes,Flauta,12,,,nada,65.0,yes
111,2024-04-09_17h52.21.782,Experiment4_uns,s171,18.0,masculino,both,España,Catalán y Castellano,Upper secondary,no,no,B,1,conjunction_syn,L3,syncopated,s1,r1,111,Online_conjL3_syn//b.ñe.sa2.none.none.wav,chu,fu,di,mo,sil,do,ga,li,sil1,ko,sil2,['-'],,,none,none,,,,sa,2,,,,,,,,,,,,,,,3 ,2.0,Catalán,0.0,Castellano,0.0,Inglés,3.0,4.0,3.0,yes,no,yes,Flauta,12,,,nada,65.0,yes
112,2024-04-09_17h52.21.782,Experiment4_uns,s171,18.0,masculino,both,España,Catalán y Castellano,Upper secondary,no,no,B,1,conjunction_syn,L3,syncopated,s1,r1,112,Online_conjL3_syn//d.ji.li14.444.1332.wav,chu,gu,ji,mo,sil,do,li,fu,sil1,le,sil2,['catch'],[1.9104999999999563],[1.9104999999999563],1.332,no_beat,0.5784999999999563,0.5784999999999563,"[""space""]",li,4,,,,,,,,,,,,,,,3 ,2.0,Catalán,0.0,Castellano,0.0,Inglés,3.0,4.0,3.0,yes,no,yes,Flauta,12,,,nada,65.0,yes
113,2024-04-09_17h52.21.782,Experiment4_uns,s171,18.0,masculino,both,España,Catalán y Castellano,Upper secondary,no,no,B,1,conjunction_syn,L3,syncopated,s2,r1,113,Online_conjL3_syn//d.ji.li12.none.none.wav,gu,ko,le,chu,sil,do,ga,mo,sil1,fu,sil2,['-'],,,none,none,,,,li,4,,,,,,,,,,,,,,,3 ,2.0,Catalán,0.0,Castellano,0.0,Inglés,3.0,4.0,3.0,yes,no,yes,Flauta,12,,,nada,65.0,yes
114,2024-04-09_17h52.21.782,Experiment4_uns,s171,18.0,masculino,both,España,Catalán y Castellano,Upper secondary,no,no,B,1,conjunction_syn,L3,syncopated,s1,r1,114,Online_conjL3_syn//d.ji.li13.none.none.wav,chu,je,ka,mo,sil,di,ko,fu,sil1,ga,sil2,['-'],,,none,none,,,,li,4,,,,,,,,,,,,,,,3 ,2.0,Catalán,0.0,Castellano,0.0,Inglés,3.0,4.0,3.0,yes,no,yes,Flauta,12,,,nada,65.0,yes
115,2024-04-09_17h52.21.782,Experiment4_uns,s171,18.0,masculino,both,España,Catalán y Castellano,Upper secondary,no,no,B,1,conjunction_syn,L3,syncopated,s1,r2,115,Online_conjL3_syn//d.ji.li15.1554.444.wav,ñe,je,li,sa,sil,ko,fu,ji,sil1,gu,sil2,['catch'],[1.3906999999992422],[1.3906999999992422],0.444,no_beat,0.9466999999992424,0.9466999999992424,"[""space""]",li,4,,,,,,,,,,,,,,,3 ,2.0,Catalán,0.0,Castellano,0.0,Inglés,3.0,4.0,3.0,yes,no,yes,Flauta,12,,,nada,65.0,yes
116,2024-04-09_17h52.21.782,Experiment4_uns,s171,18.0,masculino,both,España,Catalán y Castellano,Upper secondary,no,no,B,1,conjunction_syn,L3,syncopated,s2,r1,116,Online_conjL3_syn//c.gu.je18.1110.0.wav,je,di,ka,chu,sil,gu,ko,mo,sil1,li,sil2,['catch'],[0.9261000000014974],[0.9261000000014974],0.0,beat,0.9261000000014974,0.9261000000014974,"[""space""]",je,3,,,,,,,,,,,,,,,3 ,2.0,Catalán,0.0,Castellano,0.0,Inglés,3.0,4.0,3.0,yes,no,yes,Flauta,12,,,nada,65.0,yes
117,2024-04-09_17h52.21.782,Experiment4_uns,s171,18.0,masculino,both,España,Catalán y Castellano,Upper secondary,no,no,B,1,conjunction_syn,L3,syncopated,s2,r2,117,Online_conjL3_syn//c.gu.je19.none.none.wav,fu,le,li,ñe,sil,ji,ka,sa,sil1,di,sil2,['-'],,,none,none,,,,je,3,,,,,,,,,,,,,,,3 ,2.0,Catalán,0.0,Castellano,0.0,Inglés,3.0,4.0,3.0,yes,no,yes,Flauta,12,,,nada,65.0,yes
118,2024-04-09_17h52.21.782,Experiment4_uns,s171,18.0,masculino,both,España,Catalán y Castellano,Upper secondary,no,no,B,1,conjunction_syn,L3,syncopated,s2,r2,118,Online_conjL3_syn//c.gu.je17.222.1110.wav,fu,gu,le,ñe,sil,je,ka,sa,sil1,ko,sil2,['catch'],[1.7414999999999736],[1.7414999999999736],1.11,no_beat,0.6314999999999735,0.6314999999999735,"[""space""]",je,3,,,,,,,,,,,,,,,3 ,2.0,Catalán,0.0,Castellano,0.0,Inglés,3.0,4.0,3.0,yes,no,yes,Flauta,12,,,nada,65.0,yes
119,2024-04-09_17h52.21.782,Experiment4_uns,s171,18.0,masculino,both,España,Catalán y Castellano,Upper secondary,no,no,B,1,conjunction_syn,L3,syncopated,s2,r1,119,Online_conjL3_syn//c.gu.je16.1332.444.wav,fu,ga,je,chu,sil,do,gu,mo,sil1,ji,sil2,['miss'],,,0.444,no_beat,,,,je,3,,,,,,,,,,,,,,,3 ,2.0,Catalán,0.0,Castellano,0.0,Inglés,3.0,4.0,3.0,yes,no,yes,Flauta,12,,,nada,65.0,yes
120,2024-04-09_17h52.21.782,Experiment4_uns,s171,18.0,masculino,both,España,Catalán y Castellano,Upper secondary,no,no,B,1,conjunction_syn,L3,syncopated,s2,r1,120,Online_conjL3_syn//a.chu.mo2.666.1554.wav,ka,ko,fu,chu,sil,le,je,mo,sil1,gu,sil2,['catch'],[1.262199999999325],[1.262199999999325],0.666,no_beat,0.5961999999993249,0.5961999999993249,"[""space""]",chu,1,,,,,,,,,,,,,,,3 ,2.0,Catalán,0.0,Castellano,0.0,Inglés,3.0,4.0,3.0,yes,no,yes,Flauta,12,,,nada,65.0,yes
121,2024-04-09_17h52.21.782,Experiment4_uns,s171,18.0,masculino,both,España,Catalán y Castellano,Upper secondary,no,no,B,1,conjunction_syn,L3,syncopated,s1,r1,121,Online_conjL3_syn//a.chu.mo3.0.666.wav,chu,li,do,mo,sil,je,ji,fu,sil1,ga,sil2,['catch'],[0.7535000000000309],[0.7535000000000309],0.0,beat,0.7535000000000309,0.7535000000000309,"[""space""]",chu,1,,,,,,,,,,,,,,,3 ,2.0,Catalán,0.0,Castellano,0.0,Inglés,3.0,4.0,3.0,yes,no,yes,Flauta,12,,,nada,65.0,yes
122,2024-04-09_17h52.21.782,Experiment4_uns,s171,18.0,masculino,both,España,Catalán y Castellano,Upper secondary,no,no,B,1,conjunction_syn,L3,syncopated,s1,r2,122,Online_conjL3_syn//a.chu.mo1.none.none.wav,ñe,le,ko,sa,sil,gu,do,di,sil1,ka,sil2,['-'],,,none,none,,,,chu,1,,,,,,,,,,,,,,,3 ,2.0,Catalán,0.0,Castellano,0.0,Inglés,3.0,4.0,3.0,yes,no,yes,Flauta,12,,,nada,65.0,yes
123,2024-04-09_17h52.21.782,Experiment4_uns,s171,18.0,masculino,both,España,Catalán y Castellano,Upper secondary,no,no,B,1,conjunction_syn,L3,syncopated,s1,r1,123,Online_conjL3_syn//a.chu.mo0.0.666.wav,chu,do,ji,mo,sil,ka,ko,di,sil1,li,sil2,['catch'],[0.6805000000000518],[0.6805000000000518],0.0,beat,0.6805000000000518,0.6805000000000518,"[""space""]",chu,1,,,,,,,,,,,,,,,3 ,2.0,Catalán,0.0,Castellano,0.0,Inglés,3.0,4.0,3.0,yes,no,yes,Flauta,12,,,nada,65.0,yes
124,2024-04-09_17h52.21.782,Experiment4_uns,s171,18.0,masculino,both,España,Catalán y Castellano,Upper secondary,no,no,B,1,conjunction_syn,L3,syncopated,s2,r2,124,Online_conjL3_syn//c.gu.je5.1332.222.wav,li,je,ko,ñe,sil,di,gu,sa,sil1,do,sil2,['catch'],[0.9182999999970889],[0.9182999999970889],0.222,no_beat,0.6962999999970889,0.6962999999970889,"[""space""]",je,3,,,,,,,,,,,,,,,3 ,2.0,Catalán,0.0,Castellano,0.0,Inglés,3.0,4.0,3.0,yes,no,yes,Flauta,12,,,nada,65.0,yes
125,2024-04-09_17h52.21.782,Experiment4_uns,s171,18.0,masculino,both,España,Catalán y Castellano,Upper secondary,no,no,B,1,conjunction_syn,L3,syncopated,s1,r2,125,Online_conjL3_syn//c.gu.je6.none.none.wav,ñe,di,ka,sa,sil,le,ko,do,sil1,ji,sil2,['-'],,,none,none,,,,je,3,,,,,,,,,,,,,,,3 ,2.0,Catalán,0.0,Castellano,0.0,Inglés,3.0,4.0,3.0,yes,no,yes,Flauta,12,,,nada,65.0,yes
126,2024-04-09_17h52.21.782,Experiment4_uns,s171,18.0,masculino,both,España,Catalán y Castellano,Upper secondary,no,no,B,1,conjunction_syn,L3,syncopated,s1,r2,126,Online_conjL3_syn//c.gu.je4.none.none.wav,ñe,ga,do,sa,sil,ji,ka,fu,sil1,li,sil2,['-'],,,none,none,,,,je,3,,,,,,,,,,,,,,,3 ,2.0,Catalán,0.0,Castellano,0.0,Inglés,3.0,4.0,3.0,yes,no,yes,Flauta,12,,,nada,65.0,yes
127,2024-04-09_17h52.21.782,Experiment4_uns,s171,18.0,masculino,both,España,Catalán y Castellano,Upper secondary,no,no,B,1,conjunction_syn,L3,syncopated,s2,r2,127,Online_conjL3_syn//c.gu.je7.222.444.wav,ko,gu,je,ñe,sil,ji,fu,sa,sil1,ka,sil2,['catch'],[1.1549999999999727],[1.1549999999999727],0.444,no_beat,0.7109999999999728,0.7109999999999728,"[""space""]",je,3,,,,,,,,,,,,,,,3 ,2.0,Catalán,0.0,Castellano,0.0,Inglés,3.0,4.0,3.0,yes,no,yes,Flauta,12,,,nada,65.0,yes
128,2024-04-09_17h52.21.782,Experiment4_uns,s171,18.0,masculino,both,España,Catalán y Castellano,Upper secondary,no,no,B,2,what,L1,unsyncopated,s1,r2,0,Online_whatL1//c.ro.fo5.none.none.wav,ta,ze,lu,sil,be,ne,zu,sil2,ri,ni,sil1,['-'],,,none,none,,,,fo,3,,,,,,,,,,,,,,,3 ,2.0,Catalán,0.0,Castellano,0.0,Inglés,3.0,4.0,3.0,yes,no,yes,Flauta,12,,,nada,65.0,yes
129,2024-04-09_17h52.21.782,Experiment4_uns,s171,18.0,masculino,both,España,Catalán y Castellano,Upper secondary,no,no,B,2,what,L1,unsyncopated,s2,r2,1,Online_whatL1//c.ro.fo7.none.none.wav,ri,lu,ni,sil2,ta,la,ne,sil,be,ze,sil1,['-'],,,none,none,,,,fo,3,,,,,,,,,,,,,,,3 ,2.0,Catalán,0.0,Castellano,0.0,Inglés,3.0,4.0,3.0,yes,no,yes,Flauta,12,,,nada,65.0,yes
130,2024-04-09_17h52.21.782,Experiment4_uns,s171,18.0,masculino,both,España,Catalán y Castellano,Upper secondary,no,no,B,2,what,L1,unsyncopated,s2,r1,2,Online_whatL1//c.ro.fo6.none.none.wav,la,ri,cho,sil,pu,ne,ni,sil1,ki,fa,sil2,['-'],,,none,none,,,,fo,3,,,,,,,,,,,,,,,3 ,2.0,Catalán,0.0,Castellano,0.0,Inglés,3.0,4.0,3.0,yes,no,yes,Flauta,12,,,nada,65.0,yes
131,2024-04-09_17h52.21.782,Experiment4_uns,s171,18.0,masculino,both,España,Catalán y Castellano,Upper secondary,no,no,B,2,what,L1,unsyncopated,s1,r1,3,Online_whatL1//c.ro.fo4.none.none.wav,pu,lu,fa,sil2,ki,la,zu,sil,cho,ze,sil1,['-'],,,none,none,,,,fo,3,,,,,,,,,,,,,,,3 ,2.0,Catalán,0.0,Castellano,0.0,Inglés,3.0,4.0,3.0,yes,no,yes,Flauta,12,,,nada,65.0,yes
132,2024-04-09_17h52.21.782,Experiment4_uns,s171,18.0,masculino,both,España,Catalán y Castellano,Upper secondary,no,no,B,2,what,L1,unsyncopated,s2,r2,4,Online_whatL1//a.pu.ki14.none.none.wav,ni,ne,ze,sil2,ta,fa,ri,sil,be,ro,sil1,['-'],,,none,none,,,,pu,1,,,,,,,,,,,,,,,3 ,2.0,Catalán,0.0,Castellano,0.0,Inglés,3.0,4.0,3.0,yes,no,yes,Flauta,12,,,nada,65.0,yes
133,2024-04-09_17h52.21.782,Experiment4_uns,s171,18.0,masculino,both,España,Catalán y Castellano,Upper secondary,no,no,B,2,what,L1,unsyncopated,s2,r2,5,Online_whatL1//a.pu.ki15.none.none.wav,fo,ne,ro,sil2,ta,cho,lu,sil,be,ze,sil1,['-'],,,none,none,,,,pu,1,,,,,,,,,,,,,,,3 ,2.0,Catalán,0.0,Castellano,0.0,Inglés,3.0,4.0,3.0,yes,no,yes,Flauta,12,,,nada,65.0,yes
134,2024-04-09_17h52.21.782,Experiment4_uns,s171,18.0,masculino,both,España,Catalán y Castellano,Upper secondary,no,no,B,2,what,L1,unsyncopated,s2,r1,6,Online_whatL1//a.pu.ki12.1110.1998.wav,ni,zu,ro,sil2,pu,lu,ze,sil,ki,fa,sil1,['miss'],,,1.11,no_beat,,,,pu,1,,,,,,,,,,,,,,,3 ,2.0,Catalán,0.0,Castellano,0.0,Inglés,3.0,4.0,3.0,yes,no,yes,Flauta,12,,,nada,65.0,yes
135,2024-04-09_17h52.21.782,Experiment4_uns,s171,18.0,masculino,both,España,Catalán y Castellano,Upper secondary,no,no,B,2,what,L1,unsyncopated,s2,r2,7,Online_whatL1//a.pu.ki13.none.none.wav,la,fa,ri,sil,ta,cho,ni,sil1,be,fo,sil2,['-'],,,none,none,,,,pu,1,,,,,,,,,,,,,,,3 ,2.0,Catalán,0.0,Castellano,0.0,Inglés,3.0,4.0,3.0,yes,no,yes,Flauta,12,,,nada,65.0,yes
136,2024-04-09_17h52.21.782,Experiment4_uns,s171,18.0,masculino,both,España,Catalán y Castellano,Upper secondary,no,no,B,2,what,L1,unsyncopated,s1,r2,8,Online_whatL1//c.ro.fo2.none.none.wav,ta,fa,ze,sil,be,ri,lu,sil1,ni,la,sil2,['-'],,,none,none,,,,fo,3,,,,,,,,,,,,,,,3 ,2.0,Catalán,0.0,Castellano,0.0,Inglés,3.0,4.0,3.0,yes,no,yes,Flauta,12,,,nada,65.0,yes
137,2024-04-09_17h52.21.782,Experiment4_uns,s171,18.0,masculino,both,España,Catalán y Castellano,Upper secondary,no,no,B,2,what,L1,unsyncopated,s1,r1,9,Online_whatL1//c.ro.fo3.1998.444.wav,pu,lu,fo,sil,ki,cho,fa,sil2,ro,ni,sil1,['catch'],[1.1299000000021806],[1.1299000000021806],0.444,no_beat,0.6859000000021807,0.6859000000021807,"[""space""]",fo,3,,,,,,,,,,,,,,,3 ,2.0,Catalán,0.0,Castellano,0.0,Inglés,3.0,4.0,3.0,yes,no,yes,Flauta,12,,,nada,65.0,yes
138,2024-04-09_17h52.21.782,Experiment4_uns,s171,18.0,masculino,both,España,Catalán y Castellano,Upper secondary,no,no,B,2,what,L1,unsyncopated,s2,r2,10,Online_whatL1//c.ro.fo1.0.444.wav,ro,zu,fo,sil2,ta,ri,ne,sil,be,fa,sil1,['catch'],[0.9783000000008997],[0.9783000000008997],0.444,no_beat,0.5343000000008997,0.5343000000008997,"[""space""]",fo,3,,,,,,,,,,,,,,,3 ,2.0,Catalán,0.0,Castellano,0.0,Inglés,3.0,4.0,3.0,yes,no,yes,Flauta,12,,,nada,65.0,yes
139,2024-04-09_17h52.21.782,Experiment4_uns,s171,18.0,masculino,both,España,Catalán y Castellano,Upper secondary,no,no,B,2,what,L1,unsyncopated,s1,r2,11,Online_whatL1//c.ro.fo0.none.none.wav,ta,lu,ri,sil,be,ze,zu,sil2,ni,la,sil1,['-'],,,none,none,,,,fo,3,,,,,,,,,,,,,,,3 ,2.0,Catalán,0.0,Castellano,0.0,Inglés,3.0,4.0,3.0,yes,no,yes,Flauta,12,,,nada,65.0,yes
140,2024-04-09_17h52.21.782,Experiment4_uns,s171,18.0,masculino,both,España,Catalán y Castellano,Upper secondary,no,no,B,2,what,L1,unsyncopated,s2,r1,12,Online_whatL1//d.ne.ni16.0.444.wav,ne,la,ni,sil,pu,ri,zu,sil1,ki,fa,sil2,['catch'],[2.061599999997725],[2.061599999997725],0.444,no_beat,,1.6175999999977249,"[""space""]",ni,4,,,,,,,,,,,,,,,3 ,2.0,Catalán,0.0,Castellano,0.0,Inglés,3.0,4.0,3.0,yes,no,yes,Flauta,12,,,nada,65.0,yes
141,2024-04-09_17h52.21.782,Experiment4_uns,s171,18.0,masculino,both,España,Catalán y Castellano,Upper secondary,no,no,B,2,what,L1,unsyncopated,s1,r2,13,Online_whatL1//d.ne.ni17.222.1332.wav,ta,ne,fo,sil,be,ri,ni,sil2,lu,fa,sil1,['catch'],[1.9904000000021824],[1.9904000000021824],1.332,no_beat,0.6584000000021824,0.6584000000021824,"[""space""]",ni,4,,,,,,,,,,,,,,,3 ,2.0,Catalán,0.0,Castellano,0.0,Inglés,3.0,4.0,3.0,yes,no,yes,Flauta,12,,,nada,65.0,yes
142,2024-04-09_17h52.21.782,Experiment4_uns,s171,18.0,masculino,both,España,Catalán y Castellano,Upper secondary,no,no,B,2,what,L1,unsyncopated,s2,r2,14,Online_whatL1//d.ne.ni19.1554.444.wav,la,fa,ni,sil2,ta,cho,ne,sil,be,ri,sil1,['catch'],[1.6628000000007432],[1.6628000000007432],0.444,no_beat,,1.2188000000007433,"[""space""]",ni,4,,,,,,,,,,,,,,,3 ,2.0,Catalán,0.0,Castellano,0.0,Inglés,3.0,4.0,3.0,yes,no,yes,Flauta,12,,,nada,65.0,yes
143,2024-04-09_17h52.21.782,Experiment4_uns,s171,18.0,masculino,both,España,Catalán y Castellano,Upper secondary,no,no,B,2,what,L1,unsyncopated,s1,r1,15,Online_whatL1//d.ne.ni18.none.none.wav,pu,ro,fo,sil,ki,ze,zu,sil2,cho,fa,sil1,['-'],,,none,none,,,,ni,4,,,,,,,,,,,,,,,3 ,2.0,Catalán,0.0,Castellano,0.0,Inglés,3.0,4.0,3.0,yes,no,yes,Flauta,12,,,nada,65.0,yes
144,2024-04-09_17h52.21.782,Experiment4_uns,s171,18.0,masculino,both,España,Catalán y Castellano,Upper secondary,no,no,B,2,what,L1,unsyncopated,s1,r1,16,Online_whatL1//b.ta.be1.none.none.wav,pu,fa,fo,sil2,ki,la,zu,sil,ze,ri,sil1,['-'],,,none,none,,,,be,2,,,,,,,,,,,,,,,3 ,2.0,Catalán,0.0,Castellano,0.0,Inglés,3.0,4.0,3.0,yes,no,yes,Flauta,12,,,nada,65.0,yes
145,2024-04-09_17h52.21.782,Experiment4_uns,s171,18.0,masculino,both,España,Catalán y Castellano,Upper secondary,no,no,B,2,what,L1,unsyncopated,s2,r2,17,Online_whatL1//b.ta.be2.1110.1998.wav,ze,fa,lu,sil2,ta,ne,cho,sil,be,ri,sil1,['catch_delay'],[0.8043999999986828],[0.8043999999986828],1.998,no_beat,0.8043999999986828,0.8043999999986828,,be,2,,,,,,,,,,,,,,,3 ,2.0,Catalán,0.0,Castellano,0.0,Inglés,3.0,4.0,3.0,yes,no,yes,Flauta,12,,,nada,65.0,yes
146,2024-04-09_17h52.21.782,Experiment4_uns,s171,18.0,masculino,both,España,Catalán y Castellano,Upper secondary,no,no,B,2,what,L1,unsyncopated,s2,r1,18,Online_whatL1//b.ta.be3.none.none.wav,ze,ri,la,sil,pu,ni,fo,sil1,ki,cho,sil2,['-'],[0.1383999999986827],[0.1383999999986827],none,none,,,"[""space""]",be,2,,,,,,,,,,,,,,,3 ,2.0,Catalán,0.0,Castellano,0.0,Inglés,3.0,4.0,3.0,yes,no,yes,Flauta,12,,,nada,65.0,yes
147,2024-04-09_17h52.21.782,Experiment4_uns,s171,18.0,masculino,both,España,Catalán y Castellano,Upper secondary,no,no,B,2,what,L1,unsyncopated,s2,r2,19,Online_whatL1//b.ta.be0.888.1776.wav,ni,lu,ne,sil,ta,ze,zu,sil1,be,la,sil2,['catch'],[2.5558000000007723],[2.5558000000007723],1.776,beat,0.7798000000007723,0.7798000000007723,"[""space""]",be,2,,,,,,,,,,,,,,,3 ,2.0,Catalán,0.0,Castellano,0.0,Inglés,3.0,4.0,3.0,yes,no,yes,Flauta,12,,,nada,65.0,yes
148,2024-04-09_17h52.21.782,Experiment4_uns,s171,18.0,masculino,both,España,Catalán y Castellano,Upper secondary,no,no,B,2,what,L1,unsyncopated,s1,r1,20,Online_whatL1//b.ta.be7.none.none.wav,pu,ro,fa,sil,ki,fo,ni,sil2,la,ze,sil1,['-'],,,none,none,,,,be,2,,,,,,,,,,,,,,,3 ,2.0,Catalán,0.0,Castellano,0.0,Inglés,3.0,4.0,3.0,yes,no,yes,Flauta,12,,,nada,65.0,yes
149,2024-04-09_17h52.21.782,Experiment4_uns,s171,18.0,masculino,both,España,Catalán y Castellano,Upper secondary,no,no,B,2,what,L1,unsyncopated,s2,r2,21,Online_whatL1//b.ta.be4.888.1998.wav,zu,ne,fa,sil,ta,lu,ni,sil2,be,ri,sil1,['miss'],,,1.998,no_beat,,,,be,2,,,,,,,,,,,,,,,3 ,2.0,Catalán,0.0,Castellano,0.0,Inglés,3.0,4.0,3.0,yes,no,yes,Flauta,12,,,nada,65.0,yes
150,2024-04-09_17h52.21.782,Experiment4_uns,s171,18.0,masculino,both,España,Catalán y Castellano,Upper secondary,no,no,B,2,what,L1,unsyncopated,s2,r1,22,Online_whatL1//b.ta.be6.none.none.wav,cho,fa,fo,sil,pu,ne,ri,sil2,ki,ni,sil1,['-'],,,none,none,,,,be,2,,,,,,,,,,,,,,,3 ,2.0,Catalán,0.0,Castellano,0.0,Inglés,3.0,4.0,3.0,yes,no,yes,Flauta,12,,,nada,65.0,yes
151,2024-04-09_17h52.21.782,Experiment4_uns,s171,18.0,masculino,both,España,Catalán y Castellano,Upper secondary,no,no,B,2,what,L1,unsyncopated,s2,r1,23,Online_whatL1//b.ta.be5.none.none.wav,ni,fa,ro,sil2,pu,ze,la,sil,ki,ne,sil1,['-'],,,none,none,,,,be,2,,,,,,,,,,,,,,,3 ,2.0,Catalán,0.0,Castellano,0.0,Inglés,3.0,4.0,3.0,yes,no,yes,Flauta,12,,,nada,65.0,yes
152,2024-04-09_17h52.21.782,Experiment4_uns,s171,18.0,masculino,both,España,Catalán y Castellano,Upper secondary,no,no,B,2,what,L1,unsyncopated,s2,r1,24,Online_whatL1//b.ta.be9.none.none.wav,ze,zu,ni,sil,pu,fa,ne,sil1,ki,fo,sil2,['-'],,,none,none,,,,be,2,,,,,,,,,,,,,,,3 ,2.0,Catalán,0.0,Castellano,0.0,Inglés,3.0,4.0,3.0,yes,no,yes,Flauta,12,,,nada,65.0,yes
153,2024-04-09_17h52.21.782,Experiment4_uns,s171,18.0,masculino,both,España,Catalán y Castellano,Upper secondary,no,no,B,2,what,L1,unsyncopated,s1,r1,25,Online_whatL1//b.ta.be10.none.none.wav,pu,fo,fa,sil,ki,zu,cho,sil1,la,ri,sil2,['-'],,,none,none,,,,be,2,,,,,,,,,,,,,,,3 ,2.0,Catalán,0.0,Castellano,0.0,Inglés,3.0,4.0,3.0,yes,no,yes,Flauta,12,,,nada,65.0,yes
154,2024-04-09_17h52.21.782,Experiment4_uns,s171,18.0,masculino,both,España,Catalán y Castellano,Upper secondary,no,no,B,2,what,L1,unsyncopated,s1,r2,26,Online_whatL1//b.ta.be11.0.888.wav,ta,ne,fa,sil,be,ri,fo,sil2,cho,ni,sil1,['catch'],[1.957800000000816],[1.957800000000816],0.888,beat,1.069800000000816,1.069800000000816,"[""space""]",be,2,,,,,,,,,,,,,,,3 ,2.0,Catalán,0.0,Castellano,0.0,Inglés,3.0,4.0,3.0,yes,no,yes,Flauta,12,,,nada,65.0,yes
155,2024-04-09_17h52.21.782,Experiment4_uns,s171,18.0,masculino,both,España,Catalán y Castellano,Upper secondary,no,no,B,2,what,L1,unsyncopated,s1,r2,27,Online_whatL1//b.ta.be8.0.1110.wav,ta,la,zu,sil2,be,fo,ri,sil,ne,ze,sil1,['miss'],,,1.11,no_beat,,,,be,2,,,,,,,,,,,,,,,3 ,2.0,Catalán,0.0,Castellano,0.0,Inglés,3.0,4.0,3.0,yes,no,yes,Flauta,12,,,nada,65.0,yes
156,2024-04-09_17h52.21.782,Experiment4_uns,s171,18.0,masculino,both,España,Catalán y Castellano,Upper secondary,no,no,B,2,what,L1,unsyncopated,s2,r2,28,Online_whatL1//a.pu.ki21.none.none.wav,ze,fo,ri,sil,ta,lu,cho,sil2,be,la,sil1,['-'],,,none,none,,,,pu,1,,,,,,,,,,,,,,,3 ,2.0,Catalán,0.0,Castellano,0.0,Inglés,3.0,4.0,3.0,yes,no,yes,Flauta,12,,,nada,65.0,yes
157,2024-04-09_17h52.21.782,Experiment4_uns,s171,18.0,masculino,both,España,Catalán y Castellano,Upper secondary,no,no,B,2,what,L1,unsyncopated,s1,r2,29,Online_whatL1//a.pu.ki23.none.none.wav,ta,ne,la,sil2,be,fo,lu,sil,cho,ze,sil1,['-'],,,none,none,,,,pu,1,,,,,,,,,,,,,,,3 ,2.0,Catalán,0.0,Castellano,0.0,Inglés,3.0,4.0,3.0,yes,no,yes,Flauta,12,,,nada,65.0,yes
158,2024-04-09_17h52.21.782,Experiment4_uns,s171,18.0,masculino,both,España,Catalán y Castellano,Upper secondary,no,no,B,2,what,L1,unsyncopated,s1,r2,30,Online_whatL1//a.pu.ki22.none.none.wav,ta,ne,cho,sil2,be,ro,lu,sil,fa,fo,sil1,['-'],,,none,none,,,,pu,1,,,,,,,,,,,,,,,3 ,2.0,Catalán,0.0,Castellano,0.0,Inglés,3.0,4.0,3.0,yes,no,yes,Flauta,12,,,nada,65.0,yes
159,2024-04-09_17h52.21.782,Experiment4_uns,s171,18.0,masculino,both,España,Catalán y Castellano,Upper secondary,no,no,B,2,what,L1,unsyncopated,s1,r1,31,Online_whatL1//a.pu.ki20.0.888.wav,pu,ze,ni,sil,ki,la,ne,sil2,zu,ro,sil1,['catch'],[0.6890000000000782],[0.6890000000000782],0.0,beat,0.6890000000000782,0.6890000000000782,"[""space""]",pu,1,,,,,,,,,,,,,,,3 ,2.0,Catalán,0.0,Castellano,0.0,Inglés,3.0,4.0,3.0,yes,no,yes,Flauta,12,,,nada,65.0,yes
160,2024-04-09_17h52.21.782,Experiment4_uns,s171,18.0,masculino,both,España,Catalán y Castellano,Upper secondary,no,no,B,2,what,L1,unsyncopated,s1,r1,32,Online_whatL1//d.ne.ni31.1998.1332.wav,pu,la,cho,sil2,ki,ni,lu,sil,ne,fa,sil1,['false alarm'],[0.47190000000227883],[0.47190000000227883],1.332,no_beat,,,"[""space""]",ni,4,,,,,,,,,,,,,,,3 ,2.0,Catalán,0.0,Castellano,0.0,Inglés,3.0,4.0,3.0,yes,no,yes,Flauta,12,,,nada,65.0,yes
161,2024-04-09_17h52.21.782,Experiment4_uns,s171,18.0,masculino,both,España,Catalán y Castellano,Upper secondary,no,no,B,2,what,L1,unsyncopated,s1,r2,33,Online_whatL1//d.ne.ni30.444.1332.wav,ta,lu,ne,sil,be,fo,ni,sil2,ro,cho,sil1,['miss'],,,1.332,no_beat,,,,ni,4,,,,,,,,,,,,,,,3 ,2.0,Catalán,0.0,Castellano,0.0,Inglés,3.0,4.0,3.0,yes,no,yes,Flauta,12,,,nada,65.0,yes
162,2024-04-09_17h52.21.782,Experiment4_uns,s171,18.0,masculino,both,España,Catalán y Castellano,Upper secondary,no,no,B,2,what,L1,unsyncopated,s1,r1,34,Online_whatL1//d.ne.ni28.1332.222.wav,pu,ni,lu,sil2,ki,ne,cho,sil,fo,zu,sil1,"['catch', 'false alarm']","[0.6719000000020969, 1.6056999999991604]",[0.6719000000020969],0.222,no_beat,0.4499000000020969,0.4499000000020969,"[""space"",""space""]",ni,4,,,,,,,,,,,,,,,3 ,2.0,Catalán,0.0,Castellano,0.0,Inglés,3.0,4.0,3.0,yes,no,yes,Flauta,12,,,nada,65.0,yes
163,2024-04-09_17h52.21.782,Experiment4_uns,s171,18.0,masculino,both,España,Catalán y Castellano,Upper secondary,no,no,B,2,what,L1,unsyncopated,s1,r2,35,Online_whatL1//d.ne.ni29.none.none.wav,ta,la,zu,sil2,be,fo,ri,sil,fa,ro,sil1,['-'],,,none,none,,,,ni,4,,,,,,,,,,,,,,,3 ,2.0,Catalán,0.0,Castellano,0.0,Inglés,3.0,4.0,3.0,yes,no,yes,Flauta,12,,,nada,65.0,yes
164,2024-04-09_17h52.21.782,Experiment4_uns,s171,18.0,masculino,both,España,Catalán y Castellano,Upper secondary,no,no,B,2,what,L1,unsyncopated,s1,r2,36,Online_whatL1//c.ro.fo14.1332.222.wav,ta,fo,cho,sil,be,fa,ro,sil1,lu,ni,sil2,['miss'],,,0.222,no_beat,,,,fo,3,,,,,,,,,,,,,,,3 ,2.0,Catalán,0.0,Castellano,0.0,Inglés,3.0,4.0,3.0,yes,no,yes,Flauta,12,,,nada,65.0,yes
165,2024-04-09_17h52.21.782,Experiment4_uns,s171,18.0,masculino,both,España,Catalán y Castellano,Upper secondary,no,no,B,2,what,L1,unsyncopated,s2,r2,37,Online_whatL1//c.ro.fo12.1332.222.wav,ri,fo,zu,sil,ta,fa,ro,sil2,be,ni,sil1,['false alarm'],[0.038000000000010914],[0.038000000000010914],0.222,no_beat,,,"[""space""]",fo,3,,,,,,,,,,,,,,,3 ,2.0,Catalán,0.0,Castellano,0.0,Inglés,3.0,4.0,3.0,yes,no,yes,Flauta,12,,,nada,65.0,yes
166,2024-04-09_17h52.21.782,Experiment4_uns,s171,18.0,masculino,both,España,Catalán y Castellano,Upper secondary,no,no,B,2,what,L1,unsyncopated,s1,r2,38,Online_whatL1//c.ro.fo15.none.none.wav,ta,ri,lu,sil,be,ze,zu,sil1,cho,ni,sil2,['false alarm'],[0.5285999999975957],[0.5285999999975957],none,none,,,"[""space""]",fo,3,,,,,,,,,,,,,,,3 ,2.0,Catalán,0.0,Castellano,0.0,Inglés,3.0,4.0,3.0,yes,no,yes,Flauta,12,,,nada,65.0,yes
167,2024-04-09_17h52.21.782,Experiment4_uns,s171,18.0,masculino,both,España,Catalán y Castellano,Upper secondary,no,no,B,2,what,L1,unsyncopated,s2,r1,39,Online_whatL1//c.ro.fo13.1332.444.wav,ni,fa,fo,sil,pu,la,ro,sil1,ki,cho,sil2,['miss'],,,0.444,no_beat,,,,fo,3,,,,,,,,,,,,,,,3 ,2.0,Catalán,0.0,Castellano,0.0,Inglés,3.0,4.0,3.0,yes,no,yes,Flauta,12,,,nada,65.0,yes
168,2024-04-09_17h52.21.782,Experiment4_uns,s171,18.0,masculino,both,España,Catalán y Castellano,Upper secondary,no,no,B,2,what,L1,unsyncopated,s1,r2,40,Online_whatL1//a.pu.ki2.none.none.wav,ta,zu,lu,sil2,be,ni,ze,sil,ne,fa,sil1,['-'],,,none,none,,,,pu,1,,,,,,,,,,,,,,,3 ,2.0,Catalán,0.0,Castellano,0.0,Inglés,3.0,4.0,3.0,yes,no,yes,Flauta,12,,,nada,65.0,yes
169,2024-04-09_17h52.21.782,Experiment4_uns,s171,18.0,masculino,both,España,Catalán y Castellano,Upper secondary,no,no,B,2,what,L1,unsyncopated,s1,r2,41,Online_whatL1//a.pu.ki3.none.none.wav,ta,la,ne,sil,be,cho,ni,sil2,fo,ri,sil1,['-'],,,none,none,,,,pu,1,,,,,,,,,,,,,,,3 ,2.0,Catalán,0.0,Castellano,0.0,Inglés,3.0,4.0,3.0,yes,no,yes,Flauta,12,,,nada,65.0,yes
170,2024-04-09_17h52.21.782,Experiment4_uns,s171,18.0,masculino,both,España,Catalán y Castellano,Upper secondary,no,no,B,2,what,L1,unsyncopated,s1,r1,42,Online_whatL1//a.pu.ki1.0.888.wav,pu,ni,ne,sil,ki,ri,la,sil2,ro,cho,sil1,['catch'],[0.4898000000007414],[0.4898000000007414],0.0,beat,0.4898000000007414,0.4898000000007414,"[""space""]",pu,1,,,,,,,,,,,,,,,3 ,2.0,Catalán,0.0,Castellano,0.0,Inglés,3.0,4.0,3.0,yes,no,yes,Flauta,12,,,nada,65.0,yes
171,2024-04-09_17h52.21.782,Experiment4_uns,s171,18.0,masculino,both,España,Catalán y Castellano,Upper secondary,no,no,B,2,what,L1,unsyncopated,s1,r1,43,Online_whatL1//a.pu.ki0.0.888.wav,pu,la,ne,sil,ki,lu,fa,sil1,ni,fo,sil2,['catch'],[0.5216000000016265],[0.5216000000016265],0.0,beat,0.5216000000016265,0.5216000000016265,"[""space""]",pu,1,,,,,,,,,,,,,,,3 ,2.0,Catalán,0.0,Castellano,0.0,Inglés,3.0,4.0,3.0,yes,no,yes,Flauta,12,,,nada,65.0,yes
172,2024-04-09_17h52.21.782,Experiment4_uns,s171,18.0,masculino,both,España,Catalán y Castellano,Upper secondary,no,no,B,2,what,L1,unsyncopated,s2,r1,44,Online_whatL1//d.ne.ni2.444.0.wav,ni,fa,ne,sil,pu,la,ze,sil2,ki,fo,sil1,['catch'],[0.6271999999992204],[0.6271999999992204],0.0,beat,0.6271999999992204,0.6271999999992204,"[""space""]",ni,4,,,,,,,,,,,,,,,3 ,2.0,Catalán,0.0,Castellano,0.0,Inglés,3.0,4.0,3.0,yes,no,yes,Flauta,12,,,nada,65.0,yes
173,2024-04-09_17h52.21.782,Experiment4_uns,s171,18.0,masculino,both,España,Catalán y Castellano,Upper secondary,no,no,B,2,what,L1,unsyncopated,s2,r1,45,Online_whatL1//d.ne.ni0.0.1332.wav,ne,zu,fo,sil2,pu,ni,cho,sil,ki,ro,sil1,['catch'],[1.7871999999993022],[1.7871999999993022],1.332,no_beat,0.4551999999993021,0.4551999999993021,"[""space""]",ni,4,,,,,,,,,,,,,,,3 ,2.0,Catalán,0.0,Castellano,0.0,Inglés,3.0,4.0,3.0,yes,no,yes,Flauta,12,,,nada,65.0,yes
174,2024-04-09_17h52.21.782,Experiment4_uns,s171,18.0,masculino,both,España,Catalán y Castellano,Upper secondary,no,no,B,2,what,L1,unsyncopated,s2,r1,46,Online_whatL1//d.ne.ni1.none.none.wav,ze,lu,zu,sil,pu,fa,ri,sil2,ki,la,sil1,['-'],,,none,none,,,,ni,4,,,,,,,,,,,,,,,3 ,2.0,Catalán,0.0,Castellano,0.0,Inglés,3.0,4.0,3.0,yes,no,yes,Flauta,12,,,nada,65.0,yes
175,2024-04-09_17h52.21.782,Experiment4_uns,s171,18.0,masculino,both,España,Catalán y Castellano,Upper secondary,no,no,B,2,what,L1,unsyncopated,s2,r2,47,Online_whatL1//d.ne.ni3.none.none.wav,ro,lu,la,sil,ta,ri,fa,sil1,be,ze,sil2,['-'],,,none,none,,,,ni,4,,,,,,,,,,,,,,,3 ,2.0,Catalán,0.0,Castellano,0.0,Inglés,3.0,4.0,3.0,yes,no,yes,Flauta,12,,,nada,65.0,yes
176,2024-04-09_17h52.21.782,Experiment4_uns,s171,18.0,masculino,both,España,Catalán y Castellano,Upper secondary,no,no,B,2,what,L1,unsyncopated,s1,r2,48,Online_whatL1//a.pu.ki26.none.none.wav,ta,zu,lu,sil,be,cho,ri,sil1,la,ze,sil2,['-'],,,none,none,,,,pu,1,,,,,,,,,,,,,,,3 ,2.0,Catalán,0.0,Castellano,0.0,Inglés,3.0,4.0,3.0,yes,no,yes,Flauta,12,,,nada,65.0,yes
177,2024-04-09_17h52.21.782,Experiment4_uns,s171,18.0,masculino,both,España,Catalán y Castellano,Upper secondary,no,no,B,2,what,L1,unsyncopated,s1,r1,49,Online_whatL1//a.pu.ki27.0.888.wav,pu,ri,fa,sil,ki,la,ne,sil2,ze,cho,sil1,['catch'],[0.46419999999943684],[0.46419999999943684],0.0,beat,0.4641999999994368,0.4641999999994368,"[""space""]",pu,1,,,,,,,,,,,,,,,3 ,2.0,Catalán,0.0,Castellano,0.0,Inglés,3.0,4.0,3.0,yes,no,yes,Flauta,12,,,nada,65.0,yes
178,2024-04-09_17h52.21.782,Experiment4_uns,s171,18.0,masculino,both,España,Catalán y Castellano,Upper secondary,no,no,B,2,what,L1,unsyncopated,s2,r1,50,Online_whatL1//a.pu.ki25.888.1998.wav,la,cho,ne,sil,pu,zu,fa,sil2,ki,lu,sil1,['miss'],,,0.888,beat,,,,pu,1,,,,,,,,,,,,,,,3 ,2.0,Catalán,0.0,Castellano,0.0,Inglés,3.0,4.0,3.0,yes,no,yes,Flauta,12,,,nada,65.0,yes
179,2024-04-09_17h52.21.782,Experiment4_uns,s171,18.0,masculino,both,España,Catalán y Castellano,Upper secondary,no,no,B,2,what,L1,unsyncopated,s1,r1,51,Online_whatL1//a.pu.ki24.0.888.wav,pu,fa,cho,sil,ki,zu,ne,sil2,fo,ni,sil1,['miss'],,,0.0,beat,,,,pu,1,,,,,,,,,,,,,,,3 ,2.0,Catalán,0.0,Castellano,0.0,Inglés,3.0,4.0,3.0,yes,no,yes,Flauta,12,,,nada,65.0,yes
180,2024-04-09_17h52.21.782,Experiment4_uns,s171,18.0,masculino,both,España,Catalán y Castellano,Upper secondary,no,no,B,2,what,L1,unsyncopated,s1,r1,52,Online_whatL1//b.ta.be23.none.none.wav,pu,zu,ri,sil,ki,ni,fa,sil1,lu,cho,sil2,['-'],,,none,none,,,,be,2,,,,,,,,,,,,,,,3 ,2.0,Catalán,0.0,Castellano,0.0,Inglés,3.0,4.0,3.0,yes,no,yes,Flauta,12,,,nada,65.0,yes
181,2024-04-09_17h52.21.782,Experiment4_uns,s171,18.0,masculino,both,España,Catalán y Castellano,Upper secondary,no,no,B,2,what,L1,unsyncopated,s1,r2,53,Online_whatL1//b.ta.be22.0.888.wav,ta,ze,lu,sil,be,fo,la,sil2,cho,zu,sil1,['catch'],[2.5066999999992277],[2.5066999999992277],0.888,beat,,1.6186999999992278,"[""space""]",be,2,,,,,,,,,,,,,,,3 ,2.0,Catalán,0.0,Castellano,0.0,Inglés,3.0,4.0,3.0,yes,no,yes,Flauta,12,,,nada,65.0,yes
182,2024-04-09_17h52.21.782,Experiment4_uns,s171,18.0,masculino,both,España,Catalán y Castellano,Upper secondary,no,no,B,2,what,L1,unsyncopated,s2,r2,54,Online_whatL1//b.ta.be21.1110.1998.wav,fa,ri,zu,sil2,ta,lu,ne,sil,be,la,sil1,['miss'],,,1.998,no_beat,,,,be,2,,,,,,,,,,,,,,,3 ,2.0,Catalán,0.0,Castellano,0.0,Inglés,3.0,4.0,3.0,yes,no,yes,Flauta,12,,,nada,65.0,yes
183,2024-04-09_17h52.21.782,Experiment4_uns,s171,18.0,masculino,both,España,Catalán y Castellano,Upper secondary,no,no,B,2,what,L1,unsyncopated,s1,r2,55,Online_whatL1//b.ta.be20.0.888.wav,ta,ro,ne,sil,be,la,cho,sil1,lu,ri,sil2,"['false alarm', 'catch']","[0.854900000002317, 1.728699999999435]",[1.728699999999435],0.888,beat,0.840699999999435,0.840699999999435,"[""space"",""space""]",be,2,,,,,,,,,,,,,,,3 ,2.0,Catalán,0.0,Castellano,0.0,Inglés,3.0,4.0,3.0,yes,no,yes,Flauta,12,,,nada,65.0,yes
184,2024-04-09_17h52.21.782,Experiment4_uns,s171,18.0,masculino,both,España,Catalán y Castellano,Upper secondary,no,no,B,2,what,L1,unsyncopated,s1,r1,56,Online_whatL1//a.pu.ki17.0.1110.wav,pu,ro,ni,sil2,ki,zu,la,sil,cho,ri,sil1,['miss'],,,0.0,beat,,,,pu,1,,,,,,,,,,,,,,,3 ,2.0,Catalán,0.0,Castellano,0.0,Inglés,3.0,4.0,3.0,yes,no,yes,Flauta,12,,,nada,65.0,yes
185,2024-04-09_17h52.21.782,Experiment4_uns,s171,18.0,masculino,both,España,Catalán y Castellano,Upper secondary,no,no,B,2,what,L1,unsyncopated,s1,r1,57,Online_whatL1//a.pu.ki16.0.888.wav,pu,cho,ze,sil,ki,ri,ni,sil1,lu,fa,sil2,['catch'],[1.6051999999992859],[1.6051999999992859],0.0,beat,,1.605199999999286,"[""space""]",pu,1,,,,,,,,,,,,,,,3 ,2.0,Catalán,0.0,Castellano,0.0,Inglés,3.0,4.0,3.0,yes,no,yes,Flauta,12,,,nada,65.0,yes
186,2024-04-09_17h52.21.782,Experiment4_uns,s171,18.0,masculino,both,España,Catalán y Castellano,Upper secondary,no,no,B,2,what,L1,unsyncopated,s2,r1,58,Online_whatL1//a.pu.ki19.1110.1998.wav,ne,ze,la,sil2,pu,fo,zu,sil,ki,cho,sil1,['catch'],[1.7381999999990967],[1.7381999999990967],1.11,no_beat,0.6281999999990966,0.6281999999990966,"[""space""]",pu,1,,,,,,,,,,,,,,,3 ,2.0,Catalán,0.0,Castellano,0.0,Inglés,3.0,4.0,3.0,yes,no,yes,Flauta,12,,,nada,65.0,yes
187,2024-04-09_17h52.21.782,Experiment4_uns,s171,18.0,masculino,both,España,Catalán y Castellano,Upper secondary,no,no,B,2,what,L1,unsyncopated,s2,r2,59,Online_whatL1//a.pu.ki18.none.none.wav,zu,ne,cho,sil,ta,fo,ri,sil1,be,fa,sil2,['-'],,,none,none,,,,pu,1,,,,,,,,,,,,,,,3 ,2.0,Catalán,0.0,Castellano,0.0,Inglés,3.0,4.0,3.0,yes,no,yes,Flauta,12,,,nada,65.0,yes
188,2024-04-09_17h52.21.782,Experiment4_uns,s171,18.0,masculino,both,España,Catalán y Castellano,Upper secondary,no,no,B,2,what,L1,unsyncopated,s1,r1,60,Online_whatL1//c.ro.fo10.1332.444.wav,pu,fa,fo,sil,ki,ne,ro,sil1,ni,cho,sil2,['catch'],[0.494100000001481],[0.494100000001481],0.444,no_beat,0.050100000001481,0.050100000001481,"[""space""]",fo,3,,,,,,,,,,,,,,,3 ,2.0,Catalán,0.0,Castellano,0.0,Inglés,3.0,4.0,3.0,yes,no,yes,Flauta,12,,,nada,65.0,yes
189,2024-04-09_17h52.21.782,Experiment4_uns,s171,18.0,masculino,both,España,Catalán y Castellano,Upper secondary,no,no,B,2,what,L1,unsyncopated,s1,r2,61,Online_whatL1//c.ro.fo8.222.444.wav,ta,ro,fo,sil,be,ri,fa,sil2,cho,lu,sil1,['catch'],[1.046899999998459],[1.046899999998459],0.444,no_beat,0.602899999998459,0.602899999998459,"[""space""]",fo,3,,,,,,,,,,,,,,,3 ,2.0,Catalán,0.0,Castellano,0.0,Inglés,3.0,4.0,3.0,yes,no,yes,Flauta,12,,,nada,65.0,yes
190,2024-04-09_17h52.21.782,Experiment4_uns,s171,18.0,masculino,both,España,Catalán y Castellano,Upper secondary,no,no,B,2,what,L1,unsyncopated,s2,r2,62,Online_whatL1//c.ro.fo9.0.1110.wav,ro,lu,zu,sil,ta,fo,cho,sil2,be,ze,sil1,['miss'],,,1.11,no_beat,,,,fo,3,,,,,,,,,,,,,,,3 ,2.0,Catalán,0.0,Castellano,0.0,Inglés,3.0,4.0,3.0,yes,no,yes,Flauta,12,,,nada,65.0,yes
191,2024-04-09_17h52.21.782,Experiment4_uns,s171,18.0,masculino,both,España,Catalán y Castellano,Upper secondary,no,no,B,2,what,L1,unsyncopated,s1,r1,63,Online_whatL1//c.ro.fo11.none.none.wav,pu,la,fa,sil2,ki,ri,zu,sil,ni,ne,sil1,['-'],,,none,none,,,,fo,3,,,,,,,,,,,,,,,3 ,2.0,Catalán,0.0,Castellano,0.0,Inglés,3.0,4.0,3.0,yes,no,yes,Flauta,12,,,nada,65.0,yes
192,2024-04-09_17h52.21.782,Experiment4_uns,s171,18.0,masculino,both,España,Catalán y Castellano,Upper secondary,no,no,B,2,what,L1,unsyncopated,s2,r1,64,Online_whatL1//b.ta.be24.none.none.wav,lu,zu,cho,sil,pu,ni,fa,sil2,ki,fo,sil1,['-'],,,none,none,,,,be,2,,,,,,,,,,,,,,,3 ,2.0,Catalán,0.0,Castellano,0.0,Inglés,3.0,4.0,3.0,yes,no,yes,Flauta,12,,,nada,65.0,yes
193,2024-04-09_17h52.21.782,Experiment4_uns,s171,18.0,masculino,both,España,Catalán y Castellano,Upper secondary,no,no,B,2,what,L1,unsyncopated,s1,r1,65,Online_whatL1//b.ta.be26.none.none.wav,pu,lu,cho,sil,ki,ne,ro,sil2,fa,la,sil1,['-'],,,none,none,,,,be,2,,,,,,,,,,,,,,,3 ,2.0,Catalán,0.0,Castellano,0.0,Inglés,3.0,4.0,3.0,yes,no,yes,Flauta,12,,,nada,65.0,yes
194,2024-04-09_17h52.21.782,Experiment4_uns,s171,18.0,masculino,both,España,Catalán y Castellano,Upper secondary,no,no,B,2,what,L1,unsyncopated,s1,r1,66,Online_whatL1//b.ta.be25.none.none.wav,pu,ze,cho,sil2,ki,fo,ro,sil,ni,ri,sil1,['-'],,,none,none,,,,be,2,,,,,,,,,,,,,,,3 ,2.0,Catalán,0.0,Castellano,0.0,Inglés,3.0,4.0,3.0,yes,no,yes,Flauta,12,,,nada,65.0,yes
195,2024-04-09_17h52.21.782,Experiment4_uns,s171,18.0,masculino,both,España,Catalán y Castellano,Upper secondary,no,no,B,2,what,L1,unsyncopated,s1,r1,67,Online_whatL1//b.ta.be27.none.none.wav,pu,lu,zu,sil,ki,la,ro,sil2,ni,fa,sil1,['-'],,,none,none,,,,be,2,,,,,,,,,,,,,,,3 ,2.0,Catalán,0.0,Castellano,0.0,Inglés,3.0,4.0,3.0,yes,no,yes,Flauta,12,,,nada,65.0,yes
196,2024-04-09_17h52.21.782,Experiment4_uns,s171,18.0,masculino,both,España,Catalán y Castellano,Upper secondary,no,no,B,2,what,L1,unsyncopated,s2,r2,68,Online_whatL1//b.ta.be16.1110.1998.wav,zu,fa,cho,sil2,ta,ri,ro,sil,be,ze,sil1,['miss'],,,1.998,no_beat,,,,be,2,,,,,,,,,,,,,,,3 ,2.0,Catalán,0.0,Castellano,0.0,Inglés,3.0,4.0,3.0,yes,no,yes,Flauta,12,,,nada,65.0,yes
197,2024-04-09_17h52.21.782,Experiment4_uns,s171,18.0,masculino,both,España,Catalán y Castellano,Upper secondary,no,no,B,2,what,L1,unsyncopated,s1,r2,69,Online_whatL1//b.ta.be17.0.888.wav,ta,fa,zu,sil,be,ze,la,sil1,ni,ro,sil2,['miss'],,,0.888,beat,,,,be,2,,,,,,,,,,,,,,,3 ,2.0,Catalán,0.0,Castellano,0.0,Inglés,3.0,4.0,3.0,yes,no,yes,Flauta,12,,,nada,65.0,yes
198,2024-04-09_17h52.21.782,Experiment4_uns,s171,18.0,masculino,both,España,Catalán y Castellano,Upper secondary,no,no,B,2,what,L1,unsyncopated,s1,r2,70,Online_whatL1//b.ta.be18.0.1110.wav,ta,zu,lu,sil2,be,ni,ne,sil,ze,la,sil1,['catch'],[1.9068999999985863],[1.9068999999985863],1.11,no_beat,0.7968999999985862,0.7968999999985862,"[""space""]",be,2,,,,,,,,,,,,,,,3 ,2.0,Catalán,0.0,Castellano,0.0,Inglés,3.0,4.0,3.0,yes,no,yes,Flauta,12,,,nada,65.0,yes
199,2024-04-09_17h52.21.782,Experiment4_uns,s171,18.0,masculino,both,España,Catalán y Castellano,Upper secondary,no,no,B,2,what,L1,unsyncopated,s1,r2,71,Online_whatL1//b.ta.be19.0.888.wav,ta,lu,ze,sil,be,la,ro,sil2,cho,fo,sil1,['miss'],,,0.888,beat,,,,be,2,,,,,,,,,,,,,,,3 ,2.0,Catalán,0.0,Castellano,0.0,Inglés,3.0,4.0,3.0,yes,no,yes,Flauta,12,,,nada,65.0,yes
200,2024-04-09_17h52.21.782,Experiment4_uns,s171,18.0,masculino,both,España,Catalán y Castellano,Upper secondary,no,no,B,2,what,L1,unsyncopated,s2,r2,72,Online_whatL1//d.ne.ni24.1332.444.wav,zu,la,ni,sil,ta,ri,ne,sil2,be,fo,sil1,['catch'],[1.567800000000716],[1.567800000000716],0.444,no_beat,1.123800000000716,1.123800000000716,"[""space""]",ni,4,,,,,,,,,,,,,,,3 ,2.0,Catalán,0.0,Castellano,0.0,Inglés,3.0,4.0,3.0,yes,no,yes,Flauta,12,,,nada,65.0,yes
201,2024-04-09_17h52.21.782,Experiment4_uns,s171,18.0,masculino,both,España,Catalán y Castellano,Upper secondary,no,no,B,2,what,L1,unsyncopated,s1,r2,73,Online_whatL1//d.ne.ni27.none.none.wav,ta,ri,fa,sil2,be,cho,ro,sil,lu,la,sil1,['-'],,,none,none,,,,ni,4,,,,,,,,,,,,,,,3 ,2.0,Catalán,0.0,Castellano,0.0,Inglés,3.0,4.0,3.0,yes,no,yes,Flauta,12,,,nada,65.0,yes
202,2024-04-09_17h52.21.782,Experiment4_uns,s171,18.0,masculino,both,España,Catalán y Castellano,Upper secondary,no,no,B,2,what,L1,unsyncopated,s2,r1,74,Online_whatL1//d.ne.ni26.0.444.wav,ne,lu,ni,sil,pu,ze,fa,sil1,ki,ro,sil2,['miss'],,,0.444,no_beat,,,,ni,4,,,,,,,,,,,,,,,3 ,2.0,Catalán,0.0,Castellano,0.0,Inglés,3.0,4.0,3.0,yes,no,yes,Flauta,12,,,nada,65.0,yes
203,2024-04-09_17h52.21.782,Experiment4_uns,s171,18.0,masculino,both,España,Catalán y Castellano,Upper secondary,no,no,B,2,what,L1,unsyncopated,s1,r2,75,Online_whatL1//d.ne.ni25.1332.222.wav,ta,ni,ri,sil2,be,ne,cho,sil,lu,zu,sil1,['miss'],,,0.222,no_beat,,,,ni,4,,,,,,,,,,,,,,,3 ,2.0,Catalán,0.0,Castellano,0.0,Inglés,3.0,4.0,3.0,yes,no,yes,Flauta,12,,,nada,65.0,yes
204,2024-04-09_17h52.21.782,Experiment4_uns,s171,18.0,masculino,both,España,Catalán y Castellano,Upper secondary,no,no,B,2,what,L1,unsyncopated,s1,r2,76,Online_whatL1//d.ne.ni13.1998.222.wav,ta,ni,fa,sil2,be,ro,ze,sil,ne,fo,sil1,['catch'],[0.9621000000015556],[0.9621000000015556],0.222,no_beat,0.7401000000015556,0.7401000000015556,"[""space""]",ni,4,,,,,,,,,,,,,,,3 ,2.0,Catalán,0.0,Castellano,0.0,Inglés,3.0,4.0,3.0,yes,no,yes,Flauta,12,,,nada,65.0,yes
205,2024-04-09_17h52.21.782,Experiment4_uns,s171,18.0,masculino,both,España,Catalán y Castellano,Upper secondary,no,no,B,2,what,L1,unsyncopated,s2,r2,77,Online_whatL1//d.ne.ni14.1332.0.wav,ni,cho,fo,sil,ta,zu,ne,sil2,be,lu,sil1,['miss'],,,0.0,beat,,,,ni,4,,,,,,,,,,,,,,,3 ,2.0,Catalán,0.0,Castellano,0.0,Inglés,3.0,4.0,3.0,yes,no,yes,Flauta,12,,,nada,65.0,yes
206,2024-04-09_17h52.21.782,Experiment4_uns,s171,18.0,masculino,both,España,Catalán y Castellano,Upper secondary,no,no,B,2,what,L1,unsyncopated,s1,r1,78,Online_whatL1//d.ne.ni12.1554.222.wav,pu,ni,fa,sil2,ki,lu,ne,sil,cho,ro,sil1,['miss'],,,0.222,no_beat,,,,ni,4,,,,,,,,,,,,,,,3 ,2.0,Catalán,0.0,Castellano,0.0,Inglés,3.0,4.0,3.0,yes,no,yes,Flauta,12,,,nada,65.0,yes
207,2024-04-09_17h52.21.782,Experiment4_uns,s171,18.0,masculino,both,España,Catalán y Castellano,Upper secondary,no,no,B,2,what,L1,unsyncopated,s2,r2,79,Online_whatL1//d.ne.ni15.222.1110.wav,la,ne,ro,sil,ta,ni,cho,sil1,be,zu,sil2,['miss'],,,1.11,no_beat,,,,ni,4,,,,,,,,,,,,,,,3 ,2.0,Catalán,0.0,Castellano,0.0,Inglés,3.0,4.0,3.0,yes,no,yes,Flauta,12,,,nada,65.0,yes
208,2024-04-09_17h52.21.782,Experiment4_uns,s171,18.0,masculino,both,España,Catalán y Castellano,Upper secondary,no,no,B,2,what,L1,unsyncopated,s1,r1,80,Online_whatL1//d.ne.ni23.none.none.wav,pu,fo,zu,sil,ki,cho,ro,sil1,ri,la,sil2,['false alarm'],[0.48099999999999454],[0.48099999999999454],none,none,,,"[""space""]",ni,4,,,,,,,,,,,,,,,3 ,2.0,Catalán,0.0,Castellano,0.0,Inglés,3.0,4.0,3.0,yes,no,yes,Flauta,12,,,nada,65.0,yes
209,2024-04-09_17h52.21.782,Experiment4_uns,s171,18.0,masculino,both,España,Catalán y Castellano,Upper secondary,no,no,B,2,what,L1,unsyncopated,s2,r1,81,Online_whatL1//d.ne.ni21.none.none.wav,zu,fo,la,sil,pu,ze,cho,sil2,ki,lu,sil1,['-'],,,none,none,,,,ni,4,,,,,,,,,,,,,,,3 ,2.0,Catalán,0.0,Castellano,0.0,Inglés,3.0,4.0,3.0,yes,no,yes,Flauta,12,,,nada,65.0,yes
210,2024-04-09_17h52.21.782,Experiment4_uns,s171,18.0,masculino,both,España,Catalán y Castellano,Upper secondary,no,no,B,2,what,L1,unsyncopated,s1,r2,82,Online_whatL1//d.ne.ni20.none.none.wav,ta,fa,ro,sil2,be,ze,cho,sil,la,zu,sil1,['-'],,,none,none,,,,ni,4,,,,,,,,,,,,,,,3 ,2.0,Catalán,0.0,Castellano,0.0,Inglés,3.0,4.0,3.0,yes,no,yes,Flauta,12,,,nada,65.0,yes
211,2024-04-09_17h52.21.782,Experiment4_uns,s171,18.0,masculino,both,España,Catalán y Castellano,Upper secondary,no,no,B,2,what,L1,unsyncopated,s1,r1,83,Online_whatL1//d.ne.ni22.none.none.wav,pu,ro,cho,sil2,ki,lu,ze,sil,zu,ri,sil1,['-'],,,none,none,,,,ni,4,,,,,,,,,,,,,,,3 ,2.0,Catalán,0.0,Castellano,0.0,Inglés,3.0,4.0,3.0,yes,no,yes,Flauta,12,,,nada,65.0,yes
212,2024-04-09_17h52.21.782,Experiment4_uns,s171,18.0,masculino,both,España,Catalán y Castellano,Upper secondary,no,no,B,2,what,L1,unsyncopated,s2,r2,84,Online_whatL1//d.ne.ni6.none.none.wav,fa,fo,ri,sil,ta,lu,zu,sil1,be,ro,sil2,['-'],,,none,none,,,,ni,4,,,,,,,,,,,,,,,3 ,2.0,Catalán,0.0,Castellano,0.0,Inglés,3.0,4.0,3.0,yes,no,yes,Flauta,12,,,nada,65.0,yes
213,2024-04-09_17h52.21.782,Experiment4_uns,s171,18.0,masculino,both,España,Catalán y Castellano,Upper secondary,no,no,B,2,what,L1,unsyncopated,s1,r2,85,Online_whatL1//d.ne.ni4.none.none.wav,ta,cho,lu,sil,be,fa,zu,sil1,ro,ze,sil2,['-'],,,none,none,,,,ni,4,,,,,,,,,,,,,,,3 ,2.0,Catalán,0.0,Castellano,0.0,Inglés,3.0,4.0,3.0,yes,no,yes,Flauta,12,,,nada,65.0,yes
214,2024-04-09_17h52.21.782,Experiment4_uns,s171,18.0,masculino,both,España,Catalán y Castellano,Upper secondary,no,no,B,2,what,L1,unsyncopated,s1,r1,86,Online_whatL1//d.ne.ni5.none.none.wav,pu,cho,fo,sil,ki,zu,ro,sil2,fa,la,sil1,['-'],,,none,none,,,,ni,4,,,,,,,,,,,,,,,3 ,2.0,Catalán,0.0,Castellano,0.0,Inglés,3.0,4.0,3.0,yes,no,yes,Flauta,12,,,nada,65.0,yes
215,2024-04-09_17h52.21.782,Experiment4_uns,s171,18.0,masculino,both,España,Catalán y Castellano,Upper secondary,no,no,B,2,what,L1,unsyncopated,s2,r2,87,Online_whatL1//d.ne.ni7.none.none.wav,ze,lu,fa,sil,ta,cho,ri,sil1,be,ro,sil2,['-'],,,none,none,,,,ni,4,,,,,,,,,,,,,,,3 ,2.0,Catalán,0.0,Castellano,0.0,Inglés,3.0,4.0,3.0,yes,no,yes,Flauta,12,,,nada,65.0,yes
216,2024-04-09_17h52.21.782,Experiment4_uns,s171,18.0,masculino,both,España,Catalán y Castellano,Upper secondary,no,no,B,2,what,L1,unsyncopated,s2,r1,88,Online_whatL1//c.ro.fo17.444.0.wav,fo,lu,ro,sil,pu,zu,ne,sil1,ki,fa,sil2,['catch'],[0.8031000000014501],[0.8031000000014501],0.0,beat,0.8031000000014501,0.8031000000014501,"[""space""]",fo,3,,,,,,,,,,,,,,,3 ,2.0,Catalán,0.0,Castellano,0.0,Inglés,3.0,4.0,3.0,yes,no,yes,Flauta,12,,,nada,65.0,yes
217,2024-04-09_17h52.21.782,Experiment4_uns,s171,18.0,masculino,both,España,Catalán y Castellano,Upper secondary,no,no,B,2,what,L1,unsyncopated,s2,r1,89,Online_whatL1//c.ro.fo18.none.none.wav,ne,zu,la,sil2,pu,fa,ni,sil,ki,lu,sil1,['false alarm'],[2.3374000000021624],[2.3374000000021624],none,none,,,"[""space""]",fo,3,,,,,,,,,,,,,,,3 ,2.0,Catalán,0.0,Castellano,0.0,Inglés,3.0,4.0,3.0,yes,no,yes,Flauta,12,,,nada,65.0,yes
218,2024-04-09_17h52.21.782,Experiment4_uns,s171,18.0,masculino,both,España,Catalán y Castellano,Upper secondary,no,no,B,2,what,L1,unsyncopated,s2,r1,90,Online_whatL1//c.ro.fo16.222.444.wav,zu,ro,fo,sil,pu,lu,fa,sil2,ki,la,sil1,['catch'],[1.119699999999284],[1.119699999999284],0.444,no_beat,0.6756999999992841,0.6756999999992841,"[""space""]",fo,3,,,,,,,,,,,,,,,3 ,2.0,Catalán,0.0,Castellano,0.0,Inglés,3.0,4.0,3.0,yes,no,yes,Flauta,12,,,nada,65.0,yes
