Unnamed: 0,date,expName,participant,age,sex,hand,residence,native_lang,education_level,lang_deficit,aud_deficit,group,block,condition,language,rhythm,rule structure online,rule type online,order_trial_on,trial_online,s1,s2,s3,s4,s5,s6,s7,s8,s9,s10,s11,catch_syll_resp,rts_syll_catch,clean_rts,time_syll,beat_no_beat,catch_rtsTR,catch_rts,syllable_catch.keys,cond_syll,syll_to_catch,test_offline,block_off,condition_off,rhythm_off,rule,rule_str_off,rule_norule,conds_offline,language_off,Partz_no_partm.keys,Partz_no_partm.rt,security_1_7.keys,accuracy,security_1_7.rt,n_lang,n_lang_used,lang_1,age_l1,lang_2,age_l2,lang_3,age_l3,lang_4,age_l4,lang_5,age_l5,ability_learn_l2,tendence_mix_lan,music_experience,muisc_use,partiture,instr_1,age_M1,preguntas_musica1,BMRQ_answer.response,final comment,BMRQ_Score,bilingual
0,2024-01-12_18h54.43.536,Unsyncopated_study2,s88,23.0,feminino,right,ESPAÑA,"CASTELLANO, CATALAN, ARABE",Master degree,no,no,A,1,when,L4,unsyncopated,when,when,0,Online_whenL4//d.pe26.none.wav,lo,re,ña,sil,bo,po,ñi,sil1,zi,da,sil2,['-'],,,none,none,,,,pe,4,testWhenL4Uns//r2.s1.0.wav,1.0,when,unsyncopated,b,s1,rule,rule,L4,m,7.7164,5.0,0.0,4.1026,5.0,4.0,CASTELLANO,0.0,CATALAN,0.0,ARABE,0.0,FRANCES,2.0,INGLES,5.0,5.0,5.0,no,no,no,NADA,,1. Cuando comparto música con alguien siento una complicidad especial con aquella persona.,3.0,NADA,67.0,yes
1,2024-01-12_18h54.43.536,Unsyncopated_study2,s88,23.0,feminino,right,ESPAÑA,"CASTELLANO, CATALAN, ARABE",Master degree,no,no,A,1,when,L4,unsyncopated,when,when,1,Online_whenL4//d.pe24.0.wav,pe,de,re,sil,zi,ña,bo,sil1,ja,ñi,sil2,['catch'],[0.714099999999803],[0.714099999999803],0.0,beat,0.714099999999803,0.714099999999803,"[""space""]",pe,4,testWhenL4Uns//r1.s2.0.wav,1.0,when,unsyncopated,a,s2,rule,rule,L4,z,8.1305,3.0,1.0,3.8335,5.0,4.0,CASTELLANO,0.0,CATALAN,0.0,ARABE,0.0,FRANCES,2.0,INGLES,5.0,5.0,5.0,no,no,no,NADA,,2. En mi tiempo libre apenas escucho música.,5.0,NADA,67.0,yes
2,2024-01-12_18h54.43.536,Unsyncopated_study2,s88,23.0,feminino,right,ESPAÑA,"CASTELLANO, CATALAN, ARABE",Master degree,no,no,A,1,when,L4,unsyncopated,when,when,2,Online_whenL4//d.pe27.222.wav,ru,pe,nu,sil,zi,ña,ci,sil1,ñi,bu,sil2,['catch'],[0.9888999999999442],[0.9888999999999442],0.222,no_beat,0.7668999999999442,0.7668999999999442,"[""space""]",pe,4,testWhenL4Uns//r1.s2.1.wav,1.0,when,unsyncopated,a,s2,rule,rule,L4,m,4.3984,6.0,0.0,1.7254,5.0,4.0,CASTELLANO,0.0,CATALAN,0.0,ARABE,0.0,FRANCES,2.0,INGLES,5.0,5.0,5.0,no,no,no,NADA,,3. Algunas canciones me ponen los pelos de punta,4.0,NADA,67.0,yes
3,2024-01-12_18h54.43.536,Unsyncopated_study2,s88,23.0,feminino,right,ESPAÑA,"CASTELLANO, CATALAN, ARABE",Master degree,no,no,A,1,when,L4,unsyncopated,when,when,3,Online_whenL4//d.pe25.none.wav,re,bu,ja,sil,da,bo,ci,sil1,nu,ru,sil2,['-'],,,none,none,,,,pe,4,testWhenL4Uns//r2.s1.1.wav,1.0,when,unsyncopated,b,s1,rule,rule,L4,z,1.6744,6.0,1.0,1.2827,5.0,4.0,CASTELLANO,0.0,CATALAN,0.0,ARABE,0.0,FRANCES,2.0,INGLES,5.0,5.0,5.0,no,no,no,NADA,,4. La música me hace compañía cuando estoy solo,4.0,NADA,67.0,yes
4,2024-01-12_18h54.43.536,Unsyncopated_study2,s88,23.0,feminino,right,ESPAÑA,"CASTELLANO, CATALAN, ARABE",Master degree,no,no,A,1,when,L4,unsyncopated,when,when,4,Online_whenL4//d.pe14.none.wav,po,ña,bu,sil,de,ru,nu,sil1,ci,zi,sil2,['-'],,,none,none,,,,pe,4,testWhenL4Uns//r1.s1.1.wav,1.0,when,unsyncopated,a,s1,rule,rule,L4,z,0.8228,6.0,1.0,1.4069,5.0,4.0,CASTELLANO,0.0,CATALAN,0.0,ARABE,0.0,FRANCES,2.0,INGLES,5.0,5.0,5.0,no,no,no,NADA,,5. No me apetece bailar ni con la música que más me gusta,4.0,NADA,67.0,yes
5,2024-01-12_18h54.43.536,Unsyncopated_study2,s88,23.0,feminino,right,ESPAÑA,"CASTELLANO, CATALAN, ARABE",Master degree,no,no,A,1,when,L4,unsyncopated,when,when,5,Online_whenL4//d.pe13.none.wav,da,ja,nu,sil,ru,ci,ñi,sil1,bu,po,sil2,['-'],,,none,none,,,,pe,4,testWhenL4Uns//r2.s2.0.wav,1.0,when,unsyncopated,b,s2,rule,rule,L4,m,0.9385,6.0,0.0,1.6769,5.0,4.0,CASTELLANO,0.0,CATALAN,0.0,ARABE,0.0,FRANCES,2.0,INGLES,5.0,5.0,5.0,no,no,no,NADA,,6. La música me hace conectar con la gente,3.0,NADA,67.0,yes
6,2024-01-12_18h54.43.536,Unsyncopated_study2,s88,23.0,feminino,right,ESPAÑA,"CASTELLANO, CATALAN, ARABE",Master degree,no,no,A,1,when,L4,unsyncopated,when,when,6,Online_whenL4//d.pe12.none.wav,ru,zi,ñi,sil,bu,de,ña,sil1,lo,re,sil2,['-'],,,none,none,,,,pe,4,testWhenL4Uns//cat_viol.r1.s1.0.wav,1.0,when,unsyncopated,a,s1,no_rule,cat,L4,m,2.2476,5.0,0.0,3.0592,5.0,4.0,CASTELLANO,0.0,CATALAN,0.0,ARABE,0.0,FRANCES,2.0,INGLES,5.0,5.0,5.0,no,no,no,NADA,,7. Me informo sobre la música que me gusta.,3.0,NADA,67.0,yes
7,2024-01-12_18h54.43.536,Unsyncopated_study2,s88,23.0,feminino,right,ESPAÑA,"CASTELLANO, CATALAN, ARABE",Master degree,no,no,A,1,when,L4,unsyncopated,when,when,7,Online_whenL4//d.pe15.888.wav,po,lo,de,sil,pe,ja,bo,sil1,ña,bu,sil2,['catch'],[1.8233000000001311],[1.8233000000001311],0.888,beat,0.9353000000001312,0.9353000000001312,"[""space""]",pe,4,testWhenL4Uns//cat_viol.r2.s1.0.wav,1.0,when,unsyncopated,b,s1,no_rule,cat,L4,m,5.9002,5.0,0.0,1.9208,5.0,4.0,CASTELLANO,0.0,CATALAN,0.0,ARABE,0.0,FRANCES,2.0,INGLES,5.0,5.0,5.0,no,no,no,NADA,,8.Me emociono escuchando ciertas canciones.,4.0,NADA,67.0,yes
8,2024-01-12_18h54.43.536,Unsyncopated_study2,s88,23.0,feminino,right,ESPAÑA,"CASTELLANO, CATALAN, ARABE",Master degree,no,no,A,1,when,L4,unsyncopated,when,when,8,Online_whenL4//b.ja13.none.wav,bo,de,ña,sil,re,bu,lo,sil1,pe,zi,sil2,['-'],,,none,none,,,,ja,1,testWhenL4Uns//time_viol.r1.s1.0.wav,1.0,when,unsyncopated,a,s1,no_rule,time,L4,z,0.6157,5.0,1.0,3.5044,5.0,4.0,CASTELLANO,0.0,CATALAN,0.0,ARABE,0.0,FRANCES,2.0,INGLES,5.0,5.0,5.0,no,no,no,NADA,,9.La música me tranquiliza y me relaja.,4.0,NADA,67.0,yes
9,2024-01-12_18h54.43.536,Unsyncopated_study2,s88,23.0,feminino,right,ESPAÑA,"CASTELLANO, CATALAN, ARABE",Master degree,no,no,A,1,when,L4,unsyncopated,when,when,9,Online_whenL4//b.ja12.444.wav,nu,ñi,ja,sil,pe,da,ña,sil1,re,ru,sil2,['catch'],[1.1719000000000506],[1.1719000000000506],0.444,no_beat,0.7279000000000506,0.7279000000000506,"[""space""]",ja,1,testWhenL4Uns//dep_viol.r2.s1.0.wav,1.0,when,unsyncopated,b,s1,no_rule,dep,L4,z,0.8351,6.0,1.0,1.4525,5.0,4.0,CASTELLANO,0.0,CATALAN,0.0,ARABE,0.0,FRANCES,2.0,INGLES,5.0,5.0,5.0,no,no,no,NADA,,10.La música me hace bailar,3.0,NADA,67.0,yes
10,2024-01-12_18h54.43.536,Unsyncopated_study2,s88,23.0,feminino,right,ESPAÑA,"CASTELLANO, CATALAN, ARABE",Master degree,no,no,A,1,when,L4,unsyncopated,when,when,10,Online_whenL4//b.ja15.444.wav,da,ci,ja,sil,bo,ru,pe,sil1,zi,bu,sil2,['catch'],[1.2556000000000722],[1.2556000000000722],0.444,no_beat,0.8116000000000723,0.8116000000000723,"[""space""]",ja,1,testWhenL4Uns//dep_viol.r2.s2.0.wav,1.0,when,unsyncopated,b,s2,no_rule,dep,L4,z,4.1511,3.0,1.0,1.4592,5.0,4.0,CASTELLANO,0.0,CATALAN,0.0,ARABE,0.0,FRANCES,2.0,INGLES,5.0,5.0,5.0,no,no,no,NADA,,11.Busco novedades musicales continuamente,4.0,NADA,67.0,yes
11,2024-01-12_18h54.43.536,Unsyncopated_study2,s88,23.0,feminino,right,ESPAÑA,"CASTELLANO, CATALAN, ARABE",Master degree,no,no,A,1,when,L4,unsyncopated,when,when,11,Online_whenL4//b.ja14.888.wav,zi,ña,po,sil,ja,bu,de,sil1,bo,ru,sil2,['catch'],[1.6220999999998185],[1.6220999999998185],0.888,beat,0.7340999999998185,0.7340999999998185,"[""space""]",ja,1,testWhenL4Uns//cat_viol.r1.s2.0.wav,1.0,when,unsyncopated,a,s2,no_rule,cat,L4,m,0.7164,7.0,0.0,1.0662,5.0,4.0,CASTELLANO,0.0,CATALAN,0.0,ARABE,0.0,FRANCES,2.0,INGLES,5.0,5.0,5.0,no,no,no,NADA,,12. Puedo llorar cuando escucho algunas melodías que me gustan mucho.,4.0,NADA,67.0,yes
12,2024-01-12_18h54.43.536,Unsyncopated_study2,s88,23.0,feminino,right,ESPAÑA,"CASTELLANO, CATALAN, ARABE",Master degree,no,no,A,1,when,L4,unsyncopated,when,when,12,Online_whenL4//d.pe17.444.wav,ci,ru,pe,sil,ña,bu,zi,sil1,ñi,nu,sil2,['catch'],[1.257099999999923],[1.257099999999923],0.444,no_beat,0.8130999999999231,0.8130999999999231,"[""space""]",pe,4,testWhenL4Uns//r1.s1.2.wav,1.0,when,unsyncopated,a,s1,rule,rule,L4,m,1.5054,6.0,0.0,1.2346,5.0,4.0,CASTELLANO,0.0,CATALAN,0.0,ARABE,0.0,FRANCES,2.0,INGLES,5.0,5.0,5.0,no,no,no,NADA,,13. Me gusta cantar o tocar un instrumento con más gente,0.0,NADA,67.0,yes
13,2024-01-12_18h54.43.536,Unsyncopated_study2,s88,23.0,feminino,right,ESPAÑA,"CASTELLANO, CATALAN, ARABE",Master degree,no,no,A,1,when,L4,unsyncopated,when,when,13,Online_whenL4//d.pe16.888.wav,lo,bu,zi,sil,pe,ñi,da,sil1,ci,ña,sil2,['catch'],[1.6096999999999753],[1.6096999999999753],0.888,beat,0.7216999999999753,0.7216999999999753,"[""space""]",pe,4,testWhenL4Uns//r2.s2.2.wav,1.0,when,unsyncopated,b,s2,rule,rule,L4,m,14.432,2.0,0.0,1.6323,5.0,4.0,CASTELLANO,0.0,CATALAN,0.0,ARABE,0.0,FRANCES,2.0,INGLES,5.0,5.0,5.0,no,no,no,NADA,,14. La música me ayuda a desconectar.,4.0,NADA,67.0,yes
14,2024-01-12_18h54.43.536,Unsyncopated_study2,s88,23.0,feminino,right,ESPAÑA,"CASTELLANO, CATALAN, ARABE",Master degree,no,no,A,1,when,L4,unsyncopated,when,when,14,Online_whenL4//d.pe19.none.wav,nu,ci,ñi,sil,de,po,ru,sil1,ña,zi,sil2,['-'],,,none,none,,,,pe,4,testWhenL4Uns//r1.s1.0.wav,1.0,when,unsyncopated,a,s1,rule,rule,L4,z,0.9761,6.0,1.0,1.4429,5.0,4.0,CASTELLANO,0.0,CATALAN,0.0,ARABE,0.0,FRANCES,2.0,INGLES,5.0,5.0,5.0,no,no,no,NADA,,15. No puedo evitar tararear las canciones que me gustan cuando las escucho.,2.0,NADA,67.0,yes
15,2024-01-12_18h54.43.536,Unsyncopated_study2,s88,23.0,feminino,right,ESPAÑA,"CASTELLANO, CATALAN, ARABE",Master degree,no,no,A,1,when,L4,unsyncopated,when,when,15,Online_whenL4//d.pe18.none.wav,zi,re,po,sil,bo,ja,ci,sil1,ru,da,sil2,['false alarm'],[1.8410000000000082],[1.8410000000000082],none,none,,,"[""space""]",pe,4,testWhenL4Uns//time_viol.r1.s2.0.wav,1.0,when,unsyncopated,a,s2,no_rule,time,L4,z,0.6998,5.0,1.0,1.2337,5.0,4.0,CASTELLANO,0.0,CATALAN,0.0,ARABE,0.0,FRANCES,2.0,INGLES,5.0,5.0,5.0,no,no,no,NADA,,16. En los conciertos me siento en sintonía con los artistas y el público.,4.0,NADA,67.0,yes
16,2024-01-12_18h54.43.536,Unsyncopated_study2,s88,23.0,feminino,right,ESPAÑA,"CASTELLANO, CATALAN, ARABE",Master degree,no,no,A,1,when,L4,unsyncopated,when,when,16,Online_whenL4//b.ja0.222.wav,re,ja,da,sil,ci,ru,bo,sil1,bu,lo,sil2,['catch'],[1.0457999999999856],[1.0457999999999856],0.222,no_beat,0.8237999999999857,0.8237999999999857,"[""space""]",ja,1,testWhenL4Uns//r2.s1.2.wav,1.0,when,unsyncopated,b,s1,rule,rule,L4,m,2.4026,4.0,0.0,3.5812,5.0,4.0,CASTELLANO,0.0,CATALAN,0.0,ARABE,0.0,FRANCES,2.0,INGLES,5.0,5.0,5.0,no,no,no,NADA,,17. Me gasto bastante dinero en música y cosas relacionadas con la música.,3.0,NADA,67.0,yes
17,2024-01-12_18h54.43.536,Unsyncopated_study2,s88,23.0,feminino,right,ESPAÑA,"CASTELLANO, CATALAN, ARABE",Master degree,no,no,A,1,when,L4,unsyncopated,when,when,17,Online_whenL4//b.ja2.none.wav,ci,ru,zi,sil,da,de,pe,sil1,re,lo,sil2,['-'],,,none,none,,,,ja,1,testWhenL4Uns//time_viol.r2.s2.0.wav,1.0,when,unsyncopated,b,s2,no_rule,time,L4,z,0.3506,7.0,1.0,2.1692,5.0,4.0,CASTELLANO,0.0,CATALAN,0.0,ARABE,0.0,FRANCES,2.0,INGLES,5.0,5.0,5.0,no,no,no,NADA,,18. Siento escalofríos cuando escucho una melodía que me gusta.,4.0,NADA,67.0,yes
18,2024-01-12_18h54.43.536,Unsyncopated_study2,s88,23.0,feminino,right,ESPAÑA,"CASTELLANO, CATALAN, ARABE",Master degree,no,no,A,1,when,L4,unsyncopated,when,when,18,Online_whenL4//b.ja3.none.wav,nu,da,po,sil,ru,zi,bu,sil1,re,ña,sil2,['-'],,,none,none,,,,ja,1,testWhenL4Uns//dep_viol.r1.s1.0.wav,1.0,when,unsyncopated,a,s1,no_rule,dep,L4,m,1.6877,4.0,0.0,1.2761,5.0,4.0,CASTELLANO,0.0,CATALAN,0.0,ARABE,0.0,FRANCES,2.0,INGLES,5.0,5.0,5.0,no,no,no,NADA,,19. Con la música me puedo desahogar.,4.0,NADA,67.0,yes
19,2024-01-12_18h54.43.536,Unsyncopated_study2,s88,23.0,feminino,right,ESPAÑA,"CASTELLANO, CATALAN, ARABE",Master degree,no,no,A,1,when,L4,unsyncopated,when,when,19,Online_whenL4//b.ja1.none.wav,lo,re,po,sil,bu,de,ña,sil1,da,nu,sil2,['-'],,,none,none,,,,ja,1,testWhenL4Uns//dep_viol.r1.s2.0.wav,1.0,when,unsyncopated,a,s2,no_rule,dep,L4,m,9.9236,3.0,0.0,1.3775,5.0,4.0,CASTELLANO,0.0,CATALAN,0.0,ARABE,0.0,FRANCES,2.0,INGLES,5.0,5.0,5.0,no,no,no,NADA,,20. Cuando escucho una melodía que me gusta mucho no puedo evitar mover el cuerpo.,1.0,NADA,67.0,yes
20,2024-01-12_18h54.43.536,Unsyncopated_study2,s88,23.0,feminino,right,ESPAÑA,"CASTELLANO, CATALAN, ARABE",Master degree,no,no,A,1,when,L4,unsyncopated,when,when,20,Online_whenL4//b.ja29.none.wav,bu,da,nu,sil,ci,ru,ña,sil1,lo,bo,sil2,['-'],,,none,none,,,,ja,1,testWhenL4Uns//cat_viol.r2.s2.0.wav,1.0,when,unsyncopated,b,s2,no_rule,cat,L4,m,4.9508,2.0,0.0,1.6262,5.0,4.0,CASTELLANO,0.0,CATALAN,0.0,ARABE,0.0,FRANCES,2.0,INGLES,5.0,5.0,5.0,no,no,no,NADA,,,,NADA,67.0,yes
21,2024-01-12_18h54.43.536,Unsyncopated_study2,s88,23.0,feminino,right,ESPAÑA,"CASTELLANO, CATALAN, ARABE",Master degree,no,no,A,1,when,L4,unsyncopated,when,when,21,Online_whenL4//b.ja31.1332.wav,ci,re,da,sil,lo,pe,ja,sil1,de,ñi,sil2,['catch'],[2.1878000000000384],[2.1878000000000384],1.332,no_beat,0.8558000000000383,0.8558000000000383,"[""space""]",ja,1,testWhenL4Uns//r2.s2.1.wav,1.0,when,unsyncopated,b,s2,rule,rule,L4,z,1.5692,4.0,1.0,0.8175,5.0,4.0,CASTELLANO,0.0,CATALAN,0.0,ARABE,0.0,FRANCES,2.0,INGLES,5.0,5.0,5.0,no,no,no,NADA,,,,NADA,67.0,yes
22,2024-01-12_18h54.43.536,Unsyncopated_study2,s88,23.0,feminino,right,ESPAÑA,"CASTELLANO, CATALAN, ARABE",Master degree,no,no,A,1,when,L4,unsyncopated,when,when,22,Online_whenL4//b.ja28.1776.wav,ru,po,bu,sil,bo,da,lo,sil1,ja,pe,sil2,['miss'],,,1.776,beat,,,,ja,1,testWhenL4Uns//time_viol.r2.s1.0.wav,1.0,when,unsyncopated,b,s1,no_rule,time,L4,m,1.5013,2.0,0.0,1.3504,5.0,4.0,CASTELLANO,0.0,CATALAN,0.0,ARABE,0.0,FRANCES,2.0,INGLES,5.0,5.0,5.0,no,no,no,NADA,,,,NADA,67.0,yes
23,2024-01-12_18h54.43.536,Unsyncopated_study2,s88,23.0,feminino,right,ESPAÑA,"CASTELLANO, CATALAN, ARABE",Master degree,no,no,A,1,when,L4,unsyncopated,when,when,23,Online_whenL4//b.ja30.none.wav,zi,ci,de,sil,bo,da,lo,sil1,re,bu,sil2,['-'],,,none,none,,,,ja,1,testWhenL4Uns//r1.s2.2.wav,1.0,when,unsyncopated,a,s2,rule,rule,L4,m,1.6109,5.0,0.0,1.8559,5.0,4.0,CASTELLANO,0.0,CATALAN,0.0,ARABE,0.0,FRANCES,2.0,INGLES,5.0,5.0,5.0,no,no,no,NADA,,,,NADA,67.0,yes
24,2024-01-12_18h54.43.536,Unsyncopated_study2,s88,23.0,feminino,right,ESPAÑA,"CASTELLANO, CATALAN, ARABE",Master degree,no,no,A,1,when,L4,unsyncopated,when,when,24,Online_whenL4//c.bu10.0.wav,bu,ñi,da,sil,ña,ja,re,sil1,nu,ci,sil2,['catch'],[0.4782999999999902],[0.4782999999999902],0.0,beat,0.4782999999999902,0.4782999999999902,"[""space""]",bu,3,testWhatL3Uns//cat_viol.r1.s1.0.wav,2.0,what,unsyncopated,a,s1,no_rule,cat,L3,z,1.3746,7.0,0.0,1.2175,5.0,4.0,CASTELLANO,0.0,CATALAN,0.0,ARABE,0.0,FRANCES,2.0,INGLES,5.0,5.0,5.0,no,no,no,NADA,,,,NADA,67.0,yes
25,2024-01-12_18h54.43.536,Unsyncopated_study2,s88,23.0,feminino,right,ESPAÑA,"CASTELLANO, CATALAN, ARABE",Master degree,no,no,A,1,when,L4,unsyncopated,when,when,25,Online_whenL4//c.bu9.444.wav,bo,ja,bu,sil,lo,re,pe,sil1,ci,po,sil2,"['catch', 'false alarm']","[0.7108999999999241, 1.5620000000000118]",[0.7108999999999241],0.444,no_beat,0.2668999999999241,0.2668999999999241,"[""space"",""space""]",bu,3,testWhatL3Uns//r1.s1.1.wav,2.0,what,unsyncopated,a,s1,rule,rule,L3,m,1.9339,7.0,0.0,1.0841,5.0,4.0,CASTELLANO,0.0,CATALAN,0.0,ARABE,0.0,FRANCES,2.0,INGLES,5.0,5.0,5.0,no,no,no,NADA,,,,NADA,67.0,yes
26,2024-01-12_18h54.43.536,Unsyncopated_study2,s88,23.0,feminino,right,ESPAÑA,"CASTELLANO, CATALAN, ARABE",Master degree,no,no,A,1,when,L4,unsyncopated,when,when,26,Online_whenL4//c.bu8.444.wav,nu,bo,bu,sil,ñi,re,zi,sil1,pe,ci,sil2,['catch'],[1.1902999999999793],[1.1902999999999793],0.444,no_beat,0.7462999999999793,0.7462999999999793,"[""space""]",bu,3,testWhatL3Uns//cat_viol.r1.s2.0.wav,2.0,what,unsyncopated,a,s2,no_rule,cat,L3,z,5.2491,3.0,0.0,3.0552,5.0,4.0,CASTELLANO,0.0,CATALAN,0.0,ARABE,0.0,FRANCES,2.0,INGLES,5.0,5.0,5.0,no,no,no,NADA,,,,NADA,67.0,yes
27,2024-01-12_18h54.43.536,Unsyncopated_study2,s88,23.0,feminino,right,ESPAÑA,"CASTELLANO, CATALAN, ARABE",Master degree,no,no,A,1,when,L4,unsyncopated,when,when,27,Online_whenL4//c.bu11.none.wav,ña,pe,re,sil,nu,bo,lo,sil1,ci,de,sil2,['-'],,,none,none,,,,bu,3,testWhatL3Uns//r2.s2.2.wav,2.0,what,unsyncopated,b,s2,rule,rule,L3,m,1.3345,5.0,0.0,1.3897,5.0,4.0,CASTELLANO,0.0,CATALAN,0.0,ARABE,0.0,FRANCES,2.0,INGLES,5.0,5.0,5.0,no,no,no,NADA,,,,NADA,67.0,yes
28,2024-01-12_18h54.43.536,Unsyncopated_study2,s88,23.0,feminino,right,ESPAÑA,"CASTELLANO, CATALAN, ARABE",Master degree,no,no,A,1,when,L4,unsyncopated,when,when,28,Online_whenL4//a.lo22.444.wav,pe,ña,lo,sil,re,ñi,bo,sil1,ru,ja,sil2,['catch'],[1.318599999999833],[1.318599999999833],0.444,no_beat,0.8745999999998331,0.8745999999998331,"[""space""]",lo,2,testWhatL3Uns//dep_viol.r2.s2.0.wav,2.0,what,unsyncopated,b,s2,no_rule,dep,L3,m,3.8842,3.0,1.0,3.8529,5.0,4.0,CASTELLANO,0.0,CATALAN,0.0,ARABE,0.0,FRANCES,2.0,INGLES,5.0,5.0,5.0,no,no,no,NADA,,,,NADA,67.0,yes
29,2024-01-12_18h54.43.536,Unsyncopated_study2,s88,23.0,feminino,right,ESPAÑA,"CASTELLANO, CATALAN, ARABE",Master degree,no,no,A,1,when,L4,unsyncopated,when,when,29,Online_whenL4//a.lo21.1998.wav,ñi,zi,bu,sil,de,ru,po,sil1,ña,lo,sil2,['catch_delay'],[0.9766999999999972],[0.9766999999999972],1.998,no_beat,0.9766999999999972,0.9766999999999972,,lo,2,testWhatL3Uns//r1.s1.0.wav,2.0,what,unsyncopated,a,s1,rule,rule,L3,m,4.1438,3.0,0.0,1.468,5.0,4.0,CASTELLANO,0.0,CATALAN,0.0,ARABE,0.0,FRANCES,2.0,INGLES,5.0,5.0,5.0,no,no,no,NADA,,,,NADA,67.0,yes
30,2024-01-12_18h54.43.536,Unsyncopated_study2,s88,23.0,feminino,right,ESPAÑA,"CASTELLANO, CATALAN, ARABE",Master degree,no,no,A,1,when,L4,unsyncopated,when,when,30,Online_whenL4//a.lo23.1332.wav,nu,ña,ci,sil,re,ñi,lo,sil1,pe,bu,sil2,['catch'],"[0.3106999999999971, 2.223199999999906]",[2.223199999999906],1.332,no_beat,0.8911999999999061,0.8911999999999061,"[""space"",""space""]",lo,2,testWhatL3Uns//time_viol.r1.s1.0.wav,2.0,what,unsyncopated,a,s1,no_rule,time,L3,m,4.7567,3.0,1.0,1.1519,5.0,4.0,CASTELLANO,0.0,CATALAN,0.0,ARABE,0.0,FRANCES,2.0,INGLES,5.0,5.0,5.0,no,no,no,NADA,,,,NADA,67.0,yes
31,2024-01-12_18h54.43.536,Unsyncopated_study2,s88,23.0,feminino,right,ESPAÑA,"CASTELLANO, CATALAN, ARABE",Master degree,no,no,A,1,when,L4,unsyncopated,when,when,31,Online_whenL4//a.lo20.none.wav,re,po,ja,sil,de,ña,nu,sil1,pe,ru,sil2,['-'],,,none,none,,,,lo,2,testWhatL3Uns//dep_viol.r1.s1.0.wav,2.0,what,unsyncopated,a,s1,no_rule,dep,L3,z,0.7005,5.0,0.0,1.5843,5.0,4.0,CASTELLANO,0.0,CATALAN,0.0,ARABE,0.0,FRANCES,2.0,INGLES,5.0,5.0,5.0,no,no,no,NADA,,,,NADA,67.0,yes
32,2024-01-12_18h54.43.536,Unsyncopated_study2,s88,23.0,feminino,right,ESPAÑA,"CASTELLANO, CATALAN, ARABE",Master degree,no,no,A,1,when,L4,unsyncopated,when,when,32,Online_whenL4//a.lo27.none.wav,ci,nu,ñi,sil,da,ru,ja,sil1,po,bu,sil2,['-'],,,none,none,,,,lo,2,testWhatL3Uns//r2.s1.1.wav,2.0,what,unsyncopated,b,s1,rule,rule,L3,z,0.4503,3.0,1.0,1.1732,5.0,4.0,CASTELLANO,0.0,CATALAN,0.0,ARABE,0.0,FRANCES,2.0,INGLES,5.0,5.0,5.0,no,no,no,NADA,,,,NADA,67.0,yes
33,2024-01-12_18h54.43.536,Unsyncopated_study2,s88,23.0,feminino,right,ESPAÑA,"CASTELLANO, CATALAN, ARABE",Master degree,no,no,A,1,when,L4,unsyncopated,when,when,33,Online_whenL4//a.lo24.1776.wav,de,ja,ci,sil,re,ña,po,sil1,lo,bu,sil2,['catch'],[2.4935999999999012],[2.4935999999999012],1.776,beat,0.7175999999999012,0.7175999999999012,"[""space""]",lo,2,testWhatL3Uns//r1.s2.1.wav,2.0,what,unsyncopated,a,s2,rule,rule,L3,m,2.4504,3.0,0.0,0.7672,5.0,4.0,CASTELLANO,0.0,CATALAN,0.0,ARABE,0.0,FRANCES,2.0,INGLES,5.0,5.0,5.0,no,no,no,NADA,,,,NADA,67.0,yes
34,2024-01-12_18h54.43.536,Unsyncopated_study2,s88,23.0,feminino,right,ESPAÑA,"CASTELLANO, CATALAN, ARABE",Master degree,no,no,A,1,when,L4,unsyncopated,when,when,34,Online_whenL4//a.lo26.1998.wav,po,ja,bu,sil,ci,pe,ru,sil1,ñi,lo,sil2,['catch_delay'],[0.9310999999998477],[0.9310999999998477],1.998,no_beat,0.9310999999998476,0.9310999999998476,,lo,2,testWhatL3Uns//r2.s1.0.wav,2.0,what,unsyncopated,b,s1,rule,rule,L3,m,1.8915,6.0,0.0,1.234,5.0,4.0,CASTELLANO,0.0,CATALAN,0.0,ARABE,0.0,FRANCES,2.0,INGLES,5.0,5.0,5.0,no,no,no,NADA,,,,NADA,67.0,yes
35,2024-01-12_18h54.43.536,Unsyncopated_study2,s88,23.0,feminino,right,ESPAÑA,"CASTELLANO, CATALAN, ARABE",Master degree,no,no,A,1,when,L4,unsyncopated,when,when,35,Online_whenL4//a.lo25.none.wav,ñi,ja,ru,sil,bo,ci,ña,sil1,de,zi,sil2,['-'],[0.26509999999984757],[0.26509999999984757],none,none,,,"[""space""]",lo,2,testWhatL3Uns//cat_viol.r2.s2.0.wav,2.0,what,unsyncopated,b,s2,no_rule,cat,L3,z,0.9177,5.0,0.0,3.1007,5.0,4.0,CASTELLANO,0.0,CATALAN,0.0,ARABE,0.0,FRANCES,2.0,INGLES,5.0,5.0,5.0,no,no,no,NADA,,,,NADA,67.0,yes
36,2024-01-12_18h54.43.536,Unsyncopated_study2,s88,23.0,feminino,right,ESPAÑA,"CASTELLANO, CATALAN, ARABE",Master degree,no,no,A,1,when,L4,unsyncopated,when,when,36,Online_whenL4//b.ja26.none.wav,bu,ru,de,sil,zi,bo,re,sil1,ci,nu,sil2,['-'],,,none,none,,,,ja,1,testWhatL3Uns//r1.s2.2.wav,2.0,what,unsyncopated,a,s2,rule,rule,L3,m,3.8645,3.0,0.0,1.2755,5.0,4.0,CASTELLANO,0.0,CATALAN,0.0,ARABE,0.0,FRANCES,2.0,INGLES,5.0,5.0,5.0,no,no,no,NADA,,,,NADA,67.0,yes
37,2024-01-12_18h54.43.536,Unsyncopated_study2,s88,23.0,feminino,right,ESPAÑA,"CASTELLANO, CATALAN, ARABE",Master degree,no,no,A,1,when,L4,unsyncopated,when,when,37,Online_whenL4//b.ja24.444.wav,bu,nu,ja,sil,ci,pe,de,sil1,po,ña,sil2,['catch'],[1.1384000000001606],[1.1384000000001606],0.444,no_beat,0.6944000000001607,0.6944000000001607,"[""space""]",ja,1,testWhatL3Uns//r1.s2.0.wav,2.0,what,unsyncopated,a,s2,rule,rule,L3,z,0.5358,5.0,1.0,1.9726,5.0,4.0,CASTELLANO,0.0,CATALAN,0.0,ARABE,0.0,FRANCES,2.0,INGLES,5.0,5.0,5.0,no,no,no,NADA,,,,NADA,67.0,yes
38,2024-01-12_18h54.43.536,Unsyncopated_study2,s88,23.0,feminino,right,ESPAÑA,"CASTELLANO, CATALAN, ARABE",Master degree,no,no,A,1,when,L4,unsyncopated,when,when,38,Online_whenL4//b.ja27.444.wav,bu,ñi,ja,sil,ci,ru,ña,sil1,bo,zi,sil2,['catch'],[1.063600000000065],[1.063600000000065],0.444,no_beat,0.619600000000065,0.619600000000065,"[""space""]",ja,1,testWhatL3Uns//time_viol.r2.s2.0.wav,2.0,what,unsyncopated,b,s2,no_rule,time,L3,m,0.3849,7.0,1.0,1.2836,5.0,4.0,CASTELLANO,0.0,CATALAN,0.0,ARABE,0.0,FRANCES,2.0,INGLES,5.0,5.0,5.0,no,no,no,NADA,,,,NADA,67.0,yes
39,2024-01-12_18h54.43.536,Unsyncopated_study2,s88,23.0,feminino,right,ESPAÑA,"CASTELLANO, CATALAN, ARABE",Master degree,no,no,A,1,when,L4,unsyncopated,when,when,39,Online_whenL4//b.ja25.none.wav,ru,zi,bo,sil,bu,nu,po,sil1,ñi,re,sil2,['-'],,,none,none,,,,ja,1,testWhatL3Uns//r2.s1.2.wav,2.0,what,unsyncopated,b,s1,rule,rule,L3,m,1.2855,4.0,0.0,2.0175,5.0,4.0,CASTELLANO,0.0,CATALAN,0.0,ARABE,0.0,FRANCES,2.0,INGLES,5.0,5.0,5.0,no,no,no,NADA,,,,NADA,67.0,yes
40,2024-01-12_18h54.43.536,Unsyncopated_study2,s88,23.0,feminino,right,ESPAÑA,"CASTELLANO, CATALAN, ARABE",Master degree,no,no,A,1,when,L4,unsyncopated,when,when,40,Online_whenL4//c.bu4.none.wav,ru,ña,ja,sil,ñi,de,ci,sil1,po,zi,sil2,['-'],,,none,none,,,,bu,3,testWhatL3Uns//time_viol.r1.s2.0.wav,2.0,what,unsyncopated,a,s2,no_rule,time,L3,z,1.1172,4.0,0.0,1.6172,5.0,4.0,CASTELLANO,0.0,CATALAN,0.0,ARABE,0.0,FRANCES,2.0,INGLES,5.0,5.0,5.0,no,no,no,NADA,,,,NADA,67.0,yes
41,2024-01-12_18h54.43.536,Unsyncopated_study2,s88,23.0,feminino,right,ESPAÑA,"CASTELLANO, CATALAN, ARABE",Master degree,no,no,A,1,when,L4,unsyncopated,when,when,41,Online_whenL4//c.bu5.444.wav,ci,ñi,bu,sil,po,nu,ña,sil1,pe,zi,sil2,['catch'],[1.2881999999999607],[1.2881999999999607],0.444,no_beat,0.8441999999999608,0.8441999999999608,"[""space""]",bu,3,testWhatL3Uns//time_viol.r2.s1.0.wav,2.0,what,unsyncopated,b,s1,no_rule,time,L3,m,0.5507,5.0,1.0,1.3673,5.0,4.0,CASTELLANO,0.0,CATALAN,0.0,ARABE,0.0,FRANCES,2.0,INGLES,5.0,5.0,5.0,no,no,no,NADA,,,,NADA,67.0,yes
42,2024-01-12_18h54.43.536,Unsyncopated_study2,s88,23.0,feminino,right,ESPAÑA,"CASTELLANO, CATALAN, ARABE",Master degree,no,no,A,1,when,L4,unsyncopated,when,when,42,Online_whenL4//c.bu7.none.wav,lo,ci,ja,sil,pe,ñi,da,sil1,re,ru,sil2,['-'],,,none,none,,,,bu,3,testWhatL3Uns//dep_viol.r1.s2.0.wav,2.0,what,unsyncopated,a,s2,no_rule,dep,L3,z,0.3739,6.0,0.0,1.2833,5.0,4.0,CASTELLANO,0.0,CATALAN,0.0,ARABE,0.0,FRANCES,2.0,INGLES,5.0,5.0,5.0,no,no,no,NADA,,,,NADA,67.0,yes
43,2024-01-12_18h54.43.536,Unsyncopated_study2,s88,23.0,feminino,right,ESPAÑA,"CASTELLANO, CATALAN, ARABE",Master degree,no,no,A,1,when,L4,unsyncopated,when,when,43,Online_whenL4//c.bu6.none.wav,nu,de,ci,sil,ru,zi,ña,sil1,po,ñi,sil2,['-'],,,none,none,,,,bu,3,testWhatL3Uns//dep_viol.r2.s1.0.wav,2.0,what,unsyncopated,b,s1,no_rule,dep,L3,m,2.5018,3.0,1.0,1.2997,5.0,4.0,CASTELLANO,0.0,CATALAN,0.0,ARABE,0.0,FRANCES,2.0,INGLES,5.0,5.0,5.0,no,no,no,NADA,,,,NADA,67.0,yes
44,2024-01-12_18h54.43.536,Unsyncopated_study2,s88,23.0,feminino,right,ESPAÑA,"CASTELLANO, CATALAN, ARABE",Master degree,no,no,A,1,when,L4,unsyncopated,when,when,44,Online_whenL4//a.lo12.none.wav,nu,bu,zi,sil,ñi,bo,ci,sil1,ru,ña,sil2,['-'],,,none,none,,,,lo,2,testWhatL3Uns//r2.s2.1.wav,2.0,what,unsyncopated,b,s2,rule,rule,L3,m,3.7344,3.0,0.0,1.2009,5.0,4.0,CASTELLANO,0.0,CATALAN,0.0,ARABE,0.0,FRANCES,2.0,INGLES,5.0,5.0,5.0,no,no,no,NADA,,,,NADA,67.0,yes
45,2024-01-12_18h54.43.536,Unsyncopated_study2,s88,23.0,feminino,right,ESPAÑA,"CASTELLANO, CATALAN, ARABE",Master degree,no,no,A,1,when,L4,unsyncopated,when,when,45,Online_whenL4//a.lo14.none.wav,bu,ru,nu,sil,zi,bo,pe,sil1,da,ñi,sil2,['-'],,,none,none,,,,lo,2,testWhatL3Uns//r2.s2.0.wav,2.0,what,unsyncopated,b,s2,rule,rule,L3,z,1.3665,3.0,1.0,1.5239,5.0,4.0,CASTELLANO,0.0,CATALAN,0.0,ARABE,0.0,FRANCES,2.0,INGLES,5.0,5.0,5.0,no,no,no,NADA,,,,NADA,67.0,yes
46,2024-01-12_18h54.43.536,Unsyncopated_study2,s88,23.0,feminino,right,ESPAÑA,"CASTELLANO, CATALAN, ARABE",Master degree,no,no,A,1,when,L4,unsyncopated,when,when,46,Online_whenL4//a.lo15.1776.wav,de,pe,da,sil,ñi,po,re,sil1,lo,ja,sil2,['miss'],,,1.776,beat,,,,lo,2,testWhatL3Uns//r1.s1.2.wav,2.0,what,unsyncopated,a,s1,rule,rule,L3,m,0.9682,5.0,0.0,2.5727,5.0,4.0,CASTELLANO,0.0,CATALAN,0.0,ARABE,0.0,FRANCES,2.0,INGLES,5.0,5.0,5.0,no,no,no,NADA,,,,NADA,67.0,yes
47,2024-01-12_18h54.43.536,Unsyncopated_study2,s88,23.0,feminino,right,ESPAÑA,"CASTELLANO, CATALAN, ARABE",Master degree,no,no,A,1,when,L4,unsyncopated,when,when,47,Online_whenL4//a.lo13.1776.wav,re,ña,ru,sil,ci,ja,ñi,sil1,lo,pe,sil2,['miss'],,,1.776,beat,,,,lo,2,testWhatL3Uns//cat_viol.r2.s1.0.wav,2.0,what,unsyncopated,b,s1,no_rule,cat,L3,z,1.7765,3.0,0.0,1.6734,5.0,4.0,CASTELLANO,0.0,CATALAN,0.0,ARABE,0.0,FRANCES,2.0,INGLES,5.0,5.0,5.0,no,no,no,NADA,,,,NADA,67.0,yes
48,2024-01-12_18h54.43.536,Unsyncopated_study2,s88,23.0,feminino,right,ESPAÑA,"CASTELLANO, CATALAN, ARABE",Master degree,no,no,A,1,when,L4,unsyncopated,when,when,48,Online_whenL4//c.bu2.1110.wav,lo,bo,ci,sil,da,bu,ñi,sil1,ja,de,sil2,"['false alarm', 'catch']","[0.3308000000000675, 2.2315000000000964]",[2.2315000000000964],1.11,no_beat,1.1215000000000963,1.1215000000000963,"[""space"",""space""]",bu,3,testConjL1Syn//time_viol.r2.s1.0.wav,3.0,conjunction_syn,syncopated,b,s1,no_rule,time,L1,z,1.1043,7.0,0.0,1.0892,5.0,4.0,CASTELLANO,0.0,CATALAN,0.0,ARABE,0.0,FRANCES,2.0,INGLES,5.0,5.0,5.0,no,no,no,NADA,,,,NADA,67.0,yes
49,2024-01-12_18h54.43.536,Unsyncopated_study2,s88,23.0,feminino,right,ESPAÑA,"CASTELLANO, CATALAN, ARABE",Master degree,no,no,A,1,when,L4,unsyncopated,when,when,49,Online_whenL4//c.bu0.888.wav,ci,ñi,ja,sil,bu,da,ru,sil1,po,nu,sil2,['catch'],[1.6310000000000855],[1.6310000000000855],0.888,beat,0.7430000000000855,0.7430000000000855,"[""space""]",bu,3,testConjL1Syn//cat_viol.r2.s1.0.wav,3.0,conjunction_syn,syncopated,b,s1,no_rule,cat,L1,m,0.701,6.0,1.0,1.4024,5.0,4.0,CASTELLANO,0.0,CATALAN,0.0,ARABE,0.0,FRANCES,2.0,INGLES,5.0,5.0,5.0,no,no,no,NADA,,,,NADA,67.0,yes
50,2024-01-12_18h54.43.536,Unsyncopated_study2,s88,23.0,feminino,right,ESPAÑA,"CASTELLANO, CATALAN, ARABE",Master degree,no,no,A,1,when,L4,unsyncopated,when,when,50,Online_whenL4//c.bu1.none.wav,lo,pe,po,sil,ci,ja,de,sil1,bo,ru,sil2,['-'],,,none,none,,,,bu,3,testConjL1Syn//r1.s2.1.wav,3.0,conjunction_syn,syncopated,a,s2,rule,rule,L1,m,1.3421,6.0,0.0,1.4919,5.0,4.0,CASTELLANO,0.0,CATALAN,0.0,ARABE,0.0,FRANCES,2.0,INGLES,5.0,5.0,5.0,no,no,no,NADA,,,,NADA,67.0,yes
51,2024-01-12_18h54.43.536,Unsyncopated_study2,s88,23.0,feminino,right,ESPAÑA,"CASTELLANO, CATALAN, ARABE",Master degree,no,no,A,1,when,L4,unsyncopated,when,when,51,Online_whenL4//c.bu3.none.wav,ja,de,pe,sil,ña,ñi,bo,sil1,nu,po,sil2,"['false alarm', 'false alarm']","[0.013199999999983447, 2.14650000000006]",2.14650000000006,none,none,,,"[""space"",""space""]",bu,3,testConjL1Syn//r1.s1.2.wav,3.0,conjunction_syn,syncopated,a,s1,rule,rule,L1,m,1.3749,6.0,0.0,1.1489,5.0,4.0,CASTELLANO,0.0,CATALAN,0.0,ARABE,0.0,FRANCES,2.0,INGLES,5.0,5.0,5.0,no,no,no,NADA,,,,NADA,67.0,yes
52,2024-01-12_18h54.43.536,Unsyncopated_study2,s88,23.0,feminino,right,ESPAÑA,"CASTELLANO, CATALAN, ARABE",Master degree,no,no,A,1,when,L4,unsyncopated,when,when,52,Online_whenL4//b.ja17.none.wav,pe,ru,ñi,sil,zi,lo,re,sil1,de,bu,sil2,['-'],,,none,none,,,,ja,1,testConjL1Syn//r2.s1.2.wav,3.0,conjunction_syn,syncopated,b,s1,rule,rule,L1,m,1.989,6.0,0.0,1.253,5.0,4.0,CASTELLANO,0.0,CATALAN,0.0,ARABE,0.0,FRANCES,2.0,INGLES,5.0,5.0,5.0,no,no,no,NADA,,,,NADA,67.0,yes
53,2024-01-12_18h54.43.536,Unsyncopated_study2,s88,23.0,feminino,right,ESPAÑA,"CASTELLANO, CATALAN, ARABE",Master degree,no,no,A,1,when,L4,unsyncopated,when,when,53,Online_whenL4//b.ja19.none.wav,ñi,da,nu,sil,ña,bo,de,sil1,po,lo,sil2,['-'],,,none,none,,,,ja,1,testConjL1Syn//time_viol.r1.s1.0.wav,3.0,conjunction_syn,syncopated,a,s1,no_rule,time,L1,m,1.1664,5.0,1.0,1.0499,5.0,4.0,CASTELLANO,0.0,CATALAN,0.0,ARABE,0.0,FRANCES,2.0,INGLES,5.0,5.0,5.0,no,no,no,NADA,,,,NADA,67.0,yes
54,2024-01-12_18h54.43.536,Unsyncopated_study2,s88,23.0,feminino,right,ESPAÑA,"CASTELLANO, CATALAN, ARABE",Master degree,no,no,A,1,when,L4,unsyncopated,when,when,54,Online_whenL4//b.ja18.none.wav,bo,re,ru,sil,de,lo,zi,sil1,ci,ña,sil2,['-'],,,none,none,,,,ja,1,testConjL1Syn//r1.s1.1.wav,3.0,conjunction_syn,syncopated,a,s1,rule,rule,L1,z,1.1233,4.0,1.0,2.2683,5.0,4.0,CASTELLANO,0.0,CATALAN,0.0,ARABE,0.0,FRANCES,2.0,INGLES,5.0,5.0,5.0,no,no,no,NADA,,,,NADA,67.0,yes
55,2024-01-12_18h54.43.536,Unsyncopated_study2,s88,23.0,feminino,right,ESPAÑA,"CASTELLANO, CATALAN, ARABE",Master degree,no,no,A,1,when,L4,unsyncopated,when,when,55,Online_whenL4//b.ja16.1110.wav,re,ci,bu,sil,de,ja,ru,sil1,pe,nu,sil2,['catch'],[1.8718999999998687],[1.8718999999998687],1.11,no_beat,0.7618999999998686,0.7618999999998686,"[""space""]",ja,1,testConjL1Syn//cat_viol.r1.s2.0.wav,3.0,conjunction_syn,syncopated,a,s2,no_rule,cat,L1,z,2.9849,3.0,0.0,1.5982,5.0,4.0,CASTELLANO,0.0,CATALAN,0.0,ARABE,0.0,FRANCES,2.0,INGLES,5.0,5.0,5.0,no,no,no,NADA,,,,NADA,67.0,yes
56,2024-01-12_18h54.43.536,Unsyncopated_study2,s88,23.0,feminino,right,ESPAÑA,"CASTELLANO, CATALAN, ARABE",Master degree,no,no,A,1,when,L4,unsyncopated,when,when,56,Online_whenL4//c.bu27.0.wav,bu,de,zi,sil,ja,da,ru,sil1,bo,po,sil2,['catch'],[1.0470000000000255],[1.0470000000000255],0.0,beat,1.0470000000000257,1.0470000000000257,"[""space""]",bu,3,testConjL1Syn//r2.s1.1.wav,3.0,conjunction_syn,syncopated,b,s1,rule,rule,L1,z,0.8839,6.0,1.0,1.1515,5.0,4.0,CASTELLANO,0.0,CATALAN,0.0,ARABE,0.0,FRANCES,2.0,INGLES,5.0,5.0,5.0,no,no,no,NADA,,,,NADA,67.0,yes
57,2024-01-12_18h54.43.536,Unsyncopated_study2,s88,23.0,feminino,right,ESPAÑA,"CASTELLANO, CATALAN, ARABE",Master degree,no,no,A,1,when,L4,unsyncopated,when,when,57,Online_whenL4//c.bu26.none.wav,po,da,ña,sil,zi,ru,lo,sil1,ci,re,sil2,['-'],,,none,none,,,,bu,3,testConjL1Syn//r2.s2.2.wav,3.0,conjunction_syn,syncopated,b,s2,rule,rule,L1,z,4.6757,6.0,1.0,2.1354,5.0,4.0,CASTELLANO,0.0,CATALAN,0.0,ARABE,0.0,FRANCES,2.0,INGLES,5.0,5.0,5.0,no,no,no,NADA,,,,NADA,67.0,yes
58,2024-01-12_18h54.43.536,Unsyncopated_study2,s88,23.0,feminino,right,ESPAÑA,"CASTELLANO, CATALAN, ARABE",Master degree,no,no,A,1,when,L4,unsyncopated,when,when,58,Online_whenL4//c.bu24.1998.wav,lo,po,ci,sil,nu,re,ñi,sil1,pe,bu,sil2,['miss'],,,1.998,no_beat,,,,bu,3,testConjL1Syn//dep_viol.r1.s1.0.wav,3.0,conjunction_syn,syncopated,a,s1,no_rule,dep,L1,m,1.2706,5.0,1.0,1.4186,5.0,4.0,CASTELLANO,0.0,CATALAN,0.0,ARABE,0.0,FRANCES,2.0,INGLES,5.0,5.0,5.0,no,no,no,NADA,,,,NADA,67.0,yes
59,2024-01-12_18h54.43.536,Unsyncopated_study2,s88,23.0,feminino,right,ESPAÑA,"CASTELLANO, CATALAN, ARABE",Master degree,no,no,A,1,when,L4,unsyncopated,when,when,59,Online_whenL4//c.bu25.222.wav,ña,bu,de,sil,da,po,lo,sil1,ja,pe,sil2,"['catch', 'false alarm']","[0.31179999999983465, 1.088200000000029]",[0.31179999999983465],0.222,no_beat,0.0897999999998346,0.0897999999998346,"[""space"",""space""]",bu,3,testConjL1Syn//r2.s2.0.wav,3.0,conjunction_syn,syncopated,b,s2,rule,rule,L1,m,5.5752,4.0,0.0,1.0941,5.0,4.0,CASTELLANO,0.0,CATALAN,0.0,ARABE,0.0,FRANCES,2.0,INGLES,5.0,5.0,5.0,no,no,no,NADA,,,,NADA,67.0,yes
60,2024-01-12_18h54.43.536,Unsyncopated_study2,s88,23.0,feminino,right,ESPAÑA,"CASTELLANO, CATALAN, ARABE",Master degree,no,no,A,1,when,L4,unsyncopated,when,when,60,Online_whenL4//d.pe9.none.wav,de,bu,da,sil,zi,ña,nu,sil1,ci,re,sil2,['-'],,,none,none,,,,pe,4,testConjL1Syn//time_viol.r2.s2.0.wav,3.0,conjunction_syn,syncopated,b,s2,no_rule,time,L1,m,1.1078,4.0,1.0,1.9507,5.0,4.0,CASTELLANO,0.0,CATALAN,0.0,ARABE,0.0,FRANCES,2.0,INGLES,5.0,5.0,5.0,no,no,no,NADA,,,,NADA,67.0,yes
61,2024-01-12_18h54.43.536,Unsyncopated_study2,s88,23.0,feminino,right,ESPAÑA,"CASTELLANO, CATALAN, ARABE",Master degree,no,no,A,1,when,L4,unsyncopated,when,when,61,Online_whenL4//d.pe11.none.wav,re,da,zi,sil,bu,lo,ña,sil1,ci,po,sil2,['false alarm'],[2.6093000000000757],[2.6093000000000757],none,none,,,"[""space""]",pe,4,testConjL1Syn//r1.s2.2.wav,3.0,conjunction_syn,syncopated,a,s2,rule,rule,L1,z,0.6016,5.0,1.0,1.2418,5.0,4.0,CASTELLANO,0.0,CATALAN,0.0,ARABE,0.0,FRANCES,2.0,INGLES,5.0,5.0,5.0,no,no,no,NADA,,,,NADA,67.0,yes
62,2024-01-12_18h54.43.536,Unsyncopated_study2,s88,23.0,feminino,right,ESPAÑA,"CASTELLANO, CATALAN, ARABE",Master degree,no,no,A,1,when,L4,unsyncopated,when,when,62,Online_whenL4//d.pe10.888.wav,da,zi,po,sil,pe,lo,ru,sil1,ci,re,sil2,['miss'],,,0.888,beat,,,,pe,4,testConjL1Syn//dep_viol.r2.s1.0.wav,3.0,conjunction_syn,syncopated,b,s1,no_rule,dep,L1,z,5.8857,1.0,0.0,0.9167,5.0,4.0,CASTELLANO,0.0,CATALAN,0.0,ARABE,0.0,FRANCES,2.0,INGLES,5.0,5.0,5.0,no,no,no,NADA,,,,NADA,67.0,yes
63,2024-01-12_18h54.43.536,Unsyncopated_study2,s88,23.0,feminino,right,ESPAÑA,"CASTELLANO, CATALAN, ARABE",Master degree,no,no,A,1,when,L4,unsyncopated,when,when,63,Online_whenL4//d.pe8.1998.wav,bo,ru,ña,sil,nu,ñi,ja,sil1,po,pe,sil2,['miss'],,,1.998,no_beat,,,,pe,4,testConjL1Syn//cat_viol.r2.s2.0.wav,3.0,conjunction_syn,syncopated,b,s2,no_rule,cat,L1,z,0.7854,1.0,0.0,0.7061,5.0,4.0,CASTELLANO,0.0,CATALAN,0.0,ARABE,0.0,FRANCES,2.0,INGLES,5.0,5.0,5.0,no,no,no,NADA,,,,NADA,67.0,yes
64,2024-01-12_18h54.43.536,Unsyncopated_study2,s88,23.0,feminino,right,ESPAÑA,"CASTELLANO, CATALAN, ARABE",Master degree,no,no,A,1,when,L4,unsyncopated,when,when,64,Online_whenL4//a.lo11.0.wav,lo,ci,pe,sil,ñi,de,zi,sil1,ru,da,sil2,['catch'],[0.980199999999968],[0.980199999999968],0.0,beat,0.980199999999968,0.980199999999968,"[""space""]",lo,2,testConjL1Syn//dep_viol.r2.s2.0.wav,3.0,conjunction_syn,syncopated,b,s2,no_rule,dep,L1,m,0.4186,5.0,1.0,1.2748,5.0,4.0,CASTELLANO,0.0,CATALAN,0.0,ARABE,0.0,FRANCES,2.0,INGLES,5.0,5.0,5.0,no,no,no,NADA,,,,NADA,67.0,yes
65,2024-01-12_18h54.43.536,Unsyncopated_study2,s88,23.0,feminino,right,ESPAÑA,"CASTELLANO, CATALAN, ARABE",Master degree,no,no,A,1,when,L4,unsyncopated,when,when,65,Online_whenL4//a.lo9.none.wav,bo,ci,po,sil,de,zi,ñi,sil1,ja,ña,sil2,['-'],,,none,none,,,,lo,2,testConjL1Syn//r1.s2.0.wav,3.0,conjunction_syn,syncopated,a,s2,rule,rule,L1,m,0.7509,5.0,0.0,0.8532,5.0,4.0,CASTELLANO,0.0,CATALAN,0.0,ARABE,0.0,FRANCES,2.0,INGLES,5.0,5.0,5.0,no,no,no,NADA,,,,NADA,67.0,yes
66,2024-01-12_18h54.43.536,Unsyncopated_study2,s88,23.0,feminino,right,ESPAÑA,"CASTELLANO, CATALAN, ARABE",Master degree,no,no,A,1,when,L4,unsyncopated,when,when,66,Online_whenL4//a.lo10.none.wav,pe,da,re,sil,de,ja,zi,sil1,bu,po,sil2,['-'],,,none,none,,,,lo,2,testConjL1Syn//r2.s2.1.wav,3.0,conjunction_syn,syncopated,b,s2,rule,rule,L1,z,1.1336,3.0,1.0,1.1345,5.0,4.0,CASTELLANO,0.0,CATALAN,0.0,ARABE,0.0,FRANCES,2.0,INGLES,5.0,5.0,5.0,no,no,no,NADA,,,,NADA,67.0,yes
67,2024-01-12_18h54.43.536,Unsyncopated_study2,s88,23.0,feminino,right,ESPAÑA,"CASTELLANO, CATALAN, ARABE",Master degree,no,no,A,1,when,L4,unsyncopated,when,when,67,Online_whenL4//a.lo8.0.wav,lo,ñi,nu,sil,de,bo,pe,sil1,da,bu,sil2,['catch'],[1.0810000000000173],[1.0810000000000173],0.0,beat,1.0810000000000173,1.0810000000000173,"[""space""]",lo,2,testConjL1Syn//r2.s1.0.wav,3.0,conjunction_syn,syncopated,b,s1,rule,rule,L1,m,1.5882,4.0,0.0,1.1428,5.0,4.0,CASTELLANO,0.0,CATALAN,0.0,ARABE,0.0,FRANCES,2.0,INGLES,5.0,5.0,5.0,no,no,no,NADA,,,,NADA,67.0,yes
68,2024-01-12_18h54.43.536,Unsyncopated_study2,s88,23.0,feminino,right,ESPAÑA,"CASTELLANO, CATALAN, ARABE",Master degree,no,no,A,1,when,L4,unsyncopated,when,when,68,Online_whenL4//d.pe30.none.wav,ru,lo,po,sil,nu,de,da,sil1,ña,ñi,sil2,['-'],,,none,none,,,,pe,4,testConjL1Syn//time_viol.r1.s2.0.wav,3.0,conjunction_syn,syncopated,a,s2,no_rule,time,L1,m,1.6706,5.0,1.0,0.793,5.0,4.0,CASTELLANO,0.0,CATALAN,0.0,ARABE,0.0,FRANCES,2.0,INGLES,5.0,5.0,5.0,no,no,no,NADA,,,,NADA,67.0,yes
69,2024-01-12_18h54.43.536,Unsyncopated_study2,s88,23.0,feminino,right,ESPAÑA,"CASTELLANO, CATALAN, ARABE",Master degree,no,no,A,1,when,L4,unsyncopated,when,when,69,Online_whenL4//d.pe31.1332.wav,bu,re,ru,sil,ja,de,pe,sil1,ci,zi,sil2,['catch'],[2.188199999999938],[2.188199999999938],1.332,no_beat,0.8561999999999379,0.8561999999999379,"[""space""]",pe,4,testConjL1Syn//cat_viol.r1.s1.0.wav,3.0,conjunction_syn,syncopated,a,s1,no_rule,cat,L1,m,1.3531,5.0,1.0,0.5023,5.0,4.0,CASTELLANO,0.0,CATALAN,0.0,ARABE,0.0,FRANCES,2.0,INGLES,5.0,5.0,5.0,no,no,no,NADA,,,,NADA,67.0,yes
70,2024-01-12_18h54.43.536,Unsyncopated_study2,s88,23.0,feminino,right,ESPAÑA,"CASTELLANO, CATALAN, ARABE",Master degree,no,no,A,1,when,L4,unsyncopated,when,when,70,Online_whenL4//d.pe28.none.wav,bo,nu,lo,sil,ru,re,bu,sil1,po,da,sil2,['-'],,,none,none,,,,pe,4,testConjL1Syn//r1.s1.0.wav,3.0,conjunction_syn,syncopated,a,s1,rule,rule,L1,m,0.7179,6.0,0.0,2.4051,5.0,4.0,CASTELLANO,0.0,CATALAN,0.0,ARABE,0.0,FRANCES,2.0,INGLES,5.0,5.0,5.0,no,no,no,NADA,,,,NADA,67.0,yes
71,2024-01-12_18h54.43.536,Unsyncopated_study2,s88,23.0,feminino,right,ESPAÑA,"CASTELLANO, CATALAN, ARABE",Master degree,no,no,A,1,when,L4,unsyncopated,when,when,71,Online_whenL4//d.pe29.none.wav,da,po,ja,sil,bu,bo,lo,sil1,ña,de,sil2,['false alarm'],[0.5281000000001086],[0.5281000000001086],none,none,,,"[""space""]",pe,4,testConjL1Syn//dep_viol.r1.s2.0.wav,3.0,conjunction_syn,syncopated,a,s2,no_rule,dep,L1,m,1.726,3.0,1.0,0.8336,5.0,4.0,CASTELLANO,0.0,CATALAN,0.0,ARABE,0.0,FRANCES,2.0,INGLES,5.0,5.0,5.0,no,no,no,NADA,,,,NADA,67.0,yes
72,2024-01-12_18h54.43.536,Unsyncopated_study2,s88,23.0,feminino,right,ESPAÑA,"CASTELLANO, CATALAN, ARABE",Master degree,no,no,A,1,when,L4,unsyncopated,when,when,72,Online_whenL4//c.bu29.none.wav,ja,nu,po,sil,da,re,de,sil1,ru,ci,sil2,['-'],,,none,none,,,,bu,3,testConjL2Uns//r2.s1.2.wav,4.0,conjunction_un,unsyncopated,b,s1,rule,rule,L2,z,1.2087,7.0,1.0,1.1897,5.0,4.0,CASTELLANO,0.0,CATALAN,0.0,ARABE,0.0,FRANCES,2.0,INGLES,5.0,5.0,5.0,no,no,no,NADA,,,,NADA,67.0,yes
73,2024-01-12_18h54.43.536,Unsyncopated_study2,s88,23.0,feminino,right,ESPAÑA,"CASTELLANO, CATALAN, ARABE",Master degree,no,no,A,1,when,L4,unsyncopated,when,when,73,Online_whenL4//c.bu28.1998.wav,ñi,re,ru,sil,ja,zi,ña,sil1,pe,bu,sil2,['catch_delay'],[0.7278000000000622],[0.7278000000000622],1.998,no_beat,0.7278000000000622,0.7278000000000622,,bu,3,testConjL2Uns//time_viol.r1.s1.0.wav,4.0,conjunction_un,unsyncopated,a,s1,no_rule,time,L2,m,5.4331,2.0,1.0,1.6495,5.0,4.0,CASTELLANO,0.0,CATALAN,0.0,ARABE,0.0,FRANCES,2.0,INGLES,5.0,5.0,5.0,no,no,no,NADA,,,,NADA,67.0,yes
74,2024-01-12_18h54.43.536,Unsyncopated_study2,s88,23.0,feminino,right,ESPAÑA,"CASTELLANO, CATALAN, ARABE",Master degree,no,no,A,1,when,L4,unsyncopated,when,when,74,Online_whenL4//c.bu30.none.wav,ña,ru,lo,sil,bo,ci,ñi,sil1,nu,po,sil2,['-'],[0.06180000000006203],[0.06180000000006203],none,none,,,"[""space""]",bu,3,testConjL2Uns//dep_viol.r2.s2.0.wav,4.0,conjunction_un,unsyncopated,b,s2,no_rule,dep,L2,m,2.7672,4.0,1.0,1.5987,5.0,4.0,CASTELLANO,0.0,CATALAN,0.0,ARABE,0.0,FRANCES,2.0,INGLES,5.0,5.0,5.0,no,no,no,NADA,,,,NADA,67.0,yes
75,2024-01-12_18h54.43.536,Unsyncopated_study2,s88,23.0,feminino,right,ESPAÑA,"CASTELLANO, CATALAN, ARABE",Master degree,no,no,A,1,when,L4,unsyncopated,when,when,75,Online_whenL4//c.bu31.none.wav,ru,bo,ci,sil,lo,po,pe,sil1,zi,ña,sil2,['-'],,,none,none,,,,bu,3,testConjL2Uns//time_viol.r1.s2.0.wav,4.0,conjunction_un,unsyncopated,a,s2,no_rule,time,L2,z,1.1507,5.0,0.0,1.4738,5.0,4.0,CASTELLANO,0.0,CATALAN,0.0,ARABE,0.0,FRANCES,2.0,INGLES,5.0,5.0,5.0,no,no,no,NADA,,,,NADA,67.0,yes
76,2024-01-12_18h54.43.536,Unsyncopated_study2,s88,23.0,feminino,right,ESPAÑA,"CASTELLANO, CATALAN, ARABE",Master degree,no,no,A,1,when,L4,unsyncopated,when,when,76,Online_whenL4//b.ja35.1998.wav,ru,re,da,sil,lo,bo,ña,sil1,po,ja,sil2,['catch_delay'],[0.8669999999999083],[0.8669999999999083],1.998,no_beat,0.8669999999999083,0.8669999999999083,,ja,1,testConjL2Uns//r1.s2.2.wav,4.0,conjunction_un,unsyncopated,a,s2,rule,rule,L2,m,1.1161,4.0,0.0,1.6401,5.0,4.0,CASTELLANO,0.0,CATALAN,0.0,ARABE,0.0,FRANCES,2.0,INGLES,5.0,5.0,5.0,no,no,no,NADA,,,,NADA,67.0,yes
77,2024-01-12_18h54.43.536,Unsyncopated_study2,s88,23.0,feminino,right,ESPAÑA,"CASTELLANO, CATALAN, ARABE",Master degree,no,no,A,1,when,L4,unsyncopated,when,when,77,Online_whenL4//b.ja32.none.wav,ru,bu,de,sil,ña,lo,nu,sil1,re,ci,sil2,['-'],[0.20099999999990814],[0.20099999999990814],none,none,,,"[""space""]",ja,1,testConjL2Uns//cat_viol.r1.s1.0.wav,4.0,conjunction_un,unsyncopated,a,s1,no_rule,cat,L2,z,0.822,4.0,0.0,1.3667,5.0,4.0,CASTELLANO,0.0,CATALAN,0.0,ARABE,0.0,FRANCES,2.0,INGLES,5.0,5.0,5.0,no,no,no,NADA,,,,NADA,67.0,yes
78,2024-01-12_18h54.43.536,Unsyncopated_study2,s88,23.0,feminino,right,ESPAÑA,"CASTELLANO, CATALAN, ARABE",Master degree,no,no,A,1,when,L4,unsyncopated,when,when,78,Online_whenL4//b.ja34.1776.wav,re,bo,da,sil,zi,bu,ña,sil1,ja,ci,sil2,['catch'],[2.457499999999982],[2.457499999999982],1.776,beat,0.6814999999999818,0.6814999999999818,"[""space""]",ja,1,testConjL2Uns//time_viol.r2.s2.0.wav,4.0,conjunction_un,unsyncopated,b,s2,no_rule,time,L2,m,0.976,5.0,1.0,0.8089,5.0,4.0,CASTELLANO,0.0,CATALAN,0.0,ARABE,0.0,FRANCES,2.0,INGLES,5.0,5.0,5.0,no,no,no,NADA,,,,NADA,67.0,yes
79,2024-01-12_18h54.43.536,Unsyncopated_study2,s88,23.0,feminino,right,ESPAÑA,"CASTELLANO, CATALAN, ARABE",Master degree,no,no,A,1,when,L4,unsyncopated,when,when,79,Online_whenL4//b.ja33.none.wav,ci,po,nu,sil,ñi,zi,pe,sil1,re,bu,sil2,['-'],,,none,none,,,,ja,1,testConjL2Uns//cat_viol.r2.s2.0.wav,4.0,conjunction_un,unsyncopated,b,s2,no_rule,cat,L2,m,0.5416,7.0,1.0,0.5177,5.0,4.0,CASTELLANO,0.0,CATALAN,0.0,ARABE,0.0,FRANCES,2.0,INGLES,5.0,5.0,5.0,no,no,no,NADA,,,,NADA,67.0,yes
80,2024-01-12_18h54.43.536,Unsyncopated_study2,s88,23.0,feminino,right,ESPAÑA,"CASTELLANO, CATALAN, ARABE",Master degree,no,no,A,1,when,L4,unsyncopated,when,when,80,Online_whenL4//d.pe23.444.wav,po,ja,pe,sil,de,ru,re,sil1,lo,bo,sil2,['miss'],,,0.444,no_beat,,,,pe,4,testConjL2Uns//cat_viol.r1.s2.0.wav,4.0,conjunction_un,unsyncopated,a,s2,no_rule,cat,L2,z,2.7639,3.0,0.0,2.0919,5.0,4.0,CASTELLANO,0.0,CATALAN,0.0,ARABE,0.0,FRANCES,2.0,INGLES,5.0,5.0,5.0,no,no,no,NADA,,,,NADA,67.0,yes
81,2024-01-12_18h54.43.536,Unsyncopated_study2,s88,23.0,feminino,right,ESPAÑA,"CASTELLANO, CATALAN, ARABE",Master degree,no,no,A,1,when,L4,unsyncopated,when,when,81,Online_whenL4//d.pe21.none.wav,ci,lo,bu,sil,ña,po,ja,sil1,bo,ru,sil2,['-'],,,none,none,,,,pe,4,testConjL2Uns//r1.s1.2.wav,4.0,conjunction_un,unsyncopated,a,s1,rule,rule,L2,z,1.1838,2.0,1.0,1.2073,5.0,4.0,CASTELLANO,0.0,CATALAN,0.0,ARABE,0.0,FRANCES,2.0,INGLES,5.0,5.0,5.0,no,no,no,NADA,,,,NADA,67.0,yes
82,2024-01-12_18h54.43.536,Unsyncopated_study2,s88,23.0,feminino,right,ESPAÑA,"CASTELLANO, CATALAN, ARABE",Master degree,no,no,A,1,when,L4,unsyncopated,when,when,82,Online_whenL4//d.pe20.none.wav,bu,lo,po,sil,ru,ñi,ja,sil1,ña,de,sil2,['-'],,,none,none,,,,pe,4,testConjL2Uns//r2.s2.0.wav,4.0,conjunction_un,unsyncopated,b,s2,rule,rule,L2,m,1.1341,5.0,0.0,1.8332,5.0,4.0,CASTELLANO,0.0,CATALAN,0.0,ARABE,0.0,FRANCES,2.0,INGLES,5.0,5.0,5.0,no,no,no,NADA,,,,NADA,67.0,yes
83,2024-01-12_18h54.43.536,Unsyncopated_study2,s88,23.0,feminino,right,ESPAÑA,"CASTELLANO, CATALAN, ARABE",Master degree,no,no,A,1,when,L4,unsyncopated,when,when,83,Online_whenL4//d.pe22.0.wav,pe,zi,ña,sil,lo,ci,ñi,sil1,re,da,sil2,['catch'],[0.7479999999999336],[0.7479999999999336],0.0,beat,0.7479999999999336,0.7479999999999336,"[""space""]",pe,4,testConjL2Uns//dep_viol.r2.s1.0.wav,4.0,conjunction_un,unsyncopated,b,s1,no_rule,dep,L2,m,1.8072,2.0,1.0,0.9485,5.0,4.0,CASTELLANO,0.0,CATALAN,0.0,ARABE,0.0,FRANCES,2.0,INGLES,5.0,5.0,5.0,no,no,no,NADA,,,,NADA,67.0,yes
84,2024-01-12_18h54.43.536,Unsyncopated_study2,s88,23.0,feminino,right,ESPAÑA,"CASTELLANO, CATALAN, ARABE",Master degree,no,no,A,1,when,L4,unsyncopated,when,when,84,Online_whenL4//b.ja5.none.wav,re,pe,ña,sil,bu,po,ci,sil1,lo,nu,sil2,['-'],,,none,none,,,,ja,1,testConjL2Uns//r2.s2.1.wav,4.0,conjunction_un,unsyncopated,b,s2,rule,rule,L2,m,1.7546,5.0,0.0,0.8337,5.0,4.0,CASTELLANO,0.0,CATALAN,0.0,ARABE,0.0,FRANCES,2.0,INGLES,5.0,5.0,5.0,no,no,no,NADA,,,,NADA,67.0,yes
85,2024-01-12_18h54.43.536,Unsyncopated_study2,s88,23.0,feminino,right,ESPAÑA,"CASTELLANO, CATALAN, ARABE",Master degree,no,no,A,1,when,L4,unsyncopated,when,when,85,Online_whenL4//b.ja4.none.wav,ñi,nu,ru,sil,po,de,da,sil1,re,lo,sil2,['-'],,,none,none,,,,ja,1,testConjL2Uns//r1.s1.1.wav,4.0,conjunction_un,unsyncopated,a,s1,rule,rule,L2,m,4.1071,1.0,0.0,0.6901,5.0,4.0,CASTELLANO,0.0,CATALAN,0.0,ARABE,0.0,FRANCES,2.0,INGLES,5.0,5.0,5.0,no,no,no,NADA,,,,NADA,67.0,yes
86,2024-01-12_18h54.43.536,Unsyncopated_study2,s88,23.0,feminino,right,ESPAÑA,"CASTELLANO, CATALAN, ARABE",Master degree,no,no,A,1,when,L4,unsyncopated,when,when,86,Online_whenL4//b.ja7.none.wav,de,bo,zi,sil,ru,pe,da,sil1,po,nu,sil2,['-'],,,none,none,,,,ja,1,testConjL2Uns//dep_viol.r1.s2.0.wav,4.0,conjunction_un,unsyncopated,a,s2,no_rule,dep,L2,m,1.6,2.0,1.0,1.6391,5.0,4.0,CASTELLANO,0.0,CATALAN,0.0,ARABE,0.0,FRANCES,2.0,INGLES,5.0,5.0,5.0,no,no,no,NADA,,,,NADA,67.0,yes
87,2024-01-12_18h54.43.536,Unsyncopated_study2,s88,23.0,feminino,right,ESPAÑA,"CASTELLANO, CATALAN, ARABE",Master degree,no,no,A,1,when,L4,unsyncopated,when,when,87,Online_whenL4//b.ja6.1332.wav,pe,ña,de,sil,bo,ci,ja,sil1,lo,po,sil2,['catch'],[2.144300000000044],[2.144300000000044],1.332,no_beat,0.8123000000000438,0.8123000000000438,"[""space""]",ja,1,testConjL2Uns//r2.s2.2.wav,4.0,conjunction_un,unsyncopated,b,s2,rule,rule,L2,m,1.214,2.0,0.0,0.652,5.0,4.0,CASTELLANO,0.0,CATALAN,0.0,ARABE,0.0,FRANCES,2.0,INGLES,5.0,5.0,5.0,no,no,no,NADA,,,,NADA,67.0,yes
88,2024-01-12_18h54.43.536,Unsyncopated_study2,s88,23.0,feminino,right,ESPAÑA,"CASTELLANO, CATALAN, ARABE",Master degree,no,no,A,1,when,L4,unsyncopated,when,when,88,Online_whenL4//b.ja21.none.wav,bu,da,ci,sil,ru,nu,zi,sil1,de,po,sil2,['-'],,,none,none,,,,ja,1,testConjL2Uns//r1.s1.0.wav,4.0,conjunction_un,unsyncopated,a,s1,rule,rule,L2,m,4.7189,4.0,0.0,0.8365,5.0,4.0,CASTELLANO,0.0,CATALAN,0.0,ARABE,0.0,FRANCES,2.0,INGLES,5.0,5.0,5.0,no,no,no,NADA,,,,NADA,67.0,yes
89,2024-01-12_18h54.43.536,Unsyncopated_study2,s88,23.0,feminino,right,ESPAÑA,"CASTELLANO, CATALAN, ARABE",Master degree,no,no,A,1,when,L4,unsyncopated,when,when,89,Online_whenL4//b.ja20.0.wav,ja,bu,ñi,sil,bo,de,lo,sil1,ru,da,sil2,['catch'],[0.7623000000000957],[0.7623000000000957],0.0,beat,0.7623000000000957,0.7623000000000957,"[""space""]",ja,1,testConjL2Uns//cat_viol.r2.s1.0.wav,4.0,conjunction_un,unsyncopated,b,s1,no_rule,cat,L2,z,0.7381,4.0,0.0,1.0661,5.0,4.0,CASTELLANO,0.0,CATALAN,0.0,ARABE,0.0,FRANCES,2.0,INGLES,5.0,5.0,5.0,no,no,no,NADA,,,,NADA,67.0,yes
90,2024-01-12_18h54.43.536,Unsyncopated_study2,s88,23.0,feminino,right,ESPAÑA,"CASTELLANO, CATALAN, ARABE",Master degree,no,no,A,1,when,L4,unsyncopated,when,when,90,Online_whenL4//b.ja22.1776.wav,da,ci,zi,sil,ña,ru,bo,sil1,ja,bu,sil2,['catch'],[2.5551999999998998],[2.5551999999998998],1.776,beat,0.7791999999998998,0.7791999999998998,"[""space""]",ja,1,testConjL2Uns//r1.s2.0.wav,4.0,conjunction_un,unsyncopated,a,s2,rule,rule,L2,z,2.2278,3.0,1.0,1.4201,5.0,4.0,CASTELLANO,0.0,CATALAN,0.0,ARABE,0.0,FRANCES,2.0,INGLES,5.0,5.0,5.0,no,no,no,NADA,,,,NADA,67.0,yes
91,2024-01-12_18h54.43.536,Unsyncopated_study2,s88,23.0,feminino,right,ESPAÑA,"CASTELLANO, CATALAN, ARABE",Master degree,no,no,A,1,when,L4,unsyncopated,when,when,91,Online_whenL4//b.ja23.444.wav,bu,da,ja,sil,ña,de,nu,sil1,ñi,po,sil2,['catch'],[1.36420000000021],[1.36420000000021],0.444,no_beat,0.92020000000021,0.92020000000021,"[""space""]",ja,1,testConjL2Uns//r2.s1.1.wav,4.0,conjunction_un,unsyncopated,b,s1,rule,rule,L2,z,1.3547,2.0,1.0,0.4682,5.0,4.0,CASTELLANO,0.0,CATALAN,0.0,ARABE,0.0,FRANCES,2.0,INGLES,5.0,5.0,5.0,no,no,no,NADA,,,,NADA,67.0,yes
92,2024-01-12_18h54.43.536,Unsyncopated_study2,s88,23.0,feminino,right,ESPAÑA,"CASTELLANO, CATALAN, ARABE",Master degree,no,no,A,1,when,L4,unsyncopated,when,when,92,Online_whenL4//a.lo29.none.wav,pe,ña,ru,sil,de,zi,ñi,sil1,nu,re,sil2,['-'],,,none,none,,,,lo,2,testConjL2Uns//r2.s1.0.wav,4.0,conjunction_un,unsyncopated,b,s1,rule,rule,L2,m,0.4663,7.0,0.0,1.146,5.0,4.0,CASTELLANO,0.0,CATALAN,0.0,ARABE,0.0,FRANCES,2.0,INGLES,5.0,5.0,5.0,no,no,no,NADA,,,,NADA,67.0,yes
93,2024-01-12_18h54.43.536,Unsyncopated_study2,s88,23.0,feminino,right,ESPAÑA,"CASTELLANO, CATALAN, ARABE",Master degree,no,no,A,1,when,L4,unsyncopated,when,when,93,Online_whenL4//a.lo30.none.wav,de,re,ru,sil,pe,ñi,zi,sil1,bo,nu,sil2,['-'],,,none,none,,,,lo,2,testConjL2Uns//r1.s2.1.wav,4.0,conjunction_un,unsyncopated,a,s2,rule,rule,L2,z,0.7861,7.0,1.0,1.0844,5.0,4.0,CASTELLANO,0.0,CATALAN,0.0,ARABE,0.0,FRANCES,2.0,INGLES,5.0,5.0,5.0,no,no,no,NADA,,,,NADA,67.0,yes
94,2024-01-12_18h54.43.536,Unsyncopated_study2,s88,23.0,feminino,right,ESPAÑA,"CASTELLANO, CATALAN, ARABE",Master degree,no,no,A,1,when,L4,unsyncopated,when,when,94,Online_whenL4//a.lo28.1110.wav,ña,nu,da,sil,ci,lo,po,sil1,re,pe,sil2,['catch'],[2.1270000000000664],[2.1270000000000664],1.11,no_beat,1.0170000000000663,1.0170000000000663,"[""space""]",lo,2,testConjL2Uns//dep_viol.r1.s1.0.wav,4.0,conjunction_un,unsyncopated,a,s1,no_rule,dep,L2,z,1.2848,5.0,0.0,0.7863,5.0,4.0,CASTELLANO,0.0,CATALAN,0.0,ARABE,0.0,FRANCES,2.0,INGLES,5.0,5.0,5.0,no,no,no,NADA,,,,NADA,67.0,yes
95,2024-01-12_18h54.43.536,Unsyncopated_study2,s88,23.0,feminino,right,ESPAÑA,"CASTELLANO, CATALAN, ARABE",Master degree,no,no,A,1,when,L4,unsyncopated,when,when,95,Online_whenL4//a.lo31.none.wav,re,de,zi,sil,ru,pe,da,sil1,ci,nu,sil2,['-'],,,none,none,,,,lo,2,testConjL2Uns//time_viol.r2.s1.0.wav,4.0,conjunction_un,unsyncopated,b,s1,no_rule,time,L2,z,1.2226,6.0,0.0,0.803,5.0,4.0,CASTELLANO,0.0,CATALAN,0.0,ARABE,0.0,FRANCES,2.0,INGLES,5.0,5.0,5.0,no,no,no,NADA,,,,NADA,67.0,yes
96,2024-01-12_18h54.43.536,Unsyncopated_study2,s88,23.0,feminino,right,ESPAÑA,"CASTELLANO, CATALAN, ARABE",Master degree,no,no,A,1,when,L4,unsyncopated,when,when,96,Online_whenL4//a.lo0.none.wav,ru,pe,ci,sil,zi,ja,da,sil1,ñi,ña,sil2,['-'],,,none,none,,,,lo,2,,,,,,,,,,,,,,,5.0,4.0,CASTELLANO,0.0,CATALAN,0.0,ARABE,0.0,FRANCES,2.0,INGLES,5.0,5.0,5.0,no,no,no,NADA,,,,NADA,67.0,yes
97,2024-01-12_18h54.43.536,Unsyncopated_study2,s88,23.0,feminino,right,ESPAÑA,"CASTELLANO, CATALAN, ARABE",Master degree,no,no,A,1,when,L4,unsyncopated,when,when,97,Online_whenL4//a.lo1.none.wav,nu,ja,ci,sil,bo,ña,de,sil1,po,re,sil2,['-'],,,none,none,,,,lo,2,,,,,,,,,,,,,,,5.0,4.0,CASTELLANO,0.0,CATALAN,0.0,ARABE,0.0,FRANCES,2.0,INGLES,5.0,5.0,5.0,no,no,no,NADA,,,,NADA,67.0,yes
98,2024-01-12_18h54.43.536,Unsyncopated_study2,s88,23.0,feminino,right,ESPAÑA,"CASTELLANO, CATALAN, ARABE",Master degree,no,no,A,1,when,L4,unsyncopated,when,when,98,Online_whenL4//a.lo2.444.wav,ñi,bu,lo,sil,da,pe,ña,sil1,zi,bo,sil2,['catch'],[1.9742000000002236],[1.9742000000002236],0.444,no_beat,,1.5302000000002236,"[""space""]",lo,2,,,,,,,,,,,,,,,5.0,4.0,CASTELLANO,0.0,CATALAN,0.0,ARABE,0.0,FRANCES,2.0,INGLES,5.0,5.0,5.0,no,no,no,NADA,,,,NADA,67.0,yes
99,2024-01-12_18h54.43.536,Unsyncopated_study2,s88,23.0,feminino,right,ESPAÑA,"CASTELLANO, CATALAN, ARABE",Master degree,no,no,A,1,when,L4,unsyncopated,when,when,99,Online_whenL4//a.lo3.none.wav,ci,nu,ja,sil,re,ña,ru,sil1,po,bo,sil2,['-'],,,none,none,,,,lo,2,,,,,,,,,,,,,,,5.0,4.0,CASTELLANO,0.0,CATALAN,0.0,ARABE,0.0,FRANCES,2.0,INGLES,5.0,5.0,5.0,no,no,no,NADA,,,,NADA,67.0,yes
100,2024-01-12_18h54.43.536,Unsyncopated_study2,s88,23.0,feminino,right,ESPAÑA,"CASTELLANO, CATALAN, ARABE",Master degree,no,no,A,1,when,L4,unsyncopated,when,when,100,Online_whenL4//d.pe5.444.wav,bu,nu,pe,sil,ci,da,re,sil1,de,lo,sil2,['catch'],[1.3819999999999482],[1.3819999999999482],0.444,no_beat,0.9379999999999482,0.9379999999999482,"[""space""]",pe,4,,,,,,,,,,,,,,,5.0,4.0,CASTELLANO,0.0,CATALAN,0.0,ARABE,0.0,FRANCES,2.0,INGLES,5.0,5.0,5.0,no,no,no,NADA,,,,NADA,67.0,yes
101,2024-01-12_18h54.43.536,Unsyncopated_study2,s88,23.0,feminino,right,ESPAÑA,"CASTELLANO, CATALAN, ARABE",Master degree,no,no,A,1,when,L4,unsyncopated,when,when,101,Online_whenL4//d.pe7.1998.wav,da,lo,ña,sil,bu,ñi,ru,sil1,ja,pe,sil2,['miss'],,,1.998,no_beat,,,,pe,4,,,,,,,,,,,,,,,5.0,4.0,CASTELLANO,0.0,CATALAN,0.0,ARABE,0.0,FRANCES,2.0,INGLES,5.0,5.0,5.0,no,no,no,NADA,,,,NADA,67.0,yes
102,2024-01-12_18h54.43.536,Unsyncopated_study2,s88,23.0,feminino,right,ESPAÑA,"CASTELLANO, CATALAN, ARABE",Master degree,no,no,A,1,when,L4,unsyncopated,when,when,102,Online_whenL4//d.pe4.1110.wav,da,ru,ja,sil,nu,pe,ña,sil1,ñi,de,sil2,['false alarm'],[0.5766000000000986],[0.5766000000000986],1.11,no_beat,,,"[""space""]",pe,4,,,,,,,,,,,,,,,5.0,4.0,CASTELLANO,0.0,CATALAN,0.0,ARABE,0.0,FRANCES,2.0,INGLES,5.0,5.0,5.0,no,no,no,NADA,,,,NADA,67.0,yes
103,2024-01-12_18h54.43.536,Unsyncopated_study2,s88,23.0,feminino,right,ESPAÑA,"CASTELLANO, CATALAN, ARABE",Master degree,no,no,A,1,when,L4,unsyncopated,when,when,103,Online_whenL4//d.pe6.1110.wav,da,lo,nu,sil,po,pe,ci,sil1,bo,ña,sil2,['false alarm'],[0.26300000000003365],[0.26300000000003365],1.11,no_beat,,,"[""space""]",pe,4,,,,,,,,,,,,,,,5.0,4.0,CASTELLANO,0.0,CATALAN,0.0,ARABE,0.0,FRANCES,2.0,INGLES,5.0,5.0,5.0,no,no,no,NADA,,,,NADA,67.0,yes
104,2024-01-12_18h54.43.536,Unsyncopated_study2,s88,23.0,feminino,right,ESPAÑA,"CASTELLANO, CATALAN, ARABE",Master degree,no,no,A,1,when,L4,unsyncopated,when,when,104,Online_whenL4//d.pe1.222.wav,bo,pe,bu,sil,ja,ña,ru,sil1,ñi,nu,sil2,['miss'],,,0.222,no_beat,,,,pe,4,,,,,,,,,,,,,,,5.0,4.0,CASTELLANO,0.0,CATALAN,0.0,ARABE,0.0,FRANCES,2.0,INGLES,5.0,5.0,5.0,no,no,no,NADA,,,,NADA,67.0,yes
105,2024-01-12_18h54.43.536,Unsyncopated_study2,s88,23.0,feminino,right,ESPAÑA,"CASTELLANO, CATALAN, ARABE",Master degree,no,no,A,1,when,L4,unsyncopated,when,when,105,Online_whenL4//d.pe3.888.wav,nu,bo,de,sil,pe,bu,po,sil1,da,zi,sil2,['miss'],,,0.888,beat,,,,pe,4,,,,,,,,,,,,,,,5.0,4.0,CASTELLANO,0.0,CATALAN,0.0,ARABE,0.0,FRANCES,2.0,INGLES,5.0,5.0,5.0,no,no,no,NADA,,,,NADA,67.0,yes
106,2024-01-12_18h54.43.536,Unsyncopated_study2,s88,23.0,feminino,right,ESPAÑA,"CASTELLANO, CATALAN, ARABE",Master degree,no,no,A,1,when,L4,unsyncopated,when,when,106,Online_whenL4//d.pe0.none.wav,ja,zi,ñi,sil,ru,ci,ña,sil1,da,bu,sil2,['-'],,,none,none,,,,pe,4,,,,,,,,,,,,,,,5.0,4.0,CASTELLANO,0.0,CATALAN,0.0,ARABE,0.0,FRANCES,2.0,INGLES,5.0,5.0,5.0,no,no,no,NADA,,,,NADA,67.0,yes
107,2024-01-12_18h54.43.536,Unsyncopated_study2,s88,23.0,feminino,right,ESPAÑA,"CASTELLANO, CATALAN, ARABE",Master degree,no,no,A,1,when,L4,unsyncopated,when,when,107,Online_whenL4//d.pe2.none.wav,ñi,ña,ru,sil,nu,da,po,sil1,de,ja,sil2,['-'],,,none,none,,,,pe,4,,,,,,,,,,,,,,,5.0,4.0,CASTELLANO,0.0,CATALAN,0.0,ARABE,0.0,FRANCES,2.0,INGLES,5.0,5.0,5.0,no,no,no,NADA,,,,NADA,67.0,yes
108,2024-01-12_18h54.43.536,Unsyncopated_study2,s88,23.0,feminino,right,ESPAÑA,"CASTELLANO, CATALAN, ARABE",Master degree,no,no,A,1,when,L4,unsyncopated,when,when,108,Online_whenL4//a.lo19.0.wav,lo,ru,po,sil,pe,bu,re,sil1,nu,bo,sil2,['catch'],[0.9231000000000904],[0.9231000000000904],0.0,beat,0.9231000000000904,0.9231000000000904,"[""space""]",lo,2,,,,,,,,,,,,,,,5.0,4.0,CASTELLANO,0.0,CATALAN,0.0,ARABE,0.0,FRANCES,2.0,INGLES,5.0,5.0,5.0,no,no,no,NADA,,,,NADA,67.0,yes
109,2024-01-12_18h54.43.536,Unsyncopated_study2,s88,23.0,feminino,right,ESPAÑA,"CASTELLANO, CATALAN, ARABE",Master degree,no,no,A,1,when,L4,unsyncopated,when,when,109,Online_whenL4//a.lo18.none.wav,re,ñi,de,sil,nu,bo,ña,sil1,ru,zi,sil2,['-'],,,none,none,,,,lo,2,,,,,,,,,,,,,,,5.0,4.0,CASTELLANO,0.0,CATALAN,0.0,ARABE,0.0,FRANCES,2.0,INGLES,5.0,5.0,5.0,no,no,no,NADA,,,,NADA,67.0,yes
110,2024-01-12_18h54.43.536,Unsyncopated_study2,s88,23.0,feminino,right,ESPAÑA,"CASTELLANO, CATALAN, ARABE",Master degree,no,no,A,1,when,L4,unsyncopated,when,when,110,Online_whenL4//a.lo16.none.wav,po,bu,re,sil,ja,pe,zi,sil1,da,ña,sil2,['-'],,,none,none,,,,lo,2,,,,,,,,,,,,,,,5.0,4.0,CASTELLANO,0.0,CATALAN,0.0,ARABE,0.0,FRANCES,2.0,INGLES,5.0,5.0,5.0,no,no,no,NADA,,,,NADA,67.0,yes
111,2024-01-12_18h54.43.536,Unsyncopated_study2,s88,23.0,feminino,right,ESPAÑA,"CASTELLANO, CATALAN, ARABE",Master degree,no,no,A,1,when,L4,unsyncopated,when,when,111,Online_whenL4//a.lo17.888.wav,ci,de,re,sil,lo,ru,da,sil1,ñi,zi,sil2,['catch'],[1.7069999999999936],[1.7069999999999936],0.888,beat,0.8189999999999936,0.8189999999999936,"[""space""]",lo,2,,,,,,,,,,,,,,,5.0,4.0,CASTELLANO,0.0,CATALAN,0.0,ARABE,0.0,FRANCES,2.0,INGLES,5.0,5.0,5.0,no,no,no,NADA,,,,NADA,67.0,yes
112,2024-01-12_18h54.43.536,Unsyncopated_study2,s88,23.0,feminino,right,ESPAÑA,"CASTELLANO, CATALAN, ARABE",Master degree,no,no,A,1,when,L4,unsyncopated,when,when,112,Online_whenL4//c.bu15.1776.wav,zi,re,po,sil,pe,ña,lo,sil1,bu,bo,sil2,['catch'],[2.552099999999882],[2.552099999999882],1.776,beat,0.7760999999998821,0.7760999999998821,"[""space""]",bu,3,,,,,,,,,,,,,,,5.0,4.0,CASTELLANO,0.0,CATALAN,0.0,ARABE,0.0,FRANCES,2.0,INGLES,5.0,5.0,5.0,no,no,no,NADA,,,,NADA,67.0,yes
113,2024-01-12_18h54.43.536,Unsyncopated_study2,s88,23.0,feminino,right,ESPAÑA,"CASTELLANO, CATALAN, ARABE",Master degree,no,no,A,1,when,L4,unsyncopated,when,when,113,Online_whenL4//c.bu14.none.wav,zi,ñi,ja,sil,re,da,de,sil1,ru,bo,sil2,['-'],,,none,none,,,,bu,3,,,,,,,,,,,,,,,5.0,4.0,CASTELLANO,0.0,CATALAN,0.0,ARABE,0.0,FRANCES,2.0,INGLES,5.0,5.0,5.0,no,no,no,NADA,,,,NADA,67.0,yes
114,2024-01-12_18h54.43.536,Unsyncopated_study2,s88,23.0,feminino,right,ESPAÑA,"CASTELLANO, CATALAN, ARABE",Master degree,no,no,A,1,when,L4,unsyncopated,when,when,114,Online_whenL4//c.bu12.444.wav,ña,nu,bu,sil,bo,ñi,da,sil1,ru,lo,sil2,['catch'],[1.6275000000000546],[1.6275000000000546],0.444,no_beat,1.1835000000000546,1.1835000000000546,"[""space""]",bu,3,,,,,,,,,,,,,,,5.0,4.0,CASTELLANO,0.0,CATALAN,0.0,ARABE,0.0,FRANCES,2.0,INGLES,5.0,5.0,5.0,no,no,no,NADA,,,,NADA,67.0,yes
115,2024-01-12_18h54.43.536,Unsyncopated_study2,s88,23.0,feminino,right,ESPAÑA,"CASTELLANO, CATALAN, ARABE",Master degree,no,no,A,1,when,L4,unsyncopated,when,when,115,Online_whenL4//c.bu13.none.wav,bo,po,pe,sil,ja,ña,da,sil1,lo,de,sil2,['false alarm'],[1.0562999999999647],[1.0562999999999647],none,none,,,"[""space""]",bu,3,,,,,,,,,,,,,,,5.0,4.0,CASTELLANO,0.0,CATALAN,0.0,ARABE,0.0,FRANCES,2.0,INGLES,5.0,5.0,5.0,no,no,no,NADA,,,,NADA,67.0,yes
116,2024-01-12_18h54.43.536,Unsyncopated_study2,s88,23.0,feminino,right,ESPAÑA,"CASTELLANO, CATALAN, ARABE",Master degree,no,no,A,1,when,L4,unsyncopated,when,when,116,Online_whenL4//b.ja8.1998.wav,nu,de,da,sil,re,pe,ña,sil1,bu,ja,sil2,['catch_delay'],[0.8219999999999492],[0.8219999999999492],1.998,no_beat,0.8219999999999492,0.8219999999999492,,ja,1,,,,,,,,,,,,,,,5.0,4.0,CASTELLANO,0.0,CATALAN,0.0,ARABE,0.0,FRANCES,2.0,INGLES,5.0,5.0,5.0,no,no,no,NADA,,,,NADA,67.0,yes
117,2024-01-12_18h54.43.536,Unsyncopated_study2,s88,23.0,feminino,right,ESPAÑA,"CASTELLANO, CATALAN, ARABE",Master degree,no,no,A,1,when,L4,unsyncopated,when,when,117,Online_whenL4//b.ja11.444.wav,po,da,ja,sil,nu,ru,bo,sil1,pe,de,sil2,['catch'],"[0.15599999999994907, 1.205400000000168]",[1.205400000000168],0.444,no_beat,0.7614000000001679,0.7614000000001679,"[""space"",""space""]",ja,1,,,,,,,,,,,,,,,5.0,4.0,CASTELLANO,0.0,CATALAN,0.0,ARABE,0.0,FRANCES,2.0,INGLES,5.0,5.0,5.0,no,no,no,NADA,,,,NADA,67.0,yes
118,2024-01-12_18h54.43.536,Unsyncopated_study2,s88,23.0,feminino,right,ESPAÑA,"CASTELLANO, CATALAN, ARABE",Master degree,no,no,A,1,when,L4,unsyncopated,when,when,118,Online_whenL4//b.ja9.0.wav,ja,ci,re,sil,de,zi,pe,sil1,po,bu,sil2,['catch'],[0.9715999999999667],[0.9715999999999667],0.0,beat,0.9715999999999668,0.9715999999999668,"[""space""]",ja,1,,,,,,,,,,,,,,,5.0,4.0,CASTELLANO,0.0,CATALAN,0.0,ARABE,0.0,FRANCES,2.0,INGLES,5.0,5.0,5.0,no,no,no,NADA,,,,NADA,67.0,yes
119,2024-01-12_18h54.43.536,Unsyncopated_study2,s88,23.0,feminino,right,ESPAÑA,"CASTELLANO, CATALAN, ARABE",Master degree,no,no,A,1,when,L4,unsyncopated,when,when,119,Online_whenL4//b.ja10.none.wav,bu,lo,pe,sil,zi,po,ru,sil1,ci,de,sil2,['-'],,,none,none,,,,ja,1,,,,,,,,,,,,,,,5.0,4.0,CASTELLANO,0.0,CATALAN,0.0,ARABE,0.0,FRANCES,2.0,INGLES,5.0,5.0,5.0,no,no,no,NADA,,,,NADA,67.0,yes
120,2024-01-12_18h54.43.536,Unsyncopated_study2,s88,23.0,feminino,right,ESPAÑA,"CASTELLANO, CATALAN, ARABE",Master degree,no,no,A,1,when,L4,unsyncopated,when,when,120,Online_whenL4//a.lo34.0.wav,lo,po,ña,sil,de,ci,pe,sil1,ñi,nu,sil2,['catch'],[0.9294000000001006],[0.9294000000001006],0.0,beat,0.9294000000001006,0.9294000000001006,"[""space""]",lo,2,,,,,,,,,,,,,,,5.0,4.0,CASTELLANO,0.0,CATALAN,0.0,ARABE,0.0,FRANCES,2.0,INGLES,5.0,5.0,5.0,no,no,no,NADA,,,,NADA,67.0,yes
121,2024-01-12_18h54.43.536,Unsyncopated_study2,s88,23.0,feminino,right,ESPAÑA,"CASTELLANO, CATALAN, ARABE",Master degree,no,no,A,1,when,L4,unsyncopated,when,when,121,Online_whenL4//a.lo32.1776.wav,bu,pe,ru,sil,ñi,po,ci,sil1,lo,ja,sil2,['catch_delay'],[1.001599999999906],[1.001599999999906],1.776,beat,1.001599999999906,1.001599999999906,,lo,2,,,,,,,,,,,,,,,5.0,4.0,CASTELLANO,0.0,CATALAN,0.0,ARABE,0.0,FRANCES,2.0,INGLES,5.0,5.0,5.0,no,no,no,NADA,,,,NADA,67.0,yes
122,2024-01-12_18h54.43.536,Unsyncopated_study2,s88,23.0,feminino,right,ESPAÑA,"CASTELLANO, CATALAN, ARABE",Master degree,no,no,A,1,when,L4,unsyncopated,when,when,122,Online_whenL4//a.lo35.none.wav,zi,pe,ru,sil,bu,ñi,ja,sil1,ña,po,sil2,['-'],[0.11359999999990578],[0.11359999999990578],none,none,,,"[""space""]",lo,2,,,,,,,,,,,,,,,5.0,4.0,CASTELLANO,0.0,CATALAN,0.0,ARABE,0.0,FRANCES,2.0,INGLES,5.0,5.0,5.0,no,no,no,NADA,,,,NADA,67.0,yes
123,2024-01-12_18h54.43.536,Unsyncopated_study2,s88,23.0,feminino,right,ESPAÑA,"CASTELLANO, CATALAN, ARABE",Master degree,no,no,A,1,when,L4,unsyncopated,when,when,123,Online_whenL4//a.lo33.888.wav,ñi,bu,nu,sil,lo,de,ña,sil1,ci,po,sil2,['catch'],[1.6204000000000178],[1.6204000000000178],0.888,beat,0.7324000000000178,0.7324000000000178,"[""space""]",lo,2,,,,,,,,,,,,,,,5.0,4.0,CASTELLANO,0.0,CATALAN,0.0,ARABE,0.0,FRANCES,2.0,INGLES,5.0,5.0,5.0,no,no,no,NADA,,,,NADA,67.0,yes
124,2024-01-12_18h54.43.536,Unsyncopated_study2,s88,23.0,feminino,right,ESPAÑA,"CASTELLANO, CATALAN, ARABE",Master degree,no,no,A,1,when,L4,unsyncopated,when,when,124,Online_whenL4//c.bu20.1332.wav,lo,re,ru,sil,ña,de,bu,sil1,zi,ci,sil2,['catch'],[2.2383000000002085],[2.2383000000002085],1.332,no_beat,0.9063000000002084,0.9063000000002084,"[""space""]",bu,3,,,,,,,,,,,,,,,5.0,4.0,CASTELLANO,0.0,CATALAN,0.0,ARABE,0.0,FRANCES,2.0,INGLES,5.0,5.0,5.0,no,no,no,NADA,,,,NADA,67.0,yes
125,2024-01-12_18h54.43.536,Unsyncopated_study2,s88,23.0,feminino,right,ESPAÑA,"CASTELLANO, CATALAN, ARABE",Master degree,no,no,A,1,when,L4,unsyncopated,when,when,125,Online_whenL4//c.bu22.none.wav,nu,ci,ña,sil,re,ñi,ru,sil1,zi,pe,sil2,['-'],,,none,none,,,,bu,3,,,,,,,,,,,,,,,5.0,4.0,CASTELLANO,0.0,CATALAN,0.0,ARABE,0.0,FRANCES,2.0,INGLES,5.0,5.0,5.0,no,no,no,NADA,,,,NADA,67.0,yes
126,2024-01-12_18h54.43.536,Unsyncopated_study2,s88,23.0,feminino,right,ESPAÑA,"CASTELLANO, CATALAN, ARABE",Master degree,no,no,A,1,when,L4,unsyncopated,when,when,126,Online_whenL4//c.bu23.none.wav,ña,nu,pe,sil,ru,ja,bo,sil1,re,ñi,sil2,"['false alarm', 'false alarm']","[1.0983000000001084, 2.326400000000149]",2.326400000000149,none,none,,,"[""space"",""space""]",bu,3,,,,,,,,,,,,,,,5.0,4.0,CASTELLANO,0.0,CATALAN,0.0,ARABE,0.0,FRANCES,2.0,INGLES,5.0,5.0,5.0,no,no,no,NADA,,,,NADA,67.0,yes
127,2024-01-12_18h54.43.536,Unsyncopated_study2,s88,23.0,feminino,right,ESPAÑA,"CASTELLANO, CATALAN, ARABE",Master degree,no,no,A,1,when,L4,unsyncopated,when,when,127,Online_whenL4//c.bu21.1332.wav,zi,pe,ci,sil,ña,nu,bu,sil1,bo,ru,sil2,['catch'],[2.304600000000164],[2.304600000000164],1.332,no_beat,0.972600000000164,0.972600000000164,"[""space""]",bu,3,,,,,,,,,,,,,,,5.0,4.0,CASTELLANO,0.0,CATALAN,0.0,ARABE,0.0,FRANCES,2.0,INGLES,5.0,5.0,5.0,no,no,no,NADA,,,,NADA,67.0,yes
128,2024-01-12_18h54.43.536,Unsyncopated_study2,s88,23.0,feminino,right,ESPAÑA,"CASTELLANO, CATALAN, ARABE",Master degree,no,no,A,1,when,L4,unsyncopated,when,when,128,Online_whenL4//a.lo7.1776.wav,de,po,da,sil,ru,zi,ñi,sil1,lo,pe,sil2,['miss'],,,1.776,beat,,,,lo,2,,,,,,,,,,,,,,,5.0,4.0,CASTELLANO,0.0,CATALAN,0.0,ARABE,0.0,FRANCES,2.0,INGLES,5.0,5.0,5.0,no,no,no,NADA,,,,NADA,67.0,yes
129,2024-01-12_18h54.43.536,Unsyncopated_study2,s88,23.0,feminino,right,ESPAÑA,"CASTELLANO, CATALAN, ARABE",Master degree,no,no,A,1,when,L4,unsyncopated,when,when,129,Online_whenL4//a.lo6.none.wav,ñi,ja,ña,sil,de,re,po,sil1,nu,bo,sil2,['-'],,,none,none,,,,lo,2,,,,,,,,,,,,,,,5.0,4.0,CASTELLANO,0.0,CATALAN,0.0,ARABE,0.0,FRANCES,2.0,INGLES,5.0,5.0,5.0,no,no,no,NADA,,,,NADA,67.0,yes
130,2024-01-12_18h54.43.536,Unsyncopated_study2,s88,23.0,feminino,right,ESPAÑA,"CASTELLANO, CATALAN, ARABE",Master degree,no,no,A,1,when,L4,unsyncopated,when,when,130,Online_whenL4//a.lo4.none.wav,bo,ñi,pe,sil,ja,re,ru,sil1,nu,da,sil2,['false alarm'],[0.23820000000000618],[0.23820000000000618],none,none,,,"[""space""]",lo,2,,,,,,,,,,,,,,,5.0,4.0,CASTELLANO,0.0,CATALAN,0.0,ARABE,0.0,FRANCES,2.0,INGLES,5.0,5.0,5.0,no,no,no,NADA,,,,NADA,67.0,yes
131,2024-01-12_18h54.43.536,Unsyncopated_study2,s88,23.0,feminino,right,ESPAÑA,"CASTELLANO, CATALAN, ARABE",Master degree,no,no,A,1,when,L4,unsyncopated,when,when,131,Online_whenL4//a.lo5.1998.wav,ci,bu,zi,sil,ru,bo,pe,sil1,de,lo,sil2,['miss'],,,1.998,no_beat,,,,lo,2,,,,,,,,,,,,,,,5.0,4.0,CASTELLANO,0.0,CATALAN,0.0,ARABE,0.0,FRANCES,2.0,INGLES,5.0,5.0,5.0,no,no,no,NADA,,,,NADA,67.0,yes
132,2024-01-12_18h54.43.536,Unsyncopated_study2,s88,23.0,feminino,right,ESPAÑA,"CASTELLANO, CATALAN, ARABE",Master degree,no,no,A,1,when,L4,unsyncopated,when,when,132,Online_whenL4//c.bu19.0.wav,bu,de,nu,sil,ja,ru,bo,sil1,ñi,pe,sil2,['catch'],[0.22829999999999018],[0.22829999999999018],0.0,beat,0.2282999999999901,0.2282999999999901,"[""space""]",bu,3,,,,,,,,,,,,,,,5.0,4.0,CASTELLANO,0.0,CATALAN,0.0,ARABE,0.0,FRANCES,2.0,INGLES,5.0,5.0,5.0,no,no,no,NADA,,,,NADA,67.0,yes
133,2024-01-12_18h54.43.536,Unsyncopated_study2,s88,23.0,feminino,right,ESPAÑA,"CASTELLANO, CATALAN, ARABE",Master degree,no,no,A,1,when,L4,unsyncopated,when,when,133,Online_whenL4//c.bu18.none.wav,da,re,zi,sil,pe,po,lo,sil1,ci,ña,sil2,['-'],,,none,none,,,,bu,3,,,,,,,,,,,,,,,5.0,4.0,CASTELLANO,0.0,CATALAN,0.0,ARABE,0.0,FRANCES,2.0,INGLES,5.0,5.0,5.0,no,no,no,NADA,,,,NADA,67.0,yes
134,2024-01-12_18h54.43.536,Unsyncopated_study2,s88,23.0,feminino,right,ESPAÑA,"CASTELLANO, CATALAN, ARABE",Master degree,no,no,A,1,when,L4,unsyncopated,when,when,134,Online_whenL4//c.bu17.none.wav,bo,zi,de,sil,ña,nu,ci,sil1,ru,po,sil2,['false alarm'],[0.8880000000001473],[0.8880000000001473],none,none,,,"[""space""]",bu,3,,,,,,,,,,,,,,,5.0,4.0,CASTELLANO,0.0,CATALAN,0.0,ARABE,0.0,FRANCES,2.0,INGLES,5.0,5.0,5.0,no,no,no,NADA,,,,NADA,67.0,yes
135,2024-01-12_18h54.43.536,Unsyncopated_study2,s88,23.0,feminino,right,ESPAÑA,"CASTELLANO, CATALAN, ARABE",Master degree,no,no,A,1,when,L4,unsyncopated,when,when,135,Online_whenL4//c.bu16.0.wav,bu,ñi,pe,sil,ru,zi,bo,sil1,de,lo,sil2,['miss'],,,0.0,beat,,,,bu,3,,,,,,,,,,,,,,,5.0,4.0,CASTELLANO,0.0,CATALAN,0.0,ARABE,0.0,FRANCES,2.0,INGLES,5.0,5.0,5.0,no,no,no,NADA,,,,NADA,67.0,yes
136,2024-01-12_18h54.43.536,Unsyncopated_study2,s88,23.0,feminino,right,ESPAÑA,"CASTELLANO, CATALAN, ARABE",Master degree,no,no,A,2,what,L3,unsyncopated,s1,r1,0,Online_whatL3//b.ñe.sa26.none.none.wav,chu,di,ga,sil,mo,li,le,sil2,ka,ko,sil1,['-'],,,none,none,,,,ñe,1,,,,,,,,,,,,,,,5.0,4.0,CASTELLANO,0.0,CATALAN,0.0,ARABE,0.0,FRANCES,2.0,INGLES,5.0,5.0,5.0,no,no,no,NADA,,,,NADA,67.0,yes
137,2024-01-12_18h54.43.536,Unsyncopated_study2,s88,23.0,feminino,right,ESPAÑA,"CASTELLANO, CATALAN, ARABE",Master degree,no,no,A,2,what,L3,unsyncopated,s1,r2,1,Online_whatL3//b.ñe.sa25.0.888.wav,ñe,di,do,sil,sa,ko,le,sil2,gu,ka,sil1,['catch'],[0.8043000000002394],[0.8043000000002394],0.0,beat,0.8043000000002394,0.8043000000002394,"[""space""]",ñe,1,,,,,,,,,,,,,,,5.0,4.0,CASTELLANO,0.0,CATALAN,0.0,ARABE,0.0,FRANCES,2.0,INGLES,5.0,5.0,5.0,no,no,no,NADA,,,,NADA,67.0,yes
138,2024-01-12_18h54.43.536,Unsyncopated_study2,s88,23.0,feminino,right,ESPAÑA,"CASTELLANO, CATALAN, ARABE",Master degree,no,no,A,2,what,L3,unsyncopated,s2,r2,2,Online_whatL3//b.ñe.sa27.1110.1998.wav,ga,je,fu,sil2,ñe,li,gu,sil,sa,ka,sil1,['catch'],[2.0443000000002485],[2.0443000000002485],1.11,no_beat,0.9343000000002484,0.9343000000002484,"[""space""]",ñe,1,,,,,,,,,,,,,,,5.0,4.0,CASTELLANO,0.0,CATALAN,0.0,ARABE,0.0,FRANCES,2.0,INGLES,5.0,5.0,5.0,no,no,no,NADA,,,,NADA,67.0,yes
139,2024-01-12_18h54.43.536,Unsyncopated_study2,s88,23.0,feminino,right,ESPAÑA,"CASTELLANO, CATALAN, ARABE",Master degree,no,no,A,2,what,L3,unsyncopated,s1,r2,3,Online_whatL3//b.ñe.sa24.0.888.wav,ñe,je,ga,sil,sa,di,ji,sil1,li,ka,sil2,['catch'],[1.0605000000000473],[1.0605000000000473],0.0,beat,1.0605000000000473,1.0605000000000473,"[""space""]",ñe,1,,,,,,,,,,,,,,,5.0,4.0,CASTELLANO,0.0,CATALAN,0.0,ARABE,0.0,FRANCES,2.0,INGLES,5.0,5.0,5.0,no,no,no,NADA,,,,NADA,67.0,yes
140,2024-01-12_18h54.43.536,Unsyncopated_study2,s88,23.0,feminino,right,ESPAÑA,"CASTELLANO, CATALAN, ARABE",Master degree,no,no,A,2,what,L3,unsyncopated,s1,r1,4,Online_whatL3//d.ji.li12.none.none.wav,chu,je,fu,sil,mo,ga,le,sil2,di,gu,sil1,['-'],,,none,none,,,,ji,4,,,,,,,,,,,,,,,5.0,4.0,CASTELLANO,0.0,CATALAN,0.0,ARABE,0.0,FRANCES,2.0,INGLES,5.0,5.0,5.0,no,no,no,NADA,,,,NADA,67.0,yes
141,2024-01-12_18h54.43.536,Unsyncopated_study2,s88,23.0,feminino,right,ESPAÑA,"CASTELLANO, CATALAN, ARABE",Master degree,no,no,A,2,what,L3,unsyncopated,s1,r1,5,Online_whatL3//d.ji.li14.222.1110.wav,chu,ji,ko,sil,mo,li,ga,sil2,do,di,sil1,['miss'],,,0.222,no_beat,,,,ji,4,,,,,,,,,,,,,,,5.0,4.0,CASTELLANO,0.0,CATALAN,0.0,ARABE,0.0,FRANCES,2.0,INGLES,5.0,5.0,5.0,no,no,no,NADA,,,,NADA,67.0,yes
142,2024-01-12_18h54.43.536,Unsyncopated_study2,s88,23.0,feminino,right,ESPAÑA,"CASTELLANO, CATALAN, ARABE",Master degree,no,no,A,2,what,L3,unsyncopated,s2,r1,6,Online_whatL3//d.ji.li13.none.none.wav,ga,do,le,sil,chu,ko,ka,sil1,mo,di,sil2,['-'],,,none,none,,,,ji,4,,,,,,,,,,,,,,,5.0,4.0,CASTELLANO,0.0,CATALAN,0.0,ARABE,0.0,FRANCES,2.0,INGLES,5.0,5.0,5.0,no,no,no,NADA,,,,NADA,67.0,yes
143,2024-01-12_18h54.43.536,Unsyncopated_study2,s88,23.0,feminino,right,ESPAÑA,"CASTELLANO, CATALAN, ARABE",Master degree,no,no,A,2,what,L3,unsyncopated,s2,r1,7,Online_whatL3//d.ji.li15.222.444.wav,fu,ji,li,sil2,chu,je,ga,sil,mo,di,sil1,['miss'],,,0.222,no_beat,,,,ji,4,,,,,,,,,,,,,,,5.0,4.0,CASTELLANO,0.0,CATALAN,0.0,ARABE,0.0,FRANCES,2.0,INGLES,5.0,5.0,5.0,no,no,no,NADA,,,,NADA,67.0,yes
144,2024-01-12_18h54.43.536,Unsyncopated_study2,s88,23.0,feminino,right,ESPAÑA,"CASTELLANO, CATALAN, ARABE",Master degree,no,no,A,2,what,L3,unsyncopated,s2,r1,8,Online_whatL3//d.ji.li8.none.none.wav,di,ko,do,sil,chu,ga,le,sil2,mo,je,sil1,['-'],,,none,none,,,,ji,4,,,,,,,,,,,,,,,5.0,4.0,CASTELLANO,0.0,CATALAN,0.0,ARABE,0.0,FRANCES,2.0,INGLES,5.0,5.0,5.0,no,no,no,NADA,,,,NADA,67.0,yes
145,2024-01-12_18h54.43.536,Unsyncopated_study2,s88,23.0,feminino,right,ESPAÑA,"CASTELLANO, CATALAN, ARABE",Master degree,no,no,A,2,what,L3,unsyncopated,s2,r1,9,Online_whatL3//d.ji.li9.1554.444.wav,fu,ga,li,sil2,chu,gu,ji,sil,mo,do,sil1,['miss'],,,1.554,no_beat,,,,ji,4,,,,,,,,,,,,,,,5.0,4.0,CASTELLANO,0.0,CATALAN,0.0,ARABE,0.0,FRANCES,2.0,INGLES,5.0,5.0,5.0,no,no,no,NADA,,,,NADA,67.0,yes
146,2024-01-12_18h54.43.536,Unsyncopated_study2,s88,23.0,feminino,right,ESPAÑA,"CASTELLANO, CATALAN, ARABE",Master degree,no,no,A,2,what,L3,unsyncopated,s2,r2,10,Online_whatL3//d.ji.li10.444.0.wav,li,le,ji,sil,ñe,do,di,sil1,sa,ga,sil2,['miss'],,,0.444,no_beat,,,,ji,4,,,,,,,,,,,,,,,5.0,4.0,CASTELLANO,0.0,CATALAN,0.0,ARABE,0.0,FRANCES,2.0,INGLES,5.0,5.0,5.0,no,no,no,NADA,,,,NADA,67.0,yes
147,2024-01-12_18h54.43.536,Unsyncopated_study2,s88,23.0,feminino,right,ESPAÑA,"CASTELLANO, CATALAN, ARABE",Master degree,no,no,A,2,what,L3,unsyncopated,s2,r1,11,Online_whatL3//d.ji.li11.none.none.wav,fu,di,ka,sil2,chu,do,je,sil,mo,le,sil1,['-'],,,none,none,,,,ji,4,,,,,,,,,,,,,,,5.0,4.0,CASTELLANO,0.0,CATALAN,0.0,ARABE,0.0,FRANCES,2.0,INGLES,5.0,5.0,5.0,no,no,no,NADA,,,,NADA,67.0,yes
148,2024-01-12_18h54.43.536,Unsyncopated_study2,s88,23.0,feminino,right,ESPAÑA,"CASTELLANO, CATALAN, ARABE",Master degree,no,no,A,2,what,L3,unsyncopated,s1,r2,12,Online_whatL3//d.ji.li25.none.none.wav,ñe,gu,ko,sil2,sa,ka,le,sil,do,ga,sil1,['-'],,,none,none,,,,ji,4,,,,,,,,,,,,,,,5.0,4.0,CASTELLANO,0.0,CATALAN,0.0,ARABE,0.0,FRANCES,2.0,INGLES,5.0,5.0,5.0,no,no,no,NADA,,,,NADA,67.0,yes
149,2024-01-12_18h54.43.536,Unsyncopated_study2,s88,23.0,feminino,right,ESPAÑA,"CASTELLANO, CATALAN, ARABE",Master degree,no,no,A,2,what,L3,unsyncopated,s1,r1,13,Online_whatL3//d.ji.li24.1332.1554.wav,chu,di,ko,sil2,mo,ji,li,sil,do,gu,sil1,['miss'],,,1.332,no_beat,,,,ji,4,,,,,,,,,,,,,,,5.0,4.0,CASTELLANO,0.0,CATALAN,0.0,ARABE,0.0,FRANCES,2.0,INGLES,5.0,5.0,5.0,no,no,no,NADA,,,,NADA,67.0,yes
150,2024-01-12_18h54.43.536,Unsyncopated_study2,s88,23.0,feminino,right,ESPAÑA,"CASTELLANO, CATALAN, ARABE",Master degree,no,no,A,2,what,L3,unsyncopated,s2,r1,14,Online_whatL3//d.ji.li27.222.1110.wav,gu,ji,do,sil,chu,li,ga,sil1,mo,fu,sil2,['miss'],,,0.222,no_beat,,,,ji,4,,,,,,,,,,,,,,,5.0,4.0,CASTELLANO,0.0,CATALAN,0.0,ARABE,0.0,FRANCES,2.0,INGLES,5.0,5.0,5.0,no,no,no,NADA,,,,NADA,67.0,yes
151,2024-01-12_18h54.43.536,Unsyncopated_study2,s88,23.0,feminino,right,ESPAÑA,"CASTELLANO, CATALAN, ARABE",Master degree,no,no,A,2,what,L3,unsyncopated,s1,r1,15,Online_whatL3//d.ji.li26.none.none.wav,chu,gu,je,sil,mo,di,do,sil1,ka,ga,sil2,['false alarm'],[2.176400000000058],[2.176400000000058],none,none,,,"[""space""]",ji,4,,,,,,,,,,,,,,,5.0,4.0,CASTELLANO,0.0,CATALAN,0.0,ARABE,0.0,FRANCES,2.0,INGLES,5.0,5.0,5.0,no,no,no,NADA,,,,NADA,67.0,yes
152,2024-01-12_18h54.43.536,Unsyncopated_study2,s88,23.0,feminino,right,ESPAÑA,"CASTELLANO, CATALAN, ARABE",Master degree,no,no,A,2,what,L3,unsyncopated,s2,r2,16,Online_whatL3//a.chu.mo28.none.none.wav,di,do,ka,sil,ñe,ko,ji,sil1,sa,fu,sil2,['-'],,,none,none,,,,mo,2,,,,,,,,,,,,,,,5.0,4.0,CASTELLANO,0.0,CATALAN,0.0,ARABE,0.0,FRANCES,2.0,INGLES,5.0,5.0,5.0,no,no,no,NADA,,,,NADA,67.0,yes
153,2024-01-12_18h54.43.536,Unsyncopated_study2,s88,23.0,feminino,right,ESPAÑA,"CASTELLANO, CATALAN, ARABE",Master degree,no,no,A,2,what,L3,unsyncopated,s1,r1,17,Online_whatL3//a.chu.mo30.0.888.wav,chu,ko,li,sil,mo,gu,le,sil2,je,fu,sil1,['catch'],[1.7153000000002976],[1.7153000000002976],0.888,beat,0.8273000000002976,0.8273000000002976,"[""space""]",mo,2,,,,,,,,,,,,,,,5.0,4.0,CASTELLANO,0.0,CATALAN,0.0,ARABE,0.0,FRANCES,2.0,INGLES,5.0,5.0,5.0,no,no,no,NADA,,,,NADA,67.0,yes
154,2024-01-12_18h54.43.536,Unsyncopated_study2,s88,23.0,feminino,right,ESPAÑA,"CASTELLANO, CATALAN, ARABE",Master degree,no,no,A,2,what,L3,unsyncopated,s2,r2,18,Online_whatL3//a.chu.mo31.none.none.wav,ka,di,ko,sil,ñe,ji,fu,sil1,sa,le,sil2,['-'],,,none,none,,,,mo,2,,,,,,,,,,,,,,,5.0,4.0,CASTELLANO,0.0,CATALAN,0.0,ARABE,0.0,FRANCES,2.0,INGLES,5.0,5.0,5.0,no,no,no,NADA,,,,NADA,67.0,yes
155,2024-01-12_18h54.43.536,Unsyncopated_study2,s88,23.0,feminino,right,ESPAÑA,"CASTELLANO, CATALAN, ARABE",Master degree,no,no,A,2,what,L3,unsyncopated,s1,r2,19,Online_whatL3//a.chu.mo29.none.none.wav,ñe,do,di,sil,sa,gu,ko,sil1,le,ka,sil2,['-'],,,none,none,,,,mo,2,,,,,,,,,,,,,,,5.0,4.0,CASTELLANO,0.0,CATALAN,0.0,ARABE,0.0,FRANCES,2.0,INGLES,5.0,5.0,5.0,no,no,no,NADA,,,,NADA,67.0,yes
156,2024-01-12_18h54.43.536,Unsyncopated_study2,s88,23.0,feminino,right,ESPAÑA,"CASTELLANO, CATALAN, ARABE",Master degree,no,no,A,2,what,L3,unsyncopated,s1,r1,20,Online_whatL3//d.ji.li20.none.none.wav,chu,gu,fu,sil2,mo,ga,do,sil,ka,di,sil1,['-'],,,none,none,,,,ji,4,,,,,,,,,,,,,,,5.0,4.0,CASTELLANO,0.0,CATALAN,0.0,ARABE,0.0,FRANCES,2.0,INGLES,5.0,5.0,5.0,no,no,no,NADA,,,,NADA,67.0,yes
157,2024-01-12_18h54.43.536,Unsyncopated_study2,s88,23.0,feminino,right,ESPAÑA,"CASTELLANO, CATALAN, ARABE",Master degree,no,no,A,2,what,L3,unsyncopated,s2,r2,21,Online_whatL3//d.ji.li21.none.none.wav,di,le,ko,sil,ñe,ka,je,sil1,sa,gu,sil2,['-'],,,none,none,,,,ji,4,,,,,,,,,,,,,,,5.0,4.0,CASTELLANO,0.0,CATALAN,0.0,ARABE,0.0,FRANCES,2.0,INGLES,5.0,5.0,5.0,no,no,no,NADA,,,,NADA,67.0,yes
158,2024-01-12_18h54.43.536,Unsyncopated_study2,s88,23.0,feminino,right,ESPAÑA,"CASTELLANO, CATALAN, ARABE",Master degree,no,no,A,2,what,L3,unsyncopated,s2,r2,22,Online_whatL3//d.ji.li22.none.none.wav,gu,ka,di,sil,ñe,do,ga,sil2,sa,ko,sil1,['-'],,,none,none,,,,ji,4,,,,,,,,,,,,,,,5.0,4.0,CASTELLANO,0.0,CATALAN,0.0,ARABE,0.0,FRANCES,2.0,INGLES,5.0,5.0,5.0,no,no,no,NADA,,,,NADA,67.0,yes
159,2024-01-12_18h54.43.536,Unsyncopated_study2,s88,23.0,feminino,right,ESPAÑA,"CASTELLANO, CATALAN, ARABE",Master degree,no,no,A,2,what,L3,unsyncopated,s2,r2,23,Online_whatL3//d.ji.li23.0.444.wav,ji,ko,li,sil,ñe,di,fu,sil2,sa,je,sil1,['miss'],,,0.0,beat,,,,ji,4,,,,,,,,,,,,,,,5.0,4.0,CASTELLANO,0.0,CATALAN,0.0,ARABE,0.0,FRANCES,2.0,INGLES,5.0,5.0,5.0,no,no,no,NADA,,,,NADA,67.0,yes
160,2024-01-12_18h54.43.536,Unsyncopated_study2,s88,23.0,feminino,right,ESPAÑA,"CASTELLANO, CATALAN, ARABE",Master degree,no,no,A,2,what,L3,unsyncopated,s2,r2,24,Online_whatL3//d.ji.li6.222.1110.wav,ko,ji,ka,sil,ñe,li,di,sil2,sa,ga,sil1,['miss'],,,0.222,no_beat,,,,ji,4,,,,,,,,,,,,,,,5.0,4.0,CASTELLANO,0.0,CATALAN,0.0,ARABE,0.0,FRANCES,2.0,INGLES,5.0,5.0,5.0,no,no,no,NADA,,,,NADA,67.0,yes
161,2024-01-12_18h54.43.536,Unsyncopated_study2,s88,23.0,feminino,right,ESPAÑA,"CASTELLANO, CATALAN, ARABE",Master degree,no,no,A,2,what,L3,unsyncopated,s2,r1,25,Online_whatL3//d.ji.li5.none.none.wav,le,ka,di,sil,chu,fu,ko,sil2,mo,gu,sil1,['false alarm'],[2.252999999999929],[2.252999999999929],none,none,,,"[""space""]",ji,4,,,,,,,,,,,,,,,5.0,4.0,CASTELLANO,0.0,CATALAN,0.0,ARABE,0.0,FRANCES,2.0,INGLES,5.0,5.0,5.0,no,no,no,NADA,,,,NADA,67.0,yes
162,2024-01-12_18h54.43.536,Unsyncopated_study2,s88,23.0,feminino,right,ESPAÑA,"CASTELLANO, CATALAN, ARABE",Master degree,no,no,A,2,what,L3,unsyncopated,s1,r2,26,Online_whatL3//d.ji.li7.1332.1554.wav,ñe,ga,ka,sil2,sa,ji,li,sil,gu,do,sil1,['miss'],,,1.332,no_beat,,,,ji,4,,,,,,,,,,,,,,,5.0,4.0,CASTELLANO,0.0,CATALAN,0.0,ARABE,0.0,FRANCES,2.0,INGLES,5.0,5.0,5.0,no,no,no,NADA,,,,NADA,67.0,yes
163,2024-01-12_18h54.43.536,Unsyncopated_study2,s88,23.0,feminino,right,ESPAÑA,"CASTELLANO, CATALAN, ARABE",Master degree,no,no,A,2,what,L3,unsyncopated,s1,r1,27,Online_whatL3//d.ji.li4.none.none.wav,chu,je,ko,sil,mo,ga,le,sil2,do,di,sil1,['-'],,,none,none,,,,ji,4,,,,,,,,,,,,,,,5.0,4.0,CASTELLANO,0.0,CATALAN,0.0,ARABE,0.0,FRANCES,2.0,INGLES,5.0,5.0,5.0,no,no,no,NADA,,,,NADA,67.0,yes
164,2024-01-12_18h54.43.536,Unsyncopated_study2,s88,23.0,feminino,right,ESPAÑA,"CASTELLANO, CATALAN, ARABE",Master degree,no,no,A,2,what,L3,unsyncopated,s2,r2,28,Online_whatL3//c.gu.je7.none.none.wav,ga,li,do,sil,ñe,ka,ko,sil1,sa,le,sil2,['-'],,,none,none,,,,gu,3,,,,,,,,,,,,,,,5.0,4.0,CASTELLANO,0.0,CATALAN,0.0,ARABE,0.0,FRANCES,2.0,INGLES,5.0,5.0,5.0,no,no,no,NADA,,,,NADA,67.0,yes
165,2024-01-12_18h54.43.536,Unsyncopated_study2,s88,23.0,feminino,right,ESPAÑA,"CASTELLANO, CATALAN, ARABE",Master degree,no,no,A,2,what,L3,unsyncopated,s2,r2,29,Online_whatL3//c.gu.je4.1110.222.wav,do,je,di,sil,ñe,gu,ji,sil1,sa,le,sil2,['miss'],,,1.11,no_beat,,,,gu,3,,,,,,,,,,,,,,,5.0,4.0,CASTELLANO,0.0,CATALAN,0.0,ARABE,0.0,FRANCES,2.0,INGLES,5.0,5.0,5.0,no,no,no,NADA,,,,NADA,67.0,yes
166,2024-01-12_18h54.43.536,Unsyncopated_study2,s88,23.0,feminino,right,ESPAÑA,"CASTELLANO, CATALAN, ARABE",Master degree,no,no,A,2,what,L3,unsyncopated,s2,r1,30,Online_whatL3//c.gu.je5.none.none.wav,do,di,ji,sil,chu,li,ka,sil1,mo,le,sil2,['-'],,,none,none,,,,gu,3,,,,,,,,,,,,,,,5.0,4.0,CASTELLANO,0.0,CATALAN,0.0,ARABE,0.0,FRANCES,2.0,INGLES,5.0,5.0,5.0,no,no,no,NADA,,,,NADA,67.0,yes
167,2024-01-12_18h54.43.536,Unsyncopated_study2,s88,23.0,feminino,right,ESPAÑA,"CASTELLANO, CATALAN, ARABE",Master degree,no,no,A,2,what,L3,unsyncopated,s1,r1,31,Online_whatL3//c.gu.je6.222.444.wav,chu,gu,je,sil2,mo,fu,ko,sil,ji,ka,sil1,['miss'],,,0.222,no_beat,,,,gu,3,,,,,,,,,,,,,,,5.0,4.0,CASTELLANO,0.0,CATALAN,0.0,ARABE,0.0,FRANCES,2.0,INGLES,5.0,5.0,5.0,no,no,no,NADA,,,,NADA,67.0,yes
168,2024-01-12_18h54.43.536,Unsyncopated_study2,s88,23.0,feminino,right,ESPAÑA,"CASTELLANO, CATALAN, ARABE",Master degree,no,no,A,2,what,L3,unsyncopated,s2,r2,32,Online_whatL3//c.gu.je19.0.1110.wav,gu,do,li,sil,ñe,je,ji,sil2,sa,di,sil1,['catch'],[0.8247000000003482],[0.8247000000003482],0.0,beat,0.8247000000003482,0.8247000000003482,"[""space""]",gu,3,,,,,,,,,,,,,,,5.0,4.0,CASTELLANO,0.0,CATALAN,0.0,ARABE,0.0,FRANCES,2.0,INGLES,5.0,5.0,5.0,no,no,no,NADA,,,,NADA,67.0,yes
169,2024-01-12_18h54.43.536,Unsyncopated_study2,s88,23.0,feminino,right,ESPAÑA,"CASTELLANO, CATALAN, ARABE",Master degree,no,no,A,2,what,L3,unsyncopated,s2,r2,33,Online_whatL3//c.gu.je18.none.none.wav,ko,do,ji,sil,ñe,li,ga,sil2,sa,di,sil1,['-'],,,none,none,,,,gu,3,,,,,,,,,,,,,,,5.0,4.0,CASTELLANO,0.0,CATALAN,0.0,ARABE,0.0,FRANCES,2.0,INGLES,5.0,5.0,5.0,no,no,no,NADA,,,,NADA,67.0,yes
170,2024-01-12_18h54.43.536,Unsyncopated_study2,s88,23.0,feminino,right,ESPAÑA,"CASTELLANO, CATALAN, ARABE",Master degree,no,no,A,2,what,L3,unsyncopated,s1,r2,34,Online_whatL3//c.gu.je17.none.none.wav,ñe,ga,li,sil2,sa,ko,ji,sil,do,ka,sil1,['-'],,,none,none,,,,gu,3,,,,,,,,,,,,,,,5.0,4.0,CASTELLANO,0.0,CATALAN,0.0,ARABE,0.0,FRANCES,2.0,INGLES,5.0,5.0,5.0,no,no,no,NADA,,,,NADA,67.0,yes
171,2024-01-12_18h54.43.536,Unsyncopated_study2,s88,23.0,feminino,right,ESPAÑA,"CASTELLANO, CATALAN, ARABE",Master degree,no,no,A,2,what,L3,unsyncopated,s1,r1,35,Online_whatL3//c.gu.je16.1332.444.wav,chu,fu,je,sil,mo,di,gu,sil1,li,ko,sil2,['false alarm'],[0.9907999999998083],[0.9907999999998083],1.332,no_beat,,,"[""space""]",gu,3,,,,,,,,,,,,,,,5.0,4.0,CASTELLANO,0.0,CATALAN,0.0,ARABE,0.0,FRANCES,2.0,INGLES,5.0,5.0,5.0,no,no,no,NADA,,,,NADA,67.0,yes
172,2024-01-12_18h54.43.536,Unsyncopated_study2,s88,23.0,feminino,right,ESPAÑA,"CASTELLANO, CATALAN, ARABE",Master degree,no,no,A,2,what,L3,unsyncopated,s1,r1,36,Online_whatL3//b.ñe.sa12.none.none.wav,chu,ji,di,sil2,mo,ka,li,sil,do,ko,sil1,['-'],,,none,none,,,,ñe,1,,,,,,,,,,,,,,,5.0,4.0,CASTELLANO,0.0,CATALAN,0.0,ARABE,0.0,FRANCES,2.0,INGLES,5.0,5.0,5.0,no,no,no,NADA,,,,NADA,67.0,yes
173,2024-01-12_18h54.43.536,Unsyncopated_study2,s88,23.0,feminino,right,ESPAÑA,"CASTELLANO, CATALAN, ARABE",Master degree,no,no,A,2,what,L3,unsyncopated,s1,r2,37,Online_whatL3//b.ñe.sa15.0.888.wav,ñe,li,ka,sil,sa,le,fu,sil2,je,do,sil1,['catch'],[0.8122000000000753],[0.8122000000000753],0.0,beat,0.8122000000000753,0.8122000000000753,"[""space""]",ñe,1,,,,,,,,,,,,,,,5.0,4.0,CASTELLANO,0.0,CATALAN,0.0,ARABE,0.0,FRANCES,2.0,INGLES,5.0,5.0,5.0,no,no,no,NADA,,,,NADA,67.0,yes
174,2024-01-12_18h54.43.536,Unsyncopated_study2,s88,23.0,feminino,right,ESPAÑA,"CASTELLANO, CATALAN, ARABE",Master degree,no,no,A,2,what,L3,unsyncopated,s1,r2,38,Online_whatL3//b.ñe.sa14.0.888.wav,ñe,le,je,sil,sa,li,fu,sil2,ko,ji,sil1,['miss'],,,0.0,beat,,,,ñe,1,,,,,,,,,,,,,,,5.0,4.0,CASTELLANO,0.0,CATALAN,0.0,ARABE,0.0,FRANCES,2.0,INGLES,5.0,5.0,5.0,no,no,no,NADA,,,,NADA,67.0,yes
175,2024-01-12_18h54.43.536,Unsyncopated_study2,s88,23.0,feminino,right,ESPAÑA,"CASTELLANO, CATALAN, ARABE",Master degree,no,no,A,2,what,L3,unsyncopated,s2,r2,39,Online_whatL3//b.ñe.sa13.888.1776.wav,di,ga,ji,sil,ñe,li,ko,sil1,sa,le,sil2,['catch'],[1.796999999999798],[1.796999999999798],0.888,beat,0.908999999999798,0.908999999999798,"[""space""]",ñe,1,,,,,,,,,,,,,,,5.0,4.0,CASTELLANO,0.0,CATALAN,0.0,ARABE,0.0,FRANCES,2.0,INGLES,5.0,5.0,5.0,no,no,no,NADA,,,,NADA,67.0,yes
176,2024-01-12_18h54.43.536,Unsyncopated_study2,s88,23.0,feminino,right,ESPAÑA,"CASTELLANO, CATALAN, ARABE",Master degree,no,no,A,2,what,L3,unsyncopated,s2,r1,40,Online_whatL3//b.ñe.sa2.none.none.wav,fu,ko,di,sil,chu,le,gu,sil2,mo,je,sil1,['-'],,,none,none,,,,ñe,1,,,,,,,,,,,,,,,5.0,4.0,CASTELLANO,0.0,CATALAN,0.0,ARABE,0.0,FRANCES,2.0,INGLES,5.0,5.0,5.0,no,no,no,NADA,,,,NADA,67.0,yes
177,2024-01-12_18h54.43.536,Unsyncopated_study2,s88,23.0,feminino,right,ESPAÑA,"CASTELLANO, CATALAN, ARABE",Master degree,no,no,A,2,what,L3,unsyncopated,s2,r2,41,Online_whatL3//b.ñe.sa3.888.1776.wav,le,di,gu,sil,ñe,li,je,sil1,sa,ko,sil2,['catch'],[1.9733000000001084],[1.9733000000001084],0.888,beat,1.0853000000001083,1.0853000000001083,"[""space""]",ñe,1,,,,,,,,,,,,,,,5.0,4.0,CASTELLANO,0.0,CATALAN,0.0,ARABE,0.0,FRANCES,2.0,INGLES,5.0,5.0,5.0,no,no,no,NADA,,,,NADA,67.0,yes
178,2024-01-12_18h54.43.536,Unsyncopated_study2,s88,23.0,feminino,right,ESPAÑA,"CASTELLANO, CATALAN, ARABE",Master degree,no,no,A,2,what,L3,unsyncopated,s2,r1,42,Online_whatL3//b.ñe.sa0.none.none.wav,ko,le,ji,sil2,chu,do,gu,sil,mo,fu,sil1,['-'],,,none,none,,,,ñe,1,,,,,,,,,,,,,,,5.0,4.0,CASTELLANO,0.0,CATALAN,0.0,ARABE,0.0,FRANCES,2.0,INGLES,5.0,5.0,5.0,no,no,no,NADA,,,,NADA,67.0,yes
179,2024-01-12_18h54.43.536,Unsyncopated_study2,s88,23.0,feminino,right,ESPAÑA,"CASTELLANO, CATALAN, ARABE",Master degree,no,no,A,2,what,L3,unsyncopated,s1,r2,43,Online_whatL3//b.ñe.sa1.0.888.wav,ñe,le,je,sil,sa,ka,ko,sil2,do,gu,sil1,['catch'],[0.8739000000002761],[0.8739000000002761],0.0,beat,0.8739000000002761,0.8739000000002761,"[""space""]",ñe,1,,,,,,,,,,,,,,,5.0,4.0,CASTELLANO,0.0,CATALAN,0.0,ARABE,0.0,FRANCES,2.0,INGLES,5.0,5.0,5.0,no,no,no,NADA,,,,NADA,67.0,yes
180,2024-01-12_18h54.43.536,Unsyncopated_study2,s88,23.0,feminino,right,ESPAÑA,"CASTELLANO, CATALAN, ARABE",Master degree,no,no,A,2,what,L3,unsyncopated,s2,r2,44,Online_whatL3//a.chu.mo13.none.none.wav,ko,ka,li,sil2,ñe,fu,gu,sil,sa,ji,sil1,['-'],,,none,none,,,,mo,2,,,,,,,,,,,,,,,5.0,4.0,CASTELLANO,0.0,CATALAN,0.0,ARABE,0.0,FRANCES,2.0,INGLES,5.0,5.0,5.0,no,no,no,NADA,,,,NADA,67.0,yes
181,2024-01-12_18h54.43.536,Unsyncopated_study2,s88,23.0,feminino,right,ESPAÑA,"CASTELLANO, CATALAN, ARABE",Master degree,no,no,A,2,what,L3,unsyncopated,s1,r1,45,Online_whatL3//a.chu.mo14.0.888.wav,chu,fu,do,sil,mo,ko,je,sil2,ga,ji,sil1,['catch'],[1.7368999999998778],[1.7368999999998778],0.888,beat,0.8488999999998778,0.8488999999998778,"[""space""]",mo,2,,,,,,,,,,,,,,,5.0,4.0,CASTELLANO,0.0,CATALAN,0.0,ARABE,0.0,FRANCES,2.0,INGLES,5.0,5.0,5.0,no,no,no,NADA,,,,NADA,67.0,yes
182,2024-01-12_18h54.43.536,Unsyncopated_study2,s88,23.0,feminino,right,ESPAÑA,"CASTELLANO, CATALAN, ARABE",Master degree,no,no,A,2,what,L3,unsyncopated,s1,r2,46,Online_whatL3//a.chu.mo15.none.none.wav,ñe,gu,li,sil,sa,ko,ji,sil2,je,ka,sil1,['-'],,,none,none,,,,mo,2,,,,,,,,,,,,,,,5.0,4.0,CASTELLANO,0.0,CATALAN,0.0,ARABE,0.0,FRANCES,2.0,INGLES,5.0,5.0,5.0,no,no,no,NADA,,,,NADA,67.0,yes
183,2024-01-12_18h54.43.536,Unsyncopated_study2,s88,23.0,feminino,right,ESPAÑA,"CASTELLANO, CATALAN, ARABE",Master degree,no,no,A,2,what,L3,unsyncopated,s2,r1,47,Online_whatL3//a.chu.mo12.1110.1998.wav,gu,do,le,sil2,chu,ko,ji,sil,mo,li,sil1,['miss'],,,1.998,no_beat,,,,mo,2,,,,,,,,,,,,,,,5.0,4.0,CASTELLANO,0.0,CATALAN,0.0,ARABE,0.0,FRANCES,2.0,INGLES,5.0,5.0,5.0,no,no,no,NADA,,,,NADA,67.0,yes
184,2024-01-12_18h54.43.536,Unsyncopated_study2,s88,23.0,feminino,right,ESPAÑA,"CASTELLANO, CATALAN, ARABE",Master degree,no,no,A,2,what,L3,unsyncopated,s2,r2,48,Online_whatL3//c.gu.je24.222.1110.wav,fu,gu,do,sil,ñe,je,di,sil1,sa,ga,sil2,['miss'],,,0.222,no_beat,,,,gu,3,,,,,,,,,,,,,,,5.0,4.0,CASTELLANO,0.0,CATALAN,0.0,ARABE,0.0,FRANCES,2.0,INGLES,5.0,5.0,5.0,no,no,no,NADA,,,,NADA,67.0,yes
185,2024-01-12_18h54.43.536,Unsyncopated_study2,s88,23.0,feminino,right,ESPAÑA,"CASTELLANO, CATALAN, ARABE",Master degree,no,no,A,2,what,L3,unsyncopated,s1,r2,49,Online_whatL3//c.gu.je27.1776.222.wav,ñe,je,li,sil,sa,ji,ga,sil1,gu,fu,sil2,['catch_delay'],[1.0487000000001336],[1.0487000000001336],1.776,beat,1.0487000000001336,1.0487000000001336,,gu,3,,,,,,,,,,,,,,,5.0,4.0,CASTELLANO,0.0,CATALAN,0.0,ARABE,0.0,FRANCES,2.0,INGLES,5.0,5.0,5.0,no,no,no,NADA,,,,NADA,67.0,yes
186,2024-01-12_18h54.43.536,Unsyncopated_study2,s88,23.0,feminino,right,ESPAÑA,"CASTELLANO, CATALAN, ARABE",Master degree,no,no,A,2,what,L3,unsyncopated,s1,r2,50,Online_whatL3//c.gu.je25.none.none.wav,ñe,ko,ka,sil,sa,do,li,sil2,di,ji,sil1,['-'],[0.1607000000001335],[0.1607000000001335],none,none,,,"[""space""]",gu,3,,,,,,,,,,,,,,,5.0,4.0,CASTELLANO,0.0,CATALAN,0.0,ARABE,0.0,FRANCES,2.0,INGLES,5.0,5.0,5.0,no,no,no,NADA,,,,NADA,67.0,yes
187,2024-01-12_18h54.43.536,Unsyncopated_study2,s88,23.0,feminino,right,ESPAÑA,"CASTELLANO, CATALAN, ARABE",Master degree,no,no,A,2,what,L3,unsyncopated,s1,r1,51,Online_whatL3//c.gu.je26.none.none.wav,chu,di,le,sil,mo,li,ko,sil2,ka,fu,sil1,['-'],,,none,none,,,,gu,3,,,,,,,,,,,,,,,5.0,4.0,CASTELLANO,0.0,CATALAN,0.0,ARABE,0.0,FRANCES,2.0,INGLES,5.0,5.0,5.0,no,no,no,NADA,,,,NADA,67.0,yes
188,2024-01-12_18h54.43.536,Unsyncopated_study2,s88,23.0,feminino,right,ESPAÑA,"CASTELLANO, CATALAN, ARABE",Master degree,no,no,A,2,what,L3,unsyncopated,s1,r2,52,Online_whatL3//a.chu.mo3.none.none.wav,ñe,gu,li,sil,sa,je,do,sil1,ji,ka,sil2,['-'],,,none,none,,,,mo,2,,,,,,,,,,,,,,,5.0,4.0,CASTELLANO,0.0,CATALAN,0.0,ARABE,0.0,FRANCES,2.0,INGLES,5.0,5.0,5.0,no,no,no,NADA,,,,NADA,67.0,yes
189,2024-01-12_18h54.43.536,Unsyncopated_study2,s88,23.0,feminino,right,ESPAÑA,"CASTELLANO, CATALAN, ARABE",Master degree,no,no,A,2,what,L3,unsyncopated,s2,r1,53,Online_whatL3//a.chu.mo2.1110.1998.wav,fu,do,je,sil2,chu,gu,li,sil,mo,ka,sil1,['catch_delay'],[0.7810999999999841],[0.7810999999999841],1.998,no_beat,0.7810999999999841,0.7810999999999841,,mo,2,,,,,,,,,,,,,,,5.0,4.0,CASTELLANO,0.0,CATALAN,0.0,ARABE,0.0,FRANCES,2.0,INGLES,5.0,5.0,5.0,no,no,no,NADA,,,,NADA,67.0,yes
190,2024-01-12_18h54.43.536,Unsyncopated_study2,s88,23.0,feminino,right,ESPAÑA,"CASTELLANO, CATALAN, ARABE",Master degree,no,no,A,2,what,L3,unsyncopated,s2,r1,54,Online_whatL3//a.chu.mo0.1110.1998.wav,fu,di,li,sil2,chu,ga,ko,sil,mo,le,sil1,['miss'],[0.11509999999998399],[0.11509999999998399],1.998,no_beat,,,"[""space""]",mo,2,,,,,,,,,,,,,,,5.0,4.0,CASTELLANO,0.0,CATALAN,0.0,ARABE,0.0,FRANCES,2.0,INGLES,5.0,5.0,5.0,no,no,no,NADA,,,,NADA,67.0,yes
191,2024-01-12_18h54.43.536,Unsyncopated_study2,s88,23.0,feminino,right,ESPAÑA,"CASTELLANO, CATALAN, ARABE",Master degree,no,no,A,2,what,L3,unsyncopated,s1,r2,55,Online_whatL3//a.chu.mo1.none.none.wav,ñe,gu,ji,sil,sa,di,ga,sil2,fu,ka,sil1,['-'],,,none,none,,,,mo,2,,,,,,,,,,,,,,,5.0,4.0,CASTELLANO,0.0,CATALAN,0.0,ARABE,0.0,FRANCES,2.0,INGLES,5.0,5.0,5.0,no,no,no,NADA,,,,NADA,67.0,yes
192,2024-01-12_18h54.43.536,Unsyncopated_study2,s88,23.0,feminino,right,ESPAÑA,"CASTELLANO, CATALAN, ARABE",Master degree,no,no,A,2,what,L3,unsyncopated,s1,r2,56,Online_whatL3//c.gu.je10.none.none.wav,ñe,li,le,sil,sa,ko,do,sil2,di,ji,sil1,['false alarm'],[2.079099999999926],[2.079099999999926],none,none,,,"[""space""]",gu,3,,,,,,,,,,,,,,,5.0,4.0,CASTELLANO,0.0,CATALAN,0.0,ARABE,0.0,FRANCES,2.0,INGLES,5.0,5.0,5.0,no,no,no,NADA,,,,NADA,67.0,yes
193,2024-01-12_18h54.43.536,Unsyncopated_study2,s88,23.0,feminino,right,ESPAÑA,"CASTELLANO, CATALAN, ARABE",Master degree,no,no,A,2,what,L3,unsyncopated,s2,r1,57,Online_whatL3//c.gu.je9.none.none.wav,ga,fu,ko,sil,chu,ji,ka,sil1,mo,di,sil2,['-'],,,none,none,,,,gu,3,,,,,,,,,,,,,,,5.0,4.0,CASTELLANO,0.0,CATALAN,0.0,ARABE,0.0,FRANCES,2.0,INGLES,5.0,5.0,5.0,no,no,no,NADA,,,,NADA,67.0,yes
194,2024-01-12_18h54.43.536,Unsyncopated_study2,s88,23.0,feminino,right,ESPAÑA,"CASTELLANO, CATALAN, ARABE",Master degree,no,no,A,2,what,L3,unsyncopated,s1,r1,58,Online_whatL3//c.gu.je11.444.1332.wav,chu,li,gu,sil2,mo,je,ka,sil,ko,do,sil1,['catch'],[1.3278000000002521],[1.3278000000002521],0.444,no_beat,0.8838000000002522,0.8838000000002522,"[""space""]",gu,3,,,,,,,,,,,,,,,5.0,4.0,CASTELLANO,0.0,CATALAN,0.0,ARABE,0.0,FRANCES,2.0,INGLES,5.0,5.0,5.0,no,no,no,NADA,,,,NADA,67.0,yes
195,2024-01-12_18h54.43.536,Unsyncopated_study2,s88,23.0,feminino,right,ESPAÑA,"CASTELLANO, CATALAN, ARABE",Master degree,no,no,A,2,what,L3,unsyncopated,s2,r2,59,Online_whatL3//c.gu.je8.none.none.wav,ko,ka,di,sil2,ñe,ji,li,sil,sa,ga,sil1,['-'],,,none,none,,,,gu,3,,,,,,,,,,,,,,,5.0,4.0,CASTELLANO,0.0,CATALAN,0.0,ARABE,0.0,FRANCES,2.0,INGLES,5.0,5.0,5.0,no,no,no,NADA,,,,NADA,67.0,yes
196,2024-01-12_18h54.43.536,Unsyncopated_study2,s88,23.0,feminino,right,ESPAÑA,"CASTELLANO, CATALAN, ARABE",Master degree,no,no,A,2,what,L3,unsyncopated,s2,r2,60,Online_whatL3//a.chu.mo5.none.none.wav,ga,ka,li,sil2,ñe,gu,le,sil,sa,di,sil1,['-'],,,none,none,,,,mo,2,,,,,,,,,,,,,,,5.0,4.0,CASTELLANO,0.0,CATALAN,0.0,ARABE,0.0,FRANCES,2.0,INGLES,5.0,5.0,5.0,no,no,no,NADA,,,,NADA,67.0,yes
197,2024-01-12_18h54.43.536,Unsyncopated_study2,s88,23.0,feminino,right,ESPAÑA,"CASTELLANO, CATALAN, ARABE",Master degree,no,no,A,2,what,L3,unsyncopated,s1,r2,61,Online_whatL3//a.chu.mo4.none.none.wav,ñe,le,gu,sil2,sa,ji,je,sil,ga,li,sil1,['-'],,,none,none,,,,mo,2,,,,,,,,,,,,,,,5.0,4.0,CASTELLANO,0.0,CATALAN,0.0,ARABE,0.0,FRANCES,2.0,INGLES,5.0,5.0,5.0,no,no,no,NADA,,,,NADA,67.0,yes
198,2024-01-12_18h54.43.536,Unsyncopated_study2,s88,23.0,feminino,right,ESPAÑA,"CASTELLANO, CATALAN, ARABE",Master degree,no,no,A,2,what,L3,unsyncopated,s2,r1,62,Online_whatL3//a.chu.mo6.888.1776.wav,do,ko,ka,sil,chu,fu,gu,sil1,mo,ga,sil2,['catch'],[2.410200000000259],[2.410200000000259],1.776,beat,0.634200000000259,0.634200000000259,"[""space""]",mo,2,,,,,,,,,,,,,,,5.0,4.0,CASTELLANO,0.0,CATALAN,0.0,ARABE,0.0,FRANCES,2.0,INGLES,5.0,5.0,5.0,no,no,no,NADA,,,,NADA,67.0,yes
199,2024-01-12_18h54.43.536,Unsyncopated_study2,s88,23.0,feminino,right,ESPAÑA,"CASTELLANO, CATALAN, ARABE",Master degree,no,no,A,2,what,L3,unsyncopated,s1,r1,63,Online_whatL3//a.chu.mo7.0.888.wav,chu,ka,do,sil,mo,le,je,sil1,li,fu,sil2,['catch'],[1.4935999999995602],[1.4935999999995602],0.888,beat,0.6055999999995602,0.6055999999995602,"[""space""]",mo,2,,,,,,,,,,,,,,,5.0,4.0,CASTELLANO,0.0,CATALAN,0.0,ARABE,0.0,FRANCES,2.0,INGLES,5.0,5.0,5.0,no,no,no,NADA,,,,NADA,67.0,yes
200,2024-01-12_18h54.43.536,Unsyncopated_study2,s88,23.0,feminino,right,ESPAÑA,"CASTELLANO, CATALAN, ARABE",Master degree,no,no,A,2,what,L3,unsyncopated,s2,r2,64,Online_whatL3//b.ñe.sa11.1110.1998.wav,li,ko,ka,sil2,ñe,je,ji,sil,sa,fu,sil1,['catch'],[1.9508000000002994],[1.9508000000002994],1.11,no_beat,0.8408000000002993,0.8408000000002993,"[""space""]",ñe,1,,,,,,,,,,,,,,,5.0,4.0,CASTELLANO,0.0,CATALAN,0.0,ARABE,0.0,FRANCES,2.0,INGLES,5.0,5.0,5.0,no,no,no,NADA,,,,NADA,67.0,yes
201,2024-01-12_18h54.43.536,Unsyncopated_study2,s88,23.0,feminino,right,ESPAÑA,"CASTELLANO, CATALAN, ARABE",Master degree,no,no,A,2,what,L3,unsyncopated,s2,r2,65,Online_whatL3//b.ñe.sa8.1110.1998.wav,li,do,di,sil2,ñe,gu,ji,sil,sa,je,sil1,['catch'],[2.205500000000029],[2.205500000000029],1.11,no_beat,1.095500000000029,1.095500000000029,"[""space""]",ñe,1,,,,,,,,,,,,,,,5.0,4.0,CASTELLANO,0.0,CATALAN,0.0,ARABE,0.0,FRANCES,2.0,INGLES,5.0,5.0,5.0,no,no,no,NADA,,,,NADA,67.0,yes
202,2024-01-12_18h54.43.536,Unsyncopated_study2,s88,23.0,feminino,right,ESPAÑA,"CASTELLANO, CATALAN, ARABE",Master degree,no,no,A,2,what,L3,unsyncopated,s2,r2,66,Online_whatL3//b.ñe.sa10.1110.1998.wav,ga,le,gu,sil2,ñe,di,li,sil,sa,ji,sil1,['miss'],,,1.11,no_beat,,,,ñe,1,,,,,,,,,,,,,,,5.0,4.0,CASTELLANO,0.0,CATALAN,0.0,ARABE,0.0,FRANCES,2.0,INGLES,5.0,5.0,5.0,no,no,no,NADA,,,,NADA,67.0,yes
203,2024-01-12_18h54.43.536,Unsyncopated_study2,s88,23.0,feminino,right,ESPAÑA,"CASTELLANO, CATALAN, ARABE",Master degree,no,no,A,2,what,L3,unsyncopated,s1,r2,67,Online_whatL3//b.ñe.sa9.0.1110.wav,ñe,fu,di,sil2,sa,ka,le,sil,li,je,sil1,['catch'],[0.0059000000001105946],[0.0059000000001105946],0.0,beat,0.0059000000001105,0.0059000000001105,"[""space""]",ñe,1,,,,,,,,,,,,,,,5.0,4.0,CASTELLANO,0.0,CATALAN,0.0,ARABE,0.0,FRANCES,2.0,INGLES,5.0,5.0,5.0,no,no,no,NADA,,,,NADA,67.0,yes
204,2024-01-12_18h54.43.536,Unsyncopated_study2,s88,23.0,feminino,right,ESPAÑA,"CASTELLANO, CATALAN, ARABE",Master degree,no,no,A,2,what,L3,unsyncopated,s1,r2,68,Online_whatL3//a.chu.mo21.none.none.wav,ñe,ko,do,sil,sa,li,ji,sil1,gu,ka,sil2,['-'],,,none,none,,,,mo,2,,,,,,,,,,,,,,,5.0,4.0,CASTELLANO,0.0,CATALAN,0.0,ARABE,0.0,FRANCES,2.0,INGLES,5.0,5.0,5.0,no,no,no,NADA,,,,NADA,67.0,yes
205,2024-01-12_18h54.43.536,Unsyncopated_study2,s88,23.0,feminino,right,ESPAÑA,"CASTELLANO, CATALAN, ARABE",Master degree,no,no,A,2,what,L3,unsyncopated,s1,r2,69,Online_whatL3//a.chu.mo22.none.none.wav,ñe,gu,fu,sil,sa,di,li,sil1,do,ji,sil2,['-'],,,none,none,,,,mo,2,,,,,,,,,,,,,,,5.0,4.0,CASTELLANO,0.0,CATALAN,0.0,ARABE,0.0,FRANCES,2.0,INGLES,5.0,5.0,5.0,no,no,no,NADA,,,,NADA,67.0,yes
206,2024-01-12_18h54.43.536,Unsyncopated_study2,s88,23.0,feminino,right,ESPAÑA,"CASTELLANO, CATALAN, ARABE",Master degree,no,no,A,2,what,L3,unsyncopated,s2,r1,70,Online_whatL3//a.chu.mo23.888.1998.wav,fu,ko,li,sil,chu,ga,je,sil2,mo,ji,sil1,['catch_delay'],[0.8922000000000627],[0.8922000000000627],1.998,no_beat,0.8922000000000627,0.8922000000000627,,mo,2,,,,,,,,,,,,,,,5.0,4.0,CASTELLANO,0.0,CATALAN,0.0,ARABE,0.0,FRANCES,2.0,INGLES,5.0,5.0,5.0,no,no,no,NADA,,,,NADA,67.0,yes
207,2024-01-12_18h54.43.536,Unsyncopated_study2,s88,23.0,feminino,right,ESPAÑA,"CASTELLANO, CATALAN, ARABE",Master degree,no,no,A,2,what,L3,unsyncopated,s2,r1,71,Online_whatL3//a.chu.mo20.888.1776.wav,ko,fu,ka,sil,chu,le,do,sil1,mo,je,sil2,['miss'],[0.22620000000006257],[0.22620000000006257],1.776,beat,,,"[""space""]",mo,2,,,,,,,,,,,,,,,5.0,4.0,CASTELLANO,0.0,CATALAN,0.0,ARABE,0.0,FRANCES,2.0,INGLES,5.0,5.0,5.0,no,no,no,NADA,,,,NADA,67.0,yes
208,2024-01-12_18h54.43.536,Unsyncopated_study2,s88,23.0,feminino,right,ESPAÑA,"CASTELLANO, CATALAN, ARABE",Master degree,no,no,A,2,what,L3,unsyncopated,s1,r1,72,Online_whatL3//d.ji.li1.444.1110.wav,chu,je,ji,sil,mo,li,ko,sil1,le,do,sil2,['miss'],,,0.444,no_beat,,,,ji,4,,,,,,,,,,,,,,,5.0,4.0,CASTELLANO,0.0,CATALAN,0.0,ARABE,0.0,FRANCES,2.0,INGLES,5.0,5.0,5.0,no,no,no,NADA,,,,NADA,67.0,yes
209,2024-01-12_18h54.43.536,Unsyncopated_study2,s88,23.0,feminino,right,ESPAÑA,"CASTELLANO, CATALAN, ARABE",Master degree,no,no,A,2,what,L3,unsyncopated,s1,r2,73,Online_whatL3//d.ji.li3.none.none.wav,ñe,di,le,sil,sa,je,gu,sil2,do,ga,sil1,['-'],,,none,none,,,,ji,4,,,,,,,,,,,,,,,5.0,4.0,CASTELLANO,0.0,CATALAN,0.0,ARABE,0.0,FRANCES,2.0,INGLES,5.0,5.0,5.0,no,no,no,NADA,,,,NADA,67.0,yes
210,2024-01-12_18h54.43.536,Unsyncopated_study2,s88,23.0,feminino,right,ESPAÑA,"CASTELLANO, CATALAN, ARABE",Master degree,no,no,A,2,what,L3,unsyncopated,s2,r2,74,Online_whatL3//d.ji.li2.none.none.wav,ga,do,ka,sil2,ñe,fu,di,sil,sa,le,sil1,['-'],,,none,none,,,,ji,4,,,,,,,,,,,,,,,5.0,4.0,CASTELLANO,0.0,CATALAN,0.0,ARABE,0.0,FRANCES,2.0,INGLES,5.0,5.0,5.0,no,no,no,NADA,,,,NADA,67.0,yes
211,2024-01-12_18h54.43.536,Unsyncopated_study2,s88,23.0,feminino,right,ESPAÑA,"CASTELLANO, CATALAN, ARABE",Master degree,no,no,A,2,what,L3,unsyncopated,s1,r2,75,Online_whatL3//d.ji.li0.1776.1110.wav,ñe,do,fu,sil,sa,li,gu,sil1,ji,ka,sil2,['miss'],,,1.776,beat,,,,ji,4,,,,,,,,,,,,,,,5.0,4.0,CASTELLANO,0.0,CATALAN,0.0,ARABE,0.0,FRANCES,2.0,INGLES,5.0,5.0,5.0,no,no,no,NADA,,,,NADA,67.0,yes
