Unnamed: 0,date,expName,participant,age,sex,hand,residence,native_lang,education_level,lang_deficit,aud_deficit,group,block,condition,language,rhythm,rule structure online,rule type online,order_trial_on,trial_online,s1,s2,s3,s4,s5,s6,s7,s8,s9,s10,s11,catch_syll_resp,rts_syll_catch,clean_rts,time_syll,beat_no_beat,catch_rtsTR,catch_rts,syllable_catch.keys,cond_syll,syll_to_catch,test_offline,block_off,condition_off,rhythm_off,rule,rule_str_off,rule_norule,conds_offline,language_off,Partz_no_partm.keys,Partz_no_partm.rt,security_1_7.keys,accuracy,security_1_7.rt,n_lang,n_lang_used,lang_1,age_l1,lang_2,age_l2,lang_3,age_l3,lang_4,age_l4,ability_learn_l2,tendence_mix_lan,music_experience,muisc_use,partiture,instr_1,age_M1,instr_2,age_M2,instr_3,age_M3,preguntas_musica1,BMRQ_answer.response,final comment,BMRQ_Score,bilingual
0,2024-02-04_23h15.00.771,Unsyncopated_study2,s107,23.0,feminino,right,españa,catalan y castellano ,Bachelor degree,no,no,B,1,what,L3,unsyncopated,s2,r2,0,Online_whatL3//d.ji.li29.1554.222.wav,je,li,ga,sil2,ñe,do,ji,sil,sa,gu,sil1,['miss'],,,0.222,no_beat,,,,li,4,testWhatL3Uns//r2.s2.1.wav,1.0,what,unsyncopated,b,s2,rule,rule,L3,z,3.539,6.0,1.0,3.587,4 ,2.0,español,0.0,catalán,0.0,inglés,7.0,francés,9.0,3.0,4.0,yes,no,yes,piano,6,flauta ,6,canto,6,1. Cuando comparto música con alguien siento una complicidad especial con aquella persona.,3.0,  todo genial ,45.0,yes
1,2024-02-04_23h15.00.771,Unsyncopated_study2,s107,23.0,feminino,right,españa,catalan y castellano ,Bachelor degree,no,no,B,1,what,L3,unsyncopated,s2,r2,1,Online_whatL3//d.ji.li30.none.none.wav,gu,di,fu,sil,ñe,je,le,sil1,sa,ko,sil2,['false alarm'],[0.7130000000000791],[0.7130000000000791],none,none,,,"[""space""]",li,4,testWhatL3Uns//dep_viol.r2.s2.0.wav,1.0,what,unsyncopated,b,s2,no_rule,dep,L3,z,1.116,7.0,0.0,1.701,4 ,2.0,español,0.0,catalán,0.0,inglés,7.0,francés,9.0,3.0,4.0,yes,no,yes,piano,6,flauta ,6,canto,6,2. En mi tiempo libre apenas escucho música.,2.0,  todo genial ,45.0,yes
2,2024-02-04_23h15.00.771,Unsyncopated_study2,s107,23.0,feminino,right,españa,catalan y castellano ,Bachelor degree,no,no,B,1,what,L3,unsyncopated,s1,r2,2,Online_whatL3//d.ji.li28.none.none.wav,ñe,ka,di,sil2,sa,le,ko,sil,je,ga,sil1,['-'],,,none,none,,,,li,4,testWhatL3Uns//r1.s2.0.wav,1.0,what,unsyncopated,a,s2,rule,rule,L3,z,1.868,5.0,1.0,2.069,4 ,2.0,español,0.0,catalán,0.0,inglés,7.0,francés,9.0,3.0,4.0,yes,no,yes,piano,6,flauta ,6,canto,6,3. Algunas canciones me ponen los pelos de punta,3.0,  todo genial ,45.0,yes
3,2024-02-04_23h15.00.771,Unsyncopated_study2,s107,23.0,feminino,right,españa,catalan y castellano ,Bachelor degree,no,no,B,1,what,L3,unsyncopated,s1,r1,3,Online_whatL3//d.ji.li31.1332.444.wav,chu,gu,li,sil,mo,ka,ji,sil2,ga,je,sil1,['catch'],[0.9660000000000082],[0.9660000000000082],0.444,no_beat,0.5220000000000082,0.5220000000000082,"[""space""]",li,4,testWhatL3Uns//dep_viol.r1.s2.0.wav,1.0,what,unsyncopated,a,s2,no_rule,dep,L3,m,2.687,4.0,1.0,2.368,4 ,2.0,español,0.0,catalán,0.0,inglés,7.0,francés,9.0,3.0,4.0,yes,no,yes,piano,6,flauta ,6,canto,6,4. La música me hace compañía cuando estoy solo,0.0,  todo genial ,45.0,yes
4,2024-02-04_23h15.00.771,Unsyncopated_study2,s107,23.0,feminino,right,españa,catalan y castellano ,Bachelor degree,no,no,B,1,what,L3,unsyncopated,s2,r2,4,Online_whatL3//a.chu.mo13.none.none.wav,ko,ka,li,sil2,ñe,fu,gu,sil,sa,ji,sil1,['-'],,,none,none,,,,chu,1,testWhatL3Uns//r1.s2.1.wav,1.0,what,unsyncopated,a,s2,rule,rule,L3,z,0.98,7.0,1.0,1.502,4 ,2.0,español,0.0,catalán,0.0,inglés,7.0,francés,9.0,3.0,4.0,yes,no,yes,piano,6,flauta ,6,canto,6,5. No me apetece bailar ni con la música que más me gusta,3.0,  todo genial ,45.0,yes
5,2024-02-04_23h15.00.771,Unsyncopated_study2,s107,23.0,feminino,right,españa,catalan y castellano ,Bachelor degree,no,no,B,1,what,L3,unsyncopated,s1,r1,5,Online_whatL3//a.chu.mo14.0.888.wav,chu,fu,do,sil,mo,ko,je,sil2,ga,ji,sil1,['catch'],[0.3929999999999154],[0.3929999999999154],0.0,beat,0.3929999999999154,0.3929999999999154,"[""space""]",chu,1,testWhatL3Uns//r1.s2.2.wav,1.0,what,unsyncopated,a,s2,rule,rule,L3,m,1.484,3.0,0.0,3.453,4 ,2.0,español,0.0,catalán,0.0,inglés,7.0,francés,9.0,3.0,4.0,yes,no,yes,piano,6,flauta ,6,canto,6,6. La música me hace conectar con la gente,2.0,  todo genial ,45.0,yes
6,2024-02-04_23h15.00.771,Unsyncopated_study2,s107,23.0,feminino,right,españa,catalan y castellano ,Bachelor degree,no,no,B,1,what,L3,unsyncopated,s1,r2,6,Online_whatL3//a.chu.mo15.none.none.wav,ñe,gu,li,sil,sa,ko,ji,sil2,je,ka,sil1,['-'],,,none,none,,,,chu,1,testWhatL3Uns//dep_viol.r1.s1.0.wav,1.0,what,unsyncopated,a,s1,no_rule,dep,L3,z,0.618,6.0,0.0,1.767,4 ,2.0,español,0.0,catalán,0.0,inglés,7.0,francés,9.0,3.0,4.0,yes,no,yes,piano,6,flauta ,6,canto,6,7. Me informo sobre la música que me gusta.,2.0,  todo genial ,45.0,yes
7,2024-02-04_23h15.00.771,Unsyncopated_study2,s107,23.0,feminino,right,españa,catalan y castellano ,Bachelor degree,no,no,B,1,what,L3,unsyncopated,s2,r1,7,Online_whatL3//a.chu.mo12.1110.1998.wav,gu,do,le,sil2,chu,ko,ji,sil,mo,li,sil1,['catch'],[1.6259999999999764],[1.6259999999999764],1.11,no_beat,0.5159999999999763,0.5159999999999763,"[""space""]",chu,1,testWhatL3Uns//r2.s1.1.wav,1.0,what,unsyncopated,b,s1,rule,rule,L3,m,1.968,4.0,0.0,1.768,4 ,2.0,español,0.0,catalán,0.0,inglés,7.0,francés,9.0,3.0,4.0,yes,no,yes,piano,6,flauta ,6,canto,6,8.Me emociono escuchando ciertas canciones.,3.0,  todo genial ,45.0,yes
8,2024-02-04_23h15.00.771,Unsyncopated_study2,s107,23.0,feminino,right,españa,catalan y castellano ,Bachelor degree,no,no,B,1,what,L3,unsyncopated,s1,r1,8,Online_whatL3//b.ñe.sa6.none.none.wav,chu,ji,gu,sil,mo,li,fu,sil2,ka,do,sil1,['-'],,,none,none,,,,sa,2,testWhatL3Uns//r2.s2.0.wav,1.0,what,unsyncopated,b,s2,rule,rule,L3,z,0.367,5.0,1.0,1.77,4 ,2.0,español,0.0,catalán,0.0,inglés,7.0,francés,9.0,3.0,4.0,yes,no,yes,piano,6,flauta ,6,canto,6,9.La música me tranquiliza y me relaja.,3.0,  todo genial ,45.0,yes
9,2024-02-04_23h15.00.771,Unsyncopated_study2,s107,23.0,feminino,right,españa,catalan y castellano ,Bachelor degree,no,no,B,1,what,L3,unsyncopated,s2,r2,9,Online_whatL3//b.ñe.sa5.888.1998.wav,di,je,do,sil,ñe,gu,li,sil2,sa,le,sil1,['catch'],[2.4269999999999072],[2.4269999999999072],1.998,no_beat,0.4289999999999072,0.4289999999999072,"[""space""]",sa,2,testWhatL3Uns//r2.s1.2.wav,1.0,what,unsyncopated,b,s1,rule,rule,L3,z,0.417,5.0,1.0,4.172,4 ,2.0,español,0.0,catalán,0.0,inglés,7.0,francés,9.0,3.0,4.0,yes,no,yes,piano,6,flauta ,6,canto,6,10.La música me hace bailar,2.0,  todo genial ,45.0,yes
10,2024-02-04_23h15.00.771,Unsyncopated_study2,s107,23.0,feminino,right,españa,catalan y castellano ,Bachelor degree,no,no,B,1,what,L3,unsyncopated,s2,r1,10,Online_whatL3//b.ñe.sa7.none.none.wav,gu,di,le,sil,chu,ga,ka,sil1,mo,ko,sil2,['-'],,,none,none,,,,sa,2,testWhatL3Uns//r2.s1.0.wav,1.0,what,unsyncopated,b,s1,rule,rule,L3,m,2.69,3.0,0.0,2.051,4 ,2.0,español,0.0,catalán,0.0,inglés,7.0,francés,9.0,3.0,4.0,yes,no,yes,piano,6,flauta ,6,canto,6,11.Busco novedades musicales continuamente,0.0,  todo genial ,45.0,yes
11,2024-02-04_23h15.00.771,Unsyncopated_study2,s107,23.0,feminino,right,españa,catalan y castellano ,Bachelor degree,no,no,B,1,what,L3,unsyncopated,s1,r1,11,Online_whatL3//b.ñe.sa4.none.none.wav,chu,ka,le,sil,mo,je,ga,sil1,do,ji,sil2,['-'],,,none,none,,,,sa,2,testWhatL3Uns//cat_viol.r1.s2.0.wav,1.0,what,unsyncopated,a,s2,no_rule,cat,L3,z,0.901,6.0,0.0,2.134,4 ,2.0,español,0.0,catalán,0.0,inglés,7.0,francés,9.0,3.0,4.0,yes,no,yes,piano,6,flauta ,6,canto,6,12. Puedo llorar cuando escucho algunas melodías que me gustan mucho.,3.0,  todo genial ,45.0,yes
12,2024-02-04_23h15.00.771,Unsyncopated_study2,s107,23.0,feminino,right,españa,catalan y castellano ,Bachelor degree,no,no,B,1,what,L3,unsyncopated,s2,r2,12,Online_whatL3//c.gu.je18.none.none.wav,ko,do,ji,sil,ñe,li,ga,sil2,sa,di,sil1,['-'],,,none,none,,,,je,3,testWhatL3Uns//r1.s1.1.wav,1.0,what,unsyncopated,a,s1,rule,rule,L3,m,2.121,6.0,0.0,1.752,4 ,2.0,español,0.0,catalán,0.0,inglés,7.0,francés,9.0,3.0,4.0,yes,no,yes,piano,6,flauta ,6,canto,6,13. Me gusta cantar o tocar un instrumento con más gente,2.0,  todo genial ,45.0,yes
13,2024-02-04_23h15.00.771,Unsyncopated_study2,s107,23.0,feminino,right,españa,catalan y castellano ,Bachelor degree,no,no,B,1,what,L3,unsyncopated,s1,r1,13,Online_whatL3//c.gu.je16.1332.444.wav,chu,fu,je,sil,mo,di,gu,sil1,li,ko,sil2,['catch'],[0.8080000000001064],[0.8080000000001064],0.444,no_beat,0.3640000000001064,0.3640000000001064,"[""space""]",je,3,testWhatL3Uns//r1.s1.2.wav,1.0,what,unsyncopated,a,s1,rule,rule,L3,m,0.75,5.0,0.0,1.233,4 ,2.0,español,0.0,catalán,0.0,inglés,7.0,francés,9.0,3.0,4.0,yes,no,yes,piano,6,flauta ,6,canto,6,14. La música me ayuda a desconectar.,3.0,  todo genial ,45.0,yes
14,2024-02-04_23h15.00.771,Unsyncopated_study2,s107,23.0,feminino,right,españa,catalan y castellano ,Bachelor degree,no,no,B,1,what,L3,unsyncopated,s2,r2,14,Online_whatL3//c.gu.je19.0.1110.wav,gu,do,li,sil,ñe,je,ji,sil2,sa,di,sil1,['catch'],[1.9250000000000682],[1.9250000000000682],1.11,no_beat,0.8150000000000681,0.8150000000000681,"[""space""]",je,3,testWhatL3Uns//time_viol.r2.s2.0.wav,1.0,what,unsyncopated,b,s2,no_rule,time,L3,z,1.468,4.0,0.0,1.901,4 ,2.0,español,0.0,catalán,0.0,inglés,7.0,francés,9.0,3.0,4.0,yes,no,yes,piano,6,flauta ,6,canto,6,15. No puedo evitar tararear las canciones que me gustan cuando las escucho.,4.0,  todo genial ,45.0,yes
15,2024-02-04_23h15.00.771,Unsyncopated_study2,s107,23.0,feminino,right,españa,catalan y castellano ,Bachelor degree,no,no,B,1,what,L3,unsyncopated,s1,r2,15,Online_whatL3//c.gu.je17.none.none.wav,ñe,ga,li,sil2,sa,ko,ji,sil,do,ka,sil1,['-'],,,none,none,,,,je,3,testWhatL3Uns//cat_viol.r2.s2.0.wav,1.0,what,unsyncopated,b,s2,no_rule,cat,L3,m,1.033,7.0,1.0,1.317,4 ,2.0,español,0.0,catalán,0.0,inglés,7.0,francés,9.0,3.0,4.0,yes,no,yes,piano,6,flauta ,6,canto,6,16. En los conciertos me siento en sintonía con los artistas y el público.,2.0,  todo genial ,45.0,yes
16,2024-02-04_23h15.00.771,Unsyncopated_study2,s107,23.0,feminino,right,españa,catalan y castellano ,Bachelor degree,no,no,B,1,what,L3,unsyncopated,s2,r2,16,Online_whatL3//a.chu.mo31.none.none.wav,ka,di,ko,sil,ñe,ji,fu,sil1,sa,le,sil2,['false alarm'],[1.7469999999999573],[1.7469999999999573],none,none,,,"[""space""]",chu,1,testWhatL3Uns//cat_viol.r1.s1.0.wav,1.0,what,unsyncopated,a,s1,no_rule,cat,L3,m,0.618,6.0,1.0,1.135,4 ,2.0,español,0.0,catalán,0.0,inglés,7.0,francés,9.0,3.0,4.0,yes,no,yes,piano,6,flauta ,6,canto,6,17. Me gasto bastante dinero en música y cosas relacionadas con la música.,0.0,  todo genial ,45.0,yes
17,2024-02-04_23h15.00.771,Unsyncopated_study2,s107,23.0,feminino,right,españa,catalan y castellano ,Bachelor degree,no,no,B,1,what,L3,unsyncopated,s1,r1,17,Online_whatL3//a.chu.mo30.0.888.wav,chu,ko,li,sil,mo,gu,le,sil2,je,fu,sil1,['miss'],,,0.0,beat,,,,chu,1,testWhatL3Uns//time_viol.r1.s2.0.wav,1.0,what,unsyncopated,a,s2,no_rule,time,L3,m,0.2,7.0,1.0,0.734,4 ,2.0,español,0.0,catalán,0.0,inglés,7.0,francés,9.0,3.0,4.0,yes,no,yes,piano,6,flauta ,6,canto,6,18. Siento escalofríos cuando escucho una melodía que me gusta.,2.0,  todo genial ,45.0,yes
18,2024-02-04_23h15.00.771,Unsyncopated_study2,s107,23.0,feminino,right,españa,catalan y castellano ,Bachelor degree,no,no,B,1,what,L3,unsyncopated,s1,r2,18,Online_whatL3//a.chu.mo29.none.none.wav,ñe,do,di,sil,sa,gu,ko,sil1,le,ka,sil2,['-'],,,none,none,,,,chu,1,testWhatL3Uns//cat_viol.r2.s1.0.wav,1.0,what,unsyncopated,b,s1,no_rule,cat,L3,z,0.636,5.0,0.0,1.67,4 ,2.0,español,0.0,catalán,0.0,inglés,7.0,francés,9.0,3.0,4.0,yes,no,yes,piano,6,flauta ,6,canto,6,19. Con la música me puedo desahogar.,2.0,  todo genial ,45.0,yes
19,2024-02-04_23h15.00.771,Unsyncopated_study2,s107,23.0,feminino,right,españa,catalan y castellano ,Bachelor degree,no,no,B,1,what,L3,unsyncopated,s2,r2,19,Online_whatL3//a.chu.mo28.none.none.wav,di,do,ka,sil,ñe,ko,ji,sil1,sa,fu,sil2,['-'],,,none,none,,,,chu,1,testWhatL3Uns//time_viol.r2.s1.0.wav,1.0,what,unsyncopated,b,s1,no_rule,time,L3,z,0.6,3.0,0.0,0.784,4 ,2.0,español,0.0,catalán,0.0,inglés,7.0,francés,9.0,3.0,4.0,yes,no,yes,piano,6,flauta ,6,canto,6,20. Cuando escucho una melodía que me gusta mucho no puedo evitar mover el cuerpo.,4.0,  todo genial ,45.0,yes
20,2024-02-04_23h15.00.771,Unsyncopated_study2,s107,23.0,feminino,right,españa,catalan y castellano ,Bachelor degree,no,no,B,1,what,L3,unsyncopated,s1,r2,20,Online_whatL3//a.chu.mo3.none.none.wav,ñe,gu,li,sil,sa,je,do,sil1,ji,ka,sil2,['-'],,,none,none,,,,chu,1,testWhatL3Uns//time_viol.r1.s1.0.wav,1.0,what,unsyncopated,a,s1,no_rule,time,L3,m,5.469,6.0,1.0,1.602,4 ,2.0,español,0.0,catalán,0.0,inglés,7.0,francés,9.0,3.0,4.0,yes,no,yes,piano,6,flauta ,6,canto,6,,,  todo genial ,45.0,yes
21,2024-02-04_23h15.00.771,Unsyncopated_study2,s107,23.0,feminino,right,españa,catalan y castellano ,Bachelor degree,no,no,B,1,what,L3,unsyncopated,s2,r1,21,Online_whatL3//a.chu.mo2.1110.1998.wav,fu,do,je,sil2,chu,gu,li,sil,mo,ka,sil1,['catch'],[1.5439999999999827],[1.5439999999999827],1.11,no_beat,0.4339999999999826,0.4339999999999826,"[""space""]",chu,1,testWhatL3Uns//r2.s2.2.wav,1.0,what,unsyncopated,b,s2,rule,rule,L3,m,6.105,5.0,0.0,1.503,4 ,2.0,español,0.0,catalán,0.0,inglés,7.0,francés,9.0,3.0,4.0,yes,no,yes,piano,6,flauta ,6,canto,6,,,  todo genial ,45.0,yes
22,2024-02-04_23h15.00.771,Unsyncopated_study2,s107,23.0,feminino,right,españa,catalan y castellano ,Bachelor degree,no,no,B,1,what,L3,unsyncopated,s2,r1,22,Online_whatL3//a.chu.mo0.1110.1998.wav,fu,di,li,sil2,chu,ga,ko,sil,mo,le,sil1,['catch'],[1.7440000000000282],[1.7440000000000282],1.11,no_beat,0.6340000000000281,0.6340000000000281,"[""space""]",chu,1,testWhatL3Uns//r1.s1.0.wav,1.0,what,unsyncopated,a,s1,rule,rule,L3,z,0.351,7.0,1.0,1.351,4 ,2.0,español,0.0,catalán,0.0,inglés,7.0,francés,9.0,3.0,4.0,yes,no,yes,piano,6,flauta ,6,canto,6,,,  todo genial ,45.0,yes
23,2024-02-04_23h15.00.771,Unsyncopated_study2,s107,23.0,feminino,right,españa,catalan y castellano ,Bachelor degree,no,no,B,1,what,L3,unsyncopated,s1,r2,23,Online_whatL3//a.chu.mo1.none.none.wav,ñe,gu,ji,sil,sa,di,ga,sil2,fu,ka,sil1,['-'],,,none,none,,,,chu,1,testWhatL3Uns//dep_viol.r2.s1.0.wav,1.0,what,unsyncopated,b,s1,no_rule,dep,L3,z,0.634,6.0,0.0,0.935,4 ,2.0,español,0.0,catalán,0.0,inglés,7.0,francés,9.0,3.0,4.0,yes,no,yes,piano,6,flauta ,6,canto,6,,,  todo genial ,45.0,yes
24,2024-02-04_23h15.00.771,Unsyncopated_study2,s107,23.0,feminino,right,españa,catalan y castellano ,Bachelor degree,no,no,B,1,what,L3,unsyncopated,s2,r2,24,Online_whatL3//d.ji.li22.none.none.wav,gu,ka,di,sil,ñe,do,ga,sil2,sa,ko,sil1,['-'],,,none,none,,,,li,4,testConjL2Uns//cat_viol.r2.s1.0.wav,2.0,conjunction_un,unsyncopated,b,s1,no_rule,cat,L2,m,3.769,7.0,1.0,1.851,4 ,2.0,español,0.0,catalán,0.0,inglés,7.0,francés,9.0,3.0,4.0,yes,no,yes,piano,6,flauta ,6,canto,6,,,  todo genial ,45.0,yes
25,2024-02-04_23h15.00.771,Unsyncopated_study2,s107,23.0,feminino,right,españa,catalan y castellano ,Bachelor degree,no,no,B,1,what,L3,unsyncopated,s1,r1,25,Online_whatL3//d.ji.li20.none.none.wav,chu,gu,fu,sil2,mo,ga,do,sil,ka,di,sil1,['-'],,,none,none,,,,li,4,testConjL2Uns//r2.s2.1.wav,2.0,conjunction_un,unsyncopated,b,s2,rule,rule,L2,z,1.268,6.0,1.0,3.052,4 ,2.0,español,0.0,catalán,0.0,inglés,7.0,francés,9.0,3.0,4.0,yes,no,yes,piano,6,flauta ,6,canto,6,,,  todo genial ,45.0,yes
26,2024-02-04_23h15.00.771,Unsyncopated_study2,s107,23.0,feminino,right,españa,catalan y castellano ,Bachelor degree,no,no,B,1,what,L3,unsyncopated,s2,r2,26,Online_whatL3//d.ji.li23.0.444.wav,ji,ko,li,sil,ñe,di,fu,sil2,sa,je,sil1,['catch'],[0.9920000000000755],[0.9920000000000755],0.444,no_beat,0.5480000000000755,0.5480000000000755,"[""space""]",li,4,testConjL2Uns//r2.s1.1.wav,2.0,conjunction_un,unsyncopated,b,s1,rule,rule,L2,m,0.953,5.0,0.0,1.752,4 ,2.0,español,0.0,catalán,0.0,inglés,7.0,francés,9.0,3.0,4.0,yes,no,yes,piano,6,flauta ,6,canto,6,,,  todo genial ,45.0,yes
27,2024-02-04_23h15.00.771,Unsyncopated_study2,s107,23.0,feminino,right,españa,catalan y castellano ,Bachelor degree,no,no,B,1,what,L3,unsyncopated,s2,r2,27,Online_whatL3//d.ji.li21.none.none.wav,di,le,ko,sil,ñe,ka,je,sil1,sa,gu,sil2,['-'],,,none,none,,,,li,4,testConjL2Uns//r1.s1.0.wav,2.0,conjunction_un,unsyncopated,a,s1,rule,rule,L2,m,2.684,4.0,0.0,1.371,4 ,2.0,español,0.0,catalán,0.0,inglés,7.0,francés,9.0,3.0,4.0,yes,no,yes,piano,6,flauta ,6,canto,6,,,  todo genial ,45.0,yes
28,2024-02-04_23h15.00.771,Unsyncopated_study2,s107,23.0,feminino,right,españa,catalan y castellano ,Bachelor degree,no,no,B,1,what,L3,unsyncopated,s2,r2,28,Online_whatL3//c.gu.je7.none.none.wav,ga,li,do,sil,ñe,ka,ko,sil1,sa,le,sil2,['-'],,,none,none,,,,je,3,testConjL2Uns//cat_viol.r1.s1.0.wav,2.0,conjunction_un,unsyncopated,a,s1,no_rule,cat,L2,m,1.4,3.0,1.0,1.421,4 ,2.0,español,0.0,catalán,0.0,inglés,7.0,francés,9.0,3.0,4.0,yes,no,yes,piano,6,flauta ,6,canto,6,,,  todo genial ,45.0,yes
29,2024-02-04_23h15.00.771,Unsyncopated_study2,s107,23.0,feminino,right,españa,catalan y castellano ,Bachelor degree,no,no,B,1,what,L3,unsyncopated,s2,r1,29,Online_whatL3//c.gu.je5.none.none.wav,do,di,ji,sil,chu,li,ka,sil1,mo,le,sil2,['-'],,,none,none,,,,je,3,testConjL2Uns//r2.s2.2.wav,2.0,conjunction_un,unsyncopated,b,s2,rule,rule,L2,m,0.606,7.0,0.0,1.801,4 ,2.0,español,0.0,catalán,0.0,inglés,7.0,francés,9.0,3.0,4.0,yes,no,yes,piano,6,flauta ,6,canto,6,,,  todo genial ,45.0,yes
30,2024-02-04_23h15.00.771,Unsyncopated_study2,s107,23.0,feminino,right,españa,catalan y castellano ,Bachelor degree,no,no,B,1,what,L3,unsyncopated,s2,r2,30,Online_whatL3//c.gu.je4.1110.222.wav,do,je,di,sil,ñe,gu,ji,sil1,sa,le,sil2,['catch'],[0.7279999999999518],[0.7279999999999518],0.222,no_beat,0.5059999999999518,0.5059999999999518,"[""space""]",je,3,testConjL2Uns//dep_viol.r1.s1.0.wav,2.0,conjunction_un,unsyncopated,a,s1,no_rule,dep,L2,z,2.486,6.0,0.0,1.768,4 ,2.0,español,0.0,catalán,0.0,inglés,7.0,francés,9.0,3.0,4.0,yes,no,yes,piano,6,flauta ,6,canto,6,,,  todo genial ,45.0,yes
31,2024-02-04_23h15.00.771,Unsyncopated_study2,s107,23.0,feminino,right,españa,catalan y castellano ,Bachelor degree,no,no,B,1,what,L3,unsyncopated,s1,r1,31,Online_whatL3//c.gu.je6.222.444.wav,chu,gu,je,sil2,mo,fu,ko,sil,ji,ka,sil1,['catch'],[1.0439999999999827],[1.0439999999999827],0.444,no_beat,0.5999999999999828,0.5999999999999828,"[""space""]",je,3,testConjL2Uns//time_viol.r1.s1.0.wav,2.0,conjunction_un,unsyncopated,a,s1,no_rule,time,L2,z,3.485,6.0,0.0,1.285,4 ,2.0,español,0.0,catalán,0.0,inglés,7.0,francés,9.0,3.0,4.0,yes,no,yes,piano,6,flauta ,6,canto,6,,,  todo genial ,45.0,yes
32,2024-02-04_23h15.00.771,Unsyncopated_study2,s107,23.0,feminino,right,españa,catalan y castellano ,Bachelor degree,no,no,B,1,what,L3,unsyncopated,s2,r2,32,Online_whatL3//d.ji.li10.444.0.wav,li,le,ji,sil,ñe,do,di,sil1,sa,ga,sil2,['catch'],[1.5],[1.5],0.0,beat,,1.5,"[""space""]",li,4,testConjL2Uns//r2.s1.2.wav,2.0,conjunction_un,unsyncopated,b,s1,rule,rule,L2,z,0.784,4.0,1.0,1.767,4 ,2.0,español,0.0,catalán,0.0,inglés,7.0,francés,9.0,3.0,4.0,yes,no,yes,piano,6,flauta ,6,canto,6,,,  todo genial ,45.0,yes
33,2024-02-04_23h15.00.771,Unsyncopated_study2,s107,23.0,feminino,right,españa,catalan y castellano ,Bachelor degree,no,no,B,1,what,L3,unsyncopated,s2,r1,33,Online_whatL3//d.ji.li9.1554.444.wav,fu,ga,li,sil2,chu,gu,ji,sil,mo,do,sil1,['catch'],[0.9110000000000582],[0.9110000000000582],0.444,no_beat,0.4670000000000582,0.4670000000000582,"[""space""]",li,4,testConjL2Uns//dep_viol.r1.s2.0.wav,2.0,conjunction_un,unsyncopated,a,s2,no_rule,dep,L2,m,0.584,4.0,1.0,1.152,4 ,2.0,español,0.0,catalán,0.0,inglés,7.0,francés,9.0,3.0,4.0,yes,no,yes,piano,6,flauta ,6,canto,6,,,  todo genial ,45.0,yes
34,2024-02-04_23h15.00.771,Unsyncopated_study2,s107,23.0,feminino,right,españa,catalan y castellano ,Bachelor degree,no,no,B,1,what,L3,unsyncopated,s2,r1,34,Online_whatL3//d.ji.li8.none.none.wav,di,ko,do,sil,chu,ga,le,sil2,mo,je,sil1,['-'],,,none,none,,,,li,4,testConjL2Uns//time_viol.r2.s1.0.wav,2.0,conjunction_un,unsyncopated,b,s1,no_rule,time,L2,m,0.267,4.0,1.0,0.317,4 ,2.0,español,0.0,catalán,0.0,inglés,7.0,francés,9.0,3.0,4.0,yes,no,yes,piano,6,flauta ,6,canto,6,,,  todo genial ,45.0,yes
35,2024-02-04_23h15.00.771,Unsyncopated_study2,s107,23.0,feminino,right,españa,catalan y castellano ,Bachelor degree,no,no,B,1,what,L3,unsyncopated,s2,r1,35,Online_whatL3//d.ji.li11.none.none.wav,fu,di,ka,sil2,chu,do,je,sil,mo,le,sil1,['-'],,,none,none,,,,li,4,testConjL2Uns//cat_viol.r1.s2.0.wav,2.0,conjunction_un,unsyncopated,a,s2,no_rule,cat,L2,z,0.236,6.0,0.0,0.634,4 ,2.0,español,0.0,catalán,0.0,inglés,7.0,francés,9.0,3.0,4.0,yes,no,yes,piano,6,flauta ,6,canto,6,,,  todo genial ,45.0,yes
36,2024-02-04_23h15.00.771,Unsyncopated_study2,s107,23.0,feminino,right,españa,catalan y castellano ,Bachelor degree,no,no,B,1,what,L3,unsyncopated,s2,r1,36,Online_whatL3//d.ji.li5.none.none.wav,le,ka,di,sil,chu,fu,ko,sil2,mo,gu,sil1,['-'],,,none,none,,,,li,4,testConjL2Uns//dep_viol.r2.s2.0.wav,2.0,conjunction_un,unsyncopated,b,s2,no_rule,dep,L2,m,2.252,4.0,1.0,1.154,4 ,2.0,español,0.0,catalán,0.0,inglés,7.0,francés,9.0,3.0,4.0,yes,no,yes,piano,6,flauta ,6,canto,6,,,  todo genial ,45.0,yes
37,2024-02-04_23h15.00.771,Unsyncopated_study2,s107,23.0,feminino,right,españa,catalan y castellano ,Bachelor degree,no,no,B,1,what,L3,unsyncopated,s2,r2,37,Online_whatL3//d.ji.li6.222.1110.wav,ko,ji,ka,sil,ñe,li,di,sil2,sa,ga,sil1,['catch'],[1.643000000000029],[1.643000000000029],1.11,no_beat,0.533000000000029,0.533000000000029,"[""space""]",li,4,testConjL2Uns//r1.s1.2.wav,2.0,conjunction_un,unsyncopated,a,s1,rule,rule,L2,z,0.252,6.0,1.0,1.001,4 ,2.0,español,0.0,catalán,0.0,inglés,7.0,francés,9.0,3.0,4.0,yes,no,yes,piano,6,flauta ,6,canto,6,,,  todo genial ,45.0,yes
38,2024-02-04_23h15.00.771,Unsyncopated_study2,s107,23.0,feminino,right,españa,catalan y castellano ,Bachelor degree,no,no,B,1,what,L3,unsyncopated,s1,r1,38,Online_whatL3//d.ji.li4.none.none.wav,chu,je,ko,sil,mo,ga,le,sil2,do,di,sil1,['-'],,,none,none,,,,li,4,testConjL2Uns//time_viol.r1.s2.0.wav,2.0,conjunction_un,unsyncopated,a,s2,no_rule,time,L2,m,0.771,3.0,1.0,0.967,4 ,2.0,español,0.0,catalán,0.0,inglés,7.0,francés,9.0,3.0,4.0,yes,no,yes,piano,6,flauta ,6,canto,6,,,  todo genial ,45.0,yes
39,2024-02-04_23h15.00.771,Unsyncopated_study2,s107,23.0,feminino,right,españa,catalan y castellano ,Bachelor degree,no,no,B,1,what,L3,unsyncopated,s1,r2,39,Online_whatL3//d.ji.li7.1332.1554.wav,ñe,ga,ka,sil2,sa,ji,li,sil,gu,do,sil1,['catch_delay'],[1.1539999999998691],[1.1539999999998691],1.554,no_beat,1.1539999999998691,1.1539999999998691,,li,4,testConjL2Uns//r2.s2.0.wav,2.0,conjunction_un,unsyncopated,b,s2,rule,rule,L2,z,0.268,6.0,1.0,1.368,4 ,2.0,español,0.0,catalán,0.0,inglés,7.0,francés,9.0,3.0,4.0,yes,no,yes,piano,6,flauta ,6,canto,6,,,  todo genial ,45.0,yes
40,2024-02-04_23h15.00.771,Unsyncopated_study2,s107,23.0,feminino,right,españa,catalan y castellano ,Bachelor degree,no,no,B,1,what,L3,unsyncopated,s1,r2,40,Online_whatL3//a.chu.mo9.none.none.wav,ñe,ga,gu,sil2,sa,je,ko,sil,le,ka,sil1,['-'],[0.04399999999986903],[0.04399999999986903],none,none,,,"[""space""]",chu,1,testConjL2Uns//time_viol.r2.s2.0.wav,2.0,conjunction_un,unsyncopated,b,s2,no_rule,time,L2,m,0.884,4.0,1.0,1.034,4 ,2.0,español,0.0,catalán,0.0,inglés,7.0,francés,9.0,3.0,4.0,yes,no,yes,piano,6,flauta ,6,canto,6,,,  todo genial ,45.0,yes
41,2024-02-04_23h15.00.771,Unsyncopated_study2,s107,23.0,feminino,right,españa,catalan y castellano ,Bachelor degree,no,no,B,1,what,L3,unsyncopated,s2,r2,41,Online_whatL3//a.chu.mo11.none.none.wav,ka,gu,ko,sil,ñe,do,ga,sil1,sa,je,sil2,['-'],,,none,none,,,,chu,1,testConjL2Uns//r1.s2.2.wav,2.0,conjunction_un,unsyncopated,a,s2,rule,rule,L2,m,2.102,2.0,0.0,1.685,4 ,2.0,español,0.0,catalán,0.0,inglés,7.0,francés,9.0,3.0,4.0,yes,no,yes,piano,6,flauta ,6,canto,6,,,  todo genial ,45.0,yes
42,2024-02-04_23h15.00.771,Unsyncopated_study2,s107,23.0,feminino,right,españa,catalan y castellano ,Bachelor degree,no,no,B,1,what,L3,unsyncopated,s2,r2,42,Online_whatL3//a.chu.mo8.none.none.wav,je,ji,li,sil2,ñe,ga,do,sil,sa,ko,sil1,['-'],,,none,none,,,,chu,1,testConjL2Uns//r2.s1.0.wav,2.0,conjunction_un,unsyncopated,b,s1,rule,rule,L2,z,0.254,5.0,1.0,0.917,4 ,2.0,español,0.0,catalán,0.0,inglés,7.0,francés,9.0,3.0,4.0,yes,no,yes,piano,6,flauta ,6,canto,6,,,  todo genial ,45.0,yes
43,2024-02-04_23h15.00.771,Unsyncopated_study2,s107,23.0,feminino,right,españa,catalan y castellano ,Bachelor degree,no,no,B,1,what,L3,unsyncopated,s1,r1,43,Online_whatL3//a.chu.mo10.0.888.wav,chu,je,di,sil,mo,ka,ji,sil2,ko,le,sil1,['catch'],[0.6100000000000136],[0.6100000000000136],0.0,beat,0.6100000000000136,0.6100000000000136,"[""space""]",chu,1,testConjL2Uns//r1.s1.1.wav,2.0,conjunction_un,unsyncopated,a,s1,rule,rule,L2,z,2.034,4.0,1.0,1.101,4 ,2.0,español,0.0,catalán,0.0,inglés,7.0,francés,9.0,3.0,4.0,yes,no,yes,piano,6,flauta ,6,canto,6,,,  todo genial ,45.0,yes
44,2024-02-04_23h15.00.771,Unsyncopated_study2,s107,23.0,feminino,right,españa,catalan y castellano ,Bachelor degree,no,no,B,1,what,L3,unsyncopated,s2,r1,44,Online_whatL3//b.ñe.sa28.none.none.wav,do,gu,le,sil2,chu,ka,ga,sil,mo,je,sil1,['false alarm'],[1.8150000000000546],[1.8150000000000546],none,none,,,"[""space""]",sa,2,testConjL2Uns//dep_viol.r2.s1.0.wav,2.0,conjunction_un,unsyncopated,b,s1,no_rule,dep,L2,m,0.192,3.0,1.0,1.618,4 ,2.0,español,0.0,catalán,0.0,inglés,7.0,francés,9.0,3.0,4.0,yes,no,yes,piano,6,flauta ,6,canto,6,,,  todo genial ,45.0,yes
45,2024-02-04_23h15.00.771,Unsyncopated_study2,s107,23.0,feminino,right,españa,catalan y castellano ,Bachelor degree,no,no,B,1,what,L3,unsyncopated,s2,r2,45,Online_whatL3//b.ñe.sa30.888.1998.wav,li,do,ko,sil,ñe,ka,ji,sil2,sa,fu,sil1,['catch'],[2.509999999999991],[2.509999999999991],1.998,no_beat,0.5119999999999909,0.5119999999999909,"[""space""]",sa,2,testConjL2Uns//r1.s2.1.wav,2.0,conjunction_un,unsyncopated,a,s2,rule,rule,L2,z,0.634,5.0,1.0,0.851,4 ,2.0,español,0.0,catalán,0.0,inglés,7.0,francés,9.0,3.0,4.0,yes,no,yes,piano,6,flauta ,6,canto,6,,,  todo genial ,45.0,yes
46,2024-02-04_23h15.00.771,Unsyncopated_study2,s107,23.0,feminino,right,españa,catalan y castellano ,Bachelor degree,no,no,B,1,what,L3,unsyncopated,s1,r1,46,Online_whatL3//b.ñe.sa31.none.none.wav,chu,ji,fu,sil,mo,li,le,sil1,ka,ko,sil2,['-'],,,none,none,,,,sa,2,testConjL2Uns//r1.s2.0.wav,2.0,conjunction_un,unsyncopated,a,s2,rule,rule,L2,m,0.239,2.0,0.0,0.504,4 ,2.0,español,0.0,catalán,0.0,inglés,7.0,francés,9.0,3.0,4.0,yes,no,yes,piano,6,flauta ,6,canto,6,,,  todo genial ,45.0,yes
47,2024-02-04_23h15.00.771,Unsyncopated_study2,s107,23.0,feminino,right,españa,catalan y castellano ,Bachelor degree,no,no,B,1,what,L3,unsyncopated,s1,r1,47,Online_whatL3//b.ñe.sa29.none.none.wav,chu,le,ga,sil,mo,fu,di,sil2,ji,ko,sil1,['-'],,,none,none,,,,sa,2,testConjL2Uns//cat_viol.r2.s2.0.wav,2.0,conjunction_un,unsyncopated,b,s2,no_rule,cat,L2,m,0.317,6.0,1.0,1.952,4 ,2.0,español,0.0,catalán,0.0,inglés,7.0,francés,9.0,3.0,4.0,yes,no,yes,piano,6,flauta ,6,canto,6,,,  todo genial ,45.0,yes
48,2024-02-04_23h15.00.771,Unsyncopated_study2,s107,23.0,feminino,right,españa,catalan y castellano ,Bachelor degree,no,no,B,1,what,L3,unsyncopated,s1,r2,48,Online_whatL3//d.ji.li25.none.none.wav,ñe,gu,ko,sil2,sa,ka,le,sil,do,ga,sil1,['-'],,,none,none,,,,li,4,testConjL1Syn//dep_viol.r1.s2.0.wav,3.0,conjunction_syn,syncopated,a,s2,no_rule,dep,L1,m,1.785,7.0,1.0,0.867,4 ,2.0,español,0.0,catalán,0.0,inglés,7.0,francés,9.0,3.0,4.0,yes,no,yes,piano,6,flauta ,6,canto,6,,,  todo genial ,45.0,yes
49,2024-02-04_23h15.00.771,Unsyncopated_study2,s107,23.0,feminino,right,españa,catalan y castellano ,Bachelor degree,no,no,B,1,what,L3,unsyncopated,s2,r1,49,Online_whatL3//d.ji.li27.222.1110.wav,gu,ji,do,sil,chu,li,ga,sil1,mo,fu,sil2,['catch'],[1.5810000000000173],[1.5810000000000173],1.11,no_beat,0.4710000000000172,0.4710000000000172,"[""space""]",li,4,testConjL1Syn//r2.s1.0.wav,3.0,conjunction_syn,syncopated,b,s1,rule,rule,L1,m,1.97,6.0,0.0,1.184,4 ,2.0,español,0.0,catalán,0.0,inglés,7.0,francés,9.0,3.0,4.0,yes,no,yes,piano,6,flauta ,6,canto,6,,,  todo genial ,45.0,yes
50,2024-02-04_23h15.00.771,Unsyncopated_study2,s107,23.0,feminino,right,españa,catalan y castellano ,Bachelor degree,no,no,B,1,what,L3,unsyncopated,s1,r1,50,Online_whatL3//d.ji.li26.none.none.wav,chu,gu,je,sil,mo,di,do,sil1,ka,ga,sil2,['-'],,,none,none,,,,li,4,testConjL1Syn//r1.s1.1.wav,3.0,conjunction_syn,syncopated,a,s1,rule,rule,L1,z,0.433,6.0,1.0,1.084,4 ,2.0,español,0.0,catalán,0.0,inglés,7.0,francés,9.0,3.0,4.0,yes,no,yes,piano,6,flauta ,6,canto,6,,,  todo genial ,45.0,yes
51,2024-02-04_23h15.00.771,Unsyncopated_study2,s107,23.0,feminino,right,españa,catalan y castellano ,Bachelor degree,no,no,B,1,what,L3,unsyncopated,s1,r1,51,Online_whatL3//d.ji.li24.1332.1554.wav,chu,di,ko,sil2,mo,ji,li,sil,do,gu,sil1,['catch'],[1.9600000000000364],[1.9600000000000364],1.554,no_beat,0.4060000000000363,0.4060000000000363,"[""space""]",li,4,testConjL1Syn//cat_viol.r2.s2.0.wav,3.0,conjunction_syn,syncopated,b,s2,no_rule,cat,L1,m,1.505,2.0,1.0,0.901,4 ,2.0,español,0.0,catalán,0.0,inglés,7.0,francés,9.0,3.0,4.0,yes,no,yes,piano,6,flauta ,6,canto,6,,,  todo genial ,45.0,yes
52,2024-02-04_23h15.00.771,Unsyncopated_study2,s107,23.0,feminino,right,españa,catalan y castellano ,Bachelor degree,no,no,B,1,what,L3,unsyncopated,s2,r1,52,Online_whatL3//d.ji.li15.222.444.wav,fu,ji,li,sil2,chu,je,ga,sil,mo,di,sil1,['catch'],[1.43100000000004],[1.43100000000004],0.444,no_beat,0.98700000000004,0.98700000000004,"[""space""]",li,4,testConjL1Syn//r2.s2.0.wav,3.0,conjunction_syn,syncopated,b,s2,rule,rule,L1,z,0.854,6.0,1.0,0.767,4 ,2.0,español,0.0,catalán,0.0,inglés,7.0,francés,9.0,3.0,4.0,yes,no,yes,piano,6,flauta ,6,canto,6,,,  todo genial ,45.0,yes
53,2024-02-04_23h15.00.771,Unsyncopated_study2,s107,23.0,feminino,right,españa,catalan y castellano ,Bachelor degree,no,no,B,1,what,L3,unsyncopated,s2,r1,53,Online_whatL3//d.ji.li13.none.none.wav,ga,do,le,sil,chu,ko,ka,sil1,mo,di,sil2,['-'],,,none,none,,,,li,4,testConjL1Syn//time_viol.r1.s2.0.wav,3.0,conjunction_syn,syncopated,a,s2,no_rule,time,L1,m,1.152,7.0,1.0,1.401,4 ,2.0,español,0.0,catalán,0.0,inglés,7.0,francés,9.0,3.0,4.0,yes,no,yes,piano,6,flauta ,6,canto,6,,,  todo genial ,45.0,yes
54,2024-02-04_23h15.00.771,Unsyncopated_study2,s107,23.0,feminino,right,españa,catalan y castellano ,Bachelor degree,no,no,B,1,what,L3,unsyncopated,s1,r1,54,Online_whatL3//d.ji.li14.222.1110.wav,chu,ji,ko,sil,mo,li,ga,sil2,do,di,sil1,['catch'],[2.02800000000002],[2.02800000000002],1.11,no_beat,0.91800000000002,0.91800000000002,"[""space""]",li,4,testConjL1Syn//cat_viol.r2.s1.0.wav,3.0,conjunction_syn,syncopated,b,s1,no_rule,cat,L1,z,0.603,6.0,0.0,1.451,4 ,2.0,español,0.0,catalán,0.0,inglés,7.0,francés,9.0,3.0,4.0,yes,no,yes,piano,6,flauta ,6,canto,6,,,  todo genial ,45.0,yes
55,2024-02-04_23h15.00.771,Unsyncopated_study2,s107,23.0,feminino,right,españa,catalan y castellano ,Bachelor degree,no,no,B,1,what,L3,unsyncopated,s1,r1,55,Online_whatL3//d.ji.li12.none.none.wav,chu,je,fu,sil,mo,ga,le,sil2,di,gu,sil1,['-'],,,none,none,,,,li,4,testConjL1Syn//cat_viol.r1.s1.0.wav,3.0,conjunction_syn,syncopated,a,s1,no_rule,cat,L1,m,0.217,7.0,1.0,0.885,4 ,2.0,español,0.0,catalán,0.0,inglés,7.0,francés,9.0,3.0,4.0,yes,no,yes,piano,6,flauta ,6,canto,6,,,  todo genial ,45.0,yes
56,2024-02-04_23h15.00.771,Unsyncopated_study2,s107,23.0,feminino,right,españa,catalan y castellano ,Bachelor degree,no,no,B,1,what,L3,unsyncopated,s2,r2,56,Online_whatL3//b.ñe.sa11.1110.1998.wav,li,ko,ka,sil2,ñe,je,ji,sil,sa,fu,sil1,"['false alarm', 'catch']","[0.7179999999999609, 2.6159999999999854]",[2.6159999999999854],1.998,no_beat,0.6179999999999854,0.6179999999999854,"[""space"",""space""]",sa,2,testConjL1Syn//r1.s2.0.wav,3.0,conjunction_syn,syncopated,a,s2,rule,rule,L1,m,0.367,7.0,0.0,0.334,4 ,2.0,español,0.0,catalán,0.0,inglés,7.0,francés,9.0,3.0,4.0,yes,no,yes,piano,6,flauta ,6,canto,6,,,  todo genial ,45.0,yes
57,2024-02-04_23h15.00.771,Unsyncopated_study2,s107,23.0,feminino,right,españa,catalan y castellano ,Bachelor degree,no,no,B,1,what,L3,unsyncopated,s2,r2,57,Online_whatL3//b.ñe.sa8.1110.1998.wav,li,do,di,sil2,ñe,gu,ji,sil,sa,je,sil1,['catch_delay'],[0.8259999999999683],[0.8259999999999683],1.998,no_beat,0.8259999999999683,0.8259999999999683,,sa,2,testConjL1Syn//dep_viol.r2.s2.0.wav,3.0,conjunction_syn,syncopated,b,s2,no_rule,dep,L1,m,0.383,7.0,1.0,0.218,4 ,2.0,español,0.0,catalán,0.0,inglés,7.0,francés,9.0,3.0,4.0,yes,no,yes,piano,6,flauta ,6,canto,6,,,  todo genial ,45.0,yes
58,2024-02-04_23h15.00.771,Unsyncopated_study2,s107,23.0,feminino,right,españa,catalan y castellano ,Bachelor degree,no,no,B,1,what,L3,unsyncopated,s1,r2,58,Online_whatL3//b.ñe.sa9.0.1110.wav,ñe,fu,di,sil2,sa,ka,le,sil,li,je,sil1,['miss'],[0.15999999999996817],[0.15999999999996817],1.11,no_beat,,,"[""space""]",sa,2,testConjL1Syn//r2.s1.2.wav,3.0,conjunction_syn,syncopated,b,s1,rule,rule,L1,z,0.134,5.0,1.0,0.551,4 ,2.0,español,0.0,catalán,0.0,inglés,7.0,francés,9.0,3.0,4.0,yes,no,yes,piano,6,flauta ,6,canto,6,,,  todo genial ,45.0,yes
59,2024-02-04_23h15.00.771,Unsyncopated_study2,s107,23.0,feminino,right,españa,catalan y castellano ,Bachelor degree,no,no,B,1,what,L3,unsyncopated,s2,r2,59,Online_whatL3//b.ñe.sa10.1110.1998.wav,ga,le,gu,sil2,ñe,di,li,sil,sa,ji,sil1,"['false alarm', 'catch']","[0.07600000000002183, 2.6110000000001037]",[2.6110000000001037],1.998,no_beat,0.6130000000001037,0.6130000000001037,"[""space"",""space""]",sa,2,testConjL1Syn//r1.s2.1.wav,3.0,conjunction_syn,syncopated,a,s2,rule,rule,L1,m,0.606,5.0,0.0,0.517,4 ,2.0,español,0.0,catalán,0.0,inglés,7.0,francés,9.0,3.0,4.0,yes,no,yes,piano,6,flauta ,6,canto,6,,,  todo genial ,45.0,yes
60,2024-02-04_23h15.00.771,Unsyncopated_study2,s107,23.0,feminino,right,españa,catalan y castellano ,Bachelor degree,no,no,B,1,what,L3,unsyncopated,s2,r1,60,Online_whatL3//c.gu.je12.none.none.wav,ga,di,li,sil,chu,do,fu,sil2,mo,le,sil1,['-'],,,none,none,,,,je,3,testConjL1Syn//dep_viol.r1.s1.0.wav,3.0,conjunction_syn,syncopated,a,s1,no_rule,dep,L1,m,0.044,4.0,1.0,0.483,4 ,2.0,español,0.0,catalán,0.0,inglés,7.0,francés,9.0,3.0,4.0,yes,no,yes,piano,6,flauta ,6,canto,6,,,  todo genial ,45.0,yes
61,2024-02-04_23h15.00.771,Unsyncopated_study2,s107,23.0,feminino,right,españa,catalan y castellano ,Bachelor degree,no,no,B,1,what,L3,unsyncopated,s2,r1,61,Online_whatL3//c.gu.je14.none.none.wav,do,ga,fu,sil2,chu,li,ji,sil,mo,ka,sil1,['-'],,,none,none,,,,je,3,testConjL1Syn//r1.s1.2.wav,3.0,conjunction_syn,syncopated,a,s1,rule,rule,L1,m,0.554,4.0,0.0,0.435,4 ,2.0,español,0.0,catalán,0.0,inglés,7.0,francés,9.0,3.0,4.0,yes,no,yes,piano,6,flauta ,6,canto,6,,,  todo genial ,45.0,yes
62,2024-02-04_23h15.00.771,Unsyncopated_study2,s107,23.0,feminino,right,españa,catalan y castellano ,Bachelor degree,no,no,B,1,what,L3,unsyncopated,s1,r2,62,Online_whatL3//c.gu.je13.1332.222.wav,ñe,je,fu,sil,sa,ko,gu,sil1,di,li,sil2,['catch'],[0.7930000000000064],[0.7930000000000064],0.222,no_beat,0.5710000000000064,0.5710000000000064,"[""space""]",je,3,testConjL1Syn//time_viol.r1.s1.0.wav,3.0,conjunction_syn,syncopated,a,s1,no_rule,time,L1,m,0.371,5.0,1.0,1.234,4 ,2.0,español,0.0,catalán,0.0,inglés,7.0,francés,9.0,3.0,4.0,yes,no,yes,piano,6,flauta ,6,canto,6,,,  todo genial ,45.0,yes
63,2024-02-04_23h15.00.771,Unsyncopated_study2,s107,23.0,feminino,right,españa,catalan y castellano ,Bachelor degree,no,no,B,1,what,L3,unsyncopated,s2,r1,63,Online_whatL3//c.gu.je15.1332.0.wav,je,ji,ko,sil,chu,ka,gu,sil2,mo,ga,sil1,['catch'],[0.6639999999999873],[0.6639999999999873],0.0,beat,0.6639999999999873,0.6639999999999873,"[""space""]",je,3,testConjL1Syn//r1.s1.0.wav,3.0,conjunction_syn,syncopated,a,s1,rule,rule,L1,z,0.817,5.0,1.0,0.801,4 ,2.0,español,0.0,catalán,0.0,inglés,7.0,francés,9.0,3.0,4.0,yes,no,yes,piano,6,flauta ,6,canto,6,,,  todo genial ,45.0,yes
64,2024-02-04_23h15.00.771,Unsyncopated_study2,s107,23.0,feminino,right,españa,catalan y castellano ,Bachelor degree,no,no,B,1,what,L3,unsyncopated,s1,r2,64,Online_whatL3//a.chu.mo21.none.none.wav,ñe,ko,do,sil,sa,li,ji,sil1,gu,ka,sil2,['-'],,,none,none,,,,chu,1,testConjL1Syn//r1.s2.2.wav,3.0,conjunction_syn,syncopated,a,s2,rule,rule,L1,m,0.386,4.0,0.0,0.6,4 ,2.0,español,0.0,catalán,0.0,inglés,7.0,francés,9.0,3.0,4.0,yes,no,yes,piano,6,flauta ,6,canto,6,,,  todo genial ,45.0,yes
65,2024-02-04_23h15.00.771,Unsyncopated_study2,s107,23.0,feminino,right,españa,catalan y castellano ,Bachelor degree,no,no,B,1,what,L3,unsyncopated,s1,r2,65,Online_whatL3//a.chu.mo22.none.none.wav,ñe,gu,fu,sil,sa,di,li,sil1,do,ji,sil2,['-'],,,none,none,,,,chu,1,testConjL1Syn//dep_viol.r2.s1.0.wav,3.0,conjunction_syn,syncopated,b,s1,no_rule,dep,L1,z,0.637,5.0,0.0,0.583,4 ,2.0,español,0.0,catalán,0.0,inglés,7.0,francés,9.0,3.0,4.0,yes,no,yes,piano,6,flauta ,6,canto,6,,,  todo genial ,45.0,yes
66,2024-02-04_23h15.00.771,Unsyncopated_study2,s107,23.0,feminino,right,españa,catalan y castellano ,Bachelor degree,no,no,B,1,what,L3,unsyncopated,s2,r1,66,Online_whatL3//a.chu.mo20.888.1776.wav,ko,fu,ka,sil,chu,le,do,sil1,mo,je,sil2,['catch'],[1.4110000000000582],[1.4110000000000582],0.888,beat,0.5230000000000582,0.5230000000000582,"[""space""]",chu,1,testConjL1Syn//r2.s2.1.wav,3.0,conjunction_syn,syncopated,b,s2,rule,rule,L1,m,1.835,6.0,0.0,0.383,4 ,2.0,español,0.0,catalán,0.0,inglés,7.0,francés,9.0,3.0,4.0,yes,no,yes,piano,6,flauta ,6,canto,6,,,  todo genial ,45.0,yes
67,2024-02-04_23h15.00.771,Unsyncopated_study2,s107,23.0,feminino,right,españa,catalan y castellano ,Bachelor degree,no,no,B,1,what,L3,unsyncopated,s2,r1,67,Online_whatL3//a.chu.mo23.888.1998.wav,fu,ko,li,sil,chu,ga,je,sil2,mo,ji,sil1,['miss'],,,0.888,beat,,,,chu,1,testConjL1Syn//time_viol.r2.s2.0.wav,3.0,conjunction_syn,syncopated,b,s2,no_rule,time,L1,z,1.738,4.0,0.0,0.534,4 ,2.0,español,0.0,catalán,0.0,inglés,7.0,francés,9.0,3.0,4.0,yes,no,yes,piano,6,flauta ,6,canto,6,,,  todo genial ,45.0,yes
68,2024-02-04_23h15.00.771,Unsyncopated_study2,s107,23.0,feminino,right,españa,catalan y castellano ,Bachelor degree,no,no,B,1,what,L3,unsyncopated,s2,r2,68,Online_whatL3//c.gu.je30.none.none.wav,ka,li,do,sil2,ñe,fu,ga,sil,sa,di,sil1,['-'],,,none,none,,,,je,3,testConjL1Syn//time_viol.r2.s1.0.wav,3.0,conjunction_syn,syncopated,b,s1,no_rule,time,L1,z,0.6,6.0,0.0,0.468,4 ,2.0,español,0.0,catalán,0.0,inglés,7.0,francés,9.0,3.0,4.0,yes,no,yes,piano,6,flauta ,6,canto,6,,,  todo genial ,45.0,yes
69,2024-02-04_23h15.00.771,Unsyncopated_study2,s107,23.0,feminino,right,españa,catalan y castellano ,Bachelor degree,no,no,B,1,what,L3,unsyncopated,s1,r1,69,Online_whatL3//c.gu.je31.none.none.wav,chu,fu,ko,sil,mo,li,di,sil2,ga,ka,sil1,['-'],,,none,none,,,,je,3,testConjL1Syn//cat_viol.r1.s2.0.wav,3.0,conjunction_syn,syncopated,a,s2,no_rule,cat,L1,m,0.044,4.0,1.0,0.714,4 ,2.0,español,0.0,catalán,0.0,inglés,7.0,francés,9.0,3.0,4.0,yes,no,yes,piano,6,flauta ,6,canto,6,,,  todo genial ,45.0,yes
70,2024-02-04_23h15.00.771,Unsyncopated_study2,s107,23.0,feminino,right,españa,catalan y castellano ,Bachelor degree,no,no,B,1,what,L3,unsyncopated,s2,r1,70,Online_whatL3//c.gu.je29.1332.222.wav,ko,je,le,sil2,chu,gu,do,sil,mo,ji,sil1,['catch'],[0.86200000000008],[0.86200000000008],0.222,no_beat,0.6400000000000801,0.6400000000000801,"[""space""]",je,3,testConjL1Syn//r2.s1.1.wav,3.0,conjunction_syn,syncopated,b,s1,rule,rule,L1,m,2.57,2.0,0.0,0.468,4 ,2.0,español,0.0,catalán,0.0,inglés,7.0,francés,9.0,3.0,4.0,yes,no,yes,piano,6,flauta ,6,canto,6,,,  todo genial ,45.0,yes
71,2024-02-04_23h15.00.771,Unsyncopated_study2,s107,23.0,feminino,right,españa,catalan y castellano ,Bachelor degree,no,no,B,1,what,L3,unsyncopated,s1,r2,71,Online_whatL3//c.gu.je28.1332.444.wav,ñe,ko,je,sil,sa,fu,gu,sil1,le,ji,sil2,['miss'],,,0.444,no_beat,,,,je,3,testConjL1Syn//r2.s2.2.wav,3.0,conjunction_syn,syncopated,b,s2,rule,rule,L1,z,0.218,6.0,1.0,0.487,4 ,2.0,español,0.0,catalán,0.0,inglés,7.0,francés,9.0,3.0,4.0,yes,no,yes,piano,6,flauta ,6,canto,6,,,  todo genial ,45.0,yes
72,2024-02-04_23h15.00.771,Unsyncopated_study2,s107,23.0,feminino,right,españa,catalan y castellano ,Bachelor degree,no,no,B,1,what,L3,unsyncopated,s1,r1,72,Online_whatL3//a.chu.mo18.0.888.wav,chu,le,ko,sil,mo,ka,li,sil1,gu,je,sil2,['catch'],[1.7309999999999945],[1.7309999999999945],0.0,beat,,1.7309999999999943,"[""space""]",chu,1,testWhenL4Uns//dep_viol.r1.s1.0.wav,4.0,when,unsyncopated,a,s1,no_rule,dep,L4,z,1.617,5.0,1.0,0.135,4 ,2.0,español,0.0,catalán,0.0,inglés,7.0,francés,9.0,3.0,4.0,yes,no,yes,piano,6,flauta ,6,canto,6,,,  todo genial ,45.0,yes
73,2024-02-04_23h15.00.771,Unsyncopated_study2,s107,23.0,feminino,right,españa,catalan y castellano ,Bachelor degree,no,no,B,1,what,L3,unsyncopated,s2,r2,73,Online_whatL3//a.chu.mo19.none.none.wav,ga,gu,ji,sil,ñe,ko,je,sil2,sa,li,sil1,['-'],,,none,none,,,,chu,1,testWhenL4Uns//cat_viol.r1.s2.0.wav,4.0,when,unsyncopated,a,s2,no_rule,cat,L4,z,0.283,6.0,1.0,0.155,4 ,2.0,español,0.0,catalán,0.0,inglés,7.0,francés,9.0,3.0,4.0,yes,no,yes,piano,6,flauta ,6,canto,6,,,  todo genial ,45.0,yes
74,2024-02-04_23h15.00.771,Unsyncopated_study2,s107,23.0,feminino,right,españa,catalan y castellano ,Bachelor degree,no,no,B,1,what,L3,unsyncopated,s1,r1,74,Online_whatL3//a.chu.mo16.0.1110.wav,chu,ga,gu,sil2,mo,li,fu,sil,do,ka,sil1,['catch'],[0.8759999999999764],[0.8759999999999764],0.0,beat,0.8759999999999764,0.8759999999999764,"[""space""]",chu,1,testWhenL4Uns//r2.s2.1.wav,4.0,when,unsyncopated,b,s2,rule,rule,L4,m,0.451,2.0,0.0,0.417,4 ,2.0,español,0.0,catalán,0.0,inglés,7.0,francés,9.0,3.0,4.0,yes,no,yes,piano,6,flauta ,6,canto,6,,,  todo genial ,45.0,yes
75,2024-02-04_23h15.00.771,Unsyncopated_study2,s107,23.0,feminino,right,españa,catalan y castellano ,Bachelor degree,no,no,B,1,what,L3,unsyncopated,s2,r1,75,Online_whatL3//a.chu.mo17.888.1998.wav,je,le,ji,sil,chu,do,fu,sil2,mo,li,sil1,['catch'],[1.6440000000000055],[1.6440000000000055],0.888,beat,0.7560000000000054,0.7560000000000054,"[""space""]",chu,1,testWhenL4Uns//r2.s1.1.wav,4.0,when,unsyncopated,b,s1,rule,rule,L4,z,0.554,4.0,1.0,0.551,4 ,2.0,español,0.0,catalán,0.0,inglés,7.0,francés,9.0,3.0,4.0,yes,no,yes,piano,6,flauta ,6,canto,6,,,  todo genial ,45.0,yes
76,2024-02-04_23h15.00.771,Unsyncopated_study2,s107,23.0,feminino,right,españa,catalan y castellano ,Bachelor degree,no,no,B,1,what,L3,unsyncopated,s2,r2,76,Online_whatL3//b.ñe.sa13.888.1776.wav,di,ga,ji,sil,ñe,li,ko,sil1,sa,le,sil2,['catch'],[2.6299999999999955],[2.6299999999999955],1.776,beat,0.8539999999999954,0.8539999999999954,"[""space""]",sa,2,testWhenL4Uns//r2.s2.2.wav,4.0,when,unsyncopated,b,s2,rule,rule,L4,m,0.806,6.0,0.0,0.602,4 ,2.0,español,0.0,catalán,0.0,inglés,7.0,francés,9.0,3.0,4.0,yes,no,yes,piano,6,flauta ,6,canto,6,,,  todo genial ,45.0,yes
77,2024-02-04_23h15.00.771,Unsyncopated_study2,s107,23.0,feminino,right,españa,catalan y castellano ,Bachelor degree,no,no,B,1,what,L3,unsyncopated,s1,r2,77,Online_whatL3//b.ñe.sa14.0.888.wav,ñe,le,je,sil,sa,li,fu,sil2,ko,ji,sil1,['catch'],[1.5769999999999982],[1.5769999999999982],0.888,beat,0.6889999999999982,0.6889999999999982,"[""space""]",sa,2,testWhenL4Uns//r2.s1.2.wav,4.0,when,unsyncopated,b,s1,rule,rule,L4,z,1.569,4.0,1.0,0.334,4 ,2.0,español,0.0,catalán,0.0,inglés,7.0,francés,9.0,3.0,4.0,yes,no,yes,piano,6,flauta ,6,canto,6,,,  todo genial ,45.0,yes
78,2024-02-04_23h15.00.771,Unsyncopated_study2,s107,23.0,feminino,right,españa,catalan y castellano ,Bachelor degree,no,no,B,1,what,L3,unsyncopated,s1,r2,78,Online_whatL3//b.ñe.sa15.0.888.wav,ñe,li,ka,sil,sa,le,fu,sil2,je,do,sil1,['miss'],,,0.888,beat,,,,sa,2,testWhenL4Uns//time_viol.r2.s1.0.wav,4.0,when,unsyncopated,b,s1,no_rule,time,L4,m,1.183,7.0,0.0,1.035,4 ,2.0,español,0.0,catalán,0.0,inglés,7.0,francés,9.0,3.0,4.0,yes,no,yes,piano,6,flauta ,6,canto,6,,,  todo genial ,45.0,yes
79,2024-02-04_23h15.00.771,Unsyncopated_study2,s107,23.0,feminino,right,españa,catalan y castellano ,Bachelor degree,no,no,B,1,what,L3,unsyncopated,s1,r1,79,Online_whatL3//b.ñe.sa12.none.none.wav,chu,ji,di,sil2,mo,ka,li,sil,do,ko,sil1,['false alarm'],[1.2930000000000064],[1.2930000000000064],none,none,,,"[""space""]",sa,2,testWhenL4Uns//dep_viol.r1.s2.0.wav,4.0,when,unsyncopated,a,s2,no_rule,dep,L4,z,0.118,3.0,1.0,0.154,4 ,2.0,español,0.0,catalán,0.0,inglés,7.0,francés,9.0,3.0,4.0,yes,no,yes,piano,6,flauta ,6,canto,6,,,  todo genial ,45.0,yes
80,2024-02-04_23h15.00.771,Unsyncopated_study2,s107,23.0,feminino,right,españa,catalan y castellano ,Bachelor degree,no,no,B,1,what,L3,unsyncopated,s2,r1,80,Online_whatL3//c.gu.je9.none.none.wav,ga,fu,ko,sil,chu,ji,ka,sil1,mo,di,sil2,['-'],,,none,none,,,,je,3,testWhenL4Uns//r1.s2.2.wav,4.0,when,unsyncopated,a,s2,rule,rule,L4,m,0.001,5.0,0.0,0.346,4 ,2.0,español,0.0,catalán,0.0,inglés,7.0,francés,9.0,3.0,4.0,yes,no,yes,piano,6,flauta ,6,canto,6,,,  todo genial ,45.0,yes
81,2024-02-04_23h15.00.771,Unsyncopated_study2,s107,23.0,feminino,right,españa,catalan y castellano ,Bachelor degree,no,no,B,1,what,L3,unsyncopated,s1,r2,81,Online_whatL3//c.gu.je10.none.none.wav,ñe,li,le,sil,sa,ko,do,sil2,di,ji,sil1,['-'],,,none,none,,,,je,3,testWhenL4Uns//time_viol.r1.s1.0.wav,4.0,when,unsyncopated,a,s1,no_rule,time,L4,m,0.067,2.0,0.0,0.303,4 ,2.0,español,0.0,catalán,0.0,inglés,7.0,francés,9.0,3.0,4.0,yes,no,yes,piano,6,flauta ,6,canto,6,,,  todo genial ,45.0,yes
82,2024-02-04_23h15.00.771,Unsyncopated_study2,s107,23.0,feminino,right,españa,catalan y castellano ,Bachelor degree,no,no,B,1,what,L3,unsyncopated,s1,r1,82,Online_whatL3//c.gu.je11.444.1332.wav,chu,li,gu,sil2,mo,je,ka,sil,ko,do,sil1,['catch'],[2.629000000000019],[2.629000000000019],1.332,no_beat,,1.297000000000019,"[""space""]",je,3,testWhenL4Uns//time_viol.r1.s2.0.wav,4.0,when,unsyncopated,a,s2,no_rule,time,L4,z,0.1,6.0,1.0,0.235,4 ,2.0,español,0.0,catalán,0.0,inglés,7.0,francés,9.0,3.0,4.0,yes,no,yes,piano,6,flauta ,6,canto,6,,,  todo genial ,45.0,yes
83,2024-02-04_23h15.00.771,Unsyncopated_study2,s107,23.0,feminino,right,españa,catalan y castellano ,Bachelor degree,no,no,B,1,what,L3,unsyncopated,s2,r2,83,Online_whatL3//c.gu.je8.none.none.wav,ko,ka,di,sil2,ñe,ji,li,sil,sa,ga,sil1,['-'],,,none,none,,,,je,3,testWhenL4Uns//r2.s1.0.wav,4.0,when,unsyncopated,b,s1,rule,rule,L4,z,1.869,5.0,1.0,0.651,4 ,2.0,español,0.0,catalán,0.0,inglés,7.0,francés,9.0,3.0,4.0,yes,no,yes,piano,6,flauta ,6,canto,6,,,  todo genial ,45.0,yes
84,2024-02-04_23h15.00.771,Unsyncopated_study2,s107,23.0,feminino,right,españa,catalan y castellano ,Bachelor degree,no,no,B,1,what,L3,unsyncopated,s2,r2,84,Online_whatL3//a.chu.mo5.none.none.wav,ga,ka,li,sil2,ñe,gu,le,sil,sa,di,sil1,['-'],,,none,none,,,,chu,1,testWhenL4Uns//r1.s1.1.wav,4.0,when,unsyncopated,a,s1,rule,rule,L4,m,0.618,3.0,0.0,0.234,4 ,2.0,español,0.0,catalán,0.0,inglés,7.0,francés,9.0,3.0,4.0,yes,no,yes,piano,6,flauta ,6,canto,6,,,  todo genial ,45.0,yes
85,2024-02-04_23h15.00.771,Unsyncopated_study2,s107,23.0,feminino,right,españa,catalan y castellano ,Bachelor degree,no,no,B,1,what,L3,unsyncopated,s1,r1,85,Online_whatL3//a.chu.mo7.0.888.wav,chu,ka,do,sil,mo,le,je,sil1,li,fu,sil2,['catch'],[0.6209999999999809],[0.6209999999999809],0.0,beat,0.6209999999999809,0.6209999999999809,"[""space""]",chu,1,testWhenL4Uns//cat_viol.r1.s1.0.wav,4.0,when,unsyncopated,a,s1,no_rule,cat,L4,z,0.735,4.0,1.0,0.604,4 ,2.0,español,0.0,catalán,0.0,inglés,7.0,francés,9.0,3.0,4.0,yes,no,yes,piano,6,flauta ,6,canto,6,,,  todo genial ,45.0,yes
86,2024-02-04_23h15.00.771,Unsyncopated_study2,s107,23.0,feminino,right,españa,catalan y castellano ,Bachelor degree,no,no,B,1,what,L3,unsyncopated,s1,r2,86,Online_whatL3//a.chu.mo4.none.none.wav,ñe,le,gu,sil2,sa,ji,je,sil,ga,li,sil1,['-'],,,none,none,,,,chu,1,testWhenL4Uns//dep_viol.r2.s1.0.wav,4.0,when,unsyncopated,b,s1,no_rule,dep,L4,z,0.917,5.0,1.0,0.5,4 ,2.0,español,0.0,catalán,0.0,inglés,7.0,francés,9.0,3.0,4.0,yes,no,yes,piano,6,flauta ,6,canto,6,,,  todo genial ,45.0,yes
87,2024-02-04_23h15.00.771,Unsyncopated_study2,s107,23.0,feminino,right,españa,catalan y castellano ,Bachelor degree,no,no,B,1,what,L3,unsyncopated,s2,r1,87,Online_whatL3//a.chu.mo6.888.1776.wav,do,ko,ka,sil,chu,fu,gu,sil1,mo,ga,sil2,['catch'],[1.308999999999969],[1.308999999999969],0.888,beat,0.420999999999969,0.420999999999969,"[""space""]",chu,1,testWhenL4Uns//dep_viol.r2.s2.0.wav,4.0,when,unsyncopated,b,s2,no_rule,dep,L4,z,0.167,4.0,1.0,0.651,4 ,2.0,español,0.0,catalán,0.0,inglés,7.0,francés,9.0,3.0,4.0,yes,no,yes,piano,6,flauta ,6,canto,6,,,  todo genial ,45.0,yes
88,2024-02-04_23h15.00.771,Unsyncopated_study2,s107,23.0,feminino,right,españa,catalan y castellano ,Bachelor degree,no,no,B,1,what,L3,unsyncopated,s1,r1,88,Online_whatL3//c.gu.je21.1332.444.wav,chu,li,je,sil,mo,ka,gu,sil1,do,ga,sil2,['catch'],[0.6639999999999873],[0.6639999999999873],0.444,no_beat,0.2199999999999872,0.2199999999999872,"[""space""]",je,3,testWhenL4Uns//r1.s1.2.wav,4.0,when,unsyncopated,a,s1,rule,rule,L4,z,0.517,6.0,1.0,0.287,4 ,2.0,español,0.0,catalán,0.0,inglés,7.0,francés,9.0,3.0,4.0,yes,no,yes,piano,6,flauta ,6,canto,6,,,  todo genial ,45.0,yes
89,2024-02-04_23h15.00.771,Unsyncopated_study2,s107,23.0,feminino,right,españa,catalan y castellano ,Bachelor degree,no,no,B,1,what,L3,unsyncopated,s2,r2,89,Online_whatL3//c.gu.je22.0.444.wav,gu,li,je,sil2,ñe,ji,ko,sil,sa,ga,sil1,['catch'],[1.0289999999999964],[1.0289999999999964],0.444,no_beat,0.5849999999999964,0.5849999999999964,"[""space""]",je,3,testWhenL4Uns//r1.s1.0.wav,4.0,when,unsyncopated,a,s1,rule,rule,L4,z,0.286,6.0,1.0,0.62,4 ,2.0,español,0.0,catalán,0.0,inglés,7.0,francés,9.0,3.0,4.0,yes,no,yes,piano,6,flauta ,6,canto,6,,,  todo genial ,45.0,yes
90,2024-02-04_23h15.00.771,Unsyncopated_study2,s107,23.0,feminino,right,españa,catalan y castellano ,Bachelor degree,no,no,B,1,what,L3,unsyncopated,s1,r2,90,Online_whatL3//c.gu.je23.222.1110.wav,ñe,gu,li,sil,sa,je,do,sil2,ka,ko,sil1,['false alarm'],[0.1270000000000664],[0.1270000000000664],1.11,no_beat,,,"[""space""]",je,3,testWhenL4Uns//r2.s2.0.wav,4.0,when,unsyncopated,b,s2,rule,rule,L4,m,0.418,3.0,0.0,1.068,4 ,2.0,español,0.0,catalán,0.0,inglés,7.0,francés,9.0,3.0,4.0,yes,no,yes,piano,6,flauta ,6,canto,6,,,  todo genial ,45.0,yes
91,2024-02-04_23h15.00.771,Unsyncopated_study2,s107,23.0,feminino,right,españa,catalan y castellano ,Bachelor degree,no,no,B,1,what,L3,unsyncopated,s2,r1,91,Online_whatL3//c.gu.je20.0.1110.wav,gu,li,ko,sil,chu,je,ga,sil2,mo,le,sil1,['catch'],[1.9629999999999654],[1.9629999999999654],1.11,no_beat,0.8529999999999653,0.8529999999999653,"[""space""]",je,3,testWhenL4Uns//r1.s2.1.wav,4.0,when,unsyncopated,a,s2,rule,rule,L4,m,0.173,4.0,0.0,0.395,4 ,2.0,español,0.0,catalán,0.0,inglés,7.0,francés,9.0,3.0,4.0,yes,no,yes,piano,6,flauta ,6,canto,6,,,  todo genial ,45.0,yes
92,2024-02-04_23h15.00.771,Unsyncopated_study2,s107,23.0,feminino,right,españa,catalan y castellano ,Bachelor degree,no,no,B,1,what,L3,unsyncopated,s1,r2,92,Online_whatL3//c.gu.je2.none.none.wav,ñe,di,fu,sil,sa,ji,ga,sil1,ko,do,sil2,['false alarm'],[1.9979999999999336],[1.9979999999999336],none,none,,,"[""space""]",je,3,testWhenL4Uns//time_viol.r2.s2.0.wav,4.0,when,unsyncopated,b,s2,no_rule,time,L4,m,0.1,2.0,0.0,0.434,4 ,2.0,español,0.0,catalán,0.0,inglés,7.0,francés,9.0,3.0,4.0,yes,no,yes,piano,6,flauta ,6,canto,6,,,  todo genial ,45.0,yes
93,2024-02-04_23h15.00.771,Unsyncopated_study2,s107,23.0,feminino,right,españa,catalan y castellano ,Bachelor degree,no,no,B,1,what,L3,unsyncopated,s2,r1,93,Online_whatL3//c.gu.je1.222.1332.wav,di,gu,le,sil2,chu,je,ga,sil,mo,ka,sil1,['miss'],,,1.332,no_beat,,,,je,3,testWhenL4Uns//r1.s2.0.wav,4.0,when,unsyncopated,a,s2,rule,rule,L4,z,0.284,4.0,1.0,0.701,4 ,2.0,español,0.0,catalán,0.0,inglés,7.0,francés,9.0,3.0,4.0,yes,no,yes,piano,6,flauta ,6,canto,6,,,  todo genial ,45.0,yes
94,2024-02-04_23h15.00.771,Unsyncopated_study2,s107,23.0,feminino,right,españa,catalan y castellano ,Bachelor degree,no,no,B,1,what,L3,unsyncopated,s1,r1,94,Online_whatL3//c.gu.je0.none.none.wav,chu,ko,li,sil,mo,ji,le,sil2,ga,di,sil1,['-'],,,none,none,,,,je,3,testWhenL4Uns//cat_viol.r2.s1.0.wav,4.0,when,unsyncopated,b,s1,no_rule,cat,L4,m,0.469,4.0,0.0,0.251,4 ,2.0,español,0.0,catalán,0.0,inglés,7.0,francés,9.0,3.0,4.0,yes,no,yes,piano,6,flauta ,6,canto,6,,,  todo genial ,45.0,yes
95,2024-02-04_23h15.00.771,Unsyncopated_study2,s107,23.0,feminino,right,españa,catalan y castellano ,Bachelor degree,no,no,B,1,what,L3,unsyncopated,s1,r1,95,Online_whatL3//c.gu.je3.none.none.wav,chu,le,do,sil,mo,ji,ka,sil2,li,fu,sil1,['-'],,,none,none,,,,je,3,testWhenL4Uns//cat_viol.r2.s2.0.wav,4.0,when,unsyncopated,b,s2,no_rule,cat,L4,m,0.969,5.0,0.0,0.484,4 ,2.0,español,0.0,catalán,0.0,inglés,7.0,francés,9.0,3.0,4.0,yes,no,yes,piano,6,flauta ,6,canto,6,,,  todo genial ,45.0,yes
96,2024-02-04_23h15.00.771,Unsyncopated_study2,s107,23.0,feminino,right,españa,catalan y castellano ,Bachelor degree,no,no,B,1,what,L3,unsyncopated,s1,r1,96,Online_whatL3//b.ñe.sa26.none.none.wav,chu,di,ga,sil,mo,li,le,sil2,ka,ko,sil1,['-'],,,none,none,,,,sa,2,,,,,,,,,,,,,,,4 ,2.0,español,0.0,catalán,0.0,inglés,7.0,francés,9.0,3.0,4.0,yes,no,yes,piano,6,flauta ,6,canto,6,,,  todo genial ,45.0,yes
97,2024-02-04_23h15.00.771,Unsyncopated_study2,s107,23.0,feminino,right,españa,catalan y castellano ,Bachelor degree,no,no,B,1,what,L3,unsyncopated,s2,r2,97,Online_whatL3//b.ñe.sa27.1110.1998.wav,ga,je,fu,sil2,ñe,li,gu,sil,sa,ka,sil1,['catch'],[2.4939999999999145],[2.4939999999999145],1.998,no_beat,0.4959999999999145,0.4959999999999145,"[""space""]",sa,2,,,,,,,,,,,,,,,4 ,2.0,español,0.0,catalán,0.0,inglés,7.0,francés,9.0,3.0,4.0,yes,no,yes,piano,6,flauta ,6,canto,6,,,  todo genial ,45.0,yes
98,2024-02-04_23h15.00.771,Unsyncopated_study2,s107,23.0,feminino,right,españa,catalan y castellano ,Bachelor degree,no,no,B,1,what,L3,unsyncopated,s1,r2,98,Online_whatL3//b.ñe.sa24.0.888.wav,ñe,je,ga,sil,sa,di,ji,sil1,li,ka,sil2,['catch'],[1.4090000000001055],[1.4090000000001055],0.888,beat,0.5210000000001055,0.5210000000001055,"[""space""]",sa,2,,,,,,,,,,,,,,,4 ,2.0,español,0.0,catalán,0.0,inglés,7.0,francés,9.0,3.0,4.0,yes,no,yes,piano,6,flauta ,6,canto,6,,,  todo genial ,45.0,yes
99,2024-02-04_23h15.00.771,Unsyncopated_study2,s107,23.0,feminino,right,españa,catalan y castellano ,Bachelor degree,no,no,B,1,what,L3,unsyncopated,s1,r2,99,Online_whatL3//b.ñe.sa25.0.888.wav,ñe,di,do,sil,sa,ko,le,sil2,gu,ka,sil1,['miss'],,,0.888,beat,,,,sa,2,,,,,,,,,,,,,,,4 ,2.0,español,0.0,catalán,0.0,inglés,7.0,francés,9.0,3.0,4.0,yes,no,yes,piano,6,flauta ,6,canto,6,,,  todo genial ,45.0,yes
100,2024-02-04_23h15.00.771,Unsyncopated_study2,s107,23.0,feminino,right,españa,catalan y castellano ,Bachelor degree,no,no,B,1,what,L3,unsyncopated,s2,r1,100,Online_whatL3//b.ñe.sa23.none.none.wav,le,je,do,sil,chu,ji,ka,sil2,mo,ko,sil1,['-'],,,none,none,,,,sa,2,,,,,,,,,,,,,,,4 ,2.0,español,0.0,catalán,0.0,inglés,7.0,francés,9.0,3.0,4.0,yes,no,yes,piano,6,flauta ,6,canto,6,,,  todo genial ,45.0,yes
101,2024-02-04_23h15.00.771,Unsyncopated_study2,s107,23.0,feminino,right,españa,catalan y castellano ,Bachelor degree,no,no,B,1,what,L3,unsyncopated,s1,r2,101,Online_whatL3//b.ñe.sa22.0.1110.wav,ñe,gu,fu,sil2,sa,je,ga,sil,do,ko,sil1,['catch'],[1.594000000000051],[1.594000000000051],1.11,no_beat,0.4840000000000508,0.4840000000000508,"[""space""]",sa,2,,,,,,,,,,,,,,,4 ,2.0,español,0.0,catalán,0.0,inglés,7.0,francés,9.0,3.0,4.0,yes,no,yes,piano,6,flauta ,6,canto,6,,,  todo genial ,45.0,yes
102,2024-02-04_23h15.00.771,Unsyncopated_study2,s107,23.0,feminino,right,españa,catalan y castellano ,Bachelor degree,no,no,B,1,what,L3,unsyncopated,s1,r2,102,Online_whatL3//b.ñe.sa21.0.1110.wav,ñe,do,li,sil2,sa,je,ko,sil,le,ga,sil1,['catch'],[1.5789999999999509],[1.5789999999999509],1.11,no_beat,0.4689999999999508,0.4689999999999508,"[""space""]",sa,2,,,,,,,,,,,,,,,4 ,2.0,español,0.0,catalán,0.0,inglés,7.0,francés,9.0,3.0,4.0,yes,no,yes,piano,6,flauta ,6,canto,6,,,  todo genial ,45.0,yes
103,2024-02-04_23h15.00.771,Unsyncopated_study2,s107,23.0,feminino,right,españa,catalan y castellano ,Bachelor degree,no,no,B,1,what,L3,unsyncopated,s1,r1,103,Online_whatL3//b.ñe.sa20.none.none.wav,chu,li,do,sil,mo,je,gu,sil1,ga,le,sil2,['-'],,,none,none,,,,sa,2,,,,,,,,,,,,,,,4 ,2.0,español,0.0,catalán,0.0,inglés,7.0,francés,9.0,3.0,4.0,yes,no,yes,piano,6,flauta ,6,canto,6,,,  todo genial ,45.0,yes
104,2024-02-04_23h15.00.771,Unsyncopated_study2,s107,23.0,feminino,right,españa,catalan y castellano ,Bachelor degree,no,no,B,1,what,L3,unsyncopated,s2,r2,104,Online_whatL3//d.ji.li2.none.none.wav,ga,do,ka,sil2,ñe,fu,di,sil,sa,le,sil1,['false alarm'],[2.5179999999999154],[2.5179999999999154],none,none,,,"[""space""]",li,4,,,,,,,,,,,,,,,4 ,2.0,español,0.0,catalán,0.0,inglés,7.0,francés,9.0,3.0,4.0,yes,no,yes,piano,6,flauta ,6,canto,6,,,  todo genial ,45.0,yes
105,2024-02-04_23h15.00.771,Unsyncopated_study2,s107,23.0,feminino,right,españa,catalan y castellano ,Bachelor degree,no,no,B,1,what,L3,unsyncopated,s1,r1,105,Online_whatL3//d.ji.li1.444.1110.wav,chu,je,ji,sil,mo,li,ko,sil1,le,do,sil2,['miss'],,,1.11,no_beat,,,,li,4,,,,,,,,,,,,,,,4 ,2.0,español,0.0,catalán,0.0,inglés,7.0,francés,9.0,3.0,4.0,yes,no,yes,piano,6,flauta ,6,canto,6,,,  todo genial ,45.0,yes
106,2024-02-04_23h15.00.771,Unsyncopated_study2,s107,23.0,feminino,right,españa,catalan y castellano ,Bachelor degree,no,no,B,1,what,L3,unsyncopated,s1,r2,106,Online_whatL3//d.ji.li3.none.none.wav,ñe,di,le,sil,sa,je,gu,sil2,do,ga,sil1,['-'],,,none,none,,,,li,4,,,,,,,,,,,,,,,4 ,2.0,español,0.0,catalán,0.0,inglés,7.0,francés,9.0,3.0,4.0,yes,no,yes,piano,6,flauta ,6,canto,6,,,  todo genial ,45.0,yes
107,2024-02-04_23h15.00.771,Unsyncopated_study2,s107,23.0,feminino,right,españa,catalan y castellano ,Bachelor degree,no,no,B,1,what,L3,unsyncopated,s1,r2,107,Online_whatL3//d.ji.li0.1776.1110.wav,ñe,do,fu,sil,sa,li,gu,sil1,ji,ka,sil2,['catch'],[1.6779999999999973],[1.6779999999999973],1.11,no_beat,0.5679999999999972,0.5679999999999972,"[""space""]",li,4,,,,,,,,,,,,,,,4 ,2.0,español,0.0,catalán,0.0,inglés,7.0,francés,9.0,3.0,4.0,yes,no,yes,piano,6,flauta ,6,canto,6,,,  todo genial ,45.0,yes
108,2024-02-04_23h15.00.771,Unsyncopated_study2,s107,23.0,feminino,right,españa,catalan y castellano ,Bachelor degree,no,no,B,1,what,L3,unsyncopated,s2,r1,108,Online_whatL3//b.ñe.sa18.none.none.wav,ko,je,ga,sil2,chu,li,fu,sil,mo,gu,sil1,['-'],,,none,none,,,,sa,2,,,,,,,,,,,,,,,4 ,2.0,español,0.0,catalán,0.0,inglés,7.0,francés,9.0,3.0,4.0,yes,no,yes,piano,6,flauta ,6,canto,6,,,  todo genial ,45.0,yes
109,2024-02-04_23h15.00.771,Unsyncopated_study2,s107,23.0,feminino,right,españa,catalan y castellano ,Bachelor degree,no,no,B,1,what,L3,unsyncopated,s2,r1,109,Online_whatL3//b.ñe.sa19.none.none.wav,ji,fu,gu,sil2,chu,do,ka,sil,mo,ko,sil1,['-'],,,none,none,,,,sa,2,,,,,,,,,,,,,,,4 ,2.0,español,0.0,catalán,0.0,inglés,7.0,francés,9.0,3.0,4.0,yes,no,yes,piano,6,flauta ,6,canto,6,,,  todo genial ,45.0,yes
110,2024-02-04_23h15.00.771,Unsyncopated_study2,s107,23.0,feminino,right,españa,catalan y castellano ,Bachelor degree,no,no,B,1,what,L3,unsyncopated,s2,r1,110,Online_whatL3//b.ñe.sa17.none.none.wav,di,gu,do,sil,chu,li,le,sil1,mo,ji,sil2,['-'],,,none,none,,,,sa,2,,,,,,,,,,,,,,,4 ,2.0,español,0.0,catalán,0.0,inglés,7.0,francés,9.0,3.0,4.0,yes,no,yes,piano,6,flauta ,6,canto,6,,,  todo genial ,45.0,yes
111,2024-02-04_23h15.00.771,Unsyncopated_study2,s107,23.0,feminino,right,españa,catalan y castellano ,Bachelor degree,no,no,B,1,what,L3,unsyncopated,s1,r1,111,Online_whatL3//b.ñe.sa16.none.none.wav,chu,fu,ko,sil,mo,li,je,sil1,ka,gu,sil2,['-'],,,none,none,,,,sa,2,,,,,,,,,,,,,,,4 ,2.0,español,0.0,catalán,0.0,inglés,7.0,francés,9.0,3.0,4.0,yes,no,yes,piano,6,flauta ,6,canto,6,,,  todo genial ,45.0,yes
112,2024-02-04_23h15.00.771,Unsyncopated_study2,s107,23.0,feminino,right,españa,catalan y castellano ,Bachelor degree,no,no,B,1,what,L3,unsyncopated,s2,r1,112,Online_whatL3//b.ñe.sa0.none.none.wav,ko,le,ji,sil2,chu,do,gu,sil,mo,fu,sil1,['-'],,,none,none,,,,sa,2,,,,,,,,,,,,,,,4 ,2.0,español,0.0,catalán,0.0,inglés,7.0,francés,9.0,3.0,4.0,yes,no,yes,piano,6,flauta ,6,canto,6,,,  todo genial ,45.0,yes
113,2024-02-04_23h15.00.771,Unsyncopated_study2,s107,23.0,feminino,right,españa,catalan y castellano ,Bachelor degree,no,no,B,1,what,L3,unsyncopated,s2,r2,113,Online_whatL3//b.ñe.sa3.888.1776.wav,le,di,gu,sil,ñe,li,je,sil1,sa,ko,sil2,['catch'],[2.259999999999991],[2.259999999999991],1.776,beat,0.4839999999999909,0.4839999999999909,"[""space""]",sa,2,,,,,,,,,,,,,,,4 ,2.0,español,0.0,catalán,0.0,inglés,7.0,francés,9.0,3.0,4.0,yes,no,yes,piano,6,flauta ,6,canto,6,,,  todo genial ,45.0,yes
114,2024-02-04_23h15.00.771,Unsyncopated_study2,s107,23.0,feminino,right,españa,catalan y castellano ,Bachelor degree,no,no,B,1,what,L3,unsyncopated,s1,r2,114,Online_whatL3//b.ñe.sa1.0.888.wav,ñe,le,je,sil,sa,ka,ko,sil2,do,gu,sil1,['catch'],[2.3439999999999372],[2.3439999999999372],0.888,beat,,1.4559999999999371,"[""space""]",sa,2,,,,,,,,,,,,,,,4 ,2.0,español,0.0,catalán,0.0,inglés,7.0,francés,9.0,3.0,4.0,yes,no,yes,piano,6,flauta ,6,canto,6,,,  todo genial ,45.0,yes
115,2024-02-04_23h15.00.771,Unsyncopated_study2,s107,23.0,feminino,right,españa,catalan y castellano ,Bachelor degree,no,no,B,1,what,L3,unsyncopated,s2,r1,115,Online_whatL3//b.ñe.sa2.none.none.wav,fu,ko,di,sil,chu,le,gu,sil2,mo,je,sil1,['-'],,,none,none,,,,sa,2,,,,,,,,,,,,,,,4 ,2.0,español,0.0,catalán,0.0,inglés,7.0,francés,9.0,3.0,4.0,yes,no,yes,piano,6,flauta ,6,canto,6,,,  todo genial ,45.0,yes
116,2024-02-04_23h15.00.771,Unsyncopated_study2,s107,23.0,feminino,right,españa,catalan y castellano ,Bachelor degree,no,no,B,1,what,L3,unsyncopated,s2,r2,116,Online_whatL3//a.chu.mo25.none.none.wav,le,di,do,sil2,ñe,ga,li,sil,sa,je,sil1,['-'],,,none,none,,,,chu,1,,,,,,,,,,,,,,,4 ,2.0,español,0.0,catalán,0.0,inglés,7.0,francés,9.0,3.0,4.0,yes,no,yes,piano,6,flauta ,6,canto,6,,,  todo genial ,45.0,yes
117,2024-02-04_23h15.00.771,Unsyncopated_study2,s107,23.0,feminino,right,españa,catalan y castellano ,Bachelor degree,no,no,B,1,what,L3,unsyncopated,s1,r1,117,Online_whatL3//a.chu.mo24.0.1110.wav,chu,gu,ka,sil2,mo,le,ji,sil,do,li,sil1,['miss'],,,0.0,beat,,,,chu,1,,,,,,,,,,,,,,,4 ,2.0,español,0.0,catalán,0.0,inglés,7.0,francés,9.0,3.0,4.0,yes,no,yes,piano,6,flauta ,6,canto,6,,,  todo genial ,45.0,yes
118,2024-02-04_23h15.00.771,Unsyncopated_study2,s107,23.0,feminino,right,españa,catalan y castellano ,Bachelor degree,no,no,B,1,what,L3,unsyncopated,s2,r1,118,Online_whatL3//a.chu.mo27.888.1776.wav,ka,ga,ji,sil,chu,je,di,sil1,mo,gu,sil2,['catch'],[1.4460000000000264],[1.4460000000000264],0.888,beat,0.5580000000000264,0.5580000000000264,"[""space""]",chu,1,,,,,,,,,,,,,,,4 ,2.0,español,0.0,catalán,0.0,inglés,7.0,francés,9.0,3.0,4.0,yes,no,yes,piano,6,flauta ,6,canto,6,,,  todo genial ,45.0,yes
119,2024-02-04_23h15.00.771,Unsyncopated_study2,s107,23.0,feminino,right,españa,catalan y castellano ,Bachelor degree,no,no,B,1,what,L3,unsyncopated,s1,r1,119,Online_whatL3//a.chu.mo26.0.888.wav,chu,ji,li,sil,mo,ko,fu,sil2,di,gu,sil1,['catch'],[0.59699999999998],[0.59699999999998],0.0,beat,0.59699999999998,0.59699999999998,"[""space""]",chu,1,,,,,,,,,,,,,,,4 ,2.0,español,0.0,catalán,0.0,inglés,7.0,francés,9.0,3.0,4.0,yes,no,yes,piano,6,flauta ,6,canto,6,,,  todo genial ,45.0,yes
120,2024-02-04_23h15.00.771,Unsyncopated_study2,s107,23.0,feminino,right,españa,catalan y castellano ,Bachelor degree,no,no,B,1,what,L3,unsyncopated,s2,r1,120,Online_whatL3//d.ji.li19.1554.222.wav,le,li,do,sil2,chu,ka,ji,sil,mo,di,sil1,['catch'],[1.5989999999999327],[1.5989999999999327],0.222,no_beat,,1.3769999999999327,"[""space""]",li,4,,,,,,,,,,,,,,,4 ,2.0,español,0.0,catalán,0.0,inglés,7.0,francés,9.0,3.0,4.0,yes,no,yes,piano,6,flauta ,6,canto,6,,,  todo genial ,45.0,yes
121,2024-02-04_23h15.00.771,Unsyncopated_study2,s107,23.0,feminino,right,españa,catalan y castellano ,Bachelor degree,no,no,B,1,what,L3,unsyncopated,s1,r2,121,Online_whatL3//d.ji.li17.none.none.wav,ñe,ko,gu,sil,sa,le,do,sil2,je,ga,sil1,['-'],,,none,none,,,,li,4,,,,,,,,,,,,,,,4 ,2.0,español,0.0,catalán,0.0,inglés,7.0,francés,9.0,3.0,4.0,yes,no,yes,piano,6,flauta ,6,canto,6,,,  todo genial ,45.0,yes
122,2024-02-04_23h15.00.771,Unsyncopated_study2,s107,23.0,feminino,right,españa,catalan y castellano ,Bachelor degree,no,no,B,1,what,L3,unsyncopated,s1,r2,122,Online_whatL3//d.ji.li18.222.1332.wav,ñe,ji,di,sil2,sa,li,gu,sil,ko,fu,sil1,['miss'],,,1.332,no_beat,,,,li,4,,,,,,,,,,,,,,,4 ,2.0,español,0.0,catalán,0.0,inglés,7.0,francés,9.0,3.0,4.0,yes,no,yes,piano,6,flauta ,6,canto,6,,,  todo genial ,45.0,yes
123,2024-02-04_23h15.00.771,Unsyncopated_study2,s107,23.0,feminino,right,españa,catalan y castellano ,Bachelor degree,no,no,B,1,what,L3,unsyncopated,s1,r2,123,Online_whatL3//d.ji.li16.1776.1110.wav,ñe,le,ko,sil,sa,li,je,sil1,ji,fu,sil2,['miss'],,,1.11,no_beat,,,,li,4,,,,,,,,,,,,,,,4 ,2.0,español,0.0,catalán,0.0,inglés,7.0,francés,9.0,3.0,4.0,yes,no,yes,piano,6,flauta ,6,canto,6,,,  todo genial ,45.0,yes
124,2024-02-04_23h15.00.771,Unsyncopated_study2,s107,23.0,feminino,right,españa,catalan y castellano ,Bachelor degree,no,no,B,1,what,L3,unsyncopated,s2,r2,124,Online_whatL3//c.gu.je24.222.1110.wav,fu,gu,do,sil,ñe,je,di,sil1,sa,ga,sil2,['catch'],[1.7369999999999663],[1.7369999999999663],1.11,no_beat,0.6269999999999663,0.6269999999999663,"[""space""]",je,3,,,,,,,,,,,,,,,4 ,2.0,español,0.0,catalán,0.0,inglés,7.0,francés,9.0,3.0,4.0,yes,no,yes,piano,6,flauta ,6,canto,6,,,  todo genial ,45.0,yes
125,2024-02-04_23h15.00.771,Unsyncopated_study2,s107,23.0,feminino,right,españa,catalan y castellano ,Bachelor degree,no,no,B,1,what,L3,unsyncopated,s1,r2,125,Online_whatL3//c.gu.je25.none.none.wav,ñe,ko,ka,sil,sa,do,li,sil2,di,ji,sil1,['-'],,,none,none,,,,je,3,,,,,,,,,,,,,,,4 ,2.0,español,0.0,catalán,0.0,inglés,7.0,francés,9.0,3.0,4.0,yes,no,yes,piano,6,flauta ,6,canto,6,,,  todo genial ,45.0,yes
126,2024-02-04_23h15.00.771,Unsyncopated_study2,s107,23.0,feminino,right,españa,catalan y castellano ,Bachelor degree,no,no,B,1,what,L3,unsyncopated,s1,r2,126,Online_whatL3//c.gu.je27.1776.222.wav,ñe,je,li,sil,sa,ji,ga,sil1,gu,fu,sil2,['catch'],[0.9610000000000127],[0.9610000000000127],0.222,no_beat,0.7390000000000128,0.7390000000000128,"[""space""]",je,3,,,,,,,,,,,,,,,4 ,2.0,español,0.0,catalán,0.0,inglés,7.0,francés,9.0,3.0,4.0,yes,no,yes,piano,6,flauta ,6,canto,6,,,  todo genial ,45.0,yes
127,2024-02-04_23h15.00.771,Unsyncopated_study2,s107,23.0,feminino,right,españa,catalan y castellano ,Bachelor degree,no,no,B,1,what,L3,unsyncopated,s1,r1,127,Online_whatL3//c.gu.je26.none.none.wav,chu,di,le,sil,mo,li,ko,sil2,ka,fu,sil1,['-'],,,none,none,,,,je,3,,,,,,,,,,,,,,,4 ,2.0,español,0.0,catalán,0.0,inglés,7.0,francés,9.0,3.0,4.0,yes,no,yes,piano,6,flauta ,6,canto,6,,,  todo genial ,45.0,yes
128,2024-02-04_23h15.00.771,Unsyncopated_study2,s107,23.0,feminino,right,españa,catalan y castellano ,Bachelor degree,no,no,B,2,conjunction_un,L2,unsyncopated,s1,r1,0,Online_conjL2_un//d.si.ñu0.none.none.wav,go,cha,ba,sil,du,ñi,bi,sil1,su,to,sil2,['-'],,,none,none,,,,ñu,4,,,,,,,,,,,,,,,4 ,2.0,español,0.0,catalán,0.0,inglés,7.0,francés,9.0,3.0,4.0,yes,no,yes,piano,6,flauta ,6,canto,6,,,  todo genial ,45.0,yes
129,2024-02-04_23h15.00.771,Unsyncopated_study2,s107,23.0,feminino,right,españa,catalan y castellano ,Bachelor degree,no,no,B,2,conjunction_un,L2,unsyncopated,s1,r2,1,Online_conjL2_un//d.si.ñu1.222.1332.wav,fe,si,ba,sil,ra,su,ñu,sil1,ñi,me,sil2,"['catch', 'false alarm']","[1.8940000000000055, 2.643000000000029]",[1.8940000000000055],1.332,no_beat,0.5620000000000054,0.5620000000000054,"[""space"",""space""]",ñu,4,,,,,,,,,,,,,,,4 ,2.0,español,0.0,catalán,0.0,inglés,7.0,francés,9.0,3.0,4.0,yes,no,yes,piano,6,flauta ,6,canto,6,,,  todo genial ,45.0,yes
130,2024-02-04_23h15.00.771,Unsyncopated_study2,s107,23.0,feminino,right,españa,catalan y castellano ,Bachelor degree,no,no,B,2,conjunction_un,L2,unsyncopated,s1,r1,2,Online_conjL2_un//d.si.ñu2.1776.444.wav,go,ba,ñu,sil,du,to,su,sil1,si,ñi,sil2,['catch'],[1.0760000000000218],[1.0760000000000218],0.444,no_beat,0.6320000000000219,0.6320000000000219,"[""space""]",ñu,4,,,,,,,,,,,,,,,4 ,2.0,español,0.0,catalán,0.0,inglés,7.0,francés,9.0,3.0,4.0,yes,no,yes,piano,6,flauta ,6,canto,6,,,  todo genial ,45.0,yes
131,2024-02-04_23h15.00.771,Unsyncopated_study2,s107,23.0,feminino,right,españa,catalan y castellano ,Bachelor degree,no,no,B,2,conjunction_un,L2,unsyncopated,s2,r2,3,Online_conjL2_un//d.si.ñu3.none.none.wav,to,ba,te,sil,fe,cha,bi,sil1,ra,me,sil2,['false alarm'],[0.07500000000004547],[0.07500000000004547],none,none,,,"[""space""]",ñu,4,,,,,,,,,,,,,,,4 ,2.0,español,0.0,catalán,0.0,inglés,7.0,francés,9.0,3.0,4.0,yes,no,yes,piano,6,flauta ,6,canto,6,,,  todo genial ,45.0,yes
132,2024-02-04_23h15.00.771,Unsyncopated_study2,s107,23.0,feminino,right,españa,catalan y castellano ,Bachelor degree,no,no,B,2,conjunction_un,L2,unsyncopated,s1,r1,4,Online_conjL2_un//c.cha.me1.none.none.wav,go,ba,mi,sil,du,ñi,ñu,sil1,bi,si,sil2,['-'],,,none,none,,,,me,3,,,,,,,,,,,,,,,4 ,2.0,español,0.0,catalán,0.0,inglés,7.0,francés,9.0,3.0,4.0,yes,no,yes,piano,6,flauta ,6,canto,6,,,  todo genial ,45.0,yes
133,2024-02-04_23h15.00.771,Unsyncopated_study2,s107,23.0,feminino,right,españa,catalan y castellano ,Bachelor degree,no,no,B,2,conjunction_un,L2,unsyncopated,s1,r1,5,Online_conjL2_un//c.cha.me3.1776.1110.wav,go,mi,te,sil,du,me,bi,sil1,cha,su,sil2,['catch'],[2.0100000000002183],[2.0100000000002183],1.11,no_beat,0.9000000000002182,0.9000000000002182,"[""space""]",me,3,,,,,,,,,,,,,,,4 ,2.0,español,0.0,catalán,0.0,inglés,7.0,francés,9.0,3.0,4.0,yes,no,yes,piano,6,flauta ,6,canto,6,,,  todo genial ,45.0,yes
134,2024-02-04_23h15.00.771,Unsyncopated_study2,s107,23.0,feminino,right,españa,catalan y castellano ,Bachelor degree,no,no,B,2,conjunction_un,L2,unsyncopated,s2,r2,6,Online_conjL2_un//c.cha.me0.none.none.wav,si,mi,ba,sil,fe,su,te,sil1,ra,ñi,sil2,['-'],,,none,none,,,,me,3,,,,,,,,,,,,,,,4 ,2.0,español,0.0,catalán,0.0,inglés,7.0,francés,9.0,3.0,4.0,yes,no,yes,piano,6,flauta ,6,canto,6,,,  todo genial ,45.0,yes
135,2024-02-04_23h15.00.771,Unsyncopated_study2,s107,23.0,feminino,right,españa,catalan y castellano ,Bachelor degree,no,no,B,2,conjunction_un,L2,unsyncopated,s1,r2,7,Online_conjL2_un//c.cha.me2.1776.444.wav,fe,su,me,sil,ra,mi,ba,sil1,cha,ñu,sil2,['catch'],[0.9759999999998854],[0.9759999999998854],0.444,no_beat,0.5319999999998855,0.5319999999998855,"[""space""]",me,3,,,,,,,,,,,,,,,4 ,2.0,español,0.0,catalán,0.0,inglés,7.0,francés,9.0,3.0,4.0,yes,no,yes,piano,6,flauta ,6,canto,6,,,  todo genial ,45.0,yes
136,2024-02-04_23h15.00.771,Unsyncopated_study2,s107,23.0,feminino,right,españa,catalan y castellano ,Bachelor degree,no,no,B,2,conjunction_un,L2,unsyncopated,s2,r2,8,Online_conjL2_un//a.go.du6.none.none.wav,ñu,ba,bi,sil,fe,me,su,sil1,ra,to,sil2,['-'],,,none,none,,,,go,1,,,,,,,,,,,,,,,4 ,2.0,español,0.0,catalán,0.0,inglés,7.0,francés,9.0,3.0,4.0,yes,no,yes,piano,6,flauta ,6,canto,6,,,  todo genial ,45.0,yes
137,2024-02-04_23h15.00.771,Unsyncopated_study2,s107,23.0,feminino,right,españa,catalan y castellano ,Bachelor degree,no,no,B,2,conjunction_un,L2,unsyncopated,s2,r2,9,Online_conjL2_un//a.go.du4.none.none.wav,ñi,ba,cha,sil,fe,bi,ñu,sil1,ra,mi,sil2,['-'],,,none,none,,,,go,1,,,,,,,,,,,,,,,4 ,2.0,español,0.0,catalán,0.0,inglés,7.0,francés,9.0,3.0,4.0,yes,no,yes,piano,6,flauta ,6,canto,6,,,  todo genial ,45.0,yes
138,2024-02-04_23h15.00.771,Unsyncopated_study2,s107,23.0,feminino,right,españa,catalan y castellano ,Bachelor degree,no,no,B,2,conjunction_un,L2,unsyncopated,s1,r2,10,Online_conjL2_un//a.go.du5.none.none.wav,fe,bi,me,sil,ra,to,si,sil1,ñi,ñu,sil2,['-'],,,none,none,,,,go,1,,,,,,,,,,,,,,,4 ,2.0,español,0.0,catalán,0.0,inglés,7.0,francés,9.0,3.0,4.0,yes,no,yes,piano,6,flauta ,6,canto,6,,,  todo genial ,45.0,yes
139,2024-02-04_23h15.00.771,Unsyncopated_study2,s107,23.0,feminino,right,españa,catalan y castellano ,Bachelor degree,no,no,B,2,conjunction_un,L2,unsyncopated,s2,r2,11,Online_conjL2_un//a.go.du7.none.none.wav,to,ñi,su,sil,fe,si,ñu,sil1,ra,cha,sil2,['-'],,,none,none,,,,go,1,,,,,,,,,,,,,,,4 ,2.0,español,0.0,catalán,0.0,inglés,7.0,francés,9.0,3.0,4.0,yes,no,yes,piano,6,flauta ,6,canto,6,,,  todo genial ,45.0,yes
140,2024-02-04_23h15.00.771,Unsyncopated_study2,s107,23.0,feminino,right,españa,catalan y castellano ,Bachelor degree,no,no,B,2,conjunction_un,L2,unsyncopated,s1,r1,12,Online_conjL2_un//a.go.du19.0.888.wav,go,ba,si,sil,du,su,mi,sil1,ñi,cha,sil2,['catch'],[0.6489999999998872],[0.6489999999998872],0.0,beat,0.6489999999998872,0.6489999999998872,"[""space""]",go,1,,,,,,,,,,,,,,,4 ,2.0,español,0.0,catalán,0.0,inglés,7.0,francés,9.0,3.0,4.0,yes,no,yes,piano,6,flauta ,6,canto,6,,,  todo genial ,45.0,yes
141,2024-02-04_23h15.00.771,Unsyncopated_study2,s107,23.0,feminino,right,españa,catalan y castellano ,Bachelor degree,no,no,B,2,conjunction_un,L2,unsyncopated,s1,r1,13,Online_conjL2_un//a.go.du18.0.888.wav,go,me,si,sil,du,ñi,ba,sil1,su,to,sil2,['catch'],[0.6110000000001037],[0.6110000000001037],0.0,beat,0.6110000000001037,0.6110000000001037,"[""space""]",go,1,,,,,,,,,,,,,,,4 ,2.0,español,0.0,catalán,0.0,inglés,7.0,francés,9.0,3.0,4.0,yes,no,yes,piano,6,flauta ,6,canto,6,,,  todo genial ,45.0,yes
142,2024-02-04_23h15.00.771,Unsyncopated_study2,s107,23.0,feminino,right,españa,catalan y castellano ,Bachelor degree,no,no,B,2,conjunction_un,L2,unsyncopated,s1,r2,14,Online_conjL2_un//a.go.du17.none.none.wav,fe,mi,su,sil,ra,me,bi,sil1,te,si,sil2,['-'],,,none,none,,,,go,1,,,,,,,,,,,,,,,4 ,2.0,español,0.0,catalán,0.0,inglés,7.0,francés,9.0,3.0,4.0,yes,no,yes,piano,6,flauta ,6,canto,6,,,  todo genial ,45.0,yes
143,2024-02-04_23h15.00.771,Unsyncopated_study2,s107,23.0,feminino,right,españa,catalan y castellano ,Bachelor degree,no,no,B,2,conjunction_un,L2,unsyncopated,s2,r1,15,Online_conjL2_un//a.go.du16.888.1776.wav,cha,me,ba,sil,go,to,si,sil1,du,ñi,sil2,['catch'],[1.5950000000000273],[1.5950000000000273],0.888,beat,0.7070000000000273,0.7070000000000273,"[""space""]",go,1,,,,,,,,,,,,,,,4 ,2.0,español,0.0,catalán,0.0,inglés,7.0,francés,9.0,3.0,4.0,yes,no,yes,piano,6,flauta ,6,canto,6,,,  todo genial ,45.0,yes
144,2024-02-04_23h15.00.771,Unsyncopated_study2,s107,23.0,feminino,right,españa,catalan y castellano ,Bachelor degree,no,no,B,2,conjunction_un,L2,unsyncopated,s2,r1,16,Online_conjL2_un//a.go.du21.888.1776.wav,ba,cha,si,sil,go,to,ñi,sil1,du,te,sil2,['catch'],[1.6900000000000546],[1.6900000000000546],0.888,beat,0.8020000000000546,0.8020000000000546,"[""space""]",go,1,,,,,,,,,,,,,,,4 ,2.0,español,0.0,catalán,0.0,inglés,7.0,francés,9.0,3.0,4.0,yes,no,yes,piano,6,flauta ,6,canto,6,,,  todo genial ,45.0,yes
145,2024-02-04_23h15.00.771,Unsyncopated_study2,s107,23.0,feminino,right,españa,catalan y castellano ,Bachelor degree,no,no,B,2,conjunction_un,L2,unsyncopated,s1,r1,17,Online_conjL2_un//a.go.du20.0.888.wav,go,ñi,si,sil,du,mi,me,sil1,bi,te,sil2,['catch'],[1.7950000000000728],[1.7950000000000728],0.0,beat,,1.7950000000000728,"[""space""]",go,1,,,,,,,,,,,,,,,4 ,2.0,español,0.0,catalán,0.0,inglés,7.0,francés,9.0,3.0,4.0,yes,no,yes,piano,6,flauta ,6,canto,6,,,  todo genial ,45.0,yes
146,2024-02-04_23h15.00.771,Unsyncopated_study2,s107,23.0,feminino,right,españa,catalan y castellano ,Bachelor degree,no,no,B,2,conjunction_un,L2,unsyncopated,s2,r1,18,Online_conjL2_un//a.go.du23.888.1776.wav,su,te,mi,sil,go,ñu,bi,sil1,du,me,sil2,['catch'],[1.5270000000000437],[1.5270000000000437],0.888,beat,0.6390000000000436,0.6390000000000436,"[""space""]",go,1,,,,,,,,,,,,,,,4 ,2.0,español,0.0,catalán,0.0,inglés,7.0,francés,9.0,3.0,4.0,yes,no,yes,piano,6,flauta ,6,canto,6,,,  todo genial ,45.0,yes
147,2024-02-04_23h15.00.771,Unsyncopated_study2,s107,23.0,feminino,right,españa,catalan y castellano ,Bachelor degree,no,no,B,2,conjunction_un,L2,unsyncopated,s1,r2,19,Online_conjL2_un//a.go.du22.none.none.wav,fe,bi,ñi,sil,ra,mi,me,sil1,su,ñu,sil2,['-'],,,none,none,,,,go,1,,,,,,,,,,,,,,,4 ,2.0,español,0.0,catalán,0.0,inglés,7.0,francés,9.0,3.0,4.0,yes,no,yes,piano,6,flauta ,6,canto,6,,,  todo genial ,45.0,yes
148,2024-02-04_23h15.00.771,Unsyncopated_study2,s107,23.0,feminino,right,españa,catalan y castellano ,Bachelor degree,no,no,B,2,conjunction_un,L2,unsyncopated,s2,r1,20,Online_conjL2_un//b.fe.ra27.none.none.wav,mi,si,me,sil,go,ñu,to,sil1,du,te,sil2,['-'],,,none,none,,,,ra,2,,,,,,,,,,,,,,,4 ,2.0,español,0.0,catalán,0.0,inglés,7.0,francés,9.0,3.0,4.0,yes,no,yes,piano,6,flauta ,6,canto,6,,,  todo genial ,45.0,yes
149,2024-02-04_23h15.00.771,Unsyncopated_study2,s107,23.0,feminino,right,españa,catalan y castellano ,Bachelor degree,no,no,B,2,conjunction_un,L2,unsyncopated,s2,r2,21,Online_conjL2_un//b.fe.ra26.888.1776.wav,ba,su,si,sil,fe,ñu,mi,sil1,ra,ñi,sil2,['catch'],[2.2110000000000127],[2.2110000000000127],1.776,beat,0.4350000000000127,0.4350000000000127,"[""space""]",ra,2,,,,,,,,,,,,,,,4 ,2.0,español,0.0,catalán,0.0,inglés,7.0,francés,9.0,3.0,4.0,yes,no,yes,piano,6,flauta ,6,canto,6,,,  todo genial ,45.0,yes
150,2024-02-04_23h15.00.771,Unsyncopated_study2,s107,23.0,feminino,right,españa,catalan y castellano ,Bachelor degree,no,no,B,2,conjunction_un,L2,unsyncopated,s1,r1,22,Online_conjL2_un//b.fe.ra24.none.none.wav,go,su,bi,sil,du,me,ñi,sil1,mi,cha,sil2,['-'],,,none,none,,,,ra,2,,,,,,,,,,,,,,,4 ,2.0,español,0.0,catalán,0.0,inglés,7.0,francés,9.0,3.0,4.0,yes,no,yes,piano,6,flauta ,6,canto,6,,,  todo genial ,45.0,yes
151,2024-02-04_23h15.00.771,Unsyncopated_study2,s107,23.0,feminino,right,españa,catalan y castellano ,Bachelor degree,no,no,B,2,conjunction_un,L2,unsyncopated,s2,r2,23,Online_conjL2_un//b.fe.ra25.888.1776.wav,me,bi,si,sil,fe,su,te,sil1,ra,cha,sil2,['miss'],,,1.776,beat,,,,ra,2,,,,,,,,,,,,,,,4 ,2.0,español,0.0,catalán,0.0,inglés,7.0,francés,9.0,3.0,4.0,yes,no,yes,piano,6,flauta ,6,canto,6,,,  todo genial ,45.0,yes
152,2024-02-04_23h15.00.771,Unsyncopated_study2,s107,23.0,feminino,right,españa,catalan y castellano ,Bachelor degree,no,no,B,2,conjunction_un,L2,unsyncopated,s2,r2,24,Online_conjL2_un//b.fe.ra4.888.1776.wav,bi,ñi,to,sil,fe,me,ba,sil1,ra,cha,sil2,['miss'],,,1.776,beat,,,,ra,2,,,,,,,,,,,,,,,4 ,2.0,español,0.0,catalán,0.0,inglés,7.0,francés,9.0,3.0,4.0,yes,no,yes,piano,6,flauta ,6,canto,6,,,  todo genial ,45.0,yes
153,2024-02-04_23h15.00.771,Unsyncopated_study2,s107,23.0,feminino,right,españa,catalan y castellano ,Bachelor degree,no,no,B,2,conjunction_un,L2,unsyncopated,s1,r2,25,Online_conjL2_un//b.fe.ra6.0.888.wav,fe,me,ñu,sil,ra,ñi,mi,sil1,to,bi,sil2,['miss'],,,0.888,beat,,,,ra,2,,,,,,,,,,,,,,,4 ,2.0,español,0.0,catalán,0.0,inglés,7.0,francés,9.0,3.0,4.0,yes,no,yes,piano,6,flauta ,6,canto,6,,,  todo genial ,45.0,yes
154,2024-02-04_23h15.00.771,Unsyncopated_study2,s107,23.0,feminino,right,españa,catalan y castellano ,Bachelor degree,no,no,B,2,conjunction_un,L2,unsyncopated,s1,r1,26,Online_conjL2_un//b.fe.ra7.none.none.wav,go,ñu,si,sil,du,me,ñi,sil1,te,ba,sil2,['-'],,,none,none,,,,ra,2,,,,,,,,,,,,,,,4 ,2.0,español,0.0,catalán,0.0,inglés,7.0,francés,9.0,3.0,4.0,yes,no,yes,piano,6,flauta ,6,canto,6,,,  todo genial ,45.0,yes
155,2024-02-04_23h15.00.771,Unsyncopated_study2,s107,23.0,feminino,right,españa,catalan y castellano ,Bachelor degree,no,no,B,2,conjunction_un,L2,unsyncopated,s2,r1,27,Online_conjL2_un//b.fe.ra5.none.none.wav,cha,si,su,sil,go,bi,mi,sil1,du,ñu,sil2,['-'],,,none,none,,,,ra,2,,,,,,,,,,,,,,,4 ,2.0,español,0.0,catalán,0.0,inglés,7.0,francés,9.0,3.0,4.0,yes,no,yes,piano,6,flauta ,6,canto,6,,,  todo genial ,45.0,yes
156,2024-02-04_23h15.00.771,Unsyncopated_study2,s107,23.0,feminino,right,españa,catalan y castellano ,Bachelor degree,no,no,B,2,conjunction_un,L2,unsyncopated,s1,r1,28,Online_conjL2_un//b.fe.ra3.none.none.wav,go,bi,to,sil,du,me,ba,sil1,su,ñi,sil2,['-'],,,none,none,,,,ra,2,,,,,,,,,,,,,,,4 ,2.0,español,0.0,catalán,0.0,inglés,7.0,francés,9.0,3.0,4.0,yes,no,yes,piano,6,flauta ,6,canto,6,,,  todo genial ,45.0,yes
157,2024-02-04_23h15.00.771,Unsyncopated_study2,s107,23.0,feminino,right,españa,catalan y castellano ,Bachelor degree,no,no,B,2,conjunction_un,L2,unsyncopated,s2,r2,29,Online_conjL2_un//b.fe.ra0.888.1776.wav,ñi,mi,si,sil,fe,to,ñu,sil1,ra,ba,sil2,['miss'],,,1.776,beat,,,,ra,2,,,,,,,,,,,,,,,4 ,2.0,español,0.0,catalán,0.0,inglés,7.0,francés,9.0,3.0,4.0,yes,no,yes,piano,6,flauta ,6,canto,6,,,  todo genial ,45.0,yes
158,2024-02-04_23h15.00.771,Unsyncopated_study2,s107,23.0,feminino,right,españa,catalan y castellano ,Bachelor degree,no,no,B,2,conjunction_un,L2,unsyncopated,s1,r1,30,Online_conjL2_un//b.fe.ra1.none.none.wav,go,te,su,sil,du,mi,ba,sil1,si,me,sil2,['-'],,,none,none,,,,ra,2,,,,,,,,,,,,,,,4 ,2.0,español,0.0,catalán,0.0,inglés,7.0,francés,9.0,3.0,4.0,yes,no,yes,piano,6,flauta ,6,canto,6,,,  todo genial ,45.0,yes
159,2024-02-04_23h15.00.771,Unsyncopated_study2,s107,23.0,feminino,right,españa,catalan y castellano ,Bachelor degree,no,no,B,2,conjunction_un,L2,unsyncopated,s2,r2,31,Online_conjL2_un//b.fe.ra2.888.1776.wav,bi,te,mi,sil,fe,ñu,si,sil1,ra,ba,sil2,['miss'],,,1.776,beat,,,,ra,2,,,,,,,,,,,,,,,4 ,2.0,español,0.0,catalán,0.0,inglés,7.0,francés,9.0,3.0,4.0,yes,no,yes,piano,6,flauta ,6,canto,6,,,  todo genial ,45.0,yes
160,2024-02-04_23h15.00.771,Unsyncopated_study2,s107,23.0,feminino,right,españa,catalan y castellano ,Bachelor degree,no,no,B,2,conjunction_un,L2,unsyncopated,s1,r2,32,Online_conjL2_un//c.cha.me7.none.none.wav,fe,su,si,sil,ra,te,mi,sil1,ba,to,sil2,['false alarm'],[0.3849999999999909],[0.3849999999999909],none,none,,,"[""space""]",me,3,,,,,,,,,,,,,,,4 ,2.0,español,0.0,catalán,0.0,inglés,7.0,francés,9.0,3.0,4.0,yes,no,yes,piano,6,flauta ,6,canto,6,,,  todo genial ,45.0,yes
161,2024-02-04_23h15.00.771,Unsyncopated_study2,s107,23.0,feminino,right,españa,catalan y castellano ,Bachelor degree,no,no,B,2,conjunction_un,L2,unsyncopated,s2,r1,33,Online_conjL2_un//c.cha.me5.1332.0.wav,me,ñi,mi,sil,go,to,cha,sil1,du,su,sil2,['catch'],[0.9100000000000819],[0.9100000000000819],0.0,beat,0.910000000000082,0.910000000000082,"[""space""]",me,3,,,,,,,,,,,,,,,4 ,2.0,español,0.0,catalán,0.0,inglés,7.0,francés,9.0,3.0,4.0,yes,no,yes,piano,6,flauta ,6,canto,6,,,  todo genial ,45.0,yes
162,2024-02-04_23h15.00.771,Unsyncopated_study2,s107,23.0,feminino,right,españa,catalan y castellano ,Bachelor degree,no,no,B,2,conjunction_un,L2,unsyncopated,s2,r2,34,Online_conjL2_un//c.cha.me4.none.none.wav,mi,ñu,su,sil,fe,bi,to,sil1,ra,ñi,sil2,['-'],,,none,none,,,,me,3,,,,,,,,,,,,,,,4 ,2.0,español,0.0,catalán,0.0,inglés,7.0,francés,9.0,3.0,4.0,yes,no,yes,piano,6,flauta ,6,canto,6,,,  todo genial ,45.0,yes
163,2024-02-04_23h15.00.771,Unsyncopated_study2,s107,23.0,feminino,right,españa,catalan y castellano ,Bachelor degree,no,no,B,2,conjunction_un,L2,unsyncopated,s2,r2,35,Online_conjL2_un//c.cha.me6.0.222.wav,cha,me,si,sil,fe,ba,te,sil1,ra,to,sil2,['miss'],,,0.222,no_beat,,,,me,3,,,,,,,,,,,,,,,4 ,2.0,español,0.0,catalán,0.0,inglés,7.0,francés,9.0,3.0,4.0,yes,no,yes,piano,6,flauta ,6,canto,6,,,  todo genial ,45.0,yes
164,2024-02-04_23h15.00.771,Unsyncopated_study2,s107,23.0,feminino,right,españa,catalan y castellano ,Bachelor degree,no,no,B,2,conjunction_un,L2,unsyncopated,s2,r2,36,Online_conjL2_un//d.si.ñu24.0.1110.wav,si,bi,to,sil,fe,ñu,te,sil1,ra,ñi,sil2,['catch'],[1.7490000000000236],[1.7490000000000236],1.11,no_beat,0.6390000000000235,0.6390000000000235,"[""space""]",ñu,4,,,,,,,,,,,,,,,4 ,2.0,español,0.0,catalán,0.0,inglés,7.0,francés,9.0,3.0,4.0,yes,no,yes,piano,6,flauta ,6,canto,6,,,  todo genial ,45.0,yes
165,2024-02-04_23h15.00.771,Unsyncopated_study2,s107,23.0,feminino,right,españa,catalan y castellano ,Bachelor degree,no,no,B,2,conjunction_un,L2,unsyncopated,s2,r2,37,Online_conjL2_un//d.si.ñu27.1332.0.wav,ñu,bi,to,sil,fe,ba,si,sil1,ra,te,sil2,['catch'],[0.6459999999999582],[0.6459999999999582],0.0,beat,0.6459999999999582,0.6459999999999582,"[""space""]",ñu,4,,,,,,,,,,,,,,,4 ,2.0,español,0.0,catalán,0.0,inglés,7.0,francés,9.0,3.0,4.0,yes,no,yes,piano,6,flauta ,6,canto,6,,,  todo genial ,45.0,yes
166,2024-02-04_23h15.00.771,Unsyncopated_study2,s107,23.0,feminino,right,españa,catalan y castellano ,Bachelor degree,no,no,B,2,conjunction_un,L2,unsyncopated,s1,r2,38,Online_conjL2_un//d.si.ñu26.none.none.wav,fe,bi,to,sil,ra,mi,me,sil1,te,ba,sil2,['-'],,,none,none,,,,ñu,4,,,,,,,,,,,,,,,4 ,2.0,español,0.0,catalán,0.0,inglés,7.0,francés,9.0,3.0,4.0,yes,no,yes,piano,6,flauta ,6,canto,6,,,  todo genial ,45.0,yes
167,2024-02-04_23h15.00.771,Unsyncopated_study2,s107,23.0,feminino,right,españa,catalan y castellano ,Bachelor degree,no,no,B,2,conjunction_un,L2,unsyncopated,s1,r2,39,Online_conjL2_un//d.si.ñu25.none.none.wav,fe,me,ñi,sil,ra,to,mi,sil1,bi,cha,sil2,['false alarm'],[1.3320000000001073],[1.3320000000001073],none,none,,,"[""space""]",ñu,4,,,,,,,,,,,,,,,4 ,2.0,español,0.0,catalán,0.0,inglés,7.0,francés,9.0,3.0,4.0,yes,no,yes,piano,6,flauta ,6,canto,6,,,  todo genial ,45.0,yes
168,2024-02-04_23h15.00.771,Unsyncopated_study2,s107,23.0,feminino,right,españa,catalan y castellano ,Bachelor degree,no,no,B,2,conjunction_un,L2,unsyncopated,s1,r1,40,Online_conjL2_un//a.go.du14.0.888.wav,go,su,to,sil,du,te,ba,sil1,ñi,me,sil2,['catch'],[0.6639999999999873],[0.6639999999999873],0.0,beat,0.6639999999999873,0.6639999999999873,"[""space""]",go,1,,,,,,,,,,,,,,,4 ,2.0,español,0.0,catalán,0.0,inglés,7.0,francés,9.0,3.0,4.0,yes,no,yes,piano,6,flauta ,6,canto,6,,,  todo genial ,45.0,yes
169,2024-02-04_23h15.00.771,Unsyncopated_study2,s107,23.0,feminino,right,españa,catalan y castellano ,Bachelor degree,no,no,B,2,conjunction_un,L2,unsyncopated,s2,r2,41,Online_conjL2_un//a.go.du15.none.none.wav,me,mi,ñu,sil,fe,si,ñi,sil1,ra,su,sil2,['-'],,,none,none,,,,go,1,,,,,,,,,,,,,,,4 ,2.0,español,0.0,catalán,0.0,inglés,7.0,francés,9.0,3.0,4.0,yes,no,yes,piano,6,flauta ,6,canto,6,,,  todo genial ,45.0,yes
170,2024-02-04_23h15.00.771,Unsyncopated_study2,s107,23.0,feminino,right,españa,catalan y castellano ,Bachelor degree,no,no,B,2,conjunction_un,L2,unsyncopated,s2,r1,42,Online_conjL2_un//a.go.du13.888.1776.wav,mi,bi,ba,sil,go,ñu,to,sil1,du,te,sil2,['catch'],[2.326000000000022],[2.326000000000022],0.888,beat,,1.438000000000022,"[""space""]",go,1,,,,,,,,,,,,,,,4 ,2.0,español,0.0,catalán,0.0,inglés,7.0,francés,9.0,3.0,4.0,yes,no,yes,piano,6,flauta ,6,canto,6,,,  todo genial ,45.0,yes
171,2024-02-04_23h15.00.771,Unsyncopated_study2,s107,23.0,feminino,right,españa,catalan y castellano ,Bachelor degree,no,no,B,2,conjunction_un,L2,unsyncopated,s2,r2,43,Online_conjL2_un//a.go.du12.none.none.wav,bi,su,mi,sil,fe,ñi,te,sil1,ra,si,sil2,['-'],,,none,none,,,,go,1,,,,,,,,,,,,,,,4 ,2.0,español,0.0,catalán,0.0,inglés,7.0,francés,9.0,3.0,4.0,yes,no,yes,piano,6,flauta ,6,canto,6,,,  todo genial ,45.0,yes
172,2024-02-04_23h15.00.771,Unsyncopated_study2,s107,23.0,feminino,right,españa,catalan y castellano ,Bachelor degree,no,no,B,2,conjunction_un,L2,unsyncopated,s1,r2,44,Online_conjL2_un//c.cha.me21.1332.444.wav,fe,su,me,sil,ra,si,cha,sil1,ñi,ba,sil2,['miss'],,,0.444,no_beat,,,,me,3,,,,,,,,,,,,,,,4 ,2.0,español,0.0,catalán,0.0,inglés,7.0,francés,9.0,3.0,4.0,yes,no,yes,piano,6,flauta ,6,canto,6,,,  todo genial ,45.0,yes
173,2024-02-04_23h15.00.771,Unsyncopated_study2,s107,23.0,feminino,right,españa,catalan y castellano ,Bachelor degree,no,no,B,2,conjunction_un,L2,unsyncopated,s2,r1,45,Online_conjL2_un//c.cha.me20.none.none.wav,ñu,su,ñi,sil,go,to,si,sil1,du,ba,sil2,['-'],,,none,none,,,,me,3,,,,,,,,,,,,,,,4 ,2.0,español,0.0,catalán,0.0,inglés,7.0,francés,9.0,3.0,4.0,yes,no,yes,piano,6,flauta ,6,canto,6,,,  todo genial ,45.0,yes
174,2024-02-04_23h15.00.771,Unsyncopated_study2,s107,23.0,feminino,right,españa,catalan y castellano ,Bachelor degree,no,no,B,2,conjunction_un,L2,unsyncopated,s2,r2,46,Online_conjL2_un//c.cha.me23.222.444.wav,su,cha,me,sil,fe,mi,to,sil1,ra,ñu,sil2,['catch'],[1.0950000000000273],[1.0950000000000273],0.444,no_beat,0.6510000000000273,0.6510000000000273,"[""space""]",me,3,,,,,,,,,,,,,,,4 ,2.0,español,0.0,catalán,0.0,inglés,7.0,francés,9.0,3.0,4.0,yes,no,yes,piano,6,flauta ,6,canto,6,,,  todo genial ,45.0,yes
175,2024-02-04_23h15.00.771,Unsyncopated_study2,s107,23.0,feminino,right,españa,catalan y castellano ,Bachelor degree,no,no,B,2,conjunction_un,L2,unsyncopated,s1,r1,47,Online_conjL2_un//c.cha.me22.222.444.wav,go,cha,me,sil,du,ñu,to,sil1,te,su,sil2,['catch'],[1.094000000000051],[1.094000000000051],0.444,no_beat,0.650000000000051,0.650000000000051,"[""space""]",me,3,,,,,,,,,,,,,,,4 ,2.0,español,0.0,catalán,0.0,inglés,7.0,francés,9.0,3.0,4.0,yes,no,yes,piano,6,flauta ,6,canto,6,,,  todo genial ,45.0,yes
176,2024-02-04_23h15.00.771,Unsyncopated_study2,s107,23.0,feminino,right,españa,catalan y castellano ,Bachelor degree,no,no,B,2,conjunction_un,L2,unsyncopated,s1,r1,48,Online_conjL2_un//a.go.du24.0.888.wav,go,si,bi,sil,du,to,me,sil1,ñi,ba,sil2,['catch'],[0.7999999999999545],[0.7999999999999545],0.0,beat,0.7999999999999545,0.7999999999999545,"[""space""]",go,1,,,,,,,,,,,,,,,4 ,2.0,español,0.0,catalán,0.0,inglés,7.0,francés,9.0,3.0,4.0,yes,no,yes,piano,6,flauta ,6,canto,6,,,  todo genial ,45.0,yes
177,2024-02-04_23h15.00.771,Unsyncopated_study2,s107,23.0,feminino,right,españa,catalan y castellano ,Bachelor degree,no,no,B,2,conjunction_un,L2,unsyncopated,s2,r2,49,Online_conjL2_un//a.go.du25.none.none.wav,mi,ñu,ba,sil,fe,bi,to,sil1,ra,si,sil2,['-'],,,none,none,,,,go,1,,,,,,,,,,,,,,,4 ,2.0,español,0.0,catalán,0.0,inglés,7.0,francés,9.0,3.0,4.0,yes,no,yes,piano,6,flauta ,6,canto,6,,,  todo genial ,45.0,yes
178,2024-02-04_23h15.00.771,Unsyncopated_study2,s107,23.0,feminino,right,españa,catalan y castellano ,Bachelor degree,no,no,B,2,conjunction_un,L2,unsyncopated,s2,r1,50,Online_conjL2_un//a.go.du27.888.1776.wav,ñu,ba,bi,sil,go,si,mi,sil1,du,te,sil2,['catch'],[1.5609999999999218],[1.5609999999999218],0.888,beat,0.6729999999999218,0.6729999999999218,"[""space""]",go,1,,,,,,,,,,,,,,,4 ,2.0,español,0.0,catalán,0.0,inglés,7.0,francés,9.0,3.0,4.0,yes,no,yes,piano,6,flauta ,6,canto,6,,,  todo genial ,45.0,yes
179,2024-02-04_23h15.00.771,Unsyncopated_study2,s107,23.0,feminino,right,españa,catalan y castellano ,Bachelor degree,no,no,B,2,conjunction_un,L2,unsyncopated,s2,r2,51,Online_conjL2_un//a.go.du26.none.none.wav,mi,bi,ñi,sil,fe,cha,te,sil1,ra,su,sil2,['-'],,,none,none,,,,go,1,,,,,,,,,,,,,,,4 ,2.0,español,0.0,catalán,0.0,inglés,7.0,francés,9.0,3.0,4.0,yes,no,yes,piano,6,flauta ,6,canto,6,,,  todo genial ,45.0,yes
180,2024-02-04_23h15.00.771,Unsyncopated_study2,s107,23.0,feminino,right,españa,catalan y castellano ,Bachelor degree,no,no,B,2,conjunction_un,L2,unsyncopated,s2,r1,52,Online_conjL2_un//d.si.ñu18.1332.222.wav,bi,ñu,me,sil,go,cha,si,sil1,du,ba,sil2,['catch'],[0.849999999999909],[0.849999999999909],0.222,no_beat,0.6279999999999091,0.6279999999999091,"[""space""]",ñu,4,,,,,,,,,,,,,,,4 ,2.0,español,0.0,catalán,0.0,inglés,7.0,francés,9.0,3.0,4.0,yes,no,yes,piano,6,flauta ,6,canto,6,,,  todo genial ,45.0,yes
181,2024-02-04_23h15.00.771,Unsyncopated_study2,s107,23.0,feminino,right,españa,catalan y castellano ,Bachelor degree,no,no,B,2,conjunction_un,L2,unsyncopated,s1,r1,53,Online_conjL2_un//d.si.ñu19.444.1332.wav,go,su,si,sil,du,to,ñu,sil1,te,me,sil2,['miss'],,,1.332,no_beat,,,,ñu,4,,,,,,,,,,,,,,,4 ,2.0,español,0.0,catalán,0.0,inglés,7.0,francés,9.0,3.0,4.0,yes,no,yes,piano,6,flauta ,6,canto,6,,,  todo genial ,45.0,yes
182,2024-02-04_23h15.00.771,Unsyncopated_study2,s107,23.0,feminino,right,españa,catalan y castellano ,Bachelor degree,no,no,B,2,conjunction_un,L2,unsyncopated,s2,r2,54,Online_conjL2_un//d.si.ñu17.1110.0.wav,ñu,bi,te,sil,fe,si,me,sil1,ra,ba,sil2,['catch'],[0.6420000000000528],[0.6420000000000528],0.0,beat,0.6420000000000528,0.6420000000000528,"[""space""]",ñu,4,,,,,,,,,,,,,,,4 ,2.0,español,0.0,catalán,0.0,inglés,7.0,francés,9.0,3.0,4.0,yes,no,yes,piano,6,flauta ,6,canto,6,,,  todo genial ,45.0,yes
183,2024-02-04_23h15.00.771,Unsyncopated_study2,s107,23.0,feminino,right,españa,catalan y castellano ,Bachelor degree,no,no,B,2,conjunction_un,L2,unsyncopated,s2,r1,55,Online_conjL2_un//d.si.ñu16.1110.222.wav,te,ñu,mi,sil,go,si,to,sil1,du,me,sil2,['catch'],[0.9600000000000364],[0.9600000000000364],0.222,no_beat,0.7380000000000364,0.7380000000000364,"[""space""]",ñu,4,,,,,,,,,,,,,,,4 ,2.0,español,0.0,catalán,0.0,inglés,7.0,francés,9.0,3.0,4.0,yes,no,yes,piano,6,flauta ,6,canto,6,,,  todo genial ,45.0,yes
184,2024-02-04_23h15.00.771,Unsyncopated_study2,s107,23.0,feminino,right,españa,catalan y castellano ,Bachelor degree,no,no,B,2,conjunction_un,L2,unsyncopated,s2,r1,56,Online_conjL2_un//b.fe.ra28.none.none.wav,me,cha,mi,sil,go,si,ñi,sil1,du,to,sil2,['-'],,,none,none,,,,ra,2,,,,,,,,,,,,,,,4 ,2.0,español,0.0,catalán,0.0,inglés,7.0,francés,9.0,3.0,4.0,yes,no,yes,piano,6,flauta ,6,canto,6,,,  todo genial ,45.0,yes
185,2024-02-04_23h15.00.771,Unsyncopated_study2,s107,23.0,feminino,right,españa,catalan y castellano ,Bachelor degree,no,no,B,2,conjunction_un,L2,unsyncopated,s1,r2,57,Online_conjL2_un//b.fe.ra29.0.888.wav,fe,ba,si,sil,ra,bi,cha,sil1,mi,ñu,sil2,['miss'],,,0.888,beat,,,,ra,2,,,,,,,,,,,,,,,4 ,2.0,español,0.0,catalán,0.0,inglés,7.0,francés,9.0,3.0,4.0,yes,no,yes,piano,6,flauta ,6,canto,6,,,  todo genial ,45.0,yes
186,2024-02-04_23h15.00.771,Unsyncopated_study2,s107,23.0,feminino,right,españa,catalan y castellano ,Bachelor degree,no,no,B,2,conjunction_un,L2,unsyncopated,s2,r2,58,Online_conjL2_un//b.fe.ra31.888.1776.wav,ñu,to,me,sil,fe,cha,mi,sil1,ra,ba,sil2,['catch'],[2.2450000000001182],[2.2450000000001182],1.776,beat,0.4690000000001182,0.4690000000001182,"[""space""]",ra,2,,,,,,,,,,,,,,,4 ,2.0,español,0.0,catalán,0.0,inglés,7.0,francés,9.0,3.0,4.0,yes,no,yes,piano,6,flauta ,6,canto,6,,,  todo genial ,45.0,yes
187,2024-02-04_23h15.00.771,Unsyncopated_study2,s107,23.0,feminino,right,españa,catalan y castellano ,Bachelor degree,no,no,B,2,conjunction_un,L2,unsyncopated,s1,r1,59,Online_conjL2_un//b.fe.ra30.none.none.wav,go,si,cha,sil,du,ba,te,sil1,ñu,ñi,sil2,['-'],,,none,none,,,,ra,2,,,,,,,,,,,,,,,4 ,2.0,español,0.0,catalán,0.0,inglés,7.0,francés,9.0,3.0,4.0,yes,no,yes,piano,6,flauta ,6,canto,6,,,  todo genial ,45.0,yes
188,2024-02-04_23h15.00.771,Unsyncopated_study2,s107,23.0,feminino,right,españa,catalan y castellano ,Bachelor degree,no,no,B,2,conjunction_un,L2,unsyncopated,s1,r2,60,Online_conjL2_un//a.go.du28.none.none.wav,fe,cha,ba,sil,ra,mi,me,sil1,bi,te,sil2,['-'],,,none,none,,,,go,1,,,,,,,,,,,,,,,4 ,2.0,español,0.0,catalán,0.0,inglés,7.0,francés,9.0,3.0,4.0,yes,no,yes,piano,6,flauta ,6,canto,6,,,  todo genial ,45.0,yes
189,2024-02-04_23h15.00.771,Unsyncopated_study2,s107,23.0,feminino,right,españa,catalan y castellano ,Bachelor degree,no,no,B,2,conjunction_un,L2,unsyncopated,s1,r2,61,Online_conjL2_un//a.go.du31.none.none.wav,fe,to,ñi,sil,ra,bi,ñu,sil1,su,si,sil2,['-'],,,none,none,,,,go,1,,,,,,,,,,,,,,,4 ,2.0,español,0.0,catalán,0.0,inglés,7.0,francés,9.0,3.0,4.0,yes,no,yes,piano,6,flauta ,6,canto,6,,,  todo genial ,45.0,yes
190,2024-02-04_23h15.00.771,Unsyncopated_study2,s107,23.0,feminino,right,españa,catalan y castellano ,Bachelor degree,no,no,B,2,conjunction_un,L2,unsyncopated,s1,r1,62,Online_conjL2_un//a.go.du29.0.888.wav,go,mi,me,sil,du,to,bi,sil1,cha,ñu,sil2,['catch'],[0.49499999999989086],[0.49499999999989086],0.0,beat,0.4949999999998908,0.4949999999998908,"[""space""]",go,1,,,,,,,,,,,,,,,4 ,2.0,español,0.0,catalán,0.0,inglés,7.0,francés,9.0,3.0,4.0,yes,no,yes,piano,6,flauta ,6,canto,6,,,  todo genial ,45.0,yes
191,2024-02-04_23h15.00.771,Unsyncopated_study2,s107,23.0,feminino,right,españa,catalan y castellano ,Bachelor degree,no,no,B,2,conjunction_un,L2,unsyncopated,s1,r2,63,Online_conjL2_un//a.go.du30.none.none.wav,fe,cha,si,sil,ra,su,te,sil1,ba,bi,sil2,['-'],,,none,none,,,,go,1,,,,,,,,,,,,,,,4 ,2.0,español,0.0,catalán,0.0,inglés,7.0,francés,9.0,3.0,4.0,yes,no,yes,piano,6,flauta ,6,canto,6,,,  todo genial ,45.0,yes
192,2024-02-04_23h15.00.771,Unsyncopated_study2,s107,23.0,feminino,right,españa,catalan y castellano ,Bachelor degree,no,no,B,2,conjunction_un,L2,unsyncopated,s1,r1,64,Online_conjL2_un//b.fe.ra18.none.none.wav,go,su,bi,sil,du,te,si,sil1,ñu,to,sil2,['false alarm'],[0.7819999999999254],[0.7819999999999254],none,none,,,"[""space""]",ra,2,,,,,,,,,,,,,,,4 ,2.0,español,0.0,catalán,0.0,inglés,7.0,francés,9.0,3.0,4.0,yes,no,yes,piano,6,flauta ,6,canto,6,,,  todo genial ,45.0,yes
193,2024-02-04_23h15.00.771,Unsyncopated_study2,s107,23.0,feminino,right,españa,catalan y castellano ,Bachelor degree,no,no,B,2,conjunction_un,L2,unsyncopated,s1,r2,65,Online_conjL2_un//b.fe.ra16.0.888.wav,fe,ñi,mi,sil,ra,bi,su,sil1,ñu,me,sil2,['catch'],[1.37700000000018],[1.37700000000018],0.888,beat,0.48900000000018,0.48900000000018,"[""space""]",ra,2,,,,,,,,,,,,,,,4 ,2.0,español,0.0,catalán,0.0,inglés,7.0,francés,9.0,3.0,4.0,yes,no,yes,piano,6,flauta ,6,canto,6,,,  todo genial ,45.0,yes
194,2024-02-04_23h15.00.771,Unsyncopated_study2,s107,23.0,feminino,right,españa,catalan y castellano ,Bachelor degree,no,no,B,2,conjunction_un,L2,unsyncopated,s2,r1,66,Online_conjL2_un//b.fe.ra19.none.none.wav,me,mi,to,sil,go,ñu,ñi,sil1,du,ba,sil2,['-'],,,none,none,,,,ra,2,,,,,,,,,,,,,,,4 ,2.0,español,0.0,catalán,0.0,inglés,7.0,francés,9.0,3.0,4.0,yes,no,yes,piano,6,flauta ,6,canto,6,,,  todo genial ,45.0,yes
195,2024-02-04_23h15.00.771,Unsyncopated_study2,s107,23.0,feminino,right,españa,catalan y castellano ,Bachelor degree,no,no,B,2,conjunction_un,L2,unsyncopated,s1,r2,67,Online_conjL2_un//b.fe.ra17.0.888.wav,fe,cha,mi,sil,ra,si,su,sil1,ba,ñi,sil2,['catch'],[1.3600000000001273],[1.3600000000001273],0.888,beat,0.4720000000001273,0.4720000000001273,"[""space""]",ra,2,,,,,,,,,,,,,,,4 ,2.0,español,0.0,catalán,0.0,inglés,7.0,francés,9.0,3.0,4.0,yes,no,yes,piano,6,flauta ,6,canto,6,,,  todo genial ,45.0,yes
196,2024-02-04_23h15.00.771,Unsyncopated_study2,s107,23.0,feminino,right,españa,catalan y castellano ,Bachelor degree,no,no,B,2,conjunction_un,L2,unsyncopated,s2,r2,68,Online_conjL2_un//b.fe.ra20.888.1776.wav,bi,ñi,me,sil,fe,cha,si,sil1,ra,su,sil2,['catch'],[2.504000000000133],[2.504000000000133],1.776,beat,0.7280000000001328,0.7280000000001328,"[""space""]",ra,2,,,,,,,,,,,,,,,4 ,2.0,español,0.0,catalán,0.0,inglés,7.0,francés,9.0,3.0,4.0,yes,no,yes,piano,6,flauta ,6,canto,6,,,  todo genial ,45.0,yes
197,2024-02-04_23h15.00.771,Unsyncopated_study2,s107,23.0,feminino,right,españa,catalan y castellano ,Bachelor degree,no,no,B,2,conjunction_un,L2,unsyncopated,s2,r1,69,Online_conjL2_un//b.fe.ra21.none.none.wav,bi,ba,to,sil,go,te,si,sil1,du,me,sil2,['-'],,,none,none,,,,ra,2,,,,,,,,,,,,,,,4 ,2.0,español,0.0,catalán,0.0,inglés,7.0,francés,9.0,3.0,4.0,yes,no,yes,piano,6,flauta ,6,canto,6,,,  todo genial ,45.0,yes
198,2024-02-04_23h15.00.771,Unsyncopated_study2,s107,23.0,feminino,right,españa,catalan y castellano ,Bachelor degree,no,no,B,2,conjunction_un,L2,unsyncopated,s2,r1,70,Online_conjL2_un//b.fe.ra23.none.none.wav,ñu,ba,mi,sil,go,to,ñi,sil1,du,bi,sil2,['-'],,,none,none,,,,ra,2,,,,,,,,,,,,,,,4 ,2.0,español,0.0,catalán,0.0,inglés,7.0,francés,9.0,3.0,4.0,yes,no,yes,piano,6,flauta ,6,canto,6,,,  todo genial ,45.0,yes
199,2024-02-04_23h15.00.771,Unsyncopated_study2,s107,23.0,feminino,right,españa,catalan y castellano ,Bachelor degree,no,no,B,2,conjunction_un,L2,unsyncopated,s1,r1,71,Online_conjL2_un//b.fe.ra22.none.none.wav,go,te,to,sil,du,me,ñu,sil1,ñi,si,sil2,['-'],,,none,none,,,,ra,2,,,,,,,,,,,,,,,4 ,2.0,español,0.0,catalán,0.0,inglés,7.0,francés,9.0,3.0,4.0,yes,no,yes,piano,6,flauta ,6,canto,6,,,  todo genial ,45.0,yes
200,2024-02-04_23h15.00.771,Unsyncopated_study2,s107,23.0,feminino,right,españa,catalan y castellano ,Bachelor degree,no,no,B,2,conjunction_un,L2,unsyncopated,s2,r1,72,Online_conjL2_un//c.cha.me15.444.1110.wav,mi,ba,cha,sil,go,me,si,sil1,du,te,sil2,"['false alarm', 'catch']","[0.8209999999999127, 2.1539999999999964]",[2.1539999999999964],1.11,no_beat,1.0439999999999965,1.0439999999999965,"[""space"",""space""]",me,3,,,,,,,,,,,,,,,4 ,2.0,español,0.0,catalán,0.0,inglés,7.0,francés,9.0,3.0,4.0,yes,no,yes,piano,6,flauta ,6,canto,6,,,  todo genial ,45.0,yes
