Unnamed: 0,date,expName,participant,age,sex,hand,residence,native_lang,education_level,lang_deficit,aud_deficit,group,block,condition,language,rhythm,rule structure online,rule type online,order_trial_on,trial_online,s1,s2,s3,s4,s5,s6,s7,s8,s9,s10,s11,catch_syll_resp,rts_syll_catch,clean_rts,time_syll,beat_no_beat,catch_rtsTR,catch_rts,syllable_catch.keys,cond_syll,syll_to_catch,test_offline,block_off,condition_off,rhythm_off,rule,rule_str_off,rule_norule,conds_offline,language_off,Partz_no_partm.keys,Partz_no_partm.rt,security_1_7.keys,accuracy,security_1_7.rt,n_lang,n_lang_used,lang_1,age_l1,lang_2,age_l2,ability_learn_l2,tendence_mix_lan,music_experience,muisc_use,partiture,instr_1,age_M1,preguntas_musica1,BMRQ_answer.response,final comment,BMRQ_Score,bilingual
0,2023-09-21_16h13.37.688,Unsyncopated1,s24,30.0,masculino,right,España,Castellano,Doctorate,no,no,B,1,when,L3,unsyncopated,when,when,0,Online_whenL3//b.ñe24.none.wav,sa,je,ga,sil,mo,fu,ji,sil1,di,gu,sil2,['-'],,,none,none,,,,60:64,2,testWhenL3Uns//dep_viol.r1.s1.0.wav,1.0,when,unsyncopated,a,s1,no_rule,dep,L3,z,3.7683,6.0,1.0,113.665,2.0,2.0,Castellano,0.0,Inglés,9.0,2.0,3.0,yes,yes,no,Guitarra flamenca,15,1. Cuando comparto música con alguien siento una complicidad especial con aquella persona.,4.0,"He cometido el error de pinchar con el botón del ratón en vez de pulsar la barra de espacio para responder durante la Fase de Sílabas del primer lenguaje (L1). Después, al leer con atención las instrucciones durante la misma prueba del lenguaje 2 (L2), he sido consciente de mi fallo. Saludos",68.0,yes
1,2023-09-21_16h13.37.688,Unsyncopated1,s24,30.0,masculino,right,España,Castellano,Doctorate,no,no,B,1,when,L3,unsyncopated,when,when,1,Online_whenL3//b.ñe27.none.wav,di,ko,do,sil,fu,chu,ji,sil1,ka,sa,sil2,['-'],,,none,none,,,,60:64,2,testWhenL3Uns//time_viol.r2.s2.0.wav,1.0,when,unsyncopated,b,s2,no_rule,time,L3,z,5.7513,5.0,1.0,2.7012,2.0,2.0,Castellano,0.0,Inglés,9.0,2.0,3.0,yes,yes,no,Guitarra flamenca,15,2. En mi tiempo libre apenas escucho música.,5.0,"He cometido el error de pinchar con el botón del ratón en vez de pulsar la barra de espacio para responder durante la Fase de Sílabas del primer lenguaje (L1). Después, al leer con atención las instrucciones durante la misma prueba del lenguaje 2 (L2), he sido consciente de mi fallo. Saludos",68.0,yes
2,2023-09-21_16h13.37.688,Unsyncopated1,s24,30.0,masculino,right,España,Castellano,Doctorate,no,no,B,1,when,L3,unsyncopated,when,when,2,Online_whenL3//b.ñe26.none.wav,ko,mo,ji,sil,di,le,sa,sil1,fu,ka,sil2,['-'],,,none,none,,,,60:64,2,testWhenL3Uns//r1.s2.1.wav,1.0,when,unsyncopated,a,s2,rule,rule,L3,z,3.9985,7.0,1.0,1.5,2.0,2.0,Castellano,0.0,Inglés,9.0,2.0,3.0,yes,yes,no,Guitarra flamenca,15,3. Algunas canciones me ponen los pelos de punta,3.0,"He cometido el error de pinchar con el botón del ratón en vez de pulsar la barra de espacio para responder durante la Fase de Sílabas del primer lenguaje (L1). Después, al leer con atención las instrucciones durante la misma prueba del lenguaje 2 (L2), he sido consciente de mi fallo. Saludos",68.0,yes
3,2023-09-21_16h13.37.688,Unsyncopated1,s24,30.0,masculino,right,España,Castellano,Doctorate,no,no,B,1,when,L3,unsyncopated,when,when,3,Online_whenL3//b.ñe25.222.wav,je,ñe,ji,sil,ko,gu,fu,sil1,li,mo,sil2,['miss'],,,0.222,no_beat,,,,60:64,2,testWhenL3Uns//time_viol.r2.s1.0.wav,1.0,when,unsyncopated,b,s1,no_rule,time,L3,z,1.6794,7.0,1.0,1.6503,2.0,2.0,Castellano,0.0,Inglés,9.0,2.0,3.0,yes,yes,no,Guitarra flamenca,15,4. La música me hace compañía cuando estoy solo,4.0,"He cometido el error de pinchar con el botón del ratón en vez de pulsar la barra de espacio para responder durante la Fase de Sílabas del primer lenguaje (L1). Después, al leer con atención las instrucciones durante la misma prueba del lenguaje 2 (L2), he sido consciente de mi fallo. Saludos",68.0,yes
4,2023-09-21_16h13.37.688,Unsyncopated1,s24,30.0,masculino,right,España,Castellano,Doctorate,no,no,B,1,when,L3,unsyncopated,when,when,4,Online_whenL3//b.ñe33.none.wav,gu,li,ka,sil,sa,fu,le,sil1,di,chu,sil2,['-'],,,none,none,,,,68:72,2,testWhenL3Uns//r2.s2.2.wav,1.0,when,unsyncopated,b,s2,rule,rule,L3,z,1.4175,7.0,1.0,1.652,2.0,2.0,Castellano,0.0,Inglés,9.0,2.0,3.0,yes,yes,no,Guitarra flamenca,15,5. No me apetece bailar ni con la música que más me gusta,5.0,"He cometido el error de pinchar con el botón del ratón en vez de pulsar la barra de espacio para responder durante la Fase de Sílabas del primer lenguaje (L1). Después, al leer con atención las instrucciones durante la misma prueba del lenguaje 2 (L2), he sido consciente de mi fallo. Saludos",68.0,yes
5,2023-09-21_16h13.37.688,Unsyncopated1,s24,30.0,masculino,right,España,Castellano,Doctorate,no,no,B,1,when,L3,unsyncopated,when,when,5,Online_whenL3//b.ñe34.444.wav,fu,ka,ñe,sil,ko,do,chu,sil1,ga,je,sil2,['miss'],,,0.444,no_beat,,,,68:72,2,testWhenL3Uns//r2.s1.2.wav,1.0,when,unsyncopated,b,s1,rule,rule,L3,z,3.5805,6.0,1.0,1.7828,2.0,2.0,Castellano,0.0,Inglés,9.0,2.0,3.0,yes,yes,no,Guitarra flamenca,15,6. La música me hace conectar con la gente,3.0,"He cometido el error de pinchar con el botón del ratón en vez de pulsar la barra de espacio para responder durante la Fase de Sílabas del primer lenguaje (L1). Después, al leer con atención las instrucciones durante la misma prueba del lenguaje 2 (L2), he sido consciente de mi fallo. Saludos",68.0,yes
6,2023-09-21_16h13.37.688,Unsyncopated1,s24,30.0,masculino,right,España,Castellano,Doctorate,no,no,B,1,when,L3,unsyncopated,when,when,6,Online_whenL3//b.ñe32.none.wav,li,fu,mo,sil,ko,ji,chu,sil1,gu,do,sil2,['-'],,,none,none,,,,68:72,2,testWhenL3Uns//cat_viol.r1.s1.0.wav,1.0,when,unsyncopated,a,s1,no_rule,cat,L3,z,2.0208,7.0,1.0,0.953,2.0,2.0,Castellano,0.0,Inglés,9.0,2.0,3.0,yes,yes,no,Guitarra flamenca,15,7. Me informo sobre la música que me gusta.,3.0,"He cometido el error de pinchar con el botón del ratón en vez de pulsar la barra de espacio para responder durante la Fase de Sílabas del primer lenguaje (L1). Después, al leer con atención las instrucciones durante la misma prueba del lenguaje 2 (L2), he sido consciente de mi fallo. Saludos",68.0,yes
7,2023-09-21_16h13.37.688,Unsyncopated1,s24,30.0,masculino,right,España,Castellano,Doctorate,no,no,B,1,when,L3,unsyncopated,when,when,7,Online_whenL3//b.ñe35.1776.wav,le,ka,do,sil,chu,ga,ji,sil1,ñe,gu,sil2,['miss'],,,1.776,beat,,,,68:72,2,testWhenL3Uns//r2.s2.0.wav,1.0,when,unsyncopated,b,s2,rule,rule,L3,z,1.499,5.0,1.0,1.8027,2.0,2.0,Castellano,0.0,Inglés,9.0,2.0,3.0,yes,yes,no,Guitarra flamenca,15,8.Me emociono escuchando ciertas canciones.,4.0,"He cometido el error de pinchar con el botón del ratón en vez de pulsar la barra de espacio para responder durante la Fase de Sílabas del primer lenguaje (L1). Después, al leer con atención las instrucciones durante la misma prueba del lenguaje 2 (L2), he sido consciente de mi fallo. Saludos",68.0,yes
8,2023-09-21_16h13.37.688,Unsyncopated1,s24,30.0,masculino,right,España,Castellano,Doctorate,no,no,B,1,when,L3,unsyncopated,when,when,8,Online_whenL3//c.gu19.1998.wav,ka,sa,je,sil,chu,do,ji,sil1,le,gu,sil2,['miss'],,,1.998,no_beat,,,,88:92,3,testWhenL3Uns//cat_viol.r1.s2.0.wav,1.0,when,unsyncopated,a,s2,no_rule,cat,L3,z,2.7154,5.0,1.0,4.4342,2.0,2.0,Castellano,0.0,Inglés,9.0,2.0,3.0,yes,yes,no,Guitarra flamenca,15,9.La música me tranquiliza y me relaja.,3.0,"He cometido el error de pinchar con el botón del ratón en vez de pulsar la barra de espacio para responder durante la Fase de Sílabas del primer lenguaje (L1). Después, al leer con atención las instrucciones durante la misma prueba del lenguaje 2 (L2), he sido consciente de mi fallo. Saludos",68.0,yes
9,2023-09-21_16h13.37.688,Unsyncopated1,s24,30.0,masculino,right,España,Castellano,Doctorate,no,no,B,1,when,L3,unsyncopated,when,when,9,Online_whenL3//c.gu16.1332.wav,do,ji,ñe,sil,ka,ga,gu,sil1,mo,di,sil2,['miss'],,,1.332,no_beat,,,,88:92,3,testWhenL3Uns//cat_viol.r2.s1.0.wav,1.0,when,unsyncopated,b,s1,no_rule,cat,L3,m,4.6331,3.0,0.0,3.5794,2.0,2.0,Castellano,0.0,Inglés,9.0,2.0,3.0,yes,yes,no,Guitarra flamenca,15,10.La música me hace bailar,3.0,"He cometido el error de pinchar con el botón del ratón en vez de pulsar la barra de espacio para responder durante la Fase de Sílabas del primer lenguaje (L1). Después, al leer con atención las instrucciones durante la misma prueba del lenguaje 2 (L2), he sido consciente de mi fallo. Saludos",68.0,yes
10,2023-09-21_16h13.37.688,Unsyncopated1,s24,30.0,masculino,right,España,Castellano,Doctorate,no,no,B,1,when,L3,unsyncopated,when,when,10,Online_whenL3//c.gu17.none.wav,ga,ji,le,sil,sa,ka,chu,sil1,do,je,sil2,['-'],,,none,none,,,,88:92,3,testWhenL3Uns//r1.s2.2.wav,1.0,when,unsyncopated,a,s2,rule,rule,L3,z,2.0141,5.0,1.0,3.4661,2.0,2.0,Castellano,0.0,Inglés,9.0,2.0,3.0,yes,yes,no,Guitarra flamenca,15,11.Busco novedades musicales continuamente,4.0,"He cometido el error de pinchar con el botón del ratón en vez de pulsar la barra de espacio para responder durante la Fase de Sílabas del primer lenguaje (L1). Después, al leer con atención las instrucciones durante la misma prueba del lenguaje 2 (L2), he sido consciente de mi fallo. Saludos",68.0,yes
11,2023-09-21_16h13.37.688,Unsyncopated1,s24,30.0,masculino,right,España,Castellano,Doctorate,no,no,B,1,when,L3,unsyncopated,when,when,11,Online_whenL3//c.gu18.444.wav,di,ko,gu,sil,chu,sa,ka,sil1,li,do,sil2,['miss'],,,0.444,no_beat,,,,88:92,3,testWhenL3Uns//r2.s2.1.wav,1.0,when,unsyncopated,b,s2,rule,rule,L3,z,1.1997,6.0,1.0,1.1339,2.0,2.0,Castellano,0.0,Inglés,9.0,2.0,3.0,yes,yes,no,Guitarra flamenca,15,12. Puedo llorar cuando escucho algunas melodías que me gustan mucho.,2.0,"He cometido el error de pinchar con el botón del ratón en vez de pulsar la barra de espacio para responder durante la Fase de Sílabas del primer lenguaje (L1). Después, al leer con atención las instrucciones durante la misma prueba del lenguaje 2 (L2), he sido consciente de mi fallo. Saludos",68.0,yes
12,2023-09-21_16h13.37.688,Unsyncopated1,s24,30.0,masculino,right,España,Castellano,Doctorate,no,no,B,1,when,L3,unsyncopated,when,when,12,Online_whenL3//c.gu3.1110.wav,li,mo,ko,sil,je,gu,chu,sil1,fu,ka,sil2,['miss'],,,1.11,no_beat,,,,72:76,3,testWhenL3Uns//r2.s1.0.wav,1.0,when,unsyncopated,b,s1,rule,rule,L3,z,0.7341,5.0,1.0,1.0545,2.0,2.0,Castellano,0.0,Inglés,9.0,2.0,3.0,yes,yes,no,Guitarra flamenca,15,13. Me gusta cantar o tocar un instrumento con más gente,3.0,"He cometido el error de pinchar con el botón del ratón en vez de pulsar la barra de espacio para responder durante la Fase de Sílabas del primer lenguaje (L1). Después, al leer con atención las instrucciones durante la misma prueba del lenguaje 2 (L2), he sido consciente de mi fallo. Saludos",68.0,yes
13,2023-09-21_16h13.37.688,Unsyncopated1,s24,30.0,masculino,right,España,Castellano,Doctorate,no,no,B,1,when,L3,unsyncopated,when,when,13,Online_whenL3//c.gu1.none.wav,sa,ka,ñe,sil,je,di,ji,sil1,ko,le,sil2,['-'],,,none,none,,,,72:76,3,testWhenL3Uns//r1.s1.2.wav,1.0,when,unsyncopated,a,s1,rule,rule,L3,z,0.7163,7.0,1.0,0.4515,2.0,2.0,Castellano,0.0,Inglés,9.0,2.0,3.0,yes,yes,no,Guitarra flamenca,15,14. La música me ayuda a desconectar.,3.0,"He cometido el error de pinchar con el botón del ratón en vez de pulsar la barra de espacio para responder durante la Fase de Sílabas del primer lenguaje (L1). Después, al leer con atención las instrucciones durante la misma prueba del lenguaje 2 (L2), he sido consciente de mi fallo. Saludos",68.0,yes
14,2023-09-21_16h13.37.688,Unsyncopated1,s24,30.0,masculino,right,España,Castellano,Doctorate,no,no,B,1,when,L3,unsyncopated,when,when,14,Online_whenL3//c.gu0.none.wav,ko,le,ka,sil,mo,di,fu,sil1,ñe,ji,sil2,['-'],,,none,none,,,,72:76,3,testWhenL3Uns//time_viol.r1.s2.0.wav,1.0,when,unsyncopated,a,s2,no_rule,time,L3,z,2.8193,6.0,1.0,0.5813,2.0,2.0,Castellano,0.0,Inglés,9.0,2.0,3.0,yes,yes,no,Guitarra flamenca,15,15. No puedo evitar tararear las canciones que me gustan cuando las escucho.,3.0,"He cometido el error de pinchar con el botón del ratón en vez de pulsar la barra de espacio para responder durante la Fase de Sílabas del primer lenguaje (L1). Después, al leer con atención las instrucciones durante la misma prueba del lenguaje 2 (L2), he sido consciente de mi fallo. Saludos",68.0,yes
15,2023-09-21_16h13.37.688,Unsyncopated1,s24,30.0,masculino,right,España,Castellano,Doctorate,no,no,B,1,when,L3,unsyncopated,when,when,15,Online_whenL3//c.gu2.1998.wav,ji,ga,je,sil,le,ñe,di,sil1,sa,gu,sil2,['miss'],,,1.998,no_beat,,,,72:76,3,testWhenL3Uns//r1.s2.0.wav,1.0,when,unsyncopated,a,s2,rule,rule,L3,m,5.2191,4.0,0.0,4.8176,2.0,2.0,Castellano,0.0,Inglés,9.0,2.0,3.0,yes,yes,no,Guitarra flamenca,15,16. En los conciertos me siento en sintonía con los artistas y el público.,4.0,"He cometido el error de pinchar con el botón del ratón en vez de pulsar la barra de espacio para responder durante la Fase de Sílabas del primer lenguaje (L1). Después, al leer con atención las instrucciones durante la misma prueba del lenguaje 2 (L2), he sido consciente de mi fallo. Saludos",68.0,yes
16,2023-09-21_16h13.37.688,Unsyncopated1,s24,30.0,masculino,right,España,Castellano,Doctorate,no,no,B,1,when,L3,unsyncopated,when,when,16,Online_whenL3//b.ñe29.0.wav,ñe,gu,ga,sil,ko,li,le,sil1,ka,sa,sil2,['miss'],,,0.0,beat,,,,64:68,2,testWhenL3Uns//dep_viol.r2.s2.0.wav,1.0,when,unsyncopated,b,s2,no_rule,dep,L3,z,2.3514,7.0,1.0,1.8425,2.0,2.0,Castellano,0.0,Inglés,9.0,2.0,3.0,yes,yes,no,Guitarra flamenca,15,17. Me gasto bastante dinero en música y cosas relacionadas con la música.,3.0,"He cometido el error de pinchar con el botón del ratón en vez de pulsar la barra de espacio para responder durante la Fase de Sílabas del primer lenguaje (L1). Después, al leer con atención las instrucciones durante la misma prueba del lenguaje 2 (L2), he sido consciente de mi fallo. Saludos",68.0,yes
17,2023-09-21_16h13.37.688,Unsyncopated1,s24,30.0,masculino,right,España,Castellano,Doctorate,no,no,B,1,when,L3,unsyncopated,when,when,17,Online_whenL3//b.ñe31.none.wav,chu,je,do,sil,le,ka,sa,sil1,li,ga,sil2,['-'],,,none,none,,,,64:68,2,testWhenL3Uns//dep_viol.r2.s1.0.wav,1.0,when,unsyncopated,b,s1,no_rule,dep,L3,m,5.4315,5.0,0.0,2.0882,2.0,2.0,Castellano,0.0,Inglés,9.0,2.0,3.0,yes,yes,no,Guitarra flamenca,15,18. Siento escalofríos cuando escucho una melodía que me gusta.,3.0,"He cometido el error de pinchar con el botón del ratón en vez de pulsar la barra de espacio para responder durante la Fase de Sílabas del primer lenguaje (L1). Después, al leer con atención las instrucciones durante la misma prueba del lenguaje 2 (L2), he sido consciente de mi fallo. Saludos",68.0,yes
18,2023-09-21_16h13.37.688,Unsyncopated1,s24,30.0,masculino,right,España,Castellano,Doctorate,no,no,B,1,when,L3,unsyncopated,when,when,18,Online_whenL3//b.ñe30.none.wav,ka,di,mo,sil,ko,chu,je,sil1,fu,gu,sil2,['-'],,,none,none,,,,64:68,2,testWhenL3Uns//cat_viol.r2.s2.0.wav,1.0,when,unsyncopated,b,s2,no_rule,cat,L3,m,3.1239,3.0,0.0,3.523,2.0,2.0,Castellano,0.0,Inglés,9.0,2.0,3.0,yes,yes,no,Guitarra flamenca,15,19. Con la música me puedo desahogar.,3.0,"He cometido el error de pinchar con el botón del ratón en vez de pulsar la barra de espacio para responder durante la Fase de Sílabas del primer lenguaje (L1). Después, al leer con atención las instrucciones durante la misma prueba del lenguaje 2 (L2), he sido consciente de mi fallo. Saludos",68.0,yes
19,2023-09-21_16h13.37.688,Unsyncopated1,s24,30.0,masculino,right,España,Castellano,Doctorate,no,no,B,1,when,L3,unsyncopated,when,when,19,Online_whenL3//b.ñe28.none.wav,fu,je,chu,sil,sa,le,ga,sil1,li,ka,sil2,['-'],,,none,none,,,,64:68,2,testWhenL3Uns//r1.s1.1.wav,1.0,when,unsyncopated,a,s1,rule,rule,L3,z,1.4995,7.0,1.0,1.6186,2.0,2.0,Castellano,0.0,Inglés,9.0,2.0,3.0,yes,yes,no,Guitarra flamenca,15,20. Cuando escucho una melodía que me gusta mucho no puedo evitar mover el cuerpo.,3.0,"He cometido el error de pinchar con el botón del ratón en vez de pulsar la barra de espacio para responder durante la Fase de Sílabas del primer lenguaje (L1). Después, al leer con atención las instrucciones durante la misma prueba del lenguaje 2 (L2), he sido consciente de mi fallo. Saludos",68.0,yes
20,2023-09-21_16h13.37.688,Unsyncopated1,s24,30.0,masculino,right,España,Castellano,Doctorate,no,no,B,1,when,L3,unsyncopated,when,when,20,Online_whenL3//a.mo3.none.wav,chu,sa,gu,sil,ka,le,je,sil1,ga,di,sil2,['-'],,,none,none,,,,0:4,1,testWhenL3Uns//r2.s1.1.wav,1.0,when,unsyncopated,b,s1,rule,rule,L3,z,2.2972,6.0,1.0,0.5191,2.0,2.0,Castellano,0.0,Inglés,9.0,2.0,3.0,yes,yes,no,Guitarra flamenca,15,,,"He cometido el error de pinchar con el botón del ratón en vez de pulsar la barra de espacio para responder durante la Fase de Sílabas del primer lenguaje (L1). Después, al leer con atención las instrucciones durante la misma prueba del lenguaje 2 (L2), he sido consciente de mi fallo. Saludos",68.0,yes
21,2023-09-21_16h13.37.688,Unsyncopated1,s24,30.0,masculino,right,España,Castellano,Doctorate,no,no,B,1,when,L3,unsyncopated,when,when,21,Online_whenL3//a.mo1.888.wav,do,ka,fu,sil,mo,ñe,le,sil1,ko,ji,sil2,['miss'],,,0.888,beat,,,,0:4,1,testWhenL3Uns//dep_viol.r1.s2.0.wav,1.0,when,unsyncopated,a,s2,no_rule,dep,L3,z,6.2004,4.0,1.0,1.7341,2.0,2.0,Castellano,0.0,Inglés,9.0,2.0,3.0,yes,yes,no,Guitarra flamenca,15,,,"He cometido el error de pinchar con el botón del ratón en vez de pulsar la barra de espacio para responder durante la Fase de Sílabas del primer lenguaje (L1). Después, al leer con atención las instrucciones durante la misma prueba del lenguaje 2 (L2), he sido consciente de mi fallo. Saludos",68.0,yes
22,2023-09-21_16h13.37.688,Unsyncopated1,s24,30.0,masculino,right,España,Castellano,Doctorate,no,no,B,1,when,L3,unsyncopated,when,when,22,Online_whenL3//a.mo0.222.wav,do,mo,fu,sil,le,ji,gu,sil1,ka,ñe,sil2,['miss'],,,0.222,no_beat,,,,0:4,1,testWhenL3Uns//time_viol.r1.s1.0.wav,1.0,when,unsyncopated,a,s1,no_rule,time,L3,z,5.4513,5.0,1.0,0.6664,2.0,2.0,Castellano,0.0,Inglés,9.0,2.0,3.0,yes,yes,no,Guitarra flamenca,15,,,"He cometido el error de pinchar con el botón del ratón en vez de pulsar la barra de espacio para responder durante la Fase de Sílabas del primer lenguaje (L1). Después, al leer con atención las instrucciones durante la misma prueba del lenguaje 2 (L2), he sido consciente de mi fallo. Saludos",68.0,yes
23,2023-09-21_16h13.37.688,Unsyncopated1,s24,30.0,masculino,right,España,Castellano,Doctorate,no,no,B,1,when,L3,unsyncopated,when,when,23,Online_whenL3//a.mo2.none.wav,ko,li,ji,sil,je,sa,ñe,sil1,gu,ka,sil2,['-'],,,none,none,,,,0:4,1,testWhenL3Uns//r1.s1.0.wav,1.0,when,unsyncopated,a,s1,rule,rule,L3,m,4.5823,4.0,0.0,1.8363,2.0,2.0,Castellano,0.0,Inglés,9.0,2.0,3.0,yes,yes,no,Guitarra flamenca,15,,,"He cometido el error de pinchar con el botón del ratón en vez de pulsar la barra de espacio para responder durante la Fase de Sílabas del primer lenguaje (L1). Después, al leer con atención las instrucciones durante la misma prueba del lenguaje 2 (L2), he sido consciente de mi fallo. Saludos",68.0,yes
24,2023-09-21_16h13.37.688,Unsyncopated1,s24,30.0,masculino,right,España,Castellano,Doctorate,no,no,B,1,when,L3,unsyncopated,when,when,24,Online_whenL3//c.gu31.none.wav,ka,ñe,sa,sil,li,do,le,sil1,ji,ko,sil2,['-'],,,none,none,,,,100:104,3,testWhatL2Uns//r2.s1.0.wav,2.0,what,unsyncopated,b,s1,rule,rule,L2,z,1.4837,7.0,1.0,1.0366,2.0,2.0,Castellano,0.0,Inglés,9.0,2.0,3.0,yes,yes,no,Guitarra flamenca,15,,,"He cometido el error de pinchar con el botón del ratón en vez de pulsar la barra de espacio para responder durante la Fase de Sílabas del primer lenguaje (L1). Después, al leer con atención las instrucciones durante la misma prueba del lenguaje 2 (L2), he sido consciente de mi fallo. Saludos",68.0,yes
25,2023-09-21_16h13.37.688,Unsyncopated1,s24,30.0,masculino,right,España,Castellano,Doctorate,no,no,B,1,when,L3,unsyncopated,when,when,25,Online_whenL3//c.gu28.none.wav,chu,di,ko,sil,sa,le,ji,sil1,li,ka,sil2,['-'],,,none,none,,,,100:104,3,testWhatL2Uns//cat_viol.r1.s2.0.wav,2.0,what,unsyncopated,a,s2,no_rule,cat,L2,m,2.2665,4.0,1.0,1.2317,2.0,2.0,Castellano,0.0,Inglés,9.0,2.0,3.0,yes,yes,no,Guitarra flamenca,15,,,"He cometido el error de pinchar con el botón del ratón en vez de pulsar la barra de espacio para responder durante la Fase de Sílabas del primer lenguaje (L1). Después, al leer con atención las instrucciones durante la misma prueba del lenguaje 2 (L2), he sido consciente de mi fallo. Saludos",68.0,yes
26,2023-09-21_16h13.37.688,Unsyncopated1,s24,30.0,masculino,right,España,Castellano,Doctorate,no,no,B,1,when,L3,unsyncopated,when,when,26,Online_whenL3//c.gu30.0.wav,gu,ka,ga,sil,mo,li,le,sil1,di,sa,sil2,['miss'],,,0.0,beat,,,,100:104,3,testWhatL2Uns//r2.s1.1.wav,2.0,what,unsyncopated,b,s1,rule,rule,L2,m,2.568,5.0,0.0,0.768,2.0,2.0,Castellano,0.0,Inglés,9.0,2.0,3.0,yes,yes,no,Guitarra flamenca,15,,,"He cometido el error de pinchar con el botón del ratón en vez de pulsar la barra de espacio para responder durante la Fase de Sílabas del primer lenguaje (L1). Después, al leer con atención las instrucciones durante la misma prueba del lenguaje 2 (L2), he sido consciente de mi fallo. Saludos",68.0,yes
27,2023-09-21_16h13.37.688,Unsyncopated1,s24,30.0,masculino,right,España,Castellano,Doctorate,no,no,B,1,when,L3,unsyncopated,when,when,27,Online_whenL3//c.gu29.1110.wav,mo,je,ko,sil,ñe,gu,ka,sil1,li,ga,sil2,['miss'],,,1.11,no_beat,,,,100:104,3,testWhatL2Uns//dep_viol.r1.s1.0.wav,2.0,what,unsyncopated,a,s1,no_rule,dep,L2,z,2.868,5.0,0.0,2.651,2.0,2.0,Castellano,0.0,Inglés,9.0,2.0,3.0,yes,yes,no,Guitarra flamenca,15,,,"He cometido el error de pinchar con el botón del ratón en vez de pulsar la barra de espacio para responder durante la Fase de Sílabas del primer lenguaje (L1). Después, al leer con atención las instrucciones durante la misma prueba del lenguaje 2 (L2), he sido consciente de mi fallo. Saludos",68.0,yes
28,2023-09-21_16h13.37.688,Unsyncopated1,s24,30.0,masculino,right,España,Castellano,Doctorate,no,no,B,1,when,L3,unsyncopated,when,when,28,Online_whenL3//c.gu21.none.wav,je,ñe,do,sil,sa,ko,ji,sil1,di,li,sil2,['-'],,,none,none,,,,92:96,3,testWhatL2Uns//r2.s2.0.wav,2.0,what,unsyncopated,b,s2,rule,rule,L2,z,3.1839,5.0,1.0,2.149,2.0,2.0,Castellano,0.0,Inglés,9.0,2.0,3.0,yes,yes,no,Guitarra flamenca,15,,,"He cometido el error de pinchar con el botón del ratón en vez de pulsar la barra de espacio para responder durante la Fase de Sílabas del primer lenguaje (L1). Después, al leer con atención las instrucciones durante la misma prueba del lenguaje 2 (L2), he sido consciente de mi fallo. Saludos",68.0,yes
29,2023-09-21_16h13.37.688,Unsyncopated1,s24,30.0,masculino,right,España,Castellano,Doctorate,no,no,B,1,when,L3,unsyncopated,when,when,29,Online_whenL3//c.gu20.none.wav,fu,li,di,sil,ko,chu,ga,sil1,do,ñe,sil2,['-'],,,none,none,,,,92:96,3,testWhatL2Uns//r1.s1.1.wav,2.0,what,unsyncopated,a,s1,rule,rule,L2,m,4.3182,5.0,0.0,0.801,2.0,2.0,Castellano,0.0,Inglés,9.0,2.0,3.0,yes,yes,no,Guitarra flamenca,15,,,"He cometido el error de pinchar con el botón del ratón en vez de pulsar la barra de espacio para responder durante la Fase de Sílabas del primer lenguaje (L1). Después, al leer con atención las instrucciones durante la misma prueba del lenguaje 2 (L2), he sido consciente de mi fallo. Saludos",68.0,yes
30,2023-09-21_16h13.37.688,Unsyncopated1,s24,30.0,masculino,right,España,Castellano,Doctorate,no,no,B,1,when,L3,unsyncopated,when,when,30,Online_whenL3//c.gu22.1998.wav,do,chu,le,sil,ga,li,ji,sil1,mo,gu,sil2,['miss'],,,1.998,no_beat,,,,92:96,3,testWhatL2Uns//cat_viol.r2.s1.0.wav,2.0,what,unsyncopated,b,s1,no_rule,cat,L2,m,1.8461,7.0,1.0,2.2737,2.0,2.0,Castellano,0.0,Inglés,9.0,2.0,3.0,yes,yes,no,Guitarra flamenca,15,,,"He cometido el error de pinchar con el botón del ratón en vez de pulsar la barra de espacio para responder durante la Fase de Sílabas del primer lenguaje (L1). Después, al leer con atención las instrucciones durante la misma prueba del lenguaje 2 (L2), he sido consciente de mi fallo. Saludos",68.0,yes
31,2023-09-21_16h13.37.688,Unsyncopated1,s24,30.0,masculino,right,España,Castellano,Doctorate,no,no,B,1,when,L3,unsyncopated,when,when,31,Online_whenL3//c.gu23.none.wav,ji,fu,di,sil,ñe,je,li,sil1,do,mo,sil2,['-'],,,none,none,,,,92:96,3,testWhatL2Uns//dep_viol.r1.s2.0.wav,2.0,what,unsyncopated,a,s2,no_rule,dep,L2,m,1.6185,4.0,1.0,0.384,2.0,2.0,Castellano,0.0,Inglés,9.0,2.0,3.0,yes,yes,no,Guitarra flamenca,15,,,"He cometido el error de pinchar con el botón del ratón en vez de pulsar la barra de espacio para responder durante la Fase de Sílabas del primer lenguaje (L1). Después, al leer con atención las instrucciones durante la misma prueba del lenguaje 2 (L2), he sido consciente de mi fallo. Saludos",68.0,yes
32,2023-09-21_16h13.37.688,Unsyncopated1,s24,30.0,masculino,right,España,Castellano,Doctorate,no,no,B,1,when,L3,unsyncopated,when,when,32,Online_whenL3//b.ñe22.none.wav,fu,li,ko,sil,mo,je,le,sil1,sa,ka,sil2,['-'],,,none,none,,,,56:60,2,testWhatL2Uns//time_viol.r1.s2.0.wav,2.0,what,unsyncopated,a,s2,no_rule,time,L2,z,4.1646,5.0,0.0,0.4695,2.0,2.0,Castellano,0.0,Inglés,9.0,2.0,3.0,yes,yes,no,Guitarra flamenca,15,,,"He cometido el error de pinchar con el botón del ratón en vez de pulsar la barra de espacio para responder durante la Fase de Sílabas del primer lenguaje (L1). Después, al leer con atención las instrucciones durante la misma prueba del lenguaje 2 (L2), he sido consciente de mi fallo. Saludos",68.0,yes
33,2023-09-21_16h13.37.688,Unsyncopated1,s24,30.0,masculino,right,España,Castellano,Doctorate,no,no,B,1,when,L3,unsyncopated,when,when,33,Online_whenL3//b.ñe20.none.wav,li,gu,di,sil,ko,ka,ga,sil1,sa,chu,sil2,['-'],,,none,none,,,,56:60,2,testWhatL2Uns//r1.s1.0.wav,2.0,what,unsyncopated,a,s1,rule,rule,L2,m,1.5338,4.0,0.0,0.6178,2.0,2.0,Castellano,0.0,Inglés,9.0,2.0,3.0,yes,yes,no,Guitarra flamenca,15,,,"He cometido el error de pinchar con el botón del ratón en vez de pulsar la barra de espacio para responder durante la Fase de Sílabas del primer lenguaje (L1). Después, al leer con atención las instrucciones durante la misma prueba del lenguaje 2 (L2), he sido consciente de mi fallo. Saludos",68.0,yes
34,2023-09-21_16h13.37.688,Unsyncopated1,s24,30.0,masculino,right,España,Castellano,Doctorate,no,no,B,1,when,L3,unsyncopated,when,when,34,Online_whenL3//b.ñe23.1776.wav,je,ka,ji,sil,mo,gu,do,sil1,ñe,le,sil2,['miss'],,,1.776,beat,,,,56:60,2,testWhatL2Uns//r1.s2.2.wav,2.0,what,unsyncopated,a,s2,rule,rule,L2,m,2.0469,5.0,0.0,0.9989,2.0,2.0,Castellano,0.0,Inglés,9.0,2.0,3.0,yes,yes,no,Guitarra flamenca,15,,,"He cometido el error de pinchar con el botón del ratón en vez de pulsar la barra de espacio para responder durante la Fase de Sílabas del primer lenguaje (L1). Después, al leer con atención las instrucciones durante la misma prueba del lenguaje 2 (L2), he sido consciente de mi fallo. Saludos",68.0,yes
35,2023-09-21_16h13.37.688,Unsyncopated1,s24,30.0,masculino,right,España,Castellano,Doctorate,no,no,B,1,when,L3,unsyncopated,when,when,35,Online_whenL3//b.ñe21.1998.wav,gu,li,le,sil,fu,do,di,sil1,sa,ñe,sil2,['miss'],,,1.998,no_beat,,,,56:60,2,testWhatL2Uns//r1.s2.1.wav,2.0,what,unsyncopated,a,s2,rule,rule,L2,m,1.2844,2.0,0.0,0.7505,2.0,2.0,Castellano,0.0,Inglés,9.0,2.0,3.0,yes,yes,no,Guitarra flamenca,15,,,"He cometido el error de pinchar con el botón del ratón en vez de pulsar la barra de espacio para responder durante la Fase de Sílabas del primer lenguaje (L1). Después, al leer con atención las instrucciones durante la misma prueba del lenguaje 2 (L2), he sido consciente de mi fallo. Saludos",68.0,yes
36,2023-09-21_16h13.37.688,Unsyncopated1,s24,30.0,masculino,right,España,Castellano,Doctorate,no,no,B,1,when,L3,unsyncopated,when,when,36,Online_whenL3//c.gu25.222.wav,chu,gu,ko,sil,fu,ga,li,sil1,di,ñe,sil2,['miss'],,,0.222,no_beat,,,,96:100,3,testWhatL2Uns//r2.s2.1.wav,2.0,what,unsyncopated,b,s2,rule,rule,L2,z,3.2844,5.0,1.0,0.4677,2.0,2.0,Castellano,0.0,Inglés,9.0,2.0,3.0,yes,yes,no,Guitarra flamenca,15,,,"He cometido el error de pinchar con el botón del ratón en vez de pulsar la barra de espacio para responder durante la Fase de Sílabas del primer lenguaje (L1). Después, al leer con atención las instrucciones durante la misma prueba del lenguaje 2 (L2), he sido consciente de mi fallo. Saludos",68.0,yes
37,2023-09-21_16h13.37.688,Unsyncopated1,s24,30.0,masculino,right,España,Castellano,Doctorate,no,no,B,1,when,L3,unsyncopated,when,when,37,Online_whenL3//c.gu26.none.wav,sa,ji,li,sil,le,di,ga,sil1,chu,fu,sil2,['-'],,,none,none,,,,96:100,3,testWhatL2Uns//time_viol.r1.s1.0.wav,2.0,what,unsyncopated,a,s1,no_rule,time,L2,m,1.6845,4.0,1.0,1.5355,2.0,2.0,Castellano,0.0,Inglés,9.0,2.0,3.0,yes,yes,no,Guitarra flamenca,15,,,"He cometido el error de pinchar con el botón del ratón en vez de pulsar la barra de espacio para responder durante la Fase de Sílabas del primer lenguaje (L1). Después, al leer con atención las instrucciones durante la misma prueba del lenguaje 2 (L2), he sido consciente de mi fallo. Saludos",68.0,yes
38,2023-09-21_16h13.37.688,Unsyncopated1,s24,30.0,masculino,right,España,Castellano,Doctorate,no,no,B,1,when,L3,unsyncopated,when,when,38,Online_whenL3//c.gu27.none.wav,li,je,ko,sil,ji,fu,mo,sil1,ñe,di,sil2,['-'],,,none,none,,,,96:100,3,testWhatL2Uns//dep_viol.r2.s1.0.wav,2.0,what,unsyncopated,b,s1,no_rule,dep,L2,z,1.9943,3.0,0.0,1.0042,2.0,2.0,Castellano,0.0,Inglés,9.0,2.0,3.0,yes,yes,no,Guitarra flamenca,15,,,"He cometido el error de pinchar con el botón del ratón en vez de pulsar la barra de espacio para responder durante la Fase de Sílabas del primer lenguaje (L1). Después, al leer con atención las instrucciones durante la misma prueba del lenguaje 2 (L2), he sido consciente de mi fallo. Saludos",68.0,yes
39,2023-09-21_16h13.37.688,Unsyncopated1,s24,30.0,masculino,right,España,Castellano,Doctorate,no,no,B,1,when,L3,unsyncopated,when,when,39,Online_whenL3//c.gu24.1110.wav,ñe,ko,ji,sil,li,gu,le,sil1,chu,ga,sil2,['miss'],,,1.11,no_beat,,,,96:100,3,testWhatL2Uns//r2.s1.2.wav,2.0,what,unsyncopated,b,s1,rule,rule,L2,m,1.0346,4.0,0.0,1.0204,2.0,2.0,Castellano,0.0,Inglés,9.0,2.0,3.0,yes,yes,no,Guitarra flamenca,15,,,"He cometido el error de pinchar con el botón del ratón en vez de pulsar la barra de espacio para responder durante la Fase de Sílabas del primer lenguaje (L1). Después, al leer con atención las instrucciones durante la misma prueba del lenguaje 2 (L2), he sido consciente de mi fallo. Saludos",68.0,yes
40,2023-09-21_16h13.37.688,Unsyncopated1,s24,30.0,masculino,right,España,Castellano,Doctorate,no,no,B,1,when,L3,unsyncopated,when,when,40,Online_whenL3//b.ñe12.none.wav,ji,li,je,sil,mo,ka,chu,sil1,fu,ko,sil2,['-'],,,none,none,,,,48:52,2,testWhatL2Uns//time_viol.r2.s1.0.wav,2.0,what,unsyncopated,b,s1,no_rule,time,L2,m,0.6384,2.0,1.0,0.6523,2.0,2.0,Castellano,0.0,Inglés,9.0,2.0,3.0,yes,yes,no,Guitarra flamenca,15,,,"He cometido el error de pinchar con el botón del ratón en vez de pulsar la barra de espacio para responder durante la Fase de Sílabas del primer lenguaje (L1). Después, al leer con atención las instrucciones durante la misma prueba del lenguaje 2 (L2), he sido consciente de mi fallo. Saludos",68.0,yes
41,2023-09-21_16h13.37.688,Unsyncopated1,s24,30.0,masculino,right,España,Castellano,Doctorate,no,no,B,1,when,L3,unsyncopated,when,when,41,Online_whenL3//b.ñe15.none.wav,je,di,li,sil,ji,ko,sa,sil1,mo,ga,sil2,['-'],,,none,none,,,,48:52,2,testWhatL2Uns//r1.s2.0.wav,2.0,what,unsyncopated,a,s2,rule,rule,L2,m,0.9675,5.0,0.0,2.2547,2.0,2.0,Castellano,0.0,Inglés,9.0,2.0,3.0,yes,yes,no,Guitarra flamenca,15,,,"He cometido el error de pinchar con el botón del ratón en vez de pulsar la barra de espacio para responder durante la Fase de Sílabas del primer lenguaje (L1). Después, al leer con atención las instrucciones durante la misma prueba del lenguaje 2 (L2), he sido consciente de mi fallo. Saludos",68.0,yes
42,2023-09-21_16h13.37.688,Unsyncopated1,s24,30.0,masculino,right,España,Castellano,Doctorate,no,no,B,1,when,L3,unsyncopated,when,when,42,Online_whenL3//b.ñe14.1776.wav,do,je,ko,sil,fu,gu,chu,sil1,ñe,ka,sil2,['miss'],,,1.776,beat,,,,48:52,2,testWhatL2Uns//cat_viol.r1.s1.0.wav,2.0,what,unsyncopated,a,s1,no_rule,cat,L2,z,1.65,4.0,0.0,2.369,2.0,2.0,Castellano,0.0,Inglés,9.0,2.0,3.0,yes,yes,no,Guitarra flamenca,15,,,"He cometido el error de pinchar con el botón del ratón en vez de pulsar la barra de espacio para responder durante la Fase de Sílabas del primer lenguaje (L1). Después, al leer con atención las instrucciones durante la misma prueba del lenguaje 2 (L2), he sido consciente de mi fallo. Saludos",68.0,yes
43,2023-09-21_16h13.37.688,Unsyncopated1,s24,30.0,masculino,right,España,Castellano,Doctorate,no,no,B,1,when,L3,unsyncopated,when,when,43,Online_whenL3//b.ñe13.none.wav,chu,ka,le,sil,ko,je,mo,sil1,fu,di,sil2,['-'],,,none,none,,,,48:52,2,testWhatL2Uns//time_viol.r2.s2.0.wav,2.0,what,unsyncopated,b,s2,no_rule,time,L2,m,9.4142,4.0,1.0,3.7888,2.0,2.0,Castellano,0.0,Inglés,9.0,2.0,3.0,yes,yes,no,Guitarra flamenca,15,,,"He cometido el error de pinchar con el botón del ratón en vez de pulsar la barra de espacio para responder durante la Fase de Sílabas del primer lenguaje (L1). Después, al leer con atención las instrucciones durante la misma prueba del lenguaje 2 (L2), he sido consciente de mi fallo. Saludos",68.0,yes
44,2023-09-21_16h13.37.688,Unsyncopated1,s24,30.0,masculino,right,España,Castellano,Doctorate,no,no,B,1,when,L3,unsyncopated,when,when,44,Online_whenL3//a.mo13.1776.wav,chu,ji,do,sil,gu,le,fu,sil1,mo,ka,sil2,['miss'],,,1.776,beat,,,,12:16,1,testWhatL2Uns//dep_viol.r2.s2.0.wav,2.0,what,unsyncopated,b,s2,no_rule,dep,L2,m,1.1173,5.0,1.0,1.7029,2.0,2.0,Castellano,0.0,Inglés,9.0,2.0,3.0,yes,yes,no,Guitarra flamenca,15,,,"He cometido el error de pinchar con el botón del ratón en vez de pulsar la barra de espacio para responder durante la Fase de Sílabas del primer lenguaje (L1). Después, al leer con atención las instrucciones durante la misma prueba del lenguaje 2 (L2), he sido consciente de mi fallo. Saludos",68.0,yes
45,2023-09-21_16h13.37.688,Unsyncopated1,s24,30.0,masculino,right,España,Castellano,Doctorate,no,no,B,1,when,L3,unsyncopated,when,when,45,Online_whenL3//a.mo14.none.wav,di,ko,ga,sil,gu,do,sa,sil1,ka,chu,sil2,['-'],,,none,none,,,,12:16,1,testWhatL2Uns//cat_viol.r2.s2.0.wav,2.0,what,unsyncopated,b,s2,no_rule,cat,L2,m,1.3688,5.0,1.0,1.1386,2.0,2.0,Castellano,0.0,Inglés,9.0,2.0,3.0,yes,yes,no,Guitarra flamenca,15,,,"He cometido el error de pinchar con el botón del ratón en vez de pulsar la barra de espacio para responder durante la Fase de Sílabas del primer lenguaje (L1). Después, al leer con atención las instrucciones durante la misma prueba del lenguaje 2 (L2), he sido consciente de mi fallo. Saludos",68.0,yes
46,2023-09-21_16h13.37.688,Unsyncopated1,s24,30.0,masculino,right,España,Castellano,Doctorate,no,no,B,1,when,L3,unsyncopated,when,when,46,Online_whenL3//a.mo12.none.wav,je,ji,ñe,sil,le,do,gu,sil1,ga,sa,sil2,['-'],,,none,none,,,,12:16,1,testWhatL2Uns//r2.s2.2.wav,2.0,what,unsyncopated,b,s2,rule,rule,L2,z,2.503,4.0,1.0,1.2155,2.0,2.0,Castellano,0.0,Inglés,9.0,2.0,3.0,yes,yes,no,Guitarra flamenca,15,,,"He cometido el error de pinchar con el botón del ratón en vez de pulsar la barra de espacio para responder durante la Fase de Sílabas del primer lenguaje (L1). Después, al leer con atención las instrucciones durante la misma prueba del lenguaje 2 (L2), he sido consciente de mi fallo. Saludos",68.0,yes
47,2023-09-21_16h13.37.688,Unsyncopated1,s24,30.0,masculino,right,España,Castellano,Doctorate,no,no,B,1,when,L3,unsyncopated,when,when,47,Online_whenL3//a.mo15.1110.wav,ga,le,do,sil,ñe,mo,fu,sil1,di,li,sil2,['miss'],,,1.11,no_beat,,,,12:16,1,testWhatL2Uns//r1.s1.2.wav,2.0,what,unsyncopated,a,s1,rule,rule,L2,m,6.906,2.0,0.0,1.3039,2.0,2.0,Castellano,0.0,Inglés,9.0,2.0,3.0,yes,yes,no,Guitarra flamenca,15,,,"He cometido el error de pinchar con el botón del ratón en vez de pulsar la barra de espacio para responder durante la Fase de Sílabas del primer lenguaje (L1). Después, al leer con atención las instrucciones durante la misma prueba del lenguaje 2 (L2), he sido consciente de mi fallo. Saludos",68.0,yes
48,2023-09-21_16h13.37.688,Unsyncopated1,s24,30.0,masculino,right,España,Castellano,Doctorate,no,no,B,1,when,L3,unsyncopated,when,when,48,Online_whenL3//a.mo35.none.wav,ji,je,ka,sil,ga,fu,ñe,sil1,sa,li,sil2,['-'],,,none,none,,,,32:36,1,testConjL4Syn//time_viol.r2.s2.0.wav,3.0,conjunction_syn,syncopated,b,s2,no_rule,time,L4,z,1.7051,6.0,0.0,1.5635,2.0,2.0,Castellano,0.0,Inglés,9.0,2.0,3.0,yes,yes,no,Guitarra flamenca,15,,,"He cometido el error de pinchar con el botón del ratón en vez de pulsar la barra de espacio para responder durante la Fase de Sílabas del primer lenguaje (L1). Después, al leer con atención las instrucciones durante la misma prueba del lenguaje 2 (L2), he sido consciente de mi fallo. Saludos",68.0,yes
49,2023-09-21_16h13.37.688,Unsyncopated1,s24,30.0,masculino,right,España,Castellano,Doctorate,no,no,B,1,when,L3,unsyncopated,when,when,49,Online_whenL3//a.mo34.222.wav,do,mo,ga,sil,chu,ka,ji,sil1,di,ko,sil2,['miss'],,,0.222,no_beat,,,,32:36,1,testConjL4Syn//cat_viol.r1.s1.0.wav,3.0,conjunction_syn,syncopated,a,s1,no_rule,cat,L4,z,0.9367,7.0,0.0,1.2506,2.0,2.0,Castellano,0.0,Inglés,9.0,2.0,3.0,yes,yes,no,Guitarra flamenca,15,,,"He cometido el error de pinchar con el botón del ratón en vez de pulsar la barra de espacio para responder durante la Fase de Sílabas del primer lenguaje (L1). Después, al leer con atención las instrucciones durante la misma prueba del lenguaje 2 (L2), he sido consciente de mi fallo. Saludos",68.0,yes
50,2023-09-21_16h13.37.688,Unsyncopated1,s24,30.0,masculino,right,España,Castellano,Doctorate,no,no,B,1,when,L3,unsyncopated,when,when,50,Online_whenL3//a.mo32.none.wav,ji,gu,je,sil,ga,do,ñe,sil1,chu,le,sil2,['-'],,,none,none,,,,32:36,1,testConjL4Syn//r2.s2.0.wav,3.0,conjunction_syn,syncopated,b,s2,rule,rule,L4,z,0.7692,6.0,1.0,0.9661,2.0,2.0,Castellano,0.0,Inglés,9.0,2.0,3.0,yes,yes,no,Guitarra flamenca,15,,,"He cometido el error de pinchar con el botón del ratón en vez de pulsar la barra de espacio para responder durante la Fase de Sílabas del primer lenguaje (L1). Después, al leer con atención las instrucciones durante la misma prueba del lenguaje 2 (L2), he sido consciente de mi fallo. Saludos",68.0,yes
51,2023-09-21_16h13.37.688,Unsyncopated1,s24,30.0,masculino,right,España,Castellano,Doctorate,no,no,B,1,when,L3,unsyncopated,when,when,51,Online_whenL3//a.mo33.0.wav,mo,fu,di,sil,ga,do,le,sil1,ñe,ka,sil2,['miss'],,,0.0,beat,,,,32:36,1,testConjL4Syn//time_viol.r1.s2.0.wav,3.0,conjunction_syn,syncopated,a,s2,no_rule,time,L4,m,2.0396,4.0,1.0,1.1326,2.0,2.0,Castellano,0.0,Inglés,9.0,2.0,3.0,yes,yes,no,Guitarra flamenca,15,,,"He cometido el error de pinchar con el botón del ratón en vez de pulsar la barra de espacio para responder durante la Fase de Sílabas del primer lenguaje (L1). Después, al leer con atención las instrucciones durante la misma prueba del lenguaje 2 (L2), he sido consciente de mi fallo. Saludos",68.0,yes
52,2023-09-21_16h13.37.688,Unsyncopated1,s24,30.0,masculino,right,España,Castellano,Doctorate,no,no,B,1,when,L3,unsyncopated,when,when,52,Online_whenL3//a.mo20.1776.wav,ga,fu,ko,sil,li,sa,je,sil1,mo,ka,sil2,['miss'],,,1.776,beat,,,,20:24,1,testConjL4Syn//dep_viol.r1.s2.0.wav,3.0,conjunction_syn,syncopated,a,s2,no_rule,dep,L4,z,1.8174,5.0,0.0,0.7986,2.0,2.0,Castellano,0.0,Inglés,9.0,2.0,3.0,yes,yes,no,Guitarra flamenca,15,,,"He cometido el error de pinchar con el botón del ratón en vez de pulsar la barra de espacio para responder durante la Fase de Sílabas del primer lenguaje (L1). Después, al leer con atención las instrucciones durante la misma prueba del lenguaje 2 (L2), he sido consciente de mi fallo. Saludos",68.0,yes
53,2023-09-21_16h13.37.688,Unsyncopated1,s24,30.0,masculino,right,España,Castellano,Doctorate,no,no,B,1,when,L3,unsyncopated,when,when,53,Online_whenL3//a.mo23.none.wav,ga,sa,je,sil,ko,fu,li,sil1,di,chu,sil2,['-'],,,none,none,,,,20:24,1,testConjL4Syn//dep_viol.r1.s1.0.wav,3.0,conjunction_syn,syncopated,a,s1,no_rule,dep,L4,m,3.5502,4.0,1.0,1.7691,2.0,2.0,Castellano,0.0,Inglés,9.0,2.0,3.0,yes,yes,no,Guitarra flamenca,15,,,"He cometido el error de pinchar con el botón del ratón en vez de pulsar la barra de espacio para responder durante la Fase de Sílabas del primer lenguaje (L1). Después, al leer con atención las instrucciones durante la misma prueba del lenguaje 2 (L2), he sido consciente de mi fallo. Saludos",68.0,yes
54,2023-09-21_16h13.37.688,Unsyncopated1,s24,30.0,masculino,right,España,Castellano,Doctorate,no,no,B,1,when,L3,unsyncopated,when,when,54,Online_whenL3//a.mo21.none.wav,ñe,gu,chu,sil,di,ko,le,sil1,fu,li,sil2,['-'],,,none,none,,,,20:24,1,testConjL4Syn//r1.s2.0.wav,3.0,conjunction_syn,syncopated,a,s2,rule,rule,L4,m,1.2345,3.0,0.0,2.5761,2.0,2.0,Castellano,0.0,Inglés,9.0,2.0,3.0,yes,yes,no,Guitarra flamenca,15,,,"He cometido el error de pinchar con el botón del ratón en vez de pulsar la barra de espacio para responder durante la Fase de Sílabas del primer lenguaje (L1). Después, al leer con atención las instrucciones durante la misma prueba del lenguaje 2 (L2), he sido consciente de mi fallo. Saludos",68.0,yes
55,2023-09-21_16h13.37.688,Unsyncopated1,s24,30.0,masculino,right,España,Castellano,Doctorate,no,no,B,1,when,L3,unsyncopated,when,when,55,Online_whenL3//a.mo22.none.wav,je,ga,ka,sil,ñe,chu,fu,sil1,li,ji,sil2,['-'],,,none,none,,,,20:24,1,testConjL4Syn//cat_viol.r2.s2.0.wav,3.0,conjunction_syn,syncopated,b,s2,no_rule,cat,L4,m,3.3103,4.0,1.0,1.2997,2.0,2.0,Castellano,0.0,Inglés,9.0,2.0,3.0,yes,yes,no,Guitarra flamenca,15,,,"He cometido el error de pinchar con el botón del ratón en vez de pulsar la barra de espacio para responder durante la Fase de Sílabas del primer lenguaje (L1). Después, al leer con atención las instrucciones durante la misma prueba del lenguaje 2 (L2), he sido consciente de mi fallo. Saludos",68.0,yes
56,2023-09-21_16h13.37.688,Unsyncopated1,s24,30.0,masculino,right,España,Castellano,Doctorate,no,no,B,1,when,L3,unsyncopated,when,when,56,Online_whenL3//c.gu10.none.wav,ji,je,mo,sil,li,do,le,sil1,ka,chu,sil2,['-'],,,none,none,,,,80:84,3,testConjL4Syn//dep_viol.r2.s2.0.wav,3.0,conjunction_syn,syncopated,b,s2,no_rule,dep,L4,z,1.8499,4.0,0.0,1.2337,2.0,2.0,Castellano,0.0,Inglés,9.0,2.0,3.0,yes,yes,no,Guitarra flamenca,15,,,"He cometido el error de pinchar con el botón del ratón en vez de pulsar la barra de espacio para responder durante la Fase de Sílabas del primer lenguaje (L1). Después, al leer con atención las instrucciones durante la misma prueba del lenguaje 2 (L2), he sido consciente de mi fallo. Saludos",68.0,yes
57,2023-09-21_16h13.37.688,Unsyncopated1,s24,30.0,masculino,right,España,Castellano,Doctorate,no,no,B,1,when,L3,unsyncopated,when,when,57,Online_whenL3//c.gu11.1110.wav,do,mo,ñe,sil,ga,gu,li,sil1,di,le,sil2,['miss'],,,1.11,no_beat,,,,80:84,3,testConjL4Syn//r1.s1.0.wav,3.0,conjunction_syn,syncopated,a,s1,rule,rule,L4,m,1.4333,2.0,0.0,0.5316,2.0,2.0,Castellano,0.0,Inglés,9.0,2.0,3.0,yes,yes,no,Guitarra flamenca,15,,,"He cometido el error de pinchar con el botón del ratón en vez de pulsar la barra de espacio para responder durante la Fase de Sílabas del primer lenguaje (L1). Después, al leer con atención las instrucciones durante la misma prueba del lenguaje 2 (L2), he sido consciente de mi fallo. Saludos",68.0,yes
58,2023-09-21_16h13.37.688,Unsyncopated1,s24,30.0,masculino,right,España,Castellano,Doctorate,no,no,B,1,when,L3,unsyncopated,when,when,58,Online_whenL3//c.gu9.none.wav,di,ko,le,sil,sa,ji,li,sil1,ka,mo,sil2,['-'],,,none,none,,,,80:84,3,testConjL4Syn//r2.s2.1.wav,3.0,conjunction_syn,syncopated,b,s2,rule,rule,L4,m,1.2364,3.0,0.0,1.7676,2.0,2.0,Castellano,0.0,Inglés,9.0,2.0,3.0,yes,yes,no,Guitarra flamenca,15,,,"He cometido el error de pinchar con el botón del ratón en vez de pulsar la barra de espacio para responder durante la Fase de Sílabas del primer lenguaje (L1). Después, al leer con atención las instrucciones durante la misma prueba del lenguaje 2 (L2), he sido consciente de mi fallo. Saludos",68.0,yes
59,2023-09-21_16h13.37.688,Unsyncopated1,s24,30.0,masculino,right,España,Castellano,Doctorate,no,no,B,1,when,L3,unsyncopated,when,when,59,Online_whenL3//c.gu8.1332.wav,ka,ñe,li,sil,ko,le,gu,sil1,sa,fu,sil2,['miss'],,,1.332,no_beat,,,,80:84,3,testConjL4Syn//cat_viol.r1.s2.0.wav,3.0,conjunction_syn,syncopated,a,s2,no_rule,cat,L4,m,1.245,5.0,1.0,1.4642,2.0,2.0,Castellano,0.0,Inglés,9.0,2.0,3.0,yes,yes,no,Guitarra flamenca,15,,,"He cometido el error de pinchar con el botón del ratón en vez de pulsar la barra de espacio para responder durante la Fase de Sílabas del primer lenguaje (L1). Después, al leer con atención las instrucciones durante la misma prueba del lenguaje 2 (L2), he sido consciente de mi fallo. Saludos",68.0,yes
60,2023-09-21_16h13.37.688,Unsyncopated1,s24,30.0,masculino,right,España,Castellano,Doctorate,no,no,B,1,when,L3,unsyncopated,when,when,60,Online_whenL3//a.mo7.none.wav,di,ko,ñe,sil,fu,je,gu,sil1,sa,ji,sil2,['-'],,,none,none,,,,4:8,1,testConjL4Syn//time_viol.r1.s1.0.wav,3.0,conjunction_syn,syncopated,a,s1,no_rule,time,L4,m,0.6508,3.0,1.0,0.9531,2.0,2.0,Castellano,0.0,Inglés,9.0,2.0,3.0,yes,yes,no,Guitarra flamenca,15,,,"He cometido el error de pinchar con el botón del ratón en vez de pulsar la barra de espacio para responder durante la Fase de Sílabas del primer lenguaje (L1). Después, al leer con atención las instrucciones durante la misma prueba del lenguaje 2 (L2), he sido consciente de mi fallo. Saludos",68.0,yes
61,2023-09-21_16h13.37.688,Unsyncopated1,s24,30.0,masculino,right,España,Castellano,Doctorate,no,no,B,1,when,L3,unsyncopated,when,when,61,Online_whenL3//a.mo5.222.wav,ko,mo,ji,sil,le,di,ga,sil1,li,sa,sil2,['miss'],,,0.222,no_beat,,,,4:8,1,testConjL4Syn//time_viol.r2.s1.0.wav,3.0,conjunction_syn,syncopated,b,s1,no_rule,time,L4,z,3.1343,4.0,0.0,2.2209,2.0,2.0,Castellano,0.0,Inglés,9.0,2.0,3.0,yes,yes,no,Guitarra flamenca,15,,,"He cometido el error de pinchar con el botón del ratón en vez de pulsar la barra de espacio para responder durante la Fase de Sílabas del primer lenguaje (L1). Después, al leer con atención las instrucciones durante la misma prueba del lenguaje 2 (L2), he sido consciente de mi fallo. Saludos",68.0,yes
62,2023-09-21_16h13.37.688,Unsyncopated1,s24,30.0,masculino,right,España,Castellano,Doctorate,no,no,B,1,when,L3,unsyncopated,when,when,62,Online_whenL3//a.mo6.444.wav,fu,ko,mo,sil,chu,le,ji,sil1,ka,je,sil2,['miss'],,,0.444,no_beat,,,,4:8,1,testConjL4Syn//cat_viol.r2.s1.0.wav,3.0,conjunction_syn,syncopated,b,s1,no_rule,cat,L4,m,1.5007,3.0,1.0,1.197,2.0,2.0,Castellano,0.0,Inglés,9.0,2.0,3.0,yes,yes,no,Guitarra flamenca,15,,,"He cometido el error de pinchar con el botón del ratón en vez de pulsar la barra de espacio para responder durante la Fase de Sílabas del primer lenguaje (L1). Después, al leer con atención las instrucciones durante la misma prueba del lenguaje 2 (L2), he sido consciente de mi fallo. Saludos",68.0,yes
63,2023-09-21_16h13.37.688,Unsyncopated1,s24,30.0,masculino,right,España,Castellano,Doctorate,no,no,B,1,when,L3,unsyncopated,when,when,63,Online_whenL3//a.mo4.1776.wav,ga,gu,sa,sil,ko,je,li,sil1,mo,do,sil2,['miss'],,,1.776,beat,,,,4:8,1,testConjL4Syn//r1.s2.2.wav,3.0,conjunction_syn,syncopated,a,s2,rule,rule,L4,m,3.4167,3.0,0.0,0.336,2.0,2.0,Castellano,0.0,Inglés,9.0,2.0,3.0,yes,yes,no,Guitarra flamenca,15,,,"He cometido el error de pinchar con el botón del ratón en vez de pulsar la barra de espacio para responder durante la Fase de Sílabas del primer lenguaje (L1). Después, al leer con atención las instrucciones durante la misma prueba del lenguaje 2 (L2), he sido consciente de mi fallo. Saludos",68.0,yes
64,2023-09-21_16h13.37.688,Unsyncopated1,s24,30.0,masculino,right,España,Castellano,Doctorate,no,no,B,1,when,L3,unsyncopated,when,when,64,Online_whenL3//d.ji9.1776.wav,chu,ñe,li,sil,ga,di,gu,sil1,ji,fu,sil2,['miss'],,,1.776,beat,,,,112:116,4,testConjL4Syn//r1.s2.1.wav,3.0,conjunction_syn,syncopated,a,s2,rule,rule,L4,z,2.3996,3.0,1.0,1.0505,2.0,2.0,Castellano,0.0,Inglés,9.0,2.0,3.0,yes,yes,no,Guitarra flamenca,15,,,"He cometido el error de pinchar con el botón del ratón en vez de pulsar la barra de espacio para responder durante la Fase de Sílabas del primer lenguaje (L1). Después, al leer con atención las instrucciones durante la misma prueba del lenguaje 2 (L2), he sido consciente de mi fallo. Saludos",68.0,yes
65,2023-09-21_16h13.37.688,Unsyncopated1,s24,30.0,masculino,right,España,Castellano,Doctorate,no,no,B,1,when,L3,unsyncopated,when,when,65,Online_whenL3//d.ji10.444.wav,do,ga,ji,sil,di,sa,chu,sil1,ka,ko,sil2,['miss'],,,0.444,no_beat,,,,112:116,4,testConjL4Syn//r1.s1.2.wav,3.0,conjunction_syn,syncopated,a,s1,rule,rule,L4,z,2.0672,6.0,1.0,1.218,2.0,2.0,Castellano,0.0,Inglés,9.0,2.0,3.0,yes,yes,no,Guitarra flamenca,15,,,"He cometido el error de pinchar con el botón del ratón en vez de pulsar la barra de espacio para responder durante la Fase de Sílabas del primer lenguaje (L1). Después, al leer con atención las instrucciones durante la misma prueba del lenguaje 2 (L2), he sido consciente de mi fallo. Saludos",68.0,yes
66,2023-09-21_16h13.37.688,Unsyncopated1,s24,30.0,masculino,right,España,Castellano,Doctorate,no,no,B,1,when,L3,unsyncopated,when,when,66,Online_whenL3//d.ji8.none.wav,je,ko,ñe,sil,chu,ga,do,sil1,li,gu,sil2,['-'],,,none,none,,,,112:116,4,testConjL4Syn//r2.s1.1.wav,3.0,conjunction_syn,syncopated,b,s1,rule,rule,L4,m,1.1889,4.0,0.0,1.0355,2.0,2.0,Castellano,0.0,Inglés,9.0,2.0,3.0,yes,yes,no,Guitarra flamenca,15,,,"He cometido el error de pinchar con el botón del ratón en vez de pulsar la barra de espacio para responder durante la Fase de Sílabas del primer lenguaje (L1). Después, al leer con atención las instrucciones durante la misma prueba del lenguaje 2 (L2), he sido consciente de mi fallo. Saludos",68.0,yes
67,2023-09-21_16h13.37.688,Unsyncopated1,s24,30.0,masculino,right,España,Castellano,Doctorate,no,no,B,1,when,L3,unsyncopated,when,when,67,Online_whenL3//d.ji11.none.wav,ñe,je,fu,sil,mo,ka,li,sil1,ko,gu,sil2,['-'],,,none,none,,,,112:116,4,testConjL4Syn//r2.s1.0.wav,3.0,conjunction_syn,syncopated,b,s1,rule,rule,L4,m,2.8303,3.0,0.0,0.9511,2.0,2.0,Castellano,0.0,Inglés,9.0,2.0,3.0,yes,yes,no,Guitarra flamenca,15,,,"He cometido el error de pinchar con el botón del ratón en vez de pulsar la barra de espacio para responder durante la Fase de Sílabas del primer lenguaje (L1). Después, al leer con atención las instrucciones durante la misma prueba del lenguaje 2 (L2), he sido consciente de mi fallo. Saludos",68.0,yes
68,2023-09-21_16h13.37.688,Unsyncopated1,s24,30.0,masculino,right,España,Castellano,Doctorate,no,no,B,1,when,L3,unsyncopated,when,when,68,Online_whenL3//c.gu14.444.wav,ka,le,gu,sil,chu,mo,do,sil1,fu,ji,sil2,['miss'],,,0.444,no_beat,,,,84:88,3,testConjL4Syn//r1.s1.1.wav,3.0,conjunction_syn,syncopated,a,s1,rule,rule,L4,z,2.4514,3.0,1.0,1.2993,2.0,2.0,Castellano,0.0,Inglés,9.0,2.0,3.0,yes,yes,no,Guitarra flamenca,15,,,"He cometido el error de pinchar con el botón del ratón en vez de pulsar la barra de espacio para responder durante la Fase de Sílabas del primer lenguaje (L1). Después, al leer con atención las instrucciones durante la misma prueba del lenguaje 2 (L2), he sido consciente de mi fallo. Saludos",68.0,yes
69,2023-09-21_16h13.37.688,Unsyncopated1,s24,30.0,masculino,right,España,Castellano,Doctorate,no,no,B,1,when,L3,unsyncopated,when,when,69,Online_whenL3//c.gu15.none.wav,je,chu,li,sil,mo,ko,di,sil1,ji,do,sil2,['-'],,,none,none,,,,84:88,3,testConjL4Syn//r2.s2.2.wav,3.0,conjunction_syn,syncopated,b,s2,rule,rule,L4,m,4.3223,3.0,0.0,0.7017,2.0,2.0,Castellano,0.0,Inglés,9.0,2.0,3.0,yes,yes,no,Guitarra flamenca,15,,,"He cometido el error de pinchar con el botón del ratón en vez de pulsar la barra de espacio para responder durante la Fase de Sílabas del primer lenguaje (L1). Después, al leer con atención las instrucciones durante la misma prueba del lenguaje 2 (L2), he sido consciente de mi fallo. Saludos",68.0,yes
70,2023-09-21_16h13.37.688,Unsyncopated1,s24,30.0,masculino,right,España,Castellano,Doctorate,no,no,B,1,when,L3,unsyncopated,when,when,70,Online_whenL3//c.gu13.none.wav,ñe,ko,chu,sil,di,je,fu,sil1,do,le,sil2,['-'],,,none,none,,,,84:88,3,testConjL4Syn//r2.s1.2.wav,3.0,conjunction_syn,syncopated,b,s1,rule,rule,L4,m,2.0464,3.0,0.0,0.835,2.0,2.0,Castellano,0.0,Inglés,9.0,2.0,3.0,yes,yes,no,Guitarra flamenca,15,,,"He cometido el error de pinchar con el botón del ratón en vez de pulsar la barra de espacio para responder durante la Fase de Sílabas del primer lenguaje (L1). Después, al leer con atención las instrucciones durante la misma prueba del lenguaje 2 (L2), he sido consciente de mi fallo. Saludos",68.0,yes
71,2023-09-21_16h13.37.688,Unsyncopated1,s24,30.0,masculino,right,España,Castellano,Doctorate,no,no,B,1,when,L3,unsyncopated,when,when,71,Online_whenL3//c.gu12.0.wav,gu,sa,ji,sil,je,ko,do,sil1,le,chu,sil2,['miss'],,,0.0,beat,,,,84:88,3,testConjL4Syn//dep_viol.r2.s1.0.wav,3.0,conjunction_syn,syncopated,b,s1,no_rule,dep,L4,m,0.5356,4.0,1.0,1.2695,2.0,2.0,Castellano,0.0,Inglés,9.0,2.0,3.0,yes,yes,no,Guitarra flamenca,15,,,"He cometido el error de pinchar con el botón del ratón en vez de pulsar la barra de espacio para responder durante la Fase de Sílabas del primer lenguaje (L1). Después, al leer con atención las instrucciones durante la misma prueba del lenguaje 2 (L2), he sido consciente de mi fallo. Saludos",68.0,yes
72,2023-09-21_16h13.37.688,Unsyncopated1,s24,30.0,masculino,right,España,Castellano,Doctorate,no,no,B,1,when,L3,unsyncopated,when,when,72,Online_whenL3//a.mo31.1776.wav,li,gu,ñe,sil,ga,ji,le,sil1,mo,je,sil2,['miss'],,,1.776,beat,,,,28:32,1,testConjL1Uns//cat_viol.r1.s2.0.wav,4.0,conjunction_un,unsyncopated,a,s2,no_rule,cat,L1,z,1.2703,7.0,0.0,0.5177,2.0,2.0,Castellano,0.0,Inglés,9.0,2.0,3.0,yes,yes,no,Guitarra flamenca,15,,,"He cometido el error de pinchar con el botón del ratón en vez de pulsar la barra de espacio para responder durante la Fase de Sílabas del primer lenguaje (L1). Después, al leer con atención las instrucciones durante la misma prueba del lenguaje 2 (L2), he sido consciente de mi fallo. Saludos",68.0,yes
73,2023-09-21_16h13.37.688,Unsyncopated1,s24,30.0,masculino,right,España,Castellano,Doctorate,no,no,B,1,when,L3,unsyncopated,when,when,73,Online_whenL3//a.mo28.0.wav,mo,sa,ka,sil,ga,ko,fu,sil1,gu,do,sil2,['miss'],,,0.0,beat,,,,28:32,1,testConjL1Uns//r2.s1.2.wav,4.0,conjunction_un,unsyncopated,b,s1,rule,rule,L1,z,1.5216,5.0,1.0,0.5368,2.0,2.0,Castellano,0.0,Inglés,9.0,2.0,3.0,yes,yes,no,Guitarra flamenca,15,,,"He cometido el error de pinchar con el botón del ratón en vez de pulsar la barra de espacio para responder durante la Fase de Sílabas del primer lenguaje (L1). Después, al leer con atención las instrucciones durante la misma prueba del lenguaje 2 (L2), he sido consciente de mi fallo. Saludos",68.0,yes
74,2023-09-21_16h13.37.688,Unsyncopated1,s24,30.0,masculino,right,España,Castellano,Doctorate,no,no,B,1,when,L3,unsyncopated,when,when,74,Online_whenL3//a.mo30.none.wav,ga,li,gu,sil,chu,le,fu,sil1,ka,ñe,sil2,['-'],,,none,none,,,,28:32,1,testConjL1Uns//dep_viol.r2.s1.0.wav,4.0,conjunction_un,unsyncopated,b,s1,no_rule,dep,L1,z,2.6783,4.0,0.0,1.1184,2.0,2.0,Castellano,0.0,Inglés,9.0,2.0,3.0,yes,yes,no,Guitarra flamenca,15,,,"He cometido el error de pinchar con el botón del ratón en vez de pulsar la barra de espacio para responder durante la Fase de Sílabas del primer lenguaje (L1). Después, al leer con atención las instrucciones durante la misma prueba del lenguaje 2 (L2), he sido consciente de mi fallo. Saludos",68.0,yes
75,2023-09-21_16h13.37.688,Unsyncopated1,s24,30.0,masculino,right,España,Castellano,Doctorate,no,no,B,1,when,L3,unsyncopated,when,when,75,Online_whenL3//a.mo29.none.wav,sa,di,je,sil,li,ko,ji,sil1,ga,ñe,sil2,['-'],,,none,none,,,,28:32,1,testConjL1Uns//r1.s1.1.wav,4.0,conjunction_un,unsyncopated,a,s1,rule,rule,L1,z,1.8152,4.0,1.0,0.9909,2.0,2.0,Castellano,0.0,Inglés,9.0,2.0,3.0,yes,yes,no,Guitarra flamenca,15,,,"He cometido el error de pinchar con el botón del ratón en vez de pulsar la barra de espacio para responder durante la Fase de Sílabas del primer lenguaje (L1). Después, al leer con atención las instrucciones durante la misma prueba del lenguaje 2 (L2), he sido consciente de mi fallo. Saludos",68.0,yes
76,2023-09-21_16h13.37.688,Unsyncopated1,s24,30.0,masculino,right,España,Castellano,Doctorate,no,no,B,1,when,L3,unsyncopated,when,when,76,Online_whenL3//a.mo8.1776.wav,je,ga,ka,sil,le,li,ñe,sil1,mo,gu,sil2,['miss'],,,1.776,beat,,,,8:12,1,testConjL1Uns//cat_viol.r2.s2.0.wav,4.0,conjunction_un,unsyncopated,b,s2,no_rule,cat,L1,z,2.9253,6.0,0.0,0.6219,2.0,2.0,Castellano,0.0,Inglés,9.0,2.0,3.0,yes,yes,no,Guitarra flamenca,15,,,"He cometido el error de pinchar con el botón del ratón en vez de pulsar la barra de espacio para responder durante la Fase de Sílabas del primer lenguaje (L1). Después, al leer con atención las instrucciones durante la misma prueba del lenguaje 2 (L2), he sido consciente de mi fallo. Saludos",68.0,yes
77,2023-09-21_16h13.37.688,Unsyncopated1,s24,30.0,masculino,right,España,Castellano,Doctorate,no,no,B,1,when,L3,unsyncopated,when,when,77,Online_whenL3//a.mo9.1332.wav,fu,sa,do,sil,ji,gu,mo,sil1,ka,je,sil2,['miss'],,,1.332,no_beat,,,,8:12,1,testConjL1Uns//r2.s2.1.wav,4.0,conjunction_un,unsyncopated,b,s2,rule,rule,L1,m,2.8157,3.0,0.0,1.3044,2.0,2.0,Castellano,0.0,Inglés,9.0,2.0,3.0,yes,yes,no,Guitarra flamenca,15,,,"He cometido el error de pinchar con el botón del ratón en vez de pulsar la barra de espacio para responder durante la Fase de Sílabas del primer lenguaje (L1). Después, al leer con atención las instrucciones durante la misma prueba del lenguaje 2 (L2), he sido consciente de mi fallo. Saludos",68.0,yes
78,2023-09-21_16h13.37.688,Unsyncopated1,s24,30.0,masculino,right,España,Castellano,Doctorate,no,no,B,1,when,L3,unsyncopated,when,when,78,Online_whenL3//a.mo10.none.wav,di,ko,le,sil,chu,fu,ka,sil1,sa,ji,sil2,['-'],,,none,none,,,,8:12,1,testConjL1Uns//r2.s1.1.wav,4.0,conjunction_un,unsyncopated,b,s1,rule,rule,L1,z,0.8984,4.0,1.0,0.6374,2.0,2.0,Castellano,0.0,Inglés,9.0,2.0,3.0,yes,yes,no,Guitarra flamenca,15,,,"He cometido el error de pinchar con el botón del ratón en vez de pulsar la barra de espacio para responder durante la Fase de Sílabas del primer lenguaje (L1). Después, al leer con atención las instrucciones durante la misma prueba del lenguaje 2 (L2), he sido consciente de mi fallo. Saludos",68.0,yes
79,2023-09-21_16h13.37.688,Unsyncopated1,s24,30.0,masculino,right,España,Castellano,Doctorate,no,no,B,1,when,L3,unsyncopated,when,when,79,Online_whenL3//a.mo11.none.wav,chu,li,ñe,sil,je,fu,le,sil1,ko,di,sil2,['-'],,,none,none,,,,8:12,1,testConjL1Uns//time_viol.r2.s2.0.wav,4.0,conjunction_un,unsyncopated,b,s2,no_rule,time,L1,m,2.4268,5.0,1.0,0.6715,2.0,2.0,Castellano,0.0,Inglés,9.0,2.0,3.0,yes,yes,no,Guitarra flamenca,15,,,"He cometido el error de pinchar con el botón del ratón en vez de pulsar la barra de espacio para responder durante la Fase de Sílabas del primer lenguaje (L1). Después, al leer con atención las instrucciones durante la misma prueba del lenguaje 2 (L2), he sido consciente de mi fallo. Saludos",68.0,yes
80,2023-09-21_16h13.37.688,Unsyncopated1,s24,30.0,masculino,right,España,Castellano,Doctorate,no,no,B,1,when,L3,unsyncopated,when,when,80,Online_whenL3//b.ñe18.none.wav,sa,di,chu,sil,do,fu,ko,sil1,gu,ji,sil2,['-'],,,none,none,,,,52:56,2,testConjL1Uns//r1.s1.0.wav,4.0,conjunction_un,unsyncopated,a,s1,rule,rule,L1,m,2.8673,3.0,0.0,0.7687,2.0,2.0,Castellano,0.0,Inglés,9.0,2.0,3.0,yes,yes,no,Guitarra flamenca,15,,,"He cometido el error de pinchar con el botón del ratón en vez de pulsar la barra de espacio para responder durante la Fase de Sílabas del primer lenguaje (L1). Después, al leer con atención las instrucciones durante la misma prueba del lenguaje 2 (L2), he sido consciente de mi fallo. Saludos",68.0,yes
81,2023-09-21_16h13.37.688,Unsyncopated1,s24,30.0,masculino,right,España,Castellano,Doctorate,no,no,B,1,when,L3,unsyncopated,when,when,81,Online_whenL3//b.ñe16.1110.wav,do,je,li,sil,gu,ñe,sa,sil1,ji,ko,sil2,['miss'],,,1.11,no_beat,,,,52:56,2,testConjL1Uns//r1.s2.2.wav,4.0,conjunction_un,unsyncopated,a,s2,rule,rule,L1,z,1.1171,4.0,1.0,0.6354,2.0,2.0,Castellano,0.0,Inglés,9.0,2.0,3.0,yes,yes,no,Guitarra flamenca,15,,,"He cometido el error de pinchar con el botón del ratón en vez de pulsar la barra de espacio para responder durante la Fase de Sílabas del primer lenguaje (L1). Después, al leer con atención las instrucciones durante la misma prueba del lenguaje 2 (L2), he sido consciente de mi fallo. Saludos",68.0,yes
82,2023-09-21_16h13.37.688,Unsyncopated1,s24,30.0,masculino,right,España,Castellano,Doctorate,no,no,B,1,when,L3,unsyncopated,when,when,82,Online_whenL3//b.ñe19.1776.wav,ji,mo,li,sil,le,ko,fu,sil1,ñe,do,sil2,['miss'],,,1.776,beat,,,,52:56,2,testConjL1Uns//r2.s2.2.wav,4.0,conjunction_un,unsyncopated,b,s2,rule,rule,L1,z,0.8019,3.0,1.0,1.0,2.0,2.0,Castellano,0.0,Inglés,9.0,2.0,3.0,yes,yes,no,Guitarra flamenca,15,,,"He cometido el error de pinchar con el botón del ratón en vez de pulsar la barra de espacio para responder durante la Fase de Sílabas del primer lenguaje (L1). Después, al leer con atención las instrucciones durante la misma prueba del lenguaje 2 (L2), he sido consciente de mi fallo. Saludos",68.0,yes
83,2023-09-21_16h13.37.688,Unsyncopated1,s24,30.0,masculino,right,España,Castellano,Doctorate,no,no,B,1,when,L3,unsyncopated,when,when,83,Online_whenL3//b.ñe17.1998.wav,fu,ga,ka,sil,ji,chu,di,sil1,je,ñe,sil2,['miss'],,,1.998,no_beat,,,,52:56,2,testConjL1Uns//r1.s1.2.wav,4.0,conjunction_un,unsyncopated,a,s1,rule,rule,L1,m,0.7876,3.0,0.0,0.7209,2.0,2.0,Castellano,0.0,Inglés,9.0,2.0,3.0,yes,yes,no,Guitarra flamenca,15,,,"He cometido el error de pinchar con el botón del ratón en vez de pulsar la barra de espacio para responder durante la Fase de Sílabas del primer lenguaje (L1). Después, al leer con atención las instrucciones durante la misma prueba del lenguaje 2 (L2), he sido consciente de mi fallo. Saludos",68.0,yes
84,2023-09-21_16h13.37.688,Unsyncopated1,s24,30.0,masculino,right,España,Castellano,Doctorate,no,no,B,1,when,L3,unsyncopated,when,when,84,Online_whenL3//b.ñe7.1998.wav,ji,je,sa,sil,ka,ga,di,sil1,gu,ñe,sil2,['miss'],,,1.998,no_beat,,,,40:44,2,testConjL1Uns//time_viol.r1.s1.0.wav,4.0,conjunction_un,unsyncopated,a,s1,no_rule,time,L1,z,2.4971,4.0,0.0,1.7673,2.0,2.0,Castellano,0.0,Inglés,9.0,2.0,3.0,yes,yes,no,Guitarra flamenca,15,,,"He cometido el error de pinchar con el botón del ratón en vez de pulsar la barra de espacio para responder durante la Fase de Sílabas del primer lenguaje (L1). Después, al leer con atención las instrucciones durante la misma prueba del lenguaje 2 (L2), he sido consciente de mi fallo. Saludos",68.0,yes
85,2023-09-21_16h13.37.688,Unsyncopated1,s24,30.0,masculino,right,España,Castellano,Doctorate,no,no,B,1,when,L3,unsyncopated,when,when,85,Online_whenL3//b.ñe4.1998.wav,ka,di,ga,sil,ko,gu,je,sil1,mo,ñe,sil2,['miss'],,,1.998,no_beat,,,,40:44,2,testConjL1Uns//cat_viol.r2.s1.0.wav,4.0,conjunction_un,unsyncopated,b,s1,no_rule,cat,L1,z,1.0016,4.0,0.0,0.4857,2.0,2.0,Castellano,0.0,Inglés,9.0,2.0,3.0,yes,yes,no,Guitarra flamenca,15,,,"He cometido el error de pinchar con el botón del ratón en vez de pulsar la barra de espacio para responder durante la Fase de Sílabas del primer lenguaje (L1). Después, al leer con atención las instrucciones durante la misma prueba del lenguaje 2 (L2), he sido consciente de mi fallo. Saludos",68.0,yes
86,2023-09-21_16h13.37.688,Unsyncopated1,s24,30.0,masculino,right,España,Castellano,Doctorate,no,no,B,1,when,L3,unsyncopated,when,when,86,Online_whenL3//b.ñe5.1110.wav,li,ko,je,sil,fu,ñe,gu,sil1,ga,sa,sil2,['miss'],,,1.11,no_beat,,,,40:44,2,testConjL1Uns//r1.s2.0.wav,4.0,conjunction_un,unsyncopated,a,s2,rule,rule,L1,m,3.986,4.0,0.0,0.519,2.0,2.0,Castellano,0.0,Inglés,9.0,2.0,3.0,yes,yes,no,Guitarra flamenca,15,,,"He cometido el error de pinchar con el botón del ratón en vez de pulsar la barra de espacio para responder durante la Fase de Sílabas del primer lenguaje (L1). Después, al leer con atención las instrucciones durante la misma prueba del lenguaje 2 (L2), he sido consciente de mi fallo. Saludos",68.0,yes
87,2023-09-21_16h13.37.688,Unsyncopated1,s24,30.0,masculino,right,España,Castellano,Doctorate,no,no,B,1,when,L3,unsyncopated,when,when,87,Online_whenL3//b.ñe6.444.wav,ga,ka,ñe,sil,mo,ji,li,sil1,do,fu,sil2,['miss'],,,0.444,no_beat,,,,40:44,2,testConjL1Uns//dep_viol.r1.s2.0.wav,4.0,conjunction_un,unsyncopated,a,s2,no_rule,dep,L1,z,6.9013,3.0,0.0,0.8845,2.0,2.0,Castellano,0.0,Inglés,9.0,2.0,3.0,yes,yes,no,Guitarra flamenca,15,,,"He cometido el error de pinchar con el botón del ratón en vez de pulsar la barra de espacio para responder durante la Fase de Sílabas del primer lenguaje (L1). Después, al leer con atención las instrucciones durante la misma prueba del lenguaje 2 (L2), he sido consciente de mi fallo. Saludos",68.0,yes
88,2023-09-21_16h13.37.688,Unsyncopated1,s24,30.0,masculino,right,España,Castellano,Doctorate,no,no,B,1,when,L3,unsyncopated,when,when,88,Online_whenL3//c.gu6.none.wav,do,je,mo,sil,fu,ko,sa,sil1,ka,di,sil2,['-'],,,none,none,,,,76:80,3,testConjL1Uns//r1.s2.1.wav,4.0,conjunction_un,unsyncopated,a,s2,rule,rule,L1,m,1.2522,4.0,0.0,0.9199,2.0,2.0,Castellano,0.0,Inglés,9.0,2.0,3.0,yes,yes,no,Guitarra flamenca,15,,,"He cometido el error de pinchar con el botón del ratón en vez de pulsar la barra de espacio para responder durante la Fase de Sílabas del primer lenguaje (L1). Después, al leer con atención las instrucciones durante la misma prueba del lenguaje 2 (L2), he sido consciente de mi fallo. Saludos",68.0,yes
89,2023-09-21_16h13.37.688,Unsyncopated1,s24,30.0,masculino,right,España,Castellano,Doctorate,no,no,B,1,when,L3,unsyncopated,when,when,89,Online_whenL3//c.gu4.none.wav,do,ka,ko,sil,fu,chu,mo,sil1,le,ji,sil2,['-'],,,none,none,,,,76:80,3,testConjL1Uns//r2.s1.0.wav,4.0,conjunction_un,unsyncopated,b,s1,rule,rule,L1,z,1.3348,4.0,1.0,0.3989,2.0,2.0,Castellano,0.0,Inglés,9.0,2.0,3.0,yes,yes,no,Guitarra flamenca,15,,,"He cometido el error de pinchar con el botón del ratón en vez de pulsar la barra de espacio para responder durante la Fase de Sílabas del primer lenguaje (L1). Después, al leer con atención las instrucciones durante la misma prueba del lenguaje 2 (L2), he sido consciente de mi fallo. Saludos",68.0,yes
90,2023-09-21_16h13.37.688,Unsyncopated1,s24,30.0,masculino,right,España,Castellano,Doctorate,no,no,B,1,when,L3,unsyncopated,when,when,90,Online_whenL3//c.gu7.1776.wav,sa,ga,di,sil,mo,ka,ko,sil1,gu,le,sil2,['miss'],,,1.776,beat,,,,76:80,3,testConjL1Uns//cat_viol.r1.s1.0.wav,4.0,conjunction_un,unsyncopated,a,s1,no_rule,cat,L1,m,0.85,3.0,1.0,0.7189,2.0,2.0,Castellano,0.0,Inglés,9.0,2.0,3.0,yes,yes,no,Guitarra flamenca,15,,,"He cometido el error de pinchar con el botón del ratón en vez de pulsar la barra de espacio para responder durante la Fase de Sílabas del primer lenguaje (L1). Después, al leer con atención las instrucciones durante la misma prueba del lenguaje 2 (L2), he sido consciente de mi fallo. Saludos",68.0,yes
91,2023-09-21_16h13.37.688,Unsyncopated1,s24,30.0,masculino,right,España,Castellano,Doctorate,no,no,B,1,when,L3,unsyncopated,when,when,91,Online_whenL3//c.gu5.0.wav,gu,ko,ji,sil,sa,ñe,le,sil1,fu,di,sil2,['miss'],,,0.0,beat,,,,76:80,3,testConjL1Uns//dep_viol.r2.s2.0.wav,4.0,conjunction_un,unsyncopated,b,s2,no_rule,dep,L1,m,0.8538,4.0,1.0,1.4973,2.0,2.0,Castellano,0.0,Inglés,9.0,2.0,3.0,yes,yes,no,Guitarra flamenca,15,,,"He cometido el error de pinchar con el botón del ratón en vez de pulsar la barra de espacio para responder durante la Fase de Sílabas del primer lenguaje (L1). Después, al leer con atención las instrucciones durante la misma prueba del lenguaje 2 (L2), he sido consciente de mi fallo. Saludos",68.0,yes
92,2023-09-21_16h13.37.688,Unsyncopated1,s24,30.0,masculino,right,España,Castellano,Doctorate,no,no,B,1,when,L3,unsyncopated,when,when,92,Online_whenL3//d.ji23.none.wav,mo,ñe,je,sil,fu,ko,le,sil1,li,ka,sil2,['-'],,,none,none,,,,124:128,4,testConjL1Uns//time_viol.r2.s1.0.wav,4.0,conjunction_un,unsyncopated,b,s1,no_rule,time,L1,z,1.3157,6.0,0.0,0.7246,2.0,2.0,Castellano,0.0,Inglés,9.0,2.0,3.0,yes,yes,no,Guitarra flamenca,15,,,"He cometido el error de pinchar con el botón del ratón en vez de pulsar la barra de espacio para responder durante la Fase de Sílabas del primer lenguaje (L1). Después, al leer con atención las instrucciones durante la misma prueba del lenguaje 2 (L2), he sido consciente de mi fallo. Saludos",68.0,yes
93,2023-09-21_16h13.37.688,Unsyncopated1,s24,30.0,masculino,right,España,Castellano,Doctorate,no,no,B,1,when,L3,unsyncopated,when,when,93,Online_whenL3//d.ji20.none.wav,mo,gu,chu,sil,do,je,fu,sil1,di,le,sil2,['-'],,,none,none,,,,124:128,4,testConjL1Uns//dep_viol.r1.s1.0.wav,4.0,conjunction_un,unsyncopated,a,s1,no_rule,dep,L1,m,0.6124,4.0,1.0,1.133,2.0,2.0,Castellano,0.0,Inglés,9.0,2.0,3.0,yes,yes,no,Guitarra flamenca,15,,,"He cometido el error de pinchar con el botón del ratón en vez de pulsar la barra de espacio para responder durante la Fase de Sílabas del primer lenguaje (L1). Después, al leer con atención las instrucciones durante la misma prueba del lenguaje 2 (L2), he sido consciente de mi fallo. Saludos",68.0,yes
94,2023-09-21_16h13.37.688,Unsyncopated1,s24,30.0,masculino,right,España,Castellano,Doctorate,no,no,B,1,when,L3,unsyncopated,when,when,94,Online_whenL3//d.ji21.888.wav,ko,li,ñe,sil,ji,ka,fu,sil1,ga,sa,sil2,['miss'],,,0.888,beat,,,,124:128,4,testConjL1Uns//r2.s2.0.wav,4.0,conjunction_un,unsyncopated,b,s2,rule,rule,L1,m,1.8813,4.0,0.0,0.7819,2.0,2.0,Castellano,0.0,Inglés,9.0,2.0,3.0,yes,yes,no,Guitarra flamenca,15,,,"He cometido el error de pinchar con el botón del ratón en vez de pulsar la barra de espacio para responder durante la Fase de Sílabas del primer lenguaje (L1). Después, al leer con atención las instrucciones durante la misma prueba del lenguaje 2 (L2), he sido consciente de mi fallo. Saludos",68.0,yes
95,2023-09-21_16h13.37.688,Unsyncopated1,s24,30.0,masculino,right,España,Castellano,Doctorate,no,no,B,1,when,L3,unsyncopated,when,when,95,Online_whenL3//d.ji22.1332.wav,gu,di,mo,sil,fu,ñe,ji,sil1,ko,le,sil2,['miss'],,,1.332,no_beat,,,,124:128,4,testConjL1Uns//time_viol.r1.s2.0.wav,4.0,conjunction_un,unsyncopated,a,s2,no_rule,time,L1,m,1.1814,4.0,1.0,0.477,2.0,2.0,Castellano,0.0,Inglés,9.0,2.0,3.0,yes,yes,no,Guitarra flamenca,15,,,"He cometido el error de pinchar con el botón del ratón en vez de pulsar la barra de espacio para responder durante la Fase de Sílabas del primer lenguaje (L1). Después, al leer con atención las instrucciones durante la misma prueba del lenguaje 2 (L2), he sido consciente de mi fallo. Saludos",68.0,yes
96,2023-09-21_16h13.37.688,Unsyncopated1,s24,30.0,masculino,right,España,Castellano,Doctorate,no,no,B,1,when,L3,unsyncopated,when,when,96,Online_whenL3//a.mo18.888.wav,je,do,fu,sil,mo,sa,ga,sil1,di,le,sil2,['miss'],,,0.888,beat,,,,16:20,1,,,,,,,,,,,,,,,2.0,2.0,Castellano,0.0,Inglés,9.0,2.0,3.0,yes,yes,no,Guitarra flamenca,15,,,"He cometido el error de pinchar con el botón del ratón en vez de pulsar la barra de espacio para responder durante la Fase de Sílabas del primer lenguaje (L1). Después, al leer con atención las instrucciones durante la misma prueba del lenguaje 2 (L2), he sido consciente de mi fallo. Saludos",68.0,yes
97,2023-09-21_16h13.37.688,Unsyncopated1,s24,30.0,masculino,right,España,Castellano,Doctorate,no,no,B,1,when,L3,unsyncopated,when,when,97,Online_whenL3//a.mo19.none.wav,fu,ka,ko,sil,chu,sa,do,sil1,li,le,sil2,['-'],,,none,none,,,,16:20,1,,,,,,,,,,,,,,,2.0,2.0,Castellano,0.0,Inglés,9.0,2.0,3.0,yes,yes,no,Guitarra flamenca,15,,,"He cometido el error de pinchar con el botón del ratón en vez de pulsar la barra de espacio para responder durante la Fase de Sílabas del primer lenguaje (L1). Después, al leer con atención las instrucciones durante la misma prueba del lenguaje 2 (L2), he sido consciente de mi fallo. Saludos",68.0,yes
98,2023-09-21_16h13.37.688,Unsyncopated1,s24,30.0,masculino,right,España,Castellano,Doctorate,no,no,B,1,when,L3,unsyncopated,when,when,98,Online_whenL3//a.mo16.1998.wav,li,je,gu,sil,ka,chu,le,sil1,ji,mo,sil2,['miss'],,,1.998,no_beat,,,,16:20,1,,,,,,,,,,,,,,,2.0,2.0,Castellano,0.0,Inglés,9.0,2.0,3.0,yes,yes,no,Guitarra flamenca,15,,,"He cometido el error de pinchar con el botón del ratón en vez de pulsar la barra de espacio para responder durante la Fase de Sílabas del primer lenguaje (L1). Después, al leer con atención las instrucciones durante la misma prueba del lenguaje 2 (L2), he sido consciente de mi fallo. Saludos",68.0,yes
99,2023-09-21_16h13.37.688,Unsyncopated1,s24,30.0,masculino,right,España,Castellano,Doctorate,no,no,B,1,when,L3,unsyncopated,when,when,99,Online_whenL3//a.mo17.none.wav,ji,ko,sa,sil,di,ka,do,sil1,chu,ga,sil2,['-'],,,none,none,,,,16:20,1,,,,,,,,,,,,,,,2.0,2.0,Castellano,0.0,Inglés,9.0,2.0,3.0,yes,yes,no,Guitarra flamenca,15,,,"He cometido el error de pinchar con el botón del ratón en vez de pulsar la barra de espacio para responder durante la Fase de Sílabas del primer lenguaje (L1). Después, al leer con atención las instrucciones durante la misma prueba del lenguaje 2 (L2), he sido consciente de mi fallo. Saludos",68.0,yes
100,2023-09-21_16h13.37.688,Unsyncopated1,s24,30.0,masculino,right,España,Castellano,Doctorate,no,no,B,1,when,L3,unsyncopated,when,when,100,Online_whenL3//d.ji27.none.wav,chu,ka,di,sil,ñe,je,fu,sil1,do,gu,sil2,['-'],,,none,none,,,,128:132,4,,,,,,,,,,,,,,,2.0,2.0,Castellano,0.0,Inglés,9.0,2.0,3.0,yes,yes,no,Guitarra flamenca,15,,,"He cometido el error de pinchar con el botón del ratón en vez de pulsar la barra de espacio para responder durante la Fase de Sílabas del primer lenguaje (L1). Después, al leer con atención las instrucciones durante la misma prueba del lenguaje 2 (L2), he sido consciente de mi fallo. Saludos",68.0,yes
101,2023-09-21_16h13.37.688,Unsyncopated1,s24,30.0,masculino,right,España,Castellano,Doctorate,no,no,B,1,when,L3,unsyncopated,when,when,101,Online_whenL3//d.ji26.none.wav,chu,fu,je,sil,ko,gu,ka,sil1,mo,di,sil2,['-'],,,none,none,,,,128:132,4,,,,,,,,,,,,,,,2.0,2.0,Castellano,0.0,Inglés,9.0,2.0,3.0,yes,yes,no,Guitarra flamenca,15,,,"He cometido el error de pinchar con el botón del ratón en vez de pulsar la barra de espacio para responder durante la Fase de Sílabas del primer lenguaje (L1). Después, al leer con atención las instrucciones durante la misma prueba del lenguaje 2 (L2), he sido consciente de mi fallo. Saludos",68.0,yes
102,2023-09-21_16h13.37.688,Unsyncopated1,s24,30.0,masculino,right,España,Castellano,Doctorate,no,no,B,1,when,L3,unsyncopated,when,when,102,Online_whenL3//d.ji24.1998.wav,do,sa,gu,sil,li,chu,ka,sil1,ko,ji,sil2,['miss'],,,1.998,no_beat,,,,128:132,4,,,,,,,,,,,,,,,2.0,2.0,Castellano,0.0,Inglés,9.0,2.0,3.0,yes,yes,no,Guitarra flamenca,15,,,"He cometido el error de pinchar con el botón del ratón en vez de pulsar la barra de espacio para responder durante la Fase de Sílabas del primer lenguaje (L1). Después, al leer con atención las instrucciones durante la misma prueba del lenguaje 2 (L2), he sido consciente de mi fallo. Saludos",68.0,yes
103,2023-09-21_16h13.37.688,Unsyncopated1,s24,30.0,masculino,right,España,Castellano,Doctorate,no,no,B,1,when,L3,unsyncopated,when,when,103,Online_whenL3//d.ji25.none.wav,do,li,je,sil,fu,ka,mo,sil1,ñe,di,sil2,['-'],,,none,none,,,,128:132,4,,,,,,,,,,,,,,,2.0,2.0,Castellano,0.0,Inglés,9.0,2.0,3.0,yes,yes,no,Guitarra flamenca,15,,,"He cometido el error de pinchar con el botón del ratón en vez de pulsar la barra de espacio para responder durante la Fase de Sílabas del primer lenguaje (L1). Después, al leer con atención las instrucciones durante la misma prueba del lenguaje 2 (L2), he sido consciente de mi fallo. Saludos",68.0,yes
104,2023-09-21_16h13.37.688,Unsyncopated1,s24,30.0,masculino,right,España,Castellano,Doctorate,no,no,B,1,when,L3,unsyncopated,when,when,104,Online_whenL3//d.ji12.1332.wav,sa,le,gu,sil,ka,ga,ji,sil1,di,mo,sil2,['miss'],,,1.332,no_beat,,,,116:120,4,,,,,,,,,,,,,,,2.0,2.0,Castellano,0.0,Inglés,9.0,2.0,3.0,yes,yes,no,Guitarra flamenca,15,,,"He cometido el error de pinchar con el botón del ratón en vez de pulsar la barra de espacio para responder durante la Fase de Sílabas del primer lenguaje (L1). Después, al leer con atención las instrucciones durante la misma prueba del lenguaje 2 (L2), he sido consciente de mi fallo. Saludos",68.0,yes
105,2023-09-21_16h13.37.688,Unsyncopated1,s24,30.0,masculino,right,España,Castellano,Doctorate,no,no,B,1,when,L3,unsyncopated,when,when,105,Online_whenL3//d.ji14.1998.wav,ga,do,ka,sil,ñe,gu,le,sil1,sa,ji,sil2,['miss'],,,1.998,no_beat,,,,116:120,4,,,,,,,,,,,,,,,2.0,2.0,Castellano,0.0,Inglés,9.0,2.0,3.0,yes,yes,no,Guitarra flamenca,15,,,"He cometido el error de pinchar con el botón del ratón en vez de pulsar la barra de espacio para responder durante la Fase de Sílabas del primer lenguaje (L1). Después, al leer con atención las instrucciones durante la misma prueba del lenguaje 2 (L2), he sido consciente de mi fallo. Saludos",68.0,yes
106,2023-09-21_16h13.37.688,Unsyncopated1,s24,30.0,masculino,right,España,Castellano,Doctorate,no,no,B,1,when,L3,unsyncopated,when,when,106,Online_whenL3//d.ji15.444.wav,ga,do,ji,sil,mo,sa,ko,sil1,fu,gu,sil2,['miss'],,,0.444,no_beat,,,,116:120,4,,,,,,,,,,,,,,,2.0,2.0,Castellano,0.0,Inglés,9.0,2.0,3.0,yes,yes,no,Guitarra flamenca,15,,,"He cometido el error de pinchar con el botón del ratón en vez de pulsar la barra de espacio para responder durante la Fase de Sílabas del primer lenguaje (L1). Después, al leer con atención las instrucciones durante la misma prueba del lenguaje 2 (L2), he sido consciente de mi fallo. Saludos",68.0,yes
107,2023-09-21_16h13.37.688,Unsyncopated1,s24,30.0,masculino,right,España,Castellano,Doctorate,no,no,B,1,when,L3,unsyncopated,when,when,107,Online_whenL3//d.ji13.222.wav,fu,ji,di,sil,li,ko,je,sil1,chu,mo,sil2,['miss'],,,0.222,no_beat,,,,116:120,4,,,,,,,,,,,,,,,2.0,2.0,Castellano,0.0,Inglés,9.0,2.0,3.0,yes,yes,no,Guitarra flamenca,15,,,"He cometido el error de pinchar con el botón del ratón en vez de pulsar la barra de espacio para responder durante la Fase de Sílabas del primer lenguaje (L1). Después, al leer con atención las instrucciones durante la misma prueba del lenguaje 2 (L2), he sido consciente de mi fallo. Saludos",68.0,yes
108,2023-09-21_16h13.37.688,Unsyncopated1,s24,30.0,masculino,right,España,Castellano,Doctorate,no,no,B,1,when,L3,unsyncopated,when,when,108,Online_whenL3//d.ji1.888.wav,sa,je,le,sil,ji,ko,ñe,sil1,di,gu,sil2,['miss'],,,0.888,beat,,,,104:108,4,,,,,,,,,,,,,,,2.0,2.0,Castellano,0.0,Inglés,9.0,2.0,3.0,yes,yes,no,Guitarra flamenca,15,,,"He cometido el error de pinchar con el botón del ratón en vez de pulsar la barra de espacio para responder durante la Fase de Sílabas del primer lenguaje (L1). Después, al leer con atención las instrucciones durante la misma prueba del lenguaje 2 (L2), he sido consciente de mi fallo. Saludos",68.0,yes
109,2023-09-21_16h13.37.688,Unsyncopated1,s24,30.0,masculino,right,España,Castellano,Doctorate,no,no,B,1,when,L3,unsyncopated,when,when,109,Online_whenL3//d.ji2.none.wav,je,ko,sa,sil,le,do,ga,sil1,ñe,di,sil2,['-'],,,none,none,,,,104:108,4,,,,,,,,,,,,,,,2.0,2.0,Castellano,0.0,Inglés,9.0,2.0,3.0,yes,yes,no,Guitarra flamenca,15,,,"He cometido el error de pinchar con el botón del ratón en vez de pulsar la barra de espacio para responder durante la Fase de Sílabas del primer lenguaje (L1). Después, al leer con atención las instrucciones durante la misma prueba del lenguaje 2 (L2), he sido consciente de mi fallo. Saludos",68.0,yes
110,2023-09-21_16h13.37.688,Unsyncopated1,s24,30.0,masculino,right,España,Castellano,Doctorate,no,no,B,1,when,L3,unsyncopated,when,when,110,Online_whenL3//d.ji3.none.wav,je,le,do,sil,sa,ka,ga,sil1,gu,mo,sil2,['-'],,,none,none,,,,104:108,4,,,,,,,,,,,,,,,2.0,2.0,Castellano,0.0,Inglés,9.0,2.0,3.0,yes,yes,no,Guitarra flamenca,15,,,"He cometido el error de pinchar con el botón del ratón en vez de pulsar la barra de espacio para responder durante la Fase de Sílabas del primer lenguaje (L1). Después, al leer con atención las instrucciones durante la misma prueba del lenguaje 2 (L2), he sido consciente de mi fallo. Saludos",68.0,yes
111,2023-09-21_16h13.37.688,Unsyncopated1,s24,30.0,masculino,right,España,Castellano,Doctorate,no,no,B,1,when,L3,unsyncopated,when,when,111,Online_whenL3//d.ji0.1332.wav,je,ko,gu,sil,do,ñe,ji,sil1,mo,le,sil2,['miss'],,,1.332,no_beat,,,,104:108,4,,,,,,,,,,,,,,,2.0,2.0,Castellano,0.0,Inglés,9.0,2.0,3.0,yes,yes,no,Guitarra flamenca,15,,,"He cometido el error de pinchar con el botón del ratón en vez de pulsar la barra de espacio para responder durante la Fase de Sílabas del primer lenguaje (L1). Después, al leer con atención las instrucciones durante la misma prueba del lenguaje 2 (L2), he sido consciente de mi fallo. Saludos",68.0,yes
112,2023-09-21_16h13.37.688,Unsyncopated1,s24,30.0,masculino,right,España,Castellano,Doctorate,no,no,B,1,when,L3,unsyncopated,when,when,112,Online_whenL3//d.ji29.none.wav,ñe,fu,ga,sil,sa,di,ko,sil1,je,gu,sil2,['-'],,,none,none,,,,132:136,4,,,,,,,,,,,,,,,2.0,2.0,Castellano,0.0,Inglés,9.0,2.0,3.0,yes,yes,no,Guitarra flamenca,15,,,"He cometido el error de pinchar con el botón del ratón en vez de pulsar la barra de espacio para responder durante la Fase de Sílabas del primer lenguaje (L1). Después, al leer con atención las instrucciones durante la misma prueba del lenguaje 2 (L2), he sido consciente de mi fallo. Saludos",68.0,yes
113,2023-09-21_16h13.37.688,Unsyncopated1,s24,30.0,masculino,right,España,Castellano,Doctorate,no,no,B,1,when,L3,unsyncopated,when,when,113,Online_whenL3//d.ji30.none.wav,mo,je,do,sil,sa,fu,di,sil1,li,gu,sil2,['-'],,,none,none,,,,132:136,4,,,,,,,,,,,,,,,2.0,2.0,Castellano,0.0,Inglés,9.0,2.0,3.0,yes,yes,no,Guitarra flamenca,15,,,"He cometido el error de pinchar con el botón del ratón en vez de pulsar la barra de espacio para responder durante la Fase de Sílabas del primer lenguaje (L1). Después, al leer con atención las instrucciones durante la misma prueba del lenguaje 2 (L2), he sido consciente de mi fallo. Saludos",68.0,yes
114,2023-09-21_16h13.37.688,Unsyncopated1,s24,30.0,masculino,right,España,Castellano,Doctorate,no,no,B,1,when,L3,unsyncopated,when,when,114,Online_whenL3//d.ji28.888.wav,di,mo,do,sil,ji,chu,je,sil1,ka,ko,sil2,['miss'],,,0.888,beat,,,,132:136,4,,,,,,,,,,,,,,,2.0,2.0,Castellano,0.0,Inglés,9.0,2.0,3.0,yes,yes,no,Guitarra flamenca,15,,,"He cometido el error de pinchar con el botón del ratón en vez de pulsar la barra de espacio para responder durante la Fase de Sílabas del primer lenguaje (L1). Después, al leer con atención las instrucciones durante la misma prueba del lenguaje 2 (L2), he sido consciente de mi fallo. Saludos",68.0,yes
115,2023-09-21_16h13.37.688,Unsyncopated1,s24,30.0,masculino,right,España,Castellano,Doctorate,no,no,B,1,when,L3,unsyncopated,when,when,115,Online_whenL3//d.ji31.none.wav,ga,ko,di,sil,li,sa,ka,sil1,gu,chu,sil2,['-'],,,none,none,,,,132:136,4,,,,,,,,,,,,,,,2.0,2.0,Castellano,0.0,Inglés,9.0,2.0,3.0,yes,yes,no,Guitarra flamenca,15,,,"He cometido el error de pinchar con el botón del ratón en vez de pulsar la barra de espacio para responder durante la Fase de Sílabas del primer lenguaje (L1). Después, al leer con atención las instrucciones durante la misma prueba del lenguaje 2 (L2), he sido consciente de mi fallo. Saludos",68.0,yes
116,2023-09-21_16h13.37.688,Unsyncopated1,s24,30.0,masculino,right,España,Castellano,Doctorate,no,no,B,1,when,L3,unsyncopated,when,when,116,Online_whenL3//b.ñe2.888.wav,ji,li,do,sil,ñe,mo,ga,sil1,le,fu,sil2,['miss'],,,0.888,beat,,,,36:40,2,,,,,,,,,,,,,,,2.0,2.0,Castellano,0.0,Inglés,9.0,2.0,3.0,yes,yes,no,Guitarra flamenca,15,,,"He cometido el error de pinchar con el botón del ratón en vez de pulsar la barra de espacio para responder durante la Fase de Sílabas del primer lenguaje (L1). Después, al leer con atención las instrucciones durante la misma prueba del lenguaje 2 (L2), he sido consciente de mi fallo. Saludos",68.0,yes
117,2023-09-21_16h13.37.688,Unsyncopated1,s24,30.0,masculino,right,España,Castellano,Doctorate,no,no,B,1,when,L3,unsyncopated,when,when,117,Online_whenL3//b.ñe1.1998.wav,ka,ko,je,sil,ga,gu,di,sil1,sa,ñe,sil2,['miss'],,,1.998,no_beat,,,,36:40,2,,,,,,,,,,,,,,,2.0,2.0,Castellano,0.0,Inglés,9.0,2.0,3.0,yes,yes,no,Guitarra flamenca,15,,,"He cometido el error de pinchar con el botón del ratón en vez de pulsar la barra de espacio para responder durante la Fase de Sílabas del primer lenguaje (L1). Después, al leer con atención las instrucciones durante la misma prueba del lenguaje 2 (L2), he sido consciente de mi fallo. Saludos",68.0,yes
118,2023-09-21_16h13.37.688,Unsyncopated1,s24,30.0,masculino,right,España,Castellano,Doctorate,no,no,B,1,when,L3,unsyncopated,when,when,118,Online_whenL3//b.ñe3.none.wav,chu,ko,mo,sil,li,je,ji,sil1,fu,do,sil2,['-'],,,none,none,,,,36:40,2,,,,,,,,,,,,,,,2.0,2.0,Castellano,0.0,Inglés,9.0,2.0,3.0,yes,yes,no,Guitarra flamenca,15,,,"He cometido el error de pinchar con el botón del ratón en vez de pulsar la barra de espacio para responder durante la Fase de Sílabas del primer lenguaje (L1). Después, al leer con atención las instrucciones durante la misma prueba del lenguaje 2 (L2), he sido consciente de mi fallo. Saludos",68.0,yes
119,2023-09-21_16h13.37.688,Unsyncopated1,s24,30.0,masculino,right,España,Castellano,Doctorate,no,no,B,1,when,L3,unsyncopated,when,when,119,Online_whenL3//b.ñe0.222.wav,ka,ñe,gu,sil,ga,le,chu,sil1,fu,do,sil2,['miss'],,,0.222,no_beat,,,,36:40,2,,,,,,,,,,,,,,,2.0,2.0,Castellano,0.0,Inglés,9.0,2.0,3.0,yes,yes,no,Guitarra flamenca,15,,,"He cometido el error de pinchar con el botón del ratón en vez de pulsar la barra de espacio para responder durante la Fase de Sílabas del primer lenguaje (L1). Después, al leer con atención las instrucciones durante la misma prueba del lenguaje 2 (L2), he sido consciente de mi fallo. Saludos",68.0,yes
120,2023-09-21_16h13.37.688,Unsyncopated1,s24,30.0,masculino,right,España,Castellano,Doctorate,no,no,B,1,when,L3,unsyncopated,when,when,120,Online_whenL3//b.ñe8.none.wav,le,do,ko,sil,gu,mo,fu,sil1,ji,sa,sil2,['-'],,,none,none,,,,44:48,2,,,,,,,,,,,,,,,2.0,2.0,Castellano,0.0,Inglés,9.0,2.0,3.0,yes,yes,no,Guitarra flamenca,15,,,"He cometido el error de pinchar con el botón del ratón en vez de pulsar la barra de espacio para responder durante la Fase de Sílabas del primer lenguaje (L1). Después, al leer con atención las instrucciones durante la misma prueba del lenguaje 2 (L2), he sido consciente de mi fallo. Saludos",68.0,yes
121,2023-09-21_16h13.37.688,Unsyncopated1,s24,30.0,masculino,right,España,Castellano,Doctorate,no,no,B,1,when,L3,unsyncopated,when,when,121,Online_whenL3//b.ñe9.1110.wav,fu,do,ka,sil,li,ñe,chu,sil1,ko,ji,sil2,['miss'],,,1.11,no_beat,,,,44:48,2,,,,,,,,,,,,,,,2.0,2.0,Castellano,0.0,Inglés,9.0,2.0,3.0,yes,yes,no,Guitarra flamenca,15,,,"He cometido el error de pinchar con el botón del ratón en vez de pulsar la barra de espacio para responder durante la Fase de Sílabas del primer lenguaje (L1). Después, al leer con atención las instrucciones durante la misma prueba del lenguaje 2 (L2), he sido consciente de mi fallo. Saludos",68.0,yes
122,2023-09-21_16h13.37.688,Unsyncopated1,s24,30.0,masculino,right,España,Castellano,Doctorate,no,no,B,1,when,L3,unsyncopated,when,when,122,Online_whenL3//b.ñe11.none.wav,ka,ji,li,sil,ko,ga,sa,sil1,mo,di,sil2,['-'],,,none,none,,,,44:48,2,,,,,,,,,,,,,,,2.0,2.0,Castellano,0.0,Inglés,9.0,2.0,3.0,yes,yes,no,Guitarra flamenca,15,,,"He cometido el error de pinchar con el botón del ratón en vez de pulsar la barra de espacio para responder durante la Fase de Sílabas del primer lenguaje (L1). Después, al leer con atención las instrucciones durante la misma prueba del lenguaje 2 (L2), he sido consciente de mi fallo. Saludos",68.0,yes
123,2023-09-21_16h13.37.688,Unsyncopated1,s24,30.0,masculino,right,España,Castellano,Doctorate,no,no,B,1,when,L3,unsyncopated,when,when,123,Online_whenL3//b.ñe10.none.wav,ga,fu,le,sil,chu,ko,ka,sil1,mo,je,sil2,['-'],,,none,none,,,,44:48,2,,,,,,,,,,,,,,,2.0,2.0,Castellano,0.0,Inglés,9.0,2.0,3.0,yes,yes,no,Guitarra flamenca,15,,,"He cometido el error de pinchar con el botón del ratón en vez de pulsar la barra de espacio para responder durante la Fase de Sílabas del primer lenguaje (L1). Después, al leer con atención las instrucciones durante la misma prueba del lenguaje 2 (L2), he sido consciente de mi fallo. Saludos",68.0,yes
124,2023-09-21_16h13.37.688,Unsyncopated1,s24,30.0,masculino,right,España,Castellano,Doctorate,no,no,B,1,when,L3,unsyncopated,when,when,124,Online_whenL3//d.ji18.none.wav,gu,do,ko,sil,di,chu,mo,sil1,ga,le,sil2,['-'],,,none,none,,,,120:124,4,,,,,,,,,,,,,,,2.0,2.0,Castellano,0.0,Inglés,9.0,2.0,3.0,yes,yes,no,Guitarra flamenca,15,,,"He cometido el error de pinchar con el botón del ratón en vez de pulsar la barra de espacio para responder durante la Fase de Sílabas del primer lenguaje (L1). Después, al leer con atención las instrucciones durante la misma prueba del lenguaje 2 (L2), he sido consciente de mi fallo. Saludos",68.0,yes
125,2023-09-21_16h13.37.688,Unsyncopated1,s24,30.0,masculino,right,España,Castellano,Doctorate,no,no,B,1,when,L3,unsyncopated,when,when,125,Online_whenL3//d.ji19.1776.wav,gu,ñe,chu,sil,li,di,le,sil1,ji,fu,sil2,['miss'],,,1.776,beat,,,,120:124,4,,,,,,,,,,,,,,,2.0,2.0,Castellano,0.0,Inglés,9.0,2.0,3.0,yes,yes,no,Guitarra flamenca,15,,,"He cometido el error de pinchar con el botón del ratón en vez de pulsar la barra de espacio para responder durante la Fase de Sílabas del primer lenguaje (L1). Después, al leer con atención las instrucciones durante la misma prueba del lenguaje 2 (L2), he sido consciente de mi fallo. Saludos",68.0,yes
126,2023-09-21_16h13.37.688,Unsyncopated1,s24,30.0,masculino,right,España,Castellano,Doctorate,no,no,B,1,when,L3,unsyncopated,when,when,126,Online_whenL3//d.ji16.none.wav,ka,je,di,sil,sa,fu,chu,sil1,do,li,sil2,['-'],,,none,none,,,,120:124,4,,,,,,,,,,,,,,,2.0,2.0,Castellano,0.0,Inglés,9.0,2.0,3.0,yes,yes,no,Guitarra flamenca,15,,,"He cometido el error de pinchar con el botón del ratón en vez de pulsar la barra de espacio para responder durante la Fase de Sílabas del primer lenguaje (L1). Después, al leer con atención las instrucciones durante la misma prueba del lenguaje 2 (L2), he sido consciente de mi fallo. Saludos",68.0,yes
127,2023-09-21_16h13.37.688,Unsyncopated1,s24,30.0,masculino,right,España,Castellano,Doctorate,no,no,B,1,when,L3,unsyncopated,when,when,127,Online_whenL3//d.ji17.none.wav,ñe,ga,di,sil,sa,ka,li,sil1,le,fu,sil2,['-'],,,none,none,,,,120:124,4,,,,,,,,,,,,,,,2.0,2.0,Castellano,0.0,Inglés,9.0,2.0,3.0,yes,yes,no,Guitarra flamenca,15,,,"He cometido el error de pinchar con el botón del ratón en vez de pulsar la barra de espacio para responder durante la Fase de Sílabas del primer lenguaje (L1). Después, al leer con atención las instrucciones durante la misma prueba del lenguaje 2 (L2), he sido consciente de mi fallo. Saludos",68.0,yes
128,2023-09-21_16h13.37.688,Unsyncopated1,s24,30.0,masculino,right,España,Castellano,Doctorate,no,no,B,1,when,L3,unsyncopated,when,when,128,Online_whenL3//a.mo24.1998.wav,ji,le,do,sil,li,chu,fu,sil1,gu,mo,sil2,['miss'],,,1.998,no_beat,,,,24:28,1,,,,,,,,,,,,,,,2.0,2.0,Castellano,0.0,Inglés,9.0,2.0,3.0,yes,yes,no,Guitarra flamenca,15,,,"He cometido el error de pinchar con el botón del ratón en vez de pulsar la barra de espacio para responder durante la Fase de Sílabas del primer lenguaje (L1). Después, al leer con atención las instrucciones durante la misma prueba del lenguaje 2 (L2), he sido consciente de mi fallo. Saludos",68.0,yes
129,2023-09-21_16h13.37.688,Unsyncopated1,s24,30.0,masculino,right,España,Castellano,Doctorate,no,no,B,1,when,L3,unsyncopated,when,when,129,Online_whenL3//a.mo26.none.wav,di,li,ka,sil,chu,ji,je,sil1,do,ñe,sil2,['-'],,,none,none,,,,24:28,1,,,,,,,,,,,,,,,2.0,2.0,Castellano,0.0,Inglés,9.0,2.0,3.0,yes,yes,no,Guitarra flamenca,15,,,"He cometido el error de pinchar con el botón del ratón en vez de pulsar la barra de espacio para responder durante la Fase de Sílabas del primer lenguaje (L1). Después, al leer con atención las instrucciones durante la misma prueba del lenguaje 2 (L2), he sido consciente de mi fallo. Saludos",68.0,yes
130,2023-09-21_16h13.37.688,Unsyncopated1,s24,30.0,masculino,right,España,Castellano,Doctorate,no,no,B,1,when,L3,unsyncopated,when,when,130,Online_whenL3//a.mo27.888.wav,fu,le,ka,sil,mo,ko,gu,sil1,chu,di,sil2,['miss'],,,0.888,beat,,,,24:28,1,,,,,,,,,,,,,,,2.0,2.0,Castellano,0.0,Inglés,9.0,2.0,3.0,yes,yes,no,Guitarra flamenca,15,,,"He cometido el error de pinchar con el botón del ratón en vez de pulsar la barra de espacio para responder durante la Fase de Sílabas del primer lenguaje (L1). Después, al leer con atención las instrucciones durante la misma prueba del lenguaje 2 (L2), he sido consciente de mi fallo. Saludos",68.0,yes
131,2023-09-21_16h13.37.688,Unsyncopated1,s24,30.0,masculino,right,España,Castellano,Doctorate,no,no,B,1,when,L3,unsyncopated,when,when,131,Online_whenL3//a.mo25.none.wav,sa,ji,ga,sil,do,ñe,je,sil1,di,ka,sil2,['-'],,,none,none,,,,24:28,1,,,,,,,,,,,,,,,2.0,2.0,Castellano,0.0,Inglés,9.0,2.0,3.0,yes,yes,no,Guitarra flamenca,15,,,"He cometido el error de pinchar con el botón del ratón en vez de pulsar la barra de espacio para responder durante la Fase de Sílabas del primer lenguaje (L1). Después, al leer con atención las instrucciones durante la misma prueba del lenguaje 2 (L2), he sido consciente de mi fallo. Saludos",68.0,yes
132,2023-09-21_16h13.37.688,Unsyncopated1,s24,30.0,masculino,right,España,Castellano,Doctorate,no,no,B,1,when,L3,unsyncopated,when,when,132,Online_whenL3//d.ji6.1998.wav,gu,di,ko,sil,mo,fu,le,sil1,ñe,ji,sil2,['miss'],,,1.998,no_beat,,,,108:112,4,,,,,,,,,,,,,,,2.0,2.0,Castellano,0.0,Inglés,9.0,2.0,3.0,yes,yes,no,Guitarra flamenca,15,,,"He cometido el error de pinchar con el botón del ratón en vez de pulsar la barra de espacio para responder durante la Fase de Sílabas del primer lenguaje (L1). Después, al leer con atención las instrucciones durante la misma prueba del lenguaje 2 (L2), he sido consciente de mi fallo. Saludos",68.0,yes
133,2023-09-21_16h13.37.688,Unsyncopated1,s24,30.0,masculino,right,España,Castellano,Doctorate,no,no,B,1,when,L3,unsyncopated,when,when,133,Online_whenL3//d.ji5.none.wav,di,fu,li,sil,le,chu,je,sil1,ko,sa,sil2,['-'],,,none,none,,,,108:112,4,,,,,,,,,,,,,,,2.0,2.0,Castellano,0.0,Inglés,9.0,2.0,3.0,yes,yes,no,Guitarra flamenca,15,,,"He cometido el error de pinchar con el botón del ratón en vez de pulsar la barra de espacio para responder durante la Fase de Sílabas del primer lenguaje (L1). Después, al leer con atención las instrucciones durante la misma prueba del lenguaje 2 (L2), he sido consciente de mi fallo. Saludos",68.0,yes
134,2023-09-21_16h13.37.688,Unsyncopated1,s24,30.0,masculino,right,España,Castellano,Doctorate,no,no,B,1,when,L3,unsyncopated,when,when,134,Online_whenL3//d.ji4.0.wav,ji,chu,do,sil,mo,ka,ga,sil1,ko,fu,sil2,['miss'],,,0.0,beat,,,,108:112,4,,,,,,,,,,,,,,,2.0,2.0,Castellano,0.0,Inglés,9.0,2.0,3.0,yes,yes,no,Guitarra flamenca,15,,,"He cometido el error de pinchar con el botón del ratón en vez de pulsar la barra de espacio para responder durante la Fase de Sílabas del primer lenguaje (L1). Después, al leer con atención las instrucciones durante la misma prueba del lenguaje 2 (L2), he sido consciente de mi fallo. Saludos",68.0,yes
135,2023-09-21_16h13.37.688,Unsyncopated1,s24,30.0,masculino,right,España,Castellano,Doctorate,no,no,B,1,when,L3,unsyncopated,when,when,135,Online_whenL3//d.ji7.1776.wav,do,ko,ga,sil,di,chu,sa,sil1,ji,le,sil2,['miss'],,,1.776,beat,,,,108:112,4,,,,,,,,,,,,,,,2.0,2.0,Castellano,0.0,Inglés,9.0,2.0,3.0,yes,yes,no,Guitarra flamenca,15,,,"He cometido el error de pinchar con el botón del ratón en vez de pulsar la barra de espacio para responder durante la Fase de Sílabas del primer lenguaje (L1). Después, al leer con atención las instrucciones durante la misma prueba del lenguaje 2 (L2), he sido consciente de mi fallo. Saludos",68.0,yes
136,2023-09-21_16h13.37.688,Unsyncopated1,s24,30.0,masculino,right,España,Castellano,Doctorate,no,no,B,2,what,L2,unsyncopated,s2,r2,0,Online_whatL2//d.si.ñu10.1554.222.wav,to,ñu,cha,sil2,fe,me,si,sil,ra,te,sil1,['catch'],[0.9764999999999873],[0.9764999999999873],0.222,no_beat,0.7544999999999873,0.7544999999999873,"[""space""]",104:108,4,,,,,,,,,,,,,,,2.0,2.0,Castellano,0.0,Inglés,9.0,2.0,3.0,yes,yes,no,Guitarra flamenca,15,,,"He cometido el error de pinchar con el botón del ratón en vez de pulsar la barra de espacio para responder durante la Fase de Sílabas del primer lenguaje (L1). Después, al leer con atención las instrucciones durante la misma prueba del lenguaje 2 (L2), he sido consciente de mi fallo. Saludos",68.0,yes
137,2023-09-21_16h13.37.688,Unsyncopated1,s24,30.0,masculino,right,España,Castellano,Doctorate,no,no,B,2,what,L2,unsyncopated,s1,r1,1,Online_whatL2//d.si.ñu9.444.1332.wav,go,mi,si,sil,du,me,ñu,sil2,to,su,sil1,['catch'],[2.0090000000000146],[2.0090000000000146],1.332,no_beat,0.6770000000000145,0.6770000000000145,"[""space""]",104:108,4,,,,,,,,,,,,,,,2.0,2.0,Castellano,0.0,Inglés,9.0,2.0,3.0,yes,yes,no,Guitarra flamenca,15,,,"He cometido el error de pinchar con el botón del ratón en vez de pulsar la barra de espacio para responder durante la Fase de Sílabas del primer lenguaje (L1). Después, al leer con atención las instrucciones durante la misma prueba del lenguaje 2 (L2), he sido consciente de mi fallo. Saludos",68.0,yes
138,2023-09-21_16h13.37.688,Unsyncopated1,s24,30.0,masculino,right,España,Castellano,Doctorate,no,no,B,2,what,L2,unsyncopated,s1,r1,2,Online_whatL2//d.si.ñu8.none.none.wav,go,ba,to,sil2,du,mi,su,sil,te,cha,sil1,['-'],,,none,none,,,,104:108,4,,,,,,,,,,,,,,,2.0,2.0,Castellano,0.0,Inglés,9.0,2.0,3.0,yes,yes,no,Guitarra flamenca,15,,,"He cometido el error de pinchar con el botón del ratón en vez de pulsar la barra de espacio para responder durante la Fase de Sílabas del primer lenguaje (L1). Después, al leer con atención las instrucciones durante la misma prueba del lenguaje 2 (L2), he sido consciente de mi fallo. Saludos",68.0,yes
139,2023-09-21_16h13.37.688,Unsyncopated1,s24,30.0,masculino,right,España,Castellano,Doctorate,no,no,B,2,what,L2,unsyncopated,s2,r1,3,Online_whatL2//d.si.ñu11.none.none.wav,su,bi,me,sil,go,te,mi,sil1,du,ño,sil2,['-'],,,none,none,,,,104:108,4,,,,,,,,,,,,,,,2.0,2.0,Castellano,0.0,Inglés,9.0,2.0,3.0,yes,yes,no,Guitarra flamenca,15,,,"He cometido el error de pinchar con el botón del ratón en vez de pulsar la barra de espacio para responder durante la Fase de Sílabas del primer lenguaje (L1). Después, al leer con atención las instrucciones durante la misma prueba del lenguaje 2 (L2), he sido consciente de mi fallo. Saludos",68.0,yes
140,2023-09-21_16h13.37.688,Unsyncopated1,s24,30.0,masculino,right,España,Castellano,Doctorate,no,no,B,2,what,L2,unsyncopated,s1,r2,4,Online_whatL2//a.go.du23.none.none.wav,fe,si,me,sil2,ra,mi,ba,sil,ño,ñu,sil1,['false alarm'],[0.008399999998573549],[0.008399999998573549],none,none,,,"[""space""]",20:24,1,,,,,,,,,,,,,,,2.0,2.0,Castellano,0.0,Inglés,9.0,2.0,3.0,yes,yes,no,Guitarra flamenca,15,,,"He cometido el error de pinchar con el botón del ratón en vez de pulsar la barra de espacio para responder durante la Fase de Sílabas del primer lenguaje (L1). Después, al leer con atención las instrucciones durante la misma prueba del lenguaje 2 (L2), he sido consciente de mi fallo. Saludos",68.0,yes
