Unnamed: 0,date,expName,participant,age,sex,hand,residence,native_lang,education_level,lang_deficit,aud_deficit,group,block,condition,language,rhythm,rule structure online,rule type online,order_trial_on,trial_online,s1,s2,s3,s4,s5,s6,s7,s8,s9,s10,s11,catch_syll_resp,rts_syll_catch,clean_rts,time_syll,beat_no_beat,catch_rtsTR,catch_rts,syllable_catch.keys,cond_syll,syll_to_catch,test_offline,block_off,condition_off,rhythm_off,rule,rule_str_off,rule_norule,conds_offline,language_off,Partz_no_partm.keys,Partz_no_partm.rt,security_1_7.keys,accuracy,security_1_7.rt,n_lang,n_lang_used,lang_1,age_l1,lang_2,age_l2,lang_3,age_l3,lang_4,age_l4,ability_learn_l2,tendence_mix_lan,music_experience,muisc_use,partiture,instr_1,age_M1,preguntas_musica1,BMRQ_answer.response,final comment,BMRQ_Score,bilingual
0,2024-02-27_19h20.58.800,Unsyncopated_study3,s131,18,feminino,right,España,Castellano y catalán,Bachelor degree,no,no,A,1,conjunction_un,L3,unsyncopated,s1,r1,0,Online_conjL3_un//b.ñe.sa11.none.none.wav,chu,ka,fu,sil,mo,ga,ji,sil1,je,le,sil2,['-'],,,none,none,,,,ñe,1,testConjL3Uns//dep_viol.r2.s1.0.wav,1.0,conjunction_un,unsyncopated,b,s1,no_rule,dep,L3,z,3.8895,3.0,0.0,2.8315,4,3,Catalán,0,Castellano,0,Inglés,1,Alemán,13,5,6,yes,no,yes,Flauta dulce,10,1. Cuando comparto música con alguien siento una complicidad especial con aquella persona.,3.0,  ,59.0,yes
1,2024-02-27_19h20.58.800,Unsyncopated_study3,s131,18,feminino,right,España,Castellano y catalán,Bachelor degree,no,no,A,1,conjunction_un,L3,unsyncopated,s1,r2,1,Online_conjL3_un//b.ñe.sa8.0.888.wav,ñe,li,je,sil,sa,ka,ga,sil1,fu,do,sil2,['catch'],[0.7139000000357782],[0.7139000000357782],0,beat,0.7139,0.7139,"[""space""]",ñe,1,testConjL3Uns//r2.s1.1.wav,1.0,conjunction_un,unsyncopated,b,s1,rule,rule,L3,z,0.6425,7.0,1.0,1.1837,4,3,Catalán,0,Castellano,0,Inglés,1,Alemán,13,5,6,yes,no,yes,Flauta dulce,10,2. En mi tiempo libre apenas escucho música.,5.0,  ,59.0,yes
2,2024-02-27_19h20.58.800,Unsyncopated_study3,s131,18,feminino,right,España,Castellano y catalán,Bachelor degree,no,no,A,1,conjunction_un,L3,unsyncopated,s2,r1,2,Online_conjL3_un//b.ñe.sa10.none.none.wav,do,je,le,sil,chu,di,fu,sil1,mo,ji,sil2,['-'],,,none,none,,,,ñe,1,testConjL3Uns//r1.s1.2.wav,1.0,conjunction_un,unsyncopated,a,s1,rule,rule,L3,z,0.6699,6.0,1.0,1.6198,4,3,Catalán,0,Castellano,0,Inglés,1,Alemán,13,5,6,yes,no,yes,Flauta dulce,10,3. Algunas canciones me ponen los pelos de punta,4.0,  ,59.0,yes
3,2024-02-27_19h20.58.800,Unsyncopated_study3,s131,18,feminino,right,España,Castellano y catalán,Bachelor degree,no,no,A,1,conjunction_un,L3,unsyncopated,s2,r2,3,Online_conjL3_un//b.ñe.sa9.888.1776.wav,le,ji,ga,sil,ñe,do,ka,sil1,sa,li,sil2,['catch'],[1.5633999999761272],[1.5633999999761272],0.888,beat,0.6754,0.6754,"[""space""]",ñe,1,testConjL3Uns//r2.s1.2.wav,1.0,conjunction_un,unsyncopated,b,s1,rule,rule,L3,m,0.7535,7.0,0.0,1.55,4,3,Catalán,0,Castellano,0,Inglés,1,Alemán,13,5,6,yes,no,yes,Flauta dulce,10,4. La música me hace compañía cuando estoy solo,4.0,  ,59.0,yes
4,2024-02-27_19h20.58.800,Unsyncopated_study3,s131,18,feminino,right,España,Castellano y catalán,Bachelor degree,no,no,A,1,conjunction_un,L3,unsyncopated,s1,r1,4,Online_conjL3_un//c.gu.je3.1110.1332.wav,chu,li,le,sil,mo,gu,je,sil1,do,ka,sil2,['catch'],[2.2826000000238764],[2.2826000000238764],1.11,no_beat,1.1726,1.1726,"[""space""]",gu,3,testConjL3Uns//dep_viol.r1.s1.0.wav,1.0,conjunction_un,unsyncopated,a,s1,no_rule,dep,L3,m,1.1659,5.0,1.0,3.1305,4,3,Catalán,0,Castellano,0,Inglés,1,Alemán,13,5,6,yes,no,yes,Flauta dulce,10,5. No me apetece bailar ni con la música que más me gusta,5.0,  ,59.0,yes
5,2024-02-27_19h20.58.800,Unsyncopated_study3,s131,18,feminino,right,España,Castellano y catalán,Bachelor degree,no,no,A,1,conjunction_un,L3,unsyncopated,s2,r1,5,Online_conjL3_un//c.gu.je2.none.none.wav,ga,ko,li,sil,chu,ka,le,sil1,mo,ji,sil2,['-'],,,none,none,,,,gu,3,testConjL3Uns//cat_viol.r1.s2.0.wav,1.0,conjunction_un,unsyncopated,a,s2,no_rule,cat,L3,m,0.959,3.0,1.0,1.4202,4,3,Catalán,0,Castellano,0,Inglés,1,Alemán,13,5,6,yes,no,yes,Flauta dulce,10,6. La música me hace conectar con la gente,2.0,  ,59.0,yes
6,2024-02-27_19h20.58.800,Unsyncopated_study3,s131,18,feminino,right,España,Castellano y catalán,Bachelor degree,no,no,A,1,conjunction_un,L3,unsyncopated,s1,r2,6,Online_conjL3_un//c.gu.je1.444.1110.wav,ñe,fu,gu,sil,sa,je,ka,sil1,li,ji,sil2,['catch'],[1.3115999999641872],[1.3115999999641872],0.444,no_beat,0.8676,0.8676,"[""space""]",gu,3,testConjL3Uns//time_viol.r1.s2.0.wav,1.0,conjunction_un,unsyncopated,a,s2,no_rule,time,L3,m,0.4726,6.0,1.0,1.3138,4,3,Catalán,0,Castellano,0,Inglés,1,Alemán,13,5,6,yes,no,yes,Flauta dulce,10,7. Me informo sobre la música que me gusta.,1.0,  ,59.0,yes
7,2024-02-27_19h20.58.800,Unsyncopated_study3,s131,18,feminino,right,España,Castellano y catalán,Bachelor degree,no,no,A,1,conjunction_un,L3,unsyncopated,s2,r1,7,Online_conjL3_un//c.gu.je0.1110.0.wav,je,ji,le,sil,chu,gu,ga,sil1,mo,li,sil2,['catch'],[1.8996999999881155],[1.8996999999881155],1.11,no_beat,0.7897,0.7897,"[""space""]",gu,3,testConjL3Uns//dep_viol.r2.s2.0.wav,1.0,conjunction_un,unsyncopated,b,s2,no_rule,dep,L3,z,0.5548,4.0,0.0,1.5175,4,3,Catalán,0,Castellano,0,Inglés,1,Alemán,13,5,6,yes,no,yes,Flauta dulce,10,8.Me emociono escuchando ciertas canciones.,4.0,  ,59.0,yes
8,2024-02-27_19h20.58.800,Unsyncopated_study3,s131,18,feminino,right,España,Castellano y catalán,Bachelor degree,no,no,A,1,conjunction_un,L3,unsyncopated,s1,r1,8,Online_conjL3_un//d.ji.li26.1776.1110.wav,chu,do,ga,sil,mo,li,je,sil1,ji,fu,sil2,['miss'],,,1.776,beat,,,,ji,4,testConjL3Uns//r2.s1.0.wav,1.0,conjunction_un,unsyncopated,b,s1,rule,rule,L3,z,0.5013,6.0,1.0,1.4476,4,3,Catalán,0,Castellano,0,Inglés,1,Alemán,13,5,6,yes,no,yes,Flauta dulce,10,9.La música me tranquiliza y me relaja.,3.0,  ,59.0,yes
9,2024-02-27_19h20.58.800,Unsyncopated_study3,s131,18,feminino,right,España,Castellano y catalán,Bachelor degree,no,no,A,1,conjunction_un,L3,unsyncopated,s2,r1,9,Online_conjL3_un//d.ji.li27.none.none.wav,ga,le,ko,sil,chu,gu,ka,sil1,mo,fu,sil2,['false alarm'],[1.5009000000358128],[1.5009000000358128],none,none,,,"[""space""]",ji,4,testConjL3Uns//r2.s2.1.wav,1.0,conjunction_un,unsyncopated,b,s2,rule,rule,L3,m,2.5294,2.0,0.0,1.0308,4,3,Catalán,0,Castellano,0,Inglés,1,Alemán,13,5,6,yes,no,yes,Flauta dulce,10,10.La música me hace bailar,4.0,  ,59.0,yes
10,2024-02-27_19h20.58.800,Unsyncopated_study3,s131,18,feminino,right,España,Castellano y catalán,Bachelor degree,no,no,A,1,conjunction_un,L3,unsyncopated,s2,r1,10,Online_conjL3_un//d.ji.li25.1332.444.wav,di,je,li,sil,chu,le,ji,sil1,mo,ko,sil2,['catch'],[2.0802000000476255],[2.0802000000476255],1.332,no_beat,0.7482,0.7482,"[""space""]",ji,4,testConjL3Uns//time_viol.r2.s2.0.wav,1.0,conjunction_un,unsyncopated,b,s2,no_rule,time,L3,m,0.4435,7.0,1.0,1.0167,4,3,Catalán,0,Castellano,0,Inglés,1,Alemán,13,5,6,yes,no,yes,Flauta dulce,10,11.Busco novedades musicales continuamente,3.0,  ,59.0,yes
11,2024-02-27_19h20.58.800,Unsyncopated_study3,s131,18,feminino,right,España,Castellano y catalán,Bachelor degree,no,no,A,1,conjunction_un,L3,unsyncopated,s1,r1,11,Online_conjL3_un//d.ji.li24.none.none.wav,chu,le,do,sil,mo,fu,ko,sil1,di,ga,sil2,['-'],,,none,none,,,,ji,4,testConjL3Uns//time_viol.r1.s1.0.wav,1.0,conjunction_un,unsyncopated,a,s1,no_rule,time,L3,m,2.9647,3.0,1.0,1.3331,4,3,Catalán,0,Castellano,0,Inglés,1,Alemán,13,5,6,yes,no,yes,Flauta dulce,10,12. Puedo llorar cuando escucho algunas melodías que me gustan mucho.,1.0,  ,59.0,yes
12,2024-02-27_19h20.58.800,Unsyncopated_study3,s131,18,feminino,right,España,Castellano y catalán,Bachelor degree,no,no,A,1,conjunction_un,L3,unsyncopated,s1,r2,12,Online_conjL3_un//d.ji.li21.none.none.wav,ñe,le,ko,sil,sa,do,ka,sil1,di,ga,sil2,['-'],,,none,none,,,,ji,4,testConjL3Uns//r2.s2.2.wav,1.0,conjunction_un,unsyncopated,b,s2,rule,rule,L3,m,2.0657,7.0,0.0,1.0667,4,3,Catalán,0,Castellano,0,Inglés,1,Alemán,13,5,6,yes,no,yes,Flauta dulce,10,13. Me gusta cantar o tocar un instrumento con más gente,3.0,  ,59.0,yes
13,2024-02-27_19h20.58.800,Unsyncopated_study3,s131,18,feminino,right,España,Castellano y catalán,Bachelor degree,no,no,A,1,conjunction_un,L3,unsyncopated,s1,r2,13,Online_conjL3_un//d.ji.li23.1332.222.wav,ñe,li,fu,sil,sa,le,ji,sil1,di,ka,sil2,['catch'],[2.2473999999760963],[2.2473999999760963],1.332,no_beat,0.9154,0.9154,"[""space""]",ji,4,testConjL3Uns//time_viol.r2.s1.0.wav,1.0,conjunction_un,unsyncopated,b,s1,no_rule,time,L3,z,0.5335,4.0,0.0,1.0834,4,3,Catalán,0,Castellano,0,Inglés,1,Alemán,13,5,6,yes,no,yes,Flauta dulce,10,14. La música me ayuda a desconectar.,2.0,  ,59.0,yes
14,2024-02-27_19h20.58.800,Unsyncopated_study3,s131,18,feminino,right,España,Castellano y catalán,Bachelor degree,no,no,A,1,conjunction_un,L3,unsyncopated,s1,r2,14,Online_conjL3_un//d.ji.li22.none.none.wav,ñe,ga,le,sil,sa,do,ka,sil1,gu,di,sil2,['-'],,,none,none,,,,ji,4,testConjL3Uns//cat_viol.r2.s1.0.wav,1.0,conjunction_un,unsyncopated,b,s1,no_rule,cat,L3,m,1.432,6.0,1.0,1.1186,4,3,Catalán,0,Castellano,0,Inglés,1,Alemán,13,5,6,yes,no,yes,Flauta dulce,10,15. No puedo evitar tararear las canciones que me gustan cuando las escucho.,4.0,  ,59.0,yes
15,2024-02-27_19h20.58.800,Unsyncopated_study3,s131,18,feminino,right,España,Castellano y catalán,Bachelor degree,no,no,A,1,conjunction_un,L3,unsyncopated,s1,r2,15,Online_conjL3_un//d.ji.li20.1776.444.wav,ñe,ka,li,sil,sa,di,ko,sil1,ji,le,sil2,['catch'],[2.6409999999999627],[2.6409999999999627],1.776,beat,0.865,0.865,"[""space""]",ji,4,testConjL3Uns//r1.s2.2.wav,1.0,conjunction_un,unsyncopated,a,s2,rule,rule,L3,z,0.5511,5.0,1.0,0.9722,4,3,Catalán,0,Castellano,0,Inglés,1,Alemán,13,5,6,yes,no,yes,Flauta dulce,10,16. En los conciertos me siento en sintonía con los artistas y el público.,2.0,  ,59.0,yes
16,2024-02-27_19h20.58.800,Unsyncopated_study3,s131,18,feminino,right,España,Castellano y catalán,Bachelor degree,no,no,A,1,conjunction_un,L3,unsyncopated,s2,r2,16,Online_conjL3_un//c.gu.je23.1332.444.wav,fu,ji,je,sil,ñe,ka,gu,sil1,sa,li,sil2,['catch'],[2.004299999952309],[2.004299999952309],1.332,no_beat,0.6723,0.6723,"[""space""]",gu,3,testConjL3Uns//r1.s2.1.wav,1.0,conjunction_un,unsyncopated,a,s2,rule,rule,L3,m,0.65,5.0,0.0,1.1155,4,3,Catalán,0,Castellano,0,Inglés,1,Alemán,13,5,6,yes,no,yes,Flauta dulce,10,17. Me gasto bastante dinero en música y cosas relacionadas con la música.,1.0,  ,59.0,yes
17,2024-02-27_19h20.58.800,Unsyncopated_study3,s131,18,feminino,right,España,Castellano y catalán,Bachelor degree,no,no,A,1,conjunction_un,L3,unsyncopated,s2,r1,17,Online_conjL3_un//c.gu.je20.none.none.wav,li,fu,ji,sil,chu,ga,di,sil1,mo,ko,sil2,['-'],,,none,none,,,,gu,3,testConjL3Uns//cat_viol.r1.s1.0.wav,1.0,conjunction_un,unsyncopated,a,s1,no_rule,cat,L3,z,0.6008,7.0,0.0,0.802,4,3,Catalán,0,Castellano,0,Inglés,1,Alemán,13,5,6,yes,no,yes,Flauta dulce,10,18. Siento escalofríos cuando escucho una melodía que me gusta.,4.0,  ,59.0,yes
18,2024-02-27_19h20.58.800,Unsyncopated_study3,s131,18,feminino,right,España,Castellano y catalán,Bachelor degree,no,no,A,1,conjunction_un,L3,unsyncopated,s1,r1,18,Online_conjL3_un//c.gu.je22.222.1332.wav,chu,gu,di,sil,mo,ga,je,sil1,do,le,sil2,['catch'],[1.0850999999643136],[1.0850999999643136],0.222,no_beat,0.8631,0.8631,"[""space""]",gu,3,testConjL3Uns//r1.s1.1.wav,1.0,conjunction_un,unsyncopated,a,s1,rule,rule,L3,m,0.5337,7.0,0.0,0.5005,4,3,Catalán,0,Castellano,0,Inglés,1,Alemán,13,5,6,yes,no,yes,Flauta dulce,10,19. Con la música me puedo desahogar.,0.0,  ,59.0,yes
19,2024-02-27_19h20.58.800,Unsyncopated_study3,s131,18,feminino,right,España,Castellano y catalán,Bachelor degree,no,no,A,1,conjunction_un,L3,unsyncopated,s1,r1,19,Online_conjL3_un//c.gu.je21.1110.1332.wav,chu,do,fu,sil,mo,gu,je,sil1,di,ga,sil2,['catch'],[1.9156999999880782],[1.9156999999880782],1.11,no_beat,0.8057,0.8057,"[""space""]",gu,3,testConjL3Uns//r1.s2.0.wav,1.0,conjunction_un,unsyncopated,a,s2,rule,rule,L3,z,0.65,7.0,1.0,0.9895,4,3,Catalán,0,Castellano,0,Inglés,1,Alemán,13,5,6,yes,no,yes,Flauta dulce,10,20. Cuando escucho una melodía que me gusta mucho no puedo evitar mover el cuerpo.,4.0,  ,59.0,yes
20,2024-02-27_19h20.58.800,Unsyncopated_study3,s131,18,feminino,right,España,Castellano y catalán,Bachelor degree,no,no,A,1,conjunction_un,L3,unsyncopated,s2,r2,20,Online_conjL3_un//a.chu.mo22.none.none.wav,ko,le,ga,sil,ñe,ji,di,sil1,sa,ka,sil2,['-'],,,none,none,,,,mo,2,testConjL3Uns//cat_viol.r2.s2.0.wav,1.0,conjunction_un,unsyncopated,b,s2,no_rule,cat,L3,z,1.7493,2.0,0.0,1.5486,4,3,Catalán,0,Castellano,0,Inglés,1,Alemán,13,5,6,yes,no,yes,Flauta dulce,10,,,  ,59.0,yes
21,2024-02-27_19h20.58.800,Unsyncopated_study3,s131,18,feminino,right,España,Castellano y catalán,Bachelor degree,no,no,A,1,conjunction_un,L3,unsyncopated,s1,r2,21,Online_conjL3_un//a.chu.mo23.none.none.wav,ñe,li,le,sil,sa,do,ji,sil1,je,gu,sil2,['-'],,,none,none,,,,mo,2,testConjL3Uns//dep_viol.r1.s2.0.wav,1.0,conjunction_un,unsyncopated,a,s2,no_rule,dep,L3,m,0.5614,6.0,1.0,1.0163,4,3,Catalán,0,Castellano,0,Inglés,1,Alemán,13,5,6,yes,no,yes,Flauta dulce,10,,,  ,59.0,yes
22,2024-02-27_19h20.58.800,Unsyncopated_study3,s131,18,feminino,right,España,Castellano y catalán,Bachelor degree,no,no,A,1,conjunction_un,L3,unsyncopated,s1,r1,22,Online_conjL3_un//a.chu.mo20.0.888.wav,chu,gu,di,sil,mo,ka,li,sil1,le,ji,sil2,['catch'],[1.5048000000119828],[1.5048000000119828],0.888,beat,0.6168,0.6168,"[""space""]",mo,2,testConjL3Uns//r1.s1.0.wav,1.0,conjunction_un,unsyncopated,a,s1,rule,rule,L3,m,0.4676,7.0,0.0,0.8168,4,3,Catalán,0,Castellano,0,Inglés,1,Alemán,13,5,6,yes,no,yes,Flauta dulce,10,,,  ,59.0,yes
23,2024-02-27_19h20.58.800,Unsyncopated_study3,s131,18,feminino,right,España,Castellano y catalán,Bachelor degree,no,no,A,1,conjunction_un,L3,unsyncopated,s2,r2,23,Online_conjL3_un//a.chu.mo21.none.none.wav,ko,di,li,sil,ñe,ka,ji,sil1,sa,do,sil2,['-'],,,none,none,,,,mo,2,testConjL3Uns//r2.s2.0.wav,1.0,conjunction_un,unsyncopated,b,s2,rule,rule,L3,z,0.5264,4.0,1.0,1.3332,4,3,Catalán,0,Castellano,0,Inglés,1,Alemán,13,5,6,yes,no,yes,Flauta dulce,10,,,  ,59.0,yes
24,2024-02-27_19h20.58.800,Unsyncopated_study3,s131,18,feminino,right,España,Castellano y catalán,Bachelor degree,no,no,A,1,conjunction_un,L3,unsyncopated,s2,r2,24,Online_conjL3_un//c.gu.je19.none.none.wav,le,li,do,sil,ñe,fu,di,sil1,sa,ko,sil2,['-'],,,none,none,,,,gu,3,testWhenL1Uns//r2.s2.2.wav,2.0,when,unsyncopated,b,s2,rule,rule,L1,m,2.9298,2.0,0.0,0.8433,4,3,Catalán,0,Castellano,0,Inglés,1,Alemán,13,5,6,yes,no,yes,Flauta dulce,10,,,  ,59.0,yes
25,2024-02-27_19h20.58.800,Unsyncopated_study3,s131,18,feminino,right,España,Castellano y catalán,Bachelor degree,no,no,A,1,conjunction_un,L3,unsyncopated,s1,r1,25,Online_conjL3_un//c.gu.je18.1110.222.wav,chu,je,ga,sil,mo,gu,di,sil1,ko,li,sil2,['catch'],[1.904699999988111],[1.904699999988111],1.11,no_beat,0.7947,0.7947,"[""space""]",gu,3,testWhenL1Uns//cat_viol.r1.s1.0.wav,2.0,when,unsyncopated,a,s1,no_rule,cat,L1,z,1.2672,4.0,1.0,0.9167,4,3,Catalán,0,Castellano,0,Inglés,1,Alemán,13,5,6,yes,no,yes,Flauta dulce,10,,,  ,59.0,yes
26,2024-02-27_19h20.58.800,Unsyncopated_study3,s131,18,feminino,right,España,Castellano y catalán,Bachelor degree,no,no,A,1,conjunction_un,L3,unsyncopated,s2,r1,26,Online_conjL3_un//c.gu.je17.0.1110.wav,gu,ka,ko,sil,chu,je,ji,sil1,mo,di,sil2,['catch'],[1.0460000000000491],[1.0460000000000491],0,beat,1.046,1.046,"[""space""]",gu,3,testWhenL1Uns//cat_viol.r2.s2.0.wav,2.0,when,unsyncopated,b,s2,no_rule,cat,L1,m,0.6735,6.0,0.0,0.9996,4,3,Catalán,0,Castellano,0,Inglés,1,Alemán,13,5,6,yes,no,yes,Flauta dulce,10,,,  ,59.0,yes
27,2024-02-27_19h20.58.800,Unsyncopated_study3,s131,18,feminino,right,España,Castellano y catalán,Bachelor degree,no,no,A,1,conjunction_un,L3,unsyncopated,s1,r2,27,Online_conjL3_un//c.gu.je16.222.1332.wav,ñe,gu,fu,sil,sa,do,je,sil1,li,le,sil2,['catch'],[0.9763000000119746],[0.9763000000119746],0.222,no_beat,0.7543,0.7543,"[""space""]",gu,3,testWhenL1Uns//r1.s1.2.wav,2.0,when,unsyncopated,a,s1,rule,rule,L1,m,0.4833,5.0,0.0,1.6553,4,3,Catalán,0,Castellano,0,Inglés,1,Alemán,13,5,6,yes,no,yes,Flauta dulce,10,,,  ,59.0,yes
28,2024-02-27_19h20.58.800,Unsyncopated_study3,s131,18,feminino,right,España,Castellano y catalán,Bachelor degree,no,no,A,1,conjunction_un,L3,unsyncopated,s1,r1,28,Online_conjL3_un//b.ñe.sa28.none.none.wav,chu,je,ko,sil,mo,fu,di,sil1,li,do,sil2,['-'],,,none,none,,,,ñe,1,testWhenL1Uns//r2.s1.2.wav,2.0,when,unsyncopated,b,s1,rule,rule,L1,z,0.4008,4.0,1.0,1.0153,4,3,Catalán,0,Castellano,0,Inglés,1,Alemán,13,5,6,yes,no,yes,Flauta dulce,10,,,  ,59.0,yes
29,2024-02-27_19h20.58.800,Unsyncopated_study3,s131,18,feminino,right,España,Castellano y catalán,Bachelor degree,no,no,A,1,conjunction_un,L3,unsyncopated,s1,r2,29,Online_conjL3_un//b.ñe.sa29.0.888.wav,ñe,ka,di,sil,sa,ji,je,sil1,ga,fu,sil2,['catch'],[0.8236000000238164],[0.8236000000238164],0,beat,0.8236,0.8236,"[""space""]",ñe,1,testWhenL1Uns//cat_viol.r2.s1.0.wav,2.0,when,unsyncopated,b,s1,no_rule,cat,L1,m,0.5003,7.0,0.0,0.9337,4,3,Catalán,0,Castellano,0,Inglés,1,Alemán,13,5,6,yes,no,yes,Flauta dulce,10,,,  ,59.0,yes
30,2024-02-27_19h20.58.800,Unsyncopated_study3,s131,18,feminino,right,España,Castellano y catalán,Bachelor degree,no,no,A,1,conjunction_un,L3,unsyncopated,s2,r1,30,Online_conjL3_un//b.ñe.sa31.none.none.wav,li,ji,je,sil,chu,fu,le,sil1,mo,di,sil2,['-'],,,none,none,,,,ñe,1,testWhenL1Uns//r2.s2.0.wav,2.0,when,unsyncopated,b,s2,rule,rule,L1,z,0.4856,3.0,1.0,1.0321,4,3,Catalán,0,Castellano,0,Inglés,1,Alemán,13,5,6,yes,no,yes,Flauta dulce,10,,,  ,59.0,yes
31,2024-02-27_19h20.58.800,Unsyncopated_study3,s131,18,feminino,right,España,Castellano y catalán,Bachelor degree,no,no,A,1,conjunction_un,L3,unsyncopated,s2,r2,31,Online_conjL3_un//b.ñe.sa30.888.1776.wav,le,ji,di,sil,ñe,ko,fu,sil1,sa,li,sil2,['catch'],[1.6236999999880481],[1.6236999999880481],0.888,beat,0.7357,0.7357,"[""space""]",ñe,1,testWhenL1Uns//r2.s1.0.wav,2.0,when,unsyncopated,b,s1,rule,rule,L1,m,1.8164,1.0,0.0,0.669,4,3,Catalán,0,Castellano,0,Inglés,1,Alemán,13,5,6,yes,no,yes,Flauta dulce,10,,,  ,59.0,yes
32,2024-02-27_19h20.58.800,Unsyncopated_study3,s131,18,feminino,right,España,Castellano y catalán,Bachelor degree,no,no,A,1,conjunction_un,L3,unsyncopated,s2,r2,32,Online_conjL3_un//c.gu.je25.none.none.wav,le,li,ji,sil,ñe,ka,fu,sil1,sa,di,sil2,['-'],,,none,none,,,,gu,3,testWhenL1Uns//dep_viol.r2.s1.0.wav,2.0,when,unsyncopated,b,s1,no_rule,dep,L1,m,1.2495,5.0,0.0,0.8327,4,3,Catalán,0,Castellano,0,Inglés,1,Alemán,13,5,6,yes,no,yes,Flauta dulce,10,,,  ,59.0,yes
33,2024-02-27_19h20.58.800,Unsyncopated_study3,s131,18,feminino,right,España,Castellano y catalán,Bachelor degree,no,no,A,1,conjunction_un,L3,unsyncopated,s2,r2,33,Online_conjL3_un//c.gu.je27.222.1110.wav,li,gu,ji,sil,ñe,je,ka,sil1,sa,ga,sil2,['catch'],[1.288499999999999],[1.288499999999999],0.222,no_beat,1.0665,1.0665,"[""space""]",gu,3,testWhenL1Uns//dep_viol.r2.s2.0.wav,2.0,when,unsyncopated,b,s2,no_rule,dep,L1,m,1.3212,4.0,0.0,1.0668,4,3,Catalán,0,Castellano,0,Inglés,1,Alemán,13,5,6,yes,no,yes,Flauta dulce,10,,,  ,59.0,yes
34,2024-02-27_19h20.58.800,Unsyncopated_study3,s131,18,feminino,right,España,Castellano y catalán,Bachelor degree,no,no,A,1,conjunction_un,L3,unsyncopated,s2,r1,34,Online_conjL3_un//c.gu.je24.none.none.wav,di,ji,le,sil,chu,li,fu,sil1,mo,do,sil2,['-'],,,none,none,,,,gu,3,testWhenL1Uns//r1.s1.0.wav,2.0,when,unsyncopated,a,s1,rule,rule,L1,z,0.8001,4.0,1.0,1.1499,4,3,Catalán,0,Castellano,0,Inglés,1,Alemán,13,5,6,yes,no,yes,Flauta dulce,10,,,  ,59.0,yes
35,2024-02-27_19h20.58.800,Unsyncopated_study3,s131,18,feminino,right,España,Castellano y catalán,Bachelor degree,no,no,A,1,conjunction_un,L3,unsyncopated,s2,r2,35,Online_conjL3_un//c.gu.je26.222.444.wav,do,gu,je,sil,ñe,le,ko,sil1,sa,ka,sil2,['catch'],[0.9961999999879936],[0.9961999999879936],0.222,no_beat,0.7742,0.7742,"[""space""]",gu,3,testWhenL1Uns//r1.s1.1.wav,2.0,when,unsyncopated,a,s1,rule,rule,L1,m,0.8581,2.0,0.0,0.9972,4,3,Catalán,0,Castellano,0,Inglés,1,Alemán,13,5,6,yes,no,yes,Flauta dulce,10,,,  ,59.0,yes
36,2024-02-27_19h20.58.800,Unsyncopated_study3,s131,18,feminino,right,España,Castellano y catalán,Bachelor degree,no,no,A,1,conjunction_un,L3,unsyncopated,s1,r1,36,Online_conjL3_un//d.ji.li2.222.444.wav,chu,ji,li,sil,mo,je,ko,sil1,fu,ga,sil2,['miss'],,,0.222,no_beat,,,,ji,4,testWhenL1Uns//r2.s1.1.wav,2.0,when,unsyncopated,b,s1,rule,rule,L1,m,0.9486,6.0,0.0,1.0836,4,3,Catalán,0,Castellano,0,Inglés,1,Alemán,13,5,6,yes,no,yes,Flauta dulce,10,,,  ,59.0,yes
37,2024-02-27_19h20.58.800,Unsyncopated_study3,s131,18,feminino,right,España,Castellano y catalán,Bachelor degree,no,no,A,1,conjunction_un,L3,unsyncopated,s2,r1,37,Online_conjL3_un//d.ji.li0.none.none.wav,je,fu,do,sil,chu,ga,ka,sil1,mo,gu,sil2,['-'],,,none,none,,,,ji,4,testWhenL1Uns//cat_viol.r1.s2.0.wav,2.0,when,unsyncopated,a,s2,no_rule,cat,L1,z,0.6506,3.0,1.0,1.0832,4,3,Catalán,0,Castellano,0,Inglés,1,Alemán,13,5,6,yes,no,yes,Flauta dulce,10,,,  ,59.0,yes
38,2024-02-27_19h20.58.800,Unsyncopated_study3,s131,18,feminino,right,España,Castellano y catalán,Bachelor degree,no,no,A,1,conjunction_un,L3,unsyncopated,s2,r2,38,Online_conjL3_un//d.ji.li1.0.1110.wav,ji,ko,gu,sil,ñe,li,fu,sil1,sa,di,sil2,['catch'],[0.8229999999999791],[0.8229999999999791],0,beat,0.823,0.823,"[""space""]",ji,4,testWhenL1Uns//time_viol.r1.s2.0.wav,2.0,when,unsyncopated,a,s2,no_rule,time,L1,m,0.3335,6.0,0.0,2.4321,4,3,Catalán,0,Castellano,0,Inglés,1,Alemán,13,5,6,yes,no,yes,Flauta dulce,10,,,  ,59.0,yes
39,2024-02-27_19h20.58.800,Unsyncopated_study3,s131,18,feminino,right,España,Castellano y catalán,Bachelor degree,no,no,A,1,conjunction_un,L3,unsyncopated,s2,r2,39,Online_conjL3_un//d.ji.li3.444.1110.wav,gu,je,ji,sil,ñe,li,fu,sil1,sa,do,sil2,['catch'],[1.1585000000000036],[1.1585000000000036],0.444,no_beat,0.7145,0.7145,"[""space""]",ji,4,testWhenL1Uns//dep_viol.r1.s2.0.wav,2.0,when,unsyncopated,a,s2,no_rule,dep,L1,z,0.2672,7.0,1.0,0.6328,4,3,Catalán,0,Castellano,0,Inglés,1,Alemán,13,5,6,yes,no,yes,Flauta dulce,10,,,  ,59.0,yes
40,2024-02-27_19h20.58.800,Unsyncopated_study3,s131,18,feminino,right,España,Castellano y catalán,Bachelor degree,no,no,A,1,conjunction_un,L3,unsyncopated,s1,r1,40,Online_conjL3_un//c.gu.je13.none.none.wav,chu,di,ko,sil,mo,ji,le,sil1,fu,li,sil2,['-'],,,none,none,,,,gu,3,testWhenL1Uns//dep_viol.r1.s1.0.wav,2.0,when,unsyncopated,a,s1,no_rule,dep,L1,m,0.5005,4.0,0.0,1.5664,4,3,Catalán,0,Castellano,0,Inglés,1,Alemán,13,5,6,yes,no,yes,Flauta dulce,10,,,  ,59.0,yes
41,2024-02-27_19h20.58.800,Unsyncopated_study3,s131,18,feminino,right,España,Castellano y catalán,Bachelor degree,no,no,A,1,conjunction_un,L3,unsyncopated,s1,r2,41,Online_conjL3_un//c.gu.je14.444.1332.wav,ñe,ka,gu,sil,sa,li,je,sil1,le,di,sil2,['catch'],[1.3939000000357282],[1.3939000000357282],0.444,no_beat,0.9499,0.9499,"[""space""]",gu,3,testWhenL1Uns//r1.s2.0.wav,2.0,when,unsyncopated,a,s2,rule,rule,L1,z,1.8836,1.0,1.0,1.0176,4,3,Catalán,0,Castellano,0,Inglés,1,Alemán,13,5,6,yes,no,yes,Flauta dulce,10,,,  ,59.0,yes
42,2024-02-27_19h20.58.800,Unsyncopated_study3,s131,18,feminino,right,España,Castellano y catalán,Bachelor degree,no,no,A,1,conjunction_un,L3,unsyncopated,s2,r2,42,Online_conjL3_un//c.gu.je15.none.none.wav,fu,ko,li,sil,ñe,ka,le,sil1,sa,di,sil2,['-'],,,none,none,,,,gu,3,testWhenL1Uns//r1.s2.1.wav,2.0,when,unsyncopated,a,s2,rule,rule,L1,m,0.7006,5.0,0.0,1.332,4,3,Catalán,0,Castellano,0,Inglés,1,Alemán,13,5,6,yes,no,yes,Flauta dulce,10,,,  ,59.0,yes
43,2024-02-27_19h20.58.800,Unsyncopated_study3,s131,18,feminino,right,España,Castellano y catalán,Bachelor degree,no,no,A,1,conjunction_un,L3,unsyncopated,s1,r1,43,Online_conjL3_un//c.gu.je12.none.none.wav,chu,ga,le,sil,mo,do,li,sil1,ji,fu,sil2,['-'],,,none,none,,,,gu,3,testWhenL1Uns//time_viol.r2.s1.0.wav,2.0,when,unsyncopated,b,s1,no_rule,time,L1,m,2.2156,2.0,0.0,0.5935,4,3,Catalán,0,Castellano,0,Inglés,1,Alemán,13,5,6,yes,no,yes,Flauta dulce,10,,,  ,59.0,yes
44,2024-02-27_19h20.58.800,Unsyncopated_study3,s131,18,feminino,right,España,Castellano y catalán,Bachelor degree,no,no,A,1,conjunction_un,L3,unsyncopated,s1,r2,44,Online_conjL3_un//a.chu.mo2.none.none.wav,ñe,do,ji,sil,sa,li,fu,sil1,je,ko,sil2,['-'],,,none,none,,,,mo,2,testWhenL1Uns//time_viol.r1.s1.0.wav,2.0,when,unsyncopated,a,s1,no_rule,time,L1,z,0.3145,7.0,1.0,0.7823,4,3,Catalán,0,Castellano,0,Inglés,1,Alemán,13,5,6,yes,no,yes,Flauta dulce,10,,,  ,59.0,yes
45,2024-02-27_19h20.58.800,Unsyncopated_study3,s131,18,feminino,right,España,Castellano y catalán,Bachelor degree,no,no,A,1,conjunction_un,L3,unsyncopated,s2,r1,45,Online_conjL3_un//a.chu.mo0.888.1776.wav,li,gu,fu,sil,chu,ga,ji,sil1,mo,do,sil2,['catch'],[2.4610000000000127],[2.4610000000000127],1.776,beat,0.685,0.685,"[""space""]",mo,2,testWhenL1Uns//r1.s2.2.wav,2.0,when,unsyncopated,a,s2,rule,rule,L1,m,0.3995,6.0,0.0,0.8831,4,3,Catalán,0,Castellano,0,Inglés,1,Alemán,13,5,6,yes,no,yes,Flauta dulce,10,,,  ,59.0,yes
46,2024-02-27_19h20.58.800,Unsyncopated_study3,s131,18,feminino,right,España,Castellano y catalán,Bachelor degree,no,no,A,1,conjunction_un,L3,unsyncopated,s2,r2,46,Online_conjL3_un//a.chu.mo1.none.none.wav,di,je,gu,sil,ñe,ko,ji,sil1,sa,ka,sil2,['-'],,,none,none,,,,mo,2,testWhenL1Uns//r2.s2.1.wav,2.0,when,unsyncopated,b,s2,rule,rule,L1,m,0.5169,5.0,0.0,1.1996,4,3,Catalán,0,Castellano,0,Inglés,1,Alemán,13,5,6,yes,no,yes,Flauta dulce,10,,,  ,59.0,yes
47,2024-02-27_19h20.58.800,Unsyncopated_study3,s131,18,feminino,right,España,Castellano y catalán,Bachelor degree,no,no,A,1,conjunction_un,L3,unsyncopated,s1,r1,47,Online_conjL3_un//a.chu.mo3.0.888.wav,chu,fu,ko,sil,mo,je,gu,sil1,do,li,sil2,['miss'],,,0.888,beat,,,,mo,2,testWhenL1Uns//time_viol.r2.s2.0.wav,2.0,when,unsyncopated,b,s2,no_rule,time,L1,z,0.4399,6.0,1.0,0.8837,4,3,Catalán,0,Castellano,0,Inglés,1,Alemán,13,5,6,yes,no,yes,Flauta dulce,10,,,  ,59.0,yes
48,2024-02-27_19h20.58.800,Unsyncopated_study3,s131,18,feminino,right,España,Castellano y catalán,Bachelor degree,no,no,A,1,conjunction_un,L3,unsyncopated,s2,r1,48,Online_conjL3_un//d.ji.li7.1332.222.wav,le,li,ka,sil,chu,do,ji,sil1,mo,di,sil2,['catch'],[1.9951999999880172],[1.9951999999880172],1.332,no_beat,0.6632,0.6632,"[""space""]",ji,4,testConjL2Syn//r1.s1.1.wav,3.0,conjunction_syn,syncopated,a,s1,rule,rule,L2,z,1.1153,5.0,1.0,0.856,4,3,Catalán,0,Castellano,0,Inglés,1,Alemán,13,5,6,yes,no,yes,Flauta dulce,10,,,  ,59.0,yes
49,2024-02-27_19h20.58.800,Unsyncopated_study3,s131,18,feminino,right,España,Castellano y catalán,Bachelor degree,no,no,A,1,conjunction_un,L3,unsyncopated,s1,r2,49,Online_conjL3_un//d.ji.li5.none.none.wav,ñe,fu,je,sil,sa,gu,le,sil1,ga,di,sil2,['-'],,,none,none,,,,ji,4,testConjL2Syn//r2.s1.0.wav,3.0,conjunction_syn,syncopated,b,s1,rule,rule,L2,m,0.5912,3.0,0.0,0.9341,4,3,Catalán,0,Castellano,0,Inglés,1,Alemán,13,5,6,yes,no,yes,Flauta dulce,10,,,  ,59.0,yes
50,2024-02-27_19h20.58.800,Unsyncopated_study3,s131,18,feminino,right,España,Castellano y catalán,Bachelor degree,no,no,A,1,conjunction_un,L3,unsyncopated,s2,r2,50,Online_conjL3_un//d.ji.li4.none.none.wav,je,ga,di,sil,ñe,ko,do,sil1,sa,le,sil2,['-'],,,none,none,,,,ji,4,testConjL2Syn//r1.s1.0.wav,3.0,conjunction_syn,syncopated,a,s1,rule,rule,L2,m,0.8238,6.0,0.0,1.1486,4,3,Catalán,0,Castellano,0,Inglés,1,Alemán,13,5,6,yes,no,yes,Flauta dulce,10,,,  ,59.0,yes
51,2024-02-27_19h20.58.800,Unsyncopated_study3,s131,18,feminino,right,España,Castellano y catalán,Bachelor degree,no,no,A,1,conjunction_un,L3,unsyncopated,s1,r2,51,Online_conjL3_un//d.ji.li6.none.none.wav,ñe,do,di,sil,sa,je,ga,sil1,gu,ka,sil2,['-'],,,none,none,,,,ji,4,testConjL2Syn//dep_viol.r1.s1.0.wav,3.0,conjunction_syn,syncopated,a,s1,no_rule,dep,L2,m,1.1675,4.0,1.0,0.917,4,3,Catalán,0,Castellano,0,Inglés,1,Alemán,13,5,6,yes,no,yes,Flauta dulce,10,,,  ,59.0,yes
52,2024-02-27_19h20.58.800,Unsyncopated_study3,s131,18,feminino,right,España,Castellano y catalán,Bachelor degree,no,no,A,1,conjunction_un,L3,unsyncopated,s1,r1,52,Online_conjL3_un//b.ñe.sa21.none.none.wav,chu,gu,ji,sil,mo,di,ko,sil1,do,ga,sil2,['-'],,,none,none,,,,ñe,1,testConjL2Syn//time_viol.r1.s1.0.wav,3.0,conjunction_syn,syncopated,a,s1,no_rule,time,L2,m,0.7996,6.0,1.0,0.6362,4,3,Catalán,0,Castellano,0,Inglés,1,Alemán,13,5,6,yes,no,yes,Flauta dulce,10,,,  ,59.0,yes
53,2024-02-27_19h20.58.800,Unsyncopated_study3,s131,18,feminino,right,España,Castellano y catalán,Bachelor degree,no,no,A,1,conjunction_un,L3,unsyncopated,s2,r1,53,Online_conjL3_un//b.ñe.sa23.none.none.wav,je,ko,le,sil,chu,ji,fu,sil1,mo,ga,sil2,['-'],,,none,none,,,,ñe,1,testConjL2Syn//dep_viol.r1.s2.0.wav,3.0,conjunction_syn,syncopated,a,s2,no_rule,dep,L2,m,3.3666,2.0,1.0,1.1668,4,3,Catalán,0,Castellano,0,Inglés,1,Alemán,13,5,6,yes,no,yes,Flauta dulce,10,,,  ,59.0,yes
54,2024-02-27_19h20.58.800,Unsyncopated_study3,s131,18,feminino,right,España,Castellano y catalán,Bachelor degree,no,no,A,1,conjunction_un,L3,unsyncopated,s1,r2,54,Online_conjL3_un//b.ñe.sa20.0.888.wav,ñe,ga,di,sil,sa,li,le,sil1,fu,do,sil2,['catch'],[0.8067999999523181],[0.8067999999523181],0,beat,0.8068,0.8068,"[""space""]",ñe,1,testConjL2Syn//r2.s1.1.wav,3.0,conjunction_syn,syncopated,b,s1,rule,rule,L2,z,0.834,4.0,1.0,1.0174,4,3,Catalán,0,Castellano,0,Inglés,1,Alemán,13,5,6,yes,no,yes,Flauta dulce,10,,,  ,59.0,yes
55,2024-02-27_19h20.58.800,Unsyncopated_study3,s131,18,feminino,right,España,Castellano y catalán,Bachelor degree,no,no,A,1,conjunction_un,L3,unsyncopated,s1,r2,55,Online_conjL3_un//b.ñe.sa22.0.888.wav,ñe,fu,do,sil,sa,ji,li,sil1,di,je,sil2,['catch'],[1.1876000000238491],[1.1876000000238491],0,beat,1.1876,1.1876,"[""space""]",ñe,1,testConjL2Syn//r2.s1.2.wav,3.0,conjunction_syn,syncopated,b,s1,rule,rule,L2,m,1.1511,3.0,0.0,0.9994,4,3,Catalán,0,Castellano,0,Inglés,1,Alemán,13,5,6,yes,no,yes,Flauta dulce,10,,,  ,59.0,yes
56,2024-02-27_19h20.58.800,Unsyncopated_study3,s131,18,feminino,right,España,Castellano y catalán,Bachelor degree,no,no,A,1,conjunction_un,L3,unsyncopated,s2,r2,56,Online_conjL3_un//c.gu.je4.444.0.wav,je,ji,gu,sil,ñe,ka,li,sil1,sa,fu,sil2,['catch'],[1.441799999952309],[1.441799999952309],0.444,no_beat,0.9978,0.9978,"[""space""]",gu,3,testConjL2Syn//r2.s2.1.wav,3.0,conjunction_syn,syncopated,b,s2,rule,rule,L2,m,1.8221,5.0,0.0,1.0641,4,3,Catalán,0,Castellano,0,Inglés,1,Alemán,13,5,6,yes,no,yes,Flauta dulce,10,,,  ,59.0,yes
57,2024-02-27_19h20.58.800,Unsyncopated_study3,s131,18,feminino,right,España,Castellano y catalán,Bachelor degree,no,no,A,1,conjunction_un,L3,unsyncopated,s1,r2,57,Online_conjL3_un//c.gu.je6.1110.222.wav,ñe,je,ko,sil,sa,gu,di,sil1,do,fu,sil2,['catch'],[1.8858000000119546],[1.8858000000119546],1.11,no_beat,0.7758,0.7758,"[""space""]",gu,3,testConjL2Syn//r1.s2.2.wav,3.0,conjunction_syn,syncopated,a,s2,rule,rule,L2,m,0.5993,1.0,0.0,1.2334,4,3,Catalán,0,Castellano,0,Inglés,1,Alemán,13,5,6,yes,no,yes,Flauta dulce,10,,,  ,59.0,yes
58,2024-02-27_19h20.58.800,Unsyncopated_study3,s131,18,feminino,right,España,Castellano y catalán,Bachelor degree,no,no,A,1,conjunction_un,L3,unsyncopated,s1,r2,58,Online_conjL3_un//c.gu.je7.none.none.wav,ñe,ka,ji,sil,sa,do,le,sil1,di,fu,sil2,['-'],,,none,none,,,,gu,3,testConjL2Syn//time_viol.r2.s2.0.wav,3.0,conjunction_syn,syncopated,b,s2,no_rule,time,L2,z,0.4321,6.0,0.0,0.7248,4,3,Catalán,0,Castellano,0,Inglés,1,Alemán,13,5,6,yes,no,yes,Flauta dulce,10,,,  ,59.0,yes
59,2024-02-27_19h20.58.800,Unsyncopated_study3,s131,18,feminino,right,España,Castellano y catalán,Bachelor degree,no,no,A,1,conjunction_un,L3,unsyncopated,s2,r1,59,Online_conjL3_un//c.gu.je5.1332.222.wav,do,je,ka,sil,chu,di,gu,sil1,mo,ji,sil2,['catch'],[2.240000000000009],[2.240000000000009],1.332,no_beat,0.908,0.908,"[""space""]",gu,3,testConjL2Syn//cat_viol.r1.s2.0.wav,3.0,conjunction_syn,syncopated,a,s2,no_rule,cat,L2,m,0.3311,4.0,1.0,1.2907,4,3,Catalán,0,Castellano,0,Inglés,1,Alemán,13,5,6,yes,no,yes,Flauta dulce,10,,,  ,59.0,yes
60,2024-02-27_19h20.58.800,Unsyncopated_study3,s131,18,feminino,right,España,Castellano y catalán,Bachelor degree,no,no,A,1,conjunction_un,L3,unsyncopated,s2,r1,60,Online_conjL3_un//b.ñe.sa5.none.none.wav,li,je,le,sil,chu,di,fu,sil1,mo,ji,sil2,['-'],,,none,none,,,,ñe,1,testConjL2Syn//dep_viol.r2.s2.0.wav,3.0,conjunction_syn,syncopated,b,s2,no_rule,dep,L2,m,0.3822,7.0,1.0,0.8908,4,3,Catalán,0,Castellano,0,Inglés,1,Alemán,13,5,6,yes,no,yes,Flauta dulce,10,,,  ,59.0,yes
61,2024-02-27_19h20.58.800,Unsyncopated_study3,s131,18,feminino,right,España,Castellano y catalán,Bachelor degree,no,no,A,1,conjunction_un,L3,unsyncopated,s2,r2,61,Online_conjL3_un//b.ñe.sa4.888.1776.wav,fu,ji,ga,sil,ñe,gu,ko,sil1,sa,ka,sil2,['catch'],[1.6256999999880009],[1.6256999999880009],0.888,beat,0.7377,0.7377,"[""space""]",ñe,1,testConjL2Syn//cat_viol.r2.s2.0.wav,3.0,conjunction_syn,syncopated,b,s2,no_rule,cat,L2,z,1.4351,2.0,0.0,0.9331,4,3,Catalán,0,Castellano,0,Inglés,1,Alemán,13,5,6,yes,no,yes,Flauta dulce,10,,,  ,59.0,yes
62,2024-02-27_19h20.58.800,Unsyncopated_study3,s131,18,feminino,right,España,Castellano y catalán,Bachelor degree,no,no,A,1,conjunction_un,L3,unsyncopated,s1,r1,62,Online_conjL3_un//b.ñe.sa6.none.none.wav,chu,fu,di,sil,mo,li,do,sil1,ji,le,sil2,['-'],,,none,none,,,,ñe,1,testConjL2Syn//time_viol.r2.s1.0.wav,3.0,conjunction_syn,syncopated,b,s1,no_rule,time,L2,m,0.9996,2.0,1.0,0.9173,4,3,Catalán,0,Castellano,0,Inglés,1,Alemán,13,5,6,yes,no,yes,Flauta dulce,10,,,  ,59.0,yes
63,2024-02-27_19h20.58.800,Unsyncopated_study3,s131,18,feminino,right,España,Castellano y catalán,Bachelor degree,no,no,A,1,conjunction_un,L3,unsyncopated,s1,r1,63,Online_conjL3_un//b.ñe.sa7.none.none.wav,chu,gu,ka,sil,mo,di,li,sil1,do,je,sil2,['-'],,,none,none,,,,ñe,1,testConjL2Syn//dep_viol.r2.s1.0.wav,3.0,conjunction_syn,syncopated,b,s1,no_rule,dep,L2,m,0.6312,4.0,1.0,0.5999,4,3,Catalán,0,Castellano,0,Inglés,1,Alemán,13,5,6,yes,no,yes,Flauta dulce,10,,,  ,59.0,yes
64,2024-02-27_19h20.58.800,Unsyncopated_study3,s131,18,feminino,right,España,Castellano y catalán,Bachelor degree,no,no,A,1,conjunction_un,L3,unsyncopated,s1,r1,64,Online_conjL3_un//b.ñe.sa2.none.none.wav,chu,ka,ga,sil,mo,le,gu,sil1,li,di,sil2,['-'],,,none,none,,,,ñe,1,testConjL2Syn//r1.s2.1.wav,3.0,conjunction_syn,syncopated,a,s2,rule,rule,L2,m,0.3258,3.0,0.0,1.2498,4,3,Catalán,0,Castellano,0,Inglés,1,Alemán,13,5,6,yes,no,yes,Flauta dulce,10,,,  ,59.0,yes
65,2024-02-27_19h20.58.800,Unsyncopated_study3,s131,18,feminino,right,España,Castellano y catalán,Bachelor degree,no,no,A,1,conjunction_un,L3,unsyncopated,s2,r2,65,Online_conjL3_un//b.ñe.sa1.888.1776.wav,do,gu,je,sil,ñe,di,fu,sil1,sa,ji,sil2,['catch'],[1.6203999999761436],[1.6203999999761436],0.888,beat,0.7324,0.7324,"[""space""]",ñe,1,testConjL2Syn//r2.s2.2.wav,3.0,conjunction_syn,syncopated,b,s2,rule,rule,L2,z,1.0506,5.0,1.0,0.4374,4,3,Catalán,0,Castellano,0,Inglés,1,Alemán,13,5,6,yes,no,yes,Flauta dulce,10,,,  ,59.0,yes
66,2024-02-27_19h20.58.800,Unsyncopated_study3,s131,18,feminino,right,España,Castellano y catalán,Bachelor degree,no,no,A,1,conjunction_un,L3,unsyncopated,s2,r1,66,Online_conjL3_un//b.ñe.sa0.none.none.wav,le,li,do,sil,chu,ko,je,sil1,mo,ga,sil2,['-'],,,none,none,,,,ñe,1,testConjL2Syn//cat_viol.r2.s1.0.wav,3.0,conjunction_syn,syncopated,b,s1,no_rule,cat,L2,z,1.8354,4.0,0.0,0.177,4,3,Catalán,0,Castellano,0,Inglés,1,Alemán,13,5,6,yes,no,yes,Flauta dulce,10,,,  ,59.0,yes
67,2024-02-27_19h20.58.800,Unsyncopated_study3,s131,18,feminino,right,España,Castellano y catalán,Bachelor degree,no,no,A,1,conjunction_un,L3,unsyncopated,s2,r2,67,Online_conjL3_un//b.ñe.sa3.888.1776.wav,ko,ji,le,sil,ñe,ga,ka,sil1,sa,do,sil2,['catch'],[1.7048000000119146],[1.7048000000119146],0.888,beat,0.8168,0.8168,"[""space""]",ñe,1,testConjL2Syn//r1.s1.2.wav,3.0,conjunction_syn,syncopated,a,s1,rule,rule,L2,m,0.4504,6.0,0.0,0.7749,4,3,Catalán,0,Castellano,0,Inglés,1,Alemán,13,5,6,yes,no,yes,Flauta dulce,10,,,  ,59.0,yes
68,2024-02-27_19h20.58.800,Unsyncopated_study3,s131,18,feminino,right,España,Castellano y catalán,Bachelor degree,no,no,A,1,conjunction_un,L3,unsyncopated,s1,r1,68,Online_conjL3_un//a.chu.mo10.0.888.wav,chu,do,fu,sil,mo,le,ga,sil1,di,ji,sil2,['catch'],[1.5781000000238237],[1.5781000000238237],0.888,beat,0.6901,0.6901,"[""space""]",mo,2,testConjL2Syn//r1.s2.0.wav,3.0,conjunction_syn,syncopated,a,s2,rule,rule,L2,z,1.366,4.0,1.0,0.2173,4,3,Catalán,0,Castellano,0,Inglés,1,Alemán,13,5,6,yes,no,yes,Flauta dulce,10,,,  ,59.0,yes
69,2024-02-27_19h20.58.800,Unsyncopated_study3,s131,18,feminino,right,España,Castellano y catalán,Bachelor degree,no,no,A,1,conjunction_un,L3,unsyncopated,s1,r2,69,Online_conjL3_un//a.chu.mo9.none.none.wav,ñe,di,gu,sil,sa,ka,ga,sil1,je,do,sil2,['-'],,,none,none,,,,mo,2,testConjL2Syn//r2.s2.0.wav,3.0,conjunction_syn,syncopated,b,s2,rule,rule,L2,m,0.3836,6.0,0.0,1.6171,4,3,Catalán,0,Castellano,0,Inglés,1,Alemán,13,5,6,yes,no,yes,Flauta dulce,10,,,  ,59.0,yes
70,2024-02-27_19h20.58.800,Unsyncopated_study3,s131,18,feminino,right,España,Castellano y catalán,Bachelor degree,no,no,A,1,conjunction_un,L3,unsyncopated,s1,r2,70,Online_conjL3_un//a.chu.mo11.none.none.wav,ñe,fu,ko,sil,sa,li,ka,sil1,le,ji,sil2,['-'],,,none,none,,,,mo,2,testConjL2Syn//time_viol.r1.s2.0.wav,3.0,conjunction_syn,syncopated,a,s2,no_rule,time,L2,m,1.1319,1.0,1.0,0.9175,4,3,Catalán,0,Castellano,0,Inglés,1,Alemán,13,5,6,yes,no,yes,Flauta dulce,10,,,  ,59.0,yes
71,2024-02-27_19h20.58.800,Unsyncopated_study3,s131,18,feminino,right,España,Castellano y catalán,Bachelor degree,no,no,A,1,conjunction_un,L3,unsyncopated,s1,r1,71,Online_conjL3_un//a.chu.mo8.0.888.wav,chu,gu,ji,sil,mo,di,le,sil1,li,fu,sil2,['catch'],[1.5233000000118864],[1.5233000000118864],0.888,beat,0.6353,0.6353,"[""space""]",mo,2,testConjL2Syn//cat_viol.r1.s1.0.wav,3.0,conjunction_syn,syncopated,a,s1,no_rule,cat,L2,z,0.4837,7.0,0.0,0.8672,4,3,Catalán,0,Castellano,0,Inglés,1,Alemán,13,5,6,yes,no,yes,Flauta dulce,10,,,  ,59.0,yes
72,2024-02-27_19h20.58.800,Unsyncopated_study3,s131,18,feminino,right,España,Castellano y catalán,Bachelor degree,no,no,A,1,conjunction_un,L3,unsyncopated,s1,r1,72,Online_conjL3_un//a.chu.mo13.0.888.wav,chu,gu,ji,sil,mo,li,ko,sil1,ga,le,sil2,['catch'],[1.6021000000238246],[1.6021000000238246],0.888,beat,0.7141,0.7141,"[""space""]",mo,2,testWhatL4Uns//r2.s2.2.wav,4.0,what,unsyncopated,b,s2,rule,rule,L4,z,0.6549,7.0,1.0,0.5434,4,3,Catalán,0,Castellano,0,Inglés,1,Alemán,13,5,6,yes,no,yes,Flauta dulce,10,,,  ,59.0,yes
73,2024-02-27_19h20.58.800,Unsyncopated_study3,s131,18,feminino,right,España,Castellano y catalán,Bachelor degree,no,no,A,1,conjunction_un,L3,unsyncopated,s2,r2,73,Online_conjL3_un//a.chu.mo15.none.none.wav,fu,ko,di,sil,ñe,gu,je,sil1,sa,le,sil2,['-'],,,none,none,,,,mo,2,testWhatL4Uns//r2.s1.1.wav,4.0,what,unsyncopated,b,s1,rule,rule,L4,m,0.49,3.0,0.0,1.1999,4,3,Catalán,0,Castellano,0,Inglés,1,Alemán,13,5,6,yes,no,yes,Flauta dulce,10,,,  ,59.0,yes
74,2024-02-27_19h20.58.800,Unsyncopated_study3,s131,18,feminino,right,España,Castellano y catalán,Bachelor degree,no,no,A,1,conjunction_un,L3,unsyncopated,s2,r1,74,Online_conjL3_un//a.chu.mo14.888.1776.wav,je,ka,li,sil,chu,di,fu,sil1,mo,le,sil2,['catch'],[2.40409999996416],[2.40409999996416],1.776,beat,0.6281,0.6281,"[""space""]",mo,2,testWhatL4Uns//r1.s1.0.wav,4.0,what,unsyncopated,a,s1,rule,rule,L4,z,0.567,5.0,1.0,0.8999,4,3,Catalán,0,Castellano,0,Inglés,1,Alemán,13,5,6,yes,no,yes,Flauta dulce,10,,,  ,59.0,yes
75,2024-02-27_19h20.58.800,Unsyncopated_study3,s131,18,feminino,right,España,Castellano y catalán,Bachelor degree,no,no,A,1,conjunction_un,L3,unsyncopated,s2,r2,75,Online_conjL3_un//a.chu.mo12.none.none.wav,di,fu,gu,sil,ñe,ji,ko,sil1,sa,li,sil2,['-'],,,none,none,,,,mo,2,testWhatL4Uns//time_viol.r2.s1.0.wav,4.0,what,unsyncopated,b,s1,no_rule,time,L4,z,0.3843,6.0,0.0,0.7333,4,3,Catalán,0,Castellano,0,Inglés,1,Alemán,13,5,6,yes,no,yes,Flauta dulce,10,,,  ,59.0,yes
76,2024-02-27_19h20.58.800,Unsyncopated_study3,s131,18,feminino,right,España,Castellano y catalán,Bachelor degree,no,no,A,1,conjunction_un,L3,unsyncopated,s1,r2,76,Online_conjL3_un//b.ñe.sa17.0.888.wav,ñe,li,je,sil,sa,di,fu,sil1,le,ga,sil2,['catch'],[0.8099000000357819],[0.8099000000357819],0,beat,0.8099,0.8099,"[""space""]",ñe,1,testWhatL4Uns//time_viol.r1.s1.0.wav,4.0,what,unsyncopated,a,s1,no_rule,time,L4,z,0.3508,7.0,0.0,0.7007,4,3,Catalán,0,Castellano,0,Inglés,1,Alemán,13,5,6,yes,no,yes,Flauta dulce,10,,,  ,59.0,yes
77,2024-02-27_19h20.58.800,Unsyncopated_study3,s131,18,feminino,right,España,Castellano y catalán,Bachelor degree,no,no,A,1,conjunction_un,L3,unsyncopated,s1,r2,77,Online_conjL3_un//b.ñe.sa19.0.888.wav,ñe,je,ji,sil,sa,le,li,sil1,ko,ga,sil2,['catch'],[0.6729000000357246],[0.6729000000357246],0,beat,0.6729,0.6729,"[""space""]",ñe,1,testWhatL4Uns//dep_viol.r2.s1.0.wav,4.0,what,unsyncopated,b,s1,no_rule,dep,L4,m,0.4838,4.0,1.0,1.1829,4,3,Catalán,0,Castellano,0,Inglés,1,Alemán,13,5,6,yes,no,yes,Flauta dulce,10,,,  ,59.0,yes
78,2024-02-27_19h20.58.800,Unsyncopated_study3,s131,18,feminino,right,España,Castellano y catalán,Bachelor degree,no,no,A,1,conjunction_un,L3,unsyncopated,s1,r1,78,Online_conjL3_un//b.ñe.sa18.none.none.wav,chu,do,ga,sil,mo,ka,di,sil1,le,je,sil2,['-'],,,none,none,,,,ñe,1,testWhatL4Uns//r1.s1.2.wav,4.0,what,unsyncopated,a,s1,rule,rule,L4,m,0.2172,2.0,0.0,1.014,4,3,Catalán,0,Castellano,0,Inglés,1,Alemán,13,5,6,yes,no,yes,Flauta dulce,10,,,  ,59.0,yes
79,2024-02-27_19h20.58.800,Unsyncopated_study3,s131,18,feminino,right,España,Castellano y catalán,Bachelor degree,no,no,A,1,conjunction_un,L3,unsyncopated,s2,r1,79,Online_conjL3_un//b.ñe.sa16.none.none.wav,li,ga,ko,sil,chu,le,ji,sil1,mo,ka,sil2,['-'],,,none,none,,,,ñe,1,testWhatL4Uns//r2.s1.2.wav,4.0,what,unsyncopated,b,s1,rule,rule,L4,m,1.3161,5.0,0.0,1.131,4,3,Catalán,0,Castellano,0,Inglés,1,Alemán,13,5,6,yes,no,yes,Flauta dulce,10,,,  ,59.0,yes
80,2024-02-27_19h20.58.800,Unsyncopated_study3,s131,18,feminino,right,España,Castellano y catalán,Bachelor degree,no,no,A,1,conjunction_un,L3,unsyncopated,s2,r2,80,Online_conjL3_un//a.chu.mo24.none.none.wav,je,ka,ga,sil,ñe,do,fu,sil1,sa,gu,sil2,['-'],,,none,none,,,,mo,2,testWhatL4Uns//r2.s1.0.wav,4.0,what,unsyncopated,b,s1,rule,rule,L4,m,0.919,4.0,0.0,0.7502,4,3,Catalán,0,Castellano,0,Inglés,1,Alemán,13,5,6,yes,no,yes,Flauta dulce,10,,,  ,59.0,yes
81,2024-02-27_19h20.58.800,Unsyncopated_study3,s131,18,feminino,right,España,Castellano y catalán,Bachelor degree,no,no,A,1,conjunction_un,L3,unsyncopated,s2,r1,81,Online_conjL3_un//a.chu.mo26.888.1776.wav,le,ko,fu,sil,chu,di,li,sil1,mo,ga,sil2,['catch'],[2.4944999999999027],[2.4944999999999027],1.776,beat,0.7185,0.7185,"[""space""]",mo,2,testWhatL4Uns//dep_viol.r1.s2.0.wav,4.0,what,unsyncopated,a,s2,no_rule,dep,L4,m,0.7532,2.0,1.0,0.9077,4,3,Catalán,0,Castellano,0,Inglés,1,Alemán,13,5,6,yes,no,yes,Flauta dulce,10,,,  ,59.0,yes
82,2024-02-27_19h20.58.800,Unsyncopated_study3,s131,18,feminino,right,España,Castellano y catalán,Bachelor degree,no,no,A,1,conjunction_un,L3,unsyncopated,s2,r1,82,Online_conjL3_un//a.chu.mo27.888.1776.wav,ji,le,ga,sil,chu,je,ko,sil1,mo,li,sil2,['catch'],[2.5596999999880836],[2.5596999999880836],1.776,beat,0.7837,0.7837,"[""space""]",mo,2,testWhatL4Uns//dep_viol.r1.s1.0.wav,4.0,what,unsyncopated,a,s1,no_rule,dep,L4,m,1.0164,5.0,1.0,0.7504,4,3,Catalán,0,Castellano,0,Inglés,1,Alemán,13,5,6,yes,no,yes,Flauta dulce,10,,,  ,59.0,yes
83,2024-02-27_19h20.58.800,Unsyncopated_study3,s131,18,feminino,right,España,Castellano y catalán,Bachelor degree,no,no,A,1,conjunction_un,L3,unsyncopated,s1,r1,83,Online_conjL3_un//a.chu.mo25.0.888.wav,chu,li,ka,sil,mo,ga,ko,sil1,je,ji,sil2,['catch'],[1.9546000000239019],[1.9546000000239019],0.888,beat,1.0666,1.0666,"[""space""]",mo,2,testWhatL4Uns//r1.s2.0.wav,4.0,what,unsyncopated,a,s2,rule,rule,L4,m,1.5229,1.0,0.0,0.87,4,3,Catalán,0,Castellano,0,Inglés,1,Alemán,13,5,6,yes,no,yes,Flauta dulce,10,,,  ,59.0,yes
84,2024-02-27_19h20.58.800,Unsyncopated_study3,s131,18,feminino,right,España,Castellano y catalán,Bachelor degree,no,no,A,1,conjunction_un,L3,unsyncopated,s2,r1,84,Online_conjL3_un//b.ñe.sa26.none.none.wav,do,je,gu,sil,chu,ga,ko,sil1,mo,ka,sil2,['-'],,,none,none,,,,ñe,1,testWhatL4Uns//cat_viol.r2.s2.0.wav,4.0,what,unsyncopated,b,s2,no_rule,cat,L4,m,0.344,7.0,1.0,0.8014,4,3,Catalán,0,Castellano,0,Inglés,1,Alemán,13,5,6,yes,no,yes,Flauta dulce,10,,,  ,59.0,yes
85,2024-02-27_19h20.58.800,Unsyncopated_study3,s131,18,feminino,right,España,Castellano y catalán,Bachelor degree,no,no,A,1,conjunction_un,L3,unsyncopated,s2,r2,85,Online_conjL3_un//b.ñe.sa25.888.1776.wav,le,ji,gu,sil,ñe,di,fu,sil1,sa,ko,sil2,['catch'],[1.669199999988109],[1.669199999988109],0.888,beat,0.7812,0.7812,"[""space""]",ñe,1,testWhatL4Uns//dep_viol.r2.s2.0.wav,4.0,what,unsyncopated,b,s2,no_rule,dep,L4,m,0.3537,7.0,1.0,0.8899,4,3,Catalán,0,Castellano,0,Inglés,1,Alemán,13,5,6,yes,no,yes,Flauta dulce,10,,,  ,59.0,yes
86,2024-02-27_19h20.58.800,Unsyncopated_study3,s131,18,feminino,right,España,Castellano y catalán,Bachelor degree,no,no,A,1,conjunction_un,L3,unsyncopated,s1,r2,86,Online_conjL3_un//b.ñe.sa24.0.888.wav,ñe,fu,le,sil,sa,ko,ji,sil1,ka,do,sil2,['catch'],[0.8721999999880836],[0.8721999999880836],0,beat,0.8722,0.8722,"[""space""]",ñe,1,testWhatL4Uns//r2.s2.1.wav,4.0,what,unsyncopated,b,s2,rule,rule,L4,m,1.1516,2.0,0.0,0.9007,4,3,Catalán,0,Castellano,0,Inglés,1,Alemán,13,5,6,yes,no,yes,Flauta dulce,10,,,  ,59.0,yes
87,2024-02-27_19h20.58.800,Unsyncopated_study3,s131,18,feminino,right,España,Castellano y catalán,Bachelor degree,no,no,A,1,conjunction_un,L3,unsyncopated,s2,r2,87,Online_conjL3_un//b.ñe.sa27.888.1776.wav,ji,do,ka,sil,ñe,je,ko,sil1,sa,gu,sil2,['catch'],[1.8029999999999973],[1.8029999999999973],0.888,beat,0.915,0.915,"[""space""]",ñe,1,testWhatL4Uns//r1.s1.1.wav,4.0,what,unsyncopated,a,s1,rule,rule,L4,m,0.2874,5.0,0.0,0.9085,4,3,Catalán,0,Castellano,0,Inglés,1,Alemán,13,5,6,yes,no,yes,Flauta dulce,10,,,  ,59.0,yes
88,2024-02-27_19h20.58.800,Unsyncopated_study3,s131,18,feminino,right,España,Castellano y catalán,Bachelor degree,no,no,A,1,conjunction_un,L3,unsyncopated,s1,r1,88,Online_conjL3_un//c.gu.je29.none.none.wav,chu,di,fu,sil,mo,li,ji,sil1,do,ga,sil2,['-'],,,none,none,,,,gu,3,testWhatL4Uns//r1.s2.2.wav,4.0,what,unsyncopated,a,s2,rule,rule,L4,z,2.1963,1.0,1.0,0.5861,4,3,Catalán,0,Castellano,0,Inglés,1,Alemán,13,5,6,yes,no,yes,Flauta dulce,10,,,  ,59.0,yes
89,2024-02-27_19h20.58.800,Unsyncopated_study3,s131,18,feminino,right,España,Castellano y catalán,Bachelor degree,no,no,A,1,conjunction_un,L3,unsyncopated,s1,r2,89,Online_conjL3_un//c.gu.je30.none.none.wav,ñe,ka,ko,sil,sa,ga,do,sil1,di,ji,sil2,['-'],,,none,none,,,,gu,3,testWhatL4Uns//time_viol.r1.s2.0.wav,4.0,what,unsyncopated,a,s2,no_rule,time,L4,m,0.5049,3.0,1.0,1.1009,4,3,Catalán,0,Castellano,0,Inglés,1,Alemán,13,5,6,yes,no,yes,Flauta dulce,10,,,  ,59.0,yes
90,2024-02-27_19h20.58.800,Unsyncopated_study3,s131,18,feminino,right,España,Castellano y catalán,Bachelor degree,no,no,A,1,conjunction_un,L3,unsyncopated,s2,r2,90,Online_conjL3_un//c.gu.je28.none.none.wav,ga,do,le,sil,ñe,ji,ka,sil1,sa,ko,sil2,['-'],,,none,none,,,,gu,3,testWhatL4Uns//cat_viol.r1.s1.0.wav,4.0,what,unsyncopated,a,s1,no_rule,cat,L4,m,0.4012,5.0,1.0,0.8743,4,3,Catalán,0,Castellano,0,Inglés,1,Alemán,13,5,6,yes,no,yes,Flauta dulce,10,,,  ,59.0,yes
91,2024-02-27_19h20.58.800,Unsyncopated_study3,s131,18,feminino,right,España,Castellano y catalán,Bachelor degree,no,no,A,1,conjunction_un,L3,unsyncopated,s1,r1,91,Online_conjL3_un//c.gu.je31.none.none.wav,chu,ga,di,sil,mo,ji,li,sil1,ka,le,sil2,['-'],,,none,none,,,,gu,3,testWhatL4Uns//r2.s2.0.wav,4.0,what,unsyncopated,b,s2,rule,rule,L4,z,1.0835,3.0,1.0,1.0318,4,3,Catalán,0,Castellano,0,Inglés,1,Alemán,13,5,6,yes,no,yes,Flauta dulce,10,,,  ,59.0,yes
92,2024-02-27_19h20.58.800,Unsyncopated_study3,s131,18,feminino,right,España,Castellano y catalán,Bachelor degree,no,no,A,1,conjunction_un,L3,unsyncopated,s2,r1,92,Online_conjL3_un//d.ji.li10.222.444.wav,le,ji,li,sil,chu,fu,do,sil1,mo,gu,sil2,['miss'],,,0.222,no_beat,,,,ji,4,testWhatL4Uns//cat_viol.r2.s1.0.wav,4.0,what,unsyncopated,b,s1,no_rule,cat,L4,z,1.6042,1.0,0.0,0.2568,4,3,Catalán,0,Castellano,0,Inglés,1,Alemán,13,5,6,yes,no,yes,Flauta dulce,10,,,  ,59.0,yes
93,2024-02-27_19h20.58.800,Unsyncopated_study3,s131,18,feminino,right,España,Castellano y catalán,Bachelor degree,no,no,A,1,conjunction_un,L3,unsyncopated,s2,r2,93,Online_conjL3_un//d.ji.li9.1332.222.wav,fu,li,je,sil,ñe,ko,ji,sil1,sa,do,sil2,['miss'],,,1.332,no_beat,,,,ji,4,testWhatL4Uns//r1.s2.1.wav,4.0,what,unsyncopated,a,s2,rule,rule,L4,z,0.5414,4.0,1.0,1.1165,4,3,Catalán,0,Castellano,0,Inglés,1,Alemán,13,5,6,yes,no,yes,Flauta dulce,10,,,  ,59.0,yes
94,2024-02-27_19h20.58.800,Unsyncopated_study3,s131,18,feminino,right,España,Castellano y catalán,Bachelor degree,no,no,A,1,conjunction_un,L3,unsyncopated,s1,r2,94,Online_conjL3_un//d.ji.li11.1776.222.wav,ñe,li,ga,sil,sa,je,le,sil1,ji,ko,sil2,['catch'],[2.6017000000476855],[2.6017000000476855],1.776,beat,0.8257,0.8257,"[""space""]",ji,4,testWhatL4Uns//cat_viol.r1.s2.0.wav,4.0,what,unsyncopated,a,s2,no_rule,cat,L4,m,0.4341,3.0,1.0,0.5337,4,3,Catalán,0,Castellano,0,Inglés,1,Alemán,13,5,6,yes,no,yes,Flauta dulce,10,,,  ,59.0,yes
95,2024-02-27_19h20.58.800,Unsyncopated_study3,s131,18,feminino,right,España,Castellano y catalán,Bachelor degree,no,no,A,1,conjunction_un,L3,unsyncopated,s2,r2,95,Online_conjL3_un//d.ji.li8.none.none.wav,fu,ko,le,sil,ñe,do,gu,sil1,sa,di,sil2,['-'],,,none,none,,,,ji,4,testWhatL4Uns//time_viol.r2.s2.0.wav,4.0,what,unsyncopated,b,s2,no_rule,time,L4,m,2.4821,2.0,1.0,0.4337,4,3,Catalán,0,Castellano,0,Inglés,1,Alemán,13,5,6,yes,no,yes,Flauta dulce,10,,,  ,59.0,yes
96,2024-02-27_19h20.58.800,Unsyncopated_study3,s131,18,feminino,right,España,Castellano y catalán,Bachelor degree,no,no,A,1,conjunction_un,L3,unsyncopated,s2,r2,96,Online_conjL3_un//a.chu.mo30.none.none.wav,ji,ga,ka,sil,ñe,fu,li,sil1,sa,do,sil2,['-'],,,none,none,,,,mo,2,,,,,,,,,,,,,,,4,3,Catalán,0,Castellano,0,Inglés,1,Alemán,13,5,6,yes,no,yes,Flauta dulce,10,,,  ,59.0,yes
97,2024-02-27_19h20.58.800,Unsyncopated_study3,s131,18,feminino,right,España,Castellano y catalán,Bachelor degree,no,no,A,1,conjunction_un,L3,unsyncopated,s2,r1,97,Online_conjL3_un//a.chu.mo31.888.1776.wav,fu,je,ji,sil,chu,le,ko,sil1,mo,gu,sil2,['catch'],[2.4731999999880827],[2.4731999999880827],1.776,beat,0.6972,0.6972,"[""space""]",mo,2,,,,,,,,,,,,,,,4,3,Catalán,0,Castellano,0,Inglés,1,Alemán,13,5,6,yes,no,yes,Flauta dulce,10,,,  ,59.0,yes
98,2024-02-27_19h20.58.800,Unsyncopated_study3,s131,18,feminino,right,España,Castellano y catalán,Bachelor degree,no,no,A,1,conjunction_un,L3,unsyncopated,s2,r1,98,Online_conjL3_un//a.chu.mo29.888.1776.wav,li,ji,ko,sil,chu,gu,do,sil1,mo,je,sil2,['miss'],,,1.776,beat,,,,mo,2,,,,,,,,,,,,,,,4,3,Catalán,0,Castellano,0,Inglés,1,Alemán,13,5,6,yes,no,yes,Flauta dulce,10,,,  ,59.0,yes
99,2024-02-27_19h20.58.800,Unsyncopated_study3,s131,18,feminino,right,España,Castellano y catalán,Bachelor degree,no,no,A,1,conjunction_un,L3,unsyncopated,s1,r1,99,Online_conjL3_un//a.chu.mo28.0.888.wav,chu,fu,di,sil,mo,do,li,sil1,ji,ka,sil2,"['false alarm', 'catch']","[0.5948000000119009, 1.8753000000118618]",[1.8753000000118618],0.888,beat,0.9873,0.9873,"[""space"",""space""]",mo,2,,,,,,,,,,,,,,,4,3,Catalán,0,Castellano,0,Inglés,1,Alemán,13,5,6,yes,no,yes,Flauta dulce,10,,,  ,59.0,yes
100,2024-02-27_19h20.58.800,Unsyncopated_study3,s131,18,feminino,right,España,Castellano y catalán,Bachelor degree,no,no,A,1,conjunction_un,L3,unsyncopated,s2,r1,100,Online_conjL3_un//c.gu.je8.0.1110.wav,gu,fu,le,sil,chu,je,li,sil1,mo,ko,sil2,['catch'],[0.8684999999999263],[0.8684999999999263],0,beat,0.8685,0.8685,"[""space""]",gu,3,,,,,,,,,,,,,,,4,3,Catalán,0,Castellano,0,Inglés,1,Alemán,13,5,6,yes,no,yes,Flauta dulce,10,,,  ,59.0,yes
101,2024-02-27_19h20.58.800,Unsyncopated_study3,s131,18,feminino,right,España,Castellano y catalán,Bachelor degree,no,no,A,1,conjunction_un,L3,unsyncopated,s2,r1,101,Online_conjL3_un//c.gu.je9.none.none.wav,ji,le,ga,sil,chu,ka,li,sil1,mo,do,sil2,['-'],,,none,none,,,,gu,3,,,,,,,,,,,,,,,4,3,Catalán,0,Castellano,0,Inglés,1,Alemán,13,5,6,yes,no,yes,Flauta dulce,10,,,  ,59.0,yes
102,2024-02-27_19h20.58.800,Unsyncopated_study3,s131,18,feminino,right,España,Castellano y catalán,Bachelor degree,no,no,A,1,conjunction_un,L3,unsyncopated,s1,r2,102,Online_conjL3_un//c.gu.je10.none.none.wav,ñe,ga,ko,sil,sa,fu,di,sil1,ka,do,sil2,['-'],,,none,none,,,,gu,3,,,,,,,,,,,,,,,4,3,Catalán,0,Castellano,0,Inglés,1,Alemán,13,5,6,yes,no,yes,Flauta dulce,10,,,  ,59.0,yes
103,2024-02-27_19h20.58.800,Unsyncopated_study3,s131,18,feminino,right,España,Castellano y catalán,Bachelor degree,no,no,A,1,conjunction_un,L3,unsyncopated,s1,r2,103,Online_conjL3_un//c.gu.je11.none.none.wav,ñe,li,ji,sil,sa,fu,di,sil1,ko,do,sil2,['-'],,,none,none,,,,gu,3,,,,,,,,,,,,,,,4,3,Catalán,0,Castellano,0,Inglés,1,Alemán,13,5,6,yes,no,yes,Flauta dulce,10,,,  ,59.0,yes
104,2024-02-27_19h20.58.800,Unsyncopated_study3,s131,18,feminino,right,España,Castellano y catalán,Bachelor degree,no,no,A,1,conjunction_un,L3,unsyncopated,s1,r1,104,Online_conjL3_un//d.ji.li15.none.none.wav,chu,fu,ga,sil,mo,je,gu,sil1,do,di,sil2,['-'],,,none,none,,,,ji,4,,,,,,,,,,,,,,,4,3,Catalán,0,Castellano,0,Inglés,1,Alemán,13,5,6,yes,no,yes,Flauta dulce,10,,,  ,59.0,yes
105,2024-02-27_19h20.58.800,Unsyncopated_study3,s131,18,feminino,right,España,Castellano y catalán,Bachelor degree,no,no,A,1,conjunction_un,L3,unsyncopated,s2,r1,105,Online_conjL3_un//d.ji.li13.0.1110.wav,ji,ko,gu,sil,chu,li,je,sil1,mo,ka,sil2,['catch'],[0.923100000023851],[0.923100000023851],0,beat,0.9231,0.9231,"[""space""]",ji,4,,,,,,,,,,,,,,,4,3,Catalán,0,Castellano,0,Inglés,1,Alemán,13,5,6,yes,no,yes,Flauta dulce,10,,,  ,59.0,yes
106,2024-02-27_19h20.58.800,Unsyncopated_study3,s131,18,feminino,right,España,Castellano y catalán,Bachelor degree,no,no,A,1,conjunction_un,L3,unsyncopated,s1,r1,106,Online_conjL3_un//d.ji.li14.1332.444.wav,chu,ko,li,sil,mo,do,ji,sil1,di,gu,sil2,['catch'],[2.159399999976131],[2.159399999976131],1.332,no_beat,0.8274,0.8274,"[""space""]",ji,4,,,,,,,,,,,,,,,4,3,Catalán,0,Castellano,0,Inglés,1,Alemán,13,5,6,yes,no,yes,Flauta dulce,10,,,  ,59.0,yes
107,2024-02-27_19h20.58.800,Unsyncopated_study3,s131,18,feminino,right,España,Castellano y catalán,Bachelor degree,no,no,A,1,conjunction_un,L3,unsyncopated,s1,r2,107,Online_conjL3_un//d.ji.li12.1332.222.wav,ñe,li,le,sil,sa,je,ji,sil1,di,ga,sil2,['catch'],[2.0879999999999654],[2.0879999999999654],1.332,no_beat,0.756,0.756,"[""space""]",ji,4,,,,,,,,,,,,,,,4,3,Catalán,0,Castellano,0,Inglés,1,Alemán,13,5,6,yes,no,yes,Flauta dulce,10,,,  ,59.0,yes
108,2024-02-27_19h20.58.800,Unsyncopated_study3,s131,18,feminino,right,España,Castellano y catalán,Bachelor degree,no,no,A,1,conjunction_un,L3,unsyncopated,s2,r2,108,Online_conjL3_un//d.ji.li16.none.none.wav,di,gu,je,sil,ñe,ga,ko,sil1,sa,ka,sil2,['-'],,,none,none,,,,ji,4,,,,,,,,,,,,,,,4,3,Catalán,0,Castellano,0,Inglés,1,Alemán,13,5,6,yes,no,yes,Flauta dulce,10,,,  ,59.0,yes
109,2024-02-27_19h20.58.800,Unsyncopated_study3,s131,18,feminino,right,España,Castellano y catalán,Bachelor degree,no,no,A,1,conjunction_un,L3,unsyncopated,s2,r2,109,Online_conjL3_un//d.ji.li19.none.none.wav,gu,ga,di,sil,ñe,do,ka,sil1,sa,ko,sil2,['-'],,,none,none,,,,ji,4,,,,,,,,,,,,,,,4,3,Catalán,0,Castellano,0,Inglés,1,Alemán,13,5,6,yes,no,yes,Flauta dulce,10,,,  ,59.0,yes
110,2024-02-27_19h20.58.800,Unsyncopated_study3,s131,18,feminino,right,España,Castellano y catalán,Bachelor degree,no,no,A,1,conjunction_un,L3,unsyncopated,s2,r2,110,Online_conjL3_un//d.ji.li18.1332.444.wav,ka,le,li,sil,ñe,gu,ji,sil1,sa,ko,sil2,['catch'],[2.038200000047709],[2.038200000047709],1.332,no_beat,0.7062,0.7062,"[""space""]",ji,4,,,,,,,,,,,,,,,4,3,Catalán,0,Castellano,0,Inglés,1,Alemán,13,5,6,yes,no,yes,Flauta dulce,10,,,  ,59.0,yes
111,2024-02-27_19h20.58.800,Unsyncopated_study3,s131,18,feminino,right,España,Castellano y catalán,Bachelor degree,no,no,A,1,conjunction_un,L3,unsyncopated,s1,r1,111,Online_conjL3_un//d.ji.li17.none.none.wav,chu,je,gu,sil,mo,do,ko,sil1,ga,le,sil2,['-'],,,none,none,,,,ji,4,,,,,,,,,,,,,,,4,3,Catalán,0,Castellano,0,Inglés,1,Alemán,13,5,6,yes,no,yes,Flauta dulce,10,,,  ,59.0,yes
112,2024-02-27_19h20.58.800,Unsyncopated_study3,s131,18,feminino,right,España,Castellano y catalán,Bachelor degree,no,no,A,1,conjunction_un,L3,unsyncopated,s2,r2,112,Online_conjL3_un//a.chu.mo5.none.none.wav,fu,di,ga,sil,ñe,gu,do,sil1,sa,li,sil2,['-'],,,none,none,,,,mo,2,,,,,,,,,,,,,,,4,3,Catalán,0,Castellano,0,Inglés,1,Alemán,13,5,6,yes,no,yes,Flauta dulce,10,,,  ,59.0,yes
113,2024-02-27_19h20.58.800,Unsyncopated_study3,s131,18,feminino,right,España,Castellano y catalán,Bachelor degree,no,no,A,1,conjunction_un,L3,unsyncopated,s2,r1,113,Online_conjL3_un//a.chu.mo7.888.1776.wav,ka,ji,ko,sil,chu,ga,le,sil1,mo,gu,sil2,['catch_delay'],[0.8946000000238092],[0.8946000000238092],1.776,beat,0.8946,0.8946,,mo,2,,,,,,,,,,,,,,,4,3,Catalán,0,Castellano,0,Inglés,1,Alemán,13,5,6,yes,no,yes,Flauta dulce,10,,,  ,59.0,yes
114,2024-02-27_19h20.58.800,Unsyncopated_study3,s131,18,feminino,right,España,Castellano y catalán,Bachelor degree,no,no,A,1,conjunction_un,L3,unsyncopated,s1,r1,114,Online_conjL3_un//a.chu.mo6.0.888.wav,chu,fu,do,sil,mo,ga,li,sil1,di,gu,sil2,['catch'],"[0.006600000023809116, 1.8551999999880309]",[1.8551999999880309],0.888,beat,0.9672,0.9672,"[""space"",""space""]",mo,2,,,,,,,,,,,,,,,4,3,Catalán,0,Castellano,0,Inglés,1,Alemán,13,5,6,yes,no,yes,Flauta dulce,10,,,  ,59.0,yes
115,2024-02-27_19h20.58.800,Unsyncopated_study3,s131,18,feminino,right,España,Castellano y catalán,Bachelor degree,no,no,A,1,conjunction_un,L3,unsyncopated,s1,r2,115,Online_conjL3_un//a.chu.mo4.none.none.wav,ñe,je,do,sil,sa,le,fu,sil1,li,ko,sil2,['-'],,,none,none,,,,mo,2,,,,,,,,,,,,,,,4,3,Catalán,0,Castellano,0,Inglés,1,Alemán,13,5,6,yes,no,yes,Flauta dulce,10,,,  ,59.0,yes
116,2024-02-27_19h20.58.800,Unsyncopated_study3,s131,18,feminino,right,España,Castellano y catalán,Bachelor degree,no,no,A,1,conjunction_un,L3,unsyncopated,s1,r1,116,Online_conjL3_un//b.ñe.sa12.none.none.wav,chu,je,li,sil,mo,ka,ga,sil1,ko,di,sil2,['-'],,,none,none,,,,ñe,1,,,,,,,,,,,,,,,4,3,Catalán,0,Castellano,0,Inglés,1,Alemán,13,5,6,yes,no,yes,Flauta dulce,10,,,  ,59.0,yes
117,2024-02-27_19h20.58.800,Unsyncopated_study3,s131,18,feminino,right,España,Castellano y catalán,Bachelor degree,no,no,A,1,conjunction_un,L3,unsyncopated,s1,r2,117,Online_conjL3_un//b.ñe.sa15.0.888.wav,ñe,le,di,sil,sa,je,ji,sil1,fu,gu,sil2,['catch'],[0.7561999999879845],[0.7561999999879845],0,beat,0.7562,0.7562,"[""space""]",ñe,1,,,,,,,,,,,,,,,4,3,Catalán,0,Castellano,0,Inglés,1,Alemán,13,5,6,yes,no,yes,Flauta dulce,10,,,  ,59.0,yes
118,2024-02-27_19h20.58.800,Unsyncopated_study3,s131,18,feminino,right,España,Castellano y catalán,Bachelor degree,no,no,A,1,conjunction_un,L3,unsyncopated,s2,r1,118,Online_conjL3_un//b.ñe.sa13.none.none.wav,ji,je,gu,sil,chu,ko,do,sil1,mo,di,sil2,['-'],,,none,none,,,,ñe,1,,,,,,,,,,,,,,,4,3,Catalán,0,Castellano,0,Inglés,1,Alemán,13,5,6,yes,no,yes,Flauta dulce,10,,,  ,59.0,yes
119,2024-02-27_19h20.58.800,Unsyncopated_study3,s131,18,feminino,right,España,Castellano y catalán,Bachelor degree,no,no,A,1,conjunction_un,L3,unsyncopated,s2,r2,119,Online_conjL3_un//b.ñe.sa14.888.1776.wav,gu,ko,le,sil,ñe,ka,fu,sil1,sa,di,sil2,['catch'],[1.630300000011971],[1.630300000011971],0.888,beat,0.7423,0.7423,"[""space""]",ñe,1,,,,,,,,,,,,,,,4,3,Catalán,0,Castellano,0,Inglés,1,Alemán,13,5,6,yes,no,yes,Flauta dulce,10,,,  ,59.0,yes
120,2024-02-27_19h20.58.800,Unsyncopated_study3,s131,18,feminino,right,España,Castellano y catalán,Bachelor degree,no,no,A,1,conjunction_un,L3,unsyncopated,s2,r1,120,Online_conjL3_un//d.ji.li30.none.none.wav,di,je,ga,sil,chu,ko,gu,sil1,mo,do,sil2,['-'],,,none,none,,,,ji,4,,,,,,,,,,,,,,,4,3,Catalán,0,Castellano,0,Inglés,1,Alemán,13,5,6,yes,no,yes,Flauta dulce,10,,,  ,59.0,yes
121,2024-02-27_19h20.58.800,Unsyncopated_study3,s131,18,feminino,right,España,Castellano y catalán,Bachelor degree,no,no,A,1,conjunction_un,L3,unsyncopated,s1,r1,121,Online_conjL3_un//d.ji.li28.none.none.wav,chu,ko,di,sil,mo,do,ga,sil1,le,ka,sil2,['-'],,,none,none,,,,ji,4,,,,,,,,,,,,,,,4,3,Catalán,0,Castellano,0,Inglés,1,Alemán,13,5,6,yes,no,yes,Flauta dulce,10,,,  ,59.0,yes
122,2024-02-27_19h20.58.800,Unsyncopated_study3,s131,18,feminino,right,España,Castellano y catalán,Bachelor degree,no,no,A,1,conjunction_un,L3,unsyncopated,s2,r1,122,Online_conjL3_un//d.ji.li31.none.none.wav,do,je,ka,sil,chu,di,le,sil1,mo,ko,sil2,['-'],,,none,none,,,,ji,4,,,,,,,,,,,,,,,4,3,Catalán,0,Castellano,0,Inglés,1,Alemán,13,5,6,yes,no,yes,Flauta dulce,10,,,  ,59.0,yes
123,2024-02-27_19h20.58.800,Unsyncopated_study3,s131,18,feminino,right,España,Castellano y catalán,Bachelor degree,no,no,A,1,conjunction_un,L3,unsyncopated,s1,r1,123,Online_conjL3_un//d.ji.li29.1776.222.wav,chu,li,ka,sil,mo,je,fu,sil1,ji,ko,sil2,['miss'],,,1.776,beat,,,,ji,4,,,,,,,,,,,,,,,4,3,Catalán,0,Castellano,0,Inglés,1,Alemán,13,5,6,yes,no,yes,Flauta dulce,10,,,  ,59.0,yes
124,2024-02-27_19h20.58.800,Unsyncopated_study3,s131,18,feminino,right,España,Castellano y catalán,Bachelor degree,no,no,A,1,conjunction_un,L3,unsyncopated,s1,r2,124,Online_conjL3_un//a.chu.mo16.none.none.wav,ñe,ga,je,sil,sa,li,ko,sil1,fu,gu,sil2,['-'],,,none,none,,,,mo,2,,,,,,,,,,,,,,,4,3,Catalán,0,Castellano,0,Inglés,1,Alemán,13,5,6,yes,no,yes,Flauta dulce,10,,,  ,59.0,yes
125,2024-02-27_19h20.58.800,Unsyncopated_study3,s131,18,feminino,right,España,Castellano y catalán,Bachelor degree,no,no,A,1,conjunction_un,L3,unsyncopated,s1,r2,125,Online_conjL3_un//a.chu.mo19.none.none.wav,ñe,ji,je,sil,sa,fu,di,sil1,li,ko,sil2,['-'],,,none,none,,,,mo,2,,,,,,,,,,,,,,,4,3,Catalán,0,Castellano,0,Inglés,1,Alemán,13,5,6,yes,no,yes,Flauta dulce,10,,,  ,59.0,yes
126,2024-02-27_19h20.58.800,Unsyncopated_study3,s131,18,feminino,right,España,Castellano y catalán,Bachelor degree,no,no,A,1,conjunction_un,L3,unsyncopated,s1,r2,126,Online_conjL3_un//a.chu.mo17.none.none.wav,ñe,li,do,sil,sa,je,gu,sil1,fu,ko,sil2,['-'],,,none,none,,,,mo,2,,,,,,,,,,,,,,,4,3,Catalán,0,Castellano,0,Inglés,1,Alemán,13,5,6,yes,no,yes,Flauta dulce,10,,,  ,59.0,yes
127,2024-02-27_19h20.58.800,Unsyncopated_study3,s131,18,feminino,right,España,Castellano y catalán,Bachelor degree,no,no,A,1,conjunction_un,L3,unsyncopated,s2,r1,127,Online_conjL3_un//a.chu.mo18.888.1776.wav,do,fu,ka,sil,chu,ko,ga,sil1,mo,ji,sil2,['catch'],[2.503900000035742],[2.503900000035742],1.776,beat,0.7279,0.7279,"[""space""]",mo,2,,,,,,,,,,,,,,,4,3,Catalán,0,Castellano,0,Inglés,1,Alemán,13,5,6,yes,no,yes,Flauta dulce,10,,,  ,59.0,yes
128,2024-02-27_19h20.58.800,Unsyncopated_study3,s131,18,feminino,right,España,Castellano y catalán,Bachelor degree,no,no,A,2,when,L1,unsyncopated,when,when,0,Online_whenL1//a.ki1.1776.wav,zu,ri,ni,sil,ne,be,ro,sil1,ki,fa,sil2,['catch'],[2.596499999999878],[2.596499999999878],1.776,beat,0.8205,0.8205,"[""space""]",ki,2,,,,,,,,,,,,,,,4,3,Catalán,0,Castellano,0,Inglés,1,Alemán,13,5,6,yes,no,yes,Flauta dulce,10,,,  ,59.0,yes
129,2024-02-27_19h20.58.800,Unsyncopated_study3,s131,18,feminino,right,España,Castellano y catalán,Bachelor degree,no,no,A,2,when,L1,unsyncopated,when,when,1,Online_whenL1//a.ki3.1110.wav,ri,ni,fa,sil,cho,ki,ze,sil1,fo,ta,sil2,['catch'],[2.026300000012043],[2.026300000012043],1.11,no_beat,0.9163,0.9163,"[""space""]",ki,2,,,,,,,,,,,,,,,4,3,Catalán,0,Castellano,0,Inglés,1,Alemán,13,5,6,yes,no,yes,Flauta dulce,10,,,  ,59.0,yes
130,2024-02-27_19h20.58.800,Unsyncopated_study3,s131,18,feminino,right,España,Castellano y catalán,Bachelor degree,no,no,A,2,when,L1,unsyncopated,when,when,2,Online_whenL1//a.ki2.none.wav,zu,ne,ta,sil,ri,be,ni,sil1,fo,lu,sil2,['-'],,,none,none,,,,ki,2,,,,,,,,,,,,,,,4,3,Catalán,0,Castellano,0,Inglés,1,Alemán,13,5,6,yes,no,yes,Flauta dulce,10,,,  ,59.0,yes
131,2024-02-27_19h20.58.800,Unsyncopated_study3,s131,18,feminino,right,España,Castellano y catalán,Bachelor degree,no,no,A,2,when,L1,unsyncopated,when,when,3,Online_whenL1//a.ki0.none.wav,zu,ta,ri,sil,ro,ne,cho,sil1,pu,la,sil2,['-'],,,none,none,,,,ki,2,,,,,,,,,,,,,,,4,3,Catalán,0,Castellano,0,Inglés,1,Alemán,13,5,6,yes,no,yes,Flauta dulce,10,,,  ,59.0,yes
132,2024-02-27_19h20.58.800,Unsyncopated_study3,s131,18,feminino,right,España,Castellano y catalán,Bachelor degree,no,no,A,2,when,L1,unsyncopated,when,when,4,Online_whenL1//a.ki9.none.wav,la,ro,ze,sil,cho,fa,pu,sil1,ne,ta,sil2,['-'],,,none,none,,,,ki,2,,,,,,,,,,,,,,,4,3,Catalán,0,Castellano,0,Inglés,1,Alemán,13,5,6,yes,no,yes,Flauta dulce,10,,,  ,59.0,yes
133,2024-02-27_19h20.58.800,Unsyncopated_study3,s131,18,feminino,right,España,Castellano y catalán,Bachelor degree,no,no,A,2,when,L1,unsyncopated,when,when,5,Online_whenL1//a.ki10.222.wav,ro,ki,be,sil,la,ri,lu,sil1,fo,fa,sil2,['catch'],[1.1556000000239237],[1.1556000000239237],0.222,no_beat,0.9336,0.9336,"[""space""]",ki,2,,,,,,,,,,,,,,,4,3,Catalán,0,Castellano,0,Inglés,1,Alemán,13,5,6,yes,no,yes,Flauta dulce,10,,,  ,59.0,yes
134,2024-02-27_19h20.58.800,Unsyncopated_study3,s131,18,feminino,right,España,Castellano y catalán,Bachelor degree,no,no,A,2,when,L1,unsyncopated,when,when,6,Online_whenL1//a.ki11.none.wav,cho,la,pu,sil,zu,ta,ro,sil1,ni,ri,sil2,['-'],,,none,none,,,,ki,2,,,,,,,,,,,,,,,4,3,Catalán,0,Castellano,0,Inglés,1,Alemán,13,5,6,yes,no,yes,Flauta dulce,10,,,  ,59.0,yes
135,2024-02-27_19h20.58.800,Unsyncopated_study3,s131,18,feminino,right,España,Castellano y catalán,Bachelor degree,no,no,A,2,when,L1,unsyncopated,when,when,7,Online_whenL1//a.ki8.none.wav,ne,fo,zu,sil,pu,be,ni,sil1,ze,la,sil2,['-'],,,none,none,,,,ki,2,,,,,,,,,,,,,,,4,3,Catalán,0,Castellano,0,Inglés,1,Alemán,13,5,6,yes,no,yes,Flauta dulce,10,,,  ,59.0,yes
136,2024-02-27_19h20.58.800,Unsyncopated_study3,s131,18,feminino,right,España,Castellano y catalán,Bachelor degree,no,no,A,2,when,L1,unsyncopated,when,when,8,Online_whenL1//c.ro26.444.wav,ki,zu,ro,sil,cho,ta,ne,sil1,ri,fa,sil2,['catch'],[1.1966999999879135],[1.1966999999879135],0.444,no_beat,0.7527,0.7527,"[""space""]",ro,3,,,,,,,,,,,,,,,4,3,Catalán,0,Castellano,0,Inglés,1,Alemán,13,5,6,yes,no,yes,Flauta dulce,10,,,  ,59.0,yes
137,2024-02-27_19h20.58.800,Unsyncopated_study3,s131,18,feminino,right,España,Castellano y catalán,Bachelor degree,no,no,A,2,when,L1,unsyncopated,when,when,9,Online_whenL1//c.ro25.none.wav,la,pu,cho,sil,ki,fo,ze,sil1,ne,ni,sil2,['-'],,,none,none,,,,ro,3,,,,,,,,,,,,,,,4,3,Catalán,0,Castellano,0,Inglés,1,Alemán,13,5,6,yes,no,yes,Flauta dulce,10,,,  ,59.0,yes
138,2024-02-27_19h20.58.800,Unsyncopated_study3,s131,18,feminino,right,España,Castellano y catalán,Bachelor degree,no,no,A,2,when,L1,unsyncopated,when,when,10,Online_whenL1//c.ro27.none.wav,ni,be,la,sil,lu,zu,ri,sil1,pu,ze,sil2,['-'],,,none,none,,,,ro,3,,,,,,,,,,,,,,,4,3,Catalán,0,Castellano,0,Inglés,1,Alemán,13,5,6,yes,no,yes,Flauta dulce,10,,,  ,59.0,yes
139,2024-02-27_19h20.58.800,Unsyncopated_study3,s131,18,feminino,right,España,Castellano y catalán,Bachelor degree,no,no,A,2,when,L1,unsyncopated,when,when,11,Online_whenL1//c.ro24.222.wav,fo,ro,ta,sil,fa,ne,cho,sil1,be,ze,sil2,['catch'],[0.9476999999878899],[0.9476999999878899],0.222,no_beat,0.7257,0.7257,"[""space""]",ro,3,,,,,,,,,,,,,,,4,3,Catalán,0,Castellano,0,Inglés,1,Alemán,13,5,6,yes,no,yes,Flauta dulce,10,,,  ,59.0,yes
140,2024-02-27_19h20.58.800,Unsyncopated_study3,s131,18,feminino,right,España,Castellano y catalán,Bachelor degree,no,no,A,2,when,L1,unsyncopated,when,when,12,Online_whenL1//d.ne19.222.wav,ri,ne,ni,sil,cho,be,zu,sil1,pu,fa,sil2,['miss'],,,0.222,no_beat,,,,ne,4,,,,,,,,,,,,,,,4,3,Catalán,0,Castellano,0,Inglés,1,Alemán,13,5,6,yes,no,yes,Flauta dulce,10,,,  ,59.0,yes
141,2024-02-27_19h20.58.800,Unsyncopated_study3,s131,18,feminino,right,España,Castellano y catalán,Bachelor degree,no,no,A,2,when,L1,unsyncopated,when,when,13,Online_whenL1//d.ne16.1776.wav,cho,fo,ri,sil,lu,pu,zu,sil1,ne,be,sil2,['miss'],,,1.776,beat,,,,ne,4,,,,,,,,,,,,,,,4,3,Catalán,0,Castellano,0,Inglés,1,Alemán,13,5,6,yes,no,yes,Flauta dulce,10,,,  ,59.0,yes
142,2024-02-27_19h20.58.800,Unsyncopated_study3,s131,18,feminino,right,España,Castellano y catalán,Bachelor degree,no,no,A,2,when,L1,unsyncopated,when,when,14,Online_whenL1//d.ne17.none.wav,fa,cho,ki,sil,la,ta,lu,sil1,fo,ni,sil2,['-'],,,none,none,,,,ne,4,,,,,,,,,,,,,,,4,3,Catalán,0,Castellano,0,Inglés,1,Alemán,13,5,6,yes,no,yes,Flauta dulce,10,,,  ,59.0,yes
143,2024-02-27_19h20.58.800,Unsyncopated_study3,s131,18,feminino,right,España,Castellano y catalán,Bachelor degree,no,no,A,2,when,L1,unsyncopated,when,when,15,Online_whenL1//d.ne18.1998.wav,fo,ri,be,sil,ki,ze,la,sil1,lu,ne,sil2,['miss'],,,1.998,no_beat,,,,ne,4,,,,,,,,,,,,,,,4,3,Catalán,0,Castellano,0,Inglés,1,Alemán,13,5,6,yes,no,yes,Flauta dulce,10,,,  ,59.0,yes
144,2024-02-27_19h20.58.800,Unsyncopated_study3,s131,18,feminino,right,España,Castellano y catalán,Bachelor degree,no,no,A,2,when,L1,unsyncopated,when,when,16,Online_whenL1//d.ne30.888.wav,cho,ta,la,sil,ne,zu,fa,sil1,be,ri,sil2,"['false alarm', 'catch']","[0.5998999999760599, 1.7058999999760545]",[1.7058999999760545],0.888,beat,0.8179,0.8179,"[""space"",""space""]",ne,4,,,,,,,,,,,,,,,4,3,Catalán,0,Castellano,0,Inglés,1,Alemán,13,5,6,yes,no,yes,Flauta dulce,10,,,  ,59.0,yes
145,2024-02-27_19h20.58.800,Unsyncopated_study3,s131,18,feminino,right,España,Castellano y catalán,Bachelor degree,no,no,A,2,when,L1,unsyncopated,when,when,17,Online_whenL1//d.ne29.444.wav,lu,ri,ne,sil,zu,la,ze,sil1,pu,ki,sil2,['catch'],[2.1200000000001182],[2.1200000000001182],0.444,no_beat,,1.676,"[""space""]",ne,4,,,,,,,,,,,,,,,4,3,Catalán,0,Castellano,0,Inglés,1,Alemán,13,5,6,yes,no,yes,Flauta dulce,10,,,  ,59.0,yes
146,2024-02-27_19h20.58.800,Unsyncopated_study3,s131,18,feminino,right,España,Castellano y catalán,Bachelor degree,no,no,A,2,when,L1,unsyncopated,when,when,18,Online_whenL1//d.ne28.1332.wav,ta,ze,cho,sil,ro,zu,ne,sil1,ki,ri,sil2,['miss'],,,1.332,no_beat,,,,ne,4,,,,,,,,,,,,,,,4,3,Catalán,0,Castellano,0,Inglés,1,Alemán,13,5,6,yes,no,yes,Flauta dulce,10,,,  ,59.0,yes
147,2024-02-27_19h20.58.800,Unsyncopated_study3,s131,18,feminino,right,España,Castellano y catalán,Bachelor degree,no,no,A,2,when,L1,unsyncopated,when,when,19,Online_whenL1//d.ne31.1998.wav,ni,ta,la,sil,be,ze,lu,sil1,fa,ne,sil2,['catch_delay'],[0.7628000000118538],[0.7628000000118538],1.998,no_beat,0.7628,0.7628,,ne,4,,,,,,,,,,,,,,,4,3,Catalán,0,Castellano,0,Inglés,1,Alemán,13,5,6,yes,no,yes,Flauta dulce,10,,,  ,59.0,yes
148,2024-02-27_19h20.58.800,Unsyncopated_study3,s131,18,feminino,right,España,Castellano y catalán,Bachelor degree,no,no,A,2,when,L1,unsyncopated,when,when,20,Online_whenL1//c.ro2.1110.wav,fo,be,ri,sil,ni,ro,ta,sil1,la,zu,sil2,['catch'],"[0.09680000001185363, 1.8646999999880336]",[1.8646999999880336],1.11,no_beat,0.7547,0.7547,"[""space"",""space""]",ro,3,,,,,,,,,,,,,,,4,3,Catalán,0,Castellano,0,Inglés,1,Alemán,13,5,6,yes,no,yes,Flauta dulce,10,,,  ,59.0,yes
149,2024-02-27_19h20.58.800,Unsyncopated_study3,s131,18,feminino,right,España,Castellano y catalán,Bachelor degree,no,no,A,2,when,L1,unsyncopated,when,when,21,Online_whenL1//c.ro0.222.wav,zu,ro,ze,sil,ri,fo,pu,sil1,ki,lu,sil2,['catch'],[0.9545000000000528],[0.9545000000000528],0.222,no_beat,0.7325,0.7325,"[""space""]",ro,3,,,,,,,,,,,,,,,4,3,Catalán,0,Castellano,0,Inglés,1,Alemán,13,5,6,yes,no,yes,Flauta dulce,10,,,  ,59.0,yes
150,2024-02-27_19h20.58.800,Unsyncopated_study3,s131,18,feminino,right,España,Castellano y catalán,Bachelor degree,no,no,A,2,when,L1,unsyncopated,when,when,22,Online_whenL1//c.ro1.none.wav,fo,be,cho,sil,lu,ze,ni,sil1,pu,la,sil2,['-'],,,none,none,,,,ro,3,,,,,,,,,,,,,,,4,3,Catalán,0,Castellano,0,Inglés,1,Alemán,13,5,6,yes,no,yes,Flauta dulce,10,,,  ,59.0,yes
151,2024-02-27_19h20.58.800,Unsyncopated_study3,s131,18,feminino,right,España,Castellano y catalán,Bachelor degree,no,no,A,2,when,L1,unsyncopated,when,when,23,Online_whenL1//c.ro3.444.wav,ze,be,ro,sil,ri,pu,cho,sil1,lu,fa,sil2,['catch'],[1.1266999999879772],[1.1266999999879772],0.444,no_beat,0.6827,0.6827,"[""space""]",ro,3,,,,,,,,,,,,,,,4,3,Catalán,0,Castellano,0,Inglés,1,Alemán,13,5,6,yes,no,yes,Flauta dulce,10,,,  ,59.0,yes
152,2024-02-27_19h20.58.800,Unsyncopated_study3,s131,18,feminino,right,España,Castellano y catalán,Bachelor degree,no,no,A,2,when,L1,unsyncopated,when,when,24,Online_whenL1//c.ro17.none.wav,la,ze,pu,sil,ki,cho,zu,sil1,fa,ne,sil2,['-'],,,none,none,,,,ro,3,,,,,,,,,,,,,,,4,3,Catalán,0,Castellano,0,Inglés,1,Alemán,13,5,6,yes,no,yes,Flauta dulce,10,,,  ,59.0,yes
153,2024-02-27_19h20.58.800,Unsyncopated_study3,s131,18,feminino,right,España,Castellano y catalán,Bachelor degree,no,no,A,2,when,L1,unsyncopated,when,when,25,Online_whenL1//c.ro16.1776.wav,fa,ne,zu,sil,ki,ta,ze,sil1,ro,cho,sil2,['catch'],[2.488399999976309],[2.488399999976309],1.776,beat,0.7124,0.7124,"[""space""]",ro,3,,,,,,,,,,,,,,,4,3,Catalán,0,Castellano,0,Inglés,1,Alemán,13,5,6,yes,no,yes,Flauta dulce,10,,,  ,59.0,yes
154,2024-02-27_19h20.58.800,Unsyncopated_study3,s131,18,feminino,right,España,Castellano y catalán,Bachelor degree,no,no,A,2,when,L1,unsyncopated,when,when,26,Online_whenL1//c.ro18.none.wav,ki,ri,ni,sil,ne,ta,cho,sil1,fo,ze,sil2,['-'],,,none,none,,,,ro,3,,,,,,,,,,,,,,,4,3,Catalán,0,Castellano,0,Inglés,1,Alemán,13,5,6,yes,no,yes,Flauta dulce,10,,,  ,59.0,yes
155,2024-02-27_19h20.58.800,Unsyncopated_study3,s131,18,feminino,right,España,Castellano y catalán,Bachelor degree,no,no,A,2,when,L1,unsyncopated,when,when,27,Online_whenL1//c.ro19.1332.wav,ze,be,pu,sil,ne,fo,ro,sil1,lu,cho,sil2,['catch'],[2.0513999999759562],[2.0513999999759562],1.332,no_beat,0.7194,0.7194,"[""space""]",ro,3,,,,,,,,,,,,,,,4,3,Catalán,0,Castellano,0,Inglés,1,Alemán,13,5,6,yes,no,yes,Flauta dulce,10,,,  ,59.0,yes
156,2024-02-27_19h20.58.800,Unsyncopated_study3,s131,18,feminino,right,España,Castellano y catalán,Bachelor degree,no,no,A,2,when,L1,unsyncopated,when,when,28,Online_whenL1//a.ki26.none.wav,fo,be,ne,sil,ta,ze,ri,sil1,la,cho,sil2,['-'],,,none,none,,,,ki,2,,,,,,,,,,,,,,,4,3,Catalán,0,Castellano,0,Inglés,1,Alemán,13,5,6,yes,no,yes,Flauta dulce,10,,,  ,59.0,yes
157,2024-02-27_19h20.58.800,Unsyncopated_study3,s131,18,feminino,right,España,Castellano y catalán,Bachelor degree,no,no,A,2,when,L1,unsyncopated,when,when,29,Online_whenL1//a.ki27.none.wav,fa,fo,cho,sil,ze,ri,ta,sil1,pu,zu,sil2,['-'],,,none,none,,,,ki,2,,,,,,,,,,,,,,,4,3,Catalán,0,Castellano,0,Inglés,1,Alemán,13,5,6,yes,no,yes,Flauta dulce,10,,,  ,59.0,yes
158,2024-02-27_19h20.58.800,Unsyncopated_study3,s131,18,feminino,right,España,Castellano y catalán,Bachelor degree,no,no,A,2,when,L1,unsyncopated,when,when,30,Online_whenL1//a.ki25.none.wav,pu,lu,ni,sil,ro,ne,zu,sil1,la,ta,sil2,['-'],,,none,none,,,,ki,2,,,,,,,,,,,,,,,4,3,Catalán,0,Castellano,0,Inglés,1,Alemán,13,5,6,yes,no,yes,Flauta dulce,10,,,  ,59.0,yes
159,2024-02-27_19h20.58.800,Unsyncopated_study3,s131,18,feminino,right,España,Castellano y catalán,Bachelor degree,no,no,A,2,when,L1,unsyncopated,when,when,31,Online_whenL1//a.ki24.none.wav,cho,ze,ni,sil,zu,la,ri,sil1,be,pu,sil2,['-'],,,none,none,,,,ki,2,,,,,,,,,,,,,,,4,3,Catalán,0,Castellano,0,Inglés,1,Alemán,13,5,6,yes,no,yes,Flauta dulce,10,,,  ,59.0,yes
160,2024-02-27_19h20.58.800,Unsyncopated_study3,s131,18,feminino,right,España,Castellano y catalán,Bachelor degree,no,no,A,2,when,L1,unsyncopated,when,when,32,Online_whenL1//b.ta23.none.wav,ni,fo,ri,sil,ki,la,be,sil1,ze,ne,sil2,['-'],,,none,none,,,,ta,1,,,,,,,,,,,,,,,4,3,Catalán,0,Castellano,0,Inglés,1,Alemán,13,5,6,yes,no,yes,Flauta dulce,10,,,  ,59.0,yes
161,2024-02-27_19h20.58.800,Unsyncopated_study3,s131,18,feminino,right,España,Castellano y catalán,Bachelor degree,no,no,A,2,when,L1,unsyncopated,when,when,33,Online_whenL1//b.ta22.none.wav,be,ri,fo,sil,ne,ki,zu,sil1,fa,lu,sil2,['-'],,,none,none,,,,ta,1,,,,,,,,,,,,,,,4,3,Catalán,0,Castellano,0,Inglés,1,Alemán,13,5,6,yes,no,yes,Flauta dulce,10,,,  ,59.0,yes
162,2024-02-27_19h20.58.800,Unsyncopated_study3,s131,18,feminino,right,España,Castellano y catalán,Bachelor degree,no,no,A,2,when,L1,unsyncopated,when,when,34,Online_whenL1//b.ta20.1110.wav,zu,lu,fo,sil,ki,ta,ne,sil1,ri,la,sil2,['catch'],[1.8878999999760708],[1.8878999999760708],1.11,no_beat,0.7779,0.7779,"[""space""]",ta,1,,,,,,,,,,,,,,,4,3,Catalán,0,Castellano,0,Inglés,1,Alemán,13,5,6,yes,no,yes,Flauta dulce,10,,,  ,59.0,yes
163,2024-02-27_19h20.58.800,Unsyncopated_study3,s131,18,feminino,right,España,Castellano y catalán,Bachelor degree,no,no,A,2,when,L1,unsyncopated,when,when,35,Online_whenL1//b.ta21.1998.wav,fa,be,la,sil,zu,cho,fo,sil1,ni,ta,sil2,['miss'],,,1.998,no_beat,,,,ta,1,,,,,,,,,,,,,,,4,3,Catalán,0,Castellano,0,Inglés,1,Alemán,13,5,6,yes,no,yes,Flauta dulce,10,,,  ,59.0,yes
164,2024-02-27_19h20.58.800,Unsyncopated_study3,s131,18,feminino,right,España,Castellano y catalán,Bachelor degree,no,no,A,2,when,L1,unsyncopated,when,when,36,Online_whenL1//c.ro13.none.wav,ne,lu,be,sil,fo,ki,ri,sil1,ni,cho,sil2,['-'],,,none,none,,,,ro,3,,,,,,,,,,,,,,,4,3,Catalán,0,Castellano,0,Inglés,1,Alemán,13,5,6,yes,no,yes,Flauta dulce,10,,,  ,59.0,yes
165,2024-02-27_19h20.58.800,Unsyncopated_study3,s131,18,feminino,right,España,Castellano y catalán,Bachelor degree,no,no,A,2,when,L1,unsyncopated,when,when,37,Online_whenL1//c.ro15.0.wav,ro,ne,zu,sil,la,ri,pu,sil1,ki,ni,sil2,['catch'],[1.0609999999999218],[1.0609999999999218],0,beat,1.061,1.061,"[""space""]",ro,3,,,,,,,,,,,,,,,4,3,Catalán,0,Castellano,0,Inglés,1,Alemán,13,5,6,yes,no,yes,Flauta dulce,10,,,  ,59.0,yes
166,2024-02-27_19h20.58.800,Unsyncopated_study3,s131,18,feminino,right,España,Castellano y catalán,Bachelor degree,no,no,A,2,when,L1,unsyncopated,when,when,38,Online_whenL1//c.ro12.444.wav,fa,la,ro,sil,ze,be,ki,sil1,fo,ni,sil2,['catch'],[1.2545999999642845],[1.2545999999642845],0.444,no_beat,0.8106,0.8106,"[""space""]",ro,3,,,,,,,,,,,,,,,4,3,Catalán,0,Castellano,0,Inglés,1,Alemán,13,5,6,yes,no,yes,Flauta dulce,10,,,  ,59.0,yes
167,2024-02-27_19h20.58.800,Unsyncopated_study3,s131,18,feminino,right,España,Castellano y catalán,Bachelor degree,no,no,A,2,when,L1,unsyncopated,when,when,39,Online_whenL1//c.ro14.none.wav,zu,ki,fa,sil,pu,ni,lu,sil1,fo,la,sil2,['-'],,,none,none,,,,ro,3,,,,,,,,,,,,,,,4,3,Catalán,0,Castellano,0,Inglés,1,Alemán,13,5,6,yes,no,yes,Flauta dulce,10,,,  ,59.0,yes
168,2024-02-27_19h20.58.800,Unsyncopated_study3,s131,18,feminino,right,España,Castellano y catalán,Bachelor degree,no,no,A,2,when,L1,unsyncopated,when,when,40,Online_whenL1//d.ne21.1332.wav,la,ro,ki,sil,cho,fo,ne,sil1,ta,ni,sil2,['catch'],[2.1078000000120483],[2.1078000000120483],1.332,no_beat,0.7758,0.7758,"[""space""]",ne,4,,,,,,,,,,,,,,,4,3,Catalán,0,Castellano,0,Inglés,1,Alemán,13,5,6,yes,no,yes,Flauta dulce,10,,,  ,59.0,yes
169,2024-02-27_19h20.58.800,Unsyncopated_study3,s131,18,feminino,right,España,Castellano y catalán,Bachelor degree,no,no,A,2,when,L1,unsyncopated,when,when,41,Online_whenL1//d.ne23.none.wav,be,ni,cho,sil,ri,ro,fo,sil1,la,ki,sil2,['-'],,,none,none,,,,ne,4,,,,,,,,,,,,,,,4,3,Catalán,0,Castellano,0,Inglés,1,Alemán,13,5,6,yes,no,yes,Flauta dulce,10,,,  ,59.0,yes
170,2024-02-27_19h20.58.800,Unsyncopated_study3,s131,18,feminino,right,España,Castellano y catalán,Bachelor degree,no,no,A,2,when,L1,unsyncopated,when,when,42,Online_whenL1//d.ne20.1110.wav,fa,ki,cho,sil,pu,ne,zu,sil1,la,ro,sil2,['miss'],,,1.11,no_beat,,,,ne,4,,,,,,,,,,,,,,,4,3,Catalán,0,Castellano,0,Inglés,1,Alemán,13,5,6,yes,no,yes,Flauta dulce,10,,,  ,59.0,yes
171,2024-02-27_19h20.58.800,Unsyncopated_study3,s131,18,feminino,right,España,Castellano y catalán,Bachelor degree,no,no,A,2,when,L1,unsyncopated,when,when,43,Online_whenL1//d.ne22.none.wav,ni,ki,pu,sil,ro,la,cho,sil1,fa,ri,sil2,['-'],,,none,none,,,,ne,4,,,,,,,,,,,,,,,4,3,Catalán,0,Castellano,0,Inglés,1,Alemán,13,5,6,yes,no,yes,Flauta dulce,10,,,  ,59.0,yes
172,2024-02-27_19h20.58.800,Unsyncopated_study3,s131,18,feminino,right,España,Castellano y catalán,Bachelor degree,no,no,A,2,when,L1,unsyncopated,when,when,44,Online_whenL1//b.ta31.none.wav,pu,lu,zu,sil,cho,la,ki,sil1,fa,ro,sil2,['-'],,,none,none,,,,ta,1,,,,,,,,,,,,,,,4,3,Catalán,0,Castellano,0,Inglés,1,Alemán,13,5,6,yes,no,yes,Flauta dulce,10,,,  ,59.0,yes
173,2024-02-27_19h20.58.800,Unsyncopated_study3,s131,18,feminino,right,España,Castellano y catalán,Bachelor degree,no,no,A,2,when,L1,unsyncopated,when,when,45,Online_whenL1//b.ta29.none.wav,ri,ki,cho,sil,lu,zu,ze,sil1,fo,pu,sil2,['-'],,,none,none,,,,ta,1,,,,,,,,,,,,,,,4,3,Catalán,0,Castellano,0,Inglés,1,Alemán,13,5,6,yes,no,yes,Flauta dulce,10,,,  ,59.0,yes
174,2024-02-27_19h20.58.800,Unsyncopated_study3,s131,18,feminino,right,España,Castellano y catalán,Bachelor degree,no,no,A,2,when,L1,unsyncopated,when,when,46,Online_whenL1//b.ta28.222.wav,la,ta,lu,sil,fo,ni,ro,sil1,ki,cho,sil2,['catch'],[0.95980000001191],[0.95980000001191],0.222,no_beat,0.7378,0.7378,"[""space""]",ta,1,,,,,,,,,,,,,,,4,3,Catalán,0,Castellano,0,Inglés,1,Alemán,13,5,6,yes,no,yes,Flauta dulce,10,,,  ,59.0,yes
175,2024-02-27_19h20.58.800,Unsyncopated_study3,s131,18,feminino,right,España,Castellano y catalán,Bachelor degree,no,no,A,2,when,L1,unsyncopated,when,when,47,Online_whenL1//b.ta30.444.wav,lu,ze,ta,sil,ne,ni,fo,sil1,la,be,sil2,['catch'],[1.1639999999999873],[1.1639999999999873],0.444,no_beat,0.72,0.72,"[""space""]",ta,1,,,,,,,,,,,,,,,4,3,Catalán,0,Castellano,0,Inglés,1,Alemán,13,5,6,yes,no,yes,Flauta dulce,10,,,  ,59.0,yes
176,2024-02-27_19h20.58.800,Unsyncopated_study3,s131,18,feminino,right,España,Castellano y catalán,Bachelor degree,no,no,A,2,when,L1,unsyncopated,when,when,48,Online_whenL1//d.ne0.1110.wav,ze,fa,fo,sil,pu,ne,ta,sil1,la,ni,sil2,['catch'],[1.8640000000000327],[1.8640000000000327],1.11,no_beat,0.754,0.754,"[""space""]",ne,4,,,,,,,,,,,,,,,4,3,Catalán,0,Castellano,0,Inglés,1,Alemán,13,5,6,yes,no,yes,Flauta dulce,10,,,  ,59.0,yes
177,2024-02-27_19h20.58.800,Unsyncopated_study3,s131,18,feminino,right,España,Castellano y catalán,Bachelor degree,no,no,A,2,when,L1,unsyncopated,when,when,49,Online_whenL1//d.ne1.none.wav,pu,zu,fo,sil,ze,fa,ni,sil1,ta,lu,sil2,['-'],,,none,none,,,,ne,4,,,,,,,,,,,,,,,4,3,Catalán,0,Castellano,0,Inglés,1,Alemán,13,5,6,yes,no,yes,Flauta dulce,10,,,  ,59.0,yes
178,2024-02-27_19h20.58.800,Unsyncopated_study3,s131,18,feminino,right,España,Castellano y catalán,Bachelor degree,no,no,A,2,when,L1,unsyncopated,when,when,50,Online_whenL1//d.ne2.none.wav,lu,ze,ni,sil,pu,la,ri,sil1,ki,zu,sil2,['-'],,,none,none,,,,ne,4,,,,,,,,,,,,,,,4,3,Catalán,0,Castellano,0,Inglés,1,Alemán,13,5,6,yes,no,yes,Flauta dulce,10,,,  ,59.0,yes
179,2024-02-27_19h20.58.800,Unsyncopated_study3,s131,18,feminino,right,España,Castellano y catalán,Bachelor degree,no,no,A,2,when,L1,unsyncopated,when,when,51,Online_whenL1//d.ne3.none.wav,fo,la,be,sil,pu,fa,ni,sil1,lu,cho,sil2,['false alarm'],[2.501499999999851],[2.501499999999851],none,none,,,"[""space""]",ne,4,,,,,,,,,,,,,,,4,3,Catalán,0,Castellano,0,Inglés,1,Alemán,13,5,6,yes,no,yes,Flauta dulce,10,,,  ,59.0,yes
180,2024-02-27_19h20.58.800,Unsyncopated_study3,s131,18,feminino,right,España,Castellano y catalán,Bachelor degree,no,no,A,2,when,L1,unsyncopated,when,when,52,Online_whenL1//a.ki35.none.wav,ne,la,fo,sil,cho,ta,ni,sil1,ri,be,sil2,['-'],,,none,none,,,,ki,2,,,,,,,,,,,,,,,4,3,Catalán,0,Castellano,0,Inglés,1,Alemán,13,5,6,yes,no,yes,Flauta dulce,10,,,  ,59.0,yes
181,2024-02-27_19h20.58.800,Unsyncopated_study3,s131,18,feminino,right,España,Castellano y catalán,Bachelor degree,no,no,A,2,when,L1,unsyncopated,when,when,53,Online_whenL1//a.ki33.1332.wav,fa,be,ne,sil,la,ni,ki,sil1,ro,zu,sil2,['catch'],[1.9373000000118736],[1.9373000000118736],1.332,no_beat,0.6053,0.6053,"[""space""]",ki,2,,,,,,,,,,,,,,,4,3,Catalán,0,Castellano,0,Inglés,1,Alemán,13,5,6,yes,no,yes,Flauta dulce,10,,,  ,59.0,yes
182,2024-02-27_19h20.58.800,Unsyncopated_study3,s131,18,feminino,right,España,Castellano y catalán,Bachelor degree,no,no,A,2,when,L1,unsyncopated,when,when,54,Online_whenL1//a.ki32.1110.wav,cho,ro,ne,sil,ri,ki,zu,sil1,ze,be,sil2,['catch'],[1.8863000000119428],[1.8863000000119428],1.11,no_beat,0.7763,0.7763,"[""space""]",ki,2,,,,,,,,,,,,,,,4,3,Catalán,0,Castellano,0,Inglés,1,Alemán,13,5,6,yes,no,yes,Flauta dulce,10,,,  ,59.0,yes
183,2024-02-27_19h20.58.800,Unsyncopated_study3,s131,18,feminino,right,España,Castellano y catalán,Bachelor degree,no,no,A,2,when,L1,unsyncopated,when,when,55,Online_whenL1//a.ki34.none.wav,ni,be,ro,sil,fo,cho,pu,sil1,ri,ze,sil2,['-'],,,none,none,,,,ki,2,,,,,,,,,,,,,,,4,3,Catalán,0,Castellano,0,Inglés,1,Alemán,13,5,6,yes,no,yes,Flauta dulce,10,,,  ,59.0,yes
184,2024-02-27_19h20.58.800,Unsyncopated_study3,s131,18,feminino,right,España,Castellano y catalán,Bachelor degree,no,no,A,2,when,L1,unsyncopated,when,when,56,Online_whenL1//a.ki5.none.wav,fo,be,lu,sil,ze,ro,cho,sil1,ta,zu,sil2,['-'],,,none,none,,,,ki,2,,,,,,,,,,,,,,,4,3,Catalán,0,Castellano,0,Inglés,1,Alemán,13,5,6,yes,no,yes,Flauta dulce,10,,,  ,59.0,yes
185,2024-02-27_19h20.58.800,Unsyncopated_study3,s131,18,feminino,right,España,Castellano y catalán,Bachelor degree,no,no,A,2,when,L1,unsyncopated,when,when,57,Online_whenL1//a.ki4.222.wav,fa,ki,zu,sil,ni,ta,lu,sil1,ro,ri,sil2,['catch'],[0.9263999999761836],[0.9263999999761836],0.222,no_beat,0.7044,0.7044,"[""space""]",ki,2,,,,,,,,,,,,,,,4,3,Catalán,0,Castellano,0,Inglés,1,Alemán,13,5,6,yes,no,yes,Flauta dulce,10,,,  ,59.0,yes
186,2024-02-27_19h20.58.800,Unsyncopated_study3,s131,18,feminino,right,España,Castellano y catalán,Bachelor degree,no,no,A,2,when,L1,unsyncopated,when,when,58,Online_whenL1//a.ki7.none.wav,cho,ro,ri,sil,pu,zu,fa,sil1,ni,be,sil2,['-'],,,none,none,,,,ki,2,,,,,,,,,,,,,,,4,3,Catalán,0,Castellano,0,Inglés,1,Alemán,13,5,6,yes,no,yes,Flauta dulce,10,,,  ,59.0,yes
187,2024-02-27_19h20.58.800,Unsyncopated_study3,s131,18,feminino,right,España,Castellano y catalán,Bachelor degree,no,no,A,2,when,L1,unsyncopated,when,when,59,Online_whenL1//a.ki6.none.wav,la,ri,ni,sil,pu,ro,ne,sil1,be,zu,sil2,['-'],,,none,none,,,,ki,2,,,,,,,,,,,,,,,4,3,Catalán,0,Castellano,0,Inglés,1,Alemán,13,5,6,yes,no,yes,Flauta dulce,10,,,  ,59.0,yes
188,2024-02-27_19h20.58.800,Unsyncopated_study3,s131,18,feminino,right,España,Castellano y catalán,Bachelor degree,no,no,A,2,when,L1,unsyncopated,when,when,60,Online_whenL1//d.ne8.none.wav,lu,ni,la,sil,ro,ri,fa,sil1,ta,pu,sil2,['-'],,,none,none,,,,ne,4,,,,,,,,,,,,,,,4,3,Catalán,0,Castellano,0,Inglés,1,Alemán,13,5,6,yes,no,yes,Flauta dulce,10,,,  ,59.0,yes
189,2024-02-27_19h20.58.800,Unsyncopated_study3,s131,18,feminino,right,España,Castellano y catalán,Bachelor degree,no,no,A,2,when,L1,unsyncopated,when,when,61,Online_whenL1//d.ne11.0.wav,ne,cho,la,sil,lu,ta,pu,sil1,fa,ze,sil2,['miss'],,,0,beat,,,,ne,4,,,,,,,,,,,,,,,4,3,Catalán,0,Castellano,0,Inglés,1,Alemán,13,5,6,yes,no,yes,Flauta dulce,10,,,  ,59.0,yes
190,2024-02-27_19h20.58.800,Unsyncopated_study3,s131,18,feminino,right,España,Castellano y catalán,Bachelor degree,no,no,A,2,when,L1,unsyncopated,when,when,62,Online_whenL1//d.ne9.none.wav,lu,be,pu,sil,fa,cho,zu,sil1,la,fo,sil2,['-'],,,none,none,,,,ne,4,,,,,,,,,,,,,,,4,3,Catalán,0,Castellano,0,Inglés,1,Alemán,13,5,6,yes,no,yes,Flauta dulce,10,,,  ,59.0,yes
191,2024-02-27_19h20.58.800,Unsyncopated_study3,s131,18,feminino,right,España,Castellano y catalán,Bachelor degree,no,no,A,2,when,L1,unsyncopated,when,when,63,Online_whenL1//d.ne10.222.wav,ki,ne,fa,sil,be,zu,lu,sil1,la,cho,sil2,['catch'],[1.0402999999523672],[1.0402999999523672],0.222,no_beat,0.8183,0.8183,"[""space""]",ne,4,,,,,,,,,,,,,,,4,3,Catalán,0,Castellano,0,Inglés,1,Alemán,13,5,6,yes,no,yes,Flauta dulce,10,,,  ,59.0,yes
192,2024-02-27_19h20.58.800,Unsyncopated_study3,s131,18,feminino,right,España,Castellano y catalán,Bachelor degree,no,no,A,2,when,L1,unsyncopated,when,when,64,Online_whenL1//b.ta33.none.wav,ro,cho,be,sil,la,pu,ri,sil1,lu,zu,sil2,['-'],,,none,none,,,,ta,1,,,,,,,,,,,,,,,4,3,Catalán,0,Castellano,0,Inglés,1,Alemán,13,5,6,yes,no,yes,Flauta dulce,10,,,  ,59.0,yes
193,2024-02-27_19h20.58.800,Unsyncopated_study3,s131,18,feminino,right,España,Castellano y catalán,Bachelor degree,no,no,A,2,when,L1,unsyncopated,when,when,65,Online_whenL1//b.ta35.222.wav,fa,ta,ze,sil,fo,lu,ro,sil1,ni,be,sil2,['catch'],[1.0549000000357864],[1.0549000000357864],0.222,no_beat,0.8329,0.8329,"[""space""]",ta,1,,,,,,,,,,,,,,,4,3,Catalán,0,Castellano,0,Inglés,1,Alemán,13,5,6,yes,no,yes,Flauta dulce,10,,,  ,59.0,yes
194,2024-02-27_19h20.58.800,Unsyncopated_study3,s131,18,feminino,right,España,Castellano y catalán,Bachelor degree,no,no,A,2,when,L1,unsyncopated,when,when,66,Online_whenL1//b.ta34.1110.wav,be,cho,la,sil,ro,ta,fo,sil1,lu,ni,sil2,['catch'],[2.1085999999643263],[2.1085999999643263],1.11,no_beat,0.9986,0.9986,"[""space""]",ta,1,,,,,,,,,,,,,,,4,3,Catalán,0,Castellano,0,Inglés,1,Alemán,13,5,6,yes,no,yes,Flauta dulce,10,,,  ,59.0,yes
195,2024-02-27_19h20.58.800,Unsyncopated_study3,s131,18,feminino,right,España,Castellano y catalán,Bachelor degree,no,no,A,2,when,L1,unsyncopated,when,when,67,Online_whenL1//b.ta32.none.wav,ki,ni,fo,sil,lu,zu,cho,sil1,be,ri,sil2,['-'],,,none,none,,,,ta,1,,,,,,,,,,,,,,,4,3,Catalán,0,Castellano,0,Inglés,1,Alemán,13,5,6,yes,no,yes,Flauta dulce,10,,,  ,59.0,yes
196,2024-02-27_19h20.58.800,Unsyncopated_study3,s131,18,feminino,right,España,Castellano y catalán,Bachelor degree,no,no,A,2,when,L1,unsyncopated,when,when,68,Online_whenL1//d.ne7.none.wav,ri,lu,ki,sil,zu,ni,ta,sil1,cho,ro,sil2,['-'],,,none,none,,,,ne,4,,,,,,,,,,,,,,,4,3,Catalán,0,Castellano,0,Inglés,1,Alemán,13,5,6,yes,no,yes,Flauta dulce,10,,,  ,59.0,yes
197,2024-02-27_19h20.58.800,Unsyncopated_study3,s131,18,feminino,right,España,Castellano y catalán,Bachelor degree,no,no,A,2,when,L1,unsyncopated,when,when,69,Online_whenL1//d.ne6.444.wav,fo,pu,ne,sil,cho,ro,lu,sil1,ki,zu,sil2,['catch'],[1.2051000000237764],[1.2051000000237764],0.444,no_beat,0.7611,0.7611,"[""space""]",ne,4,,,,,,,,,,,,,,,4,3,Catalán,0,Castellano,0,Inglés,1,Alemán,13,5,6,yes,no,yes,Flauta dulce,10,,,  ,59.0,yes
198,2024-02-27_19h20.58.800,Unsyncopated_study3,s131,18,feminino,right,España,Castellano y catalán,Bachelor degree,no,no,A,2,when,L1,unsyncopated,when,when,70,Online_whenL1//d.ne4.1998.wav,fo,ki,ta,sil,ri,cho,zu,sil1,ni,ne,sil2,['miss'],,,1.998,no_beat,,,,ne,4,,,,,,,,,,,,,,,4,3,Catalán,0,Castellano,0,Inglés,1,Alemán,13,5,6,yes,no,yes,Flauta dulce,10,,,  ,59.0,yes
199,2024-02-27_19h20.58.800,Unsyncopated_study3,s131,18,feminino,right,España,Castellano y catalán,Bachelor degree,no,no,A,2,when,L1,unsyncopated,when,when,71,Online_whenL1//d.ne5.none.wav,zu,ta,lu,sil,la,ni,ri,sil1,fa,be,sil2,['-'],,,none,none,,,,ne,4,,,,,,,,,,,,,,,4,3,Catalán,0,Castellano,0,Inglés,1,Alemán,13,5,6,yes,no,yes,Flauta dulce,10,,,  ,59.0,yes
200,2024-02-27_19h20.58.800,Unsyncopated_study3,s131,18,feminino,right,España,Castellano y catalán,Bachelor degree,no,no,A,2,when,L1,unsyncopated,when,when,72,Online_whenL1//b.ta24.1998.wav,ro,lu,ki,sil,cho,ne,ri,sil1,ni,ta,sil2,['miss'],,,1.998,no_beat,,,,ta,1,,,,,,,,,,,,,,,4,3,Catalán,0,Castellano,0,Inglés,1,Alemán,13,5,6,yes,no,yes,Flauta dulce,10,,,  ,59.0,yes
201,2024-02-27_19h20.58.800,Unsyncopated_study3,s131,18,feminino,right,España,Castellano y catalán,Bachelor degree,no,no,A,2,when,L1,unsyncopated,when,when,73,Online_whenL1//b.ta27.none.wav,be,fa,cho,sil,pu,ze,ni,sil1,lu,zu,sil2,['-'],,,none,none,,,,ta,1,,,,,,,,,,,,,,,4,3,Catalán,0,Castellano,0,Inglés,1,Alemán,13,5,6,yes,no,yes,Flauta dulce,10,,,  ,59.0,yes
202,2024-02-27_19h20.58.800,Unsyncopated_study3,s131,18,feminino,right,España,Castellano y catalán,Bachelor degree,no,no,A,2,when,L1,unsyncopated,when,when,74,Online_whenL1//b.ta26.888.wav,zu,la,be,sil,ta,ro,cho,sil1,fo,ne,sil2,['catch'],[1.6714999999999236],[1.6714999999999236],0.888,beat,0.7835,0.7835,"[""space""]",ta,1,,,,,,,,,,,,,,,4,3,Catalán,0,Castellano,0,Inglés,1,Alemán,13,5,6,yes,no,yes,Flauta dulce,10,,,  ,59.0,yes
203,2024-02-27_19h20.58.800,Unsyncopated_study3,s131,18,feminino,right,España,Castellano y catalán,Bachelor degree,no,no,A,2,when,L1,unsyncopated,when,when,75,Online_whenL1//b.ta25.0.wav,ta,ne,ro,sil,fo,be,lu,sil1,zu,fa,sil2,['catch'],[0.9053000000117208],[0.9053000000117208],0,beat,0.9053,0.9053,"[""space""]",ta,1,,,,,,,,,,,,,,,4,3,Catalán,0,Castellano,0,Inglés,1,Alemán,13,5,6,yes,no,yes,Flauta dulce,10,,,  ,59.0,yes
204,2024-02-27_19h20.58.800,Unsyncopated_study3,s131,18,feminino,right,España,Castellano y catalán,Bachelor degree,no,no,A,2,when,L1,unsyncopated,when,when,76,Online_whenL1//b.ta10.none.wav,lu,ro,la,sil,be,ze,ki,sil1,fo,ne,sil2,['-'],,,none,none,,,,ta,1,,,,,,,,,,,,,,,4,3,Catalán,0,Castellano,0,Inglés,1,Alemán,13,5,6,yes,no,yes,Flauta dulce,10,,,  ,59.0,yes
205,2024-02-27_19h20.58.800,Unsyncopated_study3,s131,18,feminino,right,España,Castellano y catalán,Bachelor degree,no,no,A,2,when,L1,unsyncopated,when,when,77,Online_whenL1//b.ta9.0.wav,ta,ri,ni,sil,ki,ro,ze,sil1,lu,la,sil2,['catch'],[0.7719000000358847],[0.7719000000358847],0,beat,0.7719,0.7719,"[""space""]",ta,1,,,,,,,,,,,,,,,4,3,Catalán,0,Castellano,0,Inglés,1,Alemán,13,5,6,yes,no,yes,Flauta dulce,10,,,  ,59.0,yes
206,2024-02-27_19h20.58.800,Unsyncopated_study3,s131,18,feminino,right,España,Castellano y catalán,Bachelor degree,no,no,A,2,when,L1,unsyncopated,when,when,78,Online_whenL1//b.ta11.none.wav,cho,pu,ri,sil,ro,zu,lu,sil1,ki,fa,sil2,['-'],,,none,none,,,,ta,1,,,,,,,,,,,,,,,4,3,Catalán,0,Castellano,0,Inglés,1,Alemán,13,5,6,yes,no,yes,Flauta dulce,10,,,  ,59.0,yes
207,2024-02-27_19h20.58.800,Unsyncopated_study3,s131,18,feminino,right,España,Castellano y catalán,Bachelor degree,no,no,A,2,when,L1,unsyncopated,when,when,79,Online_whenL1//b.ta8.0.wav,ta,ki,lu,sil,cho,ne,ro,sil1,fo,ri,sil2,['catch'],[0.45390000003590103],[0.45390000003590103],0,beat,0.4539,0.4539,"[""space""]",ta,1,,,,,,,,,,,,,,,4,3,Catalán,0,Castellano,0,Inglés,1,Alemán,13,5,6,yes,no,yes,Flauta dulce,10,,,  ,59.0,yes
208,2024-02-27_19h20.58.800,Unsyncopated_study3,s131,18,feminino,right,España,Castellano y catalán,Bachelor degree,no,no,A,2,when,L1,unsyncopated,when,when,80,Online_whenL1//b.ta2.1332.wav,zu,ni,pu,sil,ri,ne,ta,sil1,ze,fa,sil2,['catch'],[2.1333000000117863],[2.1333000000117863],1.332,no_beat,0.8013,0.8013,"[""space""]",ta,1,,,,,,,,,,,,,,,4,3,Catalán,0,Castellano,0,Inglés,1,Alemán,13,5,6,yes,no,yes,Flauta dulce,10,,,  ,59.0,yes
209,2024-02-27_19h20.58.800,Unsyncopated_study3,s131,18,feminino,right,España,Castellano y catalán,Bachelor degree,no,no,A,2,when,L1,unsyncopated,when,when,81,Online_whenL1//b.ta0.none.wav,ri,lu,ze,sil,zu,la,pu,sil1,cho,be,sil2,['-'],,,none,none,,,,ta,1,,,,,,,,,,,,,,,4,3,Catalán,0,Castellano,0,Inglés,1,Alemán,13,5,6,yes,no,yes,Flauta dulce,10,,,  ,59.0,yes
210,2024-02-27_19h20.58.800,Unsyncopated_study3,s131,18,feminino,right,España,Castellano y catalán,Bachelor degree,no,no,A,2,when,L1,unsyncopated,when,when,82,Online_whenL1//b.ta3.222.wav,ri,ta,fo,sil,ro,ni,pu,sil1,zu,ne,sil2,['catch'],[1.112699999988081],[1.112699999988081],0.222,no_beat,0.8907,0.8907,"[""space""]",ta,1,,,,,,,,,,,,,,,4,3,Catalán,0,Castellano,0,Inglés,1,Alemán,13,5,6,yes,no,yes,Flauta dulce,10,,,  ,59.0,yes
211,2024-02-27_19h20.58.800,Unsyncopated_study3,s131,18,feminino,right,España,Castellano y catalán,Bachelor degree,no,no,A,2,when,L1,unsyncopated,when,when,83,Online_whenL1//b.ta1.none.wav,ki,cho,fa,sil,ne,ze,ri,sil1,be,la,sil2,['-'],,,none,none,,,,ta,1,,,,,,,,,,,,,,,4,3,Catalán,0,Castellano,0,Inglés,1,Alemán,13,5,6,yes,no,yes,Flauta dulce,10,,,  ,59.0,yes
212,2024-02-27_19h20.58.800,Unsyncopated_study3,s131,18,feminino,right,España,Castellano y catalán,Bachelor degree,no,no,A,2,when,L1,unsyncopated,when,when,84,Online_whenL1//c.ro28.none.wav,fo,fa,ki,sil,ri,ze,zu,sil1,be,ne,sil2,['-'],,,none,none,,,,ro,3,,,,,,,,,,,,,,,4,3,Catalán,0,Castellano,0,Inglés,1,Alemán,13,5,6,yes,no,yes,Flauta dulce,10,,,  ,59.0,yes
213,2024-02-27_19h20.58.800,Unsyncopated_study3,s131,18,feminino,right,España,Castellano y catalán,Bachelor degree,no,no,A,2,when,L1,unsyncopated,when,when,85,Online_whenL1//c.ro31.none.wav,ni,ze,fo,sil,ne,zu,pu,sil1,ta,la,sil2,['-'],,,none,none,,,,ro,3,,,,,,,,,,,,,,,4,3,Catalán,0,Castellano,0,Inglés,1,Alemán,13,5,6,yes,no,yes,Flauta dulce,10,,,  ,59.0,yes
214,2024-02-27_19h20.58.800,Unsyncopated_study3,s131,18,feminino,right,España,Castellano y catalán,Bachelor degree,no,no,A,2,when,L1,unsyncopated,when,when,86,Online_whenL1//c.ro30.0.wav,ro,ze,zu,sil,ki,be,lu,sil1,fo,ni,sil2,['catch'],[0.7394999999999072],[0.7394999999999072],0,beat,0.7395,0.7395,"[""space""]",ro,3,,,,,,,,,,,,,,,4,3,Catalán,0,Castellano,0,Inglés,1,Alemán,13,5,6,yes,no,yes,Flauta dulce,10,,,  ,59.0,yes
215,2024-02-27_19h20.58.800,Unsyncopated_study3,s131,18,feminino,right,España,Castellano y catalán,Bachelor degree,no,no,A,2,when,L1,unsyncopated,when,when,87,Online_whenL1//c.ro29.none.wav,fa,ne,cho,sil,fo,ki,ta,sil1,ze,la,sil2,['-'],,,none,none,,,,ro,3,,,,,,,,,,,,,,,4,3,Catalán,0,Castellano,0,Inglés,1,Alemán,13,5,6,yes,no,yes,Flauta dulce,10,,,  ,59.0,yes
216,2024-02-27_19h20.58.800,Unsyncopated_study3,s131,18,feminino,right,España,Castellano y catalán,Bachelor degree,no,no,A,2,when,L1,unsyncopated,when,when,88,Online_whenL1//d.ne15.444.wav,be,la,ne,sil,fo,pu,ro,sil1,fa,lu,sil2,['catch'],[1.196999999999889],[1.196999999999889],0.444,no_beat,0.753,0.753,"[""space""]",ne,4,,,,,,,,,,,,,,,4,3,Catalán,0,Castellano,0,Inglés,1,Alemán,13,5,6,yes,no,yes,Flauta dulce,10,,,  ,59.0,yes
217,2024-02-27_19h20.58.800,Unsyncopated_study3,s131,18,feminino,right,España,Castellano y catalán,Bachelor degree,no,no,A,2,when,L1,unsyncopated,when,when,89,Online_whenL1//d.ne14.none.wav,ro,lu,cho,sil,ni,pu,ri,sil1,be,zu,sil2,['-'],,,none,none,,,,ne,4,,,,,,,,,,,,,,,4,3,Catalán,0,Castellano,0,Inglés,1,Alemán,13,5,6,yes,no,yes,Flauta dulce,10,,,  ,59.0,yes
218,2024-02-27_19h20.58.800,Unsyncopated_study3,s131,18,feminino,right,España,Castellano y catalán,Bachelor degree,no,no,A,2,when,L1,unsyncopated,when,when,90,Online_whenL1//d.ne12.888.wav,fo,be,zu,sil,ne,ro,ze,sil1,ni,ta,sil2,['miss'],,,0.888,beat,,,,ne,4,,,,,,,,,,,,,,,4,3,Catalán,0,Castellano,0,Inglés,1,Alemán,13,5,6,yes,no,yes,Flauta dulce,10,,,  ,59.0,yes
219,2024-02-27_19h20.58.800,Unsyncopated_study3,s131,18,feminino,right,España,Castellano y catalán,Bachelor degree,no,no,A,2,when,L1,unsyncopated,when,when,91,Online_whenL1//d.ne13.none.wav,ro,cho,fa,sil,lu,ki,ze,sil1,be,fo,sil2,['-'],,,none,none,,,,ne,4,,,,,,,,,,,,,,,4,3,Catalán,0,Castellano,0,Inglés,1,Alemán,13,5,6,yes,no,yes,Flauta dulce,10,,,  ,59.0,yes
220,2024-02-27_19h20.58.800,Unsyncopated_study3,s131,18,feminino,right,España,Castellano y catalán,Bachelor degree,no,no,A,2,when,L1,unsyncopated,when,when,92,Online_whenL1//d.ne27.none.wav,ta,zu,ni,sil,lu,ri,fa,sil1,fo,be,sil2,['-'],,,none,none,,,,ne,4,,,,,,,,,,,,,,,4,3,Catalán,0,Castellano,0,Inglés,1,Alemán,13,5,6,yes,no,yes,Flauta dulce,10,,,  ,59.0,yes
221,2024-02-27_19h20.58.800,Unsyncopated_study3,s131,18,feminino,right,España,Castellano y catalán,Bachelor degree,no,no,A,2,when,L1,unsyncopated,when,when,93,Online_whenL1//d.ne25.none.wav,lu,la,ri,sil,ta,ni,zu,sil1,ze,ki,sil2,['-'],,,none,none,,,,ne,4,,,,,,,,,,,,,,,4,3,Catalán,0,Castellano,0,Inglés,1,Alemán,13,5,6,yes,no,yes,Flauta dulce,10,,,  ,59.0,yes
222,2024-02-27_19h20.58.800,Unsyncopated_study3,s131,18,feminino,right,España,Castellano y catalán,Bachelor degree,no,no,A,2,when,L1,unsyncopated,when,when,94,Online_whenL1//d.ne24.none.wav,ri,ze,cho,sil,pu,lu,fo,sil1,ki,ni,sil2,['-'],,,none,none,,,,ne,4,,,,,,,,,,,,,,,4,3,Catalán,0,Castellano,0,Inglés,1,Alemán,13,5,6,yes,no,yes,Flauta dulce,10,,,  ,59.0,yes
223,2024-02-27_19h20.58.800,Unsyncopated_study3,s131,18,feminino,right,España,Castellano y catalán,Bachelor degree,no,no,A,2,when,L1,unsyncopated,when,when,95,Online_whenL1//d.ne26.none.wav,fo,lu,be,sil,ro,ta,ri,sil1,fa,ni,sil2,['-'],,,none,none,,,,ne,4,,,,,,,,,,,,,,,4,3,Catalán,0,Castellano,0,Inglés,1,Alemán,13,5,6,yes,no,yes,Flauta dulce,10,,,  ,59.0,yes
224,2024-02-27_19h20.58.800,Unsyncopated_study3,s131,18,feminino,right,España,Castellano y catalán,Bachelor degree,no,no,A,2,when,L1,unsyncopated,when,when,96,Online_whenL1//a.ki16.888.wav,ni,ro,ta,sil,ki,lu,cho,sil1,fo,ri,sil2,['catch'],[1.7036000000239255],[1.7036000000239255],0.888,beat,0.8156,0.8156,"[""space""]",ki,2,,,,,,,,,,,,,,,4,3,Catalán,0,Castellano,0,Inglés,1,Alemán,13,5,6,yes,no,yes,Flauta dulce,10,,,  ,59.0,yes
