Unnamed: 0,date,expName,participant,age,sex,hand,residence,native_lang,education_level,lang_deficit,aud_deficit,group,block,condition,language,rhythm,rule structure online,rule type online,order_trial_on,trial_online,s1,s2,s3,s4,s5,s6,s7,s8,s9,s10,s11,catch_syll_resp,rts_syll_catch,clean_rts,time_syll,beat_no_beat,catch_rtsTR,catch_rts,syllable_catch.keys,cond_syll,syll_to_catch,test_offline,block_off,condition_off,rhythm_off,rule,rule_str_off,rule_norule,conds_offline,language_off,Partz_no_partm.keys,Partz_no_partm.rt,security_1_7.keys,accuracy,security_1_7.rt,n_lang,n_lang_used,lang_1,age_l1,lang_2,age_l2,lang_3,age_l3,ability_learn_l2,tendence_mix_lan,music_experience,muisc_use,partiture,instr_1,age_M1,preguntas_musica1,BMRQ_answer.response,final comment,BMRQ_Score,bilingual
0,2024-02-16_18h01.18.843,Unsyncopated_study2,s98,20.0,feminino,right,españa,Catalan y castellano,Bachelor degree,no,no,B,1,conjunction_syn,L1,syncopated,s2,r1,0,Online_conjL1_syn//d.ne.ni0.none.none.wav,lu,ze,zu,pu,sil,ro,ri,ki,sil1,la,sil2,['-'],,,none,none,,,,ni,4,testConjL1Syn//time_viol.r2.s1.0.wav,1.0,conjunction_syn,syncopated,b,s1,no_rule,time,L1,z,2.9505,5.0,0.0,11.5312,3.0,2.0,Castellano,0.0,Catalan,0.0,inglés,5.0,4.0,6.0,yes,no,no,Flauta,12,1. Cuando comparto música con alguien siento una complicidad especial con aquella persona.,3.0,Se ha hecho un poco repetitivo. No me ha dado tiempo a reaccionar de manera rápida en algunas ocasiones,75.0,yes
1,2024-02-16_18h01.18.843,Unsyncopated_study2,s98,20.0,feminino,right,españa,Catalan y castellano,Bachelor degree,no,no,B,1,conjunction_syn,L1,syncopated,s1,r1,1,Online_conjL1_syn//d.ne.ni3.none.none.wav,pu,fo,la,ki,sil,ro,lu,ri,sil1,cho,sil2,['-'],,,none,none,,,,ni,4,testConjL1Syn//time_viol.r2.s2.0.wav,1.0,conjunction_syn,syncopated,b,s2,no_rule,time,L1,z,2.1228,6.0,0.0,1.3957,3.0,2.0,Castellano,0.0,Catalan,0.0,inglés,5.0,4.0,6.0,yes,no,no,Flauta,12,2. En mi tiempo libre apenas escucho música.,5.0,Se ha hecho un poco repetitivo. No me ha dado tiempo a reaccionar de manera rápida en algunas ocasiones,75.0,yes
2,2024-02-16_18h01.18.843,Unsyncopated_study2,s98,20.0,feminino,right,españa,Catalan y castellano,Bachelor degree,no,no,B,1,conjunction_syn,L1,syncopated,s1,r1,2,Online_conjL1_syn//d.ne.ni1.222.1110.wav,pu,ne,ri,ki,sil,ni,la,ze,sil1,lu,sil2,"['false alarm', 'catch']","[0.7558999999762364, 1.704199999988191]",[1.704199999988191],1.11,no_beat,0.5941999999881908,0.5941999999881908,"[""space"",""space""]",ni,4,testConjL1Syn//r1.s2.0.wav,1.0,conjunction_syn,syncopated,a,s2,rule,rule,L1,z,2.3418,6.0,1.0,1.44,3.0,2.0,Castellano,0.0,Catalan,0.0,inglés,5.0,4.0,6.0,yes,no,no,Flauta,12,3. Algunas canciones me ponen los pelos de punta,4.0,Se ha hecho un poco repetitivo. No me ha dado tiempo a reaccionar de manera rápida en algunas ocasiones,75.0,yes
3,2024-02-16_18h01.18.843,Unsyncopated_study2,s98,20.0,feminino,right,españa,Catalan y castellano,Bachelor degree,no,no,B,1,conjunction_syn,L1,syncopated,s1,r2,3,Online_conjL1_syn//d.ne.ni2.222.1332.wav,ta,ne,lu,be,sil,ri,ni,cho,sil1,ze,sil2,['catch'],[1.754300000011881],[1.754300000011881],1.332,no_beat,0.4223000000118808,0.4223000000118808,"[""space""]",ni,4,testConjL1Syn//cat_viol.r1.s2.0.wav,1.0,conjunction_syn,syncopated,a,s2,no_rule,cat,L1,z,5.7732,4.0,0.0,2.3726,3.0,2.0,Castellano,0.0,Catalan,0.0,inglés,5.0,4.0,6.0,yes,no,no,Flauta,12,4. La música me hace compañía cuando estoy solo,4.0,Se ha hecho un poco repetitivo. No me ha dado tiempo a reaccionar de manera rápida en algunas ocasiones,75.0,yes
4,2024-02-16_18h01.18.843,Unsyncopated_study2,s98,20.0,feminino,right,españa,Catalan y castellano,Bachelor degree,no,no,B,1,conjunction_syn,L1,syncopated,s1,r2,4,Online_conjL1_syn//d.ne.ni28.none.none.wav,ta,lu,zu,be,sil,fa,la,ro,sil1,ri,sil2,['-'],,,none,none,,,,ni,4,testConjL1Syn//r2.s2.0.wav,1.0,conjunction_syn,syncopated,b,s2,rule,rule,L1,m,0.7321,5.0,0.0,1.6827,3.0,2.0,Castellano,0.0,Catalan,0.0,inglés,5.0,4.0,6.0,yes,no,no,Flauta,12,5. No me apetece bailar ni con la música que más me gusta,5.0,Se ha hecho un poco repetitivo. No me ha dado tiempo a reaccionar de manera rápida en algunas ocasiones,75.0,yes
5,2024-02-16_18h01.18.843,Unsyncopated_study2,s98,20.0,feminino,right,españa,Catalan y castellano,Bachelor degree,no,no,B,1,conjunction_syn,L1,syncopated,s2,r2,5,Online_conjL1_syn//d.ne.ni29.0.444.wav,ne,fa,ni,ta,sil,ri,zu,be,sil1,lu,sil2,['catch'],[0.49069999998812364],[0.49069999998812364],0.444,no_beat,0.0466999999881236,0.0466999999881236,"[""space""]",ni,4,testConjL1Syn//cat_viol.r2.s1.0.wav,1.0,conjunction_syn,syncopated,b,s1,no_rule,cat,L1,m,7.3008,5.0,1.0,1.0555,3.0,2.0,Castellano,0.0,Catalan,0.0,inglés,5.0,4.0,6.0,yes,no,no,Flauta,12,6. La música me hace conectar con la gente,4.0,Se ha hecho un poco repetitivo. No me ha dado tiempo a reaccionar de manera rápida en algunas ocasiones,75.0,yes
6,2024-02-16_18h01.18.843,Unsyncopated_study2,s98,20.0,feminino,right,españa,Catalan y castellano,Bachelor degree,no,no,B,1,conjunction_syn,L1,syncopated,s2,r1,6,Online_conjL1_syn//d.ne.ni31.0.1110.wav,ne,zu,fa,pu,sil,ni,lu,ki,sil1,ro,sil2,['catch'],[1.6211000000239437],[1.6211000000239437],1.11,no_beat,0.5111000000239436,0.5111000000239436,"[""space""]",ni,4,testConjL1Syn//r1.s1.1.wav,1.0,conjunction_syn,syncopated,a,s1,rule,rule,L1,m,4.7169,6.0,0.0,0.7029,3.0,2.0,Castellano,0.0,Catalan,0.0,inglés,5.0,4.0,6.0,yes,no,no,Flauta,12,7. Me informo sobre la música que me gusta.,2.0,Se ha hecho un poco repetitivo. No me ha dado tiempo a reaccionar de manera rápida en algunas ocasiones,75.0,yes
7,2024-02-16_18h01.18.843,Unsyncopated_study2,s98,20.0,feminino,right,españa,Catalan y castellano,Bachelor degree,no,no,B,1,conjunction_syn,L1,syncopated,s2,r2,7,Online_conjL1_syn//d.ne.ni30.222.1110.wav,fa,ne,lu,ta,sil,ni,ri,be,sil1,ze,sil2,['catch'],[1.6525000000000318],[1.6525000000000318],1.11,no_beat,0.5425000000000317,0.5425000000000317,"[""space""]",ni,4,testConjL1Syn//time_viol.r1.s1.0.wav,1.0,conjunction_syn,syncopated,a,s1,no_rule,time,L1,m,4.2412,6.0,1.0,0.5741,3.0,2.0,Castellano,0.0,Catalan,0.0,inglés,5.0,4.0,6.0,yes,no,no,Flauta,12,8.Me emociono escuchando ciertas canciones.,4.0,Se ha hecho un poco repetitivo. No me ha dado tiempo a reaccionar de manera rápida en algunas ocasiones,75.0,yes
8,2024-02-16_18h01.18.843,Unsyncopated_study2,s98,20.0,feminino,right,españa,Catalan y castellano,Bachelor degree,no,no,B,1,conjunction_syn,L1,syncopated,s2,r2,8,Online_conjL1_syn//b.ta.be19.666.1554.wav,fa,la,ni,ta,sil,cho,ne,be,sil1,ri,sil2,['miss'],,,1.554,no_beat,,,,be,2,testConjL1Syn//r1.s1.0.wav,1.0,conjunction_syn,syncopated,a,s1,rule,rule,L1,m,1.5688,6.0,0.0,1.91,3.0,2.0,Castellano,0.0,Catalan,0.0,inglés,5.0,4.0,6.0,yes,no,no,Flauta,12,9.La música me tranquiliza y me relaja.,4.0,Se ha hecho un poco repetitivo. No me ha dado tiempo a reaccionar de manera rápida en algunas ocasiones,75.0,yes
9,2024-02-16_18h01.18.843,Unsyncopated_study2,s98,20.0,feminino,right,españa,Catalan y castellano,Bachelor degree,no,no,B,1,conjunction_syn,L1,syncopated,s2,r1,9,Online_conjL1_syn//b.ta.be17.none.none.wav,zu,lu,ze,pu,sil,la,cho,ki,sil1,fa,sil2,['-'],,,none,none,,,,be,2,testConjL1Syn//r2.s1.0.wav,1.0,conjunction_syn,syncopated,b,s1,rule,rule,L1,m,2.2174,5.0,0.0,0.654,3.0,2.0,Castellano,0.0,Catalan,0.0,inglés,5.0,4.0,6.0,yes,no,no,Flauta,12,10.La música me hace bailar,4.0,Se ha hecho un poco repetitivo. No me ha dado tiempo a reaccionar de manera rápida en algunas ocasiones,75.0,yes
10,2024-02-16_18h01.18.843,Unsyncopated_study2,s98,20.0,feminino,right,españa,Catalan y castellano,Bachelor degree,no,no,B,1,conjunction_syn,L1,syncopated,s1,r1,10,Online_conjL1_syn//b.ta.be18.none.none.wav,pu,ni,zu,ki,sil,ne,la,ze,sil1,cho,sil2,['-'],,,none,none,,,,be,2,testConjL1Syn//r2.s1.2.wav,1.0,conjunction_syn,syncopated,b,s1,rule,rule,L1,m,2.6317,5.0,0.0,0.6484,3.0,2.0,Castellano,0.0,Catalan,0.0,inglés,5.0,4.0,6.0,yes,no,no,Flauta,12,11.Busco novedades musicales continuamente,3.0,Se ha hecho un poco repetitivo. No me ha dado tiempo a reaccionar de manera rápida en algunas ocasiones,75.0,yes
11,2024-02-16_18h01.18.843,Unsyncopated_study2,s98,20.0,feminino,right,españa,Catalan y castellano,Bachelor degree,no,no,B,1,conjunction_syn,L1,syncopated,s2,r2,11,Online_conjL1_syn//b.ta.be16.666.1554.wav,ro,ne,lu,ta,sil,la,ri,be,sil1,fo,sil2,['catch'],[1.987699999988081],[1.987699999988081],1.554,no_beat,0.4336999999880808,0.4336999999880808,"[""space""]",be,2,testConjL1Syn//cat_viol.r1.s1.0.wav,1.0,conjunction_syn,syncopated,a,s1,no_rule,cat,L1,z,2.9204,5.0,0.0,0.8355,3.0,2.0,Castellano,0.0,Catalan,0.0,inglés,5.0,4.0,6.0,yes,no,no,Flauta,12,12. Puedo llorar cuando escucho algunas melodías que me gustan mucho.,4.0,Se ha hecho un poco repetitivo. No me ha dado tiempo a reaccionar de manera rápida en algunas ocasiones,75.0,yes
12,2024-02-16_18h01.18.843,Unsyncopated_study2,s98,20.0,feminino,right,españa,Catalan y castellano,Bachelor degree,no,no,B,1,conjunction_syn,L1,syncopated,s2,r2,12,Online_conjL1_syn//a.pu.ki6.none.none.wav,ne,ni,la,ta,sil,zu,cho,be,sil1,ze,sil2,['-'],,,none,none,,,,pu,1,testConjL1Syn//r2.s1.1.wav,1.0,conjunction_syn,syncopated,b,s1,rule,rule,L1,m,3.2689,6.0,0.0,0.6157,3.0,2.0,Castellano,0.0,Catalan,0.0,inglés,5.0,4.0,6.0,yes,no,no,Flauta,12,13. Me gusta cantar o tocar un instrumento con más gente,3.0,Se ha hecho un poco repetitivo. No me ha dado tiempo a reaccionar de manera rápida en algunas ocasiones,75.0,yes
13,2024-02-16_18h01.18.843,Unsyncopated_study2,s98,20.0,feminino,right,españa,Catalan y castellano,Bachelor degree,no,no,B,1,conjunction_syn,L1,syncopated,s1,r1,13,Online_conjL1_syn//a.pu.ki5.0.666.wav,pu,ne,ro,ki,sil,cho,ri,fa,sil1,lu,sil2,['catch'],[0.3936000000238664],[0.3936000000238664],0.0,beat,0.3936000000238664,0.3936000000238664,"[""space""]",pu,1,testConjL1Syn//dep_viol.r1.s2.0.wav,1.0,conjunction_syn,syncopated,a,s2,no_rule,dep,L1,m,2.7248,5.0,1.0,0.7219,3.0,2.0,Castellano,0.0,Catalan,0.0,inglés,5.0,4.0,6.0,yes,no,no,Flauta,12,14. La música me ayuda a desconectar.,4.0,Se ha hecho un poco repetitivo. No me ha dado tiempo a reaccionar de manera rápida en algunas ocasiones,75.0,yes
14,2024-02-16_18h01.18.843,Unsyncopated_study2,s98,20.0,feminino,right,españa,Catalan y castellano,Bachelor degree,no,no,B,1,conjunction_syn,L1,syncopated,s1,r1,14,Online_conjL1_syn//a.pu.ki7.0.666.wav,pu,ri,zu,ki,sil,ne,ze,cho,sil1,la,sil2,['catch'],[0.42510000002380366],[0.42510000002380366],0.0,beat,0.4251000000238036,0.4251000000238036,"[""space""]",pu,1,testConjL1Syn//r1.s2.2.wav,1.0,conjunction_syn,syncopated,a,s2,rule,rule,L1,m,1.2402,6.0,0.0,0.4882,3.0,2.0,Castellano,0.0,Catalan,0.0,inglés,5.0,4.0,6.0,yes,no,no,Flauta,12,15. No puedo evitar tararear las canciones que me gustan cuando las escucho.,4.0,Se ha hecho un poco repetitivo. No me ha dado tiempo a reaccionar de manera rápida en algunas ocasiones,75.0,yes
15,2024-02-16_18h01.18.843,Unsyncopated_study2,s98,20.0,feminino,right,españa,Catalan y castellano,Bachelor degree,no,no,B,1,conjunction_syn,L1,syncopated,s1,r2,15,Online_conjL1_syn//a.pu.ki4.none.none.wav,ta,ze,ri,be,sil,zu,fo,ne,sil1,lu,sil2,['-'],,,none,none,,,,pu,1,testConjL1Syn//r1.s2.1.wav,1.0,conjunction_syn,syncopated,a,s2,rule,rule,L1,z,3.1005,5.0,1.0,1.101,3.0,2.0,Castellano,0.0,Catalan,0.0,inglés,5.0,4.0,6.0,yes,no,no,Flauta,12,16. En los conciertos me siento en sintonía con los artistas y el público.,4.0,Se ha hecho un poco repetitivo. No me ha dado tiempo a reaccionar de manera rápida en algunas ocasiones,75.0,yes
16,2024-02-16_18h01.18.843,Unsyncopated_study2,s98,20.0,feminino,right,españa,Catalan y castellano,Bachelor degree,no,no,B,1,conjunction_syn,L1,syncopated,s2,r1,16,Online_conjL1_syn//c.ro.fo20.none.none.wav,lu,ne,la,pu,sil,zu,cho,ki,sil1,ni,sil2,['false alarm'],[1.118299999952228],[1.118299999952228],none,none,,,"[""space""]",fo,3,testConjL1Syn//dep_viol.r2.s1.0.wav,1.0,conjunction_syn,syncopated,b,s1,no_rule,dep,L1,z,5.1492,5.0,0.0,1.4867,3.0,2.0,Castellano,0.0,Catalan,0.0,inglés,5.0,4.0,6.0,yes,no,no,Flauta,12,17. Me gasto bastante dinero en música y cosas relacionadas con la música.,2.0,Se ha hecho un poco repetitivo. No me ha dado tiempo a reaccionar de manera rápida en algunas ocasiones,75.0,yes
17,2024-02-16_18h01.18.843,Unsyncopated_study2,s98,20.0,feminino,right,españa,Catalan y castellano,Bachelor degree,no,no,B,1,conjunction_syn,L1,syncopated,s1,r2,17,Online_conjL1_syn//c.ro.fo23.1110.1332.wav,ta,ne,cho,be,sil,ro,fo,zu,sil1,ni,sil2,['catch'],[1.7039999999999509],[1.7039999999999509],1.332,no_beat,0.3719999999999508,0.3719999999999508,"[""space""]",fo,3,testConjL1Syn//dep_viol.r2.s2.0.wav,1.0,conjunction_syn,syncopated,b,s2,no_rule,dep,L1,z,4.6321,4.0,0.0,0.8569,3.0,2.0,Castellano,0.0,Catalan,0.0,inglés,5.0,4.0,6.0,yes,no,no,Flauta,12,18. Siento escalofríos cuando escucho una melodía que me gusta.,4.0,Se ha hecho un poco repetitivo. No me ha dado tiempo a reaccionar de manera rápida en algunas ocasiones,75.0,yes
18,2024-02-16_18h01.18.843,Unsyncopated_study2,s98,20.0,feminino,right,españa,Catalan y castellano,Bachelor degree,no,no,B,1,conjunction_syn,L1,syncopated,s1,r1,18,Online_conjL1_syn//c.ro.fo22.none.none.wav,pu,fa,cho,ki,sil,ne,la,ni,sil1,ze,sil2,['-'],,,none,none,,,,fo,3,testConjL1Syn//r2.s2.2.wav,1.0,conjunction_syn,syncopated,b,s2,rule,rule,L1,m,3.7862,5.0,0.0,0.6988,3.0,2.0,Castellano,0.0,Catalan,0.0,inglés,5.0,4.0,6.0,yes,no,no,Flauta,12,19. Con la música me puedo desahogar.,4.0,Se ha hecho un poco repetitivo. No me ha dado tiempo a reaccionar de manera rápida en algunas ocasiones,75.0,yes
19,2024-02-16_18h01.18.843,Unsyncopated_study2,s98,20.0,feminino,right,españa,Catalan y castellano,Bachelor degree,no,no,B,1,conjunction_syn,L1,syncopated,s2,r2,19,Online_conjL1_syn//c.ro.fo21.none.none.wav,ze,zu,la,ta,sil,ne,cho,be,sil1,ni,sil2,['false alarm'],[0.52699999999993],[0.52699999999993],none,none,,,"[""space""]",fo,3,testConjL1Syn//r2.s2.1.wav,1.0,conjunction_syn,syncopated,b,s2,rule,rule,L1,z,2.9712,5.0,1.0,0.7156,3.0,2.0,Castellano,0.0,Catalan,0.0,inglés,5.0,4.0,6.0,yes,no,no,Flauta,12,20. Cuando escucho una melodía que me gusta mucho no puedo evitar mover el cuerpo.,4.0,Se ha hecho un poco repetitivo. No me ha dado tiempo a reaccionar de manera rápida en algunas ocasiones,75.0,yes
20,2024-02-16_18h01.18.843,Unsyncopated_study2,s98,20.0,feminino,right,españa,Catalan y castellano,Bachelor degree,no,no,B,1,conjunction_syn,L1,syncopated,s1,r1,20,Online_conjL1_syn//a.pu.ki8.0.666.wav,pu,ze,ni,ki,sil,ne,ro,ri,sil1,fa,sil2,['catch'],[0.6355000000000928],[0.6355000000000928],0.0,beat,0.6355000000000928,0.6355000000000928,"[""space""]",pu,1,testConjL1Syn//r1.s1.2.wav,1.0,conjunction_syn,syncopated,a,s1,rule,rule,L1,z,1.2864,5.0,1.0,0.5515,3.0,2.0,Castellano,0.0,Catalan,0.0,inglés,5.0,4.0,6.0,yes,no,no,Flauta,12,,,Se ha hecho un poco repetitivo. No me ha dado tiempo a reaccionar de manera rápida en algunas ocasiones,75.0,yes
21,2024-02-16_18h01.18.843,Unsyncopated_study2,s98,20.0,feminino,right,españa,Catalan y castellano,Bachelor degree,no,no,B,1,conjunction_syn,L1,syncopated,s1,r1,21,Online_conjL1_syn//a.pu.ki10.0.666.wav,pu,ro,cho,ki,sil,zu,la,fa,sil1,ne,sil2,['catch'],[0.5853999999761754],[0.5853999999761754],0.0,beat,0.5853999999761754,0.5853999999761754,"[""space""]",pu,1,testConjL1Syn//dep_viol.r1.s1.0.wav,1.0,conjunction_syn,syncopated,a,s1,no_rule,dep,L1,z,0.8245,5.0,0.0,0.6852,3.0,2.0,Castellano,0.0,Catalan,0.0,inglés,5.0,4.0,6.0,yes,no,no,Flauta,12,,,Se ha hecho un poco repetitivo. No me ha dado tiempo a reaccionar de manera rápida en algunas ocasiones,75.0,yes
22,2024-02-16_18h01.18.843,Unsyncopated_study2,s98,20.0,feminino,right,españa,Catalan y castellano,Bachelor degree,no,no,B,1,conjunction_syn,L1,syncopated,s1,r1,22,Online_conjL1_syn//a.pu.ki11.0.666.wav,pu,fa,ri,ki,sil,lu,cho,zu,sil1,ni,sil2,['catch'],[0.38850000000002183],[0.38850000000002183],0.0,beat,0.3885000000000218,0.3885000000000218,"[""space""]",pu,1,testConjL1Syn//time_viol.r1.s2.0.wav,1.0,conjunction_syn,syncopated,a,s2,no_rule,time,L1,m,1.0698,6.0,1.0,0.4524,3.0,2.0,Castellano,0.0,Catalan,0.0,inglés,5.0,4.0,6.0,yes,no,no,Flauta,12,,,Se ha hecho un poco repetitivo. No me ha dado tiempo a reaccionar de manera rápida en algunas ocasiones,75.0,yes
23,2024-02-16_18h01.18.843,Unsyncopated_study2,s98,20.0,feminino,right,españa,Catalan y castellano,Bachelor degree,no,no,B,1,conjunction_syn,L1,syncopated,s2,r2,23,Online_conjL1_syn//a.pu.ki9.none.none.wav,fa,ne,cho,ta,sil,ni,zu,be,sil1,lu,sil2,['-'],,,none,none,,,,pu,1,testConjL1Syn//cat_viol.r2.s2.0.wav,1.0,conjunction_syn,syncopated,b,s2,no_rule,cat,L1,m,1.1324,6.0,1.0,0.6187,3.0,2.0,Castellano,0.0,Catalan,0.0,inglés,5.0,4.0,6.0,yes,no,no,Flauta,12,,,Se ha hecho un poco repetitivo. No me ha dado tiempo a reaccionar de manera rápida en algunas ocasiones,75.0,yes
24,2024-02-16_18h01.18.843,Unsyncopated_study2,s98,20.0,feminino,right,españa,Catalan y castellano,Bachelor degree,no,no,B,1,conjunction_syn,L1,syncopated,s1,r1,24,Online_conjL1_syn//a.pu.ki27.0.666.wav,pu,ze,lu,ki,sil,cho,fa,fo,sil1,ni,sil2,['catch'],[0.6783999999761363],[0.6783999999761363],0.0,beat,0.6783999999761363,0.6783999999761363,"[""space""]",pu,1,testConjL2Uns//cat_viol.r2.s1.0.wav,2.0,conjunction_un,unsyncopated,b,s1,no_rule,cat,L2,z,2.497,6.0,0.0,0.5615,3.0,2.0,Castellano,0.0,Catalan,0.0,inglés,5.0,4.0,6.0,yes,no,no,Flauta,12,,,Se ha hecho un poco repetitivo. No me ha dado tiempo a reaccionar de manera rápida en algunas ocasiones,75.0,yes
25,2024-02-16_18h01.18.843,Unsyncopated_study2,s98,20.0,feminino,right,españa,Catalan y castellano,Bachelor degree,no,no,B,1,conjunction_syn,L1,syncopated,s2,r1,25,Online_conjL1_syn//a.pu.ki25.666.1554.wav,cho,la,ro,pu,sil,ze,ne,ki,sil1,ri,sil2,['catch'],[1.1121000000238155],[1.1121000000238155],0.666,no_beat,0.4461000000238154,0.4461000000238154,"[""space""]",pu,1,testConjL2Uns//time_viol.r2.s2.0.wav,2.0,conjunction_un,unsyncopated,b,s2,no_rule,time,L2,z,1.6834,5.0,0.0,0.8375,3.0,2.0,Castellano,0.0,Catalan,0.0,inglés,5.0,4.0,6.0,yes,no,no,Flauta,12,,,Se ha hecho un poco repetitivo. No me ha dado tiempo a reaccionar de manera rápida en algunas ocasiones,75.0,yes
26,2024-02-16_18h01.18.843,Unsyncopated_study2,s98,20.0,feminino,right,españa,Catalan y castellano,Bachelor degree,no,no,B,1,conjunction_syn,L1,syncopated,s1,r2,26,Online_conjL1_syn//a.pu.ki26.none.none.wav,ta,zu,lu,be,sil,ro,la,ri,sil1,fa,sil2,['false alarm'],[2.1037000000476382],[2.1037000000476382],none,none,,,"[""space""]",pu,1,testConjL2Uns//r2.s1.1.wav,2.0,conjunction_un,unsyncopated,b,s1,rule,rule,L2,z,3.4835,5.0,1.0,0.8087,3.0,2.0,Castellano,0.0,Catalan,0.0,inglés,5.0,4.0,6.0,yes,no,no,Flauta,12,,,Se ha hecho un poco repetitivo. No me ha dado tiempo a reaccionar de manera rápida en algunas ocasiones,75.0,yes
27,2024-02-16_18h01.18.843,Unsyncopated_study2,s98,20.0,feminino,right,españa,Catalan y castellano,Bachelor degree,no,no,B,1,conjunction_syn,L1,syncopated,s1,r2,27,Online_conjL1_syn//a.pu.ki24.none.none.wav,ta,ne,la,be,sil,ri,fa,ze,sil1,zu,sil2,['-'],,,none,none,,,,pu,1,testConjL2Uns//r2.s2.2.wav,2.0,conjunction_un,unsyncopated,b,s2,rule,rule,L2,z,4.5326,5.0,1.0,0.7834,3.0,2.0,Castellano,0.0,Catalan,0.0,inglés,5.0,4.0,6.0,yes,no,no,Flauta,12,,,Se ha hecho un poco repetitivo. No me ha dado tiempo a reaccionar de manera rápida en algunas ocasiones,75.0,yes
28,2024-02-16_18h01.18.843,Unsyncopated_study2,s98,20.0,feminino,right,españa,Catalan y castellano,Bachelor degree,no,no,B,1,conjunction_syn,L1,syncopated,s1,r1,28,Online_conjL1_syn//b.ta.be20.none.none.wav,pu,lu,ze,ki,sil,ro,la,zu,sil1,fo,sil2,['-'],,,none,none,,,,be,2,testConjL2Uns//dep_viol.r2.s1.0.wav,2.0,conjunction_un,unsyncopated,b,s1,no_rule,dep,L2,m,2.4156,4.0,1.0,1.2574,3.0,2.0,Castellano,0.0,Catalan,0.0,inglés,5.0,4.0,6.0,yes,no,no,Flauta,12,,,Se ha hecho un poco repetitivo. No me ha dado tiempo a reaccionar de manera rápida en algunas ocasiones,75.0,yes
29,2024-02-16_18h01.18.843,Unsyncopated_study2,s98,20.0,feminino,right,españa,Catalan y castellano,Bachelor degree,no,no,B,1,conjunction_syn,L1,syncopated,s2,r1,29,Online_conjL1_syn//b.ta.be21.none.none.wav,ri,ro,fa,pu,sil,ni,cho,ki,sil1,ze,sil2,['false alarm'],[2.2477000000476437],[2.2477000000476437],none,none,,,"[""space""]",be,2,testConjL2Uns//time_viol.r1.s2.0.wav,2.0,conjunction_un,unsyncopated,a,s2,no_rule,time,L2,z,1.571,5.0,0.0,0.4588,3.0,2.0,Castellano,0.0,Catalan,0.0,inglés,5.0,4.0,6.0,yes,no,no,Flauta,12,,,Se ha hecho un poco repetitivo. No me ha dado tiempo a reaccionar de manera rápida en algunas ocasiones,75.0,yes
30,2024-02-16_18h01.18.843,Unsyncopated_study2,s98,20.0,feminino,right,españa,Catalan y castellano,Bachelor degree,no,no,B,1,conjunction_syn,L1,syncopated,s1,r1,30,Online_conjL1_syn//b.ta.be23.none.none.wav,pu,cho,ze,ki,sil,ne,la,ri,sil1,fa,sil2,['-'],,,none,none,,,,be,2,testConjL2Uns//dep_viol.r1.s1.0.wav,2.0,conjunction_un,unsyncopated,a,s1,no_rule,dep,L2,z,1.8659,5.0,0.0,0.336,3.0,2.0,Castellano,0.0,Catalan,0.0,inglés,5.0,4.0,6.0,yes,no,no,Flauta,12,,,Se ha hecho un poco repetitivo. No me ha dado tiempo a reaccionar de manera rápida en algunas ocasiones,75.0,yes
31,2024-02-16_18h01.18.843,Unsyncopated_study2,s98,20.0,feminino,right,españa,Catalan y castellano,Bachelor degree,no,no,B,1,conjunction_syn,L1,syncopated,s2,r1,31,Online_conjL1_syn//b.ta.be22.none.none.wav,zu,la,cho,pu,sil,ne,ri,ki,sil1,fa,sil2,['-'],,,none,none,,,,be,2,testConjL2Uns//cat_viol.r1.s2.0.wav,2.0,conjunction_un,unsyncopated,a,s2,no_rule,cat,L2,z,2.3494,4.0,0.0,0.7193,3.0,2.0,Castellano,0.0,Catalan,0.0,inglés,5.0,4.0,6.0,yes,no,no,Flauta,12,,,Se ha hecho un poco repetitivo. No me ha dado tiempo a reaccionar de manera rápida en algunas ocasiones,75.0,yes
32,2024-02-16_18h01.18.843,Unsyncopated_study2,s98,20.0,feminino,right,españa,Catalan y castellano,Bachelor degree,no,no,B,1,conjunction_syn,L1,syncopated,s1,r1,32,Online_conjL1_syn//b.ta.be12.none.none.wav,pu,ro,lu,ki,sil,ri,fa,ni,sil1,cho,sil2,['-'],,,none,none,,,,be,2,testConjL2Uns//r1.s2.1.wav,2.0,conjunction_un,unsyncopated,a,s2,rule,rule,L2,m,0.7897,5.0,0.0,0.6516,3.0,2.0,Castellano,0.0,Catalan,0.0,inglés,5.0,4.0,6.0,yes,no,no,Flauta,12,,,Se ha hecho un poco repetitivo. No me ha dado tiempo a reaccionar de manera rápida en algunas ocasiones,75.0,yes
33,2024-02-16_18h01.18.843,Unsyncopated_study2,s98,20.0,feminino,right,españa,Catalan y castellano,Bachelor degree,no,no,B,1,conjunction_syn,L1,syncopated,s2,r1,33,Online_conjL1_syn//b.ta.be15.none.none.wav,la,ni,lu,pu,sil,ri,cho,ki,sil1,fa,sil2,['-'],,,none,none,,,,be,2,testConjL2Uns//r1.s2.2.wav,2.0,conjunction_un,unsyncopated,a,s2,rule,rule,L2,m,0.6164,5.0,0.0,0.4885,3.0,2.0,Castellano,0.0,Catalan,0.0,inglés,5.0,4.0,6.0,yes,no,no,Flauta,12,,,Se ha hecho un poco repetitivo. No me ha dado tiempo a reaccionar de manera rápida en algunas ocasiones,75.0,yes
34,2024-02-16_18h01.18.843,Unsyncopated_study2,s98,20.0,feminino,right,españa,Catalan y castellano,Bachelor degree,no,no,B,1,conjunction_syn,L1,syncopated,s1,r2,34,Online_conjL1_syn//b.ta.be14.0.666.wav,ta,la,fa,be,sil,ni,fo,ro,sil1,lu,sil2,['false alarm'],[0.5165000000000646],[0.5165000000000646],0.666,no_beat,,,"[""space""]",be,2,testConjL2Uns//time_viol.r1.s1.0.wav,2.0,conjunction_un,unsyncopated,a,s1,no_rule,time,L2,m,0.8249,4.0,1.0,1.001,3.0,2.0,Castellano,0.0,Catalan,0.0,inglés,5.0,4.0,6.0,yes,no,no,Flauta,12,,,Se ha hecho un poco repetitivo. No me ha dado tiempo a reaccionar de manera rápida en algunas ocasiones,75.0,yes
35,2024-02-16_18h01.18.843,Unsyncopated_study2,s98,20.0,feminino,right,españa,Catalan y castellano,Bachelor degree,no,no,B,1,conjunction_syn,L1,syncopated,s1,r2,35,Online_conjL1_syn//b.ta.be13.0.666.wav,ta,ni,fo,be,sil,ze,ne,fa,sil1,ri,sil2,['miss'],,,0.666,no_beat,,,,be,2,testConjL2Uns//r2.s2.0.wav,2.0,conjunction_un,unsyncopated,b,s2,rule,rule,L2,z,2.4167,4.0,1.0,0.4846,3.0,2.0,Castellano,0.0,Catalan,0.0,inglés,5.0,4.0,6.0,yes,no,no,Flauta,12,,,Se ha hecho un poco repetitivo. No me ha dado tiempo a reaccionar de manera rápida en algunas ocasiones,75.0,yes
36,2024-02-16_18h01.18.843,Unsyncopated_study2,s98,20.0,feminino,right,españa,Catalan y castellano,Bachelor degree,no,no,B,1,conjunction_syn,L1,syncopated,s2,r2,36,Online_conjL1_syn//a.pu.ki16.none.none.wav,la,ze,fo,ta,sil,zu,lu,be,sil1,ne,sil2,['-'],,,none,none,,,,pu,1,testConjL2Uns//r1.s1.2.wav,2.0,conjunction_un,unsyncopated,a,s1,rule,rule,L2,z,0.8029,5.0,1.0,0.5573,3.0,2.0,Castellano,0.0,Catalan,0.0,inglés,5.0,4.0,6.0,yes,no,no,Flauta,12,,,Se ha hecho un poco repetitivo. No me ha dado tiempo a reaccionar de manera rápida en algunas ocasiones,75.0,yes
37,2024-02-16_18h01.18.843,Unsyncopated_study2,s98,20.0,feminino,right,españa,Catalan y castellano,Bachelor degree,no,no,B,1,conjunction_syn,L1,syncopated,s1,r2,37,Online_conjL1_syn//a.pu.ki19.none.none.wav,ta,fa,lu,be,sil,ne,fo,ri,sil1,ze,sil2,['-'],,,none,none,,,,pu,1,testConjL2Uns//time_viol.r2.s1.0.wav,2.0,conjunction_un,unsyncopated,b,s1,no_rule,time,L2,z,1.4709,5.0,0.0,0.4582,3.0,2.0,Castellano,0.0,Catalan,0.0,inglés,5.0,4.0,6.0,yes,no,no,Flauta,12,,,Se ha hecho un poco repetitivo. No me ha dado tiempo a reaccionar de manera rápida en algunas ocasiones,75.0,yes
38,2024-02-16_18h01.18.843,Unsyncopated_study2,s98,20.0,feminino,right,españa,Catalan y castellano,Bachelor degree,no,no,B,1,conjunction_syn,L1,syncopated,s2,r2,38,Online_conjL1_syn//a.pu.ki17.none.none.wav,lu,fa,zu,ta,sil,la,ze,be,sil1,cho,sil2,['-'],,,none,none,,,,pu,1,testConjL2Uns//r2.s1.0.wav,2.0,conjunction_un,unsyncopated,b,s1,rule,rule,L2,z,0.6071,6.0,1.0,0.5025,3.0,2.0,Castellano,0.0,Catalan,0.0,inglés,5.0,4.0,6.0,yes,no,no,Flauta,12,,,Se ha hecho un poco repetitivo. No me ha dado tiempo a reaccionar de manera rápida en algunas ocasiones,75.0,yes
39,2024-02-16_18h01.18.843,Unsyncopated_study2,s98,20.0,feminino,right,españa,Catalan y castellano,Bachelor degree,no,no,B,1,conjunction_syn,L1,syncopated,s2,r1,39,Online_conjL1_syn//a.pu.ki18.666.1554.wav,lu,ni,ri,pu,sil,ro,fo,ki,sil1,cho,sil2,['miss'],,,0.666,no_beat,,,,pu,1,testConjL2Uns//r2.s1.2.wav,2.0,conjunction_un,unsyncopated,b,s1,rule,rule,L2,z,1.2591,6.0,1.0,0.6271,3.0,2.0,Castellano,0.0,Catalan,0.0,inglés,5.0,4.0,6.0,yes,no,no,Flauta,12,,,Se ha hecho un poco repetitivo. No me ha dado tiempo a reaccionar de manera rápida en algunas ocasiones,75.0,yes
40,2024-02-16_18h01.18.843,Unsyncopated_study2,s98,20.0,feminino,right,españa,Catalan y castellano,Bachelor degree,no,no,B,1,conjunction_syn,L1,syncopated,s1,r2,40,Online_conjL1_syn//c.ro.fo2.none.none.wav,ta,ze,ni,be,sil,zu,cho,lu,sil1,la,sil2,['false alarm'],[1.617100000023811],[1.617100000023811],none,none,,,"[""space""]",fo,3,testConjL2Uns//r1.s1.1.wav,2.0,conjunction_un,unsyncopated,a,s1,rule,rule,L2,m,0.32,5.0,0.0,0.5929,3.0,2.0,Castellano,0.0,Catalan,0.0,inglés,5.0,4.0,6.0,yes,no,no,Flauta,12,,,Se ha hecho un poco repetitivo. No me ha dado tiempo a reaccionar de manera rápida en algunas ocasiones,75.0,yes
41,2024-02-16_18h01.18.843,Unsyncopated_study2,s98,20.0,feminino,right,españa,Catalan y castellano,Bachelor degree,no,no,B,1,conjunction_syn,L1,syncopated,s1,r2,41,Online_conjL1_syn//c.ro.fo1.none.none.wav,ta,ni,lu,be,sil,zu,ze,fa,sil1,la,sil2,['-'],,,none,none,,,,fo,3,testConjL2Uns//dep_viol.r1.s2.0.wav,2.0,conjunction_un,unsyncopated,a,s2,no_rule,dep,L2,z,8.3222,4.0,0.0,0.6819,3.0,2.0,Castellano,0.0,Catalan,0.0,inglés,5.0,4.0,6.0,yes,no,no,Flauta,12,,,Se ha hecho un poco repetitivo. No me ha dado tiempo a reaccionar de manera rápida en algunas ocasiones,75.0,yes
42,2024-02-16_18h01.18.843,Unsyncopated_study2,s98,20.0,feminino,right,españa,Catalan y castellano,Bachelor degree,no,no,B,1,conjunction_syn,L1,syncopated,s2,r1,42,Online_conjL1_syn//c.ro.fo0.444.1110.wav,fa,la,ro,pu,sil,fo,lu,ki,sil1,ze,sil2,['catch'],[1.5135000000000218],[1.5135000000000218],1.11,no_beat,0.4035000000000217,0.4035000000000217,"[""space""]",fo,3,testConjL2Uns//r1.s2.0.wav,2.0,conjunction_un,unsyncopated,a,s2,rule,rule,L2,z,1.8448,5.0,1.0,0.461,3.0,2.0,Castellano,0.0,Catalan,0.0,inglés,5.0,4.0,6.0,yes,no,no,Flauta,12,,,Se ha hecho un poco repetitivo. No me ha dado tiempo a reaccionar de manera rápida en algunas ocasiones,75.0,yes
43,2024-02-16_18h01.18.843,Unsyncopated_study2,s98,20.0,feminino,right,españa,Catalan y castellano,Bachelor degree,no,no,B,1,conjunction_syn,L1,syncopated,s2,r1,43,Online_conjL1_syn//c.ro.fo3.none.none.wav,lu,ni,ze,pu,sil,ne,ri,ki,sil1,cho,sil2,['-'],,,none,none,,,,fo,3,testConjL2Uns//cat_viol.r2.s2.0.wav,2.0,conjunction_un,unsyncopated,b,s2,no_rule,cat,L2,z,3.7869,6.0,0.0,0.9002,3.0,2.0,Castellano,0.0,Catalan,0.0,inglés,5.0,4.0,6.0,yes,no,no,Flauta,12,,,Se ha hecho un poco repetitivo. No me ha dado tiempo a reaccionar de manera rápida en algunas ocasiones,75.0,yes
44,2024-02-16_18h01.18.843,Unsyncopated_study2,s98,20.0,feminino,right,españa,Catalan y castellano,Bachelor degree,no,no,B,1,conjunction_syn,L1,syncopated,s1,r2,44,Online_conjL1_syn//b.ta.be31.0.666.wav,ta,fo,cho,be,sil,lu,ri,zu,sil1,la,sil2,['catch'],[0.8371999999881155],[0.8371999999881155],0.666,no_beat,0.1711999999881154,0.1711999999881154,"[""space""]",be,2,testConjL2Uns//cat_viol.r1.s1.0.wav,2.0,conjunction_un,unsyncopated,a,s1,no_rule,cat,L2,z,4.3442,6.0,0.0,0.6137,3.0,2.0,Castellano,0.0,Catalan,0.0,inglés,5.0,4.0,6.0,yes,no,no,Flauta,12,,,Se ha hecho un poco repetitivo. No me ha dado tiempo a reaccionar de manera rápida en algunas ocasiones,75.0,yes
45,2024-02-16_18h01.18.843,Unsyncopated_study2,s98,20.0,feminino,right,españa,Catalan y castellano,Bachelor degree,no,no,B,1,conjunction_syn,L1,syncopated,s1,r2,45,Online_conjL1_syn//b.ta.be28.0.666.wav,ta,fa,la,be,sil,zu,fo,ze,sil1,ro,sil2,['catch'],[1.1743000000119537],[1.1743000000119537],0.666,no_beat,0.5083000000119536,0.5083000000119536,"[""space""]",be,2,testConjL2Uns//r2.s2.1.wav,2.0,conjunction_un,unsyncopated,b,s2,rule,rule,L2,z,0.9261,5.0,1.0,0.6207,3.0,2.0,Castellano,0.0,Catalan,0.0,inglés,5.0,4.0,6.0,yes,no,no,Flauta,12,,,Se ha hecho un poco repetitivo. No me ha dado tiempo a reaccionar de manera rápida en algunas ocasiones,75.0,yes
46,2024-02-16_18h01.18.843,Unsyncopated_study2,s98,20.0,feminino,right,españa,Catalan y castellano,Bachelor degree,no,no,B,1,conjunction_syn,L1,syncopated,s1,r1,46,Online_conjL1_syn//b.ta.be29.none.none.wav,pu,ro,fa,ki,sil,zu,ni,la,sil1,ze,sil2,['-'],,,none,none,,,,be,2,testConjL2Uns//dep_viol.r2.s2.0.wav,2.0,conjunction_un,unsyncopated,b,s2,no_rule,dep,L2,z,3.4058,6.0,0.0,0.4154,3.0,2.0,Castellano,0.0,Catalan,0.0,inglés,5.0,4.0,6.0,yes,no,no,Flauta,12,,,Se ha hecho un poco repetitivo. No me ha dado tiempo a reaccionar de manera rápida en algunas ocasiones,75.0,yes
47,2024-02-16_18h01.18.843,Unsyncopated_study2,s98,20.0,feminino,right,españa,Catalan y castellano,Bachelor degree,no,no,B,1,conjunction_syn,L1,syncopated,s2,r1,47,Online_conjL1_syn//b.ta.be30.none.none.wav,la,fo,fa,pu,sil,ro,ri,ki,sil1,ze,sil2,['-'],,,none,none,,,,be,2,testConjL2Uns//r1.s1.0.wav,2.0,conjunction_un,unsyncopated,a,s1,rule,rule,L2,z,4.0517,7.0,1.0,0.3997,3.0,2.0,Castellano,0.0,Catalan,0.0,inglés,5.0,4.0,6.0,yes,no,no,Flauta,12,,,Se ha hecho un poco repetitivo. No me ha dado tiempo a reaccionar de manera rápida en algunas ocasiones,75.0,yes
48,2024-02-16_18h01.18.843,Unsyncopated_study2,s98,20.0,feminino,right,españa,Catalan y castellano,Bachelor degree,no,no,B,1,conjunction_syn,L1,syncopated,s1,r1,48,Online_conjL1_syn//d.ne.ni4.222.1332.wav,pu,ne,cho,ki,sil,ri,ni,ro,sil1,zu,sil2,['miss'],,,1.332,no_beat,,,,ni,4,testWhatL3Uns//r1.s1.1.wav,3.0,what,unsyncopated,a,s1,rule,rule,L3,z,2.1756,6.0,1.0,0.7928,3.0,2.0,Castellano,0.0,Catalan,0.0,inglés,5.0,4.0,6.0,yes,no,no,Flauta,12,,,Se ha hecho un poco repetitivo. No me ha dado tiempo a reaccionar de manera rápida en algunas ocasiones,75.0,yes
49,2024-02-16_18h01.18.843,Unsyncopated_study2,s98,20.0,feminino,right,españa,Catalan y castellano,Bachelor degree,no,no,B,1,conjunction_syn,L1,syncopated,s1,r1,49,Online_conjL1_syn//d.ne.ni7.444.1110.wav,pu,lu,ne,ki,sil,ni,ri,ze,sil1,zu,sil2,['false alarm'],[0.17020000004765734],[0.17020000004765734],1.11,no_beat,,,"[""space""]",ni,4,testWhatL3Uns//r1.s1.2.wav,3.0,what,unsyncopated,a,s1,rule,rule,L3,z,1.3767,4.0,1.0,1.0488,3.0,2.0,Castellano,0.0,Catalan,0.0,inglés,5.0,4.0,6.0,yes,no,no,Flauta,12,,,Se ha hecho un poco repetitivo. No me ha dado tiempo a reaccionar de manera rápida en algunas ocasiones,75.0,yes
50,2024-02-16_18h01.18.843,Unsyncopated_study2,s98,20.0,feminino,right,españa,Catalan y castellano,Bachelor degree,no,no,B,1,conjunction_syn,L1,syncopated,s1,r2,50,Online_conjL1_syn//d.ne.ni6.444.1110.wav,ta,zu,ne,be,sil,ni,ze,la,sil1,fa,sil2,['catch'],[1.2541999999880318],[1.2541999999880318],1.11,no_beat,0.1441999999880316,0.1441999999880316,"[""space""]",ni,4,testWhatL3Uns//r2.s1.0.wav,3.0,what,unsyncopated,b,s1,rule,rule,L3,z,2.6829,5.0,1.0,0.5745,3.0,2.0,Castellano,0.0,Catalan,0.0,inglés,5.0,4.0,6.0,yes,no,no,Flauta,12,,,Se ha hecho un poco repetitivo. No me ha dado tiempo a reaccionar de manera rápida en algunas ocasiones,75.0,yes
51,2024-02-16_18h01.18.843,Unsyncopated_study2,s98,20.0,feminino,right,españa,Catalan y castellano,Bachelor degree,no,no,B,1,conjunction_syn,L1,syncopated,s2,r1,51,Online_conjL1_syn//d.ne.ni5.none.none.wav,zu,ri,ze,pu,sil,cho,fa,ki,sil1,la,sil2,['-'],,,none,none,,,,ni,4,testWhatL3Uns//r2.s2.2.wav,3.0,what,unsyncopated,b,s2,rule,rule,L3,z,5.1166,5.0,1.0,0.7353,3.0,2.0,Castellano,0.0,Catalan,0.0,inglés,5.0,4.0,6.0,yes,no,no,Flauta,12,,,Se ha hecho un poco repetitivo. No me ha dado tiempo a reaccionar de manera rápida en algunas ocasiones,75.0,yes
52,2024-02-16_18h01.18.843,Unsyncopated_study2,s98,20.0,feminino,right,españa,Catalan y castellano,Bachelor degree,no,no,B,1,conjunction_syn,L1,syncopated,s1,r2,52,Online_conjL1_syn//c.ro.fo8.444.1332.wav,ta,lu,ro,be,sil,ni,fo,zu,sil1,fa,sil2,['catch'],[1.8396999999880563],[1.8396999999880563],1.332,no_beat,0.5076999999880563,0.5076999999880563,"[""space""]",fo,3,testWhatL3Uns//r1.s1.0.wav,3.0,what,unsyncopated,a,s1,rule,rule,L3,z,2.0119,6.0,1.0,0.5465,3.0,2.0,Castellano,0.0,Catalan,0.0,inglés,5.0,4.0,6.0,yes,no,no,Flauta,12,,,Se ha hecho un poco repetitivo. No me ha dado tiempo a reaccionar de manera rápida en algunas ocasiones,75.0,yes
53,2024-02-16_18h01.18.843,Unsyncopated_study2,s98,20.0,feminino,right,españa,Catalan y castellano,Bachelor degree,no,no,B,1,conjunction_syn,L1,syncopated,s1,r1,53,Online_conjL1_syn//c.ro.fo9.1554.1110.wav,pu,ni,lu,ki,sil,fo,fa,ro,sil1,ne,sil2,['catch'],[1.7590000000000146],[1.7590000000000146],1.11,no_beat,0.6490000000000145,0.6490000000000145,"[""space""]",fo,3,testWhatL3Uns//r2.s2.0.wav,3.0,what,unsyncopated,b,s2,rule,rule,L3,m,2.8514,3.0,0.0,1.0693,3.0,2.0,Castellano,0.0,Catalan,0.0,inglés,5.0,4.0,6.0,yes,no,no,Flauta,12,,,Se ha hecho un poco repetitivo. No me ha dado tiempo a reaccionar de manera rápida en algunas ocasiones,75.0,yes
54,2024-02-16_18h01.18.843,Unsyncopated_study2,s98,20.0,feminino,right,españa,Catalan y castellano,Bachelor degree,no,no,B,1,conjunction_syn,L1,syncopated,s2,r2,54,Online_conjL1_syn//c.ro.fo10.222.444.wav,zu,ro,fo,ta,sil,ni,cho,be,sil1,ze,sil2,['miss'],,,0.444,no_beat,,,,fo,3,testWhatL3Uns//r1.s2.2.wav,3.0,what,unsyncopated,a,s2,rule,rule,L3,z,1.3019,5.0,1.0,0.3807,3.0,2.0,Castellano,0.0,Catalan,0.0,inglés,5.0,4.0,6.0,yes,no,no,Flauta,12,,,Se ha hecho un poco repetitivo. No me ha dado tiempo a reaccionar de manera rápida en algunas ocasiones,75.0,yes
55,2024-02-16_18h01.18.843,Unsyncopated_study2,s98,20.0,feminino,right,españa,Catalan y castellano,Bachelor degree,no,no,B,1,conjunction_syn,L1,syncopated,s2,r1,55,Online_conjL1_syn//c.ro.fo11.none.none.wav,ze,zu,ni,pu,sil,la,cho,ki,sil1,ne,sil2,['-'],,,none,none,,,,fo,3,testWhatL3Uns//cat_viol.r2.s1.0.wav,3.0,what,unsyncopated,b,s1,no_rule,cat,L3,z,0.7427,5.0,0.0,0.5704,3.0,2.0,Castellano,0.0,Catalan,0.0,inglés,5.0,4.0,6.0,yes,no,no,Flauta,12,,,Se ha hecho un poco repetitivo. No me ha dado tiempo a reaccionar de manera rápida en algunas ocasiones,75.0,yes
56,2024-02-16_18h01.18.843,Unsyncopated_study2,s98,20.0,feminino,right,españa,Catalan y castellano,Bachelor degree,no,no,B,1,conjunction_syn,L1,syncopated,s1,r1,56,Online_conjL1_syn//d.ne.ni15.none.none.wav,pu,lu,ze,ki,sil,cho,zu,ri,sil1,la,sil2,['false alarm'],[0.4171999999880427],[0.4171999999880427],none,none,,,"[""space""]",ni,4,testWhatL3Uns//r1.s2.1.wav,3.0,what,unsyncopated,a,s2,rule,rule,L3,z,1.0055,5.0,1.0,0.4074,3.0,2.0,Castellano,0.0,Catalan,0.0,inglés,5.0,4.0,6.0,yes,no,no,Flauta,12,,,Se ha hecho un poco repetitivo. No me ha dado tiempo a reaccionar de manera rápida en algunas ocasiones,75.0,yes
57,2024-02-16_18h01.18.843,Unsyncopated_study2,s98,20.0,feminino,right,españa,Catalan y castellano,Bachelor degree,no,no,B,1,conjunction_syn,L1,syncopated,s1,r2,57,Online_conjL1_syn//d.ne.ni14.none.none.wav,ta,ri,cho,be,sil,ze,lu,zu,sil1,la,sil2,['-'],,,none,none,,,,ni,4,testWhatL3Uns//cat_viol.r2.s2.0.wav,3.0,what,unsyncopated,b,s2,no_rule,cat,L3,z,2.4266,5.0,0.0,1.1587,3.0,2.0,Castellano,0.0,Catalan,0.0,inglés,5.0,4.0,6.0,yes,no,no,Flauta,12,,,Se ha hecho un poco repetitivo. No me ha dado tiempo a reaccionar de manera rápida en algunas ocasiones,75.0,yes
58,2024-02-16_18h01.18.843,Unsyncopated_study2,s98,20.0,feminino,right,españa,Catalan y castellano,Bachelor degree,no,no,B,1,conjunction_syn,L1,syncopated,s2,r1,58,Online_conjL1_syn//d.ne.ni13.1110.222.wav,ze,ni,lu,pu,sil,ne,ro,ki,sil1,zu,sil2,['catch'],[0.7203999999761663],[0.7203999999761663],0.222,no_beat,0.4983999999761663,0.4983999999761663,"[""space""]",ni,4,testWhatL3Uns//dep_viol.r2.s1.0.wav,3.0,what,unsyncopated,b,s1,no_rule,dep,L3,z,3.383,4.0,0.0,0.4529,3.0,2.0,Castellano,0.0,Catalan,0.0,inglés,5.0,4.0,6.0,yes,no,no,Flauta,12,,,Se ha hecho un poco repetitivo. No me ha dado tiempo a reaccionar de manera rápida en algunas ocasiones,75.0,yes
59,2024-02-16_18h01.18.843,Unsyncopated_study2,s98,20.0,feminino,right,españa,Catalan y castellano,Bachelor degree,no,no,B,1,conjunction_syn,L1,syncopated,s1,r1,59,Online_conjL1_syn//d.ne.ni12.none.none.wav,pu,fo,ri,ki,sil,ze,zu,ro,sil1,la,sil2,['-'],,,none,none,,,,ni,4,testWhatL3Uns//dep_viol.r1.s2.0.wav,3.0,what,unsyncopated,a,s2,no_rule,dep,L3,m,1.1927,4.0,1.0,0.5709,3.0,2.0,Castellano,0.0,Catalan,0.0,inglés,5.0,4.0,6.0,yes,no,no,Flauta,12,,,Se ha hecho un poco repetitivo. No me ha dado tiempo a reaccionar de manera rápida en algunas ocasiones,75.0,yes
60,2024-02-16_18h01.18.843,Unsyncopated_study2,s98,20.0,feminino,right,españa,Catalan y castellano,Bachelor degree,no,no,B,1,conjunction_syn,L1,syncopated,s2,r2,60,Online_conjL1_syn//a.pu.ki22.none.none.wav,fo,ri,ni,ta,sil,lu,la,be,sil1,cho,sil2,['-'],,,none,none,,,,pu,1,testWhatL3Uns//r2.s2.1.wav,3.0,what,unsyncopated,b,s2,rule,rule,L3,z,2.325,5.0,1.0,0.49,3.0,2.0,Castellano,0.0,Catalan,0.0,inglés,5.0,4.0,6.0,yes,no,no,Flauta,12,,,Se ha hecho un poco repetitivo. No me ha dado tiempo a reaccionar de manera rápida en algunas ocasiones,75.0,yes
61,2024-02-16_18h01.18.843,Unsyncopated_study2,s98,20.0,feminino,right,españa,Catalan y castellano,Bachelor degree,no,no,B,1,conjunction_syn,L1,syncopated,s2,r2,61,Online_conjL1_syn//a.pu.ki21.none.none.wav,ro,fa,ni,ta,sil,ri,la,be,sil1,lu,sil2,['-'],,,none,none,,,,pu,1,testWhatL3Uns//cat_viol.r1.s1.0.wav,3.0,what,unsyncopated,a,s1,no_rule,cat,L3,z,2.3821,5.0,0.0,0.8546,3.0,2.0,Castellano,0.0,Catalan,0.0,inglés,5.0,4.0,6.0,yes,no,no,Flauta,12,,,Se ha hecho un poco repetitivo. No me ha dado tiempo a reaccionar de manera rápida en algunas ocasiones,75.0,yes
62,2024-02-16_18h01.18.843,Unsyncopated_study2,s98,20.0,feminino,right,españa,Catalan y castellano,Bachelor degree,no,no,B,1,conjunction_syn,L1,syncopated,s2,r1,62,Online_conjL1_syn//a.pu.ki23.666.1554.wav,ni,la,ro,pu,sil,fo,zu,ki,sil1,ze,sil2,['catch'],[1.2375999999642318],[1.2375999999642318],0.666,no_beat,0.5715999999642317,0.5715999999642317,"[""space""]",pu,1,testWhatL3Uns//dep_viol.r2.s2.0.wav,3.0,what,unsyncopated,b,s2,no_rule,dep,L3,z,1.3004,5.0,0.0,1.0509,3.0,2.0,Castellano,0.0,Catalan,0.0,inglés,5.0,4.0,6.0,yes,no,no,Flauta,12,,,Se ha hecho un poco repetitivo. No me ha dado tiempo a reaccionar de manera rápida en algunas ocasiones,75.0,yes
63,2024-02-16_18h01.18.843,Unsyncopated_study2,s98,20.0,feminino,right,españa,Catalan y castellano,Bachelor degree,no,no,B,1,conjunction_syn,L1,syncopated,s2,r1,63,Online_conjL1_syn//a.pu.ki20.666.1554.wav,ro,lu,ni,pu,sil,la,fo,ki,sil1,cho,sil2,['miss'],,,0.666,no_beat,,,,pu,1,testWhatL3Uns//cat_viol.r1.s2.0.wav,3.0,what,unsyncopated,a,s2,no_rule,cat,L3,m,0.9435,2.0,1.0,1.8162,3.0,2.0,Castellano,0.0,Catalan,0.0,inglés,5.0,4.0,6.0,yes,no,no,Flauta,12,,,Se ha hecho un poco repetitivo. No me ha dado tiempo a reaccionar de manera rápida en algunas ocasiones,75.0,yes
64,2024-02-16_18h01.18.843,Unsyncopated_study2,s98,20.0,feminino,right,españa,Catalan y castellano,Bachelor degree,no,no,B,1,conjunction_syn,L1,syncopated,s2,r2,64,Online_conjL1_syn//a.pu.ki31.none.none.wav,lu,fo,fa,ta,sil,ro,ni,be,sil1,la,sil2,['-'],,,none,none,,,,pu,1,testWhatL3Uns//r2.s1.2.wav,3.0,what,unsyncopated,b,s1,rule,rule,L3,z,1.3376,6.0,1.0,0.4799,3.0,2.0,Castellano,0.0,Catalan,0.0,inglés,5.0,4.0,6.0,yes,no,no,Flauta,12,,,Se ha hecho un poco repetitivo. No me ha dado tiempo a reaccionar de manera rápida en algunas ocasiones,75.0,yes
65,2024-02-16_18h01.18.843,Unsyncopated_study2,s98,20.0,feminino,right,españa,Catalan y castellano,Bachelor degree,no,no,B,1,conjunction_syn,L1,syncopated,s2,r1,65,Online_conjL1_syn//a.pu.ki28.666.1554.wav,cho,ro,fo,pu,sil,ze,ni,ki,sil1,zu,sil2,['catch'],[1.025800000011941],[1.025800000011941],0.666,no_beat,0.3598000000119409,0.3598000000119409,"[""space""]",pu,1,testWhatL3Uns//r2.s1.1.wav,3.0,what,unsyncopated,b,s1,rule,rule,L3,z,3.5909,5.0,1.0,0.4598,3.0,2.0,Castellano,0.0,Catalan,0.0,inglés,5.0,4.0,6.0,yes,no,no,Flauta,12,,,Se ha hecho un poco repetitivo. No me ha dado tiempo a reaccionar de manera rápida en algunas ocasiones,75.0,yes
66,2024-02-16_18h01.18.843,Unsyncopated_study2,s98,20.0,feminino,right,españa,Catalan y castellano,Bachelor degree,no,no,B,1,conjunction_syn,L1,syncopated,s1,r2,66,Online_conjL1_syn//a.pu.ki30.none.none.wav,ta,fa,ro,be,sil,ni,zu,la,sil1,ze,sil2,['-'],,,none,none,,,,pu,1,testWhatL3Uns//r1.s2.0.wav,3.0,what,unsyncopated,a,s2,rule,rule,L3,z,0.6569,4.0,1.0,0.268,3.0,2.0,Castellano,0.0,Catalan,0.0,inglés,5.0,4.0,6.0,yes,no,no,Flauta,12,,,Se ha hecho un poco repetitivo. No me ha dado tiempo a reaccionar de manera rápida en algunas ocasiones,75.0,yes
67,2024-02-16_18h01.18.843,Unsyncopated_study2,s98,20.0,feminino,right,españa,Catalan y castellano,Bachelor degree,no,no,B,1,conjunction_syn,L1,syncopated,s2,r1,67,Online_conjL1_syn//a.pu.ki29.666.1554.wav,ze,ne,ro,pu,sil,lu,la,ki,sil1,fo,sil2,['catch'],[1.4700999999643045],[1.4700999999643045],0.666,no_beat,0.8040999999643045,0.8040999999643045,"[""space""]",pu,1,testWhatL3Uns//dep_viol.r1.s1.0.wav,3.0,what,unsyncopated,a,s1,no_rule,dep,L3,z,3.3328,5.0,0.0,0.4439,3.0,2.0,Castellano,0.0,Catalan,0.0,inglés,5.0,4.0,6.0,yes,no,no,Flauta,12,,,Se ha hecho un poco repetitivo. No me ha dado tiempo a reaccionar de manera rápida en algunas ocasiones,75.0,yes
68,2024-02-16_18h01.18.843,Unsyncopated_study2,s98,20.0,feminino,right,españa,Catalan y castellano,Bachelor degree,no,no,B,1,conjunction_syn,L1,syncopated,s2,r1,68,Online_conjL1_syn//c.ro.fo5.1332.0.wav,fo,zu,cho,pu,sil,ni,ro,ki,sil1,fa,sil2,['miss'],,,0.0,beat,,,,fo,3,testWhatL3Uns//time_viol.r1.s1.0.wav,3.0,what,unsyncopated,a,s1,no_rule,time,L3,m,10.7456,4.0,1.0,0.8029,3.0,2.0,Castellano,0.0,Catalan,0.0,inglés,5.0,4.0,6.0,yes,no,no,Flauta,12,,,Se ha hecho un poco repetitivo. No me ha dado tiempo a reaccionar de manera rápida en algunas ocasiones,75.0,yes
69,2024-02-16_18h01.18.843,Unsyncopated_study2,s98,20.0,feminino,right,españa,Catalan y castellano,Bachelor degree,no,no,B,1,conjunction_syn,L1,syncopated,s1,r2,69,Online_conjL1_syn//c.ro.fo4.444.1110.wav,ta,ze,ro,be,sil,fo,ni,cho,sil1,zu,sil2,['miss'],,,1.11,no_beat,,,,fo,3,testWhatL3Uns//time_viol.r2.s1.0.wav,3.0,what,unsyncopated,b,s1,no_rule,time,L3,m,2.3095,4.0,1.0,0.3348,3.0,2.0,Castellano,0.0,Catalan,0.0,inglés,5.0,4.0,6.0,yes,no,no,Flauta,12,,,Se ha hecho un poco repetitivo. No me ha dado tiempo a reaccionar de manera rápida en algunas ocasiones,75.0,yes
70,2024-02-16_18h01.18.843,Unsyncopated_study2,s98,20.0,feminino,right,españa,Catalan y castellano,Bachelor degree,no,no,B,1,conjunction_syn,L1,syncopated,s1,r2,70,Online_conjL1_syn//c.ro.fo6.none.none.wav,ta,fa,ni,be,sil,la,ne,cho,sil1,ze,sil2,['false alarm'],[0.41740000003574096],[0.41740000003574096],none,none,,,"[""space""]",fo,3,testWhatL3Uns//time_viol.r1.s2.0.wav,3.0,what,unsyncopated,a,s2,no_rule,time,L3,m,2.3104,4.0,1.0,0.2377,3.0,2.0,Castellano,0.0,Catalan,0.0,inglés,5.0,4.0,6.0,yes,no,no,Flauta,12,,,Se ha hecho un poco repetitivo. No me ha dado tiempo a reaccionar de manera rápida en algunas ocasiones,75.0,yes
71,2024-02-16_18h01.18.843,Unsyncopated_study2,s98,20.0,feminino,right,españa,Catalan y castellano,Bachelor degree,no,no,B,1,conjunction_syn,L1,syncopated,s1,r1,71,Online_conjL1_syn//c.ro.fo7.none.none.wav,pu,zu,la,ki,sil,ze,ne,lu,sil1,ri,sil2,['false alarm'],[0.7616999999880818],[0.7616999999880818],none,none,,,"[""space""]",fo,3,testWhatL3Uns//time_viol.r2.s2.0.wav,3.0,what,unsyncopated,b,s2,no_rule,time,L3,m,2.8821,4.0,1.0,0.2611,3.0,2.0,Castellano,0.0,Catalan,0.0,inglés,5.0,4.0,6.0,yes,no,no,Flauta,12,,,Se ha hecho un poco repetitivo. No me ha dado tiempo a reaccionar de manera rápida en algunas ocasiones,75.0,yes
72,2024-02-16_18h01.18.843,Unsyncopated_study2,s98,20.0,feminino,right,españa,Catalan y castellano,Bachelor degree,no,no,B,1,conjunction_syn,L1,syncopated,s2,r2,72,Online_conjL1_syn//d.ne.ni17.none.none.wav,ze,lu,ri,ta,sil,fo,cho,be,sil1,fa,sil2,['-'],,,none,none,,,,ni,4,testWhenL4Uns//time_viol.r2.s1.0.wav,4.0,when,unsyncopated,b,s1,no_rule,time,L4,z,0.9851,5.0,1.0,0.7299,3.0,2.0,Castellano,0.0,Catalan,0.0,inglés,5.0,4.0,6.0,yes,no,no,Flauta,12,,,Se ha hecho un poco repetitivo. No me ha dado tiempo a reaccionar de manera rápida en algunas ocasiones,75.0,yes
73,2024-02-16_18h01.18.843,Unsyncopated_study2,s98,20.0,feminino,right,españa,Catalan y castellano,Bachelor degree,no,no,B,1,conjunction_syn,L1,syncopated,s1,r2,73,Online_conjL1_syn//d.ne.ni16.1332.222.wav,ta,ni,lu,be,sil,ri,ne,fo,sil1,ze,sil2,['catch'],[1.9283000000119728],[1.9283000000119728],0.222,no_beat,,1.7063000000119728,"[""space""]",ni,4,testWhenL4Uns//dep_viol.r1.s1.0.wav,4.0,when,unsyncopated,a,s1,no_rule,dep,L4,z,1.5532,6.0,1.0,0.4921,3.0,2.0,Castellano,0.0,Catalan,0.0,inglés,5.0,4.0,6.0,yes,no,no,Flauta,12,,,Se ha hecho un poco repetitivo. No me ha dado tiempo a reaccionar de manera rápida en algunas ocasiones,75.0,yes
74,2024-02-16_18h01.18.843,Unsyncopated_study2,s98,20.0,feminino,right,españa,Catalan y castellano,Bachelor degree,no,no,B,1,conjunction_syn,L1,syncopated,s2,r2,74,Online_conjL1_syn//d.ne.ni18.none.none.wav,lu,ri,cho,ta,sil,ze,ro,be,sil1,fo,sil2,['-'],,,none,none,,,,ni,4,testWhenL4Uns//time_viol.r2.s2.0.wav,4.0,when,unsyncopated,b,s2,no_rule,time,L4,z,1.1171,4.0,1.0,1.9069,3.0,2.0,Castellano,0.0,Catalan,0.0,inglés,5.0,4.0,6.0,yes,no,no,Flauta,12,,,Se ha hecho un poco repetitivo. No me ha dado tiempo a reaccionar de manera rápida en algunas ocasiones,75.0,yes
75,2024-02-16_18h01.18.843,Unsyncopated_study2,s98,20.0,feminino,right,españa,Catalan y castellano,Bachelor degree,no,no,B,1,conjunction_syn,L1,syncopated,s2,r1,75,Online_conjL1_syn//d.ne.ni19.none.none.wav,la,ro,cho,pu,sil,ri,zu,ki,sil1,fo,sil2,['-'],,,none,none,,,,ni,4,testWhenL4Uns//r2.s2.0.wav,4.0,when,unsyncopated,b,s2,rule,rule,L4,z,2.8439,5.0,1.0,0.7037,3.0,2.0,Castellano,0.0,Catalan,0.0,inglés,5.0,4.0,6.0,yes,no,no,Flauta,12,,,Se ha hecho un poco repetitivo. No me ha dado tiempo a reaccionar de manera rápida en algunas ocasiones,75.0,yes
76,2024-02-16_18h01.18.843,Unsyncopated_study2,s98,20.0,feminino,right,españa,Catalan y castellano,Bachelor degree,no,no,B,1,conjunction_syn,L1,syncopated,s1,r1,76,Online_conjL1_syn//b.ta.be4.none.none.wav,pu,la,fo,ki,sil,cho,ze,lu,sil1,ri,sil2,['false alarm'],[1.5031999999880554],[1.5031999999880554],none,none,,,"[""space""]",be,2,testWhenL4Uns//time_viol.r1.s1.0.wav,4.0,when,unsyncopated,a,s1,no_rule,time,L4,z,7.6383,4.0,1.0,0.8003,3.0,2.0,Castellano,0.0,Catalan,0.0,inglés,5.0,4.0,6.0,yes,no,no,Flauta,12,,,Se ha hecho un poco repetitivo. No me ha dado tiempo a reaccionar de manera rápida en algunas ocasiones,75.0,yes
77,2024-02-16_18h01.18.843,Unsyncopated_study2,s98,20.0,feminino,right,españa,Catalan y castellano,Bachelor degree,no,no,B,1,conjunction_syn,L1,syncopated,s2,r1,77,Online_conjL1_syn//b.ta.be5.none.none.wav,la,ro,cho,pu,sil,fa,ne,ki,sil1,ze,sil2,['-'],,,none,none,,,,be,2,testWhenL4Uns//r1.s2.2.wav,4.0,when,unsyncopated,a,s2,rule,rule,L4,z,6.9723,4.0,1.0,0.6013,3.0,2.0,Castellano,0.0,Catalan,0.0,inglés,5.0,4.0,6.0,yes,no,no,Flauta,12,,,Se ha hecho un poco repetitivo. No me ha dado tiempo a reaccionar de manera rápida en algunas ocasiones,75.0,yes
78,2024-02-16_18h01.18.843,Unsyncopated_study2,s98,20.0,feminino,right,españa,Catalan y castellano,Bachelor degree,no,no,B,1,conjunction_syn,L1,syncopated,s2,r1,78,Online_conjL1_syn//b.ta.be7.none.none.wav,fa,ne,lu,pu,sil,zu,fo,ki,sil1,cho,sil2,['-'],,,none,none,,,,be,2,testWhenL4Uns//r2.s1.2.wav,4.0,when,unsyncopated,b,s1,rule,rule,L4,z,5.3086,5.0,1.0,0.6021,3.0,2.0,Castellano,0.0,Catalan,0.0,inglés,5.0,4.0,6.0,yes,no,no,Flauta,12,,,Se ha hecho un poco repetitivo. No me ha dado tiempo a reaccionar de manera rápida en algunas ocasiones,75.0,yes
79,2024-02-16_18h01.18.843,Unsyncopated_study2,s98,20.0,feminino,right,españa,Catalan y castellano,Bachelor degree,no,no,B,1,conjunction_syn,L1,syncopated,s1,r1,79,Online_conjL1_syn//b.ta.be6.none.none.wav,pu,cho,fo,ki,sil,ni,ro,ri,sil1,lu,sil2,['-'],,,none,none,,,,be,2,testWhenL4Uns//cat_viol.r1.s2.0.wav,4.0,when,unsyncopated,a,s2,no_rule,cat,L4,m,3.5648,5.0,0.0,0.5525,3.0,2.0,Castellano,0.0,Catalan,0.0,inglés,5.0,4.0,6.0,yes,no,no,Flauta,12,,,Se ha hecho un poco repetitivo. No me ha dado tiempo a reaccionar de manera rápida en algunas ocasiones,75.0,yes
80,2024-02-16_18h01.18.843,Unsyncopated_study2,s98,20.0,feminino,right,españa,Catalan y castellano,Bachelor degree,no,no,B,1,conjunction_syn,L1,syncopated,s2,r2,80,Online_conjL1_syn//c.ro.fo27.444.1110.wav,la,fa,ro,ta,sil,fo,lu,be,sil1,ze,sil2,['catch'],[2.4444000000357846],[2.4444000000357846],1.11,no_beat,,1.3344000000357843,"[""space""]",fo,3,testWhenL4Uns//dep_viol.r1.s2.0.wav,4.0,when,unsyncopated,a,s2,no_rule,dep,L4,m,1.5843,4.0,0.0,1.81,3.0,2.0,Castellano,0.0,Catalan,0.0,inglés,5.0,4.0,6.0,yes,no,no,Flauta,12,,,Se ha hecho un poco repetitivo. No me ha dado tiempo a reaccionar de manera rápida en algunas ocasiones,75.0,yes
81,2024-02-16_18h01.18.843,Unsyncopated_study2,s98,20.0,feminino,right,españa,Catalan y castellano,Bachelor degree,no,no,B,1,conjunction_syn,L1,syncopated,s1,r1,81,Online_conjL1_syn//c.ro.fo24.1332.222.wav,pu,fo,ni,ki,sil,la,ro,ze,sil1,zu,sil2,['catch'],[1.0209999999999582],[1.0209999999999582],0.222,no_beat,0.7989999999999582,0.7989999999999582,"[""space""]",fo,3,testWhenL4Uns//cat_viol.r1.s1.0.wav,4.0,when,unsyncopated,a,s1,no_rule,cat,L4,z,0.9518,5.0,1.0,0.6819,3.0,2.0,Castellano,0.0,Catalan,0.0,inglés,5.0,4.0,6.0,yes,no,no,Flauta,12,,,Se ha hecho un poco repetitivo. No me ha dado tiempo a reaccionar de manera rápida en algunas ocasiones,75.0,yes
82,2024-02-16_18h01.18.843,Unsyncopated_study2,s98,20.0,feminino,right,españa,Catalan y castellano,Bachelor degree,no,no,B,1,conjunction_syn,L1,syncopated,s2,r1,82,Online_conjL1_syn//c.ro.fo26.444.0.wav,fo,ne,ro,pu,sil,ze,ni,ki,sil1,fa,sil2,['miss'],,,0.0,beat,,,,fo,3,testWhenL4Uns//r1.s2.0.wav,4.0,when,unsyncopated,a,s2,rule,rule,L4,z,2.9834,5.0,1.0,0.6532,3.0,2.0,Castellano,0.0,Catalan,0.0,inglés,5.0,4.0,6.0,yes,no,no,Flauta,12,,,Se ha hecho un poco repetitivo. No me ha dado tiempo a reaccionar de manera rápida en algunas ocasiones,75.0,yes
83,2024-02-16_18h01.18.843,Unsyncopated_study2,s98,20.0,feminino,right,españa,Catalan y castellano,Bachelor degree,no,no,B,1,conjunction_syn,L1,syncopated,s2,r2,83,Online_conjL1_syn//c.ro.fo25.none.none.wav,lu,ri,fa,ta,sil,zu,cho,be,sil1,ze,sil2,['-'],,,none,none,,,,fo,3,testWhenL4Uns//r2.s1.0.wav,4.0,when,unsyncopated,b,s1,rule,rule,L4,z,1.0042,5.0,1.0,0.6558,3.0,2.0,Castellano,0.0,Catalan,0.0,inglés,5.0,4.0,6.0,yes,no,no,Flauta,12,,,Se ha hecho un poco repetitivo. No me ha dado tiempo a reaccionar de manera rápida en algunas ocasiones,75.0,yes
84,2024-02-16_18h01.18.843,Unsyncopated_study2,s98,20.0,feminino,right,españa,Catalan y castellano,Bachelor degree,no,no,B,1,conjunction_syn,L1,syncopated,s1,r2,84,Online_conjL1_syn//b.ta.be11.0.666.wav,ta,zu,lu,be,sil,ni,ro,cho,sil1,fo,sil2,['miss'],,,0.666,no_beat,,,,be,2,testWhenL4Uns//dep_viol.r2.s2.0.wav,4.0,when,unsyncopated,b,s2,no_rule,dep,L4,z,0.7903,5.0,1.0,0.789,3.0,2.0,Castellano,0.0,Catalan,0.0,inglés,5.0,4.0,6.0,yes,no,no,Flauta,12,,,Se ha hecho un poco repetitivo. No me ha dado tiempo a reaccionar de manera rápida en algunas ocasiones,75.0,yes
85,2024-02-16_18h01.18.843,Unsyncopated_study2,s98,20.0,feminino,right,españa,Catalan y castellano,Bachelor degree,no,no,B,1,conjunction_syn,L1,syncopated,s1,r2,85,Online_conjL1_syn//b.ta.be10.0.666.wav,ta,cho,ri,be,sil,ni,zu,ze,sil1,ne,sil2,['miss'],,,0.666,no_beat,,,,be,2,testWhenL4Uns//r2.s1.1.wav,4.0,when,unsyncopated,b,s1,rule,rule,L4,m,1.5061,5.0,0.0,0.518,3.0,2.0,Castellano,0.0,Catalan,0.0,inglés,5.0,4.0,6.0,yes,no,no,Flauta,12,,,Se ha hecho un poco repetitivo. No me ha dado tiempo a reaccionar de manera rápida en algunas ocasiones,75.0,yes
86,2024-02-16_18h01.18.843,Unsyncopated_study2,s98,20.0,feminino,right,españa,Catalan y castellano,Bachelor degree,no,no,B,1,conjunction_syn,L1,syncopated,s2,r2,86,Online_conjL1_syn//b.ta.be9.666.1554.wav,la,lu,ne,ta,sil,ze,fo,be,sil1,zu,sil2,['miss'],,,1.554,no_beat,,,,be,2,testWhenL4Uns//r2.s2.2.wav,4.0,when,unsyncopated,b,s2,rule,rule,L4,z,3.7373,5.0,1.0,0.5551,3.0,2.0,Castellano,0.0,Catalan,0.0,inglés,5.0,4.0,6.0,yes,no,no,Flauta,12,,,Se ha hecho un poco repetitivo. No me ha dado tiempo a reaccionar de manera rápida en algunas ocasiones,75.0,yes
87,2024-02-16_18h01.18.843,Unsyncopated_study2,s98,20.0,feminino,right,españa,Catalan y castellano,Bachelor degree,no,no,B,1,conjunction_syn,L1,syncopated,s1,r2,87,Online_conjL1_syn//b.ta.be8.0.666.wav,ta,la,zu,be,sil,ro,cho,ze,sil1,lu,sil2,['false alarm'],[0.10840000003577188],[0.10840000003577188],0.666,no_beat,,,"[""space""]",be,2,testWhenL4Uns//r1.s2.1.wav,4.0,when,unsyncopated,a,s2,rule,rule,L4,z,2.5674,5.0,1.0,0.5658,3.0,2.0,Castellano,0.0,Catalan,0.0,inglés,5.0,4.0,6.0,yes,no,no,Flauta,12,,,Se ha hecho un poco repetitivo. No me ha dado tiempo a reaccionar de manera rápida en algunas ocasiones,75.0,yes
88,2024-02-16_18h01.18.843,Unsyncopated_study2,s98,20.0,feminino,right,españa,Catalan y castellano,Bachelor degree,no,no,B,1,conjunction_syn,L1,syncopated,s1,r2,88,Online_conjL1_syn//a.pu.ki0.none.none.wav,ta,la,ni,be,sil,fa,lu,ro,sil1,fo,sil2,['false alarm'],[1.7711000000238073],[1.7711000000238073],none,none,,,"[""space""]",pu,1,testWhenL4Uns//r1.s1.2.wav,4.0,when,unsyncopated,a,s1,rule,rule,L4,z,3.5013,5.0,1.0,0.6587,3.0,2.0,Castellano,0.0,Catalan,0.0,inglés,5.0,4.0,6.0,yes,no,no,Flauta,12,,,Se ha hecho un poco repetitivo. No me ha dado tiempo a reaccionar de manera rápida en algunas ocasiones,75.0,yes
89,2024-02-16_18h01.18.843,Unsyncopated_study2,s98,20.0,feminino,right,españa,Catalan y castellano,Bachelor degree,no,no,B,1,conjunction_syn,L1,syncopated,s2,r1,89,Online_conjL1_syn//a.pu.ki1.666.1554.wav,ni,fo,fa,pu,sil,zu,lu,ki,sil1,ne,sil2,['catch'],[1.3521000000238246],[1.3521000000238246],0.666,no_beat,0.6861000000238245,0.6861000000238245,"[""space""]",pu,1,testWhenL4Uns//dep_viol.r2.s1.0.wav,4.0,when,unsyncopated,b,s1,no_rule,dep,L4,m,2.8306,5.0,0.0,0.6503,3.0,2.0,Castellano,0.0,Catalan,0.0,inglés,5.0,4.0,6.0,yes,no,no,Flauta,12,,,Se ha hecho un poco repetitivo. No me ha dado tiempo a reaccionar de manera rápida en algunas ocasiones,75.0,yes
90,2024-02-16_18h01.18.843,Unsyncopated_study2,s98,20.0,feminino,right,españa,Catalan y castellano,Bachelor degree,no,no,B,1,conjunction_syn,L1,syncopated,s1,r1,90,Online_conjL1_syn//a.pu.ki3.0.666.wav,pu,zu,la,ki,sil,fa,cho,ri,sil1,ro,sil2,['miss'],,,0.0,beat,,,,pu,1,testWhenL4Uns//r1.s1.1.wav,4.0,when,unsyncopated,a,s1,rule,rule,L4,z,0.9808,4.0,1.0,0.6207,3.0,2.0,Castellano,0.0,Catalan,0.0,inglés,5.0,4.0,6.0,yes,no,no,Flauta,12,,,Se ha hecho un poco repetitivo. No me ha dado tiempo a reaccionar de manera rápida en algunas ocasiones,75.0,yes
91,2024-02-16_18h01.18.843,Unsyncopated_study2,s98,20.0,feminino,right,españa,Catalan y castellano,Bachelor degree,no,no,B,1,conjunction_syn,L1,syncopated,s2,r2,91,Online_conjL1_syn//a.pu.ki2.none.none.wav,ne,ro,ri,ta,sil,fa,ze,be,sil1,la,sil2,['-'],,,none,none,,,,pu,1,testWhenL4Uns//cat_viol.r2.s1.0.wav,4.0,when,unsyncopated,b,s1,no_rule,cat,L4,z,1.3997,5.0,1.0,0.7095,3.0,2.0,Castellano,0.0,Catalan,0.0,inglés,5.0,4.0,6.0,yes,no,no,Flauta,12,,,Se ha hecho un poco repetitivo. No me ha dado tiempo a reaccionar de manera rápida en algunas ocasiones,75.0,yes
92,2024-02-16_18h01.18.843,Unsyncopated_study2,s98,20.0,feminino,right,españa,Catalan y castellano,Bachelor degree,no,no,B,1,conjunction_syn,L1,syncopated,s2,r2,92,Online_conjL1_syn//c.ro.fo30.1110.0.wav,fo,ze,fa,ta,sil,ro,ri,be,sil1,ni,sil2,['catch'],[1.5228000000118982],[1.5228000000118982],0.0,beat,,1.5228000000118982,"[""space""]",fo,3,testWhenL4Uns//cat_viol.r2.s2.0.wav,4.0,when,unsyncopated,b,s2,no_rule,cat,L4,z,5.7068,4.0,1.0,0.5363,3.0,2.0,Castellano,0.0,Catalan,0.0,inglés,5.0,4.0,6.0,yes,no,no,Flauta,12,,,Se ha hecho un poco repetitivo. No me ha dado tiempo a reaccionar de manera rápida en algunas ocasiones,75.0,yes
93,2024-02-16_18h01.18.843,Unsyncopated_study2,s98,20.0,feminino,right,españa,Catalan y castellano,Bachelor degree,no,no,B,1,conjunction_syn,L1,syncopated,s1,r2,93,Online_conjL1_syn//c.ro.fo29.none.none.wav,ta,zu,ri,be,sil,la,ni,fa,sil1,lu,sil2,['-'],,,none,none,,,,fo,3,testWhenL4Uns//r2.s2.1.wav,4.0,when,unsyncopated,b,s2,rule,rule,L4,z,1.4748,4.0,1.0,0.4418,3.0,2.0,Castellano,0.0,Catalan,0.0,inglés,5.0,4.0,6.0,yes,no,no,Flauta,12,,,Se ha hecho un poco repetitivo. No me ha dado tiempo a reaccionar de manera rápida en algunas ocasiones,75.0,yes
94,2024-02-16_18h01.18.843,Unsyncopated_study2,s98,20.0,feminino,right,españa,Catalan y castellano,Bachelor degree,no,no,B,1,conjunction_syn,L1,syncopated,s1,r1,94,Online_conjL1_syn//c.ro.fo28.none.none.wav,pu,ni,lu,ki,sil,ne,la,ze,sil1,fa,sil2,['-'],,,none,none,,,,fo,3,testWhenL4Uns//time_viol.r1.s2.0.wav,4.0,when,unsyncopated,a,s2,no_rule,time,L4,z,3.549,5.0,1.0,0.5014,3.0,2.0,Castellano,0.0,Catalan,0.0,inglés,5.0,4.0,6.0,yes,no,no,Flauta,12,,,Se ha hecho un poco repetitivo. No me ha dado tiempo a reaccionar de manera rápida en algunas ocasiones,75.0,yes
95,2024-02-16_18h01.18.843,Unsyncopated_study2,s98,20.0,feminino,right,españa,Catalan y castellano,Bachelor degree,no,no,B,1,conjunction_syn,L1,syncopated,s2,r2,95,Online_conjL1_syn//c.ro.fo31.none.none.wav,ri,fa,la,ta,sil,lu,ne,be,sil1,zu,sil2,['-'],,,none,none,,,,fo,3,testWhenL4Uns//r1.s1.0.wav,4.0,when,unsyncopated,a,s1,rule,rule,L4,z,1.702,5.0,1.0,0.8831,3.0,2.0,Castellano,0.0,Catalan,0.0,inglés,5.0,4.0,6.0,yes,no,no,Flauta,12,,,Se ha hecho un poco repetitivo. No me ha dado tiempo a reaccionar de manera rápida en algunas ocasiones,75.0,yes
96,2024-02-16_18h01.18.843,Unsyncopated_study2,s98,20.0,feminino,right,españa,Catalan y castellano,Bachelor degree,no,no,B,1,conjunction_syn,L1,syncopated,s2,r2,96,Online_conjL1_syn//d.ne.ni22.1110.0.wav,ni,ze,lu,ta,sil,ne,cho,be,sil1,zu,sil2,['miss'],,,0.0,beat,,,,ni,4,,,,,,,,,,,,,,,3.0,2.0,Castellano,0.0,Catalan,0.0,inglés,5.0,4.0,6.0,yes,no,no,Flauta,12,,,Se ha hecho un poco repetitivo. No me ha dado tiempo a reaccionar de manera rápida en algunas ocasiones,75.0,yes
97,2024-02-16_18h01.18.843,Unsyncopated_study2,s98,20.0,feminino,right,españa,Catalan y castellano,Bachelor degree,no,no,B,1,conjunction_syn,L1,syncopated,s2,r2,97,Online_conjL1_syn//d.ne.ni20.none.none.wav,ze,lu,ro,ta,sil,fa,ri,be,sil1,cho,sil2,['false alarm'],[0.6201999999880172],[0.6201999999880172],none,none,,,"[""space""]",ni,4,,,,,,,,,,,,,,,3.0,2.0,Castellano,0.0,Catalan,0.0,inglés,5.0,4.0,6.0,yes,no,no,Flauta,12,,,Se ha hecho un poco repetitivo. No me ha dado tiempo a reaccionar de manera rápida en algunas ocasiones,75.0,yes
98,2024-02-16_18h01.18.843,Unsyncopated_study2,s98,20.0,feminino,right,españa,Catalan y castellano,Bachelor degree,no,no,B,1,conjunction_syn,L1,syncopated,s1,r1,98,Online_conjL1_syn//d.ne.ni21.none.none.wav,pu,lu,fo,ki,sil,ze,cho,ro,sil1,zu,sil2,['-'],,,none,none,,,,ni,4,,,,,,,,,,,,,,,3.0,2.0,Castellano,0.0,Catalan,0.0,inglés,5.0,4.0,6.0,yes,no,no,Flauta,12,,,Se ha hecho un poco repetitivo. No me ha dado tiempo a reaccionar de manera rápida en algunas ocasiones,75.0,yes
99,2024-02-16_18h01.18.843,Unsyncopated_study2,s98,20.0,feminino,right,españa,Catalan y castellano,Bachelor degree,no,no,B,1,conjunction_syn,L1,syncopated,s2,r1,99,Online_conjL1_syn//d.ne.ni23.0.444.wav,ne,fo,ni,pu,sil,ri,fa,ki,sil1,lu,sil2,['miss'],,,0.444,no_beat,,,,ni,4,,,,,,,,,,,,,,,3.0,2.0,Castellano,0.0,Catalan,0.0,inglés,5.0,4.0,6.0,yes,no,no,Flauta,12,,,Se ha hecho un poco repetitivo. No me ha dado tiempo a reaccionar de manera rápida en algunas ocasiones,75.0,yes
100,2024-02-16_18h01.18.843,Unsyncopated_study2,s98,20.0,feminino,right,españa,Catalan y castellano,Bachelor degree,no,no,B,1,conjunction_syn,L1,syncopated,s2,r1,100,Online_conjL1_syn//c.ro.fo19.none.none.wav,la,ni,zu,pu,sil,ne,ri,ki,sil1,lu,sil2,['-'],,,none,none,,,,fo,3,,,,,,,,,,,,,,,3.0,2.0,Castellano,0.0,Catalan,0.0,inglés,5.0,4.0,6.0,yes,no,no,Flauta,12,,,Se ha hecho un poco repetitivo. No me ha dado tiempo a reaccionar de manera rápida en algunas ocasiones,75.0,yes
101,2024-02-16_18h01.18.843,Unsyncopated_study2,s98,20.0,feminino,right,españa,Catalan y castellano,Bachelor degree,no,no,B,1,conjunction_syn,L1,syncopated,s1,r2,101,Online_conjL1_syn//c.ro.fo16.1332.222.wav,ta,fo,ni,be,sil,la,ro,lu,sil1,fa,sil2,['catch'],[0.9794000000357528],[0.9794000000357528],0.222,no_beat,0.7574000000357528,0.7574000000357528,"[""space""]",fo,3,,,,,,,,,,,,,,,3.0,2.0,Castellano,0.0,Catalan,0.0,inglés,5.0,4.0,6.0,yes,no,no,Flauta,12,,,Se ha hecho un poco repetitivo. No me ha dado tiempo a reaccionar de manera rápida en algunas ocasiones,75.0,yes
102,2024-02-16_18h01.18.843,Unsyncopated_study2,s98,20.0,feminino,right,españa,Catalan y castellano,Bachelor degree,no,no,B,1,conjunction_syn,L1,syncopated,s2,r1,102,Online_conjL1_syn//c.ro.fo17.444.0.wav,fo,fa,ro,pu,sil,lu,ze,ki,sil1,ni,sil2,['miss'],,,0.0,beat,,,,fo,3,,,,,,,,,,,,,,,3.0,2.0,Castellano,0.0,Catalan,0.0,inglés,5.0,4.0,6.0,yes,no,no,Flauta,12,,,Se ha hecho un poco repetitivo. No me ha dado tiempo a reaccionar de manera rápida en algunas ocasiones,75.0,yes
103,2024-02-16_18h01.18.843,Unsyncopated_study2,s98,20.0,feminino,right,españa,Catalan y castellano,Bachelor degree,no,no,B,1,conjunction_syn,L1,syncopated,s1,r1,103,Online_conjL1_syn//c.ro.fo18.1110.222.wav,pu,fo,zu,ki,sil,ro,cho,ze,sil1,ne,sil2,['miss'],,,0.222,no_beat,,,,fo,3,,,,,,,,,,,,,,,3.0,2.0,Castellano,0.0,Catalan,0.0,inglés,5.0,4.0,6.0,yes,no,no,Flauta,12,,,Se ha hecho un poco repetitivo. No me ha dado tiempo a reaccionar de manera rápida en algunas ocasiones,75.0,yes
104,2024-02-16_18h01.18.843,Unsyncopated_study2,s98,20.0,feminino,right,españa,Catalan y castellano,Bachelor degree,no,no,B,1,conjunction_syn,L1,syncopated,s1,r2,104,Online_conjL1_syn//d.ne.ni10.none.none.wav,ta,ze,fo,be,sil,ro,zu,ri,sil1,lu,sil2,['false alarm'],[1.0023999999762054],[1.0023999999762054],none,none,,,"[""space""]",ni,4,,,,,,,,,,,,,,,3.0,2.0,Castellano,0.0,Catalan,0.0,inglés,5.0,4.0,6.0,yes,no,no,Flauta,12,,,Se ha hecho un poco repetitivo. No me ha dado tiempo a reaccionar de manera rápida en algunas ocasiones,75.0,yes
105,2024-02-16_18h01.18.843,Unsyncopated_study2,s98,20.0,feminino,right,españa,Catalan y castellano,Bachelor degree,no,no,B,1,conjunction_syn,L1,syncopated,s1,r1,105,Online_conjL1_syn//d.ne.ni11.222.1332.wav,pu,ne,ri,ki,sil,la,ni,cho,sil1,ro,sil2,['catch'],[1.8412000000477065],[1.8412000000477065],1.332,no_beat,0.5092000000477064,0.5092000000477064,"[""space""]",ni,4,,,,,,,,,,,,,,,3.0,2.0,Castellano,0.0,Catalan,0.0,inglés,5.0,4.0,6.0,yes,no,no,Flauta,12,,,Se ha hecho un poco repetitivo. No me ha dado tiempo a reaccionar de manera rápida en algunas ocasiones,75.0,yes
106,2024-02-16_18h01.18.843,Unsyncopated_study2,s98,20.0,feminino,right,españa,Catalan y castellano,Bachelor degree,no,no,B,1,conjunction_syn,L1,syncopated,s2,r1,106,Online_conjL1_syn//d.ne.ni8.222.444.wav,fo,ne,ni,pu,sil,ri,ze,ki,sil1,ro,sil2,['catch'],[1.4941000000237636],[1.4941000000237636],0.444,no_beat,1.0501000000237637,1.0501000000237637,"[""space""]",ni,4,,,,,,,,,,,,,,,3.0,2.0,Castellano,0.0,Catalan,0.0,inglés,5.0,4.0,6.0,yes,no,no,Flauta,12,,,Se ha hecho un poco repetitivo. No me ha dado tiempo a reaccionar de manera rápida en algunas ocasiones,75.0,yes
107,2024-02-16_18h01.18.843,Unsyncopated_study2,s98,20.0,feminino,right,españa,Catalan y castellano,Bachelor degree,no,no,B,1,conjunction_syn,L1,syncopated,s2,r2,107,Online_conjL1_syn//d.ne.ni9.0.444.wav,ne,fo,ni,ta,sil,lu,ri,be,sil1,cho,sil2,['miss'],,,0.444,no_beat,,,,ni,4,,,,,,,,,,,,,,,3.0,2.0,Castellano,0.0,Catalan,0.0,inglés,5.0,4.0,6.0,yes,no,no,Flauta,12,,,Se ha hecho un poco repetitivo. No me ha dado tiempo a reaccionar de manera rápida en algunas ocasiones,75.0,yes
108,2024-02-16_18h01.18.843,Unsyncopated_study2,s98,20.0,feminino,right,españa,Catalan y castellano,Bachelor degree,no,no,B,1,conjunction_syn,L1,syncopated,s2,r2,108,Online_conjL1_syn//b.ta.be1.666.1554.wav,ni,la,lu,ta,sil,cho,ro,be,sil1,ne,sil2,['miss'],,,1.554,no_beat,,,,be,2,,,,,,,,,,,,,,,3.0,2.0,Castellano,0.0,Catalan,0.0,inglés,5.0,4.0,6.0,yes,no,no,Flauta,12,,,Se ha hecho un poco repetitivo. No me ha dado tiempo a reaccionar de manera rápida en algunas ocasiones,75.0,yes
109,2024-02-16_18h01.18.843,Unsyncopated_study2,s98,20.0,feminino,right,españa,Catalan y castellano,Bachelor degree,no,no,B,1,conjunction_syn,L1,syncopated,s2,r2,109,Online_conjL1_syn//b.ta.be0.666.1554.wav,cho,fa,fo,ta,sil,zu,la,be,sil1,ne,sil2,['catch'],[2.323100000023828],[2.323100000023828],1.554,no_beat,0.7691000000238282,0.7691000000238282,"[""space""]",be,2,,,,,,,,,,,,,,,3.0,2.0,Castellano,0.0,Catalan,0.0,inglés,5.0,4.0,6.0,yes,no,no,Flauta,12,,,Se ha hecho un poco repetitivo. No me ha dado tiempo a reaccionar de manera rápida en algunas ocasiones,75.0,yes
110,2024-02-16_18h01.18.843,Unsyncopated_study2,s98,20.0,feminino,right,españa,Catalan y castellano,Bachelor degree,no,no,B,1,conjunction_syn,L1,syncopated,s2,r2,110,Online_conjL1_syn//b.ta.be3.666.1554.wav,lu,ro,zu,ta,sil,ne,fo,be,sil1,ni,sil2,['miss'],,,1.554,no_beat,,,,be,2,,,,,,,,,,,,,,,3.0,2.0,Castellano,0.0,Catalan,0.0,inglés,5.0,4.0,6.0,yes,no,no,Flauta,12,,,Se ha hecho un poco repetitivo. No me ha dado tiempo a reaccionar de manera rápida en algunas ocasiones,75.0,yes
111,2024-02-16_18h01.18.843,Unsyncopated_study2,s98,20.0,feminino,right,españa,Catalan y castellano,Bachelor degree,no,no,B,1,conjunction_syn,L1,syncopated,s2,r1,111,Online_conjL1_syn//b.ta.be2.none.none.wav,ri,ne,fo,pu,sil,zu,la,ki,sil1,lu,sil2,['false alarm'],[0.1449999999999818],[0.1449999999999818],none,none,,,"[""space""]",be,2,,,,,,,,,,,,,,,3.0,2.0,Castellano,0.0,Catalan,0.0,inglés,5.0,4.0,6.0,yes,no,no,Flauta,12,,,Se ha hecho un poco repetitivo. No me ha dado tiempo a reaccionar de manera rápida en algunas ocasiones,75.0,yes
112,2024-02-16_18h01.18.843,Unsyncopated_study2,s98,20.0,feminino,right,españa,Catalan y castellano,Bachelor degree,no,no,B,1,conjunction_syn,L1,syncopated,s1,r1,112,Online_conjL1_syn//c.ro.fo13.1554.222.wav,pu,fo,fa,ki,sil,ni,cho,ro,sil1,ze,sil2,['miss'],,,0.222,no_beat,,,,fo,3,,,,,,,,,,,,,,,3.0,2.0,Castellano,0.0,Catalan,0.0,inglés,5.0,4.0,6.0,yes,no,no,Flauta,12,,,Se ha hecho un poco repetitivo. No me ha dado tiempo a reaccionar de manera rápida en algunas ocasiones,75.0,yes
113,2024-02-16_18h01.18.843,Unsyncopated_study2,s98,20.0,feminino,right,españa,Catalan y castellano,Bachelor degree,no,no,B,1,conjunction_syn,L1,syncopated,s2,r2,113,Online_conjL1_syn//c.ro.fo12.1332.444.wav,fa,zu,fo,ta,sil,cho,ro,be,sil1,ne,sil2,['catch'],[1.271100000023921],[1.271100000023921],0.444,no_beat,0.827100000023921,0.827100000023921,"[""space""]",fo,3,,,,,,,,,,,,,,,3.0,2.0,Castellano,0.0,Catalan,0.0,inglés,5.0,4.0,6.0,yes,no,no,Flauta,12,,,Se ha hecho un poco repetitivo. No me ha dado tiempo a reaccionar de manera rápida en algunas ocasiones,75.0,yes
114,2024-02-16_18h01.18.843,Unsyncopated_study2,s98,20.0,feminino,right,españa,Catalan y castellano,Bachelor degree,no,no,B,1,conjunction_syn,L1,syncopated,s2,r2,114,Online_conjL1_syn//c.ro.fo14.none.none.wav,fa,zu,ri,ta,sil,la,ni,be,sil1,ne,sil2,['-'],,,none,none,,,,fo,3,,,,,,,,,,,,,,,3.0,2.0,Castellano,0.0,Catalan,0.0,inglés,5.0,4.0,6.0,yes,no,no,Flauta,12,,,Se ha hecho un poco repetitivo. No me ha dado tiempo a reaccionar de manera rápida en algunas ocasiones,75.0,yes
115,2024-02-16_18h01.18.843,Unsyncopated_study2,s98,20.0,feminino,right,españa,Catalan y castellano,Bachelor degree,no,no,B,1,conjunction_syn,L1,syncopated,s1,r1,115,Online_conjL1_syn//c.ro.fo15.none.none.wav,pu,ri,ze,ki,sil,lu,ne,la,sil1,cho,sil2,['-'],,,none,none,,,,fo,3,,,,,,,,,,,,,,,3.0,2.0,Castellano,0.0,Catalan,0.0,inglés,5.0,4.0,6.0,yes,no,no,Flauta,12,,,Se ha hecho un poco repetitivo. No me ha dado tiempo a reaccionar de manera rápida en algunas ocasiones,75.0,yes
116,2024-02-16_18h01.18.843,Unsyncopated_study2,s98,20.0,feminino,right,españa,Catalan y castellano,Bachelor degree,no,no,B,1,conjunction_syn,L1,syncopated,s2,r1,116,Online_conjL1_syn//a.pu.ki13.666.1554.wav,fa,ro,ne,pu,sil,fo,lu,ki,sil1,ni,sil2,['miss'],,,0.666,no_beat,,,,pu,1,,,,,,,,,,,,,,,3.0,2.0,Castellano,0.0,Catalan,0.0,inglés,5.0,4.0,6.0,yes,no,no,Flauta,12,,,Se ha hecho un poco repetitivo. No me ha dado tiempo a reaccionar de manera rápida en algunas ocasiones,75.0,yes
117,2024-02-16_18h01.18.843,Unsyncopated_study2,s98,20.0,feminino,right,españa,Catalan y castellano,Bachelor degree,no,no,B,1,conjunction_syn,L1,syncopated,s1,r2,117,Online_conjL1_syn//a.pu.ki14.none.none.wav,ta,ri,ze,be,sil,lu,fa,cho,sil1,fo,sil2,['-'],,,none,none,,,,pu,1,,,,,,,,,,,,,,,3.0,2.0,Castellano,0.0,Catalan,0.0,inglés,5.0,4.0,6.0,yes,no,no,Flauta,12,,,Se ha hecho un poco repetitivo. No me ha dado tiempo a reaccionar de manera rápida en algunas ocasiones,75.0,yes
118,2024-02-16_18h01.18.843,Unsyncopated_study2,s98,20.0,feminino,right,españa,Catalan y castellano,Bachelor degree,no,no,B,1,conjunction_syn,L1,syncopated,s1,r1,118,Online_conjL1_syn//a.pu.ki12.0.666.wav,pu,zu,ni,ki,sil,ne,ro,fo,sil1,cho,sil2,['catch'],[0.4024000000357546],[0.4024000000357546],0.0,beat,0.4024000000357546,0.4024000000357546,"[""space""]",pu,1,,,,,,,,,,,,,,,3.0,2.0,Castellano,0.0,Catalan,0.0,inglés,5.0,4.0,6.0,yes,no,no,Flauta,12,,,Se ha hecho un poco repetitivo. No me ha dado tiempo a reaccionar de manera rápida en algunas ocasiones,75.0,yes
119,2024-02-16_18h01.18.843,Unsyncopated_study2,s98,20.0,feminino,right,españa,Catalan y castellano,Bachelor degree,no,no,B,1,conjunction_syn,L1,syncopated,s1,r2,119,Online_conjL1_syn//a.pu.ki15.none.none.wav,ta,fo,ne,be,sil,la,ze,fa,sil1,cho,sil2,['-'],,,none,none,,,,pu,1,,,,,,,,,,,,,,,3.0,2.0,Castellano,0.0,Catalan,0.0,inglés,5.0,4.0,6.0,yes,no,no,Flauta,12,,,Se ha hecho un poco repetitivo. No me ha dado tiempo a reaccionar de manera rápida en algunas ocasiones,75.0,yes
120,2024-02-16_18h01.18.843,Unsyncopated_study2,s98,20.0,feminino,right,españa,Catalan y castellano,Bachelor degree,no,no,B,1,conjunction_syn,L1,syncopated,s1,r2,120,Online_conjL1_syn//d.ne.ni27.none.none.wav,ta,la,fo,be,sil,zu,cho,ze,sil1,ri,sil2,['false alarm'],[0.6401999999881127],[0.6401999999881127],none,none,,,"[""space""]",ni,4,,,,,,,,,,,,,,,3.0,2.0,Castellano,0.0,Catalan,0.0,inglés,5.0,4.0,6.0,yes,no,no,Flauta,12,,,Se ha hecho un poco repetitivo. No me ha dado tiempo a reaccionar de manera rápida en algunas ocasiones,75.0,yes
121,2024-02-16_18h01.18.843,Unsyncopated_study2,s98,20.0,feminino,right,españa,Catalan y castellano,Bachelor degree,no,no,B,1,conjunction_syn,L1,syncopated,s2,r2,121,Online_conjL1_syn//d.ne.ni24.none.none.wav,lu,ro,la,ta,sil,fa,fo,be,sil1,zu,sil2,['-'],,,none,none,,,,ni,4,,,,,,,,,,,,,,,3.0,2.0,Castellano,0.0,Catalan,0.0,inglés,5.0,4.0,6.0,yes,no,no,Flauta,12,,,Se ha hecho un poco repetitivo. No me ha dado tiempo a reaccionar de manera rápida en algunas ocasiones,75.0,yes
122,2024-02-16_18h01.18.843,Unsyncopated_study2,s98,20.0,feminino,right,españa,Catalan y castellano,Bachelor degree,no,no,B,1,conjunction_syn,L1,syncopated,s1,r2,122,Online_conjL1_syn//d.ne.ni25.222.1110.wav,ta,ne,ze,be,sil,ni,cho,la,sil1,lu,sil2,['catch'],[1.7386999999880572],[1.7386999999880572],1.11,no_beat,0.6286999999880571,0.6286999999880571,"[""space""]",ni,4,,,,,,,,,,,,,,,3.0,2.0,Castellano,0.0,Catalan,0.0,inglés,5.0,4.0,6.0,yes,no,no,Flauta,12,,,Se ha hecho un poco repetitivo. No me ha dado tiempo a reaccionar de manera rápida en algunas ocasiones,75.0,yes
123,2024-02-16_18h01.18.843,Unsyncopated_study2,s98,20.0,feminino,right,españa,Catalan y castellano,Bachelor degree,no,no,B,1,conjunction_syn,L1,syncopated,s2,r1,123,Online_conjL1_syn//d.ne.ni26.none.none.wav,ze,zu,fa,pu,sil,cho,lu,ki,sil1,fo,sil2,['-'],,,none,none,,,,ni,4,,,,,,,,,,,,,,,3.0,2.0,Castellano,0.0,Catalan,0.0,inglés,5.0,4.0,6.0,yes,no,no,Flauta,12,,,Se ha hecho un poco repetitivo. No me ha dado tiempo a reaccionar de manera rápida en algunas ocasiones,75.0,yes
124,2024-02-16_18h01.18.843,Unsyncopated_study2,s98,20.0,feminino,right,españa,Catalan y castellano,Bachelor degree,no,no,B,1,conjunction_syn,L1,syncopated,s2,r2,124,Online_conjL1_syn//b.ta.be24.666.1554.wav,fo,ni,ro,ta,sil,ri,cho,be,sil1,ne,sil2,['catch'],[2.2378999999762073],[2.2378999999762073],1.554,no_beat,0.6838999999762072,0.6838999999762072,"[""space""]",be,2,,,,,,,,,,,,,,,3.0,2.0,Castellano,0.0,Catalan,0.0,inglés,5.0,4.0,6.0,yes,no,no,Flauta,12,,,Se ha hecho un poco repetitivo. No me ha dado tiempo a reaccionar de manera rápida en algunas ocasiones,75.0,yes
125,2024-02-16_18h01.18.843,Unsyncopated_study2,s98,20.0,feminino,right,españa,Catalan y castellano,Bachelor degree,no,no,B,1,conjunction_syn,L1,syncopated,s2,r2,125,Online_conjL1_syn//b.ta.be26.666.1554.wav,cho,lu,la,ta,sil,fo,ro,be,sil1,zu,sil2,['miss'],,,1.554,no_beat,,,,be,2,,,,,,,,,,,,,,,3.0,2.0,Castellano,0.0,Catalan,0.0,inglés,5.0,4.0,6.0,yes,no,no,Flauta,12,,,Se ha hecho un poco repetitivo. No me ha dado tiempo a reaccionar de manera rápida en algunas ocasiones,75.0,yes
126,2024-02-16_18h01.18.843,Unsyncopated_study2,s98,20.0,feminino,right,españa,Catalan y castellano,Bachelor degree,no,no,B,1,conjunction_syn,L1,syncopated,s1,r2,126,Online_conjL1_syn//b.ta.be25.0.666.wav,ta,ri,ze,be,sil,ni,cho,lu,sil1,ne,sil2,['miss'],,,0.666,no_beat,,,,be,2,,,,,,,,,,,,,,,3.0,2.0,Castellano,0.0,Catalan,0.0,inglés,5.0,4.0,6.0,yes,no,no,Flauta,12,,,Se ha hecho un poco repetitivo. No me ha dado tiempo a reaccionar de manera rápida en algunas ocasiones,75.0,yes
127,2024-02-16_18h01.18.843,Unsyncopated_study2,s98,20.0,feminino,right,españa,Catalan y castellano,Bachelor degree,no,no,B,1,conjunction_syn,L1,syncopated,s1,r1,127,Online_conjL1_syn//b.ta.be27.none.none.wav,pu,ze,lu,ki,sil,ro,fo,ni,sil1,ri,sil2,['-'],,,none,none,,,,be,2,,,,,,,,,,,,,,,3.0,2.0,Castellano,0.0,Catalan,0.0,inglés,5.0,4.0,6.0,yes,no,no,Flauta,12,,,Se ha hecho un poco repetitivo. No me ha dado tiempo a reaccionar de manera rápida en algunas ocasiones,75.0,yes
128,2024-02-16_18h01.18.843,Unsyncopated_study2,s98,20.0,feminino,right,españa,Catalan y castellano,Bachelor degree,no,no,B,2,conjunction_un,L2,unsyncopated,s2,r2,0,Online_conjL2_un//b.fe.ra4.888.1776.wav,bi,ñi,to,sil,fe,me,ba,sil1,ra,cha,sil2,['catch'],[2.3861000000240438],[2.3861000000240438],1.776,beat,0.6101000000240437,0.6101000000240437,"[""space""]",ra,2,,,,,,,,,,,,,,,3.0,2.0,Castellano,0.0,Catalan,0.0,inglés,5.0,4.0,6.0,yes,no,no,Flauta,12,,,Se ha hecho un poco repetitivo. No me ha dado tiempo a reaccionar de manera rápida en algunas ocasiones,75.0,yes
129,2024-02-16_18h01.18.843,Unsyncopated_study2,s98,20.0,feminino,right,españa,Catalan y castellano,Bachelor degree,no,no,B,2,conjunction_un,L2,unsyncopated,s1,r2,1,Online_conjL2_un//b.fe.ra6.0.888.wav,fe,me,ñu,sil,ra,ñi,mi,sil1,to,bi,sil2,['catch'],[1.3501999999880354],[1.3501999999880354],0.888,beat,0.4621999999880354,0.4621999999880354,"[""space""]",ra,2,,,,,,,,,,,,,,,3.0,2.0,Castellano,0.0,Catalan,0.0,inglés,5.0,4.0,6.0,yes,no,no,Flauta,12,,,Se ha hecho un poco repetitivo. No me ha dado tiempo a reaccionar de manera rápida en algunas ocasiones,75.0,yes
130,2024-02-16_18h01.18.843,Unsyncopated_study2,s98,20.0,feminino,right,españa,Catalan y castellano,Bachelor degree,no,no,B,2,conjunction_un,L2,unsyncopated,s2,r1,2,Online_conjL2_un//b.fe.ra5.none.none.wav,cha,si,su,sil,go,bi,mi,sil1,du,ñu,sil2,['-'],,,none,none,,,,ra,2,,,,,,,,,,,,,,,3.0,2.0,Castellano,0.0,Catalan,0.0,inglés,5.0,4.0,6.0,yes,no,no,Flauta,12,,,Se ha hecho un poco repetitivo. No me ha dado tiempo a reaccionar de manera rápida en algunas ocasiones,75.0,yes
131,2024-02-16_18h01.18.843,Unsyncopated_study2,s98,20.0,feminino,right,españa,Catalan y castellano,Bachelor degree,no,no,B,2,conjunction_un,L2,unsyncopated,s1,r1,3,Online_conjL2_un//b.fe.ra7.none.none.wav,go,ñu,si,sil,du,me,ñi,sil1,te,ba,sil2,['false alarm'],[0.7475999999642227],[0.7475999999642227],none,none,,,"[""space""]",ra,2,,,,,,,,,,,,,,,3.0,2.0,Castellano,0.0,Catalan,0.0,inglés,5.0,4.0,6.0,yes,no,no,Flauta,12,,,Se ha hecho un poco repetitivo. No me ha dado tiempo a reaccionar de manera rápida en algunas ocasiones,75.0,yes
132,2024-02-16_18h01.18.843,Unsyncopated_study2,s98,20.0,feminino,right,españa,Catalan y castellano,Bachelor degree,no,no,B,2,conjunction_un,L2,unsyncopated,s1,r2,4,Online_conjL2_un//c.cha.me27.1776.444.wav,fe,bi,me,sil,ra,mi,ba,sil1,cha,ñu,sil2,['catch'],[1.2953000000118209],[1.2953000000118209],0.444,no_beat,0.8513000000118209,0.8513000000118209,"[""space""]",me,3,,,,,,,,,,,,,,,3.0,2.0,Castellano,0.0,Catalan,0.0,inglés,5.0,4.0,6.0,yes,no,no,Flauta,12,,,Se ha hecho un poco repetitivo. No me ha dado tiempo a reaccionar de manera rápida en algunas ocasiones,75.0,yes
133,2024-02-16_18h01.18.843,Unsyncopated_study2,s98,20.0,feminino,right,españa,Catalan y castellano,Bachelor degree,no,no,B,2,conjunction_un,L2,unsyncopated,s2,r1,5,Online_conjL2_un//c.cha.me26.none.none.wav,to,si,ba,sil,go,ñi,ñu,sil1,du,bi,sil2,['-'],,,none,none,,,,me,3,,,,,,,,,,,,,,,3.0,2.0,Castellano,0.0,Catalan,0.0,inglés,5.0,4.0,6.0,yes,no,no,Flauta,12,,,Se ha hecho un poco repetitivo. No me ha dado tiempo a reaccionar de manera rápida en algunas ocasiones,75.0,yes
134,2024-02-16_18h01.18.843,Unsyncopated_study2,s98,20.0,feminino,right,españa,Catalan y castellano,Bachelor degree,no,no,B,2,conjunction_un,L2,unsyncopated,s2,r1,6,Online_conjL2_un//c.cha.me24.444.0.wav,me,ba,cha,sil,go,su,bi,sil1,du,ñu,sil2,['catch'],[0.36939999997616724],[0.36939999997616724],0.0,beat,0.3693999999761672,0.3693999999761672,"[""space""]",me,3,,,,,,,,,,,,,,,3.0,2.0,Castellano,0.0,Catalan,0.0,inglés,5.0,4.0,6.0,yes,no,no,Flauta,12,,,Se ha hecho un poco repetitivo. No me ha dado tiempo a reaccionar de manera rápida en algunas ocasiones,75.0,yes
135,2024-02-16_18h01.18.843,Unsyncopated_study2,s98,20.0,feminino,right,españa,Catalan y castellano,Bachelor degree,no,no,B,2,conjunction_un,L2,unsyncopated,s1,r2,7,Online_conjL2_un//c.cha.me25.none.none.wav,fe,ñu,ba,sil,ra,ñi,si,sil1,te,su,sil2,['-'],,,none,none,,,,me,3,,,,,,,,,,,,,,,3.0,2.0,Castellano,0.0,Catalan,0.0,inglés,5.0,4.0,6.0,yes,no,no,Flauta,12,,,Se ha hecho un poco repetitivo. No me ha dado tiempo a reaccionar de manera rápida en algunas ocasiones,75.0,yes
136,2024-02-16_18h01.18.843,Unsyncopated_study2,s98,20.0,feminino,right,españa,Catalan y castellano,Bachelor degree,no,no,B,2,conjunction_un,L2,unsyncopated,s2,r1,8,Online_conjL2_un//d.si.ñu30.1332.222.wav,ba,ñu,ñi,sil,go,mi,si,sil1,du,cha,sil2,['miss'],,,0.222,no_beat,,,,ñu,4,,,,,,,,,,,,,,,3.0,2.0,Castellano,0.0,Catalan,0.0,inglés,5.0,4.0,6.0,yes,no,no,Flauta,12,,,Se ha hecho un poco repetitivo. No me ha dado tiempo a reaccionar de manera rápida en algunas ocasiones,75.0,yes
137,2024-02-16_18h01.18.843,Unsyncopated_study2,s98,20.0,feminino,right,españa,Catalan y castellano,Bachelor degree,no,no,B,2,conjunction_un,L2,unsyncopated,s1,r2,9,Online_conjL2_un//d.si.ñu29.1332.444.wav,fe,mi,ñu,sil,ra,su,si,sil1,ñi,cha,sil2,"['catch', 'false alarm']","[1.185799999952451, 2.59699999999998]",[1.185799999952451],0.444,no_beat,0.7417999999524509,0.7417999999524509,"[""space"",""space""]",ñu,4,,,,,,,,,,,,,,,3.0,2.0,Castellano,0.0,Catalan,0.0,inglés,5.0,4.0,6.0,yes,no,no,Flauta,12,,,Se ha hecho un poco repetitivo. No me ha dado tiempo a reaccionar de manera rápida en algunas ocasiones,75.0,yes
138,2024-02-16_18h01.18.843,Unsyncopated_study2,s98,20.0,feminino,right,españa,Catalan y castellano,Bachelor degree,no,no,B,2,conjunction_un,L2,unsyncopated,s1,r1,10,Online_conjL2_un//d.si.ñu28.none.none.wav,go,me,su,sil,du,te,to,sil1,bi,ba,sil2,['-'],,,none,none,,,,ñu,4,,,,,,,,,,,,,,,3.0,2.0,Castellano,0.0,Catalan,0.0,inglés,5.0,4.0,6.0,yes,no,no,Flauta,12,,,Se ha hecho un poco repetitivo. No me ha dado tiempo a reaccionar de manera rápida en algunas ocasiones,75.0,yes
139,2024-02-16_18h01.18.843,Unsyncopated_study2,s98,20.0,feminino,right,españa,Catalan y castellano,Bachelor degree,no,no,B,2,conjunction_un,L2,unsyncopated,s2,r2,11,Online_conjL2_un//d.si.ñu31.none.none.wav,su,ñi,to,sil,fe,me,ba,sil1,ra,te,sil2,['false alarm'],[0.7608000000118409],[0.7608000000118409],none,none,,,"[""space""]",ñu,4,,,,,,,,,,,,,,,3.0,2.0,Castellano,0.0,Catalan,0.0,inglés,5.0,4.0,6.0,yes,no,no,Flauta,12,,,Se ha hecho un poco repetitivo. No me ha dado tiempo a reaccionar de manera rápida en algunas ocasiones,75.0,yes
140,2024-02-16_18h01.18.843,Unsyncopated_study2,s98,20.0,feminino,right,españa,Catalan y castellano,Bachelor degree,no,no,B,2,conjunction_un,L2,unsyncopated,s1,r2,12,Online_conjL2_un//d.si.ñu20.1776.222.wav,fe,ñu,cha,sil,ra,bi,te,sil1,si,ñi,sil2,['catch'],[1.002299999952129],[1.002299999952129],0.222,no_beat,0.780299999952129,0.780299999952129,"[""space""]",ñu,4,,,,,,,,,,,,,,,3.0,2.0,Castellano,0.0,Catalan,0.0,inglés,5.0,4.0,6.0,yes,no,no,Flauta,12,,,Se ha hecho un poco repetitivo. No me ha dado tiempo a reaccionar de manera rápida en algunas ocasiones,75.0,yes
141,2024-02-16_18h01.18.843,Unsyncopated_study2,s98,20.0,feminino,right,españa,Catalan y castellano,Bachelor degree,no,no,B,2,conjunction_un,L2,unsyncopated,s2,r1,13,Online_conjL2_un//d.si.ñu23.none.none.wav,su,to,ñi,sil,go,mi,cha,sil1,du,ba,sil2,['false alarm'],[1.1186000000238892],[1.1186000000238892],none,none,,,"[""space""]",ñu,4,,,,,,,,,,,,,,,3.0,2.0,Castellano,0.0,Catalan,0.0,inglés,5.0,4.0,6.0,yes,no,no,Flauta,12,,,Se ha hecho un poco repetitivo. No me ha dado tiempo a reaccionar de manera rápida en algunas ocasiones,75.0,yes
142,2024-02-16_18h01.18.843,Unsyncopated_study2,s98,20.0,feminino,right,españa,Catalan y castellano,Bachelor degree,no,no,B,2,conjunction_un,L2,unsyncopated,s1,r2,14,Online_conjL2_un//d.si.ñu21.none.none.wav,fe,ba,mi,sil,ra,cha,su,sil1,to,me,sil2,['-'],,,none,none,,,,ñu,4,,,,,,,,,,,,,,,3.0,2.0,Castellano,0.0,Catalan,0.0,inglés,5.0,4.0,6.0,yes,no,no,Flauta,12,,,Se ha hecho un poco repetitivo. No me ha dado tiempo a reaccionar de manera rápida en algunas ocasiones,75.0,yes
143,2024-02-16_18h01.18.843,Unsyncopated_study2,s98,20.0,feminino,right,españa,Catalan y castellano,Bachelor degree,no,no,B,2,conjunction_un,L2,unsyncopated,s1,r1,15,Online_conjL2_un//d.si.ñu22.none.none.wav,go,su,to,sil,du,ñi,me,sil1,bi,mi,sil2,['false alarm'],[1.6416999999880773],[1.6416999999880773],none,none,,,"[""space""]",ñu,4,,,,,,,,,,,,,,,3.0,2.0,Castellano,0.0,Catalan,0.0,inglés,5.0,4.0,6.0,yes,no,no,Flauta,12,,,Se ha hecho un poco repetitivo. No me ha dado tiempo a reaccionar de manera rápida en algunas ocasiones,75.0,yes
144,2024-02-16_18h01.18.843,Unsyncopated_study2,s98,20.0,feminino,right,españa,Catalan y castellano,Bachelor degree,no,no,B,2,conjunction_un,L2,unsyncopated,s2,r2,16,Online_conjL2_un//d.si.ñu9.none.none.wav,bi,cha,to,sil,fe,te,ba,sil1,ra,me,sil2,['-'],,,none,none,,,,ñu,4,,,,,,,,,,,,,,,3.0,2.0,Castellano,0.0,Catalan,0.0,inglés,5.0,4.0,6.0,yes,no,no,Flauta,12,,,Se ha hecho un poco repetitivo. No me ha dado tiempo a reaccionar de manera rápida en algunas ocasiones,75.0,yes
145,2024-02-16_18h01.18.843,Unsyncopated_study2,s98,20.0,feminino,right,españa,Catalan y castellano,Bachelor degree,no,no,B,2,conjunction_un,L2,unsyncopated,s1,r2,17,Online_conjL2_un//d.si.ñu10.none.none.wav,fe,ba,bi,sil,ra,te,mi,sil1,me,to,sil2,['-'],,,none,none,,,,ñu,4,,,,,,,,,,,,,,,3.0,2.0,Castellano,0.0,Catalan,0.0,inglés,5.0,4.0,6.0,yes,no,no,Flauta,12,,,Se ha hecho un poco repetitivo. No me ha dado tiempo a reaccionar de manera rápida en algunas ocasiones,75.0,yes
146,2024-02-16_18h01.18.843,Unsyncopated_study2,s98,20.0,feminino,right,españa,Catalan y castellano,Bachelor degree,no,no,B,2,conjunction_un,L2,unsyncopated,s2,r1,18,Online_conjL2_un//d.si.ñu8.0.222.wav,si,ñu,bi,sil,go,me,to,sil1,du,ba,sil2,['miss'],,,0.222,no_beat,,,,ñu,4,,,,,,,,,,,,,,,3.0,2.0,Castellano,0.0,Catalan,0.0,inglés,5.0,4.0,6.0,yes,no,no,Flauta,12,,,Se ha hecho un poco repetitivo. No me ha dado tiempo a reaccionar de manera rápida en algunas ocasiones,75.0,yes
147,2024-02-16_18h01.18.843,Unsyncopated_study2,s98,20.0,feminino,right,españa,Catalan y castellano,Bachelor degree,no,no,B,2,conjunction_un,L2,unsyncopated,s2,r1,19,Online_conjL2_un//d.si.ñu11.none.none.wav,ba,to,bi,sil,go,mi,te,sil1,du,su,sil2,['-'],,,none,none,,,,ñu,4,,,,,,,,,,,,,,,3.0,2.0,Castellano,0.0,Catalan,0.0,inglés,5.0,4.0,6.0,yes,no,no,Flauta,12,,,Se ha hecho un poco repetitivo. No me ha dado tiempo a reaccionar de manera rápida en algunas ocasiones,75.0,yes
148,2024-02-16_18h01.18.843,Unsyncopated_study2,s98,20.0,feminino,right,españa,Catalan y castellano,Bachelor degree,no,no,B,2,conjunction_un,L2,unsyncopated,s1,r1,20,Online_conjL2_un//a.go.du29.0.888.wav,go,mi,me,sil,du,to,bi,sil1,cha,ñu,sil2,['miss'],,,0.0,beat,,,,go,1,,,,,,,,,,,,,,,3.0,2.0,Castellano,0.0,Catalan,0.0,inglés,5.0,4.0,6.0,yes,no,no,Flauta,12,,,Se ha hecho un poco repetitivo. No me ha dado tiempo a reaccionar de manera rápida en algunas ocasiones,75.0,yes
149,2024-02-16_18h01.18.843,Unsyncopated_study2,s98,20.0,feminino,right,españa,Catalan y castellano,Bachelor degree,no,no,B,2,conjunction_un,L2,unsyncopated,s1,r2,21,Online_conjL2_un//a.go.du28.none.none.wav,fe,cha,ba,sil,ra,mi,me,sil1,bi,te,sil2,['false alarm'],[0.2818999999760763],[0.2818999999760763],none,none,,,"[""space""]",go,1,,,,,,,,,,,,,,,3.0,2.0,Castellano,0.0,Catalan,0.0,inglés,5.0,4.0,6.0,yes,no,no,Flauta,12,,,Se ha hecho un poco repetitivo. No me ha dado tiempo a reaccionar de manera rápida en algunas ocasiones,75.0,yes
150,2024-02-16_18h01.18.843,Unsyncopated_study2,s98,20.0,feminino,right,españa,Catalan y castellano,Bachelor degree,no,no,B,2,conjunction_un,L2,unsyncopated,s1,r2,22,Online_conjL2_un//a.go.du30.none.none.wav,fe,cha,si,sil,ra,su,te,sil1,ba,bi,sil2,['false alarm'],[2.2066000000238546],[2.2066000000238546],none,none,,,"[""space""]",go,1,,,,,,,,,,,,,,,3.0,2.0,Castellano,0.0,Catalan,0.0,inglés,5.0,4.0,6.0,yes,no,no,Flauta,12,,,Se ha hecho un poco repetitivo. No me ha dado tiempo a reaccionar de manera rápida en algunas ocasiones,75.0,yes
151,2024-02-16_18h01.18.843,Unsyncopated_study2,s98,20.0,feminino,right,españa,Catalan y castellano,Bachelor degree,no,no,B,2,conjunction_un,L2,unsyncopated,s1,r2,23,Online_conjL2_un//a.go.du31.none.none.wav,fe,to,ñi,sil,ra,bi,ñu,sil1,su,si,sil2,['-'],,,none,none,,,,go,1,,,,,,,,,,,,,,,3.0,2.0,Castellano,0.0,Catalan,0.0,inglés,5.0,4.0,6.0,yes,no,no,Flauta,12,,,Se ha hecho un poco repetitivo. No me ha dado tiempo a reaccionar de manera rápida en algunas ocasiones,75.0,yes
152,2024-02-16_18h01.18.843,Unsyncopated_study2,s98,20.0,feminino,right,españa,Catalan y castellano,Bachelor degree,no,no,B,2,conjunction_un,L2,unsyncopated,s2,r2,24,Online_conjL2_un//c.cha.me30.0.1110.wav,cha,mi,ba,sil,fe,me,si,sil1,ra,ñi,sil2,['catch'],[2.494900000035841],[2.494900000035841],1.11,no_beat,,1.384900000035841,"[""space""]",me,3,,,,,,,,,,,,,,,3.0,2.0,Castellano,0.0,Catalan,0.0,inglés,5.0,4.0,6.0,yes,no,no,Flauta,12,,,Se ha hecho un poco repetitivo. No me ha dado tiempo a reaccionar de manera rápida en algunas ocasiones,75.0,yes
153,2024-02-16_18h01.18.843,Unsyncopated_study2,s98,20.0,feminino,right,españa,Catalan y castellano,Bachelor degree,no,no,B,2,conjunction_un,L2,unsyncopated,s1,r2,25,Online_conjL2_un//c.cha.me31.none.none.wav,fe,ñi,ba,sil,ra,si,te,sil1,ñu,mi,sil2,['false alarm'],[1.8444000000358756],[1.8444000000358756],none,none,,,"[""space""]",me,3,,,,,,,,,,,,,,,3.0,2.0,Castellano,0.0,Catalan,0.0,inglés,5.0,4.0,6.0,yes,no,no,Flauta,12,,,Se ha hecho un poco repetitivo. No me ha dado tiempo a reaccionar de manera rápida en algunas ocasiones,75.0,yes
154,2024-02-16_18h01.18.843,Unsyncopated_study2,s98,20.0,feminino,right,españa,Catalan y castellano,Bachelor degree,no,no,B,2,conjunction_un,L2,unsyncopated,s2,r2,26,Online_conjL2_un//c.cha.me29.none.none.wav,ba,ñu,mi,sil,fe,te,si,sil1,ra,ñi,sil2,['false alarm'],[0.8861000000238164],[0.8861000000238164],none,none,,,"[""space""]",me,3,,,,,,,,,,,,,,,3.0,2.0,Castellano,0.0,Catalan,0.0,inglés,5.0,4.0,6.0,yes,no,no,Flauta,12,,,Se ha hecho un poco repetitivo. No me ha dado tiempo a reaccionar de manera rápida en algunas ocasiones,75.0,yes
155,2024-02-16_18h01.18.843,Unsyncopated_study2,s98,20.0,feminino,right,españa,Catalan y castellano,Bachelor degree,no,no,B,2,conjunction_un,L2,unsyncopated,s1,r1,27,Online_conjL2_un//c.cha.me28.222.444.wav,go,cha,me,sil,du,mi,ba,sil1,bi,to,sil2,['catch'],[0.8875999999643227],[0.8875999999643227],0.444,no_beat,0.4435999999643227,0.4435999999643227,"[""space""]",me,3,,,,,,,,,,,,,,,3.0,2.0,Castellano,0.0,Catalan,0.0,inglés,5.0,4.0,6.0,yes,no,no,Flauta,12,,,Se ha hecho un poco repetitivo. No me ha dado tiempo a reaccionar de manera rápida en algunas ocasiones,75.0,yes
156,2024-02-16_18h01.18.843,Unsyncopated_study2,s98,20.0,feminino,right,españa,Catalan y castellano,Bachelor degree,no,no,B,2,conjunction_un,L2,unsyncopated,s1,r2,28,Online_conjL2_un//a.go.du8.none.none.wav,fe,to,ñi,sil,ra,ba,cha,sil1,ñu,bi,sil2,['-'],,,none,none,,,,go,1,,,,,,,,,,,,,,,3.0,2.0,Castellano,0.0,Catalan,0.0,inglés,5.0,4.0,6.0,yes,no,no,Flauta,12,,,Se ha hecho un poco repetitivo. No me ha dado tiempo a reaccionar de manera rápida en algunas ocasiones,75.0,yes
157,2024-02-16_18h01.18.843,Unsyncopated_study2,s98,20.0,feminino,right,españa,Catalan y castellano,Bachelor degree,no,no,B,2,conjunction_un,L2,unsyncopated,s2,r1,29,Online_conjL2_un//a.go.du11.888.1776.wav,si,ba,ñu,sil,go,ñi,mi,sil1,du,te,sil2,['catch'],[1.50280000001203],[1.50280000001203],0.888,beat,0.6148000000120301,0.6148000000120301,"[""space""]",go,1,,,,,,,,,,,,,,,3.0,2.0,Castellano,0.0,Catalan,0.0,inglés,5.0,4.0,6.0,yes,no,no,Flauta,12,,,Se ha hecho un poco repetitivo. No me ha dado tiempo a reaccionar de manera rápida en algunas ocasiones,75.0,yes
158,2024-02-16_18h01.18.843,Unsyncopated_study2,s98,20.0,feminino,right,españa,Catalan y castellano,Bachelor degree,no,no,B,2,conjunction_un,L2,unsyncopated,s1,r1,30,Online_conjL2_un//a.go.du10.0.888.wav,go,bi,ñi,sil,du,si,te,sil1,ñu,su,sil2,['catch'],[1.2351999999882537],[1.2351999999882537],0.0,beat,,1.2351999999882537,"[""space""]",go,1,,,,,,,,,,,,,,,3.0,2.0,Castellano,0.0,Catalan,0.0,inglés,5.0,4.0,6.0,yes,no,no,Flauta,12,,,Se ha hecho un poco repetitivo. No me ha dado tiempo a reaccionar de manera rápida en algunas ocasiones,75.0,yes
159,2024-02-16_18h01.18.843,Unsyncopated_study2,s98,20.0,feminino,right,españa,Catalan y castellano,Bachelor degree,no,no,B,2,conjunction_un,L2,unsyncopated,s2,r1,31,Online_conjL2_un//a.go.du9.888.1776.wav,mi,bi,cha,sil,go,ñu,si,sil1,du,to,sil2,['catch'],[2.3880000000001473],[2.3880000000001473],0.888,beat,,1.5000000000001474,"[""space""]",go,1,,,,,,,,,,,,,,,3.0,2.0,Castellano,0.0,Catalan,0.0,inglés,5.0,4.0,6.0,yes,no,no,Flauta,12,,,Se ha hecho un poco repetitivo. No me ha dado tiempo a reaccionar de manera rápida en algunas ocasiones,75.0,yes
160,2024-02-16_18h01.18.843,Unsyncopated_study2,s98,20.0,feminino,right,españa,Catalan y castellano,Bachelor degree,no,no,B,2,conjunction_un,L2,unsyncopated,s2,r2,32,Online_conjL2_un//a.go.du7.none.none.wav,to,ñi,su,sil,fe,si,ñu,sil1,ra,cha,sil2,['-'],,,none,none,,,,go,1,,,,,,,,,,,,,,,3.0,2.0,Castellano,0.0,Catalan,0.0,inglés,5.0,4.0,6.0,yes,no,no,Flauta,12,,,Se ha hecho un poco repetitivo. No me ha dado tiempo a reaccionar de manera rápida en algunas ocasiones,75.0,yes
161,2024-02-16_18h01.18.843,Unsyncopated_study2,s98,20.0,feminino,right,españa,Catalan y castellano,Bachelor degree,no,no,B,2,conjunction_un,L2,unsyncopated,s2,r2,33,Online_conjL2_un//a.go.du4.none.none.wav,ñi,ba,cha,sil,fe,bi,ñu,sil1,ra,mi,sil2,['-'],,,none,none,,,,go,1,,,,,,,,,,,,,,,3.0,2.0,Castellano,0.0,Catalan,0.0,inglés,5.0,4.0,6.0,yes,no,no,Flauta,12,,,Se ha hecho un poco repetitivo. No me ha dado tiempo a reaccionar de manera rápida en algunas ocasiones,75.0,yes
162,2024-02-16_18h01.18.843,Unsyncopated_study2,s98,20.0,feminino,right,españa,Catalan y castellano,Bachelor degree,no,no,B,2,conjunction_un,L2,unsyncopated,s2,r2,34,Online_conjL2_un//a.go.du6.none.none.wav,ñu,ba,bi,sil,fe,me,su,sil1,ra,to,sil2,['-'],,,none,none,,,,go,1,,,,,,,,,,,,,,,3.0,2.0,Castellano,0.0,Catalan,0.0,inglés,5.0,4.0,6.0,yes,no,no,Flauta,12,,,Se ha hecho un poco repetitivo. No me ha dado tiempo a reaccionar de manera rápida en algunas ocasiones,75.0,yes
163,2024-02-16_18h01.18.843,Unsyncopated_study2,s98,20.0,feminino,right,españa,Catalan y castellano,Bachelor degree,no,no,B,2,conjunction_un,L2,unsyncopated,s1,r2,35,Online_conjL2_un//a.go.du5.none.none.wav,fe,bi,me,sil,ra,to,si,sil1,ñi,ñu,sil2,['-'],,,none,none,,,,go,1,,,,,,,,,,,,,,,3.0,2.0,Castellano,0.0,Catalan,0.0,inglés,5.0,4.0,6.0,yes,no,no,Flauta,12,,,Se ha hecho un poco repetitivo. No me ha dado tiempo a reaccionar de manera rápida en algunas ocasiones,75.0,yes
164,2024-02-16_18h01.18.843,Unsyncopated_study2,s98,20.0,feminino,right,españa,Catalan y castellano,Bachelor degree,no,no,B,2,conjunction_un,L2,unsyncopated,s2,r2,36,Online_conjL2_un//d.si.ñu3.none.none.wav,to,ba,te,sil,fe,cha,bi,sil1,ra,me,sil2,['-'],,,none,none,,,,ñu,4,,,,,,,,,,,,,,,3.0,2.0,Castellano,0.0,Catalan,0.0,inglés,5.0,4.0,6.0,yes,no,no,Flauta,12,,,Se ha hecho un poco repetitivo. No me ha dado tiempo a reaccionar de manera rápida en algunas ocasiones,75.0,yes
165,2024-02-16_18h01.18.843,Unsyncopated_study2,s98,20.0,feminino,right,españa,Catalan y castellano,Bachelor degree,no,no,B,2,conjunction_un,L2,unsyncopated,s1,r1,37,Online_conjL2_un//d.si.ñu0.none.none.wav,go,cha,ba,sil,du,ñi,bi,sil1,su,to,sil2,['false alarm'],[0.9588999999762109],[0.9588999999762109],none,none,,,"[""space""]",ñu,4,,,,,,,,,,,,,,,3.0,2.0,Castellano,0.0,Catalan,0.0,inglés,5.0,4.0,6.0,yes,no,no,Flauta,12,,,Se ha hecho un poco repetitivo. No me ha dado tiempo a reaccionar de manera rápida en algunas ocasiones,75.0,yes
166,2024-02-16_18h01.18.843,Unsyncopated_study2,s98,20.0,feminino,right,españa,Catalan y castellano,Bachelor degree,no,no,B,2,conjunction_un,L2,unsyncopated,s1,r2,38,Online_conjL2_un//d.si.ñu1.222.1332.wav,fe,si,ba,sil,ra,su,ñu,sil1,ñi,me,sil2,['miss'],,,1.332,no_beat,,,,ñu,4,,,,,,,,,,,,,,,3.0,2.0,Castellano,0.0,Catalan,0.0,inglés,5.0,4.0,6.0,yes,no,no,Flauta,12,,,Se ha hecho un poco repetitivo. No me ha dado tiempo a reaccionar de manera rápida en algunas ocasiones,75.0,yes
167,2024-02-16_18h01.18.843,Unsyncopated_study2,s98,20.0,feminino,right,españa,Catalan y castellano,Bachelor degree,no,no,B,2,conjunction_un,L2,unsyncopated,s1,r1,39,Online_conjL2_un//d.si.ñu2.1776.444.wav,go,ba,ñu,sil,du,to,su,sil1,si,ñi,sil2,['miss'],,,0.444,no_beat,,,,ñu,4,,,,,,,,,,,,,,,3.0,2.0,Castellano,0.0,Catalan,0.0,inglés,5.0,4.0,6.0,yes,no,no,Flauta,12,,,Se ha hecho un poco repetitivo. No me ha dado tiempo a reaccionar de manera rápida en algunas ocasiones,75.0,yes
168,2024-02-16_18h01.18.843,Unsyncopated_study2,s98,20.0,feminino,right,españa,Catalan y castellano,Bachelor degree,no,no,B,2,conjunction_un,L2,unsyncopated,s2,r2,40,Online_conjL2_un//b.fe.ra25.888.1776.wav,me,bi,si,sil,fe,su,te,sil1,ra,cha,sil2,['catch'],[2.3924999999999272],[2.3924999999999272],1.776,beat,0.6164999999999272,0.6164999999999272,"[""space""]",ra,2,,,,,,,,,,,,,,,3.0,2.0,Castellano,0.0,Catalan,0.0,inglés,5.0,4.0,6.0,yes,no,no,Flauta,12,,,Se ha hecho un poco repetitivo. No me ha dado tiempo a reaccionar de manera rápida en algunas ocasiones,75.0,yes
169,2024-02-16_18h01.18.843,Unsyncopated_study2,s98,20.0,feminino,right,españa,Catalan y castellano,Bachelor degree,no,no,B,2,conjunction_un,L2,unsyncopated,s2,r1,41,Online_conjL2_un//b.fe.ra27.none.none.wav,mi,si,me,sil,go,ñu,to,sil1,du,te,sil2,['-'],,,none,none,,,,ra,2,,,,,,,,,,,,,,,3.0,2.0,Castellano,0.0,Catalan,0.0,inglés,5.0,4.0,6.0,yes,no,no,Flauta,12,,,Se ha hecho un poco repetitivo. No me ha dado tiempo a reaccionar de manera rápida en algunas ocasiones,75.0,yes
170,2024-02-16_18h01.18.843,Unsyncopated_study2,s98,20.0,feminino,right,españa,Catalan y castellano,Bachelor degree,no,no,B,2,conjunction_un,L2,unsyncopated,s2,r2,42,Online_conjL2_un//b.fe.ra26.888.1776.wav,ba,su,si,sil,fe,ñu,mi,sil1,ra,ñi,sil2,['catch'],[2.269599999964157],[2.269599999964157],1.776,beat,0.4935999999641571,0.4935999999641571,"[""space""]",ra,2,,,,,,,,,,,,,,,3.0,2.0,Castellano,0.0,Catalan,0.0,inglés,5.0,4.0,6.0,yes,no,no,Flauta,12,,,Se ha hecho un poco repetitivo. No me ha dado tiempo a reaccionar de manera rápida en algunas ocasiones,75.0,yes
171,2024-02-16_18h01.18.843,Unsyncopated_study2,s98,20.0,feminino,right,españa,Catalan y castellano,Bachelor degree,no,no,B,2,conjunction_un,L2,unsyncopated,s1,r1,43,Online_conjL2_un//b.fe.ra24.none.none.wav,go,su,bi,sil,du,me,ñi,sil1,mi,cha,sil2,['-'],,,none,none,,,,ra,2,,,,,,,,,,,,,,,3.0,2.0,Castellano,0.0,Catalan,0.0,inglés,5.0,4.0,6.0,yes,no,no,Flauta,12,,,Se ha hecho un poco repetitivo. No me ha dado tiempo a reaccionar de manera rápida en algunas ocasiones,75.0,yes
172,2024-02-16_18h01.18.843,Unsyncopated_study2,s98,20.0,feminino,right,españa,Catalan y castellano,Bachelor degree,no,no,B,2,conjunction_un,L2,unsyncopated,s1,r1,44,Online_conjL2_un//c.cha.me1.none.none.wav,go,ba,mi,sil,du,ñi,ñu,sil1,bi,si,sil2,['false alarm'],[2.201199999987921],[2.201199999987921],none,none,,,"[""space""]",me,3,,,,,,,,,,,,,,,3.0,2.0,Castellano,0.0,Catalan,0.0,inglés,5.0,4.0,6.0,yes,no,no,Flauta,12,,,Se ha hecho un poco repetitivo. No me ha dado tiempo a reaccionar de manera rápida en algunas ocasiones,75.0,yes
173,2024-02-16_18h01.18.843,Unsyncopated_study2,s98,20.0,feminino,right,españa,Catalan y castellano,Bachelor degree,no,no,B,2,conjunction_un,L2,unsyncopated,s1,r1,45,Online_conjL2_un//c.cha.me3.1776.1110.wav,go,mi,te,sil,du,me,bi,sil1,cha,su,sil2,['miss'],,,1.11,no_beat,,,,me,3,,,,,,,,,,,,,,,3.0,2.0,Castellano,0.0,Catalan,0.0,inglés,5.0,4.0,6.0,yes,no,no,Flauta,12,,,Se ha hecho un poco repetitivo. No me ha dado tiempo a reaccionar de manera rápida en algunas ocasiones,75.0,yes
174,2024-02-16_18h01.18.843,Unsyncopated_study2,s98,20.0,feminino,right,españa,Catalan y castellano,Bachelor degree,no,no,B,2,conjunction_un,L2,unsyncopated,s1,r2,46,Online_conjL2_un//c.cha.me2.1776.444.wav,fe,su,me,sil,ra,mi,ba,sil1,cha,ñu,sil2,['catch'],[1.7953999999760981],[1.7953999999760981],0.444,no_beat,,1.3513999999760982,"[""space""]",me,3,,,,,,,,,,,,,,,3.0,2.0,Castellano,0.0,Catalan,0.0,inglés,5.0,4.0,6.0,yes,no,no,Flauta,12,,,Se ha hecho un poco repetitivo. No me ha dado tiempo a reaccionar de manera rápida en algunas ocasiones,75.0,yes
