Unnamed: 0,date,expName,participant,age,sex,hand,residence,native_lang,education_level,lang_deficit,aud_deficit,group,block,condition,language,rhythm,rule structure online,rule type online,order_trial_on,trial_online,s1,s2,s3,s4,s5,s6,s7,s8,s9,s10,s11,catch_syll_resp,rts_syll_catch,clean_rts,time_syll,beat_no_beat,catch_rtsTR,catch_rts,syllable_catch.keys,cond_syll,syll_to_catch,test_offline,block_off,condition_off,rhythm_off,rule,rule_str_off,rule_norule,conds_offline,language_off,Partz_no_partm.keys,Partz_no_partm.rt,security_1_7.keys,accuracy,security_1_7.rt,n_lang,n_lang_used,lang_1,age_l1,lang_2,age_l2,lang_3,age_l3,lang_4,age_l4,ability_learn_l2,tendence_mix_lan,music_experience,muisc_use,partiture,instr_1,age_M1,instr_2,age_M2,preguntas_musica1,BMRQ_answer.response,final comment,BMRQ_Score,bilingual
0,2024-01-17_13h42.16.863,Unsyncopated_study2,s93,24.0,feminino,right,España,Catalán y castellano,Bachelor degree,no,no,A,1,what,L3,unsyncopated,s2,r1,0,Online_whatL3//c.gu.je12.none.none.wav,ga,di,li,sil,chu,do,fu,sil2,mo,le,sil1,['-'],,,none,none,,,,gu,3,testWhatL3Uns//cat_viol.r2.s1.0.wav,1.0,what,unsyncopated,b,s1,no_rule,cat,L3,z,0.9219,6.0,0.0,2.1001,4.0,2.0,Catalán,0.0,Castellano,0.0,Inglés,5.0,Francés,13.0,4.0,1.0,yes,no,yes,Flauta,12,Ukelele ,12,1. Cuando comparto música con alguien siento una complicidad especial con aquella persona.,3.0,Nada,66.0,yes
1,2024-01-17_13h42.16.863,Unsyncopated_study2,s93,24.0,feminino,right,España,Catalán y castellano,Bachelor degree,no,no,A,1,what,L3,unsyncopated,s1,r2,1,Online_whatL3//c.gu.je13.1332.222.wav,ñe,je,fu,sil,sa,ko,gu,sil1,di,li,sil2,['catch'],[1.8712000000011813],[1.8712000000011813],1.332,no_beat,0.5392000000011812,0.5392000000011812,"[""space""]",gu,3,testWhatL3Uns//r1.s2.0.wav,1.0,what,unsyncopated,a,s2,rule,rule,L3,z,0.6839,5.0,1.0,2.0163,4.0,2.0,Catalán,0.0,Castellano,0.0,Inglés,5.0,Francés,13.0,4.0,1.0,yes,no,yes,Flauta,12,Ukelele ,12,2. En mi tiempo libre apenas escucho música.,5.0,Nada,66.0,yes
2,2024-01-17_13h42.16.863,Unsyncopated_study2,s93,24.0,feminino,right,España,Catalán y castellano,Bachelor degree,no,no,A,1,what,L3,unsyncopated,s2,r1,2,Online_whatL3//c.gu.je14.none.none.wav,do,ga,fu,sil2,chu,li,ji,sil,mo,ka,sil1,['false alarm'],[1.2941999999992504],[1.2941999999992504],none,none,,,"[""space""]",gu,3,testWhatL3Uns//r1.s1.1.wav,1.0,what,unsyncopated,a,s1,rule,rule,L3,m,1.8845,3.0,0.0,1.1391,4.0,2.0,Catalán,0.0,Castellano,0.0,Inglés,5.0,Francés,13.0,4.0,1.0,yes,no,yes,Flauta,12,Ukelele ,12,3. Algunas canciones me ponen los pelos de punta,4.0,Nada,66.0,yes
3,2024-01-17_13h42.16.863,Unsyncopated_study2,s93,24.0,feminino,right,España,Catalán y castellano,Bachelor degree,no,no,A,1,what,L3,unsyncopated,s2,r1,3,Online_whatL3//c.gu.je15.1332.0.wav,je,ji,ko,sil,chu,ka,gu,sil2,mo,ga,sil1,['catch'],[1.706200000001104],[1.706200000001104],1.332,no_beat,0.3742000000011038,0.3742000000011038,"[""space""]",gu,3,testWhatL3Uns//dep_viol.r2.s2.0.wav,1.0,what,unsyncopated,b,s2,no_rule,dep,L3,z,1.7052,2.0,0.0,0.6503,4.0,2.0,Catalán,0.0,Castellano,0.0,Inglés,5.0,Francés,13.0,4.0,1.0,yes,no,yes,Flauta,12,Ukelele ,12,4. La música me hace compañía cuando estoy solo,4.0,Nada,66.0,yes
4,2024-01-17_13h42.16.863,Unsyncopated_study2,s93,24.0,feminino,right,España,Catalán y castellano,Bachelor degree,no,no,A,1,what,L3,unsyncopated,s1,r1,4,Online_whatL3//a.chu.mo18.0.888.wav,chu,le,ko,sil,mo,ka,li,sil1,gu,je,sil2,['catch'],[1.3536999999992076],[1.3536999999992076],0.888,beat,0.4656999999992076,0.4656999999992076,"[""space""]",mo,2,testWhatL3Uns//dep_viol.r1.s1.0.wav,1.0,what,unsyncopated,a,s1,no_rule,dep,L3,m,1.3424,6.0,1.0,1.0355,4.0,2.0,Catalán,0.0,Castellano,0.0,Inglés,5.0,Francés,13.0,4.0,1.0,yes,no,yes,Flauta,12,Ukelele ,12,5. No me apetece bailar ni con la música que más me gusta,4.0,Nada,66.0,yes
5,2024-01-17_13h42.16.863,Unsyncopated_study2,s93,24.0,feminino,right,España,Catalán y castellano,Bachelor degree,no,no,A,1,what,L3,unsyncopated,s2,r2,5,Online_whatL3//a.chu.mo19.none.none.wav,ga,gu,ji,sil,ñe,ko,je,sil2,sa,li,sil1,['-'],,,none,none,,,,mo,2,testWhatL3Uns//cat_viol.r2.s2.0.wav,1.0,what,unsyncopated,b,s2,no_rule,cat,L3,z,1.9168,2.0,0.0,0.8176,4.0,2.0,Catalán,0.0,Castellano,0.0,Inglés,5.0,Francés,13.0,4.0,1.0,yes,no,yes,Flauta,12,Ukelele ,12,6. La música me hace conectar con la gente,3.0,Nada,66.0,yes
6,2024-01-17_13h42.16.863,Unsyncopated_study2,s93,24.0,feminino,right,España,Catalán y castellano,Bachelor degree,no,no,A,1,what,L3,unsyncopated,s1,r1,6,Online_whatL3//a.chu.mo16.0.1110.wav,chu,ga,gu,sil2,mo,li,fu,sil,do,ka,sil1,['catch'],[1.422300000000746],[1.422300000000746],1.11,no_beat,0.3123000000007458,0.3123000000007458,"[""space""]",mo,2,testWhatL3Uns//r2.s1.1.wav,1.0,what,unsyncopated,b,s1,rule,rule,L3,m,0.3731,5.0,0.0,1.2676,4.0,2.0,Catalán,0.0,Castellano,0.0,Inglés,5.0,Francés,13.0,4.0,1.0,yes,no,yes,Flauta,12,Ukelele ,12,7. Me informo sobre la música que me gusta.,3.0,Nada,66.0,yes
7,2024-01-17_13h42.16.863,Unsyncopated_study2,s93,24.0,feminino,right,España,Catalán y castellano,Bachelor degree,no,no,A,1,what,L3,unsyncopated,s2,r1,7,Online_whatL3//a.chu.mo17.888.1998.wav,je,le,ji,sil,chu,do,fu,sil2,mo,li,sil1,['catch'],[2.374500000000012],[2.374500000000012],1.998,no_beat,0.3765000000000118,0.3765000000000118,"[""space""]",mo,2,testWhatL3Uns//r1.s1.2.wav,1.0,what,unsyncopated,a,s1,rule,rule,L3,m,1.42,4.0,0.0,0.8499,4.0,2.0,Catalán,0.0,Castellano,0.0,Inglés,5.0,Francés,13.0,4.0,1.0,yes,no,yes,Flauta,12,Ukelele ,12,8.Me emociono escuchando ciertas canciones.,4.0,Nada,66.0,yes
8,2024-01-17_13h42.16.863,Unsyncopated_study2,s93,24.0,feminino,right,España,Catalán y castellano,Bachelor degree,no,no,A,1,what,L3,unsyncopated,s1,r2,8,Online_whatL3//b.ñe.sa21.0.1110.wav,ñe,do,li,sil2,sa,je,ko,sil,le,ga,sil1,['miss'],,,0.0,beat,,,,ñe,1,testWhatL3Uns//r2.s1.0.wav,1.0,what,unsyncopated,b,s1,rule,rule,L3,z,1.6321,3.0,1.0,0.6336,4.0,2.0,Catalán,0.0,Castellano,0.0,Inglés,5.0,Francés,13.0,4.0,1.0,yes,no,yes,Flauta,12,Ukelele ,12,9.La música me tranquiliza y me relaja.,3.0,Nada,66.0,yes
9,2024-01-17_13h42.16.863,Unsyncopated_study2,s93,24.0,feminino,right,España,Catalán y castellano,Bachelor degree,no,no,A,1,what,L3,unsyncopated,s1,r1,9,Online_whatL3//b.ñe.sa20.none.none.wav,chu,li,do,sil,mo,je,gu,sil1,ga,le,sil2,['-'],,,none,none,,,,ñe,1,testWhatL3Uns//dep_viol.r2.s1.0.wav,1.0,what,unsyncopated,b,s1,no_rule,dep,L3,z,1.5703,5.0,0.0,0.5387,4.0,2.0,Catalán,0.0,Castellano,0.0,Inglés,5.0,Francés,13.0,4.0,1.0,yes,no,yes,Flauta,12,Ukelele ,12,10.La música me hace bailar,3.0,Nada,66.0,yes
10,2024-01-17_13h42.16.863,Unsyncopated_study2,s93,24.0,feminino,right,España,Catalán y castellano,Bachelor degree,no,no,A,1,what,L3,unsyncopated,s1,r2,10,Online_whatL3//b.ñe.sa22.0.1110.wav,ñe,gu,fu,sil2,sa,je,ga,sil,do,ko,sil1,['miss'],,,0.0,beat,,,,ñe,1,testWhatL3Uns//cat_viol.r1.s2.0.wav,1.0,what,unsyncopated,a,s2,no_rule,cat,L3,m,0.3039,5.0,1.0,1.186,4.0,2.0,Catalán,0.0,Castellano,0.0,Inglés,5.0,Francés,13.0,4.0,1.0,yes,no,yes,Flauta,12,Ukelele ,12,11.Busco novedades musicales continuamente,3.0,Nada,66.0,yes
11,2024-01-17_13h42.16.863,Unsyncopated_study2,s93,24.0,feminino,right,España,Catalán y castellano,Bachelor degree,no,no,A,1,what,L3,unsyncopated,s2,r1,11,Online_whatL3//b.ñe.sa23.none.none.wav,le,je,do,sil,chu,ji,ka,sil2,mo,ko,sil1,['-'],,,none,none,,,,ñe,1,testWhatL3Uns//r1.s2.1.wav,1.0,what,unsyncopated,a,s2,rule,rule,L3,m,1.773,4.0,0.0,0.5742,4.0,2.0,Catalán,0.0,Castellano,0.0,Inglés,5.0,Francés,13.0,4.0,1.0,yes,no,yes,Flauta,12,Ukelele ,12,12. Puedo llorar cuando escucho algunas melodías que me gustan mucho.,4.0,Nada,66.0,yes
12,2024-01-17_13h42.16.863,Unsyncopated_study2,s93,24.0,feminino,right,España,Catalán y castellano,Bachelor degree,no,no,A,1,what,L3,unsyncopated,s1,r2,12,Online_whatL3//a.chu.mo4.none.none.wav,ñe,le,gu,sil2,sa,ji,je,sil,ga,li,sil1,['-'],,,none,none,,,,mo,2,testWhatL3Uns//r2.s1.2.wav,1.0,what,unsyncopated,b,s1,rule,rule,L3,m,0.7842,4.0,0.0,0.4744,4.0,2.0,Catalán,0.0,Castellano,0.0,Inglés,5.0,Francés,13.0,4.0,1.0,yes,no,yes,Flauta,12,Ukelele ,12,13. Me gusta cantar o tocar un instrumento con más gente,2.0,Nada,66.0,yes
13,2024-01-17_13h42.16.863,Unsyncopated_study2,s93,24.0,feminino,right,España,Catalán y castellano,Bachelor degree,no,no,A,1,what,L3,unsyncopated,s1,r1,13,Online_whatL3//a.chu.mo7.0.888.wav,chu,ka,do,sil,mo,le,je,sil1,li,fu,sil2,['catch'],[1.1894999999999527],[1.1894999999999527],0.888,beat,0.3014999999999527,0.3014999999999527,"[""space""]",mo,2,testWhatL3Uns//dep_viol.r1.s2.0.wav,1.0,what,unsyncopated,a,s2,no_rule,dep,L3,m,0.3841,5.0,1.0,0.321,4.0,2.0,Catalán,0.0,Castellano,0.0,Inglés,5.0,Francés,13.0,4.0,1.0,yes,no,yes,Flauta,12,Ukelele ,12,14. La música me ayuda a desconectar.,3.0,Nada,66.0,yes
14,2024-01-17_13h42.16.863,Unsyncopated_study2,s93,24.0,feminino,right,España,Catalán y castellano,Bachelor degree,no,no,A,1,what,L3,unsyncopated,s2,r2,14,Online_whatL3//a.chu.mo5.none.none.wav,ga,ka,li,sil2,ñe,gu,le,sil,sa,di,sil1,['-'],,,none,none,,,,mo,2,testWhatL3Uns//cat_viol.r1.s1.0.wav,1.0,what,unsyncopated,a,s1,no_rule,cat,L3,m,0.7864,5.0,1.0,0.4408,4.0,2.0,Catalán,0.0,Castellano,0.0,Inglés,5.0,Francés,13.0,4.0,1.0,yes,no,yes,Flauta,12,Ukelele ,12,15. No puedo evitar tararear las canciones que me gustan cuando las escucho.,3.0,Nada,66.0,yes
15,2024-01-17_13h42.16.863,Unsyncopated_study2,s93,24.0,feminino,right,España,Catalán y castellano,Bachelor degree,no,no,A,1,what,L3,unsyncopated,s2,r1,15,Online_whatL3//a.chu.mo6.888.1776.wav,do,ko,ka,sil,chu,fu,gu,sil1,mo,ga,sil2,['catch'],[2.0890999999996893],[2.0890999999996893],1.776,beat,0.3130999999996893,0.3130999999996893,"[""space""]",mo,2,testWhatL3Uns//r2.s2.1.wav,1.0,what,unsyncopated,b,s2,rule,rule,L3,z,0.6343,4.0,1.0,0.5663,4.0,2.0,Catalán,0.0,Castellano,0.0,Inglés,5.0,Francés,13.0,4.0,1.0,yes,no,yes,Flauta,12,Ukelele ,12,16. En los conciertos me siento en sintonía con los artistas y el público.,3.0,Nada,66.0,yes
16,2024-01-17_13h42.16.863,Unsyncopated_study2,s93,24.0,feminino,right,España,Catalán y castellano,Bachelor degree,no,no,A,1,what,L3,unsyncopated,s2,r2,16,Online_whatL3//a.chu.mo25.none.none.wav,le,di,do,sil2,ñe,ga,li,sil,sa,je,sil1,['-'],,,none,none,,,,mo,2,testWhatL3Uns//time_viol.r1.s2.0.wav,1.0,what,unsyncopated,a,s2,no_rule,time,L3,m,0.3261,5.0,1.0,0.4873,4.0,2.0,Catalán,0.0,Castellano,0.0,Inglés,5.0,Francés,13.0,4.0,1.0,yes,no,yes,Flauta,12,Ukelele ,12,17. Me gasto bastante dinero en música y cosas relacionadas con la música.,3.0,Nada,66.0,yes
17,2024-01-17_13h42.16.863,Unsyncopated_study2,s93,24.0,feminino,right,España,Catalán y castellano,Bachelor degree,no,no,A,1,what,L3,unsyncopated,s1,r1,17,Online_whatL3//a.chu.mo26.0.888.wav,chu,ji,li,sil,mo,ko,fu,sil2,di,gu,sil1,['catch'],[1.2828000000007478],[1.2828000000007478],0.888,beat,0.3948000000007478,0.3948000000007478,"[""space""]",mo,2,testWhatL3Uns//time_viol.r1.s1.0.wav,1.0,what,unsyncopated,a,s1,no_rule,time,L3,m,0.3547,5.0,1.0,0.4416,4.0,2.0,Catalán,0.0,Castellano,0.0,Inglés,5.0,Francés,13.0,4.0,1.0,yes,no,yes,Flauta,12,Ukelele ,12,18. Siento escalofríos cuando escucho una melodía que me gusta.,3.0,Nada,66.0,yes
18,2024-01-17_13h42.16.863,Unsyncopated_study2,s93,24.0,feminino,right,España,Catalán y castellano,Bachelor degree,no,no,A,1,what,L3,unsyncopated,s2,r1,18,Online_whatL3//a.chu.mo27.888.1776.wav,ka,ga,ji,sil,chu,je,di,sil1,mo,gu,sil2,['catch'],[2.1913000000007514],[2.1913000000007514],1.776,beat,0.4153000000007514,0.4153000000007514,"[""space""]",mo,2,testWhatL3Uns//time_viol.r2.s1.0.wav,1.0,what,unsyncopated,b,s1,no_rule,time,L3,m,0.3839,6.0,1.0,1.3157,4.0,2.0,Catalán,0.0,Castellano,0.0,Inglés,5.0,Francés,13.0,4.0,1.0,yes,no,yes,Flauta,12,Ukelele ,12,19. Con la música me puedo desahogar.,3.0,Nada,66.0,yes
19,2024-01-17_13h42.16.863,Unsyncopated_study2,s93,24.0,feminino,right,España,Catalán y castellano,Bachelor degree,no,no,A,1,what,L3,unsyncopated,s1,r1,19,Online_whatL3//a.chu.mo24.0.1110.wav,chu,gu,ka,sil2,mo,le,ji,sil,do,li,sil1,['miss'],,,1.11,no_beat,,,,mo,2,testWhatL3Uns//r2.s2.0.wav,1.0,what,unsyncopated,b,s2,rule,rule,L3,z,1.7117,2.0,1.0,0.4484,4.0,2.0,Catalán,0.0,Castellano,0.0,Inglés,5.0,Francés,13.0,4.0,1.0,yes,no,yes,Flauta,12,Ukelele ,12,20. Cuando escucho una melodía que me gusta mucho no puedo evitar mover el cuerpo.,3.0,Nada,66.0,yes
20,2024-01-17_13h42.16.863,Unsyncopated_study2,s93,24.0,feminino,right,España,Catalán y castellano,Bachelor degree,no,no,A,1,what,L3,unsyncopated,s2,r1,20,Online_whatL3//d.ji.li13.none.none.wav,ga,do,le,sil,chu,ko,ka,sil1,mo,di,sil2,['-'],,,none,none,,,,ji,4,testWhatL3Uns//r1.s1.0.wav,1.0,what,unsyncopated,a,s1,rule,rule,L3,m,0.2234,5.0,0.0,0.7061,4.0,2.0,Catalán,0.0,Castellano,0.0,Inglés,5.0,Francés,13.0,4.0,1.0,yes,no,yes,Flauta,12,Ukelele ,12,,,Nada,66.0,yes
21,2024-01-17_13h42.16.863,Unsyncopated_study2,s93,24.0,feminino,right,España,Catalán y castellano,Bachelor degree,no,no,A,1,what,L3,unsyncopated,s1,r1,21,Online_whatL3//d.ji.li14.222.1110.wav,chu,ji,ko,sil,mo,li,ga,sil2,do,di,sil1,['catch'],[0.5894000000004098],[0.5894000000004098],0.222,no_beat,0.3674000000004098,0.3674000000004098,"[""space""]",ji,4,testWhatL3Uns//time_viol.r2.s2.0.wav,1.0,what,unsyncopated,b,s2,no_rule,time,L3,z,0.4529,5.0,0.0,0.9538,4.0,2.0,Catalán,0.0,Castellano,0.0,Inglés,5.0,Francés,13.0,4.0,1.0,yes,no,yes,Flauta,12,Ukelele ,12,,,Nada,66.0,yes
22,2024-01-17_13h42.16.863,Unsyncopated_study2,s93,24.0,feminino,right,España,Catalán y castellano,Bachelor degree,no,no,A,1,what,L3,unsyncopated,s2,r1,22,Online_whatL3//d.ji.li15.222.444.wav,fu,ji,li,sil2,chu,je,ga,sil,mo,di,sil1,['catch'],[1.4234000000004698],[1.4234000000004698],0.222,no_beat,,1.20140000000047,"[""space""]",ji,4,testWhatL3Uns//r2.s2.2.wav,1.0,what,unsyncopated,b,s2,rule,rule,L3,m,0.2178,6.0,0.0,1.0677,4.0,2.0,Catalán,0.0,Castellano,0.0,Inglés,5.0,Francés,13.0,4.0,1.0,yes,no,yes,Flauta,12,Ukelele ,12,,,Nada,66.0,yes
23,2024-01-17_13h42.16.863,Unsyncopated_study2,s93,24.0,feminino,right,España,Catalán y castellano,Bachelor degree,no,no,A,1,what,L3,unsyncopated,s1,r1,23,Online_whatL3//d.ji.li12.none.none.wav,chu,je,fu,sil,mo,ga,le,sil2,di,gu,sil1,['-'],,,none,none,,,,ji,4,testWhatL3Uns//r1.s2.2.wav,1.0,what,unsyncopated,a,s2,rule,rule,L3,z,2.2856,6.0,1.0,0.6831,4.0,2.0,Catalán,0.0,Castellano,0.0,Inglés,5.0,Francés,13.0,4.0,1.0,yes,no,yes,Flauta,12,Ukelele ,12,,,Nada,66.0,yes
24,2024-01-17_13h42.16.863,Unsyncopated_study2,s93,24.0,feminino,right,España,Catalán y castellano,Bachelor degree,no,no,A,1,what,L3,unsyncopated,s1,r1,24,Online_whatL3//c.gu.je0.none.none.wav,chu,ko,li,sil,mo,ji,le,sil2,ga,di,sil1,['-'],,,none,none,,,,gu,3,testWhenL4Uns//r1.s2.0.wav,2.0,when,unsyncopated,a,s2,rule,rule,L4,z,0.6167,7.0,1.0,1.2662,4.0,2.0,Catalán,0.0,Castellano,0.0,Inglés,5.0,Francés,13.0,4.0,1.0,yes,no,yes,Flauta,12,Ukelele ,12,,,Nada,66.0,yes
25,2024-01-17_13h42.16.863,Unsyncopated_study2,s93,24.0,feminino,right,España,Catalán y castellano,Bachelor degree,no,no,A,1,what,L3,unsyncopated,s1,r2,25,Online_whatL3//c.gu.je2.none.none.wav,ñe,di,fu,sil,sa,ji,ga,sil1,ko,do,sil2,['false alarm'],[0.8069000000003825],[0.8069000000003825],none,none,,,"[""space""]",gu,3,testWhenL4Uns//time_viol.r2.s2.0.wav,2.0,when,unsyncopated,b,s2,no_rule,time,L4,z,0.6009,4.0,1.0,0.8034,4.0,2.0,Catalán,0.0,Castellano,0.0,Inglés,5.0,Francés,13.0,4.0,1.0,yes,no,yes,Flauta,12,Ukelele ,12,,,Nada,66.0,yes
26,2024-01-17_13h42.16.863,Unsyncopated_study2,s93,24.0,feminino,right,España,Catalán y castellano,Bachelor degree,no,no,A,1,what,L3,unsyncopated,s2,r1,26,Online_whatL3//c.gu.je1.222.1332.wav,di,gu,le,sil2,chu,je,ga,sil,mo,ka,sil1,['miss'],,,0.222,no_beat,,,,gu,3,testWhenL4Uns//r2.s1.2.wav,2.0,when,unsyncopated,b,s1,rule,rule,L4,z,1.97,3.0,1.0,0.387,4.0,2.0,Catalán,0.0,Castellano,0.0,Inglés,5.0,Francés,13.0,4.0,1.0,yes,no,yes,Flauta,12,Ukelele ,12,,,Nada,66.0,yes
27,2024-01-17_13h42.16.863,Unsyncopated_study2,s93,24.0,feminino,right,España,Catalán y castellano,Bachelor degree,no,no,A,1,what,L3,unsyncopated,s1,r1,27,Online_whatL3//c.gu.je3.none.none.wav,chu,le,do,sil,mo,ji,ka,sil2,li,fu,sil1,['-'],,,none,none,,,,gu,3,testWhenL4Uns//time_viol.r1.s2.0.wav,2.0,when,unsyncopated,a,s2,no_rule,time,L4,z,1.5855,4.0,1.0,0.8203,4.0,2.0,Catalán,0.0,Castellano,0.0,Inglés,5.0,Francés,13.0,4.0,1.0,yes,no,yes,Flauta,12,Ukelele ,12,,,Nada,66.0,yes
28,2024-01-17_13h42.16.863,Unsyncopated_study2,s93,24.0,feminino,right,España,Catalán y castellano,Bachelor degree,no,no,A,1,what,L3,unsyncopated,s1,r2,28,Online_whatL3//d.ji.li25.none.none.wav,ñe,gu,ko,sil2,sa,ka,le,sil,do,ga,sil1,['-'],,,none,none,,,,ji,4,testWhenL4Uns//r1.s1.0.wav,2.0,when,unsyncopated,a,s1,rule,rule,L4,m,1.2373,1.0,0.0,2.2381,4.0,2.0,Catalán,0.0,Castellano,0.0,Inglés,5.0,Francés,13.0,4.0,1.0,yes,no,yes,Flauta,12,Ukelele ,12,,,Nada,66.0,yes
29,2024-01-17_13h42.16.863,Unsyncopated_study2,s93,24.0,feminino,right,España,Catalán y castellano,Bachelor degree,no,no,A,1,what,L3,unsyncopated,s2,r1,29,Online_whatL3//d.ji.li27.222.1110.wav,gu,ji,do,sil,chu,li,ga,sil1,mo,fu,sil2,['catch'],[1.9236999999992577],[1.9236999999992577],0.222,no_beat,,1.7016999999992577,"[""space""]",ji,4,testWhenL4Uns//r2.s2.1.wav,2.0,when,unsyncopated,b,s2,rule,rule,L4,z,1.3333,3.0,1.0,0.7671,4.0,2.0,Catalán,0.0,Castellano,0.0,Inglés,5.0,Francés,13.0,4.0,1.0,yes,no,yes,Flauta,12,Ukelele ,12,,,Nada,66.0,yes
30,2024-01-17_13h42.16.863,Unsyncopated_study2,s93,24.0,feminino,right,España,Catalán y castellano,Bachelor degree,no,no,A,1,what,L3,unsyncopated,s1,r1,30,Online_whatL3//d.ji.li24.1332.1554.wav,chu,di,ko,sil2,mo,ji,li,sil,do,gu,sil1,['miss'],,,1.332,no_beat,,,,ji,4,testWhenL4Uns//r1.s1.2.wav,2.0,when,unsyncopated,a,s1,rule,rule,L4,m,0.7004,5.0,0.0,0.6013,4.0,2.0,Catalán,0.0,Castellano,0.0,Inglés,5.0,Francés,13.0,4.0,1.0,yes,no,yes,Flauta,12,Ukelele ,12,,,Nada,66.0,yes
31,2024-01-17_13h42.16.863,Unsyncopated_study2,s93,24.0,feminino,right,España,Catalán y castellano,Bachelor degree,no,no,A,1,what,L3,unsyncopated,s1,r1,31,Online_whatL3//d.ji.li26.none.none.wav,chu,gu,je,sil,mo,di,do,sil1,ka,ga,sil2,['-'],,,none,none,,,,ji,4,testWhenL4Uns//cat_viol.r2.s1.0.wav,2.0,when,unsyncopated,b,s1,no_rule,cat,L4,z,0.5331,4.0,1.0,1.2511,4.0,2.0,Catalán,0.0,Castellano,0.0,Inglés,5.0,Francés,13.0,4.0,1.0,yes,no,yes,Flauta,12,Ukelele ,12,,,Nada,66.0,yes
32,2024-01-17_13h42.16.863,Unsyncopated_study2,s93,24.0,feminino,right,España,Catalán y castellano,Bachelor degree,no,no,A,1,what,L3,unsyncopated,s1,r1,32,Online_whatL3//a.chu.mo14.0.888.wav,chu,fu,do,sil,mo,ko,je,sil2,ga,ji,sil1,['catch'],[1.2010999999996557],[1.2010999999996557],0.888,beat,0.3130999999996556,0.3130999999996556,"[""space""]",mo,2,testWhenL4Uns//dep_viol.r2.s1.0.wav,2.0,when,unsyncopated,b,s1,no_rule,dep,L4,z,0.111,5.0,1.0,0.7309,4.0,2.0,Catalán,0.0,Castellano,0.0,Inglés,5.0,Francés,13.0,4.0,1.0,yes,no,yes,Flauta,12,Ukelele ,12,,,Nada,66.0,yes
33,2024-01-17_13h42.16.863,Unsyncopated_study2,s93,24.0,feminino,right,España,Catalán y castellano,Bachelor degree,no,no,A,1,what,L3,unsyncopated,s2,r2,33,Online_whatL3//a.chu.mo13.none.none.wav,ko,ka,li,sil2,ñe,fu,gu,sil,sa,ji,sil1,['-'],,,none,none,,,,mo,2,testWhenL4Uns//r1.s2.1.wav,2.0,when,unsyncopated,a,s2,rule,rule,L4,m,2.3184,3.0,0.0,0.9864,4.0,2.0,Catalán,0.0,Castellano,0.0,Inglés,5.0,Francés,13.0,4.0,1.0,yes,no,yes,Flauta,12,Ukelele ,12,,,Nada,66.0,yes
34,2024-01-17_13h42.16.863,Unsyncopated_study2,s93,24.0,feminino,right,España,Catalán y castellano,Bachelor degree,no,no,A,1,what,L3,unsyncopated,s2,r1,34,Online_whatL3//a.chu.mo12.1110.1998.wav,gu,do,le,sil2,chu,ko,ji,sil,mo,li,sil1,['catch'],[2.289199999999255],[2.289199999999255],1.998,no_beat,0.2911999999992549,0.2911999999992549,"[""space""]",mo,2,testWhenL4Uns//r2.s2.2.wav,2.0,when,unsyncopated,b,s2,rule,rule,L4,m,1.3532,4.0,0.0,0.8507,4.0,2.0,Catalán,0.0,Castellano,0.0,Inglés,5.0,Francés,13.0,4.0,1.0,yes,no,yes,Flauta,12,Ukelele ,12,,,Nada,66.0,yes
35,2024-01-17_13h42.16.863,Unsyncopated_study2,s93,24.0,feminino,right,España,Catalán y castellano,Bachelor degree,no,no,A,1,what,L3,unsyncopated,s1,r2,35,Online_whatL3//a.chu.mo15.none.none.wav,ñe,gu,li,sil,sa,ko,ji,sil2,je,ka,sil1,['-'],,,none,none,,,,mo,2,testWhenL4Uns//cat_viol.r1.s1.0.wav,2.0,when,unsyncopated,a,s1,no_rule,cat,L4,z,0.0705,6.0,1.0,1.2602,4.0,2.0,Catalán,0.0,Castellano,0.0,Inglés,5.0,Francés,13.0,4.0,1.0,yes,no,yes,Flauta,12,Ukelele ,12,,,Nada,66.0,yes
36,2024-01-17_13h42.16.863,Unsyncopated_study2,s93,24.0,feminino,right,España,Catalán y castellano,Bachelor degree,no,no,A,1,what,L3,unsyncopated,s1,r2,36,Online_whatL3//b.ñe.sa1.0.888.wav,ñe,le,je,sil,sa,ka,ko,sil2,do,gu,sil1,['catch'],[0.4166999999993095],[0.4166999999993095],0.0,beat,0.4166999999993095,0.4166999999993095,"[""space""]",ñe,1,testWhenL4Uns//r1.s2.2.wav,2.0,when,unsyncopated,a,s2,rule,rule,L4,m,0.6599,4.0,0.0,1.6366,4.0,2.0,Catalán,0.0,Castellano,0.0,Inglés,5.0,Francés,13.0,4.0,1.0,yes,no,yes,Flauta,12,Ukelele ,12,,,Nada,66.0,yes
37,2024-01-17_13h42.16.863,Unsyncopated_study2,s93,24.0,feminino,right,España,Catalán y castellano,Bachelor degree,no,no,A,1,what,L3,unsyncopated,s2,r1,37,Online_whatL3//b.ñe.sa2.none.none.wav,fu,ko,di,sil,chu,le,gu,sil2,mo,je,sil1,['-'],,,none,none,,,,ñe,1,testWhenL4Uns//dep_viol.r1.s1.0.wav,2.0,when,unsyncopated,a,s1,no_rule,dep,L4,z,0.1012,5.0,1.0,1.1222,4.0,2.0,Catalán,0.0,Castellano,0.0,Inglés,5.0,Francés,13.0,4.0,1.0,yes,no,yes,Flauta,12,Ukelele ,12,,,Nada,66.0,yes
38,2024-01-17_13h42.16.863,Unsyncopated_study2,s93,24.0,feminino,right,España,Catalán y castellano,Bachelor degree,no,no,A,1,what,L3,unsyncopated,s2,r2,38,Online_whatL3//b.ñe.sa3.888.1776.wav,le,di,gu,sil,ñe,li,je,sil1,sa,ko,sil2,['miss'],,,0.888,beat,,,,ñe,1,testWhenL4Uns//r2.s2.0.wav,2.0,when,unsyncopated,b,s2,rule,rule,L4,z,1.384,3.0,1.0,0.6027,4.0,2.0,Catalán,0.0,Castellano,0.0,Inglés,5.0,Francés,13.0,4.0,1.0,yes,no,yes,Flauta,12,Ukelele ,12,,,Nada,66.0,yes
39,2024-01-17_13h42.16.863,Unsyncopated_study2,s93,24.0,feminino,right,España,Catalán y castellano,Bachelor degree,no,no,A,1,what,L3,unsyncopated,s2,r1,39,Online_whatL3//b.ñe.sa0.none.none.wav,ko,le,ji,sil2,chu,do,gu,sil,mo,fu,sil1,['-'],,,none,none,,,,ñe,1,testWhenL4Uns//cat_viol.r2.s2.0.wav,2.0,when,unsyncopated,b,s2,no_rule,cat,L4,z,0.8346,2.0,1.0,0.8509,4.0,2.0,Catalán,0.0,Castellano,0.0,Inglés,5.0,Francés,13.0,4.0,1.0,yes,no,yes,Flauta,12,Ukelele ,12,,,Nada,66.0,yes
40,2024-01-17_13h42.16.863,Unsyncopated_study2,s93,24.0,feminino,right,España,Catalán y castellano,Bachelor degree,no,no,A,1,what,L3,unsyncopated,s1,r2,40,Online_whatL3//d.ji.li17.none.none.wav,ñe,ko,gu,sil,sa,le,do,sil2,je,ga,sil1,['-'],,,none,none,,,,ji,4,testWhenL4Uns//cat_viol.r1.s2.0.wav,2.0,when,unsyncopated,a,s2,no_rule,cat,L4,m,2.684,4.0,0.0,0.6367,4.0,2.0,Catalán,0.0,Castellano,0.0,Inglés,5.0,Francés,13.0,4.0,1.0,yes,no,yes,Flauta,12,Ukelele ,12,,,Nada,66.0,yes
41,2024-01-17_13h42.16.863,Unsyncopated_study2,s93,24.0,feminino,right,España,Catalán y castellano,Bachelor degree,no,no,A,1,what,L3,unsyncopated,s1,r2,41,Online_whatL3//d.ji.li18.222.1332.wav,ñe,ji,di,sil2,sa,li,gu,sil,ko,fu,sil1,['miss'],,,0.222,no_beat,,,,ji,4,testWhenL4Uns//r2.s1.0.wav,2.0,when,unsyncopated,b,s1,rule,rule,L4,z,0.7863,5.0,1.0,0.9017,4.0,2.0,Catalán,0.0,Castellano,0.0,Inglés,5.0,Francés,13.0,4.0,1.0,yes,no,yes,Flauta,12,Ukelele ,12,,,Nada,66.0,yes
42,2024-01-17_13h42.16.863,Unsyncopated_study2,s93,24.0,feminino,right,España,Catalán y castellano,Bachelor degree,no,no,A,1,what,L3,unsyncopated,s1,r2,42,Online_whatL3//d.ji.li16.1776.1110.wav,ñe,le,ko,sil,sa,li,je,sil1,ji,fu,sil2,['catch'],[2.2710999999997057],[2.2710999999997057],1.776,beat,0.4950999999997056,0.4950999999997056,"[""space""]",ji,4,testWhenL4Uns//r2.s1.1.wav,2.0,when,unsyncopated,b,s1,rule,rule,L4,z,2.9856,4.0,1.0,0.9093,4.0,2.0,Catalán,0.0,Castellano,0.0,Inglés,5.0,Francés,13.0,4.0,1.0,yes,no,yes,Flauta,12,Ukelele ,12,,,Nada,66.0,yes
43,2024-01-17_13h42.16.863,Unsyncopated_study2,s93,24.0,feminino,right,España,Catalán y castellano,Bachelor degree,no,no,A,1,what,L3,unsyncopated,s2,r1,43,Online_whatL3//d.ji.li19.1554.222.wav,le,li,do,sil2,chu,ka,ji,sil,mo,di,sil1,['catch'],[2.2255999999996448],[2.2255999999996448],1.554,no_beat,0.6715999999996447,0.6715999999996447,"[""space""]",ji,4,testWhenL4Uns//dep_viol.r1.s2.0.wav,2.0,when,unsyncopated,a,s2,no_rule,dep,L4,z,0.8178,5.0,1.0,1.6215,4.0,2.0,Catalán,0.0,Castellano,0.0,Inglés,5.0,Francés,13.0,4.0,1.0,yes,no,yes,Flauta,12,Ukelele ,12,,,Nada,66.0,yes
44,2024-01-17_13h42.16.863,Unsyncopated_study2,s93,24.0,feminino,right,España,Catalán y castellano,Bachelor degree,no,no,A,1,what,L3,unsyncopated,s2,r1,44,Online_whatL3//c.gu.je29.1332.222.wav,ko,je,le,sil2,chu,gu,do,sil,mo,ji,sil1,['catch'],[1.918800000000715],[1.918800000000715],1.332,no_beat,0.586800000000715,0.586800000000715,"[""space""]",gu,3,testWhenL4Uns//time_viol.r2.s1.0.wav,2.0,when,unsyncopated,b,s1,no_rule,time,L4,z,0.7031,2.0,1.0,0.5927,4.0,2.0,Catalán,0.0,Castellano,0.0,Inglés,5.0,Francés,13.0,4.0,1.0,yes,no,yes,Flauta,12,Ukelele ,12,,,Nada,66.0,yes
45,2024-01-17_13h42.16.863,Unsyncopated_study2,s93,24.0,feminino,right,España,Catalán y castellano,Bachelor degree,no,no,A,1,what,L3,unsyncopated,s1,r2,45,Online_whatL3//c.gu.je28.1332.444.wav,ñe,ko,je,sil,sa,fu,gu,sil1,le,ji,sil2,['catch'],[1.6267000000011649],[1.6267000000011649],1.332,no_beat,0.2947000000011648,0.2947000000011648,"[""space""]",gu,3,testWhenL4Uns//dep_viol.r2.s2.0.wav,2.0,when,unsyncopated,b,s2,no_rule,dep,L4,m,0.5707,4.0,0.0,0.5515,4.0,2.0,Catalán,0.0,Castellano,0.0,Inglés,5.0,Francés,13.0,4.0,1.0,yes,no,yes,Flauta,12,Ukelele ,12,,,Nada,66.0,yes
46,2024-01-17_13h42.16.863,Unsyncopated_study2,s93,24.0,feminino,right,España,Catalán y castellano,Bachelor degree,no,no,A,1,what,L3,unsyncopated,s1,r1,46,Online_whatL3//c.gu.je31.none.none.wav,chu,fu,ko,sil,mo,li,di,sil2,ga,ka,sil1,['-'],,,none,none,,,,gu,3,testWhenL4Uns//time_viol.r1.s1.0.wav,2.0,when,unsyncopated,a,s1,no_rule,time,L4,m,0.4839,4.0,0.0,0.3674,4.0,2.0,Catalán,0.0,Castellano,0.0,Inglés,5.0,Francés,13.0,4.0,1.0,yes,no,yes,Flauta,12,Ukelele ,12,,,Nada,66.0,yes
47,2024-01-17_13h42.16.863,Unsyncopated_study2,s93,24.0,feminino,right,España,Catalán y castellano,Bachelor degree,no,no,A,1,what,L3,unsyncopated,s2,r2,47,Online_whatL3//c.gu.je30.none.none.wav,ka,li,do,sil2,ñe,fu,ga,sil,sa,di,sil1,['-'],,,none,none,,,,gu,3,testWhenL4Uns//r1.s1.1.wav,2.0,when,unsyncopated,a,s1,rule,rule,L4,m,0.2266,2.0,0.0,1.5504,4.0,2.0,Catalán,0.0,Castellano,0.0,Inglés,5.0,Francés,13.0,4.0,1.0,yes,no,yes,Flauta,12,Ukelele ,12,,,Nada,66.0,yes
48,2024-01-17_13h42.16.863,Unsyncopated_study2,s93,24.0,feminino,right,España,Catalán y castellano,Bachelor degree,no,no,A,1,what,L3,unsyncopated,s1,r2,48,Online_whatL3//b.ñe.sa9.0.1110.wav,ñe,fu,di,sil2,sa,ka,le,sil,li,je,sil1,['miss'],,,0.0,beat,,,,ñe,1,testConjL2Uns//dep_viol.r1.s1.0.wav,3.0,conjunction_un,unsyncopated,a,s1,no_rule,dep,L2,z,0.7859,7.0,0.0,0.8094,4.0,2.0,Catalán,0.0,Castellano,0.0,Inglés,5.0,Francés,13.0,4.0,1.0,yes,no,yes,Flauta,12,Ukelele ,12,,,Nada,66.0,yes
49,2024-01-17_13h42.16.863,Unsyncopated_study2,s93,24.0,feminino,right,España,Catalán y castellano,Bachelor degree,no,no,A,1,what,L3,unsyncopated,s2,r2,49,Online_whatL3//b.ñe.sa8.1110.1998.wav,li,do,di,sil2,ñe,gu,ji,sil,sa,je,sil1,['miss'],,,1.11,no_beat,,,,ñe,1,testConjL2Uns//r2.s1.2.wav,3.0,conjunction_un,unsyncopated,b,s1,rule,rule,L2,m,0.6019,3.0,0.0,0.7994,4.0,2.0,Catalán,0.0,Castellano,0.0,Inglés,5.0,Francés,13.0,4.0,1.0,yes,no,yes,Flauta,12,Ukelele ,12,,,Nada,66.0,yes
50,2024-01-17_13h42.16.863,Unsyncopated_study2,s93,24.0,feminino,right,España,Catalán y castellano,Bachelor degree,no,no,A,1,what,L3,unsyncopated,s2,r2,50,Online_whatL3//b.ñe.sa10.1110.1998.wav,ga,le,gu,sil2,ñe,di,li,sil,sa,ji,sil1,['miss'],,,1.11,no_beat,,,,ñe,1,testConjL2Uns//cat_viol.r2.s1.0.wav,3.0,conjunction_un,unsyncopated,b,s1,no_rule,cat,L2,z,0.5418,4.0,0.0,0.517,4.0,2.0,Catalán,0.0,Castellano,0.0,Inglés,5.0,Francés,13.0,4.0,1.0,yes,no,yes,Flauta,12,Ukelele ,12,,,Nada,66.0,yes
51,2024-01-17_13h42.16.863,Unsyncopated_study2,s93,24.0,feminino,right,España,Catalán y castellano,Bachelor degree,no,no,A,1,what,L3,unsyncopated,s2,r2,51,Online_whatL3//b.ñe.sa11.1110.1998.wav,li,ko,ka,sil2,ñe,je,ji,sil,sa,fu,sil1,['miss'],,,1.11,no_beat,,,,ñe,1,testConjL2Uns//r1.s2.0.wav,3.0,conjunction_un,unsyncopated,a,s2,rule,rule,L2,z,0.3166,2.0,1.0,0.7664,4.0,2.0,Catalán,0.0,Castellano,0.0,Inglés,5.0,Francés,13.0,4.0,1.0,yes,no,yes,Flauta,12,Ukelele ,12,,,Nada,66.0,yes
52,2024-01-17_13h42.16.863,Unsyncopated_study2,s93,24.0,feminino,right,España,Catalán y castellano,Bachelor degree,no,no,A,1,what,L3,unsyncopated,s1,r1,52,Online_whatL3//b.ñe.sa6.none.none.wav,chu,ji,gu,sil,mo,li,fu,sil2,ka,do,sil1,['-'],,,none,none,,,,ñe,1,testConjL2Uns//r2.s1.0.wav,3.0,conjunction_un,unsyncopated,b,s1,rule,rule,L2,z,0.3168,3.0,1.0,0.367,4.0,2.0,Catalán,0.0,Castellano,0.0,Inglés,5.0,Francés,13.0,4.0,1.0,yes,no,yes,Flauta,12,Ukelele ,12,,,Nada,66.0,yes
53,2024-01-17_13h42.16.863,Unsyncopated_study2,s93,24.0,feminino,right,España,Catalán y castellano,Bachelor degree,no,no,A,1,what,L3,unsyncopated,s1,r1,53,Online_whatL3//b.ñe.sa4.none.none.wav,chu,ka,le,sil,mo,je,ga,sil1,do,ji,sil2,['-'],,,none,none,,,,ñe,1,testConjL2Uns//r1.s1.1.wav,3.0,conjunction_un,unsyncopated,a,s1,rule,rule,L2,m,0.3854,4.0,0.0,0.6751,4.0,2.0,Catalán,0.0,Castellano,0.0,Inglés,5.0,Francés,13.0,4.0,1.0,yes,no,yes,Flauta,12,Ukelele ,12,,,Nada,66.0,yes
54,2024-01-17_13h42.16.863,Unsyncopated_study2,s93,24.0,feminino,right,España,Catalán y castellano,Bachelor degree,no,no,A,1,what,L3,unsyncopated,s2,r2,54,Online_whatL3//b.ñe.sa5.888.1998.wav,di,je,do,sil,ñe,gu,li,sil2,sa,le,sil1,['miss'],,,0.888,beat,,,,ñe,1,testConjL2Uns//time_viol.r1.s1.0.wav,3.0,conjunction_un,unsyncopated,a,s1,no_rule,time,L2,m,0.7981,4.0,1.0,0.5396,4.0,2.0,Catalán,0.0,Castellano,0.0,Inglés,5.0,Francés,13.0,4.0,1.0,yes,no,yes,Flauta,12,Ukelele ,12,,,Nada,66.0,yes
55,2024-01-17_13h42.16.863,Unsyncopated_study2,s93,24.0,feminino,right,España,Catalán y castellano,Bachelor degree,no,no,A,1,what,L3,unsyncopated,s2,r1,55,Online_whatL3//b.ñe.sa7.none.none.wav,gu,di,le,sil,chu,ga,ka,sil1,mo,ko,sil2,['-'],,,none,none,,,,ñe,1,testConjL2Uns//time_viol.r1.s2.0.wav,3.0,conjunction_un,unsyncopated,a,s2,no_rule,time,L2,z,0.2377,6.0,0.0,1.0674,4.0,2.0,Catalán,0.0,Castellano,0.0,Inglés,5.0,Francés,13.0,4.0,1.0,yes,no,yes,Flauta,12,Ukelele ,12,,,Nada,66.0,yes
56,2024-01-17_13h42.16.863,Unsyncopated_study2,s93,24.0,feminino,right,España,Catalán y castellano,Bachelor degree,no,no,A,1,what,L3,unsyncopated,s2,r2,56,Online_whatL3//b.ñe.sa30.888.1998.wav,li,do,ko,sil,ñe,ka,ji,sil2,sa,fu,sil1,['miss'],,,0.888,beat,,,,ñe,1,testConjL2Uns//r1.s1.2.wav,3.0,conjunction_un,unsyncopated,a,s1,rule,rule,L2,m,1.8718,3.0,0.0,0.5357,4.0,2.0,Catalán,0.0,Castellano,0.0,Inglés,5.0,Francés,13.0,4.0,1.0,yes,no,yes,Flauta,12,Ukelele ,12,,,Nada,66.0,yes
57,2024-01-17_13h42.16.863,Unsyncopated_study2,s93,24.0,feminino,right,España,Catalán y castellano,Bachelor degree,no,no,A,1,what,L3,unsyncopated,s1,r1,57,Online_whatL3//b.ñe.sa29.none.none.wav,chu,le,ga,sil,mo,fu,di,sil2,ji,ko,sil1,['-'],,,none,none,,,,ñe,1,testConjL2Uns//r1.s2.1.wav,3.0,conjunction_un,unsyncopated,a,s2,rule,rule,L2,z,0.38,6.0,1.0,0.6889,4.0,2.0,Catalán,0.0,Castellano,0.0,Inglés,5.0,Francés,13.0,4.0,1.0,yes,no,yes,Flauta,12,Ukelele ,12,,,Nada,66.0,yes
58,2024-01-17_13h42.16.863,Unsyncopated_study2,s93,24.0,feminino,right,España,Catalán y castellano,Bachelor degree,no,no,A,1,what,L3,unsyncopated,s1,r1,58,Online_whatL3//b.ñe.sa31.none.none.wav,chu,ji,fu,sil,mo,li,le,sil1,ka,ko,sil2,['-'],,,none,none,,,,ñe,1,testConjL2Uns//dep_viol.r1.s2.0.wav,3.0,conjunction_un,unsyncopated,a,s2,no_rule,dep,L2,z,0.3661,4.0,0.0,0.6312,4.0,2.0,Catalán,0.0,Castellano,0.0,Inglés,5.0,Francés,13.0,4.0,1.0,yes,no,yes,Flauta,12,Ukelele ,12,,,Nada,66.0,yes
59,2024-01-17_13h42.16.863,Unsyncopated_study2,s93,24.0,feminino,right,España,Catalán y castellano,Bachelor degree,no,no,A,1,what,L3,unsyncopated,s2,r1,59,Online_whatL3//b.ñe.sa28.none.none.wav,do,gu,le,sil2,chu,ka,ga,sil,mo,je,sil1,['-'],,,none,none,,,,ñe,1,testConjL2Uns//r2.s2.2.wav,3.0,conjunction_un,unsyncopated,b,s2,rule,rule,L2,m,0.598,5.0,0.0,0.4733,4.0,2.0,Catalán,0.0,Castellano,0.0,Inglés,5.0,Francés,13.0,4.0,1.0,yes,no,yes,Flauta,12,Ukelele ,12,,,Nada,66.0,yes
60,2024-01-17_13h42.16.863,Unsyncopated_study2,s93,24.0,feminino,right,España,Catalán y castellano,Bachelor degree,no,no,A,1,what,L3,unsyncopated,s2,r2,60,Online_whatL3//d.ji.li10.444.0.wav,li,le,ji,sil,ñe,do,di,sil1,sa,ga,sil2,['catch'],[1.03550000000007],[1.03550000000007],0.444,no_beat,0.5915000000000701,0.5915000000000701,"[""space""]",ji,4,testConjL2Uns//cat_viol.r2.s2.0.wav,3.0,conjunction_un,unsyncopated,b,s2,no_rule,cat,L2,z,0.3211,1.0,0.0,0.699,4.0,2.0,Catalán,0.0,Castellano,0.0,Inglés,5.0,Francés,13.0,4.0,1.0,yes,no,yes,Flauta,12,Ukelele ,12,,,Nada,66.0,yes
61,2024-01-17_13h42.16.863,Unsyncopated_study2,s93,24.0,feminino,right,España,Catalán y castellano,Bachelor degree,no,no,A,1,what,L3,unsyncopated,s2,r1,61,Online_whatL3//d.ji.li8.none.none.wav,di,ko,do,sil,chu,ga,le,sil2,mo,je,sil1,['-'],,,none,none,,,,ji,4,testConjL2Uns//dep_viol.r2.s2.0.wav,3.0,conjunction_un,unsyncopated,b,s2,no_rule,dep,L2,m,0.6094,4.0,1.0,0.5818,4.0,2.0,Catalán,0.0,Castellano,0.0,Inglés,5.0,Francés,13.0,4.0,1.0,yes,no,yes,Flauta,12,Ukelele ,12,,,Nada,66.0,yes
62,2024-01-17_13h42.16.863,Unsyncopated_study2,s93,24.0,feminino,right,España,Catalán y castellano,Bachelor degree,no,no,A,1,what,L3,unsyncopated,s2,r1,62,Online_whatL3//d.ji.li9.1554.444.wav,fu,ga,li,sil2,chu,gu,ji,sil,mo,do,sil1,"['false alarm', 'catch']","[1.336500000000001, 2.2625999999996793]",[2.2625999999996793],1.554,no_beat,0.7085999999996793,0.7085999999996793,"[""space"",""space""]",ji,4,testConjL2Uns//time_viol.r2.s1.0.wav,3.0,conjunction_un,unsyncopated,b,s1,no_rule,time,L2,m,0.2818,2.0,1.0,0.3414,4.0,2.0,Catalán,0.0,Castellano,0.0,Inglés,5.0,Francés,13.0,4.0,1.0,yes,no,yes,Flauta,12,Ukelele ,12,,,Nada,66.0,yes
63,2024-01-17_13h42.16.863,Unsyncopated_study2,s93,24.0,feminino,right,España,Catalán y castellano,Bachelor degree,no,no,A,1,what,L3,unsyncopated,s2,r1,63,Online_whatL3//d.ji.li11.none.none.wav,fu,di,ka,sil2,chu,do,je,sil,mo,le,sil1,['-'],,,none,none,,,,ji,4,testConjL2Uns//r2.s1.1.wav,3.0,conjunction_un,unsyncopated,b,s1,rule,rule,L2,z,1.9866,5.0,1.0,0.3811,4.0,2.0,Catalán,0.0,Castellano,0.0,Inglés,5.0,Francés,13.0,4.0,1.0,yes,no,yes,Flauta,12,Ukelele ,12,,,Nada,66.0,yes
64,2024-01-17_13h42.16.863,Unsyncopated_study2,s93,24.0,feminino,right,España,Catalán y castellano,Bachelor degree,no,no,A,1,what,L3,unsyncopated,s1,r2,64,Online_whatL3//c.gu.je23.222.1110.wav,ñe,gu,li,sil,sa,je,do,sil2,ka,ko,sil1,['miss'],,,0.222,no_beat,,,,gu,3,testConjL2Uns//r1.s2.2.wav,3.0,conjunction_un,unsyncopated,a,s2,rule,rule,L2,m,1.2331,2.0,0.0,0.3453,4.0,2.0,Catalán,0.0,Castellano,0.0,Inglés,5.0,Francés,13.0,4.0,1.0,yes,no,yes,Flauta,12,Ukelele ,12,,,Nada,66.0,yes
65,2024-01-17_13h42.16.863,Unsyncopated_study2,s93,24.0,feminino,right,España,Catalán y castellano,Bachelor degree,no,no,A,1,what,L3,unsyncopated,s1,r1,65,Online_whatL3//c.gu.je21.1332.444.wav,chu,li,je,sil,mo,ka,gu,sil1,do,ga,sil2,['catch'],[1.677000000000021],[1.677000000000021],1.332,no_beat,0.3450000000000208,0.3450000000000208,"[""space""]",gu,3,testConjL2Uns//r2.s2.0.wav,3.0,conjunction_un,unsyncopated,b,s2,rule,rule,L2,m,0.8486,4.0,0.0,0.4844,4.0,2.0,Catalán,0.0,Castellano,0.0,Inglés,5.0,Francés,13.0,4.0,1.0,yes,no,yes,Flauta,12,Ukelele ,12,,,Nada,66.0,yes
66,2024-01-17_13h42.16.863,Unsyncopated_study2,s93,24.0,feminino,right,España,Catalán y castellano,Bachelor degree,no,no,A,1,what,L3,unsyncopated,s2,r1,66,Online_whatL3//c.gu.je20.0.1110.wav,gu,li,ko,sil,chu,je,ga,sil2,mo,le,sil1,['catch'],[0.7400999999996429],[0.7400999999996429],0.0,beat,0.7400999999996429,0.7400999999996429,"[""space""]",gu,3,testConjL2Uns//dep_viol.r2.s1.0.wav,3.0,conjunction_un,unsyncopated,b,s1,no_rule,dep,L2,m,0.7901,5.0,1.0,0.8892,4.0,2.0,Catalán,0.0,Castellano,0.0,Inglés,5.0,Francés,13.0,4.0,1.0,yes,no,yes,Flauta,12,Ukelele ,12,,,Nada,66.0,yes
67,2024-01-17_13h42.16.863,Unsyncopated_study2,s93,24.0,feminino,right,España,Catalán y castellano,Bachelor degree,no,no,A,1,what,L3,unsyncopated,s2,r2,67,Online_whatL3//c.gu.je22.0.444.wav,gu,li,je,sil2,ñe,ji,ko,sil,sa,ga,sil1,['catch'],[0.5235999999996466],[0.5235999999996466],0.0,beat,0.5235999999996466,0.5235999999996466,"[""space""]",gu,3,testConjL2Uns//cat_viol.r1.s2.0.wav,3.0,conjunction_un,unsyncopated,a,s2,no_rule,cat,L2,z,0.1356,3.0,0.0,0.8263,4.0,2.0,Catalán,0.0,Castellano,0.0,Inglés,5.0,Francés,13.0,4.0,1.0,yes,no,yes,Flauta,12,Ukelele ,12,,,Nada,66.0,yes
68,2024-01-17_13h42.16.863,Unsyncopated_study2,s93,24.0,feminino,right,España,Catalán y castellano,Bachelor degree,no,no,A,1,what,L3,unsyncopated,s1,r1,68,Online_whatL3//c.gu.je6.222.444.wav,chu,gu,je,sil2,mo,fu,ko,sil,ji,ka,sil1,['miss'],,,0.222,no_beat,,,,gu,3,testConjL2Uns//r2.s2.1.wav,3.0,conjunction_un,unsyncopated,b,s2,rule,rule,L2,z,0.1336,6.0,1.0,0.4833,4.0,2.0,Catalán,0.0,Castellano,0.0,Inglés,5.0,Francés,13.0,4.0,1.0,yes,no,yes,Flauta,12,Ukelele ,12,,,Nada,66.0,yes
69,2024-01-17_13h42.16.863,Unsyncopated_study2,s93,24.0,feminino,right,España,Catalán y castellano,Bachelor degree,no,no,A,1,what,L3,unsyncopated,s2,r1,69,Online_whatL3//c.gu.je5.none.none.wav,do,di,ji,sil,chu,li,ka,sil1,mo,le,sil2,['-'],,,none,none,,,,gu,3,testConjL2Uns//time_viol.r2.s2.0.wav,3.0,conjunction_un,unsyncopated,b,s2,no_rule,time,L2,m,0.8041,2.0,1.0,0.2997,4.0,2.0,Catalán,0.0,Castellano,0.0,Inglés,5.0,Francés,13.0,4.0,1.0,yes,no,yes,Flauta,12,Ukelele ,12,,,Nada,66.0,yes
70,2024-01-17_13h42.16.863,Unsyncopated_study2,s93,24.0,feminino,right,España,Catalán y castellano,Bachelor degree,no,no,A,1,what,L3,unsyncopated,s2,r2,70,Online_whatL3//c.gu.je4.1110.222.wav,do,je,di,sil,ñe,gu,ji,sil1,sa,le,sil2,['miss'],,,1.11,no_beat,,,,gu,3,testConjL2Uns//r1.s1.0.wav,3.0,conjunction_un,unsyncopated,a,s1,rule,rule,L2,m,1.5993,4.0,0.0,0.5179,4.0,2.0,Catalán,0.0,Castellano,0.0,Inglés,5.0,Francés,13.0,4.0,1.0,yes,no,yes,Flauta,12,Ukelele ,12,,,Nada,66.0,yes
71,2024-01-17_13h42.16.863,Unsyncopated_study2,s93,24.0,feminino,right,España,Catalán y castellano,Bachelor degree,no,no,A,1,what,L3,unsyncopated,s2,r2,71,Online_whatL3//c.gu.je7.none.none.wav,ga,li,do,sil,ñe,ka,ko,sil1,sa,le,sil2,['-'],,,none,none,,,,gu,3,testConjL2Uns//cat_viol.r1.s1.0.wav,3.0,conjunction_un,unsyncopated,a,s1,no_rule,cat,L2,z,1.0543,2.0,0.0,0.8484,4.0,2.0,Catalán,0.0,Castellano,0.0,Inglés,5.0,Francés,13.0,4.0,1.0,yes,no,yes,Flauta,12,Ukelele ,12,,,Nada,66.0,yes
72,2024-01-17_13h42.16.863,Unsyncopated_study2,s93,24.0,feminino,right,España,Catalán y castellano,Bachelor degree,no,no,A,1,what,L3,unsyncopated,s2,r2,72,Online_whatL3//b.ñe.sa27.1110.1998.wav,ga,je,fu,sil2,ñe,li,gu,sil,sa,ka,sil1,['miss'],,,1.11,no_beat,,,,ñe,1,testConjL1Syn//r1.s1.1.wav,4.0,conjunction_syn,syncopated,a,s1,rule,rule,L1,z,0.8738,5.0,1.0,0.5211,4.0,2.0,Catalán,0.0,Castellano,0.0,Inglés,5.0,Francés,13.0,4.0,1.0,yes,no,yes,Flauta,12,Ukelele ,12,,,Nada,66.0,yes
73,2024-01-17_13h42.16.863,Unsyncopated_study2,s93,24.0,feminino,right,España,Catalán y castellano,Bachelor degree,no,no,A,1,what,L3,unsyncopated,s1,r2,73,Online_whatL3//b.ñe.sa24.0.888.wav,ñe,je,ga,sil,sa,di,ji,sil1,li,ka,sil2,['catch'],[0.5729000000004589],[0.5729000000004589],0.0,beat,0.5729000000004589,0.5729000000004589,"[""space""]",ñe,1,testConjL1Syn//cat_viol.r2.s1.0.wav,4.0,conjunction_syn,syncopated,b,s1,no_rule,cat,L1,m,0.3293,3.0,1.0,0.4184,4.0,2.0,Catalán,0.0,Castellano,0.0,Inglés,5.0,Francés,13.0,4.0,1.0,yes,no,yes,Flauta,12,Ukelele ,12,,,Nada,66.0,yes
74,2024-01-17_13h42.16.863,Unsyncopated_study2,s93,24.0,feminino,right,España,Catalán y castellano,Bachelor degree,no,no,A,1,what,L3,unsyncopated,s1,r2,74,Online_whatL3//b.ñe.sa25.0.888.wav,ñe,di,do,sil,sa,ko,le,sil2,gu,ka,sil1,['miss'],,,0.0,beat,,,,ñe,1,testConjL1Syn//r2.s1.1.wav,4.0,conjunction_syn,syncopated,b,s1,rule,rule,L1,z,0.4281,4.0,1.0,0.5056,4.0,2.0,Catalán,0.0,Castellano,0.0,Inglés,5.0,Francés,13.0,4.0,1.0,yes,no,yes,Flauta,12,Ukelele ,12,,,Nada,66.0,yes
75,2024-01-17_13h42.16.863,Unsyncopated_study2,s93,24.0,feminino,right,España,Catalán y castellano,Bachelor degree,no,no,A,1,what,L3,unsyncopated,s1,r1,75,Online_whatL3//b.ñe.sa26.none.none.wav,chu,di,ga,sil,mo,li,le,sil2,ka,ko,sil1,['-'],,,none,none,,,,ñe,1,testConjL1Syn//r2.s2.1.wav,4.0,conjunction_syn,syncopated,b,s2,rule,rule,L1,z,0.3907,3.0,1.0,0.3502,4.0,2.0,Catalán,0.0,Castellano,0.0,Inglés,5.0,Francés,13.0,4.0,1.0,yes,no,yes,Flauta,12,Ukelele ,12,,,Nada,66.0,yes
76,2024-01-17_13h42.16.863,Unsyncopated_study2,s93,24.0,feminino,right,España,Catalán y castellano,Bachelor degree,no,no,A,1,what,L3,unsyncopated,s1,r1,76,Online_whatL3//b.ñe.sa16.none.none.wav,chu,fu,ko,sil,mo,li,je,sil1,ka,gu,sil2,['-'],,,none,none,,,,ñe,1,testConjL1Syn//r2.s2.0.wav,4.0,conjunction_syn,syncopated,b,s2,rule,rule,L1,z,0.8707,4.0,1.0,0.8024,4.0,2.0,Catalán,0.0,Castellano,0.0,Inglés,5.0,Francés,13.0,4.0,1.0,yes,no,yes,Flauta,12,Ukelele ,12,,,Nada,66.0,yes
77,2024-01-17_13h42.16.863,Unsyncopated_study2,s93,24.0,feminino,right,España,Catalán y castellano,Bachelor degree,no,no,A,1,what,L3,unsyncopated,s2,r1,77,Online_whatL3//b.ñe.sa18.none.none.wav,ko,je,ga,sil2,chu,li,fu,sil,mo,gu,sil1,['-'],,,none,none,,,,ñe,1,testConjL1Syn//dep_viol.r2.s2.0.wav,4.0,conjunction_syn,syncopated,b,s2,no_rule,dep,L1,m,0.2636,3.0,1.0,0.3922,4.0,2.0,Catalán,0.0,Castellano,0.0,Inglés,5.0,Francés,13.0,4.0,1.0,yes,no,yes,Flauta,12,Ukelele ,12,,,Nada,66.0,yes
78,2024-01-17_13h42.16.863,Unsyncopated_study2,s93,24.0,feminino,right,España,Catalán y castellano,Bachelor degree,no,no,A,1,what,L3,unsyncopated,s2,r1,78,Online_whatL3//b.ñe.sa17.none.none.wav,di,gu,do,sil,chu,li,le,sil1,mo,ji,sil2,['-'],,,none,none,,,,ñe,1,testConjL1Syn//r1.s2.2.wav,4.0,conjunction_syn,syncopated,a,s2,rule,rule,L1,z,0.2866,5.0,1.0,0.5985,4.0,2.0,Catalán,0.0,Castellano,0.0,Inglés,5.0,Francés,13.0,4.0,1.0,yes,no,yes,Flauta,12,Ukelele ,12,,,Nada,66.0,yes
79,2024-01-17_13h42.16.863,Unsyncopated_study2,s93,24.0,feminino,right,España,Catalán y castellano,Bachelor degree,no,no,A,1,what,L3,unsyncopated,s2,r1,79,Online_whatL3//b.ñe.sa19.none.none.wav,ji,fu,gu,sil2,chu,do,ka,sil,mo,ko,sil1,['-'],,,none,none,,,,ñe,1,testConjL1Syn//cat_viol.r1.s1.0.wav,4.0,conjunction_syn,syncopated,a,s1,no_rule,cat,L1,m,0.1566,4.0,1.0,0.8354,4.0,2.0,Catalán,0.0,Castellano,0.0,Inglés,5.0,Francés,13.0,4.0,1.0,yes,no,yes,Flauta,12,Ukelele ,12,,,Nada,66.0,yes
80,2024-01-17_13h42.16.863,Unsyncopated_study2,s93,24.0,feminino,right,España,Catalán y castellano,Bachelor degree,no,no,A,1,what,L3,unsyncopated,s2,r2,80,Online_whatL3//d.ji.li30.none.none.wav,gu,di,fu,sil,ñe,je,le,sil1,sa,ko,sil2,['-'],,,none,none,,,,ji,4,testConjL1Syn//r1.s2.1.wav,4.0,conjunction_syn,syncopated,a,s2,rule,rule,L1,z,0.0359,6.0,1.0,0.9662,4.0,2.0,Catalán,0.0,Castellano,0.0,Inglés,5.0,Francés,13.0,4.0,1.0,yes,no,yes,Flauta,12,Ukelele ,12,,,Nada,66.0,yes
81,2024-01-17_13h42.16.863,Unsyncopated_study2,s93,24.0,feminino,right,España,Catalán y castellano,Bachelor degree,no,no,A,1,what,L3,unsyncopated,s2,r2,81,Online_whatL3//d.ji.li29.1554.222.wav,je,li,ga,sil2,ñe,do,ji,sil,sa,gu,sil1,"['false alarm', 'catch']","[0.5584999999999809, 2.043100000001573]",[2.043100000001573],1.554,no_beat,0.4891000000015728,0.4891000000015728,"[""space"",""space""]",ji,4,testConjL1Syn//cat_viol.r2.s2.0.wav,4.0,conjunction_syn,syncopated,b,s2,no_rule,cat,L1,m,1.1461,3.0,1.0,0.6018,4.0,2.0,Catalán,0.0,Castellano,0.0,Inglés,5.0,Francés,13.0,4.0,1.0,yes,no,yes,Flauta,12,Ukelele ,12,,,Nada,66.0,yes
82,2024-01-17_13h42.16.863,Unsyncopated_study2,s93,24.0,feminino,right,España,Catalán y castellano,Bachelor degree,no,no,A,1,what,L3,unsyncopated,s1,r2,82,Online_whatL3//d.ji.li28.none.none.wav,ñe,ka,di,sil2,sa,le,ko,sil,je,ga,sil1,['-'],,,none,none,,,,ji,4,testConjL1Syn//r2.s2.2.wav,4.0,conjunction_syn,syncopated,b,s2,rule,rule,L1,z,0.2824,4.0,1.0,0.4086,4.0,2.0,Catalán,0.0,Castellano,0.0,Inglés,5.0,Francés,13.0,4.0,1.0,yes,no,yes,Flauta,12,Ukelele ,12,,,Nada,66.0,yes
83,2024-01-17_13h42.16.863,Unsyncopated_study2,s93,24.0,feminino,right,España,Catalán y castellano,Bachelor degree,no,no,A,1,what,L3,unsyncopated,s1,r1,83,Online_whatL3//d.ji.li31.1332.444.wav,chu,gu,li,sil,mo,ka,ji,sil2,ga,je,sil1,['catch'],[1.8396999999991976],[1.8396999999991976],1.332,no_beat,0.5076999999991976,0.5076999999991976,"[""space""]",ji,4,testConjL1Syn//r2.s1.2.wav,4.0,conjunction_syn,syncopated,b,s1,rule,rule,L1,m,0.302,3.0,0.0,0.4162,4.0,2.0,Catalán,0.0,Castellano,0.0,Inglés,5.0,Francés,13.0,4.0,1.0,yes,no,yes,Flauta,12,Ukelele ,12,,,Nada,66.0,yes
84,2024-01-17_13h42.16.863,Unsyncopated_study2,s93,24.0,feminino,right,España,Catalán y castellano,Bachelor degree,no,no,A,1,what,L3,unsyncopated,s2,r2,84,Online_whatL3//c.gu.je18.none.none.wav,ko,do,ji,sil,ñe,li,ga,sil2,sa,di,sil1,['-'],,,none,none,,,,gu,3,testConjL1Syn//dep_viol.r1.s2.0.wav,4.0,conjunction_syn,syncopated,a,s2,no_rule,dep,L1,z,0.3568,5.0,0.0,0.5862,4.0,2.0,Catalán,0.0,Castellano,0.0,Inglés,5.0,Francés,13.0,4.0,1.0,yes,no,yes,Flauta,12,Ukelele ,12,,,Nada,66.0,yes
85,2024-01-17_13h42.16.863,Unsyncopated_study2,s93,24.0,feminino,right,España,Catalán y castellano,Bachelor degree,no,no,A,1,what,L3,unsyncopated,s1,r1,85,Online_whatL3//c.gu.je16.1332.444.wav,chu,fu,je,sil,mo,di,gu,sil1,li,ko,sil2,['catch'],[1.6818000000007487],[1.6818000000007487],1.332,no_beat,0.3498000000007486,0.3498000000007486,"[""space""]",gu,3,testConjL1Syn//time_viol.r1.s2.0.wav,4.0,conjunction_syn,syncopated,a,s2,no_rule,time,L1,z,0.0884,7.0,0.0,1.1995,4.0,2.0,Catalán,0.0,Castellano,0.0,Inglés,5.0,Francés,13.0,4.0,1.0,yes,no,yes,Flauta,12,Ukelele ,12,,,Nada,66.0,yes
86,2024-01-17_13h42.16.863,Unsyncopated_study2,s93,24.0,feminino,right,España,Catalán y castellano,Bachelor degree,no,no,A,1,what,L3,unsyncopated,s2,r2,86,Online_whatL3//c.gu.je19.0.1110.wav,gu,do,li,sil,ñe,je,ji,sil2,sa,di,sil1,['catch'],[0.5400999999995975],[0.5400999999995975],0.0,beat,0.5400999999995975,0.5400999999995975,"[""space""]",gu,3,testConjL1Syn//r1.s2.0.wav,4.0,conjunction_syn,syncopated,a,s2,rule,rule,L1,m,0.5851,4.0,0.0,0.3623,4.0,2.0,Catalán,0.0,Castellano,0.0,Inglés,5.0,Francés,13.0,4.0,1.0,yes,no,yes,Flauta,12,Ukelele ,12,,,Nada,66.0,yes
87,2024-01-17_13h42.16.863,Unsyncopated_study2,s93,24.0,feminino,right,España,Catalán y castellano,Bachelor degree,no,no,A,1,what,L3,unsyncopated,s1,r2,87,Online_whatL3//c.gu.je17.none.none.wav,ñe,ga,li,sil2,sa,ko,ji,sil,do,ka,sil1,['-'],,,none,none,,,,gu,3,testConjL1Syn//cat_viol.r1.s2.0.wav,4.0,conjunction_syn,syncopated,a,s2,no_rule,cat,L1,z,0.6539,3.0,0.0,0.5325,4.0,2.0,Catalán,0.0,Castellano,0.0,Inglés,5.0,Francés,13.0,4.0,1.0,yes,no,yes,Flauta,12,Ukelele ,12,,,Nada,66.0,yes
88,2024-01-17_13h42.16.863,Unsyncopated_study2,s93,24.0,feminino,right,España,Catalán y castellano,Bachelor degree,no,no,A,1,what,L3,unsyncopated,s2,r2,88,Online_whatL3//d.ji.li6.222.1110.wav,ko,ji,ka,sil,ñe,li,di,sil2,sa,ga,sil1,['catch'],[0.40770000000111395],[0.40770000000111395],0.222,no_beat,0.1857000000011139,0.1857000000011139,"[""space""]",ji,4,testConjL1Syn//r2.s1.0.wav,4.0,conjunction_syn,syncopated,b,s1,rule,rule,L1,m,0.2051,4.0,0.0,1.2214,4.0,2.0,Catalán,0.0,Castellano,0.0,Inglés,5.0,Francés,13.0,4.0,1.0,yes,no,yes,Flauta,12,Ukelele ,12,,,Nada,66.0,yes
89,2024-01-17_13h42.16.863,Unsyncopated_study2,s93,24.0,feminino,right,España,Catalán y castellano,Bachelor degree,no,no,A,1,what,L3,unsyncopated,s1,r2,89,Online_whatL3//d.ji.li7.1332.1554.wav,ñe,ga,ka,sil2,sa,ji,li,sil,gu,do,sil1,['catch'],[1.7073000000008278],[1.7073000000008278],1.332,no_beat,0.3753000000008277,0.3753000000008277,"[""space""]",ji,4,testConjL1Syn//dep_viol.r1.s1.0.wav,4.0,conjunction_syn,syncopated,a,s1,no_rule,dep,L1,z,0.3487,3.0,0.0,0.8527,4.0,2.0,Catalán,0.0,Castellano,0.0,Inglés,5.0,Francés,13.0,4.0,1.0,yes,no,yes,Flauta,12,Ukelele ,12,,,Nada,66.0,yes
90,2024-01-17_13h42.16.863,Unsyncopated_study2,s93,24.0,feminino,right,España,Catalán y castellano,Bachelor degree,no,no,A,1,what,L3,unsyncopated,s1,r1,90,Online_whatL3//d.ji.li4.none.none.wav,chu,je,ko,sil,mo,ga,le,sil2,do,di,sil1,['-'],,,none,none,,,,ji,4,testConjL1Syn//time_viol.r2.s2.0.wav,4.0,conjunction_syn,syncopated,b,s2,no_rule,time,L1,m,0.8889,4.0,1.0,0.4374,4.0,2.0,Catalán,0.0,Castellano,0.0,Inglés,5.0,Francés,13.0,4.0,1.0,yes,no,yes,Flauta,12,Ukelele ,12,,,Nada,66.0,yes
91,2024-01-17_13h42.16.863,Unsyncopated_study2,s93,24.0,feminino,right,España,Catalán y castellano,Bachelor degree,no,no,A,1,what,L3,unsyncopated,s2,r1,91,Online_whatL3//d.ji.li5.none.none.wav,le,ka,di,sil,chu,fu,ko,sil2,mo,gu,sil1,['-'],,,none,none,,,,ji,4,testConjL1Syn//time_viol.r1.s1.0.wav,4.0,conjunction_syn,syncopated,a,s1,no_rule,time,L1,z,0.3128,4.0,0.0,0.5369,4.0,2.0,Catalán,0.0,Castellano,0.0,Inglés,5.0,Francés,13.0,4.0,1.0,yes,no,yes,Flauta,12,Ukelele ,12,,,Nada,66.0,yes
92,2024-01-17_13h42.16.863,Unsyncopated_study2,s93,24.0,feminino,right,España,Catalán y castellano,Bachelor degree,no,no,A,1,what,L3,unsyncopated,s2,r2,92,Online_whatL3//a.chu.mo28.none.none.wav,di,do,ka,sil,ñe,ko,ji,sil1,sa,fu,sil2,['-'],,,none,none,,,,mo,2,testConjL1Syn//dep_viol.r2.s1.0.wav,4.0,conjunction_syn,syncopated,b,s1,no_rule,dep,L1,m,0.606,4.0,1.0,0.6054,4.0,2.0,Catalán,0.0,Castellano,0.0,Inglés,5.0,Francés,13.0,4.0,1.0,yes,no,yes,Flauta,12,Ukelele ,12,,,Nada,66.0,yes
93,2024-01-17_13h42.16.863,Unsyncopated_study2,s93,24.0,feminino,right,España,Catalán y castellano,Bachelor degree,no,no,A,1,what,L3,unsyncopated,s1,r1,93,Online_whatL3//a.chu.mo30.0.888.wav,chu,ko,li,sil,mo,gu,le,sil2,je,fu,sil1,['catch'],[1.2096999999993159],[1.2096999999993159],0.888,beat,0.3216999999993158,0.3216999999993158,"[""space""]",mo,2,testConjL1Syn//r1.s1.0.wav,4.0,conjunction_syn,syncopated,a,s1,rule,rule,L1,z,0.8686,2.0,1.0,0.7721,4.0,2.0,Catalán,0.0,Castellano,0.0,Inglés,5.0,Francés,13.0,4.0,1.0,yes,no,yes,Flauta,12,Ukelele ,12,,,Nada,66.0,yes
94,2024-01-17_13h42.16.863,Unsyncopated_study2,s93,24.0,feminino,right,España,Catalán y castellano,Bachelor degree,no,no,A,1,what,L3,unsyncopated,s2,r2,94,Online_whatL3//a.chu.mo31.none.none.wav,ka,di,ko,sil,ñe,ji,fu,sil1,sa,le,sil2,['-'],,,none,none,,,,mo,2,testConjL1Syn//r1.s1.2.wav,4.0,conjunction_syn,syncopated,a,s1,rule,rule,L1,m,0.5855,4.0,0.0,0.7535,4.0,2.0,Catalán,0.0,Castellano,0.0,Inglés,5.0,Francés,13.0,4.0,1.0,yes,no,yes,Flauta,12,Ukelele ,12,,,Nada,66.0,yes
95,2024-01-17_13h42.16.863,Unsyncopated_study2,s93,24.0,feminino,right,España,Catalán y castellano,Bachelor degree,no,no,A,1,what,L3,unsyncopated,s1,r2,95,Online_whatL3//a.chu.mo29.none.none.wav,ñe,do,di,sil,sa,gu,ko,sil1,le,ka,sil2,['-'],,,none,none,,,,mo,2,testConjL1Syn//time_viol.r2.s1.0.wav,4.0,conjunction_syn,syncopated,b,s1,no_rule,time,L1,z,0.3947,5.0,0.0,1.0823,4.0,2.0,Catalán,0.0,Castellano,0.0,Inglés,5.0,Francés,13.0,4.0,1.0,yes,no,yes,Flauta,12,Ukelele ,12,,,Nada,66.0,yes
96,2024-01-17_13h42.16.863,Unsyncopated_study2,s93,24.0,feminino,right,España,Catalán y castellano,Bachelor degree,no,no,A,1,what,L3,unsyncopated,s1,r1,96,Online_whatL3//d.ji.li20.none.none.wav,chu,gu,fu,sil2,mo,ga,do,sil,ka,di,sil1,['-'],,,none,none,,,,ji,4,,,,,,,,,,,,,,,4.0,2.0,Catalán,0.0,Castellano,0.0,Inglés,5.0,Francés,13.0,4.0,1.0,yes,no,yes,Flauta,12,Ukelele ,12,,,Nada,66.0,yes
97,2024-01-17_13h42.16.863,Unsyncopated_study2,s93,24.0,feminino,right,España,Catalán y castellano,Bachelor degree,no,no,A,1,what,L3,unsyncopated,s2,r2,97,Online_whatL3//d.ji.li22.none.none.wav,gu,ka,di,sil,ñe,do,ga,sil2,sa,ko,sil1,['-'],,,none,none,,,,ji,4,,,,,,,,,,,,,,,4.0,2.0,Catalán,0.0,Castellano,0.0,Inglés,5.0,Francés,13.0,4.0,1.0,yes,no,yes,Flauta,12,Ukelele ,12,,,Nada,66.0,yes
98,2024-01-17_13h42.16.863,Unsyncopated_study2,s93,24.0,feminino,right,España,Catalán y castellano,Bachelor degree,no,no,A,1,what,L3,unsyncopated,s2,r2,98,Online_whatL3//d.ji.li21.none.none.wav,di,le,ko,sil,ñe,ka,je,sil1,sa,gu,sil2,['-'],,,none,none,,,,ji,4,,,,,,,,,,,,,,,4.0,2.0,Catalán,0.0,Castellano,0.0,Inglés,5.0,Francés,13.0,4.0,1.0,yes,no,yes,Flauta,12,Ukelele ,12,,,Nada,66.0,yes
99,2024-01-17_13h42.16.863,Unsyncopated_study2,s93,24.0,feminino,right,España,Catalán y castellano,Bachelor degree,no,no,A,1,what,L3,unsyncopated,s2,r2,99,Online_whatL3//d.ji.li23.0.444.wav,ji,ko,li,sil,ñe,di,fu,sil2,sa,je,sil1,['catch'],[0.2945999999997184],[0.2945999999997184],0.0,beat,0.2945999999997184,0.2945999999997184,"[""space""]",ji,4,,,,,,,,,,,,,,,4.0,2.0,Catalán,0.0,Castellano,0.0,Inglés,5.0,Francés,13.0,4.0,1.0,yes,no,yes,Flauta,12,Ukelele ,12,,,Nada,66.0,yes
100,2024-01-17_13h42.16.863,Unsyncopated_study2,s93,24.0,feminino,right,España,Catalán y castellano,Bachelor degree,no,no,A,1,what,L3,unsyncopated,s1,r2,100,Online_whatL3//b.ñe.sa14.0.888.wav,ñe,le,je,sil,sa,li,fu,sil2,ko,ji,sil1,['miss'],,,0.0,beat,,,,ñe,1,,,,,,,,,,,,,,,4.0,2.0,Catalán,0.0,Castellano,0.0,Inglés,5.0,Francés,13.0,4.0,1.0,yes,no,yes,Flauta,12,Ukelele ,12,,,Nada,66.0,yes
101,2024-01-17_13h42.16.863,Unsyncopated_study2,s93,24.0,feminino,right,España,Catalán y castellano,Bachelor degree,no,no,A,1,what,L3,unsyncopated,s1,r1,101,Online_whatL3//b.ñe.sa12.none.none.wav,chu,ji,di,sil2,mo,ka,li,sil,do,ko,sil1,['-'],,,none,none,,,,ñe,1,,,,,,,,,,,,,,,4.0,2.0,Catalán,0.0,Castellano,0.0,Inglés,5.0,Francés,13.0,4.0,1.0,yes,no,yes,Flauta,12,Ukelele ,12,,,Nada,66.0,yes
102,2024-01-17_13h42.16.863,Unsyncopated_study2,s93,24.0,feminino,right,España,Catalán y castellano,Bachelor degree,no,no,A,1,what,L3,unsyncopated,s1,r2,102,Online_whatL3//b.ñe.sa15.0.888.wav,ñe,li,ka,sil,sa,le,fu,sil2,je,do,sil1,['miss'],,,0.0,beat,,,,ñe,1,,,,,,,,,,,,,,,4.0,2.0,Catalán,0.0,Castellano,0.0,Inglés,5.0,Francés,13.0,4.0,1.0,yes,no,yes,Flauta,12,Ukelele ,12,,,Nada,66.0,yes
103,2024-01-17_13h42.16.863,Unsyncopated_study2,s93,24.0,feminino,right,España,Catalán y castellano,Bachelor degree,no,no,A,1,what,L3,unsyncopated,s2,r2,103,Online_whatL3//b.ñe.sa13.888.1776.wav,di,ga,ji,sil,ñe,li,ko,sil1,sa,le,sil2,['catch'],[1.4096999999992477],[1.4096999999992477],0.888,beat,0.5216999999992477,0.5216999999992477,"[""space""]",ñe,1,,,,,,,,,,,,,,,4.0,2.0,Catalán,0.0,Castellano,0.0,Inglés,5.0,Francés,13.0,4.0,1.0,yes,no,yes,Flauta,12,Ukelele ,12,,,Nada,66.0,yes
104,2024-01-17_13h42.16.863,Unsyncopated_study2,s93,24.0,feminino,right,España,Catalán y castellano,Bachelor degree,no,no,A,1,what,L3,unsyncopated,s2,r1,104,Online_whatL3//a.chu.mo20.888.1776.wav,ko,fu,ka,sil,chu,le,do,sil1,mo,je,sil2,['catch'],[2.110900000000356],[2.110900000000356],1.776,beat,0.3349000000003561,0.3349000000003561,"[""space""]",mo,2,,,,,,,,,,,,,,,4.0,2.0,Catalán,0.0,Castellano,0.0,Inglés,5.0,Francés,13.0,4.0,1.0,yes,no,yes,Flauta,12,Ukelele ,12,,,Nada,66.0,yes
105,2024-01-17_13h42.16.863,Unsyncopated_study2,s93,24.0,feminino,right,España,Catalán y castellano,Bachelor degree,no,no,A,1,what,L3,unsyncopated,s1,r2,105,Online_whatL3//a.chu.mo21.none.none.wav,ñe,ko,do,sil,sa,li,ji,sil1,gu,ka,sil2,['-'],,,none,none,,,,mo,2,,,,,,,,,,,,,,,4.0,2.0,Catalán,0.0,Castellano,0.0,Inglés,5.0,Francés,13.0,4.0,1.0,yes,no,yes,Flauta,12,Ukelele ,12,,,Nada,66.0,yes
106,2024-01-17_13h42.16.863,Unsyncopated_study2,s93,24.0,feminino,right,España,Catalán y castellano,Bachelor degree,no,no,A,1,what,L3,unsyncopated,s1,r2,106,Online_whatL3//a.chu.mo22.none.none.wav,ñe,gu,fu,sil,sa,di,li,sil1,do,ji,sil2,['-'],,,none,none,,,,mo,2,,,,,,,,,,,,,,,4.0,2.0,Catalán,0.0,Castellano,0.0,Inglés,5.0,Francés,13.0,4.0,1.0,yes,no,yes,Flauta,12,Ukelele ,12,,,Nada,66.0,yes
107,2024-01-17_13h42.16.863,Unsyncopated_study2,s93,24.0,feminino,right,España,Catalán y castellano,Bachelor degree,no,no,A,1,what,L3,unsyncopated,s2,r1,107,Online_whatL3//a.chu.mo23.888.1998.wav,fu,ko,li,sil,chu,ga,je,sil2,mo,ji,sil1,['catch'],[2.390299999998888],[2.390299999998888],1.998,no_beat,0.3922999999988878,0.3922999999988878,"[""space""]",mo,2,,,,,,,,,,,,,,,4.0,2.0,Catalán,0.0,Castellano,0.0,Inglés,5.0,Francés,13.0,4.0,1.0,yes,no,yes,Flauta,12,Ukelele ,12,,,Nada,66.0,yes
108,2024-01-17_13h42.16.863,Unsyncopated_study2,s93,24.0,feminino,right,España,Catalán y castellano,Bachelor degree,no,no,A,1,what,L3,unsyncopated,s1,r2,108,Online_whatL3//a.chu.mo9.none.none.wav,ñe,ga,gu,sil2,sa,je,ko,sil,le,ka,sil1,['-'],,,none,none,,,,mo,2,,,,,,,,,,,,,,,4.0,2.0,Catalán,0.0,Castellano,0.0,Inglés,5.0,Francés,13.0,4.0,1.0,yes,no,yes,Flauta,12,Ukelele ,12,,,Nada,66.0,yes
109,2024-01-17_13h42.16.863,Unsyncopated_study2,s93,24.0,feminino,right,España,Catalán y castellano,Bachelor degree,no,no,A,1,what,L3,unsyncopated,s2,r2,109,Online_whatL3//a.chu.mo11.none.none.wav,ka,gu,ko,sil,ñe,do,ga,sil1,sa,je,sil2,['-'],,,none,none,,,,mo,2,,,,,,,,,,,,,,,4.0,2.0,Catalán,0.0,Castellano,0.0,Inglés,5.0,Francés,13.0,4.0,1.0,yes,no,yes,Flauta,12,Ukelele ,12,,,Nada,66.0,yes
110,2024-01-17_13h42.16.863,Unsyncopated_study2,s93,24.0,feminino,right,España,Catalán y castellano,Bachelor degree,no,no,A,1,what,L3,unsyncopated,s2,r2,110,Online_whatL3//a.chu.mo8.none.none.wav,je,ji,li,sil2,ñe,ga,do,sil,sa,ko,sil1,['-'],,,none,none,,,,mo,2,,,,,,,,,,,,,,,4.0,2.0,Catalán,0.0,Castellano,0.0,Inglés,5.0,Francés,13.0,4.0,1.0,yes,no,yes,Flauta,12,Ukelele ,12,,,Nada,66.0,yes
111,2024-01-17_13h42.16.863,Unsyncopated_study2,s93,24.0,feminino,right,España,Catalán y castellano,Bachelor degree,no,no,A,1,what,L3,unsyncopated,s1,r1,111,Online_whatL3//a.chu.mo10.0.888.wav,chu,je,di,sil,mo,ka,ji,sil2,ko,le,sil1,['catch'],[1.2868000000006532],[1.2868000000006532],0.888,beat,0.3988000000006532,0.3988000000006532,"[""space""]",mo,2,,,,,,,,,,,,,,,4.0,2.0,Catalán,0.0,Castellano,0.0,Inglés,5.0,Francés,13.0,4.0,1.0,yes,no,yes,Flauta,12,Ukelele ,12,,,Nada,66.0,yes
112,2024-01-17_13h42.16.863,Unsyncopated_study2,s93,24.0,feminino,right,España,Catalán y castellano,Bachelor degree,no,no,A,1,what,L3,unsyncopated,s1,r2,112,Online_whatL3//c.gu.je25.none.none.wav,ñe,ko,ka,sil,sa,do,li,sil2,di,ji,sil1,['-'],,,none,none,,,,gu,3,,,,,,,,,,,,,,,4.0,2.0,Catalán,0.0,Castellano,0.0,Inglés,5.0,Francés,13.0,4.0,1.0,yes,no,yes,Flauta,12,Ukelele ,12,,,Nada,66.0,yes
113,2024-01-17_13h42.16.863,Unsyncopated_study2,s93,24.0,feminino,right,España,Catalán y castellano,Bachelor degree,no,no,A,1,what,L3,unsyncopated,s1,r2,113,Online_whatL3//c.gu.je27.1776.222.wav,ñe,je,li,sil,sa,ji,ga,sil1,gu,fu,sil2,['catch'],[2.1747999999989815],[2.1747999999989815],1.776,beat,0.3987999999989815,0.3987999999989815,"[""space""]",gu,3,,,,,,,,,,,,,,,4.0,2.0,Catalán,0.0,Castellano,0.0,Inglés,5.0,Francés,13.0,4.0,1.0,yes,no,yes,Flauta,12,Ukelele ,12,,,Nada,66.0,yes
114,2024-01-17_13h42.16.863,Unsyncopated_study2,s93,24.0,feminino,right,España,Catalán y castellano,Bachelor degree,no,no,A,1,what,L3,unsyncopated,s1,r1,114,Online_whatL3//c.gu.je26.none.none.wav,chu,di,le,sil,mo,li,ko,sil2,ka,fu,sil1,['-'],,,none,none,,,,gu,3,,,,,,,,,,,,,,,4.0,2.0,Catalán,0.0,Castellano,0.0,Inglés,5.0,Francés,13.0,4.0,1.0,yes,no,yes,Flauta,12,Ukelele ,12,,,Nada,66.0,yes
115,2024-01-17_13h42.16.863,Unsyncopated_study2,s93,24.0,feminino,right,España,Catalán y castellano,Bachelor degree,no,no,A,1,what,L3,unsyncopated,s2,r2,115,Online_whatL3//c.gu.je24.222.1110.wav,fu,gu,do,sil,ñe,je,di,sil1,sa,ga,sil2,['catch'],[0.6095999999996593],[0.6095999999996593],0.222,no_beat,0.3875999999996593,0.3875999999996593,"[""space""]",gu,3,,,,,,,,,,,,,,,4.0,2.0,Catalán,0.0,Castellano,0.0,Inglés,5.0,Francés,13.0,4.0,1.0,yes,no,yes,Flauta,12,Ukelele ,12,,,Nada,66.0,yes
116,2024-01-17_13h42.16.863,Unsyncopated_study2,s93,24.0,feminino,right,España,Catalán y castellano,Bachelor degree,no,no,A,1,what,L3,unsyncopated,s1,r1,116,Online_whatL3//c.gu.je11.444.1332.wav,chu,li,gu,sil2,mo,je,ka,sil,ko,do,sil1,['catch'],[0.863200000001143],[0.863200000001143],0.444,no_beat,0.419200000001143,0.419200000001143,"[""space""]",gu,3,,,,,,,,,,,,,,,4.0,2.0,Catalán,0.0,Castellano,0.0,Inglés,5.0,Francés,13.0,4.0,1.0,yes,no,yes,Flauta,12,Ukelele ,12,,,Nada,66.0,yes
117,2024-01-17_13h42.16.863,Unsyncopated_study2,s93,24.0,feminino,right,España,Catalán y castellano,Bachelor degree,no,no,A,1,what,L3,unsyncopated,s2,r2,117,Online_whatL3//c.gu.je8.none.none.wav,ko,ka,di,sil2,ñe,ji,li,sil,sa,ga,sil1,['-'],,,none,none,,,,gu,3,,,,,,,,,,,,,,,4.0,2.0,Catalán,0.0,Castellano,0.0,Inglés,5.0,Francés,13.0,4.0,1.0,yes,no,yes,Flauta,12,Ukelele ,12,,,Nada,66.0,yes
118,2024-01-17_13h42.16.863,Unsyncopated_study2,s93,24.0,feminino,right,España,Catalán y castellano,Bachelor degree,no,no,A,1,what,L3,unsyncopated,s2,r1,118,Online_whatL3//c.gu.je9.none.none.wav,ga,fu,ko,sil,chu,ji,ka,sil1,mo,di,sil2,['-'],,,none,none,,,,gu,3,,,,,,,,,,,,,,,4.0,2.0,Catalán,0.0,Castellano,0.0,Inglés,5.0,Francés,13.0,4.0,1.0,yes,no,yes,Flauta,12,Ukelele ,12,,,Nada,66.0,yes
119,2024-01-17_13h42.16.863,Unsyncopated_study2,s93,24.0,feminino,right,España,Catalán y castellano,Bachelor degree,no,no,A,1,what,L3,unsyncopated,s1,r2,119,Online_whatL3//c.gu.je10.none.none.wav,ñe,li,le,sil,sa,ko,do,sil2,di,ji,sil1,['-'],,,none,none,,,,gu,3,,,,,,,,,,,,,,,4.0,2.0,Catalán,0.0,Castellano,0.0,Inglés,5.0,Francés,13.0,4.0,1.0,yes,no,yes,Flauta,12,Ukelele ,12,,,Nada,66.0,yes
120,2024-01-17_13h42.16.863,Unsyncopated_study2,s93,24.0,feminino,right,España,Catalán y castellano,Bachelor degree,no,no,A,1,what,L3,unsyncopated,s2,r1,120,Online_whatL3//a.chu.mo2.1110.1998.wav,fu,do,je,sil2,chu,gu,li,sil,mo,ka,sil1,['catch'],[2.4266999999991867],[2.4266999999991867],1.998,no_beat,0.4286999999991867,0.4286999999991867,"[""space""]",mo,2,,,,,,,,,,,,,,,4.0,2.0,Catalán,0.0,Castellano,0.0,Inglés,5.0,Francés,13.0,4.0,1.0,yes,no,yes,Flauta,12,Ukelele ,12,,,Nada,66.0,yes
121,2024-01-17_13h42.16.863,Unsyncopated_study2,s93,24.0,feminino,right,España,Catalán y castellano,Bachelor degree,no,no,A,1,what,L3,unsyncopated,s1,r2,121,Online_whatL3//a.chu.mo1.none.none.wav,ñe,gu,ji,sil,sa,di,ga,sil2,fu,ka,sil1,['-'],,,none,none,,,,mo,2,,,,,,,,,,,,,,,4.0,2.0,Catalán,0.0,Castellano,0.0,Inglés,5.0,Francés,13.0,4.0,1.0,yes,no,yes,Flauta,12,Ukelele ,12,,,Nada,66.0,yes
122,2024-01-17_13h42.16.863,Unsyncopated_study2,s93,24.0,feminino,right,España,Catalán y castellano,Bachelor degree,no,no,A,1,what,L3,unsyncopated,s2,r1,122,Online_whatL3//a.chu.mo0.1110.1998.wav,fu,di,li,sil2,chu,ga,ko,sil,mo,le,sil1,['catch'],[2.607900000000427],[2.607900000000427],1.998,no_beat,0.6099000000004271,0.6099000000004271,"[""space""]",mo,2,,,,,,,,,,,,,,,4.0,2.0,Catalán,0.0,Castellano,0.0,Inglés,5.0,Francés,13.0,4.0,1.0,yes,no,yes,Flauta,12,Ukelele ,12,,,Nada,66.0,yes
123,2024-01-17_13h42.16.863,Unsyncopated_study2,s93,24.0,feminino,right,España,Catalán y castellano,Bachelor degree,no,no,A,1,what,L3,unsyncopated,s1,r2,123,Online_whatL3//a.chu.mo3.none.none.wav,ñe,gu,li,sil,sa,je,do,sil1,ji,ka,sil2,['-'],,,none,none,,,,mo,2,,,,,,,,,,,,,,,4.0,2.0,Catalán,0.0,Castellano,0.0,Inglés,5.0,Francés,13.0,4.0,1.0,yes,no,yes,Flauta,12,Ukelele ,12,,,Nada,66.0,yes
124,2024-01-17_13h42.16.863,Unsyncopated_study2,s93,24.0,feminino,right,España,Catalán y castellano,Bachelor degree,no,no,A,1,what,L3,unsyncopated,s1,r1,124,Online_whatL3//d.ji.li1.444.1110.wav,chu,je,ji,sil,mo,li,ko,sil1,le,do,sil2,['catch'],[1.0687000000010585],[1.0687000000010585],0.444,no_beat,0.6247000000010585,0.6247000000010585,"[""space""]",ji,4,,,,,,,,,,,,,,,4.0,2.0,Catalán,0.0,Castellano,0.0,Inglés,5.0,Francés,13.0,4.0,1.0,yes,no,yes,Flauta,12,Ukelele ,12,,,Nada,66.0,yes
125,2024-01-17_13h42.16.863,Unsyncopated_study2,s93,24.0,feminino,right,España,Catalán y castellano,Bachelor degree,no,no,A,1,what,L3,unsyncopated,s1,r2,125,Online_whatL3//d.ji.li3.none.none.wav,ñe,di,le,sil,sa,je,gu,sil2,do,ga,sil1,['-'],,,none,none,,,,ji,4,,,,,,,,,,,,,,,4.0,2.0,Catalán,0.0,Castellano,0.0,Inglés,5.0,Francés,13.0,4.0,1.0,yes,no,yes,Flauta,12,Ukelele ,12,,,Nada,66.0,yes
126,2024-01-17_13h42.16.863,Unsyncopated_study2,s93,24.0,feminino,right,España,Catalán y castellano,Bachelor degree,no,no,A,1,what,L3,unsyncopated,s1,r2,126,Online_whatL3//d.ji.li0.1776.1110.wav,ñe,do,fu,sil,sa,li,gu,sil1,ji,ka,sil2,['catch_delay'],[1.1587000000010568],[1.1587000000010568],1.776,beat,1.1587000000010568,1.1587000000010568,,ji,4,,,,,,,,,,,,,,,4.0,2.0,Catalán,0.0,Castellano,0.0,Inglés,5.0,Francés,13.0,4.0,1.0,yes,no,yes,Flauta,12,Ukelele ,12,,,Nada,66.0,yes
127,2024-01-17_13h42.16.863,Unsyncopated_study2,s93,24.0,feminino,right,España,Catalán y castellano,Bachelor degree,no,no,A,1,what,L3,unsyncopated,s2,r2,127,Online_whatL3//d.ji.li2.none.none.wav,ga,do,ka,sil2,ñe,fu,di,sil,sa,le,sil1,['-'],[0.27070000000105665],[0.27070000000105665],none,none,,,"[""space""]",ji,4,,,,,,,,,,,,,,,4.0,2.0,Catalán,0.0,Castellano,0.0,Inglés,5.0,Francés,13.0,4.0,1.0,yes,no,yes,Flauta,12,Ukelele ,12,,,Nada,66.0,yes
128,2024-01-17_13h42.16.863,Unsyncopated_study2,s93,24.0,feminino,right,España,Catalán y castellano,Bachelor degree,no,no,A,2,when,L4,unsyncopated,when,when,0,Online_whenL4//c.bu24.1998.wav,lo,po,ci,sil,nu,re,ñi,sil1,pe,bu,sil2,['catch'],[2.563400000000456],[2.563400000000456],1.998,no_beat,0.5654000000004562,0.5654000000004562,"[""space""]",bu,3,,,,,,,,,,,,,,,4.0,2.0,Catalán,0.0,Castellano,0.0,Inglés,5.0,Francés,13.0,4.0,1.0,yes,no,yes,Flauta,12,Ukelele ,12,,,Nada,66.0,yes
129,2024-01-17_13h42.16.863,Unsyncopated_study2,s93,24.0,feminino,right,España,Catalán y castellano,Bachelor degree,no,no,A,2,when,L4,unsyncopated,when,when,1,Online_whenL4//c.bu25.222.wav,ña,bu,de,sil,da,po,lo,sil1,ja,pe,sil2,['miss'],,,0.222,no_beat,,,,bu,3,,,,,,,,,,,,,,,4.0,2.0,Catalán,0.0,Castellano,0.0,Inglés,5.0,Francés,13.0,4.0,1.0,yes,no,yes,Flauta,12,Ukelele ,12,,,Nada,66.0,yes
130,2024-01-17_13h42.16.863,Unsyncopated_study2,s93,24.0,feminino,right,España,Catalán y castellano,Bachelor degree,no,no,A,2,when,L4,unsyncopated,when,when,2,Online_whenL4//c.bu27.0.wav,bu,de,zi,sil,ja,da,ru,sil1,bo,po,sil2,['catch'],[0.4275999999997566],[0.4275999999997566],0.0,beat,0.4275999999997566,0.4275999999997566,"[""space""]",bu,3,,,,,,,,,,,,,,,4.0,2.0,Catalán,0.0,Castellano,0.0,Inglés,5.0,Francés,13.0,4.0,1.0,yes,no,yes,Flauta,12,Ukelele ,12,,,Nada,66.0,yes
131,2024-01-17_13h42.16.863,Unsyncopated_study2,s93,24.0,feminino,right,España,Catalán y castellano,Bachelor degree,no,no,A,2,when,L4,unsyncopated,when,when,3,Online_whenL4//c.bu26.none.wav,po,da,ña,sil,zi,ru,lo,sil1,ci,re,sil2,['-'],,,none,none,,,,bu,3,,,,,,,,,,,,,,,4.0,2.0,Catalán,0.0,Castellano,0.0,Inglés,5.0,Francés,13.0,4.0,1.0,yes,no,yes,Flauta,12,Ukelele ,12,,,Nada,66.0,yes
132,2024-01-17_13h42.16.863,Unsyncopated_study2,s93,24.0,feminino,right,España,Catalán y castellano,Bachelor degree,no,no,A,2,when,L4,unsyncopated,when,when,4,Online_whenL4//c.bu7.none.wav,lo,ci,ja,sil,pe,ñi,da,sil1,re,ru,sil2,['-'],,,none,none,,,,bu,3,,,,,,,,,,,,,,,4.0,2.0,Catalán,0.0,Castellano,0.0,Inglés,5.0,Francés,13.0,4.0,1.0,yes,no,yes,Flauta,12,Ukelele ,12,,,Nada,66.0,yes
133,2024-01-17_13h42.16.863,Unsyncopated_study2,s93,24.0,feminino,right,España,Catalán y castellano,Bachelor degree,no,no,A,2,when,L4,unsyncopated,when,when,5,Online_whenL4//c.bu4.none.wav,ru,ña,ja,sil,ñi,de,ci,sil1,po,zi,sil2,['-'],,,none,none,,,,bu,3,,,,,,,,,,,,,,,4.0,2.0,Catalán,0.0,Castellano,0.0,Inglés,5.0,Francés,13.0,4.0,1.0,yes,no,yes,Flauta,12,Ukelele ,12,,,Nada,66.0,yes
134,2024-01-17_13h42.16.863,Unsyncopated_study2,s93,24.0,feminino,right,España,Catalán y castellano,Bachelor degree,no,no,A,2,when,L4,unsyncopated,when,when,6,Online_whenL4//c.bu6.none.wav,nu,de,ci,sil,ru,zi,ña,sil1,po,ñi,sil2,['-'],,,none,none,,,,bu,3,,,,,,,,,,,,,,,4.0,2.0,Catalán,0.0,Castellano,0.0,Inglés,5.0,Francés,13.0,4.0,1.0,yes,no,yes,Flauta,12,Ukelele ,12,,,Nada,66.0,yes
135,2024-01-17_13h42.16.863,Unsyncopated_study2,s93,24.0,feminino,right,España,Catalán y castellano,Bachelor degree,no,no,A,2,when,L4,unsyncopated,when,when,7,Online_whenL4//c.bu5.444.wav,ci,ñi,bu,sil,po,nu,ña,sil1,pe,zi,sil2,['catch'],[0.8125999999995202],[0.8125999999995202],0.444,no_beat,0.3685999999995201,0.3685999999995201,"[""space""]",bu,3,,,,,,,,,,,,,,,4.0,2.0,Catalán,0.0,Castellano,0.0,Inglés,5.0,Francés,13.0,4.0,1.0,yes,no,yes,Flauta,12,Ukelele ,12,,,Nada,66.0,yes
136,2024-01-17_13h42.16.863,Unsyncopated_study2,s93,24.0,feminino,right,España,Catalán y castellano,Bachelor degree,no,no,A,2,when,L4,unsyncopated,when,when,8,Online_whenL4//a.lo20.none.wav,re,po,ja,sil,de,ña,nu,sil1,pe,ru,sil2,['-'],,,none,none,,,,lo,2,,,,,,,,,,,,,,,4.0,2.0,Catalán,0.0,Castellano,0.0,Inglés,5.0,Francés,13.0,4.0,1.0,yes,no,yes,Flauta,12,Ukelele ,12,,,Nada,66.0,yes
137,2024-01-17_13h42.16.863,Unsyncopated_study2,s93,24.0,feminino,right,España,Catalán y castellano,Bachelor degree,no,no,A,2,when,L4,unsyncopated,when,when,9,Online_whenL4//a.lo23.1332.wav,nu,ña,ci,sil,re,ñi,lo,sil1,pe,bu,sil2,['catch'],[2.0475999999996475],[2.0475999999996475],1.332,no_beat,0.7155999999996474,0.7155999999996474,"[""space""]",lo,2,,,,,,,,,,,,,,,4.0,2.0,Catalán,0.0,Castellano,0.0,Inglés,5.0,Francés,13.0,4.0,1.0,yes,no,yes,Flauta,12,Ukelele ,12,,,Nada,66.0,yes
138,2024-01-17_13h42.16.863,Unsyncopated_study2,s93,24.0,feminino,right,España,Catalán y castellano,Bachelor degree,no,no,A,2,when,L4,unsyncopated,when,when,10,Online_whenL4//a.lo21.1998.wav,ñi,zi,bu,sil,de,ru,po,sil1,ña,lo,sil2,['catch'],[2.5587999999988824],[2.5587999999988824],1.998,no_beat,0.5607999999988824,0.5607999999988824,"[""space""]",lo,2,,,,,,,,,,,,,,,4.0,2.0,Catalán,0.0,Castellano,0.0,Inglés,5.0,Francés,13.0,4.0,1.0,yes,no,yes,Flauta,12,Ukelele ,12,,,Nada,66.0,yes
139,2024-01-17_13h42.16.863,Unsyncopated_study2,s93,24.0,feminino,right,España,Catalán y castellano,Bachelor degree,no,no,A,2,when,L4,unsyncopated,when,when,11,Online_whenL4//a.lo22.444.wav,pe,ña,lo,sil,re,ñi,bo,sil1,ru,ja,sil2,['miss'],,,0.444,no_beat,,,,lo,2,,,,,,,,,,,,,,,4.0,2.0,Catalán,0.0,Castellano,0.0,Inglés,5.0,Francés,13.0,4.0,1.0,yes,no,yes,Flauta,12,Ukelele ,12,,,Nada,66.0,yes
140,2024-01-17_13h42.16.863,Unsyncopated_study2,s93,24.0,feminino,right,España,Catalán y castellano,Bachelor degree,no,no,A,2,when,L4,unsyncopated,when,when,12,Online_whenL4//b.ja20.0.wav,ja,bu,ñi,sil,bo,de,lo,sil1,ru,da,sil2,['catch'],[0.8497000000011212],[0.8497000000011212],0.0,beat,0.8497000000011212,0.8497000000011212,"[""space""]",ja,1,,,,,,,,,,,,,,,4.0,2.0,Catalán,0.0,Castellano,0.0,Inglés,5.0,Francés,13.0,4.0,1.0,yes,no,yes,Flauta,12,Ukelele ,12,,,Nada,66.0,yes
141,2024-01-17_13h42.16.863,Unsyncopated_study2,s93,24.0,feminino,right,España,Catalán y castellano,Bachelor degree,no,no,A,2,when,L4,unsyncopated,when,when,13,Online_whenL4//b.ja21.none.wav,bu,da,ci,sil,ru,nu,zi,sil1,de,po,sil2,['false alarm'],[0.12349999999992178],[0.12349999999992178],none,none,,,"[""space""]",ja,1,,,,,,,,,,,,,,,4.0,2.0,Catalán,0.0,Castellano,0.0,Inglés,5.0,Francés,13.0,4.0,1.0,yes,no,yes,Flauta,12,Ukelele ,12,,,Nada,66.0,yes
142,2024-01-17_13h42.16.863,Unsyncopated_study2,s93,24.0,feminino,right,España,Catalán y castellano,Bachelor degree,no,no,A,2,when,L4,unsyncopated,when,when,14,Online_whenL4//b.ja23.444.wav,bu,da,ja,sil,ña,de,nu,sil1,ñi,po,sil2,['catch'],[0.7405999999996311],[0.7405999999996311],0.444,no_beat,0.2965999999996311,0.2965999999996311,"[""space""]",ja,1,,,,,,,,,,,,,,,4.0,2.0,Catalán,0.0,Castellano,0.0,Inglés,5.0,Francés,13.0,4.0,1.0,yes,no,yes,Flauta,12,Ukelele ,12,,,Nada,66.0,yes
143,2024-01-17_13h42.16.863,Unsyncopated_study2,s93,24.0,feminino,right,España,Catalán y castellano,Bachelor degree,no,no,A,2,when,L4,unsyncopated,when,when,15,Online_whenL4//b.ja22.1776.wav,da,ci,zi,sil,ña,ru,bo,sil1,ja,bu,sil2,['catch'],[2.211400000000367],[2.211400000000367],1.776,beat,0.435400000000367,0.435400000000367,"[""space""]",ja,1,,,,,,,,,,,,,,,4.0,2.0,Catalán,0.0,Castellano,0.0,Inglés,5.0,Francés,13.0,4.0,1.0,yes,no,yes,Flauta,12,Ukelele ,12,,,Nada,66.0,yes
144,2024-01-17_13h42.16.863,Unsyncopated_study2,s93,24.0,feminino,right,España,Catalán y castellano,Bachelor degree,no,no,A,2,when,L4,unsyncopated,when,when,16,Online_whenL4//b.ja34.1776.wav,re,bo,da,sil,zi,bu,ña,sil1,ja,ci,sil2,['miss'],,,1.776,beat,,,,ja,1,,,,,,,,,,,,,,,4.0,2.0,Catalán,0.0,Castellano,0.0,Inglés,5.0,Francés,13.0,4.0,1.0,yes,no,yes,Flauta,12,Ukelele ,12,,,Nada,66.0,yes
145,2024-01-17_13h42.16.863,Unsyncopated_study2,s93,24.0,feminino,right,España,Catalán y castellano,Bachelor degree,no,no,A,2,when,L4,unsyncopated,when,when,17,Online_whenL4//b.ja32.none.wav,ru,bu,de,sil,ña,lo,nu,sil1,re,ci,sil2,['-'],,,none,none,,,,ja,1,,,,,,,,,,,,,,,4.0,2.0,Catalán,0.0,Castellano,0.0,Inglés,5.0,Francés,13.0,4.0,1.0,yes,no,yes,Flauta,12,Ukelele ,12,,,Nada,66.0,yes
146,2024-01-17_13h42.16.863,Unsyncopated_study2,s93,24.0,feminino,right,España,Catalán y castellano,Bachelor degree,no,no,A,2,when,L4,unsyncopated,when,when,18,Online_whenL4//b.ja33.none.wav,ci,po,nu,sil,ñi,zi,pe,sil1,re,bu,sil2,['-'],,,none,none,,,,ja,1,,,,,,,,,,,,,,,4.0,2.0,Catalán,0.0,Castellano,0.0,Inglés,5.0,Francés,13.0,4.0,1.0,yes,no,yes,Flauta,12,Ukelele ,12,,,Nada,66.0,yes
147,2024-01-17_13h42.16.863,Unsyncopated_study2,s93,24.0,feminino,right,España,Catalán y castellano,Bachelor degree,no,no,A,2,when,L4,unsyncopated,when,when,19,Online_whenL4//b.ja35.1998.wav,ru,re,da,sil,lo,bo,ña,sil1,po,ja,sil2,"['false alarm', 'catch']","[0.7569000000005417, 2.61190000000056]",[2.61190000000056],1.998,no_beat,0.6139000000005599,0.6139000000005599,"[""space"",""space""]",ja,1,,,,,,,,,,,,,,,4.0,2.0,Catalán,0.0,Castellano,0.0,Inglés,5.0,Francés,13.0,4.0,1.0,yes,no,yes,Flauta,12,Ukelele ,12,,,Nada,66.0,yes
148,2024-01-17_13h42.16.863,Unsyncopated_study2,s93,24.0,feminino,right,España,Catalán y castellano,Bachelor degree,no,no,A,2,when,L4,unsyncopated,when,when,20,Online_whenL4//d.pe10.888.wav,da,zi,po,sil,pe,lo,ru,sil1,ci,re,sil2,['catch'],[1.370199999999386],[1.370199999999386],0.888,beat,0.4821999999993859,0.4821999999993859,"[""space""]",pe,4,,,,,,,,,,,,,,,4.0,2.0,Catalán,0.0,Castellano,0.0,Inglés,5.0,Francés,13.0,4.0,1.0,yes,no,yes,Flauta,12,Ukelele ,12,,,Nada,66.0,yes
149,2024-01-17_13h42.16.863,Unsyncopated_study2,s93,24.0,feminino,right,España,Catalán y castellano,Bachelor degree,no,no,A,2,when,L4,unsyncopated,when,when,21,Online_whenL4//d.pe11.none.wav,re,da,zi,sil,bu,lo,ña,sil1,ci,po,sil2,['-'],,,none,none,,,,pe,4,,,,,,,,,,,,,,,4.0,2.0,Catalán,0.0,Castellano,0.0,Inglés,5.0,Francés,13.0,4.0,1.0,yes,no,yes,Flauta,12,Ukelele ,12,,,Nada,66.0,yes
150,2024-01-17_13h42.16.863,Unsyncopated_study2,s93,24.0,feminino,right,España,Catalán y castellano,Bachelor degree,no,no,A,2,when,L4,unsyncopated,when,when,22,Online_whenL4//d.pe9.none.wav,de,bu,da,sil,zi,ña,nu,sil1,ci,re,sil2,['-'],,,none,none,,,,pe,4,,,,,,,,,,,,,,,4.0,2.0,Catalán,0.0,Castellano,0.0,Inglés,5.0,Francés,13.0,4.0,1.0,yes,no,yes,Flauta,12,Ukelele ,12,,,Nada,66.0,yes
151,2024-01-17_13h42.16.863,Unsyncopated_study2,s93,24.0,feminino,right,España,Catalán y castellano,Bachelor degree,no,no,A,2,when,L4,unsyncopated,when,when,23,Online_whenL4//d.pe8.1998.wav,bo,ru,ña,sil,nu,ñi,ja,sil1,po,pe,sil2,['catch'],[2.5247000000010758],[2.5247000000010758],1.998,no_beat,0.5267000000010758,0.5267000000010758,"[""space""]",pe,4,,,,,,,,,,,,,,,4.0,2.0,Catalán,0.0,Castellano,0.0,Inglés,5.0,Francés,13.0,4.0,1.0,yes,no,yes,Flauta,12,Ukelele ,12,,,Nada,66.0,yes
152,2024-01-17_13h42.16.863,Unsyncopated_study2,s93,24.0,feminino,right,España,Catalán y castellano,Bachelor degree,no,no,A,2,when,L4,unsyncopated,when,when,24,Online_whenL4//b.ja7.none.wav,de,bo,zi,sil,ru,pe,da,sil1,po,nu,sil2,['-'],,,none,none,,,,ja,1,,,,,,,,,,,,,,,4.0,2.0,Catalán,0.0,Castellano,0.0,Inglés,5.0,Francés,13.0,4.0,1.0,yes,no,yes,Flauta,12,Ukelele ,12,,,Nada,66.0,yes
153,2024-01-17_13h42.16.863,Unsyncopated_study2,s93,24.0,feminino,right,España,Catalán y castellano,Bachelor degree,no,no,A,2,when,L4,unsyncopated,when,when,25,Online_whenL4//b.ja6.1332.wav,pe,ña,de,sil,bo,ci,ja,sil1,lo,po,sil2,['catch'],[1.6884999999999764],[1.6884999999999764],1.332,no_beat,0.3564999999999763,0.3564999999999763,"[""space""]",ja,1,,,,,,,,,,,,,,,4.0,2.0,Catalán,0.0,Castellano,0.0,Inglés,5.0,Francés,13.0,4.0,1.0,yes,no,yes,Flauta,12,Ukelele ,12,,,Nada,66.0,yes
154,2024-01-17_13h42.16.863,Unsyncopated_study2,s93,24.0,feminino,right,España,Catalán y castellano,Bachelor degree,no,no,A,2,when,L4,unsyncopated,when,when,26,Online_whenL4//b.ja5.none.wav,re,pe,ña,sil,bu,po,ci,sil1,lo,nu,sil2,['-'],,,none,none,,,,ja,1,,,,,,,,,,,,,,,4.0,2.0,Catalán,0.0,Castellano,0.0,Inglés,5.0,Francés,13.0,4.0,1.0,yes,no,yes,Flauta,12,Ukelele ,12,,,Nada,66.0,yes
155,2024-01-17_13h42.16.863,Unsyncopated_study2,s93,24.0,feminino,right,España,Catalán y castellano,Bachelor degree,no,no,A,2,when,L4,unsyncopated,when,when,27,Online_whenL4//b.ja4.none.wav,ñi,nu,ru,sil,po,de,da,sil1,re,lo,sil2,['false alarm'],[2.2039000000004307],[2.2039000000004307],none,none,,,"[""space""]",ja,1,,,,,,,,,,,,,,,4.0,2.0,Catalán,0.0,Castellano,0.0,Inglés,5.0,Francés,13.0,4.0,1.0,yes,no,yes,Flauta,12,Ukelele ,12,,,Nada,66.0,yes
156,2024-01-17_13h42.16.863,Unsyncopated_study2,s93,24.0,feminino,right,España,Catalán y castellano,Bachelor degree,no,no,A,2,when,L4,unsyncopated,when,when,28,Online_whenL4//d.pe30.none.wav,ru,lo,po,sil,nu,de,da,sil1,ña,ñi,sil2,['-'],,,none,none,,,,pe,4,,,,,,,,,,,,,,,4.0,2.0,Catalán,0.0,Castellano,0.0,Inglés,5.0,Francés,13.0,4.0,1.0,yes,no,yes,Flauta,12,Ukelele ,12,,,Nada,66.0,yes
157,2024-01-17_13h42.16.863,Unsyncopated_study2,s93,24.0,feminino,right,España,Catalán y castellano,Bachelor degree,no,no,A,2,when,L4,unsyncopated,when,when,29,Online_whenL4//d.pe31.1332.wav,bu,re,ru,sil,ja,de,pe,sil1,ci,zi,sil2,['miss'],,,1.332,no_beat,,,,pe,4,,,,,,,,,,,,,,,4.0,2.0,Catalán,0.0,Castellano,0.0,Inglés,5.0,Francés,13.0,4.0,1.0,yes,no,yes,Flauta,12,Ukelele ,12,,,Nada,66.0,yes
158,2024-01-17_13h42.16.863,Unsyncopated_study2,s93,24.0,feminino,right,España,Catalán y castellano,Bachelor degree,no,no,A,2,when,L4,unsyncopated,when,when,30,Online_whenL4//d.pe29.none.wav,da,po,ja,sil,bu,bo,lo,sil1,ña,de,sil2,['-'],,,none,none,,,,pe,4,,,,,,,,,,,,,,,4.0,2.0,Catalán,0.0,Castellano,0.0,Inglés,5.0,Francés,13.0,4.0,1.0,yes,no,yes,Flauta,12,Ukelele ,12,,,Nada,66.0,yes
159,2024-01-17_13h42.16.863,Unsyncopated_study2,s93,24.0,feminino,right,España,Catalán y castellano,Bachelor degree,no,no,A,2,when,L4,unsyncopated,when,when,31,Online_whenL4//d.pe28.none.wav,bo,nu,lo,sil,ru,re,bu,sil1,po,da,sil2,['-'],,,none,none,,,,pe,4,,,,,,,,,,,,,,,4.0,2.0,Catalán,0.0,Castellano,0.0,Inglés,5.0,Francés,13.0,4.0,1.0,yes,no,yes,Flauta,12,Ukelele ,12,,,Nada,66.0,yes
160,2024-01-17_13h42.16.863,Unsyncopated_study2,s93,24.0,feminino,right,España,Catalán y castellano,Bachelor degree,no,no,A,2,when,L4,unsyncopated,when,when,32,Online_whenL4//c.bu23.none.wav,ña,nu,pe,sil,ru,ja,bo,sil1,re,ñi,sil2,['false alarm'],[1.9226999999991676],[1.9226999999991676],none,none,,,"[""space""]",bu,3,,,,,,,,,,,,,,,4.0,2.0,Catalán,0.0,Castellano,0.0,Inglés,5.0,Francés,13.0,4.0,1.0,yes,no,yes,Flauta,12,Ukelele ,12,,,Nada,66.0,yes
161,2024-01-17_13h42.16.863,Unsyncopated_study2,s93,24.0,feminino,right,España,Catalán y castellano,Bachelor degree,no,no,A,2,when,L4,unsyncopated,when,when,33,Online_whenL4//c.bu20.1332.wav,lo,re,ru,sil,ña,de,bu,sil1,zi,ci,sil2,['catch'],[1.9599000000002889],[1.9599000000002889],1.332,no_beat,0.6279000000002888,0.6279000000002888,"[""space""]",bu,3,,,,,,,,,,,,,,,4.0,2.0,Catalán,0.0,Castellano,0.0,Inglés,5.0,Francés,13.0,4.0,1.0,yes,no,yes,Flauta,12,Ukelele ,12,,,Nada,66.0,yes
162,2024-01-17_13h42.16.863,Unsyncopated_study2,s93,24.0,feminino,right,España,Catalán y castellano,Bachelor degree,no,no,A,2,when,L4,unsyncopated,when,when,34,Online_whenL4//c.bu21.1332.wav,zi,pe,ci,sil,ña,nu,bu,sil1,bo,ru,sil2,['catch'],[1.7924000000002707],[1.7924000000002707],1.332,no_beat,0.4604000000002706,0.4604000000002706,"[""space""]",bu,3,,,,,,,,,,,,,,,4.0,2.0,Catalán,0.0,Castellano,0.0,Inglés,5.0,Francés,13.0,4.0,1.0,yes,no,yes,Flauta,12,Ukelele ,12,,,Nada,66.0,yes
163,2024-01-17_13h42.16.863,Unsyncopated_study2,s93,24.0,feminino,right,España,Catalán y castellano,Bachelor degree,no,no,A,2,when,L4,unsyncopated,when,when,35,Online_whenL4//c.bu22.none.wav,nu,ci,ña,sil,re,ñi,ru,sil1,zi,pe,sil2,['-'],,,none,none,,,,bu,3,,,,,,,,,,,,,,,4.0,2.0,Catalán,0.0,Castellano,0.0,Inglés,5.0,Francés,13.0,4.0,1.0,yes,no,yes,Flauta,12,Ukelele ,12,,,Nada,66.0,yes
164,2024-01-17_13h42.16.863,Unsyncopated_study2,s93,24.0,feminino,right,España,Catalán y castellano,Bachelor degree,no,no,A,2,when,L4,unsyncopated,when,when,36,Online_whenL4//a.lo29.none.wav,pe,ña,ru,sil,de,zi,ñi,sil1,nu,re,sil2,['-'],,,none,none,,,,lo,2,,,,,,,,,,,,,,,4.0,2.0,Catalán,0.0,Castellano,0.0,Inglés,5.0,Francés,13.0,4.0,1.0,yes,no,yes,Flauta,12,Ukelele ,12,,,Nada,66.0,yes
165,2024-01-17_13h42.16.863,Unsyncopated_study2,s93,24.0,feminino,right,España,Catalán y castellano,Bachelor degree,no,no,A,2,when,L4,unsyncopated,when,when,37,Online_whenL4//a.lo30.none.wav,de,re,ru,sil,pe,ñi,zi,sil1,bo,nu,sil2,['-'],,,none,none,,,,lo,2,,,,,,,,,,,,,,,4.0,2.0,Catalán,0.0,Castellano,0.0,Inglés,5.0,Francés,13.0,4.0,1.0,yes,no,yes,Flauta,12,Ukelele ,12,,,Nada,66.0,yes
166,2024-01-17_13h42.16.863,Unsyncopated_study2,s93,24.0,feminino,right,España,Catalán y castellano,Bachelor degree,no,no,A,2,when,L4,unsyncopated,when,when,38,Online_whenL4//a.lo28.1110.wav,ña,nu,da,sil,ci,lo,po,sil1,re,pe,sil2,['miss'],,,1.11,no_beat,,,,lo,2,,,,,,,,,,,,,,,4.0,2.0,Catalán,0.0,Castellano,0.0,Inglés,5.0,Francés,13.0,4.0,1.0,yes,no,yes,Flauta,12,Ukelele ,12,,,Nada,66.0,yes
167,2024-01-17_13h42.16.863,Unsyncopated_study2,s93,24.0,feminino,right,España,Catalán y castellano,Bachelor degree,no,no,A,2,when,L4,unsyncopated,when,when,39,Online_whenL4//a.lo31.none.wav,re,de,zi,sil,ru,pe,da,sil1,ci,nu,sil2,['-'],,,none,none,,,,lo,2,,,,,,,,,,,,,,,4.0,2.0,Catalán,0.0,Castellano,0.0,Inglés,5.0,Francés,13.0,4.0,1.0,yes,no,yes,Flauta,12,Ukelele ,12,,,Nada,66.0,yes
168,2024-01-17_13h42.16.863,Unsyncopated_study2,s93,24.0,feminino,right,España,Catalán y castellano,Bachelor degree,no,no,A,2,when,L4,unsyncopated,when,when,40,Online_whenL4//c.bu13.none.wav,bo,po,pe,sil,ja,ña,da,sil1,lo,de,sil2,['false alarm'],[0.581599999999753],[0.581599999999753],none,none,,,"[""space""]",bu,3,,,,,,,,,,,,,,,4.0,2.0,Catalán,0.0,Castellano,0.0,Inglés,5.0,Francés,13.0,4.0,1.0,yes,no,yes,Flauta,12,Ukelele ,12,,,Nada,66.0,yes
169,2024-01-17_13h42.16.863,Unsyncopated_study2,s93,24.0,feminino,right,España,Catalán y castellano,Bachelor degree,no,no,A,2,when,L4,unsyncopated,when,when,41,Online_whenL4//c.bu15.1776.wav,zi,re,po,sil,pe,ña,lo,sil1,bu,bo,sil2,['catch'],[2.1634999999998854],[2.1634999999998854],1.776,beat,0.3874999999998854,0.3874999999998854,"[""space""]",bu,3,,,,,,,,,,,,,,,4.0,2.0,Catalán,0.0,Castellano,0.0,Inglés,5.0,Francés,13.0,4.0,1.0,yes,no,yes,Flauta,12,Ukelele ,12,,,Nada,66.0,yes
170,2024-01-17_13h42.16.863,Unsyncopated_study2,s93,24.0,feminino,right,España,Catalán y castellano,Bachelor degree,no,no,A,2,when,L4,unsyncopated,when,when,42,Online_whenL4//c.bu12.444.wav,ña,nu,bu,sil,bo,ñi,da,sil1,ru,lo,sil2,['catch'],[1.0562000000011267],[1.0562000000011267],0.444,no_beat,0.6122000000011267,0.6122000000011267,"[""space""]",bu,3,,,,,,,,,,,,,,,4.0,2.0,Catalán,0.0,Castellano,0.0,Inglés,5.0,Francés,13.0,4.0,1.0,yes,no,yes,Flauta,12,Ukelele ,12,,,Nada,66.0,yes
171,2024-01-17_13h42.16.863,Unsyncopated_study2,s93,24.0,feminino,right,España,Catalán y castellano,Bachelor degree,no,no,A,2,when,L4,unsyncopated,when,when,43,Online_whenL4//c.bu14.none.wav,zi,ñi,ja,sil,re,da,de,sil1,ru,bo,sil2,['false alarm'],[0.2953000000006796],[0.2953000000006796],none,none,,,"[""space""]",bu,3,,,,,,,,,,,,,,,4.0,2.0,Catalán,0.0,Castellano,0.0,Inglés,5.0,Francés,13.0,4.0,1.0,yes,no,yes,Flauta,12,Ukelele ,12,,,Nada,66.0,yes
172,2024-01-17_13h42.16.863,Unsyncopated_study2,s93,24.0,feminino,right,España,Catalán y castellano,Bachelor degree,no,no,A,2,when,L4,unsyncopated,when,when,44,Online_whenL4//d.pe14.none.wav,po,ña,bu,sil,de,ru,nu,sil1,ci,zi,sil2,['false alarm'],[0.3460999999995238],[0.3460999999995238],none,none,,,"[""space""]",pe,4,,,,,,,,,,,,,,,4.0,2.0,Catalán,0.0,Castellano,0.0,Inglés,5.0,Francés,13.0,4.0,1.0,yes,no,yes,Flauta,12,Ukelele ,12,,,Nada,66.0,yes
173,2024-01-17_13h42.16.863,Unsyncopated_study2,s93,24.0,feminino,right,España,Catalán y castellano,Bachelor degree,no,no,A,2,when,L4,unsyncopated,when,when,45,Online_whenL4//d.pe12.none.wav,ru,zi,ñi,sil,bu,de,ña,sil1,lo,re,sil2,['-'],,,none,none,,,,pe,4,,,,,,,,,,,,,,,4.0,2.0,Catalán,0.0,Castellano,0.0,Inglés,5.0,Francés,13.0,4.0,1.0,yes,no,yes,Flauta,12,Ukelele ,12,,,Nada,66.0,yes
174,2024-01-17_13h42.16.863,Unsyncopated_study2,s93,24.0,feminino,right,España,Catalán y castellano,Bachelor degree,no,no,A,2,when,L4,unsyncopated,when,when,46,Online_whenL4//d.pe15.888.wav,po,lo,de,sil,pe,ja,bo,sil1,ña,bu,sil2,['catch'],[2.2133000000007996],[2.2133000000007996],0.888,beat,,1.3253000000007995,"[""space""]",pe,4,,,,,,,,,,,,,,,4.0,2.0,Catalán,0.0,Castellano,0.0,Inglés,5.0,Francés,13.0,4.0,1.0,yes,no,yes,Flauta,12,Ukelele ,12,,,Nada,66.0,yes
175,2024-01-17_13h42.16.863,Unsyncopated_study2,s93,24.0,feminino,right,España,Catalán y castellano,Bachelor degree,no,no,A,2,when,L4,unsyncopated,when,when,47,Online_whenL4//d.pe13.none.wav,da,ja,nu,sil,ru,ci,ñi,sil1,bu,po,sil2,['-'],,,none,none,,,,pe,4,,,,,,,,,,,,,,,4.0,2.0,Catalán,0.0,Castellano,0.0,Inglés,5.0,Francés,13.0,4.0,1.0,yes,no,yes,Flauta,12,Ukelele ,12,,,Nada,66.0,yes
176,2024-01-17_13h42.16.863,Unsyncopated_study2,s93,24.0,feminino,right,España,Catalán y castellano,Bachelor degree,no,no,A,2,when,L4,unsyncopated,when,when,48,Online_whenL4//b.ja0.222.wav,re,ja,da,sil,ci,ru,bo,sil1,bu,lo,sil2,['catch'],[0.8227000000010776],[0.8227000000010776],0.222,no_beat,0.6007000000010776,0.6007000000010776,"[""space""]",ja,1,,,,,,,,,,,,,,,4.0,2.0,Catalán,0.0,Castellano,0.0,Inglés,5.0,Francés,13.0,4.0,1.0,yes,no,yes,Flauta,12,Ukelele ,12,,,Nada,66.0,yes
177,2024-01-17_13h42.16.863,Unsyncopated_study2,s93,24.0,feminino,right,España,Catalán y castellano,Bachelor degree,no,no,A,2,when,L4,unsyncopated,when,when,49,Online_whenL4//b.ja1.none.wav,lo,re,po,sil,bu,de,ña,sil1,da,nu,sil2,['-'],,,none,none,,,,ja,1,,,,,,,,,,,,,,,4.0,2.0,Catalán,0.0,Castellano,0.0,Inglés,5.0,Francés,13.0,4.0,1.0,yes,no,yes,Flauta,12,Ukelele ,12,,,Nada,66.0,yes
178,2024-01-17_13h42.16.863,Unsyncopated_study2,s93,24.0,feminino,right,España,Catalán y castellano,Bachelor degree,no,no,A,2,when,L4,unsyncopated,when,when,50,Online_whenL4//b.ja2.none.wav,ci,ru,zi,sil,da,de,pe,sil1,re,lo,sil2,['-'],,,none,none,,,,ja,1,,,,,,,,,,,,,,,4.0,2.0,Catalán,0.0,Castellano,0.0,Inglés,5.0,Francés,13.0,4.0,1.0,yes,no,yes,Flauta,12,Ukelele ,12,,,Nada,66.0,yes
179,2024-01-17_13h42.16.863,Unsyncopated_study2,s93,24.0,feminino,right,España,Catalán y castellano,Bachelor degree,no,no,A,2,when,L4,unsyncopated,when,when,51,Online_whenL4//b.ja3.none.wav,nu,da,po,sil,ru,zi,bu,sil1,re,ña,sil2,['-'],,,none,none,,,,ja,1,,,,,,,,,,,,,,,4.0,2.0,Catalán,0.0,Castellano,0.0,Inglés,5.0,Francés,13.0,4.0,1.0,yes,no,yes,Flauta,12,Ukelele ,12,,,Nada,66.0,yes
180,2024-01-17_13h42.16.863,Unsyncopated_study2,s93,24.0,feminino,right,España,Catalán y castellano,Bachelor degree,no,no,A,2,when,L4,unsyncopated,when,when,52,Online_whenL4//a.lo24.1776.wav,de,ja,ci,sil,re,ña,po,sil1,lo,bu,sil2,['catch'],[2.551800000000867],[2.551800000000867],1.776,beat,0.7758000000008669,0.7758000000008669,"[""space""]",lo,2,,,,,,,,,,,,,,,4.0,2.0,Catalán,0.0,Castellano,0.0,Inglés,5.0,Francés,13.0,4.0,1.0,yes,no,yes,Flauta,12,Ukelele ,12,,,Nada,66.0,yes
181,2024-01-17_13h42.16.863,Unsyncopated_study2,s93,24.0,feminino,right,España,Catalán y castellano,Bachelor degree,no,no,A,2,when,L4,unsyncopated,when,when,53,Online_whenL4//a.lo25.none.wav,ñi,ja,ru,sil,bo,ci,ña,sil1,de,zi,sil2,['-'],,,none,none,,,,lo,2,,,,,,,,,,,,,,,4.0,2.0,Catalán,0.0,Castellano,0.0,Inglés,5.0,Francés,13.0,4.0,1.0,yes,no,yes,Flauta,12,Ukelele ,12,,,Nada,66.0,yes
182,2024-01-17_13h42.16.863,Unsyncopated_study2,s93,24.0,feminino,right,España,Catalán y castellano,Bachelor degree,no,no,A,2,when,L4,unsyncopated,when,when,54,Online_whenL4//a.lo27.none.wav,ci,nu,ñi,sil,da,ru,ja,sil1,po,bu,sil2,['-'],,,none,none,,,,lo,2,,,,,,,,,,,,,,,4.0,2.0,Catalán,0.0,Castellano,0.0,Inglés,5.0,Francés,13.0,4.0,1.0,yes,no,yes,Flauta,12,Ukelele ,12,,,Nada,66.0,yes
183,2024-01-17_13h42.16.863,Unsyncopated_study2,s93,24.0,feminino,right,España,Catalán y castellano,Bachelor degree,no,no,A,2,when,L4,unsyncopated,when,when,55,Online_whenL4//a.lo26.1998.wav,po,ja,bu,sil,ci,pe,ru,sil1,ñi,lo,sil2,['miss'],,,1.998,no_beat,,,,lo,2,,,,,,,,,,,,,,,4.0,2.0,Catalán,0.0,Castellano,0.0,Inglés,5.0,Francés,13.0,4.0,1.0,yes,no,yes,Flauta,12,Ukelele ,12,,,Nada,66.0,yes
184,2024-01-17_13h42.16.863,Unsyncopated_study2,s93,24.0,feminino,right,España,Catalán y castellano,Bachelor degree,no,no,A,2,when,L4,unsyncopated,when,when,56,Online_whenL4//b.ja19.none.wav,ñi,da,nu,sil,ña,bo,de,sil1,po,lo,sil2,['-'],,,none,none,,,,ja,1,,,,,,,,,,,,,,,4.0,2.0,Catalán,0.0,Castellano,0.0,Inglés,5.0,Francés,13.0,4.0,1.0,yes,no,yes,Flauta,12,Ukelele ,12,,,Nada,66.0,yes
185,2024-01-17_13h42.16.863,Unsyncopated_study2,s93,24.0,feminino,right,España,Catalán y castellano,Bachelor degree,no,no,A,2,when,L4,unsyncopated,when,when,57,Online_whenL4//b.ja17.none.wav,pe,ru,ñi,sil,zi,lo,re,sil1,de,bu,sil2,['-'],,,none,none,,,,ja,1,,,,,,,,,,,,,,,4.0,2.0,Catalán,0.0,Castellano,0.0,Inglés,5.0,Francés,13.0,4.0,1.0,yes,no,yes,Flauta,12,Ukelele ,12,,,Nada,66.0,yes
186,2024-01-17_13h42.16.863,Unsyncopated_study2,s93,24.0,feminino,right,España,Catalán y castellano,Bachelor degree,no,no,A,2,when,L4,unsyncopated,when,when,58,Online_whenL4//b.ja18.none.wav,bo,re,ru,sil,de,lo,zi,sil1,ci,ña,sil2,['-'],,,none,none,,,,ja,1,,,,,,,,,,,,,,,4.0,2.0,Catalán,0.0,Castellano,0.0,Inglés,5.0,Francés,13.0,4.0,1.0,yes,no,yes,Flauta,12,Ukelele ,12,,,Nada,66.0,yes
187,2024-01-17_13h42.16.863,Unsyncopated_study2,s93,24.0,feminino,right,España,Catalán y castellano,Bachelor degree,no,no,A,2,when,L4,unsyncopated,when,when,59,Online_whenL4//b.ja16.1110.wav,re,ci,bu,sil,de,ja,ru,sil1,pe,nu,sil2,['miss'],,,1.11,no_beat,,,,ja,1,,,,,,,,,,,,,,,4.0,2.0,Catalán,0.0,Castellano,0.0,Inglés,5.0,Francés,13.0,4.0,1.0,yes,no,yes,Flauta,12,Ukelele ,12,,,Nada,66.0,yes
188,2024-01-17_13h42.16.863,Unsyncopated_study2,s93,24.0,feminino,right,España,Catalán y castellano,Bachelor degree,no,no,A,2,when,L4,unsyncopated,when,when,60,Online_whenL4//b.ja25.none.wav,ru,zi,bo,sil,bu,nu,po,sil1,ñi,re,sil2,['-'],,,none,none,,,,ja,1,,,,,,,,,,,,,,,4.0,2.0,Catalán,0.0,Castellano,0.0,Inglés,5.0,Francés,13.0,4.0,1.0,yes,no,yes,Flauta,12,Ukelele ,12,,,Nada,66.0,yes
189,2024-01-17_13h42.16.863,Unsyncopated_study2,s93,24.0,feminino,right,España,Catalán y castellano,Bachelor degree,no,no,A,2,when,L4,unsyncopated,when,when,61,Online_whenL4//b.ja26.none.wav,bu,ru,de,sil,zi,bo,re,sil1,ci,nu,sil2,['-'],,,none,none,,,,ja,1,,,,,,,,,,,,,,,4.0,2.0,Catalán,0.0,Castellano,0.0,Inglés,5.0,Francés,13.0,4.0,1.0,yes,no,yes,Flauta,12,Ukelele ,12,,,Nada,66.0,yes
190,2024-01-17_13h42.16.863,Unsyncopated_study2,s93,24.0,feminino,right,España,Catalán y castellano,Bachelor degree,no,no,A,2,when,L4,unsyncopated,when,when,62,Online_whenL4//b.ja27.444.wav,bu,ñi,ja,sil,ci,ru,ña,sil1,bo,zi,sil2,['catch'],[0.8431999999991149],[0.8431999999991149],0.444,no_beat,0.3991999999991149,0.3991999999991149,"[""space""]",ja,1,,,,,,,,,,,,,,,4.0,2.0,Catalán,0.0,Castellano,0.0,Inglés,5.0,Francés,13.0,4.0,1.0,yes,no,yes,Flauta,12,Ukelele ,12,,,Nada,66.0,yes
191,2024-01-17_13h42.16.863,Unsyncopated_study2,s93,24.0,feminino,right,España,Catalán y castellano,Bachelor degree,no,no,A,2,when,L4,unsyncopated,when,when,63,Online_whenL4//b.ja24.444.wav,bu,nu,ja,sil,ci,pe,de,sil1,po,ña,sil2,['miss'],,,0.444,no_beat,,,,ja,1,,,,,,,,,,,,,,,4.0,2.0,Catalán,0.0,Castellano,0.0,Inglés,5.0,Francés,13.0,4.0,1.0,yes,no,yes,Flauta,12,Ukelele ,12,,,Nada,66.0,yes
192,2024-01-17_13h42.16.863,Unsyncopated_study2,s93,24.0,feminino,right,España,Catalán y castellano,Bachelor degree,no,no,A,2,when,L4,unsyncopated,when,when,64,Online_whenL4//d.pe2.none.wav,ñi,ña,ru,sil,nu,da,po,sil1,de,ja,sil2,['-'],,,none,none,,,,pe,4,,,,,,,,,,,,,,,4.0,2.0,Catalán,0.0,Castellano,0.0,Inglés,5.0,Francés,13.0,4.0,1.0,yes,no,yes,Flauta,12,Ukelele ,12,,,Nada,66.0,yes
193,2024-01-17_13h42.16.863,Unsyncopated_study2,s93,24.0,feminino,right,España,Catalán y castellano,Bachelor degree,no,no,A,2,when,L4,unsyncopated,when,when,65,Online_whenL4//d.pe0.none.wav,ja,zi,ñi,sil,ru,ci,ña,sil1,da,bu,sil2,['-'],,,none,none,,,,pe,4,,,,,,,,,,,,,,,4.0,2.0,Catalán,0.0,Castellano,0.0,Inglés,5.0,Francés,13.0,4.0,1.0,yes,no,yes,Flauta,12,Ukelele ,12,,,Nada,66.0,yes
194,2024-01-17_13h42.16.863,Unsyncopated_study2,s93,24.0,feminino,right,España,Catalán y castellano,Bachelor degree,no,no,A,2,when,L4,unsyncopated,when,when,66,Online_whenL4//d.pe3.888.wav,nu,bo,de,sil,pe,bu,po,sil1,da,zi,sil2,['catch'],[1.5925999999997202],[1.5925999999997202],0.888,beat,0.7045999999997202,0.7045999999997202,"[""space""]",pe,4,,,,,,,,,,,,,,,4.0,2.0,Catalán,0.0,Castellano,0.0,Inglés,5.0,Francés,13.0,4.0,1.0,yes,no,yes,Flauta,12,Ukelele ,12,,,Nada,66.0,yes
195,2024-01-17_13h42.16.863,Unsyncopated_study2,s93,24.0,feminino,right,España,Catalán y castellano,Bachelor degree,no,no,A,2,when,L4,unsyncopated,when,when,67,Online_whenL4//d.pe1.222.wav,bo,pe,bu,sil,ja,ña,ru,sil1,ñi,nu,sil2,['miss'],,,0.222,no_beat,,,,pe,4,,,,,,,,,,,,,,,4.0,2.0,Catalán,0.0,Castellano,0.0,Inglés,5.0,Francés,13.0,4.0,1.0,yes,no,yes,Flauta,12,Ukelele ,12,,,Nada,66.0,yes
196,2024-01-17_13h42.16.863,Unsyncopated_study2,s93,24.0,feminino,right,España,Catalán y castellano,Bachelor degree,no,no,A,2,when,L4,unsyncopated,when,when,68,Online_whenL4//a.lo13.1776.wav,re,ña,ru,sil,ci,ja,ñi,sil1,lo,pe,sil2,"['false alarm', 'catch']","[0.5177000000012413, 2.384400000000369]",[2.384400000000369],1.776,beat,0.6084000000003689,0.6084000000003689,"[""space"",""space""]",lo,2,,,,,,,,,,,,,,,4.0,2.0,Catalán,0.0,Castellano,0.0,Inglés,5.0,Francés,13.0,4.0,1.0,yes,no,yes,Flauta,12,Ukelele ,12,,,Nada,66.0,yes
197,2024-01-17_13h42.16.863,Unsyncopated_study2,s93,24.0,feminino,right,España,Catalán y castellano,Bachelor degree,no,no,A,2,when,L4,unsyncopated,when,when,69,Online_whenL4//a.lo12.none.wav,nu,bu,zi,sil,ñi,bo,ci,sil1,ru,ña,sil2,['-'],,,none,none,,,,lo,2,,,,,,,,,,,,,,,4.0,2.0,Catalán,0.0,Castellano,0.0,Inglés,5.0,Francés,13.0,4.0,1.0,yes,no,yes,Flauta,12,Ukelele ,12,,,Nada,66.0,yes
198,2024-01-17_13h42.16.863,Unsyncopated_study2,s93,24.0,feminino,right,España,Catalán y castellano,Bachelor degree,no,no,A,2,when,L4,unsyncopated,when,when,70,Online_whenL4//a.lo14.none.wav,bu,ru,nu,sil,zi,bo,pe,sil1,da,ñi,sil2,['-'],,,none,none,,,,lo,2,,,,,,,,,,,,,,,4.0,2.0,Catalán,0.0,Castellano,0.0,Inglés,5.0,Francés,13.0,4.0,1.0,yes,no,yes,Flauta,12,Ukelele ,12,,,Nada,66.0,yes
199,2024-01-17_13h42.16.863,Unsyncopated_study2,s93,24.0,feminino,right,España,Catalán y castellano,Bachelor degree,no,no,A,2,when,L4,unsyncopated,when,when,71,Online_whenL4//a.lo15.1776.wav,de,pe,da,sil,ñi,po,re,sil1,lo,ja,sil2,['catch'],[2.5292000000013104],[2.5292000000013104],1.776,beat,0.7532000000013104,0.7532000000013104,"[""space""]",lo,2,,,,,,,,,,,,,,,4.0,2.0,Catalán,0.0,Castellano,0.0,Inglés,5.0,Francés,13.0,4.0,1.0,yes,no,yes,Flauta,12,Ukelele ,12,,,Nada,66.0,yes
200,2024-01-17_13h42.16.863,Unsyncopated_study2,s93,24.0,feminino,right,España,Catalán y castellano,Bachelor degree,no,no,A,2,when,L4,unsyncopated,when,when,72,Online_whenL4//c.bu30.none.wav,ña,ru,lo,sil,bo,ci,ñi,sil1,nu,po,sil2,['-'],,,none,none,,,,bu,3,,,,,,,,,,,,,,,4.0,2.0,Catalán,0.0,Castellano,0.0,Inglés,5.0,Francés,13.0,4.0,1.0,yes,no,yes,Flauta,12,Ukelele ,12,,,Nada,66.0,yes
201,2024-01-17_13h42.16.863,Unsyncopated_study2,s93,24.0,feminino,right,España,Catalán y castellano,Bachelor degree,no,no,A,2,when,L4,unsyncopated,when,when,73,Online_whenL4//c.bu31.none.wav,ru,bo,ci,sil,lo,po,pe,sil1,zi,ña,sil2,['-'],,,none,none,,,,bu,3,,,,,,,,,,,,,,,4.0,2.0,Catalán,0.0,Castellano,0.0,Inglés,5.0,Francés,13.0,4.0,1.0,yes,no,yes,Flauta,12,Ukelele ,12,,,Nada,66.0,yes
202,2024-01-17_13h42.16.863,Unsyncopated_study2,s93,24.0,feminino,right,España,Catalán y castellano,Bachelor degree,no,no,A,2,when,L4,unsyncopated,when,when,74,Online_whenL4//c.bu29.none.wav,ja,nu,po,sil,da,re,de,sil1,ru,ci,sil2,['-'],,,none,none,,,,bu,3,,,,,,,,,,,,,,,4.0,2.0,Catalán,0.0,Castellano,0.0,Inglés,5.0,Francés,13.0,4.0,1.0,yes,no,yes,Flauta,12,Ukelele ,12,,,Nada,66.0,yes
203,2024-01-17_13h42.16.863,Unsyncopated_study2,s93,24.0,feminino,right,España,Catalán y castellano,Bachelor degree,no,no,A,2,when,L4,unsyncopated,when,when,75,Online_whenL4//c.bu28.1998.wav,ñi,re,ru,sil,ja,zi,ña,sil1,pe,bu,sil2,['miss'],,,1.998,no_beat,,,,bu,3,,,,,,,,,,,,,,,4.0,2.0,Catalán,0.0,Castellano,0.0,Inglés,5.0,Francés,13.0,4.0,1.0,yes,no,yes,Flauta,12,Ukelele ,12,,,Nada,66.0,yes
204,2024-01-17_13h42.16.863,Unsyncopated_study2,s93,24.0,feminino,right,España,Catalán y castellano,Bachelor degree,no,no,A,2,when,L4,unsyncopated,when,when,76,Online_whenL4//a.lo35.none.wav,zi,pe,ru,sil,bu,ñi,ja,sil1,ña,po,sil2,['-'],,,none,none,,,,lo,2,,,,,,,,,,,,,,,4.0,2.0,Catalán,0.0,Castellano,0.0,Inglés,5.0,Francés,13.0,4.0,1.0,yes,no,yes,Flauta,12,Ukelele ,12,,,Nada,66.0,yes
205,2024-01-17_13h42.16.863,Unsyncopated_study2,s93,24.0,feminino,right,España,Catalán y castellano,Bachelor degree,no,no,A,2,when,L4,unsyncopated,when,when,77,Online_whenL4//a.lo33.888.wav,ñi,bu,nu,sil,lo,de,ña,sil1,ci,po,sil2,['catch'],[1.4075000000000273],[1.4075000000000273],0.888,beat,0.5195000000000273,0.5195000000000273,"[""space""]",lo,2,,,,,,,,,,,,,,,4.0,2.0,Catalán,0.0,Castellano,0.0,Inglés,5.0,Francés,13.0,4.0,1.0,yes,no,yes,Flauta,12,Ukelele ,12,,,Nada,66.0,yes
206,2024-01-17_13h42.16.863,Unsyncopated_study2,s93,24.0,feminino,right,España,Catalán y castellano,Bachelor degree,no,no,A,2,when,L4,unsyncopated,when,when,78,Online_whenL4//a.lo34.0.wav,lo,po,ña,sil,de,ci,pe,sil1,ñi,nu,sil2,['catch'],[0.6407999999987624],[0.6407999999987624],0.0,beat,0.6407999999987624,0.6407999999987624,"[""space""]",lo,2,,,,,,,,,,,,,,,4.0,2.0,Catalán,0.0,Castellano,0.0,Inglés,5.0,Francés,13.0,4.0,1.0,yes,no,yes,Flauta,12,Ukelele ,12,,,Nada,66.0,yes
207,2024-01-17_13h42.16.863,Unsyncopated_study2,s93,24.0,feminino,right,España,Catalán y castellano,Bachelor degree,no,no,A,2,when,L4,unsyncopated,when,when,79,Online_whenL4//a.lo32.1776.wav,bu,pe,ru,sil,ñi,po,ci,sil1,lo,ja,sil2,['catch'],[2.2254000000004908],[2.2254000000004908],1.776,beat,0.4494000000004907,0.4494000000004907,"[""space""]",lo,2,,,,,,,,,,,,,,,4.0,2.0,Catalán,0.0,Castellano,0.0,Inglés,5.0,Francés,13.0,4.0,1.0,yes,no,yes,Flauta,12,Ukelele ,12,,,Nada,66.0,yes
208,2024-01-17_13h42.16.863,Unsyncopated_study2,s93,24.0,feminino,right,España,Catalán y castellano,Bachelor degree,no,no,A,2,when,L4,unsyncopated,when,when,80,Online_whenL4//b.ja12.444.wav,nu,ñi,ja,sil,pe,da,ña,sil1,re,ru,sil2,['catch'],[0.9858999999985372],[0.9858999999985372],0.444,no_beat,0.5418999999985372,0.5418999999985372,"[""space""]",ja,1,,,,,,,,,,,,,,,4.0,2.0,Catalán,0.0,Castellano,0.0,Inglés,5.0,Francés,13.0,4.0,1.0,yes,no,yes,Flauta,12,Ukelele ,12,,,Nada,66.0,yes
209,2024-01-17_13h42.16.863,Unsyncopated_study2,s93,24.0,feminino,right,España,Catalán y castellano,Bachelor degree,no,no,A,2,when,L4,unsyncopated,when,when,81,Online_whenL4//b.ja14.888.wav,zi,ña,po,sil,ja,bu,de,sil1,bo,ru,sil2,['catch'],[1.5144000000002507],[1.5144000000002507],0.888,beat,0.6264000000002506,0.6264000000002506,"[""space""]",ja,1,,,,,,,,,,,,,,,4.0,2.0,Catalán,0.0,Castellano,0.0,Inglés,5.0,Francés,13.0,4.0,1.0,yes,no,yes,Flauta,12,Ukelele ,12,,,Nada,66.0,yes
210,2024-01-17_13h42.16.863,Unsyncopated_study2,s93,24.0,feminino,right,España,Catalán y castellano,Bachelor degree,no,no,A,2,when,L4,unsyncopated,when,when,82,Online_whenL4//b.ja15.444.wav,da,ci,ja,sil,bo,ru,pe,sil1,zi,bu,sil2,['catch'],[0.8493000000007669],[0.8493000000007669],0.444,no_beat,0.4053000000007669,0.4053000000007669,"[""space""]",ja,1,,,,,,,,,,,,,,,4.0,2.0,Catalán,0.0,Castellano,0.0,Inglés,5.0,Francés,13.0,4.0,1.0,yes,no,yes,Flauta,12,Ukelele ,12,,,Nada,66.0,yes
