Unnamed: 0,date,expName,participant,age,sex,hand,residence,native_lang,education_level,lang_deficit,aud_deficit,group,block,condition,language,rhythm,rule structure online,rule type online,order_trial_on,trial_online,s1,s2,s3,s4,s5,s6,s7,s8,s9,s10,s11,catch_syll_resp,rts_syll_catch,clean_rts,time_syll,beat_no_beat,catch_rtsTR,catch_rts,syllable_catch.keys,cond_syll,syll_to_catch,test_offline,block_off,condition_off,rhythm_off,rule,rule_str_off,rule_norule,conds_offline,language_off,Partz_no_partm.keys,Partz_no_partm.rt,security_1_7.keys,accuracy,security_1_7.rt,n_lang,n_lang_used,lang_1,age_l1,lang_2,age_l2,lang_3,age_l3,ability_learn_l2,tendence_mix_lan,music_experience,muisc_use,partiture,instr_1,age_M1,preguntas_musica1,BMRQ_answer.response,final comment,BMRQ_Score,bilingual
0,2023-12-11_10h11.57.000,Unsyncopated_study2,s82,19.0,feminino,right,España,Castellano y catalán,Upper secondary,no,no,A,1,when,L4,unsyncopated,when,when,0,Online_whenL4//b.ja20.0.wav,ja,bu,ñi,sil,bo,de,lo,sil1,ru,da,sil2,['catch'],[1.0649999999999409],[1.0649999999999409],0.0,beat,1.0649999999999409,1.0649999999999409,"[""space""]",ja,1,testWhenL4Uns//cat_viol.r1.s1.0.wav,1.0,when,unsyncopated,a,s1,no_rule,cat,L4,z,0.948,6.0,1.0,4.583,3.0,2.0,Castellano,0.0,Catalán,0.0,Inglés,8.0,3.0,5.0,no,no,no,nada,,1. Cuando comparto música con alguien siento una complicidad especial con aquella persona.,4.0,nada,68.0,yes
1,2023-12-11_10h11.57.000,Unsyncopated_study2,s82,19.0,feminino,right,España,Castellano y catalán,Upper secondary,no,no,A,1,when,L4,unsyncopated,when,when,1,Online_whenL4//b.ja23.444.wav,bu,da,ja,sil,ña,de,nu,sil1,ñi,po,sil2,['catch'],[0.9239999999999782],[0.9239999999999782],0.444,no_beat,0.4799999999999781,0.4799999999999781,"[""space""]",ja,1,testWhenL4Uns//r2.s1.1.wav,1.0,when,unsyncopated,b,s1,rule,rule,L4,z,0.817,4.0,1.0,1.955,3.0,2.0,Castellano,0.0,Catalán,0.0,Inglés,8.0,3.0,5.0,no,no,no,nada,,2. En mi tiempo libre apenas escucho música.,5.0,nada,68.0,yes
2,2023-12-11_10h11.57.000,Unsyncopated_study2,s82,19.0,feminino,right,España,Castellano y catalán,Upper secondary,no,no,A,1,when,L4,unsyncopated,when,when,2,Online_whenL4//b.ja22.1776.wav,da,ci,zi,sil,ña,ru,bo,sil1,ja,bu,sil2,['catch'],[2.161000000000058],[2.161000000000058],1.776,beat,0.3850000000000582,0.3850000000000582,"[""space""]",ja,1,testWhenL4Uns//r1.s2.1.wav,1.0,when,unsyncopated,a,s2,rule,rule,L4,z,4.103,4.0,1.0,1.499,3.0,2.0,Castellano,0.0,Catalán,0.0,Inglés,8.0,3.0,5.0,no,no,no,nada,,3. Algunas canciones me ponen los pelos de punta,4.0,nada,68.0,yes
3,2023-12-11_10h11.57.000,Unsyncopated_study2,s82,19.0,feminino,right,España,Castellano y catalán,Upper secondary,no,no,A,1,when,L4,unsyncopated,when,when,3,Online_whenL4//b.ja21.none.wav,bu,da,ci,sil,ru,nu,zi,sil1,de,po,sil2,['-'],,,none,none,,,,ja,1,testWhenL4Uns//r1.s1.0.wav,1.0,when,unsyncopated,a,s1,rule,rule,L4,m,0.871,6.0,0.0,1.618,3.0,2.0,Castellano,0.0,Catalán,0.0,Inglés,8.0,3.0,5.0,no,no,no,nada,,4. La música me hace compañía cuando estoy solo,3.0,nada,68.0,yes
4,2023-12-11_10h11.57.000,Unsyncopated_study2,s82,19.0,feminino,right,España,Castellano y catalán,Upper secondary,no,no,A,1,when,L4,unsyncopated,when,when,4,Online_whenL4//a.lo18.none.wav,re,ñi,de,sil,nu,bo,ña,sil1,ru,zi,sil2,['-'],,,none,none,,,,lo,2,testWhenL4Uns//r1.s1.2.wav,1.0,when,unsyncopated,a,s1,rule,rule,L4,z,0.532,5.0,1.0,1.434,3.0,2.0,Castellano,0.0,Catalán,0.0,Inglés,8.0,3.0,5.0,no,no,no,nada,,5. No me apetece bailar ni con la música que más me gusta,4.0,nada,68.0,yes
5,2023-12-11_10h11.57.000,Unsyncopated_study2,s82,19.0,feminino,right,España,Castellano y catalán,Upper secondary,no,no,A,1,when,L4,unsyncopated,when,when,5,Online_whenL4//a.lo19.0.wav,lo,ru,po,sil,pe,bu,re,sil1,nu,bo,sil2,['catch'],[0.5940000000000509],[0.5940000000000509],0.0,beat,0.5940000000000509,0.5940000000000509,"[""space""]",lo,2,testWhenL4Uns//r2.s2.2.wav,1.0,when,unsyncopated,b,s2,rule,rule,L4,z,1.15,4.0,1.0,1.402,3.0,2.0,Castellano,0.0,Catalán,0.0,Inglés,8.0,3.0,5.0,no,no,no,nada,,6. La música me hace conectar con la gente,3.0,nada,68.0,yes
6,2023-12-11_10h11.57.000,Unsyncopated_study2,s82,19.0,feminino,right,España,Castellano y catalán,Upper secondary,no,no,A,1,when,L4,unsyncopated,when,when,6,Online_whenL4//a.lo16.none.wav,po,bu,re,sil,ja,pe,zi,sil1,da,ña,sil2,['-'],,,none,none,,,,lo,2,testWhenL4Uns//dep_viol.r2.s2.0.wav,1.0,when,unsyncopated,b,s2,no_rule,dep,L4,m,1.799,4.0,0.0,1.335,3.0,2.0,Castellano,0.0,Catalán,0.0,Inglés,8.0,3.0,5.0,no,no,no,nada,,7. Me informo sobre la música que me gusta.,2.0,nada,68.0,yes
7,2023-12-11_10h11.57.000,Unsyncopated_study2,s82,19.0,feminino,right,España,Castellano y catalán,Upper secondary,no,no,A,1,when,L4,unsyncopated,when,when,7,Online_whenL4//a.lo17.888.wav,ci,de,re,sil,lo,ru,da,sil1,ñi,zi,sil2,['catch'],[1.2570000000000618],[1.2570000000000618],0.888,beat,0.3690000000000618,0.3690000000000618,"[""space""]",lo,2,testWhenL4Uns//cat_viol.r2.s2.0.wav,1.0,when,unsyncopated,b,s2,no_rule,cat,L4,m,0.786,6.0,0.0,1.381,3.0,2.0,Castellano,0.0,Catalán,0.0,Inglés,8.0,3.0,5.0,no,no,no,nada,,8.Me emociono escuchando ciertas canciones.,4.0,nada,68.0,yes
8,2023-12-11_10h11.57.000,Unsyncopated_study2,s82,19.0,feminino,right,España,Castellano y catalán,Upper secondary,no,no,A,1,when,L4,unsyncopated,when,when,8,Online_whenL4//b.ja31.1332.wav,ci,re,da,sil,lo,pe,ja,sil1,de,ñi,sil2,['false alarm'],[0.8790000000000191],[0.8790000000000191],1.332,no_beat,,,"[""space""]",ja,1,testWhenL4Uns//r2.s1.0.wav,1.0,when,unsyncopated,b,s1,rule,rule,L4,z,1.265,5.0,1.0,1.168,3.0,2.0,Castellano,0.0,Catalán,0.0,Inglés,8.0,3.0,5.0,no,no,no,nada,,9.La música me tranquiliza y me relaja.,3.0,nada,68.0,yes
9,2023-12-11_10h11.57.000,Unsyncopated_study2,s82,19.0,feminino,right,España,Castellano y catalán,Upper secondary,no,no,A,1,when,L4,unsyncopated,when,when,9,Online_whenL4//b.ja30.none.wav,zi,ci,de,sil,bo,da,lo,sil1,re,bu,sil2,['-'],,,none,none,,,,ja,1,testWhenL4Uns//cat_viol.r2.s1.0.wav,1.0,when,unsyncopated,b,s1,no_rule,cat,L4,m,0.918,6.0,0.0,1.534,3.0,2.0,Castellano,0.0,Catalán,0.0,Inglés,8.0,3.0,5.0,no,no,no,nada,,10.La música me hace bailar,3.0,nada,68.0,yes
10,2023-12-11_10h11.57.000,Unsyncopated_study2,s82,19.0,feminino,right,España,Castellano y catalán,Upper secondary,no,no,A,1,when,L4,unsyncopated,when,when,10,Online_whenL4//b.ja29.none.wav,bu,da,nu,sil,ci,ru,ña,sil1,lo,bo,sil2,['-'],,,none,none,,,,ja,1,testWhenL4Uns//dep_viol.r1.s1.0.wav,1.0,when,unsyncopated,a,s1,no_rule,dep,L4,m,0.419,5.0,0.0,1.065,3.0,2.0,Castellano,0.0,Catalán,0.0,Inglés,8.0,3.0,5.0,no,no,no,nada,,11.Busco novedades musicales continuamente,3.0,nada,68.0,yes
11,2023-12-11_10h11.57.000,Unsyncopated_study2,s82,19.0,feminino,right,España,Castellano y catalán,Upper secondary,no,no,A,1,when,L4,unsyncopated,when,when,11,Online_whenL4//b.ja28.1776.wav,ru,po,bu,sil,bo,da,lo,sil1,ja,pe,sil2,['catch'],[2.1090000000000373],[2.1090000000000373],1.776,beat,0.3330000000000372,0.3330000000000372,"[""space""]",ja,1,testWhenL4Uns//cat_viol.r1.s2.0.wav,1.0,when,unsyncopated,a,s2,no_rule,cat,L4,z,0.283,6.0,1.0,1.136,3.0,2.0,Castellano,0.0,Catalán,0.0,Inglés,8.0,3.0,5.0,no,no,no,nada,,12. Puedo llorar cuando escucho algunas melodías que me gustan mucho.,4.0,nada,68.0,yes
12,2023-12-11_10h11.57.000,Unsyncopated_study2,s82,19.0,feminino,right,España,Castellano y catalán,Upper secondary,no,no,A,1,when,L4,unsyncopated,when,when,12,Online_whenL4//a.lo1.none.wav,nu,ja,ci,sil,bo,ña,de,sil1,po,re,sil2,['-'],,,none,none,,,,lo,2,testWhenL4Uns//time_viol.r2.s2.0.wav,1.0,when,unsyncopated,b,s2,no_rule,time,L4,z,1.1,5.0,1.0,1.185,3.0,2.0,Castellano,0.0,Catalán,0.0,Inglés,8.0,3.0,5.0,no,no,no,nada,,13. Me gusta cantar o tocar un instrumento con más gente,2.0,nada,68.0,yes
13,2023-12-11_10h11.57.000,Unsyncopated_study2,s82,19.0,feminino,right,España,Castellano y catalán,Upper secondary,no,no,A,1,when,L4,unsyncopated,when,when,13,Online_whenL4//a.lo0.none.wav,ru,pe,ci,sil,zi,ja,da,sil1,ñi,ña,sil2,['-'],,,none,none,,,,lo,2,testWhenL4Uns//time_viol.r2.s1.0.wav,1.0,when,unsyncopated,b,s1,no_rule,time,L4,m,0.335,5.0,0.0,1.367,3.0,2.0,Castellano,0.0,Catalán,0.0,Inglés,8.0,3.0,5.0,no,no,no,nada,,14. La música me ayuda a desconectar.,3.0,nada,68.0,yes
14,2023-12-11_10h11.57.000,Unsyncopated_study2,s82,19.0,feminino,right,España,Castellano y catalán,Upper secondary,no,no,A,1,when,L4,unsyncopated,when,when,14,Online_whenL4//a.lo3.none.wav,ci,nu,ja,sil,re,ña,ru,sil1,po,bo,sil2,['false alarm'],[2.4500000000000455],[2.4500000000000455],none,none,,,"[""space""]",lo,2,testWhenL4Uns//r2.s2.1.wav,1.0,when,unsyncopated,b,s2,rule,rule,L4,m,1.216,4.0,0.0,1.016,3.0,2.0,Castellano,0.0,Catalán,0.0,Inglés,8.0,3.0,5.0,no,no,no,nada,,15. No puedo evitar tararear las canciones que me gustan cuando las escucho.,4.0,nada,68.0,yes
15,2023-12-11_10h11.57.000,Unsyncopated_study2,s82,19.0,feminino,right,España,Castellano y catalán,Upper secondary,no,no,A,1,when,L4,unsyncopated,when,when,15,Online_whenL4//a.lo2.444.wav,ñi,bu,lo,sil,da,pe,ña,sil1,zi,bo,sil2,['catch'],[1.1760000000000446],[1.1760000000000446],0.444,no_beat,0.7320000000000446,0.7320000000000446,"[""space""]",lo,2,testWhenL4Uns//time_viol.r1.s1.0.wav,1.0,when,unsyncopated,a,s1,no_rule,time,L4,z,0.303,6.0,1.0,0.818,3.0,2.0,Castellano,0.0,Catalán,0.0,Inglés,8.0,3.0,5.0,no,no,no,nada,,16. En los conciertos me siento en sintonía con los artistas y el público.,4.0,nada,68.0,yes
16,2023-12-11_10h11.57.000,Unsyncopated_study2,s82,19.0,feminino,right,España,Castellano y catalán,Upper secondary,no,no,A,1,when,L4,unsyncopated,when,when,16,Online_whenL4//c.bu24.1998.wav,lo,po,ci,sil,nu,re,ñi,sil1,pe,bu,sil2,['miss'],,,1.998,no_beat,,,,bu,3,testWhenL4Uns//r2.s1.2.wav,1.0,when,unsyncopated,b,s1,rule,rule,L4,z,1.582,5.0,1.0,0.854,3.0,2.0,Castellano,0.0,Catalán,0.0,Inglés,8.0,3.0,5.0,no,no,no,nada,,17. Me gasto bastante dinero en música y cosas relacionadas con la música.,3.0,nada,68.0,yes
17,2023-12-11_10h11.57.000,Unsyncopated_study2,s82,19.0,feminino,right,España,Castellano y catalán,Upper secondary,no,no,A,1,when,L4,unsyncopated,when,when,17,Online_whenL4//c.bu27.0.wav,bu,de,zi,sil,ja,da,ru,sil1,bo,po,sil2,"['catch', 'false alarm']","[0.16000000000008185, 0.7590000000000146]",[0.16000000000008185],0.0,beat,0.1600000000000818,0.1600000000000818,"[""space"",""space""]",bu,3,testWhenL4Uns//r1.s1.1.wav,1.0,when,unsyncopated,a,s1,rule,rule,L4,m,0.75,5.0,0.0,2.253,3.0,2.0,Castellano,0.0,Catalán,0.0,Inglés,8.0,3.0,5.0,no,no,no,nada,,18. Siento escalofríos cuando escucho una melodía que me gusta.,3.0,nada,68.0,yes
18,2023-12-11_10h11.57.000,Unsyncopated_study2,s82,19.0,feminino,right,España,Castellano y catalán,Upper secondary,no,no,A,1,when,L4,unsyncopated,when,when,18,Online_whenL4//c.bu25.222.wav,ña,bu,de,sil,da,po,lo,sil1,ja,pe,sil2,['miss'],,,0.222,no_beat,,,,bu,3,testWhenL4Uns//dep_viol.r2.s1.0.wav,1.0,when,unsyncopated,b,s1,no_rule,dep,L4,z,1.484,6.0,1.0,1.586,3.0,2.0,Castellano,0.0,Catalán,0.0,Inglés,8.0,3.0,5.0,no,no,no,nada,,19. Con la música me puedo desahogar.,4.0,nada,68.0,yes
19,2023-12-11_10h11.57.000,Unsyncopated_study2,s82,19.0,feminino,right,España,Castellano y catalán,Upper secondary,no,no,A,1,when,L4,unsyncopated,when,when,19,Online_whenL4//c.bu26.none.wav,po,da,ña,sil,zi,ru,lo,sil1,ci,re,sil2,['-'],,,none,none,,,,bu,3,testWhenL4Uns//dep_viol.r1.s2.0.wav,1.0,when,unsyncopated,a,s2,no_rule,dep,L4,z,0.586,5.0,1.0,1.0,3.0,2.0,Castellano,0.0,Catalán,0.0,Inglés,8.0,3.0,5.0,no,no,no,nada,,20. Cuando escucho una melodía que me gusta mucho no puedo evitar mover el cuerpo.,3.0,nada,68.0,yes
20,2023-12-11_10h11.57.000,Unsyncopated_study2,s82,19.0,feminino,right,España,Castellano y catalán,Upper secondary,no,no,A,1,when,L4,unsyncopated,when,when,20,Online_whenL4//a.lo9.none.wav,bo,ci,po,sil,de,zi,ñi,sil1,ja,ña,sil2,['-'],,,none,none,,,,lo,2,testWhenL4Uns//r1.s2.0.wav,1.0,when,unsyncopated,a,s2,rule,rule,L4,m,0.501,3.0,0.0,0.933,3.0,2.0,Castellano,0.0,Catalán,0.0,Inglés,8.0,3.0,5.0,no,no,no,nada,,,,nada,68.0,yes
21,2023-12-11_10h11.57.000,Unsyncopated_study2,s82,19.0,feminino,right,España,Castellano y catalán,Upper secondary,no,no,A,1,when,L4,unsyncopated,when,when,21,Online_whenL4//a.lo10.none.wav,pe,da,re,sil,de,ja,zi,sil1,bu,po,sil2,['-'],,,none,none,,,,lo,2,testWhenL4Uns//time_viol.r1.s2.0.wav,1.0,when,unsyncopated,a,s2,no_rule,time,L4,z,0.649,6.0,1.0,0.739,3.0,2.0,Castellano,0.0,Catalán,0.0,Inglés,8.0,3.0,5.0,no,no,no,nada,,,,nada,68.0,yes
22,2023-12-11_10h11.57.000,Unsyncopated_study2,s82,19.0,feminino,right,España,Castellano y catalán,Upper secondary,no,no,A,1,when,L4,unsyncopated,when,when,22,Online_whenL4//a.lo8.0.wav,lo,ñi,nu,sil,de,bo,pe,sil1,da,bu,sil2,['catch'],[0.48699999999996635],[0.48699999999996635],0.0,beat,0.4869999999999663,0.4869999999999663,"[""space""]",lo,2,testWhenL4Uns//r1.s2.2.wav,1.0,when,unsyncopated,a,s2,rule,rule,L4,m,1.152,3.0,0.0,1.117,3.0,2.0,Castellano,0.0,Catalán,0.0,Inglés,8.0,3.0,5.0,no,no,no,nada,,,,nada,68.0,yes
23,2023-12-11_10h11.57.000,Unsyncopated_study2,s82,19.0,feminino,right,España,Castellano y catalán,Upper secondary,no,no,A,1,when,L4,unsyncopated,when,when,23,Online_whenL4//a.lo11.0.wav,lo,ci,pe,sil,ñi,de,zi,sil1,ru,da,sil2,['catch'],[0.4900000000000091],[0.4900000000000091],0.0,beat,0.4900000000000091,0.4900000000000091,"[""space""]",lo,2,testWhenL4Uns//r2.s2.0.wav,1.0,when,unsyncopated,b,s2,rule,rule,L4,z,0.313,6.0,1.0,0.789,3.0,2.0,Castellano,0.0,Catalán,0.0,Inglés,8.0,3.0,5.0,no,no,no,nada,,,,nada,68.0,yes
24,2023-12-11_10h11.57.000,Unsyncopated_study2,s82,19.0,feminino,right,España,Castellano y catalán,Upper secondary,no,no,A,1,when,L4,unsyncopated,when,when,24,Online_whenL4//d.pe14.none.wav,po,ña,bu,sil,de,ru,nu,sil1,ci,zi,sil2,['-'],,,none,none,,,,pe,4,testConjL2Uns//r2.s2.2.wav,2.0,conjunction_un,unsyncopated,b,s2,rule,rule,L2,m,0.734,5.0,0.0,0.705,3.0,2.0,Castellano,0.0,Catalán,0.0,Inglés,8.0,3.0,5.0,no,no,no,nada,,,,nada,68.0,yes
25,2023-12-11_10h11.57.000,Unsyncopated_study2,s82,19.0,feminino,right,España,Castellano y catalán,Upper secondary,no,no,A,1,when,L4,unsyncopated,when,when,25,Online_whenL4//d.pe12.none.wav,ru,zi,ñi,sil,bu,de,ña,sil1,lo,re,sil2,['-'],,,none,none,,,,pe,4,testConjL2Uns//dep_viol.r1.s1.0.wav,2.0,conjunction_un,unsyncopated,a,s1,no_rule,dep,L2,z,0.303,6.0,0.0,0.687,3.0,2.0,Castellano,0.0,Catalán,0.0,Inglés,8.0,3.0,5.0,no,no,no,nada,,,,nada,68.0,yes
26,2023-12-11_10h11.57.000,Unsyncopated_study2,s82,19.0,feminino,right,España,Castellano y catalán,Upper secondary,no,no,A,1,when,L4,unsyncopated,when,when,26,Online_whenL4//d.pe15.888.wav,po,lo,de,sil,pe,ja,bo,sil1,ña,bu,sil2,['catch'],[1.2939999999999827],[1.2939999999999827],0.888,beat,0.4059999999999827,0.4059999999999827,"[""space""]",pe,4,testConjL2Uns//time_viol.r1.s2.0.wav,2.0,conjunction_un,unsyncopated,a,s2,no_rule,time,L2,z,0.543,6.0,0.0,0.75,3.0,2.0,Castellano,0.0,Catalán,0.0,Inglés,8.0,3.0,5.0,no,no,no,nada,,,,nada,68.0,yes
27,2023-12-11_10h11.57.000,Unsyncopated_study2,s82,19.0,feminino,right,España,Castellano y catalán,Upper secondary,no,no,A,1,when,L4,unsyncopated,when,when,27,Online_whenL4//d.pe13.none.wav,da,ja,nu,sil,ru,ci,ñi,sil1,bu,po,sil2,['-'],,,none,none,,,,pe,4,testConjL2Uns//cat_viol.r2.s2.0.wav,2.0,conjunction_un,unsyncopated,b,s2,no_rule,cat,L2,m,0.451,3.0,1.0,1.187,3.0,2.0,Castellano,0.0,Catalán,0.0,Inglés,8.0,3.0,5.0,no,no,no,nada,,,,nada,68.0,yes
28,2023-12-11_10h11.57.000,Unsyncopated_study2,s82,19.0,feminino,right,España,Castellano y catalán,Upper secondary,no,no,A,1,when,L4,unsyncopated,when,when,28,Online_whenL4//d.pe21.none.wav,ci,lo,bu,sil,ña,po,ja,sil1,bo,ru,sil2,['-'],,,none,none,,,,pe,4,testConjL2Uns//dep_viol.r2.s2.0.wav,2.0,conjunction_un,unsyncopated,b,s2,no_rule,dep,L2,m,0.535,4.0,1.0,0.498,3.0,2.0,Castellano,0.0,Catalán,0.0,Inglés,8.0,3.0,5.0,no,no,no,nada,,,,nada,68.0,yes
29,2023-12-11_10h11.57.000,Unsyncopated_study2,s82,19.0,feminino,right,España,Castellano y catalán,Upper secondary,no,no,A,1,when,L4,unsyncopated,when,when,29,Online_whenL4//d.pe23.444.wav,po,ja,pe,sil,de,ru,re,sil1,lo,bo,sil2,['catch'],[1.1610000000000582],[1.1610000000000582],0.444,no_beat,0.7170000000000583,0.7170000000000583,"[""space""]",pe,4,testConjL2Uns//cat_viol.r2.s1.0.wav,2.0,conjunction_un,unsyncopated,b,s1,no_rule,cat,L2,z,0.418,5.0,0.0,0.417,3.0,2.0,Castellano,0.0,Catalán,0.0,Inglés,8.0,3.0,5.0,no,no,no,nada,,,,nada,68.0,yes
30,2023-12-11_10h11.57.000,Unsyncopated_study2,s82,19.0,feminino,right,España,Castellano y catalán,Upper secondary,no,no,A,1,when,L4,unsyncopated,when,when,30,Online_whenL4//d.pe22.0.wav,pe,zi,ña,sil,lo,ci,ñi,sil1,re,da,sil2,['catch'],[0.45799999999997],[0.45799999999997],0.0,beat,0.45799999999997,0.45799999999997,"[""space""]",pe,4,testConjL2Uns//r2.s1.1.wav,2.0,conjunction_un,unsyncopated,b,s1,rule,rule,L2,z,1.123,5.0,1.0,0.485,3.0,2.0,Castellano,0.0,Catalán,0.0,Inglés,8.0,3.0,5.0,no,no,no,nada,,,,nada,68.0,yes
31,2023-12-11_10h11.57.000,Unsyncopated_study2,s82,19.0,feminino,right,España,Castellano y catalán,Upper secondary,no,no,A,1,when,L4,unsyncopated,when,when,31,Online_whenL4//d.pe20.none.wav,bu,lo,po,sil,ru,ñi,ja,sil1,ña,de,sil2,['-'],,,none,none,,,,pe,4,testConjL2Uns//dep_viol.r2.s1.0.wav,2.0,conjunction_un,unsyncopated,b,s1,no_rule,dep,L2,m,0.502,3.0,1.0,0.436,3.0,2.0,Castellano,0.0,Catalán,0.0,Inglés,8.0,3.0,5.0,no,no,no,nada,,,,nada,68.0,yes
32,2023-12-11_10h11.57.000,Unsyncopated_study2,s82,19.0,feminino,right,España,Castellano y catalán,Upper secondary,no,no,A,1,when,L4,unsyncopated,when,when,32,Online_whenL4//a.lo20.none.wav,re,po,ja,sil,de,ña,nu,sil1,pe,ru,sil2,['-'],,,none,none,,,,lo,2,testConjL2Uns//cat_viol.r1.s1.0.wav,2.0,conjunction_un,unsyncopated,a,s1,no_rule,cat,L2,z,0.338,5.0,0.0,0.734,3.0,2.0,Castellano,0.0,Catalán,0.0,Inglés,8.0,3.0,5.0,no,no,no,nada,,,,nada,68.0,yes
33,2023-12-11_10h11.57.000,Unsyncopated_study2,s82,19.0,feminino,right,España,Castellano y catalán,Upper secondary,no,no,A,1,when,L4,unsyncopated,when,when,33,Online_whenL4//a.lo22.444.wav,pe,ña,lo,sil,re,ñi,bo,sil1,ru,ja,sil2,['catch'],[1.0430000000000064],[1.0430000000000064],0.444,no_beat,0.5990000000000064,0.5990000000000064,"[""space""]",lo,2,testConjL2Uns//time_viol.r1.s1.0.wav,2.0,conjunction_un,unsyncopated,a,s1,no_rule,time,L2,m,1.053,4.0,1.0,0.518,3.0,2.0,Castellano,0.0,Catalán,0.0,Inglés,8.0,3.0,5.0,no,no,no,nada,,,,nada,68.0,yes
34,2023-12-11_10h11.57.000,Unsyncopated_study2,s82,19.0,feminino,right,España,Castellano y catalán,Upper secondary,no,no,A,1,when,L4,unsyncopated,when,when,34,Online_whenL4//a.lo21.1998.wav,ñi,zi,bu,sil,de,ru,po,sil1,ña,lo,sil2,['catch_delay'],[0.8140000000000247],[0.8140000000000247],1.998,no_beat,0.8140000000000247,0.8140000000000247,,lo,2,testConjL2Uns//r2.s1.0.wav,2.0,conjunction_un,unsyncopated,b,s1,rule,rule,L2,z,0.304,6.0,1.0,0.804,3.0,2.0,Castellano,0.0,Catalán,0.0,Inglés,8.0,3.0,5.0,no,no,no,nada,,,,nada,68.0,yes
35,2023-12-11_10h11.57.000,Unsyncopated_study2,s82,19.0,feminino,right,España,Castellano y catalán,Upper secondary,no,no,A,1,when,L4,unsyncopated,when,when,35,Online_whenL4//a.lo23.1332.wav,nu,ña,ci,sil,re,ñi,lo,sil1,pe,bu,sil2,['miss'],[0.14800000000002456],[0.14800000000002456],1.332,no_beat,,,"[""space""]",lo,2,testConjL2Uns//r1.s1.2.wav,2.0,conjunction_un,unsyncopated,a,s1,rule,rule,L2,z,0.599,5.0,1.0,0.373,3.0,2.0,Castellano,0.0,Catalán,0.0,Inglés,8.0,3.0,5.0,no,no,no,nada,,,,nada,68.0,yes
36,2023-12-11_10h11.57.000,Unsyncopated_study2,s82,19.0,feminino,right,España,Castellano y catalán,Upper secondary,no,no,A,1,when,L4,unsyncopated,when,when,36,Online_whenL4//c.bu29.none.wav,ja,nu,po,sil,da,re,de,sil1,ru,ci,sil2,['-'],,,none,none,,,,bu,3,testConjL2Uns//r2.s2.1.wav,2.0,conjunction_un,unsyncopated,b,s2,rule,rule,L2,z,0.353,6.0,1.0,0.286,3.0,2.0,Castellano,0.0,Catalán,0.0,Inglés,8.0,3.0,5.0,no,no,no,nada,,,,nada,68.0,yes
37,2023-12-11_10h11.57.000,Unsyncopated_study2,s82,19.0,feminino,right,España,Castellano y catalán,Upper secondary,no,no,A,1,when,L4,unsyncopated,when,when,37,Online_whenL4//c.bu31.none.wav,ru,bo,ci,sil,lo,po,pe,sil1,zi,ña,sil2,['-'],,,none,none,,,,bu,3,testConjL2Uns//r2.s1.2.wav,2.0,conjunction_un,unsyncopated,b,s1,rule,rule,L2,m,1.487,2.0,0.0,1.034,3.0,2.0,Castellano,0.0,Catalán,0.0,Inglés,8.0,3.0,5.0,no,no,no,nada,,,,nada,68.0,yes
38,2023-12-11_10h11.57.000,Unsyncopated_study2,s82,19.0,feminino,right,España,Castellano y catalán,Upper secondary,no,no,A,1,when,L4,unsyncopated,when,when,38,Online_whenL4//c.bu28.1998.wav,ñi,re,ru,sil,ja,zi,ña,sil1,pe,bu,sil2,['catch'],[2.5820000000001073],[2.5820000000001073],1.998,no_beat,0.5840000000001073,0.5840000000001073,"[""space""]",bu,3,testConjL2Uns//r1.s1.0.wav,2.0,conjunction_un,unsyncopated,a,s1,rule,rule,L2,z,1.485,3.0,1.0,0.147,3.0,2.0,Castellano,0.0,Catalán,0.0,Inglés,8.0,3.0,5.0,no,no,no,nada,,,,nada,68.0,yes
39,2023-12-11_10h11.57.000,Unsyncopated_study2,s82,19.0,feminino,right,España,Castellano y catalán,Upper secondary,no,no,A,1,when,L4,unsyncopated,when,when,39,Online_whenL4//c.bu30.none.wav,ña,ru,lo,sil,bo,ci,ñi,sil1,nu,po,sil2,['-'],,,none,none,,,,bu,3,testConjL2Uns//r1.s1.1.wav,2.0,conjunction_un,unsyncopated,a,s1,rule,rule,L2,z,0.323,5.0,1.0,0.303,3.0,2.0,Castellano,0.0,Catalán,0.0,Inglés,8.0,3.0,5.0,no,no,no,nada,,,,nada,68.0,yes
40,2023-12-11_10h11.57.000,Unsyncopated_study2,s82,19.0,feminino,right,España,Castellano y catalán,Upper secondary,no,no,A,1,when,L4,unsyncopated,when,when,40,Online_whenL4//c.bu22.none.wav,nu,ci,ña,sil,re,ñi,ru,sil1,zi,pe,sil2,['-'],,,none,none,,,,bu,3,testConjL2Uns//time_viol.r2.s2.0.wav,2.0,conjunction_un,unsyncopated,b,s2,no_rule,time,L2,m,1.616,4.0,1.0,0.402,3.0,2.0,Castellano,0.0,Catalán,0.0,Inglés,8.0,3.0,5.0,no,no,no,nada,,,,nada,68.0,yes
41,2023-12-11_10h11.57.000,Unsyncopated_study2,s82,19.0,feminino,right,España,Castellano y catalán,Upper secondary,no,no,A,1,when,L4,unsyncopated,when,when,41,Online_whenL4//c.bu21.1332.wav,zi,pe,ci,sil,ña,nu,bu,sil1,bo,ru,sil2,['miss'],,,1.332,no_beat,,,,bu,3,testConjL2Uns//dep_viol.r1.s2.0.wav,2.0,conjunction_un,unsyncopated,a,s2,no_rule,dep,L2,m,0.438,3.0,1.0,0.519,3.0,2.0,Castellano,0.0,Catalán,0.0,Inglés,8.0,3.0,5.0,no,no,no,nada,,,,nada,68.0,yes
42,2023-12-11_10h11.57.000,Unsyncopated_study2,s82,19.0,feminino,right,España,Castellano y catalán,Upper secondary,no,no,A,1,when,L4,unsyncopated,when,when,42,Online_whenL4//c.bu20.1332.wav,lo,re,ru,sil,ña,de,bu,sil1,zi,ci,sil2,['miss'],,,1.332,no_beat,,,,bu,3,testConjL2Uns//r1.s2.0.wav,2.0,conjunction_un,unsyncopated,a,s2,rule,rule,L2,z,0.409,6.0,1.0,0.423,3.0,2.0,Castellano,0.0,Catalán,0.0,Inglés,8.0,3.0,5.0,no,no,no,nada,,,,nada,68.0,yes
43,2023-12-11_10h11.57.000,Unsyncopated_study2,s82,19.0,feminino,right,España,Castellano y catalán,Upper secondary,no,no,A,1,when,L4,unsyncopated,when,when,43,Online_whenL4//c.bu23.none.wav,ña,nu,pe,sil,ru,ja,bo,sil1,re,ñi,sil2,['-'],,,none,none,,,,bu,3,testConjL2Uns//r1.s2.2.wav,2.0,conjunction_un,unsyncopated,a,s2,rule,rule,L2,z,0.399,5.0,1.0,0.318,3.0,2.0,Castellano,0.0,Catalán,0.0,Inglés,8.0,3.0,5.0,no,no,no,nada,,,,nada,68.0,yes
44,2023-12-11_10h11.57.000,Unsyncopated_study2,s82,19.0,feminino,right,España,Castellano y catalán,Upper secondary,no,no,A,1,when,L4,unsyncopated,when,when,44,Online_whenL4//b.ja16.1110.wav,re,ci,bu,sil,de,ja,ru,sil1,pe,nu,sil2,"['false alarm', 'catch']","[1.0340000000001055, 2.032000000000039]",[2.032000000000039],1.11,no_beat,0.922000000000039,0.922000000000039,"[""space"",""space""]",ja,1,testConjL2Uns//r2.s2.0.wav,2.0,conjunction_un,unsyncopated,b,s2,rule,rule,L2,z,0.235,4.0,1.0,0.234,3.0,2.0,Castellano,0.0,Catalán,0.0,Inglés,8.0,3.0,5.0,no,no,no,nada,,,,nada,68.0,yes
45,2023-12-11_10h11.57.000,Unsyncopated_study2,s82,19.0,feminino,right,España,Castellano y catalán,Upper secondary,no,no,A,1,when,L4,unsyncopated,when,when,45,Online_whenL4//b.ja18.none.wav,bo,re,ru,sil,de,lo,zi,sil1,ci,ña,sil2,['-'],,,none,none,,,,ja,1,testConjL2Uns//time_viol.r2.s1.0.wav,2.0,conjunction_un,unsyncopated,b,s1,no_rule,time,L2,m,0.813,2.0,1.0,0.602,3.0,2.0,Castellano,0.0,Catalán,0.0,Inglés,8.0,3.0,5.0,no,no,no,nada,,,,nada,68.0,yes
46,2023-12-11_10h11.57.000,Unsyncopated_study2,s82,19.0,feminino,right,España,Castellano y catalán,Upper secondary,no,no,A,1,when,L4,unsyncopated,when,when,46,Online_whenL4//b.ja19.none.wav,ñi,da,nu,sil,ña,bo,de,sil1,po,lo,sil2,['-'],,,none,none,,,,ja,1,testConjL2Uns//cat_viol.r1.s2.0.wav,2.0,conjunction_un,unsyncopated,a,s2,no_rule,cat,L2,m,0.786,4.0,1.0,0.92,3.0,2.0,Castellano,0.0,Catalán,0.0,Inglés,8.0,3.0,5.0,no,no,no,nada,,,,nada,68.0,yes
47,2023-12-11_10h11.57.000,Unsyncopated_study2,s82,19.0,feminino,right,España,Castellano y catalán,Upper secondary,no,no,A,1,when,L4,unsyncopated,when,when,47,Online_whenL4//b.ja17.none.wav,pe,ru,ñi,sil,zi,lo,re,sil1,de,bu,sil2,['-'],,,none,none,,,,ja,1,testConjL2Uns//r1.s2.1.wav,2.0,conjunction_un,unsyncopated,a,s2,rule,rule,L2,z,0.602,4.0,1.0,0.383,3.0,2.0,Castellano,0.0,Catalán,0.0,Inglés,8.0,3.0,5.0,no,no,no,nada,,,,nada,68.0,yes
48,2023-12-11_10h11.57.000,Unsyncopated_study2,s82,19.0,feminino,right,España,Castellano y catalán,Upper secondary,no,no,A,1,when,L4,unsyncopated,when,when,48,Online_whenL4//b.ja5.none.wav,re,pe,ña,sil,bu,po,ci,sil1,lo,nu,sil2,['-'],,,none,none,,,,ja,1,testWhatL3Uns//r2.s1.0.wav,3.0,what,unsyncopated,b,s1,rule,rule,L3,z,0.703,5.0,1.0,0.99,3.0,2.0,Castellano,0.0,Catalán,0.0,Inglés,8.0,3.0,5.0,no,no,no,nada,,,,nada,68.0,yes
49,2023-12-11_10h11.57.000,Unsyncopated_study2,s82,19.0,feminino,right,España,Castellano y catalán,Upper secondary,no,no,A,1,when,L4,unsyncopated,when,when,49,Online_whenL4//b.ja6.1332.wav,pe,ña,de,sil,bo,ci,ja,sil1,lo,po,sil2,['catch'],[1.7799999999999727],[1.7799999999999727],1.332,no_beat,0.4479999999999726,0.4479999999999726,"[""space""]",ja,1,testWhatL3Uns//r1.s2.2.wav,3.0,what,unsyncopated,a,s2,rule,rule,L3,m,0.686,3.0,0.0,1.168,3.0,2.0,Castellano,0.0,Catalán,0.0,Inglés,8.0,3.0,5.0,no,no,no,nada,,,,nada,68.0,yes
50,2023-12-11_10h11.57.000,Unsyncopated_study2,s82,19.0,feminino,right,España,Castellano y catalán,Upper secondary,no,no,A,1,when,L4,unsyncopated,when,when,50,Online_whenL4//b.ja7.none.wav,de,bo,zi,sil,ru,pe,da,sil1,po,nu,sil2,['-'],,,none,none,,,,ja,1,testWhatL3Uns//dep_viol.r2.s1.0.wav,3.0,what,unsyncopated,b,s1,no_rule,dep,L3,z,0.701,5.0,0.0,0.304,3.0,2.0,Castellano,0.0,Catalán,0.0,Inglés,8.0,3.0,5.0,no,no,no,nada,,,,nada,68.0,yes
51,2023-12-11_10h11.57.000,Unsyncopated_study2,s82,19.0,feminino,right,España,Castellano y catalán,Upper secondary,no,no,A,1,when,L4,unsyncopated,when,when,51,Online_whenL4//b.ja4.none.wav,ñi,nu,ru,sil,po,de,da,sil1,re,lo,sil2,['-'],,,none,none,,,,ja,1,testWhatL3Uns//dep_viol.r2.s2.0.wav,3.0,what,unsyncopated,b,s2,no_rule,dep,L3,m,0.298,4.0,1.0,0.45,3.0,2.0,Castellano,0.0,Catalán,0.0,Inglés,8.0,3.0,5.0,no,no,no,nada,,,,nada,68.0,yes
52,2023-12-11_10h11.57.000,Unsyncopated_study2,s82,19.0,feminino,right,España,Castellano y catalán,Upper secondary,no,no,A,1,when,L4,unsyncopated,when,when,52,Online_whenL4//a.lo31.none.wav,re,de,zi,sil,ru,pe,da,sil1,ci,nu,sil2,['-'],,,none,none,,,,lo,2,testWhatL3Uns//r1.s2.0.wav,3.0,what,unsyncopated,a,s2,rule,rule,L3,z,1.133,6.0,1.0,0.285,3.0,2.0,Castellano,0.0,Catalán,0.0,Inglés,8.0,3.0,5.0,no,no,no,nada,,,,nada,68.0,yes
53,2023-12-11_10h11.57.000,Unsyncopated_study2,s82,19.0,feminino,right,España,Castellano y catalán,Upper secondary,no,no,A,1,when,L4,unsyncopated,when,when,53,Online_whenL4//a.lo29.none.wav,pe,ña,ru,sil,de,zi,ñi,sil1,nu,re,sil2,['-'],,,none,none,,,,lo,2,testWhatL3Uns//time_viol.r1.s2.0.wav,3.0,what,unsyncopated,a,s2,no_rule,time,L3,m,0.67,4.0,1.0,0.199,3.0,2.0,Castellano,0.0,Catalán,0.0,Inglés,8.0,3.0,5.0,no,no,no,nada,,,,nada,68.0,yes
54,2023-12-11_10h11.57.000,Unsyncopated_study2,s82,19.0,feminino,right,España,Castellano y catalán,Upper secondary,no,no,A,1,when,L4,unsyncopated,when,when,54,Online_whenL4//a.lo30.none.wav,de,re,ru,sil,pe,ñi,zi,sil1,bo,nu,sil2,['-'],,,none,none,,,,lo,2,testWhatL3Uns//r2.s2.0.wav,3.0,what,unsyncopated,b,s2,rule,rule,L3,m,1.966,4.0,0.0,0.59,3.0,2.0,Castellano,0.0,Catalán,0.0,Inglés,8.0,3.0,5.0,no,no,no,nada,,,,nada,68.0,yes
55,2023-12-11_10h11.57.000,Unsyncopated_study2,s82,19.0,feminino,right,España,Castellano y catalán,Upper secondary,no,no,A,1,when,L4,unsyncopated,when,when,55,Online_whenL4//a.lo28.1110.wav,ña,nu,da,sil,ci,lo,po,sil1,re,pe,sil2,['catch'],[1.6270000000000664],[1.6270000000000664],1.11,no_beat,0.5170000000000663,0.5170000000000663,"[""space""]",lo,2,testWhatL3Uns//time_viol.r1.s1.0.wav,3.0,what,unsyncopated,a,s1,no_rule,time,L3,z,0.353,5.0,0.0,0.519,3.0,2.0,Castellano,0.0,Catalán,0.0,Inglés,8.0,3.0,5.0,no,no,no,nada,,,,nada,68.0,yes
56,2023-12-11_10h11.57.000,Unsyncopated_study2,s82,19.0,feminino,right,España,Castellano y catalán,Upper secondary,no,no,A,1,when,L4,unsyncopated,when,when,56,Online_whenL4//c.bu3.none.wav,ja,de,pe,sil,ña,ñi,bo,sil1,nu,po,sil2,['-'],,,none,none,,,,bu,3,testWhatL3Uns//cat_viol.r2.s1.0.wav,3.0,what,unsyncopated,b,s1,no_rule,cat,L3,m,0.719,3.0,1.0,0.353,3.0,2.0,Castellano,0.0,Catalán,0.0,Inglés,8.0,3.0,5.0,no,no,no,nada,,,,nada,68.0,yes
57,2023-12-11_10h11.57.000,Unsyncopated_study2,s82,19.0,feminino,right,España,Castellano y catalán,Upper secondary,no,no,A,1,when,L4,unsyncopated,when,when,57,Online_whenL4//c.bu1.none.wav,lo,pe,po,sil,ci,ja,de,sil1,bo,ru,sil2,['-'],,,none,none,,,,bu,3,testWhatL3Uns//r1.s1.0.wav,3.0,what,unsyncopated,a,s1,rule,rule,L3,z,0.43,5.0,1.0,0.216,3.0,2.0,Castellano,0.0,Catalán,0.0,Inglés,8.0,3.0,5.0,no,no,no,nada,,,,nada,68.0,yes
58,2023-12-11_10h11.57.000,Unsyncopated_study2,s82,19.0,feminino,right,España,Castellano y catalán,Upper secondary,no,no,A,1,when,L4,unsyncopated,when,when,58,Online_whenL4//c.bu0.888.wav,ci,ñi,ja,sil,bu,da,ru,sil1,po,nu,sil2,['false alarm'],[0.045999999999935426],[0.045999999999935426],0.888,beat,,,"[""space""]",bu,3,testWhatL3Uns//time_viol.r2.s2.0.wav,3.0,what,unsyncopated,b,s2,no_rule,time,L3,z,0.685,5.0,0.0,0.202,3.0,2.0,Castellano,0.0,Catalán,0.0,Inglés,8.0,3.0,5.0,no,no,no,nada,,,,nada,68.0,yes
59,2023-12-11_10h11.57.000,Unsyncopated_study2,s82,19.0,feminino,right,España,Castellano y catalán,Upper secondary,no,no,A,1,when,L4,unsyncopated,when,when,59,Online_whenL4//c.bu2.1110.wav,lo,bo,ci,sil,da,bu,ñi,sil1,ja,de,sil2,['catch'],[2.05600000000004],[2.05600000000004],1.11,no_beat,0.94600000000004,0.94600000000004,"[""space""]",bu,3,testWhatL3Uns//r2.s1.2.wav,3.0,what,unsyncopated,b,s1,rule,rule,L3,z,2.898,4.0,1.0,0.82,3.0,2.0,Castellano,0.0,Catalán,0.0,Inglés,8.0,3.0,5.0,no,no,no,nada,,,,nada,68.0,yes
60,2023-12-11_10h11.57.000,Unsyncopated_study2,s82,19.0,feminino,right,España,Castellano y catalán,Upper secondary,no,no,A,1,when,L4,unsyncopated,when,when,60,Online_whenL4//d.pe24.0.wav,pe,de,re,sil,zi,ña,bo,sil1,ja,ñi,sil2,['catch'],[0.7609999999999673],[0.7609999999999673],0.0,beat,0.7609999999999673,0.7609999999999673,"[""space""]",pe,4,testWhatL3Uns//cat_viol.r1.s2.0.wav,3.0,what,unsyncopated,a,s2,no_rule,cat,L3,m,0.89,4.0,1.0,1.135,3.0,2.0,Castellano,0.0,Catalán,0.0,Inglés,8.0,3.0,5.0,no,no,no,nada,,,,nada,68.0,yes
61,2023-12-11_10h11.57.000,Unsyncopated_study2,s82,19.0,feminino,right,España,Castellano y catalán,Upper secondary,no,no,A,1,when,L4,unsyncopated,when,when,61,Online_whenL4//d.pe27.222.wav,ru,pe,nu,sil,zi,ña,ci,sil1,ñi,bu,sil2,['miss'],,,0.222,no_beat,,,,pe,4,testWhatL3Uns//r2.s1.1.wav,3.0,what,unsyncopated,b,s1,rule,rule,L3,z,0.769,4.0,1.0,0.202,3.0,2.0,Castellano,0.0,Catalán,0.0,Inglés,8.0,3.0,5.0,no,no,no,nada,,,,nada,68.0,yes
62,2023-12-11_10h11.57.000,Unsyncopated_study2,s82,19.0,feminino,right,España,Castellano y catalán,Upper secondary,no,no,A,1,when,L4,unsyncopated,when,when,62,Online_whenL4//d.pe25.none.wav,re,bu,ja,sil,da,bo,ci,sil1,nu,ru,sil2,['-'],,,none,none,,,,pe,4,testWhatL3Uns//dep_viol.r1.s2.0.wav,3.0,what,unsyncopated,a,s2,no_rule,dep,L3,m,1.213,5.0,1.0,0.204,3.0,2.0,Castellano,0.0,Catalán,0.0,Inglés,8.0,3.0,5.0,no,no,no,nada,,,,nada,68.0,yes
63,2023-12-11_10h11.57.000,Unsyncopated_study2,s82,19.0,feminino,right,España,Castellano y catalán,Upper secondary,no,no,A,1,when,L4,unsyncopated,when,when,63,Online_whenL4//d.pe26.none.wav,lo,re,ña,sil,bo,po,ñi,sil1,zi,da,sil2,['-'],,,none,none,,,,pe,4,testWhatL3Uns//dep_viol.r1.s1.0.wav,3.0,what,unsyncopated,a,s1,no_rule,dep,L3,z,0.785,4.0,0.0,0.517,3.0,2.0,Castellano,0.0,Catalán,0.0,Inglés,8.0,3.0,5.0,no,no,no,nada,,,,nada,68.0,yes
64,2023-12-11_10h11.57.000,Unsyncopated_study2,s82,19.0,feminino,right,España,Castellano y catalán,Upper secondary,no,no,A,1,when,L4,unsyncopated,when,when,64,Online_whenL4//c.bu11.none.wav,ña,pe,re,sil,nu,bo,lo,sil1,ci,de,sil2,['-'],,,none,none,,,,bu,3,testWhatL3Uns//r1.s2.1.wav,3.0,what,unsyncopated,a,s2,rule,rule,L3,m,1.132,5.0,0.0,0.499,3.0,2.0,Castellano,0.0,Catalán,0.0,Inglés,8.0,3.0,5.0,no,no,no,nada,,,,nada,68.0,yes
65,2023-12-11_10h11.57.000,Unsyncopated_study2,s82,19.0,feminino,right,España,Castellano y catalán,Upper secondary,no,no,A,1,when,L4,unsyncopated,when,when,65,Online_whenL4//c.bu8.444.wav,nu,bo,bu,sil,ñi,re,zi,sil1,pe,ci,sil2,['catch'],[1.05600000000004],[1.05600000000004],0.444,no_beat,0.6120000000000401,0.6120000000000401,"[""space""]",bu,3,testWhatL3Uns//cat_viol.r2.s2.0.wav,3.0,what,unsyncopated,b,s2,no_rule,cat,L3,z,1.236,5.0,0.0,0.307,3.0,2.0,Castellano,0.0,Catalán,0.0,Inglés,8.0,3.0,5.0,no,no,no,nada,,,,nada,68.0,yes
66,2023-12-11_10h11.57.000,Unsyncopated_study2,s82,19.0,feminino,right,España,Castellano y catalán,Upper secondary,no,no,A,1,when,L4,unsyncopated,when,when,66,Online_whenL4//c.bu9.444.wav,bo,ja,bu,sil,lo,re,pe,sil1,ci,po,sil2,['catch'],[1.1619999999999209],[1.1619999999999209],0.444,no_beat,0.7179999999999209,0.7179999999999209,"[""space""]",bu,3,testWhatL3Uns//r2.s2.2.wav,3.0,what,unsyncopated,b,s2,rule,rule,L3,m,1.252,3.0,0.0,0.203,3.0,2.0,Castellano,0.0,Catalán,0.0,Inglés,8.0,3.0,5.0,no,no,no,nada,,,,nada,68.0,yes
67,2023-12-11_10h11.57.000,Unsyncopated_study2,s82,19.0,feminino,right,España,Castellano y catalán,Upper secondary,no,no,A,1,when,L4,unsyncopated,when,when,67,Online_whenL4//c.bu10.0.wav,bu,ñi,da,sil,ña,ja,re,sil1,nu,ci,sil2,['catch'],[0.7239999999999327],[0.7239999999999327],0.0,beat,0.7239999999999327,0.7239999999999327,"[""space""]",bu,3,testWhatL3Uns//r1.s1.1.wav,3.0,what,unsyncopated,a,s1,rule,rule,L3,m,1.6,5.0,0.0,1.599,3.0,2.0,Castellano,0.0,Catalán,0.0,Inglés,8.0,3.0,5.0,no,no,no,nada,,,,nada,68.0,yes
68,2023-12-11_10h11.57.000,Unsyncopated_study2,s82,19.0,feminino,right,España,Castellano y catalán,Upper secondary,no,no,A,1,when,L4,unsyncopated,when,when,68,Online_whenL4//d.pe2.none.wav,ñi,ña,ru,sil,nu,da,po,sil1,de,ja,sil2,['-'],,,none,none,,,,pe,4,testWhatL3Uns//time_viol.r2.s1.0.wav,3.0,what,unsyncopated,b,s1,no_rule,time,L3,m,4.048,2.0,1.0,0.633,3.0,2.0,Castellano,0.0,Catalán,0.0,Inglés,8.0,3.0,5.0,no,no,no,nada,,,,nada,68.0,yes
69,2023-12-11_10h11.57.000,Unsyncopated_study2,s82,19.0,feminino,right,España,Castellano y catalán,Upper secondary,no,no,A,1,when,L4,unsyncopated,when,when,69,Online_whenL4//d.pe0.none.wav,ja,zi,ñi,sil,ru,ci,ña,sil1,da,bu,sil2,['-'],,,none,none,,,,pe,4,testWhatL3Uns//cat_viol.r1.s1.0.wav,3.0,what,unsyncopated,a,s1,no_rule,cat,L3,m,1.729,3.0,1.0,0.244,3.0,2.0,Castellano,0.0,Catalán,0.0,Inglés,8.0,3.0,5.0,no,no,no,nada,,,,nada,68.0,yes
70,2023-12-11_10h11.57.000,Unsyncopated_study2,s82,19.0,feminino,right,España,Castellano y catalán,Upper secondary,no,no,A,1,when,L4,unsyncopated,when,when,70,Online_whenL4//d.pe1.222.wav,bo,pe,bu,sil,ja,ña,ru,sil1,ñi,nu,sil2,['catch'],[0.9449999999999363],[0.9449999999999363],0.222,no_beat,0.7229999999999364,0.7229999999999364,"[""space""]",pe,4,testWhatL3Uns//r2.s2.1.wav,3.0,what,unsyncopated,b,s2,rule,rule,L3,z,0.75,5.0,1.0,0.686,3.0,2.0,Castellano,0.0,Catalán,0.0,Inglés,8.0,3.0,5.0,no,no,no,nada,,,,nada,68.0,yes
71,2023-12-11_10h11.57.000,Unsyncopated_study2,s82,19.0,feminino,right,España,Castellano y catalán,Upper secondary,no,no,A,1,when,L4,unsyncopated,when,when,71,Online_whenL4//d.pe3.888.wav,nu,bo,de,sil,pe,bu,po,sil1,da,zi,sil2,['catch'],[1.4920000000000755],[1.4920000000000755],0.888,beat,0.6040000000000755,0.6040000000000755,"[""space""]",pe,4,testWhatL3Uns//r1.s1.2.wav,3.0,what,unsyncopated,a,s1,rule,rule,L3,z,0.487,4.0,1.0,0.347,3.0,2.0,Castellano,0.0,Catalán,0.0,Inglés,8.0,3.0,5.0,no,no,no,nada,,,,nada,68.0,yes
72,2023-12-11_10h11.57.000,Unsyncopated_study2,s82,19.0,feminino,right,España,Castellano y catalán,Upper secondary,no,no,A,1,when,L4,unsyncopated,when,when,72,Online_whenL4//a.lo15.1776.wav,de,pe,da,sil,ñi,po,re,sil1,lo,ja,sil2,['catch'],[2.326999999999998],[2.326999999999998],1.776,beat,0.5509999999999982,0.5509999999999982,"[""space""]",lo,2,testConjL1Syn//r2.s1.2.wav,4.0,conjunction_syn,syncopated,b,s1,rule,rule,L1,z,0.802,6.0,1.0,1.706,3.0,2.0,Castellano,0.0,Catalán,0.0,Inglés,8.0,3.0,5.0,no,no,no,nada,,,,nada,68.0,yes
73,2023-12-11_10h11.57.000,Unsyncopated_study2,s82,19.0,feminino,right,España,Castellano y catalán,Upper secondary,no,no,A,1,when,L4,unsyncopated,when,when,73,Online_whenL4//a.lo12.none.wav,nu,bu,zi,sil,ñi,bo,ci,sil1,ru,ña,sil2,['-'],,,none,none,,,,lo,2,testConjL1Syn//r2.s2.0.wav,4.0,conjunction_syn,syncopated,b,s2,rule,rule,L1,m,0.684,5.0,0.0,2.252,3.0,2.0,Castellano,0.0,Catalán,0.0,Inglés,8.0,3.0,5.0,no,no,no,nada,,,,nada,68.0,yes
74,2023-12-11_10h11.57.000,Unsyncopated_study2,s82,19.0,feminino,right,España,Castellano y catalán,Upper secondary,no,no,A,1,when,L4,unsyncopated,when,when,74,Online_whenL4//a.lo14.none.wav,bu,ru,nu,sil,zi,bo,pe,sil1,da,ñi,sil2,['-'],,,none,none,,,,lo,2,testConjL1Syn//r1.s1.2.wav,4.0,conjunction_syn,syncopated,a,s1,rule,rule,L1,z,1.302,4.0,1.0,2.084,3.0,2.0,Castellano,0.0,Catalán,0.0,Inglés,8.0,3.0,5.0,no,no,no,nada,,,,nada,68.0,yes
75,2023-12-11_10h11.57.000,Unsyncopated_study2,s82,19.0,feminino,right,España,Castellano y catalán,Upper secondary,no,no,A,1,when,L4,unsyncopated,when,when,75,Online_whenL4//a.lo13.1776.wav,re,ña,ru,sil,ci,ja,ñi,sil1,lo,pe,sil2,['catch'],[2.2759999999999536],[2.2759999999999536],1.776,beat,0.4999999999999536,0.4999999999999536,"[""space""]",lo,2,testConjL1Syn//r2.s1.1.wav,4.0,conjunction_syn,syncopated,b,s1,rule,rule,L1,z,0.669,5.0,1.0,1.019,3.0,2.0,Castellano,0.0,Catalán,0.0,Inglés,8.0,3.0,5.0,no,no,no,nada,,,,nada,68.0,yes
76,2023-12-11_10h11.57.000,Unsyncopated_study2,s82,19.0,feminino,right,España,Castellano y catalán,Upper secondary,no,no,A,1,when,L4,unsyncopated,when,when,76,Online_whenL4//a.lo27.none.wav,ci,nu,ñi,sil,da,ru,ja,sil1,po,bu,sil2,['-'],,,none,none,,,,lo,2,testConjL1Syn//cat_viol.r1.s2.0.wav,4.0,conjunction_syn,syncopated,a,s2,no_rule,cat,L1,z,0.738,6.0,0.0,0.808,3.0,2.0,Castellano,0.0,Catalán,0.0,Inglés,8.0,3.0,5.0,no,no,no,nada,,,,nada,68.0,yes
77,2023-12-11_10h11.57.000,Unsyncopated_study2,s82,19.0,feminino,right,España,Castellano y catalán,Upper secondary,no,no,A,1,when,L4,unsyncopated,when,when,77,Online_whenL4//a.lo24.1776.wav,de,ja,ci,sil,re,ña,po,sil1,lo,bu,sil2,['catch'],[2.4080000000000155],[2.4080000000000155],1.776,beat,0.6320000000000154,0.6320000000000154,"[""space""]",lo,2,testConjL1Syn//cat_viol.r1.s1.0.wav,4.0,conjunction_syn,syncopated,a,s1,no_rule,cat,L1,m,0.403,3.0,1.0,0.518,3.0,2.0,Castellano,0.0,Catalán,0.0,Inglés,8.0,3.0,5.0,no,no,no,nada,,,,nada,68.0,yes
78,2023-12-11_10h11.57.000,Unsyncopated_study2,s82,19.0,feminino,right,España,Castellano y catalán,Upper secondary,no,no,A,1,when,L4,unsyncopated,when,when,78,Online_whenL4//a.lo26.1998.wav,po,ja,bu,sil,ci,pe,ru,sil1,ñi,lo,sil2,['miss'],,,1.998,no_beat,,,,lo,2,testConjL1Syn//r2.s1.0.wav,4.0,conjunction_syn,syncopated,b,s1,rule,rule,L1,z,0.808,5.0,1.0,0.685,3.0,2.0,Castellano,0.0,Catalán,0.0,Inglés,8.0,3.0,5.0,no,no,no,nada,,,,nada,68.0,yes
79,2023-12-11_10h11.57.000,Unsyncopated_study2,s82,19.0,feminino,right,España,Castellano y catalán,Upper secondary,no,no,A,1,when,L4,unsyncopated,when,when,79,Online_whenL4//a.lo25.none.wav,ñi,ja,ru,sil,bo,ci,ña,sil1,de,zi,sil2,['-'],,,none,none,,,,lo,2,testConjL1Syn//time_viol.r1.s1.0.wav,4.0,conjunction_syn,syncopated,a,s1,no_rule,time,L1,z,0.552,5.0,0.0,0.552,3.0,2.0,Castellano,0.0,Catalán,0.0,Inglés,8.0,3.0,5.0,no,no,no,nada,,,,nada,68.0,yes
80,2023-12-11_10h11.57.000,Unsyncopated_study2,s82,19.0,feminino,right,España,Castellano y catalán,Upper secondary,no,no,A,1,when,L4,unsyncopated,when,when,80,Online_whenL4//a.lo35.none.wav,zi,pe,ru,sil,bu,ñi,ja,sil1,ña,po,sil2,['-'],,,none,none,,,,lo,2,testConjL1Syn//cat_viol.r2.s2.0.wav,4.0,conjunction_syn,syncopated,b,s2,no_rule,cat,L1,m,0.334,4.0,1.0,1.399,3.0,2.0,Castellano,0.0,Catalán,0.0,Inglés,8.0,3.0,5.0,no,no,no,nada,,,,nada,68.0,yes
81,2023-12-11_10h11.57.000,Unsyncopated_study2,s82,19.0,feminino,right,España,Castellano y catalán,Upper secondary,no,no,A,1,when,L4,unsyncopated,when,when,81,Online_whenL4//a.lo33.888.wav,ñi,bu,nu,sil,lo,de,ña,sil1,ci,po,sil2,['miss'],,,0.888,beat,,,,lo,2,testConjL1Syn//r1.s2.2.wav,4.0,conjunction_syn,syncopated,a,s2,rule,rule,L1,m,0.318,5.0,0.0,0.935,3.0,2.0,Castellano,0.0,Catalán,0.0,Inglés,8.0,3.0,5.0,no,no,no,nada,,,,nada,68.0,yes
82,2023-12-11_10h11.57.000,Unsyncopated_study2,s82,19.0,feminino,right,España,Castellano y catalán,Upper secondary,no,no,A,1,when,L4,unsyncopated,when,when,82,Online_whenL4//a.lo32.1776.wav,bu,pe,ru,sil,ñi,po,ci,sil1,lo,ja,sil2,['catch'],[2.419999999999959],[2.419999999999959],1.776,beat,0.643999999999959,0.643999999999959,"[""space""]",lo,2,testConjL1Syn//dep_viol.r2.s2.0.wav,4.0,conjunction_syn,syncopated,b,s2,no_rule,dep,L1,z,1.053,3.0,0.0,1.084,3.0,2.0,Castellano,0.0,Catalán,0.0,Inglés,8.0,3.0,5.0,no,no,no,nada,,,,nada,68.0,yes
83,2023-12-11_10h11.57.000,Unsyncopated_study2,s82,19.0,feminino,right,España,Castellano y catalán,Upper secondary,no,no,A,1,when,L4,unsyncopated,when,when,83,Online_whenL4//a.lo34.0.wav,lo,po,ña,sil,de,ci,pe,sil1,ñi,nu,sil2,['catch'],[0.7580000000000382],[0.7580000000000382],0.0,beat,0.7580000000000382,0.7580000000000382,"[""space""]",lo,2,testConjL1Syn//dep_viol.r2.s1.0.wav,4.0,conjunction_syn,syncopated,b,s1,no_rule,dep,L1,z,0.535,5.0,0.0,0.535,3.0,2.0,Castellano,0.0,Catalán,0.0,Inglés,8.0,3.0,5.0,no,no,no,nada,,,,nada,68.0,yes
84,2023-12-11_10h11.57.000,Unsyncopated_study2,s82,19.0,feminino,right,España,Castellano y catalán,Upper secondary,no,no,A,1,when,L4,unsyncopated,when,when,84,Online_whenL4//b.ja24.444.wav,bu,nu,ja,sil,ci,pe,de,sil1,po,ña,sil2,['miss'],,,0.444,no_beat,,,,ja,1,testConjL1Syn//r2.s2.2.wav,4.0,conjunction_syn,syncopated,b,s2,rule,rule,L1,m,0.321,2.0,0.0,0.397,3.0,2.0,Castellano,0.0,Catalán,0.0,Inglés,8.0,3.0,5.0,no,no,no,nada,,,,nada,68.0,yes
85,2023-12-11_10h11.57.000,Unsyncopated_study2,s82,19.0,feminino,right,España,Castellano y catalán,Upper secondary,no,no,A,1,when,L4,unsyncopated,when,when,85,Online_whenL4//b.ja25.none.wav,ru,zi,bo,sil,bu,nu,po,sil1,ñi,re,sil2,['-'],,,none,none,,,,ja,1,testConjL1Syn//dep_viol.r1.s1.0.wav,4.0,conjunction_syn,syncopated,a,s1,no_rule,dep,L1,m,0.813,5.0,1.0,1.44,3.0,2.0,Castellano,0.0,Catalán,0.0,Inglés,8.0,3.0,5.0,no,no,no,nada,,,,nada,68.0,yes
86,2023-12-11_10h11.57.000,Unsyncopated_study2,s82,19.0,feminino,right,España,Castellano y catalán,Upper secondary,no,no,A,1,when,L4,unsyncopated,when,when,86,Online_whenL4//b.ja26.none.wav,bu,ru,de,sil,zi,bo,re,sil1,ci,nu,sil2,['-'],,,none,none,,,,ja,1,testConjL1Syn//r1.s1.0.wav,4.0,conjunction_syn,syncopated,a,s1,rule,rule,L1,z,0.698,4.0,1.0,0.32,3.0,2.0,Castellano,0.0,Catalán,0.0,Inglés,8.0,3.0,5.0,no,no,no,nada,,,,nada,68.0,yes
87,2023-12-11_10h11.57.000,Unsyncopated_study2,s82,19.0,feminino,right,España,Castellano y catalán,Upper secondary,no,no,A,1,when,L4,unsyncopated,when,when,87,Online_whenL4//b.ja27.444.wav,bu,ñi,ja,sil,ci,ru,ña,sil1,bo,zi,sil2,['miss'],,,0.444,no_beat,,,,ja,1,testConjL1Syn//time_viol.r2.s2.0.wav,4.0,conjunction_syn,syncopated,b,s2,no_rule,time,L1,z,0.955,5.0,0.0,0.616,3.0,2.0,Castellano,0.0,Catalán,0.0,Inglés,8.0,3.0,5.0,no,no,no,nada,,,,nada,68.0,yes
88,2023-12-11_10h11.57.000,Unsyncopated_study2,s82,19.0,feminino,right,España,Castellano y catalán,Upper secondary,no,no,A,1,when,L4,unsyncopated,when,when,88,Online_whenL4//d.pe5.444.wav,bu,nu,pe,sil,ci,da,re,sil1,de,lo,sil2,['catch'],[0.7889999999999873],[0.7889999999999873],0.444,no_beat,0.3449999999999872,0.3449999999999872,"[""space""]",pe,4,testConjL1Syn//cat_viol.r2.s1.0.wav,4.0,conjunction_syn,syncopated,b,s1,no_rule,cat,L1,z,0.833,6.0,0.0,0.285,3.0,2.0,Castellano,0.0,Catalán,0.0,Inglés,8.0,3.0,5.0,no,no,no,nada,,,,nada,68.0,yes
89,2023-12-11_10h11.57.000,Unsyncopated_study2,s82,19.0,feminino,right,España,Castellano y catalán,Upper secondary,no,no,A,1,when,L4,unsyncopated,when,when,89,Online_whenL4//d.pe7.1998.wav,da,lo,ña,sil,bu,ñi,ru,sil1,ja,pe,sil2,['catch'],[2.4780000000000655],[2.4780000000000655],1.998,no_beat,0.4800000000000655,0.4800000000000655,"[""space""]",pe,4,testConjL1Syn//r1.s2.1.wav,4.0,conjunction_syn,syncopated,a,s2,rule,rule,L1,z,0.398,5.0,1.0,0.634,3.0,2.0,Castellano,0.0,Catalán,0.0,Inglés,8.0,3.0,5.0,no,no,no,nada,,,,nada,68.0,yes
90,2023-12-11_10h11.57.000,Unsyncopated_study2,s82,19.0,feminino,right,España,Castellano y catalán,Upper secondary,no,no,A,1,when,L4,unsyncopated,when,when,90,Online_whenL4//d.pe4.1110.wav,da,ru,ja,sil,nu,pe,ña,sil1,ñi,de,sil2,['catch'],[1.6589999999999918],[1.6589999999999918],1.11,no_beat,0.5489999999999917,0.5489999999999917,"[""space""]",pe,4,testConjL1Syn//time_viol.r2.s1.0.wav,4.0,conjunction_syn,syncopated,b,s1,no_rule,time,L1,z,1.919,4.0,0.0,0.319,3.0,2.0,Castellano,0.0,Catalán,0.0,Inglés,8.0,3.0,5.0,no,no,no,nada,,,,nada,68.0,yes
91,2023-12-11_10h11.57.000,Unsyncopated_study2,s82,19.0,feminino,right,España,Castellano y catalán,Upper secondary,no,no,A,1,when,L4,unsyncopated,when,when,91,Online_whenL4//d.pe6.1110.wav,da,lo,nu,sil,po,pe,ci,sil1,bo,ña,sil2,['miss'],,,1.11,no_beat,,,,pe,4,testConjL1Syn//r1.s2.0.wav,4.0,conjunction_syn,syncopated,a,s2,rule,rule,L1,m,1.503,4.0,0.0,0.916,3.0,2.0,Castellano,0.0,Catalán,0.0,Inglés,8.0,3.0,5.0,no,no,no,nada,,,,nada,68.0,yes
92,2023-12-11_10h11.57.000,Unsyncopated_study2,s82,19.0,feminino,right,España,Castellano y catalán,Upper secondary,no,no,A,1,when,L4,unsyncopated,when,when,92,Online_whenL4//c.bu7.none.wav,lo,ci,ja,sil,pe,ñi,da,sil1,re,ru,sil2,['-'],,,none,none,,,,bu,3,testConjL1Syn//r1.s1.1.wav,4.0,conjunction_syn,syncopated,a,s1,rule,rule,L1,m,0.751,3.0,0.0,0.322,3.0,2.0,Castellano,0.0,Catalán,0.0,Inglés,8.0,3.0,5.0,no,no,no,nada,,,,nada,68.0,yes
93,2023-12-11_10h11.57.000,Unsyncopated_study2,s82,19.0,feminino,right,España,Castellano y catalán,Upper secondary,no,no,A,1,when,L4,unsyncopated,when,when,93,Online_whenL4//c.bu5.444.wav,ci,ñi,bu,sil,po,nu,ña,sil1,pe,zi,sil2,['catch'],[0.8269999999999982],[0.8269999999999982],0.444,no_beat,0.3829999999999982,0.3829999999999982,"[""space""]",bu,3,testConjL1Syn//r2.s2.1.wav,4.0,conjunction_syn,syncopated,b,s2,rule,rule,L1,z,0.326,5.0,1.0,0.149,3.0,2.0,Castellano,0.0,Catalán,0.0,Inglés,8.0,3.0,5.0,no,no,no,nada,,,,nada,68.0,yes
94,2023-12-11_10h11.57.000,Unsyncopated_study2,s82,19.0,feminino,right,España,Castellano y catalán,Upper secondary,no,no,A,1,when,L4,unsyncopated,when,when,94,Online_whenL4//c.bu6.none.wav,nu,de,ci,sil,ru,zi,ña,sil1,po,ñi,sil2,['-'],,,none,none,,,,bu,3,testConjL1Syn//time_viol.r1.s2.0.wav,4.0,conjunction_syn,syncopated,a,s2,no_rule,time,L1,z,0.734,5.0,0.0,0.569,3.0,2.0,Castellano,0.0,Catalán,0.0,Inglés,8.0,3.0,5.0,no,no,no,nada,,,,nada,68.0,yes
95,2023-12-11_10h11.57.000,Unsyncopated_study2,s82,19.0,feminino,right,España,Castellano y catalán,Upper secondary,no,no,A,1,when,L4,unsyncopated,when,when,95,Online_whenL4//c.bu4.none.wav,ru,ña,ja,sil,ñi,de,ci,sil1,po,zi,sil2,['-'],,,none,none,,,,bu,3,testConjL1Syn//dep_viol.r1.s2.0.wav,4.0,conjunction_syn,syncopated,a,s2,no_rule,dep,L1,z,1.403,4.0,0.0,1.135,3.0,2.0,Castellano,0.0,Catalán,0.0,Inglés,8.0,3.0,5.0,no,no,no,nada,,,,nada,68.0,yes
96,2023-12-11_10h11.57.000,Unsyncopated_study2,s82,19.0,feminino,right,España,Castellano y catalán,Upper secondary,no,no,A,1,when,L4,unsyncopated,when,when,96,Online_whenL4//a.lo6.none.wav,ñi,ja,ña,sil,de,re,po,sil1,nu,bo,sil2,['-'],,,none,none,,,,lo,2,,,,,,,,,,,,,,,3.0,2.0,Castellano,0.0,Catalán,0.0,Inglés,8.0,3.0,5.0,no,no,no,nada,,,,nada,68.0,yes
97,2023-12-11_10h11.57.000,Unsyncopated_study2,s82,19.0,feminino,right,España,Castellano y catalán,Upper secondary,no,no,A,1,when,L4,unsyncopated,when,when,97,Online_whenL4//a.lo4.none.wav,bo,ñi,pe,sil,ja,re,ru,sil1,nu,da,sil2,['-'],,,none,none,,,,lo,2,,,,,,,,,,,,,,,3.0,2.0,Castellano,0.0,Catalán,0.0,Inglés,8.0,3.0,5.0,no,no,no,nada,,,,nada,68.0,yes
98,2023-12-11_10h11.57.000,Unsyncopated_study2,s82,19.0,feminino,right,España,Castellano y catalán,Upper secondary,no,no,A,1,when,L4,unsyncopated,when,when,98,Online_whenL4//a.lo5.1998.wav,ci,bu,zi,sil,ru,bo,pe,sil1,de,lo,sil2,['catch_delay'],[0.9880000000000029],[0.9880000000000029],1.998,no_beat,0.9880000000000028,0.9880000000000028,,lo,2,,,,,,,,,,,,,,,3.0,2.0,Castellano,0.0,Catalán,0.0,Inglés,8.0,3.0,5.0,no,no,no,nada,,,,nada,68.0,yes
99,2023-12-11_10h11.57.000,Unsyncopated_study2,s82,19.0,feminino,right,España,Castellano y catalán,Upper secondary,no,no,A,1,when,L4,unsyncopated,when,when,99,Online_whenL4//a.lo7.1776.wav,de,po,da,sil,ru,zi,ñi,sil1,lo,pe,sil2,['catch'],"[0.32200000000000273, 2.4540000000000646]",[2.4540000000000646],1.776,beat,0.6780000000000646,0.6780000000000646,"[""space"",""space""]",lo,2,,,,,,,,,,,,,,,3.0,2.0,Castellano,0.0,Catalán,0.0,Inglés,8.0,3.0,5.0,no,no,no,nada,,,,nada,68.0,yes
100,2023-12-11_10h11.57.000,Unsyncopated_study2,s82,19.0,feminino,right,España,Castellano y catalán,Upper secondary,no,no,A,1,when,L4,unsyncopated,when,when,100,Online_whenL4//c.bu15.1776.wav,zi,re,po,sil,pe,ña,lo,sil1,bu,bo,sil2,['catch'],[2.3199999999999363],[2.3199999999999363],1.776,beat,0.5439999999999363,0.5439999999999363,"[""space""]",bu,3,,,,,,,,,,,,,,,3.0,2.0,Castellano,0.0,Catalán,0.0,Inglés,8.0,3.0,5.0,no,no,no,nada,,,,nada,68.0,yes
101,2023-12-11_10h11.57.000,Unsyncopated_study2,s82,19.0,feminino,right,España,Castellano y catalán,Upper secondary,no,no,A,1,when,L4,unsyncopated,when,when,101,Online_whenL4//c.bu13.none.wav,bo,po,pe,sil,ja,ña,da,sil1,lo,de,sil2,['-'],,,none,none,,,,bu,3,,,,,,,,,,,,,,,3.0,2.0,Castellano,0.0,Catalán,0.0,Inglés,8.0,3.0,5.0,no,no,no,nada,,,,nada,68.0,yes
102,2023-12-11_10h11.57.000,Unsyncopated_study2,s82,19.0,feminino,right,España,Castellano y catalán,Upper secondary,no,no,A,1,when,L4,unsyncopated,when,when,102,Online_whenL4//c.bu14.none.wav,zi,ñi,ja,sil,re,da,de,sil1,ru,bo,sil2,['false alarm'],[2.5289999999999964],[2.5289999999999964],none,none,,,"[""space""]",bu,3,,,,,,,,,,,,,,,3.0,2.0,Castellano,0.0,Catalán,0.0,Inglés,8.0,3.0,5.0,no,no,no,nada,,,,nada,68.0,yes
103,2023-12-11_10h11.57.000,Unsyncopated_study2,s82,19.0,feminino,right,España,Castellano y catalán,Upper secondary,no,no,A,1,when,L4,unsyncopated,when,when,103,Online_whenL4//c.bu12.444.wav,ña,nu,bu,sil,bo,ñi,da,sil1,ru,lo,sil2,['miss'],,,0.444,no_beat,,,,bu,3,,,,,,,,,,,,,,,3.0,2.0,Castellano,0.0,Catalán,0.0,Inglés,8.0,3.0,5.0,no,no,no,nada,,,,nada,68.0,yes
104,2023-12-11_10h11.57.000,Unsyncopated_study2,s82,19.0,feminino,right,España,Castellano y catalán,Upper secondary,no,no,A,1,when,L4,unsyncopated,when,when,104,Online_whenL4//c.bu17.none.wav,bo,zi,de,sil,ña,nu,ci,sil1,ru,po,sil2,['false alarm'],[2.481999999999971],[2.481999999999971],none,none,,,"[""space""]",bu,3,,,,,,,,,,,,,,,3.0,2.0,Castellano,0.0,Catalán,0.0,Inglés,8.0,3.0,5.0,no,no,no,nada,,,,nada,68.0,yes
105,2023-12-11_10h11.57.000,Unsyncopated_study2,s82,19.0,feminino,right,España,Castellano y catalán,Upper secondary,no,no,A,1,when,L4,unsyncopated,when,when,105,Online_whenL4//c.bu16.0.wav,bu,ñi,pe,sil,ru,zi,bo,sil1,de,lo,sil2,['miss'],,,0.0,beat,,,,bu,3,,,,,,,,,,,,,,,3.0,2.0,Castellano,0.0,Catalán,0.0,Inglés,8.0,3.0,5.0,no,no,no,nada,,,,nada,68.0,yes
106,2023-12-11_10h11.57.000,Unsyncopated_study2,s82,19.0,feminino,right,España,Castellano y catalán,Upper secondary,no,no,A,1,when,L4,unsyncopated,when,when,106,Online_whenL4//c.bu19.0.wav,bu,de,nu,sil,ja,ru,bo,sil1,ñi,pe,sil2,['catch'],[0.9910000000000991],[0.9910000000000991],0.0,beat,0.9910000000000992,0.9910000000000992,"[""space""]",bu,3,,,,,,,,,,,,,,,3.0,2.0,Castellano,0.0,Catalán,0.0,Inglés,8.0,3.0,5.0,no,no,no,nada,,,,nada,68.0,yes
107,2023-12-11_10h11.57.000,Unsyncopated_study2,s82,19.0,feminino,right,España,Castellano y catalán,Upper secondary,no,no,A,1,when,L4,unsyncopated,when,when,107,Online_whenL4//c.bu18.none.wav,da,re,zi,sil,pe,po,lo,sil1,ci,ña,sil2,['-'],,,none,none,,,,bu,3,,,,,,,,,,,,,,,3.0,2.0,Castellano,0.0,Catalán,0.0,Inglés,8.0,3.0,5.0,no,no,no,nada,,,,nada,68.0,yes
108,2023-12-11_10h11.57.000,Unsyncopated_study2,s82,19.0,feminino,right,España,Castellano y catalán,Upper secondary,no,no,A,1,when,L4,unsyncopated,when,when,108,Online_whenL4//d.pe31.1332.wav,bu,re,ru,sil,ja,de,pe,sil1,ci,zi,sil2,['catch'],[1.8430000000000746],[1.8430000000000746],1.332,no_beat,0.5110000000000745,0.5110000000000745,"[""space""]",pe,4,,,,,,,,,,,,,,,3.0,2.0,Castellano,0.0,Catalán,0.0,Inglés,8.0,3.0,5.0,no,no,no,nada,,,,nada,68.0,yes
109,2023-12-11_10h11.57.000,Unsyncopated_study2,s82,19.0,feminino,right,España,Castellano y catalán,Upper secondary,no,no,A,1,when,L4,unsyncopated,when,when,109,Online_whenL4//d.pe30.none.wav,ru,lo,po,sil,nu,de,da,sil1,ña,ñi,sil2,['-'],,,none,none,,,,pe,4,,,,,,,,,,,,,,,3.0,2.0,Castellano,0.0,Catalán,0.0,Inglés,8.0,3.0,5.0,no,no,no,nada,,,,nada,68.0,yes
110,2023-12-11_10h11.57.000,Unsyncopated_study2,s82,19.0,feminino,right,España,Castellano y catalán,Upper secondary,no,no,A,1,when,L4,unsyncopated,when,when,110,Online_whenL4//d.pe28.none.wav,bo,nu,lo,sil,ru,re,bu,sil1,po,da,sil2,['-'],,,none,none,,,,pe,4,,,,,,,,,,,,,,,3.0,2.0,Castellano,0.0,Catalán,0.0,Inglés,8.0,3.0,5.0,no,no,no,nada,,,,nada,68.0,yes
111,2023-12-11_10h11.57.000,Unsyncopated_study2,s82,19.0,feminino,right,España,Castellano y catalán,Upper secondary,no,no,A,1,when,L4,unsyncopated,when,when,111,Online_whenL4//d.pe29.none.wav,da,po,ja,sil,bu,bo,lo,sil1,ña,de,sil2,['-'],,,none,none,,,,pe,4,,,,,,,,,,,,,,,3.0,2.0,Castellano,0.0,Catalán,0.0,Inglés,8.0,3.0,5.0,no,no,no,nada,,,,nada,68.0,yes
112,2023-12-11_10h11.57.000,Unsyncopated_study2,s82,19.0,feminino,right,España,Castellano y catalán,Upper secondary,no,no,A,1,when,L4,unsyncopated,when,when,112,Online_whenL4//b.ja32.none.wav,ru,bu,de,sil,ña,lo,nu,sil1,re,ci,sil2,['-'],,,none,none,,,,ja,1,,,,,,,,,,,,,,,3.0,2.0,Castellano,0.0,Catalán,0.0,Inglés,8.0,3.0,5.0,no,no,no,nada,,,,nada,68.0,yes
113,2023-12-11_10h11.57.000,Unsyncopated_study2,s82,19.0,feminino,right,España,Castellano y catalán,Upper secondary,no,no,A,1,when,L4,unsyncopated,when,when,113,Online_whenL4//b.ja35.1998.wav,ru,re,da,sil,lo,bo,ña,sil1,po,ja,sil2,['catch'],[2.588999999999942],[2.588999999999942],1.998,no_beat,0.5909999999999418,0.5909999999999418,"[""space""]",ja,1,,,,,,,,,,,,,,,3.0,2.0,Castellano,0.0,Catalán,0.0,Inglés,8.0,3.0,5.0,no,no,no,nada,,,,nada,68.0,yes
114,2023-12-11_10h11.57.000,Unsyncopated_study2,s82,19.0,feminino,right,España,Castellano y catalán,Upper secondary,no,no,A,1,when,L4,unsyncopated,when,when,114,Online_whenL4//b.ja33.none.wav,ci,po,nu,sil,ñi,zi,pe,sil1,re,bu,sil2,['-'],,,none,none,,,,ja,1,,,,,,,,,,,,,,,3.0,2.0,Castellano,0.0,Catalán,0.0,Inglés,8.0,3.0,5.0,no,no,no,nada,,,,nada,68.0,yes
115,2023-12-11_10h11.57.000,Unsyncopated_study2,s82,19.0,feminino,right,España,Castellano y catalán,Upper secondary,no,no,A,1,when,L4,unsyncopated,when,when,115,Online_whenL4//b.ja34.1776.wav,re,bo,da,sil,zi,bu,ña,sil1,ja,ci,sil2,['catch'],[2.3390000000000555],[2.3390000000000555],1.776,beat,0.5630000000000555,0.5630000000000555,"[""space""]",ja,1,,,,,,,,,,,,,,,3.0,2.0,Castellano,0.0,Catalán,0.0,Inglés,8.0,3.0,5.0,no,no,no,nada,,,,nada,68.0,yes
116,2023-12-11_10h11.57.000,Unsyncopated_study2,s82,19.0,feminino,right,España,Castellano y catalán,Upper secondary,no,no,A,1,when,L4,unsyncopated,when,when,116,Online_whenL4//d.pe16.888.wav,lo,bu,zi,sil,pe,ñi,da,sil1,ci,ña,sil2,['catch'],[1.4840000000000373],[1.4840000000000373],0.888,beat,0.5960000000000373,0.5960000000000373,"[""space""]",pe,4,,,,,,,,,,,,,,,3.0,2.0,Castellano,0.0,Catalán,0.0,Inglés,8.0,3.0,5.0,no,no,no,nada,,,,nada,68.0,yes
117,2023-12-11_10h11.57.000,Unsyncopated_study2,s82,19.0,feminino,right,España,Castellano y catalán,Upper secondary,no,no,A,1,when,L4,unsyncopated,when,when,117,Online_whenL4//d.pe18.none.wav,zi,re,po,sil,bo,ja,ci,sil1,ru,da,sil2,['-'],,,none,none,,,,pe,4,,,,,,,,,,,,,,,3.0,2.0,Castellano,0.0,Catalán,0.0,Inglés,8.0,3.0,5.0,no,no,no,nada,,,,nada,68.0,yes
118,2023-12-11_10h11.57.000,Unsyncopated_study2,s82,19.0,feminino,right,España,Castellano y catalán,Upper secondary,no,no,A,1,when,L4,unsyncopated,when,when,118,Online_whenL4//d.pe17.444.wav,ci,ru,pe,sil,ña,bu,zi,sil1,ñi,nu,sil2,['catch'],[1.1449999999999818],[1.1449999999999818],0.444,no_beat,0.7009999999999819,0.7009999999999819,"[""space""]",pe,4,,,,,,,,,,,,,,,3.0,2.0,Castellano,0.0,Catalán,0.0,Inglés,8.0,3.0,5.0,no,no,no,nada,,,,nada,68.0,yes
119,2023-12-11_10h11.57.000,Unsyncopated_study2,s82,19.0,feminino,right,España,Castellano y catalán,Upper secondary,no,no,A,1,when,L4,unsyncopated,when,when,119,Online_whenL4//d.pe19.none.wav,nu,ci,ñi,sil,de,po,ru,sil1,ña,zi,sil2,['-'],,,none,none,,,,pe,4,,,,,,,,,,,,,,,3.0,2.0,Castellano,0.0,Catalán,0.0,Inglés,8.0,3.0,5.0,no,no,no,nada,,,,nada,68.0,yes
120,2023-12-11_10h11.57.000,Unsyncopated_study2,s82,19.0,feminino,right,España,Castellano y catalán,Upper secondary,no,no,A,1,when,L4,unsyncopated,when,when,120,Online_whenL4//b.ja10.none.wav,bu,lo,pe,sil,zi,po,ru,sil1,ci,de,sil2,['-'],,,none,none,,,,ja,1,,,,,,,,,,,,,,,3.0,2.0,Castellano,0.0,Catalán,0.0,Inglés,8.0,3.0,5.0,no,no,no,nada,,,,nada,68.0,yes
121,2023-12-11_10h11.57.000,Unsyncopated_study2,s82,19.0,feminino,right,España,Castellano y catalán,Upper secondary,no,no,A,1,when,L4,unsyncopated,when,when,121,Online_whenL4//b.ja11.444.wav,po,da,ja,sil,nu,ru,bo,sil1,pe,de,sil2,['catch'],[1.0080000000000382],[1.0080000000000382],0.444,no_beat,0.5640000000000382,0.5640000000000382,"[""space""]",ja,1,,,,,,,,,,,,,,,3.0,2.0,Castellano,0.0,Catalán,0.0,Inglés,8.0,3.0,5.0,no,no,no,nada,,,,nada,68.0,yes
122,2023-12-11_10h11.57.000,Unsyncopated_study2,s82,19.0,feminino,right,España,Castellano y catalán,Upper secondary,no,no,A,1,when,L4,unsyncopated,when,when,122,Online_whenL4//b.ja9.0.wav,ja,ci,re,sil,de,zi,pe,sil1,po,bu,sil2,['catch'],[0.625],[0.625],0.0,beat,0.625,0.625,"[""space""]",ja,1,,,,,,,,,,,,,,,3.0,2.0,Castellano,0.0,Catalán,0.0,Inglés,8.0,3.0,5.0,no,no,no,nada,,,,nada,68.0,yes
123,2023-12-11_10h11.57.000,Unsyncopated_study2,s82,19.0,feminino,right,España,Castellano y catalán,Upper secondary,no,no,A,1,when,L4,unsyncopated,when,when,123,Online_whenL4//b.ja8.1998.wav,nu,de,da,sil,re,pe,ña,sil1,bu,ja,sil2,['miss'],,,1.998,no_beat,,,,ja,1,,,,,,,,,,,,,,,3.0,2.0,Castellano,0.0,Catalán,0.0,Inglés,8.0,3.0,5.0,no,no,no,nada,,,,nada,68.0,yes
124,2023-12-11_10h11.57.000,Unsyncopated_study2,s82,19.0,feminino,right,España,Castellano y catalán,Upper secondary,no,no,A,1,when,L4,unsyncopated,when,when,124,Online_whenL4//d.pe10.888.wav,da,zi,po,sil,pe,lo,ru,sil1,ci,re,sil2,['catch'],[1.3489999999999327],[1.3489999999999327],0.888,beat,0.4609999999999327,0.4609999999999327,"[""space""]",pe,4,,,,,,,,,,,,,,,3.0,2.0,Castellano,0.0,Catalán,0.0,Inglés,8.0,3.0,5.0,no,no,no,nada,,,,nada,68.0,yes
125,2023-12-11_10h11.57.000,Unsyncopated_study2,s82,19.0,feminino,right,España,Castellano y catalán,Upper secondary,no,no,A,1,when,L4,unsyncopated,when,when,125,Online_whenL4//d.pe9.none.wav,de,bu,da,sil,zi,ña,nu,sil1,ci,re,sil2,['-'],,,none,none,,,,pe,4,,,,,,,,,,,,,,,3.0,2.0,Castellano,0.0,Catalán,0.0,Inglés,8.0,3.0,5.0,no,no,no,nada,,,,nada,68.0,yes
126,2023-12-11_10h11.57.000,Unsyncopated_study2,s82,19.0,feminino,right,España,Castellano y catalán,Upper secondary,no,no,A,1,when,L4,unsyncopated,when,when,126,Online_whenL4//d.pe8.1998.wav,bo,ru,ña,sil,nu,ñi,ja,sil1,po,pe,sil2,['miss'],,,1.998,no_beat,,,,pe,4,,,,,,,,,,,,,,,3.0,2.0,Castellano,0.0,Catalán,0.0,Inglés,8.0,3.0,5.0,no,no,no,nada,,,,nada,68.0,yes
127,2023-12-11_10h11.57.000,Unsyncopated_study2,s82,19.0,feminino,right,España,Castellano y catalán,Upper secondary,no,no,A,1,when,L4,unsyncopated,when,when,127,Online_whenL4//d.pe11.none.wav,re,da,zi,sil,bu,lo,ña,sil1,ci,po,sil2,['-'],,,none,none,,,,pe,4,,,,,,,,,,,,,,,3.0,2.0,Castellano,0.0,Catalán,0.0,Inglés,8.0,3.0,5.0,no,no,no,nada,,,,nada,68.0,yes
128,2023-12-11_10h11.57.000,Unsyncopated_study2,s82,19.0,feminino,right,España,Castellano y catalán,Upper secondary,no,no,A,1,when,L4,unsyncopated,when,when,128,Online_whenL4//b.ja1.none.wav,lo,re,po,sil,bu,de,ña,sil1,da,nu,sil2,['-'],,,none,none,,,,ja,1,,,,,,,,,,,,,,,3.0,2.0,Castellano,0.0,Catalán,0.0,Inglés,8.0,3.0,5.0,no,no,no,nada,,,,nada,68.0,yes
129,2023-12-11_10h11.57.000,Unsyncopated_study2,s82,19.0,feminino,right,España,Castellano y catalán,Upper secondary,no,no,A,1,when,L4,unsyncopated,when,when,129,Online_whenL4//b.ja3.none.wav,nu,da,po,sil,ru,zi,bu,sil1,re,ña,sil2,['-'],,,none,none,,,,ja,1,,,,,,,,,,,,,,,3.0,2.0,Castellano,0.0,Catalán,0.0,Inglés,8.0,3.0,5.0,no,no,no,nada,,,,nada,68.0,yes
130,2023-12-11_10h11.57.000,Unsyncopated_study2,s82,19.0,feminino,right,España,Castellano y catalán,Upper secondary,no,no,A,1,when,L4,unsyncopated,when,when,130,Online_whenL4//b.ja0.222.wav,re,ja,da,sil,ci,ru,bo,sil1,bu,lo,sil2,['catch'],[1.0920000000000982],[1.0920000000000982],0.222,no_beat,0.8700000000000983,0.8700000000000983,"[""space""]",ja,1,,,,,,,,,,,,,,,3.0,2.0,Castellano,0.0,Catalán,0.0,Inglés,8.0,3.0,5.0,no,no,no,nada,,,,nada,68.0,yes
131,2023-12-11_10h11.57.000,Unsyncopated_study2,s82,19.0,feminino,right,España,Castellano y catalán,Upper secondary,no,no,A,1,when,L4,unsyncopated,when,when,131,Online_whenL4//b.ja2.none.wav,ci,ru,zi,sil,da,de,pe,sil1,re,lo,sil2,['-'],,,none,none,,,,ja,1,,,,,,,,,,,,,,,3.0,2.0,Castellano,0.0,Catalán,0.0,Inglés,8.0,3.0,5.0,no,no,no,nada,,,,nada,68.0,yes
132,2023-12-11_10h11.57.000,Unsyncopated_study2,s82,19.0,feminino,right,España,Castellano y catalán,Upper secondary,no,no,A,1,when,L4,unsyncopated,when,when,132,Online_whenL4//b.ja14.888.wav,zi,ña,po,sil,ja,bu,de,sil1,bo,ru,sil2,['catch'],[1.6319999999999482],[1.6319999999999482],0.888,beat,0.7439999999999481,0.7439999999999481,"[""space""]",ja,1,,,,,,,,,,,,,,,3.0,2.0,Castellano,0.0,Catalán,0.0,Inglés,8.0,3.0,5.0,no,no,no,nada,,,,nada,68.0,yes
133,2023-12-11_10h11.57.000,Unsyncopated_study2,s82,19.0,feminino,right,España,Castellano y catalán,Upper secondary,no,no,A,1,when,L4,unsyncopated,when,when,133,Online_whenL4//b.ja15.444.wav,da,ci,ja,sil,bo,ru,pe,sil1,zi,bu,sil2,['miss'],,,0.444,no_beat,,,,ja,1,,,,,,,,,,,,,,,3.0,2.0,Castellano,0.0,Catalán,0.0,Inglés,8.0,3.0,5.0,no,no,no,nada,,,,nada,68.0,yes
134,2023-12-11_10h11.57.000,Unsyncopated_study2,s82,19.0,feminino,right,España,Castellano y catalán,Upper secondary,no,no,A,1,when,L4,unsyncopated,when,when,134,Online_whenL4//b.ja12.444.wav,nu,ñi,ja,sil,pe,da,ña,sil1,re,ru,sil2,['catch'],[1.058999999999969],[1.058999999999969],0.444,no_beat,0.6149999999999691,0.6149999999999691,"[""space""]",ja,1,,,,,,,,,,,,,,,3.0,2.0,Castellano,0.0,Catalán,0.0,Inglés,8.0,3.0,5.0,no,no,no,nada,,,,nada,68.0,yes
135,2023-12-11_10h11.57.000,Unsyncopated_study2,s82,19.0,feminino,right,España,Castellano y catalán,Upper secondary,no,no,A,1,when,L4,unsyncopated,when,when,135,Online_whenL4//b.ja13.none.wav,bo,de,ña,sil,re,bu,lo,sil1,pe,zi,sil2,['-'],,,none,none,,,,ja,1,,,,,,,,,,,,,,,3.0,2.0,Castellano,0.0,Catalán,0.0,Inglés,8.0,3.0,5.0,no,no,no,nada,,,,nada,68.0,yes
136,2023-12-11_10h11.57.000,Unsyncopated_study2,s82,19.0,feminino,right,España,Castellano y catalán,Upper secondary,no,no,A,2,conjunction_un,L2,unsyncopated,s1,r1,0,Online_conjL2_un//c.cha.me22.222.444.wav,go,cha,me,sil,du,ñu,to,sil1,te,su,sil2,['catch'],[1.0879999999999654],[1.0879999999999654],0.222,no_beat,0.8659999999999655,0.8659999999999655,"[""space""]",cha,3,,,,,,,,,,,,,,,3.0,2.0,Castellano,0.0,Catalán,0.0,Inglés,8.0,3.0,5.0,no,no,no,nada,,,,nada,68.0,yes
137,2023-12-11_10h11.57.000,Unsyncopated_study2,s82,19.0,feminino,right,España,Castellano y catalán,Upper secondary,no,no,A,2,conjunction_un,L2,unsyncopated,s2,r2,1,Online_conjL2_un//c.cha.me23.222.444.wav,su,cha,me,sil,fe,mi,to,sil1,ra,ñu,sil2,['catch'],[0.6800000000000637],[0.6800000000000637],0.222,no_beat,0.4580000000000637,0.4580000000000637,"[""space""]",cha,3,,,,,,,,,,,,,,,3.0,2.0,Castellano,0.0,Catalán,0.0,Inglés,8.0,3.0,5.0,no,no,no,nada,,,,nada,68.0,yes
138,2023-12-11_10h11.57.000,Unsyncopated_study2,s82,19.0,feminino,right,España,Castellano y catalán,Upper secondary,no,no,A,2,conjunction_un,L2,unsyncopated,s1,r2,2,Online_conjL2_un//c.cha.me21.1332.444.wav,fe,su,me,sil,ra,si,cha,sil1,ñi,ba,sil2,['catch'],[2.2040000000001783],[2.2040000000001783],1.332,no_beat,0.8720000000001782,0.8720000000001782,"[""space""]",cha,3,,,,,,,,,,,,,,,3.0,2.0,Castellano,0.0,Catalán,0.0,Inglés,8.0,3.0,5.0,no,no,no,nada,,,,nada,68.0,yes
139,2023-12-11_10h11.57.000,Unsyncopated_study2,s82,19.0,feminino,right,España,Castellano y catalán,Upper secondary,no,no,A,2,conjunction_un,L2,unsyncopated,s2,r1,3,Online_conjL2_un//c.cha.me20.none.none.wav,ñu,su,ñi,sil,go,to,si,sil1,du,ba,sil2,['-'],,,none,none,,,,cha,3,,,,,,,,,,,,,,,3.0,2.0,Castellano,0.0,Catalán,0.0,Inglés,8.0,3.0,5.0,no,no,no,nada,,,,nada,68.0,yes
140,2023-12-11_10h11.57.000,Unsyncopated_study2,s82,19.0,feminino,right,España,Castellano y catalán,Upper secondary,no,no,A,2,conjunction_un,L2,unsyncopated,s1,r2,4,Online_conjL2_un//b.fe.ra11.0.888.wav,fe,bi,mi,sil,ra,te,su,sil1,cha,ba,sil2,['catch'],[0.6109999999998763],[0.6109999999998763],0.0,beat,0.6109999999998763,0.6109999999998763,"[""space""]",fe,1,,,,,,,,,,,,,,,3.0,2.0,Castellano,0.0,Catalán,0.0,Inglés,8.0,3.0,5.0,no,no,no,nada,,,,nada,68.0,yes
141,2023-12-11_10h11.57.000,Unsyncopated_study2,s82,19.0,feminino,right,España,Castellano y catalán,Upper secondary,no,no,A,2,conjunction_un,L2,unsyncopated,s1,r2,5,Online_conjL2_un//b.fe.ra10.0.888.wav,fe,ñu,cha,sil,ra,mi,bi,sil1,me,si,sil2,['catch'],[0.39400000000000546],[0.39400000000000546],0.0,beat,0.3940000000000054,0.3940000000000054,"[""space""]",fe,1,,,,,,,,,,,,,,,3.0,2.0,Castellano,0.0,Catalán,0.0,Inglés,8.0,3.0,5.0,no,no,no,nada,,,,nada,68.0,yes
142,2023-12-11_10h11.57.000,Unsyncopated_study2,s82,19.0,feminino,right,España,Castellano y catalán,Upper secondary,no,no,A,2,conjunction_un,L2,unsyncopated,s1,r2,6,Online_conjL2_un//b.fe.ra9.0.888.wav,fe,ñu,cha,sil,ra,to,bi,sil1,te,ba,sil2,['catch'],[0.5080000000000382],[0.5080000000000382],0.0,beat,0.5080000000000382,0.5080000000000382,"[""space""]",fe,1,,,,,,,,,,,,,,,3.0,2.0,Castellano,0.0,Catalán,0.0,Inglés,8.0,3.0,5.0,no,no,no,nada,,,,nada,68.0,yes
143,2023-12-11_10h11.57.000,Unsyncopated_study2,s82,19.0,feminino,right,España,Castellano y catalán,Upper secondary,no,no,A,2,conjunction_un,L2,unsyncopated,s2,r1,7,Online_conjL2_un//b.fe.ra8.none.none.wav,si,to,mi,sil,go,cha,me,sil1,du,bi,sil2,['-'],,,none,none,,,,fe,1,,,,,,,,,,,,,,,3.0,2.0,Castellano,0.0,Catalán,0.0,Inglés,8.0,3.0,5.0,no,no,no,nada,,,,nada,68.0,yes
144,2023-12-11_10h11.57.000,Unsyncopated_study2,s82,19.0,feminino,right,España,Castellano y catalán,Upper secondary,no,no,A,2,conjunction_un,L2,unsyncopated,s1,r2,8,Online_conjL2_un//d.si.ñu25.none.none.wav,fe,me,ñi,sil,ra,to,mi,sil1,bi,cha,sil2,['false alarm'],[0.36999999999989086],[0.36999999999989086],none,none,,,"[""space""]",si,4,,,,,,,,,,,,,,,3.0,2.0,Castellano,0.0,Catalán,0.0,Inglés,8.0,3.0,5.0,no,no,no,nada,,,,nada,68.0,yes
145,2023-12-11_10h11.57.000,Unsyncopated_study2,s82,19.0,feminino,right,España,Castellano y catalán,Upper secondary,no,no,A,2,conjunction_un,L2,unsyncopated,s1,r2,9,Online_conjL2_un//d.si.ñu26.none.none.wav,fe,bi,to,sil,ra,mi,me,sil1,te,ba,sil2,['-'],,,none,none,,,,si,4,,,,,,,,,,,,,,,3.0,2.0,Castellano,0.0,Catalán,0.0,Inglés,8.0,3.0,5.0,no,no,no,nada,,,,nada,68.0,yes
146,2023-12-11_10h11.57.000,Unsyncopated_study2,s82,19.0,feminino,right,España,Castellano y catalán,Upper secondary,no,no,A,2,conjunction_un,L2,unsyncopated,s2,r2,10,Online_conjL2_un//d.si.ñu24.0.1110.wav,si,bi,to,sil,fe,ñu,te,sil1,ra,ñi,sil2,['catch'],[0.3109999999999218],[0.3109999999999218],0.0,beat,0.3109999999999218,0.3109999999999218,"[""space""]",si,4,,,,,,,,,,,,,,,3.0,2.0,Castellano,0.0,Catalán,0.0,Inglés,8.0,3.0,5.0,no,no,no,nada,,,,nada,68.0,yes
147,2023-12-11_10h11.57.000,Unsyncopated_study2,s82,19.0,feminino,right,España,Castellano y catalán,Upper secondary,no,no,A,2,conjunction_un,L2,unsyncopated,s2,r2,11,Online_conjL2_un//d.si.ñu27.1332.0.wav,ñu,bi,to,sil,fe,ba,si,sil1,ra,te,sil2,['catch'],[1.8079999999999927],[1.8079999999999927],1.332,no_beat,0.4759999999999926,0.4759999999999926,"[""space""]",si,4,,,,,,,,,,,,,,,3.0,2.0,Castellano,0.0,Catalán,0.0,Inglés,8.0,3.0,5.0,no,no,no,nada,,,,nada,68.0,yes
148,2023-12-11_10h11.57.000,Unsyncopated_study2,s82,19.0,feminino,right,España,Castellano y catalán,Upper secondary,no,no,A,2,conjunction_un,L2,unsyncopated,s1,r1,12,Online_conjL2_un//a.go.du14.0.888.wav,go,su,to,sil,du,te,ba,sil1,ñi,me,sil2,['catch'],[1.349999999999909],[1.349999999999909],0.888,beat,0.461999999999909,0.461999999999909,"[""space""]",du,2,,,,,,,,,,,,,,,3.0,2.0,Castellano,0.0,Catalán,0.0,Inglés,8.0,3.0,5.0,no,no,no,nada,,,,nada,68.0,yes
149,2023-12-11_10h11.57.000,Unsyncopated_study2,s82,19.0,feminino,right,España,Castellano y catalán,Upper secondary,no,no,A,2,conjunction_un,L2,unsyncopated,s2,r2,13,Online_conjL2_un//a.go.du15.none.none.wav,me,mi,ñu,sil,fe,si,ñi,sil1,ra,su,sil2,['-'],,,none,none,,,,du,2,,,,,,,,,,,,,,,3.0,2.0,Castellano,0.0,Catalán,0.0,Inglés,8.0,3.0,5.0,no,no,no,nada,,,,nada,68.0,yes
150,2023-12-11_10h11.57.000,Unsyncopated_study2,s82,19.0,feminino,right,España,Castellano y catalán,Upper secondary,no,no,A,2,conjunction_un,L2,unsyncopated,s2,r1,14,Online_conjL2_un//a.go.du13.888.1776.wav,mi,bi,ba,sil,go,ñu,to,sil1,du,te,sil2,['catch'],[2.071999999999889],[2.071999999999889],1.776,beat,0.295999999999889,0.295999999999889,"[""space""]",du,2,,,,,,,,,,,,,,,3.0,2.0,Castellano,0.0,Catalán,0.0,Inglés,8.0,3.0,5.0,no,no,no,nada,,,,nada,68.0,yes
151,2023-12-11_10h11.57.000,Unsyncopated_study2,s82,19.0,feminino,right,España,Castellano y catalán,Upper secondary,no,no,A,2,conjunction_un,L2,unsyncopated,s2,r2,15,Online_conjL2_un//a.go.du12.none.none.wav,bi,su,mi,sil,fe,ñi,te,sil1,ra,si,sil2,['-'],,,none,none,,,,du,2,,,,,,,,,,,,,,,3.0,2.0,Castellano,0.0,Catalán,0.0,Inglés,8.0,3.0,5.0,no,no,no,nada,,,,nada,68.0,yes
152,2023-12-11_10h11.57.000,Unsyncopated_study2,s82,19.0,feminino,right,España,Castellano y catalán,Upper secondary,no,no,A,2,conjunction_un,L2,unsyncopated,s1,r2,16,Online_conjL2_un//a.go.du8.none.none.wav,fe,to,ñi,sil,ra,ba,cha,sil1,ñu,bi,sil2,['-'],,,none,none,,,,du,2,,,,,,,,,,,,,,,3.0,2.0,Castellano,0.0,Catalán,0.0,Inglés,8.0,3.0,5.0,no,no,no,nada,,,,nada,68.0,yes
153,2023-12-11_10h11.57.000,Unsyncopated_study2,s82,19.0,feminino,right,España,Castellano y catalán,Upper secondary,no,no,A,2,conjunction_un,L2,unsyncopated,s1,r1,17,Online_conjL2_un//a.go.du10.0.888.wav,go,bi,ñi,sil,du,si,te,sil1,ñu,su,sil2,['catch'],[1.54300000000012],[1.54300000000012],0.888,beat,0.65500000000012,0.65500000000012,"[""space""]",du,2,,,,,,,,,,,,,,,3.0,2.0,Castellano,0.0,Catalán,0.0,Inglés,8.0,3.0,5.0,no,no,no,nada,,,,nada,68.0,yes
154,2023-12-11_10h11.57.000,Unsyncopated_study2,s82,19.0,feminino,right,España,Castellano y catalán,Upper secondary,no,no,A,2,conjunction_un,L2,unsyncopated,s2,r1,18,Online_conjL2_un//a.go.du11.888.1776.wav,si,ba,ñu,sil,go,ñi,mi,sil1,du,te,sil2,['catch'],[2.20699999999988],[2.20699999999988],1.776,beat,0.4309999999998799,0.4309999999998799,"[""space""]",du,2,,,,,,,,,,,,,,,3.0,2.0,Castellano,0.0,Catalán,0.0,Inglés,8.0,3.0,5.0,no,no,no,nada,,,,nada,68.0,yes
155,2023-12-11_10h11.57.000,Unsyncopated_study2,s82,19.0,feminino,right,España,Castellano y catalán,Upper secondary,no,no,A,2,conjunction_un,L2,unsyncopated,s2,r1,19,Online_conjL2_un//a.go.du9.888.1776.wav,mi,bi,cha,sil,go,ñu,si,sil1,du,to,sil2,['catch'],[2.4909999999999854],[2.4909999999999854],1.776,beat,0.7149999999999854,0.7149999999999854,"[""space""]",du,2,,,,,,,,,,,,,,,3.0,2.0,Castellano,0.0,Catalán,0.0,Inglés,8.0,3.0,5.0,no,no,no,nada,,,,nada,68.0,yes
156,2023-12-11_10h11.57.000,Unsyncopated_study2,s82,19.0,feminino,right,España,Castellano y catalán,Upper secondary,no,no,A,2,conjunction_un,L2,unsyncopated,s2,r2,20,Online_conjL2_un//c.cha.me16.none.none.wav,te,mi,si,sil,fe,ñi,bi,sil1,ra,ñu,sil2,['-'],,,none,none,,,,cha,3,,,,,,,,,,,,,,,3.0,2.0,Castellano,0.0,Catalán,0.0,Inglés,8.0,3.0,5.0,no,no,no,nada,,,,nada,68.0,yes
157,2023-12-11_10h11.57.000,Unsyncopated_study2,s82,19.0,feminino,right,España,Castellano y catalán,Upper secondary,no,no,A,2,conjunction_un,L2,unsyncopated,s2,r1,21,Online_conjL2_un//c.cha.me17.1332.444.wav,bi,ba,me,sil,go,ñi,cha,sil1,du,si,sil2,['catch'],[1.872000000000071],[1.872000000000071],1.332,no_beat,0.5400000000000709,0.5400000000000709,"[""space""]",cha,3,,,,,,,,,,,,,,,3.0,2.0,Castellano,0.0,Catalán,0.0,Inglés,8.0,3.0,5.0,no,no,no,nada,,,,nada,68.0,yes
158,2023-12-11_10h11.57.000,Unsyncopated_study2,s82,19.0,feminino,right,España,Castellano y catalán,Upper secondary,no,no,A,2,conjunction_un,L2,unsyncopated,s2,r1,22,Online_conjL2_un//c.cha.me19.none.none.wav,bi,mi,to,sil,go,ñu,si,sil1,du,ñi,sil2,['-'],,,none,none,,,,cha,3,,,,,,,,,,,,,,,3.0,2.0,Castellano,0.0,Catalán,0.0,Inglés,8.0,3.0,5.0,no,no,no,nada,,,,nada,68.0,yes
159,2023-12-11_10h11.57.000,Unsyncopated_study2,s82,19.0,feminino,right,España,Castellano y catalán,Upper secondary,no,no,A,2,conjunction_un,L2,unsyncopated,s2,r1,23,Online_conjL2_un//c.cha.me18.none.none.wav,ba,su,mi,sil,go,ñu,te,sil1,du,ñi,sil2,['-'],,,none,none,,,,cha,3,,,,,,,,,,,,,,,3.0,2.0,Castellano,0.0,Catalán,0.0,Inglés,8.0,3.0,5.0,no,no,no,nada,,,,nada,68.0,yes
160,2023-12-11_10h11.57.000,Unsyncopated_study2,s82,19.0,feminino,right,España,Castellano y catalán,Upper secondary,no,no,A,2,conjunction_un,L2,unsyncopated,s2,r2,24,Online_conjL2_un//c.cha.me10.0.222.wav,cha,me,mi,sil,fe,su,si,sil1,ra,ba,sil2,['catch'],[0.4379999999998745],[0.4379999999998745],0.0,beat,0.4379999999998745,0.4379999999998745,"[""space""]",cha,3,,,,,,,,,,,,,,,3.0,2.0,Castellano,0.0,Catalán,0.0,Inglés,8.0,3.0,5.0,no,no,no,nada,,,,nada,68.0,yes
161,2023-12-11_10h11.57.000,Unsyncopated_study2,s82,19.0,feminino,right,España,Castellano y catalán,Upper secondary,no,no,A,2,conjunction_un,L2,unsyncopated,s1,r1,25,Online_conjL2_un//c.cha.me9.none.none.wav,go,to,ñi,sil,du,mi,ñu,sil1,bi,su,sil2,['-'],,,none,none,,,,cha,3,,,,,,,,,,,,,,,3.0,2.0,Castellano,0.0,Catalán,0.0,Inglés,8.0,3.0,5.0,no,no,no,nada,,,,nada,68.0,yes
162,2023-12-11_10h11.57.000,Unsyncopated_study2,s82,19.0,feminino,right,España,Castellano y catalán,Upper secondary,no,no,A,2,conjunction_un,L2,unsyncopated,s1,r1,26,Online_conjL2_un//c.cha.me11.none.none.wav,go,su,ñu,sil,du,ñi,mi,sil1,ba,to,sil2,['-'],,,none,none,,,,cha,3,,,,,,,,,,,,,,,3.0,2.0,Castellano,0.0,Catalán,0.0,Inglés,8.0,3.0,5.0,no,no,no,nada,,,,nada,68.0,yes
163,2023-12-11_10h11.57.000,Unsyncopated_study2,s82,19.0,feminino,right,España,Castellano y catalán,Upper secondary,no,no,A,2,conjunction_un,L2,unsyncopated,s1,r2,27,Online_conjL2_un//c.cha.me8.444.1332.wav,fe,bi,cha,sil,ra,ñi,me,sil1,te,si,sil2,['catch'],[1.009999999999991],[1.009999999999991],0.444,no_beat,0.565999999999991,0.565999999999991,"[""space""]",cha,3,,,,,,,,,,,,,,,3.0,2.0,Castellano,0.0,Catalán,0.0,Inglés,8.0,3.0,5.0,no,no,no,nada,,,,nada,68.0,yes
164,2023-12-11_10h11.57.000,Unsyncopated_study2,s82,19.0,feminino,right,España,Castellano y catalán,Upper secondary,no,no,A,2,conjunction_un,L2,unsyncopated,s1,r1,28,Online_conjL2_un//b.fe.ra30.none.none.wav,go,si,cha,sil,du,ba,te,sil1,ñu,ñi,sil2,['-'],,,none,none,,,,fe,1,,,,,,,,,,,,,,,3.0,2.0,Castellano,0.0,Catalán,0.0,Inglés,8.0,3.0,5.0,no,no,no,nada,,,,nada,68.0,yes
165,2023-12-11_10h11.57.000,Unsyncopated_study2,s82,19.0,feminino,right,España,Castellano y catalán,Upper secondary,no,no,A,2,conjunction_un,L2,unsyncopated,s2,r1,29,Online_conjL2_un//b.fe.ra28.none.none.wav,me,cha,mi,sil,go,si,ñi,sil1,du,to,sil2,['-'],,,none,none,,,,fe,1,,,,,,,,,,,,,,,3.0,2.0,Castellano,0.0,Catalán,0.0,Inglés,8.0,3.0,5.0,no,no,no,nada,,,,nada,68.0,yes
166,2023-12-11_10h11.57.000,Unsyncopated_study2,s82,19.0,feminino,right,España,Castellano y catalán,Upper secondary,no,no,A,2,conjunction_un,L2,unsyncopated,s1,r2,30,Online_conjL2_un//b.fe.ra29.0.888.wav,fe,ba,si,sil,ra,bi,cha,sil1,mi,ñu,sil2,['catch'],[0.42399999999997817],[0.42399999999997817],0.0,beat,0.4239999999999781,0.4239999999999781,"[""space""]",fe,1,,,,,,,,,,,,,,,3.0,2.0,Castellano,0.0,Catalán,0.0,Inglés,8.0,3.0,5.0,no,no,no,nada,,,,nada,68.0,yes
167,2023-12-11_10h11.57.000,Unsyncopated_study2,s82,19.0,feminino,right,España,Castellano y catalán,Upper secondary,no,no,A,2,conjunction_un,L2,unsyncopated,s2,r2,31,Online_conjL2_un//b.fe.ra31.888.1776.wav,ñu,to,me,sil,fe,cha,mi,sil1,ra,ba,sil2,['catch'],[1.3079999999999927],[1.3079999999999927],0.888,beat,0.4199999999999927,0.4199999999999927,"[""space""]",fe,1,,,,,,,,,,,,,,,3.0,2.0,Castellano,0.0,Catalán,0.0,Inglés,8.0,3.0,5.0,no,no,no,nada,,,,nada,68.0,yes
168,2023-12-11_10h11.57.000,Unsyncopated_study2,s82,19.0,feminino,right,España,Castellano y catalán,Upper secondary,no,no,A,2,conjunction_un,L2,unsyncopated,s1,r2,32,Online_conjL2_un//c.cha.me31.none.none.wav,fe,ñi,ba,sil,ra,si,te,sil1,ñu,mi,sil2,['-'],,,none,none,,,,cha,3,,,,,,,,,,,,,,,3.0,2.0,Castellano,0.0,Catalán,0.0,Inglés,8.0,3.0,5.0,no,no,no,nada,,,,nada,68.0,yes
169,2023-12-11_10h11.57.000,Unsyncopated_study2,s82,19.0,feminino,right,España,Castellano y catalán,Upper secondary,no,no,A,2,conjunction_un,L2,unsyncopated,s1,r1,33,Online_conjL2_un//c.cha.me28.222.444.wav,go,cha,me,sil,du,mi,ba,sil1,bi,to,sil2,['catch'],[0.94399999999996],[0.94399999999996],0.222,no_beat,0.72199999999996,0.72199999999996,"[""space""]",cha,3,,,,,,,,,,,,,,,3.0,2.0,Castellano,0.0,Catalán,0.0,Inglés,8.0,3.0,5.0,no,no,no,nada,,,,nada,68.0,yes
170,2023-12-11_10h11.57.000,Unsyncopated_study2,s82,19.0,feminino,right,España,Castellano y catalán,Upper secondary,no,no,A,2,conjunction_un,L2,unsyncopated,s2,r2,34,Online_conjL2_un//c.cha.me30.0.1110.wav,cha,mi,ba,sil,fe,me,si,sil1,ra,ñi,sil2,['catch'],[0.4069999999999254],[0.4069999999999254],0.0,beat,0.4069999999999254,0.4069999999999254,"[""space""]",cha,3,,,,,,,,,,,,,,,3.0,2.0,Castellano,0.0,Catalán,0.0,Inglés,8.0,3.0,5.0,no,no,no,nada,,,,nada,68.0,yes
171,2023-12-11_10h11.57.000,Unsyncopated_study2,s82,19.0,feminino,right,España,Castellano y catalán,Upper secondary,no,no,A,2,conjunction_un,L2,unsyncopated,s2,r2,35,Online_conjL2_un//c.cha.me29.none.none.wav,ba,ñu,mi,sil,fe,te,si,sil1,ra,ñi,sil2,['-'],,,none,none,,,,cha,3,,,,,,,,,,,,,,,3.0,2.0,Castellano,0.0,Catalán,0.0,Inglés,8.0,3.0,5.0,no,no,no,nada,,,,nada,68.0,yes
172,2023-12-11_10h11.57.000,Unsyncopated_study2,s82,19.0,feminino,right,España,Castellano y catalán,Upper secondary,no,no,A,2,conjunction_un,L2,unsyncopated,s1,r1,36,Online_conjL2_un//d.si.ñu2.1776.444.wav,go,ba,ñu,sil,du,to,su,sil1,si,ñi,sil2,['catch'],[2.23700000000008],[2.23700000000008],1.776,beat,0.46100000000008,0.46100000000008,"[""space""]",si,4,,,,,,,,,,,,,,,3.0,2.0,Castellano,0.0,Catalán,0.0,Inglés,8.0,3.0,5.0,no,no,no,nada,,,,nada,68.0,yes
173,2023-12-11_10h11.57.000,Unsyncopated_study2,s82,19.0,feminino,right,España,Castellano y catalán,Upper secondary,no,no,A,2,conjunction_un,L2,unsyncopated,s1,r2,37,Online_conjL2_un//d.si.ñu1.222.1332.wav,fe,si,ba,sil,ra,su,ñu,sil1,ñi,me,sil2,['catch'],[1.0260000000000673],[1.0260000000000673],0.222,no_beat,0.8040000000000673,0.8040000000000673,"[""space""]",si,4,,,,,,,,,,,,,,,3.0,2.0,Castellano,0.0,Catalán,0.0,Inglés,8.0,3.0,5.0,no,no,no,nada,,,,nada,68.0,yes
174,2023-12-11_10h11.57.000,Unsyncopated_study2,s82,19.0,feminino,right,España,Castellano y catalán,Upper secondary,no,no,A,2,conjunction_un,L2,unsyncopated,s1,r1,38,Online_conjL2_un//d.si.ñu0.none.none.wav,go,cha,ba,sil,du,ñi,bi,sil1,su,to,sil2,['-'],,,none,none,,,,si,4,,,,,,,,,,,,,,,3.0,2.0,Castellano,0.0,Catalán,0.0,Inglés,8.0,3.0,5.0,no,no,no,nada,,,,nada,68.0,yes
175,2023-12-11_10h11.57.000,Unsyncopated_study2,s82,19.0,feminino,right,España,Castellano y catalán,Upper secondary,no,no,A,2,conjunction_un,L2,unsyncopated,s2,r2,39,Online_conjL2_un//d.si.ñu3.none.none.wav,to,ba,te,sil,fe,cha,bi,sil1,ra,me,sil2,['-'],,,none,none,,,,si,4,,,,,,,,,,,,,,,3.0,2.0,Castellano,0.0,Catalán,0.0,Inglés,8.0,3.0,5.0,no,no,no,nada,,,,nada,68.0,yes
176,2023-12-11_10h11.57.000,Unsyncopated_study2,s82,19.0,feminino,right,España,Castellano y catalán,Upper secondary,no,no,A,2,conjunction_un,L2,unsyncopated,s1,r2,40,Online_conjL2_un//a.go.du17.none.none.wav,fe,mi,su,sil,ra,me,bi,sil1,te,si,sil2,['-'],,,none,none,,,,du,2,,,,,,,,,,,,,,,3.0,2.0,Castellano,0.0,Catalán,0.0,Inglés,8.0,3.0,5.0,no,no,no,nada,,,,nada,68.0,yes
177,2023-12-11_10h11.57.000,Unsyncopated_study2,s82,19.0,feminino,right,España,Castellano y catalán,Upper secondary,no,no,A,2,conjunction_un,L2,unsyncopated,s1,r1,41,Online_conjL2_un//a.go.du18.0.888.wav,go,me,si,sil,du,ñi,ba,sil1,su,to,sil2,['catch'],[1.4390000000000782],[1.4390000000000782],0.888,beat,0.5510000000000782,0.5510000000000782,"[""space""]",du,2,,,,,,,,,,,,,,,3.0,2.0,Castellano,0.0,Catalán,0.0,Inglés,8.0,3.0,5.0,no,no,no,nada,,,,nada,68.0,yes
178,2023-12-11_10h11.57.000,Unsyncopated_study2,s82,19.0,feminino,right,España,Castellano y catalán,Upper secondary,no,no,A,2,conjunction_un,L2,unsyncopated,s2,r1,42,Online_conjL2_un//a.go.du16.888.1776.wav,cha,me,ba,sil,go,to,si,sil1,du,ñi,sil2,['catch'],[2.3810000000000855],[2.3810000000000855],1.776,beat,0.6050000000000855,0.6050000000000855,"[""space""]",du,2,,,,,,,,,,,,,,,3.0,2.0,Castellano,0.0,Catalán,0.0,Inglés,8.0,3.0,5.0,no,no,no,nada,,,,nada,68.0,yes
179,2023-12-11_10h11.57.000,Unsyncopated_study2,s82,19.0,feminino,right,España,Castellano y catalán,Upper secondary,no,no,A,2,conjunction_un,L2,unsyncopated,s1,r1,43,Online_conjL2_un//a.go.du19.0.888.wav,go,ba,si,sil,du,su,mi,sil1,ñi,cha,sil2,['miss'],,,0.888,beat,,,,du,2,,,,,,,,,,,,,,,3.0,2.0,Castellano,0.0,Catalán,0.0,Inglés,8.0,3.0,5.0,no,no,no,nada,,,,nada,68.0,yes
180,2023-12-11_10h11.57.000,Unsyncopated_study2,s82,19.0,feminino,right,España,Castellano y catalán,Upper secondary,no,no,A,2,conjunction_un,L2,unsyncopated,s2,r2,44,Online_conjL2_un//c.cha.me0.none.none.wav,si,mi,ba,sil,fe,su,te,sil1,ra,ñi,sil2,['-'],,,none,none,,,,cha,3,,,,,,,,,,,,,,,3.0,2.0,Castellano,0.0,Catalán,0.0,Inglés,8.0,3.0,5.0,no,no,no,nada,,,,nada,68.0,yes
181,2023-12-11_10h11.57.000,Unsyncopated_study2,s82,19.0,feminino,right,España,Castellano y catalán,Upper secondary,no,no,A,2,conjunction_un,L2,unsyncopated,s1,r2,45,Online_conjL2_un//c.cha.me2.1776.444.wav,fe,su,me,sil,ra,mi,ba,sil1,cha,ñu,sil2,['catch'],[2.2560000000000855],[2.2560000000000855],1.776,beat,0.4800000000000854,0.4800000000000854,"[""space""]",cha,3,,,,,,,,,,,,,,,3.0,2.0,Castellano,0.0,Catalán,0.0,Inglés,8.0,3.0,5.0,no,no,no,nada,,,,nada,68.0,yes
182,2023-12-11_10h11.57.000,Unsyncopated_study2,s82,19.0,feminino,right,España,Castellano y catalán,Upper secondary,no,no,A,2,conjunction_un,L2,unsyncopated,s1,r1,46,Online_conjL2_un//c.cha.me3.1776.1110.wav,go,mi,te,sil,du,me,bi,sil1,cha,su,sil2,['catch'],[2.2080000000000837],[2.2080000000000837],1.776,beat,0.4320000000000836,0.4320000000000836,"[""space""]",cha,3,,,,,,,,,,,,,,,3.0,2.0,Castellano,0.0,Catalán,0.0,Inglés,8.0,3.0,5.0,no,no,no,nada,,,,nada,68.0,yes
183,2023-12-11_10h11.57.000,Unsyncopated_study2,s82,19.0,feminino,right,España,Castellano y catalán,Upper secondary,no,no,A,2,conjunction_un,L2,unsyncopated,s1,r1,47,Online_conjL2_un//c.cha.me1.none.none.wav,go,ba,mi,sil,du,ñi,ñu,sil1,bi,si,sil2,['-'],,,none,none,,,,cha,3,,,,,,,,,,,,,,,3.0,2.0,Castellano,0.0,Catalán,0.0,Inglés,8.0,3.0,5.0,no,no,no,nada,,,,nada,68.0,yes
184,2023-12-11_10h11.57.000,Unsyncopated_study2,s82,19.0,feminino,right,España,Castellano y catalán,Upper secondary,no,no,A,2,conjunction_un,L2,unsyncopated,s1,r1,48,Online_conjL2_un//b.fe.ra12.none.none.wav,go,ñi,ba,sil,du,me,si,sil1,cha,to,sil2,['-'],,,none,none,,,,fe,1,,,,,,,,,,,,,,,3.0,2.0,Castellano,0.0,Catalán,0.0,Inglés,8.0,3.0,5.0,no,no,no,nada,,,,nada,68.0,yes
185,2023-12-11_10h11.57.000,Unsyncopated_study2,s82,19.0,feminino,right,España,Castellano y catalán,Upper secondary,no,no,A,2,conjunction_un,L2,unsyncopated,s1,r2,49,Online_conjL2_un//b.fe.ra14.0.888.wav,fe,si,ñu,sil,ra,mi,to,sil1,me,bi,sil2,['catch'],[0.48700000000008004],[0.48700000000008004],0.0,beat,0.48700000000008,0.48700000000008,"[""space""]",fe,1,,,,,,,,,,,,,,,3.0,2.0,Castellano,0.0,Catalán,0.0,Inglés,8.0,3.0,5.0,no,no,no,nada,,,,nada,68.0,yes
186,2023-12-11_10h11.57.000,Unsyncopated_study2,s82,19.0,feminino,right,España,Castellano y catalán,Upper secondary,no,no,A,2,conjunction_un,L2,unsyncopated,s2,r2,50,Online_conjL2_un//b.fe.ra15.888.1776.wav,si,me,to,sil,fe,su,ba,sil1,ra,bi,sil2,['miss'],,,0.888,beat,,,,fe,1,,,,,,,,,,,,,,,3.0,2.0,Castellano,0.0,Catalán,0.0,Inglés,8.0,3.0,5.0,no,no,no,nada,,,,nada,68.0,yes
187,2023-12-11_10h11.57.000,Unsyncopated_study2,s82,19.0,feminino,right,España,Castellano y catalán,Upper secondary,no,no,A,2,conjunction_un,L2,unsyncopated,s2,r1,51,Online_conjL2_un//b.fe.ra13.none.none.wav,ñu,bi,su,sil,go,mi,ba,sil1,du,cha,sil2,['-'],,,none,none,,,,fe,1,,,,,,,,,,,,,,,3.0,2.0,Castellano,0.0,Catalán,0.0,Inglés,8.0,3.0,5.0,no,no,no,nada,,,,nada,68.0,yes
188,2023-12-11_10h11.57.000,Unsyncopated_study2,s82,19.0,feminino,right,España,Castellano y catalán,Upper secondary,no,no,A,2,conjunction_un,L2,unsyncopated,s1,r2,52,Online_conjL2_un//d.si.ñu14.1110.222.wav,fe,ñu,ñi,sil,ra,si,ba,sil1,te,su,sil2,"['false alarm', 'catch']","[0.4490000000000691, 1.56899999999996]",[1.56899999999996],1.11,no_beat,0.4589999999999599,0.4589999999999599,"[""space"",""space""]",si,4,,,,,,,,,,,,,,,3.0,2.0,Castellano,0.0,Catalán,0.0,Inglés,8.0,3.0,5.0,no,no,no,nada,,,,nada,68.0,yes
189,2023-12-11_10h11.57.000,Unsyncopated_study2,s82,19.0,feminino,right,España,Castellano y catalán,Upper secondary,no,no,A,2,conjunction_un,L2,unsyncopated,s2,r2,53,Online_conjL2_un//d.si.ñu13.0.1110.wav,si,su,ba,sil,fe,ñu,ñi,sil1,ra,mi,sil2,['catch'],[0.9260000000001583],[0.9260000000001583],0.0,beat,0.9260000000001584,0.9260000000001584,"[""space""]",si,4,,,,,,,,,,,,,,,3.0,2.0,Castellano,0.0,Catalán,0.0,Inglés,8.0,3.0,5.0,no,no,no,nada,,,,nada,68.0,yes
190,2023-12-11_10h11.57.000,Unsyncopated_study2,s82,19.0,feminino,right,España,Castellano y catalán,Upper secondary,no,no,A,2,conjunction_un,L2,unsyncopated,s2,r1,54,Online_conjL2_un//d.si.ñu15.none.none.wav,su,mi,bi,sil,go,me,ba,sil1,du,te,sil2,['-'],,,none,none,,,,si,4,,,,,,,,,,,,,,,3.0,2.0,Castellano,0.0,Catalán,0.0,Inglés,8.0,3.0,5.0,no,no,no,nada,,,,nada,68.0,yes
191,2023-12-11_10h11.57.000,Unsyncopated_study2,s82,19.0,feminino,right,España,Castellano y catalán,Upper secondary,no,no,A,2,conjunction_un,L2,unsyncopated,s2,r1,55,Online_conjL2_un//d.si.ñu12.none.none.wav,ba,bi,mi,sil,go,to,cha,sil1,du,te,sil2,['-'],,,none,none,,,,si,4,,,,,,,,,,,,,,,3.0,2.0,Castellano,0.0,Catalán,0.0,Inglés,8.0,3.0,5.0,no,no,no,nada,,,,nada,68.0,yes
192,2023-12-11_10h11.57.000,Unsyncopated_study2,s82,19.0,feminino,right,España,Castellano y catalán,Upper secondary,no,no,A,2,conjunction_un,L2,unsyncopated,s2,r1,56,Online_conjL2_un//d.si.ñu23.none.none.wav,su,to,ñi,sil,go,mi,cha,sil1,du,ba,sil2,['-'],,,none,none,,,,si,4,,,,,,,,,,,,,,,3.0,2.0,Castellano,0.0,Catalán,0.0,Inglés,8.0,3.0,5.0,no,no,no,nada,,,,nada,68.0,yes
193,2023-12-11_10h11.57.000,Unsyncopated_study2,s82,19.0,feminino,right,España,Castellano y catalán,Upper secondary,no,no,A,2,conjunction_un,L2,unsyncopated,s1,r2,57,Online_conjL2_un//d.si.ñu20.1776.222.wav,fe,ñu,cha,sil,ra,bi,te,sil1,si,ñi,sil2,['catch'],[2.3730000000000473],[2.3730000000000473],1.776,beat,0.5970000000000473,0.5970000000000473,"[""space""]",si,4,,,,,,,,,,,,,,,3.0,2.0,Castellano,0.0,Catalán,0.0,Inglés,8.0,3.0,5.0,no,no,no,nada,,,,nada,68.0,yes
194,2023-12-11_10h11.57.000,Unsyncopated_study2,s82,19.0,feminino,right,España,Castellano y catalán,Upper secondary,no,no,A,2,conjunction_un,L2,unsyncopated,s1,r1,58,Online_conjL2_un//d.si.ñu22.none.none.wav,go,su,to,sil,du,ñi,me,sil1,bi,mi,sil2,['-'],,,none,none,,,,si,4,,,,,,,,,,,,,,,3.0,2.0,Castellano,0.0,Catalán,0.0,Inglés,8.0,3.0,5.0,no,no,no,nada,,,,nada,68.0,yes
195,2023-12-11_10h11.57.000,Unsyncopated_study2,s82,19.0,feminino,right,España,Castellano y catalán,Upper secondary,no,no,A,2,conjunction_un,L2,unsyncopated,s1,r2,59,Online_conjL2_un//d.si.ñu21.none.none.wav,fe,ba,mi,sil,ra,cha,su,sil1,to,me,sil2,['-'],,,none,none,,,,si,4,,,,,,,,,,,,,,,3.0,2.0,Castellano,0.0,Catalán,0.0,Inglés,8.0,3.0,5.0,no,no,no,nada,,,,nada,68.0,yes
196,2023-12-11_10h11.57.000,Unsyncopated_study2,s82,19.0,feminino,right,España,Castellano y catalán,Upper secondary,no,no,A,2,conjunction_un,L2,unsyncopated,s1,r2,60,Online_conjL2_un//a.go.du28.none.none.wav,fe,cha,ba,sil,ra,mi,me,sil1,bi,te,sil2,['-'],,,none,none,,,,du,2,,,,,,,,,,,,,,,3.0,2.0,Castellano,0.0,Catalán,0.0,Inglés,8.0,3.0,5.0,no,no,no,nada,,,,nada,68.0,yes
197,2023-12-11_10h11.57.000,Unsyncopated_study2,s82,19.0,feminino,right,España,Castellano y catalán,Upper secondary,no,no,A,2,conjunction_un,L2,unsyncopated,s1,r1,61,Online_conjL2_un//a.go.du29.0.888.wav,go,mi,me,sil,du,to,bi,sil1,cha,ñu,sil2,['catch'],[1.5910000000001219],[1.5910000000001219],0.888,beat,0.7030000000001219,0.7030000000001219,"[""space""]",du,2,,,,,,,,,,,,,,,3.0,2.0,Castellano,0.0,Catalán,0.0,Inglés,8.0,3.0,5.0,no,no,no,nada,,,,nada,68.0,yes
198,2023-12-11_10h11.57.000,Unsyncopated_study2,s82,19.0,feminino,right,España,Castellano y catalán,Upper secondary,no,no,A,2,conjunction_un,L2,unsyncopated,s1,r2,62,Online_conjL2_un//a.go.du30.none.none.wav,fe,cha,si,sil,ra,su,te,sil1,ba,bi,sil2,['-'],,,none,none,,,,du,2,,,,,,,,,,,,,,,3.0,2.0,Castellano,0.0,Catalán,0.0,Inglés,8.0,3.0,5.0,no,no,no,nada,,,,nada,68.0,yes
199,2023-12-11_10h11.57.000,Unsyncopated_study2,s82,19.0,feminino,right,España,Castellano y catalán,Upper secondary,no,no,A,2,conjunction_un,L2,unsyncopated,s1,r2,63,Online_conjL2_un//a.go.du31.none.none.wav,fe,to,ñi,sil,ra,bi,ñu,sil1,su,si,sil2,['-'],,,none,none,,,,du,2,,,,,,,,,,,,,,,3.0,2.0,Castellano,0.0,Catalán,0.0,Inglés,8.0,3.0,5.0,no,no,no,nada,,,,nada,68.0,yes
200,2023-12-11_10h11.57.000,Unsyncopated_study2,s82,19.0,feminino,right,España,Castellano y catalán,Upper secondary,no,no,A,2,conjunction_un,L2,unsyncopated,s2,r2,64,Online_conjL2_un//a.go.du26.none.none.wav,mi,bi,ñi,sil,fe,cha,te,sil1,ra,su,sil2,['-'],,,none,none,,,,du,2,,,,,,,,,,,,,,,3.0,2.0,Castellano,0.0,Catalán,0.0,Inglés,8.0,3.0,5.0,no,no,no,nada,,,,nada,68.0,yes
201,2023-12-11_10h11.57.000,Unsyncopated_study2,s82,19.0,feminino,right,España,Castellano y catalán,Upper secondary,no,no,A,2,conjunction_un,L2,unsyncopated,s2,r1,65,Online_conjL2_un//a.go.du27.888.1776.wav,ñu,ba,bi,sil,go,si,mi,sil1,du,te,sil2,['catch'],[2.3450000000000273],[2.3450000000000273],1.776,beat,0.5690000000000273,0.5690000000000273,"[""space""]",du,2,,,,,,,,,,,,,,,3.0,2.0,Castellano,0.0,Catalán,0.0,Inglés,8.0,3.0,5.0,no,no,no,nada,,,,nada,68.0,yes
202,2023-12-11_10h11.57.000,Unsyncopated_study2,s82,19.0,feminino,right,España,Castellano y catalán,Upper secondary,no,no,A,2,conjunction_un,L2,unsyncopated,s1,r1,66,Online_conjL2_un//a.go.du24.0.888.wav,go,si,bi,sil,du,to,me,sil1,ñi,ba,sil2,['miss'],,,0.888,beat,,,,du,2,,,,,,,,,,,,,,,3.0,2.0,Castellano,0.0,Catalán,0.0,Inglés,8.0,3.0,5.0,no,no,no,nada,,,,nada,68.0,yes
203,2023-12-11_10h11.57.000,Unsyncopated_study2,s82,19.0,feminino,right,España,Castellano y catalán,Upper secondary,no,no,A,2,conjunction_un,L2,unsyncopated,s2,r2,67,Online_conjL2_un//a.go.du25.none.none.wav,mi,ñu,ba,sil,fe,bi,to,sil1,ra,si,sil2,['-'],,,none,none,,,,du,2,,,,,,,,,,,,,,,3.0,2.0,Castellano,0.0,Catalán,0.0,Inglés,8.0,3.0,5.0,no,no,no,nada,,,,nada,68.0,yes
204,2023-12-11_10h11.57.000,Unsyncopated_study2,s82,19.0,feminino,right,España,Castellano y catalán,Upper secondary,no,no,A,2,conjunction_un,L2,unsyncopated,s1,r1,68,Online_conjL2_un//b.fe.ra7.none.none.wav,go,ñu,si,sil,du,me,ñi,sil1,te,ba,sil2,['-'],,,none,none,,,,fe,1,,,,,,,,,,,,,,,3.0,2.0,Castellano,0.0,Catalán,0.0,Inglés,8.0,3.0,5.0,no,no,no,nada,,,,nada,68.0,yes
205,2023-12-11_10h11.57.000,Unsyncopated_study2,s82,19.0,feminino,right,España,Castellano y catalán,Upper secondary,no,no,A,2,conjunction_un,L2,unsyncopated,s2,r1,69,Online_conjL2_un//b.fe.ra5.none.none.wav,cha,si,su,sil,go,bi,mi,sil1,du,ñu,sil2,['-'],,,none,none,,,,fe,1,,,,,,,,,,,,,,,3.0,2.0,Castellano,0.0,Catalán,0.0,Inglés,8.0,3.0,5.0,no,no,no,nada,,,,nada,68.0,yes
206,2023-12-11_10h11.57.000,Unsyncopated_study2,s82,19.0,feminino,right,España,Castellano y catalán,Upper secondary,no,no,A,2,conjunction_un,L2,unsyncopated,s2,r2,70,Online_conjL2_un//b.fe.ra4.888.1776.wav,bi,ñi,to,sil,fe,me,ba,sil1,ra,cha,sil2,['catch'],[1.3730000000000473],[1.3730000000000473],0.888,beat,0.4850000000000473,0.4850000000000473,"[""space""]",fe,1,,,,,,,,,,,,,,,3.0,2.0,Castellano,0.0,Catalán,0.0,Inglés,8.0,3.0,5.0,no,no,no,nada,,,,nada,68.0,yes
207,2023-12-11_10h11.57.000,Unsyncopated_study2,s82,19.0,feminino,right,España,Castellano y catalán,Upper secondary,no,no,A,2,conjunction_un,L2,unsyncopated,s1,r2,71,Online_conjL2_un//b.fe.ra6.0.888.wav,fe,me,ñu,sil,ra,ñi,mi,sil1,to,bi,sil2,['catch'],[0.9929999999999382],[0.9929999999999382],0.0,beat,0.9929999999999382,0.9929999999999382,"[""space""]",fe,1,,,,,,,,,,,,,,,3.0,2.0,Castellano,0.0,Catalán,0.0,Inglés,8.0,3.0,5.0,no,no,no,nada,,,,nada,68.0,yes
208,2023-12-11_10h11.57.000,Unsyncopated_study2,s82,19.0,feminino,right,España,Castellano y catalán,Upper secondary,no,no,A,2,conjunction_un,L2,unsyncopated,s2,r1,72,Online_conjL2_un//c.cha.me24.444.0.wav,me,ba,cha,sil,go,su,bi,sil1,du,ñu,sil2,['catch'],[0.9819999999999709],[0.9819999999999709],0.444,no_beat,0.537999999999971,0.537999999999971,"[""space""]",cha,3,,,,,,,,,,,,,,,3.0,2.0,Castellano,0.0,Catalán,0.0,Inglés,8.0,3.0,5.0,no,no,no,nada,,,,nada,68.0,yes
209,2023-12-11_10h11.57.000,Unsyncopated_study2,s82,19.0,feminino,right,España,Castellano y catalán,Upper secondary,no,no,A,2,conjunction_un,L2,unsyncopated,s1,r2,73,Online_conjL2_un//c.cha.me27.1776.444.wav,fe,bi,me,sil,ra,mi,ba,sil1,cha,ñu,sil2,['catch'],[2.1979999999998654],[2.1979999999998654],1.776,beat,0.4219999999998653,0.4219999999998653,"[""space""]",cha,3,,,,,,,,,,,,,,,3.0,2.0,Castellano,0.0,Catalán,0.0,Inglés,8.0,3.0,5.0,no,no,no,nada,,,,nada,68.0,yes
210,2023-12-11_10h11.57.000,Unsyncopated_study2,s82,19.0,feminino,right,España,Castellano y catalán,Upper secondary,no,no,A,2,conjunction_un,L2,unsyncopated,s1,r2,74,Online_conjL2_un//c.cha.me25.none.none.wav,fe,ñu,ba,sil,ra,ñi,si,sil1,te,su,sil2,['-'],,,none,none,,,,cha,3,,,,,,,,,,,,,,,3.0,2.0,Castellano,0.0,Catalán,0.0,Inglés,8.0,3.0,5.0,no,no,no,nada,,,,nada,68.0,yes
211,2023-12-11_10h11.57.000,Unsyncopated_study2,s82,19.0,feminino,right,España,Castellano y catalán,Upper secondary,no,no,A,2,conjunction_un,L2,unsyncopated,s2,r1,75,Online_conjL2_un//c.cha.me26.none.none.wav,to,si,ba,sil,go,ñi,ñu,sil1,du,bi,sil2,['-'],,,none,none,,,,cha,3,,,,,,,,,,,,,,,3.0,2.0,Castellano,0.0,Catalán,0.0,Inglés,8.0,3.0,5.0,no,no,no,nada,,,,nada,68.0,yes
212,2023-12-11_10h11.57.000,Unsyncopated_study2,s82,19.0,feminino,right,España,Castellano y catalán,Upper secondary,no,no,A,2,conjunction_un,L2,unsyncopated,s1,r2,76,Online_conjL2_un//c.cha.me14.none.none.wav,fe,mi,su,sil,ra,si,ba,sil1,te,ñi,sil2,['-'],,,none,none,,,,cha,3,,,,,,,,,,,,,,,3.0,2.0,Castellano,0.0,Catalán,0.0,Inglés,8.0,3.0,5.0,no,no,no,nada,,,,nada,68.0,yes
213,2023-12-11_10h11.57.000,Unsyncopated_study2,s82,19.0,feminino,right,España,Castellano y catalán,Upper secondary,no,no,A,2,conjunction_un,L2,unsyncopated,s1,r1,77,Online_conjL2_un//c.cha.me13.none.none.wav,go,bi,su,sil,du,si,te,sil1,mi,ñu,sil2,['-'],,,none,none,,,,cha,3,,,,,,,,,,,,,,,3.0,2.0,Castellano,0.0,Catalán,0.0,Inglés,8.0,3.0,5.0,no,no,no,nada,,,,nada,68.0,yes
214,2023-12-11_10h11.57.000,Unsyncopated_study2,s82,19.0,feminino,right,España,Castellano y catalán,Upper secondary,no,no,A,2,conjunction_un,L2,unsyncopated,s2,r1,78,Online_conjL2_un//c.cha.me15.444.1110.wav,mi,ba,cha,sil,go,me,si,sil1,du,te,sil2,['catch'],[0.9759999999998854],[0.9759999999998854],0.444,no_beat,0.5319999999998855,0.5319999999998855,"[""space""]",cha,3,,,,,,,,,,,,,,,3.0,2.0,Castellano,0.0,Catalán,0.0,Inglés,8.0,3.0,5.0,no,no,no,nada,,,,nada,68.0,yes
215,2023-12-11_10h11.57.000,Unsyncopated_study2,s82,19.0,feminino,right,España,Castellano y catalán,Upper secondary,no,no,A,2,conjunction_un,L2,unsyncopated,s1,r1,79,Online_conjL2_un//c.cha.me12.1332.222.wav,go,me,si,sil,du,ñu,cha,sil1,ñi,bi,sil2,['miss'],,,1.332,no_beat,,,,cha,3,,,,,,,,,,,,,,,3.0,2.0,Castellano,0.0,Catalán,0.0,Inglés,8.0,3.0,5.0,no,no,no,nada,,,,nada,68.0,yes
216,2023-12-11_10h11.57.000,Unsyncopated_study2,s82,19.0,feminino,right,España,Castellano y catalán,Upper secondary,no,no,A,2,conjunction_un,L2,unsyncopated,s1,r1,80,Online_conjL2_un//b.fe.ra22.none.none.wav,go,te,to,sil,du,me,ñu,sil1,ñi,si,sil2,['-'],,,none,none,,,,fe,1,,,,,,,,,,,,,,,3.0,2.0,Castellano,0.0,Catalán,0.0,Inglés,8.0,3.0,5.0,no,no,no,nada,,,,nada,68.0,yes
217,2023-12-11_10h11.57.000,Unsyncopated_study2,s82,19.0,feminino,right,España,Castellano y catalán,Upper secondary,no,no,A,2,conjunction_un,L2,unsyncopated,s2,r1,81,Online_conjL2_un//b.fe.ra21.none.none.wav,bi,ba,to,sil,go,te,si,sil1,du,me,sil2,['-'],,,none,none,,,,fe,1,,,,,,,,,,,,,,,3.0,2.0,Castellano,0.0,Catalán,0.0,Inglés,8.0,3.0,5.0,no,no,no,nada,,,,nada,68.0,yes
218,2023-12-11_10h11.57.000,Unsyncopated_study2,s82,19.0,feminino,right,España,Castellano y catalán,Upper secondary,no,no,A,2,conjunction_un,L2,unsyncopated,s2,r2,82,Online_conjL2_un//b.fe.ra20.888.1776.wav,bi,ñi,me,sil,fe,cha,si,sil1,ra,su,sil2,['catch'],[1.425000000000182],[1.425000000000182],0.888,beat,0.5370000000001819,0.5370000000001819,"[""space""]",fe,1,,,,,,,,,,,,,,,3.0,2.0,Castellano,0.0,Catalán,0.0,Inglés,8.0,3.0,5.0,no,no,no,nada,,,,nada,68.0,yes
219,2023-12-11_10h11.57.000,Unsyncopated_study2,s82,19.0,feminino,right,España,Castellano y catalán,Upper secondary,no,no,A,2,conjunction_un,L2,unsyncopated,s2,r1,83,Online_conjL2_un//b.fe.ra23.none.none.wav,ñu,ba,mi,sil,go,to,ñi,sil1,du,bi,sil2,['-'],,,none,none,,,,fe,1,,,,,,,,,,,,,,,3.0,2.0,Castellano,0.0,Catalán,0.0,Inglés,8.0,3.0,5.0,no,no,no,nada,,,,nada,68.0,yes
220,2023-12-11_10h11.57.000,Unsyncopated_study2,s82,19.0,feminino,right,España,Castellano y catalán,Upper secondary,no,no,A,2,conjunction_un,L2,unsyncopated,s1,r2,84,Online_conjL2_un//a.go.du0.none.none.wav,fe,ñu,ba,sil,ra,mi,cha,sil1,bi,si,sil2,['false alarm'],[0.5979999999999563],[0.5979999999999563],none,none,,,"[""space""]",du,2,,,,,,,,,,,,,,,3.0,2.0,Castellano,0.0,Catalán,0.0,Inglés,8.0,3.0,5.0,no,no,no,nada,,,,nada,68.0,yes
221,2023-12-11_10h11.57.000,Unsyncopated_study2,s82,19.0,feminino,right,España,Castellano y catalán,Upper secondary,no,no,A,2,conjunction_un,L2,unsyncopated,s2,r1,85,Online_conjL2_un//a.go.du2.888.1776.wav,si,me,to,sil,go,bi,te,sil1,du,cha,sil2,['catch'],[2.2690000000000055],[2.2690000000000055],1.776,beat,0.4930000000000054,0.4930000000000054,"[""space""]",du,2,,,,,,,,,,,,,,,3.0,2.0,Castellano,0.0,Catalán,0.0,Inglés,8.0,3.0,5.0,no,no,no,nada,,,,nada,68.0,yes
222,2023-12-11_10h11.57.000,Unsyncopated_study2,s82,19.0,feminino,right,España,Castellano y catalán,Upper secondary,no,no,A,2,conjunction_un,L2,unsyncopated,s2,r2,86,Online_conjL2_un//a.go.du3.none.none.wav,te,bi,su,sil,fe,me,ñi,sil1,ra,si,sil2,['-'],,,none,none,,,,du,2,,,,,,,,,,,,,,,3.0,2.0,Castellano,0.0,Catalán,0.0,Inglés,8.0,3.0,5.0,no,no,no,nada,,,,nada,68.0,yes
223,2023-12-11_10h11.57.000,Unsyncopated_study2,s82,19.0,feminino,right,España,Castellano y catalán,Upper secondary,no,no,A,2,conjunction_un,L2,unsyncopated,s1,r1,87,Online_conjL2_un//a.go.du1.0.888.wav,go,bi,si,sil,du,ñu,ba,sil1,mi,cha,sil2,['catch'],[1.7829999999999018],[1.7829999999999018],0.888,beat,0.8949999999999018,0.8949999999999018,"[""space""]",du,2,,,,,,,,,,,,,,,3.0,2.0,Castellano,0.0,Catalán,0.0,Inglés,8.0,3.0,5.0,no,no,no,nada,,,,nada,68.0,yes
