Unnamed: 0,date,expName,participant,age,sex,hand,residence,native_lang,education_level,lang_deficit,aud_deficit,group,block,condition,language,rhythm,rule structure online,rule type online,order_trial_on,trial_online,s1,s2,s3,s4,s5,s6,s7,s8,s9,s10,s11,catch_syll_resp,rts_syll_catch,clean_rts,time_syll,beat_no_beat,catch_rtsTR,catch_rts,syllable_catch.keys,cond_syll,syll_to_catch,test_offline,block_off,condition_off,rhythm_off,rule,rule_str_off,rule_norule,conds_offline,language_off,Partz_no_partm.keys,Partz_no_partm.rt,security_1_7.keys,accuracy,security_1_7.rt,n_lang,n_lang_used,lang_1,age_l1,lang_2,age_l2,ability_learn_l2,tendence_mix_lan,music_experience,muisc_use,partiture,instr_1,age_M1,instr_2,age_M2,preguntas_musica1,BMRQ_answer.response,final comment,BMRQ_Score,bilingual
0,2024-01-13_15h43.41.306,Unsyncopated_study2,s90,20.0,feminino,right,españa,español y catalán,Bachelor degree,no,no,A,1,when,L4,unsyncopated,when,when,0,Online_whenL4//b.ja19.none.wav,ñi,da,nu,sil,ña,bo,de,sil1,po,lo,sil2,['-'],,,none,none,,,,ja,1,testWhenL4Uns//dep_viol.r2.s2.0.wav,1.0,when,unsyncopated,b,s2,no_rule,dep,L4,z,0.8303,7.0,1.0,15.0032,2.0,2.0,español,0.0,catalán,0.0,1.0,1.0,yes,no,no,guitarra,6,piano,6,1. Cuando comparto música con alguien siento una complicidad especial con aquella persona.,2.0,nada,60.0,yes
1,2024-01-13_15h43.41.306,Unsyncopated_study2,s90,20.0,feminino,right,españa,español y catalán,Bachelor degree,no,no,A,1,when,L4,unsyncopated,when,when,1,Online_whenL4//b.ja17.none.wav,pe,ru,ñi,sil,zi,lo,re,sil1,de,bu,sil2,['-'],,,none,none,,,,ja,1,testWhenL4Uns//r2.s2.1.wav,1.0,when,unsyncopated,b,s2,rule,rule,L4,m,4.1507,4.0,0.0,3.1668,2.0,2.0,español,0.0,catalán,0.0,1.0,1.0,yes,no,no,guitarra,6,piano,6,2. En mi tiempo libre apenas escucho música.,5.0,nada,60.0,yes
2,2024-01-13_15h43.41.306,Unsyncopated_study2,s90,20.0,feminino,right,españa,español y catalán,Bachelor degree,no,no,A,1,when,L4,unsyncopated,when,when,2,Online_whenL4//b.ja18.none.wav,bo,re,ru,sil,de,lo,zi,sil1,ci,ña,sil2,['-'],,,none,none,,,,ja,1,testWhenL4Uns//time_viol.r2.s1.0.wav,1.0,when,unsyncopated,b,s1,no_rule,time,L4,z,3.8055,3.0,1.0,2.6006,2.0,2.0,español,0.0,catalán,0.0,1.0,1.0,yes,no,no,guitarra,6,piano,6,3. Algunas canciones me ponen los pelos de punta,2.0,nada,60.0,yes
3,2024-01-13_15h43.41.306,Unsyncopated_study2,s90,20.0,feminino,right,españa,español y catalán,Bachelor degree,no,no,A,1,when,L4,unsyncopated,when,when,3,Online_whenL4//b.ja16.1110.wav,re,ci,bu,sil,de,ja,ru,sil1,pe,nu,sil2,['catch'],[1.5049000000003616],[1.5049000000003616],1.11,no_beat,0.3949000000003615,0.3949000000003615,"[""space""]",ja,1,testWhenL4Uns//cat_viol.r1.s2.0.wav,1.0,when,unsyncopated,a,s2,no_rule,cat,L4,m,2.7342,5.0,0.0,2.0235,2.0,2.0,español,0.0,catalán,0.0,1.0,1.0,yes,no,no,guitarra,6,piano,6,4. La música me hace compañía cuando estoy solo,4.0,nada,60.0,yes
4,2024-01-13_15h43.41.306,Unsyncopated_study2,s90,20.0,feminino,right,españa,español y catalán,Bachelor degree,no,no,A,1,when,L4,unsyncopated,when,when,4,Online_whenL4//d.pe18.none.wav,zi,re,po,sil,bo,ja,ci,sil1,ru,da,sil2,['-'],,,none,none,,,,pe,4,testWhenL4Uns//r2.s2.0.wav,1.0,when,unsyncopated,b,s2,rule,rule,L4,m,1.3824,3.0,0.0,1.9185,2.0,2.0,español,0.0,catalán,0.0,1.0,1.0,yes,no,no,guitarra,6,piano,6,5. No me apetece bailar ni con la música que más me gusta,5.0,nada,60.0,yes
5,2024-01-13_15h43.41.306,Unsyncopated_study2,s90,20.0,feminino,right,españa,español y catalán,Bachelor degree,no,no,A,1,when,L4,unsyncopated,when,when,5,Online_whenL4//d.pe16.888.wav,lo,bu,zi,sil,pe,ñi,da,sil1,ci,ña,sil2,['catch'],[1.2729000000003907],[1.2729000000003907],0.888,beat,0.3849000000003907,0.3849000000003907,"[""space""]",pe,4,testWhenL4Uns//r1.s1.1.wav,1.0,when,unsyncopated,a,s1,rule,rule,L4,z,1.6237,6.0,1.0,1.6339,2.0,2.0,español,0.0,catalán,0.0,1.0,1.0,yes,no,no,guitarra,6,piano,6,6. La música me hace conectar con la gente,2.0,nada,60.0,yes
6,2024-01-13_15h43.41.306,Unsyncopated_study2,s90,20.0,feminino,right,españa,español y catalán,Bachelor degree,no,no,A,1,when,L4,unsyncopated,when,when,6,Online_whenL4//d.pe19.none.wav,nu,ci,ñi,sil,de,po,ru,sil1,ña,zi,sil2,['-'],,,none,none,,,,pe,4,testWhenL4Uns//cat_viol.r2.s2.0.wav,1.0,when,unsyncopated,b,s2,no_rule,cat,L4,m,0.7334,3.0,0.0,0.8665,2.0,2.0,español,0.0,catalán,0.0,1.0,1.0,yes,no,no,guitarra,6,piano,6,7. Me informo sobre la música que me gusta.,1.0,nada,60.0,yes
7,2024-01-13_15h43.41.306,Unsyncopated_study2,s90,20.0,feminino,right,españa,español y catalán,Bachelor degree,no,no,A,1,when,L4,unsyncopated,when,when,7,Online_whenL4//d.pe17.444.wav,ci,ru,pe,sil,ña,bu,zi,sil1,ñi,nu,sil2,['catch'],[1.1405000000000314],[1.1405000000000314],0.444,no_beat,0.6965000000000314,0.6965000000000314,"[""space""]",pe,4,testWhenL4Uns//dep_viol.r1.s1.0.wav,1.0,when,unsyncopated,a,s1,no_rule,dep,L4,z,0.2998,6.0,1.0,1.3658,2.0,2.0,español,0.0,catalán,0.0,1.0,1.0,yes,no,no,guitarra,6,piano,6,8.Me emociono escuchando ciertas canciones.,3.0,nada,60.0,yes
8,2024-01-13_15h43.41.306,Unsyncopated_study2,s90,20.0,feminino,right,españa,español y catalán,Bachelor degree,no,no,A,1,when,L4,unsyncopated,when,when,8,Online_whenL4//d.pe24.0.wav,pe,de,re,sil,zi,ña,bo,sil1,ja,ñi,sil2,['catch'],[0.6205999999996266],[0.6205999999996266],0.0,beat,0.6205999999996266,0.6205999999996266,"[""space""]",pe,4,testWhenL4Uns//dep_viol.r2.s1.0.wav,1.0,when,unsyncopated,b,s1,no_rule,dep,L4,m,1.0991,2.0,0.0,0.6244,2.0,2.0,español,0.0,catalán,0.0,1.0,1.0,yes,no,no,guitarra,6,piano,6,9.La música me tranquiliza y me relaja.,4.0,nada,60.0,yes
9,2024-01-13_15h43.41.306,Unsyncopated_study2,s90,20.0,feminino,right,españa,español y catalán,Bachelor degree,no,no,A,1,when,L4,unsyncopated,when,when,9,Online_whenL4//d.pe25.none.wav,re,bu,ja,sil,da,bo,ci,sil1,nu,ru,sil2,['-'],,,none,none,,,,pe,4,testWhenL4Uns//r1.s1.2.wav,1.0,when,unsyncopated,a,s1,rule,rule,L4,z,1.017,4.0,1.0,2.2882,2.0,2.0,español,0.0,catalán,0.0,1.0,1.0,yes,no,no,guitarra,6,piano,6,10.La música me hace bailar,4.0,nada,60.0,yes
10,2024-01-13_15h43.41.306,Unsyncopated_study2,s90,20.0,feminino,right,españa,español y catalán,Bachelor degree,no,no,A,1,when,L4,unsyncopated,when,when,10,Online_whenL4//d.pe27.222.wav,ru,pe,nu,sil,zi,ña,ci,sil1,ñi,bu,sil2,['miss'],,,0.222,no_beat,,,,pe,4,testWhenL4Uns//cat_viol.r1.s1.0.wav,1.0,when,unsyncopated,a,s1,no_rule,cat,L4,z,0.3018,6.0,1.0,1.4845,2.0,2.0,español,0.0,catalán,0.0,1.0,1.0,yes,no,no,guitarra,6,piano,6,11.Busco novedades musicales continuamente,2.0,nada,60.0,yes
11,2024-01-13_15h43.41.306,Unsyncopated_study2,s90,20.0,feminino,right,españa,español y catalán,Bachelor degree,no,no,A,1,when,L4,unsyncopated,when,when,11,Online_whenL4//d.pe26.none.wav,lo,re,ña,sil,bo,po,ñi,sil1,zi,da,sil2,['-'],,,none,none,,,,pe,4,testWhenL4Uns//r1.s2.0.wav,1.0,when,unsyncopated,a,s2,rule,rule,L4,z,0.9831,3.0,1.0,3.6501,2.0,2.0,español,0.0,catalán,0.0,1.0,1.0,yes,no,no,guitarra,6,piano,6,12. Puedo llorar cuando escucho algunas melodías que me gustan mucho.,2.0,nada,60.0,yes
12,2024-01-13_15h43.41.306,Unsyncopated_study2,s90,20.0,feminino,right,españa,español y catalán,Bachelor degree,no,no,A,1,when,L4,unsyncopated,when,when,12,Online_whenL4//b.ja15.444.wav,da,ci,ja,sil,bo,ru,pe,sil1,zi,bu,sil2,['catch'],[1.0349000000003912],[1.0349000000003912],0.444,no_beat,0.5909000000003912,0.5909000000003912,"[""space""]",ja,1,testWhenL4Uns//r2.s1.0.wav,1.0,when,unsyncopated,b,s1,rule,rule,L4,m,0.7173,4.0,0.0,1.2501,2.0,2.0,español,0.0,catalán,0.0,1.0,1.0,yes,no,no,guitarra,6,piano,6,13. Me gusta cantar o tocar un instrumento con más gente,3.0,nada,60.0,yes
13,2024-01-13_15h43.41.306,Unsyncopated_study2,s90,20.0,feminino,right,españa,español y catalán,Bachelor degree,no,no,A,1,when,L4,unsyncopated,when,when,13,Online_whenL4//b.ja13.none.wav,bo,de,ña,sil,re,bu,lo,sil1,pe,zi,sil2,['-'],,,none,none,,,,ja,1,testWhenL4Uns//r2.s1.1.wav,1.0,when,unsyncopated,b,s1,rule,rule,L4,m,0.6509,3.0,0.0,0.7353,2.0,2.0,español,0.0,catalán,0.0,1.0,1.0,yes,no,no,guitarra,6,piano,6,14. La música me ayuda a desconectar.,4.0,nada,60.0,yes
14,2024-01-13_15h43.41.306,Unsyncopated_study2,s90,20.0,feminino,right,españa,español y catalán,Bachelor degree,no,no,A,1,when,L4,unsyncopated,when,when,14,Online_whenL4//b.ja12.444.wav,nu,ñi,ja,sil,pe,da,ña,sil1,re,ru,sil2,['catch'],[0.9378999999994448],[0.9378999999994448],0.444,no_beat,0.4938999999994448,0.4938999999994448,"[""space""]",ja,1,testWhenL4Uns//r1.s2.1.wav,1.0,when,unsyncopated,a,s2,rule,rule,L4,z,1.4824,5.0,1.0,1.3244,2.0,2.0,español,0.0,catalán,0.0,1.0,1.0,yes,no,no,guitarra,6,piano,6,15. No puedo evitar tararear las canciones que me gustan cuando las escucho.,4.0,nada,60.0,yes
15,2024-01-13_15h43.41.306,Unsyncopated_study2,s90,20.0,feminino,right,españa,español y catalán,Bachelor degree,no,no,A,1,when,L4,unsyncopated,when,when,15,Online_whenL4//b.ja14.888.wav,zi,ña,po,sil,ja,bu,de,sil1,bo,ru,sil2,['catch'],[1.3562000000001717],[1.3562000000001717],0.888,beat,0.4682000000001717,0.4682000000001717,"[""space""]",ja,1,testWhenL4Uns//r1.s1.0.wav,1.0,when,unsyncopated,a,s1,rule,rule,L4,m,1.8019,2.0,0.0,0.6913,2.0,2.0,español,0.0,catalán,0.0,1.0,1.0,yes,no,no,guitarra,6,piano,6,16. En los conciertos me siento en sintonía con los artistas y el público.,3.0,nada,60.0,yes
16,2024-01-13_15h43.41.306,Unsyncopated_study2,s90,20.0,feminino,right,españa,español y catalán,Bachelor degree,no,no,A,1,when,L4,unsyncopated,when,when,16,Online_whenL4//d.pe8.1998.wav,bo,ru,ña,sil,nu,ñi,ja,sil1,po,pe,sil2,['catch'],[2.369000000000028],[2.369000000000028],1.998,no_beat,0.3710000000000282,0.3710000000000282,"[""space""]",pe,4,testWhenL4Uns//time_viol.r1.s2.0.wav,1.0,when,unsyncopated,a,s2,no_rule,time,L4,z,0.6371,6.0,1.0,0.9493,2.0,2.0,español,0.0,catalán,0.0,1.0,1.0,yes,no,no,guitarra,6,piano,6,17. Me gasto bastante dinero en música y cosas relacionadas con la música.,1.0,nada,60.0,yes
17,2024-01-13_15h43.41.306,Unsyncopated_study2,s90,20.0,feminino,right,españa,español y catalán,Bachelor degree,no,no,A,1,when,L4,unsyncopated,when,when,17,Online_whenL4//d.pe10.888.wav,da,zi,po,sil,pe,lo,ru,sil1,ci,re,sil2,['catch'],[1.35450000000003],[1.35450000000003],0.888,beat,0.46650000000003,0.46650000000003,"[""space""]",pe,4,testWhenL4Uns//cat_viol.r2.s1.0.wav,1.0,when,unsyncopated,b,s1,no_rule,cat,L4,z,0.3841,5.0,1.0,0.8843,2.0,2.0,español,0.0,catalán,0.0,1.0,1.0,yes,no,no,guitarra,6,piano,6,18. Siento escalofríos cuando escucho una melodía que me gusta.,2.0,nada,60.0,yes
18,2024-01-13_15h43.41.306,Unsyncopated_study2,s90,20.0,feminino,right,españa,español y catalán,Bachelor degree,no,no,A,1,when,L4,unsyncopated,when,when,18,Online_whenL4//d.pe9.none.wav,de,bu,da,sil,zi,ña,nu,sil1,ci,re,sil2,['-'],,,none,none,,,,pe,4,testWhenL4Uns//time_viol.r1.s1.0.wav,1.0,when,unsyncopated,a,s1,no_rule,time,L4,m,0.817,4.0,0.0,0.8541,2.0,2.0,español,0.0,catalán,0.0,1.0,1.0,yes,no,no,guitarra,6,piano,6,19. Con la música me puedo desahogar.,3.0,nada,60.0,yes
19,2024-01-13_15h43.41.306,Unsyncopated_study2,s90,20.0,feminino,right,españa,español y catalán,Bachelor degree,no,no,A,1,when,L4,unsyncopated,when,when,19,Online_whenL4//d.pe11.none.wav,re,da,zi,sil,bu,lo,ña,sil1,ci,po,sil2,['-'],,,none,none,,,,pe,4,testWhenL4Uns//r2.s2.2.wav,1.0,when,unsyncopated,b,s2,rule,rule,L4,z,1.0061,7.0,1.0,1.283,2.0,2.0,español,0.0,catalán,0.0,1.0,1.0,yes,no,no,guitarra,6,piano,6,20. Cuando escucho una melodía que me gusta mucho no puedo evitar mover el cuerpo.,4.0,nada,60.0,yes
20,2024-01-13_15h43.41.306,Unsyncopated_study2,s90,20.0,feminino,right,españa,español y catalán,Bachelor degree,no,no,A,1,when,L4,unsyncopated,when,when,20,Online_whenL4//d.pe31.1332.wav,bu,re,ru,sil,ja,de,pe,sil1,ci,zi,sil2,['catch'],[1.8675000000000068],[1.8675000000000068],1.332,no_beat,0.5355000000000067,0.5355000000000067,"[""space""]",pe,4,testWhenL4Uns//dep_viol.r1.s2.0.wav,1.0,when,unsyncopated,a,s2,no_rule,dep,L4,m,0.2705,1.0,0.0,0.5048,2.0,2.0,español,0.0,catalán,0.0,1.0,1.0,yes,no,no,guitarra,6,piano,6,,,nada,60.0,yes
21,2024-01-13_15h43.41.306,Unsyncopated_study2,s90,20.0,feminino,right,españa,español y catalán,Bachelor degree,no,no,A,1,when,L4,unsyncopated,when,when,21,Online_whenL4//d.pe28.none.wav,bo,nu,lo,sil,ru,re,bu,sil1,po,da,sil2,['-'],,,none,none,,,,pe,4,testWhenL4Uns//time_viol.r2.s2.0.wav,1.0,when,unsyncopated,b,s2,no_rule,time,L4,z,0.3339,6.0,1.0,0.3353,2.0,2.0,español,0.0,catalán,0.0,1.0,1.0,yes,no,no,guitarra,6,piano,6,,,nada,60.0,yes
22,2024-01-13_15h43.41.306,Unsyncopated_study2,s90,20.0,feminino,right,españa,español y catalán,Bachelor degree,no,no,A,1,when,L4,unsyncopated,when,when,22,Online_whenL4//d.pe30.none.wav,ru,lo,po,sil,nu,de,da,sil1,ña,ñi,sil2,['-'],,,none,none,,,,pe,4,testWhenL4Uns//r2.s1.2.wav,1.0,when,unsyncopated,b,s1,rule,rule,L4,m,0.1032,3.0,0.0,0.472,2.0,2.0,español,0.0,catalán,0.0,1.0,1.0,yes,no,no,guitarra,6,piano,6,,,nada,60.0,yes
23,2024-01-13_15h43.41.306,Unsyncopated_study2,s90,20.0,feminino,right,españa,español y catalán,Bachelor degree,no,no,A,1,when,L4,unsyncopated,when,when,23,Online_whenL4//d.pe29.none.wav,da,po,ja,sil,bu,bo,lo,sil1,ña,de,sil2,['-'],,,none,none,,,,pe,4,testWhenL4Uns//r1.s2.2.wav,1.0,when,unsyncopated,a,s2,rule,rule,L4,m,0.0987,4.0,0.0,0.4345,2.0,2.0,español,0.0,catalán,0.0,1.0,1.0,yes,no,no,guitarra,6,piano,6,,,nada,60.0,yes
24,2024-01-13_15h43.41.306,Unsyncopated_study2,s90,20.0,feminino,right,españa,español y catalán,Bachelor degree,no,no,A,1,when,L4,unsyncopated,when,when,24,Online_whenL4//c.bu29.none.wav,ja,nu,po,sil,da,re,de,sil1,ru,ci,sil2,['-'],,,none,none,,,,bu,3,testConjL2Uns//dep_viol.r1.s2.0.wav,2.0,conjunction_un,unsyncopated,a,s2,no_rule,dep,L2,z,1.6041,6.0,0.0,1.5916,2.0,2.0,español,0.0,catalán,0.0,1.0,1.0,yes,no,no,guitarra,6,piano,6,,,nada,60.0,yes
25,2024-01-13_15h43.41.306,Unsyncopated_study2,s90,20.0,feminino,right,españa,español y catalán,Bachelor degree,no,no,A,1,when,L4,unsyncopated,when,when,25,Online_whenL4//c.bu31.none.wav,ru,bo,ci,sil,lo,po,pe,sil1,zi,ña,sil2,['-'],,,none,none,,,,bu,3,testConjL2Uns//r2.s1.1.wav,2.0,conjunction_un,unsyncopated,b,s1,rule,rule,L2,z,1.9041,5.0,1.0,1.0693,2.0,2.0,español,0.0,catalán,0.0,1.0,1.0,yes,no,no,guitarra,6,piano,6,,,nada,60.0,yes
26,2024-01-13_15h43.41.306,Unsyncopated_study2,s90,20.0,feminino,right,españa,español y catalán,Bachelor degree,no,no,A,1,when,L4,unsyncopated,when,when,26,Online_whenL4//c.bu28.1998.wav,ñi,re,ru,sil,ja,zi,ña,sil1,pe,bu,sil2,['catch'],[2.537499999999966],[2.537499999999966],1.998,no_beat,0.5394999999999659,0.5394999999999659,"[""space""]",bu,3,testConjL2Uns//r1.s2.0.wav,2.0,conjunction_un,unsyncopated,a,s2,rule,rule,L2,z,2.7502,6.0,1.0,0.9538,2.0,2.0,español,0.0,catalán,0.0,1.0,1.0,yes,no,no,guitarra,6,piano,6,,,nada,60.0,yes
27,2024-01-13_15h43.41.306,Unsyncopated_study2,s90,20.0,feminino,right,españa,español y catalán,Bachelor degree,no,no,A,1,when,L4,unsyncopated,when,when,27,Online_whenL4//c.bu30.none.wav,ña,ru,lo,sil,bo,ci,ñi,sil1,nu,po,sil2,['-'],,,none,none,,,,bu,3,testConjL2Uns//cat_viol.r1.s2.0.wav,2.0,conjunction_un,unsyncopated,a,s2,no_rule,cat,L2,m,1.3828,3.0,1.0,0.8524,2.0,2.0,español,0.0,catalán,0.0,1.0,1.0,yes,no,no,guitarra,6,piano,6,,,nada,60.0,yes
28,2024-01-13_15h43.41.306,Unsyncopated_study2,s90,20.0,feminino,right,españa,español y catalán,Bachelor degree,no,no,A,1,when,L4,unsyncopated,when,when,28,Online_whenL4//b.ja10.none.wav,bu,lo,pe,sil,zi,po,ru,sil1,ci,de,sil2,['false alarm'],[0.5847999999998024],[0.5847999999998024],none,none,,,"[""space""]",ja,1,testConjL2Uns//time_viol.r1.s2.0.wav,2.0,conjunction_un,unsyncopated,a,s2,no_rule,time,L2,m,0.2845,7.0,1.0,1.5175,2.0,2.0,español,0.0,catalán,0.0,1.0,1.0,yes,no,no,guitarra,6,piano,6,,,nada,60.0,yes
29,2024-01-13_15h43.41.306,Unsyncopated_study2,s90,20.0,feminino,right,españa,español y catalán,Bachelor degree,no,no,A,1,when,L4,unsyncopated,when,when,29,Online_whenL4//b.ja8.1998.wav,nu,de,da,sil,re,pe,ña,sil1,bu,ja,sil2,['catch'],[2.5055999999996175],[2.5055999999996175],1.998,no_beat,0.5075999999996175,0.5075999999996175,"[""space""]",ja,1,testConjL2Uns//r1.s1.1.wav,2.0,conjunction_un,unsyncopated,a,s1,rule,rule,L2,m,0.3007,4.0,0.0,0.8679,2.0,2.0,español,0.0,catalán,0.0,1.0,1.0,yes,no,no,guitarra,6,piano,6,,,nada,60.0,yes
30,2024-01-13_15h43.41.306,Unsyncopated_study2,s90,20.0,feminino,right,españa,español y catalán,Bachelor degree,no,no,A,1,when,L4,unsyncopated,when,when,30,Online_whenL4//b.ja11.444.wav,po,da,ja,sil,nu,ru,bo,sil1,pe,de,sil2,['catch'],[0.8538000000007742],[0.8538000000007742],0.444,no_beat,0.4098000000007741,0.4098000000007741,"[""space""]",ja,1,testConjL2Uns//time_viol.r2.s1.0.wav,2.0,conjunction_un,unsyncopated,b,s1,no_rule,time,L2,m,0.7667,3.0,1.0,0.6682,2.0,2.0,español,0.0,catalán,0.0,1.0,1.0,yes,no,no,guitarra,6,piano,6,,,nada,60.0,yes
31,2024-01-13_15h43.41.306,Unsyncopated_study2,s90,20.0,feminino,right,españa,español y catalán,Bachelor degree,no,no,A,1,when,L4,unsyncopated,when,when,31,Online_whenL4//b.ja9.0.wav,ja,ci,re,sil,de,zi,pe,sil1,po,bu,sil2,['catch'],[0.5229000000003907],[0.5229000000003907],0.0,beat,0.5229000000003907,0.5229000000003907,"[""space""]",ja,1,testConjL2Uns//cat_viol.r2.s1.0.wav,2.0,conjunction_un,unsyncopated,b,s1,no_rule,cat,L2,z,0.3528,5.0,0.0,2.5028,2.0,2.0,español,0.0,catalán,0.0,1.0,1.0,yes,no,no,guitarra,6,piano,6,,,nada,60.0,yes
32,2024-01-13_15h43.41.306,Unsyncopated_study2,s90,20.0,feminino,right,españa,español y catalán,Bachelor degree,no,no,A,1,when,L4,unsyncopated,when,when,32,Online_whenL4//a.lo21.1998.wav,ñi,zi,bu,sil,de,ru,po,sil1,ña,lo,sil2,['catch'],[2.555999999999983],[2.555999999999983],1.998,no_beat,0.5579999999999832,0.5579999999999832,"[""space""]",lo,2,testConjL2Uns//dep_viol.r2.s1.0.wav,2.0,conjunction_un,unsyncopated,b,s1,no_rule,dep,L2,z,0.1177,7.0,0.0,0.4845,2.0,2.0,español,0.0,catalán,0.0,1.0,1.0,yes,no,no,guitarra,6,piano,6,,,nada,60.0,yes
33,2024-01-13_15h43.41.306,Unsyncopated_study2,s90,20.0,feminino,right,españa,español y catalán,Bachelor degree,no,no,A,1,when,L4,unsyncopated,when,when,33,Online_whenL4//a.lo20.none.wav,re,po,ja,sil,de,ña,nu,sil1,pe,ru,sil2,['-'],,,none,none,,,,lo,2,testConjL2Uns//r1.s2.2.wav,2.0,conjunction_un,unsyncopated,a,s2,rule,rule,L2,m,0.2158,3.0,0.0,0.5885,2.0,2.0,español,0.0,catalán,0.0,1.0,1.0,yes,no,no,guitarra,6,piano,6,,,nada,60.0,yes
34,2024-01-13_15h43.41.306,Unsyncopated_study2,s90,20.0,feminino,right,españa,español y catalán,Bachelor degree,no,no,A,1,when,L4,unsyncopated,when,when,34,Online_whenL4//a.lo22.444.wav,pe,ña,lo,sil,re,ñi,bo,sil1,ru,ja,sil2,['catch'],[0.889299999999821],[0.889299999999821],0.444,no_beat,0.445299999999821,0.445299999999821,"[""space""]",lo,2,testConjL2Uns//cat_viol.r1.s1.0.wav,2.0,conjunction_un,unsyncopated,a,s1,no_rule,cat,L2,m,0.167,3.0,1.0,0.3842,2.0,2.0,español,0.0,catalán,0.0,1.0,1.0,yes,no,no,guitarra,6,piano,6,,,nada,60.0,yes
35,2024-01-13_15h43.41.306,Unsyncopated_study2,s90,20.0,feminino,right,españa,español y catalán,Bachelor degree,no,no,A,1,when,L4,unsyncopated,when,when,35,Online_whenL4//a.lo23.1332.wav,nu,ña,ci,sil,re,ñi,lo,sil1,pe,bu,sil2,['catch'],[1.7311999999992622],[1.7311999999992622],1.332,no_beat,0.3991999999992621,0.3991999999992621,"[""space""]",lo,2,testConjL2Uns//cat_viol.r2.s2.0.wav,2.0,conjunction_un,unsyncopated,b,s2,no_rule,cat,L2,m,0.7541,3.0,1.0,0.5855,2.0,2.0,español,0.0,catalán,0.0,1.0,1.0,yes,no,no,guitarra,6,piano,6,,,nada,60.0,yes
36,2024-01-13_15h43.41.306,Unsyncopated_study2,s90,20.0,feminino,right,españa,español y catalán,Bachelor degree,no,no,A,1,when,L4,unsyncopated,when,when,36,Online_whenL4//b.ja34.1776.wav,re,bo,da,sil,zi,bu,ña,sil1,ja,ci,sil2,['catch'],[2.28449999999998],[2.28449999999998],1.776,beat,0.50849999999998,0.50849999999998,"[""space""]",ja,1,testConjL2Uns//r2.s2.1.wav,2.0,conjunction_un,unsyncopated,b,s2,rule,rule,L2,m,1.0187,3.0,0.0,0.8342,2.0,2.0,español,0.0,catalán,0.0,1.0,1.0,yes,no,no,guitarra,6,piano,6,,,nada,60.0,yes
37,2024-01-13_15h43.41.306,Unsyncopated_study2,s90,20.0,feminino,right,españa,español y catalán,Bachelor degree,no,no,A,1,when,L4,unsyncopated,when,when,37,Online_whenL4//b.ja35.1998.wav,ru,re,da,sil,lo,bo,ña,sil1,po,ja,sil2,['catch'],[2.3611000000005333],[2.3611000000005333],1.998,no_beat,0.3631000000005333,0.3631000000005333,"[""space""]",ja,1,testConjL2Uns//dep_viol.r1.s1.0.wav,2.0,conjunction_un,unsyncopated,a,s1,no_rule,dep,L2,z,1.9676,5.0,0.0,0.8846,2.0,2.0,español,0.0,catalán,0.0,1.0,1.0,yes,no,no,guitarra,6,piano,6,,,nada,60.0,yes
38,2024-01-13_15h43.41.306,Unsyncopated_study2,s90,20.0,feminino,right,españa,español y catalán,Bachelor degree,no,no,A,1,when,L4,unsyncopated,when,when,38,Online_whenL4//b.ja33.none.wav,ci,po,nu,sil,ñi,zi,pe,sil1,re,bu,sil2,['-'],,,none,none,,,,ja,1,testConjL2Uns//r2.s2.0.wav,2.0,conjunction_un,unsyncopated,b,s2,rule,rule,L2,z,1.2,7.0,1.0,0.4864,2.0,2.0,español,0.0,catalán,0.0,1.0,1.0,yes,no,no,guitarra,6,piano,6,,,nada,60.0,yes
39,2024-01-13_15h43.41.306,Unsyncopated_study2,s90,20.0,feminino,right,españa,español y catalán,Bachelor degree,no,no,A,1,when,L4,unsyncopated,when,when,39,Online_whenL4//b.ja32.none.wav,ru,bu,de,sil,ña,lo,nu,sil1,re,ci,sil2,['false alarm'],[2.495300000000725],[2.495300000000725],none,none,,,"[""space""]",ja,1,testConjL2Uns//r1.s1.2.wav,2.0,conjunction_un,unsyncopated,a,s1,rule,rule,L2,z,1.3503,7.0,1.0,0.5995,2.0,2.0,español,0.0,catalán,0.0,1.0,1.0,yes,no,no,guitarra,6,piano,6,,,nada,60.0,yes
40,2024-01-13_15h43.41.306,Unsyncopated_study2,s90,20.0,feminino,right,españa,español y catalán,Bachelor degree,no,no,A,1,when,L4,unsyncopated,when,when,40,Online_whenL4//a.lo4.none.wav,bo,ñi,pe,sil,ja,re,ru,sil1,nu,da,sil2,['-'],,,none,none,,,,lo,2,testConjL2Uns//time_viol.r1.s1.0.wav,2.0,conjunction_un,unsyncopated,a,s1,no_rule,time,L2,m,0.5051,2.0,1.0,0.6014,2.0,2.0,español,0.0,catalán,0.0,1.0,1.0,yes,no,no,guitarra,6,piano,6,,,nada,60.0,yes
41,2024-01-13_15h43.41.306,Unsyncopated_study2,s90,20.0,feminino,right,españa,español y catalán,Bachelor degree,no,no,A,1,when,L4,unsyncopated,when,when,41,Online_whenL4//a.lo6.none.wav,ñi,ja,ña,sil,de,re,po,sil1,nu,bo,sil2,['-'],,,none,none,,,,lo,2,testConjL2Uns//r2.s1.0.wav,2.0,conjunction_un,unsyncopated,b,s1,rule,rule,L2,m,0.6523,3.0,0.0,0.4487,2.0,2.0,español,0.0,catalán,0.0,1.0,1.0,yes,no,no,guitarra,6,piano,6,,,nada,60.0,yes
42,2024-01-13_15h43.41.306,Unsyncopated_study2,s90,20.0,feminino,right,españa,español y catalán,Bachelor degree,no,no,A,1,when,L4,unsyncopated,when,when,42,Online_whenL4//a.lo7.1776.wav,de,po,da,sil,ru,zi,ñi,sil1,lo,pe,sil2,['catch'],[2.526400000000365],[2.526400000000365],1.776,beat,0.7504000000003648,0.7504000000003648,"[""space""]",lo,2,testConjL2Uns//r2.s2.2.wav,2.0,conjunction_un,unsyncopated,b,s2,rule,rule,L2,m,0.9004,3.0,0.0,0.5341,2.0,2.0,español,0.0,catalán,0.0,1.0,1.0,yes,no,no,guitarra,6,piano,6,,,nada,60.0,yes
43,2024-01-13_15h43.41.306,Unsyncopated_study2,s90,20.0,feminino,right,españa,español y catalán,Bachelor degree,no,no,A,1,when,L4,unsyncopated,when,when,43,Online_whenL4//a.lo5.1998.wav,ci,bu,zi,sil,ru,bo,pe,sil1,de,lo,sil2,['catch'],[2.4884000000004107],[2.4884000000004107],1.998,no_beat,0.4904000000004107,0.4904000000004107,"[""space""]",lo,2,testConjL2Uns//r1.s2.1.wav,2.0,conjunction_un,unsyncopated,a,s2,rule,rule,L2,z,2.8333,7.0,1.0,1.0417,2.0,2.0,español,0.0,catalán,0.0,1.0,1.0,yes,no,no,guitarra,6,piano,6,,,nada,60.0,yes
44,2024-01-13_15h43.41.306,Unsyncopated_study2,s90,20.0,feminino,right,españa,español y catalán,Bachelor degree,no,no,A,1,when,L4,unsyncopated,when,when,44,Online_whenL4//c.bu5.444.wav,ci,ñi,bu,sil,po,nu,ña,sil1,pe,zi,sil2,"['catch', 'false alarm']","[0.9404000000004089, 2.236400000000401]",[0.9404000000004089],0.444,no_beat,0.4964000000004089,0.4964000000004089,"[""space"",""space""]",bu,3,testConjL2Uns//r2.s1.2.wav,2.0,conjunction_un,unsyncopated,b,s1,rule,rule,L2,m,0.821,2.0,0.0,0.5189,2.0,2.0,español,0.0,catalán,0.0,1.0,1.0,yes,no,no,guitarra,6,piano,6,,,nada,60.0,yes
45,2024-01-13_15h43.41.306,Unsyncopated_study2,s90,20.0,feminino,right,españa,español y catalán,Bachelor degree,no,no,A,1,when,L4,unsyncopated,when,when,45,Online_whenL4//c.bu7.none.wav,lo,ci,ja,sil,pe,ñi,da,sil1,re,ru,sil2,['-'],,,none,none,,,,bu,3,testConjL2Uns//dep_viol.r2.s2.0.wav,2.0,conjunction_un,unsyncopated,b,s2,no_rule,dep,L2,z,0.434,5.0,0.0,1.1009,2.0,2.0,español,0.0,catalán,0.0,1.0,1.0,yes,no,no,guitarra,6,piano,6,,,nada,60.0,yes
46,2024-01-13_15h43.41.306,Unsyncopated_study2,s90,20.0,feminino,right,españa,español y catalán,Bachelor degree,no,no,A,1,when,L4,unsyncopated,when,when,46,Online_whenL4//c.bu4.none.wav,ru,ña,ja,sil,ñi,de,ci,sil1,po,zi,sil2,['-'],,,none,none,,,,bu,3,testConjL2Uns//time_viol.r2.s2.0.wav,2.0,conjunction_un,unsyncopated,b,s2,no_rule,time,L2,m,2.0021,4.0,1.0,0.5219,2.0,2.0,español,0.0,catalán,0.0,1.0,1.0,yes,no,no,guitarra,6,piano,6,,,nada,60.0,yes
47,2024-01-13_15h43.41.306,Unsyncopated_study2,s90,20.0,feminino,right,españa,español y catalán,Bachelor degree,no,no,A,1,when,L4,unsyncopated,when,when,47,Online_whenL4//c.bu6.none.wav,nu,de,ci,sil,ru,zi,ña,sil1,po,ñi,sil2,['-'],,,none,none,,,,bu,3,testConjL2Uns//r1.s1.0.wav,2.0,conjunction_un,unsyncopated,a,s1,rule,rule,L2,z,1.8001,5.0,1.0,0.8234,2.0,2.0,español,0.0,catalán,0.0,1.0,1.0,yes,no,no,guitarra,6,piano,6,,,nada,60.0,yes
48,2024-01-13_15h43.41.306,Unsyncopated_study2,s90,20.0,feminino,right,españa,español y catalán,Bachelor degree,no,no,A,1,when,L4,unsyncopated,when,when,48,Online_whenL4//c.bu24.1998.wav,lo,po,ci,sil,nu,re,ñi,sil1,pe,bu,sil2,['catch'],[2.466299999999819],[2.466299999999819],1.998,no_beat,0.4682999999998192,0.4682999999998192,"[""space""]",bu,3,testConjL1Syn//time_viol.r2.s1.0.wav,3.0,conjunction_syn,syncopated,b,s1,no_rule,time,L1,z,1.2999,6.0,0.0,0.7922,2.0,2.0,español,0.0,catalán,0.0,1.0,1.0,yes,no,no,guitarra,6,piano,6,,,nada,60.0,yes
49,2024-01-13_15h43.41.306,Unsyncopated_study2,s90,20.0,feminino,right,españa,español y catalán,Bachelor degree,no,no,A,1,when,L4,unsyncopated,when,when,49,Online_whenL4//c.bu26.none.wav,po,da,ña,sil,zi,ru,lo,sil1,ci,re,sil2,['-'],,,none,none,,,,bu,3,testConjL1Syn//r1.s1.1.wav,3.0,conjunction_syn,syncopated,a,s1,rule,rule,L1,m,0.4166,2.0,0.0,0.3838,2.0,2.0,español,0.0,catalán,0.0,1.0,1.0,yes,no,no,guitarra,6,piano,6,,,nada,60.0,yes
50,2024-01-13_15h43.41.306,Unsyncopated_study2,s90,20.0,feminino,right,españa,español y catalán,Bachelor degree,no,no,A,1,when,L4,unsyncopated,when,when,50,Online_whenL4//c.bu27.0.wav,bu,de,zi,sil,ja,da,ru,sil1,bo,po,sil2,['catch'],[0.5087000000002035],[0.5087000000002035],0.0,beat,0.5087000000002035,0.5087000000002035,"[""space""]",bu,3,testConjL1Syn//dep_viol.r2.s2.0.wav,3.0,conjunction_syn,syncopated,b,s2,no_rule,dep,L1,m,1.4161,4.0,1.0,0.5007,2.0,2.0,español,0.0,catalán,0.0,1.0,1.0,yes,no,no,guitarra,6,piano,6,,,nada,60.0,yes
51,2024-01-13_15h43.41.306,Unsyncopated_study2,s90,20.0,feminino,right,españa,español y catalán,Bachelor degree,no,no,A,1,when,L4,unsyncopated,when,when,51,Online_whenL4//c.bu25.222.wav,ña,bu,de,sil,da,po,lo,sil1,ja,pe,sil2,['catch'],[0.8045000000000186],[0.8045000000000186],0.222,no_beat,0.5825000000000187,0.5825000000000187,"[""space""]",bu,3,testConjL1Syn//dep_viol.r2.s1.0.wav,3.0,conjunction_syn,syncopated,b,s1,no_rule,dep,L1,m,0.6508,4.0,1.0,0.434,2.0,2.0,español,0.0,catalán,0.0,1.0,1.0,yes,no,no,guitarra,6,piano,6,,,nada,60.0,yes
52,2024-01-13_15h43.41.306,Unsyncopated_study2,s90,20.0,feminino,right,españa,español y catalán,Bachelor degree,no,no,A,1,when,L4,unsyncopated,when,when,52,Online_whenL4//b.ja28.1776.wav,ru,po,bu,sil,bo,da,lo,sil1,ja,pe,sil2,['catch'],[2.250599999999622],[2.250599999999622],1.776,beat,0.474599999999622,0.474599999999622,"[""space""]",ja,1,testConjL1Syn//cat_viol.r2.s2.0.wav,3.0,conjunction_syn,syncopated,b,s2,no_rule,cat,L1,z,0.9164,5.0,0.0,0.9664,2.0,2.0,español,0.0,catalán,0.0,1.0,1.0,yes,no,no,guitarra,6,piano,6,,,nada,60.0,yes
53,2024-01-13_15h43.41.306,Unsyncopated_study2,s90,20.0,feminino,right,españa,español y catalán,Bachelor degree,no,no,A,1,when,L4,unsyncopated,when,when,53,Online_whenL4//b.ja31.1332.wav,ci,re,da,sil,lo,pe,ja,sil1,de,ñi,sil2,['miss'],,,1.332,no_beat,,,,ja,1,testConjL1Syn//time_viol.r1.s1.0.wav,3.0,conjunction_syn,syncopated,a,s1,no_rule,time,L1,m,0.4087,1.0,1.0,0.3512,2.0,2.0,español,0.0,catalán,0.0,1.0,1.0,yes,no,no,guitarra,6,piano,6,,,nada,60.0,yes
54,2024-01-13_15h43.41.306,Unsyncopated_study2,s90,20.0,feminino,right,españa,español y catalán,Bachelor degree,no,no,A,1,when,L4,unsyncopated,when,when,54,Online_whenL4//b.ja30.none.wav,zi,ci,de,sil,bo,da,lo,sil1,re,bu,sil2,['-'],,,none,none,,,,ja,1,testConjL1Syn//dep_viol.r1.s1.0.wav,3.0,conjunction_syn,syncopated,a,s1,no_rule,dep,L1,m,0.3183,7.0,1.0,0.4999,2.0,2.0,español,0.0,catalán,0.0,1.0,1.0,yes,no,no,guitarra,6,piano,6,,,nada,60.0,yes
55,2024-01-13_15h43.41.306,Unsyncopated_study2,s90,20.0,feminino,right,españa,español y catalán,Bachelor degree,no,no,A,1,when,L4,unsyncopated,when,when,55,Online_whenL4//b.ja29.none.wav,bu,da,nu,sil,ci,ru,ña,sil1,lo,bo,sil2,['-'],,,none,none,,,,ja,1,testConjL1Syn//cat_viol.r2.s1.0.wav,3.0,conjunction_syn,syncopated,b,s1,no_rule,cat,L1,m,0.1527,7.0,1.0,0.3513,2.0,2.0,español,0.0,catalán,0.0,1.0,1.0,yes,no,no,guitarra,6,piano,6,,,nada,60.0,yes
56,2024-01-13_15h43.41.306,Unsyncopated_study2,s90,20.0,feminino,right,españa,español y catalán,Bachelor degree,no,no,A,1,when,L4,unsyncopated,when,when,56,Online_whenL4//a.lo33.888.wav,ñi,bu,nu,sil,lo,de,ña,sil1,ci,po,sil2,['catch'],[1.4026999999992995],[1.4026999999992995],0.888,beat,0.5146999999992995,0.5146999999992995,"[""space""]",lo,2,testConjL1Syn//r1.s1.0.wav,3.0,conjunction_syn,syncopated,a,s1,rule,rule,L1,z,0.7002,5.0,1.0,1.0178,2.0,2.0,español,0.0,catalán,0.0,1.0,1.0,yes,no,no,guitarra,6,piano,6,,,nada,60.0,yes
57,2024-01-13_15h43.41.306,Unsyncopated_study2,s90,20.0,feminino,right,españa,español y catalán,Bachelor degree,no,no,A,1,when,L4,unsyncopated,when,when,57,Online_whenL4//a.lo32.1776.wav,bu,pe,ru,sil,ñi,po,ci,sil1,lo,ja,sil2,['catch'],[2.193800000000749],[2.193800000000749],1.776,beat,0.4178000000007491,0.4178000000007491,"[""space""]",lo,2,testConjL1Syn//time_viol.r2.s2.0.wav,3.0,conjunction_syn,syncopated,b,s2,no_rule,time,L1,z,0.367,5.0,0.0,0.2849,2.0,2.0,español,0.0,catalán,0.0,1.0,1.0,yes,no,no,guitarra,6,piano,6,,,nada,60.0,yes
58,2024-01-13_15h43.41.306,Unsyncopated_study2,s90,20.0,feminino,right,españa,español y catalán,Bachelor degree,no,no,A,1,when,L4,unsyncopated,when,when,58,Online_whenL4//a.lo35.none.wav,zi,pe,ru,sil,bu,ñi,ja,sil1,ña,po,sil2,['-'],,,none,none,,,,lo,2,testConjL1Syn//r2.s2.0.wav,3.0,conjunction_syn,syncopated,b,s2,rule,rule,L1,m,0.2514,2.0,0.0,0.1007,2.0,2.0,español,0.0,catalán,0.0,1.0,1.0,yes,no,no,guitarra,6,piano,6,,,nada,60.0,yes
59,2024-01-13_15h43.41.306,Unsyncopated_study2,s90,20.0,feminino,right,españa,español y catalán,Bachelor degree,no,no,A,1,when,L4,unsyncopated,when,when,59,Online_whenL4//a.lo34.0.wav,lo,po,ña,sil,de,ci,pe,sil1,ñi,nu,sil2,['catch'],[0.38890000000037617],[0.38890000000037617],0.0,beat,0.3889000000003761,0.3889000000003761,"[""space""]",lo,2,testConjL1Syn//cat_viol.r1.s2.0.wav,3.0,conjunction_syn,syncopated,a,s2,no_rule,cat,L1,m,0.1348,3.0,1.0,0.2323,2.0,2.0,español,0.0,catalán,0.0,1.0,1.0,yes,no,no,guitarra,6,piano,6,,,nada,60.0,yes
60,2024-01-13_15h43.41.306,Unsyncopated_study2,s90,20.0,feminino,right,españa,español y catalán,Bachelor degree,no,no,A,1,when,L4,unsyncopated,when,when,60,Online_whenL4//c.bu11.none.wav,ña,pe,re,sil,nu,bo,lo,sil1,ci,de,sil2,['false alarm'],[0.40019999999924494],[0.40019999999924494],none,none,,,"[""space""]",bu,3,testConjL1Syn//r1.s1.2.wav,3.0,conjunction_syn,syncopated,a,s1,rule,rule,L1,m,0.0559,4.0,0.0,0.2209,2.0,2.0,español,0.0,catalán,0.0,1.0,1.0,yes,no,no,guitarra,6,piano,6,,,nada,60.0,yes
61,2024-01-13_15h43.41.306,Unsyncopated_study2,s90,20.0,feminino,right,españa,español y catalán,Bachelor degree,no,no,A,1,when,L4,unsyncopated,when,when,61,Online_whenL4//c.bu8.444.wav,nu,bo,bu,sil,ñi,re,zi,sil1,pe,ci,sil2,['catch'],[0.8452999999998383],[0.8452999999998383],0.444,no_beat,0.4012999999998383,0.4012999999998383,"[""space""]",bu,3,testConjL1Syn//r1.s2.0.wav,3.0,conjunction_syn,syncopated,a,s2,rule,rule,L1,m,0.2661,4.0,0.0,0.2677,2.0,2.0,español,0.0,catalán,0.0,1.0,1.0,yes,no,no,guitarra,6,piano,6,,,nada,60.0,yes
62,2024-01-13_15h43.41.306,Unsyncopated_study2,s90,20.0,feminino,right,españa,español y catalán,Bachelor degree,no,no,A,1,when,L4,unsyncopated,when,when,62,Online_whenL4//c.bu9.444.wav,bo,ja,bu,sil,lo,re,pe,sil1,ci,po,sil2,['catch'],[1.0412000000002308],[1.0412000000002308],0.444,no_beat,0.5972000000002309,0.5972000000002309,"[""space""]",bu,3,testConjL1Syn//cat_viol.r1.s1.0.wav,3.0,conjunction_syn,syncopated,a,s1,no_rule,cat,L1,z,0.0415,6.0,0.0,0.3311,2.0,2.0,español,0.0,catalán,0.0,1.0,1.0,yes,no,no,guitarra,6,piano,6,,,nada,60.0,yes
63,2024-01-13_15h43.41.306,Unsyncopated_study2,s90,20.0,feminino,right,españa,español y catalán,Bachelor degree,no,no,A,1,when,L4,unsyncopated,when,when,63,Online_whenL4//c.bu10.0.wav,bu,ñi,da,sil,ña,ja,re,sil1,nu,ci,sil2,['catch'],[0.5720000000000027],[0.5720000000000027],0.0,beat,0.5720000000000027,0.5720000000000027,"[""space""]",bu,3,testConjL1Syn//r2.s2.2.wav,3.0,conjunction_syn,syncopated,b,s2,rule,rule,L1,z,1.8516,7.0,1.0,0.3389,2.0,2.0,español,0.0,catalán,0.0,1.0,1.0,yes,no,no,guitarra,6,piano,6,,,nada,60.0,yes
64,2024-01-13_15h43.41.306,Unsyncopated_study2,s90,20.0,feminino,right,españa,español y catalán,Bachelor degree,no,no,A,1,when,L4,unsyncopated,when,when,64,Online_whenL4//a.lo28.1110.wav,ña,nu,da,sil,ci,lo,po,sil1,re,pe,sil2,['catch'],[1.6532999999997742],[1.6532999999997742],1.11,no_beat,0.5432999999997741,0.5432999999997741,"[""space""]",lo,2,testConjL1Syn//r1.s2.2.wav,3.0,conjunction_syn,syncopated,a,s2,rule,rule,L1,z,0.1201,7.0,1.0,0.2919,2.0,2.0,español,0.0,catalán,0.0,1.0,1.0,yes,no,no,guitarra,6,piano,6,,,nada,60.0,yes
65,2024-01-13_15h43.41.306,Unsyncopated_study2,s90,20.0,feminino,right,españa,español y catalán,Bachelor degree,no,no,A,1,when,L4,unsyncopated,when,when,65,Online_whenL4//a.lo30.none.wav,de,re,ru,sil,pe,ñi,zi,sil1,bo,nu,sil2,['-'],,,none,none,,,,lo,2,testConjL1Syn//r1.s2.1.wav,3.0,conjunction_syn,syncopated,a,s2,rule,rule,L1,m,0.0665,3.0,0.0,0.2361,2.0,2.0,español,0.0,catalán,0.0,1.0,1.0,yes,no,no,guitarra,6,piano,6,,,nada,60.0,yes
66,2024-01-13_15h43.41.306,Unsyncopated_study2,s90,20.0,feminino,right,españa,español y catalán,Bachelor degree,no,no,A,1,when,L4,unsyncopated,when,when,66,Online_whenL4//a.lo31.none.wav,re,de,zi,sil,ru,pe,da,sil1,ci,nu,sil2,['-'],,,none,none,,,,lo,2,testConjL1Syn//r2.s2.1.wav,3.0,conjunction_syn,syncopated,b,s2,rule,rule,L1,m,0.2489,4.0,0.0,0.3679,2.0,2.0,español,0.0,catalán,0.0,1.0,1.0,yes,no,no,guitarra,6,piano,6,,,nada,60.0,yes
67,2024-01-13_15h43.41.306,Unsyncopated_study2,s90,20.0,feminino,right,españa,español y catalán,Bachelor degree,no,no,A,1,when,L4,unsyncopated,when,when,67,Online_whenL4//a.lo29.none.wav,pe,ña,ru,sil,de,zi,ñi,sil1,nu,re,sil2,['-'],,,none,none,,,,lo,2,testConjL1Syn//r2.s1.1.wav,3.0,conjunction_syn,syncopated,b,s1,rule,rule,L1,z,0.167,5.0,1.0,0.5335,2.0,2.0,español,0.0,catalán,0.0,1.0,1.0,yes,no,no,guitarra,6,piano,6,,,nada,60.0,yes
68,2024-01-13_15h43.41.306,Unsyncopated_study2,s90,20.0,feminino,right,españa,español y catalán,Bachelor degree,no,no,A,1,when,L4,unsyncopated,when,when,68,Online_whenL4//c.bu23.none.wav,ña,nu,pe,sil,ru,ja,bo,sil1,re,ñi,sil2,['-'],,,none,none,,,,bu,3,testConjL1Syn//time_viol.r1.s2.0.wav,3.0,conjunction_syn,syncopated,a,s2,no_rule,time,L1,m,0.1178,2.0,1.0,0.1195,2.0,2.0,español,0.0,catalán,0.0,1.0,1.0,yes,no,no,guitarra,6,piano,6,,,nada,60.0,yes
69,2024-01-13_15h43.41.306,Unsyncopated_study2,s90,20.0,feminino,right,españa,español y catalán,Bachelor degree,no,no,A,1,when,L4,unsyncopated,when,when,69,Online_whenL4//c.bu21.1332.wav,zi,pe,ci,sil,ña,nu,bu,sil1,bo,ru,sil2,['catch'],[1.7423999999994066],[1.7423999999994066],1.332,no_beat,0.4103999999994066,0.4103999999994066,"[""space""]",bu,3,testConjL1Syn//r2.s1.0.wav,3.0,conjunction_syn,syncopated,b,s1,rule,rule,L1,z,0.4379,6.0,1.0,0.4834,2.0,2.0,español,0.0,catalán,0.0,1.0,1.0,yes,no,no,guitarra,6,piano,6,,,nada,60.0,yes
70,2024-01-13_15h43.41.306,Unsyncopated_study2,s90,20.0,feminino,right,españa,español y catalán,Bachelor degree,no,no,A,1,when,L4,unsyncopated,when,when,70,Online_whenL4//c.bu20.1332.wav,lo,re,ru,sil,ña,de,bu,sil1,zi,ci,sil2,['catch'],[1.7399000000003753],[1.7399000000003753],1.332,no_beat,0.4079000000003752,0.4079000000003752,"[""space""]",bu,3,testConjL1Syn//r2.s1.2.wav,3.0,conjunction_syn,syncopated,b,s1,rule,rule,L1,z,0.0237,6.0,1.0,0.5008,2.0,2.0,español,0.0,catalán,0.0,1.0,1.0,yes,no,no,guitarra,6,piano,6,,,nada,60.0,yes
71,2024-01-13_15h43.41.306,Unsyncopated_study2,s90,20.0,feminino,right,españa,español y catalán,Bachelor degree,no,no,A,1,when,L4,unsyncopated,when,when,71,Online_whenL4//c.bu22.none.wav,nu,ci,ña,sil,re,ñi,ru,sil1,zi,pe,sil2,['-'],,,none,none,,,,bu,3,testConjL1Syn//dep_viol.r1.s2.0.wav,3.0,conjunction_syn,syncopated,a,s2,no_rule,dep,L1,m,0.1003,4.0,1.0,0.2052,2.0,2.0,español,0.0,catalán,0.0,1.0,1.0,yes,no,no,guitarra,6,piano,6,,,nada,60.0,yes
72,2024-01-13_15h43.41.306,Unsyncopated_study2,s90,20.0,feminino,right,españa,español y catalán,Bachelor degree,no,no,A,1,when,L4,unsyncopated,when,when,72,Online_whenL4//a.lo3.none.wav,ci,nu,ja,sil,re,ña,ru,sil1,po,bo,sil2,['-'],,,none,none,,,,lo,2,testWhatL3Uns//cat_viol.r2.s1.0.wav,4.0,what,unsyncopated,b,s1,no_rule,cat,L3,m,1.4152,4.0,1.0,0.6436,2.0,2.0,español,0.0,catalán,0.0,1.0,1.0,yes,no,no,guitarra,6,piano,6,,,nada,60.0,yes
73,2024-01-13_15h43.41.306,Unsyncopated_study2,s90,20.0,feminino,right,españa,español y catalán,Bachelor degree,no,no,A,1,when,L4,unsyncopated,when,when,73,Online_whenL4//a.lo2.444.wav,ñi,bu,lo,sil,da,pe,ña,sil1,zi,bo,sil2,['catch'],[0.9139999999999873],[0.9139999999999873],0.444,no_beat,0.4699999999999872,0.4699999999999872,"[""space""]",lo,2,testWhatL3Uns//cat_viol.r1.s2.0.wav,4.0,what,unsyncopated,a,s2,no_rule,cat,L3,z,0.3028,7.0,0.0,0.3507,2.0,2.0,español,0.0,catalán,0.0,1.0,1.0,yes,no,no,guitarra,6,piano,6,,,nada,60.0,yes
74,2024-01-13_15h43.41.306,Unsyncopated_study2,s90,20.0,feminino,right,españa,español y catalán,Bachelor degree,no,no,A,1,when,L4,unsyncopated,when,when,74,Online_whenL4//a.lo0.none.wav,ru,pe,ci,sil,zi,ja,da,sil1,ñi,ña,sil2,['-'],,,none,none,,,,lo,2,testWhatL3Uns//dep_viol.r2.s2.0.wav,4.0,what,unsyncopated,b,s2,no_rule,dep,L3,m,0.1073,2.0,1.0,0.2026,2.0,2.0,español,0.0,catalán,0.0,1.0,1.0,yes,no,no,guitarra,6,piano,6,,,nada,60.0,yes
75,2024-01-13_15h43.41.306,Unsyncopated_study2,s90,20.0,feminino,right,españa,español y catalán,Bachelor degree,no,no,A,1,when,L4,unsyncopated,when,when,75,Online_whenL4//a.lo1.none.wav,nu,ja,ci,sil,bo,ña,de,sil1,po,re,sil2,['-'],,,none,none,,,,lo,2,testWhatL3Uns//cat_viol.r1.s1.0.wav,4.0,what,unsyncopated,a,s1,no_rule,cat,L3,z,0.1497,6.0,0.0,0.4355,2.0,2.0,español,0.0,catalán,0.0,1.0,1.0,yes,no,no,guitarra,6,piano,6,,,nada,60.0,yes
76,2024-01-13_15h43.41.306,Unsyncopated_study2,s90,20.0,feminino,right,españa,español y catalán,Bachelor degree,no,no,A,1,when,L4,unsyncopated,when,when,76,Online_whenL4//c.bu19.0.wav,bu,de,nu,sil,ja,ru,bo,sil1,ñi,pe,sil2,['catch'],[0.36429999999973006],[0.36429999999973006],0.0,beat,0.36429999999973,0.36429999999973,"[""space""]",bu,3,testWhatL3Uns//r1.s2.2.wav,4.0,what,unsyncopated,a,s2,rule,rule,L3,z,0.1159,6.0,1.0,0.3755,2.0,2.0,español,0.0,catalán,0.0,1.0,1.0,yes,no,no,guitarra,6,piano,6,,,nada,60.0,yes
77,2024-01-13_15h43.41.306,Unsyncopated_study2,s90,20.0,feminino,right,españa,español y catalán,Bachelor degree,no,no,A,1,when,L4,unsyncopated,when,when,77,Online_whenL4//c.bu18.none.wav,da,re,zi,sil,pe,po,lo,sil1,ci,ña,sil2,['-'],,,none,none,,,,bu,3,testWhatL3Uns//dep_viol.r1.s1.0.wav,4.0,what,unsyncopated,a,s1,no_rule,dep,L3,m,1.2884,3.0,1.0,4.036,2.0,2.0,español,0.0,catalán,0.0,1.0,1.0,yes,no,no,guitarra,6,piano,6,,,nada,60.0,yes
78,2024-01-13_15h43.41.306,Unsyncopated_study2,s90,20.0,feminino,right,españa,español y catalán,Bachelor degree,no,no,A,1,when,L4,unsyncopated,when,when,78,Online_whenL4//c.bu16.0.wav,bu,ñi,pe,sil,ru,zi,bo,sil1,de,lo,sil2,['catch'],[0.4115999999996802],[0.4115999999996802],0.0,beat,0.4115999999996802,0.4115999999996802,"[""space""]",bu,3,testWhatL3Uns//time_viol.r1.s2.0.wav,4.0,what,unsyncopated,a,s2,no_rule,time,L3,m,0.234,2.0,1.0,0.3001,2.0,2.0,español,0.0,catalán,0.0,1.0,1.0,yes,no,no,guitarra,6,piano,6,,,nada,60.0,yes
79,2024-01-13_15h43.41.306,Unsyncopated_study2,s90,20.0,feminino,right,españa,español y catalán,Bachelor degree,no,no,A,1,when,L4,unsyncopated,when,when,79,Online_whenL4//c.bu17.none.wav,bo,zi,de,sil,ña,nu,ci,sil1,ru,po,sil2,['-'],,,none,none,,,,bu,3,testWhatL3Uns//r2.s2.0.wav,4.0,what,unsyncopated,b,s2,rule,rule,L3,m,0.1726,7.0,0.0,0.1189,2.0,2.0,español,0.0,catalán,0.0,1.0,1.0,yes,no,no,guitarra,6,piano,6,,,nada,60.0,yes
80,2024-01-13_15h43.41.306,Unsyncopated_study2,s90,20.0,feminino,right,españa,español y catalán,Bachelor degree,no,no,A,1,when,L4,unsyncopated,when,when,80,Online_whenL4//b.ja1.none.wav,lo,re,po,sil,bu,de,ña,sil1,da,nu,sil2,['-'],,,none,none,,,,ja,1,testWhatL3Uns//r1.s1.1.wav,4.0,what,unsyncopated,a,s1,rule,rule,L3,z,0.0692,5.0,1.0,0.3374,2.0,2.0,español,0.0,catalán,0.0,1.0,1.0,yes,no,no,guitarra,6,piano,6,,,nada,60.0,yes
81,2024-01-13_15h43.41.306,Unsyncopated_study2,s90,20.0,feminino,right,españa,español y catalán,Bachelor degree,no,no,A,1,when,L4,unsyncopated,when,when,81,Online_whenL4//b.ja3.none.wav,nu,da,po,sil,ru,zi,bu,sil1,re,ña,sil2,['-'],,,none,none,,,,ja,1,testWhatL3Uns//r1.s1.0.wav,4.0,what,unsyncopated,a,s1,rule,rule,L3,z,1.7332,6.0,1.0,0.6015,2.0,2.0,español,0.0,catalán,0.0,1.0,1.0,yes,no,no,guitarra,6,piano,6,,,nada,60.0,yes
82,2024-01-13_15h43.41.306,Unsyncopated_study2,s90,20.0,feminino,right,españa,español y catalán,Bachelor degree,no,no,A,1,when,L4,unsyncopated,when,when,82,Online_whenL4//b.ja2.none.wav,ci,ru,zi,sil,da,de,pe,sil1,re,lo,sil2,['-'],,,none,none,,,,ja,1,testWhatL3Uns//time_viol.r2.s2.0.wav,4.0,what,unsyncopated,b,s2,no_rule,time,L3,m,0.4654,4.0,1.0,0.4351,2.0,2.0,español,0.0,catalán,0.0,1.0,1.0,yes,no,no,guitarra,6,piano,6,,,nada,60.0,yes
83,2024-01-13_15h43.41.306,Unsyncopated_study2,s90,20.0,feminino,right,españa,español y catalán,Bachelor degree,no,no,A,1,when,L4,unsyncopated,when,when,83,Online_whenL4//b.ja0.222.wav,re,ja,da,sil,ci,ru,bo,sil1,bu,lo,sil2,['catch'],[0.6717999999998483],[0.6717999999998483],0.222,no_beat,0.4497999999998483,0.4497999999998483,"[""space""]",ja,1,testWhatL3Uns//r1.s2.0.wav,4.0,what,unsyncopated,a,s2,rule,rule,L3,m,0.2174,4.0,0.0,0.2172,2.0,2.0,español,0.0,catalán,0.0,1.0,1.0,yes,no,no,guitarra,6,piano,6,,,nada,60.0,yes
84,2024-01-13_15h43.41.306,Unsyncopated_study2,s90,20.0,feminino,right,españa,español y catalán,Bachelor degree,no,no,A,1,when,L4,unsyncopated,when,when,84,Online_whenL4//b.ja21.none.wav,bu,da,ci,sil,ru,nu,zi,sil1,de,po,sil2,['-'],,,none,none,,,,ja,1,testWhatL3Uns//r2.s2.1.wav,4.0,what,unsyncopated,b,s2,rule,rule,L3,z,0.0827,7.0,1.0,0.4175,2.0,2.0,español,0.0,catalán,0.0,1.0,1.0,yes,no,no,guitarra,6,piano,6,,,nada,60.0,yes
85,2024-01-13_15h43.41.306,Unsyncopated_study2,s90,20.0,feminino,right,españa,español y catalán,Bachelor degree,no,no,A,1,when,L4,unsyncopated,when,when,85,Online_whenL4//b.ja23.444.wav,bu,da,ja,sil,ña,de,nu,sil1,ñi,po,sil2,['catch'],[0.8424000000003389],[0.8424000000003389],0.444,no_beat,0.3984000000003388,0.3984000000003388,"[""space""]",ja,1,testWhatL3Uns//dep_viol.r1.s2.0.wav,4.0,what,unsyncopated,a,s2,no_rule,dep,L3,m,0.2997,4.0,1.0,0.2014,2.0,2.0,español,0.0,catalán,0.0,1.0,1.0,yes,no,no,guitarra,6,piano,6,,,nada,60.0,yes
86,2024-01-13_15h43.41.306,Unsyncopated_study2,s90,20.0,feminino,right,españa,español y catalán,Bachelor degree,no,no,A,1,when,L4,unsyncopated,when,when,86,Online_whenL4//b.ja22.1776.wav,da,ci,zi,sil,ña,ru,bo,sil1,ja,bu,sil2,['catch'],[2.3422000000001617],[2.3422000000001617],1.776,beat,0.5662000000001617,0.5662000000001617,"[""space""]",ja,1,testWhatL3Uns//time_viol.r1.s1.0.wav,4.0,what,unsyncopated,a,s1,no_rule,time,L3,z,0.3513,6.0,0.0,0.4098,2.0,2.0,español,0.0,catalán,0.0,1.0,1.0,yes,no,no,guitarra,6,piano,6,,,nada,60.0,yes
87,2024-01-13_15h43.41.306,Unsyncopated_study2,s90,20.0,feminino,right,españa,español y catalán,Bachelor degree,no,no,A,1,when,L4,unsyncopated,when,when,87,Online_whenL4//b.ja20.0.wav,ja,bu,ñi,sil,bo,de,lo,sil1,ru,da,sil2,['catch'],[0.6620000000000346],[0.6620000000000346],0.0,beat,0.6620000000000346,0.6620000000000346,"[""space""]",ja,1,testWhatL3Uns//r1.s1.2.wav,4.0,what,unsyncopated,a,s1,rule,rule,L3,m,1.1324,4.0,0.0,0.2522,2.0,2.0,español,0.0,catalán,0.0,1.0,1.0,yes,no,no,guitarra,6,piano,6,,,nada,60.0,yes
88,2024-01-13_15h43.41.306,Unsyncopated_study2,s90,20.0,feminino,right,españa,español y catalán,Bachelor degree,no,no,A,1,when,L4,unsyncopated,when,when,88,Online_whenL4//d.pe1.222.wav,bo,pe,bu,sil,ja,ña,ru,sil1,ñi,nu,sil2,['miss'],,,0.222,no_beat,,,,pe,4,testWhatL3Uns//r1.s2.1.wav,4.0,what,unsyncopated,a,s2,rule,rule,L3,z,0.4674,5.0,1.0,0.5699,2.0,2.0,español,0.0,catalán,0.0,1.0,1.0,yes,no,no,guitarra,6,piano,6,,,nada,60.0,yes
89,2024-01-13_15h43.41.306,Unsyncopated_study2,s90,20.0,feminino,right,españa,español y catalán,Bachelor degree,no,no,A,1,when,L4,unsyncopated,when,when,89,Online_whenL4//d.pe2.none.wav,ñi,ña,ru,sil,nu,da,po,sil1,de,ja,sil2,['-'],,,none,none,,,,pe,4,testWhatL3Uns//r2.s1.1.wav,4.0,what,unsyncopated,b,s1,rule,rule,L3,m,1.0669,3.0,0.0,0.9503,2.0,2.0,español,0.0,catalán,0.0,1.0,1.0,yes,no,no,guitarra,6,piano,6,,,nada,60.0,yes
90,2024-01-13_15h43.41.306,Unsyncopated_study2,s90,20.0,feminino,right,españa,español y catalán,Bachelor degree,no,no,A,1,when,L4,unsyncopated,when,when,90,Online_whenL4//d.pe0.none.wav,ja,zi,ñi,sil,ru,ci,ña,sil1,da,bu,sil2,['-'],,,none,none,,,,pe,4,testWhatL3Uns//dep_viol.r2.s1.0.wav,4.0,what,unsyncopated,b,s1,no_rule,dep,L3,m,0.0175,7.0,1.0,1.3844,2.0,2.0,español,0.0,catalán,0.0,1.0,1.0,yes,no,no,guitarra,6,piano,6,,,nada,60.0,yes
91,2024-01-13_15h43.41.306,Unsyncopated_study2,s90,20.0,feminino,right,españa,español y catalán,Bachelor degree,no,no,A,1,when,L4,unsyncopated,when,when,91,Online_whenL4//d.pe3.888.wav,nu,bo,de,sil,pe,bu,po,sil1,da,zi,sil2,['catch'],[1.3780000000000427],[1.3780000000000427],0.888,beat,0.4900000000000427,0.4900000000000427,"[""space""]",pe,4,testWhatL3Uns//r2.s2.2.wav,4.0,what,unsyncopated,b,s2,rule,rule,L3,z,0.8327,5.0,1.0,0.403,2.0,2.0,español,0.0,catalán,0.0,1.0,1.0,yes,no,no,guitarra,6,piano,6,,,nada,60.0,yes
92,2024-01-13_15h43.41.306,Unsyncopated_study2,s90,20.0,feminino,right,españa,español y catalán,Bachelor degree,no,no,A,1,when,L4,unsyncopated,when,when,92,Online_whenL4//c.bu12.444.wav,ña,nu,bu,sil,bo,ñi,da,sil1,ru,lo,sil2,['catch'],[0.9202000000001362],[0.9202000000001362],0.444,no_beat,0.4762000000001362,0.4762000000001362,"[""space""]",bu,3,testWhatL3Uns//r2.s1.2.wav,4.0,what,unsyncopated,b,s1,rule,rule,L3,m,0.2867,3.0,0.0,0.2675,2.0,2.0,español,0.0,catalán,0.0,1.0,1.0,yes,no,no,guitarra,6,piano,6,,,nada,60.0,yes
93,2024-01-13_15h43.41.306,Unsyncopated_study2,s90,20.0,feminino,right,españa,español y catalán,Bachelor degree,no,no,A,1,when,L4,unsyncopated,when,when,93,Online_whenL4//c.bu15.1776.wav,zi,re,po,sil,pe,ña,lo,sil1,bu,bo,sil2,['catch'],[2.2262000000001763],[2.2262000000001763],1.776,beat,0.4502000000001762,0.4502000000001762,"[""space""]",bu,3,testWhatL3Uns//cat_viol.r2.s2.0.wav,4.0,what,unsyncopated,b,s2,no_rule,cat,L3,z,0.3689,6.0,0.0,0.3531,2.0,2.0,español,0.0,catalán,0.0,1.0,1.0,yes,no,no,guitarra,6,piano,6,,,nada,60.0,yes
94,2024-01-13_15h43.41.306,Unsyncopated_study2,s90,20.0,feminino,right,españa,español y catalán,Bachelor degree,no,no,A,1,when,L4,unsyncopated,when,when,94,Online_whenL4//c.bu14.none.wav,zi,ñi,ja,sil,re,da,de,sil1,ru,bo,sil2,['-'],,,none,none,,,,bu,3,testWhatL3Uns//time_viol.r2.s1.0.wav,4.0,what,unsyncopated,b,s1,no_rule,time,L3,z,0.4671,5.0,0.0,0.3844,2.0,2.0,español,0.0,catalán,0.0,1.0,1.0,yes,no,no,guitarra,6,piano,6,,,nada,60.0,yes
95,2024-01-13_15h43.41.306,Unsyncopated_study2,s90,20.0,feminino,right,españa,español y catalán,Bachelor degree,no,no,A,1,when,L4,unsyncopated,when,when,95,Online_whenL4//c.bu13.none.wav,bo,po,pe,sil,ja,ña,da,sil1,lo,de,sil2,['-'],,,none,none,,,,bu,3,testWhatL3Uns//r2.s1.0.wav,4.0,what,unsyncopated,b,s1,rule,rule,L3,z,0.2018,7.0,1.0,0.1543,2.0,2.0,español,0.0,catalán,0.0,1.0,1.0,yes,no,no,guitarra,6,piano,6,,,nada,60.0,yes
96,2024-01-13_15h43.41.306,Unsyncopated_study2,s90,20.0,feminino,right,españa,español y catalán,Bachelor degree,no,no,A,1,when,L4,unsyncopated,when,when,96,Online_whenL4//a.lo12.none.wav,nu,bu,zi,sil,ñi,bo,ci,sil1,ru,ña,sil2,['false alarm'],[0.4181000000005497],[0.4181000000005497],none,none,,,"[""space""]",lo,2,,,,,,,,,,,,,,,2.0,2.0,español,0.0,catalán,0.0,1.0,1.0,yes,no,no,guitarra,6,piano,6,,,nada,60.0,yes
97,2024-01-13_15h43.41.306,Unsyncopated_study2,s90,20.0,feminino,right,españa,español y catalán,Bachelor degree,no,no,A,1,when,L4,unsyncopated,when,when,97,Online_whenL4//a.lo14.none.wav,bu,ru,nu,sil,zi,bo,pe,sil1,da,ñi,sil2,['-'],,,none,none,,,,lo,2,,,,,,,,,,,,,,,2.0,2.0,español,0.0,catalán,0.0,1.0,1.0,yes,no,no,guitarra,6,piano,6,,,nada,60.0,yes
98,2024-01-13_15h43.41.306,Unsyncopated_study2,s90,20.0,feminino,right,españa,español y catalán,Bachelor degree,no,no,A,1,when,L4,unsyncopated,when,when,98,Online_whenL4//a.lo13.1776.wav,re,ña,ru,sil,ci,ja,ñi,sil1,lo,pe,sil2,['catch'],[2.223599999999692],[2.223599999999692],1.776,beat,0.447599999999692,0.447599999999692,"[""space""]",lo,2,,,,,,,,,,,,,,,2.0,2.0,español,0.0,catalán,0.0,1.0,1.0,yes,no,no,guitarra,6,piano,6,,,nada,60.0,yes
99,2024-01-13_15h43.41.306,Unsyncopated_study2,s90,20.0,feminino,right,españa,español y catalán,Bachelor degree,no,no,A,1,when,L4,unsyncopated,when,when,99,Online_whenL4//a.lo15.1776.wav,de,pe,da,sil,ñi,po,re,sil1,lo,ja,sil2,['catch'],[2.3058000000007723],[2.3058000000007723],1.776,beat,0.5298000000007723,0.5298000000007723,"[""space""]",lo,2,,,,,,,,,,,,,,,2.0,2.0,español,0.0,catalán,0.0,1.0,1.0,yes,no,no,guitarra,6,piano,6,,,nada,60.0,yes
100,2024-01-13_15h43.41.306,Unsyncopated_study2,s90,20.0,feminino,right,españa,español y catalán,Bachelor degree,no,no,A,1,when,L4,unsyncopated,when,when,100,Online_whenL4//b.ja6.1332.wav,pe,ña,de,sil,bo,ci,ja,sil1,lo,po,sil2,['catch'],[1.7512000000001535],[1.7512000000001535],1.332,no_beat,0.4192000000001534,0.4192000000001534,"[""space""]",ja,1,,,,,,,,,,,,,,,2.0,2.0,español,0.0,catalán,0.0,1.0,1.0,yes,no,no,guitarra,6,piano,6,,,nada,60.0,yes
101,2024-01-13_15h43.41.306,Unsyncopated_study2,s90,20.0,feminino,right,españa,español y catalán,Bachelor degree,no,no,A,1,when,L4,unsyncopated,when,when,101,Online_whenL4//b.ja7.none.wav,de,bo,zi,sil,ru,pe,da,sil1,po,nu,sil2,['-'],,,none,none,,,,ja,1,,,,,,,,,,,,,,,2.0,2.0,español,0.0,catalán,0.0,1.0,1.0,yes,no,no,guitarra,6,piano,6,,,nada,60.0,yes
102,2024-01-13_15h43.41.306,Unsyncopated_study2,s90,20.0,feminino,right,españa,español y catalán,Bachelor degree,no,no,A,1,when,L4,unsyncopated,when,when,102,Online_whenL4//b.ja4.none.wav,ñi,nu,ru,sil,po,de,da,sil1,re,lo,sil2,['-'],,,none,none,,,,ja,1,,,,,,,,,,,,,,,2.0,2.0,español,0.0,catalán,0.0,1.0,1.0,yes,no,no,guitarra,6,piano,6,,,nada,60.0,yes
103,2024-01-13_15h43.41.306,Unsyncopated_study2,s90,20.0,feminino,right,españa,español y catalán,Bachelor degree,no,no,A,1,when,L4,unsyncopated,when,when,103,Online_whenL4//b.ja5.none.wav,re,pe,ña,sil,bu,po,ci,sil1,lo,nu,sil2,['-'],,,none,none,,,,ja,1,,,,,,,,,,,,,,,2.0,2.0,español,0.0,catalán,0.0,1.0,1.0,yes,no,no,guitarra,6,piano,6,,,nada,60.0,yes
104,2024-01-13_15h43.41.306,Unsyncopated_study2,s90,20.0,feminino,right,españa,español y catalán,Bachelor degree,no,no,A,1,when,L4,unsyncopated,when,when,104,Online_whenL4//d.pe5.444.wav,bu,nu,pe,sil,ci,da,re,sil1,de,lo,sil2,['catch'],[0.853200000000129],[0.853200000000129],0.444,no_beat,0.4092000000001289,0.4092000000001289,"[""space""]",pe,4,,,,,,,,,,,,,,,2.0,2.0,español,0.0,catalán,0.0,1.0,1.0,yes,no,no,guitarra,6,piano,6,,,nada,60.0,yes
105,2024-01-13_15h43.41.306,Unsyncopated_study2,s90,20.0,feminino,right,españa,español y catalán,Bachelor degree,no,no,A,1,when,L4,unsyncopated,when,when,105,Online_whenL4//d.pe4.1110.wav,da,ru,ja,sil,nu,pe,ña,sil1,ñi,de,sil2,['catch'],[1.7947999999998956],[1.7947999999998956],1.11,no_beat,0.6847999999998955,0.6847999999998955,"[""space""]",pe,4,,,,,,,,,,,,,,,2.0,2.0,español,0.0,catalán,0.0,1.0,1.0,yes,no,no,guitarra,6,piano,6,,,nada,60.0,yes
106,2024-01-13_15h43.41.306,Unsyncopated_study2,s90,20.0,feminino,right,españa,español y catalán,Bachelor degree,no,no,A,1,when,L4,unsyncopated,when,when,106,Online_whenL4//d.pe7.1998.wav,da,lo,ña,sil,bu,ñi,ru,sil1,ja,pe,sil2,['catch'],[2.4901999999992768],[2.4901999999992768],1.998,no_beat,0.4921999999992767,0.4921999999992767,"[""space""]",pe,4,,,,,,,,,,,,,,,2.0,2.0,español,0.0,catalán,0.0,1.0,1.0,yes,no,no,guitarra,6,piano,6,,,nada,60.0,yes
107,2024-01-13_15h43.41.306,Unsyncopated_study2,s90,20.0,feminino,right,españa,español y catalán,Bachelor degree,no,no,A,1,when,L4,unsyncopated,when,when,107,Online_whenL4//d.pe6.1110.wav,da,lo,nu,sil,po,pe,ci,sil1,bo,ña,sil2,['catch'],[1.7064999999998918],[1.7064999999998918],1.11,no_beat,0.5964999999998917,0.5964999999998917,"[""space""]",pe,4,,,,,,,,,,,,,,,2.0,2.0,español,0.0,catalán,0.0,1.0,1.0,yes,no,no,guitarra,6,piano,6,,,nada,60.0,yes
108,2024-01-13_15h43.41.306,Unsyncopated_study2,s90,20.0,feminino,right,españa,español y catalán,Bachelor degree,no,no,A,1,when,L4,unsyncopated,when,when,108,Online_whenL4//c.bu1.none.wav,lo,pe,po,sil,ci,ja,de,sil1,bo,ru,sil2,['false alarm'],[2.5357999999997674],[2.5357999999997674],none,none,,,"[""space""]",bu,3,,,,,,,,,,,,,,,2.0,2.0,español,0.0,catalán,0.0,1.0,1.0,yes,no,no,guitarra,6,piano,6,,,nada,60.0,yes
109,2024-01-13_15h43.41.306,Unsyncopated_study2,s90,20.0,feminino,right,españa,español y catalán,Bachelor degree,no,no,A,1,when,L4,unsyncopated,when,when,109,Online_whenL4//c.bu2.1110.wav,lo,bo,ci,sil,da,bu,ñi,sil1,ja,de,sil2,['catch'],[1.5620000000000118],[1.5620000000000118],1.11,no_beat,0.4520000000000117,0.4520000000000117,"[""space""]",bu,3,,,,,,,,,,,,,,,2.0,2.0,español,0.0,catalán,0.0,1.0,1.0,yes,no,no,guitarra,6,piano,6,,,nada,60.0,yes
110,2024-01-13_15h43.41.306,Unsyncopated_study2,s90,20.0,feminino,right,españa,español y catalán,Bachelor degree,no,no,A,1,when,L4,unsyncopated,when,when,110,Online_whenL4//c.bu0.888.wav,ci,ñi,ja,sil,bu,da,ru,sil1,po,nu,sil2,['catch'],[1.5892999999998665],[1.5892999999998665],0.888,beat,0.7012999999998665,0.7012999999998665,"[""space""]",bu,3,,,,,,,,,,,,,,,2.0,2.0,español,0.0,catalán,0.0,1.0,1.0,yes,no,no,guitarra,6,piano,6,,,nada,60.0,yes
111,2024-01-13_15h43.41.306,Unsyncopated_study2,s90,20.0,feminino,right,españa,español y catalán,Bachelor degree,no,no,A,1,when,L4,unsyncopated,when,when,111,Online_whenL4//c.bu3.none.wav,ja,de,pe,sil,ña,ñi,bo,sil1,nu,po,sil2,['-'],,,none,none,,,,bu,3,,,,,,,,,,,,,,,2.0,2.0,español,0.0,catalán,0.0,1.0,1.0,yes,no,no,guitarra,6,piano,6,,,nada,60.0,yes
112,2024-01-13_15h43.41.306,Unsyncopated_study2,s90,20.0,feminino,right,españa,español y catalán,Bachelor degree,no,no,A,1,when,L4,unsyncopated,when,when,112,Online_whenL4//a.lo19.0.wav,lo,ru,po,sil,pe,bu,re,sil1,nu,bo,sil2,['miss'],,,0.0,beat,,,,lo,2,,,,,,,,,,,,,,,2.0,2.0,español,0.0,catalán,0.0,1.0,1.0,yes,no,no,guitarra,6,piano,6,,,nada,60.0,yes
113,2024-01-13_15h43.41.306,Unsyncopated_study2,s90,20.0,feminino,right,españa,español y catalán,Bachelor degree,no,no,A,1,when,L4,unsyncopated,when,when,113,Online_whenL4//a.lo18.none.wav,re,ñi,de,sil,nu,bo,ña,sil1,ru,zi,sil2,['false alarm'],[2.541099999999574],[2.541099999999574],none,none,,,"[""space""]",lo,2,,,,,,,,,,,,,,,2.0,2.0,español,0.0,catalán,0.0,1.0,1.0,yes,no,no,guitarra,6,piano,6,,,nada,60.0,yes
114,2024-01-13_15h43.41.306,Unsyncopated_study2,s90,20.0,feminino,right,españa,español y catalán,Bachelor degree,no,no,A,1,when,L4,unsyncopated,when,when,114,Online_whenL4//a.lo17.888.wav,ci,de,re,sil,lo,ru,da,sil1,ñi,zi,sil2,['catch'],[1.3550000000000182],[1.3550000000000182],0.888,beat,0.4670000000000182,0.4670000000000182,"[""space""]",lo,2,,,,,,,,,,,,,,,2.0,2.0,español,0.0,catalán,0.0,1.0,1.0,yes,no,no,guitarra,6,piano,6,,,nada,60.0,yes
115,2024-01-13_15h43.41.306,Unsyncopated_study2,s90,20.0,feminino,right,españa,español y catalán,Bachelor degree,no,no,A,1,when,L4,unsyncopated,when,when,115,Online_whenL4//a.lo16.none.wav,po,bu,re,sil,ja,pe,zi,sil1,da,ña,sil2,['-'],,,none,none,,,,lo,2,,,,,,,,,,,,,,,2.0,2.0,español,0.0,catalán,0.0,1.0,1.0,yes,no,no,guitarra,6,piano,6,,,nada,60.0,yes
116,2024-01-13_15h43.41.306,Unsyncopated_study2,s90,20.0,feminino,right,españa,español y catalán,Bachelor degree,no,no,A,1,when,L4,unsyncopated,when,when,116,Online_whenL4//a.lo10.none.wav,pe,da,re,sil,de,ja,zi,sil1,bu,po,sil2,['-'],,,none,none,,,,lo,2,,,,,,,,,,,,,,,2.0,2.0,español,0.0,catalán,0.0,1.0,1.0,yes,no,no,guitarra,6,piano,6,,,nada,60.0,yes
117,2024-01-13_15h43.41.306,Unsyncopated_study2,s90,20.0,feminino,right,españa,español y catalán,Bachelor degree,no,no,A,1,when,L4,unsyncopated,when,when,117,Online_whenL4//a.lo11.0.wav,lo,ci,pe,sil,ñi,de,zi,sil1,ru,da,sil2,['catch'],[0.49269999999933134],[0.49269999999933134],0.0,beat,0.4926999999993313,0.4926999999993313,"[""space""]",lo,2,,,,,,,,,,,,,,,2.0,2.0,español,0.0,catalán,0.0,1.0,1.0,yes,no,no,guitarra,6,piano,6,,,nada,60.0,yes
118,2024-01-13_15h43.41.306,Unsyncopated_study2,s90,20.0,feminino,right,españa,español y catalán,Bachelor degree,no,no,A,1,when,L4,unsyncopated,when,when,118,Online_whenL4//a.lo9.none.wav,bo,ci,po,sil,de,zi,ñi,sil1,ja,ña,sil2,['-'],,,none,none,,,,lo,2,,,,,,,,,,,,,,,2.0,2.0,español,0.0,catalán,0.0,1.0,1.0,yes,no,no,guitarra,6,piano,6,,,nada,60.0,yes
119,2024-01-13_15h43.41.306,Unsyncopated_study2,s90,20.0,feminino,right,españa,español y catalán,Bachelor degree,no,no,A,1,when,L4,unsyncopated,when,when,119,Online_whenL4//a.lo8.0.wav,lo,ñi,nu,sil,de,bo,pe,sil1,da,bu,sil2,['catch'],[0.5727999999998019],[0.5727999999998019],0.0,beat,0.5727999999998019,0.5727999999998019,"[""space""]",lo,2,,,,,,,,,,,,,,,2.0,2.0,español,0.0,catalán,0.0,1.0,1.0,yes,no,no,guitarra,6,piano,6,,,nada,60.0,yes
120,2024-01-13_15h43.41.306,Unsyncopated_study2,s90,20.0,feminino,right,españa,español y catalán,Bachelor degree,no,no,A,1,when,L4,unsyncopated,when,when,120,Online_whenL4//b.ja25.none.wav,ru,zi,bo,sil,bu,nu,po,sil1,ñi,re,sil2,['-'],,,none,none,,,,ja,1,,,,,,,,,,,,,,,2.0,2.0,español,0.0,catalán,0.0,1.0,1.0,yes,no,no,guitarra,6,piano,6,,,nada,60.0,yes
121,2024-01-13_15h43.41.306,Unsyncopated_study2,s90,20.0,feminino,right,españa,español y catalán,Bachelor degree,no,no,A,1,when,L4,unsyncopated,when,when,121,Online_whenL4//b.ja27.444.wav,bu,ñi,ja,sil,ci,ru,ña,sil1,bo,zi,sil2,['catch'],[0.8727000000001226],[0.8727000000001226],0.444,no_beat,0.4287000000001226,0.4287000000001226,"[""space""]",ja,1,,,,,,,,,,,,,,,2.0,2.0,español,0.0,catalán,0.0,1.0,1.0,yes,no,no,guitarra,6,piano,6,,,nada,60.0,yes
122,2024-01-13_15h43.41.306,Unsyncopated_study2,s90,20.0,feminino,right,españa,español y catalán,Bachelor degree,no,no,A,1,when,L4,unsyncopated,when,when,122,Online_whenL4//b.ja24.444.wav,bu,nu,ja,sil,ci,pe,de,sil1,po,ña,sil2,['catch'],[1.4740999999996802],[1.4740999999996802],0.444,no_beat,1.0300999999996805,1.0300999999996805,"[""space""]",ja,1,,,,,,,,,,,,,,,2.0,2.0,español,0.0,catalán,0.0,1.0,1.0,yes,no,no,guitarra,6,piano,6,,,nada,60.0,yes
123,2024-01-13_15h43.41.306,Unsyncopated_study2,s90,20.0,feminino,right,españa,español y catalán,Bachelor degree,no,no,A,1,when,L4,unsyncopated,when,when,123,Online_whenL4//b.ja26.none.wav,bu,ru,de,sil,zi,bo,re,sil1,ci,nu,sil2,['-'],,,none,none,,,,ja,1,,,,,,,,,,,,,,,2.0,2.0,español,0.0,catalán,0.0,1.0,1.0,yes,no,no,guitarra,6,piano,6,,,nada,60.0,yes
124,2024-01-13_15h43.41.306,Unsyncopated_study2,s90,20.0,feminino,right,españa,español y catalán,Bachelor degree,no,no,A,1,when,L4,unsyncopated,when,when,124,Online_whenL4//a.lo27.none.wav,ci,nu,ñi,sil,da,ru,ja,sil1,po,bu,sil2,['-'],,,none,none,,,,lo,2,,,,,,,,,,,,,,,2.0,2.0,español,0.0,catalán,0.0,1.0,1.0,yes,no,no,guitarra,6,piano,6,,,nada,60.0,yes
125,2024-01-13_15h43.41.306,Unsyncopated_study2,s90,20.0,feminino,right,españa,español y catalán,Bachelor degree,no,no,A,1,when,L4,unsyncopated,when,when,125,Online_whenL4//a.lo24.1776.wav,de,ja,ci,sil,re,ña,po,sil1,lo,bu,sil2,['catch'],[2.2574000000003025],[2.2574000000003025],1.776,beat,0.4814000000003025,0.4814000000003025,"[""space""]",lo,2,,,,,,,,,,,,,,,2.0,2.0,español,0.0,catalán,0.0,1.0,1.0,yes,no,no,guitarra,6,piano,6,,,nada,60.0,yes
126,2024-01-13_15h43.41.306,Unsyncopated_study2,s90,20.0,feminino,right,españa,español y catalán,Bachelor degree,no,no,A,1,when,L4,unsyncopated,when,when,126,Online_whenL4//a.lo26.1998.wav,po,ja,bu,sil,ci,pe,ru,sil1,ñi,lo,sil2,['miss'],,,1.998,no_beat,,,,lo,2,,,,,,,,,,,,,,,2.0,2.0,español,0.0,catalán,0.0,1.0,1.0,yes,no,no,guitarra,6,piano,6,,,nada,60.0,yes
127,2024-01-13_15h43.41.306,Unsyncopated_study2,s90,20.0,feminino,right,españa,español y catalán,Bachelor degree,no,no,A,1,when,L4,unsyncopated,when,when,127,Online_whenL4//a.lo25.none.wav,ñi,ja,ru,sil,bo,ci,ña,sil1,de,zi,sil2,['-'],,,none,none,,,,lo,2,,,,,,,,,,,,,,,2.0,2.0,español,0.0,catalán,0.0,1.0,1.0,yes,no,no,guitarra,6,piano,6,,,nada,60.0,yes
128,2024-01-13_15h43.41.306,Unsyncopated_study2,s90,20.0,feminino,right,españa,español y catalán,Bachelor degree,no,no,A,1,when,L4,unsyncopated,when,when,128,Online_whenL4//d.pe13.none.wav,da,ja,nu,sil,ru,ci,ñi,sil1,bu,po,sil2,['-'],,,none,none,,,,pe,4,,,,,,,,,,,,,,,2.0,2.0,español,0.0,catalán,0.0,1.0,1.0,yes,no,no,guitarra,6,piano,6,,,nada,60.0,yes
129,2024-01-13_15h43.41.306,Unsyncopated_study2,s90,20.0,feminino,right,españa,español y catalán,Bachelor degree,no,no,A,1,when,L4,unsyncopated,when,when,129,Online_whenL4//d.pe14.none.wav,po,ña,bu,sil,de,ru,nu,sil1,ci,zi,sil2,['-'],,,none,none,,,,pe,4,,,,,,,,,,,,,,,2.0,2.0,español,0.0,catalán,0.0,1.0,1.0,yes,no,no,guitarra,6,piano,6,,,nada,60.0,yes
130,2024-01-13_15h43.41.306,Unsyncopated_study2,s90,20.0,feminino,right,españa,español y catalán,Bachelor degree,no,no,A,1,when,L4,unsyncopated,when,when,130,Online_whenL4//d.pe12.none.wav,ru,zi,ñi,sil,bu,de,ña,sil1,lo,re,sil2,['-'],,,none,none,,,,pe,4,,,,,,,,,,,,,,,2.0,2.0,español,0.0,catalán,0.0,1.0,1.0,yes,no,no,guitarra,6,piano,6,,,nada,60.0,yes
131,2024-01-13_15h43.41.306,Unsyncopated_study2,s90,20.0,feminino,right,españa,español y catalán,Bachelor degree,no,no,A,1,when,L4,unsyncopated,when,when,131,Online_whenL4//d.pe15.888.wav,po,lo,de,sil,pe,ja,bo,sil1,ña,bu,sil2,['catch'],[1.292299999999841],[1.292299999999841],0.888,beat,0.404299999999841,0.404299999999841,"[""space""]",pe,4,,,,,,,,,,,,,,,2.0,2.0,español,0.0,catalán,0.0,1.0,1.0,yes,no,no,guitarra,6,piano,6,,,nada,60.0,yes
132,2024-01-13_15h43.41.306,Unsyncopated_study2,s90,20.0,feminino,right,españa,español y catalán,Bachelor degree,no,no,A,1,when,L4,unsyncopated,when,when,132,Online_whenL4//d.pe23.444.wav,po,ja,pe,sil,de,ru,re,sil1,lo,bo,sil2,['miss'],,,0.444,no_beat,,,,pe,4,,,,,,,,,,,,,,,2.0,2.0,español,0.0,catalán,0.0,1.0,1.0,yes,no,no,guitarra,6,piano,6,,,nada,60.0,yes
133,2024-01-13_15h43.41.306,Unsyncopated_study2,s90,20.0,feminino,right,españa,español y catalán,Bachelor degree,no,no,A,1,when,L4,unsyncopated,when,when,133,Online_whenL4//d.pe22.0.wav,pe,zi,ña,sil,lo,ci,ñi,sil1,re,da,sil2,['catch'],[0.7217999999998028],[0.7217999999998028],0.0,beat,0.7217999999998028,0.7217999999998028,"[""space""]",pe,4,,,,,,,,,,,,,,,2.0,2.0,español,0.0,catalán,0.0,1.0,1.0,yes,no,no,guitarra,6,piano,6,,,nada,60.0,yes
134,2024-01-13_15h43.41.306,Unsyncopated_study2,s90,20.0,feminino,right,españa,español y catalán,Bachelor degree,no,no,A,1,when,L4,unsyncopated,when,when,134,Online_whenL4//d.pe20.none.wav,bu,lo,po,sil,ru,ñi,ja,sil1,ña,de,sil2,['-'],,,none,none,,,,pe,4,,,,,,,,,,,,,,,2.0,2.0,español,0.0,catalán,0.0,1.0,1.0,yes,no,no,guitarra,6,piano,6,,,nada,60.0,yes
135,2024-01-13_15h43.41.306,Unsyncopated_study2,s90,20.0,feminino,right,españa,español y catalán,Bachelor degree,no,no,A,1,when,L4,unsyncopated,when,when,135,Online_whenL4//d.pe21.none.wav,ci,lo,bu,sil,ña,po,ja,sil1,bo,ru,sil2,['false alarm'],[1.9764000000003534],[1.9764000000003534],none,none,,,"[""space""]",pe,4,,,,,,,,,,,,,,,2.0,2.0,español,0.0,catalán,0.0,1.0,1.0,yes,no,no,guitarra,6,piano,6,,,nada,60.0,yes
136,2024-01-13_15h43.41.306,Unsyncopated_study2,s90,20.0,feminino,right,españa,español y catalán,Bachelor degree,no,no,A,2,conjunction_un,L2,unsyncopated,s2,r2,0,Online_conjL2_un//d.si.ñu3.none.none.wav,to,ba,te,sil,fe,cha,bi,sil1,ra,me,sil2,['-'],,,none,none,,,,si,4,,,,,,,,,,,,,,,2.0,2.0,español,0.0,catalán,0.0,1.0,1.0,yes,no,no,guitarra,6,piano,6,,,nada,60.0,yes
137,2024-01-13_15h43.41.306,Unsyncopated_study2,s90,20.0,feminino,right,españa,español y catalán,Bachelor degree,no,no,A,2,conjunction_un,L2,unsyncopated,s1,r1,1,Online_conjL2_un//d.si.ñu2.1776.444.wav,go,ba,ñu,sil,du,to,su,sil1,si,ñi,sil2,['catch'],[2.257599999999684],[2.257599999999684],1.776,beat,0.4815999999996838,0.4815999999996838,"[""space""]",si,4,,,,,,,,,,,,,,,2.0,2.0,español,0.0,catalán,0.0,1.0,1.0,yes,no,no,guitarra,6,piano,6,,,nada,60.0,yes
138,2024-01-13_15h43.41.306,Unsyncopated_study2,s90,20.0,feminino,right,españa,español y catalán,Bachelor degree,no,no,A,2,conjunction_un,L2,unsyncopated,s1,r1,2,Online_conjL2_un//d.si.ñu0.none.none.wav,go,cha,ba,sil,du,ñi,bi,sil1,su,to,sil2,['-'],,,none,none,,,,si,4,,,,,,,,,,,,,,,2.0,2.0,español,0.0,catalán,0.0,1.0,1.0,yes,no,no,guitarra,6,piano,6,,,nada,60.0,yes
139,2024-01-13_15h43.41.306,Unsyncopated_study2,s90,20.0,feminino,right,españa,español y catalán,Bachelor degree,no,no,A,2,conjunction_un,L2,unsyncopated,s1,r2,3,Online_conjL2_un//d.si.ñu1.222.1332.wav,fe,si,ba,sil,ra,su,ñu,sil1,ñi,me,sil2,['catch'],[0.6910000000000309],[0.6910000000000309],0.222,no_beat,0.4690000000000309,0.4690000000000309,"[""space""]",si,4,,,,,,,,,,,,,,,2.0,2.0,español,0.0,catalán,0.0,1.0,1.0,yes,no,no,guitarra,6,piano,6,,,nada,60.0,yes
140,2024-01-13_15h43.41.306,Unsyncopated_study2,s90,20.0,feminino,right,españa,español y catalán,Bachelor degree,no,no,A,2,conjunction_un,L2,unsyncopated,s1,r2,4,Online_conjL2_un//c.cha.me14.none.none.wav,fe,mi,su,sil,ra,si,ba,sil1,te,ñi,sil2,['false alarm'],[1.5317999999999756],[1.5317999999999756],none,none,,,"[""space""]",cha,3,,,,,,,,,,,,,,,2.0,2.0,español,0.0,catalán,0.0,1.0,1.0,yes,no,no,guitarra,6,piano,6,,,nada,60.0,yes
141,2024-01-13_15h43.41.306,Unsyncopated_study2,s90,20.0,feminino,right,españa,español y catalán,Bachelor degree,no,no,A,2,conjunction_un,L2,unsyncopated,s1,r1,5,Online_conjL2_un//c.cha.me13.none.none.wav,go,bi,su,sil,du,si,te,sil1,mi,ñu,sil2,['-'],,,none,none,,,,cha,3,,,,,,,,,,,,,,,2.0,2.0,español,0.0,catalán,0.0,1.0,1.0,yes,no,no,guitarra,6,piano,6,,,nada,60.0,yes
142,2024-01-13_15h43.41.306,Unsyncopated_study2,s90,20.0,feminino,right,españa,español y catalán,Bachelor degree,no,no,A,2,conjunction_un,L2,unsyncopated,s1,r1,6,Online_conjL2_un//c.cha.me12.1332.222.wav,go,me,si,sil,du,ñu,cha,sil1,ñi,bi,sil2,['catch'],[1.721299999999701],[1.721299999999701],1.332,no_beat,0.3892999999997009,0.3892999999997009,"[""space""]",cha,3,,,,,,,,,,,,,,,2.0,2.0,español,0.0,catalán,0.0,1.0,1.0,yes,no,no,guitarra,6,piano,6,,,nada,60.0,yes
143,2024-01-13_15h43.41.306,Unsyncopated_study2,s90,20.0,feminino,right,españa,español y catalán,Bachelor degree,no,no,A,2,conjunction_un,L2,unsyncopated,s2,r1,7,Online_conjL2_un//c.cha.me15.444.1110.wav,mi,ba,cha,sil,go,me,si,sil1,du,te,sil2,['catch'],[0.9394000000004326],[0.9394000000004326],0.444,no_beat,0.4954000000004325,0.4954000000004325,"[""space""]",cha,3,,,,,,,,,,,,,,,2.0,2.0,español,0.0,catalán,0.0,1.0,1.0,yes,no,no,guitarra,6,piano,6,,,nada,60.0,yes
144,2024-01-13_15h43.41.306,Unsyncopated_study2,s90,20.0,feminino,right,españa,español y catalán,Bachelor degree,no,no,A,2,conjunction_un,L2,unsyncopated,s1,r1,8,Online_conjL2_un//a.go.du29.0.888.wav,go,mi,me,sil,du,to,bi,sil1,cha,ñu,sil2,['catch'],[1.386399999999412],[1.386399999999412],0.888,beat,0.4983999999994121,0.4983999999994121,"[""space""]",du,2,,,,,,,,,,,,,,,2.0,2.0,español,0.0,catalán,0.0,1.0,1.0,yes,no,no,guitarra,6,piano,6,,,nada,60.0,yes
145,2024-01-13_15h43.41.306,Unsyncopated_study2,s90,20.0,feminino,right,españa,español y catalán,Bachelor degree,no,no,A,2,conjunction_un,L2,unsyncopated,s1,r2,9,Online_conjL2_un//a.go.du28.none.none.wav,fe,cha,ba,sil,ra,mi,me,sil1,bi,te,sil2,['-'],,,none,none,,,,du,2,,,,,,,,,,,,,,,2.0,2.0,español,0.0,catalán,0.0,1.0,1.0,yes,no,no,guitarra,6,piano,6,,,nada,60.0,yes
146,2024-01-13_15h43.41.306,Unsyncopated_study2,s90,20.0,feminino,right,españa,español y catalán,Bachelor degree,no,no,A,2,conjunction_un,L2,unsyncopated,s1,r2,10,Online_conjL2_un//a.go.du30.none.none.wav,fe,cha,si,sil,ra,su,te,sil1,ba,bi,sil2,['-'],,,none,none,,,,du,2,,,,,,,,,,,,,,,2.0,2.0,español,0.0,catalán,0.0,1.0,1.0,yes,no,no,guitarra,6,piano,6,,,nada,60.0,yes
147,2024-01-13_15h43.41.306,Unsyncopated_study2,s90,20.0,feminino,right,españa,español y catalán,Bachelor degree,no,no,A,2,conjunction_un,L2,unsyncopated,s1,r2,11,Online_conjL2_un//a.go.du31.none.none.wav,fe,to,ñi,sil,ra,bi,ñu,sil1,su,si,sil2,['-'],,,none,none,,,,du,2,,,,,,,,,,,,,,,2.0,2.0,español,0.0,catalán,0.0,1.0,1.0,yes,no,no,guitarra,6,piano,6,,,nada,60.0,yes
148,2024-01-13_15h43.41.306,Unsyncopated_study2,s90,20.0,feminino,right,españa,español y catalán,Bachelor degree,no,no,A,2,conjunction_un,L2,unsyncopated,s1,r2,12,Online_conjL2_un//d.si.ñu14.1110.222.wav,fe,ñu,ñi,sil,ra,si,ba,sil1,te,su,sil2,['catch'],[1.6020000000000891],[1.6020000000000891],1.11,no_beat,0.492000000000089,0.492000000000089,"[""space""]",si,4,,,,,,,,,,,,,,,2.0,2.0,español,0.0,catalán,0.0,1.0,1.0,yes,no,no,guitarra,6,piano,6,,,nada,60.0,yes
149,2024-01-13_15h43.41.306,Unsyncopated_study2,s90,20.0,feminino,right,españa,español y catalán,Bachelor degree,no,no,A,2,conjunction_un,L2,unsyncopated,s2,r2,13,Online_conjL2_un//d.si.ñu13.0.1110.wav,si,su,ba,sil,fe,ñu,ñi,sil1,ra,mi,sil2,['catch'],[0.7765999999996893],[0.7765999999996893],0.0,beat,0.7765999999996893,0.7765999999996893,"[""space""]",si,4,,,,,,,,,,,,,,,2.0,2.0,español,0.0,catalán,0.0,1.0,1.0,yes,no,no,guitarra,6,piano,6,,,nada,60.0,yes
150,2024-01-13_15h43.41.306,Unsyncopated_study2,s90,20.0,feminino,right,españa,español y catalán,Bachelor degree,no,no,A,2,conjunction_un,L2,unsyncopated,s2,r1,14,Online_conjL2_un//d.si.ñu15.none.none.wav,su,mi,bi,sil,go,me,ba,sil1,du,te,sil2,['-'],,,none,none,,,,si,4,,,,,,,,,,,,,,,2.0,2.0,español,0.0,catalán,0.0,1.0,1.0,yes,no,no,guitarra,6,piano,6,,,nada,60.0,yes
151,2024-01-13_15h43.41.306,Unsyncopated_study2,s90,20.0,feminino,right,españa,español y catalán,Bachelor degree,no,no,A,2,conjunction_un,L2,unsyncopated,s2,r1,15,Online_conjL2_un//d.si.ñu12.none.none.wav,ba,bi,mi,sil,go,to,cha,sil1,du,te,sil2,['-'],,,none,none,,,,si,4,,,,,,,,,,,,,,,2.0,2.0,español,0.0,catalán,0.0,1.0,1.0,yes,no,no,guitarra,6,piano,6,,,nada,60.0,yes
152,2024-01-13_15h43.41.306,Unsyncopated_study2,s90,20.0,feminino,right,españa,español y catalán,Bachelor degree,no,no,A,2,conjunction_un,L2,unsyncopated,s1,r2,16,Online_conjL2_un//d.si.ñu25.none.none.wav,fe,me,ñi,sil,ra,to,mi,sil1,bi,cha,sil2,['-'],,,none,none,,,,si,4,,,,,,,,,,,,,,,2.0,2.0,español,0.0,catalán,0.0,1.0,1.0,yes,no,no,guitarra,6,piano,6,,,nada,60.0,yes
153,2024-01-13_15h43.41.306,Unsyncopated_study2,s90,20.0,feminino,right,españa,español y catalán,Bachelor degree,no,no,A,2,conjunction_un,L2,unsyncopated,s2,r2,17,Online_conjL2_un//d.si.ñu24.0.1110.wav,si,bi,to,sil,fe,ñu,te,sil1,ra,ñi,sil2,['catch'],[0.4410000000000309],[0.4410000000000309],0.0,beat,0.4410000000000309,0.4410000000000309,"[""space""]",si,4,,,,,,,,,,,,,,,2.0,2.0,español,0.0,catalán,0.0,1.0,1.0,yes,no,no,guitarra,6,piano,6,,,nada,60.0,yes
154,2024-01-13_15h43.41.306,Unsyncopated_study2,s90,20.0,feminino,right,españa,español y catalán,Bachelor degree,no,no,A,2,conjunction_un,L2,unsyncopated,s1,r2,18,Online_conjL2_un//d.si.ñu26.none.none.wav,fe,bi,to,sil,ra,mi,me,sil1,te,ba,sil2,['-'],,,none,none,,,,si,4,,,,,,,,,,,,,,,2.0,2.0,español,0.0,catalán,0.0,1.0,1.0,yes,no,no,guitarra,6,piano,6,,,nada,60.0,yes
155,2024-01-13_15h43.41.306,Unsyncopated_study2,s90,20.0,feminino,right,españa,español y catalán,Bachelor degree,no,no,A,2,conjunction_un,L2,unsyncopated,s2,r2,19,Online_conjL2_un//d.si.ñu27.1332.0.wav,ñu,bi,to,sil,fe,ba,si,sil1,ra,te,sil2,['catch'],[2.0548999999994066],[2.0548999999994066],1.332,no_beat,0.7228999999994066,0.7228999999994066,"[""space""]",si,4,,,,,,,,,,,,,,,2.0,2.0,español,0.0,catalán,0.0,1.0,1.0,yes,no,no,guitarra,6,piano,6,,,nada,60.0,yes
156,2024-01-13_15h43.41.306,Unsyncopated_study2,s90,20.0,feminino,right,españa,español y catalán,Bachelor degree,no,no,A,2,conjunction_un,L2,unsyncopated,s1,r1,20,Online_conjL2_un//d.si.ñu4.1332.444.wav,go,me,ñu,sil,du,cha,si,sil1,bi,to,sil2,['catch'],[1.9010000000000673],[1.9010000000000673],1.332,no_beat,0.5690000000000672,0.5690000000000672,"[""space""]",si,4,,,,,,,,,,,,,,,2.0,2.0,español,0.0,catalán,0.0,1.0,1.0,yes,no,no,guitarra,6,piano,6,,,nada,60.0,yes
157,2024-01-13_15h43.41.306,Unsyncopated_study2,s90,20.0,feminino,right,españa,español y catalán,Bachelor degree,no,no,A,2,conjunction_un,L2,unsyncopated,s2,r2,21,Online_conjL2_un//d.si.ñu5.none.none.wav,bi,ñi,mi,sil,fe,te,ba,sil1,ra,to,sil2,['-'],,,none,none,,,,si,4,,,,,,,,,,,,,,,2.0,2.0,español,0.0,catalán,0.0,1.0,1.0,yes,no,no,guitarra,6,piano,6,,,nada,60.0,yes
158,2024-01-13_15h43.41.306,Unsyncopated_study2,s90,20.0,feminino,right,españa,español y catalán,Bachelor degree,no,no,A,2,conjunction_un,L2,unsyncopated,s1,r1,22,Online_conjL2_un//d.si.ñu7.none.none.wav,go,ñi,mi,sil,du,te,ba,sil1,su,to,sil2,['-'],,,none,none,,,,si,4,,,,,,,,,,,,,,,2.0,2.0,español,0.0,catalán,0.0,1.0,1.0,yes,no,no,guitarra,6,piano,6,,,nada,60.0,yes
159,2024-01-13_15h43.41.306,Unsyncopated_study2,s90,20.0,feminino,right,españa,español y catalán,Bachelor degree,no,no,A,2,conjunction_un,L2,unsyncopated,s1,r1,23,Online_conjL2_un//d.si.ñu6.444.1110.wav,go,cha,si,sil,du,ñu,ba,sil1,me,to,sil2,['catch'],[0.7949000000003252],[0.7949000000003252],0.444,no_beat,0.3509000000003252,0.3509000000003252,"[""space""]",si,4,,,,,,,,,,,,,,,2.0,2.0,español,0.0,catalán,0.0,1.0,1.0,yes,no,no,guitarra,6,piano,6,,,nada,60.0,yes
160,2024-01-13_15h43.41.306,Unsyncopated_study2,s90,20.0,feminino,right,españa,español y catalán,Bachelor degree,no,no,A,2,conjunction_un,L2,unsyncopated,s1,r2,24,Online_conjL2_un//b.fe.ra11.0.888.wav,fe,bi,mi,sil,ra,te,su,sil1,cha,ba,sil2,['miss'],,,0.0,beat,,,,fe,1,,,,,,,,,,,,,,,2.0,2.0,español,0.0,catalán,0.0,1.0,1.0,yes,no,no,guitarra,6,piano,6,,,nada,60.0,yes
161,2024-01-13_15h43.41.306,Unsyncopated_study2,s90,20.0,feminino,right,españa,español y catalán,Bachelor degree,no,no,A,2,conjunction_un,L2,unsyncopated,s1,r2,25,Online_conjL2_un//b.fe.ra10.0.888.wav,fe,ñu,cha,sil,ra,mi,bi,sil1,me,si,sil2,['catch'],[0.42309999999974934],[0.42309999999974934],0.0,beat,0.4230999999997493,0.4230999999997493,"[""space""]",fe,1,,,,,,,,,,,,,,,2.0,2.0,español,0.0,catalán,0.0,1.0,1.0,yes,no,no,guitarra,6,piano,6,,,nada,60.0,yes
162,2024-01-13_15h43.41.306,Unsyncopated_study2,s90,20.0,feminino,right,españa,español y catalán,Bachelor degree,no,no,A,2,conjunction_un,L2,unsyncopated,s2,r1,26,Online_conjL2_un//b.fe.ra8.none.none.wav,si,to,mi,sil,go,cha,me,sil1,du,bi,sil2,['-'],,,none,none,,,,fe,1,,,,,,,,,,,,,,,2.0,2.0,español,0.0,catalán,0.0,1.0,1.0,yes,no,no,guitarra,6,piano,6,,,nada,60.0,yes
163,2024-01-13_15h43.41.306,Unsyncopated_study2,s90,20.0,feminino,right,españa,español y catalán,Bachelor degree,no,no,A,2,conjunction_un,L2,unsyncopated,s1,r2,27,Online_conjL2_un//b.fe.ra9.0.888.wav,fe,ñu,cha,sil,ra,to,bi,sil1,te,ba,sil2,['catch'],[0.4238999999995485],[0.4238999999995485],0.0,beat,0.4238999999995485,0.4238999999995485,"[""space""]",fe,1,,,,,,,,,,,,,,,2.0,2.0,español,0.0,catalán,0.0,1.0,1.0,yes,no,no,guitarra,6,piano,6,,,nada,60.0,yes
164,2024-01-13_15h43.41.306,Unsyncopated_study2,s90,20.0,feminino,right,españa,español y catalán,Bachelor degree,no,no,A,2,conjunction_un,L2,unsyncopated,s1,r2,28,Online_conjL2_un//a.go.du5.none.none.wav,fe,bi,me,sil,ra,to,si,sil1,ñi,ñu,sil2,['false alarm'],[0.5221000000005915],[0.5221000000005915],none,none,,,"[""space""]",du,2,,,,,,,,,,,,,,,2.0,2.0,español,0.0,catalán,0.0,1.0,1.0,yes,no,no,guitarra,6,piano,6,,,nada,60.0,yes
165,2024-01-13_15h43.41.306,Unsyncopated_study2,s90,20.0,feminino,right,españa,español y catalán,Bachelor degree,no,no,A,2,conjunction_un,L2,unsyncopated,s2,r2,29,Online_conjL2_un//a.go.du6.none.none.wav,ñu,ba,bi,sil,fe,me,su,sil1,ra,to,sil2,['-'],,,none,none,,,,du,2,,,,,,,,,,,,,,,2.0,2.0,español,0.0,catalán,0.0,1.0,1.0,yes,no,no,guitarra,6,piano,6,,,nada,60.0,yes
166,2024-01-13_15h43.41.306,Unsyncopated_study2,s90,20.0,feminino,right,españa,español y catalán,Bachelor degree,no,no,A,2,conjunction_un,L2,unsyncopated,s2,r2,30,Online_conjL2_un//a.go.du4.none.none.wav,ñi,ba,cha,sil,fe,bi,ñu,sil1,ra,mi,sil2,['-'],,,none,none,,,,du,2,,,,,,,,,,,,,,,2.0,2.0,español,0.0,catalán,0.0,1.0,1.0,yes,no,no,guitarra,6,piano,6,,,nada,60.0,yes
167,2024-01-13_15h43.41.306,Unsyncopated_study2,s90,20.0,feminino,right,españa,español y catalán,Bachelor degree,no,no,A,2,conjunction_un,L2,unsyncopated,s2,r2,31,Online_conjL2_un//a.go.du7.none.none.wav,to,ñi,su,sil,fe,si,ñu,sil1,ra,cha,sil2,['-'],,,none,none,,,,du,2,,,,,,,,,,,,,,,2.0,2.0,español,0.0,catalán,0.0,1.0,1.0,yes,no,no,guitarra,6,piano,6,,,nada,60.0,yes
168,2024-01-13_15h43.41.306,Unsyncopated_study2,s90,20.0,feminino,right,españa,español y catalán,Bachelor degree,no,no,A,2,conjunction_un,L2,unsyncopated,s1,r2,32,Online_conjL2_un//c.cha.me2.1776.444.wav,fe,su,me,sil,ra,mi,ba,sil1,cha,ñu,sil2,['catch'],[2.19820000000027],[2.19820000000027],1.776,beat,0.4222000000002699,0.4222000000002699,"[""space""]",cha,3,,,,,,,,,,,,,,,2.0,2.0,español,0.0,catalán,0.0,1.0,1.0,yes,no,no,guitarra,6,piano,6,,,nada,60.0,yes
169,2024-01-13_15h43.41.306,Unsyncopated_study2,s90,20.0,feminino,right,españa,español y catalán,Bachelor degree,no,no,A,2,conjunction_un,L2,unsyncopated,s1,r1,33,Online_conjL2_un//c.cha.me1.none.none.wav,go,ba,mi,sil,du,ñi,ñu,sil1,bi,si,sil2,['-'],,,none,none,,,,cha,3,,,,,,,,,,,,,,,2.0,2.0,español,0.0,catalán,0.0,1.0,1.0,yes,no,no,guitarra,6,piano,6,,,nada,60.0,yes
170,2024-01-13_15h43.41.306,Unsyncopated_study2,s90,20.0,feminino,right,españa,español y catalán,Bachelor degree,no,no,A,2,conjunction_un,L2,unsyncopated,s1,r1,34,Online_conjL2_un//c.cha.me3.1776.1110.wav,go,mi,te,sil,du,me,bi,sil1,cha,su,sil2,['catch'],[2.140200000000277],[2.140200000000277],1.776,beat,0.3642000000002772,0.3642000000002772,"[""space""]",cha,3,,,,,,,,,,,,,,,2.0,2.0,español,0.0,catalán,0.0,1.0,1.0,yes,no,no,guitarra,6,piano,6,,,nada,60.0,yes
171,2024-01-13_15h43.41.306,Unsyncopated_study2,s90,20.0,feminino,right,españa,español y catalán,Bachelor degree,no,no,A,2,conjunction_un,L2,unsyncopated,s2,r2,35,Online_conjL2_un//c.cha.me0.none.none.wav,si,mi,ba,sil,fe,su,te,sil1,ra,ñi,sil2,['-'],,,none,none,,,,cha,3,,,,,,,,,,,,,,,2.0,2.0,español,0.0,catalán,0.0,1.0,1.0,yes,no,no,guitarra,6,piano,6,,,nada,60.0,yes
172,2024-01-13_15h43.41.306,Unsyncopated_study2,s90,20.0,feminino,right,españa,español y catalán,Bachelor degree,no,no,A,2,conjunction_un,L2,unsyncopated,s1,r1,36,Online_conjL2_un//b.fe.ra7.none.none.wav,go,ñu,si,sil,du,me,ñi,sil1,te,ba,sil2,['-'],,,none,none,,,,fe,1,,,,,,,,,,,,,,,2.0,2.0,español,0.0,catalán,0.0,1.0,1.0,yes,no,no,guitarra,6,piano,6,,,nada,60.0,yes
173,2024-01-13_15h43.41.306,Unsyncopated_study2,s90,20.0,feminino,right,españa,español y catalán,Bachelor degree,no,no,A,2,conjunction_un,L2,unsyncopated,s2,r2,37,Online_conjL2_un//b.fe.ra4.888.1776.wav,bi,ñi,to,sil,fe,me,ba,sil1,ra,cha,sil2,['catch'],[1.294100000000526],[1.294100000000526],0.888,beat,0.406100000000526,0.406100000000526,"[""space""]",fe,1,,,,,,,,,,,,,,,2.0,2.0,español,0.0,catalán,0.0,1.0,1.0,yes,no,no,guitarra,6,piano,6,,,nada,60.0,yes
174,2024-01-13_15h43.41.306,Unsyncopated_study2,s90,20.0,feminino,right,españa,español y catalán,Bachelor degree,no,no,A,2,conjunction_un,L2,unsyncopated,s1,r2,38,Online_conjL2_un//b.fe.ra6.0.888.wav,fe,me,ñu,sil,ra,ñi,mi,sil1,to,bi,sil2,['miss'],,,0.0,beat,,,,fe,1,,,,,,,,,,,,,,,2.0,2.0,español,0.0,catalán,0.0,1.0,1.0,yes,no,no,guitarra,6,piano,6,,,nada,60.0,yes
175,2024-01-13_15h43.41.306,Unsyncopated_study2,s90,20.0,feminino,right,españa,español y catalán,Bachelor degree,no,no,A,2,conjunction_un,L2,unsyncopated,s2,r1,39,Online_conjL2_un//b.fe.ra5.none.none.wav,cha,si,su,sil,go,bi,mi,sil1,du,ñu,sil2,['-'],,,none,none,,,,fe,1,,,,,,,,,,,,,,,2.0,2.0,español,0.0,catalán,0.0,1.0,1.0,yes,no,no,guitarra,6,piano,6,,,nada,60.0,yes
176,2024-01-13_15h43.41.306,Unsyncopated_study2,s90,20.0,feminino,right,españa,español y catalán,Bachelor degree,no,no,A,2,conjunction_un,L2,unsyncopated,s2,r2,40,Online_conjL2_un//c.cha.me6.0.222.wav,cha,me,si,sil,fe,ba,te,sil1,ra,to,sil2,['miss'],,,0.0,beat,,,,cha,3,,,,,,,,,,,,,,,2.0,2.0,español,0.0,catalán,0.0,1.0,1.0,yes,no,no,guitarra,6,piano,6,,,nada,60.0,yes
177,2024-01-13_15h43.41.306,Unsyncopated_study2,s90,20.0,feminino,right,españa,español y catalán,Bachelor degree,no,no,A,2,conjunction_un,L2,unsyncopated,s2,r1,41,Online_conjL2_un//c.cha.me5.1332.0.wav,me,ñi,mi,sil,go,to,cha,sil1,du,su,sil2,['catch'],[1.9104999999999563],[1.9104999999999563],1.332,no_beat,0.5784999999999563,0.5784999999999563,"[""space""]",cha,3,,,,,,,,,,,,,,,2.0,2.0,español,0.0,catalán,0.0,1.0,1.0,yes,no,no,guitarra,6,piano,6,,,nada,60.0,yes
178,2024-01-13_15h43.41.306,Unsyncopated_study2,s90,20.0,feminino,right,españa,español y catalán,Bachelor degree,no,no,A,2,conjunction_un,L2,unsyncopated,s1,r2,42,Online_conjL2_un//c.cha.me7.none.none.wav,fe,su,si,sil,ra,te,mi,sil1,ba,to,sil2,['-'],,,none,none,,,,cha,3,,,,,,,,,,,,,,,2.0,2.0,español,0.0,catalán,0.0,1.0,1.0,yes,no,no,guitarra,6,piano,6,,,nada,60.0,yes
179,2024-01-13_15h43.41.306,Unsyncopated_study2,s90,20.0,feminino,right,españa,español y catalán,Bachelor degree,no,no,A,2,conjunction_un,L2,unsyncopated,s2,r2,43,Online_conjL2_un//c.cha.me4.none.none.wav,mi,ñu,su,sil,fe,bi,to,sil1,ra,ñi,sil2,['-'],,,none,none,,,,cha,3,,,,,,,,,,,,,,,2.0,2.0,español,0.0,catalán,0.0,1.0,1.0,yes,no,no,guitarra,6,piano,6,,,nada,60.0,yes
180,2024-01-13_15h43.41.306,Unsyncopated_study2,s90,20.0,feminino,right,españa,español y catalán,Bachelor degree,no,no,A,2,conjunction_un,L2,unsyncopated,s2,r1,44,Online_conjL2_un//a.go.du23.888.1776.wav,su,te,mi,sil,go,ñu,bi,sil1,du,me,sil2,['catch'],[2.354000000000042],[2.354000000000042],1.776,beat,0.5780000000000418,0.5780000000000418,"[""space""]",du,2,,,,,,,,,,,,,,,2.0,2.0,español,0.0,catalán,0.0,1.0,1.0,yes,no,no,guitarra,6,piano,6,,,nada,60.0,yes
181,2024-01-13_15h43.41.306,Unsyncopated_study2,s90,20.0,feminino,right,españa,español y catalán,Bachelor degree,no,no,A,2,conjunction_un,L2,unsyncopated,s1,r1,45,Online_conjL2_un//a.go.du20.0.888.wav,go,ñi,si,sil,du,mi,me,sil1,bi,te,sil2,['catch'],[1.3585999999995693],[1.3585999999995693],0.888,beat,0.4705999999995692,0.4705999999995692,"[""space""]",du,2,,,,,,,,,,,,,,,2.0,2.0,español,0.0,catalán,0.0,1.0,1.0,yes,no,no,guitarra,6,piano,6,,,nada,60.0,yes
182,2024-01-13_15h43.41.306,Unsyncopated_study2,s90,20.0,feminino,right,españa,español y catalán,Bachelor degree,no,no,A,2,conjunction_un,L2,unsyncopated,s1,r2,46,Online_conjL2_un//a.go.du22.none.none.wav,fe,bi,ñi,sil,ra,mi,me,sil1,su,ñu,sil2,['-'],,,none,none,,,,du,2,,,,,,,,,,,,,,,2.0,2.0,español,0.0,catalán,0.0,1.0,1.0,yes,no,no,guitarra,6,piano,6,,,nada,60.0,yes
183,2024-01-13_15h43.41.306,Unsyncopated_study2,s90,20.0,feminino,right,españa,español y catalán,Bachelor degree,no,no,A,2,conjunction_un,L2,unsyncopated,s2,r1,47,Online_conjL2_un//a.go.du21.888.1776.wav,ba,cha,si,sil,go,to,ñi,sil1,du,te,sil2,['catch'],[2.2397000000000844],[2.2397000000000844],1.776,beat,0.4637000000000844,0.4637000000000844,"[""space""]",du,2,,,,,,,,,,,,,,,2.0,2.0,español,0.0,catalán,0.0,1.0,1.0,yes,no,no,guitarra,6,piano,6,,,nada,60.0,yes
184,2024-01-13_15h43.41.306,Unsyncopated_study2,s90,20.0,feminino,right,españa,español y catalán,Bachelor degree,no,no,A,2,conjunction_un,L2,unsyncopated,s2,r1,48,Online_conjL2_un//a.go.du11.888.1776.wav,si,ba,ñu,sil,go,ñi,mi,sil1,du,te,sil2,['catch'],[2.2680999999997766],[2.2680999999997766],1.776,beat,0.4920999999997766,0.4920999999997766,"[""space""]",du,2,,,,,,,,,,,,,,,2.0,2.0,español,0.0,catalán,0.0,1.0,1.0,yes,no,no,guitarra,6,piano,6,,,nada,60.0,yes
185,2024-01-13_15h43.41.306,Unsyncopated_study2,s90,20.0,feminino,right,españa,español y catalán,Bachelor degree,no,no,A,2,conjunction_un,L2,unsyncopated,s1,r2,49,Online_conjL2_un//a.go.du8.none.none.wav,fe,to,ñi,sil,ra,ba,cha,sil1,ñu,bi,sil2,['-'],,,none,none,,,,du,2,,,,,,,,,,,,,,,2.0,2.0,español,0.0,catalán,0.0,1.0,1.0,yes,no,no,guitarra,6,piano,6,,,nada,60.0,yes
186,2024-01-13_15h43.41.306,Unsyncopated_study2,s90,20.0,feminino,right,españa,español y catalán,Bachelor degree,no,no,A,2,conjunction_un,L2,unsyncopated,s1,r1,50,Online_conjL2_un//a.go.du10.0.888.wav,go,bi,ñi,sil,du,si,te,sil1,ñu,su,sil2,['catch'],[1.48929999999973],[1.48929999999973],0.888,beat,0.60129999999973,0.60129999999973,"[""space""]",du,2,,,,,,,,,,,,,,,2.0,2.0,español,0.0,catalán,0.0,1.0,1.0,yes,no,no,guitarra,6,piano,6,,,nada,60.0,yes
187,2024-01-13_15h43.41.306,Unsyncopated_study2,s90,20.0,feminino,right,españa,español y catalán,Bachelor degree,no,no,A,2,conjunction_un,L2,unsyncopated,s2,r1,51,Online_conjL2_un//a.go.du9.888.1776.wav,mi,bi,cha,sil,go,ñu,si,sil1,du,to,sil2,['catch'],[2.3221999999991567],[2.3221999999991567],1.776,beat,0.5461999999991567,0.5461999999991567,"[""space""]",du,2,,,,,,,,,,,,,,,2.0,2.0,español,0.0,catalán,0.0,1.0,1.0,yes,no,no,guitarra,6,piano,6,,,nada,60.0,yes
188,2024-01-13_15h43.41.306,Unsyncopated_study2,s90,20.0,feminino,right,españa,español y catalán,Bachelor degree,no,no,A,2,conjunction_un,L2,unsyncopated,s2,r2,52,Online_conjL2_un//c.cha.me23.222.444.wav,su,cha,me,sil,fe,mi,to,sil1,ra,ñu,sil2,['catch'],[0.7709999999999582],[0.7709999999999582],0.222,no_beat,0.5489999999999582,0.5489999999999582,"[""space""]",cha,3,,,,,,,,,,,,,,,2.0,2.0,español,0.0,catalán,0.0,1.0,1.0,yes,no,no,guitarra,6,piano,6,,,nada,60.0,yes
189,2024-01-13_15h43.41.306,Unsyncopated_study2,s90,20.0,feminino,right,españa,español y catalán,Bachelor degree,no,no,A,2,conjunction_un,L2,unsyncopated,s2,r1,53,Online_conjL2_un//c.cha.me20.none.none.wav,ñu,su,ñi,sil,go,to,si,sil1,du,ba,sil2,['-'],,,none,none,,,,cha,3,,,,,,,,,,,,,,,2.0,2.0,español,0.0,catalán,0.0,1.0,1.0,yes,no,no,guitarra,6,piano,6,,,nada,60.0,yes
190,2024-01-13_15h43.41.306,Unsyncopated_study2,s90,20.0,feminino,right,españa,español y catalán,Bachelor degree,no,no,A,2,conjunction_un,L2,unsyncopated,s1,r2,54,Online_conjL2_un//c.cha.me21.1332.444.wav,fe,su,me,sil,ra,si,cha,sil1,ñi,ba,sil2,['catch'],[1.7429999999999382],[1.7429999999999382],1.332,no_beat,0.4109999999999381,0.4109999999999381,"[""space""]",cha,3,,,,,,,,,,,,,,,2.0,2.0,español,0.0,catalán,0.0,1.0,1.0,yes,no,no,guitarra,6,piano,6,,,nada,60.0,yes
191,2024-01-13_15h43.41.306,Unsyncopated_study2,s90,20.0,feminino,right,españa,español y catalán,Bachelor degree,no,no,A,2,conjunction_un,L2,unsyncopated,s1,r1,55,Online_conjL2_un//c.cha.me22.222.444.wav,go,cha,me,sil,du,ñu,to,sil1,te,su,sil2,['miss'],,,0.222,no_beat,,,,cha,3,,,,,,,,,,,,,,,2.0,2.0,español,0.0,catalán,0.0,1.0,1.0,yes,no,no,guitarra,6,piano,6,,,nada,60.0,yes
192,2024-01-13_15h43.41.306,Unsyncopated_study2,s90,20.0,feminino,right,españa,español y catalán,Bachelor degree,no,no,A,2,conjunction_un,L2,unsyncopated,s1,r1,56,Online_conjL2_un//a.go.du14.0.888.wav,go,su,to,sil,du,te,ba,sil1,ñi,me,sil2,['catch'],[1.42029999999977],[1.42029999999977],0.888,beat,0.5322999999997701,0.5322999999997701,"[""space""]",du,2,,,,,,,,,,,,,,,2.0,2.0,español,0.0,catalán,0.0,1.0,1.0,yes,no,no,guitarra,6,piano,6,,,nada,60.0,yes
193,2024-01-13_15h43.41.306,Unsyncopated_study2,s90,20.0,feminino,right,españa,español y catalán,Bachelor degree,no,no,A,2,conjunction_un,L2,unsyncopated,s2,r2,57,Online_conjL2_un//a.go.du12.none.none.wav,bi,su,mi,sil,fe,ñi,te,sil1,ra,si,sil2,['-'],,,none,none,,,,du,2,,,,,,,,,,,,,,,2.0,2.0,español,0.0,catalán,0.0,1.0,1.0,yes,no,no,guitarra,6,piano,6,,,nada,60.0,yes
194,2024-01-13_15h43.41.306,Unsyncopated_study2,s90,20.0,feminino,right,españa,español y catalán,Bachelor degree,no,no,A,2,conjunction_un,L2,unsyncopated,s2,r1,58,Online_conjL2_un//a.go.du13.888.1776.wav,mi,bi,ba,sil,go,ñu,to,sil1,du,te,sil2,['catch'],[2.2557999999999083],[2.2557999999999083],1.776,beat,0.4797999999999083,0.4797999999999083,"[""space""]",du,2,,,,,,,,,,,,,,,2.0,2.0,español,0.0,catalán,0.0,1.0,1.0,yes,no,no,guitarra,6,piano,6,,,nada,60.0,yes
195,2024-01-13_15h43.41.306,Unsyncopated_study2,s90,20.0,feminino,right,españa,español y catalán,Bachelor degree,no,no,A,2,conjunction_un,L2,unsyncopated,s2,r2,59,Online_conjL2_un//a.go.du15.none.none.wav,me,mi,ñu,sil,fe,si,ñi,sil1,ra,su,sil2,['-'],,,none,none,,,,du,2,,,,,,,,,,,,,,,2.0,2.0,español,0.0,catalán,0.0,1.0,1.0,yes,no,no,guitarra,6,piano,6,,,nada,60.0,yes
196,2024-01-13_15h43.41.306,Unsyncopated_study2,s90,20.0,feminino,right,españa,español y catalán,Bachelor degree,no,no,A,2,conjunction_un,L2,unsyncopated,s2,r2,60,Online_conjL2_un//b.fe.ra20.888.1776.wav,bi,ñi,me,sil,fe,cha,si,sil1,ra,su,sil2,['catch'],[1.2400999999995292],[1.2400999999995292],0.888,beat,0.3520999999995292,0.3520999999995292,"[""space""]",fe,1,,,,,,,,,,,,,,,2.0,2.0,español,0.0,catalán,0.0,1.0,1.0,yes,no,no,guitarra,6,piano,6,,,nada,60.0,yes
197,2024-01-13_15h43.41.306,Unsyncopated_study2,s90,20.0,feminino,right,españa,español y catalán,Bachelor degree,no,no,A,2,conjunction_un,L2,unsyncopated,s1,r1,61,Online_conjL2_un//b.fe.ra22.none.none.wav,go,te,to,sil,du,me,ñu,sil1,ñi,si,sil2,['-'],,,none,none,,,,fe,1,,,,,,,,,,,,,,,2.0,2.0,español,0.0,catalán,0.0,1.0,1.0,yes,no,no,guitarra,6,piano,6,,,nada,60.0,yes
198,2024-01-13_15h43.41.306,Unsyncopated_study2,s90,20.0,feminino,right,españa,español y catalán,Bachelor degree,no,no,A,2,conjunction_un,L2,unsyncopated,s2,r1,62,Online_conjL2_un//b.fe.ra21.none.none.wav,bi,ba,to,sil,go,te,si,sil1,du,me,sil2,['-'],,,none,none,,,,fe,1,,,,,,,,,,,,,,,2.0,2.0,español,0.0,catalán,0.0,1.0,1.0,yes,no,no,guitarra,6,piano,6,,,nada,60.0,yes
199,2024-01-13_15h43.41.306,Unsyncopated_study2,s90,20.0,feminino,right,españa,español y catalán,Bachelor degree,no,no,A,2,conjunction_un,L2,unsyncopated,s2,r1,63,Online_conjL2_un//b.fe.ra23.none.none.wav,ñu,ba,mi,sil,go,to,ñi,sil1,du,bi,sil2,['-'],,,none,none,,,,fe,1,,,,,,,,,,,,,,,2.0,2.0,español,0.0,catalán,0.0,1.0,1.0,yes,no,no,guitarra,6,piano,6,,,nada,60.0,yes
200,2024-01-13_15h43.41.306,Unsyncopated_study2,s90,20.0,feminino,right,españa,español y catalán,Bachelor degree,no,no,A,2,conjunction_un,L2,unsyncopated,s2,r1,64,Online_conjL2_un//d.si.ñu16.1110.222.wav,te,ñu,mi,sil,go,si,to,sil1,du,me,sil2,['catch'],[1.4860000000001037],[1.4860000000001037],1.11,no_beat,0.3760000000001036,0.3760000000001036,"[""space""]",si,4,,,,,,,,,,,,,,,2.0,2.0,español,0.0,catalán,0.0,1.0,1.0,yes,no,no,guitarra,6,piano,6,,,nada,60.0,yes
201,2024-01-13_15h43.41.306,Unsyncopated_study2,s90,20.0,feminino,right,españa,español y catalán,Bachelor degree,no,no,A,2,conjunction_un,L2,unsyncopated,s2,r2,65,Online_conjL2_un//d.si.ñu17.1110.0.wav,ñu,bi,te,sil,fe,si,me,sil1,ra,ba,sil2,['catch'],[1.574399999999514],[1.574399999999514],1.11,no_beat,0.4643999999995138,0.4643999999995138,"[""space""]",si,4,,,,,,,,,,,,,,,2.0,2.0,español,0.0,catalán,0.0,1.0,1.0,yes,no,no,guitarra,6,piano,6,,,nada,60.0,yes
202,2024-01-13_15h43.41.306,Unsyncopated_study2,s90,20.0,feminino,right,españa,español y catalán,Bachelor degree,no,no,A,2,conjunction_un,L2,unsyncopated,s2,r1,66,Online_conjL2_un//d.si.ñu18.1332.222.wav,bi,ñu,me,sil,go,cha,si,sil1,du,ba,sil2,['catch'],[1.8938999999995758],[1.8938999999995758],1.332,no_beat,0.5618999999995757,0.5618999999995757,"[""space""]",si,4,,,,,,,,,,,,,,,2.0,2.0,español,0.0,catalán,0.0,1.0,1.0,yes,no,no,guitarra,6,piano,6,,,nada,60.0,yes
203,2024-01-13_15h43.41.306,Unsyncopated_study2,s90,20.0,feminino,right,españa,español y catalán,Bachelor degree,no,no,A,2,conjunction_un,L2,unsyncopated,s1,r1,67,Online_conjL2_un//d.si.ñu19.444.1332.wav,go,su,si,sil,du,to,ñu,sil1,te,me,sil2,['miss'],,,0.444,no_beat,,,,si,4,,,,,,,,,,,,,,,2.0,2.0,español,0.0,catalán,0.0,1.0,1.0,yes,no,no,guitarra,6,piano,6,,,nada,60.0,yes
204,2024-01-13_15h43.41.306,Unsyncopated_study2,s90,20.0,feminino,right,españa,español y catalán,Bachelor degree,no,no,A,2,conjunction_un,L2,unsyncopated,s2,r1,68,Online_conjL2_un//a.go.du2.888.1776.wav,si,me,to,sil,go,bi,te,sil1,du,cha,sil2,"['false alarm', 'catch']","[0.40070000000037, 2.1662999999998647]",[2.1662999999998647],1.776,beat,0.3902999999998646,0.3902999999998646,"[""space"",""space""]",du,2,,,,,,,,,,,,,,,2.0,2.0,español,0.0,catalán,0.0,1.0,1.0,yes,no,no,guitarra,6,piano,6,,,nada,60.0,yes
205,2024-01-13_15h43.41.306,Unsyncopated_study2,s90,20.0,feminino,right,españa,español y catalán,Bachelor degree,no,no,A,2,conjunction_un,L2,unsyncopated,s1,r2,69,Online_conjL2_un//a.go.du0.none.none.wav,fe,ñu,ba,sil,ra,mi,cha,sil1,bi,si,sil2,['-'],,,none,none,,,,du,2,,,,,,,,,,,,,,,2.0,2.0,español,0.0,catalán,0.0,1.0,1.0,yes,no,no,guitarra,6,piano,6,,,nada,60.0,yes
206,2024-01-13_15h43.41.306,Unsyncopated_study2,s90,20.0,feminino,right,españa,español y catalán,Bachelor degree,no,no,A,2,conjunction_un,L2,unsyncopated,s2,r2,70,Online_conjL2_un//a.go.du3.none.none.wav,te,bi,su,sil,fe,me,ñi,sil1,ra,si,sil2,['false alarm'],[0.38000000000010914],[0.38000000000010914],none,none,,,"[""space""]",du,2,,,,,,,,,,,,,,,2.0,2.0,español,0.0,catalán,0.0,1.0,1.0,yes,no,no,guitarra,6,piano,6,,,nada,60.0,yes
207,2024-01-13_15h43.41.306,Unsyncopated_study2,s90,20.0,feminino,right,españa,español y catalán,Bachelor degree,no,no,A,2,conjunction_un,L2,unsyncopated,s1,r1,71,Online_conjL2_un//a.go.du1.0.888.wav,go,bi,si,sil,du,ñu,ba,sil1,mi,cha,sil2,['catch'],[1.274499999999989],[1.274499999999989],0.888,beat,0.3864999999999891,0.3864999999999891,"[""space""]",du,2,,,,,,,,,,,,,,,2.0,2.0,español,0.0,catalán,0.0,1.0,1.0,yes,no,no,guitarra,6,piano,6,,,nada,60.0,yes
208,2024-01-13_15h43.41.306,Unsyncopated_study2,s90,20.0,feminino,right,españa,español y catalán,Bachelor degree,no,no,A,2,conjunction_un,L2,unsyncopated,s1,r1,72,Online_conjL2_un//b.fe.ra1.none.none.wav,go,te,su,sil,du,mi,ba,sil1,si,me,sil2,['-'],,,none,none,,,,fe,1,,,,,,,,,,,,,,,2.0,2.0,español,0.0,catalán,0.0,1.0,1.0,yes,no,no,guitarra,6,piano,6,,,nada,60.0,yes
209,2024-01-13_15h43.41.306,Unsyncopated_study2,s90,20.0,feminino,right,españa,español y catalán,Bachelor degree,no,no,A,2,conjunction_un,L2,unsyncopated,s2,r2,73,Online_conjL2_un//b.fe.ra0.888.1776.wav,ñi,mi,si,sil,fe,to,ñu,sil1,ra,ba,sil2,['catch'],[1.2789000000002488],[1.2789000000002488],0.888,beat,0.3909000000002488,0.3909000000002488,"[""space""]",fe,1,,,,,,,,,,,,,,,2.0,2.0,español,0.0,catalán,0.0,1.0,1.0,yes,no,no,guitarra,6,piano,6,,,nada,60.0,yes
210,2024-01-13_15h43.41.306,Unsyncopated_study2,s90,20.0,feminino,right,españa,español y catalán,Bachelor degree,no,no,A,2,conjunction_un,L2,unsyncopated,s2,r2,74,Online_conjL2_un//b.fe.ra2.888.1776.wav,bi,te,mi,sil,fe,ñu,si,sil1,ra,ba,sil2,['catch'],[1.4764999999999873],[1.4764999999999873],0.888,beat,0.5884999999999873,0.5884999999999873,"[""space""]",fe,1,,,,,,,,,,,,,,,2.0,2.0,español,0.0,catalán,0.0,1.0,1.0,yes,no,no,guitarra,6,piano,6,,,nada,60.0,yes
211,2024-01-13_15h43.41.306,Unsyncopated_study2,s90,20.0,feminino,right,españa,español y catalán,Bachelor degree,no,no,A,2,conjunction_un,L2,unsyncopated,s1,r1,75,Online_conjL2_un//b.fe.ra3.none.none.wav,go,bi,to,sil,du,me,ba,sil1,su,ñi,sil2,['-'],,,none,none,,,,fe,1,,,,,,,,,,,,,,,2.0,2.0,español,0.0,catalán,0.0,1.0,1.0,yes,no,no,guitarra,6,piano,6,,,nada,60.0,yes
212,2024-01-13_15h43.41.306,Unsyncopated_study2,s90,20.0,feminino,right,españa,español y catalán,Bachelor degree,no,no,A,2,conjunction_un,L2,unsyncopated,s2,r2,76,Online_conjL2_un//c.cha.me30.0.1110.wav,cha,mi,ba,sil,fe,me,si,sil1,ra,ñi,sil2,['miss'],,,0.0,beat,,,,cha,3,,,,,,,,,,,,,,,2.0,2.0,español,0.0,catalán,0.0,1.0,1.0,yes,no,no,guitarra,6,piano,6,,,nada,60.0,yes
213,2024-01-13_15h43.41.306,Unsyncopated_study2,s90,20.0,feminino,right,españa,español y catalán,Bachelor degree,no,no,A,2,conjunction_un,L2,unsyncopated,s2,r2,77,Online_conjL2_un//c.cha.me29.none.none.wav,ba,ñu,mi,sil,fe,te,si,sil1,ra,ñi,sil2,['-'],,,none,none,,,,cha,3,,,,,,,,,,,,,,,2.0,2.0,español,0.0,catalán,0.0,1.0,1.0,yes,no,no,guitarra,6,piano,6,,,nada,60.0,yes
214,2024-01-13_15h43.41.306,Unsyncopated_study2,s90,20.0,feminino,right,españa,español y catalán,Bachelor degree,no,no,A,2,conjunction_un,L2,unsyncopated,s1,r1,78,Online_conjL2_un//c.cha.me28.222.444.wav,go,cha,me,sil,du,mi,ba,sil1,bi,to,sil2,['catch'],[0.7113000000006195],[0.7113000000006195],0.222,no_beat,0.4893000000006196,0.4893000000006196,"[""space""]",cha,3,,,,,,,,,,,,,,,2.0,2.0,español,0.0,catalán,0.0,1.0,1.0,yes,no,no,guitarra,6,piano,6,,,nada,60.0,yes
215,2024-01-13_15h43.41.306,Unsyncopated_study2,s90,20.0,feminino,right,españa,español y catalán,Bachelor degree,no,no,A,2,conjunction_un,L2,unsyncopated,s1,r2,79,Online_conjL2_un//c.cha.me31.none.none.wav,fe,ñi,ba,sil,ra,si,te,sil1,ñu,mi,sil2,['-'],,,none,none,,,,cha,3,,,,,,,,,,,,,,,2.0,2.0,español,0.0,catalán,0.0,1.0,1.0,yes,no,no,guitarra,6,piano,6,,,nada,60.0,yes
216,2024-01-13_15h43.41.306,Unsyncopated_study2,s90,20.0,feminino,right,españa,español y catalán,Bachelor degree,no,no,A,2,conjunction_un,L2,unsyncopated,s1,r2,80,Online_conjL2_un//d.si.ñu20.1776.222.wav,fe,ñu,cha,sil,ra,bi,te,sil1,si,ñi,sil2,['catch'],[2.1735000000001037],[2.1735000000001037],1.776,beat,0.3975000000001036,0.3975000000001036,"[""space""]",si,4,,,,,,,,,,,,,,,2.0,2.0,español,0.0,catalán,0.0,1.0,1.0,yes,no,no,guitarra,6,piano,6,,,nada,60.0,yes
217,2024-01-13_15h43.41.306,Unsyncopated_study2,s90,20.0,feminino,right,españa,español y catalán,Bachelor degree,no,no,A,2,conjunction_un,L2,unsyncopated,s1,r2,81,Online_conjL2_un//d.si.ñu21.none.none.wav,fe,ba,mi,sil,ra,cha,su,sil1,to,me,sil2,['-'],,,none,none,,,,si,4,,,,,,,,,,,,,,,2.0,2.0,español,0.0,catalán,0.0,1.0,1.0,yes,no,no,guitarra,6,piano,6,,,nada,60.0,yes
218,2024-01-13_15h43.41.306,Unsyncopated_study2,s90,20.0,feminino,right,españa,español y catalán,Bachelor degree,no,no,A,2,conjunction_un,L2,unsyncopated,s1,r1,82,Online_conjL2_un//d.si.ñu22.none.none.wav,go,su,to,sil,du,ñi,me,sil1,bi,mi,sil2,['-'],,,none,none,,,,si,4,,,,,,,,,,,,,,,2.0,2.0,español,0.0,catalán,0.0,1.0,1.0,yes,no,no,guitarra,6,piano,6,,,nada,60.0,yes
219,2024-01-13_15h43.41.306,Unsyncopated_study2,s90,20.0,feminino,right,españa,español y catalán,Bachelor degree,no,no,A,2,conjunction_un,L2,unsyncopated,s2,r1,83,Online_conjL2_un//d.si.ñu23.none.none.wav,su,to,ñi,sil,go,mi,cha,sil1,du,ba,sil2,['false alarm'],[0.3721000000005006],[0.3721000000005006],none,none,,,"[""space""]",si,4,,,,,,,,,,,,,,,2.0,2.0,español,0.0,catalán,0.0,1.0,1.0,yes,no,no,guitarra,6,piano,6,,,nada,60.0,yes
220,2024-01-13_15h43.41.306,Unsyncopated_study2,s90,20.0,feminino,right,españa,español y catalán,Bachelor degree,no,no,A,2,conjunction_un,L2,unsyncopated,s2,r1,84,Online_conjL2_un//d.si.ñu11.none.none.wav,ba,to,bi,sil,go,mi,te,sil1,du,su,sil2,['-'],,,none,none,,,,si,4,,,,,,,,,,,,,,,2.0,2.0,español,0.0,catalán,0.0,1.0,1.0,yes,no,no,guitarra,6,piano,6,,,nada,60.0,yes
221,2024-01-13_15h43.41.306,Unsyncopated_study2,s90,20.0,feminino,right,españa,español y catalán,Bachelor degree,no,no,A,2,conjunction_un,L2,unsyncopated,s2,r2,85,Online_conjL2_un//d.si.ñu9.none.none.wav,bi,cha,to,sil,fe,te,ba,sil1,ra,me,sil2,['-'],,,none,none,,,,si,4,,,,,,,,,,,,,,,2.0,2.0,español,0.0,catalán,0.0,1.0,1.0,yes,no,no,guitarra,6,piano,6,,,nada,60.0,yes
