Unnamed: 0,date,expName,participant,age,sex,hand,residence,native_lang,education_level,lang_deficit,aud_deficit,group,block,condition,language,rhythm,rule structure online,rule type online,order_trial_on,trial_online,s1,s2,s3,s4,s5,s6,s7,s8,s9,s10,s11,catch_syll_resp,rts_syll_catch,clean_rts,time_syll,beat_no_beat,catch_rtsTR,catch_rts,syllable_catch.keys,cond_syll,syll_to_catch,test_offline,block_off,condition_off,rhythm_off,rule,rule_str_off,rule_norule,conds_offline,language_off,Partz_no_partm.keys,Partz_no_partm.rt,security_1_7.keys,accuracy,security_1_7.rt,n_lang,n_lang_used,lang_1,age_l1,lang_2,age_l2,ability_learn_l2,tendence_mix_lan,music_experience,muisc_use,partiture,instr_1,age_M1,instr_2,age_M2,instr_3,age_M3,preguntas_musica1,BMRQ_answer.response,final comment,BMRQ_Score,bilingual
0,2024-01-20_22h19.15.872,Unsyncopated_study2,s96,27.0,masculino,right,España,Español,Master degree,no,no,A,1,conjunction_syn,L1,syncopated,s1,r2,0,Online_conjL1_syn//d.ne.ni14.none.none.wav,ta,ri,cho,be,sil,ze,lu,zu,sil1,la,sil2,['-'],,,none,none,,,,ni,4,testConjL1Syn//cat_viol.r1.s2.0.wav,1.0,conjunction_syn,syncopated,a,s2,no_rule,cat,L1,m,17.2228,2.0,1.0,2.1225,2.0,2.0,Español,0.0,Inglés,6.0,2.0,3.0,yes,yes,yes,Piano,5,Saxofón,5,Flauta Travesera,5,1. Cuando comparto música con alguien siento una complicidad especial con aquella persona.,4.0,nada,61.0,yes
1,2024-01-20_22h19.15.872,Unsyncopated_study2,s96,27.0,masculino,right,España,Español,Master degree,no,no,A,1,conjunction_syn,L1,syncopated,s1,r1,1,Online_conjL1_syn//d.ne.ni12.none.none.wav,pu,fo,ri,ki,sil,ze,zu,ro,sil1,la,sil2,['-'],,,none,none,,,,ni,4,testConjL1Syn//r2.s2.1.wav,1.0,conjunction_syn,syncopated,b,s2,rule,rule,L1,z,1.1463,4.0,1.0,4.6261,2.0,2.0,Español,0.0,Inglés,6.0,2.0,3.0,yes,yes,yes,Piano,5,Saxofón,5,Flauta Travesera,5,2. En mi tiempo libre apenas escucho música.,4.0,nada,61.0,yes
2,2024-01-20_22h19.15.872,Unsyncopated_study2,s96,27.0,masculino,right,España,Español,Master degree,no,no,A,1,conjunction_syn,L1,syncopated,s1,r1,2,Online_conjL1_syn//d.ne.ni15.none.none.wav,pu,lu,ze,ki,sil,cho,zu,ri,sil1,la,sil2,['-'],,,none,none,,,,ni,4,testConjL1Syn//cat_viol.r2.s2.0.wav,1.0,conjunction_syn,syncopated,b,s2,no_rule,cat,L1,m,1.7755,5.0,1.0,4.3356,2.0,2.0,Español,0.0,Inglés,6.0,2.0,3.0,yes,yes,yes,Piano,5,Saxofón,5,Flauta Travesera,5,3. Algunas canciones me ponen los pelos de punta,4.0,nada,61.0,yes
3,2024-01-20_22h19.15.872,Unsyncopated_study2,s96,27.0,masculino,right,España,Español,Master degree,no,no,A,1,conjunction_syn,L1,syncopated,s2,r1,3,Online_conjL1_syn//d.ne.ni13.1110.222.wav,ze,ni,lu,pu,sil,ne,ro,ki,sil1,zu,sil2,['miss'],,,1.11,no_beat,,,,ni,4,testConjL1Syn//time_viol.r1.s1.0.wav,1.0,conjunction_syn,syncopated,a,s1,no_rule,time,L1,z,2.246,4.0,0.0,1.6144,2.0,2.0,Español,0.0,Inglés,6.0,2.0,3.0,yes,yes,yes,Piano,5,Saxofón,5,Flauta Travesera,5,4. La música me hace compañía cuando estoy solo,3.0,nada,61.0,yes
4,2024-01-20_22h19.15.872,Unsyncopated_study2,s96,27.0,masculino,right,España,Español,Master degree,no,no,A,1,conjunction_syn,L1,syncopated,s1,r1,4,Online_conjL1_syn//d.ne.ni11.222.1332.wav,pu,ne,ri,ki,sil,la,ni,cho,sil1,ro,sil2,['catch'],[0.9911999999881118],[0.9911999999881118],0.222,no_beat,0.7691999999881118,0.7691999999881118,"[""space""]",ni,4,testConjL1Syn//r1.s1.0.wav,1.0,conjunction_syn,syncopated,a,s1,rule,rule,L1,z,1.949,3.0,1.0,4.4824,2.0,2.0,Español,0.0,Inglés,6.0,2.0,3.0,yes,yes,yes,Piano,5,Saxofón,5,Flauta Travesera,5,5. No me apetece bailar ni con la música que más me gusta,2.0,nada,61.0,yes
5,2024-01-20_22h19.15.872,Unsyncopated_study2,s96,27.0,masculino,right,España,Español,Master degree,no,no,A,1,conjunction_syn,L1,syncopated,s1,r2,5,Online_conjL1_syn//d.ne.ni10.none.none.wav,ta,ze,fo,be,sil,ro,zu,ri,sil1,lu,sil2,['-'],,,none,none,,,,ni,4,testConjL1Syn//r2.s1.0.wav,1.0,conjunction_syn,syncopated,b,s1,rule,rule,L1,m,1.8435,4.0,0.0,5.5512,2.0,2.0,Español,0.0,Inglés,6.0,2.0,3.0,yes,yes,yes,Piano,5,Saxofón,5,Flauta Travesera,5,6. La música me hace conectar con la gente,3.0,nada,61.0,yes
6,2024-01-20_22h19.15.872,Unsyncopated_study2,s96,27.0,masculino,right,España,Español,Master degree,no,no,A,1,conjunction_syn,L1,syncopated,s2,r1,6,Online_conjL1_syn//d.ne.ni8.222.444.wav,fo,ne,ni,pu,sil,ri,ze,ki,sil1,ro,sil2,['catch'],[0.6603000000119437],[0.6603000000119437],0.222,no_beat,0.4383000000119437,0.4383000000119437,"[""space""]",ni,4,testConjL1Syn//r2.s1.1.wav,1.0,conjunction_syn,syncopated,b,s1,rule,rule,L1,m,1.3163,4.0,0.0,1.2065,2.0,2.0,Español,0.0,Inglés,6.0,2.0,3.0,yes,yes,yes,Piano,5,Saxofón,5,Flauta Travesera,5,7. Me informo sobre la música que me gusta.,3.0,nada,61.0,yes
7,2024-01-20_22h19.15.872,Unsyncopated_study2,s96,27.0,masculino,right,España,Español,Master degree,no,no,A,1,conjunction_syn,L1,syncopated,s2,r2,7,Online_conjL1_syn//d.ne.ni9.0.444.wav,ne,fo,ni,ta,sil,lu,ri,be,sil1,cho,sil2,['catch'],[0.4932999999821277],[0.4932999999821277],0.0,beat,0.4932999999821277,0.4932999999821277,"[""space""]",ni,4,testConjL1Syn//r1.s2.0.wav,1.0,conjunction_syn,syncopated,a,s2,rule,rule,L1,z,9.8214,3.0,1.0,3.5312,2.0,2.0,Español,0.0,Inglés,6.0,2.0,3.0,yes,yes,yes,Piano,5,Saxofón,5,Flauta Travesera,5,8.Me emociono escuchando ciertas canciones.,4.0,nada,61.0,yes
8,2024-01-20_22h19.15.872,Unsyncopated_study2,s96,27.0,masculino,right,España,Español,Master degree,no,no,A,1,conjunction_syn,L1,syncopated,s1,r2,8,Online_conjL1_syn//d.ne.ni25.222.1110.wav,ta,ne,ze,be,sil,ni,cho,la,sil1,lu,sil2,['catch'],[0.6349999999999909],[0.6349999999999909],0.222,no_beat,0.4129999999999909,0.4129999999999909,"[""space""]",ni,4,testConjL1Syn//r1.s2.2.wav,1.0,conjunction_syn,syncopated,a,s2,rule,rule,L1,z,0.5747,5.0,1.0,1.4025,2.0,2.0,Español,0.0,Inglés,6.0,2.0,3.0,yes,yes,yes,Piano,5,Saxofón,5,Flauta Travesera,5,9.La música me tranquiliza y me relaja.,3.0,nada,61.0,yes
9,2024-01-20_22h19.15.872,Unsyncopated_study2,s96,27.0,masculino,right,España,Español,Master degree,no,no,A,1,conjunction_syn,L1,syncopated,s2,r1,9,Online_conjL1_syn//d.ne.ni26.none.none.wav,ze,zu,fa,pu,sil,cho,lu,ki,sil1,fo,sil2,['-'],,,none,none,,,,ni,4,testConjL1Syn//dep_viol.r2.s1.0.wav,1.0,conjunction_syn,syncopated,b,s1,no_rule,dep,L1,m,0.6203,4.0,1.0,8.2898,2.0,2.0,Español,0.0,Inglés,6.0,2.0,3.0,yes,yes,yes,Piano,5,Saxofón,5,Flauta Travesera,5,10.La música me hace bailar,1.0,nada,61.0,yes
10,2024-01-20_22h19.15.872,Unsyncopated_study2,s96,27.0,masculino,right,España,Español,Master degree,no,no,A,1,conjunction_syn,L1,syncopated,s2,r2,10,Online_conjL1_syn//d.ne.ni24.none.none.wav,lu,ro,la,ta,sil,fa,fo,be,sil1,zu,sil2,['-'],,,none,none,,,,ni,4,testConjL1Syn//r1.s1.1.wav,1.0,conjunction_syn,syncopated,a,s1,rule,rule,L1,m,2.4757,3.0,0.0,2.6367,2.0,2.0,Español,0.0,Inglés,6.0,2.0,3.0,yes,yes,yes,Piano,5,Saxofón,5,Flauta Travesera,5,11.Busco novedades musicales continuamente,3.0,nada,61.0,yes
11,2024-01-20_22h19.15.872,Unsyncopated_study2,s96,27.0,masculino,right,España,Español,Master degree,no,no,A,1,conjunction_syn,L1,syncopated,s1,r2,11,Online_conjL1_syn//d.ne.ni27.none.none.wav,ta,la,fo,be,sil,zu,cho,ze,sil1,ri,sil2,['-'],,,none,none,,,,ni,4,testConjL1Syn//r1.s1.2.wav,1.0,conjunction_syn,syncopated,a,s1,rule,rule,L1,m,8.4101,1.0,0.0,2.2264,2.0,2.0,Español,0.0,Inglés,6.0,2.0,3.0,yes,yes,yes,Piano,5,Saxofón,5,Flauta Travesera,5,12. Puedo llorar cuando escucho algunas melodías que me gustan mucho.,1.0,nada,61.0,yes
12,2024-01-20_22h19.15.872,Unsyncopated_study2,s96,27.0,masculino,right,España,Español,Master degree,no,no,A,1,conjunction_syn,L1,syncopated,s2,r1,12,Online_conjL1_syn//b.ta.be30.none.none.wav,la,fo,fa,pu,sil,ro,ri,ki,sil1,ze,sil2,['-'],,,none,none,,,,be,1,testConjL1Syn//cat_viol.r1.s1.0.wav,1.0,conjunction_syn,syncopated,a,s1,no_rule,cat,L1,z,1.7393,2.0,0.0,7.2354,2.0,2.0,Español,0.0,Inglés,6.0,2.0,3.0,yes,yes,yes,Piano,5,Saxofón,5,Flauta Travesera,5,13. Me gusta cantar o tocar un instrumento con más gente,4.0,nada,61.0,yes
13,2024-01-20_22h19.15.872,Unsyncopated_study2,s96,27.0,masculino,right,España,Español,Master degree,no,no,A,1,conjunction_syn,L1,syncopated,s1,r2,13,Online_conjL1_syn//b.ta.be28.0.666.wav,ta,fa,la,be,sil,zu,fo,ze,sil1,ro,sil2,"['catch', 'false alarm']","[0.7814000000059877, 0.9707999999820913]",[0.7814000000059877],0.0,beat,0.7814000000059877,0.7814000000059877,"[""space"",""space""]",be,1,testConjL1Syn//dep_viol.r2.s2.0.wav,1.0,conjunction_syn,syncopated,b,s2,no_rule,dep,L1,m,0.9179,5.0,1.0,1.4998,2.0,2.0,Español,0.0,Inglés,6.0,2.0,3.0,yes,yes,yes,Piano,5,Saxofón,5,Flauta Travesera,5,14. La música me ayuda a desconectar.,4.0,nada,61.0,yes
14,2024-01-20_22h19.15.872,Unsyncopated_study2,s96,27.0,masculino,right,España,Español,Master degree,no,no,A,1,conjunction_syn,L1,syncopated,s1,r1,14,Online_conjL1_syn//b.ta.be29.none.none.wav,pu,ro,fa,ki,sil,zu,ni,la,sil1,ze,sil2,['-'],,,none,none,,,,be,1,testConjL1Syn//cat_viol.r2.s1.0.wav,1.0,conjunction_syn,syncopated,b,s1,no_rule,cat,L1,m,2.1964,2.0,1.0,1.0256,2.0,2.0,Español,0.0,Inglés,6.0,2.0,3.0,yes,yes,yes,Piano,5,Saxofón,5,Flauta Travesera,5,15. No puedo evitar tararear las canciones que me gustan cuando las escucho.,3.0,nada,61.0,yes
15,2024-01-20_22h19.15.872,Unsyncopated_study2,s96,27.0,masculino,right,España,Español,Master degree,no,no,A,1,conjunction_syn,L1,syncopated,s1,r2,15,Online_conjL1_syn//b.ta.be31.0.666.wav,ta,fo,cho,be,sil,lu,ri,zu,sil1,la,sil2,['miss'],,,0.0,beat,,,,be,1,testConjL1Syn//r2.s1.2.wav,1.0,conjunction_syn,syncopated,b,s1,rule,rule,L1,m,1.4578,4.0,0.0,1.5697,2.0,2.0,Español,0.0,Inglés,6.0,2.0,3.0,yes,yes,yes,Piano,5,Saxofón,5,Flauta Travesera,5,16. En los conciertos me siento en sintonía con los artistas y el público.,3.0,nada,61.0,yes
16,2024-01-20_22h19.15.872,Unsyncopated_study2,s96,27.0,masculino,right,España,Español,Master degree,no,no,A,1,conjunction_syn,L1,syncopated,s2,r2,16,Online_conjL1_syn//c.ro.fo30.1110.0.wav,fo,ze,fa,ta,sil,ro,ri,be,sil1,ni,sil2,['catch'],[1.8195000000000618],[1.8195000000000618],1.11,no_beat,0.7095000000000617,0.7095000000000617,"[""space""]",fo,3,testConjL1Syn//dep_viol.r1.s1.0.wav,1.0,conjunction_syn,syncopated,a,s1,no_rule,dep,L1,m,3.386,2.0,1.0,1.5731,2.0,2.0,Español,0.0,Inglés,6.0,2.0,3.0,yes,yes,yes,Piano,5,Saxofón,5,Flauta Travesera,5,17. Me gasto bastante dinero en música y cosas relacionadas con la música.,2.0,nada,61.0,yes
17,2024-01-20_22h19.15.872,Unsyncopated_study2,s96,27.0,masculino,right,España,Español,Master degree,no,no,A,1,conjunction_syn,L1,syncopated,s1,r1,17,Online_conjL1_syn//c.ro.fo28.none.none.wav,pu,ni,lu,ki,sil,ne,la,ze,sil1,fa,sil2,['-'],,,none,none,,,,fo,3,testConjL1Syn//r2.s2.2.wav,1.0,conjunction_syn,syncopated,b,s2,rule,rule,L1,m,6.6949,2.0,0.0,1.2764,2.0,2.0,Español,0.0,Inglés,6.0,2.0,3.0,yes,yes,yes,Piano,5,Saxofón,5,Flauta Travesera,5,18. Siento escalofríos cuando escucho una melodía que me gusta.,4.0,nada,61.0,yes
18,2024-01-20_22h19.15.872,Unsyncopated_study2,s96,27.0,masculino,right,España,Español,Master degree,no,no,A,1,conjunction_syn,L1,syncopated,s1,r2,18,Online_conjL1_syn//c.ro.fo29.none.none.wav,ta,zu,ri,be,sil,la,ni,fa,sil1,lu,sil2,['-'],,,none,none,,,,fo,3,testConjL1Syn//time_viol.r2.s2.0.wav,1.0,conjunction_syn,syncopated,b,s2,no_rule,time,L1,m,0.3915,4.0,1.0,3.1264,2.0,2.0,Español,0.0,Inglés,6.0,2.0,3.0,yes,yes,yes,Piano,5,Saxofón,5,Flauta Travesera,5,19. Con la música me puedo desahogar.,4.0,nada,61.0,yes
19,2024-01-20_22h19.15.872,Unsyncopated_study2,s96,27.0,masculino,right,España,Español,Master degree,no,no,A,1,conjunction_syn,L1,syncopated,s2,r2,19,Online_conjL1_syn//c.ro.fo31.none.none.wav,ri,fa,la,ta,sil,lu,ne,be,sil1,zu,sil2,['-'],,,none,none,,,,fo,3,testConjL1Syn//r1.s2.1.wav,1.0,conjunction_syn,syncopated,a,s2,rule,rule,L1,z,0.8202,5.0,1.0,1.1777,2.0,2.0,Español,0.0,Inglés,6.0,2.0,3.0,yes,yes,yes,Piano,5,Saxofón,5,Flauta Travesera,5,20. Cuando escucho una melodía que me gusta mucho no puedo evitar mover el cuerpo.,2.0,nada,61.0,yes
20,2024-01-20_22h19.15.872,Unsyncopated_study2,s96,27.0,masculino,right,España,Español,Master degree,no,no,A,1,conjunction_syn,L1,syncopated,s1,r2,20,Online_conjL1_syn//d.ne.ni16.1332.222.wav,ta,ni,lu,be,sil,ri,ne,fo,sil1,ze,sil2,['miss'],,,1.332,no_beat,,,,ni,4,testConjL1Syn//time_viol.r1.s2.0.wav,1.0,conjunction_syn,syncopated,a,s2,no_rule,time,L1,m,1.3969,2.0,1.0,1.0756,2.0,2.0,Español,0.0,Inglés,6.0,2.0,3.0,yes,yes,yes,Piano,5,Saxofón,5,Flauta Travesera,5,,,nada,61.0,yes
21,2024-01-20_22h19.15.872,Unsyncopated_study2,s96,27.0,masculino,right,España,Español,Master degree,no,no,A,1,conjunction_syn,L1,syncopated,s2,r1,21,Online_conjL1_syn//d.ne.ni19.none.none.wav,la,ro,cho,pu,sil,ri,zu,ki,sil1,fo,sil2,['-'],,,none,none,,,,ni,4,testConjL1Syn//time_viol.r2.s1.0.wav,1.0,conjunction_syn,syncopated,b,s1,no_rule,time,L1,m,3.8269,2.0,1.0,2.0689,2.0,2.0,Español,0.0,Inglés,6.0,2.0,3.0,yes,yes,yes,Piano,5,Saxofón,5,Flauta Travesera,5,,,nada,61.0,yes
22,2024-01-20_22h19.15.872,Unsyncopated_study2,s96,27.0,masculino,right,España,Español,Master degree,no,no,A,1,conjunction_syn,L1,syncopated,s2,r2,22,Online_conjL1_syn//d.ne.ni17.none.none.wav,ze,lu,ri,ta,sil,fo,cho,be,sil1,fa,sil2,['-'],,,none,none,,,,ni,4,testConjL1Syn//dep_viol.r1.s2.0.wav,1.0,conjunction_syn,syncopated,a,s2,no_rule,dep,L1,m,3.0704,2.0,1.0,2.6609,2.0,2.0,Español,0.0,Inglés,6.0,2.0,3.0,yes,yes,yes,Piano,5,Saxofón,5,Flauta Travesera,5,,,nada,61.0,yes
23,2024-01-20_22h19.15.872,Unsyncopated_study2,s96,27.0,masculino,right,España,Español,Master degree,no,no,A,1,conjunction_syn,L1,syncopated,s2,r2,23,Online_conjL1_syn//d.ne.ni18.none.none.wav,lu,ri,cho,ta,sil,ze,ro,be,sil1,fo,sil2,['-'],,,none,none,,,,ni,4,testConjL1Syn//r2.s2.0.wav,1.0,conjunction_syn,syncopated,b,s2,rule,rule,L1,m,2.103,3.0,0.0,4.1294,2.0,2.0,Español,0.0,Inglés,6.0,2.0,3.0,yes,yes,yes,Piano,5,Saxofón,5,Flauta Travesera,5,,,nada,61.0,yes
24,2024-01-20_22h19.15.872,Unsyncopated_study2,s96,27.0,masculino,right,España,Español,Master degree,no,no,A,1,conjunction_syn,L1,syncopated,s2,r2,24,Online_conjL1_syn//d.ne.ni30.222.1110.wav,fa,ne,lu,ta,sil,ni,ri,be,sil1,ze,sil2,['miss'],,,0.222,no_beat,,,,ni,4,testWhatL3Uns//r2.s1.0.wav,2.0,what,unsyncopated,b,s1,rule,rule,L3,m,4.9387,2.0,0.0,1.4717,2.0,2.0,Español,0.0,Inglés,6.0,2.0,3.0,yes,yes,yes,Piano,5,Saxofón,5,Flauta Travesera,5,,,nada,61.0,yes
25,2024-01-20_22h19.15.872,Unsyncopated_study2,s96,27.0,masculino,right,España,Español,Master degree,no,no,A,1,conjunction_syn,L1,syncopated,s2,r1,25,Online_conjL1_syn//d.ne.ni31.0.1110.wav,ne,zu,fa,pu,sil,ni,lu,ki,sil1,ro,sil2,['catch'],[0.687099999994075],[0.687099999994075],0.0,beat,0.687099999994075,0.687099999994075,"[""space""]",ni,4,testWhatL3Uns//dep_viol.r2.s2.0.wav,2.0,what,unsyncopated,b,s2,no_rule,dep,L3,z,0.8566,4.0,0.0,1.2158,2.0,2.0,Español,0.0,Inglés,6.0,2.0,3.0,yes,yes,yes,Piano,5,Saxofón,5,Flauta Travesera,5,,,nada,61.0,yes
26,2024-01-20_22h19.15.872,Unsyncopated_study2,s96,27.0,masculino,right,España,Español,Master degree,no,no,A,1,conjunction_syn,L1,syncopated,s2,r2,26,Online_conjL1_syn//d.ne.ni29.0.444.wav,ne,fa,ni,ta,sil,ri,zu,be,sil1,lu,sil2,['catch'],[0.5562000000179523],[0.5562000000179523],0.0,beat,0.5562000000179523,0.5562000000179523,"[""space""]",ni,4,testWhatL3Uns//dep_viol.r1.s1.0.wav,2.0,what,unsyncopated,a,s1,no_rule,dep,L3,z,1.5939,5.0,0.0,2.2317,2.0,2.0,Español,0.0,Inglés,6.0,2.0,3.0,yes,yes,yes,Piano,5,Saxofón,5,Flauta Travesera,5,,,nada,61.0,yes
27,2024-01-20_22h19.15.872,Unsyncopated_study2,s96,27.0,masculino,right,España,Español,Master degree,no,no,A,1,conjunction_syn,L1,syncopated,s1,r2,27,Online_conjL1_syn//d.ne.ni28.none.none.wav,ta,lu,zu,be,sil,fa,la,ro,sil1,ri,sil2,['-'],,,none,none,,,,ni,4,testWhatL3Uns//cat_viol.r2.s1.0.wav,2.0,what,unsyncopated,b,s1,no_rule,cat,L3,m,1.7166,3.0,1.0,1.3825,2.0,2.0,Español,0.0,Inglés,6.0,2.0,3.0,yes,yes,yes,Piano,5,Saxofón,5,Flauta Travesera,5,,,nada,61.0,yes
28,2024-01-20_22h19.15.872,Unsyncopated_study2,s96,27.0,masculino,right,España,Español,Master degree,no,no,A,1,conjunction_syn,L1,syncopated,s2,r2,28,Online_conjL1_syn//c.ro.fo25.none.none.wav,lu,ri,fa,ta,sil,zu,cho,be,sil1,ze,sil2,['false alarm'],[1.1889999999999645],[1.1889999999999645],none,none,,,"[""space""]",fo,3,testWhatL3Uns//r2.s2.0.wav,2.0,what,unsyncopated,b,s2,rule,rule,L3,z,0.7428,2.0,1.0,4.2999,2.0,2.0,Español,0.0,Inglés,6.0,2.0,3.0,yes,yes,yes,Piano,5,Saxofón,5,Flauta Travesera,5,,,nada,61.0,yes
29,2024-01-20_22h19.15.872,Unsyncopated_study2,s96,27.0,masculino,right,España,Español,Master degree,no,no,A,1,conjunction_syn,L1,syncopated,s2,r2,29,Online_conjL1_syn//c.ro.fo27.444.1110.wav,la,fa,ro,ta,sil,fo,lu,be,sil1,ze,sil2,['miss'],,,0.444,no_beat,,,,fo,3,testWhatL3Uns//time_viol.r1.s1.0.wav,2.0,what,unsyncopated,a,s1,no_rule,time,L3,z,0.8761,3.0,0.0,1.793,2.0,2.0,Español,0.0,Inglés,6.0,2.0,3.0,yes,yes,yes,Piano,5,Saxofón,5,Flauta Travesera,5,,,nada,61.0,yes
30,2024-01-20_22h19.15.872,Unsyncopated_study2,s96,27.0,masculino,right,España,Español,Master degree,no,no,A,1,conjunction_syn,L1,syncopated,s2,r1,30,Online_conjL1_syn//c.ro.fo26.444.0.wav,fo,ne,ro,pu,sil,ze,ni,ki,sil1,fa,sil2,['miss'],,,0.444,no_beat,,,,fo,3,testWhatL3Uns//r2.s2.2.wav,2.0,what,unsyncopated,b,s2,rule,rule,L3,z,0.7338,5.0,1.0,1.0884,2.0,2.0,Español,0.0,Inglés,6.0,2.0,3.0,yes,yes,yes,Piano,5,Saxofón,5,Flauta Travesera,5,,,nada,61.0,yes
31,2024-01-20_22h19.15.872,Unsyncopated_study2,s96,27.0,masculino,right,España,Español,Master degree,no,no,A,1,conjunction_syn,L1,syncopated,s1,r1,31,Online_conjL1_syn//c.ro.fo24.1332.222.wav,pu,fo,ni,ki,sil,la,ro,ze,sil1,zu,sil2,['catch'],[2.518300000011891],[2.518300000011891],1.332,no_beat,1.1863000000118908,1.1863000000118908,"[""space""]",fo,3,testWhatL3Uns//r2.s1.2.wav,2.0,what,unsyncopated,b,s1,rule,rule,L3,m,0.8584,2.0,0.0,0.8495,2.0,2.0,Español,0.0,Inglés,6.0,2.0,3.0,yes,yes,yes,Piano,5,Saxofón,5,Flauta Travesera,5,,,nada,61.0,yes
32,2024-01-20_22h19.15.872,Unsyncopated_study2,s96,27.0,masculino,right,España,Español,Master degree,no,no,A,1,conjunction_syn,L1,syncopated,s2,r1,32,Online_conjL1_syn//c.ro.fo11.none.none.wav,ze,zu,ni,pu,sil,la,cho,ki,sil1,ne,sil2,['-'],,,none,none,,,,fo,3,testWhatL3Uns//r1.s2.1.wav,2.0,what,unsyncopated,a,s2,rule,rule,L3,z,1.802,5.0,1.0,0.8548,2.0,2.0,Español,0.0,Inglés,6.0,2.0,3.0,yes,yes,yes,Piano,5,Saxofón,5,Flauta Travesera,5,,,nada,61.0,yes
33,2024-01-20_22h19.15.872,Unsyncopated_study2,s96,27.0,masculino,right,España,Español,Master degree,no,no,A,1,conjunction_syn,L1,syncopated,s1,r1,33,Online_conjL1_syn//c.ro.fo9.1554.1110.wav,pu,ni,lu,ki,sil,fo,fa,ro,sil1,ne,sil2,['catch'],[2.3477000000178805],[2.3477000000178805],1.554,no_beat,0.7937000000178804,0.7937000000178804,"[""space""]",fo,3,testWhatL3Uns//r1.s1.0.wav,2.0,what,unsyncopated,a,s1,rule,rule,L3,m,1.3139,3.0,0.0,1.8512,2.0,2.0,Español,0.0,Inglés,6.0,2.0,3.0,yes,yes,yes,Piano,5,Saxofón,5,Flauta Travesera,5,,,nada,61.0,yes
34,2024-01-20_22h19.15.872,Unsyncopated_study2,s96,27.0,masculino,right,España,Español,Master degree,no,no,A,1,conjunction_syn,L1,syncopated,s1,r2,34,Online_conjL1_syn//c.ro.fo8.444.1332.wav,ta,lu,ro,be,sil,ni,fo,zu,sil1,fa,sil2,['catch'],[1.1391999999881364],[1.1391999999881364],0.444,no_beat,0.6951999999881364,0.6951999999881364,"[""space""]",fo,3,testWhatL3Uns//r1.s2.2.wav,2.0,what,unsyncopated,a,s2,rule,rule,L3,z,4.1132,4.0,1.0,4.3153,2.0,2.0,Español,0.0,Inglés,6.0,2.0,3.0,yes,yes,yes,Piano,5,Saxofón,5,Flauta Travesera,5,,,nada,61.0,yes
35,2024-01-20_22h19.15.872,Unsyncopated_study2,s96,27.0,masculino,right,España,Español,Master degree,no,no,A,1,conjunction_syn,L1,syncopated,s2,r2,35,Online_conjL1_syn//c.ro.fo10.222.444.wav,zu,ro,fo,ta,sil,ni,cho,be,sil1,ze,sil2,['catch'],[1.2445999999939659],[1.2445999999939659],0.222,no_beat,1.022599999993966,1.022599999993966,"[""space""]",fo,3,testWhatL3Uns//cat_viol.r1.s1.0.wav,2.0,what,unsyncopated,a,s1,no_rule,cat,L3,m,2.3048,3.0,1.0,1.1525,2.0,2.0,Español,0.0,Inglés,6.0,2.0,3.0,yes,yes,yes,Piano,5,Saxofón,5,Flauta Travesera,5,,,nada,61.0,yes
36,2024-01-20_22h19.15.872,Unsyncopated_study2,s96,27.0,masculino,right,España,Español,Master degree,no,no,A,1,conjunction_syn,L1,syncopated,s2,r1,36,Online_conjL1_syn//b.ta.be21.none.none.wav,ri,ro,fa,pu,sil,ni,cho,ki,sil1,ze,sil2,['-'],,,none,none,,,,be,1,testWhatL3Uns//cat_viol.r2.s2.0.wav,2.0,what,unsyncopated,b,s2,no_rule,cat,L3,m,2.6646,4.0,1.0,2.7582,2.0,2.0,Español,0.0,Inglés,6.0,2.0,3.0,yes,yes,yes,Piano,5,Saxofón,5,Flauta Travesera,5,,,nada,61.0,yes
37,2024-01-20_22h19.15.872,Unsyncopated_study2,s96,27.0,masculino,right,España,Español,Master degree,no,no,A,1,conjunction_syn,L1,syncopated,s2,r1,37,Online_conjL1_syn//b.ta.be22.none.none.wav,zu,la,cho,pu,sil,ne,ri,ki,sil1,fa,sil2,['-'],,,none,none,,,,be,1,testWhatL3Uns//dep_viol.r2.s1.0.wav,2.0,what,unsyncopated,b,s1,no_rule,dep,L3,m,5.6261,3.0,1.0,2.4109,2.0,2.0,Español,0.0,Inglés,6.0,2.0,3.0,yes,yes,yes,Piano,5,Saxofón,5,Flauta Travesera,5,,,nada,61.0,yes
38,2024-01-20_22h19.15.872,Unsyncopated_study2,s96,27.0,masculino,right,España,Español,Master degree,no,no,A,1,conjunction_syn,L1,syncopated,s1,r1,38,Online_conjL1_syn//b.ta.be20.none.none.wav,pu,lu,ze,ki,sil,ro,la,zu,sil1,fo,sil2,['-'],,,none,none,,,,be,1,testWhatL3Uns//time_viol.r2.s1.0.wav,2.0,what,unsyncopated,b,s1,no_rule,time,L3,m,12.4711,3.0,1.0,2.7499,2.0,2.0,Español,0.0,Inglés,6.0,2.0,3.0,yes,yes,yes,Piano,5,Saxofón,5,Flauta Travesera,5,,,nada,61.0,yes
39,2024-01-20_22h19.15.872,Unsyncopated_study2,s96,27.0,masculino,right,España,Español,Master degree,no,no,A,1,conjunction_syn,L1,syncopated,s1,r1,39,Online_conjL1_syn//b.ta.be23.none.none.wav,pu,cho,ze,ki,sil,ne,la,ri,sil1,fa,sil2,['-'],,,none,none,,,,be,1,testWhatL3Uns//r2.s2.1.wav,2.0,what,unsyncopated,b,s2,rule,rule,L3,m,4.8427,7.0,0.0,3.2557,2.0,2.0,Español,0.0,Inglés,6.0,2.0,3.0,yes,yes,yes,Piano,5,Saxofón,5,Flauta Travesera,5,,,nada,61.0,yes
40,2024-01-20_22h19.15.872,Unsyncopated_study2,s96,27.0,masculino,right,España,Español,Master degree,no,no,A,1,conjunction_syn,L1,syncopated,s1,r2,40,Online_conjL1_syn//a.pu.ki0.none.none.wav,ta,la,ni,be,sil,fa,lu,ro,sil1,fo,sil2,['false alarm'],[0.02270000001783501],[0.02270000001783501],none,none,,,"[""space""]",pu,2,testWhatL3Uns//r1.s2.0.wav,2.0,what,unsyncopated,a,s2,rule,rule,L3,z,0.7757,5.0,1.0,1.5358,2.0,2.0,Español,0.0,Inglés,6.0,2.0,3.0,yes,yes,yes,Piano,5,Saxofón,5,Flauta Travesera,5,,,nada,61.0,yes
41,2024-01-20_22h19.15.872,Unsyncopated_study2,s96,27.0,masculino,right,España,Español,Master degree,no,no,A,1,conjunction_syn,L1,syncopated,s2,r1,41,Online_conjL1_syn//a.pu.ki1.666.1554.wav,ni,fo,fa,pu,sil,zu,lu,ki,sil1,ne,sil2,['catch'],[1.9956000000238419],[1.9956000000238419],1.554,no_beat,0.4416000000238418,0.4416000000238418,"[""space""]",pu,2,testWhatL3Uns//r2.s1.1.wav,2.0,what,unsyncopated,b,s1,rule,rule,L3,m,1.102,2.0,0.0,1.043,2.0,2.0,Español,0.0,Inglés,6.0,2.0,3.0,yes,yes,yes,Piano,5,Saxofón,5,Flauta Travesera,5,,,nada,61.0,yes
42,2024-01-20_22h19.15.872,Unsyncopated_study2,s96,27.0,masculino,right,España,Español,Master degree,no,no,A,1,conjunction_syn,L1,syncopated,s1,r1,42,Online_conjL1_syn//a.pu.ki3.0.666.wav,pu,zu,la,ki,sil,fa,cho,ri,sil1,ro,sil2,['catch'],[1.4155000000000655],[1.4155000000000655],0.666,no_beat,0.7495000000000654,0.7495000000000654,"[""space""]",pu,2,testWhatL3Uns//time_viol.r1.s2.0.wav,2.0,what,unsyncopated,a,s2,no_rule,time,L3,m,0.9937,4.0,1.0,1.1008,2.0,2.0,Español,0.0,Inglés,6.0,2.0,3.0,yes,yes,yes,Piano,5,Saxofón,5,Flauta Travesera,5,,,nada,61.0,yes
43,2024-01-20_22h19.15.872,Unsyncopated_study2,s96,27.0,masculino,right,España,Español,Master degree,no,no,A,1,conjunction_syn,L1,syncopated,s2,r2,43,Online_conjL1_syn//a.pu.ki2.none.none.wav,ne,ro,ri,ta,sil,fa,ze,be,sil1,la,sil2,['-'],,,none,none,,,,pu,2,testWhatL3Uns//time_viol.r2.s2.0.wav,2.0,what,unsyncopated,b,s2,no_rule,time,L3,m,2.4436,2.0,1.0,3.9282,2.0,2.0,Español,0.0,Inglés,6.0,2.0,3.0,yes,yes,yes,Piano,5,Saxofón,5,Flauta Travesera,5,,,nada,61.0,yes
44,2024-01-20_22h19.15.872,Unsyncopated_study2,s96,27.0,masculino,right,España,Español,Master degree,no,no,A,1,conjunction_syn,L1,syncopated,s1,r1,44,Online_conjL1_syn//d.ne.ni7.444.1110.wav,pu,lu,ne,ki,sil,ni,ri,ze,sil1,zu,sil2,['catch'],[1.0590999999940323],[1.0590999999940323],0.444,no_beat,0.6150999999940323,0.6150999999940323,"[""space""]",ni,4,testWhatL3Uns//cat_viol.r1.s2.0.wav,2.0,what,unsyncopated,a,s2,no_rule,cat,L3,m,5.3139,2.0,1.0,4.2356,2.0,2.0,Español,0.0,Inglés,6.0,2.0,3.0,yes,yes,yes,Piano,5,Saxofón,5,Flauta Travesera,5,,,nada,61.0,yes
45,2024-01-20_22h19.15.872,Unsyncopated_study2,s96,27.0,masculino,right,España,Español,Master degree,no,no,A,1,conjunction_syn,L1,syncopated,s1,r2,45,Online_conjL1_syn//d.ne.ni6.444.1110.wav,ta,zu,ne,be,sil,ni,ze,la,sil1,fa,sil2,['miss'],,,0.444,no_beat,,,,ni,4,testWhatL3Uns//r1.s1.1.wav,2.0,what,unsyncopated,a,s1,rule,rule,L3,m,0.877,3.0,0.0,1.5428,2.0,2.0,Español,0.0,Inglés,6.0,2.0,3.0,yes,yes,yes,Piano,5,Saxofón,5,Flauta Travesera,5,,,nada,61.0,yes
46,2024-01-20_22h19.15.872,Unsyncopated_study2,s96,27.0,masculino,right,España,Español,Master degree,no,no,A,1,conjunction_syn,L1,syncopated,s2,r1,46,Online_conjL1_syn//d.ne.ni5.none.none.wav,zu,ri,ze,pu,sil,cho,fa,ki,sil1,la,sil2,['-'],,,none,none,,,,ni,4,testWhatL3Uns//dep_viol.r1.s2.0.wav,2.0,what,unsyncopated,a,s2,no_rule,dep,L3,m,0.508,2.0,1.0,1.6017,2.0,2.0,Español,0.0,Inglés,6.0,2.0,3.0,yes,yes,yes,Piano,5,Saxofón,5,Flauta Travesera,5,,,nada,61.0,yes
47,2024-01-20_22h19.15.872,Unsyncopated_study2,s96,27.0,masculino,right,España,Español,Master degree,no,no,A,1,conjunction_syn,L1,syncopated,s1,r1,47,Online_conjL1_syn//d.ne.ni4.222.1332.wav,pu,ne,cho,ki,sil,ri,ni,ro,sil1,zu,sil2,['catch'],[0.8521999999881018],[0.8521999999881018],0.222,no_beat,0.6301999999881018,0.6301999999881018,"[""space""]",ni,4,testWhatL3Uns//r1.s1.2.wav,2.0,what,unsyncopated,a,s1,rule,rule,L3,m,1.2109,6.0,0.0,0.5593,2.0,2.0,Español,0.0,Inglés,6.0,2.0,3.0,yes,yes,yes,Piano,5,Saxofón,5,Flauta Travesera,5,,,nada,61.0,yes
48,2024-01-20_22h19.15.872,Unsyncopated_study2,s96,27.0,masculino,right,España,Español,Master degree,no,no,A,1,conjunction_syn,L1,syncopated,s2,r2,48,Online_conjL1_syn//b.ta.be1.666.1554.wav,ni,la,lu,ta,sil,cho,ro,be,sil1,ne,sil2,['catch'],[1.3536999999880663],[1.3536999999880663],0.666,no_beat,0.6876999999880663,0.6876999999880663,"[""space""]",be,1,testWhenL4Uns//time_viol.r1.s2.0.wav,3.0,when,unsyncopated,a,s2,no_rule,time,L4,m,2.6171,4.0,0.0,2.4937,2.0,2.0,Español,0.0,Inglés,6.0,2.0,3.0,yes,yes,yes,Piano,5,Saxofón,5,Flauta Travesera,5,,,nada,61.0,yes
49,2024-01-20_22h19.15.872,Unsyncopated_study2,s96,27.0,masculino,right,España,Español,Master degree,no,no,A,1,conjunction_syn,L1,syncopated,s2,r1,49,Online_conjL1_syn//b.ta.be2.none.none.wav,ri,ne,fo,pu,sil,zu,la,ki,sil1,lu,sil2,['-'],,,none,none,,,,be,1,testWhenL4Uns//r2.s1.1.wav,3.0,when,unsyncopated,b,s1,rule,rule,L4,m,1.5891,1.0,0.0,1.4618,2.0,2.0,Español,0.0,Inglés,6.0,2.0,3.0,yes,yes,yes,Piano,5,Saxofón,5,Flauta Travesera,5,,,nada,61.0,yes
50,2024-01-20_22h19.15.872,Unsyncopated_study2,s96,27.0,masculino,right,España,Español,Master degree,no,no,A,1,conjunction_syn,L1,syncopated,s2,r2,50,Online_conjL1_syn//b.ta.be0.666.1554.wav,cho,fa,fo,ta,sil,zu,la,be,sil1,ne,sil2,['catch'],[1.2981999999881282],[1.2981999999881282],0.666,no_beat,0.6321999999881281,0.6321999999881281,"[""space""]",be,1,testWhenL4Uns//time_viol.r2.s1.0.wav,3.0,when,unsyncopated,b,s1,no_rule,time,L4,z,0.5274,4.0,1.0,1.1783,2.0,2.0,Español,0.0,Inglés,6.0,2.0,3.0,yes,yes,yes,Piano,5,Saxofón,5,Flauta Travesera,5,,,nada,61.0,yes
51,2024-01-20_22h19.15.872,Unsyncopated_study2,s96,27.0,masculino,right,España,Español,Master degree,no,no,A,1,conjunction_syn,L1,syncopated,s2,r2,51,Online_conjL1_syn//b.ta.be3.666.1554.wav,lu,ro,zu,ta,sil,ne,fo,be,sil1,ni,sil2,['catch'],[1.7709999999999582],[1.7709999999999582],0.666,no_beat,1.1049999999999582,1.1049999999999582,"[""space""]",be,1,testWhenL4Uns//r2.s2.1.wav,3.0,when,unsyncopated,b,s2,rule,rule,L4,z,0.6203,5.0,1.0,0.4401,2.0,2.0,Español,0.0,Inglés,6.0,2.0,3.0,yes,yes,yes,Piano,5,Saxofón,5,Flauta Travesera,5,,,nada,61.0,yes
52,2024-01-20_22h19.15.872,Unsyncopated_study2,s96,27.0,masculino,right,España,Español,Master degree,no,no,A,1,conjunction_syn,L1,syncopated,s1,r1,52,Online_conjL1_syn//b.ta.be6.none.none.wav,pu,cho,fo,ki,sil,ni,ro,ri,sil1,lu,sil2,['-'],,,none,none,,,,be,1,testWhenL4Uns//r1.s2.2.wav,3.0,when,unsyncopated,a,s2,rule,rule,L4,z,5.7716,3.0,1.0,2.4304,2.0,2.0,Español,0.0,Inglés,6.0,2.0,3.0,yes,yes,yes,Piano,5,Saxofón,5,Flauta Travesera,5,,,nada,61.0,yes
53,2024-01-20_22h19.15.872,Unsyncopated_study2,s96,27.0,masculino,right,España,Español,Master degree,no,no,A,1,conjunction_syn,L1,syncopated,s2,r1,53,Online_conjL1_syn//b.ta.be5.none.none.wav,la,ro,cho,pu,sil,fa,ne,ki,sil1,ze,sil2,['false alarm'],[0.6472000000178468],[0.6472000000178468],none,none,,,"[""space""]",be,1,testWhenL4Uns//r2.s2.2.wav,3.0,when,unsyncopated,b,s2,rule,rule,L4,z,1.8119,2.0,1.0,0.4459,2.0,2.0,Español,0.0,Inglés,6.0,2.0,3.0,yes,yes,yes,Piano,5,Saxofón,5,Flauta Travesera,5,,,nada,61.0,yes
54,2024-01-20_22h19.15.872,Unsyncopated_study2,s96,27.0,masculino,right,España,Español,Master degree,no,no,A,1,conjunction_syn,L1,syncopated,s2,r1,54,Online_conjL1_syn//b.ta.be7.none.none.wav,fa,ne,lu,pu,sil,zu,fo,ki,sil1,cho,sil2,['-'],,,none,none,,,,be,1,testWhenL4Uns//r1.s1.0.wav,3.0,when,unsyncopated,a,s1,rule,rule,L4,m,0.7553,3.0,0.0,0.9976,2.0,2.0,Español,0.0,Inglés,6.0,2.0,3.0,yes,yes,yes,Piano,5,Saxofón,5,Flauta Travesera,5,,,nada,61.0,yes
55,2024-01-20_22h19.15.872,Unsyncopated_study2,s96,27.0,masculino,right,España,Español,Master degree,no,no,A,1,conjunction_syn,L1,syncopated,s1,r1,55,Online_conjL1_syn//b.ta.be4.none.none.wav,pu,la,fo,ki,sil,cho,ze,lu,sil1,ri,sil2,['-'],,,none,none,,,,be,1,testWhenL4Uns//r1.s2.0.wav,3.0,when,unsyncopated,a,s2,rule,rule,L4,m,3.0172,3.0,0.0,2.3777,2.0,2.0,Español,0.0,Inglés,6.0,2.0,3.0,yes,yes,yes,Piano,5,Saxofón,5,Flauta Travesera,5,,,nada,61.0,yes
56,2024-01-20_22h19.15.872,Unsyncopated_study2,s96,27.0,masculino,right,España,Español,Master degree,no,no,A,1,conjunction_syn,L1,syncopated,s1,r2,56,Online_conjL1_syn//a.pu.ki14.none.none.wav,ta,ri,ze,be,sil,lu,fa,cho,sil1,fo,sil2,['-'],,,none,none,,,,pu,2,testWhenL4Uns//r2.s1.0.wav,3.0,when,unsyncopated,b,s1,rule,rule,L4,m,0.8857,2.0,0.0,0.67,2.0,2.0,Español,0.0,Inglés,6.0,2.0,3.0,yes,yes,yes,Piano,5,Saxofón,5,Flauta Travesera,5,,,nada,61.0,yes
57,2024-01-20_22h19.15.872,Unsyncopated_study2,s96,27.0,masculino,right,España,Español,Master degree,no,no,A,1,conjunction_syn,L1,syncopated,s1,r2,57,Online_conjL1_syn//a.pu.ki15.none.none.wav,ta,fo,ne,be,sil,la,ze,fa,sil1,cho,sil2,['-'],,,none,none,,,,pu,2,testWhenL4Uns//cat_viol.r2.s1.0.wav,3.0,when,unsyncopated,b,s1,no_rule,cat,L4,m,1.1432,3.0,0.0,1.9118,2.0,2.0,Español,0.0,Inglés,6.0,2.0,3.0,yes,yes,yes,Piano,5,Saxofón,5,Flauta Travesera,5,,,nada,61.0,yes
58,2024-01-20_22h19.15.872,Unsyncopated_study2,s96,27.0,masculino,right,España,Español,Master degree,no,no,A,1,conjunction_syn,L1,syncopated,s1,r1,58,Online_conjL1_syn//a.pu.ki12.0.666.wav,pu,zu,ni,ki,sil,ne,ro,fo,sil1,cho,sil2,['miss'],,,0.666,no_beat,,,,pu,2,testWhenL4Uns//cat_viol.r1.s2.0.wav,3.0,when,unsyncopated,a,s2,no_rule,cat,L4,z,0.8381,2.0,1.0,1.6576,2.0,2.0,Español,0.0,Inglés,6.0,2.0,3.0,yes,yes,yes,Piano,5,Saxofón,5,Flauta Travesera,5,,,nada,61.0,yes
59,2024-01-20_22h19.15.872,Unsyncopated_study2,s96,27.0,masculino,right,España,Español,Master degree,no,no,A,1,conjunction_syn,L1,syncopated,s2,r1,59,Online_conjL1_syn//a.pu.ki13.666.1554.wav,fa,ro,ne,pu,sil,fo,lu,ki,sil1,ni,sil2,['catch'],[2.109099999993987],[2.109099999993987],1.554,no_beat,0.5550999999939867,0.5550999999939867,"[""space""]",pu,2,testWhenL4Uns//r1.s1.1.wav,3.0,when,unsyncopated,a,s1,rule,rule,L4,m,8.4825,4.0,0.0,0.2792,2.0,2.0,Español,0.0,Inglés,6.0,2.0,3.0,yes,yes,yes,Piano,5,Saxofón,5,Flauta Travesera,5,,,nada,61.0,yes
60,2024-01-20_22h19.15.872,Unsyncopated_study2,s96,27.0,masculino,right,España,Español,Master degree,no,no,A,1,conjunction_syn,L1,syncopated,s2,r1,60,Online_conjL1_syn//d.ne.ni23.0.444.wav,ne,fo,ni,pu,sil,ri,fa,ki,sil1,lu,sil2,['catch'],[0.9225000000000136],[0.9225000000000136],0.0,beat,0.9225000000000136,0.9225000000000136,"[""space""]",ni,4,testWhenL4Uns//dep_viol.r2.s1.0.wav,3.0,when,unsyncopated,b,s1,no_rule,dep,L4,z,0.9945,4.0,1.0,0.4457,2.0,2.0,Español,0.0,Inglés,6.0,2.0,3.0,yes,yes,yes,Piano,5,Saxofón,5,Flauta Travesera,5,,,nada,61.0,yes
61,2024-01-20_22h19.15.872,Unsyncopated_study2,s96,27.0,masculino,right,España,Español,Master degree,no,no,A,1,conjunction_syn,L1,syncopated,s2,r2,61,Online_conjL1_syn//d.ne.ni20.none.none.wav,ze,lu,ro,ta,sil,fa,ri,be,sil1,cho,sil2,['-'],,,none,none,,,,ni,4,testWhenL4Uns//dep_viol.r1.s1.0.wav,3.0,when,unsyncopated,a,s1,no_rule,dep,L4,z,1.3066,3.0,1.0,0.6011,2.0,2.0,Español,0.0,Inglés,6.0,2.0,3.0,yes,yes,yes,Piano,5,Saxofón,5,Flauta Travesera,5,,,nada,61.0,yes
62,2024-01-20_22h19.15.872,Unsyncopated_study2,s96,27.0,masculino,right,España,Español,Master degree,no,no,A,1,conjunction_syn,L1,syncopated,s2,r2,62,Online_conjL1_syn//d.ne.ni22.1110.0.wav,ni,ze,lu,ta,sil,ne,cho,be,sil1,zu,sil2,['miss'],,,1.11,no_beat,,,,ni,4,testWhenL4Uns//r1.s1.2.wav,3.0,when,unsyncopated,a,s1,rule,rule,L4,m,1.6422,2.0,0.0,0.3849,2.0,2.0,Español,0.0,Inglés,6.0,2.0,3.0,yes,yes,yes,Piano,5,Saxofón,5,Flauta Travesera,5,,,nada,61.0,yes
63,2024-01-20_22h19.15.872,Unsyncopated_study2,s96,27.0,masculino,right,España,Español,Master degree,no,no,A,1,conjunction_syn,L1,syncopated,s1,r1,63,Online_conjL1_syn//d.ne.ni21.none.none.wav,pu,lu,fo,ki,sil,ze,cho,ro,sil1,zu,sil2,['-'],,,none,none,,,,ni,4,testWhenL4Uns//r2.s1.2.wav,3.0,when,unsyncopated,b,s1,rule,rule,L4,m,1.4923,4.0,0.0,0.8327,2.0,2.0,Español,0.0,Inglés,6.0,2.0,3.0,yes,yes,yes,Piano,5,Saxofón,5,Flauta Travesera,5,,,nada,61.0,yes
64,2024-01-20_22h19.15.872,Unsyncopated_study2,s96,27.0,masculino,right,España,Español,Master degree,no,no,A,1,conjunction_syn,L1,syncopated,s1,r1,64,Online_conjL1_syn//a.pu.ki10.0.666.wav,pu,ro,cho,ki,sil,zu,la,fa,sil1,ne,sil2,['catch'],[1.164800000011951],[1.164800000011951],0.666,no_beat,0.4988000000119509,0.4988000000119509,"[""space""]",pu,2,testWhenL4Uns//time_viol.r2.s2.0.wav,3.0,when,unsyncopated,b,s2,no_rule,time,L4,m,3.2021,5.0,0.0,3.3943,2.0,2.0,Español,0.0,Inglés,6.0,2.0,3.0,yes,yes,yes,Piano,5,Saxofón,5,Flauta Travesera,5,,,nada,61.0,yes
65,2024-01-20_22h19.15.872,Unsyncopated_study2,s96,27.0,masculino,right,España,Español,Master degree,no,no,A,1,conjunction_syn,L1,syncopated,s2,r2,65,Online_conjL1_syn//a.pu.ki9.none.none.wav,fa,ne,cho,ta,sil,ni,zu,be,sil1,lu,sil2,['-'],,,none,none,,,,pu,2,testWhenL4Uns//time_viol.r1.s1.0.wav,3.0,when,unsyncopated,a,s1,no_rule,time,L4,m,3.4403,2.0,0.0,1.1355,2.0,2.0,Español,0.0,Inglés,6.0,2.0,3.0,yes,yes,yes,Piano,5,Saxofón,5,Flauta Travesera,5,,,nada,61.0,yes
66,2024-01-20_22h19.15.872,Unsyncopated_study2,s96,27.0,masculino,right,España,Español,Master degree,no,no,A,1,conjunction_syn,L1,syncopated,s1,r1,66,Online_conjL1_syn//a.pu.ki8.0.666.wav,pu,ze,ni,ki,sil,ne,ro,ri,sil1,fa,sil2,['catch'],[1.1717000000179496],[1.1717000000179496],0.666,no_beat,0.5057000000179496,0.5057000000179496,"[""space""]",pu,2,testWhenL4Uns//r1.s2.1.wav,3.0,when,unsyncopated,a,s2,rule,rule,L4,m,1.5108,6.0,0.0,1.0882,2.0,2.0,Español,0.0,Inglés,6.0,2.0,3.0,yes,yes,yes,Piano,5,Saxofón,5,Flauta Travesera,5,,,nada,61.0,yes
67,2024-01-20_22h19.15.872,Unsyncopated_study2,s96,27.0,masculino,right,España,Español,Master degree,no,no,A,1,conjunction_syn,L1,syncopated,s1,r1,67,Online_conjL1_syn//a.pu.ki11.0.666.wav,pu,fa,ri,ki,sil,lu,cho,zu,sil1,ni,sil2,['catch'],[1.453599999994026],[1.453599999994026],0.666,no_beat,0.7875999999940259,0.7875999999940259,"[""space""]",pu,2,testWhenL4Uns//cat_viol.r2.s2.0.wav,3.0,when,unsyncopated,b,s2,no_rule,cat,L4,m,0.9271,2.0,0.0,0.4858,2.0,2.0,Español,0.0,Inglés,6.0,2.0,3.0,yes,yes,yes,Piano,5,Saxofón,5,Flauta Travesera,5,,,nada,61.0,yes
68,2024-01-20_22h19.15.872,Unsyncopated_study2,s96,27.0,masculino,right,España,Español,Master degree,no,no,A,1,conjunction_syn,L1,syncopated,s2,r2,68,Online_conjL1_syn//b.ta.be26.666.1554.wav,cho,lu,la,ta,sil,fo,ro,be,sil1,zu,sil2,['catch'],[1.2856999999880827],[1.2856999999880827],0.666,no_beat,0.6196999999880827,0.6196999999880827,"[""space""]",be,1,testWhenL4Uns//dep_viol.r1.s2.0.wav,3.0,when,unsyncopated,a,s2,no_rule,dep,L4,m,3.8927,6.0,0.0,0.5661,2.0,2.0,Español,0.0,Inglés,6.0,2.0,3.0,yes,yes,yes,Piano,5,Saxofón,5,Flauta Travesera,5,,,nada,61.0,yes
69,2024-01-20_22h19.15.872,Unsyncopated_study2,s96,27.0,masculino,right,España,Español,Master degree,no,no,A,1,conjunction_syn,L1,syncopated,s1,r1,69,Online_conjL1_syn//b.ta.be27.none.none.wav,pu,ze,lu,ki,sil,ro,fo,ni,sil1,ri,sil2,['-'],,,none,none,,,,be,1,testWhenL4Uns//r2.s2.0.wav,3.0,when,unsyncopated,b,s2,rule,rule,L4,z,0.3981,5.0,1.0,2.1271,2.0,2.0,Español,0.0,Inglés,6.0,2.0,3.0,yes,yes,yes,Piano,5,Saxofón,5,Flauta Travesera,5,,,nada,61.0,yes
70,2024-01-20_22h19.15.872,Unsyncopated_study2,s96,27.0,masculino,right,España,Español,Master degree,no,no,A,1,conjunction_syn,L1,syncopated,s1,r2,70,Online_conjL1_syn//b.ta.be25.0.666.wav,ta,ri,ze,be,sil,ni,cho,lu,sil1,ne,sil2,['catch'],[0.5680999999940468],[0.5680999999940468],0.0,beat,0.5680999999940468,0.5680999999940468,"[""space""]",be,1,testWhenL4Uns//cat_viol.r1.s1.0.wav,3.0,when,unsyncopated,a,s1,no_rule,cat,L4,z,0.8603,3.0,1.0,0.7551,2.0,2.0,Español,0.0,Inglés,6.0,2.0,3.0,yes,yes,yes,Piano,5,Saxofón,5,Flauta Travesera,5,,,nada,61.0,yes
71,2024-01-20_22h19.15.872,Unsyncopated_study2,s96,27.0,masculino,right,España,Español,Master degree,no,no,A,1,conjunction_syn,L1,syncopated,s2,r2,71,Online_conjL1_syn//b.ta.be24.666.1554.wav,fo,ni,ro,ta,sil,ri,cho,be,sil1,ne,sil2,['catch'],[1.2217999999821814],[1.2217999999821814],0.666,no_beat,0.5557999999821813,0.5557999999821813,"[""space""]",be,1,testWhenL4Uns//dep_viol.r2.s2.0.wav,3.0,when,unsyncopated,b,s2,no_rule,dep,L4,m,4.8757,4.0,0.0,0.9253,2.0,2.0,Español,0.0,Inglés,6.0,2.0,3.0,yes,yes,yes,Piano,5,Saxofón,5,Flauta Travesera,5,,,nada,61.0,yes
72,2024-01-20_22h19.15.872,Unsyncopated_study2,s96,27.0,masculino,right,España,Español,Master degree,no,no,A,1,conjunction_syn,L1,syncopated,s2,r1,72,Online_conjL1_syn//c.ro.fo3.none.none.wav,lu,ni,ze,pu,sil,ne,ri,ki,sil1,cho,sil2,['-'],,,none,none,,,,fo,3,testConjL2Uns//r1.s2.0.wav,4.0,conjunction_un,unsyncopated,a,s2,rule,rule,L2,z,1.0253,5.0,1.0,1.36,2.0,2.0,Español,0.0,Inglés,6.0,2.0,3.0,yes,yes,yes,Piano,5,Saxofón,5,Flauta Travesera,5,,,nada,61.0,yes
73,2024-01-20_22h19.15.872,Unsyncopated_study2,s96,27.0,masculino,right,España,Español,Master degree,no,no,A,1,conjunction_syn,L1,syncopated,s1,r2,73,Online_conjL1_syn//c.ro.fo1.none.none.wav,ta,ni,lu,be,sil,zu,ze,fa,sil1,la,sil2,['-'],,,none,none,,,,fo,3,testConjL2Uns//dep_viol.r2.s2.0.wav,4.0,conjunction_un,unsyncopated,b,s2,no_rule,dep,L2,m,0.7767,2.0,1.0,0.4576,2.0,2.0,Español,0.0,Inglés,6.0,2.0,3.0,yes,yes,yes,Piano,5,Saxofón,5,Flauta Travesera,5,,,nada,61.0,yes
74,2024-01-20_22h19.15.872,Unsyncopated_study2,s96,27.0,masculino,right,España,Español,Master degree,no,no,A,1,conjunction_syn,L1,syncopated,s1,r2,74,Online_conjL1_syn//c.ro.fo2.none.none.wav,ta,ze,ni,be,sil,zu,cho,lu,sil1,la,sil2,['-'],,,none,none,,,,fo,3,testConjL2Uns//r2.s2.1.wav,4.0,conjunction_un,unsyncopated,b,s2,rule,rule,L2,z,0.8086,3.0,1.0,0.8525,2.0,2.0,Español,0.0,Inglés,6.0,2.0,3.0,yes,yes,yes,Piano,5,Saxofón,5,Flauta Travesera,5,,,nada,61.0,yes
75,2024-01-20_22h19.15.872,Unsyncopated_study2,s96,27.0,masculino,right,España,Español,Master degree,no,no,A,1,conjunction_syn,L1,syncopated,s2,r1,75,Online_conjL1_syn//c.ro.fo0.444.1110.wav,fa,la,ro,pu,sil,fo,lu,ki,sil1,ze,sil2,['miss'],,,0.444,no_beat,,,,fo,3,testConjL2Uns//dep_viol.r1.s1.0.wav,4.0,conjunction_un,unsyncopated,a,s1,no_rule,dep,L2,z,5.0059,2.0,0.0,1.8009,2.0,2.0,Español,0.0,Inglés,6.0,2.0,3.0,yes,yes,yes,Piano,5,Saxofón,5,Flauta Travesera,5,,,nada,61.0,yes
76,2024-01-20_22h19.15.872,Unsyncopated_study2,s96,27.0,masculino,right,España,Español,Master degree,no,no,A,1,conjunction_syn,L1,syncopated,s1,r1,76,Online_conjL1_syn//a.pu.ki7.0.666.wav,pu,ri,zu,ki,sil,ne,ze,cho,sil1,la,sil2,['catch'],[1.0637000000178887],[1.0637000000178887],0.666,no_beat,0.3977000000178886,0.3977000000178886,"[""space""]",pu,2,testConjL2Uns//r1.s1.2.wav,4.0,conjunction_un,unsyncopated,a,s1,rule,rule,L2,m,0.8541,4.0,0.0,0.543,2.0,2.0,Español,0.0,Inglés,6.0,2.0,3.0,yes,yes,yes,Piano,5,Saxofón,5,Flauta Travesera,5,,,nada,61.0,yes
77,2024-01-20_22h19.15.872,Unsyncopated_study2,s96,27.0,masculino,right,España,Español,Master degree,no,no,A,1,conjunction_syn,L1,syncopated,s2,r2,77,Online_conjL1_syn//a.pu.ki6.none.none.wav,ne,ni,la,ta,sil,zu,cho,be,sil1,ze,sil2,['-'],,,none,none,,,,pu,2,testConjL2Uns//dep_viol.r2.s1.0.wav,4.0,conjunction_un,unsyncopated,b,s1,no_rule,dep,L2,m,1.1183,4.0,1.0,1.5434,2.0,2.0,Español,0.0,Inglés,6.0,2.0,3.0,yes,yes,yes,Piano,5,Saxofón,5,Flauta Travesera,5,,,nada,61.0,yes
78,2024-01-20_22h19.15.872,Unsyncopated_study2,s96,27.0,masculino,right,España,Español,Master degree,no,no,A,1,conjunction_syn,L1,syncopated,s1,r1,78,Online_conjL1_syn//a.pu.ki5.0.666.wav,pu,ne,ro,ki,sil,cho,ri,fa,sil1,lu,sil2,['catch'],[1.1892000000178768],[1.1892000000178768],0.666,no_beat,0.5232000000178768,0.5232000000178768,"[""space""]",pu,2,testConjL2Uns//r2.s2.0.wav,4.0,conjunction_un,unsyncopated,b,s2,rule,rule,L2,z,1.5329,3.0,1.0,0.8383,2.0,2.0,Español,0.0,Inglés,6.0,2.0,3.0,yes,yes,yes,Piano,5,Saxofón,5,Flauta Travesera,5,,,nada,61.0,yes
79,2024-01-20_22h19.15.872,Unsyncopated_study2,s96,27.0,masculino,right,España,Español,Master degree,no,no,A,1,conjunction_syn,L1,syncopated,s1,r2,79,Online_conjL1_syn//a.pu.ki4.none.none.wav,ta,ze,ri,be,sil,zu,fo,ne,sil1,lu,sil2,['-'],,,none,none,,,,pu,2,testConjL2Uns//cat_viol.r1.s1.0.wav,4.0,conjunction_un,unsyncopated,a,s1,no_rule,cat,L2,z,0.8505,6.0,0.0,0.8702,2.0,2.0,Español,0.0,Inglés,6.0,2.0,3.0,yes,yes,yes,Piano,5,Saxofón,5,Flauta Travesera,5,,,nada,61.0,yes
80,2024-01-20_22h19.15.872,Unsyncopated_study2,s96,27.0,masculino,right,España,Español,Master degree,no,no,A,1,conjunction_syn,L1,syncopated,s1,r2,80,Online_conjL1_syn//b.ta.be8.0.666.wav,ta,la,zu,be,sil,ro,cho,ze,sil1,lu,sil2,['catch'],[0.5845000000000482],[0.5845000000000482],0.0,beat,0.5845000000000482,0.5845000000000482,"[""space""]",be,1,testConjL2Uns//dep_viol.r1.s2.0.wav,4.0,conjunction_un,unsyncopated,a,s2,no_rule,dep,L2,m,1.0205,2.0,1.0,0.8244,2.0,2.0,Español,0.0,Inglés,6.0,2.0,3.0,yes,yes,yes,Piano,5,Saxofón,5,Flauta Travesera,5,,,nada,61.0,yes
81,2024-01-20_22h19.15.872,Unsyncopated_study2,s96,27.0,masculino,right,España,Español,Master degree,no,no,A,1,conjunction_syn,L1,syncopated,s1,r2,81,Online_conjL1_syn//b.ta.be10.0.666.wav,ta,cho,ri,be,sil,ni,zu,ze,sil1,ne,sil2,['catch'],[0.5204000000060205],[0.5204000000060205],0.0,beat,0.5204000000060205,0.5204000000060205,"[""space""]",be,1,testConjL2Uns//cat_viol.r2.s1.0.wav,4.0,conjunction_un,unsyncopated,b,s1,no_rule,cat,L2,m,1.4523,1.0,1.0,0.4017,2.0,2.0,Español,0.0,Inglés,6.0,2.0,3.0,yes,yes,yes,Piano,5,Saxofón,5,Flauta Travesera,5,,,nada,61.0,yes
82,2024-01-20_22h19.15.872,Unsyncopated_study2,s96,27.0,masculino,right,España,Español,Master degree,no,no,A,1,conjunction_syn,L1,syncopated,s2,r2,82,Online_conjL1_syn//b.ta.be9.666.1554.wav,la,lu,ne,ta,sil,ze,fo,be,sil1,zu,sil2,['catch'],[1.1330999999939877],[1.1330999999939877],0.666,no_beat,0.4670999999939876,0.4670999999939876,"[""space""]",be,1,testConjL2Uns//time_viol.r1.s2.0.wav,4.0,conjunction_un,unsyncopated,a,s2,no_rule,time,L2,m,2.5926,4.0,1.0,0.4353,2.0,2.0,Español,0.0,Inglés,6.0,2.0,3.0,yes,yes,yes,Piano,5,Saxofón,5,Flauta Travesera,5,,,nada,61.0,yes
83,2024-01-20_22h19.15.872,Unsyncopated_study2,s96,27.0,masculino,right,España,Español,Master degree,no,no,A,1,conjunction_syn,L1,syncopated,s1,r2,83,Online_conjL1_syn//b.ta.be11.0.666.wav,ta,zu,lu,be,sil,ni,ro,cho,sil1,fo,sil2,['catch'],[0.4684000000059996],[0.4684000000059996],0.0,beat,0.4684000000059996,0.4684000000059996,"[""space""]",be,1,testConjL2Uns//cat_viol.r2.s2.0.wav,4.0,conjunction_un,unsyncopated,b,s2,no_rule,cat,L2,m,0.7753,1.0,1.0,0.3614,2.0,2.0,Español,0.0,Inglés,6.0,2.0,3.0,yes,yes,yes,Piano,5,Saxofón,5,Flauta Travesera,5,,,nada,61.0,yes
84,2024-01-20_22h19.15.872,Unsyncopated_study2,s96,27.0,masculino,right,España,Español,Master degree,no,no,A,1,conjunction_syn,L1,syncopated,s1,r2,84,Online_conjL1_syn//d.ne.ni2.222.1332.wav,ta,ne,lu,be,sil,ri,ni,cho,sil1,ze,sil2,['miss'],,,0.222,no_beat,,,,ni,4,testConjL2Uns//r2.s1.1.wav,4.0,conjunction_un,unsyncopated,b,s1,rule,rule,L2,m,8.362,4.0,0.0,0.5019,2.0,2.0,Español,0.0,Inglés,6.0,2.0,3.0,yes,yes,yes,Piano,5,Saxofón,5,Flauta Travesera,5,,,nada,61.0,yes
85,2024-01-20_22h19.15.872,Unsyncopated_study2,s96,27.0,masculino,right,España,Español,Master degree,no,no,A,1,conjunction_syn,L1,syncopated,s1,r1,85,Online_conjL1_syn//d.ne.ni3.none.none.wav,pu,fo,la,ki,sil,ro,lu,ri,sil1,cho,sil2,['-'],,,none,none,,,,ni,4,testConjL2Uns//r1.s1.1.wav,4.0,conjunction_un,unsyncopated,a,s1,rule,rule,L2,m,1.5525,6.0,0.0,0.2259,2.0,2.0,Español,0.0,Inglés,6.0,2.0,3.0,yes,yes,yes,Piano,5,Saxofón,5,Flauta Travesera,5,,,nada,61.0,yes
86,2024-01-20_22h19.15.872,Unsyncopated_study2,s96,27.0,masculino,right,España,Español,Master degree,no,no,A,1,conjunction_syn,L1,syncopated,s2,r1,86,Online_conjL1_syn//d.ne.ni0.none.none.wav,lu,ze,zu,pu,sil,ro,ri,ki,sil1,la,sil2,['-'],,,none,none,,,,ni,4,testConjL2Uns//time_viol.r2.s2.0.wav,4.0,conjunction_un,unsyncopated,b,s2,no_rule,time,L2,m,1.6099,2.0,1.0,0.2033,2.0,2.0,Español,0.0,Inglés,6.0,2.0,3.0,yes,yes,yes,Piano,5,Saxofón,5,Flauta Travesera,5,,,nada,61.0,yes
87,2024-01-20_22h19.15.872,Unsyncopated_study2,s96,27.0,masculino,right,España,Español,Master degree,no,no,A,1,conjunction_syn,L1,syncopated,s1,r1,87,Online_conjL1_syn//d.ne.ni1.222.1110.wav,pu,ne,ri,ki,sil,ni,la,ze,sil1,lu,sil2,['miss'],,,0.222,no_beat,,,,ni,4,testConjL2Uns//r1.s1.0.wav,4.0,conjunction_un,unsyncopated,a,s1,rule,rule,L2,z,0.6573,7.0,1.0,1.8744,2.0,2.0,Español,0.0,Inglés,6.0,2.0,3.0,yes,yes,yes,Piano,5,Saxofón,5,Flauta Travesera,5,,,nada,61.0,yes
88,2024-01-20_22h19.15.872,Unsyncopated_study2,s96,27.0,masculino,right,España,Español,Master degree,no,no,A,1,conjunction_syn,L1,syncopated,s2,r2,88,Online_conjL1_syn//b.ta.be19.666.1554.wav,fa,la,ni,ta,sil,cho,ne,be,sil1,ri,sil2,"['false alarm', 'catch']","[0.6611999999880709, 1.8559999999999945]",[1.8559999999999945],0.666,no_beat,1.1899999999999946,1.1899999999999946,"[""space"",""space""]",be,1,testConjL2Uns//r2.s1.0.wav,4.0,conjunction_un,unsyncopated,b,s1,rule,rule,L2,z,2.9213,1.0,1.0,1.5176,2.0,2.0,Español,0.0,Inglés,6.0,2.0,3.0,yes,yes,yes,Piano,5,Saxofón,5,Flauta Travesera,5,,,nada,61.0,yes
89,2024-01-20_22h19.15.872,Unsyncopated_study2,s96,27.0,masculino,right,España,Español,Master degree,no,no,A,1,conjunction_syn,L1,syncopated,s2,r1,89,Online_conjL1_syn//b.ta.be17.none.none.wav,zu,lu,ze,pu,sil,la,cho,ki,sil1,fa,sil2,['-'],,,none,none,,,,be,1,testConjL2Uns//cat_viol.r1.s2.0.wav,4.0,conjunction_un,unsyncopated,a,s2,no_rule,cat,L2,m,0.9386,2.0,1.0,0.5441,2.0,2.0,Español,0.0,Inglés,6.0,2.0,3.0,yes,yes,yes,Piano,5,Saxofón,5,Flauta Travesera,5,,,nada,61.0,yes
90,2024-01-20_22h19.15.872,Unsyncopated_study2,s96,27.0,masculino,right,España,Español,Master degree,no,no,A,1,conjunction_syn,L1,syncopated,s2,r2,90,Online_conjL1_syn//b.ta.be16.666.1554.wav,ro,ne,lu,ta,sil,la,ri,be,sil1,fo,sil2,['catch'],[1.322499999999991],[1.322499999999991],0.666,no_beat,0.6564999999999909,0.6564999999999909,"[""space""]",be,1,testConjL2Uns//r1.s2.1.wav,4.0,conjunction_un,unsyncopated,a,s2,rule,rule,L2,m,0.9099,3.0,0.0,0.6703,2.0,2.0,Español,0.0,Inglés,6.0,2.0,3.0,yes,yes,yes,Piano,5,Saxofón,5,Flauta Travesera,5,,,nada,61.0,yes
91,2024-01-20_22h19.15.872,Unsyncopated_study2,s96,27.0,masculino,right,España,Español,Master degree,no,no,A,1,conjunction_syn,L1,syncopated,s1,r1,91,Online_conjL1_syn//b.ta.be18.none.none.wav,pu,ni,zu,ki,sil,ne,la,ze,sil1,cho,sil2,['-'],,,none,none,,,,be,1,testConjL2Uns//time_viol.r1.s1.0.wav,4.0,conjunction_un,unsyncopated,a,s1,no_rule,time,L2,z,2.8147,2.0,0.0,0.6577,2.0,2.0,Español,0.0,Inglés,6.0,2.0,3.0,yes,yes,yes,Piano,5,Saxofón,5,Flauta Travesera,5,,,nada,61.0,yes
92,2024-01-20_22h19.15.872,Unsyncopated_study2,s96,27.0,masculino,right,España,Español,Master degree,no,no,A,1,conjunction_syn,L1,syncopated,s1,r1,92,Online_conjL1_syn//b.ta.be12.none.none.wav,pu,ro,lu,ki,sil,ri,fa,ni,sil1,cho,sil2,['-'],,,none,none,,,,be,1,testConjL2Uns//r2.s1.2.wav,4.0,conjunction_un,unsyncopated,b,s1,rule,rule,L2,m,1.2066,1.0,0.0,7.0362,2.0,2.0,Español,0.0,Inglés,6.0,2.0,3.0,yes,yes,yes,Piano,5,Saxofón,5,Flauta Travesera,5,,,nada,61.0,yes
93,2024-01-20_22h19.15.872,Unsyncopated_study2,s96,27.0,masculino,right,España,Español,Master degree,no,no,A,1,conjunction_syn,L1,syncopated,s1,r2,93,Online_conjL1_syn//b.ta.be14.0.666.wav,ta,la,fa,be,sil,ni,fo,ro,sil1,lu,sil2,['catch'],[0.5713000000120019],[0.5713000000120019],0.0,beat,0.5713000000120019,0.5713000000120019,"[""space""]",be,1,testConjL2Uns//time_viol.r2.s1.0.wav,4.0,conjunction_un,unsyncopated,b,s1,no_rule,time,L2,m,0.8571,4.0,1.0,0.8861,2.0,2.0,Español,0.0,Inglés,6.0,2.0,3.0,yes,yes,yes,Piano,5,Saxofón,5,Flauta Travesera,5,,,nada,61.0,yes
94,2024-01-20_22h19.15.872,Unsyncopated_study2,s96,27.0,masculino,right,España,Español,Master degree,no,no,A,1,conjunction_syn,L1,syncopated,s2,r1,94,Online_conjL1_syn//b.ta.be15.none.none.wav,la,ni,lu,pu,sil,ri,cho,ki,sil1,fa,sil2,['-'],,,none,none,,,,be,1,testConjL2Uns//r2.s2.2.wav,4.0,conjunction_un,unsyncopated,b,s2,rule,rule,L2,z,0.4472,3.0,1.0,0.8546,2.0,2.0,Español,0.0,Inglés,6.0,2.0,3.0,yes,yes,yes,Piano,5,Saxofón,5,Flauta Travesera,5,,,nada,61.0,yes
95,2024-01-20_22h19.15.872,Unsyncopated_study2,s96,27.0,masculino,right,España,Español,Master degree,no,no,A,1,conjunction_syn,L1,syncopated,s1,r2,95,Online_conjL1_syn//b.ta.be13.0.666.wav,ta,ni,fo,be,sil,ze,ne,fa,sil1,ri,sil2,"['catch', 'false alarm']","[0.6886999999881027, 2.464199999988068]",[0.6886999999881027],0.0,beat,0.6886999999881027,0.6886999999881027,"[""space"",""space""]",be,1,testConjL2Uns//r1.s2.2.wav,4.0,conjunction_un,unsyncopated,a,s2,rule,rule,L2,z,0.3665,5.0,1.0,0.743,2.0,2.0,Español,0.0,Inglés,6.0,2.0,3.0,yes,yes,yes,Piano,5,Saxofón,5,Flauta Travesera,5,,,nada,61.0,yes
96,2024-01-20_22h19.15.872,Unsyncopated_study2,s96,27.0,masculino,right,España,Español,Master degree,no,no,A,1,conjunction_syn,L1,syncopated,s2,r2,96,Online_conjL1_syn//a.pu.ki31.none.none.wav,lu,fo,fa,ta,sil,ro,ni,be,sil1,la,sil2,['false alarm'],[1.7601999999881173],[1.7601999999881173],none,none,,,"[""space""]",pu,2,,,,,,,,,,,,,,,2.0,2.0,Español,0.0,Inglés,6.0,2.0,3.0,yes,yes,yes,Piano,5,Saxofón,5,Flauta Travesera,5,,,nada,61.0,yes
97,2024-01-20_22h19.15.872,Unsyncopated_study2,s96,27.0,masculino,right,España,Español,Master degree,no,no,A,1,conjunction_syn,L1,syncopated,s1,r2,97,Online_conjL1_syn//a.pu.ki30.none.none.wav,ta,fa,ro,be,sil,ni,zu,la,sil1,ze,sil2,['-'],,,none,none,,,,pu,2,,,,,,,,,,,,,,,2.0,2.0,Español,0.0,Inglés,6.0,2.0,3.0,yes,yes,yes,Piano,5,Saxofón,5,Flauta Travesera,5,,,nada,61.0,yes
98,2024-01-20_22h19.15.872,Unsyncopated_study2,s96,27.0,masculino,right,España,Español,Master degree,no,no,A,1,conjunction_syn,L1,syncopated,s2,r1,98,Online_conjL1_syn//a.pu.ki28.666.1554.wav,cho,ro,fo,pu,sil,ze,ni,ki,sil1,zu,sil2,['catch'],[2.054300000011949],[2.054300000011949],1.554,no_beat,0.5003000000119491,0.5003000000119491,"[""space""]",pu,2,,,,,,,,,,,,,,,2.0,2.0,Español,0.0,Inglés,6.0,2.0,3.0,yes,yes,yes,Piano,5,Saxofón,5,Flauta Travesera,5,,,nada,61.0,yes
99,2024-01-20_22h19.15.872,Unsyncopated_study2,s96,27.0,masculino,right,España,Español,Master degree,no,no,A,1,conjunction_syn,L1,syncopated,s2,r1,99,Online_conjL1_syn//a.pu.ki29.666.1554.wav,ze,ne,ro,pu,sil,lu,la,ki,sil1,fo,sil2,['catch'],[2.1432999999822187],[2.1432999999822187],1.554,no_beat,0.5892999999822186,0.5892999999822186,"[""space""]",pu,2,,,,,,,,,,,,,,,2.0,2.0,Español,0.0,Inglés,6.0,2.0,3.0,yes,yes,yes,Piano,5,Saxofón,5,Flauta Travesera,5,,,nada,61.0,yes
100,2024-01-20_22h19.15.872,Unsyncopated_study2,s96,27.0,masculino,right,España,Español,Master degree,no,no,A,1,conjunction_syn,L1,syncopated,s2,r1,100,Online_conjL1_syn//c.ro.fo5.1332.0.wav,fo,zu,cho,pu,sil,ni,ro,ki,sil1,fa,sil2,['miss'],,,1.332,no_beat,,,,fo,3,,,,,,,,,,,,,,,2.0,2.0,Español,0.0,Inglés,6.0,2.0,3.0,yes,yes,yes,Piano,5,Saxofón,5,Flauta Travesera,5,,,nada,61.0,yes
101,2024-01-20_22h19.15.872,Unsyncopated_study2,s96,27.0,masculino,right,España,Español,Master degree,no,no,A,1,conjunction_syn,L1,syncopated,s1,r2,101,Online_conjL1_syn//c.ro.fo6.none.none.wav,ta,fa,ni,be,sil,la,ne,cho,sil1,ze,sil2,['-'],,,none,none,,,,fo,3,,,,,,,,,,,,,,,2.0,2.0,Español,0.0,Inglés,6.0,2.0,3.0,yes,yes,yes,Piano,5,Saxofón,5,Flauta Travesera,5,,,nada,61.0,yes
102,2024-01-20_22h19.15.872,Unsyncopated_study2,s96,27.0,masculino,right,España,Español,Master degree,no,no,A,1,conjunction_syn,L1,syncopated,s1,r1,102,Online_conjL1_syn//c.ro.fo7.none.none.wav,pu,zu,la,ki,sil,ze,ne,lu,sil1,ri,sil2,['-'],,,none,none,,,,fo,3,,,,,,,,,,,,,,,2.0,2.0,Español,0.0,Inglés,6.0,2.0,3.0,yes,yes,yes,Piano,5,Saxofón,5,Flauta Travesera,5,,,nada,61.0,yes
103,2024-01-20_22h19.15.872,Unsyncopated_study2,s96,27.0,masculino,right,España,Español,Master degree,no,no,A,1,conjunction_syn,L1,syncopated,s1,r2,103,Online_conjL1_syn//c.ro.fo4.444.1110.wav,ta,ze,ro,be,sil,fo,ni,cho,sil1,zu,sil2,['miss'],,,0.444,no_beat,,,,fo,3,,,,,,,,,,,,,,,2.0,2.0,Español,0.0,Inglés,6.0,2.0,3.0,yes,yes,yes,Piano,5,Saxofón,5,Flauta Travesera,5,,,nada,61.0,yes
104,2024-01-20_22h19.15.872,Unsyncopated_study2,s96,27.0,masculino,right,España,Español,Master degree,no,no,A,1,conjunction_syn,L1,syncopated,s2,r1,104,Online_conjL1_syn//a.pu.ki20.666.1554.wav,ro,lu,ni,pu,sil,la,fo,ki,sil1,cho,sil2,"['false alarm', 'catch']","[0.5554999999999382, 2.3073999999760417]",[2.3073999999760417],1.554,no_beat,0.7533999999760417,0.7533999999760417,"[""space"",""space""]",pu,2,,,,,,,,,,,,,,,2.0,2.0,Español,0.0,Inglés,6.0,2.0,3.0,yes,yes,yes,Piano,5,Saxofón,5,Flauta Travesera,5,,,nada,61.0,yes
105,2024-01-20_22h19.15.872,Unsyncopated_study2,s96,27.0,masculino,right,España,Español,Master degree,no,no,A,1,conjunction_syn,L1,syncopated,s2,r2,105,Online_conjL1_syn//a.pu.ki22.none.none.wav,fo,ri,ni,ta,sil,lu,la,be,sil1,cho,sil2,['-'],,,none,none,,,,pu,2,,,,,,,,,,,,,,,2.0,2.0,Español,0.0,Inglés,6.0,2.0,3.0,yes,yes,yes,Piano,5,Saxofón,5,Flauta Travesera,5,,,nada,61.0,yes
106,2024-01-20_22h19.15.872,Unsyncopated_study2,s96,27.0,masculino,right,España,Español,Master degree,no,no,A,1,conjunction_syn,L1,syncopated,s2,r1,106,Online_conjL1_syn//a.pu.ki23.666.1554.wav,ni,la,ro,pu,sil,fo,zu,ki,sil1,ze,sil2,['catch'],[2.109800000012001],[2.109800000012001],1.554,no_beat,0.5558000000120009,0.5558000000120009,"[""space""]",pu,2,,,,,,,,,,,,,,,2.0,2.0,Español,0.0,Inglés,6.0,2.0,3.0,yes,yes,yes,Piano,5,Saxofón,5,Flauta Travesera,5,,,nada,61.0,yes
107,2024-01-20_22h19.15.872,Unsyncopated_study2,s96,27.0,masculino,right,España,Español,Master degree,no,no,A,1,conjunction_syn,L1,syncopated,s2,r2,107,Online_conjL1_syn//a.pu.ki21.none.none.wav,ro,fa,ni,ta,sil,ri,la,be,sil1,lu,sil2,['-'],,,none,none,,,,pu,2,,,,,,,,,,,,,,,2.0,2.0,Español,0.0,Inglés,6.0,2.0,3.0,yes,yes,yes,Piano,5,Saxofón,5,Flauta Travesera,5,,,nada,61.0,yes
108,2024-01-20_22h19.15.872,Unsyncopated_study2,s96,27.0,masculino,right,España,Español,Master degree,no,no,A,1,conjunction_syn,L1,syncopated,s2,r2,108,Online_conjL1_syn//a.pu.ki17.none.none.wav,lu,fa,zu,ta,sil,la,ze,be,sil1,cho,sil2,['-'],,,none,none,,,,pu,2,,,,,,,,,,,,,,,2.0,2.0,Español,0.0,Inglés,6.0,2.0,3.0,yes,yes,yes,Piano,5,Saxofón,5,Flauta Travesera,5,,,nada,61.0,yes
109,2024-01-20_22h19.15.872,Unsyncopated_study2,s96,27.0,masculino,right,España,Español,Master degree,no,no,A,1,conjunction_syn,L1,syncopated,s1,r2,109,Online_conjL1_syn//a.pu.ki19.none.none.wav,ta,fa,lu,be,sil,ne,fo,ri,sil1,ze,sil2,['-'],,,none,none,,,,pu,2,,,,,,,,,,,,,,,2.0,2.0,Español,0.0,Inglés,6.0,2.0,3.0,yes,yes,yes,Piano,5,Saxofón,5,Flauta Travesera,5,,,nada,61.0,yes
110,2024-01-20_22h19.15.872,Unsyncopated_study2,s96,27.0,masculino,right,España,Español,Master degree,no,no,A,1,conjunction_syn,L1,syncopated,s2,r1,110,Online_conjL1_syn//a.pu.ki18.666.1554.wav,lu,ni,ri,pu,sil,ro,fo,ki,sil1,cho,sil2,['catch'],[2.0073999999763146],[2.0073999999763146],1.554,no_beat,0.4533999999763145,0.4533999999763145,"[""space""]",pu,2,,,,,,,,,,,,,,,2.0,2.0,Español,0.0,Inglés,6.0,2.0,3.0,yes,yes,yes,Piano,5,Saxofón,5,Flauta Travesera,5,,,nada,61.0,yes
111,2024-01-20_22h19.15.872,Unsyncopated_study2,s96,27.0,masculino,right,España,Español,Master degree,no,no,A,1,conjunction_syn,L1,syncopated,s2,r2,111,Online_conjL1_syn//a.pu.ki16.none.none.wav,la,ze,fo,ta,sil,zu,lu,be,sil1,ne,sil2,['-'],,,none,none,,,,pu,2,,,,,,,,,,,,,,,2.0,2.0,Español,0.0,Inglés,6.0,2.0,3.0,yes,yes,yes,Piano,5,Saxofón,5,Flauta Travesera,5,,,nada,61.0,yes
112,2024-01-20_22h19.15.872,Unsyncopated_study2,s96,27.0,masculino,right,España,Español,Master degree,no,no,A,1,conjunction_syn,L1,syncopated,s2,r1,112,Online_conjL1_syn//a.pu.ki25.666.1554.wav,cho,la,ro,pu,sil,ze,ne,ki,sil1,ri,sil2,['catch'],[1.9995000000001255],[1.9995000000001255],1.554,no_beat,0.4455000000001254,0.4455000000001254,"[""space""]",pu,2,,,,,,,,,,,,,,,2.0,2.0,Español,0.0,Inglés,6.0,2.0,3.0,yes,yes,yes,Piano,5,Saxofón,5,Flauta Travesera,5,,,nada,61.0,yes
113,2024-01-20_22h19.15.872,Unsyncopated_study2,s96,27.0,masculino,right,España,Español,Master degree,no,no,A,1,conjunction_syn,L1,syncopated,s1,r1,113,Online_conjL1_syn//a.pu.ki27.0.666.wav,pu,ze,lu,ki,sil,cho,fa,fo,sil1,ni,sil2,['catch'],[1.2977000000178123],[1.2977000000178123],0.666,no_beat,0.6317000000178122,0.6317000000178122,"[""space""]",pu,2,,,,,,,,,,,,,,,2.0,2.0,Español,0.0,Inglés,6.0,2.0,3.0,yes,yes,yes,Piano,5,Saxofón,5,Flauta Travesera,5,,,nada,61.0,yes
114,2024-01-20_22h19.15.872,Unsyncopated_study2,s96,27.0,masculino,right,España,Español,Master degree,no,no,A,1,conjunction_syn,L1,syncopated,s1,r2,114,Online_conjL1_syn//a.pu.ki24.none.none.wav,ta,ne,la,be,sil,ri,fa,ze,sil1,zu,sil2,['-'],,,none,none,,,,pu,2,,,,,,,,,,,,,,,2.0,2.0,Español,0.0,Inglés,6.0,2.0,3.0,yes,yes,yes,Piano,5,Saxofón,5,Flauta Travesera,5,,,nada,61.0,yes
115,2024-01-20_22h19.15.872,Unsyncopated_study2,s96,27.0,masculino,right,España,Español,Master degree,no,no,A,1,conjunction_syn,L1,syncopated,s1,r2,115,Online_conjL1_syn//a.pu.ki26.none.none.wav,ta,zu,lu,be,sil,ro,la,ri,sil1,fa,sil2,['-'],,,none,none,,,,pu,2,,,,,,,,,,,,,,,2.0,2.0,Español,0.0,Inglés,6.0,2.0,3.0,yes,yes,yes,Piano,5,Saxofón,5,Flauta Travesera,5,,,nada,61.0,yes
116,2024-01-20_22h19.15.872,Unsyncopated_study2,s96,27.0,masculino,right,España,Español,Master degree,no,no,A,1,conjunction_syn,L1,syncopated,s1,r1,116,Online_conjL1_syn//c.ro.fo13.1554.222.wav,pu,fo,fa,ki,sil,ni,cho,ro,sil1,ze,sil2,['catch'],[2.4494999999999436],[2.4494999999999436],1.554,no_beat,0.8954999999999436,0.8954999999999436,"[""space""]",fo,3,,,,,,,,,,,,,,,2.0,2.0,Español,0.0,Inglés,6.0,2.0,3.0,yes,yes,yes,Piano,5,Saxofón,5,Flauta Travesera,5,,,nada,61.0,yes
117,2024-01-20_22h19.15.872,Unsyncopated_study2,s96,27.0,masculino,right,España,Español,Master degree,no,no,A,1,conjunction_syn,L1,syncopated,s1,r1,117,Online_conjL1_syn//c.ro.fo15.none.none.wav,pu,ri,ze,ki,sil,lu,ne,la,sil1,cho,sil2,['-'],,,none,none,,,,fo,3,,,,,,,,,,,,,,,2.0,2.0,Español,0.0,Inglés,6.0,2.0,3.0,yes,yes,yes,Piano,5,Saxofón,5,Flauta Travesera,5,,,nada,61.0,yes
118,2024-01-20_22h19.15.872,Unsyncopated_study2,s96,27.0,masculino,right,España,Español,Master degree,no,no,A,1,conjunction_syn,L1,syncopated,s2,r2,118,Online_conjL1_syn//c.ro.fo14.none.none.wav,fa,zu,ri,ta,sil,la,ni,be,sil1,ne,sil2,['-'],,,none,none,,,,fo,3,,,,,,,,,,,,,,,2.0,2.0,Español,0.0,Inglés,6.0,2.0,3.0,yes,yes,yes,Piano,5,Saxofón,5,Flauta Travesera,5,,,nada,61.0,yes
119,2024-01-20_22h19.15.872,Unsyncopated_study2,s96,27.0,masculino,right,España,Español,Master degree,no,no,A,1,conjunction_syn,L1,syncopated,s2,r2,119,Online_conjL1_syn//c.ro.fo12.1332.444.wav,fa,zu,fo,ta,sil,cho,ro,be,sil1,ne,sil2,['catch'],[2.2502999999821895],[2.2502999999821895],1.332,no_beat,0.9182999999821896,0.9182999999821896,"[""space""]",fo,3,,,,,,,,,,,,,,,2.0,2.0,Español,0.0,Inglés,6.0,2.0,3.0,yes,yes,yes,Piano,5,Saxofón,5,Flauta Travesera,5,,,nada,61.0,yes
120,2024-01-20_22h19.15.872,Unsyncopated_study2,s96,27.0,masculino,right,España,Español,Master degree,no,no,A,1,conjunction_syn,L1,syncopated,s1,r1,120,Online_conjL1_syn//c.ro.fo18.1110.222.wav,pu,fo,zu,ki,sil,ro,cho,ze,sil1,ne,sil2,['catch'],[2.171800000011899],[2.171800000011899],1.11,no_beat,1.061800000011899,1.061800000011899,"[""space""]",fo,3,,,,,,,,,,,,,,,2.0,2.0,Español,0.0,Inglés,6.0,2.0,3.0,yes,yes,yes,Piano,5,Saxofón,5,Flauta Travesera,5,,,nada,61.0,yes
121,2024-01-20_22h19.15.872,Unsyncopated_study2,s96,27.0,masculino,right,España,Español,Master degree,no,no,A,1,conjunction_syn,L1,syncopated,s2,r1,121,Online_conjL1_syn//c.ro.fo17.444.0.wav,fo,fa,ro,pu,sil,lu,ze,ki,sil1,ni,sil2,['miss'],,,0.444,no_beat,,,,fo,3,,,,,,,,,,,,,,,2.0,2.0,Español,0.0,Inglés,6.0,2.0,3.0,yes,yes,yes,Piano,5,Saxofón,5,Flauta Travesera,5,,,nada,61.0,yes
122,2024-01-20_22h19.15.872,Unsyncopated_study2,s96,27.0,masculino,right,España,Español,Master degree,no,no,A,1,conjunction_syn,L1,syncopated,s1,r2,122,Online_conjL1_syn//c.ro.fo16.1332.222.wav,ta,fo,ni,be,sil,la,ro,lu,sil1,fa,sil2,['catch'],[1.9108000000119318],[1.9108000000119318],1.332,no_beat,0.5788000000119318,0.5788000000119318,"[""space""]",fo,3,,,,,,,,,,,,,,,2.0,2.0,Español,0.0,Inglés,6.0,2.0,3.0,yes,yes,yes,Piano,5,Saxofón,5,Flauta Travesera,5,,,nada,61.0,yes
123,2024-01-20_22h19.15.872,Unsyncopated_study2,s96,27.0,masculino,right,España,Español,Master degree,no,no,A,1,conjunction_syn,L1,syncopated,s2,r1,123,Online_conjL1_syn//c.ro.fo19.none.none.wav,la,ni,zu,pu,sil,ne,ri,ki,sil1,lu,sil2,['-'],,,none,none,,,,fo,3,,,,,,,,,,,,,,,2.0,2.0,Español,0.0,Inglés,6.0,2.0,3.0,yes,yes,yes,Piano,5,Saxofón,5,Flauta Travesera,5,,,nada,61.0,yes
124,2024-01-20_22h19.15.872,Unsyncopated_study2,s96,27.0,masculino,right,España,Español,Master degree,no,no,A,1,conjunction_syn,L1,syncopated,s2,r2,124,Online_conjL1_syn//c.ro.fo21.none.none.wav,ze,zu,la,ta,sil,ne,cho,be,sil1,ni,sil2,['false alarm'],[0.35030000001188455],[0.35030000001188455],none,none,,,"[""space""]",fo,3,,,,,,,,,,,,,,,2.0,2.0,Español,0.0,Inglés,6.0,2.0,3.0,yes,yes,yes,Piano,5,Saxofón,5,Flauta Travesera,5,,,nada,61.0,yes
125,2024-01-20_22h19.15.872,Unsyncopated_study2,s96,27.0,masculino,right,España,Español,Master degree,no,no,A,1,conjunction_syn,L1,syncopated,s2,r1,125,Online_conjL1_syn//c.ro.fo20.none.none.wav,lu,ne,la,pu,sil,zu,cho,ki,sil1,ni,sil2,['-'],,,none,none,,,,fo,3,,,,,,,,,,,,,,,2.0,2.0,Español,0.0,Inglés,6.0,2.0,3.0,yes,yes,yes,Piano,5,Saxofón,5,Flauta Travesera,5,,,nada,61.0,yes
126,2024-01-20_22h19.15.872,Unsyncopated_study2,s96,27.0,masculino,right,España,Español,Master degree,no,no,A,1,conjunction_syn,L1,syncopated,s1,r2,126,Online_conjL1_syn//c.ro.fo23.1110.1332.wav,ta,ne,cho,be,sil,ro,fo,zu,sil1,ni,sil2,['catch'],[2.4455999999941014],[2.4455999999941014],1.11,no_beat,,1.3355999999941013,"[""space""]",fo,3,,,,,,,,,,,,,,,2.0,2.0,Español,0.0,Inglés,6.0,2.0,3.0,yes,yes,yes,Piano,5,Saxofón,5,Flauta Travesera,5,,,nada,61.0,yes
127,2024-01-20_22h19.15.872,Unsyncopated_study2,s96,27.0,masculino,right,España,Español,Master degree,no,no,A,1,conjunction_syn,L1,syncopated,s1,r1,127,Online_conjL1_syn//c.ro.fo22.none.none.wav,pu,fa,cho,ki,sil,ne,la,ni,sil1,ze,sil2,['-'],,,none,none,,,,fo,3,,,,,,,,,,,,,,,2.0,2.0,Español,0.0,Inglés,6.0,2.0,3.0,yes,yes,yes,Piano,5,Saxofón,5,Flauta Travesera,5,,,nada,61.0,yes
128,2024-01-20_22h19.15.872,Unsyncopated_study2,s96,27.0,masculino,right,España,Español,Master degree,no,no,A,2,what,L3,unsyncopated,s1,r1,0,Online_whatL3//b.ñe.sa16.none.none.wav,chu,fu,ko,sil,mo,li,je,sil1,ka,gu,sil2,['-'],,,none,none,,,,sa,1,,,,,,,,,,,,,,,2.0,2.0,Español,0.0,Inglés,6.0,2.0,3.0,yes,yes,yes,Piano,5,Saxofón,5,Flauta Travesera,5,,,nada,61.0,yes
129,2024-01-20_22h19.15.872,Unsyncopated_study2,s96,27.0,masculino,right,España,Español,Master degree,no,no,A,2,what,L3,unsyncopated,s2,r1,1,Online_whatL3//b.ñe.sa17.none.none.wav,di,gu,do,sil,chu,li,le,sil1,mo,ji,sil2,['-'],,,none,none,,,,sa,1,,,,,,,,,,,,,,,2.0,2.0,Español,0.0,Inglés,6.0,2.0,3.0,yes,yes,yes,Piano,5,Saxofón,5,Flauta Travesera,5,,,nada,61.0,yes
130,2024-01-20_22h19.15.872,Unsyncopated_study2,s96,27.0,masculino,right,España,Español,Master degree,no,no,A,2,what,L3,unsyncopated,s2,r1,2,Online_whatL3//b.ñe.sa18.none.none.wav,ko,je,ga,sil2,chu,li,fu,sil,mo,gu,sil1,['-'],,,none,none,,,,sa,1,,,,,,,,,,,,,,,2.0,2.0,Español,0.0,Inglés,6.0,2.0,3.0,yes,yes,yes,Piano,5,Saxofón,5,Flauta Travesera,5,,,nada,61.0,yes
131,2024-01-20_22h19.15.872,Unsyncopated_study2,s96,27.0,masculino,right,España,Español,Master degree,no,no,A,2,what,L3,unsyncopated,s2,r1,3,Online_whatL3//b.ñe.sa19.none.none.wav,ji,fu,gu,sil2,chu,do,ka,sil,mo,ko,sil1,['-'],,,none,none,,,,sa,1,,,,,,,,,,,,,,,2.0,2.0,Español,0.0,Inglés,6.0,2.0,3.0,yes,yes,yes,Piano,5,Saxofón,5,Flauta Travesera,5,,,nada,61.0,yes
132,2024-01-20_22h19.15.872,Unsyncopated_study2,s96,27.0,masculino,right,España,Español,Master degree,no,no,A,2,what,L3,unsyncopated,s1,r1,4,Online_whatL3//b.ñe.sa29.none.none.wav,chu,le,ga,sil,mo,fu,di,sil2,ji,ko,sil1,['-'],,,none,none,,,,sa,1,,,,,,,,,,,,,,,2.0,2.0,Español,0.0,Inglés,6.0,2.0,3.0,yes,yes,yes,Piano,5,Saxofón,5,Flauta Travesera,5,,,nada,61.0,yes
133,2024-01-20_22h19.15.872,Unsyncopated_study2,s96,27.0,masculino,right,España,Español,Master degree,no,no,A,2,what,L3,unsyncopated,s2,r1,5,Online_whatL3//b.ñe.sa28.none.none.wav,do,gu,le,sil2,chu,ka,ga,sil,mo,je,sil1,['-'],,,none,none,,,,sa,1,,,,,,,,,,,,,,,2.0,2.0,Español,0.0,Inglés,6.0,2.0,3.0,yes,yes,yes,Piano,5,Saxofón,5,Flauta Travesera,5,,,nada,61.0,yes
134,2024-01-20_22h19.15.872,Unsyncopated_study2,s96,27.0,masculino,right,España,Español,Master degree,no,no,A,2,what,L3,unsyncopated,s1,r1,6,Online_whatL3//b.ñe.sa31.none.none.wav,chu,ji,fu,sil,mo,li,le,sil1,ka,ko,sil2,['-'],,,none,none,,,,sa,1,,,,,,,,,,,,,,,2.0,2.0,Español,0.0,Inglés,6.0,2.0,3.0,yes,yes,yes,Piano,5,Saxofón,5,Flauta Travesera,5,,,nada,61.0,yes
135,2024-01-20_22h19.15.872,Unsyncopated_study2,s96,27.0,masculino,right,España,Español,Master degree,no,no,A,2,what,L3,unsyncopated,s2,r2,7,Online_whatL3//b.ñe.sa30.888.1998.wav,li,do,ko,sil,ñe,ka,ji,sil2,sa,fu,sil1,['catch'],[1.6552999999821623],[1.6552999999821623],0.888,beat,0.7672999999821623,0.7672999999821623,"[""space""]",sa,1,,,,,,,,,,,,,,,2.0,2.0,Español,0.0,Inglés,6.0,2.0,3.0,yes,yes,yes,Piano,5,Saxofón,5,Flauta Travesera,5,,,nada,61.0,yes
136,2024-01-20_22h19.15.872,Unsyncopated_study2,s96,27.0,masculino,right,España,Español,Master degree,no,no,A,2,what,L3,unsyncopated,s1,r2,8,Online_whatL3//a.chu.mo4.none.none.wav,ñe,le,gu,sil2,sa,ji,je,sil,ga,li,sil1,['-'],,,none,none,,,,chu,2,,,,,,,,,,,,,,,2.0,2.0,Español,0.0,Inglés,6.0,2.0,3.0,yes,yes,yes,Piano,5,Saxofón,5,Flauta Travesera,5,,,nada,61.0,yes
137,2024-01-20_22h19.15.872,Unsyncopated_study2,s96,27.0,masculino,right,España,Español,Master degree,no,no,A,2,what,L3,unsyncopated,s2,r1,9,Online_whatL3//a.chu.mo6.888.1776.wav,do,ko,ka,sil,chu,fu,gu,sil1,mo,ga,sil2,['catch'],[2.363099999993892],[2.363099999993892],1.776,beat,0.5870999999938922,0.5870999999938922,"[""space""]",chu,2,,,,,,,,,,,,,,,2.0,2.0,Español,0.0,Inglés,6.0,2.0,3.0,yes,yes,yes,Piano,5,Saxofón,5,Flauta Travesera,5,,,nada,61.0,yes
138,2024-01-20_22h19.15.872,Unsyncopated_study2,s96,27.0,masculino,right,España,Español,Master degree,no,no,A,2,what,L3,unsyncopated,s2,r2,10,Online_whatL3//a.chu.mo5.none.none.wav,ga,ka,li,sil2,ñe,gu,le,sil,sa,di,sil1,['-'],,,none,none,,,,chu,2,,,,,,,,,,,,,,,2.0,2.0,Español,0.0,Inglés,6.0,2.0,3.0,yes,yes,yes,Piano,5,Saxofón,5,Flauta Travesera,5,,,nada,61.0,yes
139,2024-01-20_22h19.15.872,Unsyncopated_study2,s96,27.0,masculino,right,España,Español,Master degree,no,no,A,2,what,L3,unsyncopated,s1,r1,11,Online_whatL3//a.chu.mo7.0.888.wav,chu,ka,do,sil,mo,le,je,sil1,li,fu,sil2,['catch'],[1.6618000000119082],[1.6618000000119082],0.888,beat,0.7738000000119082,0.7738000000119082,"[""space""]",chu,2,,,,,,,,,,,,,,,2.0,2.0,Español,0.0,Inglés,6.0,2.0,3.0,yes,yes,yes,Piano,5,Saxofón,5,Flauta Travesera,5,,,nada,61.0,yes
140,2024-01-20_22h19.15.872,Unsyncopated_study2,s96,27.0,masculino,right,España,Español,Master degree,no,no,A,2,what,L3,unsyncopated,s2,r1,12,Online_whatL3//a.chu.mo0.1110.1998.wav,fu,di,li,sil2,chu,ga,ko,sil,mo,le,sil1,['catch_delay'],[0.7042999999819732],[0.7042999999819732],1.998,no_beat,0.7042999999819732,0.7042999999819732,,chu,2,,,,,,,,,,,,,,,2.0,2.0,Español,0.0,Inglés,6.0,2.0,3.0,yes,yes,yes,Piano,5,Saxofón,5,Flauta Travesera,5,,,nada,61.0,yes
141,2024-01-20_22h19.15.872,Unsyncopated_study2,s96,27.0,masculino,right,España,Español,Master degree,no,no,A,2,what,L3,unsyncopated,s2,r1,13,Online_whatL3//a.chu.mo2.1110.1998.wav,fu,do,je,sil2,chu,gu,li,sil,mo,ka,sil1,['catch_delay'],[0.8444000000059224],[0.8444000000059224],1.998,no_beat,0.8444000000059224,0.8444000000059224,"[""space""]",chu,2,,,,,,,,,,,,,,,2.0,2.0,Español,0.0,Inglés,6.0,2.0,3.0,yes,yes,yes,Piano,5,Saxofón,5,Flauta Travesera,5,,,nada,61.0,yes
142,2024-01-20_22h19.15.872,Unsyncopated_study2,s96,27.0,masculino,right,España,Español,Master degree,no,no,A,2,what,L3,unsyncopated,s1,r2,14,Online_whatL3//a.chu.mo3.none.none.wav,ñe,gu,li,sil,sa,je,do,sil1,ji,ka,sil2,['-'],[0.17840000000592227],[0.17840000000592227],none,none,,,"[""space""]",chu,2,,,,,,,,,,,,,,,2.0,2.0,Español,0.0,Inglés,6.0,2.0,3.0,yes,yes,yes,Piano,5,Saxofón,5,Flauta Travesera,5,,,nada,61.0,yes
143,2024-01-20_22h19.15.872,Unsyncopated_study2,s96,27.0,masculino,right,España,Español,Master degree,no,no,A,2,what,L3,unsyncopated,s1,r2,15,Online_whatL3//a.chu.mo1.none.none.wav,ñe,gu,ji,sil,sa,di,ga,sil2,fu,ka,sil1,['-'],,,none,none,,,,chu,2,,,,,,,,,,,,,,,2.0,2.0,Español,0.0,Inglés,6.0,2.0,3.0,yes,yes,yes,Piano,5,Saxofón,5,Flauta Travesera,5,,,nada,61.0,yes
144,2024-01-20_22h19.15.872,Unsyncopated_study2,s96,27.0,masculino,right,España,Español,Master degree,no,no,A,2,what,L3,unsyncopated,s2,r2,16,Online_whatL3//a.chu.mo8.none.none.wav,je,ji,li,sil2,ñe,ga,do,sil,sa,ko,sil1,['-'],,,none,none,,,,chu,2,,,,,,,,,,,,,,,2.0,2.0,Español,0.0,Inglés,6.0,2.0,3.0,yes,yes,yes,Piano,5,Saxofón,5,Flauta Travesera,5,,,nada,61.0,yes
145,2024-01-20_22h19.15.872,Unsyncopated_study2,s96,27.0,masculino,right,España,Español,Master degree,no,no,A,2,what,L3,unsyncopated,s1,r1,17,Online_whatL3//a.chu.mo10.0.888.wav,chu,je,di,sil,mo,ka,ji,sil2,ko,le,sil1,['catch'],[1.6246999999882519],[1.6246999999882519],0.888,beat,0.7366999999882519,0.7366999999882519,"[""space""]",chu,2,,,,,,,,,,,,,,,2.0,2.0,Español,0.0,Inglés,6.0,2.0,3.0,yes,yes,yes,Piano,5,Saxofón,5,Flauta Travesera,5,,,nada,61.0,yes
146,2024-01-20_22h19.15.872,Unsyncopated_study2,s96,27.0,masculino,right,España,Español,Master degree,no,no,A,2,what,L3,unsyncopated,s2,r2,18,Online_whatL3//a.chu.mo11.none.none.wav,ka,gu,ko,sil,ñe,do,ga,sil1,sa,je,sil2,['-'],,,none,none,,,,chu,2,,,,,,,,,,,,,,,2.0,2.0,Español,0.0,Inglés,6.0,2.0,3.0,yes,yes,yes,Piano,5,Saxofón,5,Flauta Travesera,5,,,nada,61.0,yes
147,2024-01-20_22h19.15.872,Unsyncopated_study2,s96,27.0,masculino,right,España,Español,Master degree,no,no,A,2,what,L3,unsyncopated,s1,r2,19,Online_whatL3//a.chu.mo9.none.none.wav,ñe,ga,gu,sil2,sa,je,ko,sil,le,ka,sil1,['-'],,,none,none,,,,chu,2,,,,,,,,,,,,,,,2.0,2.0,Español,0.0,Inglés,6.0,2.0,3.0,yes,yes,yes,Piano,5,Saxofón,5,Flauta Travesera,5,,,nada,61.0,yes
148,2024-01-20_22h19.15.872,Unsyncopated_study2,s96,27.0,masculino,right,España,Español,Master degree,no,no,A,2,what,L3,unsyncopated,s2,r2,20,Online_whatL3//d.ji.li2.none.none.wav,ga,do,ka,sil2,ñe,fu,di,sil,sa,le,sil1,['-'],,,none,none,,,,li,4,,,,,,,,,,,,,,,2.0,2.0,Español,0.0,Inglés,6.0,2.0,3.0,yes,yes,yes,Piano,5,Saxofón,5,Flauta Travesera,5,,,nada,61.0,yes
149,2024-01-20_22h19.15.872,Unsyncopated_study2,s96,27.0,masculino,right,España,Español,Master degree,no,no,A,2,what,L3,unsyncopated,s1,r1,21,Online_whatL3//d.ji.li1.444.1110.wav,chu,je,ji,sil,mo,li,ko,sil1,le,do,sil2,['catch'],[0.9719000000059168],[0.9719000000059168],0.444,no_beat,0.5279000000059169,0.5279000000059169,"[""space""]",li,4,,,,,,,,,,,,,,,2.0,2.0,Español,0.0,Inglés,6.0,2.0,3.0,yes,yes,yes,Piano,5,Saxofón,5,Flauta Travesera,5,,,nada,61.0,yes
150,2024-01-20_22h19.15.872,Unsyncopated_study2,s96,27.0,masculino,right,España,Español,Master degree,no,no,A,2,what,L3,unsyncopated,s1,r2,22,Online_whatL3//d.ji.li0.1776.1110.wav,ñe,do,fu,sil,sa,li,gu,sil1,ji,ka,sil2,['miss'],,,1.776,beat,,,,li,4,,,,,,,,,,,,,,,2.0,2.0,Español,0.0,Inglés,6.0,2.0,3.0,yes,yes,yes,Piano,5,Saxofón,5,Flauta Travesera,5,,,nada,61.0,yes
151,2024-01-20_22h19.15.872,Unsyncopated_study2,s96,27.0,masculino,right,España,Español,Master degree,no,no,A,2,what,L3,unsyncopated,s1,r2,23,Online_whatL3//d.ji.li3.none.none.wav,ñe,di,le,sil,sa,je,gu,sil2,do,ga,sil1,['-'],,,none,none,,,,li,4,,,,,,,,,,,,,,,2.0,2.0,Español,0.0,Inglés,6.0,2.0,3.0,yes,yes,yes,Piano,5,Saxofón,5,Flauta Travesera,5,,,nada,61.0,yes
152,2024-01-20_22h19.15.872,Unsyncopated_study2,s96,27.0,masculino,right,España,Español,Master degree,no,no,A,2,what,L3,unsyncopated,s1,r2,24,Online_whatL3//b.ñe.sa1.0.888.wav,ñe,le,je,sil,sa,ka,ko,sil2,do,gu,sil1,['miss'],,,0.0,beat,,,,sa,1,,,,,,,,,,,,,,,2.0,2.0,Español,0.0,Inglés,6.0,2.0,3.0,yes,yes,yes,Piano,5,Saxofón,5,Flauta Travesera,5,,,nada,61.0,yes
153,2024-01-20_22h19.15.872,Unsyncopated_study2,s96,27.0,masculino,right,España,Español,Master degree,no,no,A,2,what,L3,unsyncopated,s2,r2,25,Online_whatL3//b.ñe.sa3.888.1776.wav,le,di,gu,sil,ñe,li,je,sil1,sa,ko,sil2,['miss'],,,0.888,beat,,,,sa,1,,,,,,,,,,,,,,,2.0,2.0,Español,0.0,Inglés,6.0,2.0,3.0,yes,yes,yes,Piano,5,Saxofón,5,Flauta Travesera,5,,,nada,61.0,yes
154,2024-01-20_22h19.15.872,Unsyncopated_study2,s96,27.0,masculino,right,España,Español,Master degree,no,no,A,2,what,L3,unsyncopated,s2,r1,26,Online_whatL3//b.ñe.sa0.none.none.wav,ko,le,ji,sil2,chu,do,gu,sil,mo,fu,sil1,['-'],,,none,none,,,,sa,1,,,,,,,,,,,,,,,2.0,2.0,Español,0.0,Inglés,6.0,2.0,3.0,yes,yes,yes,Piano,5,Saxofón,5,Flauta Travesera,5,,,nada,61.0,yes
155,2024-01-20_22h19.15.872,Unsyncopated_study2,s96,27.0,masculino,right,España,Español,Master degree,no,no,A,2,what,L3,unsyncopated,s2,r1,27,Online_whatL3//b.ñe.sa2.none.none.wav,fu,ko,di,sil,chu,le,gu,sil2,mo,je,sil1,['-'],,,none,none,,,,sa,1,,,,,,,,,,,,,,,2.0,2.0,Español,0.0,Inglés,6.0,2.0,3.0,yes,yes,yes,Piano,5,Saxofón,5,Flauta Travesera,5,,,nada,61.0,yes
156,2024-01-20_22h19.15.872,Unsyncopated_study2,s96,27.0,masculino,right,España,Español,Master degree,no,no,A,2,what,L3,unsyncopated,s2,r2,28,Online_whatL3//d.ji.li10.444.0.wav,li,le,ji,sil,ñe,do,di,sil1,sa,ga,sil2,['catch'],[1.020299999981944],[1.020299999981944],0.444,no_beat,0.576299999981944,0.576299999981944,"[""space""]",li,4,,,,,,,,,,,,,,,2.0,2.0,Español,0.0,Inglés,6.0,2.0,3.0,yes,yes,yes,Piano,5,Saxofón,5,Flauta Travesera,5,,,nada,61.0,yes
157,2024-01-20_22h19.15.872,Unsyncopated_study2,s96,27.0,masculino,right,España,Español,Master degree,no,no,A,2,what,L3,unsyncopated,s2,r1,29,Online_whatL3//d.ji.li8.none.none.wav,di,ko,do,sil,chu,ga,le,sil2,mo,je,sil1,['-'],,,none,none,,,,li,4,,,,,,,,,,,,,,,2.0,2.0,Español,0.0,Inglés,6.0,2.0,3.0,yes,yes,yes,Piano,5,Saxofón,5,Flauta Travesera,5,,,nada,61.0,yes
158,2024-01-20_22h19.15.872,Unsyncopated_study2,s96,27.0,masculino,right,España,Español,Master degree,no,no,A,2,what,L3,unsyncopated,s2,r1,30,Online_whatL3//d.ji.li11.none.none.wav,fu,di,ka,sil2,chu,do,je,sil,mo,le,sil1,['-'],,,none,none,,,,li,4,,,,,,,,,,,,,,,2.0,2.0,Español,0.0,Inglés,6.0,2.0,3.0,yes,yes,yes,Piano,5,Saxofón,5,Flauta Travesera,5,,,nada,61.0,yes
159,2024-01-20_22h19.15.872,Unsyncopated_study2,s96,27.0,masculino,right,España,Español,Master degree,no,no,A,2,what,L3,unsyncopated,s2,r1,31,Online_whatL3//d.ji.li9.1554.444.wav,fu,ga,li,sil2,chu,gu,ji,sil,mo,do,sil1,['catch'],[2.5684000000060223],[2.5684000000060223],1.554,no_beat,1.0144000000060225,1.0144000000060225,"[""space""]",li,4,,,,,,,,,,,,,,,2.0,2.0,Español,0.0,Inglés,6.0,2.0,3.0,yes,yes,yes,Piano,5,Saxofón,5,Flauta Travesera,5,,,nada,61.0,yes
160,2024-01-20_22h19.15.872,Unsyncopated_study2,s96,27.0,masculino,right,España,Español,Master degree,no,no,A,2,what,L3,unsyncopated,s2,r2,32,Online_whatL3//b.ñe.sa13.888.1776.wav,di,ga,ji,sil,ñe,li,ko,sil1,sa,le,sil2,['miss'],,,0.888,beat,,,,sa,1,,,,,,,,,,,,,,,2.0,2.0,Español,0.0,Inglés,6.0,2.0,3.0,yes,yes,yes,Piano,5,Saxofón,5,Flauta Travesera,5,,,nada,61.0,yes
161,2024-01-20_22h19.15.872,Unsyncopated_study2,s96,27.0,masculino,right,España,Español,Master degree,no,no,A,2,what,L3,unsyncopated,s1,r2,33,Online_whatL3//b.ñe.sa15.0.888.wav,ñe,li,ka,sil,sa,le,fu,sil2,je,do,sil1,['catch'],[0.7126999999879899],[0.7126999999879899],0.0,beat,0.7126999999879899,0.7126999999879899,"[""space""]",sa,1,,,,,,,,,,,,,,,2.0,2.0,Español,0.0,Inglés,6.0,2.0,3.0,yes,yes,yes,Piano,5,Saxofón,5,Flauta Travesera,5,,,nada,61.0,yes
162,2024-01-20_22h19.15.872,Unsyncopated_study2,s96,27.0,masculino,right,España,Español,Master degree,no,no,A,2,what,L3,unsyncopated,s1,r2,34,Online_whatL3//b.ñe.sa14.0.888.wav,ñe,le,je,sil,sa,li,fu,sil2,ko,ji,sil1,['miss'],,,0.0,beat,,,,sa,1,,,,,,,,,,,,,,,2.0,2.0,Español,0.0,Inglés,6.0,2.0,3.0,yes,yes,yes,Piano,5,Saxofón,5,Flauta Travesera,5,,,nada,61.0,yes
163,2024-01-20_22h19.15.872,Unsyncopated_study2,s96,27.0,masculino,right,España,Español,Master degree,no,no,A,2,what,L3,unsyncopated,s1,r1,35,Online_whatL3//b.ñe.sa12.none.none.wav,chu,ji,di,sil2,mo,ka,li,sil,do,ko,sil1,['-'],,,none,none,,,,sa,1,,,,,,,,,,,,,,,2.0,2.0,Español,0.0,Inglés,6.0,2.0,3.0,yes,yes,yes,Piano,5,Saxofón,5,Flauta Travesera,5,,,nada,61.0,yes
164,2024-01-20_22h19.15.872,Unsyncopated_study2,s96,27.0,masculino,right,España,Español,Master degree,no,no,A,2,what,L3,unsyncopated,s1,r2,36,Online_whatL3//d.ji.li7.1332.1554.wav,ñe,ga,ka,sil2,sa,ji,li,sil,gu,do,sil1,['catch'],[1.9453000000119118],[1.9453000000119118],1.332,no_beat,0.6133000000119118,0.6133000000119118,"[""space""]",li,4,,,,,,,,,,,,,,,2.0,2.0,Español,0.0,Inglés,6.0,2.0,3.0,yes,yes,yes,Piano,5,Saxofón,5,Flauta Travesera,5,,,nada,61.0,yes
165,2024-01-20_22h19.15.872,Unsyncopated_study2,s96,27.0,masculino,right,España,Español,Master degree,no,no,A,2,what,L3,unsyncopated,s1,r1,37,Online_whatL3//d.ji.li4.none.none.wav,chu,je,ko,sil,mo,ga,le,sil2,do,di,sil1,['-'],,,none,none,,,,li,4,,,,,,,,,,,,,,,2.0,2.0,Español,0.0,Inglés,6.0,2.0,3.0,yes,yes,yes,Piano,5,Saxofón,5,Flauta Travesera,5,,,nada,61.0,yes
166,2024-01-20_22h19.15.872,Unsyncopated_study2,s96,27.0,masculino,right,España,Español,Master degree,no,no,A,2,what,L3,unsyncopated,s2,r2,38,Online_whatL3//d.ji.li6.222.1110.wav,ko,ji,ka,sil,ñe,li,di,sil2,sa,ga,sil1,['catch'],[0.820400000005975],[0.820400000005975],0.222,no_beat,0.598400000005975,0.598400000005975,"[""space""]",li,4,,,,,,,,,,,,,,,2.0,2.0,Español,0.0,Inglés,6.0,2.0,3.0,yes,yes,yes,Piano,5,Saxofón,5,Flauta Travesera,5,,,nada,61.0,yes
167,2024-01-20_22h19.15.872,Unsyncopated_study2,s96,27.0,masculino,right,España,Español,Master degree,no,no,A,2,what,L3,unsyncopated,s2,r1,39,Online_whatL3//d.ji.li5.none.none.wav,le,ka,di,sil,chu,fu,ko,sil2,mo,gu,sil1,['-'],,,none,none,,,,li,4,,,,,,,,,,,,,,,2.0,2.0,Español,0.0,Inglés,6.0,2.0,3.0,yes,yes,yes,Piano,5,Saxofón,5,Flauta Travesera,5,,,nada,61.0,yes
168,2024-01-20_22h19.15.872,Unsyncopated_study2,s96,27.0,masculino,right,España,Español,Master degree,no,no,A,2,what,L3,unsyncopated,s2,r1,40,Online_whatL3//c.gu.je5.none.none.wav,do,di,ji,sil,chu,li,ka,sil1,mo,le,sil2,['-'],,,none,none,,,,je,3,,,,,,,,,,,,,,,2.0,2.0,Español,0.0,Inglés,6.0,2.0,3.0,yes,yes,yes,Piano,5,Saxofón,5,Flauta Travesera,5,,,nada,61.0,yes
169,2024-01-20_22h19.15.872,Unsyncopated_study2,s96,27.0,masculino,right,España,Español,Master degree,no,no,A,2,what,L3,unsyncopated,s2,r2,41,Online_whatL3//c.gu.je4.1110.222.wav,do,je,di,sil,ñe,gu,ji,sil1,sa,le,sil2,['miss'],,,1.11,no_beat,,,,je,3,,,,,,,,,,,,,,,2.0,2.0,Español,0.0,Inglés,6.0,2.0,3.0,yes,yes,yes,Piano,5,Saxofón,5,Flauta Travesera,5,,,nada,61.0,yes
170,2024-01-20_22h19.15.872,Unsyncopated_study2,s96,27.0,masculino,right,España,Español,Master degree,no,no,A,2,what,L3,unsyncopated,s2,r2,42,Online_whatL3//c.gu.je7.none.none.wav,ga,li,do,sil,ñe,ka,ko,sil1,sa,le,sil2,['-'],,,none,none,,,,je,3,,,,,,,,,,,,,,,2.0,2.0,Español,0.0,Inglés,6.0,2.0,3.0,yes,yes,yes,Piano,5,Saxofón,5,Flauta Travesera,5,,,nada,61.0,yes
171,2024-01-20_22h19.15.872,Unsyncopated_study2,s96,27.0,masculino,right,España,Español,Master degree,no,no,A,2,what,L3,unsyncopated,s1,r1,43,Online_whatL3//c.gu.je6.222.444.wav,chu,gu,je,sil2,mo,fu,ko,sil,ji,ka,sil1,['miss'],,,0.222,no_beat,,,,je,3,,,,,,,,,,,,,,,2.0,2.0,Español,0.0,Inglés,6.0,2.0,3.0,yes,yes,yes,Piano,5,Saxofón,5,Flauta Travesera,5,,,nada,61.0,yes
172,2024-01-20_22h19.15.872,Unsyncopated_study2,s96,27.0,masculino,right,España,Español,Master degree,no,no,A,2,what,L3,unsyncopated,s2,r1,44,Online_whatL3//c.gu.je12.none.none.wav,ga,di,li,sil,chu,do,fu,sil2,mo,le,sil1,['-'],,,none,none,,,,je,3,,,,,,,,,,,,,,,2.0,2.0,Español,0.0,Inglés,6.0,2.0,3.0,yes,yes,yes,Piano,5,Saxofón,5,Flauta Travesera,5,,,nada,61.0,yes
173,2024-01-20_22h19.15.872,Unsyncopated_study2,s96,27.0,masculino,right,España,Español,Master degree,no,no,A,2,what,L3,unsyncopated,s2,r1,45,Online_whatL3//c.gu.je15.1332.0.wav,je,ji,ko,sil,chu,ka,gu,sil2,mo,ga,sil1,['miss'],,,1.332,no_beat,,,,je,3,,,,,,,,,,,,,,,2.0,2.0,Español,0.0,Inglés,6.0,2.0,3.0,yes,yes,yes,Piano,5,Saxofón,5,Flauta Travesera,5,,,nada,61.0,yes
174,2024-01-20_22h19.15.872,Unsyncopated_study2,s96,27.0,masculino,right,España,Español,Master degree,no,no,A,2,what,L3,unsyncopated,s1,r2,46,Online_whatL3//c.gu.je13.1332.222.wav,ñe,je,fu,sil,sa,ko,gu,sil1,di,li,sil2,['miss'],,,1.332,no_beat,,,,je,3,,,,,,,,,,,,,,,2.0,2.0,Español,0.0,Inglés,6.0,2.0,3.0,yes,yes,yes,Piano,5,Saxofón,5,Flauta Travesera,5,,,nada,61.0,yes
175,2024-01-20_22h19.15.872,Unsyncopated_study2,s96,27.0,masculino,right,España,Español,Master degree,no,no,A,2,what,L3,unsyncopated,s2,r1,47,Online_whatL3//c.gu.je14.none.none.wav,do,ga,fu,sil2,chu,li,ji,sil,mo,ka,sil1,['-'],,,none,none,,,,je,3,,,,,,,,,,,,,,,2.0,2.0,Español,0.0,Inglés,6.0,2.0,3.0,yes,yes,yes,Piano,5,Saxofón,5,Flauta Travesera,5,,,nada,61.0,yes
176,2024-01-20_22h19.15.872,Unsyncopated_study2,s96,27.0,masculino,right,España,Español,Master degree,no,no,A,2,what,L3,unsyncopated,s2,r2,48,Online_whatL3//a.chu.mo19.none.none.wav,ga,gu,ji,sil,ñe,ko,je,sil2,sa,li,sil1,['false alarm'],[1.096200000017916],[1.096200000017916],none,none,,,"[""space""]",chu,2,,,,,,,,,,,,,,,2.0,2.0,Español,0.0,Inglés,6.0,2.0,3.0,yes,yes,yes,Piano,5,Saxofón,5,Flauta Travesera,5,,,nada,61.0,yes
177,2024-01-20_22h19.15.872,Unsyncopated_study2,s96,27.0,masculino,right,España,Español,Master degree,no,no,A,2,what,L3,unsyncopated,s2,r1,49,Online_whatL3//a.chu.mo17.888.1998.wav,je,le,ji,sil,chu,do,fu,sil2,mo,li,sil1,['miss'],,,1.998,no_beat,,,,chu,2,,,,,,,,,,,,,,,2.0,2.0,Español,0.0,Inglés,6.0,2.0,3.0,yes,yes,yes,Piano,5,Saxofón,5,Flauta Travesera,5,,,nada,61.0,yes
178,2024-01-20_22h19.15.872,Unsyncopated_study2,s96,27.0,masculino,right,España,Español,Master degree,no,no,A,2,what,L3,unsyncopated,s1,r1,50,Online_whatL3//a.chu.mo16.0.1110.wav,chu,ga,gu,sil2,mo,li,fu,sil,do,ka,sil1,"['false alarm', 'catch']","[0.714099999994005, 1.8304999999998017]",[1.8304999999998017],1.11,no_beat,0.7204999999998016,0.7204999999998016,"[""space"",""space""]",chu,2,,,,,,,,,,,,,,,2.0,2.0,Español,0.0,Inglés,6.0,2.0,3.0,yes,yes,yes,Piano,5,Saxofón,5,Flauta Travesera,5,,,nada,61.0,yes
179,2024-01-20_22h19.15.872,Unsyncopated_study2,s96,27.0,masculino,right,España,Español,Master degree,no,no,A,2,what,L3,unsyncopated,s1,r1,51,Online_whatL3//a.chu.mo18.0.888.wav,chu,le,ko,sil,mo,ka,li,sil1,gu,je,sil2,['catch'],[1.7379000000059932],[1.7379000000059932],0.888,beat,0.8499000000059932,0.8499000000059932,"[""space""]",chu,2,,,,,,,,,,,,,,,2.0,2.0,Español,0.0,Inglés,6.0,2.0,3.0,yes,yes,yes,Piano,5,Saxofón,5,Flauta Travesera,5,,,nada,61.0,yes
180,2024-01-20_22h19.15.872,Unsyncopated_study2,s96,27.0,masculino,right,España,Español,Master degree,no,no,A,2,what,L3,unsyncopated,s2,r1,52,Online_whatL3//a.chu.mo27.888.1776.wav,ka,ga,ji,sil,chu,je,di,sil1,mo,gu,sil2,['catch'],[2.6195000000000164],[2.6195000000000164],1.776,beat,0.8435000000000163,0.8435000000000163,"[""space""]",chu,2,,,,,,,,,,,,,,,2.0,2.0,Español,0.0,Inglés,6.0,2.0,3.0,yes,yes,yes,Piano,5,Saxofón,5,Flauta Travesera,5,,,nada,61.0,yes
181,2024-01-20_22h19.15.872,Unsyncopated_study2,s96,27.0,masculino,right,España,Español,Master degree,no,no,A,2,what,L3,unsyncopated,s2,r2,53,Online_whatL3//a.chu.mo25.none.none.wav,le,di,do,sil2,ñe,ga,li,sil,sa,je,sil1,['-'],,,none,none,,,,chu,2,,,,,,,,,,,,,,,2.0,2.0,Español,0.0,Inglés,6.0,2.0,3.0,yes,yes,yes,Piano,5,Saxofón,5,Flauta Travesera,5,,,nada,61.0,yes
182,2024-01-20_22h19.15.872,Unsyncopated_study2,s96,27.0,masculino,right,España,Español,Master degree,no,no,A,2,what,L3,unsyncopated,s1,r1,54,Online_whatL3//a.chu.mo26.0.888.wav,chu,ji,li,sil,mo,ko,fu,sil2,di,gu,sil1,['catch'],[1.6380000000001473],[1.6380000000001473],0.888,beat,0.7500000000001473,0.7500000000001473,"[""space""]",chu,2,,,,,,,,,,,,,,,2.0,2.0,Español,0.0,Inglés,6.0,2.0,3.0,yes,yes,yes,Piano,5,Saxofón,5,Flauta Travesera,5,,,nada,61.0,yes
183,2024-01-20_22h19.15.872,Unsyncopated_study2,s96,27.0,masculino,right,España,Español,Master degree,no,no,A,2,what,L3,unsyncopated,s1,r1,55,Online_whatL3//a.chu.mo24.0.1110.wav,chu,gu,ka,sil2,mo,le,ji,sil,do,li,sil1,['catch'],[1.6940999999940232],[1.6940999999940232],1.11,no_beat,0.5840999999940231,0.5840999999940231,"[""space""]",chu,2,,,,,,,,,,,,,,,2.0,2.0,Español,0.0,Inglés,6.0,2.0,3.0,yes,yes,yes,Piano,5,Saxofón,5,Flauta Travesera,5,,,nada,61.0,yes
184,2024-01-20_22h19.15.872,Unsyncopated_study2,s96,27.0,masculino,right,España,Español,Master degree,no,no,A,2,what,L3,unsyncopated,s1,r1,56,Online_whatL3//b.ñe.sa4.none.none.wav,chu,ka,le,sil,mo,je,ga,sil1,do,ji,sil2,['-'],,,none,none,,,,sa,1,,,,,,,,,,,,,,,2.0,2.0,Español,0.0,Inglés,6.0,2.0,3.0,yes,yes,yes,Piano,5,Saxofón,5,Flauta Travesera,5,,,nada,61.0,yes
185,2024-01-20_22h19.15.872,Unsyncopated_study2,s96,27.0,masculino,right,España,Español,Master degree,no,no,A,2,what,L3,unsyncopated,s1,r1,57,Online_whatL3//b.ñe.sa6.none.none.wav,chu,ji,gu,sil,mo,li,fu,sil2,ka,do,sil1,['-'],,,none,none,,,,sa,1,,,,,,,,,,,,,,,2.0,2.0,Español,0.0,Inglés,6.0,2.0,3.0,yes,yes,yes,Piano,5,Saxofón,5,Flauta Travesera,5,,,nada,61.0,yes
186,2024-01-20_22h19.15.872,Unsyncopated_study2,s96,27.0,masculino,right,España,Español,Master degree,no,no,A,2,what,L3,unsyncopated,s2,r2,58,Online_whatL3//b.ñe.sa5.888.1998.wav,di,je,do,sil,ñe,gu,li,sil2,sa,le,sil1,['catch'],[1.3886999999881482],[1.3886999999881482],0.888,beat,0.5006999999881482,0.5006999999881482,"[""space""]",sa,1,,,,,,,,,,,,,,,2.0,2.0,Español,0.0,Inglés,6.0,2.0,3.0,yes,yes,yes,Piano,5,Saxofón,5,Flauta Travesera,5,,,nada,61.0,yes
187,2024-01-20_22h19.15.872,Unsyncopated_study2,s96,27.0,masculino,right,España,Español,Master degree,no,no,A,2,what,L3,unsyncopated,s2,r1,59,Online_whatL3//b.ñe.sa7.none.none.wav,gu,di,le,sil,chu,ga,ka,sil1,mo,ko,sil2,['-'],,,none,none,,,,sa,1,,,,,,,,,,,,,,,2.0,2.0,Español,0.0,Inglés,6.0,2.0,3.0,yes,yes,yes,Piano,5,Saxofón,5,Flauta Travesera,5,,,nada,61.0,yes
188,2024-01-20_22h19.15.872,Unsyncopated_study2,s96,27.0,masculino,right,España,Español,Master degree,no,no,A,2,what,L3,unsyncopated,s1,r2,60,Online_whatL3//c.gu.je25.none.none.wav,ñe,ko,ka,sil,sa,do,li,sil2,di,ji,sil1,['-'],,,none,none,,,,je,3,,,,,,,,,,,,,,,2.0,2.0,Español,0.0,Inglés,6.0,2.0,3.0,yes,yes,yes,Piano,5,Saxofón,5,Flauta Travesera,5,,,nada,61.0,yes
189,2024-01-20_22h19.15.872,Unsyncopated_study2,s96,27.0,masculino,right,España,Español,Master degree,no,no,A,2,what,L3,unsyncopated,s1,r1,61,Online_whatL3//c.gu.je26.none.none.wav,chu,di,le,sil,mo,li,ko,sil2,ka,fu,sil1,['-'],,,none,none,,,,je,3,,,,,,,,,,,,,,,2.0,2.0,Español,0.0,Inglés,6.0,2.0,3.0,yes,yes,yes,Piano,5,Saxofón,5,Flauta Travesera,5,,,nada,61.0,yes
190,2024-01-20_22h19.15.872,Unsyncopated_study2,s96,27.0,masculino,right,España,Español,Master degree,no,no,A,2,what,L3,unsyncopated,s1,r2,62,Online_whatL3//c.gu.je27.1776.222.wav,ñe,je,li,sil,sa,ji,ga,sil1,gu,fu,sil2,['catch_delay'],[1.022999999999991],[1.022999999999991],1.776,beat,1.022999999999991,1.022999999999991,,je,3,,,,,,,,,,,,,,,2.0,2.0,Español,0.0,Inglés,6.0,2.0,3.0,yes,yes,yes,Piano,5,Saxofón,5,Flauta Travesera,5,,,nada,61.0,yes
191,2024-01-20_22h19.15.872,Unsyncopated_study2,s96,27.0,masculino,right,España,Español,Master degree,no,no,A,2,what,L3,unsyncopated,s2,r2,63,Online_whatL3//c.gu.je24.222.1110.wav,fu,gu,do,sil,ñe,je,di,sil1,sa,ga,sil2,['miss'],[0.1349999999999909],[0.1349999999999909],0.222,no_beat,,,"[""space""]",je,3,,,,,,,,,,,,,,,2.0,2.0,Español,0.0,Inglés,6.0,2.0,3.0,yes,yes,yes,Piano,5,Saxofón,5,Flauta Travesera,5,,,nada,61.0,yes
192,2024-01-20_22h19.15.872,Unsyncopated_study2,s96,27.0,masculino,right,España,Español,Master degree,no,no,A,2,what,L3,unsyncopated,s1,r2,64,Online_whatL3//b.ñe.sa22.0.1110.wav,ñe,gu,fu,sil2,sa,je,ga,sil,do,ko,sil1,['catch'],[0.6583000000118773],[0.6583000000118773],0.0,beat,0.6583000000118773,0.6583000000118773,"[""space""]",sa,1,,,,,,,,,,,,,,,2.0,2.0,Español,0.0,Inglés,6.0,2.0,3.0,yes,yes,yes,Piano,5,Saxofón,5,Flauta Travesera,5,,,nada,61.0,yes
193,2024-01-20_22h19.15.872,Unsyncopated_study2,s96,27.0,masculino,right,España,Español,Master degree,no,no,A,2,what,L3,unsyncopated,s1,r2,65,Online_whatL3//b.ñe.sa21.0.1110.wav,ñe,do,li,sil2,sa,je,ko,sil,le,ga,sil1,['miss'],,,0.0,beat,,,,sa,1,,,,,,,,,,,,,,,2.0,2.0,Español,0.0,Inglés,6.0,2.0,3.0,yes,yes,yes,Piano,5,Saxofón,5,Flauta Travesera,5,,,nada,61.0,yes
194,2024-01-20_22h19.15.872,Unsyncopated_study2,s96,27.0,masculino,right,España,Español,Master degree,no,no,A,2,what,L3,unsyncopated,s1,r1,66,Online_whatL3//b.ñe.sa20.none.none.wav,chu,li,do,sil,mo,je,gu,sil1,ga,le,sil2,['-'],,,none,none,,,,sa,1,,,,,,,,,,,,,,,2.0,2.0,Español,0.0,Inglés,6.0,2.0,3.0,yes,yes,yes,Piano,5,Saxofón,5,Flauta Travesera,5,,,nada,61.0,yes
195,2024-01-20_22h19.15.872,Unsyncopated_study2,s96,27.0,masculino,right,España,Español,Master degree,no,no,A,2,what,L3,unsyncopated,s2,r1,67,Online_whatL3//b.ñe.sa23.none.none.wav,le,je,do,sil,chu,ji,ka,sil2,mo,ko,sil1,['-'],,,none,none,,,,sa,1,,,,,,,,,,,,,,,2.0,2.0,Español,0.0,Inglés,6.0,2.0,3.0,yes,yes,yes,Piano,5,Saxofón,5,Flauta Travesera,5,,,nada,61.0,yes
196,2024-01-20_22h19.15.872,Unsyncopated_study2,s96,27.0,masculino,right,España,Español,Master degree,no,no,A,2,what,L3,unsyncopated,s1,r1,68,Online_whatL3//c.gu.je16.1332.444.wav,chu,fu,je,sil,mo,di,gu,sil1,li,ko,sil2,['miss'],,,1.332,no_beat,,,,je,3,,,,,,,,,,,,,,,2.0,2.0,Español,0.0,Inglés,6.0,2.0,3.0,yes,yes,yes,Piano,5,Saxofón,5,Flauta Travesera,5,,,nada,61.0,yes
197,2024-01-20_22h19.15.872,Unsyncopated_study2,s96,27.0,masculino,right,España,Español,Master degree,no,no,A,2,what,L3,unsyncopated,s2,r2,69,Online_whatL3//c.gu.je18.none.none.wav,ko,do,ji,sil,ñe,li,ga,sil2,sa,di,sil1,['-'],,,none,none,,,,je,3,,,,,,,,,,,,,,,2.0,2.0,Español,0.0,Inglés,6.0,2.0,3.0,yes,yes,yes,Piano,5,Saxofón,5,Flauta Travesera,5,,,nada,61.0,yes
198,2024-01-20_22h19.15.872,Unsyncopated_study2,s96,27.0,masculino,right,España,Español,Master degree,no,no,A,2,what,L3,unsyncopated,s1,r2,70,Online_whatL3//c.gu.je17.none.none.wav,ñe,ga,li,sil2,sa,ko,ji,sil,do,ka,sil1,['-'],,,none,none,,,,je,3,,,,,,,,,,,,,,,2.0,2.0,Español,0.0,Inglés,6.0,2.0,3.0,yes,yes,yes,Piano,5,Saxofón,5,Flauta Travesera,5,,,nada,61.0,yes
199,2024-01-20_22h19.15.872,Unsyncopated_study2,s96,27.0,masculino,right,España,Español,Master degree,no,no,A,2,what,L3,unsyncopated,s2,r2,71,Online_whatL3//c.gu.je19.0.1110.wav,gu,do,li,sil,ñe,je,ji,sil2,sa,di,sil1,['catch'],[0.5850000000000364],[0.5850000000000364],0.0,beat,0.5850000000000364,0.5850000000000364,"[""space""]",je,3,,,,,,,,,,,,,,,2.0,2.0,Español,0.0,Inglés,6.0,2.0,3.0,yes,yes,yes,Piano,5,Saxofón,5,Flauta Travesera,5,,,nada,61.0,yes
200,2024-01-20_22h19.15.872,Unsyncopated_study2,s96,27.0,masculino,right,España,Español,Master degree,no,no,A,2,what,L3,unsyncopated,s1,r1,72,Online_whatL3//d.ji.li26.none.none.wav,chu,gu,je,sil,mo,di,do,sil1,ka,ga,sil2,['-'],,,none,none,,,,li,4,,,,,,,,,,,,,,,2.0,2.0,Español,0.0,Inglés,6.0,2.0,3.0,yes,yes,yes,Piano,5,Saxofón,5,Flauta Travesera,5,,,nada,61.0,yes
201,2024-01-20_22h19.15.872,Unsyncopated_study2,s96,27.0,masculino,right,España,Español,Master degree,no,no,A,2,what,L3,unsyncopated,s2,r1,73,Online_whatL3//d.ji.li27.222.1110.wav,gu,ji,do,sil,chu,li,ga,sil1,mo,fu,sil2,['catch'],[0.8731000000238964],[0.8731000000238964],0.222,no_beat,0.6511000000238965,0.6511000000238965,"[""space""]",li,4,,,,,,,,,,,,,,,2.0,2.0,Español,0.0,Inglés,6.0,2.0,3.0,yes,yes,yes,Piano,5,Saxofón,5,Flauta Travesera,5,,,nada,61.0,yes
202,2024-01-20_22h19.15.872,Unsyncopated_study2,s96,27.0,masculino,right,España,Español,Master degree,no,no,A,2,what,L3,unsyncopated,s1,r2,74,Online_whatL3//d.ji.li25.none.none.wav,ñe,gu,ko,sil2,sa,ka,le,sil,do,ga,sil1,['-'],,,none,none,,,,li,4,,,,,,,,,,,,,,,2.0,2.0,Español,0.0,Inglés,6.0,2.0,3.0,yes,yes,yes,Piano,5,Saxofón,5,Flauta Travesera,5,,,nada,61.0,yes
203,2024-01-20_22h19.15.872,Unsyncopated_study2,s96,27.0,masculino,right,España,Español,Master degree,no,no,A,2,what,L3,unsyncopated,s1,r1,75,Online_whatL3//d.ji.li24.1332.1554.wav,chu,di,ko,sil2,mo,ji,li,sil,do,gu,sil1,['catch'],[1.8632999999820186],[1.8632999999820186],1.332,no_beat,0.5312999999820185,0.5312999999820185,"[""space""]",li,4,,,,,,,,,,,,,,,2.0,2.0,Español,0.0,Inglés,6.0,2.0,3.0,yes,yes,yes,Piano,5,Saxofón,5,Flauta Travesera,5,,,nada,61.0,yes
204,2024-01-20_22h19.15.872,Unsyncopated_study2,s96,27.0,masculino,right,España,Español,Master degree,no,no,A,2,what,L3,unsyncopated,s1,r1,76,Online_whatL3//d.ji.li31.1332.444.wav,chu,gu,li,sil,mo,ka,ji,sil2,ga,je,sil1,['catch'],[2.1198000000117645],[2.1198000000117645],1.332,no_beat,0.7878000000117644,0.7878000000117644,"[""space""]",li,4,,,,,,,,,,,,,,,2.0,2.0,Español,0.0,Inglés,6.0,2.0,3.0,yes,yes,yes,Piano,5,Saxofón,5,Flauta Travesera,5,,,nada,61.0,yes
205,2024-01-20_22h19.15.872,Unsyncopated_study2,s96,27.0,masculino,right,España,Español,Master degree,no,no,A,2,what,L3,unsyncopated,s2,r2,77,Online_whatL3//d.ji.li30.none.none.wav,gu,di,fu,sil,ñe,je,le,sil1,sa,ko,sil2,['-'],,,none,none,,,,li,4,,,,,,,,,,,,,,,2.0,2.0,Español,0.0,Inglés,6.0,2.0,3.0,yes,yes,yes,Piano,5,Saxofón,5,Flauta Travesera,5,,,nada,61.0,yes
206,2024-01-20_22h19.15.872,Unsyncopated_study2,s96,27.0,masculino,right,España,Español,Master degree,no,no,A,2,what,L3,unsyncopated,s1,r2,78,Online_whatL3//d.ji.li28.none.none.wav,ñe,ka,di,sil2,sa,le,ko,sil,je,ga,sil1,['-'],,,none,none,,,,li,4,,,,,,,,,,,,,,,2.0,2.0,Español,0.0,Inglés,6.0,2.0,3.0,yes,yes,yes,Piano,5,Saxofón,5,Flauta Travesera,5,,,nada,61.0,yes
207,2024-01-20_22h19.15.872,Unsyncopated_study2,s96,27.0,masculino,right,España,Español,Master degree,no,no,A,2,what,L3,unsyncopated,s2,r2,79,Online_whatL3//d.ji.li29.1554.222.wav,je,li,ga,sil2,ñe,do,ji,sil,sa,gu,sil1,['catch'],[2.1363000000119428],[2.1363000000119428],1.554,no_beat,0.5823000000119427,0.5823000000119427,"[""space""]",li,4,,,,,,,,,,,,,,,2.0,2.0,Español,0.0,Inglés,6.0,2.0,3.0,yes,yes,yes,Piano,5,Saxofón,5,Flauta Travesera,5,,,nada,61.0,yes
208,2024-01-20_22h19.15.872,Unsyncopated_study2,s96,27.0,masculino,right,España,Español,Master degree,no,no,A,2,what,L3,unsyncopated,s2,r1,80,Online_whatL3//d.ji.li19.1554.222.wav,le,li,do,sil2,chu,ka,ji,sil,mo,di,sil1,['catch'],[2.025800000011941],[2.025800000011941],1.554,no_beat,0.4718000000119409,0.4718000000119409,"[""space""]",li,4,,,,,,,,,,,,,,,2.0,2.0,Español,0.0,Inglés,6.0,2.0,3.0,yes,yes,yes,Piano,5,Saxofón,5,Flauta Travesera,5,,,nada,61.0,yes
209,2024-01-20_22h19.15.872,Unsyncopated_study2,s96,27.0,masculino,right,España,Español,Master degree,no,no,A,2,what,L3,unsyncopated,s1,r2,81,Online_whatL3//d.ji.li17.none.none.wav,ñe,ko,gu,sil,sa,le,do,sil2,je,ga,sil1,['-'],,,none,none,,,,li,4,,,,,,,,,,,,,,,2.0,2.0,Español,0.0,Inglés,6.0,2.0,3.0,yes,yes,yes,Piano,5,Saxofón,5,Flauta Travesera,5,,,nada,61.0,yes
210,2024-01-20_22h19.15.872,Unsyncopated_study2,s96,27.0,masculino,right,España,Español,Master degree,no,no,A,2,what,L3,unsyncopated,s1,r2,82,Online_whatL3//d.ji.li18.222.1332.wav,ñe,ji,di,sil2,sa,li,gu,sil,ko,fu,sil1,['catch'],[0.9549999999999272],[0.9549999999999272],0.222,no_beat,0.7329999999999273,0.7329999999999273,"[""space""]",li,4,,,,,,,,,,,,,,,2.0,2.0,Español,0.0,Inglés,6.0,2.0,3.0,yes,yes,yes,Piano,5,Saxofón,5,Flauta Travesera,5,,,nada,61.0,yes
211,2024-01-20_22h19.15.872,Unsyncopated_study2,s96,27.0,masculino,right,España,Español,Master degree,no,no,A,2,what,L3,unsyncopated,s1,r2,83,Online_whatL3//d.ji.li16.1776.1110.wav,ñe,le,ko,sil,sa,li,je,sil1,ji,fu,sil2,['catch'],[1.8699000000058277],[1.8699000000058277],1.776,beat,0.0939000000058276,0.0939000000058276,"[""space""]",li,4,,,,,,,,,,,,,,,2.0,2.0,Español,0.0,Inglés,6.0,2.0,3.0,yes,yes,yes,Piano,5,Saxofón,5,Flauta Travesera,5,,,nada,61.0,yes
212,2024-01-20_22h19.15.872,Unsyncopated_study2,s96,27.0,masculino,right,España,Español,Master degree,no,no,A,2,what,L3,unsyncopated,s2,r1,84,Online_whatL3//c.gu.je20.0.1110.wav,gu,li,ko,sil,chu,je,ga,sil2,mo,le,sil1,['catch'],[0.3894999999999982],[0.3894999999999982],0.0,beat,0.3894999999999982,0.3894999999999982,"[""space""]",je,3,,,,,,,,,,,,,,,2.0,2.0,Español,0.0,Inglés,6.0,2.0,3.0,yes,yes,yes,Piano,5,Saxofón,5,Flauta Travesera,5,,,nada,61.0,yes
213,2024-01-20_22h19.15.872,Unsyncopated_study2,s96,27.0,masculino,right,España,Español,Master degree,no,no,A,2,what,L3,unsyncopated,s1,r2,85,Online_whatL3//c.gu.je23.222.1110.wav,ñe,gu,li,sil,sa,je,do,sil2,ka,ko,sil1,['miss'],,,0.222,no_beat,,,,je,3,,,,,,,,,,,,,,,2.0,2.0,Español,0.0,Inglés,6.0,2.0,3.0,yes,yes,yes,Piano,5,Saxofón,5,Flauta Travesera,5,,,nada,61.0,yes
214,2024-01-20_22h19.15.872,Unsyncopated_study2,s96,27.0,masculino,right,España,Español,Master degree,no,no,A,2,what,L3,unsyncopated,s1,r1,86,Online_whatL3//c.gu.je21.1332.444.wav,chu,li,je,sil,mo,ka,gu,sil1,do,ga,sil2,['catch'],[1.9188999999762473],[1.9188999999762473],1.332,no_beat,0.5868999999762472,0.5868999999762472,"[""space""]",je,3,,,,,,,,,,,,,,,2.0,2.0,Español,0.0,Inglés,6.0,2.0,3.0,yes,yes,yes,Piano,5,Saxofón,5,Flauta Travesera,5,,,nada,61.0,yes
215,2024-01-20_22h19.15.872,Unsyncopated_study2,s96,27.0,masculino,right,España,Español,Master degree,no,no,A,2,what,L3,unsyncopated,s2,r2,87,Online_whatL3//c.gu.je22.0.444.wav,gu,li,je,sil2,ñe,ji,ko,sil,sa,ga,sil1,['miss'],,,0.0,beat,,,,je,3,,,,,,,,,,,,,,,2.0,2.0,Español,0.0,Inglés,6.0,2.0,3.0,yes,yes,yes,Piano,5,Saxofón,5,Flauta Travesera,5,,,nada,61.0,yes
216,2024-01-20_22h19.15.872,Unsyncopated_study2,s96,27.0,masculino,right,España,Español,Master degree,no,no,A,2,what,L3,unsyncopated,s1,r1,88,Online_whatL3//a.chu.mo30.0.888.wav,chu,ko,li,sil,mo,gu,le,sil2,je,fu,sil1,['catch'],[1.4136999999880118],[1.4136999999880118],0.888,beat,0.5256999999880118,0.5256999999880118,"[""space""]",chu,2,,,,,,,,,,,,,,,2.0,2.0,Español,0.0,Inglés,6.0,2.0,3.0,yes,yes,yes,Piano,5,Saxofón,5,Flauta Travesera,5,,,nada,61.0,yes
217,2024-01-20_22h19.15.872,Unsyncopated_study2,s96,27.0,masculino,right,España,Español,Master degree,no,no,A,2,what,L3,unsyncopated,s1,r2,89,Online_whatL3//a.chu.mo29.none.none.wav,ñe,do,di,sil,sa,gu,ko,sil1,le,ka,sil2,['-'],,,none,none,,,,chu,2,,,,,,,,,,,,,,,2.0,2.0,Español,0.0,Inglés,6.0,2.0,3.0,yes,yes,yes,Piano,5,Saxofón,5,Flauta Travesera,5,,,nada,61.0,yes
218,2024-01-20_22h19.15.872,Unsyncopated_study2,s96,27.0,masculino,right,España,Español,Master degree,no,no,A,2,what,L3,unsyncopated,s2,r2,90,Online_whatL3//a.chu.mo31.none.none.wav,ka,di,ko,sil,ñe,ji,fu,sil1,sa,le,sil2,['-'],,,none,none,,,,chu,2,,,,,,,,,,,,,,,2.0,2.0,Español,0.0,Inglés,6.0,2.0,3.0,yes,yes,yes,Piano,5,Saxofón,5,Flauta Travesera,5,,,nada,61.0,yes
