Unnamed: 0,date,expName,participant,age,sex,hand,residence,native_lang,education_level,lang_deficit,aud_deficit,group,block,condition,language,rhythm,rule structure online,rule type online,order_trial_on,trial_online,s1,s2,s3,s4,s5,s6,s7,s8,s9,s10,s11,catch_syll_resp,rts_syll_catch,clean_rts,time_syll,beat_no_beat,catch_rtsTR,catch_rts,syllable_catch.keys,cond_syll,syll_to_catch,test_offline,block_off,condition_off,rhythm_off,rule,rule_str_off,rule_norule,conds_offline,language_off,Partz_no_partm.keys,Partz_no_partm.rt,security_1_7.keys,accuracy,security_1_7.rt,n_lang,n_lang_used,lang_1,age_l1,lang_2,age_l2,ability_learn_l2,tendence_mix_lan,music_experience,muisc_use,partiture,instr_1,age_M1,preguntas_musica1,BMRQ_answer.response,final comment,BMRQ_Score,bilingual
0,2024-04-14_13h16.07.122,Experiment4_uns,s180,24.0,masculino,right,España,Catalan Castellano,Bachelor degree,no,no,B,1,when,L2,unsyncopated,when,when,0,Online_whenL2//a.du31.222.wav,ba,du,go,sil,to,si,cha,sil1,mi,bi,sil2,['catch'],[0.8339999999999463],[0.8339999999999463],0.222,no_beat,0.6119999999999464,0.6119999999999464,"[""space""]",du,1,testWhenL2Uns//r2.s1.0.wav,1.0,when,unsyncopated,b,s1,rule,rule,L2,z,1.911,7.0,1.0,3.29,2.0,2.0,Catalan,0.0,Castellano,0.0,2.0,3.0,yes,no,no,Flauta,8,1. Cuando comparto música con alguien siento una complicidad especial con aquella persona.,4.0,  ,72.0,yes
1,2024-04-14_13h16.07.122,Experiment4_uns,s180,24.0,masculino,right,España,Catalan Castellano,Bachelor degree,no,no,B,1,when,L2,unsyncopated,when,when,1,Online_whenL2//a.du28.none.wav,ño,te,to,sil,go,ba,ra,sil1,su,bi,sil2,['-'],,,none,none,,,,du,1,testWhenL2Uns//r1.s1.0.wav,1.0,when,unsyncopated,a,s1,rule,rule,L2,z,1.018,7.0,1.0,1.273,2.0,2.0,Catalan,0.0,Castellano,0.0,2.0,3.0,yes,no,no,Flauta,8,2. En mi tiempo libre apenas escucho música.,5.0,  ,72.0,yes
2,2024-04-14_13h16.07.122,Experiment4_uns,s180,24.0,masculino,right,España,Catalan Castellano,Bachelor degree,no,no,B,1,when,L2,unsyncopated,when,when,2,Online_whenL2//a.du30.none.wav,fe,bi,to,sil,cha,su,ra,sil1,ño,ba,sil2,['-'],,,none,none,,,,du,1,testWhenL2Uns//cat_viol.r1.s2.0.wav,1.0,when,unsyncopated,a,s2,no_rule,cat,L2,z,1.774,7.0,1.0,1.155,2.0,2.0,Catalan,0.0,Castellano,0.0,2.0,3.0,yes,no,no,Flauta,8,3. Algunas canciones me ponen los pelos de punta,4.0,  ,72.0,yes
3,2024-04-14_13h16.07.122,Experiment4_uns,s180,24.0,masculino,right,España,Catalan Castellano,Bachelor degree,no,no,B,1,when,L2,unsyncopated,when,when,3,Online_whenL2//a.du29.1998.wav,ra,ño,su,sil,bi,si,mi,sil1,me,du,sil2,['catch'],[2.641999999999939],[2.641999999999939],1.998,no_beat,0.6439999999999391,0.6439999999999391,"[""space""]",du,1,testWhenL2Uns//r2.s2.2.wav,1.0,when,unsyncopated,b,s2,rule,rule,L2,z,1.207,7.0,1.0,1.101,2.0,2.0,Catalan,0.0,Castellano,0.0,2.0,3.0,yes,no,no,Flauta,8,4. La música me hace compañía cuando estoy solo,4.0,  ,72.0,yes
4,2024-04-14_13h16.07.122,Experiment4_uns,s180,24.0,masculino,right,España,Catalan Castellano,Bachelor degree,no,no,B,1,when,L2,unsyncopated,when,when,4,Online_whenL2//d.si23.none.wav,to,mi,ba,sil,go,du,ñu,sil1,te,ño,sil2,['-'],,,none,none,,,,si,4,testWhenL2Uns//dep_viol.r1.s1.0.wav,1.0,when,unsyncopated,a,s1,no_rule,dep,L2,z,0.834,6.0,1.0,1.435,2.0,2.0,Catalan,0.0,Castellano,0.0,2.0,3.0,yes,no,no,Flauta,8,5. No me apetece bailar ni con la música que más me gusta,5.0,  ,72.0,yes
5,2024-04-14_13h16.07.122,Experiment4_uns,s180,24.0,masculino,right,España,Catalan Castellano,Bachelor degree,no,no,B,1,when,L2,unsyncopated,when,when,5,Online_whenL2//d.si21.none.wav,te,me,bi,sil,go,ñu,to,sil1,ra,ño,sil2,['-'],,,none,none,,,,si,4,testWhenL2Uns//cat_viol.r2.s1.0.wav,1.0,when,unsyncopated,b,s1,no_rule,cat,L2,z,0.785,7.0,1.0,2.636,2.0,2.0,Catalan,0.0,Castellano,0.0,2.0,3.0,yes,no,no,Flauta,8,6. La música me hace conectar con la gente,4.0,  ,72.0,yes
6,2024-04-14_13h16.07.122,Experiment4_uns,s180,24.0,masculino,right,España,Catalan Castellano,Bachelor degree,no,no,B,1,when,L2,unsyncopated,when,when,6,Online_whenL2//d.si20.1998.wav,ba,mi,ñu,sil,cha,to,go,sil1,ra,si,sil2,['catch'],[2.5370000000000346],[2.5370000000000346],1.998,no_beat,0.5390000000000346,0.5390000000000346,"[""space""]",si,4,testWhenL2Uns//dep_viol.r2.s2.0.wav,1.0,when,unsyncopated,b,s2,no_rule,dep,L2,z,0.87,7.0,1.0,1.952,2.0,2.0,Catalan,0.0,Castellano,0.0,2.0,3.0,yes,no,no,Flauta,8,7. Me informo sobre la música que me gusta.,3.0,  ,72.0,yes
7,2024-04-14_13h16.07.122,Experiment4_uns,s180,24.0,masculino,right,España,Catalan Castellano,Bachelor degree,no,no,B,1,when,L2,unsyncopated,when,when,7,Online_whenL2//d.si22.none.wav,te,du,fe,sil,cha,su,ñu,sil1,me,ba,sil2,['-'],,,none,none,,,,si,4,testWhenL2Uns//time_viol.r1.s1.0.wav,1.0,when,unsyncopated,a,s1,no_rule,time,L2,z,0.935,6.0,1.0,1.419,2.0,2.0,Catalan,0.0,Castellano,0.0,2.0,3.0,yes,no,no,Flauta,8,8.Me emociono escuchando ciertas canciones.,4.0,  ,72.0,yes
8,2024-04-14_13h16.07.122,Experiment4_uns,s180,24.0,masculino,right,España,Catalan Castellano,Bachelor degree,no,no,B,1,when,L2,unsyncopated,when,when,8,Online_whenL2//d.si25.none.wav,ño,ra,me,sil,to,go,te,sil1,su,mi,sil2,['-'],,,none,none,,,,si,4,testWhenL2Uns//r1.s1.1.wav,1.0,when,unsyncopated,a,s1,rule,rule,L2,z,0.802,7.0,1.0,1.026,2.0,2.0,Catalan,0.0,Castellano,0.0,2.0,3.0,yes,no,no,Flauta,8,9.La música me tranquiliza y me relaja.,4.0,  ,72.0,yes
9,2024-04-14_13h16.07.122,Experiment4_uns,s180,24.0,masculino,right,España,Catalan Castellano,Bachelor degree,no,no,B,1,when,L2,unsyncopated,when,when,9,Online_whenL2//d.si24.1332.wav,me,du,bi,sil,ñu,cha,si,sil1,ra,su,sil2,['catch'],[1.9039999999999964],[1.9039999999999964],1.332,no_beat,0.5719999999999963,0.5719999999999963,"[""space""]",si,4,testWhenL2Uns//r2.s2.1.wav,1.0,when,unsyncopated,b,s2,rule,rule,L2,z,1.252,5.0,1.0,1.859,2.0,2.0,Catalan,0.0,Castellano,0.0,2.0,3.0,yes,no,no,Flauta,8,10.La música me hace bailar,4.0,  ,72.0,yes
10,2024-04-14_13h16.07.122,Experiment4_uns,s180,24.0,masculino,right,España,Catalan Castellano,Bachelor degree,no,no,B,1,when,L2,unsyncopated,when,when,10,Online_whenL2//d.si27.1110.wav,fe,te,ñu,sil,ño,si,mi,sil1,me,go,sil2,['miss'],,,1.11,no_beat,,,,si,4,testWhenL2Uns//r2.s1.2.wav,1.0,when,unsyncopated,b,s1,rule,rule,L2,z,1.144,6.0,1.0,2.419,2.0,2.0,Catalan,0.0,Castellano,0.0,2.0,3.0,yes,no,no,Flauta,8,11.Busco novedades musicales continuamente,3.0,  ,72.0,yes
11,2024-04-14_13h16.07.122,Experiment4_uns,s180,24.0,masculino,right,España,Catalan Castellano,Bachelor degree,no,no,B,1,when,L2,unsyncopated,when,when,11,Online_whenL2//d.si26.none.wav,ra,ño,cha,sil,to,su,bi,sil1,ñu,fe,sil2,['false alarm'],[0.06799999999998363],[0.06799999999998363],none,none,,,"[""space""]",si,4,testWhenL2Uns//r2.s2.0.wav,1.0,when,unsyncopated,b,s2,rule,rule,L2,z,4.234,4.0,1.0,1.119,2.0,2.0,Catalan,0.0,Castellano,0.0,2.0,3.0,yes,no,no,Flauta,8,12. Puedo llorar cuando escucho algunas melodías que me gustan mucho.,3.0,  ,72.0,yes
12,2024-04-14_13h16.07.122,Experiment4_uns,s180,24.0,masculino,right,España,Catalan Castellano,Bachelor degree,no,no,B,1,when,L2,unsyncopated,when,when,12,Online_whenL2//d.si10.none.wav,to,bi,fe,sil,me,mi,ra,sil1,ba,cha,sil2,['-'],,,none,none,,,,si,4,testWhenL2Uns//dep_viol.r1.s2.0.wav,1.0,when,unsyncopated,a,s2,no_rule,dep,L2,z,0.652,6.0,1.0,1.293,2.0,2.0,Catalan,0.0,Castellano,0.0,2.0,3.0,yes,no,no,Flauta,8,13. Me gusta cantar o tocar un instrumento con más gente,2.0,  ,72.0,yes
13,2024-04-14_13h16.07.122,Experiment4_uns,s180,24.0,masculino,right,España,Catalan Castellano,Bachelor degree,no,no,B,1,when,L2,unsyncopated,when,when,13,Online_whenL2//d.si9.none.wav,du,su,to,sil,ba,ra,mi,sil1,te,ño,sil2,['-'],,,none,none,,,,si,4,testWhenL2Uns//time_viol.r2.s1.0.wav,1.0,when,unsyncopated,b,s1,no_rule,time,L2,z,1.652,6.0,1.0,1.085,2.0,2.0,Catalan,0.0,Castellano,0.0,2.0,3.0,yes,no,no,Flauta,8,14. La música me ayuda a desconectar.,4.0,  ,72.0,yes
14,2024-04-14_13h16.07.122,Experiment4_uns,s180,24.0,masculino,right,España,Catalan Castellano,Bachelor degree,no,no,B,1,when,L2,unsyncopated,when,when,14,Online_whenL2//d.si11.none.wav,to,mi,me,sil,ra,ñu,cha,sil1,su,du,sil2,['-'],,,none,none,,,,si,4,testWhenL2Uns//time_viol.r2.s2.0.wav,1.0,when,unsyncopated,b,s2,no_rule,time,L2,z,5.083,6.0,1.0,1.007,2.0,2.0,Catalan,0.0,Castellano,0.0,2.0,3.0,yes,no,no,Flauta,8,15. No puedo evitar tararear las canciones que me gustan cuando las escucho.,4.0,  ,72.0,yes
15,2024-04-14_13h16.07.122,Experiment4_uns,s180,24.0,masculino,right,España,Catalan Castellano,Bachelor degree,no,no,B,1,when,L2,unsyncopated,when,when,15,Online_whenL2//d.si8.none.wav,ñu,su,fe,sil,ra,ño,me,sil1,cha,mi,sil2,['-'],,,none,none,,,,si,4,testWhenL2Uns//cat_viol.r2.s2.0.wav,1.0,when,unsyncopated,b,s2,no_rule,cat,L2,z,0.501,7.0,1.0,0.61,2.0,2.0,Catalan,0.0,Castellano,0.0,2.0,3.0,yes,no,no,Flauta,8,16. En los conciertos me siento en sintonía con los artistas y el público.,4.0,  ,72.0,yes
16,2024-04-14_13h16.07.122,Experiment4_uns,s180,24.0,masculino,right,España,Catalan Castellano,Bachelor degree,no,no,B,1,when,L2,unsyncopated,when,when,16,Online_whenL2//c.cha26.0.wav,cha,to,ra,sil,go,ñu,ba,sil1,bi,te,sil2,['catch'],[0.9679999999999609],[0.9679999999999609],0.0,beat,0.9679999999999608,0.9679999999999608,"[""space""]",cha,3,testWhenL2Uns//cat_viol.r1.s1.0.wav,1.0,when,unsyncopated,a,s1,no_rule,cat,L2,m,4.802,3.0,0.0,2.624,2.0,2.0,Catalan,0.0,Castellano,0.0,2.0,3.0,yes,no,no,Flauta,8,17. Me gasto bastante dinero en música y cosas relacionadas con la música.,1.0,  ,72.0,yes
17,2024-04-14_13h16.07.122,Experiment4_uns,s180,24.0,masculino,right,España,Catalan Castellano,Bachelor degree,no,no,B,1,when,L2,unsyncopated,when,when,17,Online_whenL2//c.cha24.444.wav,me,bi,cha,sil,su,ra,ño,sil1,to,fe,sil2,['catch'],[1.0430000000000064],[1.0430000000000064],0.444,no_beat,0.5990000000000064,0.5990000000000064,"[""space""]",cha,3,testWhenL2Uns//r1.s2.0.wav,1.0,when,unsyncopated,a,s2,rule,rule,L2,z,0.568,5.0,1.0,1.127,2.0,2.0,Catalan,0.0,Castellano,0.0,2.0,3.0,yes,no,no,Flauta,8,18. Siento escalofríos cuando escucho una melodía que me gusta.,3.0,  ,72.0,yes
18,2024-04-14_13h16.07.122,Experiment4_uns,s180,24.0,masculino,right,España,Catalan Castellano,Bachelor degree,no,no,B,1,when,L2,unsyncopated,when,when,18,Online_whenL2//c.cha25.888.wav,fe,ño,su,sil,cha,te,bi,sil1,me,ra,sil2,['catch'],[1.5230000000000246],[1.5230000000000246],0.888,beat,0.6350000000000245,0.6350000000000245,"[""space""]",cha,3,testWhenL2Uns//r1.s2.1.wav,1.0,when,unsyncopated,a,s2,rule,rule,L2,z,0.61,6.0,1.0,0.952,2.0,2.0,Catalan,0.0,Castellano,0.0,2.0,3.0,yes,no,no,Flauta,8,19. Con la música me puedo desahogar.,4.0,  ,72.0,yes
19,2024-04-14_13h16.07.122,Experiment4_uns,s180,24.0,masculino,right,España,Catalan Castellano,Bachelor degree,no,no,B,1,when,L2,unsyncopated,when,when,19,Online_whenL2//c.cha27.none.wav,bi,fe,mi,sil,te,ra,ño,sil1,to,ñu,sil2,['-'],,,none,none,,,,cha,3,testWhenL2Uns//time_viol.r1.s2.0.wav,1.0,when,unsyncopated,a,s2,no_rule,time,L2,z,1.202,6.0,1.0,1.05,2.0,2.0,Catalan,0.0,Castellano,0.0,2.0,3.0,yes,no,no,Flauta,8,20. Cuando escucho una melodía que me gusta mucho no puedo evitar mover el cuerpo.,3.0,  ,72.0,yes
20,2024-04-14_13h16.07.122,Experiment4_uns,s180,24.0,masculino,right,España,Catalan Castellano,Bachelor degree,no,no,B,1,when,L2,unsyncopated,when,when,20,Online_whenL2//b.fe14.none.wav,ra,du,ba,sil,to,bi,su,sil1,te,ñu,sil2,['-'],,,none,none,,,,fe,2,testWhenL2Uns//dep_viol.r2.s1.0.wav,1.0,when,unsyncopated,b,s1,no_rule,dep,L2,m,3.553,2.0,0.0,2.618,2.0,2.0,Catalan,0.0,Castellano,0.0,2.0,3.0,yes,no,no,Flauta,8,,,  ,72.0,yes
21,2024-04-14_13h16.07.122,Experiment4_uns,s180,24.0,masculino,right,España,Catalan Castellano,Bachelor degree,no,no,B,1,when,L2,unsyncopated,when,when,21,Online_whenL2//b.fe15.none.wav,ño,su,to,sil,du,me,go,sil1,cha,mi,sil2,['-'],,,none,none,,,,fe,2,testWhenL2Uns//r2.s1.1.wav,1.0,when,unsyncopated,b,s1,rule,rule,L2,m,1.913,4.0,0.0,0.751,2.0,2.0,Catalan,0.0,Castellano,0.0,2.0,3.0,yes,no,no,Flauta,8,,,  ,72.0,yes
22,2024-04-14_13h16.07.122,Experiment4_uns,s180,24.0,masculino,right,España,Catalan Castellano,Bachelor degree,no,no,B,1,when,L2,unsyncopated,when,when,22,Online_whenL2//b.fe13.none.wav,te,su,ra,sil,si,go,ba,sil1,me,mi,sil2,['-'],,,none,none,,,,fe,2,testWhenL2Uns//r1.s1.2.wav,1.0,when,unsyncopated,a,s1,rule,rule,L2,m,5.518,3.0,0.0,2.209,2.0,2.0,Catalan,0.0,Castellano,0.0,2.0,3.0,yes,no,no,Flauta,8,,,  ,72.0,yes
23,2024-04-14_13h16.07.122,Experiment4_uns,s180,24.0,masculino,right,España,Catalan Castellano,Bachelor degree,no,no,B,1,when,L2,unsyncopated,when,when,23,Online_whenL2//b.fe12.none.wav,su,si,te,sil,cha,go,ñu,sil1,to,du,sil2,['-'],,,none,none,,,,fe,2,testWhenL2Uns//r1.s2.2.wav,1.0,when,unsyncopated,a,s2,rule,rule,L2,z,1.89,5.0,1.0,1.204,2.0,2.0,Catalan,0.0,Castellano,0.0,2.0,3.0,yes,no,no,Flauta,8,,,  ,72.0,yes
24,2024-04-14_13h16.07.122,Experiment4_uns,s180,24.0,masculino,right,España,Catalan Castellano,Bachelor degree,no,no,B,1,when,L2,unsyncopated,when,when,24,Online_whenL2//b.fe25.888.wav,ba,me,mi,sil,fe,to,bi,sil1,ñu,du,sil2,['catch'],[1.3809999999998581],[1.3809999999998581],0.888,beat,0.4929999999998581,0.4929999999998581,"[""space""]",fe,2,testWhatL1Uns//cat_viol.r2.s1.0.wav,2.0,what,unsyncopated,b,s1,no_rule,cat,L1,z,0.966,7.0,0.0,0.996,2.0,2.0,Catalan,0.0,Castellano,0.0,2.0,3.0,yes,no,no,Flauta,8,,,  ,72.0,yes
25,2024-04-14_13h16.07.122,Experiment4_uns,s180,24.0,masculino,right,España,Catalan Castellano,Bachelor degree,no,no,B,1,when,L2,unsyncopated,when,when,25,Online_whenL2//b.fe24.888.wav,to,te,ñu,sil,fe,su,bi,sil1,du,mi,sil2,['catch'],[1.3590000000000373],[1.3590000000000373],0.888,beat,0.4710000000000373,0.4710000000000373,"[""space""]",fe,2,testWhatL1Uns//r2.s1.1.wav,2.0,what,unsyncopated,b,s1,rule,rule,L1,z,1.92,6.0,1.0,0.288,2.0,2.0,Catalan,0.0,Castellano,0.0,2.0,3.0,yes,no,no,Flauta,8,,,  ,72.0,yes
26,2024-04-14_13h16.07.122,Experiment4_uns,s180,24.0,masculino,right,España,Catalan Castellano,Bachelor degree,no,no,B,1,when,L2,unsyncopated,when,when,26,Online_whenL2//b.fe27.888.wav,to,cha,su,sil,fe,me,go,sil1,ñu,ño,sil2,['catch'],[1.3410000000000082],[1.3410000000000082],0.888,beat,0.4530000000000082,0.4530000000000082,"[""space""]",fe,2,testWhatL1Uns//r2.s1.0.wav,2.0,what,unsyncopated,b,s1,rule,rule,L1,m,1.77,3.0,0.0,1.395,2.0,2.0,Catalan,0.0,Castellano,0.0,2.0,3.0,yes,no,no,Flauta,8,,,  ,72.0,yes
27,2024-04-14_13h16.07.122,Experiment4_uns,s180,24.0,masculino,right,España,Catalan Castellano,Bachelor degree,no,no,B,1,when,L2,unsyncopated,when,when,27,Online_whenL2//b.fe26.none.wav,ñu,te,ño,sil,go,mi,me,sil1,du,ba,sil2,['-'],,,none,none,,,,fe,2,testWhatL1Uns//time_viol.r1.s1.0.wav,2.0,what,unsyncopated,a,s1,no_rule,time,L1,z,1.235,6.0,0.0,0.586,2.0,2.0,Catalan,0.0,Castellano,0.0,2.0,3.0,yes,no,no,Flauta,8,,,  ,72.0,yes
28,2024-04-14_13h16.07.122,Experiment4_uns,s180,24.0,masculino,right,España,Catalan Castellano,Bachelor degree,no,no,B,1,when,L2,unsyncopated,when,when,28,Online_whenL2//b.fe8.none.wav,su,to,go,sil,mi,ra,si,sil1,ba,ñu,sil2,['-'],,,none,none,,,,fe,2,testWhatL1Uns//cat_viol.r2.s2.0.wav,2.0,what,unsyncopated,b,s2,no_rule,cat,L1,m,1.854,2.0,1.0,1.752,2.0,2.0,Catalan,0.0,Castellano,0.0,2.0,3.0,yes,no,no,Flauta,8,,,  ,72.0,yes
29,2024-04-14_13h16.07.122,Experiment4_uns,s180,24.0,masculino,right,España,Catalan Castellano,Bachelor degree,no,no,B,1,when,L2,unsyncopated,when,when,29,Online_whenL2//b.fe11.1332.wav,ba,bi,go,sil,su,mi,fe,sil1,si,me,sil2,['catch'],[1.975999999999999],[1.975999999999999],1.332,no_beat,0.643999999999999,0.643999999999999,"[""space""]",fe,2,testWhatL1Uns//r1.s2.1.wav,2.0,what,unsyncopated,a,s2,rule,rule,L1,m,2.402,2.0,0.0,1.005,2.0,2.0,Catalan,0.0,Castellano,0.0,2.0,3.0,yes,no,no,Flauta,8,,,  ,72.0,yes
30,2024-04-14_13h16.07.122,Experiment4_uns,s180,24.0,masculino,right,España,Catalan Castellano,Bachelor degree,no,no,B,1,when,L2,unsyncopated,when,when,30,Online_whenL2//b.fe9.none.wav,du,ñu,su,sil,te,to,go,sil1,ño,me,sil2,['-'],,,none,none,,,,fe,2,testWhatL1Uns//time_viol.r2.s1.0.wav,2.0,what,unsyncopated,b,s1,no_rule,time,L1,z,0.358,5.0,0.0,1.122,2.0,2.0,Catalan,0.0,Castellano,0.0,2.0,3.0,yes,no,no,Flauta,8,,,  ,72.0,yes
31,2024-04-14_13h16.07.122,Experiment4_uns,s180,24.0,masculino,right,España,Catalan Castellano,Bachelor degree,no,no,B,1,when,L2,unsyncopated,when,when,31,Online_whenL2//b.fe10.none.wav,to,du,su,sil,mi,ño,ba,sil1,bi,ra,sil2,['-'],,,none,none,,,,fe,2,testWhatL1Uns//r1.s2.2.wav,2.0,what,unsyncopated,a,s2,rule,rule,L1,z,1.555,6.0,1.0,3.034,2.0,2.0,Catalan,0.0,Castellano,0.0,2.0,3.0,yes,no,no,Flauta,8,,,  ,72.0,yes
32,2024-04-14_13h16.07.122,Experiment4_uns,s180,24.0,masculino,right,España,Catalan Castellano,Bachelor degree,no,no,B,1,when,L2,unsyncopated,when,when,32,Online_whenL2//b.fe23.none.wav,me,ba,du,sil,ra,to,bi,sil1,si,ñu,sil2,['-'],,,none,none,,,,fe,2,testWhatL1Uns//r2.s2.1.wav,2.0,what,unsyncopated,b,s2,rule,rule,L1,z,1.034,6.0,1.0,0.507,2.0,2.0,Catalan,0.0,Castellano,0.0,2.0,3.0,yes,no,no,Flauta,8,,,  ,72.0,yes
33,2024-04-14_13h16.07.122,Experiment4_uns,s180,24.0,masculino,right,España,Catalan Castellano,Bachelor degree,no,no,B,1,when,L2,unsyncopated,when,when,33,Online_whenL2//b.fe20.1332.wav,cha,ño,du,sil,si,me,fe,sil1,te,mi,sil2,['catch'],[1.8880000000000337],[1.8880000000000337],1.332,no_beat,0.5560000000000336,0.5560000000000336,"[""space""]",fe,2,testWhatL1Uns//dep_viol.r1.s2.0.wav,2.0,what,unsyncopated,a,s2,no_rule,dep,L1,z,2.136,4.0,0.0,0.903,2.0,2.0,Catalan,0.0,Castellano,0.0,2.0,3.0,yes,no,no,Flauta,8,,,  ,72.0,yes
34,2024-04-14_13h16.07.122,Experiment4_uns,s180,24.0,masculino,right,España,Catalan Castellano,Bachelor degree,no,no,B,1,when,L2,unsyncopated,when,when,34,Online_whenL2//b.fe21.1332.wav,ñu,mi,go,sil,te,su,fe,sil1,me,cha,sil2,['catch'],[1.9589999999999463],[1.9589999999999463],1.332,no_beat,0.6269999999999463,0.6269999999999463,"[""space""]",fe,2,testWhatL1Uns//time_viol.r1.s2.0.wav,2.0,what,unsyncopated,a,s2,no_rule,time,L1,m,0.961,4.0,1.0,1.684,2.0,2.0,Catalan,0.0,Castellano,0.0,2.0,3.0,yes,no,no,Flauta,8,,,  ,72.0,yes
35,2024-04-14_13h16.07.122,Experiment4_uns,s180,24.0,masculino,right,España,Catalan Castellano,Bachelor degree,no,no,B,1,when,L2,unsyncopated,when,when,35,Online_whenL2//b.fe22.none.wav,ño,ra,go,sil,ñu,bi,su,sil1,to,te,sil2,['-'],,,none,none,,,,fe,2,testWhatL1Uns//r1.s1.0.wav,2.0,what,unsyncopated,a,s1,rule,rule,L1,z,1.971,5.0,1.0,1.733,2.0,2.0,Catalan,0.0,Castellano,0.0,2.0,3.0,yes,no,no,Flauta,8,,,  ,72.0,yes
36,2024-04-14_13h16.07.122,Experiment4_uns,s180,24.0,masculino,right,España,Catalan Castellano,Bachelor degree,no,no,B,1,when,L2,unsyncopated,when,when,36,Online_whenL2//b.fe17.222.wav,te,fe,ño,sil,su,mi,ra,sil1,si,ñu,sil2,['catch'],[1.0740000000000691],[1.0740000000000691],0.222,no_beat,0.8520000000000691,0.8520000000000691,"[""space""]",fe,2,testWhatL1Uns//r1.s1.2.wav,2.0,what,unsyncopated,a,s1,rule,rule,L1,m,3.507,2.0,0.0,3.452,2.0,2.0,Catalan,0.0,Castellano,0.0,2.0,3.0,yes,no,no,Flauta,8,,,  ,72.0,yes
37,2024-04-14_13h16.07.122,Experiment4_uns,s180,24.0,masculino,right,España,Catalan Castellano,Bachelor degree,no,no,B,1,when,L2,unsyncopated,when,when,37,Online_whenL2//b.fe16.1998.wav,cha,ba,te,sil,ra,ño,si,sil1,me,fe,sil2,['catch'],[2.4879999999999427],[2.4879999999999427],1.998,no_beat,0.4899999999999427,0.4899999999999427,"[""space""]",fe,2,testWhatL1Uns//r2.s1.2.wav,2.0,what,unsyncopated,b,s1,rule,rule,L1,z,5.226,4.0,1.0,0.426,2.0,2.0,Catalan,0.0,Castellano,0.0,2.0,3.0,yes,no,no,Flauta,8,,,  ,72.0,yes
38,2024-04-14_13h16.07.122,Experiment4_uns,s180,24.0,masculino,right,España,Catalan Castellano,Bachelor degree,no,no,B,1,when,L2,unsyncopated,when,when,38,Online_whenL2//b.fe18.none.wav,mi,go,su,sil,ba,ra,si,sil1,cha,bi,sil2,['-'],,,none,none,,,,fe,2,testWhatL1Uns//r1.s1.1.wav,2.0,what,unsyncopated,a,s1,rule,rule,L1,z,0.512,7.0,1.0,1.152,2.0,2.0,Catalan,0.0,Castellano,0.0,2.0,3.0,yes,no,no,Flauta,8,,,  ,72.0,yes
39,2024-04-14_13h16.07.122,Experiment4_uns,s180,24.0,masculino,right,España,Catalan Castellano,Bachelor degree,no,no,B,1,when,L2,unsyncopated,when,when,39,Online_whenL2//b.fe19.none.wav,ño,ra,su,sil,cha,du,to,sil1,si,me,sil2,['-'],,,none,none,,,,fe,2,testWhatL1Uns//dep_viol.r2.s1.0.wav,2.0,what,unsyncopated,b,s1,no_rule,dep,L1,z,1.016,6.0,0.0,0.383,2.0,2.0,Catalan,0.0,Castellano,0.0,2.0,3.0,yes,no,no,Flauta,8,,,  ,72.0,yes
40,2024-04-14_13h16.07.122,Experiment4_uns,s180,24.0,masculino,right,España,Catalan Castellano,Bachelor degree,no,no,B,1,when,L2,unsyncopated,when,when,40,Online_whenL2//c.cha31.none.wav,to,te,ñu,sil,bi,du,su,sil1,fe,me,sil2,['false alarm'],[2.383000000000038],[2.383000000000038],none,none,,,"[""space""]",cha,3,testWhatL1Uns//cat_viol.r1.s1.0.wav,2.0,what,unsyncopated,a,s1,no_rule,cat,L1,z,1.234,4.0,0.0,0.52,2.0,2.0,Catalan,0.0,Castellano,0.0,2.0,3.0,yes,no,no,Flauta,8,,,  ,72.0,yes
41,2024-04-14_13h16.07.122,Experiment4_uns,s180,24.0,masculino,right,España,Catalan Castellano,Bachelor degree,no,no,B,1,when,L2,unsyncopated,when,when,41,Online_whenL2//c.cha29.444.wav,go,du,cha,sil,me,ba,su,sil1,ñu,bi,sil2,['catch'],[1.1370000000000573],[1.1370000000000573],0.444,no_beat,0.6930000000000573,0.6930000000000573,"[""space""]",cha,3,testWhatL1Uns//r2.s2.2.wav,2.0,what,unsyncopated,b,s2,rule,rule,L1,z,0.46,7.0,1.0,0.284,2.0,2.0,Catalan,0.0,Castellano,0.0,2.0,3.0,yes,no,no,Flauta,8,,,  ,72.0,yes
42,2024-04-14_13h16.07.122,Experiment4_uns,s180,24.0,masculino,right,España,Catalan Castellano,Bachelor degree,no,no,B,1,when,L2,unsyncopated,when,when,42,Online_whenL2//c.cha28.0.wav,cha,fe,to,sil,ba,ñu,me,sil1,go,te,sil2,['catch'],[0.6290000000000191],[0.6290000000000191],0.0,beat,0.6290000000000191,0.6290000000000191,"[""space""]",cha,3,testWhatL1Uns//time_viol.r2.s2.0.wav,2.0,what,unsyncopated,b,s2,no_rule,time,L1,z,0.376,6.0,0.0,0.404,2.0,2.0,Catalan,0.0,Castellano,0.0,2.0,3.0,yes,no,no,Flauta,8,,,  ,72.0,yes
43,2024-04-14_13h16.07.122,Experiment4_uns,s180,24.0,masculino,right,España,Catalan Castellano,Bachelor degree,no,no,B,1,when,L2,unsyncopated,when,when,43,Online_whenL2//c.cha30.none.wav,te,mi,to,sil,me,go,si,sil1,ño,du,sil2,['-'],,,none,none,,,,cha,3,testWhatL1Uns//cat_viol.r1.s2.0.wav,2.0,what,unsyncopated,a,s2,no_rule,cat,L1,m,0.816,5.0,1.0,1.919,2.0,2.0,Catalan,0.0,Castellano,0.0,2.0,3.0,yes,no,no,Flauta,8,,,  ,72.0,yes
44,2024-04-14_13h16.07.122,Experiment4_uns,s180,24.0,masculino,right,España,Catalan Castellano,Bachelor degree,no,no,B,1,when,L2,unsyncopated,when,when,44,Online_whenL2//b.fe30.none.wav,ra,si,su,sil,ñu,go,te,sil1,to,ño,sil2,['-'],,,none,none,,,,fe,2,testWhatL1Uns//r1.s2.0.wav,2.0,what,unsyncopated,a,s2,rule,rule,L1,z,1.209,5.0,1.0,0.555,2.0,2.0,Catalan,0.0,Castellano,0.0,2.0,3.0,yes,no,no,Flauta,8,,,  ,72.0,yes
45,2024-04-14_13h16.07.122,Experiment4_uns,s180,24.0,masculino,right,España,Catalan Castellano,Bachelor degree,no,no,B,1,when,L2,unsyncopated,when,when,45,Online_whenL2//b.fe28.1776.wav,me,su,ba,sil,bi,ño,te,sil1,fe,du,sil2,['catch'],[2.3379999999999654],[2.3379999999999654],1.776,beat,0.5619999999999654,0.5619999999999654,"[""space""]",fe,2,testWhatL1Uns//r2.s2.0.wav,2.0,what,unsyncopated,b,s2,rule,rule,L1,z,1.104,7.0,1.0,0.572,2.0,2.0,Catalan,0.0,Castellano,0.0,2.0,3.0,yes,no,no,Flauta,8,,,  ,72.0,yes
46,2024-04-14_13h16.07.122,Experiment4_uns,s180,24.0,masculino,right,España,Catalan Castellano,Bachelor degree,no,no,B,1,when,L2,unsyncopated,when,when,46,Online_whenL2//b.fe31.none.wav,me,si,ñu,sil,su,go,du,sil1,bi,ba,sil2,['false alarm'],[1.1709999999999354],[1.1709999999999354],none,none,,,"[""space""]",fe,2,testWhatL1Uns//dep_viol.r2.s2.0.wav,2.0,what,unsyncopated,b,s2,no_rule,dep,L1,z,1.802,3.0,0.0,0.869,2.0,2.0,Catalan,0.0,Castellano,0.0,2.0,3.0,yes,no,no,Flauta,8,,,  ,72.0,yes
47,2024-04-14_13h16.07.122,Experiment4_uns,s180,24.0,masculino,right,España,Catalan Castellano,Bachelor degree,no,no,B,1,when,L2,unsyncopated,when,when,47,Online_whenL2//b.fe29.none.wav,ra,ñu,du,sil,ño,bi,to,sil1,mi,su,sil2,['-'],,,none,none,,,,fe,2,testWhatL1Uns//dep_viol.r1.s1.0.wav,2.0,what,unsyncopated,a,s1,no_rule,dep,L1,m,1.717,4.0,1.0,1.05,2.0,2.0,Catalan,0.0,Castellano,0.0,2.0,3.0,yes,no,no,Flauta,8,,,  ,72.0,yes
48,2024-04-14_13h16.07.122,Experiment4_uns,s180,24.0,masculino,right,España,Catalan Castellano,Bachelor degree,no,no,B,1,when,L2,unsyncopated,when,when,48,Online_whenL2//a.du2.0.wav,du,me,si,sil,mi,to,go,sil1,cha,bi,sil2,['catch'],[0.7100000000000364],[0.7100000000000364],0.0,beat,0.7100000000000364,0.7100000000000364,"[""space""]",du,1,testConjL4Uns//dep_viol.r1.s1.0.wav,3.0,conjunction_un,unsyncopated,a,s1,no_rule,dep,L4,z,0.516,7.0,0.0,0.684,2.0,2.0,Catalan,0.0,Castellano,0.0,2.0,3.0,yes,no,no,Flauta,8,,,  ,72.0,yes
49,2024-04-14_13h16.07.122,Experiment4_uns,s180,24.0,masculino,right,España,Catalan Castellano,Bachelor degree,no,no,B,1,when,L2,unsyncopated,when,when,49,Online_whenL2//a.du3.none.wav,me,mi,te,sil,cha,go,ñu,sil1,fe,si,sil2,['-'],,,none,none,,,,du,1,testConjL4Uns//dep_viol.r1.s2.0.wav,3.0,conjunction_un,unsyncopated,a,s2,no_rule,dep,L4,z,1.741,7.0,0.0,0.717,2.0,2.0,Catalan,0.0,Castellano,0.0,2.0,3.0,yes,no,no,Flauta,8,,,  ,72.0,yes
50,2024-04-14_13h16.07.122,Experiment4_uns,s180,24.0,masculino,right,España,Catalan Castellano,Bachelor degree,no,no,B,1,when,L2,unsyncopated,when,when,50,Online_whenL2//a.du0.888.wav,ñu,ba,ra,sil,du,su,ño,sil1,cha,te,sil2,['catch'],[1.4200000000000728],[1.4200000000000728],0.888,beat,0.5320000000000727,0.5320000000000727,"[""space""]",du,1,testConjL4Uns//cat_viol.r1.s2.0.wav,3.0,conjunction_un,unsyncopated,a,s2,no_rule,cat,L4,m,0.725,3.0,1.0,1.621,2.0,2.0,Catalan,0.0,Castellano,0.0,2.0,3.0,yes,no,no,Flauta,8,,,  ,72.0,yes
51,2024-04-14_13h16.07.122,Experiment4_uns,s180,24.0,masculino,right,España,Catalan Castellano,Bachelor degree,no,no,B,1,when,L2,unsyncopated,when,when,51,Online_whenL2//a.du1.none.wav,bi,si,fe,sil,mi,ra,ba,sil1,su,me,sil2,['-'],,,none,none,,,,du,1,testConjL4Uns//r1.s2.1.wav,3.0,conjunction_un,unsyncopated,a,s2,rule,rule,L4,z,0.702,7.0,1.0,0.71,2.0,2.0,Catalan,0.0,Castellano,0.0,2.0,3.0,yes,no,no,Flauta,8,,,  ,72.0,yes
52,2024-04-14_13h16.07.122,Experiment4_uns,s180,24.0,masculino,right,España,Catalan Castellano,Bachelor degree,no,no,B,1,when,L2,unsyncopated,when,when,52,Online_whenL2//d.si4.444.wav,to,ra,si,sil,me,ñu,go,sil1,ño,mi,sil2,['catch'],[0.9390000000000782],[0.9390000000000782],0.444,no_beat,0.4950000000000782,0.4950000000000782,"[""space""]",si,4,testConjL4Uns//r2.s2.1.wav,3.0,conjunction_un,unsyncopated,b,s2,rule,rule,L4,z,0.717,6.0,1.0,0.385,2.0,2.0,Catalan,0.0,Castellano,0.0,2.0,3.0,yes,no,no,Flauta,8,,,  ,72.0,yes
53,2024-04-14_13h16.07.122,Experiment4_uns,s180,24.0,masculino,right,España,Catalan Castellano,Bachelor degree,no,no,B,1,when,L2,unsyncopated,when,when,53,Online_whenL2//d.si7.none.wav,go,cha,te,sil,fe,ñu,ba,sil1,mi,to,sil2,['-'],,,none,none,,,,si,4,testConjL4Uns//time_viol.r2.s2.0.wav,3.0,conjunction_un,unsyncopated,b,s2,no_rule,time,L4,z,0.509,7.0,0.0,1.587,2.0,2.0,Catalan,0.0,Castellano,0.0,2.0,3.0,yes,no,no,Flauta,8,,,  ,72.0,yes
54,2024-04-14_13h16.07.122,Experiment4_uns,s180,24.0,masculino,right,España,Catalan Castellano,Bachelor degree,no,no,B,1,when,L2,unsyncopated,when,when,54,Online_whenL2//d.si6.1776.wav,te,cha,du,sil,fe,ño,me,sil1,si,bi,sil2,['catch'],[2.242999999999938],[2.242999999999938],1.776,beat,0.4669999999999381,0.4669999999999381,"[""space""]",si,4,testConjL4Uns//r2.s1.2.wav,3.0,conjunction_un,unsyncopated,b,s1,rule,rule,L4,z,1.676,6.0,1.0,0.719,2.0,2.0,Catalan,0.0,Castellano,0.0,2.0,3.0,yes,no,no,Flauta,8,,,  ,72.0,yes
55,2024-04-14_13h16.07.122,Experiment4_uns,s180,24.0,masculino,right,España,Catalan Castellano,Bachelor degree,no,no,B,1,when,L2,unsyncopated,when,when,55,Online_whenL2//d.si5.1332.wav,to,fe,ra,sil,me,cha,si,sil1,su,te,sil2,['catch'],[2.155999999999949],[2.155999999999949],1.332,no_beat,0.823999999999949,0.823999999999949,"[""space""]",si,4,testConjL4Uns//r1.s1.0.wav,3.0,conjunction_un,unsyncopated,a,s1,rule,rule,L4,z,2.454,4.0,1.0,1.351,2.0,2.0,Catalan,0.0,Castellano,0.0,2.0,3.0,yes,no,no,Flauta,8,,,  ,72.0,yes
56,2024-04-14_13h16.07.122,Experiment4_uns,s180,24.0,masculino,right,España,Catalan Castellano,Bachelor degree,no,no,B,1,when,L2,unsyncopated,when,when,56,Online_whenL2//c.cha12.444.wav,du,ba,cha,sil,te,bi,ño,sil1,ñu,fe,sil2,['miss'],,,0.444,no_beat,,,,cha,3,testConjL4Uns//r1.s2.0.wav,3.0,conjunction_un,unsyncopated,a,s2,rule,rule,L4,m,0.774,2.0,0.0,1.636,2.0,2.0,Catalan,0.0,Castellano,0.0,2.0,3.0,yes,no,no,Flauta,8,,,  ,72.0,yes
57,2024-04-14_13h16.07.122,Experiment4_uns,s180,24.0,masculino,right,España,Catalan Castellano,Bachelor degree,no,no,B,1,when,L2,unsyncopated,when,when,57,Online_whenL2//c.cha13.888.wav,te,me,ba,sil,cha,bi,si,sil1,fe,du,sil2,['catch'],[2.3439999999999372],[2.3439999999999372],0.888,beat,,1.4559999999999371,"[""space""]",cha,3,testConjL4Uns//cat_viol.r2.s2.0.wav,3.0,conjunction_un,unsyncopated,b,s2,no_rule,cat,L4,m,1.277,3.0,1.0,0.976,2.0,2.0,Catalan,0.0,Castellano,0.0,2.0,3.0,yes,no,no,Flauta,8,,,  ,72.0,yes
58,2024-04-14_13h16.07.122,Experiment4_uns,s180,24.0,masculino,right,España,Catalan Castellano,Bachelor degree,no,no,B,1,when,L2,unsyncopated,when,when,58,Online_whenL2//c.cha15.none.wav,si,su,ñu,sil,mi,ba,ra,sil1,to,go,sil2,['-'],,,none,none,,,,cha,3,testConjL4Uns//cat_viol.r2.s1.0.wav,3.0,conjunction_un,unsyncopated,b,s1,no_rule,cat,L4,z,0.706,5.0,0.0,0.858,2.0,2.0,Catalan,0.0,Castellano,0.0,2.0,3.0,yes,no,no,Flauta,8,,,  ,72.0,yes
59,2024-04-14_13h16.07.122,Experiment4_uns,s180,24.0,masculino,right,España,Catalan Castellano,Bachelor degree,no,no,B,1,when,L2,unsyncopated,when,when,59,Online_whenL2//c.cha14.none.wav,go,te,ñu,sil,mi,bi,ba,sil1,ño,du,sil2,['-'],,,none,none,,,,cha,3,testConjL4Uns//cat_viol.r1.s1.0.wav,3.0,conjunction_un,unsyncopated,a,s1,no_rule,cat,L4,z,3.186,5.0,0.0,1.075,2.0,2.0,Catalan,0.0,Castellano,0.0,2.0,3.0,yes,no,no,Flauta,8,,,  ,72.0,yes
60,2024-04-14_13h16.07.122,Experiment4_uns,s180,24.0,masculino,right,España,Catalan Castellano,Bachelor degree,no,no,B,1,when,L2,unsyncopated,when,when,60,Online_whenL2//d.si15.1332.wav,mi,ño,ba,sil,ra,fe,si,sil1,ñu,me,sil2,['catch'],[1.7300000000000182],[1.7300000000000182],1.332,no_beat,0.3980000000000181,0.3980000000000181,"[""space""]",si,4,testConjL4Uns//r2.s1.0.wav,3.0,conjunction_un,unsyncopated,b,s1,rule,rule,L4,z,0.774,6.0,1.0,0.719,2.0,2.0,Catalan,0.0,Castellano,0.0,2.0,3.0,yes,no,no,Flauta,8,,,  ,72.0,yes
61,2024-04-14_13h16.07.122,Experiment4_uns,s180,24.0,masculino,right,España,Catalan Castellano,Bachelor degree,no,no,B,1,when,L2,unsyncopated,when,when,61,Online_whenL2//d.si14.1332.wav,ba,te,bi,sil,go,su,si,sil1,du,ñu,sil2,['catch'],[1.8259999999999081],[1.8259999999999081],1.332,no_beat,0.493999999999908,0.493999999999908,"[""space""]",si,4,testConjL4Uns//r2.s1.1.wav,3.0,conjunction_un,unsyncopated,b,s1,rule,rule,L4,m,1.791,4.0,0.0,1.334,2.0,2.0,Catalan,0.0,Castellano,0.0,2.0,3.0,yes,no,no,Flauta,8,,,  ,72.0,yes
62,2024-04-14_13h16.07.122,Experiment4_uns,s180,24.0,masculino,right,España,Catalan Castellano,Bachelor degree,no,no,B,1,when,L2,unsyncopated,when,when,62,Online_whenL2//d.si12.1776.wav,mi,du,to,sil,go,ño,bi,sil1,si,cha,sil2,['catch'],[2.2749999999999773],[2.2749999999999773],1.776,beat,0.4989999999999772,0.4989999999999772,"[""space""]",si,4,testConjL4Uns//time_viol.r1.s1.0.wav,3.0,conjunction_un,unsyncopated,a,s1,no_rule,time,L4,z,0.343,7.0,0.0,0.776,2.0,2.0,Catalan,0.0,Castellano,0.0,2.0,3.0,yes,no,no,Flauta,8,,,  ,72.0,yes
63,2024-04-14_13h16.07.122,Experiment4_uns,s180,24.0,masculino,right,España,Catalan Castellano,Bachelor degree,no,no,B,1,when,L2,unsyncopated,when,when,63,Online_whenL2//d.si13.444.wav,go,ñu,si,sil,bi,to,ño,sil1,fe,mi,sil2,['catch'],[0.9639999999999418],[0.9639999999999418],0.444,no_beat,0.5199999999999418,0.5199999999999418,"[""space""]",si,4,testConjL4Uns//r2.s2.2.wav,3.0,conjunction_un,unsyncopated,b,s2,rule,rule,L4,m,2.236,4.0,0.0,0.789,2.0,2.0,Catalan,0.0,Castellano,0.0,2.0,3.0,yes,no,no,Flauta,8,,,  ,72.0,yes
64,2024-04-14_13h16.07.122,Experiment4_uns,s180,24.0,masculino,right,España,Catalan Castellano,Bachelor degree,no,no,B,1,when,L2,unsyncopated,when,when,64,Online_whenL2//c.cha17.none.wav,te,ñu,su,sil,mi,go,me,sil1,ra,si,sil2,['-'],,,none,none,,,,cha,3,testConjL4Uns//dep_viol.r2.s1.0.wav,3.0,conjunction_un,unsyncopated,b,s1,no_rule,dep,L4,z,2.156,4.0,0.0,0.217,2.0,2.0,Catalan,0.0,Castellano,0.0,2.0,3.0,yes,no,no,Flauta,8,,,  ,72.0,yes
65,2024-04-14_13h16.07.122,Experiment4_uns,s180,24.0,masculino,right,España,Catalan Castellano,Bachelor degree,no,no,B,1,when,L2,unsyncopated,when,when,65,Online_whenL2//c.cha18.1776.wav,ra,ñu,ño,sil,si,to,te,sil1,cha,du,sil2,['catch'],[2.288000000000011],[2.288000000000011],1.776,beat,0.5120000000000109,0.5120000000000109,"[""space""]",cha,3,testConjL4Uns//time_viol.r2.s1.0.wav,3.0,conjunction_un,unsyncopated,b,s1,no_rule,time,L4,z,0.736,4.0,0.0,0.717,2.0,2.0,Catalan,0.0,Castellano,0.0,2.0,3.0,yes,no,no,Flauta,8,,,  ,72.0,yes
66,2024-04-14_13h16.07.122,Experiment4_uns,s180,24.0,masculino,right,España,Catalan Castellano,Bachelor degree,no,no,B,1,when,L2,unsyncopated,when,when,66,Online_whenL2//c.cha19.1998.wav,go,si,du,sil,ñu,to,ba,sil1,te,cha,sil2,['catch'],[2.6059999999999945],[2.6059999999999945],1.998,no_beat,0.6079999999999945,0.6079999999999945,"[""space""]",cha,3,testConjL4Uns//r1.s1.1.wav,3.0,conjunction_un,unsyncopated,a,s1,rule,rule,L4,m,0.868,4.0,0.0,1.037,2.0,2.0,Catalan,0.0,Castellano,0.0,2.0,3.0,yes,no,no,Flauta,8,,,  ,72.0,yes
67,2024-04-14_13h16.07.122,Experiment4_uns,s180,24.0,masculino,right,España,Catalan Castellano,Bachelor degree,no,no,B,1,when,L2,unsyncopated,when,when,67,Online_whenL2//c.cha16.none.wav,te,su,to,sil,du,ra,me,sil1,si,mi,sil2,['-'],,,none,none,,,,cha,3,testConjL4Uns//dep_viol.r2.s2.0.wav,3.0,conjunction_un,unsyncopated,b,s2,no_rule,dep,L4,m,1.094,3.0,1.0,1.321,2.0,2.0,Catalan,0.0,Castellano,0.0,2.0,3.0,yes,no,no,Flauta,8,,,  ,72.0,yes
68,2024-04-14_13h16.07.122,Experiment4_uns,s180,24.0,masculino,right,España,Catalan Castellano,Bachelor degree,no,no,B,1,when,L2,unsyncopated,when,when,68,Online_whenL2//b.fe0.none.wav,te,go,to,sil,si,ra,ño,sil1,cha,su,sil2,['-'],,,none,none,,,,fe,2,testConjL4Uns//time_viol.r1.s2.0.wav,3.0,conjunction_un,unsyncopated,a,s2,no_rule,time,L4,m,0.527,4.0,1.0,3.419,2.0,2.0,Catalan,0.0,Castellano,0.0,2.0,3.0,yes,no,no,Flauta,8,,,  ,72.0,yes
69,2024-04-14_13h16.07.122,Experiment4_uns,s180,24.0,masculino,right,España,Catalan Castellano,Bachelor degree,no,no,B,1,when,L2,unsyncopated,when,when,69,Online_whenL2//b.fe2.1332.wav,ñu,bi,mi,sil,ra,cha,fe,sil1,ba,si,sil2,['catch'],[1.8690000000000282],[1.8690000000000282],1.332,no_beat,0.5370000000000281,0.5370000000000281,"[""space""]",fe,2,testConjL4Uns//r2.s2.0.wav,3.0,conjunction_un,unsyncopated,b,s2,rule,rule,L4,z,2.836,6.0,1.0,1.137,2.0,2.0,Catalan,0.0,Castellano,0.0,2.0,3.0,yes,no,no,Flauta,8,,,  ,72.0,yes
70,2024-04-14_13h16.07.122,Experiment4_uns,s180,24.0,masculino,right,España,Catalan Castellano,Bachelor degree,no,no,B,1,when,L2,unsyncopated,when,when,70,Online_whenL2//b.fe3.1110.wav,me,mi,ñu,sil,bi,fe,si,sil1,to,go,sil2,['catch'],[1.6609999999999445],[1.6609999999999445],1.11,no_beat,0.5509999999999444,0.5509999999999444,"[""space""]",fe,2,testConjL4Uns//r1.s2.2.wav,3.0,conjunction_un,unsyncopated,a,s2,rule,rule,L4,m,1.374,5.0,0.0,0.917,2.0,2.0,Catalan,0.0,Castellano,0.0,2.0,3.0,yes,no,no,Flauta,8,,,  ,72.0,yes
71,2024-04-14_13h16.07.122,Experiment4_uns,s180,24.0,masculino,right,España,Catalan Castellano,Bachelor degree,no,no,B,1,when,L2,unsyncopated,when,when,71,Online_whenL2//b.fe1.none.wav,du,te,ba,sil,ra,mi,cha,sil1,ñu,to,sil2,['-'],,,none,none,,,,fe,2,testConjL4Uns//r1.s1.2.wav,3.0,conjunction_un,unsyncopated,a,s1,rule,rule,L4,m,0.785,6.0,0.0,1.169,2.0,2.0,Catalan,0.0,Castellano,0.0,2.0,3.0,yes,no,no,Flauta,8,,,  ,72.0,yes
72,2024-04-14_13h16.07.122,Experiment4_uns,s180,24.0,masculino,right,España,Catalan Castellano,Bachelor degree,no,no,B,1,when,L2,unsyncopated,when,when,72,Online_whenL2//d.si19.none.wav,bi,mi,su,sil,me,cha,du,sil1,fe,te,sil2,['-'],,,none,none,,,,si,4,testConjL3Syn//r2.s1.0.wav,4.0,conjunction_syn,syncopated,b,s1,rule,rule,L3,z,0.848,7.0,1.0,0.737,2.0,2.0,Catalan,0.0,Castellano,0.0,2.0,3.0,yes,no,no,Flauta,8,,,  ,72.0,yes
73,2024-04-14_13h16.07.122,Experiment4_uns,s180,24.0,masculino,right,España,Catalan Castellano,Bachelor degree,no,no,B,1,when,L2,unsyncopated,when,when,73,Online_whenL2//d.si16.none.wav,su,fe,mi,sil,ño,te,me,sil1,du,ba,sil2,['-'],,,none,none,,,,si,4,testConjL3Syn//r1.s1.1.wav,4.0,conjunction_syn,syncopated,a,s1,rule,rule,L3,m,1.061,5.0,0.0,1.3,2.0,2.0,Catalan,0.0,Castellano,0.0,2.0,3.0,yes,no,no,Flauta,8,,,  ,72.0,yes
74,2024-04-14_13h16.07.122,Experiment4_uns,s180,24.0,masculino,right,España,Catalan Castellano,Bachelor degree,no,no,B,1,when,L2,unsyncopated,when,when,74,Online_whenL2//d.si18.222.wav,ñu,si,bi,sil,cha,du,me,sil1,fe,ño,sil2,['catch'],[0.7380000000000564],[0.7380000000000564],0.222,no_beat,0.5160000000000564,0.5160000000000564,"[""space""]",si,4,testConjL3Syn//dep_viol.r2.s2.0.wav,4.0,conjunction_syn,syncopated,b,s2,no_rule,dep,L3,m,0.703,6.0,1.0,0.787,2.0,2.0,Catalan,0.0,Castellano,0.0,2.0,3.0,yes,no,no,Flauta,8,,,  ,72.0,yes
75,2024-04-14_13h16.07.122,Experiment4_uns,s180,24.0,masculino,right,España,Catalan Castellano,Bachelor degree,no,no,B,1,when,L2,unsyncopated,when,when,75,Online_whenL2//d.si17.none.wav,mi,su,to,sil,go,ño,du,sil1,cha,ñu,sil2,['false alarm'],[1.106999999999971],[1.106999999999971],none,none,,,"[""space""]",si,4,testConjL3Syn//r2.s2.0.wav,4.0,conjunction_syn,syncopated,b,s2,rule,rule,L3,m,1.551,4.0,0.0,0.645,2.0,2.0,Catalan,0.0,Castellano,0.0,2.0,3.0,yes,no,no,Flauta,8,,,  ,72.0,yes
76,2024-04-14_13h16.07.122,Experiment4_uns,s180,24.0,masculino,right,España,Catalan Castellano,Bachelor degree,no,no,B,1,when,L2,unsyncopated,when,when,76,Online_whenL2//c.cha23.none.wav,me,ba,fe,sil,ño,ñu,mi,sil1,go,te,sil2,['-'],,,none,none,,,,cha,3,testConjL3Syn//r2.s1.2.wav,4.0,conjunction_syn,syncopated,b,s1,rule,rule,L3,m,1.5,4.0,0.0,1.204,2.0,2.0,Catalan,0.0,Castellano,0.0,2.0,3.0,yes,no,no,Flauta,8,,,  ,72.0,yes
77,2024-04-14_13h16.07.122,Experiment4_uns,s180,24.0,masculino,right,España,Catalan Castellano,Bachelor degree,no,no,B,1,when,L2,unsyncopated,when,when,77,Online_whenL2//c.cha21.1998.wav,si,du,ñu,sil,mi,go,to,sil1,ño,cha,sil2,['catch'],[2.52800000000002],[2.52800000000002],1.998,no_beat,0.53000000000002,0.53000000000002,"[""space""]",cha,3,testConjL3Syn//dep_viol.r2.s1.0.wav,4.0,conjunction_syn,syncopated,b,s1,no_rule,dep,L3,z,2.271,3.0,0.0,0.504,2.0,2.0,Catalan,0.0,Castellano,0.0,2.0,3.0,yes,no,no,Flauta,8,,,  ,72.0,yes
78,2024-04-14_13h16.07.122,Experiment4_uns,s180,24.0,masculino,right,España,Catalan Castellano,Bachelor degree,no,no,B,1,when,L2,unsyncopated,when,when,78,Online_whenL2//c.cha22.none.wav,ra,to,mi,sil,bi,te,ba,sil1,fe,ñu,sil2,['-'],,,none,none,,,,cha,3,testConjL3Syn//time_viol.r1.s2.0.wav,4.0,conjunction_syn,syncopated,a,s2,no_rule,time,L3,m,3.059,4.0,1.0,1.068,2.0,2.0,Catalan,0.0,Castellano,0.0,2.0,3.0,yes,no,no,Flauta,8,,,  ,72.0,yes
79,2024-04-14_13h16.07.122,Experiment4_uns,s180,24.0,masculino,right,España,Catalan Castellano,Bachelor degree,no,no,B,1,when,L2,unsyncopated,when,when,79,Online_whenL2//c.cha20.none.wav,fe,ño,mi,sil,ra,su,ba,sil1,ñu,to,sil2,['-'],,,none,none,,,,cha,3,testConjL3Syn//r1.s2.1.wav,4.0,conjunction_syn,syncopated,a,s2,rule,rule,L3,z,0.517,6.0,1.0,0.485,2.0,2.0,Catalan,0.0,Castellano,0.0,2.0,3.0,yes,no,no,Flauta,8,,,  ,72.0,yes
80,2024-04-14_13h16.07.122,Experiment4_uns,s180,24.0,masculino,right,España,Catalan Castellano,Bachelor degree,no,no,B,1,when,L2,unsyncopated,when,when,80,Online_whenL2//d.si1.444.wav,ra,cha,si,sil,te,du,mi,sil1,su,bi,sil2,['catch'],[0.9639999999999418],[0.9639999999999418],0.444,no_beat,0.5199999999999418,0.5199999999999418,"[""space""]",si,4,testConjL3Syn//r1.s1.0.wav,4.0,conjunction_syn,syncopated,a,s1,rule,rule,L3,z,0.351,6.0,1.0,0.709,2.0,2.0,Catalan,0.0,Castellano,0.0,2.0,3.0,yes,no,no,Flauta,8,,,  ,72.0,yes
81,2024-04-14_13h16.07.122,Experiment4_uns,s180,24.0,masculino,right,España,Catalan Castellano,Bachelor degree,no,no,B,1,when,L2,unsyncopated,when,when,81,Online_whenL2//d.si2.0.wav,si,me,fe,sil,to,ba,ñu,sil1,su,ra,sil2,['catch'],[0.7590000000000146],[0.7590000000000146],0.0,beat,0.7590000000000146,0.7590000000000146,"[""space""]",si,4,testConjL3Syn//time_viol.r2.s1.0.wav,4.0,conjunction_syn,syncopated,b,s1,no_rule,time,L3,m,0.353,6.0,1.0,1.918,2.0,2.0,Catalan,0.0,Castellano,0.0,2.0,3.0,yes,no,no,Flauta,8,,,  ,72.0,yes
82,2024-04-14_13h16.07.122,Experiment4_uns,s180,24.0,masculino,right,España,Catalan Castellano,Bachelor degree,no,no,B,1,when,L2,unsyncopated,when,when,82,Online_whenL2//d.si0.none.wav,ño,fe,go,sil,bi,te,cha,sil1,mi,to,sil2,['-'],,,none,none,,,,si,4,testConjL3Syn//r2.s1.1.wav,4.0,conjunction_syn,syncopated,b,s1,rule,rule,L3,m,0.604,6.0,0.0,0.669,2.0,2.0,Catalan,0.0,Castellano,0.0,2.0,3.0,yes,no,no,Flauta,8,,,  ,72.0,yes
83,2024-04-14_13h16.07.122,Experiment4_uns,s180,24.0,masculino,right,España,Catalan Castellano,Bachelor degree,no,no,B,1,when,L2,unsyncopated,when,when,83,Online_whenL2//d.si3.444.wav,bi,su,si,sil,go,mi,ba,sil1,ñu,du,sil2,['catch'],[0.9039999999999964],[0.9039999999999964],0.444,no_beat,0.4599999999999963,0.4599999999999963,"[""space""]",si,4,testConjL3Syn//time_viol.r2.s2.0.wav,4.0,conjunction_syn,syncopated,b,s2,no_rule,time,L3,z,0.5,7.0,0.0,0.161,2.0,2.0,Catalan,0.0,Castellano,0.0,2.0,3.0,yes,no,no,Flauta,8,,,  ,72.0,yes
84,2024-04-14_13h16.07.122,Experiment4_uns,s180,24.0,masculino,right,España,Catalan Castellano,Bachelor degree,no,no,B,1,when,L2,unsyncopated,when,when,84,Online_whenL2//a.du12.none.wav,si,bi,fe,sil,ño,mi,su,sil1,ra,me,sil2,['-'],,,none,none,,,,du,1,testConjL3Syn//r1.s2.2.wav,4.0,conjunction_syn,syncopated,a,s2,rule,rule,L3,z,1.984,6.0,1.0,0.656,2.0,2.0,Catalan,0.0,Castellano,0.0,2.0,3.0,yes,no,no,Flauta,8,,,  ,72.0,yes
85,2024-04-14_13h16.07.122,Experiment4_uns,s180,24.0,masculino,right,España,Catalan Castellano,Bachelor degree,no,no,B,1,when,L2,unsyncopated,when,when,85,Online_whenL2//a.du13.0.wav,du,ño,to,sil,me,ra,mi,sil1,bi,ba,sil2,['catch'],[0.7419999999999618],[0.7419999999999618],0.0,beat,0.7419999999999618,0.7419999999999618,"[""space""]",du,1,testConjL3Syn//dep_viol.r1.s2.0.wav,4.0,conjunction_syn,syncopated,a,s2,no_rule,dep,L3,z,0.358,6.0,0.0,0.819,2.0,2.0,Catalan,0.0,Castellano,0.0,2.0,3.0,yes,no,no,Flauta,8,,,  ,72.0,yes
86,2024-04-14_13h16.07.122,Experiment4_uns,s180,24.0,masculino,right,España,Catalan Castellano,Bachelor degree,no,no,B,1,when,L2,unsyncopated,when,when,86,Online_whenL2//a.du14.none.wav,ño,to,bi,sil,ra,mi,me,sil1,ba,fe,sil2,['-'],,,none,none,,,,du,1,testConjL3Syn//dep_viol.r1.s1.0.wav,4.0,conjunction_syn,syncopated,a,s1,no_rule,dep,L3,z,0.901,5.0,0.0,0.452,2.0,2.0,Catalan,0.0,Castellano,0.0,2.0,3.0,yes,no,no,Flauta,8,,,  ,72.0,yes
87,2024-04-14_13h16.07.122,Experiment4_uns,s180,24.0,masculino,right,España,Catalan Castellano,Bachelor degree,no,no,B,1,when,L2,unsyncopated,when,when,87,Online_whenL2//a.du15.1998.wav,su,si,me,sil,ño,te,mi,sil1,go,du,sil2,['catch'],[2.6100000000000136],[2.6100000000000136],1.998,no_beat,0.6120000000000136,0.6120000000000136,"[""space""]",du,1,testConjL3Syn//cat_viol.r1.s2.0.wav,4.0,conjunction_syn,syncopated,a,s2,no_rule,cat,L3,m,0.217,3.0,1.0,0.826,2.0,2.0,Catalan,0.0,Castellano,0.0,2.0,3.0,yes,no,no,Flauta,8,,,  ,72.0,yes
88,2024-04-14_13h16.07.122,Experiment4_uns,s180,24.0,masculino,right,España,Catalan Castellano,Bachelor degree,no,no,B,1,when,L2,unsyncopated,when,when,88,Online_whenL2//a.du17.none.wav,ra,go,su,sil,me,si,cha,sil1,bi,te,sil2,['-'],,,none,none,,,,du,1,testConjL3Syn//r2.s2.2.wav,4.0,conjunction_syn,syncopated,b,s2,rule,rule,L3,m,0.336,6.0,0.0,0.937,2.0,2.0,Catalan,0.0,Castellano,0.0,2.0,3.0,yes,no,no,Flauta,8,,,  ,72.0,yes
89,2024-04-14_13h16.07.122,Experiment4_uns,s180,24.0,masculino,right,España,Catalan Castellano,Bachelor degree,no,no,B,1,when,L2,unsyncopated,when,when,89,Online_whenL2//a.du18.none.wav,go,fe,te,sil,si,cha,ba,sil1,ño,to,sil2,['-'],,,none,none,,,,du,1,testConjL3Syn//cat_viol.r2.s2.0.wav,4.0,conjunction_syn,syncopated,b,s2,no_rule,cat,L3,z,1.194,3.0,0.0,0.719,2.0,2.0,Catalan,0.0,Castellano,0.0,2.0,3.0,yes,no,no,Flauta,8,,,  ,72.0,yes
90,2024-04-14_13h16.07.122,Experiment4_uns,s180,24.0,masculino,right,España,Catalan Castellano,Bachelor degree,no,no,B,1,when,L2,unsyncopated,when,when,90,Online_whenL2//a.du16.none.wav,ñu,te,to,sil,su,me,si,sil1,ra,fe,sil2,['-'],,,none,none,,,,du,1,testConjL3Syn//r1.s2.0.wav,4.0,conjunction_syn,syncopated,a,s2,rule,rule,L3,z,0.451,2.0,1.0,3.018,2.0,2.0,Catalan,0.0,Castellano,0.0,2.0,3.0,yes,no,no,Flauta,8,,,  ,72.0,yes
91,2024-04-14_13h16.07.122,Experiment4_uns,s180,24.0,masculino,right,España,Catalan Castellano,Bachelor degree,no,no,B,1,when,L2,unsyncopated,when,when,91,Online_whenL2//a.du19.none.wav,su,ñu,to,sil,bi,fe,me,sil1,ño,go,sil2,['-'],,,none,none,,,,du,1,testConjL3Syn//r1.s1.2.wav,4.0,conjunction_syn,syncopated,a,s1,rule,rule,L3,m,3.478,5.0,0.0,0.51,2.0,2.0,Catalan,0.0,Castellano,0.0,2.0,3.0,yes,no,no,Flauta,8,,,  ,72.0,yes
92,2024-04-14_13h16.07.122,Experiment4_uns,s180,24.0,masculino,right,España,Catalan Castellano,Bachelor degree,no,no,B,1,when,L2,unsyncopated,when,when,92,Online_whenL2//c.cha7.none.wav,ba,to,bi,sil,ño,du,si,sil1,mi,fe,sil2,['-'],,,none,none,,,,cha,3,testConjL3Syn//time_viol.r1.s1.0.wav,4.0,conjunction_syn,syncopated,a,s1,no_rule,time,L3,m,1.502,3.0,1.0,1.343,2.0,2.0,Catalan,0.0,Castellano,0.0,2.0,3.0,yes,no,no,Flauta,8,,,  ,72.0,yes
93,2024-04-14_13h16.07.122,Experiment4_uns,s180,24.0,masculino,right,España,Catalan Castellano,Bachelor degree,no,no,B,1,when,L2,unsyncopated,when,when,93,Online_whenL2//c.cha5.none.wav,bi,mi,to,sil,su,fe,te,sil1,du,si,sil2,['-'],,,none,none,,,,cha,3,testConjL3Syn//r2.s2.1.wav,4.0,conjunction_syn,syncopated,b,s2,rule,rule,L3,z,0.264,5.0,1.0,0.718,2.0,2.0,Catalan,0.0,Castellano,0.0,2.0,3.0,yes,no,no,Flauta,8,,,  ,72.0,yes
94,2024-04-14_13h16.07.122,Experiment4_uns,s180,24.0,masculino,right,España,Catalan Castellano,Bachelor degree,no,no,B,1,when,L2,unsyncopated,when,when,94,Online_whenL2//c.cha4.222.wav,bi,cha,ñu,sil,su,mi,du,sil1,si,fe,sil2,['catch'],[0.7770000000000437],[0.7770000000000437],0.222,no_beat,0.5550000000000437,0.5550000000000437,"[""space""]",cha,3,testConjL3Syn//cat_viol.r2.s1.0.wav,4.0,conjunction_syn,syncopated,b,s1,no_rule,cat,L3,z,1.825,3.0,0.0,0.789,2.0,2.0,Catalan,0.0,Castellano,0.0,2.0,3.0,yes,no,no,Flauta,8,,,  ,72.0,yes
95,2024-04-14_13h16.07.122,Experiment4_uns,s180,24.0,masculino,right,España,Catalan Castellano,Bachelor degree,no,no,B,1,when,L2,unsyncopated,when,when,95,Online_whenL2//c.cha6.none.wav,ño,bi,su,sil,ñu,to,si,sil1,du,go,sil2,['-'],,,none,none,,,,cha,3,testConjL3Syn//cat_viol.r1.s1.0.wav,4.0,conjunction_syn,syncopated,a,s1,no_rule,cat,L3,m,2.489,3.0,1.0,0.385,2.0,2.0,Catalan,0.0,Castellano,0.0,2.0,3.0,yes,no,no,Flauta,8,,,  ,72.0,yes
96,2024-04-14_13h16.07.122,Experiment4_uns,s180,24.0,masculino,right,España,Catalan Castellano,Bachelor degree,no,no,B,1,when,L2,unsyncopated,when,when,96,Online_whenL2//a.du5.1110.wav,bi,ño,ra,sil,ba,du,mi,sil1,to,ñu,sil2,['catch'],[1.7509999999999764],[1.7509999999999764],1.11,no_beat,0.6409999999999763,0.6409999999999763,"[""space""]",du,1,,,,,,,,,,,,,,,2.0,2.0,Catalan,0.0,Castellano,0.0,2.0,3.0,yes,no,no,Flauta,8,,,  ,72.0,yes
97,2024-04-14_13h16.07.122,Experiment4_uns,s180,24.0,masculino,right,España,Catalan Castellano,Bachelor degree,no,no,B,1,when,L2,unsyncopated,when,when,97,Online_whenL2//a.du7.0.wav,du,ño,te,sil,ñu,to,mi,sil1,su,fe,sil2,['catch'],[0.7579999999999245],[0.7579999999999245],0.0,beat,0.7579999999999245,0.7579999999999245,"[""space""]",du,1,,,,,,,,,,,,,,,2.0,2.0,Catalan,0.0,Castellano,0.0,2.0,3.0,yes,no,no,Flauta,8,,,  ,72.0,yes
98,2024-04-14_13h16.07.122,Experiment4_uns,s180,24.0,masculino,right,España,Catalan Castellano,Bachelor degree,no,no,B,1,when,L2,unsyncopated,when,when,98,Online_whenL2//a.du4.1998.wav,cha,si,go,sil,mi,ñu,me,sil1,su,du,sil2,['miss'],,,1.998,no_beat,,,,du,1,,,,,,,,,,,,,,,2.0,2.0,Catalan,0.0,Castellano,0.0,2.0,3.0,yes,no,no,Flauta,8,,,  ,72.0,yes
99,2024-04-14_13h16.07.122,Experiment4_uns,s180,24.0,masculino,right,España,Catalan Castellano,Bachelor degree,no,no,B,1,when,L2,unsyncopated,when,when,99,Online_whenL2//a.du6.888.wav,me,si,bi,sil,du,mi,cha,sil1,te,fe,sil2,['catch'],[1.9039999999999964],[1.9039999999999964],0.888,beat,1.0159999999999965,1.0159999999999965,"[""space""]",du,1,,,,,,,,,,,,,,,2.0,2.0,Catalan,0.0,Castellano,0.0,2.0,3.0,yes,no,no,Flauta,8,,,  ,72.0,yes
100,2024-04-14_13h16.07.122,Experiment4_uns,s180,24.0,masculino,right,España,Catalan Castellano,Bachelor degree,no,no,B,1,when,L2,unsyncopated,when,when,100,Online_whenL2//c.cha0.1332.wav,mi,ñu,bi,sil,fe,to,cha,sil1,ra,su,sil2,['catch'],[1.7620000000000573],[1.7620000000000573],1.332,no_beat,0.4300000000000572,0.4300000000000572,"[""space""]",cha,3,,,,,,,,,,,,,,,2.0,2.0,Catalan,0.0,Castellano,0.0,2.0,3.0,yes,no,no,Flauta,8,,,  ,72.0,yes
101,2024-04-14_13h16.07.122,Experiment4_uns,s180,24.0,masculino,right,España,Catalan Castellano,Bachelor degree,no,no,B,1,when,L2,unsyncopated,when,when,101,Online_whenL2//c.cha2.none.wav,si,me,ra,sil,bi,te,ño,sil1,go,to,sil2,['-'],,,none,none,,,,cha,3,,,,,,,,,,,,,,,2.0,2.0,Catalan,0.0,Castellano,0.0,2.0,3.0,yes,no,no,Flauta,8,,,  ,72.0,yes
102,2024-04-14_13h16.07.122,Experiment4_uns,s180,24.0,masculino,right,España,Catalan Castellano,Bachelor degree,no,no,B,1,when,L2,unsyncopated,when,when,102,Online_whenL2//c.cha1.1332.wav,bi,ba,te,sil,me,ñu,cha,sil1,go,fe,sil2,['catch'],[1.8700000000000045],[1.8700000000000045],1.332,no_beat,0.5380000000000045,0.5380000000000045,"[""space""]",cha,3,,,,,,,,,,,,,,,2.0,2.0,Catalan,0.0,Castellano,0.0,2.0,3.0,yes,no,no,Flauta,8,,,  ,72.0,yes
103,2024-04-14_13h16.07.122,Experiment4_uns,s180,24.0,masculino,right,España,Catalan Castellano,Bachelor degree,no,no,B,1,when,L2,unsyncopated,when,when,103,Online_whenL2//c.cha3.1998.wav,te,to,bi,sil,du,ra,ño,sil1,su,cha,sil2,['catch'],[2.6370000000000573],[2.6370000000000573],1.998,no_beat,0.6390000000000573,0.6390000000000573,"[""space""]",cha,3,,,,,,,,,,,,,,,2.0,2.0,Catalan,0.0,Castellano,0.0,2.0,3.0,yes,no,no,Flauta,8,,,  ,72.0,yes
104,2024-04-14_13h16.07.122,Experiment4_uns,s180,24.0,masculino,right,España,Catalan Castellano,Bachelor degree,no,no,B,1,when,L2,unsyncopated,when,when,104,Online_whenL2//d.si30.none.wav,me,ba,cha,sil,ño,te,bi,sil1,du,go,sil2,['-'],,,none,none,,,,si,4,,,,,,,,,,,,,,,2.0,2.0,Catalan,0.0,Castellano,0.0,2.0,3.0,yes,no,no,Flauta,8,,,  ,72.0,yes
105,2024-04-14_13h16.07.122,Experiment4_uns,s180,24.0,masculino,right,España,Catalan Castellano,Bachelor degree,no,no,B,1,when,L2,unsyncopated,when,when,105,Online_whenL2//d.si31.none.wav,su,ba,te,sil,ra,ño,to,sil1,mi,go,sil2,['-'],,,none,none,,,,si,4,,,,,,,,,,,,,,,2.0,2.0,Catalan,0.0,Castellano,0.0,2.0,3.0,yes,no,no,Flauta,8,,,  ,72.0,yes
106,2024-04-14_13h16.07.122,Experiment4_uns,s180,24.0,masculino,right,España,Catalan Castellano,Bachelor degree,no,no,B,1,when,L2,unsyncopated,when,when,106,Online_whenL2//d.si28.888.wav,ñu,fe,bi,sil,si,cha,to,sil1,du,ba,sil2,['catch'],[1.4029999999999063],[1.4029999999999063],0.888,beat,0.5149999999999063,0.5149999999999063,"[""space""]",si,4,,,,,,,,,,,,,,,2.0,2.0,Catalan,0.0,Castellano,0.0,2.0,3.0,yes,no,no,Flauta,8,,,  ,72.0,yes
107,2024-04-14_13h16.07.122,Experiment4_uns,s180,24.0,masculino,right,España,Catalan Castellano,Bachelor degree,no,no,B,1,when,L2,unsyncopated,when,when,107,Online_whenL2//d.si29.888.wav,cha,me,su,sil,si,mi,te,sil1,ra,go,sil2,['catch'],[1.4940000000000282],[1.4940000000000282],0.888,beat,0.6060000000000282,0.6060000000000282,"[""space""]",si,4,,,,,,,,,,,,,,,2.0,2.0,Catalan,0.0,Castellano,0.0,2.0,3.0,yes,no,no,Flauta,8,,,  ,72.0,yes
108,2024-04-14_13h16.07.122,Experiment4_uns,s180,24.0,masculino,right,España,Catalan Castellano,Bachelor degree,no,no,B,1,when,L2,unsyncopated,when,when,108,Online_whenL2//c.cha8.none.wav,mi,si,to,sil,ra,ba,ño,sil1,du,su,sil2,['-'],,,none,none,,,,cha,3,,,,,,,,,,,,,,,2.0,2.0,Catalan,0.0,Castellano,0.0,2.0,3.0,yes,no,no,Flauta,8,,,  ,72.0,yes
109,2024-04-14_13h16.07.122,Experiment4_uns,s180,24.0,masculino,right,España,Catalan Castellano,Bachelor degree,no,no,B,1,when,L2,unsyncopated,when,when,109,Online_whenL2//c.cha10.444.wav,mi,su,cha,sil,si,me,go,sil1,ra,ñu,sil2,['catch'],[0.9629999999999654],[0.9629999999999654],0.444,no_beat,0.5189999999999655,0.5189999999999655,"[""space""]",cha,3,,,,,,,,,,,,,,,2.0,2.0,Catalan,0.0,Castellano,0.0,2.0,3.0,yes,no,no,Flauta,8,,,  ,72.0,yes
110,2024-04-14_13h16.07.122,Experiment4_uns,s180,24.0,masculino,right,España,Catalan Castellano,Bachelor degree,no,no,B,1,when,L2,unsyncopated,when,when,110,Online_whenL2//c.cha11.1998.wav,bi,te,ra,sil,si,su,ñu,sil1,go,cha,sil2,['catch'],[2.562999999999988],[2.562999999999988],1.998,no_beat,0.5649999999999882,0.5649999999999882,"[""space""]",cha,3,,,,,,,,,,,,,,,2.0,2.0,Catalan,0.0,Castellano,0.0,2.0,3.0,yes,no,no,Flauta,8,,,  ,72.0,yes
111,2024-04-14_13h16.07.122,Experiment4_uns,s180,24.0,masculino,right,España,Catalan Castellano,Bachelor degree,no,no,B,1,when,L2,unsyncopated,when,when,111,Online_whenL2//c.cha9.none.wav,go,ba,ñu,sil,bi,fe,to,sil1,mi,ño,sil2,['-'],,,none,none,,,,cha,3,,,,,,,,,,,,,,,2.0,2.0,Catalan,0.0,Castellano,0.0,2.0,3.0,yes,no,no,Flauta,8,,,  ,72.0,yes
112,2024-04-14_13h16.07.122,Experiment4_uns,s180,24.0,masculino,right,España,Catalan Castellano,Bachelor degree,no,no,B,1,when,L2,unsyncopated,when,when,112,Online_whenL2//b.fe4.0.wav,fe,ra,ño,sil,to,ba,cha,sil1,si,te,sil2,['catch'],[0.6409999999999627],[0.6409999999999627],0.0,beat,0.6409999999999627,0.6409999999999627,"[""space""]",fe,2,,,,,,,,,,,,,,,2.0,2.0,Catalan,0.0,Castellano,0.0,2.0,3.0,yes,no,no,Flauta,8,,,  ,72.0,yes
113,2024-04-14_13h16.07.122,Experiment4_uns,s180,24.0,masculino,right,España,Catalan Castellano,Bachelor degree,no,no,B,1,when,L2,unsyncopated,when,when,113,Online_whenL2//b.fe6.1998.wav,du,su,ñu,sil,cha,ba,to,sil1,te,fe,sil2,['catch'],[2.625],[2.625],1.998,no_beat,0.627,0.627,"[""space""]",fe,2,,,,,,,,,,,,,,,2.0,2.0,Catalan,0.0,Castellano,0.0,2.0,3.0,yes,no,no,Flauta,8,,,  ,72.0,yes
114,2024-04-14_13h16.07.122,Experiment4_uns,s180,24.0,masculino,right,España,Catalan Castellano,Bachelor degree,no,no,B,1,when,L2,unsyncopated,when,when,114,Online_whenL2//b.fe5.1332.wav,si,cha,bi,sil,ñu,su,fe,sil1,ra,te,sil2,['catch'],[2.185999999999922],[2.185999999999922],1.332,no_beat,0.8539999999999217,0.8539999999999217,"[""space""]",fe,2,,,,,,,,,,,,,,,2.0,2.0,Catalan,0.0,Castellano,0.0,2.0,3.0,yes,no,no,Flauta,8,,,  ,72.0,yes
115,2024-04-14_13h16.07.122,Experiment4_uns,s180,24.0,masculino,right,España,Catalan Castellano,Bachelor degree,no,no,B,1,when,L2,unsyncopated,when,when,115,Online_whenL2//b.fe7.1998.wav,ba,si,du,sil,cha,ño,bi,sil1,mi,fe,sil2,['catch_delay'],[0.675999999999991],[0.675999999999991],1.998,no_beat,0.675999999999991,0.675999999999991,"[""space""]",fe,2,,,,,,,,,,,,,,,2.0,2.0,Catalan,0.0,Castellano,0.0,2.0,3.0,yes,no,no,Flauta,8,,,  ,72.0,yes
116,2024-04-14_13h16.07.122,Experiment4_uns,s180,24.0,masculino,right,España,Catalan Castellano,Bachelor degree,no,no,B,1,when,L2,unsyncopated,when,when,116,Online_whenL2//a.du8.none.wav,ño,su,to,sil,go,te,bi,sil1,ra,si,sil2,['-'],[0.009999999999990905],[0.009999999999990905],none,none,,,"[""space""]",du,1,,,,,,,,,,,,,,,2.0,2.0,Catalan,0.0,Castellano,0.0,2.0,3.0,yes,no,no,Flauta,8,,,  ,72.0,yes
117,2024-04-14_13h16.07.122,Experiment4_uns,s180,24.0,masculino,right,España,Catalan Castellano,Bachelor degree,no,no,B,1,when,L2,unsyncopated,when,when,117,Online_whenL2//a.du10.none.wav,cha,ño,to,sil,ra,bi,fe,sil1,ba,mi,sil2,['-'],,,none,none,,,,du,1,,,,,,,,,,,,,,,2.0,2.0,Catalan,0.0,Castellano,0.0,2.0,3.0,yes,no,no,Flauta,8,,,  ,72.0,yes
118,2024-04-14_13h16.07.122,Experiment4_uns,s180,24.0,masculino,right,España,Catalan Castellano,Bachelor degree,no,no,B,1,when,L2,unsyncopated,when,when,118,Online_whenL2//a.du9.1332.wav,bi,cha,su,sil,ñu,ba,du,sil1,ra,me,sil2,['catch'],[1.9850000000000136],[1.9850000000000136],1.332,no_beat,0.6530000000000136,0.6530000000000136,"[""space""]",du,1,,,,,,,,,,,,,,,2.0,2.0,Catalan,0.0,Castellano,0.0,2.0,3.0,yes,no,no,Flauta,8,,,  ,72.0,yes
119,2024-04-14_13h16.07.122,Experiment4_uns,s180,24.0,masculino,right,España,Catalan Castellano,Bachelor degree,no,no,B,1,when,L2,unsyncopated,when,when,119,Online_whenL2//a.du11.1998.wav,me,te,go,sil,mi,ñu,si,sil1,bi,du,sil2,['catch'],[2.619000000000028],[2.619000000000028],1.998,no_beat,0.6210000000000282,0.6210000000000282,"[""space""]",du,1,,,,,,,,,,,,,,,2.0,2.0,Catalan,0.0,Castellano,0.0,2.0,3.0,yes,no,no,Flauta,8,,,  ,72.0,yes
120,2024-04-14_13h16.07.122,Experiment4_uns,s180,24.0,masculino,right,España,Catalan Castellano,Bachelor degree,no,no,B,1,when,L2,unsyncopated,when,when,120,Online_whenL2//b.fe33.none.wav,to,du,mi,sil,go,te,ñu,sil1,bi,me,sil2,['-'],,,none,none,,,,fe,2,,,,,,,,,,,,,,,2.0,2.0,Catalan,0.0,Castellano,0.0,2.0,3.0,yes,no,no,Flauta,8,,,  ,72.0,yes
121,2024-04-14_13h16.07.122,Experiment4_uns,s180,24.0,masculino,right,España,Catalan Castellano,Bachelor degree,no,no,B,1,when,L2,unsyncopated,when,when,121,Online_whenL2//b.fe35.1998.wav,ra,su,si,sil,to,ba,bi,sil1,me,fe,sil2,['catch'],[2.616999999999962],[2.616999999999962],1.998,no_beat,0.6189999999999618,0.6189999999999618,"[""space""]",fe,2,,,,,,,,,,,,,,,2.0,2.0,Catalan,0.0,Castellano,0.0,2.0,3.0,yes,no,no,Flauta,8,,,  ,72.0,yes
122,2024-04-14_13h16.07.122,Experiment4_uns,s180,24.0,masculino,right,España,Catalan Castellano,Bachelor degree,no,no,B,1,when,L2,unsyncopated,when,when,122,Online_whenL2//b.fe34.1776.wav,si,go,mi,sil,ba,ñu,me,sil1,fe,ño,sil2,['catch'],[2.6389999999998963],[2.6389999999998963],1.776,beat,0.8629999999998963,0.8629999999998963,"[""space""]",fe,2,,,,,,,,,,,,,,,2.0,2.0,Catalan,0.0,Castellano,0.0,2.0,3.0,yes,no,no,Flauta,8,,,  ,72.0,yes
123,2024-04-14_13h16.07.122,Experiment4_uns,s180,24.0,masculino,right,España,Catalan Castellano,Bachelor degree,no,no,B,1,when,L2,unsyncopated,when,when,123,Online_whenL2//b.fe32.222.wav,ño,fe,te,sil,ñu,bi,su,sil1,mi,go,sil2,['catch'],[0.9399999999999409],[0.9399999999999409],0.222,no_beat,0.7179999999999409,0.7179999999999409,"[""space""]",fe,2,,,,,,,,,,,,,,,2.0,2.0,Catalan,0.0,Castellano,0.0,2.0,3.0,yes,no,no,Flauta,8,,,  ,72.0,yes
124,2024-04-14_13h16.07.122,Experiment4_uns,s180,24.0,masculino,right,España,Catalan Castellano,Bachelor degree,no,no,B,1,when,L2,unsyncopated,when,when,124,Online_whenL2//a.du32.none.wav,to,fe,ñu,sil,cha,te,go,sil1,ño,si,sil2,['-'],,,none,none,,,,du,1,,,,,,,,,,,,,,,2.0,2.0,Catalan,0.0,Castellano,0.0,2.0,3.0,yes,no,no,Flauta,8,,,  ,72.0,yes
125,2024-04-14_13h16.07.122,Experiment4_uns,s180,24.0,masculino,right,España,Catalan Castellano,Bachelor degree,no,no,B,1,when,L2,unsyncopated,when,when,125,Online_whenL2//a.du35.none.wav,to,ñu,su,sil,ba,cha,fe,sil1,ño,go,sil2,['-'],,,none,none,,,,du,1,,,,,,,,,,,,,,,2.0,2.0,Catalan,0.0,Castellano,0.0,2.0,3.0,yes,no,no,Flauta,8,,,  ,72.0,yes
126,2024-04-14_13h16.07.122,Experiment4_uns,s180,24.0,masculino,right,España,Catalan Castellano,Bachelor degree,no,no,B,1,when,L2,unsyncopated,when,when,126,Online_whenL2//a.du34.1110.wav,ba,ñu,fe,sil,si,du,ño,sil1,te,su,sil2,['catch'],[1.75200000000018],[1.75200000000018],1.11,no_beat,0.64200000000018,0.64200000000018,"[""space""]",du,1,,,,,,,,,,,,,,,2.0,2.0,Catalan,0.0,Castellano,0.0,2.0,3.0,yes,no,no,Flauta,8,,,  ,72.0,yes
127,2024-04-14_13h16.07.122,Experiment4_uns,s180,24.0,masculino,right,España,Catalan Castellano,Bachelor degree,no,no,B,1,when,L2,unsyncopated,when,when,127,Online_whenL2//a.du33.1110.wav,te,su,si,sil,to,du,fe,sil1,mi,me,sil2,['catch'],[1.7519999999999527],[1.7519999999999527],1.11,no_beat,0.6419999999999526,0.6419999999999526,"[""space""]",du,1,,,,,,,,,,,,,,,2.0,2.0,Catalan,0.0,Castellano,0.0,2.0,3.0,yes,no,no,Flauta,8,,,  ,72.0,yes
128,2024-04-14_13h16.07.122,Experiment4_uns,s180,24.0,masculino,right,España,Catalan Castellano,Bachelor degree,no,no,B,1,when,L2,unsyncopated,when,when,128,Online_whenL2//a.du27.none.wav,su,go,bi,sil,fe,to,ño,sil1,si,te,sil2,['-'],,,none,none,,,,du,1,,,,,,,,,,,,,,,2.0,2.0,Catalan,0.0,Castellano,0.0,2.0,3.0,yes,no,no,Flauta,8,,,  ,72.0,yes
129,2024-04-14_13h16.07.122,Experiment4_uns,s180,24.0,masculino,right,España,Catalan Castellano,Bachelor degree,no,no,B,1,when,L2,unsyncopated,when,when,129,Online_whenL2//a.du25.444.wav,ñu,cha,du,sil,mi,su,si,sil1,go,me,sil2,"['catch', 'false alarm']","[1.1950000000001637, 1.5130000000001473]",[1.1950000000001637],0.444,no_beat,0.7510000000001638,0.7510000000001638,"[""space"",""space""]",du,1,,,,,,,,,,,,,,,2.0,2.0,Catalan,0.0,Castellano,0.0,2.0,3.0,yes,no,no,Flauta,8,,,  ,72.0,yes
130,2024-04-14_13h16.07.122,Experiment4_uns,s180,24.0,masculino,right,España,Catalan Castellano,Bachelor degree,no,no,B,1,when,L2,unsyncopated,when,when,130,Online_whenL2//a.du26.none.wav,bi,ra,te,sil,ba,si,ño,sil1,go,to,sil2,['-'],,,none,none,,,,du,1,,,,,,,,,,,,,,,2.0,2.0,Catalan,0.0,Castellano,0.0,2.0,3.0,yes,no,no,Flauta,8,,,  ,72.0,yes
131,2024-04-14_13h16.07.122,Experiment4_uns,s180,24.0,masculino,right,España,Catalan Castellano,Bachelor degree,no,no,B,1,when,L2,unsyncopated,when,when,131,Online_whenL2//a.du24.222.wav,me,du,to,sil,su,te,ra,sil1,bi,ñu,sil2,['catch'],[1.2039999999999509],[1.2039999999999509],0.222,no_beat,0.9819999999999508,0.9819999999999508,"[""space""]",du,1,,,,,,,,,,,,,,,2.0,2.0,Catalan,0.0,Castellano,0.0,2.0,3.0,yes,no,no,Flauta,8,,,  ,72.0,yes
132,2024-04-14_13h16.07.122,Experiment4_uns,s180,24.0,masculino,right,España,Catalan Castellano,Bachelor degree,no,no,B,1,when,L2,unsyncopated,when,when,132,Online_whenL2//a.du20.none.wav,su,go,te,sil,ra,si,bi,sil1,ñu,cha,sil2,['-'],,,none,none,,,,du,1,,,,,,,,,,,,,,,2.0,2.0,Catalan,0.0,Castellano,0.0,2.0,3.0,yes,no,no,Flauta,8,,,  ,72.0,yes
133,2024-04-14_13h16.07.122,Experiment4_uns,s180,24.0,masculino,right,España,Catalan Castellano,Bachelor degree,no,no,B,1,when,L2,unsyncopated,when,when,133,Online_whenL2//a.du21.none.wav,cha,si,bi,sil,ñu,ra,ño,sil1,ba,go,sil2,['-'],,,none,none,,,,du,1,,,,,,,,,,,,,,,2.0,2.0,Catalan,0.0,Castellano,0.0,2.0,3.0,yes,no,no,Flauta,8,,,  ,72.0,yes
134,2024-04-14_13h16.07.122,Experiment4_uns,s180,24.0,masculino,right,España,Catalan Castellano,Bachelor degree,no,no,B,1,when,L2,unsyncopated,when,when,134,Online_whenL2//a.du22.444.wav,me,fe,du,sil,to,ba,te,sil1,su,ñu,sil2,['catch'],[1.1109999999998763],[1.1109999999998763],0.444,no_beat,0.6669999999998764,0.6669999999998764,"[""space""]",du,1,,,,,,,,,,,,,,,2.0,2.0,Catalan,0.0,Castellano,0.0,2.0,3.0,yes,no,no,Flauta,8,,,  ,72.0,yes
135,2024-04-14_13h16.07.122,Experiment4_uns,s180,24.0,masculino,right,España,Catalan Castellano,Bachelor degree,no,no,B,1,when,L2,unsyncopated,when,when,135,Online_whenL2//a.du23.888.wav,si,fe,to,sil,du,su,ño,sil1,me,ba,sil2,['catch'],[1.6059999999999945],[1.6059999999999945],0.888,beat,0.7179999999999945,0.7179999999999945,"[""space""]",du,1,,,,,,,,,,,,,,,2.0,2.0,Catalan,0.0,Castellano,0.0,2.0,3.0,yes,no,no,Flauta,8,,,  ,72.0,yes
136,2024-04-14_13h16.07.122,Experiment4_uns,s180,24.0,masculino,right,España,Catalan Castellano,Bachelor degree,no,no,B,2,what,L1,unsyncopated,s2,r1,0,Online_whatL1//d.ne.ni2.444.0.wav,ni,fa,ne,sil,pu,la,ze,sil2,ki,fo,sil1,['catch'],[0.8389999999999418],[0.8389999999999418],0.0,beat,0.8389999999999418,0.8389999999999418,"[""space""]",ni,4,,,,,,,,,,,,,,,2.0,2.0,Catalan,0.0,Castellano,0.0,2.0,3.0,yes,no,no,Flauta,8,,,  ,72.0,yes
137,2024-04-14_13h16.07.122,Experiment4_uns,s180,24.0,masculino,right,España,Catalan Castellano,Bachelor degree,no,no,B,2,what,L1,unsyncopated,s2,r1,1,Online_whatL1//d.ne.ni1.none.none.wav,ze,lu,zu,sil,pu,fa,ri,sil2,ki,la,sil1,['-'],,,none,none,,,,ni,4,,,,,,,,,,,,,,,2.0,2.0,Catalan,0.0,Castellano,0.0,2.0,3.0,yes,no,no,Flauta,8,,,  ,72.0,yes
138,2024-04-14_13h16.07.122,Experiment4_uns,s180,24.0,masculino,right,España,Catalan Castellano,Bachelor degree,no,no,B,2,what,L1,unsyncopated,s2,r1,2,Online_whatL1//d.ne.ni0.0.1332.wav,ne,zu,fo,sil2,pu,ni,cho,sil,ki,ro,sil1,['catch'],[1.90300000000002],[1.90300000000002],1.332,no_beat,0.5710000000000199,0.5710000000000199,"[""space""]",ni,4,,,,,,,,,,,,,,,2.0,2.0,Catalan,0.0,Castellano,0.0,2.0,3.0,yes,no,no,Flauta,8,,,  ,72.0,yes
139,2024-04-14_13h16.07.122,Experiment4_uns,s180,24.0,masculino,right,España,Catalan Castellano,Bachelor degree,no,no,B,2,what,L1,unsyncopated,s2,r2,3,Online_whatL1//d.ne.ni3.none.none.wav,ro,lu,la,sil,ta,ri,fa,sil1,be,ze,sil2,['-'],,,none,none,,,,ni,4,,,,,,,,,,,,,,,2.0,2.0,Catalan,0.0,Castellano,0.0,2.0,3.0,yes,no,no,Flauta,8,,,  ,72.0,yes
140,2024-04-14_13h16.07.122,Experiment4_uns,s180,24.0,masculino,right,España,Catalan Castellano,Bachelor degree,no,no,B,2,what,L1,unsyncopated,s2,r2,4,Online_whatL1//d.ne.ni11.none.none.wav,lu,fa,ze,sil,ta,ri,la,sil1,be,fo,sil2,['-'],,,none,none,,,,ni,4,,,,,,,,,,,,,,,2.0,2.0,Catalan,0.0,Castellano,0.0,2.0,3.0,yes,no,no,Flauta,8,,,  ,72.0,yes
141,2024-04-14_13h16.07.122,Experiment4_uns,s180,24.0,masculino,right,España,Catalan Castellano,Bachelor degree,no,no,B,2,what,L1,unsyncopated,s2,r1,5,Online_whatL1//d.ne.ni10.none.none.wav,ri,fa,ro,sil2,pu,zu,ze,sil,ki,la,sil1,['-'],,,none,none,,,,ni,4,,,,,,,,,,,,,,,2.0,2.0,Catalan,0.0,Castellano,0.0,2.0,3.0,yes,no,no,Flauta,8,,,  ,72.0,yes
142,2024-04-14_13h16.07.122,Experiment4_uns,s180,24.0,masculino,right,España,Catalan Castellano,Bachelor degree,no,no,B,2,what,L1,unsyncopated,s2,r1,6,Online_whatL1//d.ne.ni8.none.none.wav,lu,fa,la,sil,pu,cho,ze,sil2,ki,fo,sil1,['-'],,,none,none,,,,ni,4,,,,,,,,,,,,,,,2.0,2.0,Catalan,0.0,Castellano,0.0,2.0,3.0,yes,no,no,Flauta,8,,,  ,72.0,yes
143,2024-04-14_13h16.07.122,Experiment4_uns,s180,24.0,masculino,right,España,Catalan Castellano,Bachelor degree,no,no,B,2,what,L1,unsyncopated,s1,r1,7,Online_whatL1//d.ne.ni9.222.444.wav,pu,ne,ni,sil,ki,fa,zu,sil2,fo,ro,sil1,['catch'],[1.0399999999999636],[1.0399999999999636],0.444,no_beat,0.5959999999999637,0.5959999999999637,"[""space""]",ni,4,,,,,,,,,,,,,,,2.0,2.0,Catalan,0.0,Castellano,0.0,2.0,3.0,yes,no,no,Flauta,8,,,  ,72.0,yes
144,2024-04-14_13h16.07.122,Experiment4_uns,s180,24.0,masculino,right,España,Catalan Castellano,Bachelor degree,no,no,B,2,what,L1,unsyncopated,s2,r2,8,Online_whatL1//d.ne.ni19.1554.444.wav,la,fa,ni,sil2,ta,cho,ne,sil,be,ri,sil1,['catch'],[1.0300000000002],[1.0300000000002],0.444,no_beat,0.5860000000002001,0.5860000000002001,"[""space""]",ni,4,,,,,,,,,,,,,,,2.0,2.0,Catalan,0.0,Castellano,0.0,2.0,3.0,yes,no,no,Flauta,8,,,  ,72.0,yes
145,2024-04-14_13h16.07.122,Experiment4_uns,s180,24.0,masculino,right,España,Catalan Castellano,Bachelor degree,no,no,B,2,what,L1,unsyncopated,s1,r2,9,Online_whatL1//d.ne.ni17.222.1332.wav,ta,ne,fo,sil,be,ri,ni,sil2,lu,fa,sil1,['false alarm'],[1.05600000000004],[1.05600000000004],1.332,no_beat,,,"[""space""]",ni,4,,,,,,,,,,,,,,,2.0,2.0,Catalan,0.0,Castellano,0.0,2.0,3.0,yes,no,no,Flauta,8,,,  ,72.0,yes
146,2024-04-14_13h16.07.122,Experiment4_uns,s180,24.0,masculino,right,España,Catalan Castellano,Bachelor degree,no,no,B,2,what,L1,unsyncopated,s2,r1,10,Online_whatL1//d.ne.ni16.0.444.wav,ne,la,ni,sil,pu,ri,zu,sil1,ki,fa,sil2,['catch'],[1.0920000000000982],[1.0920000000000982],0.444,no_beat,0.6480000000000983,0.6480000000000983,"[""space""]",ni,4,,,,,,,,,,,,,,,2.0,2.0,Catalan,0.0,Castellano,0.0,2.0,3.0,yes,no,no,Flauta,8,,,  ,72.0,yes
147,2024-04-14_13h16.07.122,Experiment4_uns,s180,24.0,masculino,right,España,Catalan Castellano,Bachelor degree,no,no,B,2,what,L1,unsyncopated,s1,r1,11,Online_whatL1//d.ne.ni18.none.none.wav,pu,ro,fo,sil,ki,ze,zu,sil2,cho,fa,sil1,['-'],,,none,none,,,,ni,4,,,,,,,,,,,,,,,2.0,2.0,Catalan,0.0,Castellano,0.0,2.0,3.0,yes,no,no,Flauta,8,,,  ,72.0,yes
148,2024-04-14_13h16.07.122,Experiment4_uns,s180,24.0,masculino,right,España,Catalan Castellano,Bachelor degree,no,no,B,2,what,L1,unsyncopated,s1,r2,12,Online_whatL1//d.ne.ni30.444.1332.wav,ta,lu,ne,sil,be,fo,ni,sil2,ro,cho,sil1,['miss'],,,1.332,no_beat,,,,ni,4,,,,,,,,,,,,,,,2.0,2.0,Catalan,0.0,Castellano,0.0,2.0,3.0,yes,no,no,Flauta,8,,,  ,72.0,yes
149,2024-04-14_13h16.07.122,Experiment4_uns,s180,24.0,masculino,right,España,Catalan Castellano,Bachelor degree,no,no,B,2,what,L1,unsyncopated,s1,r1,13,Online_whatL1//d.ne.ni31.1998.1332.wav,pu,la,cho,sil2,ki,ni,lu,sil,ne,fa,sil1,"['false alarm', 'catch']","[0.15300000000002, 2.020000000000209]",[2.020000000000209],1.332,no_beat,0.6880000000002091,0.6880000000002091,"[""space"",""space""]",ni,4,,,,,,,,,,,,,,,2.0,2.0,Catalan,0.0,Castellano,0.0,2.0,3.0,yes,no,no,Flauta,8,,,  ,72.0,yes
150,2024-04-14_13h16.07.122,Experiment4_uns,s180,24.0,masculino,right,España,Catalan Castellano,Bachelor degree,no,no,B,2,what,L1,unsyncopated,s1,r1,14,Online_whatL1//d.ne.ni28.1332.222.wav,pu,ni,lu,sil2,ki,ne,cho,sil,fo,zu,sil1,['catch'],[1.2789999999999964],[1.2789999999999964],0.222,no_beat,1.0569999999999964,1.0569999999999964,"[""space""]",ni,4,,,,,,,,,,,,,,,2.0,2.0,Catalan,0.0,Castellano,0.0,2.0,3.0,yes,no,no,Flauta,8,,,  ,72.0,yes
151,2024-04-14_13h16.07.122,Experiment4_uns,s180,24.0,masculino,right,España,Catalan Castellano,Bachelor degree,no,no,B,2,what,L1,unsyncopated,s1,r2,15,Online_whatL1//d.ne.ni29.none.none.wav,ta,la,zu,sil2,be,fo,ri,sil,fa,ro,sil1,['-'],,,none,none,,,,ni,4,,,,,,,,,,,,,,,2.0,2.0,Catalan,0.0,Castellano,0.0,2.0,3.0,yes,no,no,Flauta,8,,,  ,72.0,yes
152,2024-04-14_13h16.07.122,Experiment4_uns,s180,24.0,masculino,right,España,Catalan Castellano,Bachelor degree,no,no,B,2,what,L1,unsyncopated,s1,r2,16,Online_whatL1//b.ta.be22.0.888.wav,ta,ze,lu,sil,be,fo,la,sil2,cho,zu,sil1,['miss'],,,0.888,beat,,,,be,2,,,,,,,,,,,,,,,2.0,2.0,Catalan,0.0,Castellano,0.0,2.0,3.0,yes,no,no,Flauta,8,,,  ,72.0,yes
153,2024-04-14_13h16.07.122,Experiment4_uns,s180,24.0,masculino,right,España,Catalan Castellano,Bachelor degree,no,no,B,2,what,L1,unsyncopated,s1,r1,17,Online_whatL1//b.ta.be23.none.none.wav,pu,zu,ri,sil,ki,ni,fa,sil1,lu,cho,sil2,['false alarm'],[0.6800000000000637],[0.6800000000000637],none,none,,,"[""space""]",be,2,,,,,,,,,,,,,,,2.0,2.0,Catalan,0.0,Castellano,0.0,2.0,3.0,yes,no,no,Flauta,8,,,  ,72.0,yes
154,2024-04-14_13h16.07.122,Experiment4_uns,s180,24.0,masculino,right,España,Catalan Castellano,Bachelor degree,no,no,B,2,what,L1,unsyncopated,s2,r2,18,Online_whatL1//b.ta.be21.1110.1998.wav,fa,ri,zu,sil2,ta,lu,ne,sil,be,la,sil1,['catch'],[2.560999999999922],[2.560999999999922],1.998,no_beat,0.5629999999999218,0.5629999999999218,"[""space""]",be,2,,,,,,,,,,,,,,,2.0,2.0,Catalan,0.0,Castellano,0.0,2.0,3.0,yes,no,no,Flauta,8,,,  ,72.0,yes
155,2024-04-14_13h16.07.122,Experiment4_uns,s180,24.0,masculino,right,España,Catalan Castellano,Bachelor degree,no,no,B,2,what,L1,unsyncopated,s1,r2,19,Online_whatL1//b.ta.be20.0.888.wav,ta,ro,ne,sil,be,la,cho,sil1,lu,ri,sil2,['catch'],[1.8130000000001019],[1.8130000000001019],0.888,beat,0.925000000000102,0.925000000000102,"[""space""]",be,2,,,,,,,,,,,,,,,2.0,2.0,Catalan,0.0,Castellano,0.0,2.0,3.0,yes,no,no,Flauta,8,,,  ,72.0,yes
156,2024-04-14_13h16.07.122,Experiment4_uns,s180,24.0,masculino,right,España,Catalan Castellano,Bachelor degree,no,no,B,2,what,L1,unsyncopated,s2,r1,20,Online_whatL1//c.ro.fo17.444.0.wav,fo,lu,ro,sil,pu,zu,ne,sil1,ki,fa,sil2,['catch'],[0.7259999999998854],[0.7259999999998854],0.0,beat,0.7259999999998854,0.7259999999998854,"[""space""]",fo,3,,,,,,,,,,,,,,,2.0,2.0,Catalan,0.0,Castellano,0.0,2.0,3.0,yes,no,no,Flauta,8,,,  ,72.0,yes
157,2024-04-14_13h16.07.122,Experiment4_uns,s180,24.0,masculino,right,España,Catalan Castellano,Bachelor degree,no,no,B,2,what,L1,unsyncopated,s2,r1,21,Online_whatL1//c.ro.fo18.none.none.wav,ne,zu,la,sil2,pu,fa,ni,sil,ki,lu,sil1,['-'],,,none,none,,,,fo,3,,,,,,,,,,,,,,,2.0,2.0,Catalan,0.0,Castellano,0.0,2.0,3.0,yes,no,no,Flauta,8,,,  ,72.0,yes
158,2024-04-14_13h16.07.122,Experiment4_uns,s180,24.0,masculino,right,España,Catalan Castellano,Bachelor degree,no,no,B,2,what,L1,unsyncopated,s2,r1,22,Online_whatL1//c.ro.fo19.none.none.wav,fa,ri,zu,sil,pu,ze,cho,sil2,ki,ni,sil1,['-'],,,none,none,,,,fo,3,,,,,,,,,,,,,,,2.0,2.0,Catalan,0.0,Castellano,0.0,2.0,3.0,yes,no,no,Flauta,8,,,  ,72.0,yes
159,2024-04-14_13h16.07.122,Experiment4_uns,s180,24.0,masculino,right,España,Catalan Castellano,Bachelor degree,no,no,B,2,what,L1,unsyncopated,s2,r1,23,Online_whatL1//c.ro.fo16.222.444.wav,zu,ro,fo,sil,pu,lu,fa,sil2,ki,la,sil1,['catch'],[1.0370000000000346],[1.0370000000000346],0.444,no_beat,0.5930000000000346,0.5930000000000346,"[""space""]",fo,3,,,,,,,,,,,,,,,2.0,2.0,Catalan,0.0,Castellano,0.0,2.0,3.0,yes,no,no,Flauta,8,,,  ,72.0,yes
160,2024-04-14_13h16.07.122,Experiment4_uns,s180,24.0,masculino,right,España,Catalan Castellano,Bachelor degree,no,no,B,2,what,L1,unsyncopated,s2,r1,24,Online_whatL1//d.ne.ni21.none.none.wav,zu,fo,la,sil,pu,ze,cho,sil2,ki,lu,sil1,['-'],,,none,none,,,,ni,4,,,,,,,,,,,,,,,2.0,2.0,Catalan,0.0,Castellano,0.0,2.0,3.0,yes,no,no,Flauta,8,,,  ,72.0,yes
161,2024-04-14_13h16.07.122,Experiment4_uns,s180,24.0,masculino,right,España,Catalan Castellano,Bachelor degree,no,no,B,2,what,L1,unsyncopated,s1,r1,25,Online_whatL1//d.ne.ni23.none.none.wav,pu,fo,zu,sil,ki,cho,ro,sil1,ri,la,sil2,['-'],,,none,none,,,,ni,4,,,,,,,,,,,,,,,2.0,2.0,Catalan,0.0,Castellano,0.0,2.0,3.0,yes,no,no,Flauta,8,,,  ,72.0,yes
162,2024-04-14_13h16.07.122,Experiment4_uns,s180,24.0,masculino,right,España,Catalan Castellano,Bachelor degree,no,no,B,2,what,L1,unsyncopated,s1,r2,26,Online_whatL1//d.ne.ni20.none.none.wav,ta,fa,ro,sil2,be,ze,cho,sil,la,zu,sil1,['-'],,,none,none,,,,ni,4,,,,,,,,,,,,,,,2.0,2.0,Catalan,0.0,Castellano,0.0,2.0,3.0,yes,no,no,Flauta,8,,,  ,72.0,yes
163,2024-04-14_13h16.07.122,Experiment4_uns,s180,24.0,masculino,right,España,Catalan Castellano,Bachelor degree,no,no,B,2,what,L1,unsyncopated,s1,r1,27,Online_whatL1//d.ne.ni22.none.none.wav,pu,ro,cho,sil2,ki,lu,ze,sil,zu,ri,sil1,['-'],,,none,none,,,,ni,4,,,,,,,,,,,,,,,2.0,2.0,Catalan,0.0,Castellano,0.0,2.0,3.0,yes,no,no,Flauta,8,,,  ,72.0,yes
164,2024-04-14_13h16.07.122,Experiment4_uns,s180,24.0,masculino,right,España,Catalan Castellano,Bachelor degree,no,no,B,2,what,L1,unsyncopated,s1,r1,28,Online_whatL1//a.pu.ki27.0.888.wav,pu,ri,fa,sil,ki,la,ne,sil2,ze,cho,sil1,['catch'],[0.7309999999999945],[0.7309999999999945],0.0,beat,0.7309999999999945,0.7309999999999945,"[""space""]",pu,1,,,,,,,,,,,,,,,2.0,2.0,Catalan,0.0,Castellano,0.0,2.0,3.0,yes,no,no,Flauta,8,,,  ,72.0,yes
165,2024-04-14_13h16.07.122,Experiment4_uns,s180,24.0,masculino,right,España,Catalan Castellano,Bachelor degree,no,no,B,2,what,L1,unsyncopated,s1,r2,29,Online_whatL1//a.pu.ki26.none.none.wav,ta,zu,lu,sil,be,cho,ri,sil1,la,ze,sil2,['-'],,,none,none,,,,pu,1,,,,,,,,,,,,,,,2.0,2.0,Catalan,0.0,Castellano,0.0,2.0,3.0,yes,no,no,Flauta,8,,,  ,72.0,yes
166,2024-04-14_13h16.07.122,Experiment4_uns,s180,24.0,masculino,right,España,Catalan Castellano,Bachelor degree,no,no,B,2,what,L1,unsyncopated,s2,r1,30,Online_whatL1//a.pu.ki25.888.1998.wav,la,cho,ne,sil,pu,zu,fa,sil2,ki,lu,sil1,['catch'],[1.4380000000003292],[1.4380000000003292],0.888,beat,0.5500000000003292,0.5500000000003292,"[""space""]",pu,1,,,,,,,,,,,,,,,2.0,2.0,Catalan,0.0,Castellano,0.0,2.0,3.0,yes,no,no,Flauta,8,,,  ,72.0,yes
167,2024-04-14_13h16.07.122,Experiment4_uns,s180,24.0,masculino,right,España,Catalan Castellano,Bachelor degree,no,no,B,2,what,L1,unsyncopated,s1,r1,31,Online_whatL1//a.pu.ki24.0.888.wav,pu,fa,cho,sil,ki,zu,ne,sil2,fo,ni,sil1,['catch'],[0.6549999999999727],[0.6549999999999727],0.0,beat,0.6549999999999727,0.6549999999999727,"[""space""]",pu,1,,,,,,,,,,,,,,,2.0,2.0,Catalan,0.0,Castellano,0.0,2.0,3.0,yes,no,no,Flauta,8,,,  ,72.0,yes
168,2024-04-14_13h16.07.122,Experiment4_uns,s180,24.0,masculino,right,España,Catalan Castellano,Bachelor degree,no,no,B,2,what,L1,unsyncopated,s2,r2,32,Online_whatL1//a.pu.ki14.none.none.wav,ni,ne,ze,sil2,ta,fa,ri,sil,be,ro,sil1,['-'],,,none,none,,,,pu,1,,,,,,,,,,,,,,,2.0,2.0,Catalan,0.0,Castellano,0.0,2.0,3.0,yes,no,no,Flauta,8,,,  ,72.0,yes
169,2024-04-14_13h16.07.122,Experiment4_uns,s180,24.0,masculino,right,España,Catalan Castellano,Bachelor degree,no,no,B,2,what,L1,unsyncopated,s2,r1,33,Online_whatL1//a.pu.ki12.1110.1998.wav,ni,zu,ro,sil2,pu,lu,ze,sil,ki,fa,sil1,['catch'],[1.5620000000001255],[1.5620000000001255],1.11,no_beat,0.4520000000001254,0.4520000000001254,"[""space""]",pu,1,,,,,,,,,,,,,,,2.0,2.0,Catalan,0.0,Castellano,0.0,2.0,3.0,yes,no,no,Flauta,8,,,  ,72.0,yes
170,2024-04-14_13h16.07.122,Experiment4_uns,s180,24.0,masculino,right,España,Catalan Castellano,Bachelor degree,no,no,B,2,what,L1,unsyncopated,s2,r2,34,Online_whatL1//a.pu.ki13.none.none.wav,la,fa,ri,sil,ta,cho,ni,sil1,be,fo,sil2,['-'],,,none,none,,,,pu,1,,,,,,,,,,,,,,,2.0,2.0,Catalan,0.0,Castellano,0.0,2.0,3.0,yes,no,no,Flauta,8,,,  ,72.0,yes
171,2024-04-14_13h16.07.122,Experiment4_uns,s180,24.0,masculino,right,España,Catalan Castellano,Bachelor degree,no,no,B,2,what,L1,unsyncopated,s2,r2,35,Online_whatL1//a.pu.ki15.none.none.wav,fo,ne,ro,sil2,ta,cho,lu,sil,be,ze,sil1,['-'],,,none,none,,,,pu,1,,,,,,,,,,,,,,,2.0,2.0,Catalan,0.0,Castellano,0.0,2.0,3.0,yes,no,no,Flauta,8,,,  ,72.0,yes
172,2024-04-14_13h16.07.122,Experiment4_uns,s180,24.0,masculino,right,España,Catalan Castellano,Bachelor degree,no,no,B,2,what,L1,unsyncopated,s1,r2,36,Online_whatL1//d.ne.ni25.1332.222.wav,ta,ni,ri,sil2,be,ne,cho,sil,lu,zu,sil1,['catch'],[0.8949999999999818],[0.8949999999999818],0.222,no_beat,0.6729999999999818,0.6729999999999818,"[""space""]",ni,4,,,,,,,,,,,,,,,2.0,2.0,Catalan,0.0,Castellano,0.0,2.0,3.0,yes,no,no,Flauta,8,,,  ,72.0,yes
173,2024-04-14_13h16.07.122,Experiment4_uns,s180,24.0,masculino,right,España,Catalan Castellano,Bachelor degree,no,no,B,2,what,L1,unsyncopated,s2,r2,37,Online_whatL1//d.ne.ni24.1332.444.wav,zu,la,ni,sil,ta,ri,ne,sil2,be,fo,sil1,['catch'],[1.1570000000001528],[1.1570000000001528],0.444,no_beat,0.7130000000001528,0.7130000000001528,"[""space""]",ni,4,,,,,,,,,,,,,,,2.0,2.0,Catalan,0.0,Castellano,0.0,2.0,3.0,yes,no,no,Flauta,8,,,  ,72.0,yes
174,2024-04-14_13h16.07.122,Experiment4_uns,s180,24.0,masculino,right,España,Catalan Castellano,Bachelor degree,no,no,B,2,what,L1,unsyncopated,s2,r1,38,Online_whatL1//d.ne.ni26.0.444.wav,ne,lu,ni,sil,pu,ze,fa,sil1,ki,ro,sil2,['catch'],[1.05399999999986],[1.05399999999986],0.444,no_beat,0.60999999999986,0.60999999999986,"[""space""]",ni,4,,,,,,,,,,,,,,,2.0,2.0,Catalan,0.0,Castellano,0.0,2.0,3.0,yes,no,no,Flauta,8,,,  ,72.0,yes
175,2024-04-14_13h16.07.122,Experiment4_uns,s180,24.0,masculino,right,España,Catalan Castellano,Bachelor degree,no,no,B,2,what,L1,unsyncopated,s1,r2,39,Online_whatL1//d.ne.ni27.none.none.wav,ta,ri,fa,sil2,be,cho,ro,sil,lu,la,sil1,['-'],,,none,none,,,,ni,4,,,,,,,,,,,,,,,2.0,2.0,Catalan,0.0,Castellano,0.0,2.0,3.0,yes,no,no,Flauta,8,,,  ,72.0,yes
176,2024-04-14_13h16.07.122,Experiment4_uns,s180,24.0,masculino,right,España,Catalan Castellano,Bachelor degree,no,no,B,2,what,L1,unsyncopated,s1,r1,40,Online_whatL1//c.ro.fo4.none.none.wav,pu,lu,fa,sil2,ki,la,zu,sil,cho,ze,sil1,['-'],,,none,none,,,,fo,3,,,,,,,,,,,,,,,2.0,2.0,Catalan,0.0,Castellano,0.0,2.0,3.0,yes,no,no,Flauta,8,,,  ,72.0,yes
177,2024-04-14_13h16.07.122,Experiment4_uns,s180,24.0,masculino,right,España,Catalan Castellano,Bachelor degree,no,no,B,2,what,L1,unsyncopated,s2,r1,41,Online_whatL1//c.ro.fo6.none.none.wav,la,ri,cho,sil,pu,ne,ni,sil1,ki,fa,sil2,['-'],,,none,none,,,,fo,3,,,,,,,,,,,,,,,2.0,2.0,Catalan,0.0,Castellano,0.0,2.0,3.0,yes,no,no,Flauta,8,,,  ,72.0,yes
178,2024-04-14_13h16.07.122,Experiment4_uns,s180,24.0,masculino,right,España,Catalan Castellano,Bachelor degree,no,no,B,2,what,L1,unsyncopated,s2,r2,42,Online_whatL1//c.ro.fo7.none.none.wav,ri,lu,ni,sil2,ta,la,ne,sil,be,ze,sil1,['-'],,,none,none,,,,fo,3,,,,,,,,,,,,,,,2.0,2.0,Catalan,0.0,Castellano,0.0,2.0,3.0,yes,no,no,Flauta,8,,,  ,72.0,yes
179,2024-04-14_13h16.07.122,Experiment4_uns,s180,24.0,masculino,right,España,Catalan Castellano,Bachelor degree,no,no,B,2,what,L1,unsyncopated,s1,r2,43,Online_whatL1//c.ro.fo5.none.none.wav,ta,ze,lu,sil,be,ne,zu,sil2,ri,ni,sil1,['-'],,,none,none,,,,fo,3,,,,,,,,,,,,,,,2.0,2.0,Catalan,0.0,Castellano,0.0,2.0,3.0,yes,no,no,Flauta,8,,,  ,72.0,yes
180,2024-04-14_13h16.07.122,Experiment4_uns,s180,24.0,masculino,right,España,Catalan Castellano,Bachelor degree,no,no,B,2,what,L1,unsyncopated,s1,r1,44,Online_whatL1//a.pu.ki1.0.888.wav,pu,ni,ne,sil,ki,ri,la,sil2,ro,cho,sil1,['catch'],[0.6890000000000782],[0.6890000000000782],0.0,beat,0.6890000000000782,0.6890000000000782,"[""space""]",pu,1,,,,,,,,,,,,,,,2.0,2.0,Catalan,0.0,Castellano,0.0,2.0,3.0,yes,no,no,Flauta,8,,,  ,72.0,yes
181,2024-04-14_13h16.07.122,Experiment4_uns,s180,24.0,masculino,right,España,Catalan Castellano,Bachelor degree,no,no,B,2,what,L1,unsyncopated,s1,r2,45,Online_whatL1//a.pu.ki2.none.none.wav,ta,zu,lu,sil2,be,ni,ze,sil,ne,fa,sil1,['-'],,,none,none,,,,pu,1,,,,,,,,,,,,,,,2.0,2.0,Catalan,0.0,Castellano,0.0,2.0,3.0,yes,no,no,Flauta,8,,,  ,72.0,yes
182,2024-04-14_13h16.07.122,Experiment4_uns,s180,24.0,masculino,right,España,Catalan Castellano,Bachelor degree,no,no,B,2,what,L1,unsyncopated,s1,r1,46,Online_whatL1//a.pu.ki0.0.888.wav,pu,la,ne,sil,ki,lu,fa,sil1,ni,fo,sil2,['catch'],[0.5740000000000691],[0.5740000000000691],0.0,beat,0.5740000000000691,0.5740000000000691,"[""space""]",pu,1,,,,,,,,,,,,,,,2.0,2.0,Catalan,0.0,Castellano,0.0,2.0,3.0,yes,no,no,Flauta,8,,,  ,72.0,yes
183,2024-04-14_13h16.07.122,Experiment4_uns,s180,24.0,masculino,right,España,Catalan Castellano,Bachelor degree,no,no,B,2,what,L1,unsyncopated,s1,r2,47,Online_whatL1//a.pu.ki3.none.none.wav,ta,la,ne,sil,be,cho,ni,sil2,fo,ri,sil1,['-'],,,none,none,,,,pu,1,,,,,,,,,,,,,,,2.0,2.0,Catalan,0.0,Castellano,0.0,2.0,3.0,yes,no,no,Flauta,8,,,  ,72.0,yes
184,2024-04-14_13h16.07.122,Experiment4_uns,s180,24.0,masculino,right,España,Catalan Castellano,Bachelor degree,no,no,B,2,what,L1,unsyncopated,s2,r1,48,Online_whatL1//b.ta.be24.none.none.wav,lu,zu,cho,sil,pu,ni,fa,sil2,ki,fo,sil1,['-'],,,none,none,,,,be,2,,,,,,,,,,,,,,,2.0,2.0,Catalan,0.0,Castellano,0.0,2.0,3.0,yes,no,no,Flauta,8,,,  ,72.0,yes
185,2024-04-14_13h16.07.122,Experiment4_uns,s180,24.0,masculino,right,España,Catalan Castellano,Bachelor degree,no,no,B,2,what,L1,unsyncopated,s1,r1,49,Online_whatL1//b.ta.be25.none.none.wav,pu,ze,cho,sil2,ki,fo,ro,sil,ni,ri,sil1,['-'],,,none,none,,,,be,2,,,,,,,,,,,,,,,2.0,2.0,Catalan,0.0,Castellano,0.0,2.0,3.0,yes,no,no,Flauta,8,,,  ,72.0,yes
186,2024-04-14_13h16.07.122,Experiment4_uns,s180,24.0,masculino,right,España,Catalan Castellano,Bachelor degree,no,no,B,2,what,L1,unsyncopated,s1,r1,50,Online_whatL1//b.ta.be26.none.none.wav,pu,lu,cho,sil,ki,ne,ro,sil2,fa,la,sil1,['-'],,,none,none,,,,be,2,,,,,,,,,,,,,,,2.0,2.0,Catalan,0.0,Castellano,0.0,2.0,3.0,yes,no,no,Flauta,8,,,  ,72.0,yes
187,2024-04-14_13h16.07.122,Experiment4_uns,s180,24.0,masculino,right,España,Catalan Castellano,Bachelor degree,no,no,B,2,what,L1,unsyncopated,s1,r1,51,Online_whatL1//b.ta.be27.none.none.wav,pu,lu,zu,sil,ki,la,ro,sil2,ni,fa,sil1,['-'],,,none,none,,,,be,2,,,,,,,,,,,,,,,2.0,2.0,Catalan,0.0,Castellano,0.0,2.0,3.0,yes,no,no,Flauta,8,,,  ,72.0,yes
188,2024-04-14_13h16.07.122,Experiment4_uns,s180,24.0,masculino,right,España,Catalan Castellano,Bachelor degree,no,no,B,2,what,L1,unsyncopated,s2,r1,52,Online_whatL1//a.pu.ki6.888.1776.wav,fa,lu,ro,sil,pu,ni,ze,sil1,ki,ri,sil2,['catch'],[1.6320000000000618],[1.6320000000000618],0.888,beat,0.7440000000000618,0.7440000000000618,"[""space""]",pu,1,,,,,,,,,,,,,,,2.0,2.0,Catalan,0.0,Castellano,0.0,2.0,3.0,yes,no,no,Flauta,8,,,  ,72.0,yes
189,2024-04-14_13h16.07.122,Experiment4_uns,s180,24.0,masculino,right,España,Catalan Castellano,Bachelor degree,no,no,B,2,what,L1,unsyncopated,s2,r1,53,Online_whatL1//a.pu.ki4.888.1776.wav,cho,zu,fa,sil,pu,lu,fo,sil1,ki,ze,sil2,['catch'],[1.5049999999998818],[1.5049999999998818],0.888,beat,0.6169999999998818,0.6169999999998818,"[""space""]",pu,1,,,,,,,,,,,,,,,2.0,2.0,Catalan,0.0,Castellano,0.0,2.0,3.0,yes,no,no,Flauta,8,,,  ,72.0,yes
190,2024-04-14_13h16.07.122,Experiment4_uns,s180,24.0,masculino,right,España,Catalan Castellano,Bachelor degree,no,no,B,2,what,L1,unsyncopated,s2,r2,54,Online_whatL1//a.pu.ki7.none.none.wav,zu,ne,ri,sil,ta,ro,ze,sil1,be,fo,sil2,['-'],,,none,none,,,,pu,1,,,,,,,,,,,,,,,2.0,2.0,Catalan,0.0,Castellano,0.0,2.0,3.0,yes,no,no,Flauta,8,,,  ,72.0,yes
191,2024-04-14_13h16.07.122,Experiment4_uns,s180,24.0,masculino,right,España,Catalan Castellano,Bachelor degree,no,no,B,2,what,L1,unsyncopated,s2,r2,55,Online_whatL1//a.pu.ki5.none.none.wav,cho,ri,ne,sil2,ta,ro,ni,sil,be,lu,sil1,['-'],,,none,none,,,,pu,1,,,,,,,,,,,,,,,2.0,2.0,Catalan,0.0,Castellano,0.0,2.0,3.0,yes,no,no,Flauta,8,,,  ,72.0,yes
192,2024-04-14_13h16.07.122,Experiment4_uns,s180,24.0,masculino,right,España,Catalan Castellano,Bachelor degree,no,no,B,2,what,L1,unsyncopated,s1,r2,56,Online_whatL1//a.pu.ki30.none.none.wav,ta,zu,cho,sil,be,ri,ni,sil2,ne,la,sil1,['-'],,,none,none,,,,pu,1,,,,,,,,,,,,,,,2.0,2.0,Catalan,0.0,Castellano,0.0,2.0,3.0,yes,no,no,Flauta,8,,,  ,72.0,yes
193,2024-04-14_13h16.07.122,Experiment4_uns,s180,24.0,masculino,right,España,Catalan Castellano,Bachelor degree,no,no,B,2,what,L1,unsyncopated,s2,r2,57,Online_whatL1//a.pu.ki29.none.none.wav,zu,lu,ne,sil,ta,ze,ni,sil1,be,ro,sil2,['-'],,,none,none,,,,pu,1,,,,,,,,,,,,,,,2.0,2.0,Catalan,0.0,Castellano,0.0,2.0,3.0,yes,no,no,Flauta,8,,,  ,72.0,yes
194,2024-04-14_13h16.07.122,Experiment4_uns,s180,24.0,masculino,right,España,Catalan Castellano,Bachelor degree,no,no,B,2,what,L1,unsyncopated,s2,r1,58,Online_whatL1//a.pu.ki28.888.1776.wav,fo,ro,fa,sil,pu,ze,zu,sil1,ki,ni,sil2,['catch'],[1.393000000000029],[1.393000000000029],0.888,beat,0.5050000000000291,0.5050000000000291,"[""space""]",pu,1,,,,,,,,,,,,,,,2.0,2.0,Catalan,0.0,Castellano,0.0,2.0,3.0,yes,no,no,Flauta,8,,,  ,72.0,yes
195,2024-04-14_13h16.07.122,Experiment4_uns,s180,24.0,masculino,right,España,Catalan Castellano,Bachelor degree,no,no,B,2,what,L1,unsyncopated,s1,r1,59,Online_whatL1//a.pu.ki31.0.888.wav,pu,la,lu,sil,ki,ro,zu,sil2,ne,cho,sil1,['catch'],[0.890999999999849],[0.890999999999849],0.0,beat,0.890999999999849,0.890999999999849,"[""space""]",pu,1,,,,,,,,,,,,,,,2.0,2.0,Catalan,0.0,Castellano,0.0,2.0,3.0,yes,no,no,Flauta,8,,,  ,72.0,yes
196,2024-04-14_13h16.07.122,Experiment4_uns,s180,24.0,masculino,right,España,Catalan Castellano,Bachelor degree,no,no,B,2,what,L1,unsyncopated,s2,r1,60,Online_whatL1//c.ro.fo13.1332.444.wav,ni,fa,fo,sil,pu,la,ro,sil1,ki,cho,sil2,['catch'],[1.1080000000001746],[1.1080000000001746],0.444,no_beat,0.6640000000001747,0.6640000000001747,"[""space""]",fo,3,,,,,,,,,,,,,,,2.0,2.0,Catalan,0.0,Castellano,0.0,2.0,3.0,yes,no,no,Flauta,8,,,  ,72.0,yes
197,2024-04-14_13h16.07.122,Experiment4_uns,s180,24.0,masculino,right,España,Catalan Castellano,Bachelor degree,no,no,B,2,what,L1,unsyncopated,s1,r2,61,Online_whatL1//c.ro.fo15.none.none.wav,ta,ri,lu,sil,be,ze,zu,sil1,cho,ni,sil2,['-'],,,none,none,,,,fo,3,,,,,,,,,,,,,,,2.0,2.0,Catalan,0.0,Castellano,0.0,2.0,3.0,yes,no,no,Flauta,8,,,  ,72.0,yes
198,2024-04-14_13h16.07.122,Experiment4_uns,s180,24.0,masculino,right,España,Catalan Castellano,Bachelor degree,no,no,B,2,what,L1,unsyncopated,s2,r2,62,Online_whatL1//c.ro.fo12.1332.222.wav,ri,fo,zu,sil,ta,fa,ro,sil2,be,ni,sil1,['catch'],[0.9209999999998217],[0.9209999999998217],0.222,no_beat,0.6989999999998218,0.6989999999998218,"[""space""]",fo,3,,,,,,,,,,,,,,,2.0,2.0,Catalan,0.0,Castellano,0.0,2.0,3.0,yes,no,no,Flauta,8,,,  ,72.0,yes
199,2024-04-14_13h16.07.122,Experiment4_uns,s180,24.0,masculino,right,España,Catalan Castellano,Bachelor degree,no,no,B,2,what,L1,unsyncopated,s1,r2,63,Online_whatL1//c.ro.fo14.1332.222.wav,ta,fo,cho,sil,be,fa,ro,sil1,lu,ni,sil2,['catch'],[0.7760000000000673],[0.7760000000000673],0.222,no_beat,0.5540000000000673,0.5540000000000673,"[""space""]",fo,3,,,,,,,,,,,,,,,2.0,2.0,Catalan,0.0,Castellano,0.0,2.0,3.0,yes,no,no,Flauta,8,,,  ,72.0,yes
200,2024-04-14_13h16.07.122,Experiment4_uns,s180,24.0,masculino,right,España,Catalan Castellano,Bachelor degree,no,no,B,2,what,L1,unsyncopated,s1,r2,64,Online_whatL1//b.ta.be11.0.888.wav,ta,ne,fa,sil,be,ri,fo,sil2,cho,ni,sil1,['catch'],[1.3670000000001892],[1.3670000000001892],0.888,beat,0.4790000000001891,0.4790000000001891,"[""space""]",be,2,,,,,,,,,,,,,,,2.0,2.0,Catalan,0.0,Castellano,0.0,2.0,3.0,yes,no,no,Flauta,8,,,  ,72.0,yes
201,2024-04-14_13h16.07.122,Experiment4_uns,s180,24.0,masculino,right,España,Catalan Castellano,Bachelor degree,no,no,B,2,what,L1,unsyncopated,s2,r1,65,Online_whatL1//b.ta.be9.none.none.wav,ze,zu,ni,sil,pu,fa,ne,sil1,ki,fo,sil2,['-'],,,none,none,,,,be,2,,,,,,,,,,,,,,,2.0,2.0,Catalan,0.0,Castellano,0.0,2.0,3.0,yes,no,no,Flauta,8,,,  ,72.0,yes
202,2024-04-14_13h16.07.122,Experiment4_uns,s180,24.0,masculino,right,España,Catalan Castellano,Bachelor degree,no,no,B,2,what,L1,unsyncopated,s1,r1,66,Online_whatL1//b.ta.be10.none.none.wav,pu,fo,fa,sil,ki,zu,cho,sil1,la,ri,sil2,['-'],,,none,none,,,,be,2,,,,,,,,,,,,,,,2.0,2.0,Catalan,0.0,Castellano,0.0,2.0,3.0,yes,no,no,Flauta,8,,,  ,72.0,yes
203,2024-04-14_13h16.07.122,Experiment4_uns,s180,24.0,masculino,right,España,Catalan Castellano,Bachelor degree,no,no,B,2,what,L1,unsyncopated,s1,r2,67,Online_whatL1//b.ta.be8.0.1110.wav,ta,la,zu,sil2,be,fo,ri,sil,ne,ze,sil1,['catch'],[1.663000000000011],[1.663000000000011],1.11,no_beat,0.5530000000000108,0.5530000000000108,"[""space""]",be,2,,,,,,,,,,,,,,,2.0,2.0,Catalan,0.0,Castellano,0.0,2.0,3.0,yes,no,no,Flauta,8,,,  ,72.0,yes
204,2024-04-14_13h16.07.122,Experiment4_uns,s180,24.0,masculino,right,España,Catalan Castellano,Bachelor degree,no,no,B,2,what,L1,unsyncopated,s1,r2,68,Online_whatL1//d.ne.ni4.none.none.wav,ta,cho,lu,sil,be,fa,zu,sil1,ro,ze,sil2,['-'],,,none,none,,,,ni,4,,,,,,,,,,,,,,,2.0,2.0,Catalan,0.0,Castellano,0.0,2.0,3.0,yes,no,no,Flauta,8,,,  ,72.0,yes
205,2024-04-14_13h16.07.122,Experiment4_uns,s180,24.0,masculino,right,España,Catalan Castellano,Bachelor degree,no,no,B,2,what,L1,unsyncopated,s1,r1,69,Online_whatL1//d.ne.ni5.none.none.wav,pu,cho,fo,sil,ki,zu,ro,sil2,fa,la,sil1,['-'],,,none,none,,,,ni,4,,,,,,,,,,,,,,,2.0,2.0,Catalan,0.0,Castellano,0.0,2.0,3.0,yes,no,no,Flauta,8,,,  ,72.0,yes
206,2024-04-14_13h16.07.122,Experiment4_uns,s180,24.0,masculino,right,España,Catalan Castellano,Bachelor degree,no,no,B,2,what,L1,unsyncopated,s2,r2,70,Online_whatL1//d.ne.ni7.none.none.wav,ze,lu,fa,sil,ta,cho,ri,sil1,be,ro,sil2,['-'],,,none,none,,,,ni,4,,,,,,,,,,,,,,,2.0,2.0,Catalan,0.0,Castellano,0.0,2.0,3.0,yes,no,no,Flauta,8,,,  ,72.0,yes
207,2024-04-14_13h16.07.122,Experiment4_uns,s180,24.0,masculino,right,España,Catalan Castellano,Bachelor degree,no,no,B,2,what,L1,unsyncopated,s2,r2,71,Online_whatL1//d.ne.ni6.none.none.wav,fa,fo,ri,sil,ta,lu,zu,sil1,be,ro,sil2,['-'],,,none,none,,,,ni,4,,,,,,,,,,,,,,,2.0,2.0,Catalan,0.0,Castellano,0.0,2.0,3.0,yes,no,no,Flauta,8,,,  ,72.0,yes
208,2024-04-14_13h16.07.122,Experiment4_uns,s180,24.0,masculino,right,España,Catalan Castellano,Bachelor degree,no,no,B,2,what,L1,unsyncopated,s1,r2,72,Online_whatL1//c.ro.fo0.none.none.wav,ta,lu,ri,sil,be,ze,zu,sil2,ni,la,sil1,['-'],,,none,none,,,,fo,3,,,,,,,,,,,,,,,2.0,2.0,Catalan,0.0,Castellano,0.0,2.0,3.0,yes,no,no,Flauta,8,,,  ,72.0,yes
209,2024-04-14_13h16.07.122,Experiment4_uns,s180,24.0,masculino,right,España,Catalan Castellano,Bachelor degree,no,no,B,2,what,L1,unsyncopated,s1,r1,73,Online_whatL1//c.ro.fo3.1998.444.wav,pu,lu,fo,sil,ki,cho,fa,sil2,ro,ni,sil1,['catch'],[1.0360000000000582],[1.0360000000000582],0.444,no_beat,0.5920000000000583,0.5920000000000583,"[""space""]",fo,3,,,,,,,,,,,,,,,2.0,2.0,Catalan,0.0,Castellano,0.0,2.0,3.0,yes,no,no,Flauta,8,,,  ,72.0,yes
210,2024-04-14_13h16.07.122,Experiment4_uns,s180,24.0,masculino,right,España,Catalan Castellano,Bachelor degree,no,no,B,2,what,L1,unsyncopated,s2,r2,74,Online_whatL1//c.ro.fo1.0.444.wav,ro,zu,fo,sil2,ta,ri,ne,sil,be,fa,sil1,['catch'],[1.0239999999998872],[1.0239999999998872],0.444,no_beat,0.5799999999998873,0.5799999999998873,"[""space""]",fo,3,,,,,,,,,,,,,,,2.0,2.0,Catalan,0.0,Castellano,0.0,2.0,3.0,yes,no,no,Flauta,8,,,  ,72.0,yes
211,2024-04-14_13h16.07.122,Experiment4_uns,s180,24.0,masculino,right,España,Catalan Castellano,Bachelor degree,no,no,B,2,what,L1,unsyncopated,s1,r2,75,Online_whatL1//c.ro.fo2.none.none.wav,ta,fa,ze,sil,be,ri,lu,sil1,ni,la,sil2,['-'],,,none,none,,,,fo,3,,,,,,,,,,,,,,,2.0,2.0,Catalan,0.0,Castellano,0.0,2.0,3.0,yes,no,no,Flauta,8,,,  ,72.0,yes
212,2024-04-14_13h16.07.122,Experiment4_uns,s180,24.0,masculino,right,España,Catalan Castellano,Bachelor degree,no,no,B,2,what,L1,unsyncopated,s1,r2,76,Online_whatL1//c.ro.fo25.222.1110.wav,ta,ro,lu,sil,be,fo,ri,sil2,ni,zu,sil1,['catch'],[1.6860000000001492],[1.6860000000001492],1.11,no_beat,0.5760000000001491,0.5760000000001491,"[""space""]",fo,3,,,,,,,,,,,,,,,2.0,2.0,Catalan,0.0,Castellano,0.0,2.0,3.0,yes,no,no,Flauta,8,,,  ,72.0,yes
213,2024-04-14_13h16.07.122,Experiment4_uns,s180,24.0,masculino,right,España,Catalan Castellano,Bachelor degree,no,no,B,2,what,L1,unsyncopated,s1,r2,77,Online_whatL1//c.ro.fo26.1332.1554.wav,ta,fa,ri,sil2,be,ro,fo,sil,ze,zu,sil1,['miss'],,,1.554,no_beat,,,,fo,3,,,,,,,,,,,,,,,2.0,2.0,Catalan,0.0,Castellano,0.0,2.0,3.0,yes,no,no,Flauta,8,,,  ,72.0,yes
214,2024-04-14_13h16.07.122,Experiment4_uns,s180,24.0,masculino,right,España,Catalan Castellano,Bachelor degree,no,no,B,2,what,L1,unsyncopated,s1,r1,78,Online_whatL1//c.ro.fo27.none.none.wav,pu,lu,ze,sil,ki,ne,fa,sil2,cho,zu,sil1,['-'],,,none,none,,,,fo,3,,,,,,,,,,,,,,,2.0,2.0,Catalan,0.0,Castellano,0.0,2.0,3.0,yes,no,no,Flauta,8,,,  ,72.0,yes
215,2024-04-14_13h16.07.122,Experiment4_uns,s180,24.0,masculino,right,España,Catalan Castellano,Bachelor degree,no,no,B,2,what,L1,unsyncopated,s1,r1,79,Online_whatL1//c.ro.fo24.none.none.wav,pu,la,ri,sil,ki,fa,ne,sil1,ni,lu,sil2,['-'],,,none,none,,,,fo,3,,,,,,,,,,,,,,,2.0,2.0,Catalan,0.0,Castellano,0.0,2.0,3.0,yes,no,no,Flauta,8,,,  ,72.0,yes
216,2024-04-14_13h16.07.122,Experiment4_uns,s180,24.0,masculino,right,España,Catalan Castellano,Bachelor degree,no,no,B,2,what,L1,unsyncopated,s1,r2,80,Online_whatL1//c.ro.fo8.222.444.wav,ta,ro,fo,sil,be,ri,fa,sil2,cho,lu,sil1,['miss'],,,0.444,no_beat,,,,fo,3,,,,,,,,,,,,,,,2.0,2.0,Catalan,0.0,Castellano,0.0,2.0,3.0,yes,no,no,Flauta,8,,,  ,72.0,yes
217,2024-04-14_13h16.07.122,Experiment4_uns,s180,24.0,masculino,right,España,Catalan Castellano,Bachelor degree,no,no,B,2,what,L1,unsyncopated,s1,r1,81,Online_whatL1//c.ro.fo10.1332.444.wav,pu,fa,fo,sil,ki,ne,ro,sil1,ni,cho,sil2,['catch'],[1.0199999999999818],[1.0199999999999818],0.444,no_beat,0.5759999999999819,0.5759999999999819,"[""space""]",fo,3,,,,,,,,,,,,,,,2.0,2.0,Catalan,0.0,Castellano,0.0,2.0,3.0,yes,no,no,Flauta,8,,,  ,72.0,yes
218,2024-04-14_13h16.07.122,Experiment4_uns,s180,24.0,masculino,right,España,Catalan Castellano,Bachelor degree,no,no,B,2,what,L1,unsyncopated,s1,r1,82,Online_whatL1//c.ro.fo11.none.none.wav,pu,la,fa,sil2,ki,ri,zu,sil,ni,ne,sil1,['-'],,,none,none,,,,fo,3,,,,,,,,,,,,,,,2.0,2.0,Catalan,0.0,Castellano,0.0,2.0,3.0,yes,no,no,Flauta,8,,,  ,72.0,yes
219,2024-04-14_13h16.07.122,Experiment4_uns,s180,24.0,masculino,right,España,Catalan Castellano,Bachelor degree,no,no,B,2,what,L1,unsyncopated,s2,r2,83,Online_whatL1//c.ro.fo9.0.1110.wav,ro,lu,zu,sil,ta,fo,cho,sil2,be,ze,sil1,['catch'],[1.768000000000029],[1.768000000000029],1.11,no_beat,0.658000000000029,0.658000000000029,"[""space""]",fo,3,,,,,,,,,,,,,,,2.0,2.0,Catalan,0.0,Castellano,0.0,2.0,3.0,yes,no,no,Flauta,8,,,  ,72.0,yes
220,2024-04-14_13h16.07.122,Experiment4_uns,s180,24.0,masculino,right,España,Catalan Castellano,Bachelor degree,no,no,B,2,what,L1,unsyncopated,s2,r2,84,Online_whatL1//c.ro.fo22.0.1110.wav,ro,ne,zu,sil,ta,fo,cho,sil1,be,la,sil2,['catch'],[1.7309999999999945],[1.7309999999999945],1.11,no_beat,0.6209999999999944,0.6209999999999944,"[""space""]",fo,3,,,,,,,,,,,,,,,2.0,2.0,Catalan,0.0,Castellano,0.0,2.0,3.0,yes,no,no,Flauta,8,,,  ,72.0,yes
221,2024-04-14_13h16.07.122,Experiment4_uns,s180,24.0,masculino,right,España,Catalan Castellano,Bachelor degree,no,no,B,2,what,L1,unsyncopated,s2,r2,85,Online_whatL1//c.ro.fo23.none.none.wav,ne,ni,zu,sil,ta,lu,la,sil1,be,ri,sil2,['-'],,,none,none,,,,fo,3,,,,,,,,,,,,,,,2.0,2.0,Catalan,0.0,Castellano,0.0,2.0,3.0,yes,no,no,Flauta,8,,,  ,72.0,yes
222,2024-04-14_13h16.07.122,Experiment4_uns,s180,24.0,masculino,right,España,Catalan Castellano,Bachelor degree,no,no,B,2,what,L1,unsyncopated,s1,r1,86,Online_whatL1//c.ro.fo20.222.1332.wav,pu,ro,la,sil,ki,fa,fo,sil2,ni,ne,sil1,['catch'],[1.9359999999999218],[1.9359999999999218],1.332,no_beat,0.6039999999999217,0.6039999999999217,"[""space""]",fo,3,,,,,,,,,,,,,,,2.0,2.0,Catalan,0.0,Castellano,0.0,2.0,3.0,yes,no,no,Flauta,8,,,  ,72.0,yes
223,2024-04-14_13h16.07.122,Experiment4_uns,s180,24.0,masculino,right,España,Catalan Castellano,Bachelor degree,no,no,B,2,what,L1,unsyncopated,s2,r1,87,Online_whatL1//c.ro.fo21.none.none.wav,ze,cho,ne,sil2,pu,ri,zu,sil,ki,fa,sil1,['-'],,,none,none,,,,fo,3,,,,,,,,,,,,,,,2.0,2.0,Catalan,0.0,Castellano,0.0,2.0,3.0,yes,no,no,Flauta,8,,,  ,72.0,yes
224,2024-04-14_13h16.07.122,Experiment4_uns,s180,24.0,masculino,right,España,Catalan Castellano,Bachelor degree,no,no,B,2,what,L1,unsyncopated,s1,r2,88,Online_whatL1//a.pu.ki11.none.none.wav,ta,lu,ri,sil,be,la,fa,sil1,ne,ze,sil2,['-'],,,none,none,,,,pu,1,,,,,,,,,,,,,,,2.0,2.0,Catalan,0.0,Castellano,0.0,2.0,3.0,yes,no,no,Flauta,8,,,  ,72.0,yes
225,2024-04-14_13h16.07.122,Experiment4_uns,s180,24.0,masculino,right,España,Catalan Castellano,Bachelor degree,no,no,B,2,what,L1,unsyncopated,s2,r1,89,Online_whatL1//a.pu.ki8.1110.1998.wav,ri,ro,cho,sil2,pu,zu,ne,sil,ki,lu,sil1,['catch'],[1.663000000000011],[1.663000000000011],1.11,no_beat,0.5530000000000108,0.5530000000000108,"[""space""]",pu,1,,,,,,,,,,,,,,,2.0,2.0,Catalan,0.0,Castellano,0.0,2.0,3.0,yes,no,no,Flauta,8,,,  ,72.0,yes
226,2024-04-14_13h16.07.122,Experiment4_uns,s180,24.0,masculino,right,España,Catalan Castellano,Bachelor degree,no,no,B,2,what,L1,unsyncopated,s1,r2,90,Online_whatL1//a.pu.ki9.none.none.wav,ta,ne,la,sil2,be,zu,ze,sil,fo,lu,sil1,['-'],,,none,none,,,,pu,1,,,,,,,,,,,,,,,2.0,2.0,Catalan,0.0,Castellano,0.0,2.0,3.0,yes,no,no,Flauta,8,,,  ,72.0,yes
227,2024-04-14_13h16.07.122,Experiment4_uns,s180,24.0,masculino,right,España,Catalan Castellano,Bachelor degree,no,no,B,2,what,L1,unsyncopated,s2,r1,91,Online_whatL1//a.pu.ki10.888.1776.wav,ni,la,lu,sil,pu,zu,ze,sil1,ki,ne,sil2,['catch'],[1.5040000000001328],[1.5040000000001328],0.888,beat,0.6160000000001328,0.6160000000001328,"[""space""]",pu,1,,,,,,,,,,,,,,,2.0,2.0,Catalan,0.0,Castellano,0.0,2.0,3.0,yes,no,no,Flauta,8,,,  ,72.0,yes
228,2024-04-14_13h16.07.122,Experiment4_uns,s180,24.0,masculino,right,España,Catalan Castellano,Bachelor degree,no,no,B,2,what,L1,unsyncopated,s1,r2,92,Online_whatL1//d.ne.ni13.1998.222.wav,ta,ni,fa,sil2,be,ro,ze,sil,ne,fo,sil1,['miss'],,,0.222,no_beat,,,,ni,4,,,,,,,,,,,,,,,2.0,2.0,Catalan,0.0,Castellano,0.0,2.0,3.0,yes,no,no,Flauta,8,,,  ,72.0,yes
229,2024-04-14_13h16.07.122,Experiment4_uns,s180,24.0,masculino,right,España,Catalan Castellano,Bachelor degree,no,no,B,2,what,L1,unsyncopated,s1,r1,93,Online_whatL1//d.ne.ni12.1554.222.wav,pu,ni,fa,sil2,ki,lu,ne,sil,cho,ro,sil1,['catch'],[0.5270000000000437],[0.5270000000000437],0.222,no_beat,0.3050000000000437,0.3050000000000437,"[""space""]",ni,4,,,,,,,,,,,,,,,2.0,2.0,Catalan,0.0,Castellano,0.0,2.0,3.0,yes,no,no,Flauta,8,,,  ,72.0,yes
230,2024-04-14_13h16.07.122,Experiment4_uns,s180,24.0,masculino,right,España,Catalan Castellano,Bachelor degree,no,no,B,2,what,L1,unsyncopated,s2,r2,94,Online_whatL1//d.ne.ni14.1332.0.wav,ni,cho,fo,sil,ta,zu,ne,sil2,be,lu,sil1,['miss'],,,0.0,beat,,,,ni,4,,,,,,,,,,,,,,,2.0,2.0,Catalan,0.0,Castellano,0.0,2.0,3.0,yes,no,no,Flauta,8,,,  ,72.0,yes
231,2024-04-14_13h16.07.122,Experiment4_uns,s180,24.0,masculino,right,España,Catalan Castellano,Bachelor degree,no,no,B,2,what,L1,unsyncopated,s2,r2,95,Online_whatL1//d.ne.ni15.222.1110.wav,la,ne,ro,sil,ta,ni,cho,sil1,be,zu,sil2,['miss'],,,1.11,no_beat,,,,ni,4,,,,,,,,,,,,,,,2.0,2.0,Catalan,0.0,Castellano,0.0,2.0,3.0,yes,no,no,Flauta,8,,,  ,72.0,yes
